"Time (s)","Gyroscope x (rad/s)","Gyroscope y (rad/s)","Gyroscope z (rad/s)"
3.813744600E-2,0.000000000E0,0.000000000E0,0.000000000E0
4.833031700E-2,0.000000000E0,0.000000000E0,0.000000000E0
5.843163500E-2,0.000000000E0,0.000000000E0,0.000000000E0
6.856347100E-2,0.000000000E0,0.000000000E0,0.000000000E0
7.878686000E-2,0.000000000E0,0.000000000E0,0.000000000E0
8.882714300E-2,0.000000000E0,0.000000000E0,0.000000000E0
9.810448700E-2,0.000000000E0,0.000000000E0,0.000000000E0
1.082058050E-1,0.000000000E0,0.000000000E0,0.000000000E0
1.182460880E-1,0.000000000E0,0.000000000E0,0.000000000E0
1.283168890E-1,0.000000000E0,0.000000000E0,0.000000000E0
1.383876900E-1,-1.623535156E-2,1.441955566E-2,-1.047210693E-1
1.484584910E-1,-8.181762695E-2,3.958129883E-2,-1.391448975E-1
1.585598090E-1,-1.503753662E-1,4.882812500E-2,-1.988220215E-1
1.686000920E-1,-2.023162842E-1,4.925537109E-2,-2.674255371E-1
1.786708930E-1,-2.352905273E-1,5.561828613E-2,-3.174285889E-1
1.887722110E-1,-2.574615479E-1,5.590820312E-2,-3.785247803E-1
1.988124950E-1,-2.798767090E-1,5.380249023E-2,-5.520935059E-1
2.088832950E-1,-3.263092041E-1,8.087158203E-2,-6.970825195E-1
2.189235790E-1,-3.767547607E-1,1.252288818E-1,-7.851715088E-1
2.290554140E-1,-4.124145508E-1,1.690063477E-1,-8.261108398E-1
2.390956980E-1,-4.346771240E-1,1.998138428E-1,-8.613281250E-1
2.491970160E-1,-4.332580566E-1,2.277984619E-1,-8.604736328E-1
2.592372990E-1,-4.232330322E-1,2.489471436E-1,-8.579101562E-1
2.693081000E-1,-4.118194580E-1,2.546234131E-1,-8.610687256E-1
2.794094180E-1,-4.008636475E-1,2.453002930E-1,-8.585815430E-1
2.894802190E-1,-3.793182373E-1,2.495880127E-1,-7.933044434E-1
2.995510200E-1,-3.512268066E-1,2.483520508E-1,-6.888732910E-1
3.096523380E-1,-3.360443115E-1,2.064819336E-1,-6.457824707E-1
3.197231390E-1,-3.234710693E-1,1.634674072E-1,-6.206817627E-1
3.297634220E-1,-3.074340820E-1,1.299896240E-1,-6.007995605E-1
3.398342230E-1,-2.953338623E-1,9.104919434E-2,-6.216125488E-1
3.498745060E-1,-2.782440186E-1,7.398986816E-2,-6.322021484E-1
3.599147890E-1,-2.676696777E-1,4.357910156E-2,-6.899871826E-1
3.699245550E-1,-2.592620850E-1,5.996704102E-3,-7.637481689E-1
3.801174260E-1,-2.265625000E-1,2.874755859E-2,-7.001190186E-1
3.901882270E-1,-1.896057129E-1,3.344726562E-2,-6.563873291E-1
4.003810980E-1,-1.412048340E-1,3.837585449E-2,-5.950164795E-1
4.115810490E-1,-9.864807129E-2,2.694702148E-2,-5.575561523E-1
4.208278750E-1,-6.910705566E-2,2.572631836E-2,-5.140075684E-1
4.308986760E-1,-5.047607422E-2,7.196044922E-2,-3.832702637E-1
4.412441350E-1,-7.241821289E-2,8.479309082E-2,-3.470611572E-1
4.514370060E-1,-8.460998535E-2,1.351470947E-1,-2.046966553E-1
4.614772890E-1,-1.053314209E-1,1.426696777E-1,-1.206665039E-1
4.707546330E-1,-1.297149658E-1,1.091461182E-1,-1.039276123E-1
4.807949160E-1,-1.389160156E-1,7.710266113E-2,-7.032775879E-2
4.908657170E-1,-1.481933594E-1,5.334472656E-2,-3.028869629E-2
5.009060000E-1,-1.517333984E-1,5.751037598E-2,5.285644531E-2
5.109157660E-1,-1.577301025E-1,5.766296387E-2,9.718322754E-2
5.210781200E-1,-1.633453369E-1,5.844116211E-2,1.188201904E-1
5.311489200E-1,-1.760253906E-1,4.524230957E-2,9.956359863E-2
5.412197210E-1,-1.894226074E-1,3.378295898E-2,8.096313477E-2
5.512905220E-1,-1.923065186E-1,6.390380859E-2,1.209564209E-1
5.613613230E-1,-2.080078125E-1,9.980773926E-2,8.453369141E-2
5.714626410E-1,-2.380371094E-1,1.447906494E-1,-4.283142090E-2
5.815334420E-1,-2.777862549E-1,1.870727539E-1,-2.443847656E-1
5.915737250E-1,-3.346557617E-1,1.773834229E-1,-5.347442627E-1
6.016445260E-1,-3.714294434E-1,1.876373291E-1,-6.426391602E-1
6.117153270E-1,-3.972015381E-1,2.065582275E-1,-5.917510986E-1
6.217861270E-1,-4.444122314E-1,1.944122314E-1,-5.635375977E-1
6.318569280E-1,-4.946441650E-1,2.059020996E-1,-4.597778320E-1
6.419582470E-1,-5.419769287E-1,2.257995605E-1,-3.226013184E-1
6.519985300E-1,-5.845336914E-1,2.274932861E-1,-2.272644043E-1
6.620693310E-1,-6.037750244E-1,2.151336670E-1,-1.506805420E-1
6.721401310E-1,-6.026458740E-1,1.906433105E-1,-1.016998291E-1
6.822109320E-1,-5.766906738E-1,1.764831543E-1,-2.024841309E-2
6.922817330E-1,-5.454864502E-1,1.439666748E-1,-5.477905273E-3
7.023525340E-1,-5.124969482E-1,1.183166504E-1,-2.670288086E-3
7.124233340E-1,-4.755859375E-1,1.068267822E-1,6.820678711E-3
7.224941350E-1,-4.407196045E-1,1.044921875E-1,9.963989258E-3
7.325954540E-1,-4.097137451E-1,9.757995605E-2,-2.182006836E-2
7.426662540E-1,-3.820800781E-1,7.231140137E-2,-1.228942871E-1
7.527370550E-1,-3.464660645E-1,5.838012695E-2,-1.930694580E-1
7.628688910E-1,-3.098449707E-1,3.483581543E-2,-2.787628174E-1
7.730922800E-1,-2.671508789E-1,1.879882812E-2,-3.054199219E-1
7.832851510E-1,-2.210845947E-1,2.227783203E-3,-2.883605957E-1
7.935085390E-1,-1.769561768E-1,-2.314758301E-2,-2.682037354E-1
8.037014110E-1,-1.401062012E-1,-5.310058594E-2,-2.701721191E-1
8.144130810E-1,-1.065826416E-1,-5.938720703E-2,-2.351074219E-1
8.241481880E-1,-8.169555664E-2,-5.635070801E-2,-1.820373535E-1
8.341274360E-1,-5.734252930E-2,-5.673217773E-2,-6.517028809E-2
8.433437450E-1,-3.599548340E-2,-8.116149902E-2,3.218078613E-2
8.534145450E-1,-1.156616211E-2,-1.085815430E-1,1.200408936E-1
8.634853460E-1,1.736450195E-2,-1.135864258E-1,2.070312500E-1
8.735561470E-1,3.396606445E-2,-1.136627197E-1,1.853332520E-1
8.836269480E-1,3.065490723E-2,-1.145324707E-1,7.545471191E-2
8.936977480E-1,2.320861816E-2,-1.023864746E-1,-4.043579102E-3
9.037685490E-1,1.306152344E-2,-8.625793457E-2,-6.204223633E-2
9.138393500E-1,1.193237305E-2,-5.271911621E-2,-2.996826172E-2
9.239406680E-1,1.408386230E-2,-2.114868164E-2,4.823303223E-2
9.340114690E-1,6.011962891E-3,1.324462891E-2,6.007385254E-2
9.440517520E-1,-1.271057129E-2,3.861999512E-2,-6.774902344E-3
9.541225530E-1,-4.002380371E-2,4.241943359E-2,-1.030273438E-1
9.641933540E-1,-5.302429199E-2,4.856872559E-2,-9.291076660E-2
9.742641550E-1,-5.224609375E-2,5.520629883E-2,-4.322814941E-2
9.843349560E-1,-6.076049805E-2,4.750061035E-2,-5.046081543E-2
9.944057560E-1,-7.563781738E-2,3.727722168E-2,-8.181762695E-2
1.004507075E0,-8.256530762E-2,3.002929688E-2,-9.849548340E-2
1.014577875E0,-7.403564453E-2,2.386474609E-2,-8.816528320E-2
1.024618159E0,-5.580139160E-2,7.125854492E-3,-8.894348145E-2
1.034688959E0,-3.424072266E-2,-3.524780273E-3,-7.508850098E-2
1.044759760E0,-1.452636719E-2,-8.666992188E-3,-3.475952148E-2
1.054830561E0,-4.638671875E-3,-1.853942871E-2,-2.220153809E-2
1.064901362E0,-5.111694336E-3,-2.580261230E-2,-3.192138672E-2
1.074972163E0,1.327514648E-3,-2.566528320E-2,-4.602050781E-2
1.085042963E0,1.103210449E-2,-1.979064941E-2,-6.445312500E-2
1.095113764E0,1.605224609E-2,-3.540039062E-3,-5.395507812E-2
1.105215082E0,8.132934570E-3,1.141357422E-2,1.510620117E-2
1.115285883E0,-3.723144531E-3,3.436279297E-2,5.122375488E-2
1.125326166E0,-2.058410645E-2,4.740905762E-2,9.338378906E-3
1.135519038E0,-3.895568848E-2,4.910278320E-2,-7.055664062E-2
1.145742426E0,-4.827880859E-2,4.727172852E-2,-7.341003418E-2
1.155965815E0,-5.897521973E-2,3.375244141E-2,-3.898620605E-2
1.166158686E0,-6.575012207E-2,2.647399902E-2,2.992248535E-2
1.176351557E0,-7.022094727E-2,1.805114746E-2,7.565307617E-2
1.186544428E0,-8.586120605E-2,1.387023926E-2,8.964538574E-2
1.196645747E0,-9.632873535E-2,1.852416992E-2,9.223937988E-2
1.205892573E0,-1.092224121E-1,3.662109375E-3,1.936340332E-2
1.217184077E0,-9.573364258E-2,-1.098632812E-3,-9.323120117E-3
1.226034174E0,-8.135986328E-2,-1.622009277E-2,-6.617736816E-2
1.236104975E0,-6.507873535E-2,-3.211975098E-2,-1.158905029E-1
1.246175776E0,-4.920959473E-2,-2.891540527E-2,-9.179687500E-2
1.256277094E0,-4.124450684E-2,-3.332519531E-2,-7.818603516E-2
1.266347895E0,-3.416442871E-2,-2.969360352E-2,-3.041076660E-2
1.276418696E0,-3.092956543E-2,-2.661132812E-2,-5.859375000E-3
1.286489497E0,-3.450012207E-2,-2.252197266E-2,-1.037597656E-3
1.296529780E0,-4.312133789E-2,-1.727294922E-2,-1.341247559E-2
1.306600581E0,-4.560852051E-2,-7.659912109E-3,-2.890014648E-2
1.316671381E0,-5.284118652E-2,-4.760742188E-3,-5.598449707E-2
1.326772700E0,-5.528259277E-2,-1.219177246E-2,-8.103942871E-2
1.336843500E0,-4.624938965E-2,-2.188110352E-2,-7.241821289E-2
1.346914301E0,-3.265380859E-2,-3.334045410E-2,-3.787231445E-2
1.356985102E0,-2.275085449E-2,-5.635070801E-2,-1.855468750E-2
1.367025385E0,-8.529663086E-3,-6.300354004E-2,5.639648438E-2
1.377096186E0,4.043579102E-3,-5.873107910E-2,1.217651367E-1
1.387197504E0,8.651733398E-3,-4.536437988E-2,1.271972656E-1
1.397268305E0,1.393127441E-2,-2.224731445E-2,1.156616211E-1
1.407339106E0,2.586364746E-2,-2.270507812E-2,5.552673340E-2
1.417379389E0,5.354309082E-2,-3.717041016E-2,-5.142211914E-3
1.427450190E0,9.994506836E-2,-4.133605957E-2,-8.117675781E-3
1.437551508E0,1.534881592E-1,-3.753662109E-2,2.648925781E-2
1.447591791E0,1.928100586E-1,-3.952026367E-2,3.469848633E-2
1.457662592E0,1.842803955E-1,-6.196594238E-2,-3.538513184E-2
1.467763911E0,1.530151367E-1,-6.236267090E-2,-3.698730469E-2
1.477834711E0,1.123046875E-1,-4.479980469E-2,5.767822266E-3
1.487905512E0,6.903076172E-2,-2.749633789E-2,-5.187988281E-4
1.497945795E0,3.123474121E-2,-1.278686523E-2,-3.140258789E-2
1.508108149E0,1.419067383E-3,-4.882812500E-3,-6.816101074E-2
1.518301020E0,-2.386474609E-2,1.373291016E-4,-8.018493652E-2
1.528524409E0,-4.809570312E-2,1.159667969E-2,-7.899475098E-2
1.538686762E0,-9.738159180E-2,3.573608398E-2,-1.119232178E-1
1.548940668E0,-1.613311768E-1,6.376647949E-2,-1.717987061E-1
1.559072504E0,-2.112121582E-1,8.952331543E-2,-2.160339355E-1
1.569356928E0,-2.277526855E-1,1.041717529E-1,-2.137756348E-1
1.579336176E0,-2.224884033E-1,1.079406738E-1,-2.157287598E-1
1.588583002E0,-6.983947754E-2,3.350830078E-2,-8.859252930E-2
1.598684321E0,-7.696533203E-2,3.961181641E-2,-1.155548096E-1
1.608755122E0,-8.149719238E-2,4.331970215E-2,-1.369781494E-1
1.619253168E0,-2.520751953E-1,1.339263916E-1,-4.213104248E-1
1.628896723E0,-2.055053711E-1,1.046295166E-1,-2.970886230E-1
1.638937006E0,-1.745147705E-1,7.460021973E-2,-2.127685547E-1
1.649007807E0,-1.502685547E-1,5.804443359E-2,-1.544036865E-1
1.659109125E0,-1.377105713E-1,3.776550293E-2,-1.968231201E-1
1.669179926E0,-1.275024414E-1,3.446960449E-2,-2.422790527E-1
1.679250727E0,-3.970336914E-2,1.350402832E-2,-9.167480469E-2
1.689291010E0,-4.408264160E-2,1.820373535E-2,-1.127319336E-1
1.699392329E0,-1.391143799E-1,4.740905762E-2,-4.141540527E-1
1.709463129E0,-1.072082520E-1,1.506042480E-2,-3.569030762E-1
1.719533930E0,-6.962585449E-2,-6.134033203E-3,-2.273559570E-1
1.729574213E0,-3.924560547E-2,-3.860473633E-2,-1.655273438E-1
1.739645014E0,-4.669189453E-3,-3.434753418E-2,-4.913330078E-2
1.749746332E0,1.693725586E-2,-2.937316895E-2,-3.128051758E-2
1.759817133E0,3.431701660E-2,-4.244995117E-2,2.922058105E-2
1.769887934E0,6.225585938E-2,-7.667541504E-2,9.031677246E-2
1.779928217E0,1.005401611E-1,-9.883117676E-2,1.430664062E-1
1.790029536E0,1.362457275E-1,-1.208953857E-1,9.677124023E-2
1.800100336E0,1.609802246E-1,-1.565399170E-1,-3.028869629E-2
1.810171137E0,1.801147461E-1,-1.721496582E-1,-8.811950684E-2
1.820119868E0,1.811523438E-1,-1.931457520E-1,-1.698913574E-1
1.830282221E0,5.709838867E-2,-6.845092773E-2,-7.522583008E-2
1.840353022E0,6.431579590E-2,-8.317565918E-2,-1.003112793E-1
1.850454340E0,6.759643555E-2,-9.606933594E-2,-1.267242432E-1
1.860494623E0,6.506347656E-2,-1.102142334E-1,-1.643218994E-1
1.870565424E0,5.953979492E-2,-1.188201904E-1,-1.914215088E-1
1.880666743E0,5.293273926E-2,-1.236877441E-1,-2.107543945E-1
1.890798579E0,4.431152344E-2,-1.304931641E-1,-2.383728027E-1
1.900991450E0,3.675842285E-2,-1.334991455E-1,-2.491149902E-1
1.911214838E0,2.902221680E-2,-1.359558105E-1,-2.602996826E-1
1.921377192E0,2.148437500E-2,-1.363067627E-1,-2.713775635E-1
1.931600581E0,1.284790039E-2,-1.348876953E-1,-2.836914062E-1
1.941793452E0,5.340576172E-3,-1.295013428E-1,-2.882080078E-1
1.951864252E0,9.613037109E-4,-1.197814941E-1,-2.795867920E-1
1.962026606E0,-7.507324219E-3,-1.125488281E-1,-2.763061523E-1
1.971273432E0,-1.771545410E-2,-1.000976562E-1,-2.498474121E-1
1.981344233E0,-3.443908691E-2,-9.695434570E-2,-2.532348633E-1
1.991445551E0,-5.070495605E-2,-9.109497070E-2,-2.498168945E-1
2.001485834E0,-1.961059570E-1,-2.735443115E-1,-7.804260254E-1
2.011556635E0,-1.884460449E-1,-2.337493896E-1,-6.775207520E-1
2.022359858E0,-1.689300537E-1,-1.979827881E-1,-5.850982666E-1
2.031759272E0,-1.387634277E-1,-1.683654785E-1,-4.724731445E-1
2.041830073E0,-1.038208008E-1,-1.559600830E-1,-3.356170654E-1
2.051900873E0,-7.118225098E-2,-1.535949707E-1,-2.005462646E-1
2.061971674E0,-4.660034180E-2,-1.581268311E-1,-1.128997803E-1
2.071981440E0,-3.057861328E-2,-1.655426025E-1,-7.389831543E-2
2.082052241E0,-1.737976074E-2,-1.584930420E-1,-2.267456055E-2
2.092184077E0,-9.674072266E-3,-1.482086182E-1,-5.981445312E-3
2.102254877E0,5.355834961E-3,-1.302642822E-1,2.038574219E-2
2.112325678E0,5.401611328E-3,-4.333496094E-2,-5.218505859E-3
2.122396479E0,9.582519531E-3,-5.569458008E-2,-2.507019043E-2
2.132467280E0,1.283264160E-2,-6.881713867E-2,-5.198669434E-2
2.142538081E0,1.574707031E-2,-8.007812500E-2,-8.020019531E-2
2.152578364E0,1.872253418E-2,-8.775329590E-2,-9.896850586E-2
2.162649164E0,2.023315430E-2,-9.437561035E-2,-1.135711670E-1
2.172750483E0,2.096557617E-2,-1.006317139E-1,-1.278228760E-1
2.182821284E0,6.622314453E-2,-3.137969971E-1,-4.027404785E-1
2.192892084E0,5.680847168E-2,-2.635345459E-1,-3.150482178E-1
2.202962885E0,4.541015625E-2,-2.504272461E-1,-2.807464600E-1
2.213003168E0,4.905700684E-2,-2.302703857E-1,-1.800994873E-1
2.223104487E0,5.850219727E-2,-2.102966309E-1,-6.271362305E-2
2.233175288E0,6.101989746E-2,-2.074890137E-1,-1.852416992E-2
2.243215571E0,6.608581543E-2,-2.015380859E-1,3.173828125E-3
2.253408442E0,7.402038574E-2,-1.903686523E-1,-7.156372070E-3
2.263601313E0,8.277893066E-2,-1.830139160E-1,-5.181884766E-2
2.273824702E0,8.384704590E-2,-1.793060303E-1,-1.077117920E-1
2.284048090E0,6.707763672E-2,-1.793212891E-1,-1.680450439E-1
2.294240961E0,3.982543945E-2,-1.750946045E-1,-1.988677979E-1
2.304464350E0,1.396179199E-2,-1.638336182E-1,-1.952972412E-1
2.314657221E0,-5.142211914E-3,-1.437683105E-1,-1.751861572E-1
2.324697504E0,-2.030944824E-2,-1.312408447E-1,-1.855010986E-1
2.333883295E0,-3.819274902E-2,-1.293945312E-1,-2.183227539E-1
2.343954096E0,-6.730651855E-2,-1.413879395E-1,-2.783355713E-1
2.354024897E0,-3.179931641E-2,-4.055786133E-2,-8.064270020E-2
2.364065180E0,-5.068969727E-2,-3.938293457E-2,-8.212280273E-2
2.374135981E0,-7.067871094E-2,-3.604125977E-2,-7.858276367E-2
2.384206782E0,-2.654876709E-1,-1.082153320E-1,-2.343444824E-1
2.394277582E0,-2.686462402E-1,-1.187896729E-1,-2.651519775E-1
2.404348383E0,-2.554779053E-1,-1.237182617E-1,-2.476959229E-1
2.414449702E0,-2.385253906E-1,-1.236877441E-1,-2.123413086E-1
2.424489985E0,-2.266693115E-1,-1.127471924E-1,-1.752777100E-1
2.434530268E0,-2.421722412E-1,-1.187591553E-1,-2.567596436E-1
2.444631586E0,-2.476501465E-1,-9.300231934E-2,-2.542724609E-1
2.454702387E0,-2.654266357E-1,-9.115600586E-2,-3.056640625E-1
2.464773188E0,-2.816009521E-1,-9.724426270E-2,-3.300628662E-1
2.474813471E0,-2.996826172E-1,-7.620239258E-2,-3.546752930E-1
2.484884272E0,-3.330535889E-1,-5.055236816E-2,-4.720458984E-1
2.494985590E0,-3.564453125E-1,-1.776123047E-2,-5.734863281E-1
2.505056391E0,-3.736877441E-1,5.187988281E-3,-6.247863770E-1
2.515157709E0,-3.850402832E-1,3.080749512E-2,-5.622406006E-1
2.525228510E0,-3.940277100E-1,3.752136230E-2,-5.044708252E-1
2.535299311E0,-3.886566162E-1,2.767944336E-2,-4.642486572E-1
2.545339594E0,-3.641357422E-1,1.626586914E-2,-3.950653076E-1
2.555410395E0,-3.390655518E-1,-1.403808594E-3,-3.541412354E-1
2.565450678E0,-3.158874512E-1,-1.144409180E-2,-3.096771240E-1
2.575521479E0,-2.913360596E-1,-1.295471191E-2,-2.520904541E-1
2.585653315E0,-2.729034424E-1,-2.857971191E-2,-2.630310059E-1
2.595724116E0,-2.442169189E-1,-4.116821289E-2,-2.724304199E-1
2.605794916E0,-2.118835449E-1,-6.329345703E-2,-3.038330078E-1
2.615865717E0,-1.788635254E-1,-9.118652344E-2,-3.209991455E-1
2.626089106E0,-1.520690918E-1,-1.262359619E-1,-3.365325928E-1
2.636251459E0,-9.469604492E-2,-1.100463867E-1,-1.282653809E-1
2.646413813E0,-4.495239258E-2,-9.608459473E-2,4.806518555E-2
2.656637202E0,-1.715087891E-2,-1.035766602E-1,1.135711670E-1
2.666952143E0,-2.593994141E-3,-1.192169189E-1,1.289520264E-1
2.677175532E0,2.026367188E-2,-1.155395508E-1,2.354278564E-1
2.686300288E0,3.796386719E-2,-1.283721924E-1,2.703857422E-1
2.696401606E0,6.002807617E-2,-1.361694336E-1,2.984924316E-1
2.706472407E0,8.660888672E-2,-1.298217773E-1,3.307952881E-1
2.716573725E0,1.001434326E-1,-1.340484619E-1,2.876739502E-1
2.726644526E0,1.077423096E-1,-1.410827637E-1,2.327117920E-1
2.736684809E0,1.224517822E-1,-1.336975098E-1,2.553100586E-1
2.746786127E0,1.239776611E-1,-1.284332275E-1,2.246093750E-1
2.756856928E0,3.701782227E-2,-4.359436035E-2,3.875732422E-2
2.766927729E0,4.132080078E-2,-5.082702637E-2,2.638244629E-2
2.776998530E0,1.436157227E-1,-1.629791260E-1,1.011810303E-1
2.787038813E0,1.225280762E-1,-1.590576172E-1,3.707885742E-2
2.797109614E0,1.146240234E-1,-1.532897949E-1,3.494262695E-2
2.807180414E0,9.812927246E-2,-1.735992432E-1,-2.503967285E-2
2.817281733E0,9.741210938E-2,-1.719665527E-1,7.431030273E-3
2.827871332E0,1.098480225E-1,-1.436920166E-1,1.178283691E-1
2.837423334E0,2.960205078E-2,-4.832458496E-2,2.183532715E-2
2.847463618E0,3.063964844E-2,-5.189514160E-2,2.455139160E-2
2.857564936E0,2.984619141E-2,-5.322265625E-2,1.922607422E-2
2.867635737E0,6.958007812E-2,-1.443786621E-1,4.493713379E-2
2.877706538E0,9.002685547E-4,-1.029357910E-1,-3.948974609E-2
2.887777338E0,-7.897949219E-2,-7.931518555E-2,-1.333007812E-1
2.897817622E0,-1.454620361E-1,-5.961608887E-2,-1.514587402E-1
2.907918940E0,-2.061004639E-1,-7.135009766E-2,-2.148742676E-1
2.917989741E0,-2.533721924E-1,-6.661987305E-2,-2.677612305E-1
2.927999506E0,-2.877502441E-1,-5.189514160E-2,-3.112945557E-1
2.938070307E0,-3.003540039E-1,-3.923034668E-2,-3.357849121E-1
2.948171625E0,-3.018646240E-1,-5.427551270E-2,-4.102020264E-1
2.958242426E0,-2.849121094E-1,-6.851196289E-2,-4.305725098E-1
2.968282709E0,-2.587738037E-1,-7.385253906E-2,-4.019317627E-1
2.978506098E0,-2.576446533E-1,-1.033325195E-1,-4.903259277E-1
2.988668452E0,-2.375183105E-1,-9.576416016E-2,-4.351196289E-1
2.998891840E0,-2.312774658E-1,-8.354187012E-2,-3.663024902E-1
3.009084711E0,-2.353515625E-1,-7.521057129E-2,-3.276367188E-1
3.019308100E0,-2.506408691E-1,-8.685302734E-2,-3.950195312E-1
3.029531489E0,-2.648315430E-1,-9.164428711E-2,-4.466552734E-1
3.039632807E0,-2.742004395E-1,-8.012390137E-2,-4.495849609E-1
3.048849116E0,-2.896728516E-1,-6.335449219E-2,-4.605865479E-1
3.058950434E0,-3.120880127E-1,-5.476379395E-2,-5.133209229E-1
3.068990717E0,-3.330688477E-1,-6.301879883E-2,-5.985412598E-1
3.079061518E0,-3.187866211E-1,-6.208801270E-2,-5.706787109E-1
3.089162836E0,-2.950134277E-1,-6.488037109E-2,-5.324707031E-1
3.099233637E0,-2.689666748E-1,-6.970214844E-2,-4.839324951E-1
3.109304438E0,-2.371063232E-1,-7.417297363E-2,-3.998870850E-1
3.119344721E0,-2.344055176E-1,-1.180267334E-1,-4.772644043E-1
3.129446039E0,-2.338409424E-1,-1.625823975E-1,-5.598449707E-1
3.139547358E0,-2.077941895E-1,-1.703491211E-1,-4.936065674E-1
3.149618159E0,-1.691131592E-1,-1.476593018E-1,-3.306427002E-1
3.159688959E0,-1.580047607E-1,-1.428375244E-1,-2.976989746E-1
3.169729243E0,-1.475982666E-1,-1.289825439E-1,-2.622375488E-1
3.179830561E0,-1.500854492E-1,-1.279449463E-1,-3.031768799E-1
3.189870844E0,-1.456756592E-1,-1.171112061E-1,-2.996063232E-1
3.199941645E0,-1.287841797E-1,-8.459472656E-2,-2.141113281E-1
3.210042963E0,-1.347351074E-1,-7.159423828E-2,-2.519989014E-1
3.220083247E0,-1.340332031E-1,-5.615234375E-2,-2.638702393E-1
3.230398188E0,-1.464691162E-1,-7.127380371E-2,-3.702850342E-1
3.240255366E0,-1.443939209E-1,-8.366394043E-2,-4.303436279E-1
3.250326166E0,-1.334228516E-1,-8.311462402E-2,-4.408264160E-1
3.260366450E0,-1.062774658E-1,-6.225585938E-2,-3.342742920E-1
3.270467768E0,-8.734130859E-2,-4.840087891E-2,-2.583160400E-1
3.280538569E0,-6.930541992E-2,-5.000305176E-2,-2.267150879E-1
3.290609370E0,-4.730224609E-2,-5.764770508E-2,-1.966705322E-1
3.300680170E0,-2.120971680E-2,-5.882263184E-2,-1.380615234E-1
3.310750971E0,-7.797241211E-3,-5.717468262E-2,-1.160278320E-1
3.320821772E0,-1.115417480E-2,-5.627441406E-2,-1.476287842E-1
3.330984125E0,-4.592895508E-3,-1.493835449E-2,-5.180358887E-2
3.341207514E0,-5.752563477E-3,-1.295471191E-2,-6.074523926E-2
3.351430903E0,-7.583618164E-3,-1.150512695E-2,-7.099914551E-2
3.361654291E0,-3.707885742E-3,-6.393432617E-3,-5.305480957E-2
3.371847163E0,2.838134766E-3,-3.692626953E-3,-2.951049805E-2
3.382101069E0,9.552001953E-3,-5.325317383E-3,-1.739501953E-2
3.392171870E0,1.826477051E-2,-6.332397461E-3,-1.144409180E-3
3.402273188E0,2.960205078E-2,-5.996704102E-3,1.615905762E-2
3.411458979E0,4.139709473E-2,-4.592895508E-3,3.282165527E-2
3.421529780E0,4.858398438E-2,-6.256103516E-3,3.131103516E-2
3.431600581E0,5.130004883E-2,-8.834838867E-3,2.020263672E-2
3.441671381E0,4.893493652E-2,-1.248168945E-2,-9.155273438E-5
3.451742182E0,4.580688477E-2,-1.287841797E-2,-1.383972168E-2
3.461812983E0,4.490661621E-2,-1.210021973E-2,-1.638793945E-2
3.471883784E0,1.363677979E-1,-3.572082520E-2,-4.280090332E-2
3.481954584E0,1.131744385E-1,-2.632141113E-2,-3.065490723E-2
3.492025385E0,1.011657715E-1,-2.323913574E-2,-7.369995117E-3
3.502096186E0,1.013336182E-1,-3.106689453E-2,5.841064453E-2
3.512136469E0,1.118316650E-1,-4.837036133E-2,1.724700928E-1
3.522207270E0,1.254882812E-1,-6.762695312E-2,2.984008789E-1
3.532278071E0,4.411315918E-2,-2.610778809E-2,1.224670410E-1
3.542348872E0,4.986572266E-2,-2.952575684E-2,1.390686035E-1
3.552389155E0,5.229187012E-2,-2.949523926E-2,1.390838623E-1
3.562459956E0,5.282592773E-2,-2.861022949E-2,1.354522705E-1
3.572530756E0,5.253601074E-2,-2.821350098E-2,1.315307617E-1
3.582601557E0,5.200195312E-2,-2.865600586E-2,1.279907227E-1
3.592702875E0,5.152893066E-2,-2.955627441E-2,1.264801025E-1
3.602743159E0,5.049133301E-2,-3.086853027E-2,1.304931641E-1
3.612813959E0,4.777526855E-2,-3.221130371E-2,1.314544678E-1
3.622915278E0,4.420471191E-2,-3.413391113E-2,1.253204346E-1
3.633321772E0,4.078674316E-2,-3.688049316E-2,1.126708984E-1
3.643026362E0,3.846740723E-2,-3.991699219E-2,1.007385254E-1
3.653127680E0,3.701782227E-2,-4.179382324E-2,9.291076660E-2
3.663198481E0,3.724670410E-2,-4.263305664E-2,9.606933594E-2
3.673269282E0,1.206359863E-1,-1.360931396E-1,3.210144043E-1
3.683309565E0,1.107330322E-1,-1.204528809E-1,2.940673828E-1
3.693441401E0,1.012420654E-1,-1.159515381E-1,2.538452148E-1
3.703664789E0,1.047515869E-1,-9.312438965E-2,2.947082520E-1
3.713857661E0,8.689880371E-2,-8.355712891E-2,2.519073486E-1
3.724081049E0,6.454467773E-2,-7.479858398E-2,1.913146973E-1
3.734304438E0,4.437255859E-2,-6.430053711E-2,1.293640137E-1
3.744497309E0,1.223754883E-2,-1.623535156E-2,3.637695312E-2
3.754720698E0,1.226806641E-2,-1.460266113E-2,3.573608398E-2
3.764730463E0,1.100158691E-2,-1.210021973E-2,3.445434570E-2
3.773977289E0,9.643554688E-3,-9.719848633E-3,3.540039062E-2
3.784017573E0,8.895874023E-3,-8.804321289E-3,3.414916992E-2
3.794118891E0,1.010131836E-2,-9.246826172E-3,3.225708008E-2
3.804189692E0,1.364135742E-2,-1.141357422E-2,3.097534180E-2
3.814260493E0,1.826477051E-2,-1.490783691E-2,3.091430664E-2
3.824300776E0,2.185058594E-2,-1.908874512E-2,2.850341797E-2
3.834371577E0,2.478027344E-2,-2.359008789E-2,2.500915527E-2
3.844442377E0,2.874755859E-2,-2.711486816E-2,1.936340332E-2
3.854543696E0,3.610229492E-2,-3.024291992E-2,1.757812500E-2
3.864614497E0,4.429626465E-2,-3.242492676E-2,1.968383789E-2
3.874654780E0,4.887390137E-2,-3.318786621E-2,1.989746094E-2
3.884756098E0,1.482543945E-1,-9.738159180E-2,5.455017090E-2
3.894826899E0,1.007232666E-1,-8.813476562E-2,-2.413940430E-2
3.904897700E0,2.124023438E-2,-2.560424805E-2,-2.531433105E-2
3.914937983E0,1.820373535E-2,-2.697753906E-2,-3.833007812E-2
3.925008784E0,1.399230957E-2,-2.734375000E-2,-5.052185059E-2
3.935079584E0,9.231567383E-3,-2.613830566E-2,-6.196594238E-2
3.945180903E0,-2.136230469E-4,-3.039550781E-2,-9.931945801E-2
3.955251704E0,-2.044677734E-3,-2.958679199E-2,-1.051483154E-1
3.965322504E0,-2.365112305E-3,-2.757263184E-2,-1.079559326E-1
3.975362788E0,-2.929687500E-3,-2.545166016E-2,-1.157531738E-1
3.985464106E0,-6.561279297E-3,-2.607727051E-2,-1.401672363E-1
3.995534907E0,-9.735107422E-3,-2.650451660E-2,-1.627655029E-1
4.005605707E0,-1.200866699E-2,-2.601623535E-2,-1.784820557E-1
4.015676508E0,-1.159667969E-2,-2.505493164E-2,-1.828155518E-1
4.025747309E0,-8.239746094E-3,-2.551269531E-2,-1.741027832E-1
4.036520014E0,-3.616333008E-3,-2.728271484E-2,-1.593780518E-1
4.045888911E0,4.730224609E-4,-8.743286133E-2,-4.438171387E-1
4.055990229E0,2.578735352E-3,-7.414245605E-2,-3.468170166E-1
4.066183100E0,2.243041992E-3,-5.795288086E-2,-2.733154297E-1
4.076345454E0,-6.469726562E-3,-4.887390137E-2,-2.520141602E-1
4.086568842E0,-3.112792969E-3,-1.277160645E-2,-7.336425781E-2
4.096792231E0,-2.227783203E-3,-1.216125488E-2,-7.215881348E-2
4.106985102E0,4.577636719E-4,-3.576660156E-2,-2.029876709E-1
4.117208491E0,8.026123047E-3,-2.818298340E-2,-1.604156494E-1
4.127279291E0,2.026367188E-2,-2.626037598E-2,-1.281280518E-1
4.136526118E0,4.217529297E-2,-1.965332031E-2,-5.798339844E-2
4.146596918E0,6.150817871E-2,-1.812744141E-2,1.181030273E-2
4.156637202E0,7.527160645E-2,-2.073669434E-2,5.322265625E-2
4.166708002E0,7.823181152E-2,-2.377319336E-2,5.366516113E-2
4.176809321E0,7.296752930E-2,-2.581787109E-2,3.199768066E-2
4.186880122E0,6.361389160E-2,-2.713012695E-2,1.031494141E-2
4.196920405E0,5.151367188E-2,-3.202819824E-2,-1.901245117E-2
4.207021723E0,1.396179199E-2,-1.106262207E-2,-7.812500000E-3
4.217092524E0,1.507568359E-2,-1.329040527E-2,-4.653930664E-3
4.227163325E0,1.655578613E-2,-1.350402832E-2,3.967285156E-3
4.237203608E0,1.736450195E-2,-1.205444336E-2,1.295471191E-2
4.247274409E0,1.724243164E-2,-1.008605957E-2,1.951599121E-2
4.257345209E0,1.622009277E-2,-7.919311523E-3,2.239990234E-2
4.267446528E0,4.614257812E-2,-1.620483398E-2,7.107543945E-2
4.277486811E0,9.887695312E-3,-2.334594727E-3,1.515197754E-2
4.287557612E0,1.014709473E-2,-9.613037109E-4,1.792907715E-2
4.297658930E0,7.873535156E-3,5.035400391E-4,1.318359375E-2
4.307729731E0,2.716064453E-3,8.850097656E-4,-3.936767578E-3
4.317770014E0,-3.234863281E-3,1.586914062E-3,-2.729797363E-2
4.327840815E0,-1.048278809E-2,5.950927734E-4,-5.494689941E-2
4.337911616E0,-1.712036133E-2,-1.403808594E-3,-8.789062500E-2
4.347982416E0,-2.468872070E-2,-5.203247070E-3,-1.343841553E-1
4.358083735E0,-2.815246582E-2,-7.934570312E-3,-1.710968018E-1
4.368154536E0,-6.413269043E-2,-2.099609375E-2,-5.121917725E-1
4.378225336E0,-2.174377441E-2,-2.453613281E-2,-3.994445801E-1
4.388265620E0,1.742553711E-2,-3.451538086E-2,-3.140563965E-1
4.398366938E0,4.209899902E-2,-5.049133301E-2,-2.810058594E-1
4.408437739E0,6.913757324E-2,-5.613708496E-2,-2.406921387E-1
4.418508539E0,1.031799316E-1,-4.782104492E-2,-1.656494141E-1
4.428640375E0,1.407928467E-1,-5.291748047E-2,-3.405761719E-2
4.439748774E0,1.838684082E-1,-5.744934082E-2,1.727294922E-1
4.449056635E0,2.060852051E-1,-6.715393066E-2,3.030395508E-1
4.459280024E0,2.006072998E-1,-7.383728027E-2,3.097381592E-1
4.469472895E0,1.866302490E-1,-7.522583008E-2,2.655944824E-1
4.479696284E0,1.796722412E-1,-7.577514648E-2,2.465667725E-1
4.489797602E0,1.609649658E-1,-8.128356934E-2,1.938629150E-1
4.499929438E0,1.391448975E-1,-8.287048340E-2,1.159820557E-1
4.509115229E0,1.266326904E-1,-7.994079590E-2,5.169677734E-2
4.519216547E0,1.268920898E-1,-7.513427734E-2,1.901245117E-2
4.529287348E0,1.361389160E-1,-7.270812988E-2,1.420593262E-2
4.539358149E0,1.560668945E-1,-6.555175781E-2,5.686950684E-2
4.549398432E0,1.808013916E-1,-6.263732910E-2,1.156463623E-1
4.559499750E0,2.037963867E-1,-5.836486816E-2,1.836242676E-1
4.569570551E0,2.153472900E-1,-5.575561523E-2,2.188110352E-1
4.579641352E0,2.139129639E-1,-4.597473145E-2,2.341003418E-1
4.589681635E0,2.084045410E-1,-3.359985352E-2,2.485656738E-1
4.599782954E0,2.049713135E-1,-2.384948730E-2,2.558593750E-1
4.609823237E0,2.004394531E-1,-1.576232910E-2,2.379455566E-1
4.619894038E0,1.914825439E-1,-5.035400391E-3,2.086639404E-1
4.629995356E0,1.813049316E-1,1.104736328E-2,2.056732178E-1
4.640066157E0,1.689147949E-1,2.000427246E-2,2.108306885E-1
4.650136957E0,1.417388916E-1,3.640747070E-2,1.438751221E-1
4.660207758E0,9.877014160E-2,5.189514160E-2,-1.008605957E-2
4.670217524E0,6.091308594E-2,6.503295898E-2,-1.820831299E-1
4.680349360E0,4.589843750E-2,6.431579590E-2,-2.907257080E-1
4.690420161E0,6.866455078E-2,5.053710938E-2,-2.565917969E-1
4.700490961E0,1.166381836E-1,3.323364258E-2,-1.386108398E-1
4.710561762E0,1.672515869E-1,1.264953613E-2,-3.019714355E-2
4.720602045E0,2.081909180E-1,-1.232910156E-2,1.890563965E-2
4.730672846E0,2.402648926E-1,-3.558349609E-2,3.001403809E-2
4.740743647E0,2.598876953E-1,-5.245971680E-2,2.764892578E-2
4.750814448E0,2.578887939E-1,-7.249450684E-2,-1.501464844E-2
4.760915766E0,2.513885498E-1,-8.001708984E-2,-3.012084961E-2
4.770986567E0,2.358093262E-1,-7.960510254E-2,-3.938293457E-2
4.781057368E0,1.952514648E-1,-8.676147461E-2,-1.210632324E-1
4.791158686E0,1.404418945E-1,-7.884216309E-2,-2.393035889E-1
4.801351557E0,5.778503418E-2,-8.802795410E-2,-4.681701660E-1
4.811513911E0,-7.019042969E-3,-9.642028809E-2,-6.357116699E-1
4.821767817E0,-4.791259766E-2,-1.288452148E-1,-7.183532715E-1
4.831991206E0,-6.094360352E-2,-1.676177979E-1,-6.883087158E-1
4.842702875E0,-6.748962402E-2,-1.964111328E-1,-6.218566895E-1
4.852407465E0,-8.723449707E-2,-2.218170166E-1,-6.097564697E-1
4.862417231E0,-1.110229492E-1,-2.229156494E-1,-6.302185059E-1
4.871694575E0,-1.397247314E-1,-2.729034424E-1,-6.703643799E-1
4.881765375E0,-1.076965332E-1,-2.890014648E-1,-4.262084961E-1
4.891836176E0,-9.378051758E-2,-3.231048584E-1,-2.246398926E-1
4.901876459E0,-8.892822266E-2,-3.167114258E-1,-3.390502930E-2
4.911947260E0,-1.285095215E-1,-2.920684814E-1,2.200317383E-2
4.922018061E0,-2.176666260E-1,-2.657775879E-1,-6.396484375E-2
4.932088862E0,-3.428192139E-1,-2.661895752E-1,-2.946929932E-1
4.942159663E0,-4.425354004E-1,-2.483062744E-1,-4.511718750E-1
4.952230463E0,-5.588684082E-1,-2.677917480E-1,-7.088165283E-1
4.962331782E0,-6.304168701E-1,-2.647552490E-1,-8.592987061E-1
4.972402582E0,-6.728210449E-1,-2.583618164E-1,-9.643554688E-1
4.982473383E0,-7.080535889E-1,-2.722167969E-1,-1.106765747E0
4.992513666E0,-7.196502686E-1,-2.849121094E-1,-1.206512451E0
5.002584467E0,-7.158508301E-1,-2.966003418E-1,-1.276565552E0
5.012655268E0,-7.161865234E-1,-3.219451904E-1,-1.373718262E0
5.022726069E0,-7.001495361E-1,-3.419647217E-1,-1.395751953E0
5.032796870E0,-6.550903320E-1,-3.537750244E-1,-1.297943115E0
5.042867670E0,-5.880279541E-1,-3.484954834E-1,-1.113296509E0
5.052938471E0,-5.398559570E-1,-3.380584717E-1,-1.004409790E0
5.063039789E0,-4.975433350E-1,-2.947082520E-1,-8.974304199E-1
5.073080073E0,-4.722900391E-1,-2.439270020E-1,-8.416290283E-1
5.083150873E0,-4.745635986E-1,-2.161254883E-1,-8.889465332E-1
5.093221674E0,-1.611938477E-1,-6.776428223E-2,-3.230590820E-1
5.103292475E0,-1.903991699E-1,-7.647705078E-2,-3.934020996E-1
5.113363276E0,-2.059936523E-1,-7.963562012E-2,-4.214172363E-1
5.123464594E0,-6.612091064E-1,-2.585296631E-1,-1.381179810E0
5.133535395E0,-5.540008545E-1,-2.194671631E-1,-1.210647583E0
5.143606196E0,-4.623260498E-1,-1.871948242E-1,-1.067245483E0
5.153646479E0,-3.910369873E-1,-1.725616455E-1,-9.599761963E-1
5.163839350E0,-3.395690918E-1,-1.740570068E-1,-8.989868164E-1
5.174062739E0,-2.730865479E-1,-1.530761719E-1,-7.522277832E-1
5.184255610E0,-7.511901855E-2,-5.079650879E-2,-2.279052734E-1
5.194478998E0,-6.756591797E-2,-5.709838867E-2,-2.259063721E-1
5.204671870E0,-1.703948975E-1,-1.972503662E-1,-6.634063721E-1
5.214895258E0,-9.030151367E-2,-1.715850830E-1,-4.658508301E-1
5.224966059E0,-3.414916992E-2,-1.528625488E-1,-3.171081543E-1
5.234212885E0,9.918212891E-3,-1.478881836E-1,-1.539154053E-1
5.245809565E0,4.037475586E-2,-1.596984863E-1,-2.761840820E-2
5.254415522E0,8.151245117E-2,-1.683044434E-1,1.361846924E-1
5.264486323E0,1.388397217E-1,-1.487731934E-1,3.524627686E-1
5.274557123E0,5.409240723E-2,-4.711914062E-2,1.399383545E-1
5.284627924E0,7.177734375E-2,-5.259704590E-2,1.794281006E-1
5.294729243E0,2.762603760E-1,-1.741180420E-1,6.593170166E-1
5.304769526E0,2.761077881E-1,-1.724700928E-1,5.987396240E-1
5.314840327E0,2.833709717E-1,-1.856079102E-1,5.463714600E-1
5.324911127E0,3.306732178E-1,-1.771545410E-1,6.273651123E-1
5.334951411E0,3.985443115E-1,-1.594238281E-1,7.718658447E-1
5.345052729E0,4.438323975E-1,-1.584472656E-1,8.354492188E-1
5.355123530E0,4.671936035E-1,-1.613769531E-1,8.316802979E-1
5.365194331E0,4.864959717E-1,-1.540832520E-1,8.179321289E-1
5.375265131E0,4.972534180E-1,-1.437072754E-1,7.889251709E-1
5.385335932E0,4.935302734E-1,-1.426086426E-1,7.340698242E-1
5.395406733E0,4.855194092E-1,-1.417694092E-1,6.879272461E-1
5.405447016E0,4.807586670E-1,-1.338806152E-1,6.699523926E-1
5.415548334E0,4.636077881E-1,-1.279144287E-1,6.380004883E-1
5.425619135E0,1.481933594E-1,-3.941345215E-2,2.072143555E-1
5.435689936E0,5.105743408E-1,-1.345825195E-1,7.327423096E-1
5.445730219E0,4.463500977E-1,-1.301269531E-1,6.484069824E-1
5.455831538E0,3.858489990E-1,-1.264495850E-1,5.636749268E-1
5.465902338E0,3.292999268E-1,-1.216125488E-1,4.815368652E-1
5.475942622E0,2.902221680E-1,-1.053466797E-1,4.500732422E-1
5.486043940E0,2.683563232E-1,-8.607482910E-2,4.630889893E-1
5.496084223E0,7.983398438E-2,-2.410888672E-2,1.486511230E-1
5.506155024E0,2.575683594E-1,-7.798767090E-2,5.032501221E-1
5.516225825E0,2.058563232E-1,-7.191467285E-2,4.062500000E-1
5.526479731E0,1.465301514E-1,-7.923889160E-2,2.635650635E-1
5.536642084E0,9.512329102E-2,-8.526611328E-2,1.278686523E-1
5.546895991E0,5.999755859E-2,-8.827209473E-2,3.312683105E-2
5.557088862E0,2.476501465E-2,-9.757995605E-2,-6.008911133E-2
5.567281733E0,-1.322937012E-2,-1.073150635E-1,-1.501159668E-1
5.577505122E0,-6.845092773E-2,-1.246643066E-1,-2.733001709E-1
5.587667475E0,-1.114807129E-1,-1.340026855E-1,-3.460083008E-1
5.597707758E0,-1.247863770E-1,-1.291351318E-1,-3.289947510E-1
5.606893549E0,-1.310424805E-1,-1.391754150E-1,-2.963409424E-1
5.616933832E0,-1.105499268E-1,-1.599884033E-1,-2.027130127E-1
5.626974116E0,-9.451293945E-2,-1.838836670E-1,-1.131134033E-1
5.637075434E0,-8.456420898E-2,-1.835479736E-1,-2.565002441E-2
5.648672114E0,-1.331329346E-1,-1.974639893E-1,-1.263580322E-1
5.657186518E0,-1.638641357E-1,-1.985931396E-1,-2.262268066E-1
5.667287836E0,-1.985931396E-1,-2.095489502E-1,-3.728637695E-1
5.677328120E0,-2.187194824E-1,-2.163085938E-1,-4.862670898E-1
5.687429438E0,-2.310943604E-1,-2.185211182E-1,-5.722198486E-1
5.697500239E0,-2.333221436E-1,-2.242736816E-1,-6.319885254E-1
5.707571039E0,-2.231292725E-1,-2.404174805E-1,-6.547546387E-1
5.717641840E0,-2.293701172E-1,-2.944641113E-1,-7.119445801E-1
5.727712641E0,-1.751098633E-1,-3.277435303E-1,-5.831604004E-1
5.737783442E0,-7.020568848E-2,-3.470916748E-1,-2.974243164E-1
5.747854243E0,4.699707031E-3,-4.057312012E-1,-6.762695312E-2
5.757955561E0,9.161376953E-2,-4.458465576E-1,2.325744629E-1
5.768026362E0,2.242889404E-1,-4.694976807E-1,6.604309082E-1
5.778097163E0,2.718353271E-1,-5.113677979E-1,8.284606934E-1
5.788137446E0,2.859191895E-1,-5.034942627E-1,8.654785156E-1
5.798208247E0,2.584381104E-1,-4.810180664E-1,7.736511230E-1
5.808309565E0,2.042541504E-1,-4.576110840E-1,6.367034912E-1
5.818380366E0,1.051177979E-1,-4.522094727E-1,4.109039307E-1
5.828451166E0,1.634216309E-2,-4.392089844E-1,2.143096924E-1
5.838552485E0,-4.615783691E-2,-4.333801270E-1,7.313537598E-2
5.848562250E0,-5.995178223E-2,-4.292907715E-1,4.177856445E-2
5.858663569E0,-2.706909180E-2,-4.181060791E-1,1.191253662E-1
5.868734370E0,-1.109313965E-2,-4.280548096E-1,1.658935547E-1
5.878774653E0,4.272460938E-3,-4.455108643E-1,2.233428955E-1
5.888906489E0,7.617187500E-2,-4.399108887E-1,4.207000732E-1
5.899129877E0,9.573364258E-2,-4.530792236E-1,5.003356934E-1
5.909322748E0,1.177825928E-1,-4.514465332E-1,5.785827637E-1
5.919546137E0,1.146392822E-1,-4.463653564E-1,6.034393311E-1
5.929677973E0,1.234588623E-1,-4.226531982E-1,6.635284424E-1
5.939962397E0,1.140289307E-1,-3.997192383E-1,6.862487793E-1
5.950277338E0,1.032104492E-1,-3.697052002E-1,6.935882568E-1
5.960226069E0,8.462524414E-2,-3.383483887E-1,6.648406982E-1
5.969411860E0,5.694580078E-2,-3.078308105E-1,5.970916748E-1
5.979513178E0,2.569580078E-2,-2.714843750E-1,4.972686768E-1
5.989583979E0,-2.761840820E-3,-2.245635986E-1,3.826446533E-1
5.999593745E0,-1.385498047E-2,-1.828613281E-1,2.812347412E-1
6.009603510E0,-1.197814941E-2,-1.507415771E-1,2.121734619E-1
6.019796381E0,-1.654052734E-2,-1.267547607E-1,1.617889404E-1
6.029867182E0,-7.539367676E-2,-1.321258545E-1,4.142761230E-2
6.039937983E0,-1.085662842E-1,-1.317443848E-1,-1.329040527E-2
6.049917231E0,-1.499023438E-1,-1.456756592E-1,-8.062744141E-2
6.060110102E0,-1.590118408E-1,-1.481170654E-1,-7.946777344E-2
6.070119868E0,-1.386718750E-1,-1.332244873E-1,-3.189086914E-3
6.080160151E0,-1.555328369E-1,-1.281433105E-1,-3.921508789E-3
6.090291987E0,-2.011566162E-1,-1.226501465E-1,-7.537841797E-2
6.100362788E0,-2.398376465E-1,-1.079711914E-1,-1.423645020E-1
6.110433588E0,-2.294158936E-1,-8.140563965E-2,-1.352539062E-1
6.120504389E0,-2.246246338E-1,-6.619262695E-2,-1.477203369E-1
6.130544672E0,-2.839508057E-1,-6.768798828E-2,-2.580261230E-1
6.140584956E0,-3.279571533E-1,-6.086730957E-2,-3.062286377E-1
6.150655756E0,-3.646392822E-1,-6.806945801E-2,-3.084564209E-1
6.160757075E0,-3.819580078E-1,-9.284973145E-2,-2.797393799E-1
6.170827875E0,-3.562774658E-1,-1.283874512E-1,-2.108001709E-1
6.180898676E0,-3.065185547E-1,-1.855926514E-1,-1.327819824E-1
6.190969477E0,-2.453613281E-1,-2.496490479E-1,-5.027770996E-2
6.201009760E0,-1.776428223E-1,-2.877655029E-1,3.146362305E-2
6.211080561E0,-1.342010498E-1,-3.022918701E-1,5.618286133E-2
6.221151362E0,-1.213836670E-1,-3.155364990E-1,3.186035156E-2
6.231252680E0,-7.695007324E-2,-3.232116699E-1,7.876586914E-2
6.241323481E0,-3.529357910E-2,-3.252105713E-1,1.388549805E-1
6.251363764E0,1.506042480E-2,-3.312530518E-1,2.442016602E-1
6.261434565E0,9.025573730E-2,-3.426971436E-1,4.301757812E-1
6.271627436E0,1.832427979E-1,-3.545227051E-1,6.764373779E-1
6.281820307E0,2.569885254E-1,-3.746643066E-1,9.003143311E-1
6.292043696E0,3.233489990E-1,-3.963317871E-1,1.110336304E0
6.302267084E0,4.073028564E-1,-4.199523926E-1,1.341445923E0
6.312459956E0,4.668731689E-1,-4.601593018E-1,1.516174316E0
6.322774897E0,5.668945312E-1,-4.903259277E-1,1.737609863E0
6.332967768E0,6.722106934E-1,-5.055847168E-1,1.922348022E0
6.343008051E0,7.303466797E-1,-5.053253174E-1,1.972274780E0
6.352132807E0,7.221374512E-1,-5.044250488E-1,1.889297485E0
6.362203608E0,6.882629395E-1,-4.793395996E-1,1.747055054E0
6.372243891E0,6.629333496E-1,-4.370269775E-1,1.612915039E0
6.382284174E0,6.299591064E-1,-4.033203125E-1,1.475418091E0
6.392354975E0,6.198425293E-1,-3.827972412E-1,1.376403809E0
6.402456293E0,6.512451172E-1,-3.806152344E-1,1.342864990E0
6.412496577E0,7.259216309E-1,-3.958740234E-1,1.382431030E0
6.422597895E0,7.961883545E-1,-4.149169922E-1,1.443939209E0
6.432699213E0,8.441162109E-1,-4.050903320E-1,1.508544922E0
6.442770014E0,8.866119385E-1,-3.732452393E-1,1.592239380E0
6.453359614E0,9.119873047E-1,-3.480987549E-1,1.672866821E0
6.462881098E0,9.348907471E-1,-3.338165283E-1,1.765441895E0
6.472951899E0,9.316558838E-1,-3.247375488E-1,1.814758301E0
6.483053217E0,8.565063477E-1,-3.152008057E-1,1.741607666E0
6.493124018E0,7.554016113E-1,-2.914733887E-1,1.588119507E0
6.503194819E0,6.705932617E-1,-2.564544678E-1,1.402343750E0
6.513265620E0,5.982818604E-1,-2.276611328E-1,1.192977905E0
6.523336420E0,5.084075928E-1,-2.195892334E-1,9.636077881E-1
6.533407221E0,5.021209717E-1,-2.124938965E-1,8.596343994E-1
6.543478022E0,4.653320312E-1,-2.175903320E-1,7.472991943E-1
6.553548823E0,4.407196045E-1,-2.156219482E-1,6.709442139E-1
6.563619623E0,3.914642334E-1,-2.080383301E-1,5.776062012E-1
6.573690424E0,2.846679688E-1,-1.873168945E-1,4.272460938E-1
6.583730707E0,1.846771240E-1,-1.535797119E-1,3.069305420E-1
6.593801508E0,1.230163574E-1,-1.172332764E-1,2.615966797E-1
6.603902827E0,1.030273438E-1,-9.892272949E-2,2.900695801E-1
6.613943110E0,9.471130371E-2,-1.068878174E-1,3.473968506E-1
6.624013911E0,7.412719727E-2,-1.043090820E-1,3.648681641E-1
6.634084711E0,1.096801758E-1,-1.277618408E-1,3.992156982E-1
6.644191616E0,1.714630127E-1,-1.564941406E-1,4.289093018E-1
6.654262417E0,1.661071777E-1,-1.425781250E-1,3.799743652E-1
6.664546840E0,9.857177734E-2,-7.456970215E-2,2.932891846E-1
6.674800747E0,-1.138305664E-1,6.596374512E-2,6.538391113E-2
6.684963100E0,-2.959899902E-1,1.844787598E-1,-1.347198486E-1
6.695186489E0,-3.109283447E-1,2.347106934E-1,-1.475067139E-1
6.705379360E0,-2.192840576E-1,2.345733643E-1,-4.397583008E-2
6.715572231E0,-1.347198486E-1,2.374420166E-1,3.353881836E-2
6.725520961E0,-1.202239990E-1,2.806701660E-1,2.975463867E-3
6.734798305E0,-1.296386719E-1,3.120574951E-1,-6.404113770E-2
6.744869106E0,-1.283874512E-1,3.137207031E-1,-1.039886475E-1
6.754939907E0,-1.191558838E-1,3.167572021E-1,-1.097106934E-1
6.764980190E0,-1.230468750E-1,3.507537842E-1,-1.293182373E-1
6.775050991E0,-2.277526855E-1,4.038696289E-1,-3.127136230E-1
6.785121792E0,-2.751007080E-1,4.615478516E-1,-4.761962891E-1
6.795223110E0,-3.021850586E-1,4.861755371E-1,-6.372070312E-1
6.805293911E0,-2.648773193E-1,4.771728516E-1,-6.943817139E-1
6.815364711E0,-1.755218506E-1,4.506225586E-1,-6.369476318E-1
6.825435512E0,-1.145935059E-1,4.434204102E-1,-5.758209229E-1
6.835506313E0,-5.975341797E-2,4.392700195E-1,-4.862976074E-1
6.845577114E0,-7.446289062E-3,4.536743164E-1,-3.633117676E-1
6.856166713E0,-1.736450195E-2,4.957122803E-1,-3.465270996E-1
6.865749233E0,-2.748107910E-2,5.481414795E-1,-3.450469971E-1
6.875789516E0,-9.318542480E-2,5.695037842E-1,-4.048767090E-1
6.885860317E0,-7.756042480E-2,5.498657227E-1,-3.338928223E-1
6.895931118E0,4.330444336E-2,4.758300781E-1,-1.303558350E-1
6.906001918E0,1.735534668E-1,3.918609619E-1,3.395080566E-2
6.916103237E0,2.414245605E-1,3.638458252E-1,7.717895508E-2
6.926174038E0,2.114715576E-1,3.755035400E-1,-4.286193848E-2
6.936214321E0,1.031799316E-1,4.078521729E-1,-3.237152100E-1
6.946315639E0,-4.483032227E-2,4.454040527E-1,-7.212524414E-1
6.956386440E0,-1.451263428E-1,4.781036377E-1,-1.020935059E0
6.966457241E0,-1.996765137E-1,4.973754883E-1,-1.138870239E0
6.976558559E0,-1.974792480E-1,5.001068115E-1,-1.009323120E0
6.986598842E0,-2.042846680E-1,4.941558838E-1,-7.980346680E-1
6.996669643E0,-1.339263916E-1,4.569549561E-1,-4.686737061E-1
7.006709926E0,5.285644531E-2,3.826904297E-1,-4.420471191E-2
7.016780727E0,2.082672119E-1,2.874450684E-1,2.752075195E-1
7.026851528E0,2.863922119E-1,2.157440186E-1,5.609283447E-1
7.037044399E0,3.144073486E-1,1.794738770E-1,7.918090820E-1
7.047267788E0,3.340606689E-1,1.664428711E-1,9.591522217E-1
7.057491176E0,4.094390869E-1,1.218719482E-1,1.143615723E0
7.067684047E0,5.033569336E-1,3.350830078E-2,1.284362793E0
7.077846401E0,6.055145264E-1,-4.389953613E-2,1.361785889E0
7.088100307E0,6.208038330E-1,-9.463500977E-2,1.215789795E0
7.098293178E0,6.259155273E-1,-1.123809814E-1,1.054916382E0
7.108333461E0,5.662536621E-1,-1.088867188E-1,8.458862305E-1
7.117519252E0,5.639953613E-1,-7.850646973E-2,7.560424805E-1
7.127559536E0,5.641937256E-1,-7.829284668E-2,4.292907715E-1
7.137660854E0,5.897064209E-1,-9.449768066E-2,-5.355834961E-3
7.147731655E0,5.729980469E-1,-1.194458008E-1,-4.229583740E-1
7.157802456E0,5.235137939E-1,-1.215209961E-1,-6.470489502E-1
7.167842739E0,4.675750732E-1,-9.982299805E-2,-5.937194824E-1
7.177913540E0,4.387664795E-1,-5.894470215E-2,-2.575683594E-1
7.188014858E0,4.460601807E-1,-4.426574707E-2,2.040252686E-1
7.198085659E0,5.202484131E-1,-6.248474121E-2,6.669616699E-1
7.208156459E0,6.557312012E-1,-1.234130859E-1,1.055496216E0
7.218227260E0,7.443237305E-1,-2.001647949E-1,1.238479614E0
7.228267543E0,8.864288330E-1,-2.607727051E-1,1.440963745E0
7.238338344E0,9.751739502E-1,-2.830505371E-1,1.649414062E0
7.248378627E0,9.749908447E-1,-2.680053711E-1,1.745819092E0
7.258815639E0,9.496765137E-1,-2.143249512E-1,1.753997803E0
7.268550747E0,9.227905273E-1,-1.628570557E-1,1.788101196E0
7.278621547E0,8.972473145E-1,-1.161651611E-1,1.900192261E0
7.288692348E0,8.615112305E-1,-7.394409180E-2,2.016784668E0
7.298732631E0,8.483581543E-1,-1.495361328E-2,2.119125366E0
7.308803432E0,7.927093506E-1,4.519653320E-2,2.104675293E0
7.318874233E0,7.270812988E-1,1.087646484E-1,2.045623779E0
7.329006069E0,7.247467041E-1,1.715545654E-1,2.180786133E0
7.339076870E0,7.289123535E-1,2.124023438E-1,2.496398926E0
7.349117153E0,7.623748779E-1,2.693176270E-1,3.055404663E0
7.359218471E0,8.187408447E-1,3.319396973E-1,3.696395874E0
7.369289272E0,8.830413818E-1,3.836212158E-1,4.222534180E0
7.379390590E0,9.597930908E-1,3.626708984E-1,4.494750977E0
7.389400356E0,1.033691406E0,3.147888184E-1,4.493865967E0
7.399501674E0,1.044509888E0,2.540435791E-1,4.207977295E0
7.409572475E0,1.029327393E0,1.954956055E-1,3.765258789E0
7.419765346E0,9.886932373E-1,1.339569092E-1,3.271011353E0
7.429958217E0,9.777832031E-1,7.460021973E-2,2.845397949E0
7.440181606E0,9.450225830E-1,7.617187500E-2,2.438720703E0
7.450374477E0,9.255676270E-1,1.365203857E-1,2.093704224E0
7.460597866E0,8.798828125E-1,2.934112549E-1,1.795715332E0
7.470729702E0,8.183288574E-1,5.474700928E-1,1.557891846E0
7.481014125E0,6.961212158E-1,7.458801270E-1,1.291610718E0
7.490962856E0,6.011657715E-1,8.627929688E-1,1.094009399E0
7.500209682E0,5.860137939E-1,8.863525391E-1,1.034317017E0
7.510219448E0,6.108245850E-1,8.164215088E-1,1.030364990E0
7.520320766E0,6.247558594E-1,7.377777100E-1,9.811401367E-1
7.530422084E0,6.094055176E-1,7.019958496E-1,8.674926758E-1
7.540492885E0,6.247253418E-1,6.786956787E-1,8.434600830E-1
7.550563686E0,7.067108154E-1,6.445922852E-1,1.018127441E0
7.560634487E0,7.991027832E-1,5.804595947E-1,1.242187500E0
7.570705288E0,8.668518066E-1,4.496154785E-1,1.399993896E0
7.580776088E0,8.854522705E-1,3.267211914E-1,1.398498535E0
7.590846889E0,8.527679443E-1,2.118377686E-1,1.180389404E0
7.600917690E0,7.971191406E-1,1.054534912E-1,8.015289307E-1
7.610988491E0,7.511749268E-1,6.484985352E-3,3.783111572E-1
7.620906704E0,7.117462158E-1,-5.575561523E-2,-1.876831055E-2
7.631130092E0,6.864166260E-1,-5.105590820E-2,-2.969055176E-1
7.641200893E0,6.000976562E-1,-1.047821045E-1,-4.614257812E-1
7.651241176E0,6.100463867E-1,-2.336120605E-1,-2.007293701E-1
7.661678188E0,6.650238037E-1,-3.562164307E-1,2.494201660E-1
7.671382778E0,6.881713867E-1,-4.457092285E-1,6.020812988E-1
7.681423061E0,6.652526855E-1,-5.554351807E-1,7.958221436E-1
7.691524379E0,5.594482422E-1,-6.687622070E-1,7.889404297E-1
7.701595180E0,5.216369629E-1,-6.946868896E-1,7.684173584E-1
7.711696499E0,4.766540527E-1,-6.817779541E-1,7.738647461E-1
7.721736782E0,4.646148682E-1,-5.541992188E-1,8.447113037E-1
7.731807583E0,4.599151611E-1,-3.908691406E-1,8.987579346E-1
7.741847866E0,4.422454834E-1,-2.549133301E-1,8.759307861E-1
7.751918667E0,4.152526855E-1,-1.415863037E-1,7.956237793E-1
7.762019985E0,3.902130127E-1,-3.268432617E-2,7.105255127E-1
7.772090786E0,4.225463867E-1,1.007080078E-3,7.332763672E-1
7.782161586E0,4.329681396E-1,-2.659606934E-2,7.095031738E-1
7.792201870E0,3.751678467E-1,-8.323669434E-2,5.737457275E-1
7.802303188E0,2.967681885E-1,-1.612396240E-1,4.393768311E-1
7.812496059E0,2.990112305E-1,-1.560516357E-1,4.295959473E-1
7.822719448E0,2.826232910E-1,-1.177673340E-1,3.794403076E-1
7.832912319E0,2.689361572E-1,-7.194519043E-2,3.356933594E-1
7.843105190E0,2.343444824E-1,1.174926758E-3,2.694244385E-1
7.853328579E0,2.236328125E-1,7.769775391E-2,2.622833252E-1
7.863429897E0,2.323760986E-1,9.477233887E-2,3.157501221E-1
7.873500698E0,2.286376953E-1,-1.770019531E-3,3.450012207E-1
7.883663051E0,2.514953613E-1,-1.261138916E-1,3.812255859E-1
7.892940395E0,2.502288818E-1,-2.374114990E-1,4.147033691E-1
7.902980678E0,2.593231201E-1,-3.289337158E-1,5.021209717E-1
7.913051479E0,2.436065674E-1,-4.146423340E-1,5.871276855E-1
7.923122280E0,2.350006104E-1,-4.936981201E-1,6.854095459E-1
7.933193081E0,2.543182373E-1,-5.628204346E-1,7.806854248E-1
7.943294399E0,2.746429443E-1,-6.066589355E-1,8.217315674E-1
7.953334682E0,2.615509033E-1,-6.388397217E-1,7.826690674E-1
7.963436000E0,2.253112793E-1,-7.006530762E-1,7.101593018E-1
7.973506801E0,1.927032471E-1,-7.684783936E-1,6.404724121E-1
7.983547084E0,1.698455811E-1,-8.065643311E-1,5.856475830E-1
7.993648403E0,1.637115479E-1,-8.328399658E-1,5.711364746E-1
8.003719204E0,1.603851318E-1,-8.500671387E-1,5.618896484E-1
8.013759487E0,1.366119385E-1,-8.427124023E-1,4.994201660E-1
8.023860805E0,1.225738525E-1,-8.043060303E-1,4.309387207E-1
8.033931606E0,8.721923828E-2,-7.445983887E-1,3.344879150E-1
8.043971889E0,3.887939453E-2,-7.103729248E-1,2.251892090E-1
8.054073208E0,-2.990722656E-2,-7.303924561E-1,9.489440918E-2
8.064571254E0,-1.195068359E-1,-7.830047607E-1,-4.913330078E-2
8.074245327E0,-2.031860352E-1,-8.356018066E-1,-1.709594727E-1
8.084285610E0,-3.095550537E-1,-8.624420166E-1,-3.064117432E-1
8.094386928E0,-3.636779785E-1,-8.293457031E-1,-3.757324219E-1
8.104457729E0,-3.944702148E-1,-7.196502686E-1,-4.159240723E-1
8.114528530E0,-4.015502930E-1,-5.297088623E-1,-4.297027588E-1
8.124599331E0,-3.809967041E-1,-3.361206055E-1,-4.140319824E-1
8.134639614E0,-3.521575928E-1,-1.977844238E-1,-4.012145996E-1
8.144710415E0,-3.727722168E-1,-1.088562012E-1,-4.673614502E-1
8.154781215E0,-3.833923340E-1,-5.966186523E-2,-5.607299805E-1
8.164882534E0,-4.054870605E-1,-4.454040527E-2,-6.799621582E-1
8.174953334E0,-4.364929199E-1,-4.327392578E-2,-7.990112305E-1
8.185024135E0,-4.863433838E-1,-6.050109863E-2,-9.010467529E-1
8.195278042E0,-4.919281006E-1,-2.718505859E-1,-9.037628174E-1
8.205501430E0,-4.940643311E-1,-4.555053711E-1,-8.854675293E-1
8.215724819E0,-4.360351562E-1,-6.703643799E-1,-7.831268311E-1
8.225917690E0,-4.067840576E-1,-7.980651855E-1,-6.935729980E-1
8.236110561E0,-3.787994385E-1,-8.017578125E-1,-6.058807373E-1
8.246272915E0,-3.397521973E-1,-7.497406006E-1,-5.183715820E-1
8.256404750E0,-2.433624268E-1,-6.983947754E-1,-3.905487061E-1
8.266506069E0,-1.783447266E-1,-6.662597656E-1,-3.035736084E-1
8.275661342E0,-1.066284180E-1,-6.812133789E-1,-2.170867920E-1
8.285732143E0,-6.660461426E-2,-7.211303711E-1,-1.691436768E-1
8.295772426E0,-4.995727539E-2,-7.954254150E-1,-1.473236084E-1
8.305873745E0,-3.549194336E-2,-9.062347412E-1,-1.248321533E-1
8.315944545E0,1.025390625E-2,-1.001937866E0,-6.538391113E-2
8.325984829E0,1.205596924E-1,-1.058197021E0,6.163024902E-2
8.336025112E0,2.247467041E-1,-1.117248535E0,1.793365479E-1
8.346126430E0,3.028564453E-1,-1.175170898E0,2.482757568E-1
8.356197231E0,3.765716553E-1,-1.245849609E0,3.612823486E-1
8.366268032E0,4.692840576E-1,-1.295989990E0,5.244903564E-1
8.376308315E0,5.119934082E-1,-1.255279541E0,6.322784424E-1
8.386379116E0,5.235595703E-1,-1.195968628E0,6.395263672E-1
8.396449917E0,5.317535400E-1,-1.154388428E0,5.697021484E-1
8.406551235E0,4.989471436E-1,-1.092941284E0,4.282836914E-1
8.416622036E0,4.505157471E-1,-9.371795654E-1,2.883453369E-1
8.426692836E0,4.538116455E-1,-7.182464600E-1,2.746276855E-1
8.436763637E0,3.544769287E-1,-5.122680664E-1,8.433532715E-2
8.446834438E0,1.845550537E-1,-4.196166992E-1,-2.912597656E-1
8.456935756E0,-2.966308594E-2,-4.154815674E-1,-7.005004883E-1
8.467494838E0,-9.748840332E-2,-4.496459961E-1,-8.440246582E-1
8.477046840E0,-1.044769287E-1,-4.630737305E-1,-7.882690430E-1
8.487148159E0,-4.780578613E-2,-4.230957031E-1,-5.854034424E-1
8.497218959E0,1.649475098E-2,-3.387756348E-1,-3.321838379E-1
8.507289760E0,1.072540283E-1,-2.005615234E-1,-9.207153320E-2
8.517360561E0,1.617889404E-1,-2.207946777E-2,6.771850586E-2
8.527431362E0,2.087249756E-1,2.099761963E-1,1.647338867E-1
8.537502163E0,2.544555664E-1,4.845428467E-1,2.414093018E-1
8.547542446E0,3.366699219E-1,7.405395508E-1,3.666381836E-1
8.557613247E0,4.089202881E-1,9.027404785E-1,4.466247559E-1
8.567684047E0,4.596557617E-1,9.591979980E-1,4.727783203E-1
8.577876918E0,4.752807617E-1,9.061584473E-1,4.138031006E-1
8.588069790E0,5.133514404E-1,7.925109863E-1,3.865661621E-1
8.598293178E0,6.053771973E-1,7.230224609E-1,4.169158936E-1
8.608516567E0,4.581451416E-1,6.542053223E-1,7.695007324E-2
8.618709438E0,2.553405762E-1,5.621490479E-1,-2.984161377E-1
8.628932827E0,1.179809570E-1,4.427337646E-1,-5.332183838E-1
8.639125698E0,9.617614746E-2,3.026733398E-1,-5.244750977E-1
8.649043911E0,3.204498291E-1,1.361541748E-1,-1.653747559E-1
8.658351772E0,6.410675049E-1,-4.824829102E-2,3.537445068E-1
8.668422573E0,8.713531494E-1,-2.238311768E-1,7.528381348E-1
8.678493374E0,9.275817871E-1,-3.688507080E-1,8.805694580E-1
8.688564174E0,1.315933228E0,-4.539642334E-1,1.392211914E0
8.698604458E0,1.608749390E0,-4.742431641E-1,1.718719482E0
8.708705776E0,2.084609985E0,-4.868316650E-1,2.242065430E0
8.718776577E0,2.148376465E0,-5.438690186E-1,2.273284912E0
8.728847377E0,1.455749512E0,-9.397430420E-1,1.545578003E0
8.738887661E0,2.884979248E-1,-1.372726440E0,3.133544922E-1
8.748958461E0,-1.066925049E0,-1.784332275E0,-1.106155396E0
8.759059780E0,-1.765457153E0,-1.855117798E0,-1.864471436E0
8.769100063E0,-1.913894653E0,-1.816436768E0,-2.038085938E0
8.779170864E0,-2.083969116E0,-1.897003174E0,-2.215332031E0
8.789272182E0,-2.247238159E0,-2.027679443E0,-2.377822876E0
8.799342983E0,-2.150772095E0,-2.096542358E0,-2.294281006E0
8.809413784E0,-1.952148438E0,-2.146072388E0,-2.119216919E0
8.819484584E0,-1.775146484E0,-2.145523071E0,-1.951126099E0
8.829494350E0,-1.739517212E0,-2.136215210E0,-1.901123047E0
8.839595668E0,-1.745452881E0,-2.100479126E0,-1.886123657E0
8.849666469E0,-1.782791138E0,-2.027770996E0,-1.894714355E0
8.859737270E0,-1.829177856E0,-2.000671387E0,-1.933654785E0
8.870204799E0,-1.979888916E0,-1.952865601E0,-2.075561523E0
8.879878872E0,-2.040023804E0,-1.890274048E0,-2.142028809E0
8.889919155E0,-1.904235840E0,-1.822280884E0,-2.041549683E0
8.900020473E0,-1.646347046E0,-1.689651489E0,-1.848983765E0
8.910091274E0,-1.416732788E0,-1.541213989E0,-1.727737427E0
8.920131557E0,-1.382659912E0,-1.427841187E0,-1.719238281E0
8.930232875E0,-1.435241699E0,-1.351593018E0,-1.757232666E0
8.940273159E0,-1.581451416E0,-1.273590088E0,-1.809982300E0
8.950343959E0,-1.596862793E0,-1.132553101E0,-1.758728027E0
8.960475795E0,-1.527511597E0,-9.211578369E-1,-1.556320190E0
8.970699184E0,-1.464706421E0,-7.393341064E-1,-1.330505371E0
8.980983608E0,-1.700576782E0,-7.112579346E-1,-1.368148804E0
8.991176479E0,-2.335021973E0,-8.517608643E-1,-1.715820312E0
9.001399868E0,-2.884719849E0,-1.023559570E0,-2.059082031E0
9.011592739E0,-2.961563110E0,-1.072219849E0,-2.085937500E0
9.021816127E0,-2.612319946E0,-9.743194580E-1,-1.813491821E0
9.031825893E0,-2.263824463E0,-8.142395020E-1,-1.434951782E0
9.041988247E0,-1.894927979E0,-6.289062500E-1,-9.463195801E-1
9.051113002E0,-1.443084717E0,-4.739379883E-1,-3.806915283E-1
9.061183803E0,-8.821258545E-1,-3.574676514E-1,1.956329346E-1
9.071224086E0,5.855102539E-1,-9.307861328E-4,1.387420654E0
9.081325405E0,2.006423950E0,2.033691406E-1,2.428009033E0
9.091396206E0,1.979217529E0,6.726074219E-2,2.388885498E0
9.101467006E0,1.438049316E0,-7.791137695E-2,2.010025024E0
9.111537807E0,1.269714355E0,-1.069183350E-1,1.941513062E0
9.121578090E0,1.062210083E0,-9.909057617E-2,1.865783691E0
9.131679409E0,7.039184570E-1,-1.250152588E-1,1.645812988E0
9.141750209E0,3.243255615E-1,-1.881866455E-1,1.346450806E0
9.151821010E0,-1.640472412E-1,-2.350311279E-1,1.021041870E0
9.161891811E0,-4.813079834E-1,-1.873474121E-1,7.523040771E-1
9.171932094E0,-8.146209717E-1,-8.155822754E-2,5.089416504E-1
9.182033413E0,-1.035690308E0,5.364990234E-2,3.107910156E-1
9.192104213E0,-1.242370605E0,1.903076172E-1,1.312866211E-1
9.202205532E0,-1.338989258E0,3.242950439E-1,-1.377868652E-2
9.212245815E0,-1.254364014E0,5.228271484E-1,-6.616210938E-2
9.222286098E0,-1.102905273E0,6.803436279E-1,-9.506225586E-2
9.232387417E0,-6.706695557E-1,6.782073975E-1,-3.163146973E-2
9.242458217E0,-5.648803711E-2,5.746612549E-1,1.443634033E-1
9.252529018E0,1.004745483E0,5.648193359E-1,7.629699707E-1
9.262569301E0,1.771377563E0,5.753784180E-1,1.284851074E0
9.273128383E0,2.387435913E0,6.026916504E-1,1.649887085E0
9.282741420E0,3.051788330E0,6.277465820E-1,1.886169434E0
9.292812221E0,3.641571045E0,6.677856445E-1,1.978744507E0
9.302852504E0,3.611618042E0,6.832885742E-1,1.633529663E0
9.312923305E0,3.181091309E0,6.797180176E-1,1.135528564E0
9.323024624E0,2.916015625E0,7.268829346E-1,8.389587402E-1
9.333034389E0,2.638305664E0,8.372802734E-1,6.725311279E-1
9.343166225E0,2.354568481E0,1.013015747E0,5.621337891E-1
9.353389614E0,2.207077026E0,1.221420288E0,5.468292236E-1
9.363582485E0,2.323532104E0,1.416854858E0,6.432495117E-1
9.373775356E0,2.460266113E0,1.532699585E0,7.481079102E-1
9.383998745E0,2.697952271E0,1.530395508E0,8.592834473E-1
9.394222133E0,2.888534546E0,1.416152954E0,9.177246094E-1
9.404415004E0,2.980056763E0,1.238998413E0,9.113616943E-1
9.414424770E0,2.623779297E0,1.037918091E0,5.420837402E-1
9.423702114E0,1.125640869E0,6.340179443E-1,-7.135467529E-1
9.433742397E0,-7.716217041E-1,1.541442871E-1,-2.291397095E0
9.443813198E0,-1.120452881E0,-6.442260742E-2,-2.596069336E0
9.453883999E0,-4.559020996E-1,4.534912109E-2,-2.029373169E0
9.463985317E0,-4.997863770E-1,-1.116485596E-1,-2.007690430E0
9.474056118E0,-6.622772217E-1,-4.242248535E-1,-2.105361938E0
9.484126918E0,-1.031005859E0,-8.706665039E-1,-2.330795288E0
9.494167202E0,-1.936538696E0,-1.670089722E0,-3.076660156E0
9.504268520E0,-3.881515503E0,-2.959625244E0,-4.924804688E0
9.514339321E0,-4.727569580E0,-3.069396973E0,-5.536193848E0
9.524440639E0,-5.710693359E0,-3.005111694E0,-6.120025635E0
9.534480922E0,-6.413345337E0,-2.991806030E0,-6.526306152E0
9.544582241E0,-6.460494995E0,-2.786636353E0,-6.376480103E0
9.554653042E0,-5.702789307E0,-2.346313477E0,-5.555862427E0
9.564723842E0,-4.605209351E0,-2.048019409E0,-4.713485718E0
9.574794643E0,-3.516998291E0,-1.714767456E0,-3.889938354E0
9.584865444E0,-2.618469238E0,-1.422760010E0,-3.182403564E0
9.594936245E0,-1.690628052E0,-1.178665161E0,-2.547103882E0
9.604976528E0,-8.879852295E-1,-1.020385742E0,-2.067687988E0
9.615047329E0,-5.858306885E-1,-8.603668213E-1,-1.791290283E0
9.625148647E0,-4.165191650E-1,-7.806854248E-1,-1.615570068E0
9.635219448E0,-4.114227295E-1,-7.165222168E-1,-1.528137207E0
9.645290249E0,-5.497283936E-1,-6.723937988E-1,-1.462280273E0
9.655361049E0,-6.221313477E-1,-5.934906006E-1,-1.303771973E0
9.665431850E0,-6.601867676E-1,-4.209289551E-1,-9.780273438E-1
9.676051967E0,-5.474548340E-1,-2.535552979E-1,-5.782928467E-1
9.685573452E0,-3.157043457E-1,-7.379150391E-2,-1.521453857E-1
9.695613735E0,8.004760742E-2,1.833496094E-1,3.948059082E-1
9.705684536E0,4.278717041E-1,4.135437012E-1,8.799133301E-1
9.715785854E0,4.139404297E-1,5.170898438E-1,1.045959473E0
9.725978725E0,-2.870178223E-2,4.322204590E-1,8.277740479E-1
9.736171596E0,-4.140014648E-1,4.754638672E-1,7.998504639E-1
9.746394985E0,-6.480102539E-1,7.050933838E-1,1.041503906E0
9.756587856E0,-6.672363281E-1,8.665618896E-1,1.223312378E0
9.766811245E0,-3.988952637E-1,9.227447510E-1,1.362030029E0
9.777034633E0,1.671752930E-1,1.077346802E0,1.706176758E0
9.787135952E0,8.091888428E-1,1.194290161E0,2.037734985E0
9.797115200E0,1.160095215E0,1.187240601E0,2.065048218E0
9.806392543E0,1.056884766E0,9.866638184E-1,1.732788086E0
9.816463344E0,5.743865967E-1,5.885620117E-1,1.051971436E0
9.826534145E0,3.738403320E-3,1.270446777E-1,3.023376465E-1
9.836604946E0,-4.528350830E-1,-2.356719971E-1,-2.999267578E-1
9.846706264E0,-6.641235352E-1,-4.374542236E-1,-7.011718750E-1
9.856746547E0,-9.227294922E-1,-7.531890869E-1,-1.256088257E0
9.866817348E0,-8.101501465E-1,-1.011077881E0,-1.635894775E0
9.876888149E0,-4.468536377E-1,-1.243988037E0,-1.849594116E0
9.886958950E0,-2.751617432E-1,-1.183624268E0,-1.790695190E0
9.897029750E0,-5.316925049E-1,-1.141403198E0,-1.904449463E0
9.907070034E0,-6.575164795E-1,-1.146957397E0,-2.058441162E0
9.917171352E0,-8.996887207E-1,-1.077087402E0,-2.149581909E0
9.927242153E0,-1.007141113E0,-9.297332764E-1,-2.054992676E0
9.937312954E0,-1.035949707E0,-8.239746094E-1,-1.988891602E0
9.947353237E0,-1.064392090E0,-8.277282715E-1,-2.083541870E0
9.957424038E0,-7.268371582E-1,-6.496429443E-1,-1.853622437E0
9.967525356E0,1.268005371E-2,-1.753997803E-1,-1.027496338E0
9.977565639E0,7.093505859E-1,4.666290283E-1,1.099548340E-1
9.987666958E0,1.242797852E0,9.083099365E-1,8.544158936E-1
9.997737758E0,1.336608887E0,9.665985107E-1,9.789886475E-1
1.000780856E1,1.837020874E0,1.187454224E0,1.384979248E0
1.001787936E1,2.281265259E0,1.397949219E0,1.757843018E0
1.002791964E1,2.660278320E0,1.590850830E0,2.058944702E0
1.003799044E1,3.006896973E0,1.754898071E0,2.366607666E0
1.004809176E1,3.058425903E0,1.833251953E0,2.440887451E0
1.005816256E1,2.881820679E0,1.813385010E0,2.371505737E0
1.006823336E1,2.471862793E0,1.671585083E0,2.139953613E0
1.007900607E1,2.069869995E0,1.449523926E0,1.865783691E0
1.008837496E1,1.462722778E0,1.145050049E0,1.445327759E0
1.009841525E1,4.575195312E-1,9.812469482E-1,9.006347656E-1
1.010851657E1,-1.856536865E-1,7.911987305E-1,4.953765869E-1
1.011873996E1,-5.846405029E-1,7.270050049E-1,2.925262451E-1
1.012893283E1,-4.535827637E-1,6.819305420E-1,3.624725342E-1
1.013915622E1,1.204681396E-1,7.062377930E-1,7.164916992E-1
1.014934909E1,1.265731812E0,1.145492554E0,1.763702393E0
1.015954196E1,1.649627686E0,1.184082031E0,2.029937744E0
1.016964328E1,1.613708496E0,9.867248535E-1,1.852798462E0
1.017977511E1,1.557495117E0,8.835601807E-1,1.752029419E0
1.018905246E1,1.562194824E0,8.734436035E-1,1.744262695E0
1.019912326E1,1.258773804E0,7.690582275E-1,1.462905884E0
1.020919406E1,6.108245850E-1,5.094757080E-1,8.265228271E-1
1.021926486E1,-2.091979980E-1,4.194641113E-2,-9.074401855E-2
1.022933566E1,-1.149108887E0,-5.319519043E-1,-1.150253296E0
1.023940646E1,-1.469619751E0,-6.750488281E-1,-1.482666016E0
1.024947726E1,-1.463943481E0,-6.528778076E-1,-1.450302124E0
1.025954806E1,-1.640975952E0,-6.869201660E-1,-1.571289062E0
1.026961886E1,-1.872360229E0,-7.747497559E-1,-1.764053345E0
1.027968966E1,-2.197509766E0,-9.746704102E-1,-2.125305176E0
1.028976046E1,-2.353134155E0,-1.162216187E0,-2.383255005E0
1.029983126E1,-2.138992310E0,-1.168563843E0,-2.251358032E0
1.030990207E1,-1.805526733E0,-1.080963135E0,-1.966583252E0
1.032000338E1,-1.542617798E0,-1.039993286E0,-1.755432129E0
1.033007418E1,-1.232543945E0,-9.981994629E-1,-1.531478882E0
1.034014498E1,-9.924011230E-1,-1.041030884E0,-1.400817871E0
1.035018527E1,-7.920837402E-1,-1.101196289E0,-1.320831299E0
1.036022555E1,-7.234497070E-1,-1.093093872E0,-1.229904175E0
1.037023532E1,-9.282379150E-1,-1.055603027E0,-1.182937622E0
1.038042819E1,-1.192794800E0,-1.029083252E0,-1.174423218E0
1.039046847E1,-1.181503296E0,-9.248199463E-1,-9.396972656E-1
1.040053927E1,-9.961700439E-1,-7.740783691E-1,-5.595397949E-1
1.041061007E1,-2.232971191E-1,-4.969787598E-2,9.073944092E-1
1.042068087E1,7.211914062E-1,5.756072998E-1,2.272171021E0
1.043078219E1,7.553710938E-1,5.034027100E-1,2.238037109E0
1.044085299E1,4.115905762E-1,2.417144775E-1,1.805557251E0
1.045089328E1,3.638153076E-1,2.228698730E-1,1.845123291E0
1.046096408E1,3.209075928E-1,2.380523682E-1,1.919235229E0
1.047103488E1,1.285247803E-1,1.552124023E-1,1.791915894E0
1.048205172E1,-1.176147461E-1,6.755065918E-2,1.597717285E0
1.049135958E1,-3.156890869E-1,2.859497070E-2,1.482421875E0
1.050158297E1,-2.987213135E-1,6.486511230E-2,1.622787476E0
1.051177584E1,-2.269287109E-1,6.370544434E-2,1.724899292E0
1.052196872E1,2.404632568E-1,-4.610748291E-1,1.400543213E0
1.053219210E1,7.464904785E-1,-9.006042480E-1,1.281600952E0
1.054238498E1,6.764373779E-1,-8.712310791E-1,1.381164551E0
1.055242526E1,5.642852783E-1,-6.588897705E-1,1.681655884E0
1.056170260E1,1.144683838E0,-3.852233887E-1,2.476943970E0
1.057174288E1,4.528594971E0,6.111145020E-1,5.981170654E0
1.058184420E1,5.804031372E0,1.213455200E0,7.455245972E0
1.059191500E1,6.885284424E0,1.319473267E0,8.285980225E0
1.060195529E1,6.934341431E0,9.706573486E-1,8.127090454E0
1.061202609E1,6.069549561E0,4.408721924E-1,7.258178711E0
1.062209689E1,4.242263794E0,1.375274658E-1,5.685531616E0
1.063216769E1,2.282958984E0,1.420593262E-2,4.084487915E0
1.064223849E1,6.731414795E-1,5.096435547E-2,2.731994629E0
1.065230929E1,-5.068054199E-1,1.853637695E-1,1.689193726E0
1.066238009E1,-1.276977539E0,3.092498779E-1,1.023284912E0
1.067248141E1,-1.423477173E0,3.731079102E-1,7.992248535E-1
1.068255221E1,-1.207931519E0,3.357696533E-1,8.533630371E-1
1.069259250E1,-7.384185791E-1,2.360076904E-1,1.084136963E0
1.070266330E1,-2.983703613E-1,1.017608643E-1,1.342987061E0
1.071276461E1,1.920928955E-1,-3.678894043E-2,1.611587524E0
1.072283542E1,3.152465820E-1,-1.068878174E-1,1.692108154E0
1.073287570E1,1.759185791E-1,-7.400512695E-2,1.584136963E0
1.074294650E1,-5.552673340E-2,-8.605957031E-2,1.326980591E0
1.075301730E1,-5.047302246E-1,5.767822266E-3,9.178619385E-1
1.076308810E1,-8.496093750E-1,5.945892334E-1,6.714935303E-1
1.077315890E1,-1.179336548E0,1.063034058E0,4.077301025E-1
1.078322970E1,-1.486770630E0,9.421844482E-1,1.675415039E-2
1.079330050E1,-1.528396606E0,7.766113281E-1,-1.782226562E-1
1.080337130E1,-1.530044556E0,7.842102051E-1,-3.199615479E-1
1.081347262E1,-2.261428833E0,1.277374268E0,-1.020706177E0
1.082354342E1,-3.375991821E0,1.490692139E0,-2.191528320E0
1.083361422E1,-3.438507080E0,1.169174194E0,-2.495559692E0
1.084365451E1,-3.015838623E0,9.058380127E-1,-2.237640381E0
1.085372531E1,-2.396713257E0,7.027130127E-1,-1.774200439E0
1.086388766E1,-1.934158325E0,5.948791504E-1,-1.357681274E0
1.087408053E1,-1.387100220E0,5.142974854E-1,-8.908233643E-1
1.088518893E1,-9.039916992E-1,3.157043457E-1,-5.005645752E-1
1.089449679E1,-5.735321045E-1,8.132934570E-2,-2.682952881E-1
1.090468966E1,-3.687591553E-1,-1.151123047E-1,-1.332397461E-1
1.091491305E1,-1.606597900E-1,-2.747650146E-1,5.851745605E-2
1.092510592E1,5.291748047E-2,-4.194030762E-1,2.747497559E-1
1.093508517E1,1.585998535E-1,-4.976196289E-1,3.929290771E-1
1.094436251E1,9.883117676E-2,-4.794464111E-1,3.529052734E-1
1.095443332E1,-7.202148438E-2,-4.183349609E-1,1.900024414E-1
1.096453463E1,-2.243347168E-1,-3.798217773E-1,6.378173828E-2
1.097460543E1,-3.792114258E-1,-2.762298584E-1,-3.103637695E-2
1.098464572E1,-6.289062500E-1,-1.695098877E-1,-1.565399170E-1
1.099471652E1,-7.292022705E-1,-1.263427734E-1,-2.026672363E-1
1.100478732E1,-6.600494385E-1,-1.745758057E-1,-1.509094238E-1
1.101485812E1,-5.166625977E-1,-2.506103516E-1,-4.631042480E-2
1.102492892E1,-3.774871826E-1,-2.910614014E-1,7.931518555E-2
1.103499972E1,-8.018493652E-2,-3.814544678E-1,3.176574707E-1
1.104507052E1,2.610321045E-1,-5.073547363E-1,5.881347656E-1
1.105517184E1,5.399322510E-1,-6.796264648E-1,7.877807617E-1
1.106524264E1,7.247619629E-1,-8.743896484E-1,8.478240967E-1
1.107531344E1,5.959930420E-1,-9.500579834E-1,6.749725342E-1
1.108535373E1,3.126525879E-1,-9.425811768E-1,3.954315186E-1
1.109542453E1,-2.629089355E-2,-9.016113281E-1,1.296539307E-1
1.110549533E1,-1.739349365E-1,-8.779602051E-1,1.556396484E-3
1.111556613E1,-2.915496826E-1,-7.841033936E-1,-4.980468750E-2
1.112563693E1,-4.834136963E-1,-6.476440430E-1,-1.710815430E-1
1.113570773E1,-6.746673584E-1,-5.214843750E-1,-2.722167969E-1
1.114577853E1,-7.168884277E-1,-4.219360352E-1,-2.771301270E-1
1.115584933E1,-7.496032715E-1,-3.334197998E-1,-2.604980469E-1
1.116595065E1,-8.782653809E-1,-2.437438965E-1,-2.882232666E-1
1.117602145E1,-9.307708740E-1,-1.956329346E-1,-2.881774902E-1
1.118609225E1,-9.200897217E-1,-1.718444824E-1,-2.687835693E-1
1.119616305E1,-9.563751221E-1,-1.517028809E-1,-2.874145508E-1
1.120620333E1,-8.120727539E-1,-1.617889404E-1,-1.970214844E-1
1.121627414E1,-5.724639893E-1,-1.790313721E-1,-2.929687500E-3
1.122634494E1,-2.484436035E-1,-2.111968994E-1,2.311096191E-1
1.123641574E1,4.772949219E-2,-2.400054932E-1,4.460144043E-1
1.124651706E1,2.432556152E-1,-2.597656250E-1,5.849761963E-1
1.125667941E1,3.653106689E-1,-2.973632812E-1,6.274414062E-1
1.126690280E1,4.223022461E-1,-3.370513916E-1,5.948944092E-1
1.127709567E1,3.984069824E-1,-3.345947266E-1,5.007019043E-1
1.128802096E1,3.403167725E-1,-2.877655029E-1,4.278717041E-1
1.129754245E1,3.751220703E-1,-2.369384766E-1,4.083709717E-1
1.130773532E1,3.974609375E-1,-1.812744141E-1,4.031066895E-1
1.131780612E1,4.137725830E-1,-1.470947266E-1,3.869476318E-1
1.132705294E1,4.145202637E-1,-1.287231445E-1,3.642730713E-1
1.133712375E1,4.418945312E-1,-1.439056396E-1,3.512573242E-1
1.134722506E1,5.106658936E-1,-1.823730469E-1,3.434448242E-1
1.135729586E1,5.723266602E-1,-2.427673340E-1,3.112182617E-1
1.136733615E1,5.870819092E-1,-3.167724609E-1,2.531738281E-1
1.137743746E1,6.293334961E-1,-3.939514160E-1,2.028350830E-1
1.138753878E1,5.899963379E-1,-4.619445801E-1,1.482696533E-1
1.139757907E1,6.291198730E-1,-5.158996582E-1,1.430511475E-1
1.140768038E1,7.277069092E-1,-5.529937744E-1,1.498565674E-1
1.141775119E1,6.204681396E-1,-5.307312012E-1,8.520507812E-2
1.142782199E1,4.801330566E-1,-4.904479980E-1,5.386352539E-3
1.143789279E1,1.222381592E-1,-1.483306885E-1,-2.114868164E-2
1.144793307E1,1.059570312E-1,-1.558837891E-1,-4.635620117E-2
1.145803439E1,9.191894531E-2,-1.623535156E-1,-6.878662109E-2
1.146810519E1,8.508300781E-2,-1.813354492E-1,-9.516906738E-2
1.147814547E1,6.729125977E-2,-2.028198242E-1,-1.293334961E-1
1.148821627E1,5.844116211E-2,-2.246246338E-1,-1.607666016E-1
1.149825656E1,5.007934570E-2,-2.366485596E-1,-1.894378662E-1
1.150835788E1,2.960205078E-3,-2.376556396E-1,-2.239074707E-1
1.151839816E1,-6.504821777E-2,-2.357177734E-1,-2.582397461E-1
1.152849948E1,-1.101837158E-1,-2.465515137E-1,-2.896270752E-1
1.153860080E1,-1.510467529E-1,-2.549285889E-1,-3.148956299E-1
1.154867160E1,-5.894470215E-1,-7.668914795E-1,-9.935913086E-1
1.155874240E1,-5.798797607E-1,-6.140289307E-1,-8.009033203E-1
1.156881320E1,-4.926910400E-1,-5.234222412E-1,-6.272430420E-1
1.157888400E1,-4.211273193E-1,-4.803924561E-1,-4.949340820E-1
1.158895480E1,-3.574829102E-1,-4.252929688E-1,-3.969268799E-1
1.159899508E1,-2.813873291E-1,-3.591003418E-1,-3.239746094E-1
1.160909640E1,-2.376098633E-1,-2.904815674E-1,-2.706146240E-1
1.161916720E1,-2.370758057E-1,-2.158050537E-1,-2.270660400E-1
1.162929904E1,-2.291412354E-1,-1.368103027E-1,-1.766052246E-1
1.163949191E1,-2.179412842E-1,-7.659912109E-2,-1.239624023E-1
1.164971530E1,-1.830139160E-1,-4.086303711E-2,-7.713317871E-2
1.165990817E1,-1.452026367E-1,-2.394104004E-2,-4.530334473E-2
1.167013156E1,-1.090545654E-1,-1.654052734E-2,-3.077697754E-2
1.168032443E1,-6.710815430E-2,-1.031494141E-2,-6.088256836E-3
1.169112765E1,1.770019531E-3,-9.323120117E-3,4.710388184E-2
1.170061862E1,1.429748535E-1,-1.821899414E-2,1.397705078E-1
1.171068942E1,2.479858398E-1,-2.189636230E-2,2.284698486E-1
1.171984469E1,2.982940674E-1,-2.058410645E-2,2.806243896E-1
1.172994601E1,3.161468506E-1,-1.818847656E-2,2.960510254E-1
1.173998629E1,3.428649902E-1,-1.593017578E-2,2.976684570E-1
1.175008761E1,2.884826660E-1,-1.663208008E-3,2.717895508E-1
1.176015841E1,1.734008789E-1,2.055358887E-2,2.265319824E-1
1.177016818E1,4.135131836E-2,4.257202148E-2,1.740112305E-1
1.178023898E1,-1.587982178E-1,5.084228516E-2,1.150054932E-1
1.179034030E1,-2.934265137E-1,4.951477051E-2,6.260681152E-2
1.180041110E1,-2.575378418E-1,4.051208496E-2,3.656005859E-2
1.181048190E1,-2.667846680E-1,3.143310547E-2,1.815795898E-2
1.182052218E1,-1.800384521E-1,1.174926758E-2,2.503967285E-2
1.183059298E1,-1.276245117E-1,-1.928710938E-2,3.767395020E-2
1.184069430E1,-1.205902100E-1,-5.935668945E-2,4.838562012E-2
1.185076510E1,-1.053314209E-1,-9.124755859E-2,5.767822266E-2
1.186083590E1,-1.557922363E-2,-3.761291504E-2,2.108764648E-2
1.187093722E1,6.103515625E-3,-5.714416504E-2,2.583312988E-2
1.188100802E1,2.685546875E-2,-7.533264160E-2,2.693176270E-2
1.189107882E1,3.903198242E-2,-8.821105957E-2,2.436828613E-2
1.190114962E1,3.727722168E-2,-9.385681152E-2,2.055358887E-2
1.191125094E1,3.289794922E-2,-9.866333008E-2,1.771545410E-2
1.192129123E1,2.792358398E-2,-1.046600342E-1,1.638793945E-2
1.193136203E1,1.460266113E-2,-1.103515625E-1,9.429931641E-3
1.194143283E1,-4.415893555E-2,-3.436279297E-1,-2.156066895E-2
1.195153414E1,-1.366729736E-1,-2.936553955E-1,-8.505249023E-2
1.196157443E1,-1.814575195E-1,-2.673187256E-1,-1.317443848E-1
1.197164523E1,-1.889953613E-1,-2.545928955E-1,-1.541442871E-1
1.198171603E1,-1.878356934E-1,-2.498626709E-1,-1.615295410E-1
1.199178683E1,-1.490936279E-1,-2.457122803E-1,-1.493377686E-1
1.200185763E1,-2.491760254E-2,-8.146667480E-2,-4.075622559E-2
1.201192843E1,-2.711486816E-2,-2.894744873E-1,-1.125946045E-1
1.202212130E1,5.438232422E-2,-2.628173828E-1,-7.319641113E-2
1.203228366E1,7.495117188E-2,-2.368011475E-1,-4.804992676E-2
1.204250704E1,3.306579590E-2,-7.226562500E-2,-1.029968262E-2
1.205273043E1,5.078125000E-2,-8.285522461E-2,-8.514404297E-3
1.206292330E1,6.820678711E-2,-9.042358398E-2,-7.202148438E-3
1.207302462E1,9.432983398E-2,-9.825134277E-2,-5.645751953E-3
1.208333957E1,1.135711670E-1,-1.046447754E-1,-4.745483398E-3
1.209399020E1,1.287536621E-1,-1.086578369E-1,-4.257202148E-3
1.210256564E1,1.340179443E-1,-1.111602783E-1,-4.150390625E-3
1.211263644E1,1.311492920E-1,-1.106719971E-1,-3.723144531E-3
1.212267672E1,1.200408936E-1,-1.078643799E-1,-3.234863281E-3
1.213277804E1,1.093292236E-1,-1.055450439E-1,-2.655029297E-3
1.214284884E1,1.001892090E-1,-1.022644043E-1,-2.395629883E-3
1.215288913E1,9.194946289E-2,-9.722900391E-2,-2.258300781E-3
1.216299044E1,8.450317383E-2,-9.367370605E-2,-2.105712891E-3
1.217306125E1,2.429962158E-1,-2.782135010E-1,-5.081176758E-3
1.218313204E1,1.895599365E-1,-2.234344482E-1,-5.203247070E-3
1.219320285E1,1.147766113E-1,-1.780853271E-1,-1.985168457E-2
1.220327365E1,1.361083984E-2,-1.325836182E-1,-5.720520020E-2
1.221331393E1,-9.982299805E-2,-8.511352539E-2,-1.139221191E-1
1.222338473E1,-1.904449463E-1,-4.508972168E-2,-1.705474854E-1
1.223348605E1,-2.438812256E-1,-1.916503906E-2,-2.012176514E-1
1.224355685E1,-7.772827148E-2,-2.517700195E-3,-6.663513184E-2
1.225362765E1,-1.019134521E-1,1.586914062E-3,-7.838439941E-2
1.226366793E1,-1.345367432E-1,7.034301758E-3,-8.900451660E-2
1.227370822E1,-1.520690918E-1,1.007080078E-2,-9.638977051E-2
1.228380954E1,-1.787414551E-1,1.564025879E-2,-1.025848389E-1
1.229388034E1,-2.052917480E-1,2.404785156E-2,-1.066894531E-1
1.230395114E1,-6.862640381E-1,1.070709229E-1,-3.291473389E-1
1.231399142E1,-5.688171387E-1,1.273651123E-1,-2.655487061E-1
1.232409274E1,-5.014801025E-1,1.551361084E-1,-2.165374756E-1
1.233416354E1,-4.283294678E-1,1.745147705E-1,-1.767883301E-1
1.234420382E1,-3.773498535E-1,1.832122803E-1,-1.434173584E-1
1.235427462E1,-3.539886475E-1,1.860656738E-1,-1.167297363E-1
1.236434542E1,-3.171081543E-1,1.832122803E-1,-9.111022949E-2
1.237444674E1,-3.233947754E-1,1.931152344E-1,-6.932067871E-2
1.238451754E1,-3.117370605E-1,2.006683350E-1,-4.936218262E-2
1.239458834E1,-3.226776123E-1,2.101135254E-1,-3.619384766E-2
1.240468966E1,-1.045227051E-1,7.290649414E-2,-9.826660156E-3
1.241491305E1,-1.342468262E-1,9.175109863E-2,-4.379272461E-3
1.242510592E1,-1.555633545E-1,1.088409424E-1,1.092529297E-2
1.243532931E1,-1.358795166E-1,1.215209961E-1,3.758239746E-2
1.244552218E1,-1.119995117E-1,1.320648193E-1,6.848144531E-2
1.245571505E1,-8.843994141E-2,1.401672363E-1,9.759521484E-2
1.246603000E1,-7.211303711E-2,1.486053467E-1,1.210327148E-1
1.247603976E1,-6.538391113E-2,1.605987549E-1,1.386413574E-1
1.248525607E1,-6.095886230E-2,1.755676270E-1,1.532897949E-1
1.249679171E1,-1.634674072E-1,5.687255859E-1,4.998016357E-1
1.250539767E1,-3.738403320E-2,1.649627686E-1,1.482696533E-1
1.251546847E1,-3.369140625E-2,1.777954102E-1,1.646881104E-1
1.252553927E1,-1.882934570E-2,1.850891113E-1,1.804809570E-1
1.253557956E1,2.365112305E-3,1.865234375E-1,1.949462891E-1
1.254558932E1,2.716064453E-2,1.831359863E-1,2.081756592E-1
1.255575167E1,2.857971191E-2,1.790771484E-1,2.163696289E-1
1.256582248E1,3.617858887E-2,1.723175049E-1,2.214355469E-1
1.257589328E1,3.491210938E-2,1.653900146E-1,2.221221924E-1
1.258596408E1,3.710937500E-2,1.563873291E-1,2.197875977E-1
1.259600436E1,4.061889648E-2,1.467742920E-1,2.148132324E-1
1.260607516E1,3.828430176E-2,1.374816895E-1,2.076416016E-1
1.261614596E1,4.486083984E-2,1.251220703E-1,1.994323730E-1
1.262624728E1,4.428100586E-2,1.126403809E-1,1.900939941E-1
1.263628756E1,4.339599609E-2,9.992980957E-2,1.788635254E-1
1.264635836E1,3.732299805E-2,8.880615234E-2,1.657562256E-1
1.265642916E1,3.146362305E-2,8.021545410E-2,1.523742676E-1
1.266653048E1,3.082275391E-2,6.828308105E-2,1.398162842E-1
1.267660128E1,3.668212891E-2,5.017089844E-2,1.288757324E-1
1.268667208E1,4.562377930E-2,2.639770508E-2,1.181793213E-1
1.269674288E1,5.572509766E-2,3.509521484E-4,1.078796387E-1
1.270681369E1,6.550598145E-2,-2.485656738E-2,9.783935547E-2
1.271688449E1,7.279968262E-2,-4.557800293E-2,8.865356445E-2
1.272695529E1,7.598876953E-2,-6.098937988E-2,7.931518555E-2
1.273702609E1,7.608032227E-2,-7.508850098E-2,6.637573242E-2
1.274709689E1,6.617736816E-2,-8.424377441E-2,4.692077637E-2
1.275713717E1,5.017089844E-2,-9.187316895E-2,2.310180664E-2
1.276720797E1,2.500915527E-2,-9.603881836E-2,-3.677368164E-3
1.277730929E1,-4.699707031E-3,-9.764099121E-2,-3.025817871E-2
1.278738009E1,-3.619384766E-2,-9.687805176E-2,-5.497741699E-2
1.279757296E1,-6.715393066E-2,-9.570312500E-2,-7.884216309E-2
1.280776583E1,-2.749481201E-1,-2.850494385E-1,-3.044128418E-1
1.281811129E1,-3.175048828E-1,-2.187500000E-1,-3.151092529E-1
1.282827365E1,-3.558044434E-1,-1.698608398E-1,-3.279876709E-1
1.283849704E1,-3.810272217E-1,-1.360473633E-1,-3.337402344E-1
1.284868991E1,-3.884735107E-1,-1.119689941E-1,-3.305053711E-1
1.285873019E1,-3.772888184E-1,-9.336853027E-2,-3.172912598E-1
1.286791598E1,-1.204986572E-1,-2.551269531E-2,-1.006774902E-1
1.287798678E1,-1.399078369E-1,-2.397155762E-2,-1.147613525E-1
1.288805758E1,-4.702911377E-1,-5.834960938E-2,-3.756561279E-1
1.289849459E1,-4.200592041E-1,-2.774047852E-2,-3.303833008E-1
1.290819918E1,-1.310119629E-1,-3.509521484E-4,-1.015625000E-1
1.291826998E1,-1.495819092E-1,5.737304688E-3,-1.176147461E-1
1.292831027E1,-1.600646973E-1,8.407592773E-3,-1.315307617E-1
1.293838107E1,-5.335845947E-1,5.126953125E-2,-4.306335449E-1
1.294848239E1,-4.801025391E-1,8.555603027E-2,-3.692321777E-1
1.295855319E1,-1.434326172E-1,3.955078125E-2,-1.043395996E-1
1.296862399E1,-1.564025879E-1,5.343627930E-2,-1.078491211E-1
1.297869479E1,-1.604309082E-1,6.338500977E-2,-1.065216064E-1
1.298879611E1,-4.560241699E-1,2.091369629E-1,-3.027038574E-1
1.299886691E1,-3.307952881E-1,1.853790283E-1,-2.163238525E-1
1.300893771E1,-1.806793213E-1,1.602172852E-1,-1.447143555E-1
1.301900851E1,-9.675598145E-2,1.439666748E-1,-9.490966797E-2
1.302904879E1,-6.123352051E-2,1.346893311E-1,-6.359863281E-2
1.303915011E1,-2.435302734E-2,1.256866455E-1,-4.121398926E-2
1.304922091E1,-2.450561523E-2,1.183013916E-1,-1.780700684E-2
1.305929171E1,5.285644531E-2,1.003723145E-1,1.910400391E-2
1.306936251E1,1.429290771E-1,8.073425293E-2,6.172180176E-2
1.307943332E1,2.392425537E-1,5.895996094E-2,1.013183594E-1
1.308950412E1,8.786010742E-2,1.582336426E-2,4.132080078E-2
1.309957492E1,9.501647949E-2,1.779174805E-2,5.178833008E-2
1.310964572E1,9.617614746E-2,2.027893066E-2,5.894470215E-2
1.311968600E1,2.971649170E-1,6.629943848E-2,1.913757324E-1
1.312978732E1,2.406463623E-1,5.676269531E-2,1.603698730E-1
1.313985812E1,7.185363770E-2,1.484680176E-2,4.777526855E-2
1.314992892E1,7.849121094E-2,1.411437988E-2,5.480957031E-2
1.315999972E1,8.985900879E-2,1.187133789E-2,6.436157227E-2
1.317013156E1,1.080780029E-1,7.232666016E-3,7.673645020E-2
1.318035495E1,1.254730225E-1,1.800537109E-3,9.024047852E-2
1.319054782E1,1.438293457E-1,-3.189086914E-3,1.021270752E-1
1.320064914E1,1.534729004E-1,-6.072998047E-3,1.084899902E-1
1.321090304E1,1.585540771E-1,-7.873535156E-3,1.096649170E-1
1.322115695E1,1.573638916E-1,-8.804321289E-3,1.068420410E-1
1.323138034E1,1.436767578E-1,-8.193969727E-3,9.947204590E-2
1.324145114E1,1.250152588E-1,-6.958007812E-3,8.874511719E-2
1.325060641E1,9.844970703E-2,-4.730224609E-3,7.653808594E-2
1.326067721E1,7.948303223E-2,-3.921508789E-3,6.546020508E-2
1.327077853E1,6.752014160E-2,-4.959106445E-3,5.635070801E-2
1.328084933E1,4.969787598E-2,-6.576538086E-3,4.843139648E-2
1.329092013E1,3.363037109E-2,-1.016235352E-2,4.196166992E-2
1.330248629E1,2.070617676E-2,-1.487731934E-2,3.678894043E-2
1.331106173E1,1.042175293E-2,-1.829528809E-2,3.300476074E-2
1.332113253E1,-1.541137695E-3,-1.779174805E-2,2.851867676E-2
1.333117282E1,2.441406250E-4,-1.806640625E-2,2.668762207E-2
1.334130465E1,1.571655273E-3,-1.799011230E-2,2.436828613E-2
1.335134494E1,-7.171630859E-4,-1.655578613E-2,2.023315430E-2
1.336141574E1,-1.815795898E-3,-1.582336426E-2,1.699829102E-2
1.337145602E1,5.203247070E-3,-1.596069336E-2,1.539611816E-2
1.338149630E1,1.501464844E-2,-1.634216309E-2,1.469421387E-2
1.339159762E1,2.354431152E-2,-1.634216309E-2,1.391601562E-2
1.340166842E1,2.592468262E-2,-1.510620117E-2,1.361083984E-2
1.341173922E1,2.381896973E-2,-1.335144043E-2,1.325988770E-2
1.342181002E1,1.927185059E-2,-1.153564453E-2,1.255798340E-2
1.343188082E1,1.260375977E-2,-8.636474609E-3,1.103210449E-2
1.344192111E1,7.843017578E-3,-6.134033203E-3,1.068115234E-2
1.345202243E1,6.790161133E-3,-3.601074219E-3,1.142883301E-2
1.346212375E1,1.174926758E-2,-2.899169922E-3,1.676940918E-2
1.347216403E1,1.879882812E-2,-2.105712891E-3,2.124023438E-2
1.348223483E1,2.217102051E-2,-4.119873047E-4,2.252197266E-2
1.349230563E1,2.616882324E-2,1.708984375E-3,2.470397949E-2
1.350240695E1,3.012084961E-2,3.128051758E-3,2.622985840E-2
1.351247775E1,3.552246094E-2,4.501342773E-3,2.902221680E-2
1.352251803E1,3.974914551E-2,6.103515625E-3,3.205871582E-2
1.353258883E1,4.234313965E-2,7.965087891E-3,3.518676758E-2
1.354269015E1,4.356384277E-2,9.475708008E-3,3.816223145E-2
1.355282199E1,4.325866699E-2,1.066589355E-2,4.003906250E-2
1.356304538E1,4.309082031E-2,1.109313965E-2,4.121398926E-2
1.357326876E1,4.306030273E-2,1.115417480E-2,4.173278809E-2
1.358346164E1,4.167175293E-2,1.087951660E-2,4.121398926E-2
1.359365451E1,3.903198242E-2,9.841918945E-3,4.028320312E-2
1.360387790E1,3.459167480E-2,8.621215820E-3,3.840637207E-2
1.361410128E1,2.668762207E-2,8.010864258E-3,3.417968750E-2
1.362411105E1,1.861572266E-2,7.492065430E-3,2.937316895E-2
1.363329684E1,1.165771484E-2,5.523681641E-3,2.378845215E-2
1.364339816E1,8.056640625E-3,1.235961914E-3,1.893615723E-2
1.365343844E1,8.804321289E-3,-5.111694336E-3,1.657104492E-2
1.366353976E1,1.051330566E-2,-1.216125488E-2,1.463317871E-2
1.367361056E1,4.989624023E-3,-1.617431641E-2,9.567260742E-3
1.368365084E1,-6.088256836E-3,-1.770019531E-2,1.983642578E-3
1.369375216E1,-1.663208008E-2,-1.834106445E-2,-4.989624023E-3
1.370483004E1,-2.540588379E-2,-1.841735840E-2,-1.078796387E-2
1.371380221E1,-3.265380859E-2,-1.811218262E-2,-1.541137695E-2
1.372396457E1,-3.823852539E-2,-1.849365234E-2,-1.922607422E-2
1.373403537E1,-4.112243652E-2,-2.017211914E-2,-2.185058594E-2
1.374410617E1,-4.208374023E-2,-2.226257324E-2,-2.336120605E-2
1.375417697E1,-4.122924805E-2,-2.520751953E-2,-2.389526367E-2
1.376421725E1,-3.973388672E-2,-2.871704102E-2,-2.444458008E-2
1.377425753E1,-4.013061523E-2,-3.067016602E-2,-2.577209473E-2
1.378438937E1,-4.344177246E-2,-3.033447266E-2,-2.801513672E-2
1.379446017E1,-4.699707031E-2,-2.944946289E-2,-3.034973145E-2
1.380453097E1,-5.009460449E-2,-2.911376953E-2,-3.269958496E-2
1.381460177E1,-5.123901367E-2,-2.946472168E-2,-3.427124023E-2
1.382464206E1,-5.072021484E-2,-2.993774414E-2,-3.472900391E-2
1.383474337E1,-4.837036133E-2,-3.022766113E-2,-3.376770020E-2
1.384481417E1,-4.435729980E-2,-3.070068359E-2,-3.147888184E-2
1.385488498E1,-3.855895996E-2,-3.120422363E-2,-2.787780762E-2
1.386492526E1,-3.356933594E-2,-3.102111816E-2,-2.452087402E-2
1.387496554E1,-2.844238281E-2,-3.155517578E-2,-2.156066895E-2
1.388506686E1,-2.378845215E-2,-3.211975098E-2,-1.907348633E-2
1.389513766E1,-1.969909668E-2,-3.271484375E-2,-1.702880859E-2
1.390517794E1,-1.620483398E-2,-3.324890137E-2,-1.545715332E-2
1.391524875E1,-1.237487793E-2,-3.437805176E-2,-1.417541504E-2
1.392535006E1,-1.020812988E-2,-3.550720215E-2,-1.393127441E-2
1.393545138E1,-1.025390625E-2,-3.628540039E-2,-1.521301270E-2
1.394576632E1,-1.219177246E-2,-3.700256348E-2,-1.770019531E-2
1.395586764E1,-1.390075684E-2,-3.709411621E-2,-1.963806152E-2
1.396624362E1,-1.390075684E-2,-3.744506836E-2,-2.009582520E-2
1.397643649E1,-1.242065430E-2,-3.694152832E-2,-1.899719238E-2
1.398665988E1,-1.026916504E-2,-3.675842285E-2,-1.742553711E-2
1.399682223E1,-8.590698242E-3,-3.649902344E-2,-1.609802246E-2
1.400680148E1,-7.415771484E-3,-3.569030762E-2,-1.486206055E-2
1.401601779E1,-5.493164062E-3,-3.565979004E-2,-1.365661621E-2
1.402605807E1,-2.807617188E-3,-3.642272949E-2,-1.249694824E-2
1.403612887E1,-1.235961914E-3,-3.648376465E-2,-1.156616211E-2
1.404623019E1,9.155273438E-5,-3.730773926E-2,-1.103210449E-2
1.405630099E1,1.174926758E-3,-3.800964355E-2,-1.072692871E-2
1.406634127E1,1.190185547E-3,-3.825378418E-2,-1.095581055E-2
1.407641208E1,4.272460938E-4,-3.753662109E-2,-1.132202148E-2
1.408645236E1,-8.544921875E-4,-3.646850586E-2,-1.170349121E-2
1.409652316E1,-2.456665039E-3,-3.433227539E-2,-1.188659668E-2
1.410702121E1,-3.952026367E-3,-3.297424316E-2,-1.213073730E-2
1.411669528E1,-6.912231445E-3,-3.041076660E-2,-1.277160645E-2
1.412676608E1,-1.147460938E-2,-2.671813965E-2,-1.397705078E-2
1.413680636E1,-1.556396484E-2,-2.343750000E-2,-1.504516602E-2
1.414690768E1,-1.823425293E-2,-2.061462402E-2,-1.536560059E-2
1.415697848E1,-1.872253418E-2,-1.849365234E-2,-1.435852051E-2
1.416701876E1,-1.741027832E-2,-1.676940918E-2,-1.222229004E-2
1.417708957E1,-1.510620117E-2,-1.425170898E-2,-9.460449219E-3
1.418722140E1,-1.403808594E-2,-1.295471191E-2,-7.858276367E-3
1.419729220E1,-1.416015625E-2,-1.135253906E-2,-7.049560547E-3
1.420736300E1,-1.245117188E-2,-1.013183594E-2,-5.249023438E-3
1.421743380E1,-1.141357422E-2,-9.567260742E-3,-3.967285156E-3
1.422750460E1,-1.066589355E-2,-8.102416992E-3,-3.341674805E-3
1.423757541E1,-1.281738281E-2,-7.492065430E-3,-4.196166992E-3
1.424767672E1,-1.484680176E-2,-6.195068359E-3,-5.172729492E-3
1.425771701E1,-1.753234863E-2,-5.508422852E-3,-6.332397461E-3
1.426775729E1,-1.895141602E-2,-4.821777344E-3,-6.530761719E-3
1.427785861E1,-2.127075195E-2,-3.479003906E-3,-7.415771484E-3
1.428792941E1,-2.648925781E-2,-1.724243164E-3,-9.933471680E-3
1.429806125E1,-3.002929688E-2,-5.798339844E-4,-1.168823242E-2
1.430828463E1,-3.280639648E-2,1.876831055E-3,-1.208496094E-2
1.431850802E1,-3.695678711E-2,5.889892578E-3,-1.240539551E-2
1.432870089E1,-4.156494141E-2,1.025390625E-2,-1.286315918E-2
1.433892428E1,-4.428100586E-2,1.322937012E-2,-1.284790039E-2
1.434899508E1,-4.586791992E-2,1.542663574E-2,-1.243591309E-2
1.435921847E1,-4.600524902E-2,1.678466797E-2,-1.161193848E-2
1.436935031E1,-4.576110840E-2,1.802062988E-2,-1.060485840E-2
1.437856662E1,-4.589843750E-2,1.914978027E-2,-9.963989258E-3
1.438863742E1,-4.566955566E-2,2.003479004E-2,-9.216308594E-3
1.439870822E1,-4.631042480E-2,2.168273926E-2,-8.666992188E-3
1.440877902E1,-4.768371582E-2,2.357482910E-2,-8.438110352E-3
1.441884982E1,-4.835510254E-2,2.474975586E-2,-8.285522461E-3
1.442892062E1,-4.861450195E-2,2.529907227E-2,-8.056640625E-3
1.443899142E1,-5.004882812E-2,2.664184570E-2,-8.026123047E-3
1.444906222E1,-5.285644531E-2,2.844238281E-2,-8.819580078E-3
1.445910250E1,-5.662536621E-2,3.024291992E-2,-1.023864746E-2
1.446917331E1,-5.984497070E-2,3.132629395E-2,-1.167297363E-2
1.447921359E1,-6.184387207E-2,3.208923340E-2,-1.235961914E-2
1.448931491E1,-6.112670898E-2,3.143310547E-2,-1.193237305E-2
1.449938571E1,-5.831909180E-2,2.958679199E-2,-1.071166992E-2
1.450982272E1,-5.560302734E-2,2.772521973E-2,-9.658813477E-3
1.451952731E1,-5.358886719E-2,2.664184570E-2,-8.819580078E-3
1.452959811E1,-5.284118652E-2,2.650451660E-2,-8.346557617E-3
1.453966891E1,-5.183410645E-2,2.601623535E-2,-7.843017578E-3
1.454970919E1,-5.125427246E-2,2.603149414E-2,-7.400512695E-3
1.455978000E1,-5.142211914E-2,2.676391602E-2,-7.049560547E-3
1.456991183E1,-5.220031738E-2,2.751159668E-2,-6.927490234E-3
1.457998263E1,-5.291748047E-2,2.793884277E-2,-6.958007812E-3
1.459005343E1,-5.303955078E-2,2.772521973E-2,-6.835937500E-3
1.460012423E1,-5.308532715E-2,2.731323242E-2,-6.713867188E-3
1.461019503E1,-5.233764648E-2,2.565002441E-2,-6.912231445E-3
1.462026583E1,-5.210876465E-2,2.409362793E-2,-7.324218750E-3
1.463030612E1,-5.139160156E-2,2.264404297E-2,-7.354736328E-3
1.464034640E1,-5.003356934E-2,2.113342285E-2,-6.958007812E-3
1.465047824E1,-4.855346680E-2,1.959228516E-2,-6.591796875E-3
1.466054904E1,-4.766845703E-2,1.809692383E-2,-6.546020508E-3
1.467068087E1,-4.621887207E-2,1.676940918E-2,-5.950927734E-3
1.468090426E1,-4.394531250E-2,1.524353027E-2,-5.218505859E-3
1.469109713E1,-4.225158691E-2,1.383972168E-2,-4.852294922E-3
1.470132052E1,-4.064941406E-2,1.268005371E-2,-4.394531250E-3
1.471151339E1,-3.945922852E-2,1.182556152E-2,-4.043579102E-3
1.472173678E1,-3.927612305E-2,1.130676270E-2,-4.058837891E-3
1.473186862E1,-3.907775879E-2,1.086425781E-2,-4.196166992E-3
1.474193942E1,-3.918457031E-2,1.037597656E-2,-4.440307617E-3
1.475213229E1,-3.976440430E-2,1.052856445E-2,-4.501342773E-3
1.476122653E1,-4.031372070E-2,1.112365723E-2,-4.501342773E-3
1.477129733E1,-4.132080078E-2,1.156616211E-2,-4.730224609E-3
1.478139865E1,-4.272460938E-2,1.242065430E-2,-4.913330078E-3
1.479143893E1,-4.293823242E-2,1.269531250E-2,-4.791259766E-3
1.480150973E1,-4.304504395E-2,1.237487793E-2,-4.699707031E-3
1.481161105E1,-4.286193848E-2,1.208496094E-2,-4.745483398E-3
1.482168185E1,-4.339599609E-2,1.199340820E-2,-5.111694336E-3
1.483175265E1,-4.299926758E-2,1.116943359E-2,-5.661010742E-3
1.484179293E1,-4.237365723E-2,1.010131836E-2,-6.179809570E-3
1.485189425E1,-4.240417480E-2,9.475708008E-3,-6.912231445E-3
1.486196505E1,-4.333496094E-2,9.048461914E-3,-8.377075195E-3
1.487191378E1,-4.556274414E-2,8.972167969E-3,-1.051330566E-2
1.488213717E1,-4.711914062E-2,8.514404297E-3,-1.261901855E-2
1.489217746E1,-4.742431641E-2,7.598876953E-3,-1.396179199E-2
1.490221774E1,-4.594421387E-2,6.072998047E-3,-1.461791992E-2
1.491262423E1,-4.516601562E-2,4.379272461E-3,-1.582336426E-2
1.492235934E1,-4.557800293E-2,3.341674805E-3,-1.736450195E-2
1.493239962E1,-4.566955566E-2,2.349853516E-3,-1.870727539E-2
1.494265353E1,-4.592895508E-2,1.708984375E-3,-1.998901367E-2
1.495260226E1,-4.571533203E-2,1.724243164E-3,-2.059936523E-2
1.496264254E1,-4.473876953E-2,1.998901367E-3,-2.050781250E-2
1.497268283E1,-4.228210449E-2,2.197265625E-3,-1.933288574E-2
1.498275363E1,-3.872680664E-2,2.166748047E-3,-1.745605469E-2
1.499282443E1,-3.375244141E-2,1.922607422E-3,-1.466369629E-2
1.500292575E1,-2.906799316E-2,1.937866211E-3,-1.200866699E-2
1.501299655E1,-2.552795410E-2,2.639770508E-3,-9.872436523E-3
1.502306735E1,-2.433776855E-2,3.753662109E-3,-8.895874023E-3
1.503310763E1,-2.302551270E-2,4.776000977E-3,-7.827758789E-3
1.504317843E1,-2.198791504E-2,5.905151367E-3,-6.988525391E-3
1.505327975E1,-2.090454102E-2,6.271362305E-3,-6.576538086E-3
1.506347262E1,-1.884460449E-2,5.950927734E-3,-5.874633789E-3
1.507369601E1,-1.818847656E-2,6.286621094E-3,-5.508422852E-3
1.508391940E1,-1.852416992E-2,7.293701172E-3,-5.218505859E-3
1.509411227E1,-1.922607422E-2,8.728027344E-3,-4.974365234E-3
1.510433566E1,-2.062988281E-2,1.075744629E-2,-4.730224609E-3
1.511452853E1,-2.210998535E-2,1.318359375E-2,-4.150390625E-3
1.512453830E1,-2.111816406E-2,1.330566406E-2,-3.356933594E-3
1.513381564E1,-1.940917969E-2,1.269531250E-2,-2.426147461E-3
1.514391696E1,-1.281738281E-2,1.083374023E-2,1.296997070E-3
1.515398776E1,-5.950927734E-4,8.102416992E-3,8.712768555E-3
1.516405856E1,1.446533203E-2,4.318237305E-3,1.774597168E-2
1.517412936E1,2.436828613E-2,1.480102539E-3,2.366638184E-2
1.518420016E1,2.581787109E-2,7.171630859E-4,2.467346191E-2
1.519427096E1,2.438354492E-2,-6.866455078E-4,2.320861816E-2
1.520431125E1,2.178955078E-2,-2.807617188E-3,2.035522461E-2
1.521438204E1,2.021789551E-2,-5.798339844E-3,1.768493652E-2
1.522445285E1,3.927612305E-2,-2.435302734E-2,4.357910156E-2
1.523455416E1,3.437805176E-2,-2.897644043E-2,3.083801270E-2
1.524462497E1,1.539611816E-2,-1.042175293E-2,7.461547852E-3
1.525466525E1,1.806640625E-2,-1.246643066E-2,6.134033203E-3
1.526476657E1,1.893615723E-2,-1.353454590E-2,4.974365234E-3
1.527483737E1,2.088928223E-2,-1.487731934E-2,5.142211914E-3
1.528487765E1,2.694702148E-2,-1.654052734E-2,6.225585938E-3
1.529497897E1,3.459167480E-2,-1.831054688E-2,7.034301758E-3
1.530504977E1,4.312133789E-2,-1.989746094E-2,7.797241211E-3
1.531542575E1,4.986572266E-2,-2.082824707E-2,1.005554199E-2
1.532516085E1,5.595397949E-2,-2.159118652E-2,1.312255859E-2
1.533526217E1,5.851745605E-2,-2.227783203E-2,1.441955566E-2
1.534530246E1,5.677795410E-2,-2.215576172E-2,1.351928711E-2
1.535537326E1,5.201721191E-2,-2.124023438E-2,1.119995117E-2
1.536547458E1,4.612731934E-2,-1.892089844E-2,9.094238281E-3
1.537557589E1,4.096984863E-2,-1.638793945E-2,7.751464844E-3
1.538564669E1,3.659057617E-2,-1.405334473E-2,6.805419922E-3
1.539568698E1,3.103637695E-2,-1.223754883E-2,4.623413086E-3
1.540578830E1,2.319335938E-2,-8.575439453E-3,1.693725586E-3
1.541585910E1,1.658630371E-2,-2.883911133E-3,1.983642578E-4
1.542608248E1,1.315307617E-2,3.799438477E-3,1.129150391E-3
1.543630587E1,1.179504395E-2,8.071899414E-3,2.807617188E-3
1.544649875E1,1.374816895E-2,1.016235352E-2,3.692626953E-3
1.545672213E1,1.638793945E-2,1.052856445E-2,4.531860352E-3
1.546679293E1,3.009033203E-2,9.628295898E-3,9.140014648E-3
1.547698581E1,3.707885742E-2,8.895874023E-3,1.463317871E-2
1.548711764E1,3.555297852E-2,9.307861328E-3,1.844787598E-2
1.549724948E1,3.195190430E-2,1.004028320E-2,1.950073242E-2
1.550646579E1,2.598571777E-2,1.089477539E-2,1.844787598E-2
1.551653659E1,2.082824707E-2,1.206970215E-2,1.647949219E-2
1.552660739E1,1.490783691E-2,1.222229004E-2,1.309204102E-2
1.553664767E1,1.046752930E-2,1.229858398E-2,1.081848145E-2
1.554674899E1,7.583618164E-3,1.228332520E-2,9.933471680E-3
1.555681979E1,3.097534180E-3,1.184082031E-2,7.965087891E-3
1.556686007E1,-6.103515625E-5,1.019287109E-2,6.149291992E-3
1.557696139E1,-8.392333984E-4,9.750366211E-3,6.774902344E-3
1.558703219E1,-5.798339844E-4,8.255004883E-3,7.034301758E-3
1.559707248E1,-7.629394531E-4,8.712768555E-3,8.071899414E-3
1.560717379E1,1.693725586E-3,5.371093750E-3,6.256103516E-3
1.561724459E1,8.224487305E-3,1.937866211E-3,6.835937500E-3
1.562731540E1,1.693725586E-2,-3.341674805E-3,7.476806641E-3
1.563735568E1,2.522277832E-2,-8.987426758E-3,7.904052734E-3
1.564742648E1,3.190612793E-2,-1.489257812E-2,7.705688477E-3
1.565752780E1,3.353881836E-2,-1.852416992E-2,6.576538086E-3
1.566762912E1,3.244018555E-2,-2.015686035E-2,5.569458008E-3
1.567769992E1,2.914428711E-2,-2.027893066E-2,4.196166992E-3
1.568777072E1,2.168273926E-2,-1.956176758E-2,2.441406250E-4
1.569784152E1,1.234436035E-2,-1.956176758E-2,-5.859375000E-3
1.570791232E1,4.531860352E-3,-2.027893066E-2,-1.171875000E-2
1.571847140E1,-1.663208008E-3,-2.067565918E-2,-1.524353027E-2
1.572802340E1,-6.866455078E-3,-2.128601074E-2,-1.756286621E-2
1.573812472E1,-1.025390625E-2,-2.252197266E-2,-1.905822754E-2
1.574819552E1,-9.628295898E-3,-2.352905273E-2,-1.858520508E-2
1.575826632E1,-8.010864258E-3,-2.420043945E-2,-1.783752441E-2
1.576833712E1,-5.874633789E-3,-2.398681641E-2,-1.625061035E-2
1.577837741E1,-4.837036133E-3,-2.209472656E-2,-1.402282715E-2
1.578844821E1,-5.523681641E-3,-1.956176758E-2,-1.239013672E-2
1.579870211E1,-6.286621094E-3,-1.647949219E-2,-1.063537598E-2
1.580895602E1,-5.676269531E-3,-1.489257812E-2,-8.682250977E-3
1.581914889E1,-4.699707031E-3,-1.315307617E-2,-6.332397461E-3
1.582934176E1,-2.914428711E-3,-1.193237305E-2,-3.662109375E-3
1.583956515E1,-2.441406250E-4,-1.184082031E-2,-6.866455078E-4
1.584978854E1,1.083374023E-3,-1.068115234E-2,1.388549805E-3
1.585985934E1,2.609252930E-3,-1.000976562E-2,3.173828125E-3
1.586999118E1,2.502441406E-3,-8.483886719E-3,3.921508789E-3
1.587902438E1,2.212524414E-3,-8.041381836E-3,4.989624023E-3
1.588906466E1,4.119873047E-4,-5.126953125E-3,4.562377930E-3
1.589925753E1,-1.052856445E-3,-2.685546875E-3,3.906250000E-3
1.590932833E1,0.000000000E0,0.000000000E0,0.000000000E0
1.591936862E1,-3.051757812E-3,2.746582031E-4,6.149291992E-3
1.592946994E1,-2.746582031E-3,2.075195312E-3,9.094238281E-3
1.594024264E1,-1.937866211E-3,4.074096680E-3,9.857177734E-3
1.594964206E1,-2.075195312E-3,6.683349609E-3,1.182556152E-2
1.595968234E1,-2.059936523E-3,8.438110352E-3,1.271057129E-2
1.596975314E1,-1.525878906E-4,8.056640625E-3,1.307678223E-2
1.597982394E1,3.311157227E-3,7.629394531E-3,1.541137695E-2
1.598986422E1,5.187988281E-3,6.820678711E-3,1.603698730E-2
1.599996554E1,5.706787109E-3,6.164550781E-3,1.612854004E-2
1.601003634E1,3.997802734E-3,5.599975586E-3,1.457214355E-2
1.602010714E1,8.697509766E-4,5.172729492E-3,1.173400879E-2
1.603014743E1,-1.846313477E-3,4.516601562E-3,8.407592773E-3
1.604024874E1,-3.402709961E-3,4.562377930E-3,7.888793945E-3
1.605031954E1,-5.249023438E-3,4.562377930E-3,6.805419922E-3
1.606039035E1,-8.041381836E-3,4.180908203E-3,3.540039062E-3
1.607043063E1,-1.278686523E-2,5.035400391E-3,1.083374023E-3
1.608047091E1,-1.724243164E-2,5.828857422E-3,-1.266479492E-3
1.609057223E1,-1.849365234E-2,5.828857422E-3,-2.273559570E-3
1.610064303E1,-1.791381836E-2,5.279541016E-3,-2.838134766E-3
1.611068332E1,-1.960754395E-2,5.157470703E-3,-4.257202148E-3
1.612121188E1,-1.992797852E-2,4.547119141E-3,-5.416870117E-3
1.613085543E1,-2.090454102E-2,4.119873047E-3,-6.454467773E-3
1.614092624E1,-1.991271973E-2,3.555297852E-3,-6.317138672E-3
1.615096652E1,-1.835632324E-2,3.173828125E-3,-5.584716797E-3
1.616106784E1,-1.666259766E-2,3.051757812E-3,-4.486083984E-3
1.617135226E1,-1.538085938E-2,3.097534180E-3,-3.631591797E-3
1.618148410E1,-1.472473145E-2,3.204345703E-3,-3.189086914E-3
1.619167697E1,-1.396179199E-2,3.051757812E-3,-2.761840820E-3
1.620190036E1,-1.388549805E-2,3.784179688E-3,-2.166748047E-3
1.621209323E1,-1.277160645E-2,4.760742188E-3,-1.495361328E-3
1.622231662E1,-1.626586914E-2,7.858276367E-3,-1.434326172E-3
1.623238742E1,-1.687622070E-2,9.475708008E-3,-8.392333984E-4
1.624163424E1,-1.741027832E-2,1.106262207E-2,1.220703125E-4
1.625167453E1,-1.603698730E-2,1.187133789E-2,1.922607422E-3
1.626174533E1,-1.377868652E-2,1.217651367E-2,4.058837891E-3
1.627184664E1,-1.014709473E-2,1.095581055E-2,6.072998047E-3
1.628191745E1,-7.888793945E-3,9.811401367E-3,7.354736328E-3
1.629198825E1,-7.080078125E-3,8.193969727E-3,6.942749023E-3
1.630202853E1,-7.781982422E-3,7.003784180E-3,5.676269531E-3
1.631209933E1,-1.008605957E-2,6.744384766E-3,4.272460938E-3
1.632207858E1,-1.107788086E-2,5.798339844E-3,3.051757812E-3
1.633227145E1,-1.077270508E-2,4.531860352E-3,2.273559570E-3
1.634234225E1,-1.110839844E-2,3.952026367E-3,1.678466797E-3
1.635241305E1,-1.457214355E-2,4.867553711E-3,4.577636719E-5
1.636248385E1,-1.725769043E-2,5.645751953E-3,-1.342773438E-3
1.637255465E1,-1.722717285E-2,5.706787109E-3,-9.918212891E-4
1.638259494E1,-1.298522949E-2,4.470825195E-3,5.798339844E-4
1.639266574E1,-1.115417480E-2,3.784179688E-3,1.754760742E-3
1.640276706E1,-9.140014648E-3,2.838134766E-3,1.647949219E-3
1.641283786E1,-9.323120117E-3,2.380371094E-3,1.403808594E-3
1.642290866E1,-9.582519531E-3,1.266479492E-3,1.129150391E-3
1.643297946E1,0.000000000E0,0.000000000E0,0.000000000E0
1.644305026E1,1.971435547E-2,-2.580261230E-2,3.463745117E-3
1.645309054E1,6.744384766E-3,-3.668212891E-2,-1.023864746E-2
1.646316134E1,-7.049560547E-3,-1.261901855E-2,-1.112365723E-2
1.647326266E1,-1.965332031E-2,-1.437377930E-2,-2.183532715E-2
1.648333346E1,-2.742004395E-2,-1.501464844E-2,-2.856445312E-2
1.649337374E1,-2.537536621E-2,-1.612854004E-2,-3.021240234E-2
1.650347506E1,-1.742553711E-2,-1.734924316E-2,-2.847290039E-2
1.651354586E1,-1.524353027E-2,-1.774597168E-2,-2.738952637E-2
1.652444064E1,-1.702880859E-2,-1.695251465E-2,-2.622985840E-2
1.653368746E1,-2.005004883E-2,-1.516723633E-2,-2.534484863E-2
1.654384982E1,-2.450561523E-2,-1.260375977E-2,-2.465820312E-2
1.655404269E1,-3.173828125E-2,-9.872436523E-3,-2.479553223E-2
1.656426608E1,-3.974914551E-2,-7.217407227E-3,-2.452087402E-2
1.657445895E1,-4.708862305E-2,-5.142211914E-3,-2.404785156E-2
1.658468234E1,-5.276489258E-2,-3.860473633E-3,-2.363586426E-2
1.659487521E1,-5.718994141E-2,-3.387451172E-3,-2.377319336E-2
1.660500704E1,-6.172180176E-2,-3.463745117E-3,-2.519226074E-2
1.661510836E1,-6.639099121E-2,-3.967285156E-3,-2.798461914E-2
1.662432467E1,-7.048034668E-2,-4.104614258E-3,-3.141784668E-2
1.663436496E1,-7.333374023E-2,-3.952026367E-3,-3.390502930E-2
1.664443576E1,-7.218933105E-2,-4.608154297E-3,-3.417968750E-2
1.665452694E1,-6.651306152E-2,-5.004882812E-3,-3.097534180E-2
1.666462826E1,-5.880737305E-2,-4.379272461E-3,-2.606201172E-2
1.667469906E1,-5.633544922E-2,-2.578735352E-3,-2.139282227E-2
1.668476986E1,-5.665588379E-2,-4.425048828E-4,-1.823425293E-2
1.669484066E1,-5.139160156E-2,5.035400391E-4,-1.544189453E-2
1.670488095E1,-3.936767578E-2,-3.662109375E-4,-7.476806641E-3
1.671498227E1,-2.450561523E-2,3.814697266E-4,3.646850586E-3
1.672505307E1,-1.181030273E-2,5.111694336E-3,1.373291016E-2
1.673512387E1,-1.210021973E-2,1.501464844E-2,1.834106445E-2
1.674516415E1,-2.253723145E-2,2.600097656E-2,1.995849609E-2
1.675526547E1,-3.170776367E-2,3.607177734E-2,2.246093750E-2
1.676533627E1,-4.112243652E-2,4.344177246E-2,2.511596680E-2
1.677537655E1,-4.420471191E-2,4.699707031E-2,2.864074707E-2
1.678547787E1,-3.799438477E-2,4.747009277E-2,3.282165527E-2
1.679554867E1,-2.296447754E-2,4.556274414E-2,3.671264648E-2
1.680561947E1,-7.583618164E-3,4.296875000E-2,3.941345215E-2
1.681565976E1,4.394531250E-3,4.080200195E-2,4.045104980E-2
1.682573056E1,1.220703125E-2,3.970336914E-2,4.057312012E-2
1.683583188E1,1.914978027E-2,3.900146484E-2,4.153442383E-2
1.684590268E1,2.407836914E-2,3.883361816E-2,4.229736328E-2
1.685597348E1,2.470397949E-2,3.938293457E-2,4.170227051E-2
1.686604428E1,2.206420898E-2,3.926086426E-2,3.950500488E-2
1.687608456E1,1.841735840E-2,3.863525391E-2,3.648376465E-2
1.688615536E1,1.435852051E-2,3.684997559E-2,3.251647949E-2
1.689622616E1,1.022338867E-2,3.456115723E-2,2.833557129E-2
1.690632748E1,6.683349609E-3,3.175354004E-2,2.449035645E-2
1.691639828E1,5.371093750E-3,2.886962891E-2,2.198791504E-2
1.692756772E1,-4.425048828E-4,2.667236328E-2,1.647949219E-2
1.693687558E1,-1.329040527E-2,2.561950684E-2,6.256103516E-3
1.694703793E1,-3.042602539E-2,2.496337891E-2,-7.202148438E-3
1.695716977E1,-4.531860352E-2,2.453613281E-2,-1.885986328E-2
1.696745419E1,-5.270385742E-2,2.246093750E-2,-2.575683594E-2
1.697755551E1,-5.412292480E-2,1.759338379E-2,-2.990722656E-2
1.698768734E1,-5.268859863E-2,1.121520996E-2,-3.295898438E-2
1.699693417E1,-5.023193359E-2,4.333496094E-3,-3.585815430E-2
1.700703549E1,-5.052185059E-2,-1.373291016E-3,-4.006958008E-2
1.701710629E1,-5.300903320E-2,-5.523681641E-3,-4.501342773E-2
1.702717709E1,-5.651855469E-2,-8.682250977E-3,-5.041503906E-2
1.703721737E1,-5.943298340E-2,-1.107788086E-2,-5.508422852E-2
1.704728818E1,-6.181335449E-2,-1.222229004E-2,-5.874633789E-2
1.705735898E1,-6.251525879E-2,-1.287841797E-2,-6.098937988E-2
1.706746029E1,-6.118774414E-2,-1.324462891E-2,-6.167602539E-2
1.707753110E1,-5.821228027E-2,-1.380920410E-2,-6.097412109E-2
1.708760190E1,-5.574035645E-2,-1.406860352E-2,-6.011962891E-2
1.709764218E1,-5.267333984E-2,-1.376342773E-2,-5.804443359E-2
1.710771298E1,-4.878234863E-2,-1.315307617E-2,-5.499267578E-2
1.711781430E1,-4.577636719E-2,-1.208496094E-2,-5.236816406E-2
1.712788510E1,-4.222106934E-2,-1.095581055E-2,-4.942321777E-2
1.713792538E1,-3.800964355E-2,-1.048278809E-2,-4.669189453E-2
1.714799618E1,-3.332519531E-2,-1.008605957E-2,-4.367065430E-2
1.715809750E1,-2.841186523E-2,-9.796142578E-3,-4.060363770E-2
1.716816830E1,-2.276611328E-2,-9.933471680E-3,-3.753662109E-2
1.717820858E1,-1.719665527E-2,-1.014709473E-2,-3.482055664E-2
1.718830990E1,-1.268005371E-2,-1.016235352E-2,-3.260803223E-2
1.719838070E1,-1.043701172E-2,-9.582519531E-3,-3.175354004E-2
1.720845150E1,-8.972167969E-3,-8.422851562E-3,-3.068542480E-2
1.721849179E1,-7.507324219E-3,-7.537841797E-3,-2.975463867E-2
1.722856259E1,-6.240844727E-3,-6.484985352E-3,-2.868652344E-2
1.723863339E1,-6.347656250E-3,-4.776000977E-3,-2.804565430E-2
1.724873471E1,-6.958007812E-3,-2.456665039E-3,-2.735900879E-2
1.725880551E1,-7.064819336E-3,4.577636719E-5,-2.566528320E-2
1.726887631E1,-5.767822266E-3,2.273559570E-3,-2.297973633E-2
1.727891659E1,-3.311157227E-3,3.601074219E-3,-2.001953125E-2
1.728910946E1,-1.266479492E-3,4.898071289E-3,-1.745605469E-2
1.729930234E1,-6.713867188E-4,6.713867188E-3,-1.614379883E-2
1.730949521E1,-1.739501953E-3,9.017944336E-3,-1.565551758E-2
1.731971860E1,-4.898071289E-3,1.167297363E-2,-1.547241211E-2
1.733052182E1,-9.033203125E-3,1.397705078E-2,-1.684570312E-2
1.734013485E1,-1.351928711E-2,1.512145996E-2,-1.904296875E-2
1.735032772E1,-1.943969727E-2,1.669311523E-2,-2.217102051E-2
1.736036801E1,-2.577209473E-2,1.921081543E-2,-2.513122559E-2
1.736958432E1,-3.219604492E-2,2.337646484E-2,-2.705383301E-2
1.737965512E1,-3.710937500E-2,2.752685547E-2,-2.731323242E-2
1.738972592E1,-4.055786133E-2,3.150939941E-2,-2.671813965E-2
1.739976620E1,-4.199218750E-2,3.477478027E-2,-2.485656738E-2
1.740983700E1,-4.232788086E-2,3.654479980E-2,-2.310180664E-2
1.741993832E1,-4.118347168E-2,3.642272949E-2,-2.169799805E-2
1.743000912E1,-3.924560547E-2,3.459167480E-2,-2.066040039E-2
1.744004940E1,-3.681945801E-2,3.111267090E-2,-2.040100098E-2
1.745012021E1,-3.523254395E-2,2.677917480E-2,-2.122497559E-2
1.746022152E1,-3.695678711E-2,2.365112305E-2,-2.401733398E-2
1.747029233E1,-4.101562500E-2,2.101135254E-2,-2.835083008E-2
1.748036313E1,-4.733276367E-2,1.933288574E-2,-3.410339355E-2
1.749040341E1,-5.458068848E-2,1.840209961E-2,-4.054260254E-2
1.750047421E1,-6.001281738E-2,1.757812500E-2,-4.571533203E-2
1.751057553E1,-6.329345703E-2,1.652526855E-2,-4.930114746E-2
1.752064633E1,-6.381225586E-2,1.547241211E-2,-5.058288574E-2
1.753071713E1,-6.150817871E-2,1.425170898E-2,-4.965209961E-2
1.754075741E1,-5.543518066E-2,1.261901855E-2,-4.600524902E-2
1.755082821E1,-4.757690430E-2,1.113891602E-2,-4.107666016E-2
1.756092953E1,-3.950500488E-2,1.004028320E-2,-3.578186035E-2
1.757100033E1,-3.279113770E-2,9.796142578E-3,-3.085327148E-2
1.758107113E1,-2.885437012E-2,1.054382324E-2,-2.725219727E-2
1.759111142E1,-2.586364746E-2,1.228332520E-2,-2.366638184E-2
1.760118222E1,-1.881408691E-2,1.338195801E-2,-1.730346680E-2
1.761125302E1,-8.895874023E-3,1.423645020E-2,-9.811401367E-3
1.762135434E1,1.449584961E-3,1.441955566E-2,-1.541137695E-3
1.763142514E1,3.527832031E-2,4.603576660E-2,1.573181152E-2
1.764149594E1,6.248474121E-2,4.028320312E-2,3.248596191E-2
1.765156674E1,2.177429199E-2,1.397705078E-2,1.507568359E-2
1.766172909E1,2.343750000E-2,1.741027832E-2,2.050781250E-2
1.767192196E1,2.626037598E-2,2.021789551E-2,2.493286133E-2
1.768211484E1,2.996826172E-2,2.294921875E-2,2.804565430E-2
1.769233822E1,3.402709961E-2,2.496337891E-2,2.996826172E-2
1.770256161E1,4.011535645E-2,2.500915527E-2,3.169250488E-2
1.771275448E1,1.288604736E-1,7.006835938E-2,9.858703613E-2
1.772285580E1,4.614257812E-2,1.502990723E-2,2.804565430E-2
1.773335385E1,6.074523926E-2,1.145935059E-2,3.036499023E-2
1.774220395E1,7.742309570E-2,7.720947266E-3,3.207397461E-2
1.775227475E1,8.946228027E-2,5.279541016E-3,3.218078613E-2
1.776231503E1,9.733581543E-2,3.387451172E-3,3.125000000E-2
1.777241635E1,1.026611328E-1,1.693725586E-3,2.984619141E-2
1.778248715E1,1.085052490E-1,-9.155273438E-5,2.886962891E-2
1.779258847E1,1.175079346E-1,-2.395629883E-3,2.784729004E-2
1.780262875E1,1.291503906E-1,-5.615234375E-3,2.728271484E-2
1.781269955E1,1.410980225E-1,-9.826660156E-3,2.709960938E-2
1.782277035E1,1.513061523E-1,-1.445007324E-2,2.702331543E-2
1.783284115E1,1.587982178E-1,-1.931762695E-2,2.661132812E-2
1.784294247E1,1.637268066E-1,-2.320861816E-2,2.555847168E-2
1.785298276E1,1.646728516E-1,-2.569580078E-2,2.284240723E-2
1.786305356E1,1.617889404E-1,-2.764892578E-2,1.789855957E-2
1.787312436E1,1.525726318E-1,-2.775573730E-2,1.174926758E-2
1.788322568E1,1.403198242E-1,-2.716064453E-2,5.187988281E-3
1.789326596E1,1.280517578E-1,-2.618408203E-2,-2.319335938E-3
1.790333676E1,1.166839600E-1,-2.496337891E-2,-9.460449219E-3
1.791340756E1,1.023101807E-1,-2.288818359E-2,-1.797485352E-2
1.792344784E1,8.197021484E-2,-1.985168457E-2,-2.836608887E-2
1.793354916E1,6.260681152E-2,-1.669311523E-2,-3.648376465E-2
1.794365048E1,4.452514648E-2,-1.373291016E-2,-4.264831543E-2
1.795372128E1,3.059387207E-2,-1.075744629E-2,-4.721069336E-2
1.796379208E1,1.263427734E-2,-5.737304688E-3,-5.018615723E-2
1.797386288E1,-3.082275391E-3,9.613037109E-4,-5.158996582E-2
1.798390316E1,-5.265808105E-2,2.455139160E-2,-1.584625244E-1
1.799400448E1,-6.942749023E-2,3.439331055E-2,-1.277465820E-1
1.800404477E1,-2.653503418E-2,1.145935059E-2,-3.492736816E-2
1.801414608E1,-3.518676758E-2,1.130676270E-2,-3.738403320E-2
1.802424740E1,-4.516601562E-2,9.765625000E-3,-4.083251953E-2
1.803434872E1,-6.329345703E-2,9.643554688E-3,-4.570007324E-2
1.804463315E1,-8.853149414E-2,1.062011719E-2,-5.177307129E-2
1.805485653E1,-3.510284424E-1,3.848266602E-2,-1.732025146E-1
1.806507992E1,-3.552398682E-1,3.643798828E-2,-1.495361328E-1
1.807518124E1,-3.179473877E-1,2.803039551E-2,-1.232604980E-1
1.808540463E1,-2.483825684E-1,1.652526855E-2,-9.751892090E-2
1.809556698E1,-2.485809326E-1,1.382446289E-2,-7.772827148E-2
1.810569882E1,-7.092285156E-2,3.219604492E-3,-1.887512207E-2
1.811485409E1,-7.676696777E-2,2.807617188E-3,-1.780700684E-2
1.812492489E1,-7.797241211E-2,2.380371094E-3,-1.658630371E-2
1.813652157E1,-7.698059082E-2,1.022338867E-3,-1.535034180E-2
1.814506650E1,-7.617187500E-2,-1.373291016E-3,-1.417541504E-2
1.815513730E1,-7.223510742E-2,-3.295898438E-3,-1.074218750E-2
1.816517758E1,-6.150817871E-2,-4.562377930E-3,-1.480102539E-3
1.817524838E1,-4.255676270E-2,-5.966186523E-3,1.278686523E-2
1.818528866E1,-2.529907227E-2,-6.729125977E-3,2.619934082E-2
1.819535946E1,-1.379394531E-2,-6.484985352E-3,3.709411621E-2
1.820546078E1,-1.136779785E-2,-5.462646484E-3,4.357910156E-2
1.821553158E1,-1.441955566E-2,-4.089355469E-3,4.728698730E-2
1.822560238E1,-2.076721191E-2,-2.258300781E-3,5.065917969E-2
1.823564267E1,-3.102111816E-2,1.022338867E-3,5.334472656E-2
1.824571347E1,-3.340148926E-2,4.501342773E-3,5.648803711E-2
1.825581479E1,-3.248596191E-2,8.895874023E-3,5.995178223E-2
1.826591610E1,-3.471374512E-2,1.567077637E-2,6.239318848E-2
1.827595639E1,-4.084777832E-2,2.410888672E-2,6.358337402E-2
1.828605771E1,-4.811096191E-2,3.311157227E-2,6.309509277E-2
1.829609799E1,-4.981994629E-2,4.093933105E-2,6.214904785E-2
1.830619931E1,-5.496215820E-2,4.598999023E-2,5.964660645E-2
1.831627011E1,-6.626892090E-2,4.824829102E-2,5.645751953E-2
1.832631039E1,-8.058166504E-2,4.804992676E-2,5.343627930E-2
1.833641171E1,-7.289123535E-2,4.393005371E-2,5.249023438E-2
1.834648251E1,-7.421875000E-2,4.060363770E-2,5.059814453E-2
1.835652279E1,-7.501220703E-2,3.741455078E-2,4.907226562E-2
1.836662411E1,-2.309722900E-1,1.044616699E-1,1.421966553E-1
1.837669491E1,-2.137908936E-1,8.074951172E-2,1.054534912E-1
1.838673520E1,-1.688385010E-1,6.108093262E-2,8.059692383E-2
1.839686703E1,-1.375885010E-1,4.890441895E-2,6.315612793E-2
1.840709042E1,-1.221771240E-1,4.254150391E-2,5.291748047E-2
1.841728329E1,-2.687072754E-2,1.159667969E-2,1.658630371E-2
1.842750668E1,-2.178955078E-2,1.246643066E-2,2.182006836E-2
1.843769955E1,-1.818847656E-2,1.283264160E-2,2.865600586E-2
1.844792294E1,-7.485961914E-2,4.055786133E-2,1.065521240E-1
1.845811581E1,-3.639221191E-2,1.112365723E-2,3.366088867E-2
1.846821713E1,-5.342102051E-2,1.148986816E-2,3.927612305E-2
1.847834897E1,-6.596374512E-2,1.217651367E-2,4.489135742E-2
1.848747372E1,-7.650756836E-2,1.237487793E-2,4.907226562E-2
1.849751401E1,-8.460998535E-2,9.857177734E-3,5.055236816E-2
1.850758480E1,-9.001159668E-2,5.142211914E-3,5.104064941E-2
1.851768612E1,-9.080505371E-2,-4.425048828E-4,5.053710938E-2
1.852775693E1,-9.121704102E-2,-4.165649414E-3,4.864501953E-2
1.853968930E1,-2.786712646E-1,-1.455688477E-2,1.311950684E-1
1.854789853E1,-2.600097656E-1,-3.311157227E-3,8.638000488E-2
1.855796933E1,-2.590179443E-1,8.071899414E-3,5.307006836E-2
1.856804013E1,-2.675628662E-1,1.391601562E-2,3.036499023E-2
1.857811093E1,-8.978271484E-2,3.875732422E-3,5.065917969E-3
1.858818173E1,-1.038513184E-1,1.235961914E-3,2.792358398E-3
1.859822201E1,-3.258056641E-1,-1.132202148E-2,4.119873047E-3
1.860832333E1,-2.934265137E-1,-2.043151855E-2,-2.288818359E-3
1.861839413E1,-2.283782959E-1,-3.091430664E-2,5.447387695E-3
1.862846493E1,-2.042694092E-1,-3.575134277E-2,2.351379395E-2
1.863850522E1,-1.777038574E-1,-4.197692871E-2,4.888916016E-2
1.864854550E1,-1.198730469E-1,-5.305480957E-2,6.250000000E-2
1.865864682E1,-1.452636719E-1,-5.575561523E-2,4.492187500E-2
1.866871762E1,-1.640930176E-1,-5.860900879E-2,1.290893555E-2
1.867878842E1,-1.607208252E-1,-6.222534180E-2,-1.458740234E-2
1.868882870E1,-1.097106934E-1,-7.003784180E-2,-2.867126465E-2
1.869893002E1,-6.504821777E-2,-7.258605957E-2,-3.160095215E-2
1.870900082E1,-3.237915039E-2,-6.864929199E-2,-2.583312988E-2
1.871904110E1,-4.365539551E-2,-5.368041992E-2,-3.166198730E-2
1.872911190E1,-5.824279785E-2,-3.256225586E-2,-3.875732422E-2
1.873921322E1,-3.813171387E-2,-1.780700684E-2,-3.472900391E-2
1.874928402E1,-1.640319824E-2,-1.362609863E-2,-2.465820312E-2
1.875932431E1,-5.067443848E-2,6.072998047E-3,-1.268005371E-2
1.876942563E1,-4.139709473E-2,3.532409668E-2,3.936767578E-3
1.877961850E1,-8.174133301E-2,7.853698730E-2,9.567260742E-3
1.878981137E1,-4.100036621E-2,3.901672363E-2,1.556396484E-3
1.880003476E1,-3.796386719E-2,5.276489258E-2,1.499938965E-2
1.881025815E1,-1.657104492E-2,6.272888184E-2,4.144287109E-2
1.882045102E1,3.692626953E-3,7.141113281E-2,6.654357910E-2
1.883067440E1,4.425048828E-3,8.193969727E-2,7.859802246E-2
1.884071469E1,-1.867675781E-2,9.513854980E-2,7.820129395E-2
1.884999203E1,-4.275512695E-2,1.079559326E-1,7.363891602E-2
1.886006283E1,-6.764221191E-2,1.194000244E-1,6.739807129E-2
1.887016415E1,-7.244873047E-2,1.275177002E-1,6.259155273E-2
1.888023495E1,-7.493591309E-2,1.340179443E-1,5.870056152E-2
1.889030575E1,-8.924865723E-2,1.405792236E-1,5.488586426E-2
1.890034604E1,-8.395385742E-2,1.427001953E-1,5.403137207E-2
1.891041684E1,-8.230590820E-2,1.439666748E-1,5.294799805E-2
1.892048764E1,-8.224487305E-2,1.441497803E-1,5.140686035E-2
1.893058896E1,-9.184265137E-2,1.448211670E-1,4.818725586E-2
1.894059872E1,-9.153747559E-2,1.434478760E-1,4.536437988E-2
1.895073056E1,-1.035308838E-1,1.426696777E-1,4.029846191E-2
1.896080136E1,-1.138458252E-1,1.403808594E-1,3.491210938E-2
1.897084164E1,-1.118011475E-1,1.337738037E-1,3.091430664E-2
1.898094296E1,-1.141815186E-1,1.240844727E-1,2.549743652E-2
1.899101376E1,-9.837341309E-2,1.091003418E-1,2.058410645E-2
1.900108456E1,-1.972045898E-1,2.714385986E-1,4.585266113E-2
1.901115536E1,-1.942443848E-1,1.867828369E-1,-3.173828125E-3
1.902119565E1,-2.040405273E-1,1.405944824E-1,-4.905700684E-2
1.903129696E1,-1.858367920E-1,7.894897461E-2,-8.570861816E-2
1.904133725E1,-1.129760742E-1,-1.046752930E-2,-1.069488525E-1
1.905143856E1,-6.210327148E-3,-1.113281250E-1,-1.166687012E-1
1.906150937E1,8.175659180E-2,-1.853027344E-1,-1.249084473E-1
1.907158017E1,1.400756836E-1,-2.221374512E-1,-1.376495361E-1
1.908165097E1,7.720947266E-2,-2.237243652E-1,-1.667327881E-1
1.909172177E1,7.504272461E-2,-2.273254395E-1,-1.900787354E-1
1.910179257E1,4.724121094E-2,-2.226715088E-1,-2.141723633E-1
1.911186337E1,2.233886719E-2,-2.175292969E-1,-2.326202393E-1
1.912190365E1,3.215026855E-2,-2.130432129E-1,-2.397460938E-1
1.913197445E1,2.235412598E-2,-2.008972168E-1,-2.384796143E-1
1.914213681E1,1.531982422E-2,-1.848754883E-1,-2.256317139E-1
1.915232968E1,-2.423095703E-2,-1.601562500E-1,-2.070770264E-1
1.916255307E1,-2.958679199E-2,-1.346282959E-1,-1.801910400E-1
1.917274594E1,-5.885314941E-2,-1.025238037E-1,-1.532287598E-1
1.918293881E1,-4.806518555E-2,-7.315063477E-2,-1.222381592E-1
1.919304013E1,-5.538940430E-2,-4.486083984E-2,-9.190368652E-2
1.920323300E1,-4.263305664E-2,-2.725219727E-2,-6.143188477E-2
1.921333432E1,-2.119445801E-2,-1.715087891E-2,-3.697204590E-2
1.922252011E1,-1.576232910E-2,7.781982422E-3,-1.812744141E-2
1.923271298E1,-5.284118652E-2,5.641174316E-2,-1.367187500E-2
1.924278378E1,-1.384735107E-1,1.212921143E-1,-1.788330078E-2
1.925285458E1,-2.089080811E-1,1.878356934E-1,-1.068115234E-2
1.926289486E1,-7.727050781E-2,7.835388184E-2,4.760742188E-3
1.927293515E1,-2.419433594E-1,2.983551025E-1,5.628967285E-2
1.928303647E1,-1.480255127E-1,2.828063965E-1,9.608459473E-2
1.929310727E1,-3.713989258E-2,2.629547119E-1,1.344451904E-1
1.930317807E1,8.264160156E-2,2.405242920E-1,1.697235107E-1
1.931324887E1,6.877136230E-2,2.372741699E-1,1.871032715E-1
1.932331967E1,1.361999512E-1,2.284088135E-1,2.072601318E-1
1.933335995E1,1.154937744E-1,2.350006104E-1,2.120208740E-1
1.934382748E1,1.183319092E-1,2.384643555E-1,2.122497559E-1
1.935350155E1,1.199798584E-1,2.435607910E-1,2.069702148E-1
1.936357235E1,1.053466797E-1,2.493133545E-1,1.947326660E-1
1.937367367E1,2.754211426E-2,2.581939697E-1,1.711730957E-1
1.938374447E1,-2.099609375E-2,8.782958984E-2,4.760742188E-2
1.939381527E1,-3.617858887E-2,1.013946533E-1,5.009460449E-2
1.940391659E1,-4.666137695E-2,1.062622070E-1,5.178833008E-2
1.941398739E1,-3.451538086E-2,1.006469727E-1,5.494689941E-2
1.942405819E1,-6.083679199E-2,2.680511475E-1,1.705780029E-1
1.943409848E1,-5.172729492E-3,1.738128662E-1,1.327667236E-1
1.944416928E1,1.260375977E-2,1.111297607E-1,9.193420410E-2
1.945427060E1,1.383972168E-2,7.231140137E-2,5.404663086E-2
1.946434140E1,4.096984863E-2,2.117919922E-2,2.905273438E-2
1.947441220E1,6.892395020E-2,-4.855346680E-2,1.083374023E-2
1.948445248E1,1.662292480E-1,-1.500549316E-1,4.516601562E-3
1.949455380E1,3.000793457E-1,-2.598876953E-1,1.214599609E-2
1.950456356E1,3.581390381E-1,-3.363342285E-1,-2.314758301E-2
1.951463437E1,2.928009033E-1,-3.522186279E-1,-9.954833984E-2
1.952485776E1,1.549530029E-1,-3.331909180E-1,-1.842041016E-1
1.953505063E1,-5.969238281E-2,-2.913513184E-1,-2.672576904E-1
1.954527401E1,-2.640228271E-1,-2.436981201E-1,-3.294830322E-1
1.955546689E1,-3.056945801E-1,-2.110900879E-1,-3.432312012E-1
1.956569027E1,-2.811279297E-1,-1.837463379E-1,-3.163146973E-1
1.957591366E1,-2.474822998E-1,-1.556549072E-1,-2.635040283E-1
1.958610653E1,-1.519165039E-1,-1.324005127E-1,-1.918334961E-1
1.959611630E1,-1.119689941E-1,-1.003417969E-1,-1.288757324E-1
1.960533261E1,-8.341979980E-2,-7.124328613E-2,-8.157348633E-2
1.961537289E1,-3.320312500E-2,-4.983520508E-2,-4.859924316E-2
1.962544369E1,4.235839844E-2,-4.190063477E-2,-2.644348145E-2
1.963554501E1,1.636657715E-1,-4.539489746E-2,2.619934082E-2
1.964561581E1,2.425231934E-1,-4.801940918E-2,9.024047852E-2
1.965568661E1,2.843780518E-1,-3.787231445E-2,1.440124512E-1
1.966575741E1,2.641143799E-1,-7.003784180E-3,1.664886475E-1
1.967582821E1,2.227478027E-1,3.620910645E-2,1.669006348E-1
1.968586850E1,1.648254395E-1,8.293151855E-2,1.568298340E-1
1.969593930E1,1.273040771E-1,1.219635010E-1,1.426086426E-1
1.970604062E1,2.966308594E-2,5.317687988E-2,4.289245605E-2
1.971611142E1,2.073669434E-2,7.719421387E-2,4.795837402E-2
1.972618222E1,-9.185791016E-3,1.055755615E-1,5.119323730E-2
1.973625302E1,-3.514099121E-2,1.324157715E-1,5.551147461E-2
1.974684262E1,-4.920959473E-2,1.542205811E-1,6.172180176E-2
1.975639462E1,-6.138610840E-2,1.729431152E-1,6.813049316E-2
1.976640439E1,-2.373809814E-1,5.662384033E-1,2.186126709E-1
1.977650570E1,-2.180328369E-1,4.855346680E-1,1.899871826E-1
1.978654599E1,-1.716156006E-1,4.140777588E-1,1.751403809E-1
1.979661679E1,-7.293701172E-2,3.406982422E-1,1.730499268E-1
1.980671811E1,-5.111694336E-2,2.792053223E-1,1.607666016E-1
1.981678891E1,1.327514648E-3,2.129821777E-1,1.483917236E-1
1.982682919E1,3.861999512E-2,1.485900879E-1,1.259002686E-1
1.983689999E1,9.494018555E-2,8.753967285E-2,1.004486084E-1
1.984697079E1,1.313171387E-1,4.457092285E-2,7.221984863E-2
1.985707211E1,1.075897217E-1,2.888488770E-2,4.017639160E-2
1.986714291E1,1.067047119E-1,-1.129150391E-3,2.262878418E-2
1.987724423E1,9.042358398E-2,-3.564453125E-2,1.060485840E-2
1.988731503E1,5.981445312E-2,-6.599426270E-2,-3.146362305E-2
1.989747738E1,6.927490234E-3,-8.958435059E-2,-9.988403320E-2
1.990767026E1,-3.756713867E-2,-1.149444580E-1,-1.686553955E-1
1.991795468E1,-6.420898438E-2,-1.451110840E-1,-2.173919678E-1
1.992814755E1,-4.658508301E-2,-1.825408936E-1,-2.407989502E-1
1.993830990E1,-1.690673828E-2,-2.234649658E-1,-2.490386963E-1
1.994850277E1,-1.098632812E-2,-2.591094971E-1,-2.506256104E-1
1.995872616E1,5.628967285E-2,-3.003845215E-1,-2.374267578E-1
1.996876645E1,1.337432861E-1,-3.402709961E-1,-2.186889648E-1
1.997792172E1,1.696014404E-1,-3.653717041E-1,-2.026672363E-1
1.998802304E1,2.088317871E-1,-3.700714111E-1,-1.828765869E-1
