"Time (s)","Acceleration x (m/s^2)","Acceleration y (m/s^2)","Acceleration z (m/s^2)"
1.863708800E-2,1.065389037E0,4.854437351E0,8.150615692E0
2.110078600E-2,1.103716731E0,4.859228134E0,8.202717781E0
2.356453600E-2,1.157016158E0,4.806527615E0,8.203316689E0
2.602828600E-2,1.137852311E0,4.844855309E0,8.117078781E0
2.849198400E-2,1.152225137E0,4.883183002E0,8.073960304E0
3.095573400E-2,1.118688464E0,4.901748180E0,8.012276649E0
3.341948400E-2,1.119287372E0,4.959239483E0,7.887712002E0
3.588323400E-2,1.286970854E0,4.749036312E0,7.725418091E0
3.834693200E-2,1.420518756E0,4.686753750E0,7.567915440E0
4.081068200E-2,1.267807007E0,4.729872227E0,7.510424137E0
4.327443200E-2,1.234270334E0,4.786765099E0,7.529587746E0
4.573813000E-2,1.201332450E0,4.839465618E0,7.558333874E0
4.820188000E-2,1.167795777E0,4.873002052E0,7.591870308E0
5.066563000E-2,1.196541548E0,4.873002052E0,7.625407219E0
5.312932800E-2,1.201931357E0,4.887374878E0,7.702062607E0
5.559307800E-2,1.192349434E0,4.882584095E0,7.740389824E0
5.805682800E-2,1.187558532E0,4.796347141E0,7.702062607E0
6.052052600E-2,1.331287146E0,4.801137924E0,7.615825176E0
6.298427600E-2,1.431897283E0,4.743646622E0,7.582887173E0
6.544802600E-2,1.427106380E0,4.753228188E0,7.511023045E0
6.791177600E-2,1.427705169E0,4.700527668E0,7.568514347E0
7.037547400E-2,1.394168496E0,4.676572800E0,7.554141521E0
7.283922400E-2,1.346258998E0,4.638245106E0,7.534977913E0
7.530297400E-2,1.342066884E0,4.633454323E0,7.534977913E0
7.776667100E-2,1.366021633E0,4.556798935E0,7.554141521E0
8.023042100E-2,1.270202518E0,4.614290714E0,7.506830692E0
8.269417100E-2,1.198937058E0,4.690347195E0,7.482876301E0
8.515786900E-2,1.151027441E0,4.733465672E0,7.482876301E0
8.762161900E-2,1.108507752E0,4.757420540E0,7.506830692E0
9.008536900E-2,1.113298655E0,4.738256454E0,7.378073692E0
9.254911900E-2,1.084552884E0,4.762211323E0,7.392446995E0
9.501281700E-2,1.074970961E0,4.910131931E0,7.234345436E0
9.747656700E-2,9.845416546E-1,5.053860664E0,7.148706913E0
9.994031700E-2,1.032451272E0,4.991578579E0,7.081633568E0
1.024040150E-1,1.056406021E0,5.053261757E0,7.081633568E0
1.048677650E-1,1.042631984E0,5.101171494E0,7.110379219E0
1.073315150E-1,1.071377754E0,5.192199707E0,7.048695564E0
1.097952130E-1,1.085750699E0,5.158663273E0,7.058277607E0
1.122589630E-1,1.119287372E0,5.120335579E0,7.106186867E0
1.147227130E-1,1.162405968E0,5.129917145E0,7.067859650E0
1.171864630E-1,1.153422952E0,5.120335579E0,7.000785828E0
1.196501610E-1,1.148631930E0,5.139499187E0,6.924729824E0
1.221139110E-1,1.206123471E0,4.971815586E0,6.828910351E0
1.245776610E-1,1.254032969E0,4.880787373E0,6.824119568E0
1.270413590E-1,1.311524510E0,4.723284721E0,6.776808739E0
1.295051090E-1,1.335479259E0,4.651420593E0,6.724108219E0
1.319688590E-1,1.383987784E0,4.512482643E0,6.647452831E0
1.344325570E-1,1.460643053E0,4.450200081E0,6.566605568E0
1.368963070E-1,1.422315359E0,4.335816383E0,6.561814785E0
1.393600570E-1,1.441479206E0,4.302279472E0,6.518695831E0
1.418237550E-1,1.408541441E0,4.287906647E0,6.318074703E0
1.442875050E-1,1.446869016E0,4.187296391E0,6.255792141E0
1.467512550E-1,1.509151459E0,4.120223045E0,6.059961796E0
1.492150050E-1,1.475614786E0,4.077104568E0,5.859340668E0
1.516787030E-1,1.518733382E0,4.005239964E0,5.668301105E0
1.541424530E-1,1.576224923E0,3.756709337E0,5.520380497E0
1.566062030E-1,2.049930811E0,3.077590942E0,5.118538857E0
1.590699010E-1,2.380506754E0,2.542201519E0,5.076018810E0
1.615336510E-1,2.394879580E0,2.388890982E0,4.984991074E0
1.639974010E-1,2.361342907E0,2.393682003E0,4.760414600E0
1.664610990E-1,2.433207273E0,2.345772266E0,4.583748341E0
1.689248490E-1,2.485907793E0,2.317026615E0,4.516674995E0
1.713885990E-1,2.400269508E0,2.302653790E0,4.531047821E0
1.738523490E-1,2.204439163E0,2.317026615E0,4.474154949E0
1.763160460E-1,2.022981644E0,2.297862768E0,4.254369736E0
1.787797960E-1,1.745705009E0,2.464947462E0,4.067522526E0
1.812435460E-1,1.343863487E0,2.627840042E0,3.957929373E0
1.837072440E-1,1.085750699E0,2.718269348E0,3.876483202E0
1.861709940E-1,7.605644464E-1,2.895534754E0,3.905228853E0
1.886347440E-1,5.503612161E-1,3.081783056E0,4.116031170E0
1.910984420E-1,2.730845511E-1,3.282404423E0,4.235206127E0
1.935621920E-1,1.107908860E-1,3.402178288E0,4.369352818E0
1.960259420E-1,-1.856495813E-2,3.483025789E0,4.593928814E0
1.984896920E-1,-7.066661865E-2,3.564471960E0,4.780776501E0
2.009533900E-1,-1.664857566E-1,3.583635807E0,5.067635059E0
2.034171400E-1,-3.191975057E-1,3.693827868E0,5.368267536E0
2.058808900E-1,-6.012651324E-1,3.918404102E0,5.411386013E0
2.083445880E-1,-9.504061341E-1,3.994460583E0,5.535951138E0
2.108083380E-1,-1.495377421E0,4.200471401E0,5.622188091E0
2.132720880E-1,-1.997230291E0,4.357974529E0,5.665306568E0
2.157357860E-1,-2.557173252E0,4.529850006E0,5.617397308E0
2.181992240E-1,-2.934461117E0,4.453793526E0,5.574278355E0
2.206625570E-1,-3.125500679E0,4.391510963E0,5.546131611E0
2.231258900E-1,-3.397986412E0,4.377138138E0,5.574877262E0
2.255892240E-1,-3.474641562E0,4.132799149E0,5.574877262E0
2.280525570E-1,-3.675262928E0,4.023206234E0,5.512595177E0
2.305158900E-1,-3.938166618E0,3.975296736E0,5.383838177E0
2.329792240E-1,-3.981285334E0,3.807613134E0,5.288018703E0
2.354425050E-1,-3.952539682E0,3.611782789E0,5.207171440E0
2.379058380E-1,-3.870494366E0,3.477635860E0,5.111352444E0
2.403691710E-1,-3.722573757E0,3.286596537E0,5.053860664E0
2.428325050E-1,-3.526144505E0,3.027884960E0,4.896358013E0
2.452958380E-1,-3.215331078E0,2.788935900E0,4.920312881E0
2.477591710E-1,-2.793726921E0,2.540405035E0,4.867612362E0
2.502225050E-1,-2.458958626E0,2.348766804E0,4.915522099E0
2.526857860E-1,-2.157727242E0,2.210427761E0,4.920312881E0
2.551491190E-1,-1.946925163E0,2.081072092E0,4.743646622E0
2.576124530E-1,-1.903806567E0,2.143354416E0,4.356776714E0
2.600757860E-1,-1.774450779E0,2.128981590E0,4.180109978E0
2.625391190E-1,-1.473219275E0,1.975670934E0,4.108245850E0
2.650024530E-1,-1.061197042E0,1.731930971E0,3.898042440E0
2.674657860E-1,-5.922820568E-1,1.554665565E0,3.663884401E0
2.699290670E-1,-2.239772379E-1,1.382789969E0,3.377025843E0
2.723924010E-1,4.371748492E-2,1.200733662E0,3.014110804E0
2.748557340E-1,1.539094895E-1,9.474117756E-1,2.621851206E0
2.773190670E-1,6.348018348E-2,8.138638139E-1,2.325410843E0
2.797824010E-1,-2.137964666E-1,7.132537365E-1,2.201444864E0
2.822457340E-1,-6.491746902E-1,6.845079660E-1,2.177489996E0
2.847090670E-1,-1.155818343E0,6.749261022E-1,2.206235647E0
2.871723490E-1,-1.610360503E0,6.222255230E-1,2.421828747E0
2.896356820E-1,-2.054721832E0,6.605532169E-1,2.584122419E0
2.920990150E-1,-2.413444519E0,6.887000799E-1,2.885353804E0
2.945623490E-1,-2.862596750E0,8.180559278E-1,3.248867750E0
2.970256820E-1,-3.144664526E0,9.516038299E-1,3.526144505E0
2.994890150E-1,-3.005726814E0,8.228468895E-1,3.965714693E0
3.019523490E-1,-2.508065939E0,6.264176369E-1,4.247782230E0
3.044156300E-1,-2.025377035E0,4.210053682E-1,4.453793526E0
3.068789630E-1,-1.570835114E0,1.437287182E-1,4.496313095E0
3.093422960E-1,-1.269004703E0,-2.874574251E-2,4.515477180E0
3.118056300E-1,-1.015682936E0,-1.101920158E-1,4.530448914E0
3.142689630E-1,-7.905079126E-1,-1.718755811E-1,4.487329960E0
3.167322960E-1,-6.755249500E-1,-1.149829701E-1,4.516076088E0
3.191956300E-1,-5.940786600E-1,-3.353669867E-2,4.535239697E0
3.216589110E-1,-5.653329492E-1,1.335479319E-1,4.382527828E0
3.241222440E-1,-5.647340417E-1,2.006213218E-1,4.143579006E0
3.265855780E-1,-6.318074465E-1,2.964404821E-1,3.951940775E0
3.290489110E-1,-7.084627748E-1,3.485421240E-1,3.636935234E0
3.315122440E-1,-7.174458504E-1,2.437399477E-1,3.235093832E0
3.339755780E-1,-7.222367525E-1,1.287569702E-1,2.742822886E0
3.364389110E-1,-6.359995604E-1,-4.371748492E-2,2.317625523E0
3.389022440E-1,-5.497623086E-1,-1.724744588E-1,1.949919581E0
3.413655260E-1,-4.347793460E-1,-3.018302917E-1,1.739716291E0
3.438288590E-1,-5.731182694E-1,-4.120223224E-1,1.581614733E0
3.462921920E-1,-8.503949046E-1,-5.934798121E-1,1.380993366E0
3.487555260E-1,-1.022869349E0,-7.611632943E-1,1.146835327E0
3.512188590E-1,-1.180372000E0,-7.467904091E-1,9.030954242E-1
3.536821920E-1,-9.599879980E-1,-7.228356600E-1,1.080360770E0
3.561455260E-1,-5.054459572E-1,-1.000112295E0,1.343264580E0
3.586088070E-1,4.970617965E-2,-1.325298548E0,1.658868909E0
3.610721400E-1,7.431972027E-1,-1.775049567E0,2.036156654E0
3.635354740E-1,1.412733436E0,-2.267320395E0,2.662574291E0
3.659988070E-1,2.078077555E0,-2.592506647E0,3.456076622E0
3.684621400E-1,2.647003889E0,-2.836246490E0,4.172923565E0
3.709254740E-1,3.139873505E0,-3.018302917E0,4.722685814E0
3.733888070E-1,3.584833622E0,-3.104540110E0,5.344312668E0
3.758520880E-1,3.762099028E0,-3.238088131E0,6.123442173E0
3.783154210E-1,3.786053896E0,-3.333907366E0,6.869633675E0
3.807787550E-1,3.686042547E0,-3.314743519E0,7.557734966E0
3.832420880E-1,3.418347836E0,-3.338698149E0,8.179361343E0
3.857054210E-1,3.112325430E0,-3.353070974E0,8.604558945E0
3.881687550E-1,2.973986626E0,-3.377025843E0,8.853090286E0
3.906320880E-1,3.007523298E0,-3.496799707E0,9.144739151E0
3.930953690E-1,3.313545704E0,-3.668675423E0,9.422016144E0
3.955587030E-1,3.681850433E0,-3.831568003E0,9.780738831E0
3.980220360E-1,4.060336113E0,-3.893850327E0,1.010592556E1
4.004853690E-1,4.543025017E0,-3.917805195E0,1.024007225E1
4.029487030E-1,4.916719913E0,-3.989669561E0,1.010113430E1
4.054120360E-1,5.256278992E0,-4.008833408E0,9.943631172E0
4.078753690E-1,5.586256027E0,-3.898641348E0,9.847812653E0
4.103386510E-1,5.878504276E0,-3.822584867E0,9.542388916E0
4.128019840E-1,6.050978661E0,-3.827375889E0,9.212411880E0
4.152653170E-1,6.041397095E0,-3.640528440E0,8.633903503E0
4.177286510E-1,5.773702145E0,-3.411161423E0,7.702062607E0
4.201919840E-1,5.338324070E0,-3.244076729E0,6.813339710E0
4.226553170E-1,4.956244946E0,-3.234494925E0,6.139012814E0
4.251186510E-1,4.592730999E0,-3.315941095E0,5.575476170E0
4.275819320E-1,4.353782177E0,-3.383014679E0,4.968222618E0
4.300452650E-1,4.344200134E0,-3.373432636E0,4.328031063E0
4.325085990E-1,4.473556042E0,-3.530935287E0,3.568065405E0
4.349719320E-1,4.526256561E0,-3.727364540E0,2.654789209E0
4.374352650E-1,4.698730946E0,-3.736946583E0,1.785230398E0
4.398985990E-1,4.890369415E0,-3.799228907E0,1.154021740E0
4.423619320E-1,5.191600800E0,-3.942358732E0,8.150615692E-1
4.448252130E-1,5.483849049E0,-4.062132835E0,3.988471627E-1
4.472885460E-1,5.842572212E0,-4.416064739E0,1.886439323E-1
4.497518800E-1,6.263577461E0,-5.047273159E0,2.892540395E-1
4.522152130E-1,6.646255016E0,-5.726391315E0,5.809035301E-1
4.546785460E-1,7.043305874E0,-6.476775169E0,8.533892035E-1
4.571418800E-1,7.536175728E0,-7.237339497E0,1.436688304E0
4.596052130E-1,8.206310272E0,-7.926039696E0,2.526630878E0
4.620684940E-1,8.751281738E0,-8.188943863E0,3.950742960E0
4.645318280E-1,9.359134674E0,-8.164988518E0,5.447318077E0
4.669951610E-1,9.885540962E0,-7.978740215E0,7.172661781E0
4.694584940E-1,1.070838833E1,-7.653553963E0,9.424411774E0
4.719218280E-1,1.155039883E1,-7.376277447E0,1.170909882E1
4.743851610E-1,1.226305389E1,-7.175655842E0,1.425728989E1
4.768484940E-1,1.276550484E1,-7.051091194E0,1.662821388E1
4.793117760E-1,1.289006996E1,-7.051091194E0,1.854938889E1
4.817751090E-1,1.271280479E1,-7.084627628E0,2.009806442E1
4.842384420E-1,1.238342667E1,-7.146910191E0,2.114548874E1
4.867017760E-1,1.190013885E1,-7.180447102E0,2.157068634E1
4.891651090E-1,1.134079456E1,-7.276266098E0,2.161859512E1
4.916284420E-1,1.070958614E1,-7.405023098E0,2.145630074E1
4.940917760E-1,1.013586903E1,-7.472096443E0,2.118860626E1
4.965551090E-1,9.514242172E0,-7.381667137E0,2.052865219E1
4.990183900E-1,8.897406578E0,-7.324175835E0,2.030886650E1
5.014817240E-1,8.371598244E0,-6.798367977E0,1.932432556E1
5.039450570E-1,7.897892952E0,-6.286933422E0,1.772833824E1
5.064083900E-1,7.558333874E0,-6.692966938E0,1.707796478E1
5.088717240E-1,7.300220966E0,-6.975034714E0,1.670546913E1
5.113350570E-1,7.099599361E0,-7.142718315E0,1.598862171E1
5.137983900E-1,6.865441322E0,-7.352921486E0,1.544844151E1
5.162616710E-1,6.731893539E0,-7.453531265E0,1.483639622E1
5.187250050E-1,6.483362675E0,-7.611633301E0,1.388539124E1
5.211883380E-1,6.320470333E0,-7.539768696E0,1.270501900E1
5.236516710E-1,6.321069241E0,-7.319983482E0,1.120365334E1
5.261150050E-1,6.540853977E0,-7.310401440E0,9.932252884E0
5.285783380E-1,7.196616650E0,-7.119362354E0,8.613541603E0
5.310416710E-1,8.296739578E0,-6.808548927E0,6.615114212E0
5.335049530E-1,9.377699852E0,-7.186435699E0,5.582662582E0
5.359682860E-1,1.073653507E1,-7.573305607E0,4.440618515E0
5.384316190E-1,1.188456821E1,-8.792604446E0,5.320357800E0
5.408949530E-1,1.253494072E1,-9.012988091E0,5.588052750E0
5.433582860E-1,1.323382092E1,-9.223191261E0,5.291612148E0
5.458216190E-1,1.371710873E1,-9.486095428E0,4.589138031E0
5.482849530E-1,1.369794559E1,-9.495676994E0,4.923906326E0
5.507482340E-1,1.361170769E1,-8.917168617E0,4.464572906E0
5.532115670E-1,1.350211525E1,-8.224276543E0,3.843545437E0
5.556749010E-1,1.347815990E1,-7.779316425E0,3.245873451E0
5.581382340E-1,1.361709785E1,-7.296627522E0,2.615263700E0
5.606015670E-1,1.379915428E1,-7.024141788E0,2.204439163E0
5.630649010E-1,1.395725536E1,-6.990605354E0,2.390687704E0
5.655282340E-1,1.401474762E1,-7.196616650E0,3.060223818E0
5.679915150E-1,1.411056614E1,-7.387655735E0,3.781861782E0
5.704548490E-1,1.415847588E1,-7.473893166E0,4.369951725E0
5.729181820E-1,1.420159435E1,-7.072051525E0,5.235318184E0
5.753815150E-1,1.431178665E1,-6.570198536E0,5.832391262E0
5.778448490E-1,1.447467899E1,-6.551034927E0,6.540255070E0
5.803081820E-1,1.449863434E1,-6.288131237E0,6.860650539E0
5.827715150E-1,1.458966160E1,-6.149792194E0,6.970243454E0
5.852347960E-1,1.621140099E1,-3.672867537E0,5.895272732E0
5.876981300E-1,1.685219193E1,-2.535015106E0,4.069319248E0
5.901614630E-1,1.528375244E1,-6.484560490E0,6.478571892E0
5.926247960E-1,1.464296150E1,-8.224875450E0,6.578582764E0
5.950881300E-1,1.439922142E1,-7.569712162E0,6.172549248E0
5.975514630E-1,1.384945965E1,-7.790096283E0,6.167758465E0
6.000147960E-1,1.411236286E1,-6.226447582E0,4.786166191E0
6.024780780E-1,1.568619251E1,-2.377512455E0,4.749036133E-1
6.049414110E-1,1.617906189E1,-4.168132544E-1,1.736721992E-1
6.074047440E-1,1.730314064E1,1.543287039E0,-8.252423406E-1
6.098680780E-1,1.939858437E1,3.527342081E0,-1.518134475E0
6.123314110E-1,2.098618889E1,4.478946209E0,-2.206235647E0
6.147947440E-1,2.171381569E1,4.761013508E0,-1.125874877E0
6.172580780E-1,2.195276451E1,3.699217796E0,1.158812761E0
6.197213590E-1,2.223542976E1,8.444061875E-2,5.293408871E0
6.221846920E-1,2.295287704E1,-3.687839270E0,1.012628651E1
6.246480260E-1,2.329243469E1,-8.397949219E0,8.505745888E0
6.271113590E-1,2.265643692E1,-1.207979965E1,1.008316803E1
6.295746920E-1,2.286723900E1,-1.416925526E1,1.010233212E1
6.320380260E-1,2.269536209E1,-1.422674751E1,8.535090446E0
6.345013590E-1,2.100235748E1,-1.232353973E1,7.569113255E0
6.369646400E-1,1.682224846E1,-9.296852112E0,7.425983429E0
6.394279740E-1,1.290025043E1,-6.791780472E0,7.736796856E0
6.418913070E-1,1.105393600E1,-5.452708244E0,8.081147194E0
6.443546400E-1,1.051375580E1,-4.888572693E0,8.950705528E0
6.468179740E-1,1.056166458E1,-4.821499348E0,9.271100998E0
6.492813070E-1,1.145637608E1,-5.352696896E0,8.563836098E0
6.517446400E-1,1.187738132E1,-5.538945198E0,8.262604713E0
6.542079210E-1,1.207860184E1,-5.443126202E0,7.560130119E0
6.566712550E-1,1.246127892E1,-5.266459465E0,6.886402130E0
6.591345880E-1,1.264812660E1,-5.017928600E0,6.398921967E0
6.615979210E-1,1.306913185E1,-4.912527561E0,5.547928333E0
6.640612550E-1,1.346618271E1,-4.631058693E0,5.806041241E0
6.665245880E-1,1.341348171E1,-4.740652084E0,5.949769974E0
6.689879210E-1,1.327035236E1,-4.908335686E0,6.709735394E0
6.714512550E-1,1.303140354E1,-4.980199814E0,7.579893112E0
6.739145360E-1,1.255290604E1,-5.228730679E0,7.594265938E0
6.763778690E-1,1.174503136E1,-5.850357533E0,7.680502892E0
6.788412030E-1,1.062095261E1,-6.448029518E0,8.239847183E0
6.813045360E-1,1.006639957E1,-6.400119781E0,8.832728386E0
6.837678690E-1,9.650784492E0,-6.228244305E0,8.985440254E0
6.862312030E-1,8.986039162E0,-6.113261223E0,9.516038895E0
6.886945360E-1,8.388366699E0,-5.960549355E0,9.563947678E0
6.911578170E-1,8.350039482E0,-5.879103184E0,9.459145546E0
6.936211510E-1,8.699180603E0,-5.735973358E0,9.693304062E0
6.960844840E-1,8.957892418E0,-5.620990276E0,9.917880058E0
6.985478170E-1,9.159111977E0,-5.597035408E0,9.869970322E0
7.010111510E-1,9.259722710E0,-5.597634315E0,9.411236763E0
7.034744840E-1,9.522625923E0,-5.444324017E0,9.210615158E0
7.059378170E-1,9.536998749E0,-5.401205063E0,8.885428429E0
7.084010990E-1,9.211812973E0,-5.583261490E0,8.771044731E0
7.108644320E-1,9.284276009E0,-5.477860451E0,8.020661354E0
7.133277650E-1,9.489687920E0,-5.453905582E0,7.906276703E0
7.157910990E-1,9.183666229E0,-5.645544052E0,7.375678539E0
7.182544840E-1,8.839914322E0,-5.750945091E0,7.203204155E0
7.207179210E-1,8.705767632E0,-5.746154308E0,7.514017105E0
7.231813590E-1,8.577011108E0,-5.707826614E0,8.058988571E0
7.256447960E-1,8.668039322E0,-5.535951138E0,8.446456909E0
7.281081820E-1,8.921360970E0,-5.478459358E0,8.718942642E0
7.305716190E-1,9.074671745E0,-5.593442440E0,9.024965286E0
7.330350570E-1,9.070479393E0,-5.818018436E0,8.924954414E0
7.354984940E-1,8.931541443E0,-6.033012867E0,9.106411934E0
7.379619320E-1,8.841112137E0,-6.004266739E0,9.450761795E0
7.404253690E-1,8.980050087E0,-6.004865646E0,9.943032265E0
7.428888070E-1,9.242954254E0,-5.947374344E0,1.047842216E1
7.453522440E-1,9.649586678E0,-5.588651657E0,1.133899784E1
7.478156820E-1,9.697496414E0,-5.359284401E0,1.205105400E1
7.502791190E-1,9.583111763E0,-5.168244839E0,1.235228539E1
7.527425570E-1,9.640603065E0,-5.029307365E0,1.215166378E1
7.552059940E-1,1.019575596E1,-4.508290768E0,1.191750622E1
7.576694320E-1,1.071737099E1,-4.235805035E0,1.130605984E1
7.601328690E-1,1.077007198E1,-4.618482590E0,1.037841034E1
7.625962550E-1,1.077486229E1,-4.972414494E0,9.575326920E0
7.650596920E-1,1.059340477E1,-5.039487839E0,9.284276009E0
7.675231300E-1,1.043051243E1,-4.757420540E0,9.289067268E0
7.699865670E-1,9.914286613E0,-4.336414814E0,9.078864098E0
7.724500050E-1,9.665756226E0,-4.198076248E0,8.901597977E0
7.749134420E-1,9.541790009E0,-4.121420860E0,8.371598244E0
7.773768800E-1,9.565744400E0,-4.006437778E0,7.472695351E0
7.798403170E-1,9.413032532E0,-3.911217690E0,6.297114372E0
7.823037550E-1,9.164502144E0,-3.762697935E0,5.522775650E0
7.847671920E-1,8.987236977E0,-3.552494764E0,5.020923138E0
7.872306300E-1,8.892016411E0,-3.504585028E0,4.772392273E0
7.896940670E-1,8.829733849E0,-3.609986067E0,4.471160889E0
7.921575050E-1,8.710558891E0,-3.772878647E0,4.504697323E0
7.946209420E-1,8.414118767E0,-3.944754362E0,5.365272999E0
7.970843280E-1,8.036231995E0,-4.069319248E0,6.579181671E0
7.995477650E-1,7.735000134E0,-4.011827469E0,7.473294258E0
8.020112030E-1,7.749971867E0,-4.074110031E0,8.018265724E0
8.044746400E-1,7.793090343E0,-4.011827469E0,8.840513229E0
8.069380780E-1,7.946401119E0,-3.954935074E0,9.299247742E0
8.094015150E-1,8.529700279E0,-4.179511070E0,9.877756119E0
8.118649530E-1,8.998615265E0,-4.447206020E0,1.075749493E1
8.143283900E-1,9.051315308E0,-4.605307579E0,1.102519035E1
8.167918280E-1,9.262117386E0,-4.719691753E0,1.105393600E1
8.192552650E-1,9.601676941E0,-4.547815800E0,1.113059139E1
8.217187030E-1,1.002747345E1,-4.132200718E0,1.101620674E1
8.241821400E-1,1.037721348E1,-4.174720287E0,1.104914474E1
8.266455780E-1,1.047303200E1,-4.246584415E0,1.162286186E1
8.291089630E-1,1.034846687E1,-3.921398401E0,1.176179981E1
8.315724010E-1,1.001369953E1,-3.625556707E0,1.202949429E1
8.340358380E-1,9.516637802E0,-3.118314266E0,1.203907585E1
8.364992760E-1,9.201032639E0,-2.927274704E0,1.105932522E1
8.389627130E-1,9.531609535E0,-3.151850939E0,1.028019619E1
8.414261510E-1,9.832840919E0,-3.104540110E0,9.754388809E0
8.438895880E-1,9.976569176E0,-2.999139071E0,8.846502304E0
8.463530260E-1,1.024905491E1,-2.927274704E0,7.397836685E0
8.488164630E-1,1.109106541E1,-2.932065725E0,5.208968163E0
8.512799010E-1,1.234929085E1,-2.688325882E0,8.402140737E-1
8.537433380E-1,1.268405914E1,-2.267919302E0,-4.126211643E0
8.562067760E-1,1.178515530E1,-1.818168163E0,-7.252311230E0
8.586702130E-1,1.100123501E1,-1.536100626E0,-8.222479820E0
8.611336510E-1,1.062334824E1,-1.498371840E0,-8.327880859E0
8.635970360E-1,1.008795929E1,-1.550473452E0,-8.026649475E0
8.660604740E-1,1.000651264E1,-1.575027108E0,-6.778605461E0
8.685239110E-1,9.610060692E0,-1.369015932E0,-4.537036419E0
8.709873490E-1,8.811168671E0,-1.312123418E0,-1.845716238E0
8.734507860E-1,8.304525375E0,-1.187558532E0,6.922932863E-1
8.759142240E-1,7.854773998E0,-1.120485067E0,2.509263754E0
8.783776610E-1,7.099599361E0,-1.177976608E0,3.885466099E0
8.808410990E-1,6.420481205E0,-1.345660090E0,4.746041775E0
8.833045360E-1,6.238424778E0,-1.589400053E0,5.109555721E0
8.857679740E-1,6.224650860E0,-2.182281017E0,5.032900333E0
8.882314110E-1,5.894673824E0,-2.545794725E0,5.281431198E0
8.906948490E-1,5.808436394E0,-2.784743786E0,6.003668308E0
8.931582860E-1,5.636560917E0,-2.760788918E0,7.820039749E0
8.956216710E-1,5.737171173E0,-2.914099693E0,9.378298759E0
8.980851090E-1,5.957555294E0,-3.029082537E0,1.054968739E1
9.005485460E-1,6.101284027E0,-2.957218170E0,1.115215015E1
9.030119840E-1,6.192312241E0,-3.000336885E0,1.094134808E1
9.054754210E-1,6.507916451E0,-3.096156120E0,9.961597443E0
9.079388590E-1,6.885803223E0,-3.100946903E0,8.675824165E0
9.104022960E-1,6.986413002E0,-2.909907579E0,7.179848194E0
9.128657340E-1,7.709249020E0,-2.742223978E0,6.104278088E0
9.153291710E-1,8.278175354E0,-2.718269348E0,5.182018757E0
9.177926090E-1,8.527304649E0,-2.756597042E0,4.522663593E0
9.202560460E-1,8.618332863E0,-2.627840042E0,4.231013775E0
9.227194840E-1,8.718942642E0,-2.498484135E0,4.173522472E0
9.251829210E-1,8.824343681E0,-2.364936113E0,3.901036739E0
9.276463590E-1,8.987236977E0,-2.364936113E0,3.939364433E0
9.301097440E-1,8.604558945E0,-1.939139843E0,3.198562622E0
9.325731820E-1,8.537485123E0,-1.791219115E0,2.290676355E0
9.350366190E-1,8.504548073E0,-1.685818076E0,1.731332064E0
9.375000570E-1,8.528502464E0,-1.772055268E0,1.578620315E0
9.399634940E-1,8.318299294E0,-1.743309498E0,1.612157106E0
9.424269320E-1,8.055395126E0,-1.633716345E0,1.095931411E0
9.448903690E-1,8.060186386E0,-1.896620154E0,8.713552952E-1
9.473538070E-1,8.021859169E0,-1.973275423E0,1.043230891E0
9.498172440E-1,7.921847343E0,-2.183478594E0,1.206123471E0
9.522806820E-1,7.740389824E0,-2.327207327E0,1.779840589E0
9.547441190E-1,7.396039963E0,-2.269716024E0,1.918179393E0
9.572075570E-1,7.319384575E0,-2.384698868E0,2.171501398E0
9.596709940E-1,7.109181404E0,-2.413444519E0,2.367930651E0
9.621343800E-1,6.727102757E0,-2.255941868E0,2.478122473E0
9.645978170E-1,6.191114426E0,-2.040348768E0,2.406258106E0
9.670612550E-1,6.387543678E0,-2.040348768E0,2.401467323E0
9.695246920E-1,6.693565845E0,-1.911591887E0,2.339184761E0
9.719881300E-1,6.416289330E0,-1.414530039E0,2.210427761E0
9.744515670E-1,5.651532650E0,-7.737395763E-1,2.043343306E0
9.769150050E-1,5.704233170E0,-1.118089557E0,1.976269841E0
9.793784420E-1,6.392933369E0,-1.710970521E0,2.478122473E0
9.818418800E-1,6.618108273E0,-2.088857174E0,3.037466764E0
9.843053170E-1,6.790582657E0,-2.303851604E0,2.573941708E0
9.867687550E-1,6.915147781E0,-2.538009405E0,2.296664953E0
9.892321920E-1,6.441442013E0,-2.533817530E0,2.549986839E0
9.916956300E-1,6.633080006E0,-2.652992487E0,3.104540110E0
9.941590670E-1,6.456413746E0,-2.466743946E0,2.875173092E0
9.966224530E-1,6.475577354E0,-2.452371120E0,2.387693167E0
9.990858900E-1,6.614515305E0,-2.615263700E0,2.158326149E0
1.001549328E0,6.083916664E0,-2.399670601E0,1.723546863E0
1.004012765E0,6.428266525E0,-2.433207273E0,1.508552670E0
1.006476203E0,6.098289490E0,-2.141557932E0,1.484597802E0
1.008939640E0,5.232923031E0,-1.381592274E0,8.108695149E-1
1.011403078E0,4.443612576E0,-1.248044372E0,5.144290328E-1
1.013866515E0,3.654901505E0,-8.605756760E-1,-8.743496984E-2
1.016329953E0,3.591421127E0,-1.012688518E0,-8.120672107E-1
1.018793390E0,4.729872227E0,-2.030766964E0,-6.449825764E-1
1.021256828E0,5.858741760E0,-2.661975622E0,6.126436591E-1
1.023720265E0,5.442527294E0,-1.997230291E0,1.831343293E0
1.026183703E0,4.749036312E0,-1.854100347E0,1.611558199E0
1.028647088E0,4.930493832E0,-1.806190848E0,1.486993313E0
1.031110526E0,5.327544212E0,-1.763072252E0,1.372609258E0
1.033573963E0,5.404199600E0,-1.964292407E0,1.028259158E0
1.036037401E0,5.399408817E0,-2.494890928E0,1.204925656E0
1.038500838E0,5.782086372E0,-3.274020195E0,1.783433795E0
1.040964276E0,6.552232742E0,-3.919601679E0,2.405060530E0
1.043427713E0,7.130740643E0,-4.096867085E0,2.926077127E0
1.045891151E0,7.293633461E0,-4.235206127E0,3.045252085E0
1.048354588E0,7.709249020E0,-4.507691860E0,2.533817530E0
1.050818026E0,7.948796749E0,-4.699329853E0,2.185275316E0
1.053281463E0,8.168581963E0,-4.789759159E0,1.955908179E0
1.055744901E0,8.235654831E0,-4.775386333E0,1.778642774E0
1.058208338E0,8.015870094E0,-4.770595551E0,1.749897122E0
1.060671776E0,7.843395710E0,-5.023917198E0,1.649885893E0
1.063135161E0,7.609237671E0,-5.282629013E0,1.898416758E0
1.065598599E0,7.121159077E0,-5.277838230E0,1.893625736E0
1.068062036E0,6.613916397E0,-5.196392059E0,1.769060850E0
1.070525474E0,6.274357319E0,-5.062244892E0,1.621140122E0
1.072988911E0,6.025826454E0,-5.033499241E0,1.491784215E0
1.075452349E0,5.686267376E0,-5.095781803E0,1.396564007E0
1.077915786E0,5.528165817E0,-5.191600800E0,1.434891701E0
1.080379224E0,5.614402771E0,-5.220346451E0,1.558857679E0
1.082842661E0,5.667103291E0,-5.292211056E0,1.506157160E0
1.085306099E0,5.590447903E0,-5.425758839E0,1.711569428E0
1.087769536E0,5.762922287E0,-5.397013187E0,1.812179565E0
1.090232974E0,5.915634155E0,-5.392222404E0,1.693004489E0
1.092696411E0,6.250402451E0,-5.420968056E0,1.430100679E0
1.095159796E0,6.547441959E0,-4.885578632E0,1.243253350E0
1.097623234E0,6.159973145E0,-4.732267857E0,1.697795391E0
1.100086671E0,6.642662048E0,-5.148482323E0,1.826552391E0
1.102550109E0,6.877418995E0,-5.425758839E0,1.831343293E0
1.105013546E0,6.164763927E0,-5.526369095E0,1.831343293E0
1.107476984E0,6.155181885E0,-5.679080963E0,1.970281124E0
1.109940421E0,6.222255707E0,-5.569487572E0,2.491297722E0
1.112403859E0,5.260470867E0,-4.550810337E0,2.022382736E0
1.114867296E0,5.236515999E0,-4.717895031E0,1.190552831E0
1.117330734E0,6.307893753E0,-4.852041721E0,1.773851871E0
1.119794171E0,6.198300838E0,-5.301793098E0,2.352360010E0
1.122257609E0,6.064154148E0,-5.741363049E0,1.893625736E0
1.124721046E0,6.236628532E0,-6.052176476E0,1.530111909E0
1.127184484E0,6.102481365E0,-6.104876995E0,1.654676795E0
1.129647869E0,5.982707500E0,-5.956357479E0,1.793015718E0
1.132111307E0,6.136018276E0,-5.626380444E0,1.998427987E0
1.134574744E0,5.949171066E0,-5.387431145E0,2.299659491E0
1.137038182E0,5.628775597E0,-5.717408180E0,2.615263700E0
1.139501619E0,5.829996109E0,-5.803645611E0,3.471048355E0
1.141965057E0,6.637871265E0,-5.798854828E0,3.456675529E0
1.144428494E0,7.379271507E0,-5.516787052E0,3.447093725E0
1.146891932E0,7.609237671E0,-5.473668575E0,3.633342028E0
1.149355369E0,8.139836311E0,-6.128831863E0,4.111239910E0
1.151818807E0,8.699779510E0,-6.534865379E0,4.101658344E0
1.154282244E0,9.531609535E0,-6.917542934E0,3.738743067E0
1.156745682E0,1.025384617E1,-7.305011749E0,3.198562622E0
1.159209119E0,1.054609394E1,-7.276266098E0,2.170902491E0
1.161672505E0,1.078983402E1,-7.505633354E0,1.740315199E0
1.164135942E0,1.085211658E1,-7.931429386E0,1.444473505E0
1.166599380E0,1.024905491E1,-8.141633034E0,1.104914427E0
1.169062817E0,8.900400162E0,-7.639780045E0,2.778755128E-1
1.171526255E0,7.494254589E0,-7.133136272E0,-6.258187890E-1
1.173989692E0,6.590560436E0,-6.888797283E0,-1.266010404E0
1.176453130E0,5.796459198E0,-6.506718636E0,-1.686416864E0
1.178916567E0,5.538346291E0,-6.343825817E0,-1.361829519E0
1.181380005E0,5.184414387E0,-6.516300678E0,-9.983156919E-1
1.183843442E0,5.241307259E0,-6.760040283E0,-1.514541268E0
1.186306880E0,5.146086693E0,-6.869633675E0,-1.676834941E0
1.188770317E0,4.744245052E0,-6.840888023E0,-1.027061462E0
1.191233755E0,4.566979885E0,-7.075644970E0,-9.839428067E-1
1.193697192E0,4.380731583E0,-7.266684055E0,-5.395815372E-1
1.196160578E0,4.504697323E0,-7.462514400E0,-3.197963834E-1
1.198624015E0,4.590934753E0,-7.295429707E0,-2.814687230E-2
1.201087453E0,4.590934753E0,-6.927124977E0,1.772654057E-1
1.203550890E0,4.662798882E0,-6.521091461E0,6.982820034E-1
1.206014328E0,4.395104408E0,-6.339035034E0,7.701463699E-1
1.208477765E0,4.318449020E0,-6.482763767E0,1.148033142E0
1.210941203E0,4.098663807E0,-6.592357159E0,1.510948062E0
1.213404640E0,4.222630024E0,-6.582775116E0,1.936744452E0
1.215868078E0,4.509488583E0,-6.736085892E0,1.645094872E0
1.218331619E0,4.720290661E0,-6.783995152E0,1.119287372E0
1.220795265E0,4.973612309E0,-6.827113628E0,1.057004929E0
1.223258963E0,5.184414387E0,-7.018153191E0,1.104914427E0
1.225722609E0,5.260470867E0,-7.128345490E0,1.271999121E0
1.228186307E0,5.189205170E0,-7.405622005E0,1.004304409E0
1.230649953E0,5.241307259E0,-7.735599041E0,1.124078274E0
1.233113599E0,4.978403091E0,-8.022458076E0,1.347456723E-1
1.235577296E0,4.696335793E0,-8.079350471E0,-3.197963834E-1
1.238040942E0,4.916121006E0,-7.988921165E0,8.084740043E-1
1.240504640E0,4.887374878E0,-7.912265778E0,1.367818236E0
1.242968286E0,4.935284615E0,-8.644083977E0,1.893625736E0
1.245431984E0,5.260470867E0,-9.734026909E0,2.151738644E0
1.247895630E0,5.461690903E0,-1.054669285E1,1.993636966E0
1.250359276E0,5.585657120E0,-1.103477192E1,2.906913280E0
1.252822974E0,5.968334675E0,-1.211034203E1,3.972901106E0
1.255286619E0,6.624096870E0,-1.305715466E1,4.250177860E0
1.257750317E0,6.762435913E0,-1.256967449E1,4.517872334E0
1.260213963E0,6.346221447E0,-1.084792423E1,5.177227974E0
1.262677661E0,6.255792141E0,-9.179473877E0,5.162855148E0
1.265141307E0,6.413294792E0,-8.275779724E0,4.684957027E0
1.267604953E0,6.906164646E0,-7.988921165E0,4.035183430E0
1.270068651E0,7.647565365E0,-7.577497482E0,3.380020142E0
1.272532296E0,8.981846809E0,-8.194333076E0,2.065501451E0
1.274995994E0,1.051734829E1,-9.102818489E0,1.023468256E0
1.277459640E0,1.181809330E1,-9.638208389E0,2.778755128E-1
1.279923338E0,1.252595711E1,-9.891530037E0,-8.647677302E-1
1.282386984E0,1.248283863E1,-9.839427948E0,-2.049930811E0
1.284850630E0,1.227263546E1,-9.413631439E0,-2.136168003E0
1.287314328E0,1.197619534E1,-9.251338005E0,-2.121795177E0
1.289777974E0,1.117730331E1,-9.026163101E0,-2.107422352E0
1.292241671E0,1.076587963E1,-9.112400055E0,-2.088258505E0
1.294705317E0,1.180372047E1,-9.968185425E0,-2.809896231E0
1.297168963E0,1.213369751E1,-1.012149525E1,-2.418235540E0
1.299632661E0,1.107669258E1,-9.671744347E0,-2.379907846E0
1.302096307E0,9.804693222E0,-9.260321617E0,-1.342665672E0
1.304560005E0,8.876445770E0,-9.274694443E0,-6.156379580E-1
1.307023651E0,7.054085255E0,-9.208219528E0,9.426208138E-1
1.309487349E0,5.170041561E0,-9.126772881E0,1.931953430E0
1.311950994E0,4.409477234E0,-9.370512962E0,2.214020967E0
1.314414640E0,4.792154789E0,-1.005442238E1,2.921286106E0
1.316878338E0,4.959239483E0,-1.108208275E1,3.705206394E0
1.319341984E0,4.705917835E0,-1.173245525E1,3.748325109E0
1.321805682E0,4.371149540E0,-1.198577690E1,3.093161583E0
1.324269328E0,4.433432102E0,-1.263614941E1,1.816970468E0
1.326733026E0,3.930980206E0,-1.301403618E1,9.947224855E-1
1.329196671E0,3.692031384E0,-1.294696236E1,1.305535793E0
1.331660317E0,3.887861729E0,-1.330089474E1,1.152824044E0
1.334124015E0,3.783059597E0,-1.363087177E1,1.439682603E0
1.336587661E0,4.117827415E0,-1.353505230E1,2.166111469E0
1.339051359E0,5.098177433E0,-1.375064564E1,3.165025949E0
1.341515005E0,5.977916718E0,-1.375543690E1,4.011229038E0
1.343978703E0,6.628888130E0,-1.386502934E1,4.713702679E0
1.346442349E0,8.158999443E0,-1.433873558E1,5.822809696E0
1.348905994E0,1.022090816E1,-1.474956036E1,6.056967258E0
1.351369692E0,1.075150681E1,-1.484537983E1,5.650334835E0
1.353833338E0,1.118688488E1,-1.488849831E1,5.659916878E0
1.356297036E0,1.252595711E1,-1.465433979E1,6.788187504E0
1.358760682E0,1.280383301E1,-1.411835194E1,6.888797283E0
1.361224380E0,1.166538143E1,-1.288947105E1,5.765317917E0
1.363688026E0,1.095272636E1,-1.167556286E1,4.274132729E0
1.366151671E0,1.133061314E1,-1.085750675E1,4.288505554E0
1.368615369E0,1.136894131E1,-1.020234299E1,5.846764088E0
1.371079015E0,1.003885174E1,-9.141145706E0,6.185724258E0
1.373542713E0,8.470412254E0,-7.711644173E0,3.920200586E0
1.376006359E0,8.412920952E0,-7.109181404E0,2.763783455E0
1.378470005E0,7.991915226E0,-6.750458717E0,4.139985561E0
1.380933703E0,6.342029572E0,-5.598233223E0,3.370438337E0
1.383397349E0,5.691058159E0,-5.335329533E0,1.994235873E0
1.385861046E0,4.701126575E0,-5.167645931E0,3.451884508E0
1.388324692E0,2.893139124E0,-4.025002956E0,2.586518049E0
1.390788390E0,2.582325935E0,-3.704607487E0,5.743159652E-1
1.393252036E0,2.993749380E0,-4.235206127E0,1.406145930E0
1.395715682E0,2.214020967E0,-4.111239910E0,1.869670987E0
1.398179380E0,1.573230505E0,-3.536924124E0,1.181569815E0
1.400643026E0,1.018078327E0,-3.259647369E0,1.157614946E0
1.403106724E0,1.065987945E0,-3.546505928E0,1.587603450E0
1.405570369E0,8.126661181E-1,-3.594415665E0,2.639218569E0
1.408034067E0,-6.767226756E-2,-3.188381910E0,2.725455761E0
1.410497713E0,-5.982707739E-1,-2.877568483E0,1.439682603E0
1.412961359E0,7.605644315E-2,-3.398585081E0,1.454055429E0
1.415425057E0,5.689261481E-2,-4.034584522E0,3.341692686E0
1.417888703E0,3.293783069E-1,-4.431635380E0,5.120335579E0
1.420352401E0,1.143840998E-1,-4.321443081E0,5.688662529E0
1.422816046E0,-3.413556889E-2,-4.321443081E0,5.273046970E0
1.425279744E0,-2.347569019E-1,-4.163341522E0,6.754650593E0
1.427743390E0,3.054235280E-1,-4.096867085E0,8.069169044E0
1.430207036E0,1.482202291E0,-4.201669216E0,9.832840919E0
1.432670734E0,2.702099800E0,-4.106449127E0,1.170670319E1
1.435134380E0,3.232698202E0,-3.503986120E0,1.296373081E1
1.437598078E0,3.227907419E0,-2.547591448E0,1.391533470E1
1.440061724E0,-3.616573811E0,2.195456028E0,1.164502048E1
1.442525421E0,-7.548152924E0,1.832541108E0,4.307669163E0
1.444989067E0,-3.936969042E0,-2.796122313E0,2.515252352E0
1.447452713E0,-3.248268843E0,-4.904742241E0,-1.413931251E0
1.449916411E0,-2.817681551E0,-6.406108379E0,-4.549612522E0
1.452380057E0,-1.640902758E0,-7.529587746E0,-4.621477127E0
1.454843755E0,-4.545420408E-1,-8.032039642E0,-4.220234394E0
1.457307401E0,9.228581190E-1,-8.357225418E0,-3.192574024E0
1.459771046E0,2.013399601E0,-8.362016678E0,-2.121795177E0
1.462234744E0,2.792529106E0,-7.964966297E0,-1.371411443E0
1.464698390E0,3.405172825E0,-7.170865059E0,-9.791518450E-1
1.467162088E0,3.438709497E0,-6.645057678E0,-9.941235930E-2
1.469625734E0,3.787850380E0,-6.492345810E0,8.803383708E-1
1.472089432E0,4.438222885E0,-6.635475636E0,1.133660197E0
1.474553078E0,4.983194351E0,-6.697758198E0,1.066586852E0
1.477016724E0,5.978515625E0,-7.429576874E0,6.749261022E-1
1.479480421E0,7.389452457E0,-8.466818810E0,1.181569815E0
1.481944067E0,8.494366646E0,-9.251338005E0,1.534902930E0
1.484407765E0,9.087247849E0,-9.753190994E0,1.769060850E0
1.486871411E0,9.359733582E0,-1.010233212E1,1.712168336E0
1.489335109E0,9.250140190E0,-1.021671581E1,1.664258718E0
1.491798755E0,8.933937073E0,-9.915484428E0,1.539693832E0
1.494262401E0,8.245237350E0,-9.490286827E0,1.037841082E0
1.496726099E0,7.700265884E0,-9.198637962E0,3.209941387E-1
1.499189744E0,7.518209457E0,-8.629711151E0,-3.958528340E-1
1.501653442E0,6.872627735E0,-7.974547863E0,-9.791518450E-1
1.504117088E0,6.513905048E0,-7.491260052E0,-9.120784402E-1
1.506580786E0,6.533068657E0,-6.869633675E0,-9.360332489E-1
1.509044432E0,6.155181885E0,-6.606729984E0,-1.519332290E0
1.511508078E0,5.935397148E0,-6.095294952E0,-2.045139790E0
1.513971776E0,6.102481365E0,-5.397013187E0,-2.843433142E0
1.516435421E0,5.423363209E0,-5.234719276E0,-3.741737366E0
1.518899119E0,4.792154789E0,-5.000561237E0,-4.019014359E0
1.521362765E0,4.782572746E0,-4.354979992E0,-4.215443134E0
1.523826463E0,4.323239803E0,-4.087285042E0,-4.798143387E0
1.526290109E0,4.098663807E0,-3.805217743E0,-5.338324070E0
1.528753755E0,3.988471746E0,-3.164427042E0,-5.697046757E0
1.531217453E0,3.132687092E0,-2.346371174E0,-6.136617184E0
1.533681099E0,2.127783775E0,-1.576823711E0,-6.614515305E0
1.536144796E0,2.415241241E0,-2.164913654E0,-5.935996056E0
1.538608442E0,2.754800320E0,-2.800913334E0,-5.721001625E0
1.541072088E0,2.620653629E0,-3.709398508E0,-6.365984440E0
1.543535786E0,3.003331184E0,-3.403376102E0,-6.265973091E0
1.545999432E0,3.323726416E0,-2.925478220E0,-5.701838017E0
1.548463130E0,3.433918476E0,-3.130890369E0,-5.668301105E0
1.550926776E0,3.448291302E0,-3.417748928E0,-5.692255974E0
1.553390474E0,3.405172825E0,-4.020211697E0,-5.725792408E0
1.555854119E0,3.323726416E0,-4.861623764E0,-5.247894764E0
1.558317765E0,2.936257839E0,-6.319871426E0,-3.818392754E0
1.560781463E0,2.400868416E0,-7.396039963E0,-2.972189903E0
1.563245109E0,2.204439163E0,-7.864356041E0,-2.379907846E0
1.565708807E0,2.362540722E0,-8.466818810E0,-1.695998788E0
1.568172453E0,3.371636152E0,-8.997417450E0,1.162405968E0
1.570636151E0,3.510573864E0,-9.064491272E0,4.059138298E0
1.573099796E0,2.663772106E0,-9.466332436E0,6.611520767E0
1.575563442E0,1.836134315E0,-9.934648514E0,8.623723030E0
1.578027140E0,1.649885893E0,-9.868173599E0,1.044009399E1
1.580490786E0,1.075569868E0,-1.008316803E1,1.304517746E1
1.582954484E0,6.976830959E-1,-1.037960815E1,1.456989956E1
1.585418130E0,5.162256360E-1,-1.066167641E1,1.536340141E1
1.587881828E0,-3.880675137E-1,-1.075749493E1,1.482801247E1
1.590345474E0,-7.228356600E-1,-9.953812599E0,1.489508533E1
1.592809119E0,-1.868473291E-1,-9.131564140E0,1.336078167E1
1.595272817E0,-3.018302917E-1,-8.586592674E0,1.040176678E1
1.597736463E0,-6.845079660E-1,-7.907474518E0,7.648763180E0
1.600200161E0,-1.024067044E0,-7.434367657E0,5.196392059E0
1.602663807E0,-1.459445357E0,-7.104390621E0,3.107534647E0
1.605127505E0,-2.071490049E0,-6.420481205E0,3.805816650E0
1.607591151E0,-1.966089010E0,-6.052176476E0,2.854212761E0
1.610054796E0,-1.406744719E0,-5.726990223E0,-4.629262388E-1
1.612518494E0,-1.799004436E0,-3.757308006E0,-1.466631770E0
1.614982140E0,-1.999625683E0,-2.781749487E0,-3.197963834E-1
1.617445838E0,-6.222255230E-1,-3.848336220E0,2.635026276E-1
1.619909484E0,5.689261556E-1,-4.890369415E0,9.162705392E-2
1.622373130E0,1.329490542E0,-5.622188091E0,-8.312310576E-1
1.624836828E0,1.736123085E0,-6.253396511E0,-7.929034233E-1
1.627300474E0,1.358236313E0,-6.281543732E0,-1.591196656E0
1.629764171E0,4.491522312E-1,-6.415690422E0,-1.261219501E0
1.632227817E0,8.318299055E-1,-6.984616756E0,-4.581352770E-1
1.634691515E0,1.085151792E0,-7.558333874E0,2.395478487E-1
1.637155161E0,6.839091182E-1,-8.777632713E0,8.755474091E-1
1.639618807E0,1.424710870E0,-1.075749493E1,1.893625736E0
1.642082505E0,2.558371067E0,-1.167077160E1,3.097952604E0
1.644546151E0,2.180484295E0,-1.205764103E1,4.378934860E0
1.647009849E0,1.267208099E0,-1.308110905E1,4.565782070E0
1.649473494E0,5.928809643E-1,-1.369315434E1,4.618482590E0
1.651937192E0,1.013886333E0,-1.460643005E1,3.017105341E0
1.654400838E0,8.126661181E-1,-1.501306248E1,1.200733662E0
1.656864484E0,1.191750541E-1,-1.485017014E1,2.108021080E-1
1.659328182E0,1.383388788E-1,-1.449144745E1,2.934461273E-2
1.661791828E0,4.778979719E-1,-1.466392231E1,-7.497847676E-1
1.664255526E0,1.113897562E0,-1.487412548E1,-2.518246889E0
1.666719171E0,1.731332064E0,-1.495078087E1,-3.928584814E0
1.669182869E0,2.439196110E0,-1.500348091E1,-3.426732063E0
1.671646515E0,3.940562248E0,-1.531908512E1,-3.560280085E0
1.674110161E0,4.844855309E0,-1.530950356E1,-5.309578419E0
1.676573859E0,4.495714188E0,-1.495078087E1,-7.384062767E0
1.679037505E0,3.285398722E0,-1.408541393E1,-1.036224174E1
1.681501203E0,2.324213028E0,-1.326735783E1,-1.492203426E1
1.683964849E0,3.161432743E0,-1.387940311E1,-1.780439377E1
1.686428546E0,2.094846010E0,-1.416626167E1,-2.109817696E1
1.688892192E0,8.462027907E-1,-1.453935719E1,-2.381764412E1
1.691355838E0,1.224089503E0,-1.484537983E1,-2.454467201E1
1.693819536E0,7.743384242E-1,-1.491245270E1,-2.122693443E1
1.696283182E0,-6.270164847E-1,-1.450102901E1,3.595613241E0
1.698746880E0,-1.038439989E0,-1.227323437E1,1.945068741E1
1.701210526E0,-8.899202943E-1,-9.265710831E0,2.204139709E1
1.703674171E0,4.587341547E-1,-7.769135952E0,1.793075562E1
1.706137869E0,3.357263088E0,-8.266197205E0,1.011969948E1
1.708601515E0,5.834786892E0,-9.208219528E0,5.096380711E0
1.711065213E0,8.111689568E0,-1.022629833E1,2.811692953E0
1.713528859E0,9.881348610E0,-1.168514442E1,3.815398455E0
1.715992557E0,1.052213955E1,-1.239240932E1,4.402889729E0
1.718456099E0,1.085211658E1,-1.277508736E1,6.056967258E0
1.720919640E0,1.133540440E1,-1.361649895E1,8.972864151E0
1.723383234E0,1.164142704E1,-1.421896172E1,1.054070473E1
1.725846776E0,1.112999249E1,-1.458726692E1,1.236186695E1
1.728310317E0,1.030235481E1,-1.463038540E1,1.309308720E1
1.730773859E0,9.642399788E0,-1.456331158E1,1.286371994E1
1.733237401E0,8.939327240E0,-1.436269093E1,1.229000282E1
1.735700942E0,7.867949486E0,-1.398959446E1,1.176898575E1
1.738164484E0,6.600142479E0,-1.353984356E1,1.113837624E1
1.740628026E0,5.217951298E0,-1.303799057E1,1.022510052E1
1.743091619E0,3.926788092E0,-1.259362984E1,8.628513336E0
1.745555161E0,2.807500839E0,-1.208638668E1,6.888797283E0
1.748018703E0,2.018190622E0,-1.155578804E1,5.402402878E0
1.750482244E0,1.510948062E0,-1.089104366E1,3.886663914E0
1.752945786E0,1.267208099E0,-1.025025272E1,2.443388224E0
1.755409328E0,1.109106541E0,-9.695699692E0,1.645094872E0
1.757872869E0,1.089942694E0,-9.155518532E0,1.104914427E0
1.760336411E0,1.080959678E0,-8.629711151E0,8.683609962E-2
1.762799953E0,1.018677235E0,-8.070366859E0,-8.216491342E-1
1.765263546E0,9.084852338E-1,-7.434367657E0,-1.796608925E0
1.767727088E0,7.791293859E-1,-6.979825497E0,-1.705580711E0
1.770190630E0,5.976719260E-1,-6.569001198E0,-1.734326482E0
1.772654171E0,5.114346743E-1,-6.391735554E0,-1.748699307E0
1.775117713E0,3.251862228E-1,-6.410899639E0,-3.239884675E-1
1.777581255E0,2.293670774E-1,-6.348617077E0,2.988359451E0
1.780044796E0,2.533218563E-1,-6.415690422E0,7.031927109E0
1.782508338E0,2.772766352E-1,-6.133622646E0,8.509338379E0
1.784971932E0,4.491522312E-1,-5.952165127E0,8.351237297E0
1.787435474E0,3.683048189E-1,-5.516787052E0,7.003181458E0
1.789899015E0,3.539319634E-1,-5.105363846E0,5.077216625E0
1.792362557E0,2.485308945E-1,-4.627465725E0,2.194857121E0
1.794826099E0,1.431298405E-1,-4.794550419E0,-5.299996138E-1
1.797289640E0,-4.311861470E-2,-5.435340881E0,3.700415373E0
1.799753182E0,-2.874574363E-1,-5.268256187E0,4.092675209E0
1.802216724E0,-4.401691854E-1,-4.875996590E0,3.920200586E0
1.804680265E0,-4.784968495E-1,-4.704121113E0,3.284800053E0
1.807143859E0,-5.264064074E-1,-4.479544640E0,2.586518049E0
1.809607401E0,-5.024515986E-1,-4.579555988E0,2.735037565E0
1.812070942E0,-8.180559278E-1,-4.426844120E0,2.524834394E0
1.814534484E0,-8.995022178E-1,-4.584347248E0,1.855298162E0
1.816998026E0,-1.076168776E0,-4.307070255E0,-4.038177967E0
1.819461567E0,-1.263016105E0,-5.010143280E0,-5.816221714E0
1.821925109E0,-1.415727854E0,-5.440131664E0,-4.368155003E0
1.824388651E0,-1.698394299E0,-5.750945091E0,-2.709286213E0
1.826852244E0,-1.961298108E0,-6.128831863E0,-2.140360117E0
1.829315786E0,-2.133173704E0,-6.382153511E0,-1.715162635E0
1.831779328E0,-2.209828854E0,-6.625893593E0,-1.003106594E0
1.834242869E0,-2.147546530E0,-6.870232582E0,-4.245985746E-1
1.836706411E0,-2.047535181E0,-7.109181404E0,-5.821012855E-1
1.839169953E0,-2.501478434E0,-7.572706699E0,-6.504921913E0
1.841633494E0,-2.927274704E0,-8.194333076E0,-6.824718475E0
1.844097036E0,-2.946438551E0,-8.567428589E0,-6.204289198E-1
1.846560578E0,-2.712280512E0,-8.930942535E0,3.026687145E0
1.849024171E0,-2.377512455E0,-9.088445663E0,4.283714294E0
1.851487713E0,-2.085862875E0,-8.868659973E0,4.073511124E0
1.853951255E0,-1.937343240E0,-8.562638283E0,2.830856800E0
1.856414796E0,-1.899015665E0,-8.194333076E0,9.426208138E-1
1.858878338E0,-1.698394299E0,-7.821237564E0,-5.443724990E-1
1.861341880E0,-1.717558146E0,-7.816446304E0,-1.920574903E0
1.863805421E0,-1.712767124E0,-7.730808258E0,-2.819478273E0
1.866268963E0,-1.750495911E0,-7.367294312E0,-2.986562967E0
1.868732557E0,-1.827151299E0,-6.912752151E0,-2.991353750E0
1.871196099E0,-1.879851818E0,-6.578582764E0,-3.187184095E0
1.873659640E0,-1.932552338E0,-6.282142639E0,-3.579443932E0
1.876123182E0,-2.118800879E0,-6.076131344E0,-4.071714878E0
1.878586724E0,-2.233783722E0,-5.760527134E0,-4.004641056E0
1.881050265E0,-2.238574743E0,-5.459295750E0,-3.612980604E0
1.883513807E0,-2.118800879E0,-5.273046970E0,-2.738031864E0
1.885977349E0,-1.966089010E0,-5.210764885E0,-2.140360117E0
1.888440890E0,-1.812778354E0,-4.933487892E0,-1.409140229E0
1.890904484E0,-1.631320834E0,-4.752030373E0,-3.048246503E-1
1.893368026E0,-9.378298521E-1,-5.090990543E0,6.797170639E-1
1.895831567E0,2.772766352E-1,-5.698244572E0,1.444473505E0
1.898295109E0,3.539319634E-1,-5.129318237E0,1.936744452E0
1.900758651E0,1.000112295E-1,-4.436426163E0,1.587603450E0
1.903222192E0,7.509825230E-1,-5.053261757E0,1.061795831E0
1.905685734E0,1.013886333E0,-5.158064365E0,8.372197747E-1
1.908149276E0,6.359995604E-1,-4.771194458E0,1.443275809E-1
1.910612869E0,9.659767151E-1,-5.191600800E0,-4.868810177E-1
1.913076411E0,1.851106048E0,-6.377362728E0,-5.581464767E-1
1.915539953E0,3.520155668E0,-8.682412148E0,6.365984082E-1
1.918003494E0,4.979001999E0,-1.037002659E1,2.276303530E0
1.920467036E0,5.547928333E0,-1.071437645E1,2.892540455E0
1.922930578E0,5.376052856E0,-1.043230915E1,2.677546024E0
1.925394119E0,3.984279633E0,-8.562638283E0,2.467342854E0
1.927857661E0,2.501478434E0,-6.669012070E0,2.228394032E0
1.930321203E0,1.420518756E0,-5.191600800E0,2.281094551E0
1.932784796E0,6.839091182E-1,-5.229928493E0,3.007523298E0
1.935248338E0,2.197851539E-1,-7.529587746E0,2.629636526E0
1.937711880E0,-1.293558478E-1,-1.073354053E1,1.334281564E0
1.940175421E0,-6.647452712E-1,-1.609821510E1,-6.539656520E-1
1.942638963E0,-1.798405528E0,-2.315110207E1,-3.154246330E0
1.945102505E0,-2.726653337E0,-3.134184265E1,-6.122244358E0
1.947566046E0,-2.898529053E0,-4.061294174E1,-8.732118607E0
1.950029588E0,-3.506381750E0,-4.919055176E1,-1.224568653E1
1.952493182E0,-4.878991127E0,-5.614282990E1,-1.502264500E1
1.954956724E0,-7.103192806E0,-6.073316574E1,-1.553407955E1
1.957420265E0,-9.848411560E0,-6.212434006E1,-1.441539097E1
1.959883807E0,-1.226365280E1,-5.843829727E1,-1.133720112E1
1.962347349E0,-1.309129047E1,-4.974091339E1,-6.719916344E0
1.964810890E0,-1.225407028E1,-3.926428986E1,-1.877456307E0
1.967274432E0,-1.081438828E1,-3.009858894E1,2.089456081E0
1.969737974E0,-9.647191048E0,-2.261511421E1,4.790358067E0
1.972201567E0,-8.767451286E0,-1.672942352E1,6.592357159E0
1.974665109E0,-7.891903877E0,-1.222532463E1,7.405023098E0
1.977128651E0,-7.121757507E0,-8.763258934E0,7.548152924E0
1.979592192E0,-6.581577301E0,-6.090504169E0,7.385859013E0
1.982055734E0,-6.251600266E0,-3.929183722E0,7.113373756E0
1.984519276E0,-5.873713493E0,-2.270314693E0,7.003780365E0
1.986982817E0,-5.577272892E0,-6.204289198E-1,7.146910191E0
1.989446359E0,-5.390425682E0,1.052812815E0,5.665306568E0
1.991909901E0,-5.108357906E0,2.124190569E0,3.342291355E0
1.994373494E0,-4.816708565E0,2.797919035E0,1.090541601E0
1.996837036E0,-4.395703316E0,2.884156227E0,-8.024852872E-1
1.999300578E0,-4.175918102E0,2.731444359E0,-2.045139790E0
2.001764119E0,-4.089680672E0,2.396676302E0,-2.327207327E0
2.004227661E0,-4.089680672E0,2.023580551E0,-1.825354695E0
2.006691203E0,-4.128008366E0,1.330089450E0,-1.198937058E0
2.009154744E0,-4.228019714E0,5.809035525E-2,-6.970842481E-1
2.011618286E0,-4.290302277E0,-1.557659864E0,5.389826838E-3
2.014081880E0,-4.251974583E0,-2.991952658E0,8.324288130E-1
2.016545421E0,-3.864505768E0,-4.307070255E0,1.286970854E0
2.019008963E0,-3.329116344E0,-5.454504490E0,1.430100679E0
2.021472505E0,-2.879365206E0,-6.468390942E0,1.272598028E0
2.023936046E0,-2.511060476E0,-7.386457920E0,9.426208138E-1
2.026399588E0,-2.190665245E0,-8.261406898E0,3.209941387E-1
2.028863130E0,-1.831942201E0,-9.155518532E0,-4.533443153E-1
2.031326671E0,-1.525919795E0,-9.987348557E0,-1.189355135E0
2.033790213E0,-1.258225083E0,-1.077186775E1,-1.763072252E0
2.036253807E0,-9.707676768E-1,-1.158932495E1,-2.308043480E0
2.038717349E0,-7.366096377E-1,-1.230198002E1,-2.570947409E0
2.041180890E0,-5.216154456E-1,-1.294756126E1,-2.733241081E0
2.043644432E0,-3.491410017E-1,-1.342066860E1,-2.675749540E0
2.046107974E0,-2.149941921E-1,-1.376501846E1,-2.312834501E0
2.048571515E0,-2.149941921E-1,-1.383209229E1,-1.906202078E0
2.051035057E0,-3.012314141E-1,-1.369315434E1,-1.218100786E0
2.053498599E0,-5.449713469E-1,-1.318171978E1,-2.335591614E-1
2.055962192E0,-7.222367525E-1,-1.223011589E1,9.090840816E-1
2.058425734E0,-5.880900025E-1,-1.105872631E1,1.736123085E0
2.060889276E0,-5.976719260E-1,-9.853800774E0,2.080473185E0
2.063352817E0,-9.180671573E-1,-8.701576233E0,2.361941814E0
2.065816359E0,-1.415727854E0,-7.888310909E0,2.639218569E0
2.068279901E0,-1.755286932E0,-7.419994831E0,2.567953110E0
2.070743442E0,-1.946925163E0,-7.061271667E0,2.438597202E0
2.073206984E0,-1.999026895E0,-6.922933102E0,2.214020967E0
2.075670526E0,-2.042145491E0,-6.760040283E0,1.855298162E0
2.078134119E0,-2.070891142E0,-6.449227333E0,1.827151299E0
2.080597661E0,-2.080473185E0,-6.511509418E0,1.946326375E0
2.083061203E0,-2.075682163E0,-6.822322845E0,2.042145491E0
2.085524744E0,-1.937343240E0,-7.415204048E0,2.194857121E0
2.087988286E0,-1.506755948E0,-8.184751511E0,2.204439163E0
2.090451828E0,-1.090541601E0,-9.007597923E0,2.051727295E0
2.092915369E0,-8.707564473E-1,-9.748399734E0,2.013399601E0
2.095378911E0,-8.180559278E-1,-1.055687428E1,2.118201971E0
2.097842505E0,-8.420107365E-1,-1.125455666E1,2.161320448E0
2.100306046E0,-9.276490808E-1,-1.166598034E1,2.194857121E0
2.102769588E0,-1.181569815E0,-1.173784447E1,2.214020967E0
2.105233130E0,-1.755286932E0,-1.131683922E1,2.366732836E0
2.107696671E0,-2.291275263E0,-1.006400394E1,2.854811668E0
2.110160213E0,-2.573342800E0,-9.054908752E0,3.605195284E0
2.112623755E0,-2.783545971E0,-8.347643852E0,4.083093166E0
2.115087296E0,-2.960811377E0,-7.730808258E0,4.240595818E0
2.117550838E0,-3.099150419E0,-7.477486134E0,4.126211643E0
2.120014432E0,-3.099150419E0,-7.305011749E0,4.145375729E0
2.122477974E0,-3.075195551E0,-6.918141842E0,3.987273932E0
2.124941515E0,-2.908110857E0,-6.616910458E0,3.514167070E0
2.127405057E0,-2.654789209E0,-6.286933422E0,3.222517490E0
2.129868599E0,-2.415241241E0,-5.837182522E0,2.911704063E0
2.132332140E0,-2.233783722E0,-5.316165924E0,2.558371067E0
2.134795682E0,-1.918179393E0,-4.809522152E0,2.137365818E0
2.137259224E0,-1.625931025E0,-4.484335899E0,1.377400160E0
2.139722817E0,-1.573829412E0,-4.311861515E0,5.743159652E-1
2.142186359E0,-1.511546969E0,-4.790358067E0,5.329939723E-2
2.144649901E0,-1.310326815E0,-6.497136593E0,-1.160609365E0
2.147113442E0,-1.606767178E0,-8.318898201E0,-2.002021074E0
2.149576984E0,-2.405659437E0,-9.757982254E0,-2.436800480E0
2.152040526E0,-3.156641960E0,-1.066646671E1,-1.155818343E0
2.154504067E0,-3.697421074E0,-1.176179981E1,-4.533443153E-1
2.156967609E0,-4.175319195E0,-1.277029610E1,-9.456151724E-1
2.159431151E0,-4.481341362E0,-1.372669125E1,-2.064303637E0
2.161894744E0,-4.649024963E0,-1.452019310E1,-3.039263487E0
2.164358286E0,-4.410076141E0,-1.533345795E1,-4.392109871E0
2.166821828E0,-4.032189369E0,-1.583531094E1,-6.184526920E0
2.169285369E0,-3.730359077E0,-1.612216949E1,-7.236141682E0
2.171748911E0,-3.247669935E0,-1.603593254E1,-7.078040123E0
2.174212453E0,-2.621252298E0,-1.566343498E1,-6.308492661E0
2.176675994E0,-1.836733222E0,-1.501306248E1,-5.252086639E0
2.179139536E0,-1.061795831E0,-1.419979763E1,-4.243590355E0
2.181603130E0,-4.784968495E-1,-1.331526756E1,-3.392596483E0
2.184066671E0,7.186435908E-2,-1.232593441E1,-2.503874063E0
2.186530213E0,4.497511089E-1,-1.147494125E1,-1.681625962E0
2.188993755E0,7.941011190E-1,-1.070479488E1,-9.408242106E-1
2.191457296E0,1.090541601E0,-1.011670494E1,-3.096156120E-1
2.193920838E0,1.282179832E0,-9.666954041E0,2.736834288E-1
2.196384380E0,1.430100679E0,-9.423213959E0,6.222255230E-1
2.198847921E0,1.444473505E0,-9.179473877E0,8.515926003E-1
2.201311515E0,1.167196870E0,-9.121982574E0,8.468016386E-1
2.203775057E0,7.126548886E-1,-9.198637962E0,7.851181030E-1
2.206238599E0,2.443388104E-1,-9.284874916E0,6.988808513E-1
2.208702140E0,-1.862484515E-1,-9.519032478E0,6.749261022E-1
2.211165682E0,-5.641351938E-1,-9.653180122E0,5.934798121E-1
2.213629224E0,-9.420219660E-1,-9.834636688E0,5.365871787E-1
2.216092765E0,-1.291162968E0,-9.940038681E0,4.599318802E-1
2.218556359E0,-1.606767178E0,-1.000651264E1,3.497398794E-1
2.221019953E0,-1.907998681E0,-1.000651264E1,2.401467264E-1
2.223483546E0,-2.128382683E0,-9.954411507E0,2.401467264E-1
2.225947140E0,-2.333795071E0,-9.906501770E0,1.874461919E-1
2.228410734E0,-2.439196110E0,-9.820263863E0,1.155818403E-1
2.230874380E0,-2.434405088E0,-9.724445343E0,-6.108470261E-2
2.233337974E0,-2.348167896E0,-9.638806343E0,-1.377400160E-1
2.235801567E0,-2.157128334E0,-9.552569389E0,-2.096043676E-1
2.238265161E0,-2.037354469E0,-9.451959610E0,-3.048246503E-1
2.240728755E0,-1.912789583E0,-9.394468307E0,-4.293895364E-1
2.243192349E0,-1.793614507E0,-9.356739044E0,-3.766889870E-1
2.245655942E0,-1.669049621E0,-9.284874916E0,-3.766889870E-1
2.248119536E0,-1.640303969E0,-9.332784653E0,-2.569150627E-1
2.250583182E0,-1.755286932E0,-9.380095482E0,-1.616947949E-1
2.253046776E0,-1.989444971E0,-9.480705261E0,-2.329602838E-1
2.255510369E0,-2.190665245E0,-9.509450912E0,-6.587565690E-2
2.257973963E0,-2.252348661E0,-9.576524734E0,9.641800821E-2
2.260437557E0,-2.324213028E0,-9.581315041E0,1.826552451E-1
2.262901151E0,-2.376913548E0,-9.581315041E0,1.826552451E-1
2.265364744E0,-2.420032263E0,-9.667552948E0,2.066100240E-1
2.267828390E0,-2.424823046E0,-9.648388863E0,2.688924670E-1
2.270291984E0,-2.362540722E0,-9.614851952E0,3.976494372E-1
2.272755578E0,-2.305049181E0,-9.653180122E0,4.934685826E-1
2.275219171E0,-2.391286373E0,-9.576524734E0,5.222142935E-1
2.277682765E0,-2.448777914E0,-9.581315041E0,6.270164847E-1
2.280146359E0,-2.443986893E0,-9.657970428E0,7.994909883E-1
2.282609953E0,-2.491896629E0,-9.653180122E0,7.755361795E-1
2.285073546E0,-2.453568935E0,-9.653180122E0,6.797170639E-1
2.287537192E0,-2.352958918E0,-9.700489998E0,6.126436591E-1
2.290000786E0,-2.219410896E0,-9.753190994E0,5.078414679E-1
2.292464380E0,-2.104427814E0,-9.829846382E0,5.270052552E-1
2.294927974E0,-2.070891142E0,-9.844219208E0,5.222142935E-1
2.297391567E0,-2.109218836E0,-9.853800774E0,5.695250034E-1
2.299855161E0,-2.128382683E0,-9.805891037E0,5.934798121E-1
2.302318755E0,-2.128382683E0,-9.781936646E0,6.126436591E-1
2.304782349E0,-2.176292181E0,-9.791518211E0,6.461803317E-1
2.307245994E0,-2.237975836E0,-9.772355080E0,5.982707739E-1
2.309709588E0,-2.224201918E0,-9.714862823E0,5.791069269E-1
2.312173182E0,-2.348167896E0,-9.690908432E0,4.551409185E-1
2.314636776E0,-2.487105608E0,-9.624433517E0,4.359771013E-1
2.317100369E0,-2.539806128E0,-9.629224777E0,4.743047655E-1
2.319563963E0,-2.668563128E0,-9.610060692E0,4.695138037E-1
2.322027557E0,-2.730845451E0,-9.562151909E0,4.072313607E-1
2.324491203E0,-2.817082882E0,-9.542987823E0,3.449489176E-1
2.326954796E0,-2.932065725E0,-9.495078087E0,2.688924670E-1
2.329418390E0,-2.936257839E0,-9.475914001E0,2.784743905E-1
2.331881984E0,-2.927274704E0,-9.423213959E0,2.305648029E-1
2.334345578E0,-3.003331184E0,-9.380095482E0,2.209828943E-1
2.336809171E0,-3.003331184E0,-9.375903130E0,1.874461919E-1
2.339272765E0,-2.974585533E0,-9.423213959E0,1.922371536E-1
2.341736359E0,-3.022495031E0,-9.375903130E0,1.730733216E-1
2.344200005E0,-3.075195551E0,-9.380694389E0,1.203727946E-1
2.346663599E0,-3.056031704E0,-9.304039001E0,9.162705392E-2
2.349127192E0,-3.041658878E0,-9.327993393E0,1.107908860E-1
2.351590786E0,-2.998540163E0,-9.342366219E0,7.246322930E-2
2.354054380E0,-2.960212708E0,-9.332784653E0,4.850843921E-2
2.356517974E0,-2.950630665E0,-9.332784653E0,3.473443910E-2
2.358981567E0,-2.931466818E0,-9.308829308E0,9.641800821E-2
2.361445213E0,-2.874574184E0,-9.342366219E0,1.557061076E-2
2.363908807E0,-2.793128014E0,-9.366321564E0,5.988696590E-3
2.366372401E0,-2.769173145E0,-9.361530304E0,3.952539712E-2
2.368835994E0,-2.797919035E0,-9.394468307E0,3.952539712E-2
2.371299588E0,-2.702099800E0,-9.432795525E0,2.036156692E-2
2.373763182E0,-2.706890821E0,-9.499869347E0,3.473443910E-2
2.376226776E0,-2.678144932E0,-9.523823738E0,8.683609962E-2
2.378690369E0,-2.654190302E0,-9.571733475E0,7.725418359E-2
2.381154015E0,-2.663772106E0,-9.595687866E0,6.767226756E-2
2.383617609E0,-2.711681604E0,-9.576524734E0,2.161919326E-1
2.386081203E0,-2.702099800E0,-9.634016037E0,1.730733216E-1
2.388544796E0,-2.730845451E0,-9.690908432E0,1.299547106E-1
2.391008390E0,-2.692517996E0,-9.762772560E0,4.431635141E-2
2.393471984E0,-2.764382124E0,-9.781936646E0,6.767226756E-2
2.395935578E0,-2.807500839E0,-9.762772560E0,9.641800821E-2
2.398399224E0,-2.836246490E0,-9.748399734E0,1.778642833E-1
2.400862817E0,-2.888947010E0,-9.825055122E0,2.449376881E-1
2.403326411E0,-2.898529053E0,-9.834636688E0,3.120110929E-1
2.405790005E0,-2.864992380E0,-9.810682297E0,4.216042161E-1
2.408253599E0,-2.845828533E0,-9.849010468E0,3.976494372E-1
2.410717192E0,-2.936257839E0,-9.839427948E0,4.934685826E-1
2.413180786E0,-2.941048861E0,-9.829846382E0,4.359771013E-1
2.415644380E0,-2.931466818E0,-9.805891037E0,4.311861396E-1
2.418108026E0,-2.974585533E0,-9.810682297E0,3.497398794E-1
2.420571619E0,-2.969794512E0,-9.762772560E0,4.216042161E-1
2.423035213E0,-2.965003490E0,-9.748399734E0,4.647228420E-1
2.425498807E0,-2.965003490E0,-9.714862823E0,4.407680631E-1
2.427962401E0,-2.926675797E0,-9.677134514E0,3.832765818E-1
2.430425994E0,-2.912302971E0,-9.614851952E0,4.886776209E-1
2.432889588E0,-2.860201359E0,-9.614851952E0,4.743047655E-1
2.435353234E0,-2.897930145E0,-9.562151909E0,4.455589950E-1
2.437816828E0,-2.745218515E0,-9.581315041E0,4.743047655E-1
2.440280421E0,-2.711681604E0,-9.504659653E0,4.790956974E-1
2.442744015E0,-2.644608259E0,-9.499869347E0,5.126324296E-1
2.445207609E0,-2.606280565E0,-9.451959610E0,5.126324296E-1
2.447671203E0,-2.543998241E0,-9.490286827E0,4.599318802E-1
2.450134796E0,-2.415241241E0,-9.475914001E0,4.455589950E-1
2.452598390E0,-2.329004049E0,-9.456750870E0,4.551409185E-1
2.455062036E0,-2.319422007E0,-9.390275955E0,4.647228420E-1
2.457525630E0,-2.218811989E0,-9.442377090E0,5.461691022E-1
2.459989224E0,-2.152337551E0,-9.442377090E0,5.413781404E-1
2.462452817E0,-2.032563448E0,-9.423213959E0,5.509600639E-1
2.464916411E0,-1.898416758E0,-9.466332436E0,6.078526974E-1
2.467380005E0,-1.769659758E0,-9.519032478E0,5.886888504E-1
2.469843599E0,-1.630722046E0,-9.547778130E0,4.934685826E-1
2.472307192E0,-1.578021526E0,-9.533405304E0,5.365871787E-1
2.474770838E0,-1.467829466E0,-9.586106300E0,5.749148726E-1
2.477234432E0,-1.295953870E0,-9.552569389E0,5.982707739E-1
2.479698026E0,-1.185761929E0,-9.600479126E0,4.982595444E-1
2.482161619E0,-1.085151792E0,-9.677134514E0,5.270052552E-1
2.484625213E0,-9.659767151E-1,-9.653180122E0,4.790956974E-1
2.487088807E0,-8.174570799E-1,-9.714862823E0,4.982595444E-1
2.489552401E0,-7.455927134E-1,-9.781936646E0,4.216042161E-1
2.492016046E0,-7.120559812E-1,-9.810682297E0,4.072313607E-1
2.494479640E0,-6.120447516E-1,-9.858592033E0,4.455589950E-1
2.496943234E0,-5.114346743E-1,-9.820263863E0,3.593217731E-1
2.499406828E0,-4.635250866E-1,-9.868173599E0,2.928472459E-1
2.501870421E0,-3.203952610E-1,-9.853800774E0,2.257738560E-1
2.504334015E0,-3.203952610E-1,-9.896919250E0,2.545195818E-1
2.506797609E0,-3.060223758E-1,-9.906501770E0,2.593105435E-1
2.509261203E0,-2.533218563E-1,-9.920874596E0,2.114009857E-1
2.511724849E0,-1.670846343E-1,-9.868173599E0,2.066100240E-1
2.514188442E0,-1.527117640E-1,-9.877756119E0,1.826552451E-1
2.516652036E0,-8.563835919E-2,-9.892128944E0,1.395366192E-1
2.519115630E0,-2.814687230E-2,-9.925664902E0,1.491185427E-1
2.521579224E0,-3.772878647E-2,-9.901710510E0,8.683609962E-2
2.524042817E0,-4.251974449E-2,-9.949620247E0,8.204513788E-2
2.526506411E0,-1.856495813E-2,-9.968784332E0,1.155818403E-1
2.528970057E0,-5.689261481E-2,-9.959201813E0,1.826552451E-1
2.531433651E0,-5.210165679E-2,-9.973574638E0,1.012089700E-1
2.533897244E0,-6.168357283E-2,-9.983157158E0,1.299547106E-1
2.536360838E0,-9.042931348E-2,-9.987947464E0,1.299547106E-1
2.538824432E0,-7.605644315E-2,-1.002088547E1,8.683609962E-2
2.541288026E0,-8.563835919E-2,-1.003046799E1,1.347456723E-1
2.543751619E0,-1.000112295E-1,-1.001130390E1,1.587004513E-1
2.546215213E0,-1.335479319E-1,-9.978365898E0,1.970281154E-1
2.548678859E0,-2.006213218E-1,-9.973574638E0,2.018190622E-1
2.551142453E0,-2.149941921E-1,-1.000232029E1,2.066100240E-1
2.553606046E0,-1.958303750E-1,-9.959201813E0,2.545195818E-1
2.556069640E0,-2.149941921E-1,-9.930456161E0,2.114009857E-1
2.558533234E0,-1.479208022E-1,-9.997529984E0,2.401467264E-1
2.560996828E0,-1.527117640E-1,-9.963993073E0,2.353557646E-1
2.563460421E0,-1.527117640E-1,-9.911292076E0,2.593105435E-1
2.565924067E0,-1.527117640E-1,-9.839427948E0,2.593105435E-1
2.568387661E0,-1.527117640E-1,-9.839427948E0,3.311749101E-1
2.570851255E0,-1.287569702E-1,-9.805891037E0,2.736834288E-1
2.573314849E0,-1.191750541E-1,-9.786727905E0,2.688924670E-1
2.575778442E0,-1.000112295E-1,-9.743609428E0,2.497286350E-1
2.578242036E0,-5.210165679E-2,-9.719654083E0,2.497286350E-1
2.580705630E0,5.389826838E-3,-9.701088905E0,2.401467264E-1
2.583169224E0,1.018078346E-2,-9.681925774E0,2.736834288E-1
2.585632869E0,5.270052701E-2,-9.686716080E0,2.641015053E-1
2.588096463E0,3.892652690E-2,-9.710671425E0,2.497286350E-1
2.590560057E0,-4.192087334E-3,-9.710671425E0,1.826552451E-1
2.593023651E0,2.455365472E-2,-9.710671425E0,1.826552451E-1
2.595487244E0,4.850843921E-2,-9.748399734E0,1.970281154E-1
2.597950838E0,1.497174054E-2,-9.772355080E0,1.778642833E-1
2.600414432E0,-5.210165679E-2,-9.757982254E0,1.395366192E-1
2.602878026E0,-1.856495813E-2,-9.772355080E0,1.730733216E-1
2.605341671E0,-1.856495813E-2,-9.796309471E0,1.155818403E-1
2.607805265E0,-6.647452712E-2,-9.887337685E0,1.012089700E-1
2.610268859E0,-3.293782845E-2,-9.906501770E0,1.682823747E-1
2.612732453E0,-4.731070250E-2,-9.944828987E0,7.785305381E-2
2.615196046E0,-5.210165679E-2,-9.963993073E0,4.910730943E-2
2.617659640E0,-6.168357283E-2,-9.954411507E0,3.952539712E-2
2.620123234E0,-4.731070250E-2,-1.001190281E1,5.868922547E-2
2.622586880E0,-4.251974449E-2,-1.003525829E1,2.994348109E-2
2.625050474E0,-6.168357283E-2,-9.978365898E0,-1.317513175E-2
2.627514067E0,-7.126548886E-2,-9.978365898E0,2.036156692E-2
2.629977661E0,-8.084739745E-2,-9.963993073E0,5.988696590E-3
2.632441255E0,-9.042931348E-2,-9.992738724E0,3.473443910E-2
2.634904849E0,-1.287569702E-1,-9.983157158E0,1.197739271E-3
2.637368442E0,-1.575027108E-1,-9.978365898E0,1.557061076E-2
2.639832036E0,-1.814575046E-1,-9.983157158E0,5.389826745E-2
2.642295682E0,-1.910394132E-1,-1.003046799E1,2.994348109E-2
2.644759276E0,-2.245761156E-1,-9.992738724E0,2.515252493E-2
2.647222869E0,-2.772766352E-1,-9.920874596E0,9.162705392E-2
2.649686463E0,-3.820788264E-1,-9.968784332E0,1.778642833E-1
2.652150057E0,-3.629150093E-1,-9.940038681E0,1.826552451E-1
2.654613651E0,-3.581240475E-1,-9.892128944E0,1.491185427E-1
2.657077244E0,-4.012426436E-1,-9.849010468E0,2.161919326E-1
2.659540890E0,-4.635250866E-1,-9.872964859E0,2.928472459E-1
2.662004484E0,-5.258075595E-1,-9.868173599E0,2.928472459E-1
2.664468078E0,-6.024628282E-1,-9.896919250E0,3.359658718E-1
2.666931671E0,-6.168357134E-1,-9.829846382E0,3.545308113E-1
2.669395265E0,-6.024628282E-1,-9.815473557E0,4.072313607E-1
2.671858859E0,-5.832990408E-1,-9.820263863E0,4.359771013E-1
2.674322453E0,-6.641464233E-1,-9.834636688E0,4.743047655E-1
2.676786046E0,-6.928921938E-1,-9.757982254E0,4.982595444E-1
2.679249692E0,-7.168469429E-1,-9.796309471E0,5.461691022E-1
2.681713286E0,-7.312198281E-1,-9.805891037E0,4.838866591E-1
2.684176880E0,-7.839203477E-1,-9.772355080E0,4.982595444E-1
2.686640474E0,-7.982932329E-1,-9.757982254E0,5.509600639E-1
2.689104067E0,-8.605756760E-1,-9.772355080E0,5.222142935E-1
2.691567661E0,-9.084852338E-1,-9.743609428E0,4.838866591E-1
2.694031255E0,-9.372310042E-1,-9.762772560E0,5.509600639E-1
2.696494901E0,-9.372310042E-1,-9.772355080E0,5.174233913E-1
2.698958494E0,-9.707676768E-1,-9.738818169E0,5.461691022E-1
2.701422088E0,-9.755586386E-1,-9.738818169E0,5.222142935E-1
2.703885682E0,-1.042033195E0,-9.767563820E0,5.174233913E-1
2.706349276E0,-1.056406021E0,-9.772355080E0,5.461691022E-1
2.708812869E0,-1.128270388E0,-9.729235649E0,6.084515452E-1
2.711276463E0,-1.180970907E0,-9.724445343E0,6.318074465E-1
2.713740057E0,-1.099524617E0,-9.724445343E0,5.701239109E-1
2.716203703E0,-1.147434235E0,-9.667552948E0,6.084515452E-1
2.718667140E0,-1.224089503E0,-9.610060692E0,6.365984082E-1
2.721130630E0,-1.248044372E0,-9.595687866E0,6.653441787E-1
2.723594119E0,-1.257626176E0,-9.519032478E0,6.988808513E-1
2.726057557E0,-1.352846503E0,-9.495078087E0,8.138638139E-1
2.728521046E0,-1.458247542E0,-9.495078087E0,9.042931795E-1
2.730984484E0,-1.434292793E0,-9.542987823E0,7.994909883E-1
2.733447974E0,-1.415128946E0,-9.499869347E0,8.755474091E-1
2.735911463E0,-1.424710870E0,-9.475914001E0,8.474005461E-1
2.738374901E0,-1.544484735E0,-9.442377090E0,8.330276608E-1
2.740838390E0,-1.601976275E0,-9.409440041E0,8.426095843E-1
2.743301880E0,-1.673840642E0,-9.461541176E0,8.426095843E-1
2.745765317E0,-1.730733275E0,-9.499869347E0,8.851293325E-1
2.748228807E0,-1.759479046E0,-9.466332436E0,9.090840816E-1
2.750692244E0,-1.836134315E0,-9.480705261E0,8.713552952E-1
2.753155734E0,-1.888834834E0,-9.523823738E0,8.186547756E-1
2.755619224E0,-1.927162528E0,-9.490286827E0,8.569824696E-1
2.758082661E0,-1.946326375E0,-9.471123695E0,8.138638139E-1
2.760546151E0,-2.027772665E0,-9.499869347E0,7.515813708E-1
2.763009640E0,-2.108619928E0,-9.533405304E0,7.659542561E-1
2.765473078E0,-2.180484295E0,-9.576524734E0,7.803271413E-1
2.767936567E0,-2.233184814E0,-9.576524734E0,7.659542561E-1
2.770400057E0,-2.261930704E0,-9.614851952E0,7.563723326E-1
2.772863494E0,-2.305049181E0,-9.634016037E0,6.701351404E-1
2.775326984E0,-2.367331743E0,-9.662761688E0,5.844967365E-1
2.777790421E0,-2.376913548E0,-9.667552948E0,5.461691022E-1
2.780253911E0,-2.433806181E0,-9.662761688E0,5.413781404E-1
2.782717401E0,-2.438597202E0,-9.677134514E0,5.749148726E-1
2.785180838E0,-2.539207220E0,-9.681925774E0,4.695138037E-1
2.787644328E0,-2.582325935E0,-9.667552948E0,4.886776209E-1
2.790107817E0,-2.577534914E0,-9.686716080E0,4.695138037E-1
2.792571255E0,-2.572743893E0,-9.677134514E0,4.407680631E-1
2.795034744E0,-2.615862608E0,-9.691507339E0,4.072313607E-1
2.797498182E0,-2.658981085E0,-9.643597603E0,3.689036965E-1
2.799961671E0,-2.682935953E0,-9.657970428E0,4.120223224E-1
2.802425161E0,-2.668563128E0,-9.638806343E0,3.503387272E-1
2.804888599E0,-2.702099800E0,-9.614851952E0,3.880675137E-1
2.807352088E0,-2.663772106E0,-9.590897560E0,3.311749101E-1
2.809815578E0,-2.649399281E0,-9.581315041E0,2.641015053E-1
2.812279015E0,-2.572743893E0,-9.610060692E0,3.024291694E-1
2.814742505E0,-2.587116718E0,-9.586106300E0,2.353557646E-1
2.817205942E0,-2.615862608E0,-9.562151909E0,2.209828943E-1
2.819669432E0,-2.491297722E0,-9.547778130E0,2.066100240E-1
2.822132921E0,-2.438597202E0,-9.595687866E0,2.209828943E-1
2.824596359E0,-2.476924896E0,-9.595687866E0,1.443275809E-1
2.827059849E0,-2.414642334E0,-9.581315041E0,1.299547106E-1
2.829523338E0,-2.295467377E0,-9.590897560E0,1.682823747E-1
2.831986776E0,-2.252348661E0,-9.576524734E0,1.874461919E-1
2.834450265E0,-2.233184814E0,-9.624433517E0,2.880562842E-1
2.836913755E0,-2.194857121E0,-9.595687866E0,2.497286350E-1
2.839377192E0,-2.079874277E0,-9.614851952E0,2.976382077E-1
2.841840682E0,-2.003218889E0,-9.624433517E0,3.024291694E-1
2.844304119E0,-1.989444971E0,-9.624433517E0,4.311861396E-1
2.846767609E0,-1.893625736E0,-9.595687866E0,4.359771013E-1
2.849231099E0,-1.845716238E0,-9.581315041E0,5.270052552E-1
2.851694536E0,-1.769060850E0,-9.634016037E0,5.509600639E-1
2.854158026E0,-1.754688025E0,-9.619643211E0,6.180334687E-1
2.856621515E0,-1.759479046E0,-9.667552948E0,6.461803317E-1
2.859084953E0,-1.673241735E0,-9.619643211E0,7.036718130E-1
2.861548442E0,-1.716360331E0,-9.686716080E0,7.899090648E-1
2.864011880E0,-1.568439603E0,-9.715461731E0,8.042819500E-1
2.866475369E0,-1.510948062E0,-9.667552948E0,8.042819500E-1
2.868938859E0,-1.453456640E0,-9.648388863E0,8.330276608E-1
2.871402296E0,-1.376801252E0,-9.701088905E0,8.521915078E-1
2.873865786E0,-1.372010350E0,-9.691507339E0,8.665643334E-1
2.876329276E0,-1.463038564E0,-9.734625816E0,8.665643334E-1
2.878792713E0,-1.443874717E0,-9.701088905E0,9.809484482E-1
2.881256203E0,-1.395965099E0,-9.662761688E0,1.024067044E0
2.883719692E0,-1.415128946E0,-9.715461731E0,1.115095258E0
2.886183130E0,-1.458247542E0,-9.715461731E0,1.110304356E0
2.888646619E0,-1.463038564E0,-9.743609428E0,1.176778793E0
2.891110057E0,-1.515739083E0,-9.705880165E0,1.124677181E0
2.893573546E0,-1.558857679E0,-9.667552948E0,1.167196870E0
2.896037036E0,-1.639705062E0,-9.762772560E0,1.215106487E0
2.898500474E0,-1.663659811E0,-9.725044250E0,1.358835220E0
2.900963963E0,-1.701987505E0,-9.781936646E0,1.979863048E0
2.903427453E0,-2.515252352E0,-9.762772560E0,5.818617344E0
2.905890890E0,-2.285885334E0,-9.805891037E0,3.242280245E0
2.908354380E0,-1.099524617E0,-9.734625816E0,-9.785529971E-1
2.910817817E0,-9.701688290E-1,-9.672343254E0,-5.821012855E-1
2.913281307E0,-1.200134754E0,-9.720252991E0,-6.395927668E-1
2.915744796E0,-1.434292793E0,-9.810682297E0,-4.719092846E-1
2.918208234E0,-1.793015718E0,-9.796309471E0,8.264400810E-2
2.920671724E0,-2.295467377E0,-9.801100731E0,9.474117756E-1
2.923135213E0,-2.409851313E0,-9.725044250E0,1.454055429E0
2.925598651E0,-1.850507140E0,-9.691507339E0,6.653441787E-1
2.928062140E0,-1.573230505E0,-9.834636688E0,7.563723326E-1
2.930525630E0,-1.725942254E0,-9.925664902E0,9.665755630E-1
2.932989067E0,-2.008009911E0,-9.949620247E0,1.272598028E0
2.935452557E0,-2.041546583E0,-9.930456161E0,1.482801199E0
2.937915994E0,-2.027173758E0,-9.896919250E0,1.253434181E0
2.940379484E0,-1.984055161E0,-9.834636688E0,1.171987891E0
2.942842974E0,-2.041546583E0,-9.815473557E0,1.282179832E0
2.945306411E0,-2.065501451E0,-9.815473557E0,1.478010297E0
2.947769901E0,-2.036755562E0,-9.829846382E0,1.736123085E0
2.950233390E0,-2.108619928E0,-9.725044250E0,2.429614067E0
2.952696828E0,-2.223603010E0,-9.853800774E0,3.060223818E0
2.955160317E0,-2.132574797E0,-9.734625816E0,5.557510257E-1
2.957623755E0,-2.008009911E0,-9.395067215E0,-1.738518596E0
2.960087244E0,-1.869670987E0,-9.246546745E0,-1.991840363E0
2.962550734E0,-1.840925217E0,-9.036343575E0,-1.781637192E0
2.965014171E0,-1.764269948E0,-9.055507660E0,-1.456450939E0
2.967477661E0,-1.639705062E0,-9.337574959E0,-1.021671653E0
2.969941151E0,-1.711569428E0,-9.461541176E0,-5.581464767E-1
2.972404588E0,-1.869670987E0,-9.471123695E0,-1.042033136E-1
2.974868078E0,-2.055919409E0,-9.409440041E0,4.120223224E-1
2.977331515E0,-2.237975836E0,-9.380694389E0,5.317962170E-1
2.979795005E0,-2.414642334E0,-9.351947784E0,6.845079660E-1
2.982258494E0,-2.472133875E0,-9.366321564E0,9.186660051E-1
2.984721932E0,-2.534416199E0,-9.385484695E0,9.761574864E-1
2.987185421E0,-2.582325935E0,-9.395067215E0,9.617846608E-1
2.989648911E0,-2.577534914E0,-9.399857521E0,1.062394738E0
2.992112349E0,-2.558371067E0,-9.399857521E0,1.115095258E0
2.994575838E0,-2.611071587E0,-9.447767258E0,1.081558585E0
2.997039328E0,-2.567953110E0,-9.414230347E0,1.019276142E0
2.999502765E0,-2.572743893E0,-9.414230347E0,1.004903197E0
3.001966255E0,-2.558371067E0,-9.442975998E0,9.857394099E-1
3.004429692E0,-2.520043373E0,-9.414230347E0,8.713552952E-1
3.006893182E0,-2.563162088E0,-9.428603172E0,8.330276608E-1
3.009356671E0,-2.567953110E0,-9.428603172E0,8.186547756E-1
3.011820109E0,-2.596698761E0,-9.395067215E0,7.036718130E-1
3.014283599E0,-2.611071587E0,-9.371111870E0,6.467791796E-1
3.016747088E0,-2.596698761E0,-9.366321564E0,6.605532169E-1
3.019210526E0,-2.620653629E0,-9.308829308E0,6.515701413E-1
3.021674015E0,-2.548789263E0,-9.371111870E0,6.371973157E-1
3.024137453E0,-2.505670547E0,-9.414230347E0,6.988808513E-1
3.026600942E0,-2.520043373E0,-9.433394432E0,7.899090648E-1
3.029064432E0,-2.486506701E0,-9.433394432E0,7.180446982E-1
3.031527869E0,-2.491297722E0,-9.404648781E0,6.419882774E-1
3.033991359E0,-2.405060530E0,-9.466332436E0,6.749261022E-1
3.036454849E0,-2.390687704E0,-9.480705261E0,6.988808513E-1
3.038918286E0,-2.443388224E0,-9.428603172E0,7.228356600E-1
3.041381776E0,-2.400269508E0,-9.438185692E0,7.707452178E-1
3.043845265E0,-2.299659491E0,-9.428603172E0,7.947000265E-1
3.046308703E0,-2.299659491E0,-9.447767258E0,7.947000265E-1
3.048772192E0,-2.275704622E0,-9.485496521E0,8.521915078E-1
3.051235630E0,-2.199648142E0,-9.523823738E0,8.761462569E-1
3.053699119E0,-2.166111469E0,-9.547778130E0,8.330276608E-1
3.056162609E0,-2.156529665E0,-9.538196564E0,8.857281804E-1
3.058626046E0,-2.146947622E0,-9.547778130E0,9.378298521E-1
3.061089536E0,-2.194857121E0,-9.519032478E0,9.282479286E-1
3.063553026E0,-2.161320448E0,-9.610060692E0,8.905191422E-1
3.066016463E0,-2.118201971E0,-9.662761688E0,8.857281804E-1
3.068479953E0,-2.122992754E0,-9.624433517E0,8.905191422E-1
3.070943390E0,-2.156529665E0,-9.691507339E0,8.042819500E-1
3.073406880E0,-2.185275316E0,-9.681925774E0,8.186547756E-1
3.075870369E0,-2.175693274E0,-9.686716080E0,8.378186226E-1
3.078333807E0,-2.175693274E0,-9.614851952E0,8.474005461E-1
3.080797296E0,-2.156529665E0,-9.614851952E0,8.426095843E-1
3.083260786E0,-2.166111469E0,-9.619643211E0,8.330276608E-1
3.085724224E0,-2.180484295E0,-9.610060692E0,8.330276608E-1
3.088187713E0,-2.190066338E0,-9.566942215E0,8.521915078E-1
3.090651203E0,-2.199648142E0,-9.571733475E0,8.474005461E-1
3.093114640E0,-2.209230185E0,-9.576524734E0,8.809372187E-1
3.095578130E0,-2.185275316E0,-9.610060692E0,8.378186226E-1
3.098041567E0,-2.194857121E0,-9.562151909E0,8.665643334E-1
3.100505057E0,-2.180484295E0,-9.566942215E0,8.761462569E-1
3.102968546E0,-2.190066338E0,-9.600479126E0,8.953101039E-1
3.105431984E0,-2.204439163E0,-9.624433517E0,8.665643334E-1
3.107895474E0,-2.166111469E0,-9.614851952E0,8.569824696E-1
3.110358963E0,-2.113410950E0,-9.648388863E0,8.905191422E-1
3.112822401E0,-2.132574797E0,-9.672343254E0,7.994909883E-1
3.115285890E0,-2.166111469E0,-9.662761688E0,7.563723326E-1
3.117749328E0,-2.122992754E0,-9.691507339E0,7.132537365E-1
3.120212817E0,-2.132574797E0,-9.701088905E0,6.845079660E-1
3.122676307E0,-2.175693274E0,-9.705880165E0,7.132537365E-1
3.125139744E0,-2.161320448E0,-9.710671425E0,6.611520648E-1
3.127603234E0,-2.175693274E0,-9.715461731E0,6.749261022E-1
3.130066724E0,-2.175693274E0,-9.662761688E0,5.557510257E-1
3.132530161E0,-2.118201971E0,-9.657970428E0,5.509600639E-1
3.134993651E0,-2.089456081E0,-9.619643211E0,6.228244305E-1
3.137457088E0,-2.127783775E0,-9.610060692E0,5.174233913E-1
3.139920578E0,-2.055919409E0,-9.648388863E0,4.743047655E-1
3.142384067E0,-2.017591715E0,-9.629224777E0,4.503499568E-1
3.144847505E0,-2.017591715E0,-9.634016037E0,4.743047655E-1
3.147310994E0,-2.003218889E0,-9.538196564E0,4.359771013E-1
3.149774484E0,-1.940936446E0,-9.600479126E0,4.503499568E-1
3.152237921E0,-1.897817850E0,-9.581315041E0,4.503499568E-1
3.154701411E0,-1.869670987E0,-9.600479126E0,4.934685826E-1
3.157164901E0,-1.860089064E0,-9.619643211E0,5.365871787E-1
3.159628338E0,-1.812179565E0,-9.614851952E0,5.461691022E-1
3.162091828E0,-1.764269948E0,-9.619643211E0,4.838866591E-1
3.164555265E0,-1.701987505E0,-9.624433517E0,5.078414679E-1
3.167018755E0,-1.721151352E0,-9.648388863E0,5.749148726E-1
3.169482244E0,-1.682823658E0,-9.657970428E0,5.988696218E-1
3.171945682E0,-1.668450832E0,-9.662761688E0,5.844967365E-1
3.174409171E0,-1.663659811E0,-9.705880165E0,6.084515452E-1
3.176872661E0,-1.644495964E0,-9.705880165E0,6.371973157E-1
3.179336099E0,-1.582213521E0,-9.686716080E0,6.084515452E-1
3.181799588E0,-1.567840695E0,-9.677134514E0,5.797058344E-1
3.184263026E0,-1.582213521E0,-9.725044250E0,5.461691022E-1
3.186726515E0,-1.567840695E0,-9.720252991E0,5.844967365E-1
3.189190005E0,-1.539094925E0,-9.681925774E0,6.515701413E-1
3.191653442E0,-1.529513001E0,-9.720252991E0,5.844967365E-1
3.194116932E0,-1.519931078E0,-9.691507339E0,6.276153922E-1
3.196580421E0,-1.548676848E0,-9.710671425E0,5.509600639E-1
3.199043859E0,-1.548676848E0,-9.748998642E0,5.126324296E-1
3.201507349E0,-1.529513001E0,-9.772953987E0,5.270052552E-1
3.203970838E0,-1.539094925E0,-9.772953987E0,5.797058344E-1
3.206434276E0,-1.601377368E0,-9.753789902E0,5.126324296E-1
3.208897765E0,-1.587004542E0,-9.796309471E0,5.509600639E-1
3.211361203E0,-1.577422619E0,-9.781936646E0,4.934685826E-1
3.213824692E0,-1.563049793E0,-9.768162727E0,3.838754296E-1
3.216288182E0,-1.606168389E0,-9.763371468E0,4.263951778E-1
3.218751619E0,-1.725942254E0,-9.634016037E0,4.030392766E-1
3.221215109E0,-1.730733275E0,-9.662761688E0,3.120110929E-1
3.223678599E0,-1.644495964E0,-9.863383293E0,3.215929866E-1
3.226142088E0,-1.620541215E0,-9.892128944E0,2.976382077E-1
3.228605578E0,-1.692405581E0,-9.863383293E0,2.784743905E-1
3.231069067E0,-1.735524178E0,-9.786727905E0,2.209828943E-1
3.233532557E0,-1.783433795E0,-9.786727905E0,2.161919326E-1
3.235996046E0,-1.854699254E0,-9.744207382E0,2.593105435E-1
3.238459536E0,-1.816970468E0,-9.782535553E0,2.593105435E-1
3.240923026E0,-1.807388544E0,-9.715461731E0,2.209828943E-1
3.243386515E0,-1.845117331E0,-9.715461731E0,2.018190622E-1
3.245850005E0,-1.821761489E0,-9.748998642E0,2.736834288E-1
3.248313494E0,-1.921772718E0,-9.677134514E0,2.353557646E-1
3.250776984E0,-1.916981697E0,-9.614851952E0,2.018190622E-1
3.253240474E0,-1.893026948E0,-9.590897560E0,2.449376881E-1
3.255703963E0,-1.793015718E0,-9.744207382E0,2.688924670E-1
3.258167401E0,-1.845117331E0,-9.725044250E0,2.880562842E-1
3.260630890E0,-1.931354523E0,-9.610060692E0,2.976382077E-1
3.263094380E0,-1.897817850E0,-9.571733475E0,2.976382077E-1
3.265557869E0,-1.926563621E0,-9.590897560E0,3.311749101E-1
3.268021359E0,-1.974473238E0,-9.586106300E0,3.359658718E-1
3.270484849E0,-1.979264140E0,-9.605270386E0,3.838754296E-1
3.272948338E0,-1.979264140E0,-9.528614998E0,3.934573531E-1
3.275411828E0,-1.998427987E0,-9.481304169E0,3.455477655E-1
3.277875317E0,-2.036755562E0,-9.523823738E0,3.359658718E-1
3.280338807E0,-2.046337605E0,-9.476512909E0,4.030392766E-1
3.282802296E0,-2.036755562E0,-9.433394432E0,3.407568336E-1
3.285265786E0,-2.070292234E0,-9.442975998E0,3.647116125E-1
3.287729276E0,-2.075083256E0,-9.399857521E0,3.934573531E-1
3.290192765E0,-2.075083256E0,-9.404648781E0,3.503387272E-1
3.292656255E0,-2.099038124E0,-9.438185692E0,3.407568336E-1
3.295119744E0,-2.084665298E0,-9.385484695E0,4.030392766E-1
3.297583234E0,-2.118201971E0,-9.419021606E0,4.030392766E-1
3.300046724E0,-2.084665298E0,-9.471722603E0,3.886663914E-1
3.302510161E0,-2.046337605E0,-9.523823738E0,4.838866591E-1
3.304973651E0,-2.084665298E0,-9.523823738E0,5.030505061E-1
3.307437140E0,-2.103829145E0,-9.542987823E0,4.503499568E-1
3.309900630E0,-2.089456081E0,-9.533405304E0,5.030505061E-1
3.312364119E0,-2.099038124E0,-9.590897560E0,5.605419874E-1
3.314827609E0,-2.184676409E0,-9.581315041E0,5.413781404E-1
3.317291099E0,-2.161320448E0,-9.542987823E0,5.126324296E-1
3.319754588E0,-2.142156601E0,-9.538196564E0,6.180334687E-1
3.322218078E0,-2.170303583E0,-9.557360649E0,6.803159118E-1
3.324681567E0,-2.203840256E0,-9.523823738E0,6.467791796E-1
3.327145057E0,-2.218213081E0,-9.576524734E0,6.563611031E-1
3.329608546E0,-2.208631277E0,-9.610060692E0,6.515701413E-1
3.332072036E0,-2.208631277E0,-9.571733475E0,6.755249500E-1
3.334535526E0,-2.256540775E0,-9.576524734E0,6.898978353E-1
3.336999015E0,-2.261331797E0,-9.552569389E0,7.132537365E-1
3.339462505E0,-2.251749754E0,-9.547778130E0,6.988808513E-1
3.341925994E0,-2.299659491E0,-9.528614998E0,6.419882774E-1
3.344389484E0,-2.309241295E0,-9.514242172E0,6.659430265E-1
3.346852974E0,-2.290077448E0,-9.514242172E0,5.797058344E-1
3.349316411E0,-2.309241295E0,-9.509450912E0,5.797058344E-1
3.351779901E0,-2.342777967E0,-9.471722603E0,4.982595444E-1
3.354243390E0,-2.299659491E0,-9.514242172E0,4.886776209E-1
3.356706880E0,-2.309241295E0,-9.538196564E0,5.078414679E-1
3.359170369E0,-2.323614120E0,-9.499869347E0,4.599318802E-1
3.361633859E0,-2.371523857E0,-9.499869347E0,3.551296890E-1
3.364097349E0,-2.385896683E0,-9.523823738E0,3.407568336E-1
3.366560838E0,-2.357150793E0,-9.486095428E0,3.407568336E-1
3.369024328E0,-2.266122818E0,-9.495676994E0,3.263839483E-1
3.371487817E0,-2.285286427E0,-9.481304169E0,2.784743905E-1
3.373951307E0,-2.299659491E0,-9.499869347E0,1.970281154E-1
3.376414796E0,-2.275704622E0,-9.452558517E0,1.922371536E-1
3.378878286E0,-2.266122818E0,-9.395067215E0,2.018190622E-1
3.381341776E0,-2.218213081E0,-9.447767258E0,9.701687843E-2
3.383805265E0,-2.189467430E0,-9.423812866E0,1.257626265E-1
3.386268755E0,-2.170303583E0,-9.438185692E0,6.348018348E-2
3.388732244E0,-2.179885387E0,-9.351947784E0,1.305535734E-1
3.391195734E0,-2.094247103E0,-9.414230347E0,1.257626265E-1
3.393659171E0,-2.041546583E0,-9.409440041E0,7.785305381E-2
3.396122661E0,-2.041546583E0,-9.438185692E0,2.515252493E-2
3.398586151E0,-2.055919409E0,-9.395067215E0,8.743496984E-2
3.401049640E0,-2.041546583E0,-9.366321564E0,1.592993289E-1
3.403513130E0,-1.974473238E0,-9.395067215E0,1.592993289E-1
3.405976619E0,-1.921772718E0,-9.433394432E0,1.640902758E-1
3.408440109E0,-1.888235927E0,-9.442975998E0,9.701687843E-2
3.410903599E0,-1.825953484E0,-9.452558517E0,1.305535734E-1
3.413367088E0,-1.821162581E0,-9.423812866E0,5.868922547E-2
3.415830578E0,-1.821162581E0,-9.452558517E0,1.113897488E-1
3.418294067E0,-1.778043985E0,-9.457348824E0,9.222592413E-2
3.420757557E0,-1.725942254E0,-9.538196564E0,4.910730943E-2
3.423221046E0,-1.740315199E0,-9.614851952E0,2.036156692E-2
3.425684536E0,-1.740315199E0,-9.619643211E0,4.431635141E-2
3.428148026E0,-1.701987505E0,-9.634016037E0,1.018078402E-1
3.430611515E0,-1.687614679E0,-9.715461731E0,1.018078402E-1
3.433075005E0,-1.730733275E0,-9.787326813E0,4.910730943E-2
3.435538494E0,-1.673241735E0,-9.834636688E0,6.827113777E-2
3.438001932E0,-1.673241735E0,-9.882546425E0,1.305535734E-1
3.440465421E0,-1.634914160E0,-9.963993073E0,1.592993289E-1
3.442928911E0,-1.577422619E0,-9.978365898E0,1.497174054E-1
3.445392401E0,-1.615750313E0,-1.001669312E1,2.018190622E-1
3.447855890E0,-1.601377368E0,-1.000232029E1,2.449376881E-1
3.450319380E0,-1.543885946E0,-1.002627563E1,2.784743905E-1
3.452782869E0,-1.539094925E0,-1.008376694E1,2.784743905E-1
3.455246359E0,-1.481603503E0,-1.006939411E1,2.880562842E-1
3.457709849E0,-1.419321060E0,-1.007897568E1,3.024291694E-1
3.460173338E0,-1.438484907E0,-1.007418537E1,3.168020248E-1
3.462636828E0,-1.448066831E0,-1.006939411E1,3.647116125E-1
3.465100317E0,-1.472021580E0,-1.001190281E1,3.599206507E-1
3.467563807E0,-1.491185427E0,-9.968784332E0,4.222030938E-1
3.470027296E0,-1.452857733E0,-9.892128944E0,4.222030938E-1
3.472490786E0,-1.476812482E0,-9.896919250E0,4.269940555E-1
3.474954276E0,-1.476812482E0,-9.863383293E0,4.078302085E-1
3.477417765E0,-1.519931078E0,-9.758581161E0,3.742935359E-1
3.479881255E0,-1.558258772E0,-9.748998642E0,3.742935359E-1
3.482344692E0,-1.591795444E0,-9.758581161E0,4.599318802E-1
3.484808182E0,-1.625332236E0,-9.734625816E0,4.222030938E-1
3.487271671E0,-1.634914160E0,-9.753789902E0,3.455477655E-1
3.489735161E0,-1.711569428E0,-9.753789902E0,2.832653522E-1
3.492198651E0,-1.706778407E0,-9.677134514E0,3.072201312E-1
3.494662140E0,-1.768462062E0,-9.744207382E0,3.695025742E-1
3.497125630E0,-1.763671041E0,-9.701088905E0,3.263839483E-1
3.499589119E0,-1.716360331E0,-9.629224777E0,3.311749101E-1
3.502052609E0,-1.730134368E0,-9.581315041E0,2.593105435E-1
3.504516099E0,-1.778043985E0,-9.619643211E0,3.120110929E-1
3.506979588E0,-1.749298215E0,-9.581315041E0,2.641015053E-1
3.509443078E0,-1.754089117E0,-9.576524734E0,3.024291694E-1
3.511906567E0,-1.687614679E0,-9.566942215E0,3.407568336E-1
3.514370057E0,-1.668450832E0,-9.581315041E0,2.832653522E-1
3.516833546E0,-1.610959291E0,-9.581315041E0,2.593105435E-1
3.519297036E0,-1.596586466E0,-9.562151909E0,2.353557646E-1
3.521760526E0,-1.591795444E0,-9.566942215E0,2.880562842E-1
3.524224015E0,-1.610959291E0,-9.519032478E0,2.497286350E-1
3.526687505E0,-1.596586466E0,-9.557360649E0,2.114009857E-1
3.529150942E0,-1.587004542E0,-9.557360649E0,2.114009857E-1
3.531614432E0,-1.587004542E0,-9.514242172E0,2.449376881E-1
3.534077921E0,-1.615750313E0,-9.538196564E0,2.688924670E-1
3.536541411E0,-1.625332236E0,-9.557360649E0,2.401467264E-1
3.539004901E0,-1.639705062E0,-9.566942215E0,1.832541078E-1
3.541468390E0,-1.596586466E0,-9.576524734E0,2.018190622E-1
3.543931880E0,-1.596586466E0,-9.528614998E0,2.401467264E-1
3.546395369E0,-1.634914160E0,-9.528614998E0,2.353557646E-1
3.548858859E0,-1.572631717E0,-9.581315041E0,1.688812375E-1
3.551322349E0,-1.543885946E0,-9.566942215E0,1.976269782E-1
3.553785838E0,-1.558258772E0,-9.547778130E0,1.928360164E-1
3.556249328E0,-1.534304023E0,-9.590897560E0,1.688812375E-1
3.558712817E0,-1.558258772E0,-9.648388863E0,1.497174054E-1
3.561176307E0,-1.596586466E0,-9.686716080E0,1.832541078E-1
3.563639796E0,-1.591795444E0,-9.696298599E0,1.880450696E-1
3.566103286E0,-1.548676848E0,-9.686716080E0,2.545195818E-1
3.568566776E0,-1.548676848E0,-9.734625816E0,2.353557646E-1
3.571030265E0,-1.539094925E0,-9.782535553E0,2.066100240E-1
3.573493703E0,-1.582213521E0,-9.772953987E0,2.066100240E-1
3.575957192E0,-1.601377368E0,-9.806489944E0,2.497286350E-1
3.578420682E0,-1.615750313E0,-9.816072464E0,1.880450696E-1
3.580884171E0,-1.663659811E0,-9.829846382E0,2.353557646E-1
3.583347661E0,-1.673241735E0,-9.853800774E0,1.832541078E-1
3.585811151E0,-1.734925389E0,-9.820862770E0,1.976269782E-1
3.588274640E0,-1.730134368E0,-9.863383293E0,1.449264586E-1
3.590738130E0,-1.715761542E0,-9.825055122E0,1.305535734E-1
3.593201619E0,-1.706179619E0,-9.748998642E0,1.784631461E-1
3.595665109E0,-1.825953484E0,-9.753789902E0,2.497286350E-1
3.598128599E0,-1.811580658E0,-9.792117119E0,2.928472459E-1
3.600592088E0,-1.835535407E0,-9.734625816E0,3.455477655E-1
3.603055578E0,-1.830744505E0,-9.653180122E0,2.641015053E-1
3.605519067E0,-1.816371560E0,-9.648388863E0,2.449376881E-1
3.607982557E0,-1.835535407E0,-9.610060692E0,2.832653522E-1
3.610446046E0,-1.816371560E0,-9.600479126E0,3.551296890E-1
3.612909536E0,-1.806789637E0,-9.653180122E0,3.886663914E-1
3.615373026E0,-1.811580658E0,-9.653180122E0,4.695138037E-1
3.617836463E0,-1.806789637E0,-9.605270386E0,4.413669109E-1
3.620299953E0,-1.821162581E0,-9.605270386E0,4.126211703E-1
3.622763442E0,-1.816371560E0,-9.571733475E0,4.790956974E-1
3.625226932E0,-1.811580658E0,-9.590897560E0,4.461578727E-1
3.627690421E0,-1.739716291E0,-9.566942215E0,4.743047655E-1
3.630153911E0,-1.768462062E0,-9.566942215E0,4.174121320E-1
3.632617401E0,-1.801998734E0,-9.610060692E0,4.317850173E-1
3.635080890E0,-1.754089117E0,-9.571733475E0,3.934573531E-1
3.637544380E0,-1.734925389E0,-9.590897560E0,4.509488344E-1
3.640007869E0,-1.773252964E0,-9.586106300E0,4.413669109E-1
3.642471359E0,-1.730134368E0,-9.619643211E0,3.790844679E-1
3.644934849E0,-1.754089117E0,-9.571733475E0,3.551296890E-1
3.647398338E0,-1.792416811E0,-9.610060692E0,3.599206507E-1
3.649861828E0,-1.725343466E0,-9.696298599E0,3.263839483E-1
3.652325317E0,-1.763671041E0,-9.662761688E0,3.407568336E-1
3.654788807E0,-1.744507194E0,-9.672343254E0,2.688924670E-1
3.657252296E0,-1.706179619E0,-9.672343254E0,2.545195818E-1
3.659715786E0,-1.734925389E0,-9.710671425E0,2.114009857E-1
3.662179224E0,-1.744507194E0,-9.681925774E0,3.263839483E-1
3.664642713E0,-1.725343466E0,-9.705880165E0,3.599206507E-1
3.667106203E0,-1.715761542E0,-9.705880165E0,2.928472459E-1
3.669569692E0,-1.763671041E0,-9.744207382E0,3.311749101E-1
3.672033182E0,-1.749298215E0,-9.705880165E0,3.982483149E-1
3.674496671E0,-1.730134368E0,-9.710671425E0,3.215929866E-1
3.676960161E0,-1.768462062E0,-9.696298599E0,3.503387272E-1
3.679423651E0,-1.797207832E0,-9.667552948E0,3.742935359E-1
3.681887140E0,-1.773252964E0,-9.672343254E0,4.174121320E-1
3.684350630E0,-1.734925389E0,-9.667552948E0,4.509488344E-1
3.686814119E0,-1.773252964E0,-9.653180122E0,3.407568336E-1
3.689277609E0,-1.825953484E0,-9.614851952E0,3.599206507E-1
3.691741099E0,-1.859490275E0,-9.648388863E0,3.742935359E-1
3.694204588E0,-1.897817850E0,-9.677134514E0,3.551296890E-1
3.696668078E0,-1.902608871E0,-9.533405304E0,4.030392766E-1
3.699131567E0,-1.931354523E0,-9.552569389E0,3.742935359E-1
3.701595057E0,-1.912190795E0,-9.552569389E0,3.359658718E-1
3.704058546E0,-1.897817850E0,-9.586106300E0,2.736834288E-1
3.706522036E0,-1.988846064E0,-9.576524734E0,3.072201312E-1
3.708985474E0,-1.974473238E0,-9.566942215E0,2.928472459E-1
3.711448963E0,-1.984055161E0,-9.552569389E0,3.263839483E-1
3.713912453E0,-2.026574850E0,-9.538196564E0,3.311749101E-1
3.716375942E0,-2.031365871E0,-9.581315041E0,3.790844679E-1
3.718839328E0,-1.969682217E0,-9.590897560E0,3.790844679E-1
3.721302765E0,-1.931354523E0,-9.586106300E0,2.976382077E-1
3.723766151E0,-1.984055161E0,-9.629224777E0,3.072201312E-1
3.726229588E0,-1.926563621E0,-9.614851952E0,2.880562842E-1
3.728692974E0,-1.979264140E0,-9.610060692E0,3.072201312E-1
3.731156411E0,-1.945727468E0,-9.619643211E0,3.503387272E-1
3.733619849E0,-1.955309391E0,-9.653180122E0,3.215929866E-1
3.736083234E0,-1.974473238E0,-9.634016037E0,3.838754296E-1
3.738546671E0,-1.984055161E0,-9.634016037E0,3.647116125E-1
3.741010057E0,-1.969682217E0,-9.696298599E0,4.365759790E-1
3.743473494E0,-1.945727468E0,-9.701088905E0,4.838866591E-1
3.745936932E0,-1.931354523E0,-9.667552948E0,4.749036133E-1
3.748400317E0,-1.907399774E0,-9.686716080E0,4.509488344E-1
3.750863755E0,-1.950518370E0,-9.681925774E0,4.413669109E-1
3.753327140E0,-1.931354523E0,-9.657970428E0,4.653217196E-1
3.755790578E0,-1.835535407E0,-9.662761688E0,4.509488344E-1
3.758254015E0,-1.821162581E0,-9.643597603E0,4.653217196E-1
3.760717401E0,-1.854699254E0,-9.614851952E0,5.557510257E-1
3.763180838E0,-1.787625909E0,-9.638806343E0,5.222142935E-1
3.765644224E0,-1.763671041E0,-9.672343254E0,4.749036133E-1
3.768107661E0,-1.754089117E0,-9.667552948E0,3.934573531E-1
3.770571099E0,-1.758880138E0,-9.624433517E0,5.078414679E-1
3.773034484E0,-1.806789637E0,-9.576524734E0,5.222142935E-1
3.775497921E0,-1.768462062E0,-9.581315041E0,4.701126516E-1
3.777961307E0,-1.763671041E0,-9.629224777E0,4.605307579E-1
3.780424744E0,-1.758880138E0,-9.619643211E0,5.892876983E-1
3.782888182E0,-1.720552444E0,-9.643597603E0,5.701239109E-1
3.785351567E0,-1.763671041E0,-9.681925774E0,4.886776209E-1
3.787815005E0,-1.739716291E0,-9.691507339E0,4.557397962E-1
3.790278390E0,-1.782834888E0,-9.648388863E0,4.509488344E-1
3.792741828E0,-1.768462062E0,-9.681925774E0,3.695025742E-1
3.795205265E0,-1.768462062E0,-9.748998642E0,4.653217196E-1
3.797668651E0,-1.811580658E0,-9.782535553E0,4.557397962E-1
3.800132088E0,-1.801998734E0,-9.801699638E0,4.317850173E-1
3.802595474E0,-1.792416811E0,-9.801699638E0,4.982595444E-1
3.805058911E0,-1.782834888E0,-9.782535553E0,4.509488344E-1
3.807522349E0,-1.749298215E0,-9.806489944E0,4.461578727E-1
3.809985734E0,-1.720552444E0,-9.835235596E0,3.934573531E-1
3.812449171E0,-1.778043985E0,-9.825654030E0,3.790844679E-1
3.814912557E0,-1.778043985E0,-9.825654030E0,3.982483149E-1
3.817375994E0,-1.825953484E0,-9.863383293E0,4.509488344E-1
3.819839432E0,-1.835535407E0,-9.820862770E0,4.317850173E-1
3.822302817E0,-1.859490275E0,-9.835235596E0,4.461578727E-1
3.824766255E0,-1.806789637E0,-9.844818115E0,4.796945751E-1
3.827229640E0,-1.825953484E0,-9.820862770E0,5.030505061E-1
3.829693078E0,-1.854699254E0,-9.801699638E0,5.078414679E-1
3.832156515E0,-1.859490275E0,-9.796908379E0,4.653217196E-1
3.834619901E0,-1.864281178E0,-9.763371468E0,4.605307579E-1
3.837083338E0,-1.916981697E0,-9.739417076E0,4.796945751E-1
3.839546724E0,-2.002619982E0,-9.734625816E0,4.940674603E-1
3.842010161E0,-1.954710484E0,-9.705880165E0,5.270052552E-1
3.844473599E0,-1.931354523E0,-9.729834557E0,5.174233913E-1
3.846936984E0,-1.954710484E0,-9.739417076E0,5.365871787E-1
3.849400421E0,-1.954710484E0,-9.720252991E0,5.797058344E-1
3.851863807E0,-1.973874331E0,-9.739417076E0,4.796945751E-1
3.854327244E0,-2.002619982E0,-9.744207382E0,4.365759790E-1
3.856790630E0,-2.021783829E0,-9.681925774E0,4.940674603E-1
3.859254067E0,-2.026574850E0,-9.720252991E0,4.844855368E-1
3.861717505E0,-2.040947676E0,-9.734625816E0,4.269940555E-1
3.864180890E0,-2.026574850E0,-9.677134514E0,4.701126516E-1
3.866644328E0,-2.026574850E0,-9.677134514E0,4.413669109E-1
3.869107713E0,-2.045738697E0,-9.648388863E0,3.982483149E-1
3.871571151E0,-2.084066391E0,-9.662761688E0,4.509488344E-1
3.874034588E0,-2.122394085E0,-9.653180122E0,4.126211703E-1
3.876497974E0,-2.103230238E0,-9.657970428E0,3.790844679E-1
3.878961411E0,-2.155930758E0,-9.643597603E0,4.413669109E-1
3.881424796E0,-2.175094604E0,-9.624433517E0,4.269940555E-1
3.883888234E0,-2.170303583E0,-9.648388863E0,3.934573531E-1
3.886351671E0,-2.165512562E0,-9.610060692E0,3.742935359E-1
3.888815057E0,-2.160721540E0,-9.586106300E0,3.982483149E-1
3.891278494E0,-2.179885387E0,-9.600479126E0,4.030392766E-1
3.893741880E0,-2.141557932E0,-9.553168297E0,4.365759790E-1
3.896205317E0,-2.079275370E0,-9.538795471E0,4.222030938E-1
3.898668755E0,-2.136766911E0,-9.486095428E0,4.988583922E-1
3.901132140E0,-2.084066391E0,-9.514841080E0,4.413669109E-1
3.903595578E0,-2.026574850E0,-9.534004211E0,4.940674603E-1
3.906058963E0,-1.997829080E0,-9.571733475E0,5.078414679E-1
3.908522401E0,-2.002619982E0,-9.566942215E0,4.701126516E-1
3.910985838E0,-1.959501505E0,-9.566942215E0,4.509488344E-1
3.913449224E0,-1.940337658E0,-9.548377037E0,5.078414679E-1
3.915912661E0,-1.925964713E0,-9.566942215E0,5.270052552E-1
3.918376046E0,-1.897817850E0,-9.629224777E0,5.126324296E-1
3.920839484E0,-1.859490275E0,-9.610060692E0,4.844855368E-1
3.923302921E0,-1.801998734E0,-9.624433517E0,5.270052552E-1
3.925766307E0,-1.835535407E0,-9.648388863E0,5.413781404E-1
3.928229744E0,-1.811580658E0,-9.657970428E0,5.036493540E-1
3.930693130E0,-1.768462062E0,-9.677134514E0,4.701126516E-1
3.933156567E0,-1.734925389E0,-9.667552948E0,4.461578727E-1
3.935620005E0,-1.797207832E0,-9.672343254E0,4.461578727E-1
3.938083390E0,-1.782834888E0,-9.701088905E0,4.317850173E-1
3.940546828E0,-1.773252964E0,-9.720252991E0,4.030392766E-1
3.943010213E0,-1.758880138E0,-9.772953987E0,4.078302085E-1
3.945473651E0,-1.768462062E0,-9.734625816E0,4.269940555E-1
3.947937088E0,-1.811580658E0,-9.681925774E0,4.844855368E-1
3.950400474E0,-1.730134368E0,-9.710671425E0,4.269940555E-1
3.952863911E0,-1.768462062E0,-9.715461731E0,4.365759790E-1
3.955327296E0,-1.792416811E0,-9.696298599E0,4.796945751E-1
3.957790734E0,-1.797207832E0,-9.686716080E0,5.222142935E-1
3.960254171E0,-1.773252964E0,-9.657970428E0,5.084403157E-1
3.962717557E0,-1.782834888E0,-9.677134514E0,5.270052552E-1
3.965180994E0,-1.797207832E0,-9.677134514E0,5.557510257E-1
3.967644380E0,-1.825953484E0,-9.681925774E0,5.988696218E-1
3.970107817E0,-1.821162581E0,-9.662761688E0,5.509600639E-1
3.972571255E0,-1.811580658E0,-9.648388863E0,5.701239109E-1
3.975034640E0,-1.816371560E0,-9.667552948E0,5.509600639E-1
3.977498078E0,-1.811580658E0,-9.662761688E0,5.988696218E-1
3.979961463E0,-1.816371560E0,-9.643597603E0,5.749148726E-1
3.982424901E0,-1.849908352E0,-9.657970428E0,5.988696218E-1
3.984888286E0,-1.859490275E0,-9.638806343E0,5.749148726E-1
3.987351724E0,-1.821162581E0,-9.624433517E0,5.940786600E-1
3.989815161E0,-1.821162581E0,-9.672343254E0,5.892876983E-1
3.992278546E0,-1.859490275E0,-9.681925774E0,5.749148726E-1
3.994741984E0,-1.873863101E0,-9.653180122E0,5.701239109E-1
3.997205369E0,-1.825953484E0,-9.605270386E0,5.509600639E-1
3.999668807E0,-1.887637138E0,-9.600479126E0,5.461691022E-1
4.002132244E0,-1.873863101E0,-9.610060692E0,5.222142935E-1
4.004595630E0,-1.859490275E0,-9.581315041E0,5.132312775E-1
4.007059067E0,-1.882846117E0,-9.686716080E0,5.701239109E-1
4.009522453E0,-1.897219062E0,-9.614851952E0,5.988696218E-1
4.011985890E0,-1.892428041E0,-9.605270386E0,5.940786600E-1
4.014449328E0,-1.911591887E0,-9.624433517E0,4.988583922E-1
4.016912713E0,-1.955908179E0,-9.605270386E0,5.365871787E-1
4.019376151E0,-1.941535354E0,-9.562151909E0,5.461691022E-1
4.021839536E0,-1.898416758E0,-9.624433517E0,4.790956974E-1
4.024302974E0,-1.903207660E0,-9.619643211E0,4.024403989E-1
4.026766411E0,-1.927162528E0,-9.624433517E0,4.599318802E-1
4.029229796E0,-1.917580605E0,-9.619643211E0,5.030505061E-1
4.031693234E0,-1.860089064E0,-9.638806343E0,3.976494372E-1
4.034156619E0,-1.907998681E0,-9.610060692E0,4.359771013E-1
4.036620057E0,-1.888834834E0,-9.590897560E0,4.695138037E-1
4.039083494E0,-1.869670987E0,-9.576524734E0,4.311861396E-1
4.041546880E0,-1.898416758E0,-9.610060692E0,3.689036965E-1
4.044010317E0,-1.893625736E0,-9.614851952E0,4.120223224E-1
4.046473703E0,-1.888834834E0,-9.605270386E0,4.311861396E-1
4.048937140E0,-1.874462008E0,-9.624433517E0,3.599206507E-1
4.051400578E0,-1.864880085E0,-9.614851952E0,3.784856200E-1
4.053863963E0,-1.888834834E0,-9.605270386E0,3.263839483E-1
4.056327401E0,-1.922371507E0,-9.600479126E0,3.120110929E-1
4.058790786E0,-1.955908179E0,-9.624433517E0,2.880562842E-1
4.061254224E0,-1.931953430E0,-9.600479126E0,3.736946583E-1
4.063717661E0,-2.008608818E0,-9.614851952E0,3.359658718E-1
4.066181046E0,-2.008608818E0,-9.634016037E0,3.168020248E-1
4.068644484E0,-1.989444971E0,-9.619643211E0,3.215929866E-1
4.071107869E0,-1.989444971E0,-9.610060692E0,3.832765818E-1
4.073571307E0,-2.013399601E0,-9.662761688E0,3.593217731E-1
4.076034744E0,-2.022981644E0,-9.595687866E0,3.832765818E-1
4.078498130E0,-2.008608818E0,-9.624433517E0,4.024403989E-1
4.080961567E0,-1.941535354E0,-9.619643211E0,4.551409185E-1
4.083424953E0,-1.989444971E0,-9.605270386E0,4.503499568E-1
4.085888390E0,-2.003817797E0,-9.586106300E0,4.838866591E-1
4.088351828E0,-1.965490103E0,-9.590897560E0,5.317962170E-1
4.090815213E0,-1.955908179E0,-9.595687866E0,5.557510257E-1
4.093278651E0,-1.946326375E0,-9.619643211E0,4.599318802E-1
4.095742036E0,-1.931953430E0,-9.595687866E0,5.174233913E-1
4.098205474E0,-1.941535354E0,-9.576524734E0,5.749148726E-1
4.100668911E0,-1.931953430E0,-9.571733475E0,5.365871787E-1
4.103132296E0,-1.912789583E0,-9.586106300E0,5.557510257E-1
4.105595734E0,-1.874462008E0,-9.566942215E0,5.892876983E-1
4.108059119E0,-1.864880085E0,-9.552569389E0,5.653329492E-1
4.110522557E0,-1.864880085E0,-9.547778130E0,5.509600639E-1
4.112985994E0,-1.836134315E0,-9.566942215E0,5.317962170E-1
4.115449380E0,-1.850507140E0,-9.610060692E0,4.886776209E-1
4.117912817E0,-1.812179565E0,-9.562151909E0,5.557510257E-1
4.120376203E0,-1.869670987E0,-9.571733475E0,4.934685826E-1
4.122839640E0,-1.898416758E0,-9.605270386E0,5.030505061E-1
4.125303026E0,-1.850507140E0,-9.586106300E0,5.557510257E-1
4.127766463E0,-1.845716238E0,-9.624433517E0,4.838866591E-1
4.130229901E0,-1.893625736E0,-9.610060692E0,3.641127348E-1
4.132693286E0,-1.903207660E0,-9.672343254E0,3.689036965E-1
4.135156724E0,-1.850507140E0,-9.681925774E0,3.832765818E-1
4.137620109E0,-1.840925217E0,-9.653180122E0,3.263839483E-1
4.140083546E0,-1.869670987E0,-9.619643211E0,2.928472459E-1
4.142546984E0,-1.884043932E0,-9.667552948E0,2.976382077E-1
4.145010369E0,-1.826552391E0,-9.710671425E0,3.168020248E-1
4.147473807E0,-1.869670987E0,-9.677134514E0,2.784743905E-1
4.149937192E0,-1.864880085E0,-9.696298599E0,3.880675137E-1
4.152400630E0,-1.845716238E0,-9.624433517E0,3.593217731E-1
4.154864067E0,-1.845716238E0,-9.657970428E0,4.024403989E-1
4.157327453E0,-1.826552391E0,-9.662761688E0,3.072201312E-1
4.159790890E0,-1.821761489E0,-9.614851952E0,2.736834288E-1
4.162254276E0,-1.783433795E0,-9.701088905E0,3.215929866E-1
4.164717713E0,-1.764269948E0,-9.643597603E0,3.455477655E-1
4.167181151E0,-1.749897122E0,-9.610060692E0,4.168132544E-1
4.169644536E0,-1.759479046E0,-9.643597603E0,3.784856200E-1
4.172107974E0,-1.745106101E0,-9.629224777E0,3.736946583E-1
4.174571359E0,-1.740315199E0,-9.643597603E0,4.024403989E-1
4.177034796E0,-1.740315199E0,-9.672343254E0,3.641127348E-1
4.179498234E0,-1.788224697E0,-9.691507339E0,3.832765818E-1
4.181961619E0,-1.797806621E0,-9.638806343E0,2.976382077E-1
4.184425057E0,-1.773851871E0,-9.686716080E0,4.168132544E-1
4.186888442E0,-1.797806621E0,-9.677134514E0,3.551296890E-1
4.189351880E0,-1.797806621E0,-9.686716080E0,3.641127348E-1
4.191815317E0,-1.836134315E0,-9.705880165E0,3.928584754E-1
4.194278703E0,-1.836134315E0,-9.734026909E0,3.263839483E-1
4.196742140E0,-1.874462008E0,-9.753190994E0,2.784743905E-1
4.199205526E0,-1.898416758E0,-9.705880165E0,3.072201312E-1
4.201668963E0,-1.893625736E0,-9.734026909E0,3.215929866E-1
4.204132401E0,-1.931953430E0,-9.753190994E0,3.215929866E-1
4.206595786E0,-1.927162528E0,-9.662761688E0,3.168020248E-1
4.209059224E0,-1.960699201E0,-9.715461731E0,3.120110929E-1
4.211522609E0,-1.994235873E0,-9.725044250E0,2.353557646E-1
4.213986046E0,-1.975072026E0,-9.677134514E0,3.072201312E-1
4.216449432E0,-1.951117277E0,-9.667552948E0,2.688924670E-1
4.218912869E0,-1.970281124E0,-9.653180122E0,3.024291694E-1
4.221376307E0,-1.936744452E0,-9.662761688E0,3.263839483E-1
4.223839744E0,-1.965490103E0,-9.657970428E0,3.976494372E-1
4.226303182E0,-1.951117277E0,-9.681925774E0,4.503499568E-1
4.228766671E0,-1.955908179E0,-9.595687866E0,4.551409185E-1
4.231230109E0,-1.922371507E0,-9.595687866E0,4.886776209E-1
4.233693546E0,-1.884043932E0,-9.581315041E0,4.982595444E-1
4.236156984E0,-1.888834834E0,-9.590897560E0,5.126324296E-1
4.238620421E0,-1.874462008E0,-9.557360649E0,5.126324296E-1
4.241083911E0,-1.888834834E0,-9.557360649E0,6.318074465E-1
4.243547349E0,-1.860089064E0,-9.566942215E0,5.557510257E-1
4.246010786E0,-1.869670987E0,-9.619643211E0,5.557510257E-1
4.248474224E0,-1.855298162E0,-9.557360649E0,6.413893700E-1
4.250937661E0,-1.826552391E0,-9.590897560E0,5.413781404E-1
4.253401151E0,-1.855298162E0,-9.605270386E0,5.844967365E-1
4.255864588E0,-1.821761489E0,-9.581315041E0,6.461803317E-1
4.258328026E0,-1.840925217E0,-9.595687866E0,6.174346209E-1
4.260791463E0,-1.821761489E0,-9.566942215E0,6.174346209E-1
4.263254901E0,-1.850507140E0,-9.590897560E0,5.509600639E-1
4.265718390E0,-1.836134315E0,-9.653180122E0,5.605419874E-1
4.268181828E0,-1.840925217E0,-9.657970428E0,5.749148726E-1
4.270645265E0,-1.836134315E0,-9.624433517E0,5.270052552E-1
4.273108703E0,-1.778642774E0,-9.629224777E0,5.174233913E-1
4.275572140E0,-1.754688025E0,-9.667552948E0,4.934685826E-1
4.278035630E0,-1.821761489E0,-9.662761688E0,4.743047655E-1
4.280499067E0,-1.788224697E0,-9.662761688E0,4.120223224E-1
4.282962505E0,-1.821761489E0,-9.686716080E0,4.359771013E-1
4.285425942E0,-1.807388544E0,-9.677134514E0,4.263951778E-1
4.287889380E0,-1.793015718E0,-9.667552948E0,4.216042161E-1
4.290352869E0,-1.797806621E0,-9.701088905E0,3.928584754E-1
4.292816307E0,-1.831343293E0,-9.701088905E0,3.215929866E-1
4.295279744E0,-1.855298162E0,-9.634016037E0,3.641127348E-1
4.297743182E0,-1.807388544E0,-9.653180122E0,4.455589950E-1
4.300206619E0,-1.816970468E0,-9.710671425E0,4.359771013E-1
4.302670109E0,-1.836134315E0,-9.696298599E0,3.832765818E-1
4.305133546E0,-1.850507140E0,-9.657970428E0,4.024403989E-1
4.307596984E0,-1.793015718E0,-9.720252991E0,3.976494372E-1
4.310060421E0,-1.793015718E0,-9.710671425E0,3.928584754E-1
4.312523859E0,-1.826552391E0,-9.705880165E0,4.216042161E-1
4.314987349E0,-1.850507140E0,-9.738818169E0,4.024403989E-1
4.317450786E0,-1.831343293E0,-9.762772560E0,4.311861396E-1
4.319914224E0,-1.864880085E0,-9.705880165E0,4.838866591E-1
4.322377661E0,-1.845716238E0,-9.677134514E0,4.599318802E-1
4.324841151E0,-1.850507140E0,-9.696298599E0,4.647228420E-1
4.327304588E0,-1.874462008E0,-9.643597603E0,4.647228420E-1
4.329768026E0,-1.912789583E0,-9.681925774E0,5.174233913E-1
4.332231463E0,-1.922371507E0,-9.657970428E0,4.982595444E-1
4.334694901E0,-1.946326375E0,-9.681925774E0,5.126324296E-1
4.337158390E0,-1.941535354E0,-9.629224777E0,5.653329492E-1
4.339621828E0,-1.931953430E0,-9.624433517E0,5.174233913E-1
4.342085265E0,-1.951117277E0,-9.643597603E0,5.174233913E-1
4.344548703E0,-1.955908179E0,-9.586106300E0,4.647228420E-1
4.347012140E0,-1.960699201E0,-9.586106300E0,4.647228420E-1
4.349475630E0,-1.975072026E0,-9.614851952E0,4.982595444E-1
4.351939067E0,-1.979863048E0,-9.557360649E0,4.695138037E-1
4.354402505E0,-1.965490103E0,-9.542987823E0,4.838866591E-1
4.356865942E0,-1.999026895E0,-9.571733475E0,4.790956974E-1
4.359329380E0,-1.984653950E0,-9.552569389E0,4.838866591E-1
4.361792869E0,-1.994235873E0,-9.557360649E0,4.599318802E-1
4.364256307E0,-1.955908179E0,-9.557360649E0,4.743047655E-1
4.366719744E0,-1.931953430E0,-9.571733475E0,3.880675137E-1
4.369183182E0,-1.941535354E0,-9.552569389E0,3.784856200E-1
4.371646619E0,-1.888834834E0,-9.586106300E0,4.263951778E-1
4.374110109E0,-1.888834834E0,-9.610060692E0,4.503499568E-1
4.376573546E0,-1.927162528E0,-9.600479126E0,4.120223224E-1
4.379036984E0,-1.917580605E0,-9.581315041E0,4.647228420E-1
4.381500421E0,-1.912789583E0,-9.614851952E0,4.743047655E-1
4.383963859E0,-1.922371507E0,-9.590897560E0,4.024403989E-1
4.386427349E0,-1.893625736E0,-9.576524734E0,3.880675137E-1
4.388890786E0,-1.898416758E0,-9.590897560E0,4.838866591E-1
4.391354224E0,-1.898416758E0,-9.557360649E0,4.599318802E-1
4.393817661E0,-1.888834834E0,-9.634016037E0,4.455589950E-1
4.396281099E0,-1.917580605E0,-9.653180122E0,4.455589950E-1
4.398744588E0,-1.879252911E0,-9.648388863E0,4.216042161E-1
4.401208026E0,-1.864880085E0,-9.624433517E0,4.216042161E-1
4.403671463E0,-1.864880085E0,-9.648388863E0,4.838866591E-1
4.406134901E0,-1.879252911E0,-9.638806343E0,4.695138037E-1
4.408598338E0,-1.874462008E0,-9.677134514E0,4.599318802E-1
4.411061828E0,-1.840925217E0,-9.657970428E0,5.030505061E-1
4.413525265E0,-1.884043932E0,-9.605270386E0,4.838866591E-1
4.415988703E0,-1.864880085E0,-9.638806343E0,4.455589950E-1
4.418452140E0,-1.874462008E0,-9.681925774E0,4.503499568E-1
4.420915578E0,-1.874462008E0,-9.701088905E0,4.168132544E-1
4.423379067E0,-1.884043932E0,-9.672343254E0,4.216042161E-1
4.425842505E0,-1.884043932E0,-9.657970428E0,4.024403989E-1
4.428305942E0,-1.936744452E0,-9.686716080E0,4.455589950E-1
4.430769380E0,-1.946326375E0,-9.696298599E0,4.647228420E-1
4.433232817E0,-1.922371507E0,-9.705880165E0,4.168132544E-1
4.435696307E0,-1.941535354E0,-9.710671425E0,4.455589950E-1
4.438159744E0,-1.960699201E0,-9.686716080E0,4.503499568E-1
4.440623182E0,-1.994235873E0,-9.681925774E0,4.120223224E-1
4.443086619E0,-1.984653950E0,-9.605270386E0,4.790956974E-1
4.445550057E0,-1.994235873E0,-9.657970428E0,4.982595444E-1
4.448013546E0,-2.003817797E0,-9.681925774E0,4.359771013E-1
4.450476984E0,-2.013399601E0,-9.600479126E0,4.263951778E-1
4.452940421E0,-2.018190622E0,-9.600479126E0,4.695138037E-1
4.455403859E0,-1.984653950E0,-9.653180122E0,4.599318802E-1
4.457867296E0,-1.994235873E0,-9.657970428E0,4.790956974E-1
4.460330786E0,-1.975072026E0,-9.677134514E0,5.174233913E-1
4.462794224E0,-2.008608818E0,-9.662761688E0,5.222142935E-1
4.465257661E0,-1.984653950E0,-9.648388863E0,4.743047655E-1
4.467721099E0,-2.027772665E0,-9.634016037E0,4.168132544E-1
4.470184536E0,-1.994235873E0,-9.667552948E0,5.174233913E-1
4.472648026E0,-1.965490103E0,-9.662761688E0,4.838866591E-1
4.475111463E0,-1.941535354E0,-9.643597603E0,5.030505061E-1
4.477574901E0,-1.946326375E0,-9.634016037E0,4.407680631E-1
4.480038338E0,-1.960699201E0,-9.677134514E0,4.599318802E-1
4.482501776E0,-1.951117277E0,-9.681925774E0,4.695138037E-1
4.484965265E0,-1.907998681E0,-9.691507339E0,5.078414679E-1
4.487428703E0,-1.941535354E0,-9.672343254E0,5.222142935E-1
4.489892140E0,-1.917580605E0,-9.681925774E0,5.557510257E-1
4.492355578E0,-1.941535354E0,-9.667552948E0,4.599318802E-1
4.494819015E0,-1.936744452E0,-9.657970428E0,4.359771013E-1
4.497282505E0,-1.927162528E0,-9.619643211E0,5.701239109E-1
4.499745942E0,-1.903207660E0,-9.634016037E0,5.365871787E-1
4.502209380E0,-1.888834834E0,-9.629224777E0,4.886776209E-1
4.504672817E0,-1.831343293E0,-9.595687866E0,5.653329492E-1
4.507136255E0,-1.864880085E0,-9.648388863E0,5.317962170E-1
4.509599744E0,-1.845716238E0,-9.576524734E0,5.126324296E-1
4.512063182E0,-1.879252911E0,-9.614851952E0,4.886776209E-1
4.514526619E0,-1.903207660E0,-9.581315041E0,5.413781404E-1
4.516990057E0,-1.903207660E0,-9.581315041E0,5.126324296E-1
4.519453546E0,-1.879252911E0,-9.576524734E0,5.174233913E-1
4.521916984E0,-1.874462008E0,-9.610060692E0,5.174233913E-1
4.524380421E0,-1.888834834E0,-9.547778130E0,4.886776209E-1
4.526843859E0,-1.936744452E0,-9.586106300E0,5.078414679E-1
4.529307296E0,-1.907998681E0,-9.624433517E0,5.174233913E-1
4.531770786E0,-1.936744452E0,-9.614851952E0,5.174233913E-1
4.534234224E0,-1.917580605E0,-9.610060692E0,4.934685826E-1
4.536697661E0,-1.903207660E0,-9.600479126E0,4.886776209E-1
4.539161099E0,-1.941535354E0,-9.619643211E0,4.503499568E-1
4.541624536E0,-1.965490103E0,-9.614851952E0,4.982595444E-1
4.544088026E0,-1.955908179E0,-9.595687866E0,4.934685826E-1
4.546551463E0,-1.975072026E0,-9.586106300E0,4.072313607E-1
4.549014901E0,-2.003817797E0,-9.643597603E0,4.168132544E-1
4.551478338E0,-2.042145491E0,-9.605270386E0,4.695138037E-1
4.553941776E0,-2.027772665E0,-9.629224777E0,4.790956974E-1
4.556405265E0,-2.042145491E0,-9.672343254E0,4.838866591E-1
4.558868703E0,-2.051727295E0,-9.643597603E0,4.407680631E-1
4.561332140E0,-2.042145491E0,-9.629224777E0,4.407680631E-1
4.563795578E0,-2.051727295E0,-9.638806343E0,4.743047655E-1
4.566259015E0,-2.042145491E0,-9.643597603E0,5.030505061E-1
4.568722505E0,-2.018190622E0,-9.581315041E0,4.838866591E-1
4.571185942E0,-2.027772665E0,-9.634016037E0,4.599318802E-1
4.573649380E0,-2.046936512E0,-9.667552948E0,4.743047655E-1
4.576112817E0,-2.032563448E0,-9.629224777E0,5.797058344E-1
4.578576255E0,-2.008608818E0,-9.605270386E0,5.126324296E-1
4.581039744E0,-2.003817797E0,-9.629224777E0,5.413781404E-1
4.583503182E0,-2.022981644E0,-9.634016037E0,5.701239109E-1
4.585966619E0,-1.975072026E0,-9.662761688E0,5.892876983E-1
4.588430057E0,-1.960699201E0,-9.634016037E0,5.317962170E-1
4.590893494E0,-1.960699201E0,-9.657970428E0,5.365871787E-1
4.593356984E0,-1.946326375E0,-9.653180122E0,5.270052552E-1
4.595820421E0,-1.912789583E0,-9.643597603E0,5.413781404E-1
4.598283859E0,-1.912789583E0,-9.648388863E0,5.365871787E-1
4.600747296E0,-1.922371507E0,-9.605270386E0,5.988696218E-1
4.603210734E0,-1.941535354E0,-9.619643211E0,5.892876983E-1
4.605674224E0,-1.874462008E0,-9.638806343E0,5.653329492E-1
4.608137661E0,-1.888834834E0,-9.638806343E0,5.078414679E-1
4.610601099E0,-1.879252911E0,-9.667552948E0,5.317962170E-1
4.613064536E0,-1.874462008E0,-9.629224777E0,4.599318802E-1
4.615527974E0,-1.893625736E0,-9.605270386E0,4.503499568E-1
4.617991463E0,-1.927162528E0,-9.653180122E0,4.743047655E-1
4.620454901E0,-1.970281124E0,-9.634016037E0,4.503499568E-1
4.622918338E0,-1.879252911E0,-9.610060692E0,4.982595444E-1
4.625381776E0,-1.879252911E0,-9.614851952E0,5.365871787E-1
4.627845213E0,-1.931953430E0,-9.619643211E0,5.557510257E-1
4.630308703E0,-1.903207660E0,-9.610060692E0,4.934685826E-1
4.632772140E0,-1.893625736E0,-9.605270386E0,5.030505061E-1
4.635235578E0,-1.884043932E0,-9.648388863E0,4.838866591E-1
4.637699015E0,-1.917580605E0,-9.634016037E0,4.120223224E-1
4.640162453E0,-1.893625736E0,-9.605270386E0,4.647228420E-1
4.642625942E0,-1.951117277E0,-9.605270386E0,5.270052552E-1
4.645089380E0,-1.907998681E0,-9.634016037E0,5.078414679E-1
4.647552817E0,-1.912789583E0,-9.643597603E0,4.695138037E-1
4.650016255E0,-1.907998681E0,-9.614851952E0,4.647228420E-1
4.652479692E0,-1.936744452E0,-9.667552948E0,4.503499568E-1
4.654943182E0,-1.917580605E0,-9.653180122E0,4.407680631E-1
4.657406619E0,-1.884043932E0,-9.696298599E0,4.934685826E-1
4.659870057E0,-1.927162528E0,-9.677134514E0,4.886776209E-1
4.662333494E0,-1.922371507E0,-9.686716080E0,4.168132544E-1
4.664796932E0,-1.907998681E0,-9.662761688E0,4.838866591E-1
4.667260421E0,-1.893625736E0,-9.657970428E0,4.743047655E-1
4.669723859E0,-1.941535354E0,-9.724445343E0,4.886776209E-1
4.672187296E0,-1.941535354E0,-9.705880165E0,4.455589950E-1
4.674650734E0,-1.898416758E0,-9.715461731E0,5.126324296E-1
4.677114171E0,-1.907998681E0,-9.657970428E0,5.030505061E-1
4.679577661E0,-1.912789583E0,-9.662761688E0,4.886776209E-1
4.682041099E0,-1.946326375E0,-9.662761688E0,4.886776209E-1
4.684504536E0,-1.955908179E0,-9.643597603E0,4.024403989E-1
4.686967974E0,-1.907998681E0,-9.686716080E0,4.551409185E-1
4.689431411E0,-1.917580605E0,-9.648388863E0,4.455589950E-1
4.691894901E0,-1.965490103E0,-9.653180122E0,4.216042161E-1
4.694358338E0,-1.994235873E0,-9.672343254E0,4.455589950E-1
4.696821776E0,-2.008608818E0,-9.681925774E0,4.551409185E-1
4.699285213E0,-2.046936512E0,-9.629224777E0,4.503499568E-1
4.701748651E0,-1.999026895E0,-9.638806343E0,4.647228420E-1
4.704212140E0,-2.013399601E0,-9.643597603E0,4.311861396E-1
4.706675578E0,-2.003817797E0,-9.595687866E0,5.222142935E-1
4.709139015E0,-2.032563448E0,-9.586106300E0,5.174233913E-1
4.711602453E0,-2.013399601E0,-9.638806343E0,4.407680631E-1
4.714065942E0,-2.013399601E0,-9.653180122E0,4.934685826E-1
4.716529380E0,-1.984653950E0,-9.657970428E0,4.934685826E-1
4.718992921E0,-1.999026895E0,-9.638806343E0,4.647228420E-1
4.721456463E0,-1.970281124E0,-9.614851952E0,4.743047655E-1
4.723920057E0,-2.003817797E0,-9.595687866E0,4.743047655E-1
4.726383599E0,-1.994235873E0,-9.600479126E0,5.126324296E-1
4.728847140E0,-1.941535354E0,-9.605270386E0,4.790956974E-1
4.731310734E0,-1.965490103E0,-9.629224777E0,4.503499568E-1
4.733774276E0,-1.922371507E0,-9.619643211E0,5.030505061E-1
4.736237817E0,-1.922371507E0,-9.571733475E0,5.174233913E-1
4.738701411E0,-1.898416758E0,-9.605270386E0,4.886776209E-1
4.741164953E0,-1.936744452E0,-9.629224777E0,4.263951778E-1
4.743628494E0,-1.946326375E0,-9.624433517E0,4.407680631E-1
4.746092088E0,-1.860089064E0,-9.648388863E0,4.503499568E-1
4.748555630E0,-1.903207660E0,-9.677134514E0,4.838866591E-1
4.751019171E0,-1.907998681E0,-9.667552948E0,4.599318802E-1
4.753482765E0,-1.903207660E0,-9.672343254E0,4.982595444E-1
4.755946307E0,-1.869670987E0,-9.638806343E0,4.599318802E-1
4.758409849E0,-1.874462008E0,-9.619643211E0,4.695138037E-1
4.760873442E0,-1.898416758E0,-9.590897560E0,4.695138037E-1
4.763336984E0,-1.850507140E0,-9.662761688E0,4.359771013E-1
4.765800526E0,-1.898416758E0,-9.634016037E0,4.695138037E-1
4.768264119E0,-1.907998681E0,-9.657970428E0,5.222142935E-1
4.770727661E0,-1.893625736E0,-9.653180122E0,4.263951778E-1
4.773191203E0,-1.917580605E0,-9.667552948E0,4.455589950E-1
4.775654796E0,-1.922371507E0,-9.653180122E0,4.647228420E-1
4.778118338E0,-1.898416758E0,-9.648388863E0,4.503499568E-1
4.780581880E0,-1.884043932E0,-9.638806343E0,4.072313607E-1
4.783045474E0,-1.946326375E0,-9.648388863E0,4.886776209E-1
4.785509015E0,-1.941535354E0,-9.619643211E0,5.270052552E-1
4.787972557E0,-1.946326375E0,-9.634016037E0,4.263951778E-1
4.790436151E0,-1.979863048E0,-9.638806343E0,4.168132544E-1
4.792899692E0,-1.912789583E0,-9.653180122E0,4.599318802E-1
4.795363234E0,-1.884043932E0,-9.638806343E0,5.222142935E-1
4.797826828E0,-1.884043932E0,-9.624433517E0,5.078414679E-1
4.800290369E0,-1.936744452E0,-9.629224777E0,4.982595444E-1
4.802753911E0,-1.907998681E0,-9.605270386E0,4.359771013E-1
4.805217505E0,-1.869670987E0,-9.667552948E0,4.934685826E-1
4.807681046E0,-1.927162528E0,-9.653180122E0,4.934685826E-1
4.810144588E0,-1.946326375E0,-9.605270386E0,5.030505061E-1
4.812608182E0,-1.912789583E0,-9.595687866E0,5.317962170E-1
4.815071724E0,-1.898416758E0,-9.614851952E0,4.838866591E-1
4.817535265E0,-1.912789583E0,-9.590897560E0,4.647228420E-1
4.819998859E0,-1.912789583E0,-9.610060692E0,4.695138037E-1
4.822462401E0,-1.917580605E0,-9.653180122E0,5.030505061E-1
4.824925942E0,-1.946326375E0,-9.634016037E0,4.838866591E-1
4.827389536E0,-1.946326375E0,-9.610060692E0,4.790956974E-1
4.829853078E0,-1.946326375E0,-9.648388863E0,5.222142935E-1
4.832316619E0,-1.960699201E0,-9.629224777E0,5.030505061E-1
4.834780213E0,-1.941535354E0,-9.634016037E0,4.168132544E-1
4.837243755E0,-1.965490103E0,-9.634016037E0,4.503499568E-1
4.839707296E0,-1.951117277E0,-9.643597603E0,3.784856200E-1
4.842170890E0,-1.936744452E0,-9.662761688E0,3.641127348E-1
4.844634432E0,-1.888834834E0,-9.691507339E0,4.168132544E-1
4.847097974E0,-1.946326375E0,-9.691507339E0,3.928584754E-1
4.849561567E0,-1.927162528E0,-9.696298599E0,4.216042161E-1
4.852025109E0,-1.941535354E0,-9.638806343E0,4.072313607E-1
4.854488651E0,-1.931953430E0,-9.657970428E0,4.407680631E-1
4.856952244E0,-1.907998681E0,-9.705880165E0,5.078414679E-1
4.859415786E0,-1.912789583E0,-9.677134514E0,4.216042161E-1
4.861879328E0,-1.912789583E0,-9.643597603E0,4.790956974E-1
4.864342921E0,-1.912789583E0,-9.662761688E0,4.551409185E-1
4.866806463E0,-1.912789583E0,-9.629224777E0,4.263951778E-1
4.869270005E0,-1.927162528E0,-9.634016037E0,4.743047655E-1
4.871733599E0,-1.927162528E0,-9.610060692E0,5.317962170E-1
4.874197140E0,-1.931953430E0,-9.614851952E0,4.934685826E-1
4.876660682E0,-1.917580605E0,-9.638806343E0,5.078414679E-1
4.879124276E0,-1.898416758E0,-9.653180122E0,4.599318802E-1
4.881587817E0,-1.907998681E0,-9.610060692E0,4.455589950E-1
4.884051359E0,-1.912789583E0,-9.629224777E0,5.126324296E-1
4.886514953E0,-1.903207660E0,-9.648388863E0,4.790956974E-1
4.888978494E0,-1.946326375E0,-9.638806343E0,4.982595444E-1
4.891442036E0,-1.922371507E0,-9.610060692E0,4.934685826E-1
4.893905630E0,-1.907998681E0,-9.605270386E0,4.838866591E-1
4.896369171E0,-1.893625736E0,-9.614851952E0,5.317962170E-1
4.898832713E0,-1.955908179E0,-9.600479126E0,4.838866591E-1
4.901296307E0,-1.955908179E0,-9.643597603E0,4.120223224E-1
4.903759849E0,-1.941535354E0,-9.638806343E0,4.407680631E-1
4.906223390E0,-1.955908179E0,-9.672343254E0,4.263951778E-1
4.908686984E0,-1.955908179E0,-9.643597603E0,4.886776209E-1
4.911150526E0,-1.984653950E0,-9.657970428E0,4.599318802E-1
4.913614067E0,-1.994235873E0,-9.653180122E0,4.359771013E-1
4.916077661E0,-1.951117277E0,-9.677134514E0,4.503499568E-1
4.918541203E0,-1.946326375E0,-9.667552948E0,4.695138037E-1
4.921004744E0,-1.984653950E0,-9.614851952E0,3.641127348E-1
4.923468338E0,-1.936744452E0,-9.634016037E0,4.455589950E-1
4.925931880E0,-1.931953430E0,-9.634016037E0,4.599318802E-1
4.928395421E0,-1.936744452E0,-9.619643211E0,4.886776209E-1
4.930859015E0,-1.931953430E0,-9.634016037E0,5.174233913E-1
4.933322557E0,-1.960699201E0,-9.634016037E0,4.072313607E-1
4.935786099E0,-1.917580605E0,-9.643597603E0,3.449489176E-1
4.938249692E0,-1.936744452E0,-9.643597603E0,4.455589950E-1
4.940713234E0,-1.922371507E0,-9.590897560E0,4.551409185E-1
4.943176776E0,-1.903207660E0,-9.586106300E0,4.790956974E-1
4.945640369E0,-1.869670987E0,-9.605270386E0,4.838866591E-1
4.948103911E0,-1.888834834E0,-9.629224777E0,4.551409185E-1
4.950567453E0,-1.888834834E0,-9.600479126E0,4.216042161E-1
4.953031046E0,-1.879252911E0,-9.595687866E0,4.934685826E-1
4.955494588E0,-1.860089064E0,-9.614851952E0,5.270052552E-1
4.957958130E0,-1.874462008E0,-9.590897560E0,5.365871787E-1
4.960421724E0,-1.879252911E0,-9.576524734E0,4.695138037E-1
4.962885265E0,-1.884043932E0,-9.600479126E0,5.078414679E-1
4.965348807E0,-1.922371507E0,-9.610060692E0,4.886776209E-1
4.967812401E0,-1.927162528E0,-9.624433517E0,4.743047655E-1
4.970275942E0,-1.912789583E0,-9.576524734E0,5.605419874E-1
4.972739484E0,-1.869670987E0,-9.533405304E0,5.078414679E-1
4.975203078E0,-1.907998681E0,-9.600479126E0,4.982595444E-1
4.977666619E0,-1.922371507E0,-9.566942215E0,3.880675137E-1
4.980130161E0,-1.874462008E0,-9.605270386E0,4.024403989E-1
4.982593755E0,-1.879252911E0,-9.638806343E0,4.551409185E-1
4.985057296E0,-1.884043932E0,-9.595687866E0,4.407680631E-1
4.987520838E0,-1.893625736E0,-9.653180122E0,4.263951778E-1
4.989984432E0,-1.898416758E0,-9.681925774E0,3.545308113E-1
4.992447974E0,-1.893625736E0,-9.691507339E0,3.545308113E-1
4.994911515E0,-1.879252911E0,-9.653180122E0,3.832765818E-1
4.997375109E0,-1.879252911E0,-9.648388863E0,3.353669941E-1
4.999838651E0,-1.860089064E0,-9.629224777E0,3.449489176E-1
5.002302192E0,-1.864880085E0,-9.701088905E0,4.072313607E-1
5.004765786E0,-1.922371507E0,-9.691507339E0,4.024403989E-1
5.007229328E0,-1.874462008E0,-9.667552948E0,3.784856200E-1
5.009692869E0,-1.893625736E0,-9.686716080E0,3.401579559E-1
5.012156463E0,-1.879252911E0,-9.696298599E0,3.928584754E-1
5.014620005E0,-1.898416758E0,-9.719654083E0,3.784856200E-1
5.017083546E0,-1.855298162E0,-9.681925774E0,4.263951778E-1
5.019547140E0,-1.850507140E0,-9.701088905E0,3.934573531E-1
5.022010682E0,-1.826552391E0,-9.691507339E0,3.838754296E-1
5.024474224E0,-1.873863101E0,-9.701088905E0,3.695025742E-1
5.026937817E0,-1.878654003E0,-9.701088905E0,3.407568336E-1
5.029401359E0,-1.840925217E0,-9.643597603E0,3.599206507E-1
5.031864901E0,-1.897817850E0,-9.662761688E0,4.311861396E-1
5.034328494E0,-1.878654003E0,-9.701088905E0,4.599318802E-1
5.036792036E0,-1.883445024E0,-9.696298599E0,3.982483149E-1
5.039255578E0,-1.860089064E0,-9.686716080E0,4.455589950E-1
5.041719119E0,-1.864880085E0,-9.686716080E0,4.599318802E-1
5.044182713E0,-1.921772718E0,-9.725044250E0,4.455589950E-1
5.046646255E0,-1.883445024E0,-9.648388863E0,4.934685826E-1
5.049109796E0,-1.883445024E0,-9.629224777E0,4.838866591E-1
5.051573390E0,-1.888235927E0,-9.667552948E0,5.126324296E-1
5.054036932E0,-1.883445024E0,-9.667552948E0,4.263951778E-1
