"Time (s)","Gyroscope x (rad/s)","Gyroscope y (rad/s)","Gyroscope z (rad/s)"
1.233224100E-2,-2.332981676E-1,-5.589067936E-1,1.745329238E-3
1.630255300E-2,-2.935120165E-1,-6.339908242E-1,1.361356815E-3
2.027286600E-2,-3.530102968E-1,-6.980968118E-1,7.295476273E-3
2.424317800E-2,-4.139746428E-1,-7.516958714E-1,1.560324337E-2
2.821349100E-2,-4.657236636E-1,-7.900581956E-1,2.635447122E-2
3.218536600E-2,-5.118526816E-1,-8.179659843E-1,4.105014354E-2
3.615567800E-2,-5.541594625E-1,-8.356287479E-1,5.768313259E-2
4.012599100E-2,-5.882108808E-1,-8.474620581E-1,7.511897385E-2
4.409630300E-2,-6.104987264E-1,-8.484394550E-1,9.545205534E-2
4.806974100E-2,-6.217386127E-1,-8.458389044E-1,1.150870100E-1
5.203692800E-2,-6.254038215E-1,-8.370249867E-1,1.325228512E-1
5.600724100E-2,-6.200456619E-1,-8.243364692E-1,1.453684717E-1
5.997911600E-2,-6.070429683E-1,-8.068831563E-1,1.541300267E-1
6.394786600E-2,-5.887693763E-1,-7.875798345E-1,1.588249654E-1
6.791974100E-2,-5.669702291E-1,-7.649254203E-1,1.603433937E-1
7.189005300E-2,-5.390275121E-1,-7.418696284E-1,1.613382399E-1
7.586036600E-2,-5.113989115E-1,-7.191280127E-1,1.637118906E-1
7.983067800E-2,-4.886921942E-1,-7.005751729E-1,1.640260369E-1
8.380099100E-2,-4.659156501E-1,-6.760183573E-1,1.641133130E-1
8.777130300E-2,-4.489859343E-1,-6.509379745E-1,1.671327353E-1
9.174317800E-2,-4.349360466E-1,-6.321931481E-1,1.710946262E-1
9.571349100E-2,-4.303632975E-1,-6.327167749E-1,1.746900082E-1
9.968380300E-2,-4.303807318E-1,-6.452133060E-1,1.766796857E-1
1.036541160E-1,-4.415159523E-1,-6.737494469E-1,1.770461947E-1
1.076244280E-1,-4.594753683E-1,-7.119023204E-1,1.738347858E-1
1.115947410E-1,-4.882383943E-1,-7.659552097E-1,1.644100100E-1
1.155666160E-1,-5.237383842E-1,-8.251916766E-1,1.518785506E-1
1.195369280E-1,-5.656611919E-1,-8.909556866E-1,1.373050511E-1
1.235119280E-1,-6.133435965E-1,-9.619731307E-1,1.238660142E-1
1.274775530E-1,-6.588792205E-1,-1.029412627E0,1.161516607E-1
1.314478660E-1,-7.092843652E-1,-1.095333695E0,1.121897623E-1
1.354181780E-1,-7.578045130E-1,-1.153610229E0,1.103920713E-1
1.393900530E-1,-7.998320460E-1,-1.201781392E0,1.124864668E-1
1.433588030E-1,-8.389273882E-1,-1.240230918E0,1.187522039E-1
1.473291160E-1,-8.722981215E-1,-1.268470407E0,1.253670007E-1
1.513009910E-1,-9.034347534E-1,-1.298699498E0,1.323483139E-1
1.552713030E-1,-9.223890305E-1,-1.340273261E0,1.403419226E-1
1.592416160E-1,-9.410117269E-1,-1.377972364E0,1.484577060E-1
1.632119280E-1,-9.687449932E-1,-1.387938142E0,1.538856775E-1
1.671822410E-1,-1.001138330E0,-1.387658954E0,1.560498923E-1
1.711525530E-1,-1.031838655E0,-1.396141171E0,1.557182819E-1
1.751244280E-1,-1.069502831E0,-1.427539706E0,1.512502283E-1
1.790947410E-1,-1.097707391E0,-1.458658934E0,1.467821896E-1
1.830650530E-1,-1.126854420E0,-1.486461997E0,1.419999897E-1
1.870353660E-1,-1.164291739E0,-1.517511368E0,1.443561763E-1
1.910056780E-1,-1.200385094E0,-1.550271273E0,1.500983089E-1
1.949759910E-1,-1.236129403E0,-1.591949701E0,1.552121341E-1
1.989478660E-1,-1.273008227E0,-1.635478258E0,1.615127623E-1
2.029166160E-1,-1.308211565E0,-1.678902030E0,1.658586413E-1
2.068884910E-1,-1.339836955E0,-1.720929503E0,1.681973785E-1
2.108588030E-1,-1.369734406E0,-1.759885311E0,1.697158217E-1
2.148291160E-1,-1.395303488E0,-1.780602336E0,1.700997949E-1
2.187994280E-1,-1.426946282E0,-1.793360710E0,1.708153784E-1
2.227744280E-1,-1.454033852E0,-1.792488098E0,1.741489470E-1
2.267400530E-1,-1.473441839E0,-1.785018086E0,1.792453080E-1
2.307119280E-1,-1.484367609E0,-1.768629432E0,1.886875480E-1
2.346822410E-1,-1.486776114E0,-1.744194746E0,2.010968328E-1
2.386525530E-1,-1.476251841E0,-1.703179598E0,2.121622264E-1
2.426228660E-1,-1.453806877E0,-1.653804183E0,2.270847857E-1
2.465931780E-1,-1.412878990E0,-1.602858067E0,2.473829687E-1
2.505634910E-1,-1.360501647E0,-1.534039736E0,2.698453665E-1
2.545338030E-1,-1.300200462E0,-1.444748640E0,2.946639359E-1
2.585056780E-1,-1.227699518E0,-1.355038762E0,3.160442114E-1
2.624744280E-1,-1.143627048E0,-1.260180116E0,3.368136287E-1
2.664463030E-1,-1.056378007E0,-1.166036963E0,3.536735177E-1
2.704166160E-1,-9.655684829E-1,-1.071195841E0,3.669554591E-1
2.743869280E-1,-8.769930601E-1,-9.783966541E-1,3.723834455E-1
2.783588030E-1,-8.089077473E-1,-9.028937221E-1,3.733433783E-1
2.823275530E-1,-7.471929193E-1,-8.258548975E-1,3.686135411E-1
2.862978660E-1,-6.981491446E-1,-7.670547366E-1,3.633251786E-1
2.902697410E-1,-6.585476398E-1,-7.298966646E-1,3.548603356E-1
2.942463030E-1,-6.289643049E-1,-7.092319727E-1,3.461860418E-1
2.982103660E-1,-6.146177053E-1,-7.023379207E-1,3.386462331E-1
3.021806780E-1,-6.117902398E-1,-7.042927146E-1,3.309667706E-1
3.061509910E-1,-6.199409366E-1,-7.134033442E-1,3.244392574E-1
3.101213030E-1,-6.360503435E-1,-7.258650064E-1,3.182258904E-1
3.140931780E-1,-6.578844190E-1,-7.480655909E-1,3.122394085E-1
3.180634910E-1,-6.826855540E-1,-7.830594182E-1,3.082775176E-1
3.220322410E-1,-7.108202577E-1,-8.233590722E-1,3.034778535E-1
3.260041160E-1,-7.415031195E-1,-8.644266725E-1,3.013136387E-1
3.299744280E-1,-7.690618634E-1,-9.016196132E-1,3.036174774E-1
3.339447410E-1,-7.934266925E-1,-9.284977317E-1,3.085916638E-1
3.379150530E-1,-8.118224740E-1,-9.448339939E-1,3.170914054E-1
3.418853660E-1,-8.292582631E-1,-9.551139474E-1,3.301639259E-1
3.458556780E-1,-8.444775343E-1,-9.589886069E-1,3.451563120E-1
3.498275530E-1,-8.573406339E-1,-9.597042203E-1,3.585604429E-1
3.537978660E-1,-8.641648889E-1,-9.556725025E-1,3.710919023E-1
3.577681780E-1,-8.701513410E-1,-9.517629147E-1,3.817209601E-1
3.617384910E-1,-8.709542155E-1,-9.395980239E-1,3.963817358E-1
3.657088030E-1,-8.686154485E-1,-9.224414229E-1,4.148124158E-1
3.696791160E-1,-8.663290739E-1,-9.075537324E-1,4.309043288E-1
3.736509910E-1,-8.639379740E-1,-9.006771445E-1,4.451985955E-1
3.776213030E-1,-8.619657755E-1,-8.934689760E-1,4.552342296E-1
3.815916160E-1,-8.633969426E-1,-8.824035525E-1,4.661425352E-1
3.855619280E-1,-8.705353141E-1,-8.724377155E-1,4.763527215E-1
3.895322410E-1,-8.808327913E-1,-8.668177724E-1,4.885002077E-1
3.935025530E-1,-8.955633640E-1,-8.650724292E-1,5.014505386E-1
3.974728660E-1,-9.123533964E-1,-8.641474247E-1,5.171759725E-1
4.014431780E-1,-9.329832196E-1,-8.639379740E-1,5.339136720E-1
4.054150530E-1,-9.556725025E-1,-8.625068069E-1,5.540896654E-1
4.093853660E-1,-9.767909646E-1,-8.592779636E-1,5.752954483E-1
4.133541160E-1,-9.976651073E-1,-8.515112400E-1,5.958902836E-1
4.173259910E-1,-1.016950965E0,-8.376009464E-1,6.164503098E-1
4.212963030E-1,-1.034631133E0,-8.136550188E-1,6.389824748E-1
4.252666160E-1,-1.049466491E0,-7.771776319E-1,6.636614203E-1
4.292384910E-1,-1.055452943E0,-7.256555557E-1,6.884800196E-1
4.332088030E-1,-1.056552529E0,-6.553187966E-1,7.112042308E-1
4.371791160E-1,-1.046028137E0,-5.718047619E-1,7.306820750E-1
4.411494280E-1,-1.021436453E0,-4.851142764E-1,7.437371612E-1
4.451197410E-1,-9.819222093E-1,-3.933099508E-1,7.485018969E-1
4.490900530E-1,-9.317265749E-1,-2.999697328E-1,7.446272969E-1
4.530619280E-1,-8.643044829E-1,-1.982519478E-1,7.344170809E-1
4.570322410E-1,-7.863581181E-1,-8.970992267E-2,7.189709544E-1
4.610025530E-1,-6.967703700E-1,2.801253460E-2,7.030360699E-1
4.649728660E-1,-5.942497253E-1,1.586504281E-1,6.876073480E-1
4.689431780E-1,-4.853585958E-1,2.906845808E-1,6.697351933E-1
4.729134910E-1,-3.637091517E-1,4.236437678E-1,6.474648118E-1
4.768838030E-1,-2.611361742E-1,5.286951065E-1,6.216339469E-1
4.808541160E-1,-1.517214775E-1,6.486865282E-1,5.873556733E-1
4.848244280E-1,-4.387757555E-2,7.778059840E-1,5.482951999E-1
4.887963030E-1,4.895648360E-2,9.004153609E-1,5.120795965E-1
4.927666160E-1,1.261698455E-1,1.014926434E0,4.780806005E-1
4.967353660E-1,1.834690124E-1,1.115823865E0,4.471009970E-1
5.007072410E-1,2.216044515E-1,1.191972613E0,4.190011919E-1
5.046775530E-1,2.443460971E-1,1.253652573E0,3.889466226E-1
5.086478660E-1,2.498089820E-1,1.300444841E0,3.568849266E-1
5.126197410E-1,2.421993464E-1,1.334775448E0,3.209660351E-1
5.165884910E-1,2.245540619E-1,1.351862192E0,2.804569602E-1
5.205603660E-1,2.000845522E-1,1.349087119E0,2.363175750E-1
5.245306780E-1,1.705186665E-1,1.327602148E0,1.992118806E-1
5.285009910E-1,1.387362182E-1,1.288890719E0,1.678657681E-1
5.324713030E-1,1.084373072E-1,1.234349251E0,1.401150376E-1
5.364416160E-1,8.641125262E-2,1.173489571E0,1.211433038E-1
5.404119280E-1,7.042403519E-2,1.107044935E0,1.064127237E-1
5.443838030E-1,6.007423252E-2,1.035486341E0,9.775589406E-2
5.483541160E-1,5.663593486E-2,9.661444426E-1,9.082693607E-2
5.523244280E-1,6.009168550E-2,8.918806911E-1,8.946557343E-2
5.562947410E-1,7.304202765E-2,8.048236966E-1,9.543460608E-2
5.602650530E-1,9.058258682E-2,7.021983266E-1,1.072330326E-1
5.642353660E-1,1.175653785E-1,5.838824511E-1,1.253670007E-1
5.682056780E-1,1.527512223E-1,4.576427937E-1,1.484402567E-1
5.721775530E-1,1.902583390E-1,3.279822767E-1,1.769065708E-1
5.761463030E-1,2.179392576E-1,2.207841426E-1,2.040464431E-1
5.801181780E-1,2.414139360E-1,1.295906901E-1,2.330887169E-1
5.840884910E-1,2.474004179E-1,5.597271025E-2,2.655169368E-1
5.880588030E-1,2.321113348E-1,8.203047328E-4,3.024131954E-1
5.920291160E-1,1.965066195E-1,-4.094542563E-2,3.391349316E-1
5.959994280E-1,1.389107555E-1,-7.185520232E-2,3.754901290E-1
5.999697410E-1,6.637486815E-2,-9.286896884E-2,4.096636772E-1
6.039416160E-1,-1.966986060E-2,-1.042136103E-1,4.419173598E-1
6.079119280E-1,-1.108807698E-1,-1.037074625E-1,4.697379172E-1
6.118822410E-1,-2.051634490E-1,-9.454448521E-2,4.914498031E-1
6.158525530E-1,-2.955017090E-1,-7.258824259E-2,5.124461055E-1
6.198353660E-1,-3.813718855E-1,-3.857177496E-2,5.352401137E-1
6.237931780E-1,-4.484972656E-1,2.356194425E-3,5.603030324E-1
6.277650530E-1,-5.046793818E-1,3.984586522E-2,5.891009569E-1
6.317338030E-1,-5.381548405E-1,6.379178166E-2,6.232571006E-1
6.357041160E-1,-5.503546596E-1,6.625270098E-2,6.595773697E-1
6.396759910E-1,-5.344198346E-1,5.321509019E-2,6.952344775E-1
6.436463030E-1,-4.908040464E-1,2.330014482E-2,7.272612453E-1
6.476166160E-1,-4.164006412E-1,-2.495820820E-2,7.560766339E-1
6.515884910E-1,-3.257308006E-1,-8.243189752E-2,7.806159854E-1
6.555572410E-1,-2.246064246E-1,-1.533795297E-1,8.014551997E-1
6.595275530E-1,-1.067268848E-1,-2.376614809E-1,8.165348172E-1
6.634994280E-1,2.008873969E-2,-3.374943137E-1,8.248251677E-1
6.674697410E-1,1.488416791E-1,-4.480958283E-1,8.178263903E-1
6.714400530E-1,2.639286816E-1,-5.551019907E-1,7.934092283E-1
6.754103660E-1,3.523121476E-1,-6.359979510E-1,7.590436935E-1
6.793806780E-1,4.199087620E-1,-6.998246908E-1,7.220776081E-1
6.833509910E-1,4.640481472E-1,-7.479434013E-1,6.892479658E-1
6.873228660E-1,4.839797914E-1,-7.753974199E-1,6.605198383E-1
6.912931780E-1,4.780456722E-1,-7.849443555E-1,6.378305554E-1
6.952634910E-1,4.435405135E-1,-7.842636704E-1,6.144431829E-1
6.992338030E-1,3.874107301E-1,-7.735648155E-1,5.901481509E-1
7.032041160E-1,3.105987906E-1,-7.530048490E-1,5.654343367E-1
7.071744280E-1,2.160543054E-1,-7.241719961E-1,5.368807316E-1
7.111463030E-1,1.151044667E-1,-6.931400299E-1,5.068436265E-1
7.151150530E-1,5.497787148E-3,-6.615670323E-1,4.768763185E-1
7.190916160E-1,-1.055400595E-1,-6.282138228E-1,4.490382969E-1
7.230572410E-1,-2.017949671E-1,-5.991715193E-1,4.285306931E-1
7.270275530E-1,-3.000395596E-1,-5.866225958E-1,4.174652994E-1
7.309978660E-1,-3.804643154E-1,-5.946336985E-1,4.171336889E-1
7.349681780E-1,-4.458618164E-1,-6.276029348E-1,4.262443185E-1
7.389384910E-1,-4.970523119E-1,-6.843435764E-1,4.453207552E-1
7.429088030E-1,-5.359905958E-1,-7.533538938E-1,4.722686410E-1
7.468806780E-1,-5.675287247E-1,-8.285427094E-1,5.024977326E-1
7.508494280E-1,-5.916840434E-1,-8.990365267E-1,5.321857929E-1
7.548213030E-1,-6.156125069E-1,-9.654637575E-1,5.593605638E-1
7.587916160E-1,-6.433632374E-1,-1.031227827E0,5.803045034E-1
7.627619280E-1,-6.695781350E-1,-1.087375045E0,5.898340344E-1
7.667322410E-1,-7.028790116E-1,-1.135284305E0,5.941100717E-1
7.707025530E-1,-7.430564761E-1,-1.168567777E0,5.974785686E-1
7.746728660E-1,-7.806159854E-1,-1.188063025E0,5.998696685E-1
7.786447410E-1,-8.152433038E-1,-1.195707560E0,6.021385789E-1
7.826150530E-1,-8.515287042E-1,-1.204172492E0,6.052976251E-1
7.865853660E-1,-8.897339702E-1,-1.211485386E0,6.089628339E-1
7.905556780E-1,-9.267872572E-1,-1.217611551E0,6.158044934E-1
7.945259910E-1,-9.692511559E-1,-1.221311569E0,6.281090975E-1
7.984963030E-1,-1.018556714E0,-1.224086642E0,6.465222836E-1
8.024681780E-1,-1.077025175E0,-1.230980754E0,6.699969769E-1
8.064384910E-1,-1.139246225E0,-1.231574178E0,6.993010640E-1
8.104072410E-1,-1.208902359E0,-1.229025960E0,7.370350957E-1
8.143791160E-1,-1.276586175E0,-1.218431830E0,7.780503035E-1
8.183525530E-1,-1.350535750E0,-1.185287952E0,8.262214065E-1
8.223197410E-1,-1.416491747E0,-1.121862769E0,8.761029243E-1
8.262900530E-1,-1.473755956E0,-1.034090161E0,9.270665646E-1
8.302603660E-1,-1.511263132E0,-9.321803451E-1,9.715200663E-1
8.342306780E-1,-1.523148775E0,-8.379849195E-1,1.006740808E0
8.382025530E-1,-1.511647105E0,-7.472103834E-1,1.031873584E0
8.421728660E-1,-1.478241563E0,-6.666459441E-1,1.044754028E0
8.461431780E-1,-1.428290129E0,-5.960997343E-1,1.047057867E0
8.501134910E-1,-1.354009032E0,-5.205444694E-1,1.037423730E0
8.540838030E-1,-1.272292614E0,-4.392644763E-1,1.016706705E0
8.580541160E-1,-1.166857362E0,-3.428001106E-1,9.840515256E-1
8.620259910E-1,-1.051002383E0,-2.465975732E-1,9.422858357E-1
8.659963030E-1,-9.220399857E-1,-1.456477195E-1,8.884773254E-1
8.699666160E-1,-7.836004496E-1,-4.132939503E-2,8.270068169E-1
8.739369280E-1,-6.629458666E-1,5.628686771E-2,7.721511126E-1
8.779072410E-1,-5.279272199E-1,1.460142434E-1,7.127051950E-1
8.818775530E-1,-3.939731717E-1,2.266310006E-1,6.491926908E-1
8.858494280E-1,-2.575756907E-1,2.979102433E-1,5.797809362E-1
8.898213030E-1,-1.339191198E-1,3.558028340E-1,5.138074756E-1
8.937900530E-1,-2.162462845E-2,4.119675159E-1,4.570144713E-1
8.977603660E-1,8.560840040E-2,4.612556100E-1,4.093844295E-1
9.017306780E-1,1.820727438E-1,5.025501251E-1,3.716853261E-1
9.057009910E-1,2.680476606E-1,5.337914824E-1,3.455926478E-1
9.096713030E-1,3.507937193E-1,5.669003725E-1,3.273539543E-1
9.136416160E-1,4.256857932E-1,6.013008356E-1,3.134262264E-1
9.176119280E-1,4.908389449E-1,6.322455406E-1,3.049613833E-1
9.215838030E-1,5.413662195E-1,6.510078311E-1,3.012612760E-1
9.255541160E-1,5.843536854E-1,6.527357101E-1,2.987829149E-1
9.295244280E-1,6.210055947E-1,6.372371316E-1,2.969328761E-1
9.334947410E-1,6.408150792E-1,6.050533056E-1,2.939134538E-1
9.374650530E-1,6.471680999E-1,5.633748174E-1,2.879967690E-1
9.414353660E-1,6.464001536E-1,5.255360603E-1,2.796890140E-1
9.454072410E-1,6.355267167E-1,4.911530912E-1,2.698279023E-1
9.493759910E-1,6.125233173E-1,4.609588981E-1,2.607870996E-1
9.533478660E-1,5.867971182E-1,4.401371181E-1,2.501580417E-1
9.573181780E-1,5.587148070E-1,4.172558486E-1,2.401573062E-1
9.612884910E-1,5.315051079E-1,3.885626495E-1,2.289697379E-1
9.652588030E-1,5.102644563E-1,3.510031700E-1,2.144660652E-1
9.692291160E-1,5.026024580E-1,3.118030727E-1,1.969778538E-1
9.731994280E-1,5.031784177E-1,2.751162350E-1,1.812873483E-1
9.771713030E-1,5.155178905E-1,2.355845422E-1,1.615302265E-1
9.811416160E-1,5.414534807E-1,1.981821358E-1,1.414763927E-1
9.851119280E-1,5.739864111E-1,1.666091233E-1,1.195550561E-1
9.890822410E-1,6.125581861E-1,1.362404078E-1,9.470156580E-2
9.930525530E-1,6.566452384E-1,1.105840579E-1,6.792821735E-2
9.970228660E-1,7.000515461E-1,7.993607968E-2,3.502875939E-2
1.000994741E0,7.470532656E-1,5.900958180E-2,-4.066617228E-3
1.004963491E0,7.894124389E-1,4.029965401E-2,-4.783947393E-2
1.008935366E0,8.311606646E-1,2.984512970E-2,-9.269443899E-2
1.012905678E0,8.635889292E-1,3.389429301E-2,-1.313185692E-1
1.016875991E0,8.894895911E-1,3.932226822E-2,-1.710422635E-1
1.020846303E0,9.096481204E-1,4.450589418E-2,-2.105914205E-1
1.024816616E0,9.218305349E-1,4.150392860E-2,-2.489188612E-1
1.028786928E0,9.302604795E-1,3.724532574E-2,-2.812074423E-1
1.032758803E0,9.338209629E-1,3.146828711E-2,-2.986432910E-1
1.036729116E0,9.312902093E-1,1.960004680E-2,-3.069510460E-1
1.040697866E0,9.324247241E-1,-2.460914198E-3,-3.068637848E-1
1.044669741E0,9.435424209E-1,-3.258529678E-2,-2.993065119E-1
1.048640053E0,9.606292248E-1,-7.461282611E-2,-2.895152271E-1
1.052610366E0,9.809972048E-1,-1.276010275E-1,-2.767219543E-1
1.056580678E0,1.008765340E0,-1.730319411E-1,-2.620961070E-1
1.060552553E0,1.041734695E0,-2.193355262E-1,-2.462310493E-1
1.064521303E0,1.077426672E0,-2.604729235E-1,-2.273640335E-1
1.068493178E0,1.111896873E0,-2.826560736E-1,-2.043780535E-1
1.072463491E0,1.137274027E0,-2.612059712E-1,-1.514596790E-1
1.076433803E0,1.173524499E0,-2.667910159E-1,-8.429940045E-2
1.080404116E0,1.220788002E0,-2.993239760E-1,-4.014257342E-2
1.084374428E0,1.259150386E0,-3.068114221E-1,-2.005383372E-2
1.088344741E0,1.278663158E0,-2.786418200E-1,-1.918116771E-2
1.092316616E0,1.272467136E0,-2.070484012E-1,-3.070034087E-2
1.096286928E0,1.249603391E0,-1.047895700E-1,-4.801400751E-2
1.100257241E0,1.206476331E0,2.466150187E-2,-6.442010403E-2
1.104227553E0,1.150678158E0,1.489114910E-1,-8.344419301E-2
1.108197866E0,1.089574099E0,2.860594690E-1,-1.046848446E-1
1.112168178E0,1.014507532E0,4.235914052E-1,-1.222603172E-1
1.116140053E0,9.401215911E-1,5.523443222E-1,-1.360135078E-1
1.120108803E0,8.727169633E-1,6.484072804E-1,-1.451764852E-1
1.124079116E0,8.151036501E-1,7.202624679E-1,-1.534318924E-1
1.128050991E0,7.670722008E-1,7.679099441E-1,-1.620538235E-1
1.132021303E0,7.392167449E-1,7.903897762E-1,-1.682148278E-1
1.135991616E0,7.241371274E-1,7.922223806E-1,-1.725432426E-1
1.139961928E0,7.275579572E-1,7.857123017E-1,-1.700648814E-1
1.143932241E0,7.451683283E-1,7.638956904E-1,-1.597674340E-1
1.147902553E0,7.764096856E-1,7.334920764E-1,-1.485100687E-1
1.151874428E0,8.176692724E-1,6.882531643E-1,-1.332384348E-1
1.155844741E0,8.620006442E-1,6.343050003E-1,-1.170592308E-1
1.159815053E0,9.069952369E-1,5.707052350E-1,-9.733701497E-2
1.163785366E0,9.436995387E-1,4.933173060E-1,-7.098253816E-2
1.167755678E0,9.716771245E-1,4.068886042E-1,-4.075343907E-2
1.171725991E0,9.863204360E-1,3.292563558E-1,-1.075122785E-2
1.175696303E0,9.842784405E-1,2.461088747E-1,1.947787404E-2
1.179666616E0,9.665808082E-1,1.719672978E-1,5.895722285E-2
1.183638491E0,9.390743971E-1,1.457873583E-1,1.372876018E-1
1.187608803E0,9.093340039E-1,6.452482194E-2,2.102772743E-1
1.191579116E0,8.779355288E-1,-2.813470736E-2,2.672622800E-1
1.195549428E0,8.398175240E-1,-9.487609565E-2,3.021339476E-1
1.199519741E0,7.845603824E-1,-1.375668496E-1,3.193603456E-1
1.203490053E0,7.078531981E-1,-1.494525373E-1,3.248930275E-1
1.207461928E0,6.229429245E-1,-1.335874945E-1,3.228684664E-1
1.211432241E0,5.244888663E-1,-9.752900153E-2,3.196221590E-1
1.215402553E0,4.235565066E-1,-5.047492310E-2,3.135134876E-1
1.219372866E0,3.278251886E-1,-1.713913307E-2,3.045425117E-1
1.223343178E0,2.285159528E-1,2.345722541E-2,2.966361642E-1
1.227313491E0,1.457000822E-1,6.038839370E-2,2.897595465E-1
1.231283803E0,7.503170520E-2,9.695304185E-2,2.831447721E-1
1.235254116E0,2.364921197E-2,1.265189201E-1,2.738945186E-1
1.239224428E0,-8.569566533E-3,1.479341090E-1,2.644173801E-1
1.243196303E0,-1.696459949E-2,1.614953130E-1,2.508037984E-1
1.247168178E0,-8.150687441E-3,1.690874994E-1,2.373124212E-1
1.251136928E0,1.307251584E-2,1.797689050E-1,2.226516455E-1
1.255107241E0,4.874704406E-2,2.120749503E-1,2.063502818E-1
1.259077553E0,8.888962120E-2,2.591813803E-1,1.909564734E-1
1.263047866E0,1.392423660E-1,3.170565069E-1,1.777617782E-1
1.267019741E0,1.957561225E-1,3.818605840E-1,1.651255935E-1
1.270990053E0,2.434559762E-1,4.306774437E-1,1.571668983E-1
1.274960366E0,2.904925942E-1,4.707851112E-1,1.493652761E-1
1.278930678E0,3.413165808E-1,5.008222461E-1,1.462760419E-1
1.282900991E0,3.831695914E-1,5.154306293E-1,1.480388194E-1
1.286871303E0,4.186172187E-1,5.266007185E-1,1.506044567E-1
1.290843178E0,4.387059510E-1,5.268101692E-1,1.517389268E-1
1.294813491E0,4.504171312E-1,5.330235362E-1,1.533620805E-1
1.298782241E0,4.435405135E-1,5.342103839E-1,1.592263877E-1
1.302754116E0,4.224743843E-1,5.340533257E-1,1.661728024E-1
1.306724428E0,3.929085135E-1,5.335820317E-1,1.770112962E-1
1.310694741E0,3.466398418E-1,5.218534470E-1,1.896300167E-1
1.314669741E0,2.877698839E-1,5.022359490E-1,2.025454640E-1
1.318635366E0,2.280098200E-1,4.826708138E-1,2.125461996E-1
1.322605678E0,1.555262953E-1,4.510977864E-1,2.195100635E-1
1.326577553E0,8.454374969E-2,4.175525606E-1,2.217789888E-1
1.330547866E0,1.635373570E-2,3.814242482E-1,2.186199427E-1
1.334518178E0,-4.356341809E-2,3.346668780E-1,2.101201862E-1
1.338488491E0,-8.539895713E-2,2.834938169E-1,1.961575598E-1
1.342458803E0,-1.182635128E-1,2.254441828E-1,1.815142483E-1
1.346430678E0,-1.379857361E-1,1.582315564E-1,1.632580906E-1
1.350400991E0,-1.470265388E-1,9.114108980E-2,1.446354389E-1
1.354371303E0,-1.496968865E-1,3.572688997E-2,1.306029856E-1
1.358341616E0,-1.457175314E-1,-5.044001620E-3,1.203229949E-1
1.362311928E0,-1.344427168E-1,-3.345796093E-2,1.132718697E-1
1.366282241E0,-1.208116934E-1,-5.454153940E-2,1.103746220E-1
1.370252553E0,-1.100255549E-1,-6.742206961E-2,1.093274206E-1
1.374222866E0,-9.789551795E-2,-6.538003683E-2,1.126610041E-1
1.378193178E0,-8.719664812E-2,-5.473352596E-2,1.162389293E-1
1.382165053E0,-8.004079759E-2,-4.007275775E-2,1.195899621E-1
1.386135366E0,-7.412413508E-2,-2.345722541E-2,1.213701963E-1
1.390105678E0,-6.173229590E-2,-1.797689125E-3,1.198692098E-1
1.394075991E0,-4.525638744E-2,1.586504281E-2,1.125737354E-1
1.398046303E0,-2.110103145E-2,3.296926990E-2,9.892526269E-2
1.402016616E0,6.859143730E-3,4.089306295E-2,7.939502597E-2
1.405986928E0,3.899065405E-2,4.508185387E-2,5.309291556E-2
1.409958803E0,7.656759769E-2,5.426228791E-2,2.064724453E-2
1.413927553E0,1.225046590E-1,6.798057258E-2,-2.047271281E-2
1.417899428E0,1.716531366E-1,8.056439459E-2,-5.934119597E-2
1.421869741E0,2.227214724E-1,9.424778074E-2,-1.015432552E-1
1.425840053E0,2.733534575E-1,1.110378429E-1,-1.431169957E-1
1.429811928E0,3.196919560E-1,1.366592795E-1,-1.781806648E-1
1.433780678E0,3.552443087E-1,1.624552459E-1,-2.070658654E-1
1.437750991E0,3.835012019E-1,1.964193583E-1,-2.269277126E-1
1.441722866E0,4.032059610E-1,2.326872945E-1,-2.411346883E-1
1.445693178E0,4.118104279E-1,2.681872845E-1,-2.489188612E-1
1.449663491E0,4.110250473E-1,2.995508611E-1,-2.474702299E-1
1.453633803E0,4.045149684E-1,3.315427303E-1,-2.406285405E-1
1.457604116E0,3.949854672E-1,3.567453027E-1,-2.261946648E-1
1.461574428E0,3.801501691E-1,3.757868409E-1,-2.082875967E-1
1.465546303E0,3.667809367E-1,3.852814436E-1,-1.888446212E-1
1.469516616E0,3.571292758E-1,3.883531988E-1,-1.724908948E-1
1.473486928E0,3.502526879E-1,3.852465153E-1,-1.576904953E-1
1.477457241E0,3.412293196E-1,3.764500618E-1,-1.446528882E-1
1.481427553E0,3.349635899E-1,3.646690845E-1,-1.374795884E-1
1.485399428E0,3.307747841E-1,3.477568626E-1,-1.375668496E-1
1.489369741E0,3.295356035E-1,3.287502229E-1,-1.449670494E-1
1.493338491E0,3.299719393E-1,3.102497160E-1,-1.583362669E-1
1.497308803E0,3.305130005E-1,2.920110226E-1,-1.756673902E-1
1.501280678E0,3.357838988E-1,2.749242485E-1,-1.976585388E-1
1.505250991E0,3.466398418E-1,2.423389703E-1,-2.231228948E-1
1.509221303E0,3.570070863E-1,2.124240249E-1,-2.367015481E-1
1.513191616E0,3.449817896E-1,1.927367151E-1,-2.273116857E-1
1.517161928E0,3.127979040E-1,1.868549436E-1,-1.846732944E-1
1.521133803E0,2.586228848E-1,1.800656170E-1,-1.237089336E-1
1.525104116E0,1.967684180E-1,1.605528444E-1,-5.766567960E-2
1.529074428E0,1.407608092E-1,1.178620830E-1,1.378810150E-3
1.533044741E0,9.075712413E-2,4.181808978E-2,4.977678880E-2
1.537015053E0,4.897394031E-2,-5.804964900E-2,8.421213925E-2
1.540985366E0,1.549852360E-2,-1.688780636E-1,1.049291939E-1
1.544955678E0,-1.471312530E-2,-2.829702199E-1,1.124341115E-1
1.548925991E0,-4.382521659E-2,-3.828903437E-1,1.089783609E-1
1.552896303E0,-7.431612164E-2,-4.672071934E-1,9.812241048E-2
1.556868178E0,-1.034631208E-1,-5.307371616E-1,8.445648104E-2
1.560838491E0,-1.401150376E-1,-5.768138766E-1,6.990043819E-2
1.564808803E0,-1.814444214E-1,-5.996602178E-1,6.068509817E-2
1.568779116E0,-2.169095129E-1,-6.099576354E-1,7.251843065E-2
1.572749428E0,-2.577676773E-1,-6.766641736E-1,1.279151738E-1
1.576719741E0,-2.768964767E-1,-7.622550726E-1,1.395565271E-1
1.580691616E0,-2.783800066E-1,-7.652047276E-1,1.168148890E-1
1.584661928E0,-2.880840600E-1,-6.941348910E-1,9.021607041E-2
1.588632241E0,-3.071779609E-1,-5.628512502E-1,6.914994121E-2
1.592602553E0,-3.210707605E-1,-4.194200635E-1,5.686282739E-2
1.596572866E0,-3.153635561E-1,-2.805442214E-1,4.961971194E-2
1.600543178E0,-2.875429988E-1,-1.752485037E-1,4.726351425E-2
1.604515053E0,-2.454805523E-1,-1.051560864E-1,4.831071198E-2
1.608485366E0,-1.971873045E-1,-5.832890421E-2,5.024803057E-2
1.612454116E0,-1.417032778E-1,-1.209513191E-2,5.089380220E-2
1.616425991E0,-8.340928704E-2,3.515093029E-2,4.745550081E-2
1.620396303E0,-3.043854237E-2,8.194320649E-2,4.009021446E-2
1.624366616E0,2.401573025E-2,1.259429604E-1,2.717477642E-2
1.628336928E0,7.492698729E-2,1.551597714E-1,1.026253588E-2
1.632307241E0,1.284038723E-1,1.686511636E-1,-1.022762898E-2
1.636282241E0,1.799783558E-1,1.847954541E-1,-2.687807009E-2
1.640249428E0,2.211157680E-1,2.059837580E-1,-3.740240633E-2
1.644219741E0,2.576105893E-1,2.439097613E-1,-4.164355621E-2
1.648190053E0,2.847155631E-1,2.912605405E-1,-4.019493237E-2
1.652160366E0,3.082076907E-1,3.432189822E-1,-3.440044075E-2
1.656130678E0,3.308620751E-1,3.947062194E-1,-2.579596639E-2
1.660100991E0,3.509333432E-1,4.421268106E-1,-1.768018492E-2
1.664072866E0,3.710744381E-1,4.946961105E-1,-8.656833321E-3
1.668043178E0,3.838502467E-1,5.410695076E-1,-1.326450263E-3
1.672013491E0,3.966435194E-1,5.945289731E-1,7.033676840E-3
1.675983803E0,4.123340249E-1,6.457020044E-1,1.239183731E-2
1.679954116E0,4.271169603E-1,6.835582256E-1,1.633628085E-2
1.683924428E0,4.406083822E-1,7.093890905E-1,2.008873969E-2
1.687894741E0,4.517959356E-1,7.281687856E-1,2.345722541E-2
1.691865053E0,4.584980011E-1,7.371223569E-1,2.900737152E-2
1.695836928E0,4.611334503E-1,7.427772284E-1,3.663446009E-2
1.699807241E0,4.580616653E-1,7.442433238E-1,4.494222626E-2
1.703777553E0,4.513944983E-1,7.443131208E-1,5.433209985E-2
1.707747866E0,4.395611584E-1,7.465994954E-1,6.761405617E-2
1.711718178E0,4.157199860E-1,7.482401133E-1,8.402015269E-2
1.715688491E0,3.846531212E-1,7.495840192E-1,1.007927656E-1
1.719658803E0,3.442138433E-1,7.530921102E-1,1.209687665E-1
1.723629116E0,2.960078418E-1,7.493396401E-1,1.376890242E-1
1.727600991E0,2.396511585E-1,7.375237942E-1,1.530304700E-1
1.731571303E0,1.761735380E-1,7.127749920E-1,1.621585339E-1
1.735541616E0,1.141619831E-1,6.763848662E-1,1.627344936E-1
1.739511928E0,5.012585595E-2,6.101496220E-1,1.531002820E-1
1.743482241E0,-8.866272867E-3,5.293583870E-1,1.347743273E-1
1.747452553E0,-6.384414434E-2,4.161737561E-1,1.089259982E-1
1.751422866E0,-1.067792401E-1,2.834065557E-1,7.810348272E-2
1.755394741E0,-1.398183256E-1,1.379333735E-1,4.506440088E-2
1.759365053E0,-1.622632593E-1,-7.871435024E-3,1.462585945E-2
1.763335366E0,-1.732413769E-1,-1.415462047E-1,-1.061160211E-2
1.767305678E0,-1.776047051E-1,-2.322335094E-1,-2.261946723E-2
1.771275991E0,-1.670105606E-1,-2.966535985E-1,-2.649409883E-2
1.775246303E0,-1.521927118E-1,-3.500432372E-1,-2.420771681E-2
1.779218178E0,-1.260476708E-1,-3.799058199E-1,-1.907644793E-2
1.783188491E0,-9.470156580E-2,-3.928212523E-1,-1.518436428E-2
1.787157241E0,-5.822418258E-2,-3.925594687E-1,-1.295034308E-2
1.791129116E0,-1.830850355E-2,-3.836059272E-1,-1.598721556E-2
1.795099428E0,2.415535599E-2,-3.687880635E-1,-1.994911395E-2
1.799069741E0,6.939429045E-2,-3.458020687E-1,-2.234021388E-2
1.803040053E0,1.150695607E-1,-3.157126009E-1,-2.281145379E-2
1.807010366E0,1.557357311E-1,-2.875429988E-1,-1.993165910E-2
1.810985366E0,1.965764314E-1,-2.561270595E-1,-1.134464052E-2
1.814952553E0,2.320764363E-1,-2.282017916E-1,-1.570796361E-3
1.818922866E0,2.691821158E-1,-1.890191585E-1,9.686577134E-3
1.822893178E0,2.978229821E-1,-1.461364180E-1,2.150245570E-2
1.826863491E0,3.199014068E-1,-9.761626273E-2,3.782128543E-2
1.830833803E0,3.327121139E-1,-3.457497060E-2,5.773549154E-2
1.834804116E0,3.419449031E-1,3.110176697E-2,7.559020817E-2
1.838775991E0,3.467445672E-1,1.043532342E-1,9.063494951E-2
1.842747866E0,3.504097462E-1,1.797863692E-1,1.022239327E-1
1.846716616E0,3.477568626E-1,2.485174239E-1,1.138303727E-1
1.850686928E0,3.446501791E-1,3.248232305E-1,1.206197068E-1
1.854657241E0,3.399203122E-1,3.956312239E-1,1.196772233E-1
1.858627553E0,3.401821256E-1,4.642052054E-1,1.158200502E-1
1.862597866E0,3.512300551E-1,4.888492823E-1,1.038470864E-1
1.866568178E0,4.132415950E-1,3.327644765E-1,7.077310234E-2
1.870540053E0,4.830722213E-1,1.355771720E-1,1.968731359E-2
1.874510366E0,5.216091275E-1,1.951278187E-2,-3.139847144E-2
1.878480678E0,5.193401575E-1,-7.417649496E-3,-8.042477071E-2
1.882450991E0,4.808033109E-1,4.155628756E-2,-1.168323383E-1
1.886421303E0,4.204498231E-1,1.408131570E-1,-1.430471838E-1
1.890391616E0,3.470587134E-1,2.564063072E-1,-1.638689637E-1
1.894361928E0,2.752209604E-1,3.567278385E-1,-1.787915230E-1
1.898333803E0,1.988453567E-1,4.274660349E-1,-1.910960972E-1
1.902304116E0,1.268505305E-1,4.650080800E-1,-1.998751014E-1
1.906274428E0,5.372123420E-2,4.710469246E-1,-2.033832222E-1
1.910244741E0,-2.069960535E-2,4.477816820E-1,-2.045874894E-1
1.914215053E0,-9.777334332E-2,4.027172625E-1,-2.061059326E-1
1.918185366E0,-1.779363155E-1,3.517885506E-1,-2.048492879E-1
1.922155678E0,-2.676113248E-1,2.962347269E-1,-2.007652223E-1
1.926125991E0,-3.595029116E-1,2.438050359E-1,-1.951801628E-1
1.930097866E0,-4.561592638E-1,2.036275566E-1,-1.855808645E-1
1.934068178E0,-5.478937626E-1,1.765924096E-1,-1.740616858E-1
1.938038491E0,-6.341654062E-1,1.603608578E-1,-1.605179310E-1
1.942008803E0,-7.087084055E-1,1.492256522E-1,-1.449496001E-1
1.945979116E0,-7.729015946E-1,1.422443390E-1,-1.273392290E-1
1.949949428E0,-8.224166036E-1,1.329242736E-1,-1.097986624E-1
1.953921303E0,-8.558222055E-1,1.148252115E-1,-9.423032403E-2
1.957891616E0,-8.728042245E-1,9.100146592E-2,-8.175121993E-2
1.961868178E0,-8.721061349E-1,5.527457595E-2,-7.246606797E-2
1.965832241E0,-8.603426218E-1,1.855284907E-2,-6.763150543E-2
1.969802553E0,-8.328885436E-1,-1.628392190E-2,-6.592108309E-2
1.973772866E0,-7.939677238E-1,-5.621705577E-2,-6.757915020E-2
1.977744741E0,-7.434753776E-1,-9.721484035E-2,-7.072073966E-2
1.981715053E0,-6.788458228E-1,-1.384395212E-1,-7.651523501E-2
1.985685366E0,-6.086661220E-1,-1.824567169E-1,-8.299040794E-2
1.989655678E0,-5.255360603E-1,-2.365444750E-1,-8.468337357E-2
1.993625991E0,-4.365417361E-1,-2.981894910E-1,-8.227481693E-2
1.997596303E0,-3.472332656E-1,-3.699923456E-1,-7.351326942E-2
2.001568178E0,-2.563888729E-1,-4.397357106E-1,-5.843362212E-2
2.005536928E0,-1.780235767E-1,-4.996179640E-1,-4.050909355E-2
2.009508803E0,-1.088387296E-1,-5.473178029E-1,-1.685987972E-2
2.013479116E0,-5.661848187E-2,-5.760110021E-1,4.188789986E-3
2.017449428E0,-1.349139493E-2,-5.822942257E-1,2.338741161E-2
2.021419741E0,1.308996975E-2,-5.675112605E-1,4.134684801E-2
2.025390053E0,3.160791099E-2,-5.236511230E-1,5.490805954E-2
2.029360366E0,3.522074595E-2,-4.596499205E-1,6.145304441E-2
2.033330678E0,2.398082428E-2,-3.726626933E-1,6.316346675E-2
2.037302553E0,5.550147034E-3,-2.728996873E-1,5.789257213E-2
2.041272866E0,-2.213077433E-2,-1.582315564E-1,4.567526653E-2
2.045243178E0,-5.328490213E-2,-4.403465614E-2,2.923426405E-2
2.049213491E0,-8.625417203E-2,6.433283538E-2,7.487462368E-3
2.053183803E0,-1.183333248E-1,1.622632593E-1,-1.516691130E-2
2.057154116E0,-1.504822820E-1,2.447126210E-1,-3.928736225E-2
2.061124428E0,-1.754404902E-1,3.095864952E-1,-6.846926361E-2
2.065094741E0,-1.866106093E-1,3.477045000E-1,-9.368927032E-2
2.069066616E0,-1.896649301E-1,3.668332994E-1,-1.214923710E-1
2.073036928E0,-1.811302751E-1,3.677583337E-1,-1.502728462E-1
2.077007241E0,-1.649161577E-1,3.508460820E-1,-1.777792424E-1
2.080983803E0,-1.404990107E-1,3.209660351E-1,-2.000321895E-1
2.084947866E0,-1.114043668E-1,2.787290812E-1,-2.162113935E-1
2.088918178E0,-7.688175142E-2,2.261423171E-1,-2.257059813E-1
2.092890053E0,-3.520328924E-2,1.663996875E-1,-2.275734842E-1
2.096860366E0,1.239183708E-3,1.021890268E-1,-2.235417664E-1
2.100830678E0,3.829252347E-2,3.319616243E-2,-2.146580368E-1
2.104800991E0,6.691592187E-2,-4.241150245E-2,-2.036101073E-1
2.108771303E0,9.199630469E-2,-1.226617396E-1,-1.932079494E-1
2.112741616E0,1.159945801E-1,-2.070833147E-1,-1.822123677E-1
2.116711928E0,1.332384348E-1,-2.920284867E-1,-1.701696068E-1
2.120682241E0,1.530828327E-1,-3.688578904E-1,-1.569400132E-1
2.124652553E0,1.698554456E-1,-4.340110123E-1,-1.426457614E-1
2.128624428E0,1.834166497E-1,-4.864058197E-1,-1.282467991E-1
2.132594741E0,1.944820434E-1,-5.188863873E-1,-1.116836220E-1
2.136565053E0,2.020218670E-1,-5.267578363E-1,-9.517280012E-2
2.140535366E0,2.054950595E-1,-5.095314384E-1,-8.138470352E-2
2.144505678E0,1.936268210E-1,-4.797386527E-1,-7.117452472E-2
2.148475991E0,1.783202887E-1,-4.309043288E-1,-6.068509817E-2
2.152447866E0,1.567305624E-1,-3.535862565E-1,-4.921828583E-2
2.156418178E0,1.258207858E-1,-2.614852190E-1,-3.193952516E-2
2.160386928E0,9.032078832E-2,-1.480213702E-1,-1.024508290E-2
2.164358803E0,6.136577576E-2,-4.513421282E-2,6.527531426E-3
2.168329116E0,2.642428502E-2,6.553710997E-2,2.504547499E-2
2.172299428E0,-1.022762898E-2,1.834864616E-1,4.056145251E-2
2.176269741E0,-4.101523757E-2,2.892708778E-1,4.974188283E-2
2.180240053E0,-6.740461290E-2,3.654370308E-1,5.347688869E-2
2.184211928E0,-9.248499572E-2,4.097160399E-1,5.370378122E-2
2.188182241E0,-1.143888757E-1,4.177969098E-1,5.391322076E-2
2.192152553E0,-1.325926632E-1,3.941476941E-1,5.637413636E-2
2.196122866E0,-1.511804163E-1,3.395363390E-1,5.791002512E-2
2.200093178E0,-1.631359309E-1,2.690774202E-1,5.756095797E-2
2.204063491E0,-1.660680771E-1,1.819854826E-1,5.626941472E-2
2.208046303E0,-1.641482115E-1,7.585200667E-2,5.773549154E-2
2.212005678E0,-1.565560400E-1,-2.981022373E-2,6.232570857E-2
2.215975991E0,-1.399928629E-1,-1.340936422E-1,6.984807551E-2
2.219946303E0,-1.191012710E-1,-2.385516018E-1,7.963937521E-2
2.223916616E0,-9.423032403E-2,-3.356268108E-1,8.927359432E-2
2.227886928E0,-6.562437862E-2,-4.160341322E-1,9.705775976E-2
2.231857241E0,-3.152064607E-2,-4.787088931E-1,1.061509252E-1
2.235829116E0,6.998770405E-3,-5.143311024E-1,1.222079545E-1
2.239797866E0,5.047492310E-2,-5.212076902E-1,1.404117346E-1
2.243769741E0,9.297368675E-2,-5.031260848E-1,1.621759981E-1
2.247740053E0,1.364149302E-1,-4.622853696E-1,1.803274155E-1
2.251710366E0,1.746900082E-1,-4.081103504E-1,1.992293298E-1
2.255680678E0,2.123542130E-1,-3.392396569E-1,2.188991904E-1
2.259650991E0,2.470513582E-1,-2.543817461E-1,2.374345958E-1
2.263621303E0,2.706656456E-1,-1.732588410E-1,2.530902028E-1
2.267593178E0,2.872288227E-1,-9.131562710E-2,2.671051919E-1
2.271563491E0,2.924473584E-1,-5.637413356E-3,2.826560736E-1
2.275533803E0,2.853962481E-1,7.613126189E-2,2.974041104E-1
2.279504116E0,2.663721442E-1,1.405339092E-1,3.116285503E-1
2.283474428E0,2.346420586E-1,1.923876405E-1,3.261845708E-1
2.287444741E0,1.917418689E-1,2.197544128E-1,3.382622600E-1
2.291416616E0,1.403419226E-1,2.324604094E-1,3.505842984E-1
2.295385366E0,8.555603772E-2,2.300518453E-1,3.604279459E-1
2.299355678E0,2.731440216E-2,2.145358771E-1,3.690149486E-1
2.303327553E0,-2.956587821E-2,1.916546077E-1,3.750188947E-1
2.307297866E0,-8.655087650E-2,1.590344012E-1,3.815464377E-1
2.311268178E0,-1.285085976E-1,1.288751066E-1,3.864158988E-1
2.315238491E0,-1.627694070E-1,8.442157507E-2,3.912853599E-1
2.319208803E0,-1.819680333E-1,3.895574808E-2,3.946712911E-1
2.323179116E0,-1.854586899E-1,-1.096066739E-2,3.959977627E-1
2.327150991E0,-1.752310544E-1,-5.981243402E-2,3.943920434E-1
2.331121303E0,-1.501157731E-1,-1.040216237E-1,3.912678957E-1
2.335091616E0,-1.166403517E-1,-1.519658118E-1,3.866951466E-1
2.339061928E0,-7.808603346E-2,-1.911310107E-1,3.800803423E-1
2.343032241E0,-2.740166895E-2,-2.145882249E-1,3.730815649E-1
2.347002553E0,2.898991853E-2,-2.153038085E-1,3.670427501E-1
2.350972866E0,9.084438533E-2,-1.987580955E-1,3.602010608E-1
2.354943178E0,1.630835682E-1,-1.542870998E-1,3.508984447E-1
2.358915053E0,2.316226512E-1,-9.435249865E-2,3.431840837E-1
2.362885366E0,2.949606478E-1,-1.745329238E-2,3.329041004E-1
2.366855678E0,3.566231132E-1,7.709119469E-2,3.223972321E-1
2.370825991E0,4.106410742E-1,1.755277663E-1,3.103195429E-1
2.374796303E0,4.569446445E-1,2.859372795E-1,2.978404462E-1
2.378766616E0,4.941550791E-1,3.949505687E-1,2.885552943E-1
2.382736928E0,5.225166678E-1,4.967207015E-1,2.819230258E-1
2.386708803E0,5.405982733E-1,5.930803418E-1,2.768964767E-1
2.390679116E0,5.542118549E-1,6.700144410E-1,2.754129469E-1
2.394649428E0,5.565505624E-1,7.385185957E-1,2.742959559E-1
2.398619741E0,5.491852760E-1,7.935837507E-1,2.775946259E-1
2.402590053E0,5.362698436E-1,8.374089599E-1,2.828305960E-1
2.406565053E0,5.139296651E-1,8.694881201E-1,2.909638286E-1
2.410532241E0,4.879416823E-1,8.853706121E-1,3.027273715E-1
2.414500991E0,4.551120400E-1,8.857545853E-1,3.175277412E-1
2.418472866E0,4.173605740E-1,8.669050336E-1,3.343352675E-1
2.422443178E0,3.727325201E-1,8.261516094E-1,3.528706729E-1
2.426413491E0,3.203202784E-1,7.618013024E-1,3.717027605E-1
2.430383803E0,2.649409771E-1,6.802595258E-1,3.894178569E-1
2.434354116E0,2.058092207E-1,5.780705214E-1,4.066791534E-1
2.438333803E0,1.501506716E-1,4.622504413E-1,4.220206141E-1
2.442296303E0,9.866346419E-2,3.498687148E-1,4.349011481E-1
2.446265053E0,4.607669264E-2,2.278527319E-1,4.478863776E-1
2.450236928E0,-1.640609466E-3,1.114218161E-1,4.589517713E-1
2.454207241E0,-5.560619012E-2,-1.553343027E-3,4.696680903E-1
2.458177553E0,-1.055400595E-1,-9.548696131E-2,4.813443422E-1
2.462147866E0,-1.504648328E-1,-1.688780636E-1,4.901058972E-1
2.466118178E0,-1.996482164E-1,-2.342231870E-1,4.984136820E-1
2.470088491E0,-2.440842986E-1,-2.851170003E-1,5.067389011E-1
2.474058803E0,-2.799333632E-1,-3.118205369E-1,5.155353546E-1
2.478030678E0,-3.088185489E-1,-3.253642917E-1,5.229529738E-1
2.482000991E0,-3.332357109E-1,-3.301115632E-1,5.260946155E-1
2.485971303E0,-3.502701223E-1,-3.245788813E-1,5.255535245E-1
2.489941616E0,-3.572863638E-1,-3.056944311E-1,5.245063305E-1
2.493911928E0,-3.568500280E-1,-2.772630155E-1,5.210855007E-1
2.497882241E0,-3.462035060E-1,-2.385341525E-1,5.126555562E-1
2.501854116E0,-3.265685439E-1,-1.971349418E-1,5.012934804E-1
2.505829116E0,-2.988701761E-1,-1.509709805E-1,4.861265421E-1
2.509794741E0,-2.592861056E-1,-9.421287477E-2,4.710294604E-1
2.513765053E0,-2.165779024E-1,-4.057890549E-2,4.542917609E-1
2.517735366E0,-1.721941829E-1,7.120943163E-3,4.347265959E-1
2.521705678E0,-1.253844500E-1,4.501204193E-2,4.171336889E-1
2.525675991E0,-8.052948862E-2,7.216936350E-2,4.053178132E-1
2.529646303E0,-3.555235639E-2,9.419541806E-2,3.969576955E-1
2.533618178E0,-3.316125658E-4,1.023112014E-1,3.932750523E-1
2.537588491E0,2.869321220E-2,1.089609042E-1,3.960850239E-1
2.541558803E0,4.712389037E-2,1.019795910E-1,4.008846879E-1
2.545529116E0,6.033603102E-2,8.958774805E-2,4.117755294E-1
2.549499428E0,6.574655324E-2,7.267551124E-2,4.253018200E-1
2.553469741E0,7.045894116E-2,6.010913849E-2,4.373969734E-1
2.557441616E0,6.448991597E-2,4.797910154E-2,4.556007385E-1
2.561411928E0,5.642649531E-2,4.207988828E-2,4.724082649E-1
2.565382241E0,4.740314186E-2,4.536110535E-2,4.909262061E-1
2.569352553E0,3.933972120E-2,5.389576778E-2,5.102121234E-1
2.573322866E0,3.420845419E-2,6.637486815E-2,5.292361975E-1
2.577293178E0,3.349286690E-2,7.459536940E-2,5.485046506E-1
2.581263491E0,3.885103017E-2,7.974409312E-2,5.667607784E-1
2.585235366E0,4.689699784E-2,7.883652300E-2,5.862910151E-1
2.589204116E0,5.485569686E-2,7.091272622E-2,6.046169400E-1
2.593175991E0,6.551966071E-2,6.419321150E-2,6.225065589E-1
2.597146303E0,7.852236181E-2,5.715953186E-2,6.368008256E-1
2.601116616E0,8.749335259E-2,4.930555075E-2,6.483548880E-1
2.605086928E0,9.044296294E-2,3.958406672E-2,6.578494906E-1
2.609057241E0,8.864527196E-2,2.876302600E-2,6.601707935E-1
2.613027553E0,8.262388408E-2,2.052507177E-2,6.588094234E-1
2.616999428E0,6.478662044E-2,1.251401100E-2,6.561914086E-1
2.620969741E0,4.206243530E-2,6.946410518E-3,6.469411850E-1
2.624940053E0,1.973967440E-2,2.949606394E-3,6.356489062E-1
2.628910366E0,-2.792526735E-3,-8.011061698E-3,6.177942157E-1
2.632880678E0,-1.844812930E-2,-2.005383372E-2,5.985432267E-1
2.636850991E0,-2.841396071E-2,-3.462733328E-2,5.781577826E-1
2.640822866E0,-3.190461919E-2,-5.754350498E-2,5.615596771E-1
2.644791616E0,-2.755874954E-2,-8.504989743E-2,5.496914387E-1
2.648761928E0,-1.738347858E-2,-1.208291426E-1,5.431464911E-1
2.652733803E0,-7.330382941E-4,-1.561895162E-1,5.418898463E-1
2.656704116E0,1.790707745E-2,-1.940282583E-1,5.436700583E-1
2.660674428E0,3.600614145E-2,-2.207492441E-1,5.460960865E-1
2.664644741E0,5.578072369E-2,-2.420248091E-1,5.509306192E-1
2.668616616E0,6.921976060E-2,-2.641206682E-1,5.574756265E-1
2.672586928E0,8.265879005E-2,-2.787639797E-1,5.636889935E-1
2.676563491E0,9.594074637E-2,-2.848551869E-1,5.669702291E-1
2.680527553E0,1.108458638E-1,-2.808758318E-1,5.670749545E-1
2.684497866E0,1.344427168E-1,-2.647664547E-1,5.640904307E-1
2.688468178E0,1.573239714E-1,-2.372600585E-1,5.553463101E-1
2.692438491E0,1.799958050E-1,-1.936617345E-1,5.407204628E-1
2.696408803E0,2.053205371E-1,-1.354549974E-1,5.204920769E-1
2.700380678E0,2.298249602E-1,-6.265731901E-2,4.952022731E-1
2.704350991E0,2.547482550E-1,2.799508162E-2,4.660203755E-1
2.708321303E0,2.815565169E-1,1.350012124E-1,4.347789586E-1
2.712291616E0,3.026924431E-1,2.431418151E-1,4.007450342E-1
2.716261928E0,3.207217157E-1,3.508635461E-1,3.665715158E-1
2.720232241E0,3.366914690E-1,4.502949417E-1,3.350857496E-1
2.724202553E0,3.499036133E-1,5.320636034E-1,3.113667369E-1
2.728172866E0,3.619114757E-1,6.015451550E-1,2.928313315E-1
2.732144741E0,3.742334843E-1,6.491752267E-1,2.798810005E-1
2.736115053E0,3.831695914E-1,6.721437573E-1,2.721317410E-1
2.740085366E0,3.894178569E-1,6.673091650E-1,2.683094740E-1
2.744055678E0,3.925420046E-1,6.330832839E-1,2.692694068E-1
2.748032241E0,3.892956972E-1,5.693438649E-1,2.711892724E-1
2.751996303E0,3.788411617E-1,4.779584110E-1,2.719746530E-1
2.755968178E0,3.560646176E-1,3.571118116E-1,2.702293396E-1
2.759938491E0,3.308620751E-1,2.468942702E-1,2.676636875E-1
2.763907241E0,2.990098000E-1,1.224348471E-1,2.608394623E-1
2.767879116E0,2.596875429E-1,-3.665191354E-3,2.498613298E-1
2.771849428E0,2.214473784E-1,-1.154011711E-1,2.360208780E-1
2.775819741E0,1.795420200E-1,-2.225469351E-1,2.208190560E-1
2.779791616E0,1.400103122E-1,-3.171612322E-1,2.049540132E-1
2.783760366E0,1.087863743E-1,-3.890862465E-1,1.895253062E-1
2.787730678E0,8.168140799E-2,-4.474500716E-1,1.793325841E-1
2.791702553E0,6.661921740E-2,-4.857076705E-1,1.714087874E-1
2.795672866E0,6.195918843E-2,-5.098106861E-1,1.670803726E-1
2.799643178E0,6.780604273E-2,-5.200208426E-1,1.673072577E-1
2.803613491E0,8.452629298E-2,-5.086936355E-1,1.717403978E-1
2.807583803E0,1.039518118E-1,-4.853935242E-1,1.799608916E-1
2.811554116E0,1.299397647E-1,-4.388455749E-1,1.932428479E-1
2.815525991E0,1.570447236E-1,-3.750712574E-1,2.084621191E-1
2.819496303E0,1.879021525E-1,-2.919063270E-1,2.222153246E-1
2.823466616E0,2.170142382E-1,-2.066993415E-1,2.358812541E-1
2.827436928E0,2.479414791E-1,-1.158025935E-1,2.493726462E-1
2.831407241E0,2.782752812E-1,-2.633701824E-2,2.617819309E-1
2.835379116E0,3.072652221E-1,5.462880433E-2,2.717826664E-1
2.839349428E0,3.306351602E-1,1.363974810E-1,2.799682617E-1
2.843318178E0,3.539004028E-1,2.227738202E-1,2.851170003E-1
2.847290053E0,3.682295680E-1,3.008249402E-1,2.870543003E-1
2.851260366E0,3.748269081E-1,3.721914589E-1,2.821499407E-1
2.855230678E0,3.735353649E-1,4.251621962E-1,2.761808932E-1
2.859200991E0,3.668856621E-1,4.658981860E-1,2.771931887E-1
2.863171303E0,3.514569402E-1,4.945914149E-1,2.816786766E-1
2.867141616E0,3.271096051E-1,4.989198148E-1,2.890090644E-1
2.871113491E0,2.938087285E-1,4.691968560E-1,2.975437343E-1
2.875083803E0,2.595304549E-1,4.155454338E-1,3.109129667E-1
2.879054116E0,2.244144380E-1,3.384367824E-1,3.252421021E-1
2.883024428E0,1.881464869E-1,2.710670829E-1,3.362027705E-1
2.886994741E0,1.540078521E-1,2.592163086E-1,3.479488492E-1
2.890965053E0,1.044928655E-1,4.399974942E-1,3.763976991E-1
2.894935366E0,4.968952388E-2,6.504842043E-1,4.351454973E-1
2.898905678E0,1.521927118E-2,7.168067098E-1,5.012585521E-1
2.902880678E0,1.720894687E-2,5.738991499E-1,5.445427299E-1
2.906847866E0,3.717551380E-2,3.529753983E-1,5.559920669E-1
2.910818178E0,5.684537441E-2,9.142034501E-2,5.254487991E-1
2.914797866E0,5.974261835E-2,-9.335765988E-2,4.334699810E-1
2.918758803E0,4.572762549E-2,-1.539729387E-1,2.575233281E-1
2.922729116E0,1.214749180E-2,-1.598896086E-1,3.075270168E-2
2.926699428E0,-3.834488243E-2,-1.417381912E-1,-1.667487621E-1
2.930671303E0,-8.838347346E-2,-9.183922410E-2,-3.583509922E-1
2.934641616E0,-1.162040234E-1,-1.726130582E-2,-5.128300786E-1
2.938611928E0,-1.186300293E-1,7.641051710E-2,-6.238679290E-1
2.942582241E0,-9.745918214E-2,1.787915230E-1,-6.887941957E-1
2.946552553E0,-5.759586394E-2,2.648362517E-1,-7.108377218E-1
2.950522866E0,-1.762782573E-3,3.235665858E-1,-6.554234624E-1
2.954494741E0,6.248278543E-2,3.076666296E-1,-4.759512842E-1
2.958463491E0,1.368861794E-1,1.955641359E-1,-2.703514993E-1
2.962433803E0,2.169618756E-1,1.220508739E-1,-1.134638563E-1
2.966405678E0,2.762681544E-1,1.599419713E-1,1.857030392E-2
2.970375991E0,2.864783406E-1,9.197885171E-3,1.555611938E-1
2.974346303E0,2.635272741E-1,-1.838878840E-1,2.578200400E-1
2.978316616E0,2.129825205E-1,-3.193603456E-1,3.288898468E-1
2.982286928E0,1.452812105E-1,-3.858050406E-1,3.958581388E-1
2.986257241E0,9.463175386E-2,-4.044451416E-1,4.623900652E-1
2.990229116E0,6.742206961E-2,-4.169417024E-1,5.139471292E-1
2.994199428E0,6.904522330E-2,-4.303109348E-1,5.361127853E-1
2.998169741E0,9.389871359E-2,-4.515166879E-1,5.360255241E-1
3.002152553E0,1.384395212E-1,-4.901931584E-1,5.119050741E-1
3.006110366E0,1.943249553E-1,-5.428323150E-1,4.830373228E-1
3.010080678E0,2.581341863E-1,-6.213197708E-1,4.462806880E-1
3.014050991E0,3.118030727E-1,-7.120769024E-1,4.042182565E-1
3.018021303E0,3.517187536E-1,-8.104087114E-1,3.570943773E-1
3.021993178E0,3.717551231E-1,-9.128246307E-1,3.058340549E-1
3.025963491E0,3.698876202E-1,-1.015833974E0,2.498787940E-1
3.029933803E0,3.465351164E-1,-1.131043196E0,1.822996438E-1
3.033907241E0,3.089581728E-1,-1.249952435E0,1.118232459E-1
3.037874428E0,2.660579979E-1,-1.349593282E0,4.331907257E-2
3.041844741E0,2.233846933E-1,-1.402564049E0,-2.975786291E-2
3.045816616E0,1.934522986E-1,-1.386611700E0,-9.368927032E-2
3.049786928E0,1.695238352E-1,-1.313133359E0,-1.505520940E-1
3.053757241E0,1.556135565E-1,-1.221957326E0,-1.914451718E-1
3.057727553E0,1.510757059E-1,-1.157100916E0,-2.150245607E-1
3.061697866E0,1.514073163E-1,-1.100761652E0,-2.356194556E-1
3.065668178E0,1.484926194E-1,-1.055348277E0,-2.546958923E-1
3.069638491E0,1.406735331E-1,-1.013896704E0,-2.700373530E-1
3.073610366E0,1.287005842E-1,-9.691813588E-1,-2.832494974E-1
3.077580678E0,1.124690175E-1,-9.339082241E-1,-2.875953615E-1
3.081550991E0,9.724974632E-2,-8.920726776E-1,-3.009994924E-1
3.085521303E0,7.897614688E-2,-8.480031490E-1,-3.462384045E-1
3.089491616E0,5.614724010E-2,-8.262563348E-1,-3.820176721E-1
3.093461928E0,3.619812801E-2,-8.297818899E-1,-3.926816285E-1
3.097432241E0,1.488765888E-2,-8.320857286E-1,-3.897320330E-1
3.101402553E0,-1.637118869E-2,-8.347910047E-1,-3.674616218E-1
3.105374428E0,-4.591961205E-2,-8.314225078E-1,-3.348239660E-1
3.109344741E0,-6.824237108E-2,-8.367108107E-1,-3.070383072E-1
3.113315053E0,-7.677703351E-2,-8.523839116E-1,-2.862514555E-1
3.117285366E0,-7.899360359E-2,-8.811469078E-1,-2.755525708E-1
3.121255678E0,-7.398450375E-2,-9.180257320E-1,-2.729171216E-1
3.125225991E0,-6.789331138E-2,-9.627061486E-1,-2.788512409E-1
3.129197866E0,-5.677555874E-2,-1.013634920E0,-2.898992002E-1
3.133168178E0,-7.937757671E-2,-1.083639979E0,-2.818357646E-1
3.137136928E0,-1.758070141E-1,-1.181832194E0,-2.494250089E-1
3.141108803E0,-2.806140482E-1,-1.301544428E0,-2.358288914E-1
3.145079116E0,-3.770609200E-1,-1.412582278E0,-2.574186027E-1
3.149049428E0,-4.433310926E-1,-1.462062359E0,-3.032335043E-1
3.153025991E0,-4.715879560E-1,-1.426335454E0,-3.608468175E-1
3.156990053E0,-4.620933831E-1,-1.338685036E0,-3.960501254E-1
3.160960366E0,-4.228932858E-1,-1.218466759E0,-4.163482785E-1
3.164932241E0,-3.696083724E-1,-1.095368624E0,-4.184950590E-1
3.168902553E0,-2.956413329E-1,-1.012221098E0,-3.904825151E-1
3.172872866E0,-2.074149251E-1,-9.705426693E-1,-3.158696890E-1
3.176843178E0,-1.109680310E-1,-9.444849491E-1,-2.336297780E-1
3.180813491E0,-1.937315450E-3,-9.175370336E-1,-1.468345523E-1
3.184785366E0,1.126784533E-1,-8.858418465E-1,-5.318018049E-2
3.188755678E0,2.367015481E-1,-8.488234282E-1,4.211479425E-2
3.192725991E0,3.766245842E-1,-7.907039523E-1,1.425759494E-1
3.196696303E0,5.205968022E-1,-7.293207049E-1,2.366317362E-1
3.200666616E0,6.716725230E-1,-6.749013662E-1,3.280171752E-1
3.204636928E0,8.245459199E-1,-6.426302195E-1,4.099429250E-1
3.208607241E0,9.562484622E-1,-6.399424076E-1,4.740663171E-1
3.212577553E0,1.075943112E0,-6.580764055E-1,5.238955021E-1
3.216547866E0,1.175025463E0,-6.810274720E-1,5.599190593E-1
3.220519741E0,1.253268600E0,-7.044847012E-1,5.825560093E-1
3.224490053E0,1.312033772E0,-7.229502797E-1,5.847027302E-1
3.228460366E0,1.346643686E0,-7.409969568E-1,5.667607784E-1
3.232430678E0,1.362892747E0,-7.631626725E-1,5.283460617E-1
3.236400991E0,1.356434941E0,-7.939153910E-1,4.769461155E-1
3.240371303E0,1.323151588E0,-8.259072304E-1,4.153534472E-1
3.244341616E0,1.248573661E0,-8.307941556E-1,3.503573835E-1
3.248313491E0,1.124707580E0,-8.081572652E-1,2.927789688E-1
3.252283803E0,9.476439953E-1,-7.663740516E-1,2.428102046E-1
3.256254116E0,7.646636367E-1,-7.138047814E-1,2.081305087E-1
3.260224428E0,5.656786561E-1,-6.639407277E-1,1.796641946E-1
3.264194741E0,3.336196840E-1,-6.271491647E-1,1.508837193E-1
3.268165053E0,9.461429715E-2,-6.101845503E-1,1.181064323E-1
3.272135366E0,-1.383871585E-1,-6.002187133E-1,8.227481693E-2
3.276105678E0,-3.455053866E-1,-5.613676906E-1,3.984586522E-2
3.280077553E0,-5.409299135E-1,-4.953767955E-1,-8.726646192E-4
3.284047866E0,-7.160387635E-1,-4.047069550E-1,-4.504694790E-2
3.288018178E0,-8.687376380E-1,-3.045774102E-1,-9.901253134E-2
3.291988491E0,-1.002743959E0,-2.136108428E-1,-1.599070728E-1
3.295958803E0,-1.122141957E0,-1.345997900E-1,-2.347816974E-1
3.299929116E0,-1.226006508E0,-7.817329466E-2,-3.209834993E-1
3.303900991E0,-1.305157185E0,-3.700098023E-2,-4.050385654E-1
3.307871303E0,-1.353345752E0,8.185594343E-3,-4.927239120E-1
3.311841616E0,-1.379333735E0,4.888667166E-2,-5.866575241E-1
3.315811928E0,-1.376000166E0,9.260717034E-2,-6.781302094E-1
3.319782241E0,-1.348039985E0,1.471836120E-1,-7.596371174E-1
3.323752553E0,-1.288227558E0,2.181836069E-1,-8.266751766E-1
3.327722866E0,-1.203090310E0,2.883283794E-1,-8.722981215E-1
3.331693178E0,-1.093693137E0,3.501653969E-1,-8.996997476E-1
3.335665053E0,-9.596867561E-1,4.074820280E-1,-9.033824205E-1
3.339635366E0,-8.195018768E-1,4.687954485E-1,-8.879362345E-1
3.343605678E0,-6.623699069E-1,5.134409666E-1,-8.560490608E-1
3.347575991E0,-5.079256892E-1,5.241747499E-1,-8.230448961E-1
3.351546303E0,-3.530102968E-1,4.869119525E-1,-7.948403955E-1
3.355518178E0,-2.494424582E-1,4.379031062E-1,-7.847872972E-1
3.359488491E0,-1.595056355E-1,3.767991364E-1,-7.922398448E-1
3.363458803E0,-9.328784794E-2,3.048566580E-1,-8.233940005E-1
3.367429116E0,-5.796238407E-2,2.340137511E-1,-8.801171780E-1
3.371399428E0,-4.499458894E-2,1.670629084E-1,-9.510822892E-1
3.375369741E0,-5.726425350E-2,1.123992056E-1,-1.038069487E0
3.379340053E0,-8.937831223E-2,9.332275391E-2,-1.126243472E0
3.383310366E0,-1.387013197E-1,1.053829789E-1,-1.201659203E0
3.387280678E0,-1.973094642E-1,1.396787018E-1,-1.262396693E0
3.391250991E0,-2.586927116E-1,1.778490543E-1,-1.300374985E0
3.395222866E0,-3.190985322E-1,2.200162113E-1,-1.319451451E0
3.399193178E0,-3.753330410E-1,2.665117681E-1,-1.328771472E0
3.403163491E0,-4.181634486E-1,3.216990829E-1,-1.334670782E0
3.407133803E0,-4.545884430E-1,3.722438216E-1,-1.343275189E0
3.411104116E0,-4.874530137E-1,4.080056250E-1,-1.358302474E0
3.415074428E0,-5.163207650E-1,4.248480499E-1,-1.387205124E0
3.419046303E0,-5.428148508E-1,4.244291782E-1,-1.427853823E0
3.423016616E0,-5.697453022E-1,4.133114219E-1,-1.483774185E0
3.426986928E0,-5.928883553E-1,3.931179643E-1,-1.550288677E0
3.430957241E0,-6.104987264E-1,3.648261726E-1,-1.621358514E0
3.434927553E0,-6.310412288E-1,3.336371481E-1,-1.699968100E0
3.438897866E0,-6.570117474E-1,3.149446547E-1,-1.776291370E0
3.442869741E0,-6.836803555E-1,3.171437681E-1,-1.847273946E0
3.446838491E0,-7.017619610E-1,3.490134776E-1,-1.900995135E0
3.450808803E0,-7.101046443E-1,3.983190358E-1,-1.931869984E0
3.454780678E0,-7.155675292E-1,4.459316134E-1,-1.939165473E0
3.458750991E0,-7.102442980E-1,5.003510118E-1,-1.926616549E0
3.462721303E0,-6.968052387E-1,5.526410341E-1,-1.898638964E0
3.466691616E0,-6.749362946E-1,5.977228880E-1,-1.855075598E0
3.470661928E0,-6.505714655E-1,6.226112843E-1,-1.801267028E0
3.474632241E0,-6.187715530E-1,6.175149679E-1,-1.733181715E0
3.478604116E0,-5.797809362E-1,5.893628001E-1,-1.647119522E0
3.482574428E0,-5.363397002E-1,5.558175445E-1,-1.556763887E0
3.486544741E0,-4.863185287E-1,5.184674859E-1,-1.455238104E0
3.490515053E0,-4.344473481E-1,4.965112507E-1,-1.352909446E0
3.494485366E0,-3.798185587E-1,5.032656789E-1,-1.243110776E0
3.498460366E0,-3.329041004E-1,5.294456482E-1,-1.121321678E0
3.502425991E0,-2.976309955E-1,5.526934266E-1,-1.002237916E0
3.506396303E0,-2.597224414E-1,5.856626630E-1,-8.705353141E-1
3.510368178E0,-2.124763876E-1,6.380749345E-1,-7.436847687E-1
3.514338491E0,-1.527861208E-1,6.939079762E-1,-6.424382329E-1
3.518308803E0,-7.759733498E-2,7.412936687E-1,-5.555382967E-1
3.522279116E0,7.190756500E-3,7.735299468E-1,-4.871039391E-1
3.526249428E0,9.583602846E-2,7.875100374E-1,-4.362974167E-1
3.530219741E0,1.770636588E-1,7.725176215E-1,-4.103967249E-1
3.534191616E0,2.492853701E-1,7.196515799E-1,-4.140270054E-1
3.538161928E0,3.051533699E-1,6.459463835E-1,-4.543964565E-1
3.542132241E0,3.367263675E-1,5.881584883E-1,-5.266356468E-1
3.546102553E0,3.415085673E-1,5.569694638E-1,-6.275331378E-1
3.550072866E0,3.206169903E-1,5.467767715E-1,-7.466169596E-1
3.554043178E0,2.719746530E-1,5.233544111E-1,-8.497484326E-1
3.558013491E0,1.936617345E-1,4.907342196E-1,-9.643816948E-1
3.561985366E0,1.114916354E-1,4.800877273E-1,-1.068944335E0
3.565954116E0,2.158972248E-2,4.893728793E-1,-1.156769276E0
3.569925991E0,-6.161012128E-2,5.178217292E-1,-1.218780875E0
3.573896303E0,-1.340587437E-1,5.710193515E-1,-1.255746961E0
3.577866616E0,-1.971873045E-1,6.434330940E-1,-1.262972593E0
3.581836928E0,-2.458645254E-1,7.196690440E-1,-1.240335703E0
3.585807241E0,-2.812947035E-1,7.976852655E-1,-1.190750837E0
3.589777553E0,-2.986781895E-1,8.739910722E-1,-1.116714001E0
3.593749428E0,-2.890614271E-1,9.617986083E-1,-1.037022233E0
3.597724428E0,-2.435083389E-1,1.049571157E0,-9.464047551E-1
3.601690053E0,-1.726305187E-1,1.108318925E0,-8.545830250E-1
3.605660366E0,-7.719591260E-2,1.143033624E0,-7.621329427E-1
3.609630678E0,3.555235639E-2,1.159474611E0,-6.666983366E-1
3.613600991E0,1.607448310E-1,1.159090638E0,-5.755746961E-1
3.617572866E0,2.997777462E-1,1.149473786E0,-4.764050841E-1
3.621543178E0,4.454429448E-1,1.146820903E0,-3.788935244E-1
3.625513491E0,6.053848863E-1,1.156786799E0,-2.780483961E-1
3.629485366E0,7.655887008E-1,1.192059875E0,-1.816015095E-1
3.633454116E0,9.083566070E-1,1.244175434E0,-8.587019891E-2
3.637424428E0,1.059641719E0,1.304581285E0,1.511455141E-2
3.641396303E0,1.208832502E0,1.350762606E0,1.171290427E-1
3.645365053E0,1.363503575E0,1.384011149E0,2.259328663E-1
3.649335366E0,1.518576026E0,1.413315296E0,3.342654705E-1
3.653307241E0,1.647032261E0,1.433892727E0,4.210432172E-1
3.657277553E0,1.786327004E0,1.443631649E0,4.986405671E-1
3.661247866E0,1.925901055E0,1.433997393E0,5.543863773E-1
3.665218178E0,2.075388432E0,1.399108291E0,5.883679390E-1
3.669188491E0,2.231298685E0,1.342891216E0,5.978101492E-1
3.673160366E0,2.372844934E0,1.285033584E0,5.915444493E-1
3.677130678E0,2.511336803E0,1.231225014E0,5.707750320E-1
3.681100991E0,2.629792213E0,1.191012621E0,5.421865582E-1
3.685072866E0,2.726343870E0,1.169213533E0,5.044699907E-1
3.689041616E0,2.802527428E0,1.164169550E0,4.556531012E-1
3.693011928E0,2.854451180E0,1.164937496E0,4.055795968E-1
3.696982241E0,2.888764143E0,1.179144382E0,3.645120263E-1
3.700954116E0,2.907334566E0,1.221206903E0,3.395014405E-1
3.704922866E0,2.915188551E0,1.280966997E0,3.376339376E-1
3.708894741E0,2.928051710E0,1.346399307E0,3.537084162E-1
3.712865053E0,2.954126835E0,1.373905778E0,3.783873916E-1
3.716835366E0,2.993606091E0,1.355475068E0,4.015479088E-1
3.720805678E0,3.051743031E0,1.301265121E0,4.070107937E-1
3.724775991E0,3.122306824E0,1.245711327E0,3.894527555E-1
3.728746303E0,3.220917940E0,1.186370134E0,3.466573060E-1
3.732718178E0,3.345691442E0,1.171220660E0,2.790432274E-1
3.736688491E0,3.508094311E0,1.265189171E0,1.969953179E-1
3.740658803E0,3.691057205E0,1.318735838E0,6.454227865E-2
3.744629116E0,3.902224541E0,1.281560302E0,-1.148950234E-1
3.748599428E0,4.142050266E0,1.133626223E0,-3.597472608E-1
3.752569741E0,4.322657108E0,9.886592031E-1,-5.535311699E-1
3.756540053E0,4.510663986E0,8.245109916E-1,-7.364766002E-1
3.760510366E0,4.722442150E0,6.646562815E-1,-9.270316362E-1
3.764480678E0,4.912281513E0,5.478588343E-1,-1.097148895E0
3.768452553E0,5.091369629E0,4.582710862E-1,-1.252919555E0
3.772422866E0,5.242986679E0,3.879692256E-1,-1.386541963E0
3.776393178E0,5.366398811E0,3.306177258E-1,-1.500738859E0
3.780363491E0,5.466283798E0,3.016627133E-1,-1.590867639E0
3.784333803E0,5.541106224E0,3.103020787E-1,-1.651866913E0
3.788304116E0,5.611931801E0,3.782826662E-1,-1.674852848E0
3.792275991E0,5.669824123E0,4.257032573E-1,-1.657975554E0
3.796257241E0,5.729950905E0,4.391248524E-1,-1.590186954E0
3.800216616E0,5.781123638E0,4.271169603E-1,-1.479969382E0
3.804186928E0,5.824757099E0,3.977430761E-1,-1.332907915E0
3.808157241E0,5.846835613E0,4.068711400E-1,-1.157502413E0
3.812127553E0,5.832139969E0,4.995132387E-1,-9.787108302E-1
3.816099428E0,5.780861855E0,6.561216116E-1,-8.339008689E-1
3.820068178E0,5.708029270E0,8.022231460E-1,-7.231422663E-1
3.824038491E0,5.635441303E0,8.880584240E-1,-6.473076940E-1
3.828010366E0,5.561561584E0,9.127025008E-1,-6.098878384E-1
3.831980678E0,5.481049538E0,8.880758882E-1,-6.144605875E-1
3.835950991E0,5.400554657E0,8.790350556E-1,-6.441137791E-1
3.839921303E0,5.314736843E0,8.821243048E-1,-7.054271698E-1
3.843891616E0,5.221606255E0,9.075537324E-1,-7.762176991E-1
3.847863491E0,5.113919258E0,9.454448819E-1,-8.427496552E-1
3.851833803E0,5.013737679E0,9.760404825E-1,-8.768010736E-1
3.855804116E0,4.898807526E0,1.013547659E0,-8.816356063E-1
3.859774428E0,4.760333061E0,1.050880194E0,-8.590859771E-1
3.863744741E0,4.599919796E0,1.080917358E0,-8.064293861E-1
3.867715053E0,4.430500984E0,1.094373822E0,-7.232644558E-1
3.871685366E0,4.244588375E0,1.113747001E0,-5.825734735E-1
3.875655678E0,4.060909748E0,1.139176369E0,-4.105363488E-1
3.879625991E0,3.850929260E0,1.163227081E0,-2.162986547E-1
3.883597866E0,3.644439459E0,1.215569496E0,-2.853613347E-2
3.887568178E0,3.423480749E0,1.252762437E0,1.454033852E-1
3.891538491E0,3.194563389E0,1.306745410E0,2.992541492E-1
3.895508803E0,2.978596449E0,1.396315813E0,4.239928424E-1
3.899479116E0,2.773467779E0,1.450735092E0,5.087634921E-1
3.903449428E0,2.570660591E0,1.466390729E0,5.653121471E-1
3.907421303E0,2.379372358E0,1.470160604E0,5.981243253E-1
3.911391616E0,2.200982332E0,1.467525244E0,6.071302295E-1
3.915361928E0,2.047585249E0,1.465483189E0,6.004456282E-1
3.919332241E0,1.887503743E0,1.466146350E0,5.864830017E-1
3.923302553E0,1.723826766E0,1.470090866E0,5.790653229E-1
3.927272866E0,1.571232677E0,1.467507720E0,5.848074555E-1
3.931244741E0,1.408341050E0,1.453894138E0,6.054198146E-1
3.935213491E0,1.251174212E0,1.437854648E0,6.290341020E-1
3.939183803E0,1.091686010E0,1.434974790E0,6.511474252E-1
3.943155678E0,9.401215911E-1,1.456075788E0,6.776764393E-1
3.947125991E0,7.975282073E-1,1.472010732E0,7.124434114E-1
3.951096303E0,6.919357777E-1,1.461556196E0,7.463551164E-1
3.955066616E0,5.946685672E-1,1.433683276E0,7.761130333E-1
3.959036928E0,5.229704380E-1,1.412233114E0,7.932347059E-1
3.963007241E0,4.761083722E-1,1.433683276E0,7.978249192E-1
3.966979116E0,4.562115967E-1,1.497998595E0,7.964635491E-1
3.970949428E0,4.557054639E-1,1.595789433E0,7.944389582E-1
3.974919741E0,4.599466026E-1,1.699409604E0,7.963238955E-1
3.978890053E0,4.673817158E-1,1.810447454E0,7.960795760E-1
3.982860366E0,4.801400900E-1,1.926075578E0,7.878940105E-1
3.986833803E0,5.044001341E-1,2.042366743E0,7.726398110E-1
3.990802553E0,5.465323925E-1,2.169723511E0,7.501599789E-1
3.994771303E0,6.067462564E-1,2.329682827E0,7.215714455E-1
3.998743178E0,6.652147770E-1,2.488089085E0,6.958976984E-1
4.002713491E0,7.232295275E-1,2.659602404E0,6.684262156E-1
4.006683803E0,7.749087214E-1,2.809089899E0,6.377956867E-1
4.010654116E0,8.266228437E-1,2.918871164E0,6.026970744E-1
4.014624428E0,8.736768961E-1,2.994286776E0,5.694660544E-1
4.018597866E0,9.172752500E-1,3.038949728E0,5.350481272E-1
4.022566616E0,9.522690773E-1,3.054780006E0,4.973490238E-1
4.026536928E0,9.744871259E-1,3.056211233E0,4.594928324E-1
4.030507241E0,9.882577658E-1,3.038059711E0,4.320038855E-1
4.034477553E0,9.972636700E-1,2.997533083E0,4.227187335E-1
4.038447866E0,1.002168059E0,2.929866791E0,4.293335378E-1
4.042419741E0,1.008573413E0,2.862095594E0,4.501902163E-1
4.046390053E0,1.004681349E0,2.822232246E0,4.732634723E-1
4.050360366E0,9.898285866E-1,2.826019764E0,4.874006510E-1
4.054330678E0,9.626014233E-1,2.847487211E0,4.813269079E-1
4.058300991E0,9.399819970E-1,2.873440266E0,4.591088593E-1
4.062271303E0,9.294227362E-1,2.876773834E0,4.268028140E-1
4.066241616E0,9.281660914E-1,2.854747772E0,3.967133462E-1
4.070211928E0,9.385508299E-1,2.813784838E0,3.679328561E-1
4.074183803E0,9.450085163E-1,2.747846365E0,3.393443525E-1
4.078152553E0,9.504714012E-1,2.686375856E0,3.160965741E-1
4.082124428E0,9.475218058E-1,2.640211821E0,3.014358282E-1
4.086094741E0,9.194219708E-1,2.647228241E0,3.037745655E-1
4.090065053E0,8.336564898E-1,2.724685907E0,3.359933197E-1
4.094040053E0,6.815685034E-1,2.791636705E0,4.057890475E-1
4.098005678E0,5.051680803E-1,2.806838512E0,4.909960330E-1
4.101975991E0,3.071430326E-1,2.764461994E0,5.809851885E-1
4.105954116E0,1.476024985E-1,2.693112850E0,6.538527012E-1
4.109918178E0,4.420918971E-2,2.644226074E0,7.084989548E-1
4.113886928E0,-1.813396998E-2,2.629966736E0,7.576648593E-1
4.117858803E0,-3.949680179E-2,2.652586222E0,8.078081608E-1
4.121829116E0,-3.750712425E-2,2.692868471E0,8.592779636E-1
4.125799428E0,-3.111921996E-2,2.720374823E0,9.074664712E-1
4.129771303E0,-1.619665511E-2,2.731021404E0,9.524087310E-1
4.133740053E0,-5.218534265E-3,2.723848104E0,9.912248254E-1
4.137710366E0,-1.274090353E-2,2.710880280E0,1.010545611E0
4.141682241E0,-4.776966199E-2,2.648973465E0,9.975254536E-1
4.145652553E0,-1.185253114E-1,2.535684109E0,9.465618730E-1
4.149622866E0,-2.058964968E-1,2.420946121E0,8.862782121E-1
4.153593178E0,-3.245614171E-1,2.281005621E0,7.926238179E-1
4.157563491E0,-4.556007385E-1,2.118114233E0,6.921452284E-1
4.161535366E0,-5.915793180E-1,1.913770914E0,6.058387160E-1
4.165505678E0,-7.164227366E-1,1.683911085E0,5.391147733E-1
4.169475991E0,-8.358556032E-1,1.487387061E0,4.939979911E-1
4.173446303E0,-9.335417151E-1,1.341425180E0,4.771032035E-1
4.177416616E0,-1.009428620E0,1.250266552E0,4.843114018E-1
4.181386928E0,-1.070759535E0,1.174170256E0,5.029166341E-1
4.185357241E0,-1.122107029E0,1.082383394E0,5.337914824E-1
4.189329116E0,-1.165775180E0,9.894794822E-1,5.678952336E-1
4.193302553E0,-1.219566226E0,9.168912768E-1,6.023829579E-1
4.197269741E0,-1.270948768E0,9.248499870E-1,6.329087615E-1
4.201240053E0,-1.338964224E0,1.003895879E0,6.563833952E-1
4.205210366E0,-1.435411096E0,1.121356606E0,6.859493256E-1
4.209180678E0,-1.531508923E0,1.202025652E0,7.296348810E-1
4.213150991E0,-1.621742487E0,1.239131451E0,7.904072404E-1
4.217121303E0,-1.689827800E0,1.286813855E0,8.557698131E-1
4.221093178E0,-1.757686138E0,1.362945080E0,9.256702662E-1
4.225071303E0,-1.837238312E0,1.443963289E0,9.898285866E-1
4.229033803E0,-1.923038721E0,1.518488765E0,1.049414158E0
4.233004116E0,-1.998105288E0,1.579365849E0,1.113310575E0
4.236974428E0,-2.037863970E0,1.605179310E0,1.169388056E0
4.240944741E0,-2.051233053E0,1.597744226E0,1.207977295E0
4.244915053E0,-2.047620296E0,1.583275437E0,1.219234705E0
4.248886928E0,-2.040202618E0,1.556798816E0,1.215848684E0
4.252855678E0,-2.020672321E0,1.524143696E0,1.208308935E0
4.256827553E0,-1.990443230E0,1.486584187E0,1.220473886E0
4.260797866E0,-1.940875888E0,1.427888751E0,1.242971182E0
4.264768178E0,-1.819802403E0,1.293288946E0,1.181360960E0
4.268738491E0,-1.639335394E0,1.107603431E0,1.041350722E0
4.272708803E0,-1.424345732E0,9.069429040E-1,8.852135539E-1
4.276679116E0,-1.207122087E0,7.087607384E-1,7.634942532E-1
4.280650991E0,-9.878389239E-1,5.289918184E-1,7.026870251E-1
4.284621303E0,-7.760955691E-1,3.568500280E-1,7.170684934E-1
4.288590053E0,-6.111095548E-1,2.390751988E-1,8.036019206E-1
4.292561928E0,-4.953593612E-1,2.073974758E-1,9.529672265E-1
4.296532241E0,-4.299793243E-1,2.873684466E-1,1.149508715E0
4.300502553E0,-4.135034084E-1,4.163832068E-1,1.347272038E0
4.304474428E0,-4.533318281E-1,5.588893294E-1,1.565298557E0
4.308444741E0,-5.327966809E-1,6.729815006E-1,1.776588082E0
4.312413491E0,-6.536607146E-1,7.542265654E-1,1.972047567E0
4.316385366E0,-7.920827866E-1,8.432383537E-1,2.144904852E0
4.320355678E0,-8.896466494E-1,9.346587062E-1,2.281983137E0
4.324325991E0,-9.664935470E-1,9.726370573E-1,2.268317223E0
4.328297866E0,-1.075594068E0,8.968374133E-1,1.958102345E0
4.332266616E0,-1.187556982E0,8.173202276E-1,1.386803746E0
4.336238491E0,-1.229427338E0,7.558497190E-1,6.718121171E-1
4.340208803E0,-1.188150287E0,6.762278080E-1,-2.967059845E-4
4.344179116E0,-1.032833457E0,5.582610369E-1,-5.313655138E-1
4.348152553E0,-8.731533289E-1,4.957084060E-1,-7.344694734E-1
4.352119741E0,-6.786713004E-1,4.797211885E-1,-7.404908538E-1
4.356090053E0,-4.741885066E-1,4.927413464E-1,-6.245486140E-1
4.360061928E0,-3.226764798E-1,5.068436265E-1,-4.944343269E-1
4.364030678E0,-2.334901392E-1,5.004731417E-1,-4.044277072E-1
4.368002553E0,-2.031737715E-1,4.659854472E-1,-3.811275363E-1
4.371972866E0,-2.103645355E-1,4.107632339E-1,-4.045847654E-1
4.375943178E0,-2.336297780E-1,3.384018838E-1,-4.540823102E-1
4.379913491E0,-2.595653534E-1,2.766346931E-1,-4.995132387E-1
4.383883803E0,-2.844013870E-1,2.200162113E-1,-5.327617526E-1
4.387854116E0,-3.066892624E-1,1.718625724E-1,-5.521000028E-1
4.391824428E0,-3.243868947E-1,1.240405515E-1,-5.648059845E-1
4.395796303E0,-3.389429450E-1,1.013512686E-1,-5.706877708E-1
4.399766616E0,-3.482978940E-1,9.316567332E-2,-5.552415848E-1
4.403736928E0,-3.582637310E-1,1.018748656E-1,-5.074195862E-1
4.407707241E0,-3.796440065E-1,1.345474273E-1,-4.148647487E-1
4.411677553E0,-4.252669215E-1,1.904852390E-1,-3.052057326E-1
4.415647866E0,-4.782725871E-1,2.631781995E-1,-1.670454592E-1
4.419619741E0,-5.265833139E-1,3.412816823E-1,-1.256637089E-2
4.423590053E0,-5.742482543E-1,4.183030725E-1,1.525417715E-1
4.427558803E0,-6.109175682E-1,4.950975478E-1,3.220306933E-1
4.431530678E0,-6.355267167E-1,5.636191964E-1,4.708549380E-1
4.435500991E0,-6.642025113E-1,6.248278618E-1,5.903750658E-1
4.439471303E0,-7.004355192E-1,6.581462026E-1,6.781127453E-1
4.443443178E0,-7.339982390E-1,6.413910389E-1,7.419568896E-1
4.447413491E0,-7.442607284E-1,5.900434852E-1,7.766540647E-1
4.451382241E0,-7.153406739E-1,5.057440400E-1,7.771427631E-1
4.455354116E0,-6.596122980E-1,4.071154892E-1,7.345043421E-1
4.459324428E0,-5.904448628E-1,2.869495749E-1,6.661921740E-1
4.463294741E0,-5.241747499E-1,1.478468478E-1,5.811771750E-1
4.467265053E0,-4.619188309E-1,4.155628756E-2,4.956909716E-1
4.471235366E0,-4.184426963E-1,-1.068141535E-1,4.106061459E-1
4.475205678E0,-3.636218905E-1,-1.896649301E-1,3.340560198E-1
4.479177553E0,-3.093945086E-1,-1.954943240E-1,2.138377428E-1
4.483147866E0,-3.012438416E-1,-8.141960949E-2,3.574434295E-2
4.487118178E0,-3.324154019E-1,6.997025013E-2,-1.000248194E-1
4.491088491E0,-3.647040129E-1,1.349488646E-1,-1.321563274E-1
4.495058803E0,-3.415260315E-1,1.467996389E-1,-9.286896884E-2
4.499029116E0,-2.687981427E-1,2.358114272E-1,-5.305800959E-2
4.502999428E0,-1.784075499E-1,4.414461255E-1,-4.433136433E-2
4.506969741E0,-7.466518879E-2,6.476742029E-1,-4.735078290E-2
4.510941616E0,4.164355621E-2,7.729539871E-1,-4.815363511E-2
4.514911928E0,1.554390192E-1,8.394684792E-1,-4.984660447E-2
4.518882241E0,2.439446747E-1,8.641997576E-1,-6.832963973E-2
4.522852553E0,3.085741997E-1,8.276002407E-1,-1.061334684E-1
4.526822866E0,3.541622162E-1,7.501250505E-1,-1.659633517E-1
4.530793178E0,3.758566678E-1,6.521422863E-1,-2.219360620E-1
4.534765053E0,3.715631366E-1,5.274733901E-1,-2.615375817E-1
4.538735366E0,3.466747403E-1,3.974463642E-1,-2.841919661E-1
4.542704116E0,3.061307371E-1,2.915048897E-1,-2.964092791E-1
4.546675991E0,2.671051919E-1,2.265961021E-1,-3.054500818E-1
4.550646303E0,2.361605018E-1,1.953372508E-1,-3.177546561E-1
4.554616616E0,2.062630057E-1,1.966986060E-1,-3.227637410E-1
4.558586928E0,1.736427993E-1,2.337694019E-1,-3.325026631E-1
4.562558803E0,1.320341527E-1,2.862165570E-1,-3.434633315E-1
4.566527553E0,8.098327368E-2,3.671125472E-1,-3.501130342E-1
4.570499428E0,8.691739291E-3,5.262167454E-1,-3.205820620E-1
4.574469741E0,-6.799802929E-2,6.668204665E-1,-2.547307909E-1
4.578440053E0,-1.244419739E-1,7.413285971E-1,-1.650383323E-1
4.582410366E0,-1.474454105E-1,7.848396301E-1,-6.770132482E-2
4.586380678E0,-1.388409436E-1,8.065689802E-1,3.536036983E-2
4.590363491E0,-1.024159193E-1,8.075638413E-1,1.286307722E-1
4.594322866E0,-4.686209187E-2,8.001112938E-1,1.896823794E-1
4.598293178E0,3.038618155E-2,7.947182059E-1,2.112022936E-1
4.602261928E0,1.128704399E-1,7.593927383E-1,1.833817512E-1
4.606233803E0,1.720545590E-1,6.374117136E-1,1.331860721E-1
4.610204116E0,1.959132105E-1,4.421617091E-1,7.569492608E-2
4.614174428E0,2.072054893E-1,2.546435297E-1,2.876302600E-2
4.618146303E0,2.148325741E-1,1.720371097E-1,-1.675516134E-3
4.622116616E0,2.087239176E-1,1.478817463E-1,-1.277581044E-2
4.626085366E0,1.726479679E-1,1.331511736E-1,-1.008800324E-2
4.630057241E0,1.254368126E-1,1.228711754E-1,-5.916666240E-3
4.634027553E0,8.012806624E-2,1.156455129E-1,-8.133234456E-3
4.637997866E0,4.815363511E-2,1.104793400E-1,-1.518436428E-2
4.641968178E0,2.853613347E-2,1.018923223E-1,-1.853539608E-2
4.645938491E0,1.935570128E-2,8.943066746E-2,-1.731366664E-2
4.649908803E0,2.103121765E-2,8.059930801E-2,-1.396263391E-2
4.653880678E0,2.989749052E-2,7.918559015E-2,-1.233947743E-2
4.657850991E0,4.260348529E-2,8.815658092E-2,-1.312487572E-2
4.661821303E0,4.878195375E-2,9.862855822E-2,-1.378810126E-2
4.665791616E0,5.174901336E-2,1.105491519E-1,-1.485275198E-2
4.669761928E0,4.979424179E-2,1.204277202E-1,-1.483529899E-2
4.673732241E0,4.673991725E-2,1.237612963E-1,-1.963495463E-2
4.677704116E0,4.293509945E-2,1.213352904E-1,-5.139994621E-2
4.681672866E0,2.495820820E-2,9.452702850E-2,-1.419650763E-1
4.685644741E0,-3.028146178E-2,1.860520989E-2,-3.435156941E-1
4.689615053E0,-8.826129884E-2,-7.438593358E-2,-5.105960965E-1
4.693585366E0,-1.208291426E-1,-1.356993467E-1,-5.860291719E-1
4.697555678E0,-1.383697093E-1,-1.605877429E-1,-6.464524865E-1
4.701535366E0,-1.160294861E-1,-1.239009202E-1,-6.750060916E-1
4.705496303E0,-5.447172746E-2,-1.843067631E-2,-7.273834348E-1
4.709466616E0,2.193878777E-2,1.142143458E-1,-7.496363521E-1
4.713438491E0,9.635962546E-2,1.804670393E-1,-7.367907166E-1
4.717408803E0,1.687733382E-1,2.079210728E-1,-6.905220747E-1
4.721379116E0,2.342929989E-1,2.249729335E-1,-5.941973329E-1
4.725349428E0,2.986781895E-1,2.559350729E-1,-4.454778433E-1
4.729319741E0,3.472332656E-1,3.013136387E-1,-2.669655681E-1
4.733291616E0,3.680375814E-1,3.527484834E-1,-1.079660654E-1
4.737261928E0,3.561344445E-1,3.632728159E-1,2.581341937E-2
4.741230678E0,3.298148811E-1,3.291516304E-1,8.210028708E-2
4.745202553E0,3.128677309E-1,3.455053866E-1,8.632398397E-2
4.749172866E0,2.819928527E-1,3.575656116E-1,8.302531391E-2
4.753143178E0,2.253394574E-1,3.399028778E-1,1.126610041E-1
4.757113491E0,1.527163088E-1,3.269699812E-1,1.905899495E-1
4.761085366E0,8.815658092E-2,3.333753347E-1,2.676811516E-1
4.765054116E0,4.661774263E-2,3.602010608E-1,3.126757443E-1
4.769025991E0,3.743731230E-2,4.034852087E-1,3.090454638E-1
4.772996303E0,4.667010531E-2,4.183030725E-1,2.641381323E-1
4.776966616E0,5.796238407E-2,3.693465889E-1,2.019520402E-1
4.780936928E0,6.558947265E-2,2.765648663E-1,1.509535313E-1
4.784907241E0,6.485643238E-2,2.193878889E-1,9.419541806E-2
4.788877553E0,6.675884128E-2,1.817411333E-1,2.607521974E-2
4.792849428E0,7.433357090E-2,1.702743173E-1,-1.520181727E-2
4.796819741E0,6.986553222E-2,1.697332710E-1,-1.420698036E-2
4.800790053E0,4.747295380E-2,1.718276590E-1,1.104793418E-2
4.804760366E0,2.172934823E-2,1.761386245E-1,3.075270168E-2
4.808730678E0,4.188789986E-3,1.896125674E-1,3.199188411E-2
4.812700991E0,-1.000073645E-2,1.931381375E-1,2.099631168E-2
4.816671303E0,-2.453932911E-2,1.899965405E-1,1.738347858E-2
4.820647866E0,-3.843215108E-2,1.890017092E-1,1.839577034E-2
4.824613491E0,-4.806636646E-2,1.903979629E-1,2.090904489E-2
4.828583803E0,-5.373868719E-2,1.975538135E-1,2.232276089E-2
4.832554116E0,-5.897467583E-2,2.028770745E-1,2.480112948E-2
4.836524428E0,-6.394886225E-2,2.093871534E-1,2.785545401E-2
4.840496303E0,-7.127925009E-2,2.130348831E-1,3.195697814E-2
4.844465053E0,-7.604399323E-2,2.165430039E-1,3.574434295E-2
4.848435366E0,-7.894124091E-2,2.156528831E-1,4.003785178E-2
4.852407241E0,-7.775441557E-2,2.152689099E-1,4.523893446E-2
4.856375991E0,-7.471754402E-2,2.105216086E-1,4.597197101E-2
4.860347866E0,-6.475171447E-2,1.993340552E-1,4.377285764E-2
4.864318178E0,-5.040510744E-2,1.890366077E-1,4.033455998E-2
4.868288491E0,-3.403392062E-2,1.773254573E-1,3.567453101E-2
4.872258803E0,-1.680752076E-2,1.701870561E-1,3.295181692E-2
4.876229116E0,-1.919862116E-3,1.659284532E-1,3.087487444E-2
4.880199428E0,7.365289610E-3,1.636246145E-1,3.169517964E-2
4.884171303E0,1.699950732E-2,1.673596203E-1,3.506366536E-2
4.888141616E0,2.314306609E-2,1.722814441E-1,3.731513768E-2
4.892111928E0,2.654645778E-2,1.767145842E-1,4.075343907E-2
4.896082241E0,3.269001842E-2,1.855459511E-1,4.316199198E-2
4.900052553E0,3.504621238E-2,1.890715212E-1,4.513421282E-2
4.904022866E0,3.431317210E-2,1.825963408E-1,4.790928960E-2
4.907993178E0,5.138249323E-2,1.820901930E-1,4.323180392E-2
4.911963491E0,1.390329301E-1,2.157925069E-1,-3.141592816E-2
4.915933803E0,2.281494439E-1,2.685014606E-1,-3.259227872E-1
4.919905678E0,2.284810543E-1,2.987305522E-1,-6.571513414E-1
4.923875991E0,2.234894037E-1,2.867052257E-1,-8.443379402E-1
4.927846303E0,2.677858770E-1,1.959481090E-1,-8.987049460E-1
4.931818178E0,3.392920196E-1,1.429424621E-2,-8.746717572E-1
4.935788491E0,4.098905623E-1,-1.043881401E-1,-9.400517941E-1
4.939757241E0,4.621631801E-1,8.340928704E-2,-1.029360294E0
4.943729116E0,5.081351399E-1,2.609267235E-1,-1.079014897E0
4.947699428E0,5.663244128E-1,4.018445909E-1,-1.088212729E0
4.951669741E0,6.366088390E-1,5.283111334E-1,-1.055051565E0
4.955640053E0,6.990567446E-1,6.462779641E-1,-1.018521786E0
4.959610366E0,7.325496078E-1,8.172678947E-1,-1.002342582E0
4.963580678E0,7.190058231E-1,1.094461083E0,-1.010039449E0
4.967552553E0,6.813939810E-1,1.300793886E0,-1.009847522E0
4.971522866E0,6.354743838E-1,1.340953946E0,-9.674010873E-1
4.975491616E0,5.980021358E-1,1.100587130E0,-8.023627400E-1
4.979463491E0,5.492027402E-1,7.250272036E-1,-7.118849158E-1
4.983433803E0,4.611858130E-1,4.947484732E-1,-7.773172855E-1
4.987404116E0,3.608293831E-1,3.418401778E-1,-8.920901418E-1
4.991374428E0,2.607522011E-1,2.370331585E-1,-9.430188537E-1
4.995344741E0,1.742711216E-1,1.508313566E-1,-9.329133630E-1
4.999316616E0,1.182635128E-1,9.114108980E-2,-9.133657217E-1
5.003286928E0,9.992010146E-2,5.558873713E-2,-9.195441604E-1
5.007257241E0,1.088561863E-1,3.068288788E-2,-9.531941414E-1
5.011227553E0,1.496968865E-1,5.515240598E-3,-1.009114504E0
5.015197866E0,2.142566144E-1,-1.862266287E-2,-1.079538465E0
5.019168178E0,2.889043391E-1,-4.511675984E-2,-1.151830077E0
5.023140053E0,3.721914589E-1,-6.211626902E-2,-1.204259753E0
5.027110366E0,4.463330507E-1,-7.058111578E-2,-1.234471321E0
5.031079116E0,5.046445131E-1,-6.728244573E-2,-1.256497383E0
5.035050991E0,5.428497791E-1,-5.427974090E-2,-1.256078601E0
5.039021303E0,5.788733363E-1,-1.188918278E-1,-1.225901842E0
5.042991616E0,6.084392071E-1,-2.143613398E-1,-1.183944106E0
5.046961928E0,6.142162681E-1,-2.857452929E-1,-1.135109782E0
5.050932241E0,5.995904207E-1,-2.847679257E-1,-1.065453649E0
5.054902553E0,5.768138766E-1,-2.409950644E-1,-9.750630856E-1
5.058874428E0,5.499183536E-1,-1.703790426E-1,-8.952841163E-1
5.062844741E0,5.290616751E-1,-7.265805453E-2,-8.192750216E-1
5.066815053E0,5.139994621E-1,4.644321278E-2,-7.395483851E-1
5.070785366E0,5.033006072E-1,1.628741324E-1,-6.633647680E-1
5.074755678E0,4.811349213E-1,2.613106966E-1,-5.915444493E-1
5.078725991E0,4.430867434E-1,3.184353113E-1,-5.333900452E-1
5.082697866E0,3.954218030E-1,3.250850141E-1,-4.729143977E-1
5.086668178E0,3.426255882E-1,2.868972123E-1,-4.240277410E-1
5.090638491E0,2.856754959E-1,2.309594154E-1,-3.959104717E-1
5.094608803E0,2.145533264E-1,2.143962383E-1,-4.232772589E-1
5.098579116E0,1.208465993E-1,2.372076958E-1,-5.455026627E-1
5.102549428E0,6.787585467E-2,2.244493365E-1,-7.851712704E-1
5.106521303E0,1.086641997E-1,8.698721230E-2,-1.090464234E0
5.110490053E0,2.223723978E-1,-2.099980116E-1,-1.394552946E0
5.114460366E0,3.724358082E-1,-5.390623808E-1,-1.646595955E0
5.118432241E0,5.117130876E-1,-8.099374771E-1,-1.852719307E0
5.122402553E0,6.449689865E-1,-1.004611492E0,-2.026798487E0
5.126372866E0,7.644367814E-1,-1.160801053E0,-2.142182112E0
5.130343178E0,8.931373358E-1,-1.313395143E0,-2.181347370E0
5.134313491E0,1.009236693E0,-1.418760657E0,-2.062542915E0
5.138283803E0,1.035957575E0,-1.375860453E0,-1.821076512E0
5.142255678E0,9.900380373E-1,-1.229078293E0,-1.558177590E0
5.146225991E0,8.967676163E-1,-1.031262636E0,-1.297547579E0
5.150196303E0,7.884175777E-1,-8.183325529E-1,-1.081371069E0
5.154166616E0,6.444628239E-1,-6.303954720E-1,-9.186191559E-1
5.158136928E0,4.594230056E-1,-4.542044699E-1,-8.108450770E-1
5.162107241E0,2.523920536E-1,-2.900388241E-1,-7.587819099E-1
5.166079116E0,8.868017793E-2,-1.604132056E-1,-7.838971615E-1
5.170047866E0,-2.837905288E-2,-6.258750707E-2,-8.460483551E-1
5.174019741E0,-9.471901506E-2,1.055924222E-2,-8.883900642E-1
5.177990053E0,-1.135162115E-1,4.475024343E-2,-8.742877841E-1
5.181960366E0,-8.019787818E-2,1.497492474E-2,-8.213519454E-1
5.185935366E0,-3.298672382E-3,-4.986405745E-2,-7.465645671E-1
5.189900991E0,8.587019891E-2,-1.007054970E-1,-6.745173931E-1
5.193871303E0,1.909739226E-1,-1.536238790E-1,-5.884901285E-1
5.197841616E0,3.109652996E-1,-2.075370997E-1,-4.763527215E-1
5.201813491E0,4.258603454E-1,-2.178694457E-1,-3.356791735E-1
5.205783803E0,5.492027402E-1,-1.218937933E-1,-1.758942753E-1
5.209754116E0,6.878691912E-1,2.804744057E-2,-8.848818950E-3
5.213724428E0,8.068482280E-1,1.503252089E-1,1.675167084E-1
5.217694741E0,8.613723516E-1,1.799783558E-1,3.319441676E-1
5.221665053E0,8.442855477E-1,1.194852367E-1,4.867025018E-1
5.225635366E0,7.540345788E-1,6.754423957E-3,6.336068511E-1
5.229605678E0,6.298718452E-1,-1.158549562E-1,7.493047714E-1
5.233577553E0,4.930380583E-1,-2.364921123E-1,8.345990181E-1
5.237547866E0,3.588920534E-1,-3.169517815E-1,8.397127986E-1
5.241518178E0,2.534043491E-1,-3.260100484E-1,7.838273644E-1
5.245488491E0,1.979377866E-1,-3.416831195E-1,6.887592673E-1
5.249458803E0,1.526639462E-1,-3.449468613E-1,6.549348235E-1
5.253429116E0,3.935717419E-2,-2.885203660E-1,5.157971382E-1
5.257400991E0,-1.792627722E-1,-2.708750963E-2,-2.996730246E-2
5.261371303E0,-3.629237711E-1,2.364571989E-1,-6.520550251E-1
5.265341616E0,-4.089131951E-1,3.272841275E-1,-1.057844043E0
5.269311928E0,-3.574259877E-1,3.218387067E-1,-1.130467176E0
5.273282241E0,-2.695835531E-1,2.693217695E-1,-9.301732183E-1
5.277252553E0,-1.935395598E-1,2.009746581E-1,-5.933246613E-1
5.281222866E0,-1.315105557E-1,1.385616958E-1,-2.945766747E-1
5.285196303E0,-9.623745829E-2,8.527678996E-2,-6.059783325E-2
5.289163491E0,-8.403760195E-2,3.209660575E-2,9.944885969E-2
5.293135366E0,-7.560766488E-2,1.982693933E-2,1.972920150E-1
5.297111928E0,-5.612978712E-2,3.293436393E-2,2.440493852E-1
5.301075991E0,2.151990868E-2,1.101302728E-2,2.770535648E-1
5.305047866E0,2.394591719E-1,-9.646435082E-2,3.611086309E-1
5.309016616E0,4.071853161E-1,-1.599070728E-1,3.878121674E-1
5.312986928E0,4.155803323E-1,-1.193805188E-1,3.325724900E-1
5.316958803E0,2.879793346E-1,-1.572541706E-2,2.297725976E-1
5.320929116E0,1.000946313E-1,9.096655995E-2,1.138478294E-1
5.324899428E0,-5.895722285E-2,1.848827302E-1,-5.235987715E-3
5.328869741E0,-1.421745270E-1,2.422167957E-1,-1.012989059E-1
5.332840053E0,-1.494001895E-1,2.558478117E-1,-1.610240787E-1
5.336810366E0,-1.123817489E-1,2.024756521E-1,-1.633453667E-1
5.340782241E0,-6.960373372E-2,1.277231872E-1,-1.381777227E-1
5.344750991E0,-2.832669392E-2,4.241150245E-2,-1.099033803E-1
5.348722866E0,-8.726646192E-4,-2.364921197E-2,-9.183922410E-2
5.352693178E0,2.059488557E-2,-6.346017122E-2,-8.367108554E-2
5.356663491E0,3.324852139E-2,-8.014551550E-2,-7.838273793E-2
5.360633803E0,3.474950418E-2,-8.344419301E-2,-7.115707546E-2
5.364604116E0,2.761110850E-2,-7.209955156E-2,-5.855579674E-2
5.368574428E0,1.462585945E-2,-4.297000542E-2,-6.623524427E-2
5.372546303E0,-8.639379404E-3,-3.017674200E-2,-7.524114102E-2
5.376516616E0,-5.480333790E-2,-2.991494350E-2,-4.516912252E-2
5.380486928E0,-1.474628747E-1,-1.947787404E-2,-5.612978712E-2
5.384457241E0,-1.846732944E-1,2.087413706E-2,-7.377506793E-2
5.388427553E0,-1.296605170E-1,5.173156038E-2,-7.899360359E-2
5.392397866E0,-7.021459192E-2,9.890780598E-2,-3.886848316E-2
5.396368178E0,-1.565909386E-1,1.339889318E-1,1.064127237E-1
5.400340053E0,-2.357067168E-1,2.149023861E-1,2.390751988E-1
5.404308803E0,-2.129301727E-1,3.206867874E-1,2.472084314E-1
5.408280678E0,-1.327497363E-1,3.330960870E-1,1.247910410E-1
5.412250991E0,-4.075343907E-2,2.416582853E-1,-1.966986060E-2
5.416222866E0,3.056071512E-2,1.130100712E-1,-1.020319462E-1
5.420191616E0,5.967280641E-2,5.490805954E-2,-7.979645580E-2
5.424161928E0,7.232644409E-2,4.251622036E-2,-5.098106712E-2
5.428132241E0,8.438666910E-2,9.407324716E-3,-6.803293526E-2
5.432104116E0,8.513715863E-2,-3.958406672E-2,-7.419394702E-2
5.436074428E0,8.002334833E-2,-6.340780854E-2,-5.619960278E-2
5.440044741E0,8.531169593E-2,-6.913249195E-2,-3.645992652E-2
5.444015053E0,1.035503820E-1,-7.602654397E-2,-1.595230959E-2
5.447985366E0,1.245816052E-1,-8.684758097E-2,-3.071779385E-3
5.451955678E0,1.342856288E-1,-9.978047013E-2,1.029744279E-3
5.455927553E0,1.355946362E-1,-1.151917279E-1,4.363323096E-4
5.459897866E0,1.335351467E-1,-1.195201501E-1,-2.111848444E-3
5.463866616E0,1.271297783E-1,-1.111600175E-1,-8.953538723E-3
5.467838491E0,1.212305725E-1,-1.029395163E-1,-1.600466855E-2
5.471808803E0,1.190838143E-1,-9.990264475E-2,-2.069960535E-2
5.475779116E0,1.186998412E-1,-9.714502841E-2,-2.539454028E-2
5.479749428E0,1.124341115E-1,-1.006356850E-1,-2.406809106E-2
5.483719741E0,1.089609042E-1,-1.081755087E-1,-2.220058814E-2
5.487690053E0,1.092750654E-1,-1.251924634E-1,-2.155481651E-2
5.491661928E0,1.110029370E-1,-1.467996389E-1,-2.350958437E-2
5.495632241E0,1.128180847E-1,-1.640260369E-1,-2.131047100E-2
5.499602553E0,1.120850444E-1,-1.749867052E-1,-1.034980267E-2
5.503572866E0,1.117534339E-1,-1.846209317E-1,7.853981806E-4
5.507543178E0,1.092576087E-1,-1.976585388E-1,6.998770405E-3
5.511513491E0,1.082976833E-1,-2.144835144E-1,1.253146399E-2
5.515485366E0,1.106015146E-1,-2.248682231E-1,1.802925020E-2
5.519455678E0,1.110552996E-1,-2.328618318E-1,2.937389165E-2
5.523425991E0,1.057844087E-1,-2.528109550E-1,4.307472706E-2
5.527396303E0,9.564404190E-2,-2.755351365E-1,3.188716620E-2
5.531366616E0,1.039692611E-1,-2.736327052E-1,1.450368576E-2
5.535336928E0,1.180715263E-1,-2.664768696E-1,8.901178837E-3
5.539307241E0,1.255066246E-1,-2.619215548E-1,1.315978263E-2
5.543277553E0,1.293987036E-1,-2.543991804E-1,2.165953629E-2
5.547249428E0,1.243896186E-1,-2.489712238E-1,3.335324302E-2
5.551219741E0,1.166229025E-1,-2.484650761E-1,4.845033959E-2
5.555190053E0,1.031489596E-1,-2.665117681E-1,7.030186057E-2
5.559160366E0,8.758062124E-2,-3.001617193E-1,7.030186057E-2
5.563130678E0,8.351400495E-2,-3.134611249E-1,5.764822662E-2
5.567100991E0,8.862782270E-2,-3.146828711E-1,5.145230517E-2
5.571071303E0,9.810495377E-2,-3.116634488E-1,5.948081985E-2
5.575043178E0,1.054004356E-1,-3.170216084E-1,7.061602175E-2
5.579013491E0,1.050339118E-1,-3.303384781E-1,8.030259609E-2
5.582983803E0,1.044928655E-1,-3.401297629E-1,8.779006451E-2
5.586954116E0,1.005833223E-1,-3.494672775E-1,9.349729121E-2
5.590924428E0,9.519025683E-2,-3.562566042E-1,9.724974632E-2
5.594896303E0,9.154251963E-2,-3.584906161E-1,9.808750451E-2
5.598866616E0,8.607963473E-2,-3.617718518E-1,9.588839114E-2
5.602835366E0,8.072147518E-2,-3.626270592E-1,9.381144494E-2
5.606810366E0,7.693411410E-2,-3.617892861E-1,8.754571527E-2
5.610777553E0,7.487462461E-2,-3.573736250E-1,7.792895287E-2
5.614747866E0,7.059856504E-2,-3.560471535E-1,7.241371274E-2
5.618718178E0,6.525786221E-2,-3.647214472E-1,7.066838443E-2
5.622688491E0,6.340780854E-2,-3.780034184E-1,6.782349199E-2
5.626658803E0,6.126105785E-2,-3.936590254E-1,6.284930557E-2
5.630630678E0,6.326818466E-2,-4.106759727E-1,5.871287733E-2
5.634600991E0,6.274458766E-2,-4.232597947E-1,5.295328796E-2
5.638571303E0,6.365215778E-2,-4.292288125E-1,4.754276946E-2
5.642541616E0,6.480407715E-2,-4.368035495E-1,4.372049868E-2
5.646511928E0,6.750933826E-2,-4.511327147E-1,3.565707803E-2
5.650482241E0,7.122688740E-2,-4.622504413E-1,3.022910282E-2
5.654452553E0,7.325147092E-2,-4.707152843E-1,3.122393973E-2
5.658424428E0,7.332128286E-2,-4.790928662E-1,2.998475730E-2
5.662394741E0,7.408922911E-2,-4.809952974E-1,2.724459022E-2
5.666365053E0,7.639306039E-2,-4.781678617E-1,2.382374369E-2
5.670335366E0,8.182103187E-2,-4.665963352E-1,2.172934823E-2
5.674305678E0,8.744099736E-2,-4.516737461E-1,2.359685116E-2
5.678275991E0,8.997172117E-2,-4.355992675E-1,2.633701824E-2
5.682246303E0,8.883725852E-2,-4.153010845E-1,3.005456924E-2
5.686218178E0,8.520697057E-2,-3.961548209E-1,3.223622963E-2
5.690188491E0,7.974409312E-2,-3.762580752E-1,3.356268257E-2
5.694158803E0,7.637561113E-2,-3.564834893E-1,3.316125646E-2
5.698129116E0,7.307693362E-2,-3.362551332E-1,3.153809905E-2
5.702099428E0,7.026695460E-2,-3.170041442E-1,3.082251363E-2
5.706069741E0,6.487388909E-2,-3.015754521E-1,2.972295694E-2
5.710040053E0,6.120869517E-2,-2.831098437E-1,2.762856148E-2
5.714010366E0,5.752605200E-2,-2.637017965E-1,2.619739249E-2
5.717980678E0,5.251695588E-2,-2.440319359E-1,2.249729447E-2
5.721952553E0,4.579744115E-2,-2.246064246E-1,2.092649788E-2
5.725922866E0,3.815289587E-2,-2.037322819E-1,2.097885683E-2
5.729893178E0,3.241076320E-2,-1.793325841E-1,1.963495463E-2
5.733863491E0,2.354449220E-2,-1.538333148E-1,1.792453043E-2
5.737833803E0,1.654572040E-2,-1.352979243E-1,1.658062823E-2
5.741804116E0,1.021017600E-2,-1.128704399E-1,1.366592757E-2
5.745775991E0,6.754423957E-3,-9.075712413E-2,1.080358773E-2
5.749746303E0,3.612831468E-3,-6.586872786E-2,8.552113548E-3
5.753716616E0,-6.981316983E-5,-4.612905160E-2,6.300638430E-3
5.757686928E0,-3.124139272E-3,-2.577851340E-2,4.520402756E-3
5.761657241E0,-6.195918657E-3,-4.817108624E-3,2.251474652E-3
5.765627553E0,-1.059414819E-2,6.056292448E-3,1.396263397E-4
5.769599428E0,-1.535889693E-2,1.717403904E-2,2.094395168E-4
5.773577553E0,-1.752310619E-2,3.073524870E-2,-1.570796361E-3
5.777540053E0,-1.897172816E-2,4.241150245E-2,-1.588249579E-3
5.781516616E0,-2.174680308E-2,5.269148946E-2,-5.410520826E-4
5.785480678E0,-2.459168993E-2,6.124360487E-2,2.426007763E-3
5.789450991E0,-2.713987045E-2,7.279768586E-2,3.647738136E-3
5.793421303E0,-2.766346931E-2,8.723155409E-2,6.091198884E-3
5.797391616E0,-2.794272080E-2,1.048768312E-1,6.265731994E-3
5.801361928E0,-3.267256171E-2,1.153488085E-1,4.537856148E-4
5.805333803E0,-3.331833705E-2,1.231853366E-1,-3.019419499E-3
5.809304116E0,-2.956587821E-2,1.369734406E-1,1.780235791E-3
5.813274428E0,-3.143338114E-2,1.480737329E-1,1.040216256E-2
5.817244741E0,-3.705333918E-2,1.655793786E-1,2.078687213E-2
5.821215053E0,-4.183554277E-2,1.862615347E-1,2.651155181E-2
5.825185366E0,-4.848524556E-2,1.994911283E-1,2.860594541E-2
5.829157241E0,-5.579817668E-2,2.119702399E-1,2.914699912E-2
5.833127553E0,-5.951572582E-2,2.287428528E-1,2.885029279E-2
5.837097866E0,-6.529276818E-2,2.424611449E-1,2.635447122E-2
5.841068178E0,-7.162830979E-2,2.552369535E-1,2.494075522E-2
5.845038491E0,-7.915068418E-2,2.614154220E-1,2.427753061E-2
5.849008803E0,-8.412487060E-2,2.707005739E-1,2.366666496E-2
5.852979116E0,-8.962265402E-2,2.738770545E-1,2.333505265E-2
5.856949428E0,-9.285151958E-2,2.798461020E-1,2.342231758E-2
5.860921303E0,-1.000422761E-1,2.735454440E-1,2.403318323E-2
5.864891616E0,-1.031140536E-1,2.707180083E-1,2.450442314E-2
5.868861928E0,-1.061858311E-1,2.648362517E-1,2.340486459E-2
5.872832241E0,-1.057669520E-1,2.564063072E-1,2.132792398E-2
5.876802553E0,-1.077566296E-1,2.447126210E-1,2.001892589E-2
5.880775991E0,-1.058891267E-1,2.353401929E-1,1.818633080E-2
5.884744741E0,-9.981537610E-2,2.265786380E-1,1.544616371E-2
5.888715053E0,-9.672614932E-2,2.122494876E-1,1.202531811E-2
5.892688491E0,-9.140289575E-2,2.021963894E-1,9.773843922E-3
5.896655678E0,-8.852309734E-2,1.903805137E-1,3.473205259E-3
5.900625991E0,-8.475318551E-2,1.827883273E-1,-1.029744279E-3
5.904596303E0,-8.255407214E-2,1.755452156E-1,-5.358160939E-3
5.908568178E0,-7.990117371E-2,1.668709219E-1,-9.197885171E-3
5.912536928E0,-7.588691264E-2,1.622108966E-1,-1.441641990E-2
5.916507241E0,-7.438593358E-2,1.570796371E-1,-1.773254573E-2
5.920479116E0,-7.127925009E-2,1.557531804E-1,-2.024581842E-2
5.924449428E0,-6.913249195E-2,1.508662552E-1,-2.377138473E-2
5.928419741E0,-6.735225767E-2,1.509535313E-1,-2.649409883E-2
5.932390053E0,-6.417575479E-2,1.487369537E-1,-2.975786291E-2
5.936360366E0,-6.140068173E-2,1.488940418E-1,-3.077015467E-2
5.940330678E0,-5.825908855E-2,1.501506716E-1,-3.312635049E-2
5.944302553E0,-5.818927661E-2,1.527337581E-1,-3.509857133E-2
5.948271303E0,-5.398303270E-2,1.582140923E-1,-3.637266159E-2
5.952243178E0,-5.256931856E-2,1.628043056E-1,-3.820525855E-2
5.956213491E0,-5.127777159E-2,1.626646817E-1,-3.928736225E-2
5.960183803E0,-5.230751634E-2,1.627694070E-1,-4.063126445E-2
5.964154116E0,-5.499532446E-2,1.612858772E-1,-4.098033160E-2
5.968124428E0,-5.269148946E-2,1.598547101E-1,-4.120722413E-2
5.972096303E0,-5.192354321E-2,1.560149789E-1,-4.202752933E-2
5.976066616E0,-5.368632823E-2,1.515469402E-1,-4.330161959E-2
5.980036928E0,-5.174901336E-2,1.473755985E-1,-4.558800161E-2
5.984007241E0,-4.881685972E-2,1.422268748E-1,-4.768239334E-2
5.987977553E0,-4.911356419E-2,1.353153735E-1,-4.899139330E-2
5.991947866E0,-4.993386939E-2,1.264316440E-1,-5.052728206E-2
5.995918178E0,-4.834562168E-2,1.179493517E-1,-5.047492310E-2
5.999890053E0,-4.703662172E-2,1.091005281E-1,-4.941027239E-2
6.003860366E0,-4.834562168E-2,9.688322991E-2,-4.883431271E-2
6.007830678E0,-5.139994621E-2,8.749335259E-2,-5.049237609E-2
6.011805678E0,-5.068436265E-2,8.175121993E-2,-5.047492310E-2
6.015772866E0,-5.155702680E-2,7.393214852E-2,-4.865977913E-2
6.019741616E0,-5.223770440E-2,6.932447851E-2,-4.743804783E-2
6.023711928E0,-5.436700583E-2,6.377433240E-2,-4.501204193E-2
6.027682241E0,-5.583308265E-2,5.841616914E-2,-4.166100919E-2
6.031652553E0,-5.605997518E-2,5.593780056E-2,-4.049163684E-2
6.035624428E0,-5.581562966E-2,5.455899239E-2,-3.972369432E-2
6.039594741E0,-5.605997518E-2,5.480333790E-2,-3.953170776E-2
6.043565053E0,-5.715953186E-2,5.592034757E-2,-4.188790172E-2
6.047535366E0,-5.400048569E-2,6.085963175E-2,-4.295255244E-2
6.051505678E0,-5.422737822E-2,6.216862798E-2,-4.504694790E-2
6.055475991E0,-5.443681777E-2,6.429792941E-2,-4.679227620E-2
6.059446303E0,-5.599016324E-2,6.366961449E-2,-4.860742018E-2
6.063418178E0,-5.490805954E-2,6.665412337E-2,-4.862487316E-2
6.067388491E0,-5.656611919E-2,6.593853980E-2,-4.953244328E-2
6.071358803E0,-5.445427075E-2,6.633996218E-2,-4.916592315E-2
6.075329116E0,-5.344198272E-2,6.510078162E-2,-4.742059484E-2
6.079299428E0,-5.136504024E-2,6.508332491E-2,-4.605923966E-2
6.083271303E0,-5.188863724E-2,6.188937649E-2,-4.555309191E-2
6.087241616E0,-4.975933582E-2,6.347762793E-2,-4.602433369E-2
6.091211928E0,-4.799655452E-2,6.435029209E-2,-4.598942399E-2
6.095182241E0,-4.663519561E-2,6.262241304E-2,-4.583234712E-2
6.099152553E0,-4.447098821E-2,6.127851084E-2,-4.534365237E-2
6.103122866E0,-4.106759652E-2,6.286676228E-2,-4.626867920E-2
6.107093178E0,-3.986331820E-2,6.178465486E-2,-4.756022245E-2
6.111065053E0,-3.818780556E-2,6.211626902E-2,-4.834562168E-2
6.115035366E0,-3.686135262E-2,6.052801758E-2,-4.871213809E-2
6.119005678E0,-3.621558100E-2,5.951572582E-2,-4.834562168E-2
6.122975991E0,-3.408627957E-2,5.775294453E-2,-4.660028964E-2
6.126946303E0,-3.277728334E-2,5.534439161E-2,-4.448844120E-2
6.130916616E0,-3.258529678E-2,4.822344705E-2,-4.138175771E-2
6.134888491E0,-3.146828711E-2,4.291764647E-2,-3.935717419E-2
6.138857241E0,-3.195697814E-2,3.911282867E-2,-3.808308393E-2
6.142829116E0,-3.251548484E-2,3.331833705E-2,-3.534291685E-2
6.146799428E0,-3.206169978E-2,3.150319308E-2,-3.433062509E-2
6.150768178E0,-3.314380348E-2,2.712241560E-2,-3.241076320E-2
6.154740053E0,-3.523819894E-2,2.340486459E-2,-3.190461919E-2
6.158710366E0,-3.474950418E-2,2.499311417E-2,-3.162536770E-2
6.162680678E0,-3.415609151E-2,2.497566119E-2,-3.033382259E-2
6.166650991E0,-3.520328924E-2,2.736676298E-2,-2.972295694E-2
6.170621303E0,-3.457497060E-2,2.874557301E-2,-2.789036185E-2
6.174593178E0,-3.591887653E-2,3.000221029E-2,-2.726204321E-2
6.178575991E0,-3.687880561E-2,3.440044075E-2,-2.485348843E-2
6.182533803E0,-3.921754658E-2,3.735004738E-2,-2.420771681E-2
6.186504116E0,-4.269075394E-2,3.916518763E-2,-2.509783395E-2
6.190474428E0,-4.314453900E-2,4.522148147E-2,-2.563888580E-2
6.194444741E0,-4.794419557E-2,4.785692692E-2,-2.637192421E-2
6.198415053E0,-4.918337986E-2,5.333726108E-2,-2.776818909E-2
6.202386928E0,-5.146975815E-2,5.796238407E-2,-2.843141370E-2
6.206355678E0,-5.040510744E-2,6.078981608E-2,-3.042108938E-2
6.210327553E0,-4.967207089E-2,5.960299447E-2,-3.138101846E-2
6.214297866E0,-5.084143952E-2,5.295328796E-2,-3.178244457E-2
6.218268178E0,-5.084143952E-2,4.551818594E-2,-3.068288788E-2
6.222238491E0,-4.738568887E-2,3.677408770E-2,-3.040363453E-2
6.226208803E0,-4.618141055E-2,2.727949619E-2,-2.942625061E-2
6.230179116E0,-4.375540465E-2,1.398008689E-2,-2.811725438E-2
6.234150991E0,-3.981095925E-2,7.190756500E-3,-2.747148275E-2
6.238121303E0,-3.893829510E-2,-3.438298590E-3,-2.670353837E-2
6.242091616E0,-3.630284965E-2,-1.134464052E-2,-2.560397983E-2
6.246061928E0,-3.455751762E-2,-1.747074537E-2,-2.501056902E-2
6.250032241E0,-3.199188411E-2,-2.253220044E-2,-2.471386269E-2
6.254002553E0,-3.087487444E-2,-2.340486459E-2,-2.326523885E-2
6.257974428E0,-2.710496262E-2,-2.104867063E-2,-2.199114859E-2
6.261944741E0,-2.614503168E-2,-2.195624262E-2,-2.061233856E-2
6.265915053E0,-2.513274178E-2,-2.445206232E-2,-2.040289901E-2
6.269885366E0,-2.548180707E-2,-2.270673402E-2,-1.914626174E-2
6.273855678E0,-2.209586836E-2,-1.891936921E-2,-1.865756884E-2
6.277830678E0,-1.806415804E-2,-1.130973361E-2,-1.703441329E-2
6.281797866E0,-1.745329238E-2,-7.679448463E-3,-1.659808122E-2
6.285766616E0,-1.745329238E-2,-2.513274085E-3,-1.589994878E-2
6.289736928E0,-1.925098151E-2,1.535889693E-3,-1.525417715E-2
6.293708803E0,-1.808161102E-2,1.040216256E-2,-1.598721556E-2
6.297679116E0,-1.624901593E-2,1.726130582E-2,-1.692969352E-2
6.301649428E0,-2.118829638E-2,1.888446324E-2,-1.778490469E-2
6.305619741E0,-1.963495463E-2,2.757620253E-2,-1.921607554E-2
6.309590053E0,-2.028072625E-2,3.075270168E-2,-1.883210242E-2
6.313561928E0,-1.954768784E-2,3.338814899E-2,-1.872738265E-2
6.317532241E0,-1.769763790E-2,3.754203022E-2,-2.082177810E-2
6.321500991E0,-1.570796408E-2,3.562216833E-2,-2.195624262E-2
6.325472866E0,-1.685987972E-2,2.907718532E-2,-2.481858246E-2
6.329443178E0,-1.518436428E-2,2.197369561E-2,-2.947861142E-2
6.333413491E0,-1.415462047E-2,1.499237865E-2,-3.263765574E-2
6.337383803E0,-1.223475765E-2,9.250245057E-3,-3.438298777E-2
6.341354116E0,-1.066396199E-2,4.014257283E-4,-3.572688997E-2
6.345324428E0,-8.307767101E-3,-8.534659632E-3,-3.623303398E-2
6.349296303E0,-5.288347602E-3,-1.476548519E-2,-3.637266159E-2
6.353266616E0,-2.844886621E-3,-2.062979154E-2,-3.715806082E-2
6.357236928E0,-1.047197584E-4,-2.576106042E-2,-3.691371530E-2
6.361207241E0,1.815142459E-3,-2.829178795E-2,-3.714060783E-2
6.365177553E0,6.824237294E-3,-2.429498360E-2,-3.764675185E-2
6.369149428E0,8.901178837E-3,-2.038544603E-2,-3.673918173E-2
6.373118178E0,1.183333248E-2,-1.319468953E-2,-3.604104742E-2
6.377094741E0,1.123992074E-2,-9.965829551E-3,-3.450515866E-2
6.381060366E0,1.123992074E-2,-4.625122529E-3,-3.275983036E-2
6.385030678E0,1.033234876E-2,-1.413716702E-3,-3.003711626E-2
6.389000991E0,8.150687441E-3,2.426007763E-3,-2.752384171E-2
6.392971303E0,3.804817796E-3,4.485496320E-3,-2.506292798E-2
6.396941616E0,-3.141592606E-4,9.826203808E-3,-2.200860158E-2
6.400911928E0,-5.462880712E-3,1.183333248E-2,-2.001892589E-2
6.404882241E0,-8.901178837E-3,1.640609466E-2,-1.829105057E-2
6.408854116E0,-1.553343050E-2,1.865756884E-2,-1.708677411E-2
6.412824428E0,-1.905899495E-2,2.377138473E-2,-1.631882787E-2
6.416794741E0,-2.375393175E-2,2.583087236E-2,-1.521927118E-2
6.420765053E0,-2.436479554E-2,3.227113932E-2,-1.462585945E-2
6.424735366E0,-2.647664398E-2,3.724532574E-2,-1.462585945E-2
6.428705678E0,-3.153809905E-2,4.201007634E-2,-1.537635084E-2
6.432677553E0,-3.408627957E-2,4.670501128E-2,-1.872738265E-2
6.436647866E0,-3.563962504E-2,4.703662172E-2,-1.916371472E-2
6.440616616E0,-3.590142354E-2,4.787437990E-2,-2.001892589E-2
6.444588491E0,-3.579670191E-2,4.448844120E-2,-2.054252476E-2
6.448558803E0,-3.759439290E-2,3.757693991E-2,-2.008873969E-2
6.452529116E0,-3.865904361E-2,3.200933710E-2,-1.951278187E-2
6.456499428E0,-3.789109737E-2,2.815216035E-2,-1.830850355E-2
6.460469741E0,-3.693116829E-2,2.562143281E-2,-1.754055917E-2
6.464440053E0,-3.548254445E-2,2.197369561E-2,-1.628392190E-2
6.468411928E0,-3.298672289E-2,2.192133479E-2,-1.596976258E-2
6.472382241E0,-3.024655581E-2,2.249729447E-2,-1.572541706E-2
6.476352553E0,-2.830924094E-2,2.551671304E-2,-1.370083448E-2
6.480322866E0,-2.525491454E-2,2.885029279E-2,-1.377064735E-2
6.484293178E0,-2.115339041E-2,3.485422581E-2,-1.380555425E-2
6.488269741E0,-1.946042106E-2,3.972369432E-2,-1.410226058E-2
6.492235366E0,-1.933824830E-2,4.099778458E-2,-1.373574138E-2
6.496205678E0,-1.823868975E-2,4.448844120E-2,-1.319468953E-2
6.500175991E0,-1.659808122E-2,4.902629927E-2,-1.258382387E-2
6.504147866E0,-1.679006778E-2,5.244714394E-2,-1.378810126E-2
6.508116616E0,-1.651081443E-2,5.681046844E-2,-1.289798319E-2
6.512086928E0,-1.750565320E-2,6.201154739E-2,-1.267109066E-2
6.516057241E0,-1.715658605E-2,6.457718462E-2,-1.260127686E-2
6.520029116E0,-1.631882787E-2,7.096508890E-2,-1.289798319E-2
6.523999428E0,-1.761037298E-2,7.080800831E-2,-1.462585945E-2
6.527969741E0,-1.914626174E-2,7.227408141E-2,-1.462585945E-2
6.531940053E0,-1.864011586E-2,7.613126189E-2,-1.583013684E-2
6.535910366E0,-1.790707745E-2,7.757988572E-2,-1.403244678E-2
6.539880678E0,-1.712168008E-2,7.721336931E-2,-1.371828746E-2
6.543850991E0,-1.841322333E-2,7.305948436E-2,-1.347394194E-2
6.547821303E0,-1.996656694E-2,6.956882030E-2,-1.328195538E-2
6.551793178E0,-1.932079531E-2,6.503096968E-2,-1.336922217E-2
6.555761928E0,-1.987930015E-2,6.084217876E-2,-1.143190637E-2
6.559733803E0,-2.155481651E-2,5.148721114E-2,-1.062905509E-2
6.563704116E0,-2.303834632E-2,4.150392860E-2,-8.918632753E-3
6.567674428E0,-2.192133479E-2,3.152064607E-2,-7.417649496E-3
6.571644741E0,-2.042035200E-2,2.350958437E-2,-4.764748737E-3
6.575615053E0,-2.049016580E-2,9.215338156E-3,-2.268928103E-3
6.579585366E0,-1.898918301E-2,-6.632251316E-4,-4.188790335E-4
6.583557241E0,-1.726130582E-2,-8.203047328E-3,9.424777818E-4
6.587527553E0,-1.633628085E-2,-1.274090353E-2,2.076941775E-3
6.591497866E0,-1.445132587E-2,-1.736602560E-2,2.967059612E-3
6.595468178E0,-1.305506285E-2,-2.309070528E-2,5.009094719E-3
6.599438491E0,-1.148426626E-2,-2.640683204E-2,6.283185445E-3
6.603408803E0,-1.213003788E-2,-2.967059799E-2,7.382742595E-3
6.607386928E0,-1.019272301E-2,-3.007202223E-2,8.412486874E-3
6.611350991E0,-8.482299745E-3,-3.183480725E-2,8.970992640E-3
6.615319741E0,-8.028514683E-3,-3.333579004E-2,1.139700040E-2
6.619291616E0,-8.377579972E-3,-3.569198400E-2,1.352630183E-2
6.623261928E0,-6.510077976E-3,-3.584906086E-2,1.647590846E-2
6.627232241E0,-8.429939859E-3,-3.665191308E-2,1.921607554E-2
6.631202553E0,-1.043706853E-2,-3.867649660E-2,2.202605456E-2
6.635172866E0,-1.034980267E-2,-3.829252347E-2,2.698278986E-2
6.639143178E0,-1.394518092E-2,-4.150392860E-2,3.143338114E-2
6.643115053E0,-1.247910410E-2,-3.991568089E-2,3.469714522E-2
6.647085366E0,-1.314232964E-2,-4.207988828E-2,3.645992652E-2
6.651055678E0,-1.136209350E-2,-4.173082113E-2,3.645992652E-2
6.655025991E0,-9.843656793E-3,-4.164355621E-2,3.736750036E-2
6.658996303E0,-8.552113548E-3,-4.508185387E-2,3.761184588E-2
6.662968178E0,-8.045967668E-3,-5.033529550E-2,3.691371530E-2
6.666938491E0,-7.470009383E-3,-6.120869517E-2,3.658210114E-2
6.670908803E0,-6.876597181E-3,-7.080800831E-2,3.724532574E-2
6.674879116E0,-6.108652335E-3,-7.948229462E-2,3.832742944E-2
6.678849428E0,-5.916666240E-3,-9.122835845E-2,4.026474431E-2
6.682819741E0,-2.705260413E-3,-1.004611477E-1,4.272565991E-2
6.686790053E0,-2.094395168E-4,-1.140049100E-1,4.532619938E-2
6.690761928E0,1.029744279E-3,-1.313883811E-1,4.961971194E-2
6.694730678E0,1.658062800E-3,-1.490162164E-1,5.178391933E-2
6.698702553E0,3.630284918E-3,-1.646019965E-1,5.536184460E-2
6.702672866E0,5.497787148E-3,-1.808510125E-1,5.780530348E-2
6.706643178E0,7.190756500E-3,-1.920211166E-1,5.979498103E-2
6.710613491E0,7.923794910E-3,-1.994562298E-1,6.166248396E-2
6.714583803E0,9.477137588E-3,-2.050063759E-1,6.276203692E-2
6.718554116E0,9.128072299E-3,-2.108183205E-1,6.410594285E-2
6.722525991E0,9.040805511E-3,-2.138377428E-1,6.625270098E-2
6.726496303E0,6.614797749E-3,-2.167175263E-1,6.876597553E-2
6.730466616E0,5.515240598E-3,-2.183930427E-1,7.108726352E-2
6.734436928E0,4.031710327E-3,-2.171713114E-1,7.274532318E-2
6.738407241E0,2.897246508E-3,-2.156354338E-1,7.436847687E-2
6.742377553E0,1.745329209E-4,-2.165953666E-1,7.585200667E-2
6.746349428E0,-5.235987919E-5,-2.115862668E-1,7.714354992E-2
6.750319741E0,-1.221730490E-4,-2.054427117E-1,7.792895287E-2
6.754288491E0,-4.363323096E-4,-2.013062686E-1,7.784168422E-2
6.758260366E0,-8.203047328E-4,-1.984090358E-1,7.705628872E-2
6.762230678E0,5.585053586E-4,-1.944820434E-1,7.475244999E-2
6.766200991E0,1.832595677E-3,-1.897172928E-1,7.429866493E-2
6.770171303E0,2.617993858E-3,-1.860520989E-1,7.449065149E-2
6.774141616E0,3.874630900E-3,-1.816364080E-1,7.211700082E-2
6.778111928E0,5.567600485E-3,-1.786693484E-1,7.195992768E-2
6.782083803E0,5.846852902E-3,-1.751961559E-1,7.056365907E-2
6.786054116E0,7.278022822E-3,-1.726305187E-1,6.883578748E-2
6.790024428E0,5.393067375E-3,-1.734682769E-1,6.899286807E-2
6.793994741E0,3.089232836E-3,-1.736777127E-1,6.873106211E-2
6.797965053E0,2.635447076E-3,-1.750914305E-1,7.016223669E-2
6.801935366E0,2.670353744E-3,-1.754754037E-1,7.159340382E-2
6.805907241E0,3.001966281E-3,-1.778141409E-1,7.347836345E-2
6.809877553E0,1.867502346E-3,-1.811477244E-1,7.637561113E-2
6.813846303E0,6.230825558E-3,-1.783901006E-1,8.089601249E-2
6.817818178E0,6.771877408E-3,-1.832595766E-1,8.417722583E-2
6.821788491E0,8.569566533E-3,-1.846732944E-1,8.669050038E-2
6.825758803E0,1.040216256E-2,-1.877450645E-1,8.689994365E-2
6.829729116E0,1.253146399E-2,-1.899092793E-1,8.529423922E-2
6.833699428E0,1.713913307E-2,-1.889667958E-1,8.321730047E-2
6.837671303E0,1.911135577E-2,-1.885653734E-1,8.011060953E-2
6.841641616E0,2.232276089E-2,-1.862091720E-1,7.675957680E-2
6.845611928E0,2.227040194E-2,-1.901012659E-1,7.436847687E-2
6.849582241E0,2.268928103E-2,-1.912706345E-1,7.208209485E-2
6.853552553E0,2.190388180E-2,-1.949009150E-1,6.939429045E-2
6.857522866E0,2.455678210E-2,-1.932777613E-1,6.658431143E-2
6.861493178E0,2.570869960E-2,-1.931381375E-1,6.403613091E-2
6.865465053E0,2.630211227E-2,-1.934348345E-1,6.127851084E-2
6.869433803E0,2.722713538E-2,-1.888271719E-1,5.813691765E-2
6.873408803E0,2.879793197E-2,-1.816189587E-1,5.567600206E-2
6.877375991E0,3.087487444E-2,-1.753532290E-1,5.260422453E-2
6.881346303E0,3.066543490E-2,-1.693667471E-1,5.031784251E-2
6.885316616E0,2.895501256E-2,-1.664346009E-1,4.759512842E-2
6.889286928E0,2.579596639E-2,-1.634326279E-1,4.494222626E-2
6.893257241E0,2.693043090E-2,-1.575159580E-1,4.274311289E-2
6.897229116E0,2.752384171E-2,-1.517563760E-1,4.066617042E-2
6.901199428E0,2.556907386E-2,-1.483006328E-1,3.906046972E-2
6.905169741E0,2.279400080E-2,-1.432042718E-1,3.654719517E-2
6.909140053E0,2.419026382E-2,-1.350884885E-1,3.558726236E-2
6.913110366E0,2.651155181E-2,-1.260476708E-1,3.412118554E-2
6.917080678E0,2.878047898E-2,-1.181238815E-1,3.270747140E-2
6.921052553E0,3.101450019E-2,-1.134987622E-1,3.066543490E-2
6.925022866E0,3.206169978E-2,-1.086641997E-1,2.743657492E-2
6.928993178E0,3.396410868E-2,-1.038121805E-1,2.508038096E-2
6.932963491E0,3.207915276E-2,-1.055400595E-1,2.265437320E-2
6.936933803E0,3.202679008E-2,-1.025555432E-1,2.111848444E-2
6.940904116E0,3.412118554E-2,-1.000946313E-1,2.103121765E-2
6.944874428E0,3.361504152E-2,-1.008276716E-1,2.099631168E-2
6.948844741E0,3.588397056E-2,-9.800023586E-2,2.113593742E-2
6.952815053E0,3.890338913E-2,-9.529497474E-2,2.132792398E-2
6.956786928E0,3.937462717E-2,-9.145525098E-2,2.274163999E-2
6.960757241E0,4.176572710E-2,-8.590510488E-2,2.385865152E-2
6.964733803E0,4.283038154E-2,-7.981390506E-2,2.490584925E-2
6.968697866E0,4.717624933E-2,-6.993534416E-2,2.532472648E-2
6.972680678E0,4.935790971E-2,-5.562364310E-2,2.663372457E-2
6.976638491E0,5.324999616E-2,-4.452335089E-2,2.593559213E-2
6.980610366E0,5.410520732E-2,-3.228859231E-2,2.542944625E-2
6.984580678E0,5.433209985E-2,-2.141519077E-2,2.591813914E-2
6.988550991E0,5.588544160E-2,-1.256637089E-2,2.619739249E-2
6.992521303E0,5.630432069E-2,-1.675516134E-3,2.490584925E-2
6.996491616E0,5.174901336E-2,4.764748737E-3,2.473131567E-2
7.000461928E0,5.040510744E-2,1.291543618E-2,2.331759781E-2
7.004433803E0,4.660028964E-2,2.106612362E-2,2.310816012E-2
7.008402553E0,4.424409568E-2,2.785545401E-2,2.228785492E-2
7.012374428E0,4.288274050E-2,3.309144080E-2,2.028072625E-2
7.016344741E0,3.921754658E-2,3.640756756E-2,2.035053819E-2
7.020315053E0,3.598868847E-2,3.832742944E-2,1.870992966E-2
7.024285366E0,3.033382259E-2,4.167846218E-2,1.858775690E-2
7.028255678E0,2.750638872E-2,4.300491139E-2,1.991420612E-2
7.032225991E0,2.527236752E-2,4.712389037E-2,1.951278187E-2
7.036197866E0,2.017600648E-2,4.698426276E-2,1.986184716E-2
7.040168178E0,1.612684131E-2,4.906120524E-2,2.115339041E-2
7.044138491E0,1.040216256E-2,4.853760451E-2,2.209586836E-2
7.048108803E0,1.073377486E-2,5.429719388E-2,2.143264376E-2
7.052079116E0,1.005309634E-2,5.969025940E-2,2.216568217E-2
7.056049428E0,8.377579972E-3,6.548475474E-2,2.145009674E-2
7.060019741E0,9.738937020E-3,6.983062625E-2,2.080432512E-2
7.063991616E0,9.040805511E-3,7.353071868E-2,2.078687213E-2
7.067960366E0,1.171115879E-2,8.185594529E-2,2.094395086E-2
7.071932241E0,1.092576142E-2,8.557349443E-2,2.158972248E-2
7.075902553E0,1.069886796E-2,8.681267500E-2,2.249729447E-2
7.079872866E0,9.442231618E-3,8.684758097E-2,2.289872058E-2
7.083850991E0,9.721484035E-3,8.791223168E-2,2.254965343E-2
7.087813491E0,1.038470864E-2,8.787732571E-2,2.139773592E-2
7.091783803E0,1.041961554E-2,8.922123164E-2,2.035053819E-2
7.095755678E0,1.478293911E-2,9.590584040E-2,1.932079531E-2
7.099725991E0,1.684242673E-2,9.915215522E-2,1.980948634E-2
7.103696303E0,1.600466855E-2,9.759881347E-2,1.661553420E-2
7.107666616E0,1.670280099E-2,9.491100162E-2,1.443387289E-2
7.111636928E0,1.778490469E-2,9.377653897E-2,1.356120780E-2
7.115607241E0,1.762782596E-2,8.972737938E-2,1.394518092E-2
7.119577553E0,1.741838641E-2,8.323474973E-2,1.312487572E-2
7.123549428E0,1.677261479E-2,7.222172618E-2,1.127482671E-2
7.127519741E0,1.630137488E-2,6.452482194E-2,1.047197543E-2
7.131490053E0,1.586504281E-2,5.544910952E-2,1.057669520E-2
7.135460366E0,1.485275198E-2,4.584980011E-2,1.059414819E-2
7.139430678E0,1.429424621E-2,3.972369432E-2,1.015781611E-2
7.143400991E0,1.520181727E-2,3.604104742E-2,9.442231618E-3
7.147371303E0,1.888446324E-2,3.340560198E-2,7.592182141E-3
7.151341616E0,2.288126573E-2,3.047344834E-2,6.352998316E-3
7.155313491E0,2.136282995E-2,2.850122750E-2,6.038838997E-3
7.159283803E0,1.841322333E-2,3.145083413E-2,6.405358203E-3
7.163254116E0,1.551597659E-2,3.447025269E-2,4.991641734E-3
7.167224428E0,1.462585945E-2,3.391174600E-2,5.759586347E-4
7.171194741E0,1.572541706E-2,2.984512970E-2,-2.530727303E-3
7.175165053E0,1.888446324E-2,3.150319308E-2,5.410520826E-4
7.179135366E0,1.684242673E-2,3.448770568E-2,4.520402756E-3
7.183105678E0,1.450368576E-2,3.796090931E-2,8.429939859E-3
7.187077553E0,1.570796408E-2,4.356341809E-2,7.487462368E-3
7.191047866E0,1.045452245E-2,4.110250250E-2,8.133234456E-3
7.195018178E0,8.621926419E-3,4.029965401E-2,8.464846760E-3
7.198988491E0,6.352998316E-3,3.543018550E-2,8.691739291E-3
7.202958803E0,4.241149873E-3,3.324852139E-2,8.604473434E-3
7.206929116E0,4.153883550E-3,3.087487444E-2,1.068141498E-2
7.210899428E0,1.413716702E-3,2.633701824E-2,1.183333248E-2
7.214871303E0,2.967059612E-3,2.652900480E-2,1.333431527E-2
7.218841616E0,2.094395168E-4,2.024581842E-2,1.583013684E-2
7.222811928E0,-9.599310579E-4,1.469567232E-2,1.799434423E-2
7.226782241E0,-5.235987919E-5,1.279326342E-2,2.021091245E-2
7.230752553E0,-2.670353744E-3,7.033676840E-3,2.078687213E-2
7.234722866E0,-4.118977115E-3,1.308996929E-3,2.108357660E-2
7.238693178E0,-5.253441166E-3,-1.658062800E-3,2.312561311E-2
7.242663491E0,-6.283185445E-3,-4.398229532E-3,2.426007576E-2
7.246635366E0,-8.831365965E-3,-6.771877408E-3,2.546435408E-2
7.250605678E0,-1.022762898E-2,-1.160643995E-2,2.666863054E-2
7.254575991E0,-1.045452245E-2,-1.361356769E-2,2.834414691E-2
7.258546303E0,-1.216494478E-2,-1.640609466E-2,2.698278986E-2
7.262518178E0,-1.366592757E-2,-1.907644793E-2,2.570869960E-2
7.266486928E0,-1.404990070E-2,-2.143264376E-2,2.537708730E-2
7.270458803E0,-1.431170013E-2,-2.551671304E-2,2.335250564E-2
7.274429116E0,-1.242674422E-2,-2.522000670E-2,2.174680308E-2
7.278399428E0,-1.207767799E-2,-2.696533687E-2,1.893682219E-2
7.282369741E0,-1.319468953E-2,-3.403392062E-2,1.609193534E-2
7.286340053E0,-1.333431527E-2,-3.363249451E-2,1.429424621E-2
7.290310366E0,-1.110029407E-2,-3.110176697E-2,1.277581044E-2
7.294282241E0,-1.036725566E-2,-2.727949619E-2,1.178097259E-2
7.298250991E0,-1.078613475E-2,-2.825688012E-2,9.704031050E-3
7.302221303E0,-9.546951391E-3,-2.336995862E-2,7.958701812E-3
7.306193178E0,-1.132718660E-2,-2.134537697E-2,7.365289610E-3
7.310163491E0,-1.209513191E-2,-1.993165910E-2,7.208209950E-3
7.314133803E0,-1.378810126E-2,-1.488765888E-2,6.248278543E-3
7.318104116E0,-1.408480667E-2,-7.557275705E-3,5.253441166E-3
7.322074428E0,-1.476548519E-2,-3.665191471E-4,3.787364578E-3
7.326046303E0,-1.434660610E-2,6.754423957E-3,1.902408898E-3
7.330016616E0,-1.302015595E-2,1.343903504E-2,5.061454722E-4
7.333986928E0,-1.614429615E-2,1.548107062E-2,-1.186823938E-3
7.337957241E0,-1.516691130E-2,2.186897583E-2,-1.640609466E-3
7.341927553E0,-1.308996975E-2,2.686061710E-2,-2.513274085E-3
7.345897866E0,-1.404990070E-2,2.816961333E-2,-4.694935866E-3
7.349868178E0,-1.370083448E-2,2.986258268E-2,-4.660028964E-3
7.353840053E0,-1.422443334E-2,3.028146178E-2,-3.892084118E-3
7.357808803E0,-1.164134592E-2,3.296926990E-2,-3.700098023E-3
7.361780678E0,-1.082104165E-2,3.366740048E-2,-3.490658477E-3
7.365750991E0,-9.093165398E-3,3.534291685E-2,-2.844886621E-3
7.369721303E0,-7.888888009E-3,3.820525855E-2,-3.124139272E-3
7.373691616E0,-4.869468510E-3,4.120722413E-2,-2.740166849E-3
7.377661928E0,-2.443460980E-3,4.513421282E-2,-2.199114766E-3
7.381632241E0,5.934119690E-4,4.754276946E-2,-2.199114766E-3
7.385604116E0,1.396263367E-3,4.754276946E-2,-1.291543595E-3
7.389574428E0,3.403391922E-3,5.099852011E-2,-1.361356815E-3
7.393544741E0,4.380776547E-3,5.373868719E-2,-1.221730490E-3
7.397515053E0,4.345869645E-3,5.534439161E-2,-1.047197497E-3
7.401485366E0,3.124139272E-3,5.499532446E-2,-6.981316837E-4
7.405455678E0,9.948377265E-4,5.401793867E-2,-4.537856148E-4
7.409427553E0,2.792526793E-4,5.359905958E-2,7.853981806E-4
7.413397866E0,-1.745329246E-5,5.290092900E-2,2.932153177E-3
7.417368178E0,-1.466076588E-3,4.893903062E-2,3.490658477E-3
7.421338491E0,-4.555309191E-3,4.220206290E-2,3.036872949E-3
7.425308803E0,-4.153883550E-3,4.148647562E-2,3.368485486E-3
7.429279116E0,-4.799655639E-3,3.467969224E-2,3.752457909E-3
7.433250991E0,-4.817108624E-3,3.139847144E-2,4.153883550E-3
7.437221303E0,-4.363323096E-3,2.469640970E-2,3.961897455E-3
7.441199428E0,-6.370451767E-3,1.553343050E-2,4.817108624E-3
7.445161928E0,-5.969026126E-3,9.564404376E-3,5.340707488E-3
7.449132241E0,-6.335545331E-3,2.862340072E-3,5.619960371E-3
7.453102553E0,-6.265731994E-3,-2.600540640E-3,5.846852902E-3
7.457072866E0,-5.811946467E-3,-8.255407214E-3,4.694935866E-3
7.461043178E0,-7.347836159E-3,-1.605702937E-2,4.694935866E-3
7.465013491E0,-8.342674002E-3,-2.516764775E-2,5.148721393E-3
7.468985366E0,-9.215338156E-3,-3.492403775E-2,4.363323096E-3
7.472955678E0,-8.517206647E-3,-4.422664270E-2,5.375613924E-3
7.476925991E0,-9.704031050E-3,-5.719443783E-2,5.619960371E-3
7.480896303E0,-8.656833321E-3,-6.780604273E-2,5.707226694E-3
7.484866616E0,-7.330382708E-3,-7.719591260E-2,6.457718089E-3
7.488836928E0,-6.684611086E-3,-8.852309734E-2,7.714355364E-3
7.492807241E0,-5.462880712E-3,-9.765116870E-2,1.061160211E-2
7.496777553E0,-3.036872949E-3,-1.072504818E-1,1.377064735E-2
7.500749428E0,-4.049163777E-3,-1.157851443E-1,1.684242673E-2
7.504719741E0,-4.939281847E-3,-1.247735843E-1,2.007128671E-2
7.508690053E0,-2.897246508E-3,-1.284736842E-1,2.209586836E-2
7.512660366E0,-1.919862116E-3,-1.305157244E-1,2.459168993E-2
7.516630678E0,-1.658062800E-3,-1.320690662E-1,2.555162087E-2
7.520600991E0,4.886921961E-4,-1.340063810E-1,2.670353837E-2
7.524572866E0,1.815142459E-3,-1.353851855E-1,2.684316412E-2
7.528543178E0,2.164208330E-3,-1.395216137E-1,2.628465928E-2
7.532513491E0,2.548180753E-3,-1.412145942E-1,2.598795295E-2
7.536483803E0,6.126105785E-3,-1.393819898E-1,2.619739249E-2
7.540454116E0,4.625122529E-3,-1.459967941E-1,2.551671304E-2
7.544424428E0,7.557275705E-3,-1.472534239E-1,2.548180707E-2
7.548394741E0,6.213372108E-3,-1.557182819E-1,2.427753061E-2
7.552366616E0,7.365289610E-3,-1.618443877E-1,2.230530791E-2
7.556335366E0,1.008800324E-2,-1.658411920E-1,2.148500271E-2
7.560308803E0,8.831365965E-3,-1.727526933E-1,2.066469751E-2
7.564277553E0,1.061160211E-2,-1.747074574E-1,1.834340952E-2
7.568252553E0,1.062905509E-2,-1.782330275E-1,1.743583940E-2
7.572218178E0,1.123992074E-2,-1.780934036E-1,1.645845547E-2
7.576188491E0,1.349139493E-2,-1.781981140E-1,1.364847459E-2
7.580158803E0,1.619665511E-2,-1.780934036E-1,1.064650808E-2
7.584130678E0,1.673770696E-2,-1.776047051E-1,8.517206647E-3
7.588100991E0,1.764527895E-2,-1.783726513E-1,5.393067375E-3
7.592071303E0,2.103121765E-2,-1.733111888E-1,3.228859045E-3
7.596041616E0,2.357939817E-2,-1.728923172E-1,1.902408898E-3
7.600011928E0,2.513274178E-2,-1.724908948E-1,2.164208330E-3
7.603982241E0,2.797762863E-2,-1.714611501E-1,2.234021435E-3
7.607952553E0,2.628465928E-2,-1.761909872E-1,2.548180753E-3
7.611924428E0,3.050835431E-2,-1.716880351E-1,2.338741207E-3
7.615894741E0,3.389429301E-2,-1.680926532E-1,2.129301662E-3
7.619865053E0,3.460988030E-2,-1.676214188E-1,2.530727303E-3
7.623835366E0,3.555235639E-2,-1.641831249E-1,2.321287990E-3
7.627805678E0,3.625048697E-2,-1.637467891E-1,3.036872949E-3
7.631775991E0,3.371975943E-2,-1.621236354E-1,2.617993858E-3
7.635746303E0,3.351031989E-2,-1.556833684E-1,2.356194425E-3
7.639716616E0,3.316125646E-2,-1.494874507E-1,1.535889693E-3
7.643688491E0,3.110176697E-2,-1.472708881E-1,1.919862116E-3
7.647658803E0,2.937389165E-2,-1.424712241E-1,3.368485486E-3
7.651629116E0,3.085742146E-2,-1.368687153E-1,3.752457909E-3
7.655599428E0,3.005456924E-2,-1.317723542E-1,3.857177682E-3
7.659569741E0,2.954842336E-2,-1.236740276E-1,3.717551241E-3
7.663540053E0,2.895501256E-2,-1.155407950E-1,3.857177682E-3
7.667510366E0,2.879793197E-2,-1.078613475E-1,2.967059612E-3
7.671482241E0,2.712241560E-2,-1.005833223E-1,3.054326167E-3
7.675452553E0,2.771582827E-2,-9.131562710E-2,2.617993858E-3
7.679422866E0,2.487094142E-2,-8.482300490E-2,2.652900526E-3
7.683393178E0,2.216568217E-2,-7.833037525E-2,5.585053586E-4
7.687363491E0,2.160717547E-2,-6.864380091E-2,-1.623156248E-3
7.691333803E0,2.207841538E-2,-6.085963175E-2,-3.403391922E-3
7.695304116E0,1.963495463E-2,-5.731661245E-2,-4.328416660E-3
7.699275991E0,2.064724453E-2,-4.677482322E-2,-4.712388851E-3
7.703246303E0,1.897172816E-2,-4.220206290E-2,-4.956734832E-3
7.707216616E0,2.033308521E-2,-3.485422581E-2,-4.118977115E-3
7.711186928E0,1.888446324E-2,-2.900737152E-2,-4.817108624E-3
7.715157241E0,1.761037298E-2,-2.628465928E-2,-4.241149873E-3
7.719127553E0,1.651081443E-2,-2.286381274E-2,-4.537856206E-3
7.723097866E0,1.457349956E-2,-2.242748067E-2,-3.403391922E-3
7.727068178E0,1.631882787E-2,-1.764527895E-2,-3.124139272E-3
7.731040053E0,1.481784508E-2,-1.790707745E-2,-3.054326167E-3
7.735010366E0,1.338667516E-2,-1.616174914E-2,-4.712388909E-4
7.738980678E0,1.315978263E-2,-1.239183731E-2,3.490658419E-4
7.742950991E0,1.068141498E-2,-1.291543618E-2,-1.745329209E-4
7.746921303E0,9.442231618E-3,-1.275835652E-2,8.726646192E-4
7.750891616E0,7.312929723E-3,-1.406735368E-2,-3.490658419E-4
7.754861928E0,6.143558770E-3,-1.411971357E-2,5.235987483E-4
7.758833803E0,7.190756500E-3,-1.202531811E-2,-1.221730490E-4
7.762804116E0,6.579891313E-3,-9.197885171E-3,-6.108652451E-4
7.766785366E0,4.310963210E-3,-8.918632753E-3,2.967059845E-4
7.770744741E0,4.014257342E-3,-3.141592722E-3,-3.316125658E-4
7.774715053E0,4.694935866E-3,3.926991019E-3,2.268928074E-4
7.778685366E0,6.213372108E-3,1.118756086E-2,2.268928074E-4
7.782657241E0,5.113814492E-3,1.638864167E-2,-5.061454722E-4
7.786627553E0,5.131267942E-3,2.213077433E-2,-1.605702913E-3
7.790596303E0,3.926991019E-3,2.495820820E-2,-3.106686054E-3
7.794568178E0,3.455751808E-3,2.630211227E-2,-4.398229532E-3
7.798538491E0,4.555309191E-3,2.937389165E-2,-5.340707488E-3
7.802508803E0,3.926991019E-3,3.303908184E-2,-6.335545331E-3
7.806479116E0,6.021386012E-3,3.216641769E-2,-7.347836159E-3
7.810449428E0,8.237954229E-3,3.211405873E-2,-6.859143730E-3
7.814419741E0,6.248278543E-3,2.712241560E-2,-6.126105785E-3
7.818393178E0,8.429939859E-3,2.431243658E-2,-5.323254038E-3
7.822361928E0,7.958701812E-3,2.268928103E-2,-3.926991019E-3
7.826332241E0,9.023352526E-3,2.179916203E-2,-5.358160939E-3
7.830302553E0,9.162978269E-3,1.661553420E-2,-4.834562074E-3
7.834272866E0,9.040805511E-3,1.448623277E-2,-5.445427261E-3
7.838244741E0,1.096066739E-2,1.260127686E-2,-5.899212789E-3
7.842215053E0,1.162389293E-2,9.983283468E-3,-6.178465672E-3
7.846185366E0,1.239183731E-2,8.098327555E-3,-5.951572675E-3
7.850155678E0,1.303760987E-2,7.155850064E-3,-5.742133129E-3
7.854125991E0,1.427679323E-2,6.475171540E-3,-4.939281847E-3
7.858096303E0,1.549852360E-2,6.283185445E-3,-4.118977115E-3
7.862066616E0,1.626646891E-2,7.138396613E-3,-4.363323096E-3
7.866036928E0,1.480039209E-2,7.661995478E-3,-3.071779385E-3
7.870008803E0,1.623156108E-2,8.395033889E-3,-3.926991019E-3
7.873979116E0,1.720894687E-2,9.948376566E-3,-4.014257342E-3
7.877949428E0,1.851794310E-2,1.261873078E-2,-3.438298590E-3
7.881919741E0,1.675515994E-2,8.796459064E-3,-2.059488557E-3
7.885890053E0,1.780235767E-2,3.438298590E-3,-1.256637042E-3
7.889860366E0,1.806415804E-2,-3.228859045E-3,-1.570796303E-4
7.893830678E0,1.844812930E-2,-9.773843922E-3,1.029744279E-3
7.897802553E0,1.809906401E-2,-1.946042106E-2,1.483529806E-3
7.901772866E0,1.904154196E-2,-2.785545401E-2,1.902408898E-3
7.905743178E0,1.960004680E-2,-3.953170776E-2,2.007128671E-3
7.909713491E0,2.125811018E-2,-4.843288660E-2,2.356194425E-3
7.913683803E0,2.106612362E-2,-6.131341681E-2,3.036872949E-3
7.917660366E0,2.357939817E-2,-7.445574552E-2,3.071779385E-3
7.921636928E0,2.605776489E-2,-8.464846760E-2,3.228859045E-3
7.925594741E0,2.986258268E-2,-9.302604944E-2,3.420845373E-3
7.929565053E0,3.099704720E-2,-1.039343551E-1,3.909537569E-3
