"Time (s)","Acceleration x (m/s^2)","Acceleration y (m/s^2)","Acceleration z (m/s^2)"
2.330161200E-2,-3.926910400E0,4.631256104E0,6.184585571E0
2.827597700E-2,-3.926910400E0,4.631256104E0,6.184585571E0
3.325034200E-2,-3.926910400E0,4.631256104E0,6.184585571E0
3.822470700E-2,-3.926910400E0,4.631256104E0,6.184585571E0
4.319907200E-2,-3.926910400E0,4.631256104E0,6.184585571E0
4.817343800E-2,-3.926910400E0,4.631256104E0,6.184585571E0
5.314780300E-2,-3.546279907E0,4.013824463E0,7.089721680E0
5.812216800E-2,-3.314971924E0,3.076049805E0,8.851226807E0
6.309653300E-2,-4.107009888E0,3.339569092E0,9.323059082E0
6.807089900E-2,-4.240600586E0,3.503555298E0,9.308715820E0
7.304526400E-2,-3.746932983E0,3.598327637E0,8.977188110E0
7.801962900E-2,-3.004806519E0,3.699325562E0,8.680816650E0
8.299399400E-2,-2.318618774E0,3.578598022E0,8.382110596E0
8.796836000E-2,-1.716552734E0,3.295562744E0,7.976364136E0
9.294272500E-2,-1.247543335E0,2.974929810E0,7.312210083E0
9.791709000E-2,-9.158477783E-1,2.572296143E0,6.502883911E0
1.028914550E-1,-6.690063477E-1,2.082122803E0,5.709075928E0
1.078658210E-1,-5.466613770E-1,1.629058838E0,4.919586182E0
1.128401860E-1,-2.577972412E-1,1.220382690E0,4.157119751E0
1.178145510E-1,-1.373596191E-1,5.521697998E-1,3.819717407E0
1.227889160E-1,-3.480072021E-1,5.035400391E-4,3.856704712E0
1.277632810E-1,-7.577056885E-1,-3.470611572E-1,3.840744019E0
1.327376470E-1,-1.135971069E0,-7.324676514E-1,3.821929932E0
1.377120120E-1,-1.285140991E0,-4.553222656E-2,5.021102905E0
1.426863770E-1,-1.301986694E0,1.183929443E-1,5.277709961E0
1.476607420E-1,-1.301986694E0,1.183929443E-1,5.277709961E0
1.526351080E-1,-1.301986694E0,1.183929443E-1,5.277709961E0
1.576094730E-1,-1.301986694E0,1.183929443E-1,5.277709961E0
1.625838380E-1,-2.345230103E0,2.361557007E0,1.555546570E1
1.675582030E-1,2.436370850E-1,2.855468750E0,1.253553772E1
1.725325690E-1,1.570526123E0,1.932662964E0,1.133544922E1
1.775069340E-1,2.012374878E0,5.024414062E-1,1.176809692E1
1.824812990E-1,1.831069946E0,-7.569732666E-1,1.236697388E1
1.874556640E-1,1.749801636E0,-1.511672974E0,1.201350403E1
1.924300290E-1,1.336135864E0,-1.988052368E0,1.149273682E1
1.974043950E-1,6.504211426E-1,-2.240280151E0,1.116880798E1
2.023787600E-1,-1.775970459E-1,-2.382766724E0,1.068330383E1
2.073531250E-1,-8.372497559E-1,-2.352859497E0,9.702850342E0
2.123274900E-1,-1.294509888E0,-1.924636841E0,9.203384399E0
2.173018560E-1,-1.485900879E0,-1.428833008E0,9.047958374E0
2.222762210E-1,-1.424850464E0,-8.212127686E-1,9.329910278E0
2.272505860E-1,-1.043380737E0,-3.076171875E-1,9.887252808E0
2.322249510E-1,-5.045471191E-1,-3.181457520E-2,9.766830444E0
2.371993170E-1,-2.740478516E-2,5.670166016E-2,9.161544800E0
2.421736820E-1,1.402740479E-1,1.602172852E-2,8.677001953E0
2.471480470E-1,6.578063965E-2,4.151916504E-2,8.527664185E0
2.521224120E-1,1.400756836E-1,1.989440918E-1,8.342926025E0
2.570967780E-1,2.734680176E-1,2.960510254E-1,7.989959717E0
2.620711430E-1,7.911682129E-2,1.453399658E-1,7.540527344E0
2.670455080E-1,-7.351226807E-1,-4.155578613E-1,7.305633545E0
2.720198730E-1,-1.660339355E0,-1.143951416E0,6.895446777E0
2.769942380E-1,-1.735000610E0,-1.423522949E0,6.063171387E0
2.819686040E-1,-1.268310547E0,-1.485122681E0,6.043640137E0
2.869429690E-1,-6.650390625E-1,-1.456939697E0,6.551055908E0
2.919173340E-1,-3.419342041E-1,-1.555923462E0,7.140899658E0
2.968916990E-1,-3.226776123E-1,-1.703659058E0,7.579925537E0
3.018660650E-1,-3.558044434E-1,-1.741333008E0,7.823287964E0
3.068404300E-1,-2.457275391E-1,-1.613296509E0,7.921646118E0
3.118147950E-1,2.319793701E-1,-1.328186035E0,7.878204346E0
3.167891600E-1,1.061233521E0,-9.162445068E-1,7.667800903E0
3.217635260E-1,1.921356201E0,-4.589385986E-1,6.967498779E0
3.267378910E-1,2.209304810E0,1.149902344E-1,6.820343018E0
3.317122560E-1,2.218399048E0,6.254425049E-1,6.955657959E0
3.366866210E-1,2.476715088E0,7.735900879E-1,7.105606079E0
3.416609870E-1,2.627990723E0,5.878143311E-1,7.325424194E0
3.466353520E-1,2.706207275E0,1.255950928E-1,7.619232178E0
3.516097170E-1,2.540649414E0,-5.227661133E-1,8.146469116E0
3.565840820E-1,2.215103149E0,-1.273727417E0,8.906539917E0
3.615584470E-1,1.788757324E0,-2.054092407E0,9.829528809E0
3.665328130E-1,1.473693848E0,-2.807281494E0,1.068646240E1
3.715071780E-1,6.457977295E-1,-3.439697266E0,1.116209412E1
3.764815430E-1,-2.892532349E0,-3.894012451E0,1.102384949E1
3.814559080E-1,-6.936828613E0,-4.318008423E0,1.064778137E1
3.864302740E-1,-7.672470093E0,-5.249633789E0,9.769897461E0
3.914046390E-1,-4.842330933E0,-6.534912109E0,8.884826660E0
3.963790040E-1,-2.115844727E0,-7.531982422E0,7.824447632E0
4.013533690E-1,-1.141738892E0,-7.886886597E0,6.768096924E0
4.063277350E-1,-8.072204590E-1,-7.544830322E0,5.973083496E0
4.113021000E-1,-1.399841309E-1,-6.822967529E0,5.387268066E0
4.162764650E-1,9.954833984E-1,-5.923446655E0,5.124389648E0
4.212508300E-1,2.409790039E0,-4.995117188E0,5.110443115E0
4.262251960E-1,4.196502686E0,-4.261154175E0,5.137451172E0
4.311995610E-1,6.360107422E0,-3.515213013E0,5.119552612E0
4.361739260E-1,8.168823242E0,-2.670074463E0,4.890151978E0
4.411482910E-1,9.104980469E0,-2.052886963E0,4.649978638E0
4.461226560E-1,8.207397461E0,-1.784652710E0,4.767105103E0
4.510970220E-1,5.147048950E0,-1.981491089E0,5.365707397E0
4.560713870E-1,1.977478027E0,-3.030349731E0,6.399963379E0
4.610457520E-1,1.545013428E0,-4.679809570E0,7.266601562E0
4.660201170E-1,3.241592407E0,-6.280319214E0,7.900909424E0
4.709944830E-1,4.498168945E0,-7.395080566E0,8.789215088E0
4.759688480E-1,4.920684814E0,-7.728408813E0,1.057630920E1
4.809432130E-1,5.423217773E0,-7.281387329E0,1.201376343E1
4.859175780E-1,6.385971069E0,-6.456268311E0,1.185476685E1
4.908919440E-1,8.021865845E0,-5.386703491E0,1.146803284E1
4.958663090E-1,9.298080444E0,-4.080886841E0,1.127497864E1
5.008406740E-1,9.627044678E0,-3.213424683E0,1.122279358E1
5.058150390E-1,1.036744690E1,-2.858398438E0,1.095155334E1
5.107894040E-1,1.152883911E1,-2.650588989E0,1.011396790E1
5.157637700E-1,1.199967957E1,-2.322738647E0,9.000564575E0
5.207381350E-1,1.164485168E1,-2.129684448E0,7.931365967E0
5.257125000E-1,1.108288574E1,-2.254638672E0,7.208496094E0
5.306868650E-1,1.067034912E1,-2.645095825E0,6.847412109E0
5.356612310E-1,1.038400269E1,-3.180862427E0,6.834350586E0
5.406355960E-1,1.006727600E1,-3.690444946E0,7.230224609E0
5.456099610E-1,9.870468140E0,-4.052932739E0,7.721099854E0
5.505843260E-1,9.687301636E0,-4.324066162E0,8.175155640E0
5.555586920E-1,9.801544189E0,-4.384735107E0,8.657684326E0
5.605330570E-1,1.016487122E1,-4.511627197E0,9.055892944E0
5.655074220E-1,1.048786926E1,-4.640151978E0,9.455520630E0
5.704817870E-1,1.083164978E1,-4.710464478E0,9.663314819E0
5.754561530E-1,1.145428467E1,-4.584121704E0,9.757308960E0
5.804305180E-1,1.191195679E1,-4.366836548E0,9.601364136E0
5.854048830E-1,1.249642944E1,-4.021530151E0,9.535217285E0
5.903792480E-1,1.314854431E1,-3.609909058E0,9.549545288E0
5.953536130E-1,1.380764771E1,-3.209579468E0,9.663528442E0
6.003279790E-1,1.380912781E1,-2.712448120E0,1.103660583E1
6.053023440E-1,1.352436829E1,-1.906219482E0,1.576464844E1
6.102767090E-1,1.494042969E1,-2.559051514E0,1.514804077E1
6.152510740E-1,1.446205139E1,-3.302124023E0,1.481184387E1
6.202254400E-1,1.367022705E1,-4.011398315E0,1.509921265E1
6.251998050E-1,1.331455994E1,-4.643325806E0,1.572615051E1
6.301741700E-1,1.272872925E1,-5.040527344E0,1.592417908E1
6.351485350E-1,1.223353577E1,-5.417297363E0,1.510627747E1
6.401229010E-1,1.179711914E1,-5.702392578E0,1.367257690E1
6.450972660E-1,1.136647034E1,-5.824066162E0,1.195507812E1
6.500716310E-1,1.118096924E1,-5.635971069E0,1.007455444E1
6.550459960E-1,1.099629211E1,-5.223937988E0,8.188323975E0
6.600203620E-1,1.077615356E1,-4.706634521E0,6.689483643E0
6.649947270E-1,1.113183594E1,-4.070724487E0,5.866622925E0
6.699690920E-1,1.182173157E1,-3.340362549E0,5.504180908E0
6.749434570E-1,1.232617188E1,-2.771087646E0,5.463775635E0
6.799178220E-1,1.266658020E1,-2.537872314E0,5.990219116E0
6.848921880E-1,1.265771484E1,-2.643295288E0,6.911743164E0
6.898665530E-1,1.225958252E1,-3.032699585E0,7.585510254E0
6.948409180E-1,1.178431702E1,-3.485839844E0,7.995681763E0
6.998152830E-1,1.159191895E1,-3.831298828E0,8.431060791E0
7.047896490E-1,1.142126465E1,-3.865936279E0,8.965209961E0
7.097640140E-1,1.146556091E1,-3.826522827E0,9.336944580E0
7.147383790E-1,1.149157715E1,-3.758117676E0,9.471679688E0
7.197127440E-1,1.144149780E1,-3.690765381E0,9.199813843E0
7.246871100E-1,1.163838196E1,-3.626983643E0,8.686203003E0
7.296614750E-1,1.200895691E1,-3.550827026E0,8.203094482E0
7.346358400E-1,1.213453674E1,-3.309616089E0,7.552291870E0
7.396102050E-1,1.191915894E1,-3.026947021E0,6.365325928E0
7.445845710E-1,1.153126526E1,-2.886856079E0,5.087600708E0
7.495589360E-1,1.079753113E1,-2.750839233E0,4.120986938E0
7.545333010E-1,9.881408691E0,-2.639495850E0,3.261489868E0
7.595076660E-1,8.911926270E0,-2.589111328E0,2.811157227E0
7.644820310E-1,8.095687866E0,-2.796096802E0,2.725173950E0
7.694563970E-1,7.737625122E0,-3.253143311E0,3.093032837E0
7.744307620E-1,7.479354858E0,-3.853866577E0,3.743011475E0
7.794051270E-1,7.220474243E0,-4.396942139E0,4.503753662E0
7.843794920E-1,7.230545044E0,-4.658996582E0,5.128997803E0
7.893538580E-1,7.449066162E0,-4.614974976E0,5.324630737E0
7.943282230E-1,7.589218140E0,-4.356628418E0,5.201843262E0
7.993025880E-1,7.508789062E0,-3.954284668E0,4.956542969E0
8.042769530E-1,7.250045776E0,-3.625747681E0,4.531326294E0
8.092513190E-1,6.868606567E0,-3.538604736E0,4.009826660E0
8.142256840E-1,6.339782715E0,-3.839004517E0,3.488525391E0
8.192000490E-1,5.593322754E0,-4.266052246E0,3.011703491E0
8.241744140E-1,5.054702759E0,-4.537551880E0,2.804077148E0
8.291487790E-1,5.141799927E0,-4.662612915E0,2.894561768E0
8.341231450E-1,6.058120728E0,-4.723876953E0,9.485168457E-1
8.390975100E-1,7.266693115E0,-4.494552612E0,-3.939498901E0
8.440718750E-1,7.547760010E0,-4.109008789E0,-6.496292114E0
8.490462400E-1,7.251983643E0,-4.290954590E0,-5.249389648E0
8.540206060E-1,7.000671387E0,-5.163436890E0,-2.384963989E0
8.589803580E-1,6.901824951E0,-6.274414062E0,5.239868164E-2
8.639547230E-1,6.935226440E0,-7.102340698E0,1.576721191E0
8.689290880E-1,6.805618286E0,-7.592239380E0,2.769500732E0
8.739034540E-1,6.266921997E0,-7.716125488E0,5.191314697E0
8.788778190E-1,6.153976440E0,-7.076568604E0,1.050346375E1
8.838521840E-1,6.747467041E0,-7.324462891E0,1.121214294E1
8.888265490E-1,5.978530884E0,-8.176589966E0,8.653640747E0
8.938009150E-1,4.116744995E0,-8.461105347E0,7.551620483E0
8.987752800E-1,2.840118408E0,-8.229217529E0,6.530105591E0
9.037496450E-1,2.048080444E0,-7.962890625E0,4.595947266E0
9.087240100E-1,1.489532471E0,-7.785736084E0,3.641143799E0
9.136983750E-1,1.262619019E0,-7.948547363E0,3.459716797E0
9.186727410E-1,1.055358887E0,-8.381958008E0,3.527603149E0
9.236471060E-1,7.121734619E-1,-8.850814819E0,3.595687866E0
9.286214710E-1,2.614440918E-1,-9.390045166E0,3.716934204E0
9.335958360E-1,2.145385742E-2,-9.749801636E0,3.943862915E0
9.385702020E-1,2.665252686E-1,-9.766433716E0,4.024078369E0
9.435445670E-1,8.384094238E-1,-9.618942261E0,3.957305908E0
9.485189320E-1,1.181701660E0,-9.424530029E0,3.479492188E0
9.534932970E-1,1.445449829E0,-9.182449341E0,3.159881592E0
9.584676630E-1,1.844573975E0,-8.922683716E0,2.961196899E0
9.634420280E-1,2.218948364E0,-8.464767456E0,2.764648438E0
9.684163930E-1,2.503112793E0,-7.854309082E0,2.540191650E0
9.733907580E-1,3.150970459E0,-7.231124878E0,2.022796631E0
9.783651240E-1,3.690841675E0,-6.639083862E0,1.741699219E0
9.833394890E-1,4.160232544E0,-6.139785767E0,1.494659424E0
9.883138540E-1,4.123504639E0,-5.733642578E0,2.462371826E0
9.932882190E-1,3.642562866E0,-5.509872437E0,3.922241211E0
9.982625840E-1,3.394622803E0,-5.277725220E0,4.875381470E0
1.003236950E0,3.020401001E0,-5.047164917E0,5.808120728E0
1.008211315E0,2.277130127E0,-5.354537964E0,6.804290771E0
1.013185680E0,2.035430908E0,-6.182754517E0,6.875350952E0
1.018160045E0,2.565002441E0,-6.886962891E0,6.431732178E0
1.023134411E0,2.158294678E0,-7.398330688E0,6.906997681E0
1.028108776E0,1.259567261E0,-7.738388062E0,8.026336670E0
1.033083141E0,9.264831543E-1,-7.973754883E0,8.358093262E0
1.038057506E0,3.719482422E-1,-7.906143188E0,8.457916260E0
1.043031872E0,-9.121704102E-2,-7.595672607E0,8.158920288E0
1.048006237E0,-2.107543945E-1,-7.169143677E0,7.464248657E0
1.052980602E0,1.917419434E-1,-6.692047119E0,6.266387939E0
1.057954967E0,5.587158203E-1,-6.112243652E0,4.900955200E0
1.062929333E0,8.957061768E-1,-5.867187500E0,3.998413086E0
1.067903698E0,1.260391235E0,-6.034576416E0,3.695693970E0
1.072878063E0,1.471252441E0,-6.440551758E0,3.693420410E0
1.077852428E0,1.839385986E0,-6.863159180E0,4.084594727E0
1.082826793E0,2.225158691E0,-7.304519653E0,4.342880249E0
1.087801159E0,2.451980591E0,-7.754852295E0,4.183563232E0
1.092775524E0,2.288284302E0,-8.010955811E0,3.533630371E0
1.097749889E0,2.181655884E0,-7.839279175E0,2.848129272E0
1.102724254E0,2.164001465E0,-7.529617310E0,2.002502441E0
1.107698620E0,2.162826538E0,-7.031433105E0,2.151458740E0
1.112672985E0,1.978210449E0,-6.558532715E0,2.658599854E0
1.117647350E0,1.409103394E0,-6.583709717E0,3.435317993E0
1.122621715E0,8.003540039E-1,-6.709930420E0,3.975509644E0
1.127596081E0,5.336303711E-1,-6.951934814E0,3.793945312E0
1.132570446E0,2.621917725E-1,-7.000000000E0,3.504028320E0
1.137544811E0,-7.047729492E-1,-9.024826050E0,3.309951782E0
1.142519176E0,-9.146575928E-1,-9.766143799E0,4.423004150E0
1.147493541E0,-1.682098389E0,-9.453674316E0,5.256210327E0
1.152467907E0,-2.130889893E0,-1.024713135E1,5.488739014E0
1.157442272E0,-2.202713013E0,-1.065788269E1,6.170166016E0
1.162416637E0,-2.320480347E0,-1.061007690E1,6.428115845E0
1.167391002E0,-2.186035156E0,-1.096328735E1,6.534454346E0
1.172365368E0,-2.092529297E0,-1.105673218E1,6.797836304E0
1.177339733E0,-1.776702881E0,-1.098361206E1,6.765228271E0
1.182314098E0,-1.541488647E0,-1.077549744E1,6.580337524E0
1.187288463E0,-1.720062256E0,-1.060940552E1,6.466751099E0
1.192262829E0,-7.121124268E-1,-1.078370667E1,6.461029053E0
1.197237194E0,8.672637939E-1,-1.082723999E1,6.966339111E0
1.202211559E0,1.671386719E0,-1.088195801E1,6.867675781E0
1.207185924E0,2.670181274E0,-1.046910095E1,6.564819336E0
1.212160290E0,3.420394897E0,-9.749328613E0,6.175201416E0
1.217134655E0,3.561431885E0,-9.204971313E0,5.608001709E0
1.222109020E0,4.268524170E0,-8.707641602E0,4.916915894E0
1.227083385E0,3.878768921E0,-8.742462158E0,4.381881714E0
1.232057750E0,3.680725098E0,-8.666061401E0,4.292358398E0
1.237032116E0,3.881271362E0,-8.532119751E0,3.889831543E0
1.242006481E0,3.728057861E0,-8.306732178E0,3.648284912E0
1.246980846E0,3.617614746E0,-7.960006714E0,3.751693726E0
1.251955211E0,3.098159790E0,-7.879058838E0,3.617202759E0
1.256929577E0,2.609786987E0,-7.772888184E0,3.614364624E0
1.261903942E0,2.477996826E0,-7.337066650E0,3.277267456E0
1.266878307E0,1.983612061E0,-7.198272705E0,2.693603516E0
1.271852672E0,1.280715942E0,-7.683883667E0,2.508392334E0
1.276827038E0,2.195465088E0,-7.807723999E0,3.252258301E0
1.281801403E0,2.883255005E0,-8.285140991E0,4.298660278E0
1.286775768E0,3.964523315E0,-8.873474121E0,5.897552490E0
1.291750133E0,4.362457275E0,-9.289367676E0,7.887359619E0
1.296724499E0,5.748092651E0,-8.285629272E0,8.827835083E0
1.301698864E0,5.389144897E0,-7.462158203E0,8.364227295E0
1.306673229E0,5.598190308E0,-6.901916504E0,7.179077148E0
1.311647594E0,6.435501099E0,-6.570144653E0,5.977920532E0
1.316621959E0,7.703292847E0,-6.047576904E0,5.413528442E0
1.321596325E0,7.585952759E0,-5.693511963E0,4.802902222E0
1.326570690E0,6.470336914E0,-5.638381958E0,4.401016235E0
1.331545055E0,5.498718262E0,-6.005950928E0,3.211700439E0
1.336519420E0,5.466857910E0,-6.294555664E0,2.705123901E0
1.341493786E0,4.872299194E0,-6.353424072E0,2.469589233E0
1.346468151E0,4.138168335E0,-6.220138550E0,2.327438354E0
1.351442516E0,3.988998413E0,-5.785202026E0,1.639358521E0
1.356416881E0,4.514801025E0,-5.533432007E0,1.062774658E0
1.361391247E0,4.628265381E0,-5.283630371E0,1.202941895E0
1.366365612E0,5.067794800E0,-5.546112061E0,1.556991577E0
1.371339977E0,4.843750000E0,-6.347122192E0,2.263320923E0
1.376314342E0,2.247528076E0,-6.714843750E0,2.374084473E0
1.381288708E0,2.121810913E0,-9.601165771E0,3.700759888E0
1.386263073E0,9.887542725E-1,-1.218389893E1,6.088867188E0
1.391237438E0,-2.840423584E-1,-1.314158630E1,7.852691650E0
1.396211803E0,-1.165283203E0,-1.303471375E1,7.707992554E0
1.401186168E0,-8.727722168E-1,-1.160110474E1,5.677841187E0
1.406160534E0,3.392028809E-2,-9.902206421E0,4.411315918E0
1.411134899E0,6.955413818E-1,-8.802993774E0,3.510772705E0
1.416109264E0,1.084014893E0,-8.653793335E0,2.639602661E0
1.421083629E0,2.105285645E0,-9.173950195E0,3.165908813E0
1.426057995E0,3.482299805E0,-9.658370972E0,3.946441650E0
1.431032360E0,4.476333618E0,-9.979934692E0,4.421890259E0
1.436006725E0,5.180007935E0,-1.018240356E1,4.538772583E0
1.440981090E0,5.358230591E0,-1.024856567E1,4.217651367E0
1.445955456E0,5.429153442E0,-1.054412842E1,4.609298706E0
1.450929821E0,5.333587646E0,-1.078091431E1,4.586044312E0
1.455904186E0,4.967544556E0,-1.061933899E1,4.023895264E0
1.460878551E0,4.523956299E0,-1.039654541E1,3.725250244E0
1.465852916E0,4.284957886E0,-1.007464600E1,3.395797729E0
1.470827282E0,4.139739990E0,-9.772567749E0,3.164932251E0
1.475801647E0,4.023208618E0,-9.472991943E0,2.963485718E0
1.480776012E0,3.878799438E0,-9.178833008E0,2.913558960E0
1.485750377E0,3.662796021E0,-8.915786743E0,3.146255493E0
1.490724743E0,3.488937378E0,-8.624771118E0,3.305709839E0
1.495699108E0,3.293716431E0,-8.301651001E0,3.192947388E0
1.500673473E0,2.876068115E0,-7.937026978E0,2.867813110E0
1.505647838E0,2.499679565E0,-7.416122437E0,2.487457275E0
1.510622204E0,2.445434570E0,-6.864852905E0,2.188003540E0
1.515596569E0,2.694946289E0,-6.544677734E0,1.955429077E0
1.520570934E0,2.836593628E0,-6.214843750E0,1.733367920E0
1.525545299E0,3.080169678E0,-5.919692993E0,1.843429565E0
1.530519665E0,2.949905396E0,-5.766830444E0,2.257507324E0
1.535494030E0,2.624145508E0,-5.930007935E0,2.711395264E0
1.540468395E0,1.837615967E0,-6.573165894E0,3.513183594E0
1.545442760E0,1.660385132E0,-7.759384155E0,4.474227905E0
1.550417125E0,1.256118774E0,-8.737411499E0,5.328414917E0
1.555391491E0,4.763641357E-1,-9.177658081E0,5.902252197E0
1.560365856E0,1.779479980E-1,-9.042663574E0,5.831558228E0
1.565340221E0,3.316192627E-1,-8.577346802E0,5.099945068E0
1.570314586E0,8.546447754E-1,-8.071197510E0,4.107894897E0
1.575288952E0,1.578933716E0,-7.676651001E0,3.439071655E0
1.580263317E0,1.868148804E0,-7.510574341E0,3.089096069E0
1.585237682E0,1.781784058E0,-7.450622559E0,2.645202637E0
1.590212047E0,1.618499756E0,-7.423553467E0,2.062667847E0
1.595186413E0,9.757385254E-1,-7.629608154E0,1.744613647E0
1.600160778E0,1.010025024E0,-8.084930420E0,1.786575317E0
1.605135143E0,2.254714966E0,-8.041259766E0,2.670104980E0
1.610109508E0,3.136932373E0,-8.007965088E0,3.453033447E0
1.615083874E0,3.589843750E0,-8.869476318E0,3.710174561E0
1.620058239E0,2.582809448E0,-9.919448853E0,4.507308960E0
1.625032604E0,2.532501221E-1,-1.071490479E1,5.277160645E0
1.630006969E0,-1.337966919E0,-1.115875244E1,5.147827148E0
1.634981334E0,-1.289886475E0,-1.113304138E1,4.415283203E0
1.639955700E0,-7.700653076E-1,-1.095138550E1,3.682373047E0
1.644930065E0,-6.616363525E-1,-1.050756836E1,3.282073975E0
1.649904430E0,4.334411621E-1,-9.473037720E0,3.431167603E0
1.654878795E0,1.351837158E0,-8.987075806E0,2.808685303E0
1.659853161E0,1.621261597E0,-9.174392700E0,2.785751343E0
1.664827526E0,2.666519165E0,-8.994216919E0,3.228027344E0
1.669801891E0,3.046707153E0,-9.298324585E0,3.660247803E0
1.674776256E0,3.356948853E0,-9.789749146E0,3.471511841E0
1.679750622E0,3.578414917E0,-9.942153931E0,3.780563354E0
1.684724987E0,3.642364502E0,-1.010139465E1,4.165695190E0
1.689699352E0,3.517745972E0,-1.020822144E1,4.340713501E0
1.694673717E0,3.171615601E0,-1.023930359E1,3.837112427E0
1.699648083E0,3.017959595E0,-1.004991150E1,3.568435669E0
1.704622448E0,3.149200439E0,-9.548202515E0,4.014755249E0
1.709596813E0,3.162109375E0,-8.878234863E0,4.437255859E0
1.714571178E0,2.887344360E0,-8.251571655E0,4.970199585E0
1.719545543E0,3.571334839E0,-7.615097046E0,4.650054932E0
1.724519909E0,3.675140381E0,-7.405899048E0,4.257019043E0
1.729494274E0,3.371917725E0,-7.146438599E0,4.093704224E0
1.734468639E0,3.164016724E0,-7.146972656E0,4.050674438E0
1.739443004E0,3.223968506E0,-7.233352661E0,4.037063599E0
1.744417370E0,3.531936646E0,-7.348220825E0,4.419937134E0
1.749391735E0,4.122344971E0,-7.371383667E0,4.808288574E0
1.754366100E0,3.796966553E0,-7.263824463E0,5.832534790E0
1.759340465E0,2.714218140E0,-6.915069580E0,8.843139648E0
1.764314831E0,5.092514038E0,-6.797378540E0,9.318847656E0
1.769289196E0,5.688888550E0,-7.702926636E0,4.744598389E0
1.774263561E0,2.315429688E0,-8.328323364E0,-3.321838379E-1
1.779237926E0,-6.390533447E-1,-8.281417847E0,-1.308593750E0
1.784212291E0,-1.325286865E0,-8.660125732E0,6.317901611E-1
1.789186657E0,-1.448181152E0,-9.020614624E0,2.045455933E0
1.794161022E0,-1.268264771E0,-9.267074585E0,2.740325928E0
1.799135387E0,-8.668823242E-1,-9.304733276E0,3.329254150E0
1.804109752E0,-3.338928223E-1,-9.179580688E0,3.732315063E0
1.809084118E0,2.459869385E-1,-8.943756104E0,3.798263550E0
1.814058483E0,6.645965576E-1,-8.758026123E0,3.540740967E0
1.819032848E0,7.550659180E-1,-8.607894897E0,3.257186890E0
1.824007213E0,3.822326660E-1,-8.756576538E0,3.194580078E0
1.828981579E0,5.374145508E-2,-9.318496704E0,3.301330566E0
1.833955944E0,2.048492432E-1,-9.701477051E0,3.473220825E0
1.838930309E0,7.377319336E-1,-9.764099121E0,3.945220947E0
1.843904674E0,1.335861206E0,-9.577667236E0,4.468948364E0
1.848879040E0,2.007934570E0,-9.015747070E0,4.879638672E0
1.853853405E0,2.555114746E0,-8.406875610E0,4.996353149E0
1.858827770E0,2.563964844E0,-8.015182495E0,4.912277222E0
1.863802135E0,2.404769897E0,-7.690124512E0,4.934326172E0
1.868776500E0,1.818801880E0,-7.573913574E0,4.754409790E0
1.873750866E0,1.083297729E0,-7.778091431E0,4.635482788E0
1.878725231E0,5.904235840E-1,-7.882843018E0,4.358230591E0
1.883699596E0,1.912536621E-1,-8.258819580E0,4.323455811E0
1.888673961E0,3.921356201E-1,-8.208618164E0,3.471115112E0
1.893648327E0,2.258911133E-1,-8.222457886E0,2.829452515E0
1.898622692E0,5.388031006E-1,-8.316177368E0,2.825790405E0
1.903597057E0,5.301971436E-1,-8.273101807E0,3.235015869E0
1.908571422E0,9.116668701E-1,-8.432846069E0,3.638198853E0
1.913545788E0,9.467620850E-1,-8.436782837E0,3.730514526E0
1.918520153E0,6.769104004E-1,-8.343856812E0,3.858627319E0
1.923494518E0,4.248657227E-1,-8.212661743E0,4.184722900E0
1.928468883E0,5.629272461E-1,-7.935913086E0,4.221923828E0
1.933443249E0,5.303955078E-1,-7.581100464E0,4.013442993E0
1.938417614E0,4.728698730E-1,-7.267776489E0,3.868194580E0
1.943391979E0,4.555206299E-1,-6.947921753E0,3.736633301E0
1.948366344E0,4.330139160E-1,-6.604583740E0,3.567749023E0
1.953340709E0,5.007934570E-1,-6.376983643E0,3.491546631E0
1.958315075E0,5.875549316E-1,-6.204971313E0,3.324310303E0
1.963289440E0,6.352539062E-1,-6.099380493E0,3.187911987E0
1.968263805E0,6.973724365E-1,-6.088684082E0,3.258163452E0
1.973238170E0,7.205810547E-1,-6.081420898E0,3.384399414E0
1.978212536E0,6.866302490E-1,-6.213531494E0,3.555755615E0
1.983186901E0,7.498168945E-1,-6.514511108E0,3.997390747E0
1.988161266E0,7.733154297E-1,-6.827102661E0,4.462615967E0
1.993135631E0,7.644500732E-1,-7.151458740E0,4.733596802E0
1.998109997E0,6.315765381E-1,-7.592391968E0,4.649917603E0
2.003084362E0,3.850860596E-1,-7.969741821E0,4.285064697E0
2.008058727E0,-5.531311035E-2,-8.247009277E0,3.974914551E0
2.013033092E0,-5.864715576E-1,-8.606307983E0,3.866577148E0
2.018007458E0,-9.440155029E-1,-9.020065308E0,3.938583374E0
2.022981823E0,-1.126968384E0,-9.361389160E0,3.849334717E0
2.027956188E0,-1.215423584E0,-9.510238647E0,3.465652466E0
2.032930553E0,-1.248977661E0,-9.533691406E0,3.222885132E0
2.037904918E0,-1.192047119E0,-9.684753418E0,2.775772095E0
2.042879284E0,-9.635620117E-1,-9.906234741E0,2.315307617E0
2.047853649E0,-7.101898193E-1,-1.004028320E1,1.755676270E0
2.052828014E0,-6.142578125E-1,-1.032800293E1,1.267944336E0
2.057802379E0,-4.603729248E-1,-1.047193909E1,1.166915894E0
2.062776745E0,-2.979583740E-1,-1.074348450E1,7.731628418E-1
2.067751110E0,-1.416015625E-2,-1.116836548E1,6.369476318E-1
2.072725475E0,6.162567139E-1,-1.137094116E1,1.263549805E0
2.077699840E0,1.215270996E0,-1.158250427E1,1.499435425E0
2.082674206E0,1.812606812E0,-1.185234070E1,1.307846069E0
2.087648571E0,2.057540894E0,-1.201008606E1,1.409088135E0
2.092622936E0,2.029357910E0,-1.190933228E1,1.760757446E0
2.097597301E0,1.620040894E0,-1.194125366E1,2.732238770E0
2.102571666E0,9.695587158E-1,-1.182232666E1,3.783065796E0
2.107546032E0,3.508148193E-1,-1.189895630E1,3.984985352E0
2.112520397E0,-1.489410400E-1,-1.192591858E1,4.042800903E0
2.117494762E0,-2.184448242E-1,-1.171871948E1,3.669021606E0
2.122469127E0,-1.159667969E-1,-1.134335327E1,3.396087646E0
2.127443493E0,-1.696929932E-1,-1.097857666E1,3.619384766E0
2.132417858E0,-2.523651123E-1,-1.026814270E1,4.353179932E0
2.137392223E0,-1.748809814E-1,-9.597656250E0,4.786880493E0
2.142366588E0,-6.440734863E-2,-9.010314941E0,4.858184814E0
2.147340954E0,6.179809570E-3,-8.545135498E0,4.584930420E0
2.152315319E0,2.332916260E-1,-8.073013306E0,4.265365601E0
2.157289684E0,5.934295654E-1,-7.526901245E0,3.781219482E0
2.162264049E0,8.341979980E-1,-7.064468384E0,3.312026978E0
2.167238415E0,9.472198486E-1,-6.720352173E0,3.020828247E0
2.172212780E0,8.171234131E-1,-6.607833862E0,2.603820801E0
2.177187145E0,6.663208008E-1,-6.838928223E0,1.948226929E0
2.182161510E0,6.296539307E-1,-7.313674927E0,1.345489502E0
2.187135875E0,7.460327148E-1,-7.842346191E0,1.319839478E0
2.192110241E0,9.871215820E-1,-8.354858398E0,1.898452759E0
2.197084606E0,1.411010742E0,-8.807510376E0,3.060195923E0
2.202058971E0,1.913253784E0,-9.280914307E0,4.196670532E0
2.207033336E0,1.987106323E0,-9.958465576E0,4.673324585E0
2.212007702E0,1.454849243E0,-1.085681152E1,4.798324585E0
2.216982067E0,5.005035400E-1,-1.195314026E1,4.571701050E0
2.221956432E0,-1.721191406E-1,-1.263711548E1,4.752914429E0
2.226930797E0,-5.302581787E-1,-1.267837524E1,4.847335815E0
2.231905163E0,-1.588439941E-1,-1.189974976E1,5.051284790E0
2.236879528E0,2.164764404E-1,-1.057881165E1,4.701950073E0
2.241853893E0,3.010253906E-1,-9.233413696E0,3.591537476E0
2.246828258E0,5.558776855E-2,-8.474014282E0,2.392288208E0
2.251802624E0,-6.419372559E-2,-7.613906860E0,1.441268921E0
2.256776989E0,-2.797546387E-1,-6.913619995E0,5.213317871E-1
2.261751354E0,-9.754943848E-2,-6.083221436E0,5.567932129E-2
2.266725719E0,2.766418457E-2,-5.501083374E0,-6.592407227E-1
2.271700084E0,-2.694549561E-1,-5.665115356E0,-5.842132568E-1
2.276674450E0,-5.983886719E-1,-5.832321167E0,-2.883300781E-1
2.281648815E0,-1.001083374E0,-6.644439697E0,2.554931641E-1
2.286623180E0,-9.394683838E-1,-7.361145020E0,1.580108643E0
2.291597545E0,-5.474090576E-1,-8.614974976E0,2.758499146E0
2.296571911E0,-1.271820068E-1,-9.938034058E0,3.720687866E0
2.301546276E0,8.439483643E-1,-1.098060608E1,4.693435669E0
2.306520641E0,1.560638428E0,-1.172053528E1,4.952560425E0
2.311495006E0,1.941619873E0,-1.232687378E1,4.497421265E0
2.316469372E0,2.140838623E0,-1.299394226E1,3.374450684E0
2.321443737E0,1.767471313E0,-1.366896057E1,1.674072266E0
2.326418102E0,1.426254272E0,-1.400645447E1,8.967742920E-1
2.331392467E0,7.254028320E-1,-1.473097229E1,3.303527832E-1
2.336366833E0,6.970214844E-2,-1.476766968E1,3.936157227E-1
2.341341198E0,-7.090911865E-1,-1.418041992E1,6.745910645E-2
2.346315563E0,-1.213394165E0,-1.343548584E1,-2.401123047E-1
2.351289928E0,-6.147003174E-1,-1.222694397E1,2.254028320E-1
2.356264293E0,5.657196045E-1,-1.131867981E1,1.065078735E0
2.361238659E0,1.556732178E0,-1.086088562E1,1.991867065E0
2.366213024E0,1.882553101E0,-1.029350281E1,2.961318970E0
2.371187389E0,1.504104614E0,-9.435958862E0,3.807754517E0
2.376161754E0,5.217285156E-1,-8.875198364E0,4.467102051E0
2.381136120E0,-5.770111084E-1,-8.319335938E0,5.053909302E0
2.386110485E0,-9.506378174E-1,-7.763076782E0,5.140487671E0
2.391084850E0,-5.758209229E-1,-7.684631348E0,4.894897461E0
2.396059215E0,7.495117188E-2,-7.658981323E0,4.714736938E0
2.401033581E0,8.861236572E-1,-8.040405273E0,3.990402222E0
2.406007946E0,1.768280029E0,-8.724548340E0,3.378265381E0
2.410982311E0,2.096054077E0,-9.370422363E0,2.915832520E0
2.415956676E0,1.545639038E0,-9.891342163E0,2.620208740E0
2.420931041E0,9.421081543E-1,-1.068917847E1,2.086486816E0
2.425905407E0,6.524200439E-1,-1.140008545E1,1.794494629E0
2.430879772E0,5.568237305E-1,-1.184622192E1,1.484039307E0
2.435854137E0,2.142944336E-1,-1.177868652E1,8.351135254E-1
2.440828502E0,6.379852295E-1,-1.129855347E1,5.603179932E-1
2.445802868E0,8.905334473E-1,-1.070053101E1,4.310150146E-1
2.450777233E0,8.294982910E-1,-1.013667297E1,6.093444824E-1
2.455751598E0,7.582397461E-1,-9.701751709E0,1.339111328E0
2.460725963E0,8.149414062E-1,-9.432922363E0,1.972747803E0
2.465700329E0,9.857635498E-1,-9.402481079E0,2.429687500E0
2.470674694E0,1.270614624E0,-9.461700439E0,2.630218506E0
2.475649059E0,1.533950806E0,-9.616683960E0,2.691940308E0
2.480623424E0,1.485290527E0,-9.795791626E0,2.570236206E0
2.485597790E0,1.364959717E0,-9.942886353E0,2.574493408E0
2.490572155E0,9.958953857E-1,-9.980529785E0,2.651962280E0
2.495546520E0,5.528106689E-1,-9.878784180E0,2.759460449E0
2.500520885E0,3.738708496E-1,-9.695449829E0,3.066070557E0
2.505495250E0,6.733093262E-1,-9.574645996E0,3.181213379E0
2.510469616E0,7.549438477E-1,-9.456649780E0,3.501205444E0
2.515443981E0,8.563079834E-1,-9.363220215E0,3.719879150E0
2.520418346E0,1.008117676E0,-9.376022339E0,3.810424805E0
2.525392711E0,1.087478638E0,-9.445785522E0,3.798370361E0
2.530367077E0,9.732818604E-1,-9.488555908E0,3.615066528E0
2.535341442E0,8.248291016E-1,-9.498184204E0,3.314102173E0
2.540315807E0,7.470855713E-1,-9.473159790E0,2.973907471E0
2.545290172E0,7.379608154E-1,-9.453887939E0,2.666870117E0
2.550264538E0,7.509613037E-1,-9.508804321E0,2.458282471E0
2.555238903E0,8.890686035E-1,-9.659255981E0,2.266448975E0
2.560213268E0,1.181671143E0,-9.863510132E0,2.110961914E0
2.565187633E0,1.280502319E0,-1.003358459E1,2.056900024E0
2.570161999E0,9.738159180E-1,-9.992599487E0,2.057022095E0
2.575136364E0,5.090789795E-1,-9.780075073E0,1.890197754E0
2.580110729E0,1.876678467E-1,-9.482452393E0,1.815582275E0
2.585085094E0,2.081604004E-1,-9.200881958E0,1.982437134E0
2.590059459E0,4.932098389E-1,-8.955764771E0,2.359893799E0
2.595033825E0,8.601379395E-1,-8.757904053E0,2.856796265E0
2.600008190E0,1.144393921E0,-8.603698730E0,3.336151123E0
2.604982555E0,1.263488770E0,-8.530456543E0,3.708175659E0
2.609956920E0,1.136199951E0,-8.663360596E0,3.878814697E0
2.614931286E0,9.094390869E-1,-8.872009277E0,3.754806519E0
2.619905651E0,7.131652832E-1,-9.039932251E0,3.430175781E0
2.624880016E0,5.691680908E-1,-9.195098877E0,3.034515381E0
2.629854381E0,5.152893066E-1,-9.354034424E0,2.731094360E0
2.634828747E0,5.185394287E-1,-9.619583130E0,2.407592773E0
2.639803112E0,5.282897949E-1,-9.746704102E0,2.242645264E0
2.644777477E0,4.615325928E-1,-9.680206299E0,2.480499268E0
2.649751842E0,4.325256348E-1,-9.483276367E0,2.789611816E0
2.654726208E0,5.207824707E-1,-9.454818726E0,2.898269653E0
2.659700573E0,6.397705078E-1,-9.451721191E0,2.877014160E0
2.664674938E0,5.483856201E-1,-9.526977539E0,2.844543457E0
2.669649303E0,3.967437744E-1,-9.575302124E0,2.889495850E0
2.674623668E0,4.353485107E-1,-9.779907227E0,2.885589600E0
2.679598034E0,5.360412598E-1,-9.837234497E0,2.793319702E0
2.684572399E0,4.213714600E-1,-9.726776123E0,2.848663330E0
2.689546764E0,4.927215576E-1,-9.574615479E0,2.912216187E0
2.694521129E0,5.919494629E-1,-9.583206177E0,2.789764404E0
2.699495495E0,6.421813965E-1,-9.497070312E0,2.773300171E0
2.704469860E0,5.767669678E-1,-9.374832153E0,2.793395996E0
2.709444225E0,5.209503174E-1,-9.363372803E0,2.709869385E0
2.714418590E0,5.160522461E-1,-9.263259888E0,2.602142334E0
2.719392956E0,4.239959717E-1,-9.031173706E0,2.587997437E0
2.724367321E0,3.303833008E-1,-8.905456543E0,2.545303345E0
2.729341686E0,2.781372070E-1,-8.868011475E0,2.420288086E0
2.734316051E0,3.474121094E-1,-8.754470825E0,2.426940918E0
2.739290416E0,4.450073242E-1,-8.771408081E0,2.492599487E0
2.744264782E0,5.513153076E-1,-8.945129395E0,2.525375366E0
2.749239147E0,6.056823730E-1,-9.086563110E0,2.693450928E0
2.754213512E0,5.674285889E-1,-9.279479980E0,2.839111328E0
2.759187877E0,6.033020020E-1,-9.367187500E0,2.952102661E0
2.764162243E0,5.019073486E-1,-9.440307617E0,3.064041138E0
2.769136608E0,4.653930664E-1,-9.459152222E0,3.109451294E0
2.774110973E0,5.259857178E-1,-9.421432495E0,3.192520142E0
2.779085338E0,6.035614014E-1,-9.373458862E0,3.159637451E0
2.784059704E0,5.991516113E-1,-9.344879150E0,3.178787231E0
2.789034069E0,5.337066650E-1,-9.263961792E0,3.199600220E0
2.794008434E0,4.544830322E-1,-9.260635376E0,3.185699463E0
2.798982799E0,4.589538574E-1,-9.161422729E0,3.181594849E0
2.803957165E0,5.079345703E-1,-9.103012085E0,3.131561279E0
2.808931530E0,5.598602295E-1,-9.044830322E0,3.171264648E0
2.813905895E0,6.073760986E-1,-9.160400391E0,3.127944946E0
2.818880260E0,3.903503418E-1,-9.105026245E0,3.123977661E0
2.823854625E0,1.313171387E-1,-9.636016846E0,-7.000732422E-2
2.828828991E0,-4.577941895E-1,-9.721557617E0,-1.211883545E0
2.833803356E0,-6.215057373E-1,-9.050369263E0,7.332000732E-1
2.838777721E0,-5.047912598E-1,-8.567199707E0,2.215911865E0
2.843752086E0,-2.905731201E-1,-8.278518677E0,3.676254272E0
2.848726452E0,-2.494812012E-2,-8.369171143E0,4.254440308E0
2.853700817E0,9.339904785E-2,-8.850402832E0,4.313644409E0
2.858675182E0,1.821899414E-1,-9.245681763E0,4.463241577E0
2.863649547E0,2.149353027E-1,-9.648330688E0,4.169082642E0
2.868623913E0,3.712615967E-1,-9.963546753E0,3.296615601E0
2.873598278E0,3.457183838E-1,-9.757186890E0,2.839706421E0
2.878572643E0,1.695861816E-1,-9.582992554E0,2.599136353E0
2.883547008E0,7.713317871E-2,-9.338317871E0,2.672561646E0
2.888521374E0,1.017608643E-1,-9.194702148E0,2.707687378E0
2.893495739E0,2.882537842E-1,-9.035049438E0,3.030166626E0
2.898470104E0,4.987640381E-1,-8.935867310E0,3.178298950E0
2.903444469E0,5.746917725E-1,-8.790435791E0,3.003890991E0
2.908418834E0,7.750396729E-1,-9.296615601E0,8.725128174E-1
2.913393200E0,2.799377441E-1,-1.054852295E1,-1.415603638E0
2.918367565E0,-4.395904541E-1,-1.085064697E1,-2.007598877E-1
2.923341930E0,1.658630371E-2,-1.026496887E1,2.454620361E0
2.928316295E0,4.063415527E-2,-1.038313293E1,3.816345215E0
2.933290661E0,1.706542969E-1,-1.040046692E1,4.152221680E0
2.938265026E0,4.231262207E-1,-1.009906006E1,3.962310791E0
2.943239391E0,4.385070801E-1,-9.765945435E0,3.292953491E0
2.948213756E0,3.473510742E-1,-9.614852905E0,2.583038330E0
2.953188122E0,2.953796387E-1,-9.634170532E0,2.148468018E0
2.958162487E0,2.505493164E-1,-9.726470947E0,1.987365723E0
2.963136852E0,2.948913574E-1,-9.731292725E0,2.075195312E0
2.968111217E0,4.026641846E-1,-9.633483887E0,2.238601685E0
2.973085583E0,5.232391357E-1,-9.542526245E0,2.389938354E0
2.978059948E0,6.258544922E-1,-9.438537598E0,2.469741821E0
2.983034313E0,6.235504150E-1,-9.363006592E0,2.507507324E0
2.988008678E0,6.150970459E-1,-9.306976318E0,2.539443970E0
2.992983043E0,5.803833008E-1,-9.293334961E0,2.563262939E0
2.997957409E0,5.822906494E-1,-9.275970459E0,2.552108765E0
3.002931774E0,5.620422363E-1,-9.282043457E0,2.526229858E0
3.007906139E0,5.706787109E-1,-9.283004761E0,2.466049194E0
3.012880504E0,5.738677979E-1,-9.255737305E0,2.449996948E0
3.017854870E0,5.599822998E-1,-9.277618408E0,2.416748047E0
3.022829235E0,5.428771973E-1,-9.266250610E0,2.387176514E0
3.027803600E0,5.061950684E-1,-9.221099854E0,2.337783813E0
3.032777965E0,4.753417969E-1,-9.230880737E0,2.370422363E0
3.037752331E0,4.626922607E-1,-9.195465088E0,2.372055054E0
3.042726696E0,4.153137207E-1,-9.149246216E0,2.391235352E0
3.047701061E0,3.897399902E-1,-9.152008057E0,2.391403198E0
3.052675426E0,4.057617188E-1,-9.166015625E0,2.447250366E0
3.057649791E0,4.029998779E-1,-9.233016968E0,2.513381958E0
3.062624157E0,4.217987061E-1,-9.299224854E0,2.572189331E0
3.067598522E0,4.794464111E-1,-9.355636597E0,2.606430054E0
3.072572887E0,5.224151611E-1,-9.412063599E0,2.626068115E0
3.077547252E0,5.722656250E-1,-9.474029541E0,2.635391235E0
3.082521618E0,5.761718750E-1,-9.554168701E0,2.594665527E0
3.087495983E0,5.450897217E-1,-9.629486084E0,2.540725708E0
3.092470348E0,5.261383057E-1,-9.662826538E0,2.489166260E0
3.097444713E0,5.363922119E-1,-9.669586182E0,2.478393555E0
3.102419079E0,5.674438477E-1,-9.674438477E0,2.473083496E0
3.107393444E0,5.787200928E-1,-9.652740479E0,2.439773560E0
3.112367809E0,5.589141846E-1,-9.616287231E0,2.396255493E0
3.117342174E0,5.655059814E-1,-9.582244873E0,2.354919434E0
3.122316540E0,5.711669922E-1,-9.541839600E0,2.365127563E0
3.127290905E0,5.541076660E-1,-9.489105225E0,2.395812988E0
3.132265270E0,5.504302979E-1,-9.433776855E0,2.396255493E0
3.137239635E0,5.640106201E-1,-9.400177002E0,2.371292114E0
3.142214000E0,5.715942383E-1,-9.380157471E0,2.347305298E0
3.147188366E0,5.700225830E-1,-9.369232178E0,2.323669434E0
3.152162731E0,5.348510742E-1,-9.352035522E0,2.308853149E0
3.157137096E0,5.053405762E-1,-9.350326538E0,2.302413940E0
3.162111461E0,4.381713867E-1,-9.352401733E0,2.332733154E0
3.167085827E0,4.051208496E-1,-9.348770142E0,2.395095825E0
3.172060192E0,3.866577148E-1,-9.340103149E0,2.475067139E0
3.177034557E0,3.591156006E-1,-9.295074463E0,2.560836792E0
3.182008922E0,3.538513184E-1,-9.291458130E0,2.586288452E0
3.186983288E0,3.309936523E-1,-9.282196045E0,2.638015747E0
3.191957653E0,3.018798828E-1,-9.263534546E0,2.649887085E0
3.196932018E0,3.383636475E-1,-9.281250000E0,2.687744141E0
3.201906383E0,3.146209717E-1,-9.289825439E0,2.720596313E0
3.206880749E0,2.548522949E-1,-9.294860840E0,2.729171753E0
3.211855114E0,2.246398926E-1,-9.340423584E0,2.681488037E0
3.216829479E0,1.730194092E-1,-9.393920898E0,2.639190674E0
3.221803844E0,2.136383057E-1,-9.427551270E0,2.575485229E0
3.226778209E0,2.335662842E-1,-9.447479248E0,2.561264038E0
3.231752575E0,2.543792725E-1,-9.471618652E0,2.557754517E0
3.236726940E0,2.651367188E-1,-9.514572144E0,2.579925537E0
3.241701305E0,2.834320068E-1,-9.564956665E0,2.550674438E0
3.246675670E0,3.005218506E-1,-9.603454590E0,2.513763428E0
3.251650036E0,2.904205322E-1,-9.618347168E0,2.499984741E0
3.256624401E0,3.076019287E-1,-9.642303467E0,2.468444824E0
3.261598766E0,3.393096924E-1,-9.647933960E0,2.366683960E0
3.266573131E0,3.990478516E-1,-9.595855713E0,2.281021118E0
3.271547497E0,4.236297607E-1,-9.510391235E0,2.230743408E0
3.276521862E0,4.457702637E-1,-9.425125122E0,2.221145630E0
3.281496227E0,4.549560547E-1,-9.382705688E0,2.306182861E0
3.286470592E0,4.434051514E-1,-9.364410400E0,2.456436157E0
3.291444958E0,4.374694824E-1,-9.341049194E0,2.583923340E0
3.296419323E0,4.149017334E-1,-9.318893433E0,2.620849609E0
3.301393688E0,3.399200439E-1,-9.320053101E0,2.634048462E0
3.306368053E0,2.614746094E-1,-9.338150024E0,2.655181885E0
3.311342418E0,1.855773926E-1,-9.367431641E0,2.670211792E0
3.316316784E0,8.132934570E-2,-9.405212402E0,2.693420410E0
3.321291149E0,-5.113220215E-2,-9.454269409E0,2.703033447E0
3.326265514E0,-1.561431885E-1,-9.520660400E0,2.729034424E0
3.331239879E0,-2.058715820E-1,-9.584106445E0,2.801788330E0
3.336214245E0,-2.078247070E-1,-9.625564575E0,2.887847900E0
3.341188610E0,-1.939239502E-1,-9.629028320E0,2.945251465E0
3.346162975E0,-1.401367188E-1,-9.618392944E0,2.937011719E0
3.351137340E0,-7.768249512E-2,-9.612091064E0,2.906829834E0
3.356111706E0,-2.609252930E-2,-9.576232910E0,2.861007690E0
3.361086071E0,2.288818359E-3,-9.557846069E0,2.766220093E0
3.366060436E0,1.039428711E-1,-9.511138916E0,2.633056641E0
3.371034801E0,1.607666016E-1,-9.496734619E0,2.530776978E0
3.376009166E0,2.419738770E-1,-9.487655640E0,2.452026367E0
3.380983532E0,2.576141357E-1,-9.490676880E0,2.350326538E0
3.385957897E0,2.405548096E-1,-9.517562866E0,2.269012451E0
3.390932262E0,2.367248535E-1,-9.499572754E0,2.219863892E0
3.395906627E0,2.272644043E-1,-9.477371216E0,2.135650635E0
3.400880993E0,1.983184814E-1,-9.457672119E0,2.061752319E0
3.405855358E0,2.181091309E-1,-9.398345947E0,2.035263062E0
3.410829723E0,2.446136475E-1,-9.415924072E0,2.028244019E0
3.415804088E0,2.625274658E-1,-9.394195557E0,2.028076172E0
3.420778454E0,2.886352539E-1,-9.374893188E0,2.029968262E0
3.425752819E0,3.026428223E-1,-9.346618652E0,2.066360474E0
3.430727184E0,2.960357666E-1,-9.369293213E0,2.088043213E0
3.435701549E0,2.918395996E-1,-9.356750488E0,2.131607056E0
3.440675915E0,2.800598145E-1,-9.359283447E0,2.168075562E0
3.445650280E0,2.713470459E-1,-9.386627197E0,2.229873657E0
3.450624645E0,2.714996338E-1,-9.414978027E0,2.282577515E0
3.455599010E0,2.841339111E-1,-9.388122559E0,2.327484131E0
3.460573375E0,2.982635498E-1,-9.350906372E0,2.382904053E0
3.465547741E0,3.236694336E-1,-9.332901001E0,2.482040405E0
3.470522106E0,3.382568359E-1,-9.287673950E0,2.562515259E0
3.475496471E0,3.395385742E-1,-9.260986328E0,2.584960938E0
3.480470836E0,3.484497070E-1,-9.266891479E0,2.533630371E0
3.485445202E0,4.037170410E-1,-9.275314331E0,2.467071533E0
3.490419567E0,4.560546875E-1,-9.297546387E0,2.407806396E0
3.495393932E0,4.698944092E-1,-9.332061768E0,2.360855103E0
3.500368297E0,4.521331787E-1,-9.380477905E0,2.277252197E0
3.505342663E0,4.060668945E-1,-9.461471558E0,2.166717529E0
3.510317028E0,3.562469482E-1,-9.518386841E0,2.096282959E0
3.515291393E0,3.254699707E-1,-9.558547974E0,2.084838867E0
3.520265758E0,2.829895020E-1,-9.600128174E0,2.110229492E0
3.525240124E0,2.644958496E-1,-9.633758545E0,2.134216309E0
3.530214489E0,2.538299561E-1,-9.652526855E0,2.143997192E0
3.535188854E0,2.468566895E-1,-9.671600342E0,2.155700684E0
3.540163219E0,2.656555176E-1,-9.668960571E0,2.152770996E0
3.545137584E0,2.963562012E-1,-9.693405151E0,2.174163818E0
3.550111950E0,3.130798340E-1,-9.718826294E0,2.204147339E0
3.555086315E0,3.429412842E-1,-9.725250244E0,2.229675293E0
3.560060680E0,3.228454590E-1,-9.753906250E0,2.236053467E0
3.565035045E0,3.054962158E-1,-9.763336182E0,2.228118896E0
3.570009411E0,3.251037598E-1,-9.757507324E0,2.267730713E0
3.574983776E0,3.496398926E-1,-9.761215210E0,2.320999146E0
3.579958141E0,4.059906006E-1,-9.782028198E0,2.409057617E0
3.584932506E0,4.508514404E-1,-9.769119263E0,2.462493896E0
3.589906872E0,3.993072510E-1,-9.754394531E0,2.535522461E0
3.594881237E0,4.732818604E-1,-9.732101440E0,2.633071899E0
3.599855602E0,5.417022705E-1,-9.704055786E0,2.766921997E0
3.604829967E0,5.563812256E-1,-9.617736816E0,2.834625244E0
3.609804333E0,4.853973389E-1,-9.557937622E0,2.829818726E0
3.614778698E0,4.220581055E-1,-9.528808594E0,2.781021118E0
3.619753063E0,4.273986816E-1,-9.485549927E0,2.730041504E0
3.624727428E0,4.090881348E-1,-9.447875977E0,2.658630371E0
3.629701793E0,3.963165283E-1,-9.409652710E0,2.599288940E0
3.634676159E0,3.816223145E-1,-9.384567261E0,2.563369751E0
3.639650524E0,3.724517822E-1,-9.346359253E0,2.582412720E0
3.644624889E0,3.743133545E-1,-9.285278320E0,2.607757568E0
3.649599254E0,3.680572510E-1,-9.256210327E0,2.627212524E0
3.654573620E0,3.575439453E-1,-9.256103516E0,2.631286621E0
3.659547985E0,3.493347168E-1,-9.305282593E0,2.612472534E0
3.664522350E0,4.042358398E-1,-9.345840454E0,2.563919067E0
3.669496715E0,4.122619629E-1,-9.318511963E0,2.579513550E0
3.674471081E0,3.648986816E-1,-9.273605347E0,2.633987427E0
3.679445446E0,3.043670654E-1,-9.264053345E0,2.657440186E0
3.684419811E0,2.546234131E-1,-9.305603027E0,2.643310547E0
3.689394176E0,2.438964844E-1,-9.361160278E0,2.600067139E0
3.694368541E0,2.845764160E-1,-9.419830322E0,2.560317993E0
3.699342907E0,3.294067383E-1,-9.453018188E0,2.518417358E0
3.704317272E0,3.640441895E-1,-9.449966431E0,2.488571167E0
3.709291637E0,4.283294678E-1,-9.437316895E0,2.458801270E0
3.714266002E0,4.929656982E-1,-9.395965576E0,2.430435181E0
3.719240368E0,5.052185059E-1,-9.400939941E0,2.411590576E0
3.724214733E0,5.209045410E-1,-9.453048706E0,2.406311035E0
3.729189098E0,5.285339355E-1,-9.485504150E0,2.385192871E0
3.734163463E0,5.157775879E-1,-9.511215210E0,2.350296021E0
3.739137829E0,4.568634033E-1,-9.538330078E0,2.349288940E0
3.744112194E0,4.325866699E-1,-9.553619385E0,2.335632324E0
3.749086559E0,4.687347412E-1,-9.575958252E0,2.340209961E0
3.754060924E0,4.488830566E-1,-9.561035156E0,2.343795776E0
3.759035290E0,4.746856689E-1,-9.511169434E0,2.395401001E0
3.764009655E0,4.495239258E-1,-9.410476685E0,2.447967529E0
3.768984020E0,4.403381348E-1,-9.320846558E0,2.538146973E0
3.773958385E0,4.843139648E-1,-9.246536255E0,2.605697632E0
3.778932750E0,4.519500732E-1,-9.158569336E0,2.712600708E0
3.783907116E0,4.021453857E-1,-9.138961792E0,2.804443359E0
3.788881481E0,3.225097656E-1,-9.121246338E0,2.841720581E0
3.793855846E0,2.331237793E-1,-9.137634277E0,2.879913330E0
3.798830211E0,1.643829346E-1,-9.144744873E0,2.878479004E0
3.803804577E0,1.326599121E-1,-9.150268555E0,2.884887695E0
3.808778942E0,7.109069824E-2,-9.160095215E0,2.883377075E0
3.813753307E0,3.306579590E-2,-9.167251587E0,2.875305176E0
3.818727672E0,3.817749023E-2,-9.175140381E0,2.865585327E0
3.823702038E0,4.698181152E-2,-9.220687866E0,2.817276001E0
3.828676403E0,1.263885498E-1,-9.236831665E0,2.782897949E0
3.833650768E0,1.270141602E-1,-9.265655518E0,2.789688110E0
3.838625133E0,1.356811523E-1,-9.287338257E0,2.760742188E0
3.843599499E0,9.469604492E-2,-9.319183350E0,2.754379272E0
3.848573864E0,6.779479980E-2,-9.352798462E0,2.742507935E0
3.853548229E0,1.228179932E-1,-9.390640259E0,2.666458130E0
3.858522594E0,1.740875244E-1,-9.399902344E0,2.631820679E0
3.863496959E0,1.823730469E-1,-9.400482178E0,2.616348267E0
3.868471325E0,1.652526855E-1,-9.396713257E0,2.564987183E0
3.873445690E0,1.108703613E-1,-9.411117554E0,2.536666870E0
3.878420055E0,1.017456055E-1,-9.425323486E0,2.514587402E0
3.883394420E0,9.405517578E-2,-9.433517456E0,2.497772217E0
3.888368786E0,5.406188965E-2,-9.474517822E0,2.479873657E0
3.893343151E0,5.645751953E-3,-9.536087036E0,2.466583252E0
3.898317516E0,-1.266326904E-1,-9.599716187E0,2.457733154E0
3.903291881E0,-2.645416260E-1,-9.654098511E0,2.441665649E0
3.908266247E0,-3.230590820E-1,-9.693542480E0,2.421951294E0
3.913240612E0,-3.720092773E-1,-9.675247192E0,2.375076294E0
3.918214977E0,-3.650360107E-1,-9.608886719E0,2.365509033E0
3.923189342E0,-3.404388428E-1,-9.540115356E0,2.369857788E0
3.928163708E0,-3.051910400E-1,-9.487060547E0,2.402404785E0
3.933138073E0,-2.813720703E-1,-9.418212891E0,2.459945679E0
3.938112438E0,-2.375335693E-1,-9.350585938E0,2.513275146E0
3.943086803E0,-2.279205322E-1,-9.292678833E0,2.566864014E0
3.948061168E0,-1.976928711E-1,-9.236251831E0,2.588775635E0
3.953035534E0,-1.281890869E-1,-9.245758057E0,2.599349976E0
3.958009899E0,-1.768493652E-1,-9.240295410E0,2.577423096E0
3.962984264E0,-2.077484131E-1,-9.298263550E0,2.524887085E0
3.967958629E0,-2.371826172E-1,-9.299758911E0,2.435028076E0
3.972932995E0,-2.588348389E-1,-9.318847656E0,2.417984009E0
3.977907360E0,-2.642364502E-1,-9.316864014E0,2.406555176E0
3.982881725E0,-2.796173096E-1,-9.325851440E0,2.411499023E0
3.987856090E0,-2.996520996E-1,-9.353591919E0,2.411041260E0
3.992830456E0,-3.014831543E-1,-9.383819580E0,2.366958618E0
3.997804821E0,-2.993927002E-1,-9.381011963E0,2.343734741E0
4.002779186E0,-2.993927002E-1,-9.345123291E0,2.334686279E0
4.007753551E0,-2.973480225E-1,-9.292938232E0,2.297286987E0
4.012727916E0,-2.772521973E-1,-9.260223389E0,2.274139404E0
4.017702282E0,-2.352905273E-1,-9.301147461E0,2.273590088E0
4.022676647E0,-2.341613770E-1,-9.461807251E0,2.272262573E0
4.027651012E0,-2.617797852E-1,-9.650466919E0,2.220230103E0
4.032625377E0,-3.085021973E-1,-9.765884399E0,2.115325928E0
4.037599743E0,-3.328247070E-1,-9.797302246E0,2.075561523E0
4.042574108E0,-3.296813965E-1,-9.858367920E0,2.028610229E0
4.047548473E0,-2.995147705E-1,-9.933868408E0,1.962768555E0
4.052522838E0,-2.898254395E-1,-9.987060547E0,1.985015869E0
4.057497204E0,-2.955474854E-1,-1.002799988E1,2.032730103E0
4.062471569E0,-3.054046631E-1,-1.006082153E1,2.036605835E0
4.067445934E0,-3.051757812E-1,-1.011872864E1,1.944549561E0
4.072420299E0,-3.004760742E-1,-1.007240295E1,1.784759521E0
4.077394665E0,-2.785034180E-1,-9.894790649E0,1.640167236E0
4.082369030E0,-1.248321533E-1,-9.747589111E0,1.574432373E0
4.087343395E0,3.829956055E-2,-9.698928833E0,1.577957153E0
4.092317760E0,9.370422363E-2,-9.745132446E0,1.668533325E0
4.097292125E0,1.785278320E-3,-9.759658813E0,1.845275879E0
4.102266491E0,-1.169586182E-1,-9.663696289E0,1.923339844E0
4.107240856E0,-1.338348389E-1,-9.547668457E0,2.011840820E0
4.112215221E0,-1.567077637E-2,-9.409744263E0,2.132019043E0
4.117189586E0,7.383728027E-2,-9.275833130E0,2.275527954E0
4.122163952E0,9.802246094E-2,-9.198638916E0,2.399734497E0
4.127138317E0,2.199401855E-1,-9.098007202E0,2.536361694E0
4.132112682E0,1.702575684E-1,-8.979507446E0,2.596817017E0
4.137087047E0,1.277465820E-1,-8.723739624E0,2.669250488E0
4.142061413E0,1.219177246E-1,-8.656951904E0,2.858108521E0
4.147035778E0,8.084106445E-2,-8.960464478E0,3.043365479E0
4.152010143E0,3.407287598E-2,-9.340576172E0,3.064132690E0
4.156984508E0,-7.235717773E-2,-9.702148438E0,2.946090698E0
4.161958874E0,-1.149902344E-1,-9.763137817E0,2.785873413E0
4.166933239E0,-2.967834473E-2,-9.737915039E0,2.761322021E0
4.171907604E0,8.831787109E-2,-9.744415283E0,2.824157715E0
4.176881969E0,1.961822510E-1,-9.765289307E0,2.928054810E0
4.181856334E0,1.910400391E-1,-9.756774902E0,2.981918335E0
4.186830700E0,1.312408447E-1,-9.755279541E0,2.930480957E0
4.191805065E0,3.921508789E-2,-9.749389648E0,2.740997314E0
4.196779430E0,-1.090240479E-1,-9.765182495E0,2.556610107E0
4.201753795E0,-2.225494385E-1,-9.793045044E0,2.459594727E0
4.206728161E0,-2.788543701E-1,-9.798690796E0,2.406417847E0
4.211702526E0,-2.523651123E-1,-9.765991211E0,2.382080078E0
4.216676891E0,-1.914367676E-1,-9.753921509E0,2.399230957E0
4.221651256E0,-1.016082764E-1,-9.718063354E0,2.430343628E0
4.226625622E0,2.360534668E-2,-9.669769287E0,2.451248169E0
4.231599987E0,1.537475586E-1,-9.664459229E0,2.469985962E0
4.236574352E0,2.803344727E-1,-9.658676147E0,2.510894775E0
4.241548717E0,3.830413818E-1,-9.637313843E0,2.597885132E0
4.246523083E0,4.388580322E-1,-9.587127686E0,2.648315430E0
4.251497448E0,3.765869141E-1,-9.519897461E0,2.656372070E0
4.256471813E0,2.460327148E-1,-9.421066284E0,2.626510620E0
4.261446178E0,1.799774170E-1,-9.297637939E0,2.583480835E0
4.266420543E0,1.698608398E-1,-9.173477173E0,2.562866211E0
4.271394909E0,1.502685547E-1,-9.043670654E0,2.577850342E0
4.276369274E0,1.317596436E-1,-8.951568604E0,2.586654663E0
4.281343639E0,1.059875488E-1,-8.906753540E0,2.577880859E0
4.286318004E0,1.101837158E-1,-8.854370117E0,2.568893433E0
4.291292370E0,1.254577637E-1,-8.816848755E0,2.600646973E0
4.296266735E0,1.430969238E-1,-8.795059204E0,2.704864502E0
4.301241100E0,1.058349609E-1,-8.786422729E0,2.745712280E0
4.306215465E0,6.079101562E-2,-8.863052368E0,2.632827759E0
4.311189831E0,4.647827148E-2,-9.014480591E0,2.436248779E0
4.316164196E0,5.928039551E-2,-9.223205566E0,2.189422607E0
4.321138561E0,1.416015625E-2,-9.426986694E0,2.054748535E0
4.326112926E0,-4.472351074E-2,-9.616348267E0,2.007965088E0
4.331087291E0,-1.346130371E-1,-9.738723755E0,2.026443481E0
4.336061657E0,-1.982727051E-1,-9.858566284E0,2.041885376E0
4.341036022E0,-1.942901611E-1,-9.960113525E0,2.068267822E0
4.346010387E0,-2.036743164E-1,-1.003674316E1,2.056961060E0
4.350984752E0,-1.579742432E-1,-1.004370117E1,2.041183472E0
4.355959118E0,-7.144165039E-2,-1.003349304E1,1.992691040E0
4.360933483E0,2.784729004E-2,-9.968170166E0,1.915451050E0
4.365907848E0,1.386413574E-1,-9.834228516E0,1.883911133E0
4.370882213E0,2.246093750E-1,-9.747268677E0,1.874328613E0
4.375856579E0,2.545623779E-1,-9.633544922E0,1.857894897E0
4.380830944E0,2.426910400E-1,-9.514114380E0,1.891189575E0
4.385805309E0,1.985168457E-1,-9.440444946E0,1.951995850E0
4.390779674E0,1.128997803E-1,-9.407653809E0,2.016601562E0
4.395754040E0,4.219055176E-2,-9.392440796E0,2.113494873E0
4.400728405E0,-4.125976562E-2,-9.387161255E0,2.249710083E0
4.405702770E0,-1.303253174E-1,-9.378723145E0,2.391693115E0
4.410677135E0,-2.056884766E-1,-9.396942139E0,2.521438599E0
4.415651500E0,-2.789459229E-1,-9.451782227E0,2.609054565E0
4.420625866E0,-2.989196777E-1,-9.489257812E0,2.695281982E0
4.425600231E0,-3.017883301E-1,-9.492553711E0,2.759735107E0
4.430574596E0,-3.017883301E-1,-9.466262817E0,2.787643433E0
4.435548961E0,-2.960815430E-1,-9.407562256E0,2.778991699E0
4.440523327E0,-2.597351074E-1,-9.339004517E0,2.729125977E0
4.445497692E0,-2.083740234E-1,-9.295791626E0,2.659118652E0
4.450472057E0,-1.853027344E-1,-9.271438599E0,2.599380493E0
4.455446422E0,-1.835479736E-1,-9.279083252E0,2.544021606E0
4.460420788E0,-1.889190674E-1,-9.330017090E0,2.499282837E0
4.465395153E0,-2.113647461E-1,-9.396209717E0,2.488311768E0
4.470369518E0,-2.212524414E-1,-9.473770142E0,2.466445923E0
4.475343883E0,-2.351989746E-1,-9.522079468E0,2.473861694E0
4.480318249E0,-2.810821533E-1,-9.591384888E0,2.484588623E0
4.485292614E0,-3.093261719E-1,-9.629699707E0,2.513458252E0
4.490266979E0,-3.264923096E-1,-9.658416748E0,2.512634277E0
4.495241344E0,-3.172607422E-1,-9.662078857E0,2.514892578E0
4.500215709E0,-3.039703369E-1,-9.682601929E0,2.485092163E0
4.505190075E0,-2.896881104E-1,-9.657150269E0,2.427688599E0
4.510164440E0,-2.251281738E-1,-9.630737305E0,2.401672363E0
4.515138805E0,-1.451263428E-1,-9.569869995E0,2.399139404E0
4.520113170E0,-1.190032959E-1,-9.490005493E0,2.425689697E0
4.525087536E0,-1.528930664E-2,-9.422653198E0,2.389236450E0
4.530061901E0,8.576965332E-2,-9.398406982E0,2.352203369E0
4.535036266E0,2.150726318E-1,-9.311721802E0,2.344100952E0
4.540010631E0,2.941436768E-1,-9.299880981E0,2.305526733E0
4.544984997E0,2.951507568E-1,-9.307662964E0,2.292236328E0
4.549959362E0,2.263793945E-1,-9.365646362E0,2.260452271E0
4.554933727E0,1.300506592E-1,-9.437850952E0,2.209777832E0
4.559908092E0,4.689025879E-2,-9.481201172E0,2.234756470E0
4.564882458E0,-4.830932617E-2,-9.545227051E0,2.300323486E0
4.569856823E0,-1.235961914E-1,-9.574386597E0,2.371475220E0
4.574831188E0,-1.921844482E-1,-9.614242554E0,2.376892090E0
4.579805553E0,-2.805175781E-1,-9.623153687E0,2.418853760E0
4.584779918E0,-3.168182373E-1,-9.640792847E0,2.418777466E0
4.589754284E0,-3.618011475E-1,-9.658950806E0,2.400970459E0
4.594728649E0,-3.939819336E-1,-9.710693359E0,2.365829468E0
4.599703014E0,-4.126892090E-1,-9.758056641E0,2.351104736E0
4.604677379E0,-4.080352783E-1,-9.808853149E0,2.333724976E0
4.609651745E0,-3.775939941E-1,-9.873352051E0,2.328720093E0
4.614626110E0,-3.279724121E-1,-9.930511475E0,2.332580566E0
4.619600475E0,-2.920379639E-1,-9.951965332E0,2.296340942E0
4.624574840E0,-2.493743896E-1,-9.932815552E0,2.224075317E0
4.629549206E0,-2.228698730E-1,-9.914627075E0,2.132064819E0
4.634523571E0,-2.337951660E-1,-9.870010376E0,2.046371460E0
4.639497936E0,-2.718353271E-1,-9.829605103E0,1.951812744E0
4.644472301E0,-3.022003174E-1,-9.788223267E0,1.854446411E0
4.649446666E0,-3.187866211E-1,-9.761978149E0,1.800170898E0
4.654421032E0,-3.402709961E-1,-9.743972778E0,1.798095703E0
4.659395397E0,-3.409271240E-1,-9.744735718E0,1.852325439E0
4.664369762E0,-3.558502197E-1,-9.764465332E0,1.948486328E0
4.669344127E0,-3.845977783E-1,-9.783157349E0,2.083343506E0
4.674318493E0,-4.264526367E-1,-9.796768188E0,2.210983276E0
4.679292858E0,-4.583740234E-1,-9.796188354E0,2.338516235E0
4.684267223E0,-4.644927979E-1,-9.768524170E0,2.457168579E0
4.689241588E0,-5.294647217E-1,-9.696609497E0,2.565170288E0
4.694215954E0,-5.130004883E-1,-9.599319458E0,2.607772827E0
4.699190319E0,-5.117492676E-1,-9.502929688E0,2.622573853E0
4.704164684E0,-4.391937256E-1,-9.452453613E0,2.576736450E0
4.709139049E0,-4.221496582E-1,-9.479095459E0,2.498428345E0
4.714113415E0,-5.014648438E-1,-9.529647827E0,2.494766235E0
4.719087780E0,-5.920410156E-1,-9.625762939E0,2.525375366E0
4.724062145E0,-6.705474854E-1,-9.694549561E0,2.576278687E0
4.729036510E0,-7.132873535E-1,-9.689422607E0,2.588165283E0
4.734010875E0,-7.113647461E-1,-9.673202515E0,2.586257935E0
4.738985241E0,-7.154083252E-1,-9.592681885E0,2.556991577E0
4.743959606E0,-6.810760498E-1,-9.548797607E0,2.568817139E0
4.748933971E0,-6.353759766E-1,-9.510742188E0,2.473312378E0
4.753908336E0,-6.378021240E-1,-9.495727539E0,2.469558716E0
4.758882702E0,-6.097412109E-1,-9.476791382E0,2.430068970E0
4.763857067E0,-5.704803467E-1,-9.458374023E0,2.333358765E0
4.768831432E0,-5.697326660E-1,-9.475952148E0,2.295013428E0
4.773805797E0,-6.146240234E-1,-9.488388062E0,2.310028076E0
4.778780163E0,-5.962524414E-1,-9.446487427E0,2.363174438E0
4.783754528E0,-5.175628662E-1,-9.381088257E0,2.435592651E0
4.788728893E0,-3.902587891E-1,-9.337600708E0,2.494659424E0
4.793703258E0,-3.015136719E-1,-9.316772461E0,2.509094238E0
4.798677624E0,-2.808837891E-1,-9.313705444E0,2.467224121E0
4.803651989E0,-2.391815186E-1,-9.303161621E0,2.410705566E0
4.808626354E0,-2.382202148E-1,-9.334655762E0,2.323226929E0
4.813600719E0,-2.773284912E-1,-9.387557983E0,2.279403687E0
4.818575084E0,-2.946472168E-1,-9.429122925E0,2.305969238E0
4.823549450E0,-3.019256592E-1,-9.470596313E0,2.327224731E0
4.828523815E0,-3.121185303E-1,-9.516860962E0,2.328948975E0
4.833498180E0,-3.310852051E-1,-9.577651978E0,2.309860229E0
4.838472545E0,-3.940887451E-1,-9.632843018E0,2.306991577E0
4.843446911E0,-5.319671631E-1,-9.707748413E0,2.376190186E0
4.848421276E0,-6.118621826E-1,-9.752685547E0,2.419006348E0
4.853395641E0,-6.453857422E-1,-9.739486694E0,2.439468384E0
4.858370006E0,-7.004241943E-1,-9.694519043E0,2.464111328E0
4.863344372E0,-7.341308594E-1,-9.666015625E0,2.433639526E0
4.868318737E0,-7.451782227E-1,-9.604171753E0,2.413330078E0
4.873293102E0,-7.544403076E-1,-9.537597656E0,2.392150879E0
4.878267467E0,-6.703491211E-1,-9.460113525E0,2.398925781E0
4.883241833E0,-5.841827393E-1,-9.417312622E0,2.620712280E0
4.888216198E0,-5.533447266E-1,-9.437332153E0,2.862869263E0
4.893190563E0,-4.925384521E-1,-9.479675293E0,2.889907837E0
4.898164928E0,-4.462127686E-1,-9.561431885E0,2.728179932E0
4.903139293E0,-3.975067139E-1,-9.574569702E0,2.619552612E0
4.908113659E0,-4.537963867E-1,-9.600753784E0,2.513549805E0
4.913088024E0,-5.368652344E-1,-9.589202881E0,2.521438599E0
4.918062389E0,-6.295471191E-1,-9.574325562E0,2.566436768E0
4.923036754E0,-7.065429688E-1,-9.555923462E0,2.635818481E0
4.928011120E0,-7.893676758E-1,-9.553466797E0,2.679809570E0
4.932985485E0,-7.558898926E-1,-9.491546631E0,2.761962891E0
4.937959850E0,-7.499847412E-1,-9.405487061E0,2.712417603E0
4.942934215E0,-7.428131104E-1,-9.302856445E0,2.679931641E0
4.947908581E0,-7.547454834E-1,-9.213119507E0,2.666061401E0
4.952882946E0,-7.290496826E-1,-9.171371460E0,2.628463745E0
4.957857311E0,-6.778717041E-1,-9.141784668E0,2.570480347E0
4.962831676E0,-5.908508301E-1,-9.147064209E0,2.510696411E0
4.967806041E0,-5.223083496E-1,-9.136886597E0,2.450912476E0
4.972780407E0,-4.965515137E-1,-9.125854492E0,2.460449219E0
4.977754772E0,-4.559478760E-1,-9.124984741E0,2.518371582E0
4.982729137E0,-3.752441406E-1,-9.134735107E0,2.531921387E0
4.987703502E0,-3.260955811E-1,-9.192291260E0,2.506698608E0
4.992677868E0,-2.976989746E-1,-9.279174805E0,2.459686279E0
4.997652233E0,-2.954711914E-1,-9.368560791E0,2.415527344E0
5.002626598E0,-3.005523682E-1,-9.444641113E0,2.366638184E0
5.007600963E0,-3.005828857E-1,-9.489059448E0,2.338104248E0
5.012575329E0,-2.993927002E-1,-9.538970947E0,2.329254150E0
5.017549694E0,-2.953796387E-1,-9.592926025E0,2.307846069E0
5.022524059E0,-2.936096191E-1,-9.629028320E0,2.261260986E0
5.027498424E0,-2.931365967E-1,-9.647811890E0,2.196762085E0
5.032472790E0,-2.722625732E-1,-9.634628296E0,2.138046265E0
5.037447155E0,-2.516021729E-1,-9.610916138E0,2.101745605E0
5.042421520E0,-2.713623047E-1,-9.615127563E0,2.084655762E0
5.047395885E0,-3.064575195E-1,-9.603393555E0,2.111511230E0
5.052370250E0,-3.444976807E-1,-9.548629761E0,2.164733887E0
5.057344616E0,-3.691253662E-1,-9.474945068E0,2.219406128E0
5.062318981E0,-4.209899902E-1,-9.381835938E0,2.273361206E0
5.067293346E0,-4.901275635E-1,-9.328720093E0,2.296035767E0
5.072267711E0,-6.278228760E-1,-9.299118042E0,2.351074219E0
5.077242077E0,-7.965240479E-1,-9.297058105E0,2.406555176E0
5.082216442E0,-9.498291016E-1,-9.355438232E0,2.428543091E0
5.087190807E0,-1.165924072E0,-9.423919678E0,2.481124878E0
5.092165172E0,-1.398223877E0,-9.481231689E0,2.632995605E0
5.097139538E0,-1.551956177E0,-9.500335693E0,2.776123047E0
5.102113903E0,-1.660903931E0,-9.512710571E0,2.851379395E0
5.107088268E0,-1.759185791E0,-9.480346680E0,2.819213867E0
5.112062633E0,-1.837310791E0,-9.442153931E0,2.707595825E0
5.117036999E0,-1.831298828E0,-9.463836670E0,2.613128662E0
5.122011364E0,-1.872589111E0,-9.475875854E0,2.488525391E0
5.126985729E0,-1.713516235E0,-9.442489624E0,2.465454102E0
5.131960094E0,-1.638870239E0,-9.399993896E0,2.392547607E0
5.136934459E0,-1.547454834E0,-9.348434448E0,2.351013184E0
5.141908825E0,-1.466613770E0,-9.278411865E0,2.396530151E0
5.146883190E0,-1.398818970E0,-9.229980469E0,2.506851196E0
5.151857555E0,-1.351196289E0,-9.199371338E0,2.572341919E0
5.156831920E0,-1.340438843E0,-9.162384033E0,2.637771606E0
5.161806286E0,-1.350708008E0,-9.162689209E0,2.685470581E0
5.166780651E0,-1.339996338E0,-9.152053833E0,2.754180908E0
5.171755016E0,-1.318817139E0,-9.132690430E0,2.830444336E0
5.176729381E0,-1.287689209E0,-9.112167358E0,2.895370483E0
5.181703747E0,-1.247665405E0,-9.102539062E0,2.903045654E0
5.186678112E0,-1.213088989E0,-9.074249268E0,2.847824097E0
5.191652477E0,-1.164352417E0,-9.035003662E0,2.754455566E0
5.196626842E0,-1.076690674E0,-8.999359131E0,2.632034302E0
5.201601208E0,-9.600067139E-1,-8.968643188E0,2.469955444E0
5.206575573E0,-8.626861572E-1,-8.943145752E0,2.262908936E0
5.211549938E0,-7.964172363E-1,-8.943450928E0,2.123657227E0
5.216524303E0,-7.624359131E-1,-8.954788208E0,2.145416260E0
5.221498668E0,-7.874755859E-1,-8.946945190E0,2.217010498E0
5.226473034E0,-8.241729736E-1,-8.940826416E0,2.326278687E0
5.231447399E0,-8.412780762E-1,-8.924285889E0,2.430023193E0
5.236421764E0,-8.569793701E-1,-8.904891968E0,2.482315063E0
5.241396129E0,-9.114379883E-1,-8.910812378E0,2.508453369E0
5.246370495E0,-9.874725342E-1,-8.953063965E0,2.515838623E0
5.251344860E0,-1.064437866E0,-9.079254150E0,2.468688965E0
5.256319225E0,-1.138595581E0,-9.268020630E0,2.383621216E0
5.261293590E0,-1.224380493E0,-9.407806396E0,2.339599609E0
5.266267956E0,-1.249938965E0,-9.547897339E0,2.303161621E0
5.271242321E0,-1.271118164E0,-9.612701416E0,2.292190552E0
5.276216686E0,-1.282180786E0,-9.649185181E0,2.222457886E0
5.281191051E0,-1.275985718E0,-9.651504517E0,2.048004150E0
5.286165416E0,-1.191146851E0,-9.574035645E0,1.972137451E0
5.291139782E0,-1.018478394E0,-9.500167847E0,1.844589233E0
5.296114147E0,-8.300933838E-1,-9.405319214E0,1.550323486E0
5.301088512E0,-6.557006836E-1,-9.336975098E0,1.260208130E0
5.306062877E0,-4.588928223E-1,-9.293411255E0,9.889831543E-1
5.311037243E0,-2.950286865E-1,-9.383926392E0,7.341003418E-1
5.316011608E0,-2.317047119E-1,-9.461212158E0,5.322723389E-1
5.320985973E0,-1.564483643E-1,-9.588592529E0,4.055023193E-1
5.325960338E0,-6.452941895E-2,-9.691421509E0,3.022613525E-1
5.330934704E0,1.056213379E-1,-9.802215576E0,2.968597412E-1
5.335909069E0,2.096405029E-1,-9.905807495E0,3.263854980E-1
5.340883434E0,2.407073975E-1,-1.000306702E1,3.580627441E-1
5.345857799E0,2.194213867E-1,-1.007957458E1,5.043334961E-1
5.350832165E0,2.656250000E-1,-1.014875793E1,6.869659424E-1
5.355806530E0,3.297119141E-1,-1.022610474E1,8.156433105E-1
5.360780895E0,4.380950928E-1,-1.036889648E1,8.544616699E-1
5.365755260E0,5.329895020E-1,-1.050086975E1,9.113922119E-1
5.370729625E0,5.815277100E-1,-1.066494751E1,1.007156372E0
5.375703991E0,5.646820068E-1,-1.084327698E1,1.107696533E0
5.380678356E0,5.545196533E-1,-1.098803711E1,1.182952881E0
5.385652721E0,5.752563477E-1,-1.108146667E1,1.190719604E0
5.390627086E0,5.971984863E-1,-1.115356445E1,1.136810303E0
5.395601452E0,5.957641602E-1,-1.119624329E1,9.911041260E-1
5.400575817E0,5.211639404E-1,-1.115785217E1,8.664245605E-1
5.405550182E0,3.698425293E-1,-1.108221436E1,9.417419434E-1
5.410524547E0,3.339996338E-1,-1.091473389E1,8.097991943E-1
5.415498913E0,3.245849609E-1,-1.061866760E1,4.995269775E-1
5.420473278E0,2.728118896E-1,-1.027702332E1,3.162078857E-1
5.425447643E0,2.523040771E-1,-9.974136353E0,1.984710693E-1
5.430422008E0,3.255310059E-1,-9.725097656E0,1.009368896E-1
5.435396374E0,4.248962402E-1,-9.528152466E0,3.221130371E-2
5.440370739E0,4.850921631E-1,-9.378326416E0,-3.671264648E-2
5.445345104E0,5.540924072E-1,-9.292907715E0,-4.125976562E-2
5.450319469E0,6.135253906E-1,-9.256240845E0,-2.578735352E-3
5.455293834E0,6.281127930E-1,-9.212158203E0,7.296752930E-2
5.460268200E0,5.666046143E-1,-9.169860840E0,2.593536377E-1
5.465242565E0,5.220184326E-1,-9.161331177E0,5.512084961E-1
5.470216930E0,5.829772949E-1,-9.206726074E0,7.746582031E-1
5.475191295E0,7.103729248E-1,-9.260482788E0,9.013824463E-1
5.480165661E0,8.402709961E-1,-9.324081421E0,9.134368896E-1
5.485140026E0,9.492950439E-1,-9.390869141E0,9.512634277E-1
5.490114391E0,1.016906738E0,-9.555007935E0,9.430847168E-1
5.495088756E0,1.109466553E0,-9.757324219E0,9.162445068E-1
5.500063122E0,1.211700439E0,-9.964965820E0,8.215026855E-1
5.505037487E0,1.291717529E0,-1.022729492E1,5.662689209E-1
5.510011852E0,1.385055542E0,-1.050292969E1,2.434539795E-1
5.514986217E0,1.402725220E0,-1.076289368E1,-9.263610840E-2
5.519960583E0,1.336074829E0,-1.098126221E1,-4.048004150E-1
5.524934948E0,1.138000488E0,-1.115653992E1,-7.241668701E-1
5.529909313E0,9.184570312E-1,-1.127696228E1,-9.611968994E-1
5.534883678E0,7.985839844E-1,-1.131419373E1,-1.163574219E0
5.539858043E0,7.626342773E-1,-1.126278687E1,-1.301574707E0
5.544832409E0,7.181549072E-1,-1.114376831E1,-1.385833740E0
5.549806774E0,7.003021240E-1,-1.094548035E1,-1.448059082E0
5.554781139E0,7.194213867E-1,-1.070806885E1,-1.501251221E0
5.559755504E0,6.721649170E-1,-1.044412231E1,-1.527816772E0
5.564729870E0,5.806121826E-1,-1.015084839E1,-1.533569336E0
5.569704235E0,4.404602051E-1,-9.890701294E0,-1.478958130E0
5.574678600E0,3.113250732E-1,-9.695480347E0,-1.383178711E0
5.579652965E0,3.105316162E-1,-9.519500732E0,-1.288055420E0
5.584627331E0,3.475189209E-1,-9.349380493E0,-1.239273071E0
5.589601696E0,4.115905762E-1,-9.237945557E0,-1.230484009E0
5.594576061E0,5.596008301E-1,-9.173995972E0,-1.136566162E0
5.599550426E0,6.742095947E-1,-9.106201172E0,-9.749603271E-1
5.604524791E0,7.486572266E-1,-9.047714233E0,-7.282714844E-1
5.609499157E0,8.433227539E-1,-8.990631104E0,-3.881835938E-1
5.614473522E0,8.583679199E-1,-8.942855835E0,-4.328918457E-2
5.619447887E0,8.426818848E-1,-8.909957886E0,3.654937744E-1
5.624422252E0,9.167022705E-1,-8.893371582E0,7.782440186E-1
5.629396618E0,9.704284668E-1,-8.867828369E0,1.137481689E0
5.634370983E0,9.783782959E-1,-8.902954102E0,1.391418457E0
5.639345348E0,1.008804321E0,-8.948654175E0,1.574493408E0
5.644319713E0,9.535980225E-1,-8.984481812E0,1.656417847E0
5.649294079E0,8.652343750E-1,-9.018829346E0,1.709732056E0
5.654268444E0,7.966003418E-1,-9.039886475E0,1.778945923E0
5.659242809E0,8.809204102E-1,-9.057342529E0,1.736160278E0
5.664217174E0,9.108734131E-1,-9.175476074E0,1.630645752E0
5.669191540E0,1.038986206E0,-9.327774048E0,1.503173828E0
5.674165905E0,1.167343140E0,-9.601226807E0,1.325393677E0
5.679140270E0,1.240005493E0,-9.839538574E0,1.036590576E0
5.684114635E0,1.263778687E0,-1.016427612E1,7.891693115E-1
5.689089000E0,1.383117676E0,-1.043110657E1,4.048919678E-1
5.694063366E0,1.424102783E0,-1.059407043E1,4.035949707E-2
5.699037731E0,1.441513062E0,-1.070460510E1,-2.373352051E-1
5.704012096E0,1.526733398E0,-1.073315430E1,-5.042572021E-1
5.708986461E0,1.591751099E0,-1.067127991E1,-7.396697998E-1
5.713960827E0,1.532821655E0,-1.056492615E1,-8.306274414E-1
5.718935192E0,1.387634277E0,-1.044097900E1,-8.099517822E-1
5.723909557E0,1.179718018E0,-1.030424500E1,-7.672119141E-1
5.728883922E0,1.026855469E0,-1.014709473E1,-6.872863770E-1
5.733858288E0,8.607635498E-1,-1.000967407E1,-4.993286133E-1
5.738832653E0,7.289276123E-1,-9.900405884E0,-2.932739258E-1
5.743807018E0,6.182708740E-1,-9.801589966E0,-1.287384033E-1
5.748781383E0,5.176849365E-1,-9.683792114E0,6.285095215E-2
5.753755749E0,4.508666992E-1,-9.540527344E0,3.390655518E-1
5.758730114E0,4.645233154E-1,-9.413711548E0,6.329498291E-1
5.763704479E0,4.782257080E-1,-9.279495239E0,8.756408691E-1
5.768678844E0,5.296020508E-1,-9.135101318E0,1.100769043E0
5.773653209E0,6.098632812E-1,-8.993499756E0,1.339828491E0
5.778627575E0,6.767883301E-1,-8.921249390E0,1.555374146E0
5.783601940E0,7.716979980E-1,-8.866210938E0,1.685775757E0
5.788576305E0,8.209381104E-1,-8.849548340E0,1.773986816E0
5.793550670E0,8.140563965E-1,-8.878631592E0,1.917404175E0
5.798525036E0,8.448944092E-1,-8.950180054E0,2.049377441E0
5.803499401E0,8.868560791E-1,-9.048782349E0,2.114181519E0
5.808473766E0,9.238128662E-1,-9.225555420E0,2.129928589E0
5.813448131E0,9.569702148E-1,-9.405410767E0,2.118194580E0
5.818422497E0,9.544525146E-1,-9.615341187E0,2.032226562E0
5.823396862E0,9.638824463E-1,-9.741485596E0,1.869567871E0
5.828371227E0,9.887542725E-1,-9.860763550E0,1.668563843E0
5.833345592E0,1.005355835E0,-9.979858398E0,1.370880127E0
5.838319958E0,9.984130859E-1,-9.998016357E0,1.015777588E0
5.843294323E0,9.462890625E-1,-9.991775513E0,6.484985352E-1
5.848268688E0,8.578491211E-1,-9.943237305E0,2.508087158E-1
5.853243053E0,8.492431641E-1,-9.926940918E0,-1.419830322E-1
5.858217418E0,8.695831299E-1,-9.946182251E0,-3.497467041E-1
5.863191784E0,9.748077393E-1,-9.977066040E0,-5.021209717E-1
5.868166149E0,1.072326660E0,-1.004786682E1,-5.287628174E-1
5.873140514E0,1.159164429E0,-1.014772034E1,-4.686737061E-1
5.878114879E0,1.224884033E0,-1.021237183E1,-3.429412842E-1
5.883089245E0,1.248138428E0,-1.025308228E1,-2.136077881E-1
5.888063610E0,1.280807495E0,-1.023138428E1,-9.584045410E-2
5.893037975E0,1.318237305E0,-1.022608948E1,1.553344727E-2
5.898012340E0,1.317794800E0,-1.016906738E1,1.532440186E-1
5.902986706E0,1.361999512E0,-1.008753967E1,2.928466797E-1
5.907961071E0,1.397308350E0,-1.001933289E1,4.292907715E-1
5.912935436E0,1.389434814E0,-9.933197021E0,5.764312744E-1
5.917909801E0,1.326416016E0,-9.874496460E0,6.913909912E-1
5.922884166E0,1.233963013E0,-9.836029053E0,7.625274658E-1
5.927858532E0,1.143890381E0,-9.804061890E0,7.980804443E-1
5.932832897E0,1.045501709E0,-9.780624390E0,7.546234131E-1
5.937807262E0,9.241027832E-1,-9.740768433E0,7.033386230E-1
5.942781627E0,8.035125732E-1,-9.689025879E0,6.861114502E-1
5.947755993E0,6.560058594E-1,-9.627700806E0,6.766357422E-1
5.952730358E0,5.375061035E-1,-9.555282593E0,6.945800781E-1
5.957704723E0,4.593658447E-1,-9.486968994E0,7.667083740E-1
5.962679088E0,3.768310547E-1,-9.443725586E0,8.480987549E-1
5.967653454E0,3.052978516E-1,-9.386993408E0,9.006958008E-1
5.972627819E0,2.231445312E-1,-9.342590332E0,9.477081299E-1
5.977602184E0,1.885375977E-1,-9.319503784E0,1.004943848E0
5.982576549E0,2.102661133E-1,-9.322891235E0,1.048004150E0
5.987550915E0,1.933593750E-1,-9.374816895E0,1.082336426E0
5.992525280E0,1.987152100E-1,-9.426361084E0,1.137268066E0
5.997499645E0,2.001647949E-1,-9.470520020E0,1.186843872E0
6.002474010E0,2.463531494E-1,-9.516723633E0,1.197937012E0
6.007448375E0,3.426971436E-1,-9.540466309E0,1.199859619E0
6.012422741E0,3.693389893E-1,-9.595092773E0,1.190490723E0
6.017397106E0,4.071655273E-1,-9.648696899E0,1.141647339E0
6.022371471E0,4.366760254E-1,-9.660476685E0,1.064300537E0
6.027345836E0,4.464416504E-1,-9.646011353E0,9.984283447E-1
6.032320202E0,4.026336670E-1,-9.615386963E0,9.120330811E-1
6.037294567E0,4.198913574E-1,-9.542312622E0,8.328247070E-1
6.042268932E0,4.584045410E-1,-9.515563965E0,7.590179443E-1
6.047243297E0,4.833984375E-1,-9.486389160E0,6.590423584E-1
6.052217663E0,5.391540527E-1,-9.485565186E0,5.731658936E-1
6.057192028E0,5.666198730E-1,-9.463088989E0,4.878387451E-1
6.062166393E0,4.981079102E-1,-9.512573242E0,4.231719971E-1
6.067140758E0,5.513305664E-1,-9.568435669E0,4.048767090E-1
6.072115124E0,5.217285156E-1,-9.643295288E0,4.201507568E-1
6.077089489E0,5.110015869E-1,-9.731781006E0,4.538726807E-1
6.082063854E0,5.259399414E-1,-9.768096924E0,4.758453369E-1
6.087038219E0,5.643310547E-1,-9.794540405E0,4.791870117E-1
6.092012584E0,5.961456299E-1,-9.796798706E0,5.207366943E-1
6.096986950E0,5.991973877E-1,-9.800308228E0,5.318756104E-1
6.101961315E0,6.305084229E-1,-9.768707275E0,5.379791260E-1
6.106935680E0,6.795043945E-1,-9.747314453E0,5.381317139E-1
6.111910045E0,7.727966309E-1,-9.721633911E0,5.700225830E-1
6.116884411E0,7.824249268E-1,-9.705718994E0,6.073303223E-1
6.121858776E0,7.364654541E-1,-9.731933594E0,6.587524414E-1
6.126833141E0,8.171081543E-1,-9.741760254E0,6.858520508E-1
6.131807506E0,8.861083984E-1,-9.749420166E0,6.576232910E-1
6.136781872E0,9.596252441E-1,-9.753173828E0,6.054992676E-1
6.141756237E0,1.017242432E0,-9.758056641E0,5.539093018E-1
6.146730602E0,1.036254883E0,-9.760299683E0,5.389709473E-1
6.151704967E0,9.857940674E-1,-9.764572144E0,5.301818848E-1
6.156679333E0,9.402923584E-1,-9.761672974E0,5.391693115E-1
6.161653698E0,9.201965332E-1,-9.727294922E0,5.931854248E-1
6.166628063E0,8.308715820E-1,-9.708923340E0,6.265563965E-1
6.171602428E0,7.398834229E-1,-9.670654297E0,6.388244629E-1
6.176576793E0,6.509094238E-1,-9.641510010E0,6.611328125E-1
6.181551159E0,5.664520264E-1,-9.618118286E0,6.448974609E-1
6.186525524E0,5.150146484E-1,-9.568115234E0,6.391906738E-1
6.191499889E0,4.421691895E-1,-9.535034180E0,6.293945312E-1
6.196474254E0,3.720397949E-1,-9.533264160E0,6.602020264E-1
6.201448620E0,3.527221680E-1,-9.538192749E0,6.907958984E-1
6.206422985E0,3.514556885E-1,-9.557327271E0,7.503051758E-1
6.211397350E0,3.765563965E-1,-9.587768555E0,8.123474121E-1
6.216371715E0,4.662475586E-1,-9.602447510E0,8.327941895E-1
6.221346081E0,5.223388672E-1,-9.610290527E0,8.983917236E-1
6.226320446E0,6.015930176E-1,-9.619979858E0,9.425048828E-1
6.231294811E0,6.778717041E-1,-9.596923828E0,9.231719971E-1
6.236269176E0,7.515563965E-1,-9.608383179E0,8.937072754E-1
6.241243541E0,8.352661133E-1,-9.599319458E0,8.347473145E-1
6.246217907E0,9.261932373E-1,-9.612686157E0,7.725982666E-1
6.251192272E0,9.761047363E-1,-9.605545044E0,6.998901367E-1
6.256166637E0,1.006637573E0,-9.624649048E0,6.693572998E-1
6.261141002E0,1.041580200E0,-9.621398926E0,6.520538330E-1
6.266115368E0,1.049728394E0,-9.630310059E0,6.585998535E-1
6.271089733E0,1.059280396E0,-9.650238037E0,7.053527832E-1
6.276064098E0,1.064712524E0,-9.675430298E0,7.354278564E-1
6.281038463E0,1.093765259E0,-9.671920776E0,8.148345947E-1
6.286012829E0,1.101501465E0,-9.663024902E0,8.614044189E-1
6.290987194E0,1.099426270E0,-9.649856567E0,8.701171875E-1
6.295961559E0,1.102798462E0,-9.597549438E0,8.678131104E-1
6.300935924E0,1.112060547E0,-9.574661255E0,8.536834717E-1
6.305910290E0,1.130920410E0,-9.565353394E0,8.267059326E-1
6.310884655E0,1.150283813E0,-9.566329956E0,7.958679199E-1
6.315859020E0,1.172531128E0,-9.580032349E0,7.580413818E-1
6.320833385E0,1.185058594E0,-9.594284058E0,7.361297607E-1
6.325807750E0,1.191711426E0,-9.610229492E0,7.430877686E-1
6.330782116E0,1.184249878E0,-9.656784058E0,7.553710938E-1
6.335756481E0,1.172302246E0,-9.703079224E0,7.575073242E-1
6.340730846E0,1.141754150E0,-9.740982056E0,7.324981689E-1
6.345705211E0,1.115036011E0,-9.755386353E0,7.019195557E-1
6.350679577E0,1.125839233E0,-9.757339478E0,6.827392578E-1
6.355653942E0,1.149429321E0,-9.772994995E0,6.486816406E-1
6.360628307E0,1.176177979E0,-9.775924683E0,5.933532715E-1
6.365602672E0,1.211380005E0,-9.773529053E0,5.386505127E-1
6.370577038E0,1.250061035E0,-9.795989990E0,5.093688965E-1
6.375551403E0,1.248184204E0,-9.792114258E0,4.861145020E-1
6.380525768E0,1.195846558E0,-9.786041260E0,5.208129883E-1
6.385500133E0,1.141616821E0,-9.772125244E0,5.824432373E-1
6.390474499E0,1.094055176E0,-9.758895874E0,6.521301270E-1
6.395448864E0,1.092178345E0,-9.748611450E0,7.624816895E-1
6.400423229E0,1.038452148E0,-9.690322876E0,8.908691406E-1
6.405397594E0,1.015838623E0,-9.652282715E0,1.025222778E0
6.410371959E0,9.674835205E-1,-9.620162964E0,1.126724243E0
6.415346325E0,9.868774414E-1,-9.634017944E0,1.165374756E0
6.420320690E0,9.926757812E-1,-9.684371948E0,1.112503052E0
6.425295055E0,1.009628296E0,-9.723403931E0,1.010238647E0
6.430269420E0,1.020187378E0,-9.733764648E0,9.222717285E-1
6.435243786E0,9.865875244E-1,-9.756774902E0,8.454284668E-1
6.440218151E0,9.642944336E-1,-9.757843018E0,7.958068848E-1
6.445192516E0,9.456329346E-1,-9.767898560E0,7.656250000E-1
6.450166881E0,9.694976807E-1,-9.761230469E0,7.361297607E-1
6.455141247E0,9.752044678E-1,-9.759582520E0,7.430419922E-1
6.460115612E0,9.892272949E-1,-9.763900757E0,7.786865234E-1
6.465089977E0,1.022201538E0,-9.777770996E0,7.906188965E-1
6.470064342E0,1.056732178E0,-9.799270630E0,7.965393066E-1
6.475038708E0,1.084884644E0,-9.814483643E0,7.618713379E-1
6.480013073E0,1.108291626E0,-9.800125122E0,7.295989990E-1
6.484987438E0,1.113815308E0,-9.794296265E0,6.865081787E-1
6.489961803E0,1.123611450E0,-9.793518066E0,6.390533447E-1
6.494936168E0,1.119506836E0,-9.788757324E0,6.077728271E-1
6.499910534E0,1.104690552E0,-9.774475098E0,6.214294434E-1
6.504884899E0,1.104507446E0,-9.760574341E0,6.653594971E-1
6.509859264E0,1.103469849E0,-9.730102539E0,7.033996582E-1
6.514833629E0,1.102523804E0,-9.662796021E0,7.741241455E-1
6.519807995E0,1.095352173E0,-9.591232300E0,8.577575684E-1
6.524782360E0,1.077423096E0,-9.540893555E0,9.449005127E-1
6.529756725E0,1.059356689E0,-9.494735718E0,1.013122559E0
6.534731090E0,1.033767700E0,-9.472640991E0,1.080032349E0
6.539705456E0,1.000320435E0,-9.468185425E0,1.139709473E0
6.544679821E0,9.901580811E-1,-9.482604980E0,1.174148560E0
6.549654186E0,9.879302979E-1,-9.516708374E0,1.145309448E0
6.554628551E0,9.954833984E-1,-9.579132080E0,1.104644775E0
6.559602916E0,9.964752197E-1,-9.649291992E0,1.083038330E0
6.564577282E0,9.879608154E-1,-9.718292236E0,1.055068970E0
6.569551647E0,9.837036133E-1,-9.755615234E0,1.032394409E0
6.574526012E0,9.927215576E-1,-9.786422729E0,1.024230957E0
6.579500377E0,9.754180908E-1,-9.782836914E0,9.838409424E-1
6.584474743E0,9.508666992E-1,-9.770568848E0,9.388427734E-1
6.589449108E0,9.135742188E-1,-9.758224487E0,8.944549561E-1
6.594423473E0,8.851318359E-1,-9.730789185E0,9.174499512E-1
6.599397838E0,8.648376465E-1,-9.694656372E0,9.337310791E-1
6.604372204E0,8.383483887E-1,-9.621261597E0,9.987792969E-1
6.609346569E0,7.925872803E-1,-9.573410034E0,1.034606934E0
6.614320934E0,7.771301270E-1,-9.533843994E0,1.066223145E0
6.619295299E0,7.573242188E-1,-9.499938965E0,1.056137085E0
6.624269665E0,7.341613770E-1,-9.479675293E0,1.038513184E0
6.629244030E0,7.321166992E-1,-9.489562988E0,1.009353638E0
6.634218395E0,7.345733643E-1,-9.526657104E0,9.389801025E-1
6.639192760E0,7.422332764E-1,-9.571319580E0,9.319610596E-1
6.644167125E0,7.851409912E-1,-9.636383057E0,9.184417725E-1
6.649141491E0,8.352661133E-1,-9.652725220E0,9.407501221E-1
6.654115856E0,8.329772949E-1,-9.690032959E0,9.838409424E-1
6.659090221E0,8.115539551E-1,-9.703506470E0,1.026687622E0
6.664064586E0,7.831268311E-1,-9.716110229E0,1.078262329E0
6.669038952E0,7.599029541E-1,-9.702392578E0,1.110855103E0
6.674013317E0,7.550964355E-1,-9.647171021E0,1.129852295E0
6.678987682E0,7.309570312E-1,-9.583694458E0,1.187332153E0
6.683962047E0,6.847686768E-1,-9.543975830E0,1.253829956E0
6.688936413E0,6.732788086E-1,-9.504135132E0,1.282562256E0
6.693910778E0,6.743011475E-1,-9.452621460E0,1.271713257E0
6.698885143E0,6.597290039E-1,-9.403320312E0,1.251754761E0
6.703859508E0,6.683807373E-1,-9.372924805E0,1.207260132E0
6.708833874E0,6.671752930E-1,-9.370437622E0,1.161697388E0
6.713808239E0,6.922760010E-1,-9.386886597E0,1.152877808E0
6.718782604E0,7.243194580E-1,-9.385681152E0,1.180297852E0
6.723756969E0,7.549743652E-1,-9.372085571E0,1.219161987E0
6.728731334E0,7.932281494E-1,-9.352920532E0,1.238265991E0
6.733705700E0,8.076324463E-1,-9.359817505E0,1.224029541E0
6.738680065E0,8.229675293E-1,-9.377197266E0,1.198593140E0
6.743654430E0,8.417053223E-1,-9.439575195E0,1.185760498E0
6.748628795E0,8.952178955E-1,-9.506408691E0,1.181869507E0
6.753603161E0,9.477844238E-1,-9.568862915E0,1.190155029E0
6.758577526E0,1.009201050E0,-9.593765259E0,1.202423096E0
6.763551891E0,1.035293579E0,-9.628967285E0,1.224243164E0
6.768526256E0,1.055938721E0,-9.676574707E0,1.274398804E0
6.773500622E0,1.067855835E0,-9.747985840E0,1.304412842E0
6.778474987E0,1.060928345E0,-9.788467407E0,1.358215332E0
6.783449352E0,1.020751953E0,-9.864151001E0,1.374114990E0
6.788423717E0,1.014419556E0,-9.934005737E0,1.392837524E0
6.793398083E0,9.547882080E-1,-1.002784729E1,1.428466797E0
6.798372448E0,9.309234619E-1,-1.010475159E1,1.420654297E0
6.803346813E0,9.113922119E-1,-1.013714600E1,1.379486084E0
6.808321178E0,9.161682129E-1,-1.011923218E1,1.327392578E0
6.813295543E0,9.170684814E-1,-1.008323669E1,1.263702393E0
6.818269909E0,9.324188232E-1,-1.001770020E1,1.125488281E0
6.823244274E0,9.531250000E-1,-9.909744263E0,9.810180664E-1
6.828218639E0,9.659423828E-1,-9.824707031E0,8.689117432E-1
6.833193004E0,9.959716797E-1,-9.767486572E0,8.241271973E-1
6.838167370E0,1.007659912E0,-9.738876343E0,7.929077148E-1
6.843141735E0,9.929656982E-1,-9.697738647E0,8.309326172E-1
6.848116100E0,9.952545166E-1,-9.702468872E0,8.924255371E-1
6.853090465E0,9.664154053E-1,-9.681961060E0,9.988250732E-1
6.858064831E0,9.263153076E-1,-9.665771484E0,1.156906128E0
6.863039196E0,8.692626953E-1,-9.626098633E0,1.335037231E0
6.868013561E0,8.363800049E-1,-9.588790894E0,1.473022461E0
6.872987926E0,7.922210693E-1,-9.550155640E0,1.579177856E0
6.877962291E0,7.508697510E-1,-9.552825928E0,1.636459351E0
6.882936657E0,7.149810791E-1,-9.534164429E0,1.639404297E0
6.887911022E0,6.762390137E-1,-9.493911743E0,1.588317871E0
6.892885387E0,6.332397461E-1,-9.436828613E0,1.523117065E0
6.897859752E0,6.073913574E-1,-9.389022827E0,1.433761597E0
6.902834118E0,6.039886475E-1,-9.329620361E0,1.319488525E0
6.907808483E0,6.186370850E-1,-9.265899658E0,1.258895874E0
6.912782848E0,6.700439453E-1,-9.213058472E0,1.208145142E0
6.917757213E0,7.367553711E-1,-9.153182983E0,1.149307251E0
6.922731579E0,7.805786133E-1,-9.113662720E0,1.157043457E0
6.927705944E0,8.206176758E-1,-9.078659058E0,1.216567993E0
6.932680309E0,7.947082520E-1,-9.060256958E0,1.300430298E0
6.937654674E0,7.652587891E-1,-9.045959473E0,1.391189575E0
6.942629040E0,7.319793701E-1,-9.044921875E0,1.539260864E0
6.947603405E0,7.038269043E-1,-9.051681519E0,1.708526611E0
6.952577770E0,7.137908936E-1,-9.076370239E0,1.895935059E0
6.957552135E0,7.274780273E-1,-9.103866577E0,2.109344482E0
6.962526500E0,7.663574219E-1,-9.184066772E0,2.292861938E0
6.967500866E0,7.536163330E-1,-9.224258423E0,2.467376709E0
6.972475231E0,7.683868408E-1,-9.321151733E0,2.602523804E0
6.977449596E0,8.464050293E-1,-9.425003052E0,2.690704346E0
6.982423961E0,8.032073975E-1,-9.484313965E0,2.735000610E0
6.987398327E0,7.847595215E-1,-9.571472168E0,2.672744751E0
6.992372692E0,7.683410645E-1,-9.676574707E0,2.588348389E0
6.997347057E0,8.131408691E-1,-9.770370483E0,2.406326294E0
7.002321422E0,8.754882812E-1,-9.877120972E0,2.210388184E0
7.007295788E0,9.445953369E-1,-9.953994751E0,2.005950928E0
7.012270153E0,9.804992676E-1,-9.993087769E0,1.863906860E0
7.017244518E0,9.375000000E-1,-1.004396057E1,1.895034790E0
7.022218883E0,1.010772705E0,-1.005992126E1,1.966644287E0
7.027193249E0,1.024765015E0,-1.007412720E1,2.134811401E0
7.032167614E0,1.015441895E0,-1.008433533E1,2.362792969E0
7.037141979E0,1.024368286E0,-1.002232361E1,2.496780396E0
7.042116344E0,9.883575439E-1,-9.960174561E0,2.579864502E0
7.047090709E0,1.018753052E0,-9.867294312E0,2.657852173E0
7.052065075E0,1.121566772E0,-9.786773682E0,2.734573364E0
7.057039440E0,1.137466431E0,-9.666992188E0,2.768066406E0
7.062013805E0,1.124511719E0,-9.460174561E0,2.745742798E0
7.066988170E0,1.220352173E0,-9.234588623E0,2.719711304E0
7.071962536E0,1.284667969E0,-9.017913818E0,2.702346802E0
7.076936901E0,1.271804810E0,-8.813781738E0,2.713516235E0
7.081911266E0,1.298034668E0,-8.622680664E0,2.785049438E0
7.086885631E0,1.382537842E0,-8.447372437E0,2.890579224E0
7.091859997E0,1.472656250E0,-8.295593262E0,3.043701172E0
7.096834362E0,1.537994385E0,-8.220703125E0,3.249984741E0
7.101808727E0,1.493209839E0,-8.229202271E0,3.507141113E0
7.106783092E0,1.611618042E0,-8.282318115E0,3.726028442E0
7.111757458E0,1.901092529E0,-8.374954224E0,3.878402710E0
7.116731823E0,2.145278931E0,-8.522888184E0,4.001541138E0
7.121706188E0,2.260437012E0,-8.733718872E0,4.036560059E0
7.126680553E0,2.347564697E0,-8.994155884E0,3.975250244E0
7.131654918E0,2.373397827E0,-9.244949341E0,3.817764282E0
7.136629284E0,2.271575928E0,-9.458190918E0,3.574554443E0
7.141603649E0,2.096527100E0,-9.638854980E0,3.350311279E0
7.146578014E0,1.960723877E0,-9.744461060E0,3.121917725E0
7.151552379E0,1.747894287E0,-9.834899902E0,2.854263306E0
7.156526745E0,1.559448242E0,-9.913040161E0,2.476272583E0
7.161501110E0,1.529632568E0,-9.919723511E0,2.124694824E0
7.166475475E0,1.477493286E0,-9.957366943E0,1.818908691E0
7.171449840E0,1.425643921E0,-9.957885742E0,1.578948975E0
7.176424206E0,1.347839355E0,-9.986145020E0,1.368011475E0
7.181398571E0,1.171249390E0,-9.983444214E0,1.324752808E0
7.186372936E0,1.095932007E0,-9.930206299E0,1.330093384E0
7.191347301E0,1.042526245E0,-9.895721436E0,1.485061646E0
7.196321666E0,1.037506104E0,-9.861221313E0,1.796325684E0
7.201296032E0,1.070953369E0,-9.860214233E0,2.098098755E0
7.206270397E0,1.212829590E0,-9.912612915E0,2.352127075E0
7.211244762E0,1.353225708E0,-9.877883911E0,2.619964600E0
7.216219127E0,1.367553711E0,-9.825942993E0,2.830673218E0
7.221193493E0,1.446914673E0,-9.772140503E0,2.966339111E0
7.226167858E0,1.470153809E0,-9.759170532E0,2.968551636E0
7.231142223E0,1.515747070E0,-9.759170532E0,2.877227783E0
7.236116588E0,1.647415161E0,-9.726669312E0,2.683715820E0
7.241090954E0,1.856781006E0,-9.632736206E0,2.432113647E0
7.246065319E0,1.884124756E0,-9.569488525E0,2.168746948E0
7.251039684E0,1.842864990E0,-9.528350830E0,1.976348877E0
7.256014049E0,1.833709717E0,-9.508819580E0,1.812393188E0
7.260988415E0,1.701049805E0,-9.432586670E0,1.736557007E0
7.265962780E0,1.540985107E0,-9.328384399E0,1.737564087E0
7.270937145E0,1.368728638E0,-9.240600586E0,1.833541870E0
7.275911510E0,1.165771484E0,-9.169189453E0,2.028015137E0
7.280885875E0,1.077575684E0,-9.089950562E0,2.154434204E0
7.285860241E0,9.857330322E-1,-9.032348633E0,2.267669678E0
7.290834606E0,9.458618164E-1,-9.008377075E0,2.562835693E0
7.295808971E0,9.664154053E-1,-8.990600586E0,2.913299561E0
7.300783336E0,8.486022949E-1,-8.981506348E0,3.149490356E0
7.305757702E0,7.410736084E-1,-9.000839233E0,3.298049927E0
7.310732067E0,7.550201416E-1,-9.021926880E0,3.364578247E0
7.315706432E0,7.009582520E-1,-9.013137817E0,3.332153320E0
7.320680797E0,5.609436035E-1,-8.995223999E0,3.203857422E0
7.325655163E0,4.640197754E-1,-9.013473511E0,3.120590210E0
7.330629528E0,5.428771973E-1,-8.920257568E0,3.078704834E0
7.335603893E0,6.890258789E-1,-8.786941528E0,3.043930054E0
7.340578258E0,8.208160400E-1,-8.621551514E0,2.938476562E0
7.345552624E0,8.985290527E-1,-8.491012573E0,2.973403931E0
7.350526989E0,1.027938843E0,-8.361785889E0,3.162643433E0
7.355501354E0,1.203170776E0,-8.309722900E0,3.513458252E0
7.360475719E0,1.411987305E0,-8.224395752E0,3.830932617E0
7.365450084E0,1.561904907E0,-8.168960571E0,4.079177856E0
7.370424450E0,1.449722290E0,-8.146499634E0,4.449279785E0
7.375398815E0,1.830261230E0,-8.152252197E0,4.414260864E0
7.380373180E0,2.007537842E0,-8.121002197E0,4.542648315E0
7.385347545E0,1.887542725E0,-8.175186157E0,4.490341187E0
7.390321911E0,1.697418213E0,-8.233016968E0,4.362442017E0
7.395296276E0,1.569992065E0,-8.295837402E0,4.116104126E0
7.400270641E0,1.519729614E0,-8.324844360E0,3.897323608E0
7.405245006E0,1.459915161E0,-8.371688843E0,3.718612671E0
7.410219372E0,1.440994263E0,-8.397094727E0,3.520111084E0
7.415193737E0,1.453704834E0,-8.410247803E0,3.354415894E0
7.420168102E0,1.505599976E0,-8.414108276E0,3.208770752E0
7.425142467E0,1.468490601E0,-8.431121826E0,3.169403076E0
7.430116833E0,1.428604126E0,-8.417556763E0,3.175979614E0
7.435091198E0,1.520034790E0,-8.386901855E0,3.201110840E0
7.440065563E0,1.614379883E0,-8.285079956E0,3.267776489E0
7.445039928E0,1.631179810E0,-8.198867798E0,3.366561890E0
7.450014293E0,1.654769897E0,-8.138015747E0,3.508453369E0
7.454988659E0,1.719223022E0,-8.080352783E0,3.664184570E0
7.459963024E0,1.817687988E0,-7.990005493E0,3.799835205E0
7.464937389E0,1.913711548E0,-7.918548584E0,3.920349121E0
7.469911754E0,2.017150879E0,-7.867797852E0,4.064346313E0
7.474886120E0,2.047195435E0,-7.810028076E0,4.274078369E0
7.479860485E0,2.064620972E0,-7.802078247E0,4.496948242E0
7.484834850E0,2.186889648E0,-7.863967896E0,4.612564087E0
7.489809215E0,2.455108643E0,-7.927612305E0,4.743026733E0
7.494783581E0,2.328063965E0,-7.916442871E0,4.764495850E0
7.499757946E0,2.112106323E0,-7.818832397E0,4.721450806E0
7.504732311E0,2.069503784E0,-7.753280640E0,4.667343140E0
7.509706676E0,2.074874878E0,-7.729492188E0,4.616760254E0
7.514681041E0,2.175415039E0,-7.734603882E0,4.538269043E0
7.519655407E0,2.317153931E0,-7.756515503E0,4.463317871E0
7.524629772E0,2.378448486E0,-7.870437622E0,4.412048340E0
7.529604137E0,2.444702148E0,-8.011489868E0,4.349075317E0
7.534578502E0,2.425247192E0,-8.128479004E0,4.282836914E0
7.539552868E0,2.462677002E0,-8.176528931E0,4.279479980E0
7.544527233E0,2.531738281E0,-8.231491089E0,4.362869263E0
7.549501598E0,2.547607422E0,-8.269500732E0,4.446716309E0
7.554475963E0,2.526794434E0,-8.301559448E0,4.478149414E0
7.559450329E0,2.552703857E0,-8.304733276E0,4.527053833E0
7.564424694E0,2.541305542E0,-8.336608887E0,4.582763672E0
7.569399059E0,2.548141479E0,-8.358963013E0,4.612670898E0
7.574373424E0,2.514709473E0,-8.321090698E0,4.609481812E0
7.579347790E0,2.497604370E0,-8.319091797E0,4.544891357E0
7.584322155E0,2.532012939E0,-8.300506592E0,4.433380127E0
7.589296520E0,2.543258667E0,-8.275909424E0,4.310333252E0
7.594270885E0,2.591705322E0,-8.266540527E0,4.247817993E0
7.599245250E0,2.636856079E0,-8.284164429E0,4.244186401E0
7.604219616E0,2.588134766E0,-8.361328125E0,4.289550781E0
7.609193981E0,2.582336426E0,-8.459808350E0,4.349365234E0
7.614168346E0,2.576385498E0,-8.550170898E0,4.437149048E0
7.619142711E0,2.602767944E0,-8.617218018E0,4.542221069E0
7.624117077E0,2.650085449E0,-8.709518433E0,4.659057617E0
7.629091442E0,2.674896240E0,-8.797180176E0,4.736892700E0
7.634065807E0,2.683609009E0,-8.884292603E0,4.824279785E0
7.639040172E0,2.711990356E0,-8.931259155E0,4.905059814E0
7.644014538E0,2.748779297E0,-8.925781250E0,5.019760132E0
7.648988903E0,2.792526245E0,-8.904235840E0,5.139282227E0
7.653963268E0,2.868423462E0,-8.907699585E0,5.286376953E0
7.658937633E0,2.978347778E0,-8.977966309E0,5.406341553E0
7.663911999E0,2.951492310E0,-9.175247192E0,5.384582520E0
7.668886364E0,2.666717529E0,-9.469406128E0,5.129135132E0
7.673860729E0,2.116912842E0,-9.739166260E0,4.576339722E0
7.678835094E0,1.464111328E0,-9.966049194E0,3.725860596E0
7.683809459E0,9.237670898E-1,-1.014747620E1,2.748443604E0
7.688783825E0,5.212860107E-1,-1.030802917E1,1.931488037E0
7.693758190E0,2.042541504E-1,-1.045536804E1,1.375595093E0
7.698732555E0,-1.033020020E-1,-1.053854370E1,1.174179077E0
7.703706920E0,1.589813232E-1,-1.055729675E1,1.255599976E0
7.708681286E0,4.985504150E-1,-1.051414490E1,1.744247437E0
7.713655651E0,1.012130737E0,-1.055300903E1,2.324783325E0
7.718630016E0,1.700775146E0,-1.070234680E1,2.940536499E0
7.723604381E0,2.536804199E0,-1.097029114E1,3.475112915E0
7.728578747E0,3.258544922E0,-1.136752319E1,3.899810791E0
7.733553112E0,3.762649536E0,-1.187164307E1,4.141693115E0
7.738527477E0,4.183761597E0,-1.237516785E1,4.199218750E0
7.743501842E0,4.593688965E0,-1.280006409E1,4.163131714E0
7.748476208E0,4.759582520E0,-1.308782959E1,4.123428345E0
7.753450573E0,4.588821411E0,-1.309310913E1,4.041748047E0
7.758424938E0,3.833084106E0,-1.269137573E1,3.798355103E0
7.763399303E0,2.612396240E0,-1.182260132E1,3.347702026E0
7.768373668E0,1.236785889E0,-1.063191223E1,2.732162476E0
7.773348034E0,-5.751037598E-2,-9.433914185E0,2.122817993E0
7.778322399E0,-1.058212280E0,-8.383300781E0,1.675872803E0
7.783296764E0,-1.781784058E0,-7.542587280E0,1.350326538E0
7.788271129E0,-2.358123779E0,-6.923828125E0,1.123870850E0
7.793245495E0,-2.811233521E0,-6.563903809E0,8.636474609E-1
7.798219860E0,-3.155349731E0,-6.472122192E0,5.415496826E-1
7.803194225E0,-3.465316772E0,-6.694763184E0,2.520751953E-1
7.808168590E0,-3.824020386E0,-7.218795776E0,3.424072266E-2
7.813142956E0,-4.044754028E0,-7.867355347E0,-6.343078613E-2
7.818117321E0,-3.991012573E0,-8.611129761E0,-6.437683105E-2
7.823091686E0,-3.642532349E0,-9.493087769E0,-1.492309570E-2
7.828066051E0,-2.983901978E0,-1.049578857E1,8.236694336E-2
7.833040416E0,-1.980773926E0,-1.150576782E1,1.815338135E-1
7.838014782E0,-8.230590820E-1,-1.234967041E1,3.157196045E-1
7.842989147E0,2.534790039E-1,-1.299537659E1,5.848541260E-1
7.847963512E0,1.222030640E0,-1.335774231E1,1.032440186E0
7.852937877E0,2.025192261E0,-1.331262207E1,1.643203735E0
7.857912243E0,2.519470215E0,-1.283505249E1,2.445770264E0
7.862886608E0,2.607162476E0,-1.197187805E1,3.350585938E0
7.867860973E0,2.300155640E0,-1.087931824E1,4.993194580E0
7.872835338E0,1.924636841E0,-9.380340576E0,6.602157593E0
7.877809704E0,1.405685425E0,-8.277908325E0,6.727828979E0
7.882784069E0,1.551467896E0,-7.682617188E0,6.507125854E0
7.887758434E0,1.321350098E0,-7.550598145E0,6.784744263E0
7.892732799E0,5.296325684E-2,-7.694305420E0,6.686019897E0
7.897707165E0,-1.136062622E0,-7.900512695E0,5.909210205E0
7.902681530E0,-1.887374878E0,-8.192916870E0,5.214279175E0
7.907655895E0,-2.503829956E0,-8.641586304E0,4.702575684E0
7.912630260E0,-3.033889771E0,-9.083755493E0,4.480224609E0
7.917604625E0,-3.434448242E0,-9.524719238E0,3.841751099E0
7.922578991E0,-3.592391968E0,-9.788101196E0,3.465591431E0
7.927553356E0,-3.058227539E0,-9.876007080E0,3.948837280E0
7.932527721E0,-2.309066772E0,-9.855194092E0,4.739089966E0
7.937502086E0,-1.833389282E0,-9.811187744E0,5.566390991E0
7.942476452E0,-1.462310791E0,-9.761489868E0,6.276611328E0
7.947450817E0,-1.230056763E0,-9.759780884E0,6.957260132E0
7.952425182E0,-1.459289551E0,-9.782531738E0,7.624313354E0
7.957399547E0,-2.031005859E0,-9.926437378E0,7.923950195E0
7.962373913E0,-2.392745972E0,-1.001177979E1,7.715072632E0
7.967348278E0,-2.465759277E0,-1.008000183E1,6.392929077E0
7.972322643E0,-2.894805908E0,-1.057592773E1,2.106994629E0
7.977297008E0,-2.630783081E0,-1.117626953E1,-1.694320679E0
7.982271374E0,-1.062637329E0,-1.127441406E1,-4.375274658E0
7.987245739E0,8.518676758E-1,-1.105062866E1,-5.241302490E0
7.992220104E0,-6.995239258E-1,-1.113510132E1,-5.413055420E0
7.997194469E0,-1.945541382E0,-1.067672729E1,-4.222366333E0
8.002168834E0,-1.890029907E0,-1.006614685E1,-1.757232666E0
8.007143200E0,-1.231872559E0,-9.554962158E0,6.290435791E-1
8.012117565E0,-4.997100830E-1,-8.992477417E0,2.772964478E0
8.017091930E0,-8.724975586E-2,-8.420700073E0,4.273620605E0
8.022066295E0,-1.130371094E-1,-8.048553467E0,4.895324707E0
8.027040661E0,-4.421081543E-1,-7.944427490E0,4.738510132E0
8.032015026E0,-9.500274658E-1,-8.153564453E0,4.006469727E0
8.036989391E0,-1.413742065E0,-8.480758667E0,3.031158447E0
8.041963756E0,-1.474716187E0,-8.710403442E0,2.114578247E0
8.046938122E0,-1.221054077E0,-8.801284790E0,1.647399902E0
8.051912487E0,-1.068847656E0,-8.853393555E0,1.610229492E0
8.056886852E0,-1.173767090E0,-8.897796631E0,1.709533691E0
8.061861217E0,-1.299316406E0,-8.797790527E0,1.814315796E0
8.066835583E0,-1.262435913E0,-8.742218018E0,1.978378296E0
8.071809948E0,-1.186233521E0,-8.801437378E0,2.065048218E0
8.076784313E0,-1.236618042E0,-9.148651123E0,2.280181885E0
8.081758678E0,-1.115219116E0,-9.211364746E0,2.400619507E0
8.086733043E0,-9.687194824E-1,-9.388031006E0,2.221328735E0
8.091707409E0,-1.002670288E0,-9.513214111E0,2.102706909E0
8.096681774E0,-9.633483887E-1,-9.447082520E0,1.787368774E0
8.101656139E0,-5.009307861E-1,-8.909637451E0,1.929702759E0
8.106630504E0,-1.658325195E-1,-8.212097168E0,2.375244141E0
8.111604870E0,-1.368255615E-1,-7.772247314E0,2.467468262E0
8.116579235E0,-2.471923828E-1,-7.606353760E0,2.470916748E0
8.121553600E0,-1.825866699E-1,-7.679321289E0,2.613586426E0
8.126527965E0,-3.869018555E-1,-8.032608032E0,2.718688965E0
8.131502331E0,-7.225036621E-1,-8.474304199E0,2.783828735E0
8.136476696E0,-1.086837769E0,-8.808227539E0,2.727401733E0
8.141451061E0,-1.235961914E0,-9.098495483E0,2.850753784E0
8.146425426E0,-1.444915771E0,-9.239089966E0,3.080703735E0
8.151399791E0,-1.717697144E0,-9.279403687E0,3.275634766E0
8.156374157E0,-1.673324585E0,-9.246017456E0,3.151367188E0
8.161348522E0,-1.579376221E0,-9.160339355E0,3.033096313E0
8.166322887E0,-1.436355591E0,-9.032882690E0,2.898040771E0
8.171297252E0,-1.305725098E0,-8.914611816E0,2.684844971E0
8.176271618E0,-1.237426758E0,-8.811126709E0,2.507904053E0
8.181245983E0,-1.319305420E0,-8.636520386E0,2.349929810E0
8.186220348E0,-1.295806885E0,-8.565124512E0,2.225326538E0
8.191194713E0,-1.207855225E0,-8.634094238E0,2.178039551E0
8.196169079E0,-1.193313599E0,-8.857894897E0,2.151519775E0
8.201143444E0,-1.287506104E0,-9.130783081E0,2.201629639E0
8.206117809E0,-1.346832275E0,-9.364685059E0,2.208038330E0
8.211092174E0,-1.456604004E0,-9.578048706E0,2.198730469E0
8.216066540E0,-1.621536255E0,-9.694961548E0,2.122177124E0
8.221040905E0,-1.737274170E0,-9.736709595E0,2.000427246E0
8.226015270E0,-1.875671387E0,-9.720230103E0,1.999374390E0
8.230989635E0,-2.018707275E0,-9.604553223E0,2.059509277E0
8.235964000E0,-2.140045166E0,-9.370605469E0,2.206268311E0
8.240938366E0,-2.218490601E0,-9.067367554E0,2.467330933E0
8.245912731E0,-2.248550415E0,-8.759552002E0,2.766906738E0
8.250887096E0,-2.271255493E0,-8.499893188E0,3.067764282E0
8.255861461E0,-2.407608032E0,-8.256942749E0,3.431411743E0
8.260835827E0,-2.555969238E0,-8.008178711E0,3.743270874E0
8.265810192E0,-2.559280396E0,-7.785644531E0,4.050567627E0
8.270784557E0,-2.462799072E0,-7.649002075E0,4.367492676E0
8.275758922E0,-2.324920654E0,-7.567001343E0,4.699340820E0
8.280733288E0,-2.192123413E0,-7.545059204E0,5.077117920E0
8.285707653E0,-2.135787964E0,-7.627349854E0,5.325515747E0
8.290682018E0,-1.987838745E0,-7.847198486E0,5.486007690E0
8.295656383E0,-1.899749756E0,-8.137680054E0,5.439361572E0
8.300630749E0,-1.841445923E0,-8.477096558E0,5.128295898E0
8.305605114E0,-1.849502563E0,-8.668563843E0,4.737106323E0
8.310579479E0,-1.814498901E0,-8.812271118E0,4.302001953E0
8.315553844E0,-1.752517700E0,-8.960525513E0,3.889877319E0
8.320528209E0,-1.666992188E0,-8.987960815E0,3.762496948E0
8.325502575E0,-1.756500244E0,-8.975921631E0,3.709213257E0
8.330476940E0,-1.883224487E0,-9.036361694E0,3.866622925E0
8.335451305E0,-1.869613647E0,-9.112411499E0,4.005706787E0
8.340425670E0,-1.759567261E0,-9.199325562E0,4.156875610E0
8.345400036E0,-1.568664551E0,-9.322296143E0,4.316268921E0
8.350374401E0,-1.322662354E0,-9.319473267E0,4.512100220E0
8.355348766E0,-1.029296875E0,-9.344604492E0,4.573776245E0
8.360323131E0,-7.510070801E-1,-9.177688599E0,4.640686035E0
8.365297497E0,-3.513641357E-1,-8.997543335E0,4.841766357E0
8.370271862E0,1.383972168E-2,-8.875610352E0,5.009796143E0
8.375246227E0,2.421722412E-1,-8.764572144E0,5.181198120E0
8.380220592E0,3.062133789E-1,-8.739028931E0,5.361999512E0
8.385194958E0,3.397064209E-1,-8.744201660E0,5.504287720E0
8.390169323E0,3.792572021E-1,-8.721694946E0,5.602050781E0
8.395143688E0,4.753417969E-1,-8.745208740E0,5.644775391E0
8.400118053E0,6.467742920E-1,-8.807861328E0,5.648147583E0
8.405092418E0,7.735443115E-1,-8.905029297E0,5.574417114E0
8.410066784E0,7.523956299E-1,-8.983276367E0,5.406158447E0
8.415041149E0,6.730499268E-1,-9.007171631E0,5.159042358E0
8.420015514E0,4.831542969E-1,-8.986602783E0,4.880264282E0
8.424989879E0,2.476501465E-1,-8.905685425E0,4.646987915E0
8.429964245E0,-5.418395996E-2,-8.821060181E0,4.584915161E0
8.434938610E0,-2.799377441E-1,-8.784027100E0,4.369445801E0
8.439912975E0,-3.872222900E-1,-8.768402100E0,3.899627686E0
8.444887340E0,-3.417816162E-1,-8.696350098E0,3.655120850E0
8.449861706E0,-1.996459961E-1,-8.572036743E0,3.611404419E0
8.454836071E0,2.137908936E-1,-8.429901123E0,3.343856812E0
8.459810436E0,7.797698975E-1,-8.263824463E0,2.717330933E0
8.464784801E0,1.311431885E0,-7.936584473E0,1.916748047E0
8.469759166E0,1.572814941E0,-7.544601440E0,1.094528198E0
8.474733532E0,1.627838135E0,-7.352142334E0,2.832336426E-1
8.479707897E0,1.791732788E0,-7.437927246E0,-2.017822266E-1
8.484682262E0,2.114410400E0,-7.786163330E0,-3.066253662E-1
8.489656627E0,2.309616089E0,-8.403839111E0,-1.930694580E-1
8.494630993E0,2.134246826E0,-9.428619385E0,-1.620788574E-1
8.499605358E0,1.361389160E0,-1.127001953E1,-2.296905518E-1
8.504579723E0,-1.879272461E-1,-1.417913818E1,-4.310607910E-1
8.509554088E0,-2.807754517E0,-1.791535950E1,3.887329102E-1
8.514528454E0,-5.452499390E0,-2.148339844E1,1.159912109E0
8.519502819E0,-7.509918213E0,-2.431562805E1,2.010833740E0
8.524477184E0,-8.875930786E0,-2.595114136E1,3.171844482E0
8.529451549E0,-8.776412964E0,-2.573472595E1,4.236785889E0
8.534425915E0,-6.535522461E0,-2.293928528E1,4.641281128E0
8.539400280E0,-3.135070801E0,-1.892536926E1,4.004058838E0
8.544374645E0,-5.172424316E-1,-1.591995239E1,2.307327271E0
8.549349010E0,5.934295654E-1,-1.422816467E1,7.804412842E-1
8.554323375E0,7.923278809E-1,-1.336985779E1,-2.008972168E-1
8.559297741E0,9.667663574E-1,-1.271243286E1,-6.417083740E-1
8.564272106E0,9.959259033E-1,-1.219108582E1,-8.447113037E-1
8.569246471E0,8.548889160E-1,-1.179602051E1,-1.162277222E0
8.574220836E0,8.698120117E-1,-1.144734192E1,-1.801742554E0
8.579195202E0,1.230377197E0,-1.113285828E1,-2.393478394E0
8.584169567E0,1.574234009E0,-1.086541748E1,-2.717346191E0
8.589143932E0,1.746307373E0,-1.069985962E1,-2.823165894E0
8.594118297E0,1.949584961E0,-1.055053711E1,-2.644195557E0
8.599092663E0,2.436920166E0,-1.035054016E1,-2.435531616E0
8.604067028E0,2.711761475E0,-1.014100647E1,-1.785888672E0
8.609041393E0,2.662765503E0,-9.953308105E0,-7.809295654E-1
8.614015758E0,2.427307129E0,-9.753967285E0,-1.124725342E-1
8.618990124E0,2.062316895E0,-9.517776489E0,3.837585449E-1
8.623964489E0,1.658340454E0,-9.296371460E0,8.952636719E-1
8.628938854E0,1.275222778E0,-9.167617798E0,1.290176392E0
8.633913219E0,1.016632080E0,-9.105819702E0,1.572097778E0
8.638887584E0,8.625793457E-1,-9.068893433E0,1.821716309E0
8.643861950E0,7.824707031E-1,-9.040618896E0,2.024322510E0
8.648836315E0,6.744842529E-1,-8.985641479E0,2.085739136E0
8.653810680E0,6.365966797E-1,-8.921859741E0,2.161743164E0
8.658785045E0,6.098175049E-1,-8.877746582E0,2.344940186E0
8.663759411E0,3.947906494E-1,-8.966278076E0,2.472442627E0
8.668733776E0,1.976318359E-1,-9.140655518E0,2.432510376E0
8.673708141E0,-3.731231689E-1,-9.134796143E0,2.130874634E0
8.678682506E0,4.690551758E-2,-8.811614990E0,2.073287964E0
8.683656872E0,6.000213623E-1,-8.486557007E0,1.825729370E0
8.688631237E0,7.977752686E-1,-8.257873535E0,1.729705811E0
8.693605602E0,6.361083984E-1,-8.184387207E0,1.839675903E0
8.698579967E0,8.799438477E-1,-8.040466309E0,1.733993530E0
8.703554333E0,8.820800781E-1,-7.953491211E0,1.627212524E0
8.708528698E0,1.044921875E0,-7.641540527E0,1.568313599E0
8.713503063E0,1.430953979E0,-7.288986206E0,1.484085083E0
8.718477428E0,1.375854492E0,-7.057144165E0,1.384994507E0
8.723451793E0,7.643585205E-1,-6.978347778E0,1.455474854E0
8.728426159E0,1.743774414E-1,-6.877288818E0,1.555053711E0
8.733400524E0,-4.053649902E-1,-6.904724121E0,1.427047729E0
8.738374889E0,-9.307098389E-1,-7.015808105E0,1.381591797E0
8.743349254E0,-1.342987061E0,-7.201248169E0,1.359298706E0
8.748323620E0,-1.725128174E0,-7.463485718E0,1.487365723E0
8.753297985E0,-2.021057129E0,-7.700119019E0,1.617736816E0
8.758272350E0,-2.189605713E0,-7.821838379E0,1.744232178E0
8.763246715E0,-2.204391479E0,-7.817184448E0,1.857192993E0
8.768221081E0,-2.024475098E0,-7.716735840E0,1.887741089E0
8.773195446E0,-1.843261719E0,-7.523010254E0,1.870010376E0
8.778169811E0,-1.789947510E0,-7.325057983E0,1.891510010E0
8.783144176E0,-1.738525391E0,-7.186889648E0,1.980316162E0
8.788118541E0,-1.544235229E0,-7.070465088E0,2.138641357E0
8.793092907E0,-1.291503906E0,-6.923431396E0,2.297134399E0
8.798067272E0,-1.023254395E0,-6.772216797E0,2.478698730E0
8.803041637E0,-7.538146973E-1,-6.684707642E0,2.692886353E0
8.808016002E0,-4.905548096E-1,-6.615783691E0,2.944076538E0
8.812990368E0,-2.570190430E-1,-6.565444946E0,3.195556641E0
8.817964733E0,3.860473633E-3,-6.591445923E0,3.457656860E0
8.822939098E0,2.758331299E-1,-6.670364380E0,3.714019775E0
8.827913463E0,6.708068848E-1,-6.766036987E0,3.959396362E0
8.832887829E0,1.170379639E0,-6.835418701E0,4.202651978E0
8.837862194E0,1.659988403E0,-6.842056274E0,4.436172485E0
8.842836559E0,2.007858276E0,-6.782150269E0,4.639801025E0
8.847810924E0,2.291564941E0,-6.740341187E0,4.792327881E0
8.852785290E0,2.605255127E0,-6.679046631E0,4.822082520E0
8.857759655E0,2.809829712E0,-6.657318115E0,4.704254150E0
8.862734020E0,2.939514160E0,-6.732055664E0,4.451217651E0
8.867708385E0,3.026290894E0,-6.891921997E0,4.134521484E0
8.872682750E0,3.238647461E0,-7.035690308E0,3.813171387E0
8.877657116E0,3.574874878E0,-7.100387573E0,3.620635986E0
8.882631481E0,3.952102661E0,-7.169052124E0,3.575515747E0
8.887605846E0,4.583358765E0,-7.242416382E0,3.793319702E0
8.892580211E0,5.444946289E0,-7.369873047E0,4.190048218E0
8.897554577E0,6.196151733E0,-7.575347900E0,4.959777832E0
8.902528942E0,6.770568848E0,-7.894226074E0,5.816741943E0
8.907503307E0,7.205490112E0,-8.212829590E0,6.618179321E0
8.912477672E0,7.381484985E0,-8.613021851E0,7.255004883E0
8.917452038E0,7.519683838E0,-8.992935181E0,7.692398071E0
8.922426403E0,7.283706665E0,-9.312301636E0,7.932083130E0
8.927400768E0,6.730987549E0,-9.542098999E0,8.057144165E0
8.932375133E0,6.087402344E0,-9.690872192E0,8.180740356E0
8.937349499E0,5.237304688E0,-9.775955200E0,8.379470825E0
8.942323864E0,4.311569214E0,-9.778320312E0,8.588577271E0
8.947298229E0,3.596252441E0,-9.658889771E0,8.733703613E0
8.952272594E0,3.062469482E0,-9.415283203E0,8.775390625E0
8.957246959E0,2.699798584E0,-9.129959106E0,8.602600098E0
8.962221325E0,2.572860718E0,-8.800537109E0,8.212051392E0
8.967195690E0,2.610549927E0,-8.531723022E0,7.536331177E0
8.972170055E0,2.699050903E0,-8.500946045E0,6.491210938E0
8.977144420E0,2.779129028E0,-8.625122070E0,5.029632568E0
8.982118786E0,2.760299683E0,-8.744171143E0,3.203369141E0
8.987093151E0,2.711746216E0,-9.084854126E0,1.266326904E0
8.992067516E0,2.514816284E0,-9.598571777E0,-4.011383057E-1
8.997041881E0,2.323852539E0,-1.002624512E1,-1.415206909E0
9.002016247E0,2.330154419E0,-1.039123535E1,-1.424591064E0
9.006990612E0,2.550048828E0,-1.090625000E1,-6.006011963E-1
9.011964977E0,3.025680542E0,-1.176113892E1,8.286895752E-1
9.016939342E0,3.464508057E0,-1.303349304E1,2.544677734E0
9.021913708E0,3.909057617E0,-1.462411499E1,3.981597900E0
9.026888073E0,4.175277710E0,-1.648435974E1,4.710845947E0
9.031862438E0,4.383270264E0,-1.814106750E1,4.697326660E0
9.036836803E0,3.775146484E0,-1.937187195E1,4.061080933E0
9.041811168E0,2.516876221E0,-1.991413879E1,3.117828369E0
9.046785534E0,1.293228149E0,-1.891926575E1,1.648559570E0
9.051759899E0,3.205871582E-2,-1.574299622E1,2.493591309E-1
9.056734264E0,-1.453643799E0,-1.200286865E1,-5.598907471E-1
9.061708629E0,-3.652877808E0,-8.792083740E0,-9.101715088E-1
9.066682995E0,-5.408309937E0,-6.331390381E0,-8.015899658E-1
9.071657360E0,-6.118606567E0,-4.671722412E0,-2.375030518E-1
9.076631725E0,-6.222076416E0,-3.771987915E0,4.254302979E-1
9.081606090E0,-5.852767944E0,-3.511962891E0,1.105102539E0
9.086580456E0,-4.869277954E0,-3.657318115E0,1.808975220E0
9.091554821E0,-4.080230713E0,-4.145309448E0,2.352783203E0
9.096529186E0,-3.710342407E0,-4.841476440E0,2.574172974E0
9.101503551E0,-3.718673706E0,-5.830291748E0,2.549240112E0
9.106477916E0,-3.868637085E0,-7.089553833E0,2.347946167E0
9.111452282E0,-3.882949829E0,-8.556533813E0,1.937652588E0
9.116426647E0,-3.503112793E0,-1.033581543E1,1.493301392E0
9.121401012E0,-2.607925415E0,-1.228762817E1,1.337173462E0
9.126375377E0,-1.590789795E0,-1.421731567E1,1.414428711E0
9.131349743E0,-6.096649170E-1,-1.592866516E1,1.538528442E0
9.136324108E0,-2.203826904E-1,-1.729048157E1,1.841567993E0
9.141298473E0,-3.504638672E-1,-1.805117798E1,2.126052856E0
9.146272838E0,-2.366333008E-1,-1.772998047E1,2.873062134E0
9.151247204E0,8.247833252E-1,-1.625991821E1,3.132797241E0
9.156221569E0,1.627853394E0,-1.395875549E1,2.302154541E0
9.161195934E0,1.330307007E0,-1.143609619E1,3.281250000E0
9.166170299E0,5.666961670E-1,-9.723846436E0,5.307510376E0
9.171144665E0,4.927062988E-2,-8.444488525E0,6.050628662E0
9.176119030E0,-8.741760254E-2,-7.371109009E0,5.487655640E0
9.181093395E0,-1.704254150E-1,-6.824066162E0,4.644927979E0
9.186067760E0,5.731201172E-2,-6.697814941E0,3.941711426E0
9.191042125E0,2.905426025E-1,-6.874404907E0,3.474670410E0
9.196016491E0,1.392974854E-1,-7.377197266E0,3.017807007E0
9.200990856E0,-2.182159424E-1,-8.143524170E0,2.733306885E0
9.205965221E0,-3.868103027E-1,-8.828460693E0,2.846054077E0
9.210939586E0,-3.751525879E-1,-9.394378662E0,3.362106323E0
9.215913952E0,-6.381835938E-1,-9.727493286E0,4.440856934E0
9.220888317E0,-1.064743042E0,-9.994705200E0,5.783416748E0
9.225862682E0,-6.220550537E-1,-1.016802979E1,6.840850830E0
9.230837047E0,-1.228775024E0,-1.073039246E1,6.608474731E0
9.235811413E0,-3.717132568E0,-1.126242065E1,8.425949097E0
9.240785778E0,-6.306213379E0,-1.153889465E1,1.050836182E1
9.245760143E0,-7.362197876E0,-1.157890320E1,1.000308228E1
9.250734508E0,-7.925445557E0,-1.161952209E1,8.611724854E0
9.255708874E0,-7.442749023E0,-1.144721985E1,6.803527832E0
9.260683239E0,-6.464950562E0,-1.131227112E1,2.599182129E0
9.265657604E0,-4.965255737E0,-1.145239258E1,-1.146133423E0
9.270631969E0,-2.915786743E0,-1.163694763E1,-3.268997192E0
9.275606334E0,-9.202880859E-1,-1.183433533E1,-3.861602783E0
9.280580700E0,6.086120605E-1,-1.114270020E1,-2.053527832E0
9.285555065E0,1.083648682E0,-9.858566284E0,6.289978027E-1
9.290529430E0,3.411254883E-1,-8.849060059E0,2.515274048E0
9.295503795E0,-1.276550293E-1,-8.133285522E0,3.390457153E0
9.300478161E0,-1.138305664E-1,-7.605514526E0,3.219497681E0
9.305452526E0,1.070098877E-1,-7.148010254E0,2.889999390E0
9.310426891E0,1.560974121E-2,-6.718872070E0,2.698593140E0
9.315401256E0,-1.457824707E-1,-6.484695435E0,2.186050415E0
9.320375622E0,-2.217864990E-1,-6.506469727E0,1.429595947E0
9.325349987E0,-1.074371338E-1,-6.663330078E0,8.613281250E-1
9.330324352E0,2.741851807E-1,-6.942596436E0,6.918334961E-1
9.335298717E0,3.377075195E-1,-7.315979004E0,8.664703369E-1
9.340273083E0,-3.826904297E-2,-7.838012695E0,1.178558350E0
9.345247448E0,-4.745178223E-1,-8.316864014E0,1.280578613E0
9.350221813E0,-2.303619385E-1,-8.479064941E0,1.190093994E0
9.355196178E0,1.368560791E-1,-8.600463867E0,1.186294556E0
9.360170543E0,4.150390625E-2,-8.751174927E0,1.358291626E0
9.365144909E0,-1.001739502E-1,-8.899246216E0,1.392730713E0
9.370119274E0,3.921508789E-3,-8.883209229E0,1.383071899E0
9.375093639E0,5.668640137E-2,-8.729187012E0,1.620025635E0
9.380068004E0,-3.344726562E-2,-8.554763794E0,2.008132935E0
9.385042370E0,-8.264160156E-2,-8.401779175E0,2.448532104E0
9.390016735E0,-2.152404785E-1,-8.289566040E0,2.768264771E0
9.394991100E0,-3.311462402E-1,-8.315399170E0,2.737075806E0
9.399965465E0,-5.025177002E-1,-8.429351807E0,2.660324097E0
9.404939831E0,-6.887359619E-1,-8.530792236E0,2.672256470E0
9.409914196E0,-8.226928711E-1,-8.424804688E0,2.936920166E0
9.414888561E0,-7.608947754E-1,-8.111053467E0,3.015365601E0
9.419862926E0,-5.341644287E-1,-7.878189087E0,3.064239502E0
9.424837291E0,-3.242797852E-1,-7.722396851E0,3.075775146E0
9.429811657E0,-4.829101562E-1,-7.601394653E0,3.183242798E0
9.434786022E0,-8.185577393E-1,-7.598052979E0,3.516235352E0
9.439760387E0,-1.132110596E0,-7.793136597E0,3.739685059E0
9.444734752E0,-1.196365356E0,-8.063400269E0,3.858062744E0
9.449709118E0,-1.451828003E0,-8.271209717E0,3.966583252E0
9.454683483E0,-1.540649414E0,-8.414733887E0,4.106842041E0
9.459657848E0,-1.791488647E0,-8.418167114E0,4.310913086E0
9.464632213E0,-1.866455078E0,-8.369873047E0,4.502288818E0
9.469606579E0,-1.849243164E0,-8.293441772E0,4.654708862E0
9.474580944E0,-1.734191895E0,-8.115814209E0,4.702835083E0
9.479555309E0,-1.642623901E0,-7.883209229E0,4.852920532E0
9.484529674E0,-1.447311401E0,-7.704330444E0,5.065109253E0
9.489504040E0,-1.236465454E0,-7.586257935E0,5.378097534E0
9.494478405E0,-1.009353638E0,-7.472900391E0,5.683364868E0
9.499452770E0,-6.932525635E-1,-7.422073364E0,5.838180542E0
9.504427135E0,-4.047393799E-1,-7.442337036E0,5.675170898E0
9.509401500E0,-2.091827393E-1,-7.565689087E0,5.308944702E0
9.514375866E0,-1.882019043E-1,-7.811691284E0,4.877273560E0
9.519350231E0,-2.241821289E-1,-8.064804077E0,4.318130493E0
9.524324596E0,-4.999084473E-1,-8.340606689E0,3.836547852E0
9.529298961E0,-9.697723389E-1,-8.588821411E0,3.491821289E0
9.534273327E0,-1.379455566E0,-8.816406250E0,3.134201050E0
9.539247692E0,-1.735061646E0,-9.081176758E0,3.030319214E0
9.544222057E0,-2.164886475E0,-9.312301636E0,3.283233643E0
9.549196422E0,-2.555511475E0,-9.519180298E0,3.696868896E0
9.554170788E0,-2.963638306E0,-9.698303223E0,4.133285522E0
9.559145153E0,-3.272003174E0,-9.783737183E0,4.513351440E0
9.564119518E0,-3.477279663E0,-9.793838501E0,4.903884888E0
9.569093883E0,-3.373657227E0,-9.746459961E0,5.313323975E0
9.574068249E0,-3.021667480E0,-9.549377441E0,5.627914429E0
9.579042614E0,-2.418685913E0,-9.243362427E0,5.878738403E0
9.584016979E0,-1.564071655E0,-8.850311279E0,6.067443848E0
9.588991344E0,-6.436462402E-1,-8.370758057E0,6.216033936E0
9.593965709E0,2.486114502E-1,-7.842117310E0,6.461761475E0
9.598940075E0,7.725524902E-1,-7.312683105E0,6.820495605E0
9.603914440E0,9.603271484E-1,-6.814773560E0,7.148284912E0
9.608888805E0,1.232055664E0,-6.616912842E0,7.184295654E0
9.613863170E0,1.283111572E0,-6.692291260E0,7.186676025E0
9.618837536E0,1.481170654E0,-7.079116821E0,6.999404907E0
9.623811901E0,1.607635498E0,-7.707092285E0,6.537414551E0
9.628786266E0,1.642669678E0,-8.319152832E0,6.030303955E0
9.633760631E0,1.572235107E0,-8.746826172E0,5.698455811E0
9.638734997E0,1.454772949E0,-9.147125244E0,5.377471924E0
9.643709362E0,1.211120605E0,-9.426010132E0,5.077377319E0
9.648683727E0,1.057800293E0,-9.516677856E0,4.756851196E0
9.653658092E0,8.986663818E-1,-9.509872437E0,4.386962891E0
9.658632458E0,8.566894531E-1,-9.549209595E0,3.761322021E0
9.663606823E0,9.515991211E-1,-9.507888794E0,3.039749146E0
9.668581188E0,1.215347290E0,-9.190795898E0,2.149383545E0
9.673555553E0,1.358245850E0,-8.896713257E0,1.156906128E0
9.678529918E0,1.466232300E0,-8.922729492E0,2.378540039E-1
9.683504284E0,1.337600708E0,-9.308639526E0,-6.384124756E-1
9.688478649E0,9.983215332E-1,-1.020239258E1,-1.527893066E0
9.693453014E0,6.656494141E-1,-1.155772400E1,-2.452743530E0
9.698427379E0,-1.409912109E-2,-1.364805603E1,-2.993850708E0
9.703401745E0,-1.801818848E0,-1.712001038E1,-2.560760498E0
9.708376110E0,-4.512634277E0,-2.170297241E1,-9.289245605E-1
9.713350475E0,-6.946807861E0,-2.620475769E1,9.291076660E-1
9.718324840E0,-8.302352905E0,-2.900604248E1,2.405471802E0
9.723299206E0,-8.021728516E0,-2.901435852E1,2.617523193E0
9.728273571E0,-5.374145508E0,-2.579402161E1,1.877014160E0
9.733247936E0,-1.548431396E0,-2.129301453E1,1.304748535E0
9.738222301E0,9.575958252E-1,-1.783564758E1,1.304534912E0
9.743196666E0,1.923583984E0,-1.565159607E1,1.267181396E0
9.748171032E0,1.989807129E0,-1.448832703E1,8.862304688E-1
9.753145397E0,1.830307007E0,-1.383171082E1,3.605499268E-1
9.758119762E0,1.951385498E0,-1.317449951E1,-1.791534424E-1
9.763094127E0,1.922134399E0,-1.254437256E1,-7.075042725E-1
9.768068493E0,1.539108276E0,-1.198936462E1,-9.335021973E-1
9.773042858E0,1.122573853E0,-1.155091858E1,-8.005218506E-1
9.778017223E0,1.121597290E0,-1.117720032E1,-7.608489990E-1
9.782991588E0,1.642150879E0,-1.065554810E1,-8.079528809E-1
9.787965954E0,2.417770386E0,-1.010005188E1,-9.279174805E-1
9.792940319E0,2.873443604E0,-9.676223755E0,-9.912261963E-1
9.797914684E0,2.891799927E0,-9.320663452E0,-6.584014893E-1
9.802889049E0,3.195312500E0,-8.993759155E0,-1.852569580E-1
9.807863415E0,3.282943726E0,-8.773208618E0,1.068267822E-1
9.812837780E0,2.738906860E0,-8.788192749E0,1.780090332E-1
9.817812145E0,3.755844116E0,-7.932586670E0,1.346435547E-1
9.822786510E0,5.015075684E0,-7.153396606E0,-3.526153564E-1
9.827760875E0,3.619720459E0,-7.985977173E0,-1.367034912E-1
9.832735241E0,2.715332031E0,-8.749450684E0,2.941894531E-1
9.837709606E0,1.607131958E0,-9.248214722E0,1.049957275E0
9.842683971E0,1.291610718E0,-9.278198242E0,1.189758301E0
9.847658336E0,5.375518799E-1,-9.431640625E0,2.618560791E-1
9.852632702E0,-1.127471924E-1,-9.449447632E0,-4.798889160E-2
9.857607067E0,-3.611755371E-1,-9.363265991E0,-2.578735352E-3
9.862581432E0,-7.313690186E-1,-9.360534668E0,3.494262695E-2
9.867555797E0,-9.412231445E-1,-9.395904541E0,1.827697754E-1
9.872530163E0,-6.709899902E-1,-9.293518066E0,4.141235352E-1
9.877504528E0,4.342651367E-2,-9.052658081E0,4.963073730E-1
9.882478893E0,5.546264648E-1,-8.731430054E0,3.605804443E-1
9.887453258E0,7.859954834E-1,-8.374588013E0,3.161163330E-1
9.892427624E0,6.208648682E-1,-8.163345337E0,3.605499268E-1
9.897401989E0,2.714538574E-1,-7.993606567E0,4.824523926E-1
9.902376354E0,3.512573242E-2,-7.764266968E0,7.510223389E-1
9.907350719E0,-1.742401123E-1,-7.478073120E0,1.017120361E0
9.912325084E0,-3.308258057E-1,-7.131988525E0,1.269134521E0
9.917299450E0,-5.014801025E-1,-6.764495850E0,1.499237061E0
9.922273815E0,-9.141998291E-1,-6.461700439E0,1.721817017E0
9.927248180E0,-1.584243774E0,-6.194458008E0,1.919357300E0
9.932222545E0,-2.029602051E0,-5.845901489E0,2.132385254E0
9.937196911E0,-2.132736206E0,-5.568405151E0,2.313140869E0
9.942171276E0,-2.216949463E0,-5.512741089E0,2.348678589E0
9.947145641E0,-2.427688599E0,-5.672912598E0,2.213699341E0
9.952120006E0,-2.656539917E0,-5.964111328E0,2.128387451E0
9.957094372E0,-2.895248413E0,-6.223098755E0,2.166381836E0
9.962068737E0,-2.778869629E0,-6.348937988E0,2.205383301E0
9.967043102E0,-2.672851562E0,-6.434143066E0,2.255844116E0
9.972017467E0,-2.676132202E0,-6.509155273E0,2.269927979E0
9.976991833E0,-2.585128784E0,-6.564849854E0,2.324295044E0
9.981966198E0,-2.188720703E0,-6.568328857E0,2.388977051E0
9.986940563E0,-1.857833862E0,-6.624893188E0,2.366165161E0
9.991914928E0,-1.566604614E0,-6.743057251E0,2.239135742E0
9.996889293E0,-1.264038086E0,-6.894622803E0,2.055282593E0
1.000186366E1,-1.034347534E0,-7.067214966E0,1.925094604E0
1.000683802E1,-8.366241455E-1,-7.190383911E0,1.957595825E0
1.001181239E1,-4.358978271E-1,-7.263031006E0,2.106277466E0
1.001678675E1,7.803344727E-2,-7.323287964E0,2.312088013E0
1.002176112E1,6.364746094E-1,-7.318359375E0,2.568771362E0
1.002673549E1,1.180404663E0,-7.214706421E0,2.863891602E0
1.003170985E1,1.738861084E0,-7.066894531E0,3.271408081E0
1.003668422E1,2.191116333E0,-6.854354858E0,3.763992310E0
1.004165858E1,2.453170776E0,-6.542526245E0,4.195938110E0
1.004663295E1,2.914459229E0,-6.249008179E0,4.589416504E0
1.005160731E1,3.470016479E0,-6.076660156E0,4.920959473E0
1.005658168E1,4.067581177E0,-6.037841797E0,5.229232788E0
1.006155604E1,4.606079102E0,-6.080856323E0,5.588012695E0
1.006653041E1,5.171127319E0,-6.184844971E0,5.970916748E0
1.007150477E1,5.751205444E0,-6.359085083E0,6.417053223E0
1.007647914E1,6.419967651E0,-6.586303711E0,7.006866455E0
1.008145350E1,7.133743286E0,-6.898681641E0,7.773605347E0
1.008642787E1,7.903244019E0,-7.371200562E0,8.494857788E0
1.009140223E1,8.843521118E0,-8.089538574E0,9.085998535E0
1.009637660E1,9.830581665E0,-9.160919189E0,9.445846558E0
1.010135096E1,1.035250854E1,-1.042082214E1,9.457336426E0
1.010632533E1,1.020417786E1,-1.150437927E1,9.143478394E0
1.011129969E1,9.344909668E0,-1.219479370E1,8.779373169E0
1.011627406E1,7.948074341E0,-1.248300171E1,8.664184570E0
1.012124842E1,6.367019653E0,-1.239262390E1,8.773071289E0
1.012622279E1,4.735733032E0,-1.195994568E1,8.915756226E0
1.013119716E1,3.249832153E0,-1.125222778E1,8.995147705E0
1.013617152E1,2.252914429E0,-1.037115479E1,8.939346313E0
1.014114588E1,1.756637573E0,-9.428573608E0,8.676361084E0
1.014612025E1,1.707870483E0,-8.473831177E0,8.096466064E0
1.015109462E1,2.057846069E0,-7.619277954E0,6.981750488E0
1.015606898E1,2.721069336E0,-6.870422363E0,5.247253418E0
1.016104335E1,3.584884644E0,-6.439666748E0,3.237442017E0
1.016601771E1,4.439361572E0,-6.647918701E0,1.324005127E0
1.017099208E1,5.042877197E0,-7.743225098E0,-6.174621582E-1
1.017596644E1,3.609390259E0,-9.140380859E0,-2.443740845E0
1.018094081E1,1.143081665E0,-1.010795593E1,-3.797943115E0
1.018591517E1,-1.418151855E-1,-1.055340576E1,-4.303588867E0
1.019088954E1,-2.978668213E-1,-1.057116699E1,-4.077041626E0
1.019586390E1,7.829284668E-2,-1.051704407E1,-2.898056030E0
1.020083827E1,1.110702515E0,-1.081491089E1,-7.654571533E-1
1.020581263E1,1.995056152E0,-1.181561279E1,1.768096924E0
1.021078700E1,3.132492065E0,-1.344262695E1,3.978515625E0
1.021576136E1,3.891021729E0,-1.536222839E1,5.348815918E0
1.022073573E1,4.879364014E0,-1.736331177E1,5.648513794E0
1.022571009E1,5.421478271E0,-1.966732788E1,5.533538818E0
1.023068446E1,4.682189941E0,-2.198283386E1,5.636184692E0
1.023565882E1,4.501510620E0,-2.344506836E1,5.546066284E0
1.024063319E1,3.002090454E0,-2.283007812E1,4.612731934E0
1.024560756E1,-8.015747070E-1,-1.895652771E1,2.535232544E0
1.025058192E1,-4.071685791E0,-1.378698730E1,1.614685059E-1
1.025555629E1,-6.870681763E0,-1.007795715E1,-2.054885864E0
1.026053065E1,-9.196945190E0,-7.840454102E0,-3.512710571E0
1.026550502E1,-1.013516235E1,-6.030563354E0,-3.371795654E0
1.027047938E1,-9.870742798E0,-4.183685303E0,-2.211074829E0
