"Time (s)","Acceleration x (m/s^2)","Acceleration y (m/s^2)","Acceleration z (m/s^2)"
3.347406300E-2,-3.766901016E0,2.405683994E0,9.840782166E0
3.596208400E-2,-3.671188116E0,2.470290184E0,9.867103577E0
3.844963600E-2,-3.601796389E0,2.491825581E0,9.881460190E0
4.093682300E-2,-3.534797192E0,2.539682150E0,9.800104141E0
4.342442700E-2,-3.496512175E0,2.592324257E0,9.718748093E0
4.591203100E-2,-3.491726398E0,2.685644388E0,9.620343208E0
4.840005200E-2,-3.465405464E0,2.738286495E0,9.481559753E0
5.088760400E-2,-3.419642687E0,2.781357288E0,9.342776299E0
5.337479200E-2,-3.431606770E0,2.870190859E0,9.192028046E0
5.586281300E-2,-3.412464142E0,2.925225735E0,9.045766830E0
5.835036500E-2,-3.405285835E0,2.997010469E0,8.859127045E0
6.083755200E-2,-3.426821232E0,3.056830883E0,8.713164330E0
6.332515600E-2,-3.441178083E0,3.075973511E0,8.538188934E0
7.825067700E-2,-3.558725595E0,3.016152859E0,7.640581608E0
8.073869800E-2,-3.580260992E0,3.006581545E0,7.537690639E0
8.322671900E-2,-3.580260992E0,2.980260611E0,7.415357590E0
8.571385400E-2,-3.599403381E0,2.946761131E0,7.343572617E0
8.820104200E-2,-3.580260992E0,2.989831924E0,7.298109055E0
9.068906300E-2,-3.601796389E0,2.975475073E0,7.283751965E0
9.317703100E-2,-3.616153240E0,3.004188776E0,7.281359196E0
9.566421900E-2,-3.635295868E0,3.032902718E0,7.305287361E0
9.815140600E-2,-3.618546009E0,3.044866800E0,7.367500782E0
1.006394270E-1,-3.647259951E0,3.092723370E0,7.427321434E0
1.031273960E-1,-3.630510092E0,3.138186932E0,7.492226601E0
1.056145840E-1,-3.620938778E0,3.147758245E0,7.590332508E0
1.081017710E-1,-3.587439299E0,3.181257725E0,7.686045647E0
1.105897920E-1,-3.582653761E0,3.205185890E0,7.812865257E0
1.130777610E-1,-3.549154282E0,3.226721287E0,7.846364498E0
1.155649480E-1,-3.484548092E0,3.238685369E0,7.975576878E0
1.180521360E-1,-3.458226919E0,3.236292601E0,8.085946083E0
1.205401560E-1,-3.414856911E0,3.238685369E0,8.241478920E0
1.230281250E-1,-3.357429266E0,3.226721287E0,8.380263329E0
1.255153130E-1,-2.962613583E0,2.848356247E0,8.511868477E0
1.280025000E-1,-2.854637384E0,2.838784933E0,8.478368759E0
1.304905210E-1,-2.900400162E0,3.004188776E0,8.485547066E0
1.329784900E-1,-2.979363203E0,3.032902718E0,8.612666130E0
1.354656770E-1,-3.134896755E0,3.085544825E0,8.734700203E0
1.379528650E-1,-3.283251762E0,3.111865759E0,8.828020096E0
1.404408860E-1,-3.405285835E0,3.214757204E0,8.895019531E0
1.429288540E-1,-3.455834150E0,3.293720484E0,8.945268631E0
1.454160420E-1,-3.463012457E0,3.329612732E0,8.959625244E0
1.479032290E-1,-3.494119167E0,3.351148129E0,8.966803551E0
1.503912500E-1,-3.503690481E0,3.355933666E0,8.940483093E0
1.528792190E-1,-3.498904943E0,3.399004459E0,8.899805069E0
1.553664060E-1,-3.494119167E0,3.430410385E0,8.926125526E0
1.578535420E-1,-3.472583771E0,3.471088409E0,8.945268631E0
1.603415630E-1,-3.400500059E0,3.475873947E0,8.947661400E0
1.628295840E-1,-3.333501101E0,3.449553013E0,8.916554451E0
1.653167710E-1,-3.307179928E0,3.420539856E0,8.892625809E0
1.678039060E-1,-3.264109135E0,3.394218922E0,8.861519814E0
1.702919270E-1,-3.225824118E0,3.389433384E0,8.796913147E0
1.727799480E-1,-3.201895714E0,3.382254839E0,8.758627892E0
1.752671360E-1,-3.173182011E0,3.413361549E0,8.710771561E0
1.777543230E-1,-3.187538862E0,3.396611691E0,8.643773079E0
1.802423440E-1,-3.199502945E0,3.367897987E0,8.578866959E0
1.827303130E-1,-3.230609655E0,3.370290756E0,8.492725372E0
1.852174480E-1,-3.283251762E0,3.387040377E0,8.397012711E0
1.877046360E-1,-3.302394390E0,3.389433384E0,8.349156380E0
1.901926560E-1,-3.316751242E0,3.415754318E0,8.263014793E0
1.926806770E-1,-3.321537018E0,3.456731319E0,8.205587387E0
1.951678130E-1,-3.352643728E0,3.483052492E0,8.143373489E0
1.976550000E-1,-3.374179125E0,3.540480137E0,8.095517159E0
2.001430210E-1,-3.388535976E0,3.605086327E0,8.038089752E0
2.026309900E-1,-3.383750439E0,3.640978813E0,7.985148430E0
2.051181770E-1,-3.422035456E0,3.674478292E0,7.944470406E0
2.076053650E-1,-3.443570852E0,3.698406458E0,7.918148994E0
2.100933860E-1,-3.470191002E0,3.736691713E0,7.939684868E0
2.125813540E-1,-3.501297712E0,3.751048565E0,7.966005802E0
2.150685420E-1,-3.539582968E0,3.765405416E0,8.054839134E0
2.175557290E-1,-3.580260992E0,3.774976730E0,8.121838570E0
2.200437500E-1,-3.587439299E0,3.748655796E0,8.205587387E0
2.225317190E-1,-3.594617844E0,3.746263027E0,8.267800331E0
2.250189060E-1,-3.582653761E0,3.712763548E0,8.358727455E0
2.275060940E-1,-3.553939819E0,3.669692516E0,8.456833839E0
2.299941150E-1,-3.503690481E0,3.674478292E0,8.516654015E0
2.324820840E-1,-3.446262836E0,3.629014730E0,8.564510345E0
2.349692710E-1,-3.374179125E0,3.588336706E0,8.593523026E0
2.374564590E-1,-3.326322556E0,3.550051451E0,8.662915230E0
2.399444790E-1,-3.295215845E0,3.521337509E0,8.677271843E0
2.424324480E-1,-3.266501904E0,3.468695641E0,8.701200485E0
2.449196360E-1,-3.259323597E0,3.428017616E0,8.746664047E0
2.474068230E-1,-3.285644531E0,3.370290756E0,8.780163765E0
2.498948440E-1,-3.319144011E0,3.305684566E0,8.844769478E0
2.523828130E-1,-3.319144011E0,3.243471146E0,8.909376144E0
2.548700000E-1,-3.225824118E0,3.008974552E0,8.887840271E0
2.573571880E-1,-3.209074259E0,2.889333248E0,8.902197838E0
2.598452090E-1,-3.278466225E0,2.874976397E0,8.954839706E0
2.623331770E-1,-3.359822035E0,2.850749016E0,9.088837624E0
2.648203650E-1,-3.470191002E0,2.822035313E0,9.263813019E0
2.673075000E-1,-3.575475216E0,2.812463999E0,9.407382011E0
2.697955210E-1,-3.690330744E0,2.783750057E0,9.531808853E0
2.722835420E-1,-3.759722471E0,2.759821892E0,9.677771568E0
2.747706770E-1,-3.809971809E0,2.711965322E0,9.716355324E0
2.772578650E-1,-3.838685751E0,2.659323215E0,9.757033348E0
2.797458860E-1,-3.848257065E0,2.580360174E0,9.778569221E0
2.822339060E-1,-3.860221148E0,2.496611357E0,9.747462273E0
2.847210420E-1,-3.862613916E0,2.422433853E0,9.701699257E0
2.872082290E-1,-3.853042603E0,2.362613201E0,9.649057388E0
2.896962500E-1,-3.826721668E0,2.314756870E0,9.586843491E0
2.921842710E-1,-3.812364578E0,2.261815548E0,9.479166985E0
2.946714060E-1,-3.774079561E0,2.235494614E0,9.376275063E0
2.971585940E-1,-3.771686792E0,2.259422779E0,9.261420250E0
2.996466150E-1,-3.697509289E0,2.261815548E0,9.139086723E0
3.021345840E-1,-3.656831264E0,2.302792788E0,9.036195755E0
3.046217710E-1,-3.589832067E0,2.381755829E0,8.933303833E0
3.071089590E-1,-3.546761274E0,2.494218588E0,8.844769478E0
3.095969790E-1,-3.491726398E0,2.628216505E0,8.756235123E0
3.120849480E-1,-3.431606770E0,2.771785975E0,8.691629410E0
3.145721360E-1,-3.376571894E0,2.930011272E0,8.622237206E0
3.170593230E-1,-3.331108332E0,3.004188776E0,8.562117577E0
3.195473440E-1,-3.185146093E0,2.934797049E0,8.356334686E0
3.220353130E-1,-3.091825962E0,3.174079180E0,8.184051514E0
3.245225000E-1,-3.034398317E0,3.382254839E0,8.105088234E0
3.270096880E-1,-3.039183855E0,3.573979616E0,8.100302696E0
3.294977090E-1,-3.022433996E0,3.636193037E0,8.085946083E0
3.319856770E-1,-3.067897797E0,3.571586847E0,7.999505043E0
3.344728650E-1,-2.948256493E0,3.660121441E0,7.832007408E0
3.369600520E-1,-2.579462767E0,3.669692516E0,7.312466145E0
3.394480730E-1,-2.605783939E0,3.719941854E0,7.192824841E0
3.419360420E-1,-2.859423161E0,3.765405416E0,7.475477219E0
3.444232290E-1,-3.166003466E0,3.803690672E0,7.559226036E0
3.469104170E-1,-3.359822035E0,3.806083441E0,7.623832226E0
3.493984380E-1,-3.410071373E0,3.825226068E0,7.650153160E0
3.518864060E-1,-3.412464142E0,3.774976730E0,7.678866863E0
3.543735940E-1,-3.484548092E0,3.698406458E0,7.832007408E0
3.568607810E-1,-3.551547050E0,3.617050648E0,7.956434250E0
3.593488020E-1,-3.611367464E0,3.550051451E0,8.085946083E0
3.618367710E-1,-3.623331785E0,3.468695641E0,8.152944565E0
3.643239590E-1,-3.668795347E0,3.382254839E0,8.217551231E0
3.668110940E-1,-3.668795347E0,3.274577856E0,8.253443718E0
3.692991150E-1,-3.719044685E0,3.159722328E0,8.320442200E0
3.717871360E-1,-3.723830223E0,3.049652576E0,8.392227173E0
3.742742710E-1,-3.747758389E0,2.973082066E0,8.437690735E0
3.767614590E-1,-3.716651678E0,2.891726255E0,8.495118141E0
3.792494790E-1,-3.731008768E0,2.795714140E0,8.542975426E0
3.817375000E-1,-3.771686792E0,2.733500719E0,8.634201050E0
3.842246360E-1,-3.802793503E0,2.697608471E0,8.679664612E0
3.867118230E-1,-3.812364578E0,2.673680305E0,8.741878510E0
3.891998440E-1,-3.843471289E0,2.640180588E0,8.825627327E0
3.916878130E-1,-3.778865099E0,2.542074919E0,8.909376144E0
3.941750000E-1,-3.640081406E0,2.400898457E0,8.990732193E0
3.966621880E-1,-3.721437454E0,2.499004126E0,9.055337906E0
3.991502090E-1,-3.690330744E0,2.585145712E0,9.086444855E0
4.016381770E-1,-3.630510092E0,2.649751902E0,9.115159035E0
4.041253650E-1,-3.606581926E0,2.697608471E0,9.156135559E0
4.066125520E-1,-3.582653761E0,2.743072033E0,9.182456970E0
4.091005730E-1,-3.513261795E0,2.817249537E0,9.237491608E0
4.115885420E-1,-3.441178083E0,2.886940479E0,9.266205788E0
4.140757290E-1,-3.359822035E0,2.973082066E0,9.282955170E0
4.165629170E-1,-3.302394390E0,3.047259569E0,9.309276581E0
4.190509380E-1,-3.213859797E0,3.133401155E0,9.326025963E0
4.215389060E-1,-3.154039383E0,3.217149973E0,9.395418167E0
4.240260940E-1,-3.067897797E0,3.291327477E0,9.433703423E0
4.265132810E-1,-2.984148979E0,3.379862070E0,9.462417603E0
4.290013020E-1,-2.917150021E0,3.480659723E0,9.471988678E0
4.314892710E-1,-2.861815929E0,3.542873144E0,9.469595909E0
4.339764590E-1,-2.749353170E0,3.643371582E0,9.388239861E0
4.364636460E-1,-2.689532757E0,3.672085524E0,9.369096756E0
4.389516670E-1,-2.593819857E0,3.717549086E0,9.361918449E0
4.414396360E-1,-2.435893536E0,3.729513168E0,9.306883812E0
4.439268230E-1,-2.313560486E0,3.715156317E0,9.263813019E0
4.464140110E-1,-2.234597206E0,3.729513168E0,9.211171150E0
4.489020310E-1,-2.141277075E0,3.734298944E0,9.160921097E0
4.513900000E-1,-2.091027975E0,3.693620920E0,9.100801468E0
4.538771360E-1,-2.086242199E0,3.674478292E0,9.043374062E0
4.563643750E-1,-2.067099571E0,3.590729475E0,9.060123444E0
4.588523960E-1,-2.117348909E0,3.499802113E0,9.021839142E0
4.613403650E-1,-2.107777596E0,3.396611691E0,9.019445419E0
4.638275000E-1,-2.114956141E0,3.276970625E0,9.031410217E0
4.663146880E-1,-2.184347868E0,3.152543783E0,9.067302704E0
4.688027090E-1,-2.222633123E0,3.023331404E0,9.134301186E0
4.712907290E-1,-2.256132603E0,2.874976397E0,9.184849739E0
4.737778650E-1,-2.287239313E0,2.747857809E0,9.266205788E0
4.762650520E-1,-2.294417858E0,2.599502802E0,9.335597992E0
4.787530730E-1,-2.301596165E0,2.470290184E0,9.464810371E0
4.812410420E-1,-2.318346024E0,2.312364101E0,9.586843491E0
4.837282290E-1,-2.330609322E0,2.134995937E0,9.757033348E0
4.862154170E-1,-2.354537487E0,1.998605132E0,9.919745445E0
4.887034380E-1,-2.390429735E0,1.890928149E0,1.011595726E1
4.911914060E-1,-2.414358139E0,1.766501307E0,1.030050373E1
4.936785940E-1,-2.478964329E0,1.627418518E0,1.044407272E1
4.961657810E-1,-2.533999205E0,1.538884044E0,1.061396313E1
4.986538020E-1,-2.557927370E0,1.498206019E0,1.073360443E1
5.011417710E-1,-2.600998163E0,1.431207061E0,1.082483101E1
5.036289590E-1,-2.634497643E0,1.407278776E0,1.096600723E1
5.061161460E-1,-2.589034081E0,1.361815214E0,1.104975605E1
5.086041670E-1,-2.569891453E0,1.373779297E0,1.110479069E1
5.110921360E-1,-2.553141832E0,1.388136268E0,1.116461182E1
5.135793230E-1,-2.526820660E0,1.438385487E0,1.122921753E1
5.160665110E-1,-2.490928411E0,1.452742457E0,1.127468109E1
5.185545310E-1,-2.452643156E0,1.474277854E0,1.126511002E1
5.210425000E-1,-2.490928411E0,1.404886007E0,1.125314617E1
5.235296880E-1,-2.541177750E0,1.270887971E0,1.125553894E1
5.260168750E-1,-2.536391973E0,1.268495083E0,1.109761238E1
5.285048960E-1,-2.476571321E0,1.280459166E0,1.092532921E1
5.309928650E-1,-2.467000246E0,1.311565876E0,1.076471043E1
5.334800520E-1,-2.493321180E0,1.349851131E0,1.060199928E1
5.359672400E-1,-2.476571321E0,1.380957723E0,1.046800041E1
5.384552610E-1,-2.447857618E0,1.445564032E0,1.037228775E1
5.409432290E-1,-2.325823545E0,1.519741535E0,1.031486034E1
5.434303650E-1,-2.198704958E0,1.634596944E0,1.025474072E1
5.459175520E-1,-2.131705761E0,1.672882080E0,1.022841930E1
5.484055730E-1,-2.169991016E0,1.653739572E0,1.034836006E1
5.508935940E-1,-2.191526413E0,1.706381679E0,1.037946606E1
5.533807290E-1,-2.205883265E0,1.723131418E0,1.043210888E1
5.558679170E-1,-2.241775751E0,1.749751568E0,1.043689442E1
5.583559380E-1,-2.232204437E0,1.749751568E0,1.041775131E1
5.608439060E-1,-2.225025892E0,1.711167336E0,1.039382362E1
5.633310940E-1,-2.217847586E0,1.672882080E0,1.038185883E1
5.658182810E-1,-2.225025892E0,1.620239973E0,1.037946606E1
5.683063020E-1,-2.272882462E0,1.567597985E0,1.040578747E1
5.707942710E-1,-2.378465652E0,1.498206019E0,1.043689442E1
5.732814590E-1,-2.474178553E0,1.445564032E0,1.045364380E1
5.757686460E-1,-2.634497643E0,1.366600871E0,1.041535854E1
5.782566670E-1,-2.763710260E0,1.273280740E0,1.033639526E1
5.807446360E-1,-2.929114103E0,1.182353497E0,1.024277687E1
5.832318230E-1,-3.089433193E0,1.048056364E0,1.013270664E1
5.857190110E-1,-3.273680449E0,9.403793216E-1,1.000588703E1
5.882070310E-1,-3.393321514E0,8.303094506E-1,9.886245728E0
5.906950000E-1,-3.561118364E0,7.417750359E-1,9.766604424E0
5.931821880E-1,-3.692723513E0,6.556333899E-1,9.668199539E0
5.956693750E-1,-3.798007727E0,5.811567903E-1,9.584450722E0
5.981573960E-1,-3.896113396E0,5.620142221E-1,9.421739578E0
6.006453650E-1,-3.893720627E0,5.309075117E-1,9.232706070E0
6.031325520E-1,-3.860221148E0,5.404788256E-1,9.031410217E0
6.056197400E-1,-3.802793503E0,5.620142221E-1,8.799305916E0
6.081077610E-1,-3.699902058E0,6.269195080E-1,8.569295883E0
6.105957290E-1,-3.522833109E0,7.106683254E-1,8.368298531E0
6.130828650E-1,-3.295215845E0,7.585247755E-1,8.162516594E0
6.155700520E-1,-3.012862921E0,7.944171429E-1,7.963613033E0
6.180580730E-1,-2.900400162E0,8.111668825E-1,7.963613033E0
6.205460940E-1,-2.778067112E0,7.896314859E-1,8.047660828E0
6.230332290E-1,-2.763710260E0,4.567300081E-1,7.944470406E0
6.255204170E-1,-2.615355253E0,2.748754919E-1,7.803293705E0
6.280084380E-1,-2.333002090E0,2.006980032E-1,7.556832790E0
6.304964060E-1,-2.091027975E0,1.671984792E-1,7.429714203E0
6.329835940E-1,-1.832603097E0,1.624128371E-1,7.410571575E0
6.354707810E-1,-1.628913999E0,1.815554202E-1,7.372286797E0
6.379588020E-1,-1.403988719E0,2.030908167E-1,7.362715244E0
6.404467710E-1,-1.202991605E0,2.533400953E-1,7.369893551E0
6.429339590E-1,-9.897312522E-1,3.562314808E-1,7.396214962E0
6.454211460E-1,-8.054839373E-1,4.447658956E-1,7.448856831E0
6.479091670E-1,-6.137589812E-1,5.835496187E-1,7.403393269E0
6.503971360E-1,-4.366901219E-1,7.513462901E-1,7.367500782E0
6.528843230E-1,-3.218346536E-1,9.499505758E-1,7.398607731E0
6.553715110E-1,-2.763710022E-1,1.119840980E0,7.499405384E0
6.578595310E-1,-2.691925466E-1,1.311565876E0,7.654938698E0
6.603475000E-1,-2.644068897E-1,1.536491275E0,7.820043564E0
6.628346880E-1,-2.811566591E-1,1.742573142E0,7.963613033E0
6.653218750E-1,-3.242274821E-1,1.936391711E0,8.229515076E0
6.678098960E-1,-3.649054468E-1,2.197209358E0,8.710771561E0
6.702978650E-1,-4.271188378E-1,2.420041084E0,9.194420815E0
6.727850520E-1,-4.534398913E-1,2.637787819E0,9.704092026E0
6.752722400E-1,-4.749752879E-1,2.802892685E0,1.024995518E1
6.777602610E-1,-5.204389095E-1,2.910868645E0,1.084636593E1
6.802482290E-1,-5.252245665E-1,2.963510752E0,1.138235855E1
6.827354170E-1,-4.630111754E-1,3.011367321E0,1.180618668E1
6.852225520E-1,-3.960121572E-1,3.011367321E0,1.214626694E1
6.877105730E-1,-3.457628787E-1,3.006581545E0,1.242383385E1
6.901985940E-1,-3.170489967E-1,2.985046148E0,1.267537975E1
6.926857290E-1,-3.744767308E-1,3.049652576E0,1.286919880E1
6.951729170E-1,-3.457628787E-1,2.987439156E0,1.296491146E1
6.976609380E-1,-2.883351147E-1,2.877369165E0,1.289551926E1
7.001489060E-1,-2.404786795E-1,2.735893488E0,1.279023552E1
7.026360940E-1,-1.950150430E-1,2.599502802E0,1.266820145E1
7.051232810E-1,-1.615155339E-1,2.475075960E0,1.253181076E1
7.076113020E-1,-1.567298770E-1,2.400898457E0,1.236640644E1
7.100992710E-1,-1.854437590E-1,2.280958176E0,1.213669586E1
7.125864590E-1,-2.141576260E-1,2.139781713E0,1.188275719E1
7.150736460E-1,-2.667997181E-1,2.017747641E0,1.156451225E1
7.175616670E-1,-3.194418252E-1,1.871785522E0,1.124357414E1
7.200496360E-1,-3.864408433E-1,1.730309844E0,1.088943672E1
7.225368230E-1,-4.031906128E-1,1.601097465E0,1.049671459E1
7.250240110E-1,-4.007977843E-1,1.438385487E0,1.006092167E1
7.275120310E-1,-4.271188378E-1,1.337886930E0,9.656235695E0
7.300000000E-1,-3.960121572E-1,1.223031521E0,9.268598557E0
7.324871880E-1,-3.768695593E-1,1.131805062E0,8.866305351E0
7.349743750E-1,-3.505485058E-1,1.064806104E0,8.502297401E0
7.374623960E-1,-3.385843933E-1,9.762716293E-1,8.198408127E0
7.399503650E-1,-3.529413342E-1,9.020941257E-1,7.863114357E0
7.424375520E-1,-3.816552162E-1,8.781659007E-1,7.602296829E0
7.449246880E-1,-4.271188378E-1,8.135597110E-1,7.355536938E0
7.474127090E-1,-4.893322289E-1,7.800601721E-1,7.142575741E0
7.499007290E-1,-5.682953596E-1,7.154539824E-1,6.970292568E0
7.523879170E-1,-6.738786697E-1,7.226324677E-1,6.828816891E0
7.548750520E-1,-7.935197949E-1,6.987041831E-1,6.747460842E0
7.573630730E-1,-9.131609201E-1,7.178468108E-1,6.754639149E0
7.598510940E-1,-1.039980531E0,7.298108935E-1,6.797709942E0
7.623382290E-1,-1.152443171E0,7.298108935E-1,6.891030312E0
7.648254170E-1,-1.162014484E0,6.891329288E-1,6.991827965E0
7.673134380E-1,-6.499504447E-1,7.010970116E-1,6.558427811E0
7.698014060E-1,-1.236491084E0,5.596213937E-1,7.161718369E0
7.722885940E-1,-1.801496387E0,4.040879309E-1,7.762615681E0
7.747757810E-1,-1.968993902E0,3.777668774E-1,8.001897812E0
7.772638020E-1,-2.069492579E0,4.184448719E-1,8.306085587E0
7.797517710E-1,-2.169991016E0,3.921238184E-1,8.686843872E0
7.822389590E-1,-2.229811668E0,4.184448719E-1,9.057730675E0
7.847261460E-1,-2.138884306E0,1.959123611E-1,9.105587006E0
7.872141670E-1,-1.985743642E0,1.193420291E-1,9.112766266E0
7.897021360E-1,-2.026421785E0,1.456630826E-1,9.495916367E0
7.921893230E-1,-2.088634968E0,1.839482337E-1,9.979565620E0
7.946765110E-1,-2.105384827E0,2.533400953E-1,1.040578747E1
7.971645310E-1,-1.973779559E0,3.418745399E-1,1.068574810E1
7.996525000E-1,-1.799103498E0,4.280161560E-1,1.080538845E1
8.021396880E-1,-1.645663738E0,4.064807594E-1,1.091575813E1
8.046268750E-1,-1.502094388E0,3.897309899E-1,1.107368374E1
8.071148960E-1,-1.301097274E0,3.634099364E-1,1.120528889E1
8.096028650E-1,-1.111765265E0,3.634099364E-1,1.128903770E1
8.120900520E-1,-9.179465771E-1,3.658027649E-1,1.137278652E1
8.145771880E-1,-7.121638656E-1,4.160520434E-1,1.139462185E1
8.170652090E-1,-5.539384484E-1,4.974080026E-1,1.142572784E1
8.195532290E-1,-4.103690982E-1,5.811567903E-1,1.144487095E1
8.220403650E-1,-3.050848842E-1,6.652047038E-1,1.139462185E1
8.245275520E-1,-2.261217386E-1,7.537391186E-1,1.134407330E1
8.270155730E-1,-1.567298770E-1,8.039883971E-1,1.122203922E1
8.295035940E-1,-8.015955985E-2,8.015955687E-1,1.108564854E1
8.319907290E-1,-3.678964823E-2,8.327022791E-1,1.088943672E1
8.344779170E-1,-1.046859939E-2,8.303094506E-1,1.065464115E1
8.369659380E-1,-8.973084623E-4,8.279166222E-1,1.040339470E1
8.394539060E-1,-1.525424421E-2,8.135597110E-1,1.015424156E1
8.419410940E-1,-2.482553571E-2,8.183453679E-1,9.910174370E0
8.444282810E-1,-8.015955985E-2,8.087740541E-1,9.632308006E0
8.469163020E-1,-1.423729509E-1,7.848458290E-1,9.393025398E0
8.494042710E-1,-2.021935135E-1,7.944171429E-1,9.151350021E0
8.518914590E-1,-2.787638307E-1,7.848458290E-1,8.935696602E0
8.543786460E-1,-3.625126183E-1,7.848458290E-1,8.761020660E0
8.568666670E-1,-4.462614357E-1,8.111668825E-1,8.550153732E0
8.593546360E-1,-5.467599630E-1,8.111668825E-1,8.449654579E0
8.618418230E-1,-6.547361016E-1,8.398807645E-1,8.373085022E0
8.643290110E-1,-7.384848595E-1,8.590233326E-1,8.368298531E0
8.668170310E-1,-8.605188727E-1,8.973084688E-1,8.392227173E0
8.693050000E-1,-9.873384237E-1,9.116654396E-1,8.454441071E0
8.717921880E-1,-1.047158957E0,9.547362328E-1,8.554939270E0
8.742793230E-1,-1.106979609E0,9.475577474E-1,8.684451103E0
8.767673440E-1,-1.109372377E0,9.308080077E-1,8.813663483E0
8.792553650E-1,-1.173978567E0,9.044869542E-1,8.957232475E0
8.817425000E-1,-1.212562919E0,8.638089895E-1,9.153742790E0
8.842296880E-1,-1.262812138E0,8.063812256E-1,9.314062119E0
8.867177090E-1,-1.298704505E0,7.704889178E-1,9.476774216E0
8.892057290E-1,-1.301097274E0,7.298108935E-1,9.644271851E0
8.916928650E-1,-1.368096352E0,7.106683254E-1,9.831211090E0
8.941800520E-1,-1.399203062E0,6.819544435E-1,1.002024364E1
8.966680730E-1,-1.401595831E0,6.891329288E-1,1.015184879E1
8.991560420E-1,-1.420738459E0,6.699903607E-1,1.030528927E1
9.016432290E-1,-1.456630826E0,7.154539824E-1,1.044167995E1
9.041304170E-1,-1.535593987E0,8.614161611E-1,1.059721375E1
9.066184380E-1,-1.506880045E0,9.499505758E-1,1.064746284E1
9.091064060E-1,-1.432702541E0,9.667003751E-1,1.062592697E1
9.115935940E-1,-1.382453322E0,1.016949654E0,1.061635590E1
9.140807810E-1,-1.325025558E0,1.055234790E0,1.064507008E1
9.165688020E-1,-1.238883972E0,1.093519926E0,1.060199928E1
9.190567710E-1,-1.135693431E0,1.165304661E0,1.061396313E1
9.215439590E-1,-1.037587762E0,1.239781260E0,1.058524895E1
9.240311460E-1,-8.916255236E-1,1.292423368E0,1.053260708E1
9.265191670E-1,-7.767700553E-1,1.347458243E0,1.045603657E1
9.290071360E-1,-6.427719593E-1,1.397707582E0,1.035553837E1
9.314943230E-1,-5.395814776E-1,1.452742457E0,1.027896786E1
9.339815110E-1,-4.534398913E-1,1.486241937E0,1.018295574E1
9.364695310E-1,-3.266202807E-1,1.495813251E0,1.010159969E1
9.389575000E-1,-2.620140910E-1,1.524527073E0,1.000110149E1
9.414446360E-1,-1.710868180E-1,1.502991676E0,9.922138214E0
9.439318230E-1,-1.280160099E-1,1.471885085E0,9.843174934E0
9.464198440E-1,-5.832505226E-2,1.438385487E0,9.766604424E0
9.489078650E-1,-2.721835673E-2,1.416850090E0,9.687342644E0
9.513950000E-1,-2.482553571E-2,1.385743380E0,9.613164902E0
9.538821880E-1,-3.200400248E-2,1.352243900E0,9.500701904E0
9.563702090E-1,-4.157529399E-2,1.345065475E0,9.438488960E0
9.588581770E-1,-6.550352275E-2,1.349851131E0,9.393025398E0
9.613453650E-1,-1.471585929E-1,1.347458243E0,9.364311218E0
9.638325520E-1,-2.045863420E-1,1.364207983E0,9.345169067E0
9.663205730E-1,-2.739782035E-1,1.376172066E0,9.404989243E0
9.688085420E-1,-3.457628787E-1,1.371386528E0,9.409774780E0
9.712957290E-1,-4.558327198E-1,1.330708504E0,9.443274498E0
9.737829170E-1,-5.324030519E-1,1.287637711E0,9.488738060E0
9.762709380E-1,-6.281159520E-1,1.215852976E0,9.500701904E0
9.787589060E-1,-6.810571551E-1,1.124626637E0,9.570094109E0
9.812460940E-1,-7.384848595E-1,1.048056364E0,9.582057953E0
9.837332810E-1,-7.935197949E-1,9.403793216E-1,9.598808289E0
9.862213020E-1,-8.318049908E-1,8.231309652E-1,9.629914284E0
9.887092710E-1,-8.605188727E-1,7.513462901E-1,9.634700775E0
9.911964590E-1,-8.485547304E-1,6.245267391E-1,9.649057388E0
9.936835940E-1,-8.389834166E-1,5.380859971E-1,9.661021233E0
9.961716150E-1,-8.509475589E-1,4.447658956E-1,9.668199539E0
9.986596360E-1,-8.365905881E-1,3.634099364E-1,9.699306488E0
1.001146771E0,-8.270193338E-1,3.011965454E-1,9.745069504E0
1.003633959E0,-8.581260443E-1,2.341975123E-1,9.819247246E0
1.006121979E0,-8.485547304E-1,2.030908167E-1,9.881460190E0
1.008609948E0,-8.820542693E-1,1.552343667E-1,9.958030701E0
1.011097136E0,-8.796614408E-1,1.313061416E-1,1.002981567E1
1.013584323E0,-8.940183520E-1,9.780662507E-2,1.009442139E1
1.016072344E0,-8.772686124E-1,1.193420291E-1,1.017099190E1
1.018560313E0,-8.437690735E-1,1.169492081E-1,1.024277687E1
1.021047500E0,-8.150551915E-1,1.576271951E-1,1.029332447E1
1.023534688E0,-7.408776879E-1,1.911267042E-1,1.033400249E1
1.026022709E0,-6.667001843E-1,2.126621157E-1,1.036750221E1
1.028510677E0,-5.898307562E-1,2.318046987E-1,1.037707329E1
1.030997865E0,-5.395814776E-1,2.126621157E-1,1.039860916E1
1.033485052E0,-5.994020700E-1,2.772683203E-1,1.041775131E1
1.035973073E0,-8.796614408E-1,-2.931207791E-2,1.109761238E1
1.038461042E0,-6.595217586E-1,9.541380405E-2,1.110718346E1
1.040948229E0,-5.706881881E-1,8.584251255E-2,1.061635590E1
1.043435417E0,-5.180460811E-1,-1.734796353E-2,1.043450165E1
1.045923438E0,-4.893322289E-1,-1.058823988E-1,1.039621639E1
1.048411406E0,-4.223332107E-1,-1.465603858E-1,1.035075283E1
1.050898594E0,-3.649054468E-1,-1.680957973E-1,1.027896786E1
1.053385729E0,-3.242274821E-1,-1.537388563E-1,1.026431179E1
1.055873750E0,-2.500499785E-1,-1.513460279E-1,1.031486034E1
1.058361771E0,-1.543370634E-1,-1.585244983E-1,1.034596729E1
1.060848906E0,-1.232303679E-1,-1.585244983E-1,1.037468052E1
1.063336094E0,-1.136590764E-1,-1.680957973E-1,1.036032391E1
1.065824115E0,-3.678964823E-2,-1.872383654E-1,1.033400249E1
1.068312084E0,1.345962752E-2,-2.063809484E-1,1.029571724E1
1.070799271E0,2.781656384E-2,-1.968096644E-1,1.022602654E1
1.073286459E0,4.456632212E-2,-2.255235314E-1,1.014227772E1
1.075774479E0,1.106680464E-2,-1.968096644E-1,1.006331444E1
1.078262448E0,-2.787638307E-1,3.050848842E-2,1.003938675E1
1.080749636E0,-6.858428121E-1,2.246262282E-1,1.001545811E1
1.083236823E0,-1.001695395E0,2.318046987E-1,9.981958389E0
1.085724844E0,-1.071087241E0,9.302098304E-2,9.905388832E0
1.088212813E0,-9.227322340E-1,-1.010967568E-1,9.692128181E0
1.090700000E0,-7.767700553E-1,-2.327020019E-1,9.471988678E0
1.093187188E0,-6.427719593E-1,-3.020938635E-1,9.306883812E0
1.095675209E0,-6.113662124E-1,-3.332005441E-1,9.203991890E0
1.098163177E0,-6.475576162E-1,-3.690928817E-1,9.129515648E0
1.100650365E0,-7.049853802E-1,-3.954139352E-1,9.127122879E0
1.103137500E0,-7.600203156E-1,-3.379862010E-1,9.131908417E0
1.105625521E0,-8.198408484E-1,-2.781656384E-1,9.189635277E0
1.108113542E0,-8.748757839E-1,-2.183450609E-1,9.318847656E0
1.110600677E0,-9.466604590E-1,-1.657029688E-1,9.428917885E0
1.113087865E0,-9.777671695E-1,-1.513460279E-1,9.531808853E0
1.115575886E0,-9.227322340E-1,-2.111666054E-1,9.637093544E0
1.118063854E0,-8.365905881E-1,-1.944168359E-1,9.725926399E0
1.120551042E0,-8.222336769E-1,-2.709871531E-1,9.855138779E0
1.123038229E0,-7.289136052E-1,-3.403790295E-1,9.941280365E0
1.125526250E0,-6.547361016E-1,-3.978067636E-1,9.998708725E0
1.128014219E0,-6.233302951E-1,-4.313062727E-1,1.008245754E1
1.130501406E0,-5.324030519E-1,-4.671986103E-1,1.008724308E1
1.132988594E0,-4.725824594E-1,-5.105685592E-1,1.010399246E1
1.135476615E0,-4.510470629E-1,-5.392823815E-1,1.010638523E1
1.137964584E0,-4.295116663E-1,-5.488536954E-1,1.010399246E1
1.140451771E0,-4.558327198E-1,-5.775675774E-1,1.006809998E1
1.142938959E0,-4.247260094E-1,-6.373881102E-1,1.001545811E1
1.145426979E0,-3.960121572E-1,-6.326025128E-1,9.981958389E0
1.147914948E0,-3.864408433E-1,-6.445665956E-1,9.974780083E0
1.150402136E0,-3.888336718E-1,-6.397809386E-1,9.953245163E0
1.152889323E0,-3.792623878E-1,-5.847460628E-1,9.910174370E0
1.155377344E0,-3.314059377E-1,-5.273182988E-1,9.902996063E0
1.157865313E0,-3.242274821E-1,-4.671986103E-1,9.910174370E0
1.160352448E0,-3.074777126E-1,-3.738785386E-1,9.905388832E0
1.162839636E0,-2.596212626E-1,-2.901297510E-1,9.876674652E0
1.165327656E0,-2.141576260E-1,-2.015953064E-1,9.795318604E0
1.167815677E0,-1.782652885E-1,-1.393819153E-1,9.737891197E0
1.170302813E0,-1.519442350E-1,-5.802594870E-2,9.658628464E0
1.172790000E0,-1.567298770E-1,3.768695518E-2,9.519845009E0
1.175278021E0,-1.328016520E-1,1.648056656E-1,9.414560318E0
1.177765990E0,-1.423729509E-1,2.868396044E-1,9.275776863E0
1.180253177E0,-2.404786795E-1,4.064807594E-1,9.177671432E0
1.182740365E0,-3.529413342E-1,5.069792867E-1,9.067302704E0
1.185228386E0,-4.438686073E-1,5.907281041E-1,8.921339989E0
1.187716354E0,-5.778666735E-1,6.771687865E-1,8.830412865E0
1.190203542E0,-6.305087805E-1,7.465606928E-1,8.703593254E0
1.192690729E0,-7.217351198E-1,8.255237937E-1,8.636593819E0
1.195178750E0,-7.695915699E-1,9.403793216E-1,8.526225090E0
1.197666719E0,-8.772686124E-1,1.021735311E0,8.507082939E0
1.200153906E0,-9.753743410E-1,1.117448211E0,8.485547066E0
1.202641094E0,-9.849455953E-1,1.239781260E0,8.452047348E0
1.205129115E0,-9.179465771E-1,1.297209024E0,8.353941917E0
1.207617084E0,-5.491527915E-1,1.028913736E0,8.277371407E0
1.210104219E0,-6.329016089E-1,8.135597110E-1,8.636593819E0
1.212591406E0,-7.719843984E-1,8.327022791E-1,9.002696037E0
1.215079427E0,-9.466604590E-1,9.475577474E-1,9.323633194E0
1.217567396E0,-1.061515927E0,1.060020447E0,9.584450722E0
1.220054584E0,-1.071087241E0,1.119840980E0,9.742676735E0
1.222541771E0,-1.078265667E0,1.107876897E0,9.838389397E0
1.225029792E0,-1.032802105E0,1.040877819E0,9.912567139E0
1.227517761E0,-9.873384237E-1,9.499505758E-1,1.002024364E1
1.230004948E0,-9.610173702E-1,8.327022791E-1,1.009681416E1
1.232492136E0,-9.059824944E-1,7.489534616E-1,1.017817020E1
1.234980156E0,-8.270193338E-1,7.106683254E-1,1.027178955E1
1.237468125E0,-7.791628838E-1,6.915257573E-1,1.042253685E1
1.239955313E0,-7.001997232E-1,6.388836503E-1,1.058046341E1
1.242442500E0,-6.329016089E-1,5.811567903E-1,1.066181946E1
1.244930521E0,-5.539384484E-1,5.021936297E-1,1.075035381E1
1.247418490E0,-5.252245665E-1,4.040879309E-1,1.087508011E1
1.249905677E0,-4.223332107E-1,2.940180898E-1,1.096840000E1
1.252392865E0,-4.007977843E-1,1.648056656E-1,1.104257774E1
1.254880886E0,-3.361915946E-1,5.712864175E-2,1.107368374E1
1.257368854E0,-3.242274821E-1,-8.434699476E-2,1.098036385E1
1.259855990E0,-2.739782035E-1,-2.566302419E-1,1.096122169E1
1.262343177E0,-1.519442350E-1,-3.547359705E-1,1.106171989E1
1.264831198E0,-2.021935135E-1,-3.810569942E-1,1.119571781E1
1.267319219E0,-2.739782035E-1,-3.954139352E-1,1.128664494E1
1.269806354E0,-3.074777126E-1,-3.571287692E-1,1.128185940E1
1.272293542E0,-3.768695593E-1,-3.332005441E-1,1.118136120E1
1.274781563E0,-3.409772217E-1,-3.595215976E-1,1.093011475E1
1.277269531E0,-3.170489967E-1,-3.260220885E-1,1.070249748E1
1.279756719E0,-3.960121572E-1,-3.044866920E-1,1.062114143E1
1.282243906E0,-5.419743061E-1,-2.877369225E-1,1.066899776E1
1.284731927E0,-7.097710371E-1,-2.733799815E-1,1.075992489E1
1.287219896E0,-8.676972985E-1,-2.638086975E-1,1.087268734E1
1.289707084E0,-9.873384237E-1,-2.207378894E-1,1.098514938E1
1.292194271E0,-1.116550922E0,-1.896311939E-1,1.110957623E1
1.294682292E0,-1.099801064E0,-1.489532143E-1,1.118136120E1
1.297170261E0,-1.118943691E0,-1.034895778E-1,1.120768261E1
1.299657396E0,-1.078265667E0,-7.238288224E-2,1.122921753E1
1.302144584E0,-1.004088163E0,-5.802594870E-2,1.125553894E1
1.304632604E0,-9.011968374E-1,-4.606183618E-2,1.127707386E1
1.307120625E0,-7.576274872E-1,-4.366901144E-2,1.132493019E1
1.309607761E0,-5.778666735E-1,-4.845465720E-2,1.130339527E1
1.312094948E0,-4.151547253E-1,-8.195417374E-2,1.126271725E1
1.314582969E0,-2.404786795E-1,-1.322034448E-1,1.116939735E1
1.317070938E0,-8.255238086E-2,-1.896311939E-1,1.109521961E1
1.319558125E0,8.673981763E-3,-2.279163599E-1,1.098036385E1
1.322045313E0,-1.064806059E-1,-2.662015259E-1,1.089422226E1
1.324533334E0,-1.280160099E-1,-3.355933726E-1,1.083679485E1
1.327021302E0,-1.088734269E-1,-4.145565331E-1,1.074078274E1
1.329508490E0,-4.396811500E-2,-4.767699242E-1,1.061635590E1
1.331995677E0,-1.064806059E-1,-5.105685592E-1,1.050867844E1
1.334483698E0,-9.451649338E-2,-5.057829022E-1,1.041296577E1
1.336971667E0,-5.353940651E-2,-5.273182988E-1,1.027418232E1
1.339458854E0,-2.721835673E-2,-5.608177781E-1,1.019252682E1
1.341946042E0,-7.507480681E-2,-5.823532343E-1,1.012313557E1
1.344434063E0,-1.375873089E-1,-6.206383705E-1,1.006331444E1
1.346922031E0,-1.974078715E-1,-6.326025128E-1,1.006331444E1
1.349409219E0,-3.601198196E-1,-6.493522525E-1,1.008006477E1
1.351896354E0,-5.539384484E-1,-6.469594240E-1,1.011356354E1
1.354384375E0,-7.289136052E-1,-6.780661345E-1,1.013749218E1
1.356872396E0,-8.988040090E-1,-6.804589629E-1,1.014945602E1
1.359359531E0,-1.001695395E0,-6.924230456E-1,1.012074280E1
1.361846719E0,-1.114158034E0,-7.426723242E-1,1.009681416E1
1.364334740E0,-1.126122117E0,-6.924230456E-1,1.005135059E1
1.366822709E0,-9.155537486E-1,-5.536393523E-1,1.013270664E1
1.369309896E0,-7.408776879E-1,-4.073780477E-1,1.032203865E1
1.371797084E0,-7.863413692E-1,-3.810569942E-1,1.025952625E1
1.374285104E0,-9.370891452E-1,-3.260220885E-1,9.902996063E0
1.376773073E0,-9.442676306E-1,-3.475574851E-1,9.622735977E0
1.379260261E0,-9.729815125E-1,-2.542374134E-1,9.804889679E0
1.381747448E0,-1.039980531E0,-1.561316848E-1,1.016381359E1
1.384235469E0,-9.681958556E-1,-5.982056609E-4,1.005135059E1
1.386723438E0,-9.634101987E-1,1.313061416E-1,9.867103577E0
1.389210625E0,-9.681958556E-1,2.294118702E-1,9.785747528E0
1.391697813E0,-1.032802105E0,3.586242795E-1,9.871889114E0
1.394185834E0,-1.118943691E0,3.897309899E-1,1.001785088E1
1.396673802E0,-1.229312658E0,3.323032558E-1,1.018295574E1
1.399160938E0,-1.320239902E0,2.940180898E-1,1.034836006E1
1.401648125E0,-1.313061476E0,2.892324328E-1,1.050867844E1
1.404136146E0,-1.258026481E0,2.796611488E-1,1.061396313E1
1.406624115E0,-1.200299621E0,2.772683203E-1,1.070010471E1
1.409111302E0,-1.118943691E0,2.533400953E-1,1.079103184E1
1.411598490E0,-1.423131227E0,2.557329237E-1,1.118853951E1
1.414086511E0,-1.298704505E0,2.270190418E-1,1.119332504E1
1.416574479E0,-1.004088163E0,2.365903407E-1,1.102343464E1
1.419061667E0,-7.025925517E-1,1.791625917E-1,1.095643616E1
1.421548854E0,-4.103690982E-1,6.191428751E-2,1.094207859E1
1.424036875E0,-1.328016520E-1,-4.845465720E-2,1.088943672E1
1.426524844E0,8.045866340E-2,-1.298106313E-1,1.087268734E1
1.429012031E0,2.503490746E-1,-2.303091735E-1,1.082213879E1
1.431499219E0,9.481559694E-2,-3.738785386E-1,1.100189972E1
1.433987240E0,-6.071787328E-2,-3.906283081E-1,1.138983536E1
1.436475209E0,-2.721835673E-2,-3.260220885E-1,1.115264702E1
1.438962396E0,-2.961117961E-2,-3.690928817E-1,1.091575813E1
1.441449531E0,-2.961117961E-2,-4.049852192E-1,1.077428246E1
1.443937552E0,3.888336709E-3,-3.978067636E-1,1.062353420E1
1.446425573E0,-1.046859939E-2,-3.523431420E-1,1.048714352E1
1.448912709E0,-9.451649338E-2,-2.327020019E-1,1.033160973E1
1.451399896E0,-1.046859939E-2,-5.982056609E-4,1.012792110E1
1.453887917E0,5.413761362E-2,1.791625917E-1,1.000827980E1
1.456375886E0,2.063809521E-2,1.624128371E-1,1.008245754E1
1.458863073E0,-2.961117961E-2,1.719841212E-1,9.986744881E0
1.461350261E0,-9.930214286E-2,1.671984792E-1,9.792925835E0
1.463838281E0,-2.021935135E-1,1.360917836E-1,9.617950439E0
1.466326250E0,-2.165504545E-1,7.866404206E-2,9.383454323E0
1.468813438E0,-2.596212626E-1,4.187439568E-3,9.218349457E0
1.471300625E0,-3.170489967E-1,1.794616925E-3,9.038588524E0
1.473788646E0,-3.720839322E-1,9.780662507E-2,8.918947220E0
1.476276615E0,-3.242274821E-1,1.815554202E-1,8.837591171E0
1.478763802E0,-3.744767308E-1,2.030908167E-1,8.816056252E0
1.481250938E0,-3.792623878E-1,2.054836452E-1,8.770592690E0
1.483738959E0,-4.055834413E-1,1.695913076E-1,8.739485741E0
1.486226979E0,-4.582255483E-1,8.584251255E-2,8.710771561E0
1.488714115E0,-5.060819983E-1,2.093719877E-2,8.694022179E0
1.491201302E0,-5.730810165E-1,-1.256231871E-2,8.756235123E0
1.493689323E0,-6.523432732E-1,-5.982056609E-4,8.828020096E0
1.496177292E0,-6.667001843E-1,1.360917836E-1,8.866305351E0
1.498664479E0,-6.906284094E-1,3.035893738E-1,8.854341507E0
1.501151667E0,-7.025925517E-1,4.040879309E-1,8.880661964E0
1.503639688E0,-7.624131441E-1,3.658027649E-1,8.906983376E0
1.506127656E0,-8.006982803E-1,3.035893738E-1,8.902197838E0
1.508614844E0,-7.528418303E-1,3.418745399E-1,8.866305351E0
1.511102031E0,-6.619145870E-1,3.753740489E-1,8.952446938E0
1.513590052E0,-5.443671346E-1,3.394817114E-1,9.076873779E0
1.516078021E0,-3.720839322E-1,3.131606579E-1,9.206384659E0
1.518565209E0,-2.285145670E-1,2.940180898E-1,9.321240425E0
1.521052396E0,-3.678964823E-2,3.275175989E-1,9.404989243E0
1.523540417E0,1.474576890E-1,3.418745399E-1,9.522237778E0
1.526028386E0,3.005983531E-1,3.490529954E-1,9.613164902E0
1.528515521E0,5.042873621E-1,4.375874400E-1,9.699306488E0
1.531002709E0,7.028916478E-1,7.537391186E-1,9.639486313E0
1.533490729E0,6.358926296E-1,7.226324677E-1,9.747462273E0
1.535978698E0,5.569294691E-1,6.146563292E-1,9.979565620E0
1.538465886E0,5.521438122E-1,5.285146832E-1,1.013988495E1
1.540953073E0,5.856433511E-1,5.452644825E-1,1.022602654E1
1.543441094E0,6.454638839E-1,5.548357368E-1,1.026431179E1
1.545929063E0,7.028916478E-1,5.285146832E-1,1.039143085E1
1.548416250E0,7.411768436E-1,4.615156651E-1,1.045842934E1
1.550903438E0,8.033902049E-1,3.681955934E-1,1.041535854E1
1.553391459E0,8.679963946E-1,2.964109182E-1,1.042732334E1
1.555879427E0,8.775677085E-1,2.461616248E-1,1.039143085E1
1.558366615E0,1.013958573E0,4.615156651E-1,1.001067257E1
1.560853802E0,1.208076358E0,7.944171429E-1,9.768997192E0
1.563341823E0,1.001994491E0,6.675975323E-1,1.007767200E1
1.565829792E0,7.435696125E-1,4.782654345E-1,1.010399246E1
1.568316927E0,5.952146053E-1,3.753740489E-1,1.011356354E1
1.570804115E0,4.776672125E-1,1.432702541E-1,1.009920692E1
1.573292136E0,3.915255964E-1,-8.913264424E-2,1.010877800E1
1.575780156E0,3.963112533E-1,-2.374876440E-1,1.007288647E1
1.578267292E0,4.010969102E-1,-4.073780477E-1,1.009920692E1
1.580754479E0,4.274179339E-1,-5.560321808E-1,1.009442139E1
1.583242500E0,4.609174728E-1,-6.038886309E-1,1.015663528E1
1.585730469E0,5.569294691E-1,-6.206383705E-1,1.023320484E1
1.588217656E0,6.311069727E-1,-6.086742878E-1,1.032443142E1
1.590704844E0,7.196413875E-1,-5.297111273E-1,1.041057301E1
1.593192865E0,7.938188910E-1,-4.576273263E-1,1.048714352E1
1.595680834E0,9.302098155E-1,-3.044866920E-1,1.052303600E1
1.598168021E0,9.684949517E-1,-1.417747438E-1,1.050389290E1
1.600655209E0,8.105686903E-1,3.529413417E-2,1.051346493E1
1.603143229E0,8.919246197E-1,1.336989701E-1,1.028375340E1
1.605631198E0,9.326026440E-1,2.222333997E-1,1.000827980E1
1.608118334E0,9.876375198E-1,3.849453330E-1,9.752247810E0
1.610605521E0,1.042672515E0,5.739783049E-1,9.481559753E0
1.613093542E0,1.109970570E0,7.465606928E-1,9.244669914E0
1.615581563E0,1.162612677E0,8.805587292E-1,9.055337906E0
1.618068698E0,1.200897813E0,9.475577474E-1,8.885447502E0
1.620555886E0,1.260718465E0,9.690931439E-1,8.751449585E0
1.623043906E0,1.320538998E0,8.877372146E-1,8.705986023E0
1.625531875E0,1.308574915E0,8.590233326E-1,8.725129128E0
1.628019063E0,1.425823212E0,1.074377418E0,8.492725372E0
1.630506250E0,1.416251898E0,1.131805062E0,8.655736923E0
1.632994271E0,1.260718465E0,9.619147182E-1,8.782556534E0
1.635482240E0,1.136291623E0,7.896314859E-1,8.768199921E0
1.637969427E0,1.078863859E0,6.436693072E-1,8.763413429E0
1.640456615E0,1.028315544E0,4.710869491E-1,8.725129128E0
1.642944636E0,1.025922656E0,3.370888829E-1,8.686843872E0
1.645432604E0,1.021137118E0,1.265204996E-1,8.607880592E0
1.647919740E0,1.009172916E0,-4.366901144E-2,8.607880592E0
1.650406927E0,1.035493970E0,-1.322034448E-1,8.593523026E0
1.652894948E0,9.900303483E-1,-2.063809484E-1,8.595915794E0
1.655382969E0,9.708877802E-1,-3.427718580E-1,8.574081421E0
1.657870104E0,9.517452121E-1,-4.504488707E-1,8.576474190E0
1.660357292E0,9.110672474E-1,-4.432703853E-1,8.542975426E0
1.662845313E0,8.775677085E-1,-4.480560422E-1,8.487939835E0
1.665333281E0,8.536394835E-1,-5.392823815E-1,8.428119659E0
1.667820469E0,8.129615188E-1,-6.445665956E-1,8.325227737E0
1.670307656E0,7.698906660E-1,-7.211369276E-1,8.258229256E0
1.672795677E0,7.363911867E-1,-8.001000881E-1,8.251050949E0
1.675283646E0,7.459624410E-1,-8.312067389E-1,8.203194618E0
1.677770834E0,7.244270444E-1,-8.599206209E-1,8.083553314E0
1.680258021E0,7.339983582E-1,-8.718847632E-1,7.922935009E0
1.682746042E0,7.459624410E-1,-8.838488460E-1,7.803293705E0
1.685234011E0,6.669993401E-1,-9.340981245E-1,7.887042522E0
1.687721146E0,5.377869010E-1,-9.795617461E-1,8.143373489E0
1.690208334E0,4.537389874E-1,-9.197412133E-1,8.119445801E0
1.692696354E0,4.178466499E-1,-7.929216027E-1,7.975576878E0
1.695184375E0,4.250251353E-1,-6.780661345E-1,7.786543846E0
1.697671511E0,4.609174728E-1,-5.632106066E-1,7.590332508E0
1.700158698E0,4.657031000E-1,-4.528416991E-1,7.506583691E0
1.702646719E0,4.728815854E-1,-3.978067636E-1,7.446464062E0
1.705134688E0,4.923232496E-1,-3.738785386E-1,7.497012615E0
1.707621875E0,5.138586760E-1,-3.260220885E-1,7.530511856E0
1.710109063E0,4.947160780E-1,-2.709871531E-1,7.578368187E0
1.712597084E0,5.401797295E-1,-2.159522474E-1,7.659724236E0
1.715085052E0,5.952146053E-1,-1.561316848E-1,7.738687515E0
1.717572240E0,6.287141442E-1,-1.489532143E-1,7.824829102E0
1.720059427E0,6.574280262E-1,-1.178465188E-1,7.918148994E0
1.722547448E0,7.411768436E-1,-1.609173268E-1,8.013862610E0
1.725035417E0,8.584251404E-1,-2.159522474E-1,8.040482521E0
1.727522604E0,9.708877802E-1,-2.925225794E-1,8.069195747E0
1.730009740E0,1.109970570E0,-4.097708762E-1,8.069195747E0
1.732497761E0,1.229611754E0,-5.057829022E-1,8.059624672E0
1.734985781E0,1.342074394E0,-6.086742878E-1,8.064410210E0
1.737472917E0,1.468894005E0,-6.828517914E-1,8.047660828E0
1.739960104E0,1.629512191E0,-7.905287743E-1,7.961220264E0
1.742448125E0,1.753939033E0,-9.460622668E-1,7.865507126E0
1.744936094E0,1.871187329E0,-1.041775107E0,7.769794464E0
1.747423281E0,1.954936147E0,-1.116251707E0,7.666903019E0
1.749910469E0,1.923829436E0,-1.118644595E0,7.621439457E0
1.752398490E0,1.957328916E0,-1.065703392E0,7.497012615E0
1.754886459E0,1.895115495E0,-9.604191780E-1,7.420143127E0
1.757373646E0,1.634297848E0,-7.857431173E-1,7.336394310E0
1.759860834E0,7.339983582E-1,-5.847460628E-1,7.298109055E0
1.762348854E0,6.957131624E-1,-3.571287692E-1,7.125825882E0
1.764836823E0,6.454638839E-1,-1.226321608E-1,6.883851528E0
1.767323959E0,6.000002623E-1,9.062815458E-2,6.589534283E0
1.769811146E0,5.880361795E-1,3.131606579E-1,6.431608200E0
1.772299167E0,6.119644046E-1,4.447658956E-1,6.355037689E0
1.774787188E0,5.545366406E-1,5.979065299E-1,6.270989895E0
1.777274323E0,4.704887569E-1,7.154539824E-1,6.194419384E0
1.779761511E0,4.130610228E-1,7.824530005E-1,6.103492260E0
1.782249531E0,3.053839803E-1,8.614161611E-1,6.019743443E0
1.784737500E0,2.264208496E-1,9.020941257E-1,6.005386829E0
1.787224688E0,3.221337497E-1,8.877372146E-1,6.058028698E0
1.789711875E0,2.144567221E-1,8.039883971E-1,6.175277233E0
1.792199896E0,1.618146300E-1,7.345965505E-1,6.326025009E0
1.794687865E0,2.192423791E-1,5.691927075E-1,6.412465572E0
1.797175052E0,2.431706041E-1,4.040879309E-1,6.556035042E0
1.799662240E0,2.670988142E-1,2.509472668E-1,6.646962166E0
1.802150261E0,3.388835192E-1,6.191428751E-2,6.790531635E0
1.804638229E0,4.827519655E-1,-9.391828626E-2,6.879065990E0
1.807125365E0,5.641079545E-1,-2.231307179E-1,7.044469833E0
1.809612552E0,6.622136831E-1,-3.978067636E-1,7.259823799E0
1.812100573E0,7.435696125E-1,-6.182455420E-1,7.424928665E0
1.814588594E0,8.560323119E-1,-8.072785139E-1,7.578368187E0
1.817075729E0,9.302098155E-1,-1.109073281E0,7.915756226E0
1.819562917E0,8.703892231E-1,-1.286142230E0,8.207980156E0
1.822050938E0,8.632107973E-1,-1.432104349E0,8.495118141E0
1.824538906E0,8.847461939E-1,-1.546959877E0,8.705986023E0
1.827026094E0,8.608179688E-1,-1.594816327E0,8.813663483E0
1.829513281E0,8.368897438E-1,-1.719542146E0,8.789734840E0
1.832001302E0,8.488538265E-1,-1.724327803E0,8.662915230E0
1.834489271E0,9.206385016E-1,-1.654935956E0,8.471190453E0
1.836976459E0,9.397810698E-1,-1.537388563E0,8.363512993E0
1.839463646E0,9.445667267E-1,-1.477568030E0,8.253443718E0
1.841951667E0,8.943174481E-1,-1.472782373E0,8.160123825E0
1.844439636E0,8.679963946E-1,-1.458425403E0,8.090731621E0
1.846926771E0,9.206385016E-1,-1.479960799E0,8.057231903E0
1.849413959E0,9.445667267E-1,-1.616351724E0,8.155337334E0
1.851901979E0,1.011565804E0,-1.834397674E0,8.150551796E0
1.854389948E0,1.064507008E0,-2.054537296E0,8.205587387E0
1.856877136E0,1.066899776E0,-2.246262312E0,8.260622025E0
1.859364323E0,1.141077280E0,-2.363510609E0,8.229515076E0
1.861852344E0,1.141077280E0,-2.511865616E0,8.172087669E0
1.864340313E0,1.129113197E0,-2.557329178E0,8.200801849E0
1.866827500E0,9.756734371E-1,-2.490330219E0,8.102695465E0
1.869314688E0,6.287141442E-1,-2.365903378E0,8.069195747E0
1.871802709E0,3.053839803E-1,-2.138286114E0,8.076375008E0
1.874290677E0,4.456632212E-2,-1.741077542E0,7.946863174E0
1.876777865E0,-2.021935135E-1,-1.295713425E0,7.841578960E0
1.879265000E0,-4.031906128E-1,-8.455637097E-1,7.705187798E0
1.881753021E0,-4.797609448E-1,-3.810569942E-1,7.733901978E0
1.884241042E0,-4.103690982E-1,7.387840003E-2,7.875078201E0
1.886728177E0,-2.237289101E-1,4.758726060E-1,8.105088234E0
1.889215365E0,-5.832505226E-2,8.590233326E-1,8.430512428E0
1.891703386E0,-2.021935135E-1,1.206281662E0,8.866305351E0
1.894191354E0,-3.122633696E-1,1.459920883E0,9.302098274E0
1.896678542E0,-4.127618968E-1,1.737488389E0,9.716355324E0
1.899165729E0,-6.065805554E-1,1.943570137E0,1.003938675E1
1.901653750E0,-7.695915699E-1,2.089532375E0,1.023559761E1
1.904141719E0,-1.085444212E0,2.257030010E0,1.040818024E1
1.906628906E0,-1.334596872E0,2.376970291E0,1.058285618E1
1.909116094E0,-1.583450437E0,2.460718870E0,1.078385353E1
1.911604115E0,-1.770389676E0,2.518146753E0,1.099950695E1
1.914092084E0,-1.918744683E0,2.515753984E0,1.117896843E1
1.916579271E0,-1.990529299E0,2.338685036E0,1.145922756E1
1.919066406E0,-2.071885347E0,2.067996979E0,1.155254745E1
1.921554427E0,-2.059921265E0,1.665703654E0,1.141854954E1
1.924042448E0,-2.131705761E0,1.402493119E0,1.131775188E1
1.926529584E0,-2.141277075E0,1.131805062E0,1.109761238E1
1.929016771E0,-2.222633123E0,9.284151793E-1,1.085115147E1
1.931504792E0,-2.260918379E0,7.154539824E-1,1.046560764E1
1.933992761E0,-2.236989975E0,5.955137610E-1,1.001306534E1
1.936479948E0,-2.141277075E0,4.734797776E-1,9.639486313E0
1.938967136E0,-2.246561289E0,3.634099364E-1,9.316454887E0
1.941455156E0,-2.146062851E0,3.203391433E-1,8.861519814E0
1.943943125E0,-2.131705761E0,2.198405862E-1,8.387441635E0
1.946430313E0,-1.930708766E0,1.719841212E-1,7.855936050E0
1.948917448E0,-1.854138494E0,1.025922745E-1,7.412964344E0
1.951405469E0,-1.758126378E0,1.528415531E-1,6.948757172E0
1.953893490E0,-1.561915040E0,2.054836452E-1,6.649354935E0
1.956380625E0,-1.399203062E0,3.059822023E-1,6.261418819E0
1.958867813E0,-1.140479088E0,3.107678294E-1,5.952744484E0
1.961355834E0,-9.323035479E-1,2.533400953E-1,5.890531063E0
1.963843802E0,-6.834499836E-1,2.126621157E-1,6.072385788E0
1.966330990E0,-4.151547253E-1,1.887338907E-1,6.448358059E0
1.968818177E0,-1.184447184E-1,1.049850956E-1,7.015756130E0
1.971306198E0,5.174478889E-2,7.866404206E-2,7.659724236E0
1.973794167E0,1.737787426E-1,5.952146277E-2,8.286943436E0
1.976281354E0,2.407777756E-1,1.767697781E-1,8.753842354E0
1.978768542E0,3.317050338E-1,3.179463148E-1,9.096015930E0
1.981256563E0,4.298107624E-1,5.883352757E-1,9.369096756E0
1.983744531E0,5.306084156E-1,9.260223508E-1,9.527023315E0
1.986231719E0,6.239284873E-1,1.239781260E0,9.651450157E0
1.988718854E0,7.004988194E-1,1.534098387E0,9.771389961E0
1.991206875E0,7.962117195E-1,1.814357758E0,9.749855042E0
1.993694896E0,8.105686903E-1,2.048854351E0,9.692128181E0
1.996182031E0,8.081758618E-1,2.137388945E0,9.646664619E0
1.998669219E0,7.459624410E-1,2.134995937E0,9.644271851E0
2.001157240E0,7.148557901E-1,1.996212244E0,9.709177017E0
2.003645209E0,6.789634228E-1,1.646561027E0,9.888638496E0
2.006132396E0,6.000002623E-1,1.347458243E0,9.979565620E0
2.008619584E0,5.880361795E-1,1.033699393E0,1.009681416E1
2.011107604E0,5.784648657E-1,5.691927075E-1,1.029571724E1
2.013595573E0,4.728815854E-1,3.394817114E-1,1.047517967E1
2.016082761E0,3.652045429E-1,4.247260094E-2,1.072403336E1
2.018569896E0,2.144567221E-1,-1.465603858E-1,1.088704395E1
2.021057917E0,9.002995491E-2,-3.427718580E-1,1.093729305E1
2.023545938E0,6.131608039E-2,-6.948158741E-1,1.104257774E1
2.026033073E0,6.131608039E-2,-9.484550953E-1,1.110000515E1
2.028520261E0,-8.973084623E-4,-1.003489971E0,1.113111210E1
2.031008281E0,-2.721835673E-2,-1.195214868E0,1.112154007E1
2.033496250E0,-1.782652885E-1,-1.231107235E0,1.104018497E1
2.035983438E0,-3.553341627E-1,-1.386640668E0,1.096122169E1
2.038470625E0,-5.994020700E-1,-1.396211982E0,1.081735325E1
2.040958646E0,-9.323035479E-1,-1.255035520E0,1.056132126E1
2.043446615E0,-1.238883972E0,-1.228714466E0,1.032682419E1
2.045933802E0,-1.399203062E0,-1.233500123E0,9.917352676E0
2.048420990E0,-2.126920223E0,-8.766704202E-1,9.653842926E0
2.050909011E0,-2.227418661E0,-6.876373887E-1,9.297312737E0
2.053396979E0,-2.289632082E0,-4.480560422E-1,9.084052086E0
2.055884167E0,-2.320738792E0,-2.709871531E-1,8.952446938E0
2.058371302E0,-2.344966173E0,-1.585244983E-1,8.990732193E0
2.060859323E0,-2.433500528E0,-1.513460279E-1,9.036195755E0
2.063347344E0,-2.481357098E0,-2.638086975E-1,9.112766266E0
2.065834479E0,-2.486142635E0,-2.350948304E-1,9.086444855E0
2.068321667E0,-2.423929453E0,-1.848455518E-1,9.172885895E0
2.070809688E0,-2.478964329E0,-6.041877344E-2,9.093623161E0
2.073297656E0,-2.402393818E0,2.572284266E-2,8.976374626E0
2.075784844E0,-2.342573404E0,1.983051747E-1,8.892625809E0
2.078272031E0,-2.315953255E0,4.758726060E-1,8.732307434E0
2.080760052E0,-2.366501570E0,7.896314859E-1,8.619844437E0
2.083248021E0,-2.131705761E0,7.920243144E-1,8.725129128E0
2.085735209E0,-2.007279158E0,9.714859724E-1,8.591130257E0
2.088222396E0,-1.849352837E0,1.138983607E0,8.622237206E0
2.090710417E0,-1.578664780E0,1.112662554E0,8.784949303E0
2.093198386E0,-1.358525038E0,1.251745343E0,8.849555016E0
2.095685521E0,-1.114158034E0,1.333101273E0,8.962018013E0
2.098172709E0,-8.796614408E-1,1.447956800E0,9.196813583E0
2.100660729E0,-7.241279483E-1,1.720738530E0,9.316454887E0
2.103148698E0,-6.352944374E-1,1.945963025E0,9.546165466E0
2.105635886E0,-6.089733839E-1,2.146960020E0,9.780961990E0
2.108123073E0,-7.935197949E-1,2.305185556E0,9.986744881E0
2.110611094E0,-1.085444212E0,2.396112680E0,1.017099190E1
2.113099063E0,-1.375274777E0,2.441576481E0,1.028614616E1
2.115586250E0,-1.612164259E0,2.463111877E0,1.035075283E1
2.118073438E0,-1.811067581E0,2.525325298E0,1.039382362E1
2.120561459E0,-1.945065737E0,2.647359133E0,1.044646549E1
2.123049427E0,-1.976172447E0,2.886940479E0,1.047039413E1
2.125536615E0,-1.942672849E0,3.037688255E0,1.041535854E1
2.128023750E0,-1.901994944E0,3.028116941E0,1.063549805E1
2.130511771E0,-1.918744683E0,3.035295486E0,1.085832977E1
2.132999792E0,-1.866102576E0,3.040081263E0,1.102343464E1
2.135486927E0,-1.698305845E0,2.930011272E0,1.114786148E1
2.137974115E0,-1.655235052E0,2.757428885E0,1.112871933E1
2.140462136E0,-1.602592945E0,2.676073074E0,1.100668526E1
2.142950104E0,-1.549950838E0,2.453540564E0,1.086790180E1
2.145437292E0,-1.549950838E0,2.194816589E0,1.066660500E1
2.147924479E0,-1.604985833E0,1.888535261E0,1.053260708E1
2.150412500E0,-1.830210209E0,1.656132340E0,1.039621639E1
2.152900469E0,-2.021636009E0,1.428814173E0,1.035075283E1
2.155387656E0,-2.340180635E0,1.292423368E0,1.035793114E1
2.157874792E0,-2.608176708E0,1.100698471E0,1.038903809E1
2.160362813E0,-2.653640270E0,1.052842021E0,1.037228775E1
2.162850834E0,-2.512463808E0,8.494520187E-1,1.036750221E1
2.165337969E0,-2.333002090E0,6.317051649E-1,1.037707329E1
2.167825156E0,-2.244168520E0,4.519443810E-1,1.043450165E1
2.170313177E0,-2.138884306E0,2.868396044E-1,1.041775131E1
2.172801146E0,-2.024028778E0,1.719841212E-1,1.037946606E1
2.175288334E0,-2.244168520E0,1.794616925E-3,1.046321487E1
2.177775521E0,-2.296810627E0,-1.393819153E-1,1.042014408E1
2.180263542E0,-2.081456661E0,-3.619144261E-1,1.036510944E1
2.182751511E0,-1.760519266E0,-5.967101455E-1,1.027418232E1
2.185238698E0,-1.518844128E0,-7.881359458E-1,1.015184879E1
2.187725886E0,-1.423131227E0,-8.958129883E-1,9.969994545E0
2.190213906E0,-1.454237938E0,-8.958129883E-1,9.706784248E0
2.192701875E0,-1.540379524E0,-8.862416744E-1,9.443274498E0
2.195189011E0,-1.633699656E0,-8.120641708E-1,9.213563919E0
2.197676198E0,-1.650449395E0,-7.594220638E-1,9.024231911E0
2.200164219E0,-1.669592023E0,-7.259225845E-1,8.890233040E0
2.202652240E0,-1.703091502E0,-6.852445602E-1,8.856734276E0
2.205139375E0,-1.664806366E0,-6.684948206E-1,8.902197838E0
2.207626563E0,-1.681556106E0,-5.727819204E-1,8.885447502E0
2.210114584E0,-1.715055585E0,-5.081757307E-1,8.938090324E0
2.212602552E0,-1.722234130E0,-4.025924206E-1,8.995517731E0
2.215089740E0,-1.782353759E0,-2.733799815E-1,9.055337906E0
2.217576927E0,-1.885245085E0,-1.274178028E-1,9.072088242E0
2.220064948E0,-1.990529299E0,-1.734796353E-2,9.110373497E0
2.222552917E0,-2.035992861E0,1.241276711E-1,9.182456970E0
2.225040104E0,-2.033600092E0,2.629113793E-1,9.302098274E0
2.227527240E0,-2.009671926E0,3.849453330E-1,9.421739578E0
2.230015261E0,-1.887637973E0,5.380859971E-1,9.536594391E0
2.232503281E0,-1.870888233E0,6.604190469E-1,9.665806770E0
2.234990417E0,-2.000100613E0,9.092726111E-1,9.749855042E0
2.237477604E0,-1.794317842E0,1.129412293E0,9.898209572E0
2.239965625E0,-1.418345571E0,1.232602715E0,1.003460121E1
2.242453594E0,-1.047158957E0,1.191924810E0,1.016381359E1
2.244940781E0,-1.212562919E0,1.416850090E0,1.022363377E1
2.247427969E0,-1.238883972E0,1.565205097E0,1.032921696E1
2.249915990E0,-1.159621716E0,1.641775489E0,1.037468052E1
2.252403959E0,-1.042373419E0,1.675274968E0,1.037468052E1
2.254891146E0,-1.181157112E0,1.886142492E0,1.051585770E1
2.257378281E0,-9.634101987E-1,2.048854351E0,1.130818081E1
2.259866302E0,-7.959126234E-1,2.348256350E0,1.172722340E1
2.262354323E0,-1.006481051E0,2.479861498E0,1.123639584E1
2.264841459E0,-1.289133191E0,2.623430967E0,1.070967579E1
2.267328646E0,-1.671984792E0,2.850749016E0,1.015902805E1
2.269816667E0,-1.880459547E0,2.982653379E0,9.663414001E0
2.272304688E0,-1.901994944E0,3.097508907E0,9.177671432E0
2.274791823E0,-1.942672849E0,3.291327477E0,8.698807716E0
2.277279011E0,-1.571486235E0,3.504587889E0,7.906185150E0
2.279767031E0,-1.365703583E0,3.739084482E0,7.480262756E0
2.282255000E0,-1.360917926E0,4.033700943E0,7.372286797E0
2.284742188E0,-1.432702541E0,4.265804768E0,7.439285755E0
2.287229375E0,-1.528415442E0,4.483551502E0,7.568797112E0
2.289717396E0,-1.571486235E0,4.639383793E0,7.855936050E0
2.292205365E0,-1.581057549E0,4.876273632E0,8.222336769E0
2.294692500E0,-1.576271892E0,5.067699432E0,8.624629974E0
2.297179688E0,-1.530808330E0,5.292923450E0,9.088837624E0
2.299667709E0,-1.621735573E0,5.546562672E0,9.572486877E0
2.302155677E0,-1.791925073E0,5.848357677E0,1.005613613E1
2.304642865E0,-2.169991016E0,6.025426388E0,1.049192905E1
2.307130052E0,-2.979363203E0,6.166603088E0,1.094447136E1
2.309618073E0,-3.716651678E0,6.298507214E0,1.128185940E1
2.312106042E0,-4.272085667E0,6.372684956E0,1.141854954E1
2.314593229E0,-4.691128731E0,6.128317833E0,1.116700459E1
2.317080417E0,-4.626522541E0,6.231508255E0,1.091097260E1
2.319568438E0,-5.071587563E0,6.298507214E0,1.077906799E1
2.322056406E0,-5.711069584E0,6.387042046E0,1.055892849E1
2.324543542E0,-5.995815277E0,6.434898376E0,1.016381359E1
2.327030729E0,-5.868995667E0,6.406184196E0,9.591629982E0
2.329518750E0,-5.248955727E0,6.341578007E0,8.950054169E0
2.332006771E0,-4.293621063E0,6.298507214E0,8.751449585E0
2.334493906E0,-3.194717407E0,6.253043652E0,8.610273361E0
2.336981094E0,-2.280060768E0,6.236293793E0,8.339585304E0
2.339469115E0,-1.334596872E0,6.056533337E0,8.009076118E0
2.341957084E0,-5.587241054E-1,5.812465191E0,7.700402260E0
2.344444271E0,2.814557552E-1,5.513063431E0,7.207181931E0
2.346931459E0,1.098006487E0,5.192425251E0,6.663712025E0
2.349419479E0,1.703689694E0,4.845166683E0,6.163312912E0
2.351907448E0,2.096112728E0,4.459623337E0,5.679663658E0
2.354394636E0,2.184946060E0,4.002593994E0,5.342275620E0
2.356881771E0,2.129612207E0,3.439981699E0,5.076373100E0
2.359369792E0,2.012363911E0,2.810070992E0,4.861019135E0
2.361857813E0,1.923829436E0,2.154138565E0,4.693521500E0
2.364344948E0,1.801795483E0,1.483849168E0,4.664807796E0
2.366832136E0,1.725225091E0,8.087740541E-1,4.611866474E0
2.369320156E0,1.447358608E0,1.265204996E-1,4.542474747E0
2.371808125E0,1.196112275E0,-5.416752100E-1,4.434797764E0
2.374295313E0,8.919246197E-1,-1.111466169E0,4.353441715E0
2.376782500E0,5.401797295E-1,-1.613958836E0,4.315156460E0
2.379270521E0,1.091725305E-1,-2.013859272E0,4.147658825E0
2.381758490E0,-4.366901219E-1,-2.370688915E0,4.082753658E0
2.384245677E0,-1.123729348E0,-2.578864574E0,3.984647989E0
2.386732813E0,-1.746162295E0,-2.667398930E0,3.982254982E0
2.389220834E0,-2.292025089E0,-2.698505640E0,4.056432724E0
2.391708854E0,-2.962613583E0,-2.598007202E0,4.214657784E0
2.394195990E0,-3.587439299E0,-2.435295343E0,4.401298046E0
2.396683177E0,-4.255335808E0,-2.227119684E0,4.540081978E0
2.399171198E0,-4.837090969E0,-2.049751759E0,4.707878590E0
2.401659167E0,-5.359025478E0,-1.843968987E0,4.894518852E0
2.404146354E0,-5.813961029E0,-1.664507270E0,5.009374142E0
2.406633542E0,-6.182455540E0,-1.508674622E0,5.038087845E0
2.409121563E0,-6.402894497E0,-1.532602906E0,4.918447018E0
2.411609531E0,-6.567998886E0,-1.609173179E0,4.791627407E0
2.414096719E0,-6.812067032E0,-1.523031592E0,4.968696117E0
2.416583906E0,-7.044469833E0,-1.506281853E0,5.023731232E0
2.419071927E0,-7.240681171E0,-1.494317770E0,5.040481091E0
2.421559896E0,-7.403692245E0,-1.503889084E0,5.047659397E0
2.424047031E0,-7.449155807E0,-1.542174220E0,5.004588604E0
2.426534219E0,-7.369893551E0,-1.604387641E0,4.899304390E0
2.429022240E0,-7.267002583E0,-1.721935034E0,4.724628448E0
2.431510209E0,-7.121040344E0,-1.827219248E0,4.535296440E0
2.433997396E0,-6.979863644E0,-1.987538338E0,4.363012791E0
2.436484584E0,-6.910471916E0,-2.121536493E0,4.207479477E0
2.438972604E0,-6.853044033E0,-2.303689957E0,4.089931965E0
2.441460573E0,-6.833901405E0,-2.468794823E0,4.003790379E0
2.443947761E0,-6.824330330E0,-2.645863533E0,3.900899172E0
2.446434948E0,-6.817151546E0,-2.801696301E0,3.809971809E0
2.448922969E0,-6.845865726E0,-2.978765011E0,3.716651678E0
2.451410938E0,-6.896114826E0,-3.115155935E0,3.592225075E0
2.453898073E0,-6.979863644E0,-3.275475025E0,3.505784273E0
2.456385261E0,-7.032505512E0,-3.486342669E0,3.445963621E0
2.458873281E0,-7.161718369E0,-3.661018610E0,3.510569811E0
2.461361250E0,-7.554440022E0,-3.876671791E0,3.683152199E0
2.463848438E0,-8.011768341E0,-4.036991119E0,3.814757586E0
2.466335625E0,-8.557631493E0,-4.202095509E0,3.924827337E0
2.468823646E0,-9.096315384E0,-4.348057747E0,3.982254982E0
2.471311615E0,-9.685248375E0,-4.463212490E0,4.046861172E0
2.473798802E0,-1.025264645E1,-4.561318398E0,4.025325775E0
2.476285990E0,-1.082243729E1,-4.630710125E0,3.943969965E0
2.478774011E0,-1.135155106E1,-4.731208801E0,3.843471289E0
2.481261979E0,-1.189502048E1,-4.802993298E0,3.690330744E0
2.483749115E0,-1.241187000E1,-4.853242397E0,3.613760471E0
2.486236302E0,-1.287876987E1,-4.886742115E0,3.647259951E0
2.488724323E0,-1.336959743E1,-4.939383984E0,3.675973892E0
2.491212344E0,-1.379103374E1,-4.958526611E0,3.623331785E0
2.493699479E0,-1.413111305E1,-4.956133842E0,3.601796389E0
2.496186667E0,-1.441346645E1,-4.936991215E0,3.601796389E0
2.498674688E0,-1.460010624E1,-4.903491974E0,3.635295868E0
2.501162656E0,-1.473918915E1,-4.913063049E0,3.733401537E0
2.503649844E0,-1.484208107E1,-4.958526611E0,3.903291941E0
2.506137031E0,-1.491386509E1,-5.030610561E0,4.095016956E0
2.508625052E0,-1.494975758E1,-5.150251865E0,4.331906319E0
2.511113021E0,-1.494497204E1,-5.250750065E0,4.556831837E0
2.513600156E0,-1.487318707E1,-5.310570717E0,4.765306473E0
2.516087344E0,-1.474636745E1,-5.475675583E0,4.920839787E0
2.518575365E0,-1.462642765E1,-5.420640469E0,5.140979290E0
2.521063334E0,-1.449482250E1,-5.260321617E0,5.337490082E0
2.523550521E0,-1.434407425E1,-5.030610561E0,5.567201138E0
2.526037709E0,-1.413829136E1,-4.764708042E0,5.799603939E0
2.528525729E0,-1.391306686E1,-4.444069862E0,6.019743443E0
2.531013698E0,-1.363549995E1,-4.101597309E0,6.163312912E0
2.533500886E0,-1.328824139E1,-3.737588882E0,6.208776474E0
2.535988073E0,-1.297448254E1,-3.373879910E0,6.225526333E0
2.538476094E0,-1.262752342E1,-3.021835804E0,6.168098450E0
2.540964063E0,-1.225155067E1,-2.720041037E0,6.136991978E0
2.543451198E0,-1.192852020E1,-2.428116798E0,6.129813194E0
2.545938386E0,-1.158843994E1,-2.186142683E0,6.165705681E0
2.548426406E0,-1.129382420E1,-1.970788598E0,6.230311871E0
2.550914427E0,-1.105693436E1,-1.822433591E0,6.374180317E0
2.553401563E0,-1.088704395E1,-1.674078584E0,6.587141514E0
2.555888750E0,-1.076740265E1,-1.580459356E0,6.733103752E0
2.558376771E0,-1.071924686E1,-1.515853167E0,6.855137825E0
2.560864740E0,-1.077936649E1,-1.360319614E0,7.030112743E0
2.563351927E0,-1.099232769E1,-1.101894855E0,7.197610378E0
2.565839115E0,-1.132522964E1,-7.426723242E-1,7.271788120E0
2.568327136E0,-1.150229836E1,-7.115656137E-1,7.061219692E0
2.570815104E0,-1.151426220E1,-9.723833203E-1,6.833602428E0
2.573302292E0,-1.154297638E1,-1.121037364E0,6.845566273E0
2.575789427E0,-1.171286678E1,-1.123430252E0,7.042077065E0
2.578277448E0,-1.190698433E1,-1.039382339E0,7.211967468E0
2.580765469E0,-1.208883953E1,-1.065703392E0,7.211967468E0
2.583252604E0,-1.239033508E1,-1.022632599E0,7.345965385E0
2.585739792E0,-1.287159157E1,-7.331010103E-1,7.798508167E0
2.588227813E0,-1.325474167E1,-5.177469850E-1,7.977969646E0
2.590715781E0,-1.362114334E1,-4.695914388E-1,8.097909927E0
2.593202969E0,-1.382453251E1,-6.326025128E-1,8.028517723E0
2.595690156E0,-1.399681568E1,-9.245268703E-1,7.954041481E0
2.598178177E0,-1.414547062E1,-1.034596682E0,7.839186192E0
2.600666146E0,-1.431057453E1,-1.140179992E0,7.683652401E0
2.603153334E0,-1.437039566E1,-1.245464206E0,7.604689598E0
2.605640469E0,-1.434168148E1,-1.491924882E0,7.571189880E0
2.608128490E0,-1.418614769E1,-1.863111496E0,7.575975418E0
2.610616459E0,-1.399920845E1,-2.128714800E0,7.518548012E0
2.613103646E0,-1.381256866E1,-2.289333105E0,7.489833832E0
2.615590834E0,-1.356371498E1,-2.349153519E0,7.448856831E0
2.618078854E0,-1.326191998E1,-2.361117840E0,7.348358154E0
2.620566823E0,-1.288355541E1,-2.370688915E0,7.211967468E0
2.623054011E0,-1.245763302E1,-2.339582443E0,7.046862602E0
2.625541198E0,-1.193330574E1,-2.315654039E0,6.920042992E0
2.628029219E0,-1.135633659E1,-2.229512453E0,6.816852570E0
2.630517188E0,-1.080808067E1,-2.080858469E0,6.716353893E0
2.633004323E0,-1.026461124E1,-1.851147413E0,6.699604511E0
2.635491511E0,-9.661320686E0,-1.674078584E0,6.704390049E0
2.637979531E0,-9.091529846E0,-1.475175142E0,6.675675869E0
2.640467500E0,-8.492725372E0,-1.226321578E0,6.651747704E0
2.642954688E0,-7.944769382E0,-9.843474030E-1,6.524928093E0
2.645441875E0,-7.430013180E0,-7.809575200E-1,6.311667919E0
2.647929896E0,-7.010970116E0,-5.967101455E-1,5.983851433E0
2.650417865E0,-6.642176628E0,-4.121637046E-1,5.778068542E0
2.652905052E0,-6.326323986E0,-2.709871531E-1,5.935994625E0
2.655392240E0,-6.089135647E0,-1.250249892E-1,6.192026615E0
2.657880261E0,-5.921638012E0,7.866404206E-2,6.417251110E0
2.660368229E0,-5.888138294E0,3.490529954E-1,6.381359100E0
2.662855365E0,-5.892923832E0,5.620142221E-1,6.448358059E0
2.665342552E0,-5.957530022E0,8.015955687E-1,6.474678993E0
2.667830573E0,-6.069993019E0,1.012163997E0,6.541677952E0
2.670318594E0,-6.225526333E0,1.211067319E0,6.632605076E0
2.672805729E0,-6.331109524E0,1.364207983E0,6.792924404E0
2.675292917E0,-6.393322945E0,1.330708504E0,7.183253765E0
2.677780938E0,-6.524928093E0,1.273280740E0,7.616653442E0
2.680268906E0,-6.713961124E0,1.254138112E0,7.891828060E0
2.682756094E0,-7.051648140E0,1.223031521E0,8.172087669E0
2.685243281E0,-7.446763039E0,1.215852976E0,8.306085587E0
2.687731302E0,-7.784151077E0,1.146162033E0,8.478368759E0
2.690219271E0,-8.114660263E0,1.098305583E0,8.516654015E0
2.692706406E0,-8.425726891E0,1.153340459E0,8.442476273E0
2.695193594E0,-8.737092972E0,1.196710467E0,8.420941353E0
2.697681615E0,-8.990732193E0,1.213460207E0,8.337192535E0
2.700169584E0,-9.151350021E0,1.182353497E0,8.219944000E0
2.702656771E0,-9.297312737E0,1.127019525E0,8.196015358E0
2.705143959E0,-9.445667267E0,1.038485050E0,8.284550667E0
2.707631979E0,-9.548559189E0,8.853443861E-1,8.418548584E0
2.710119948E0,-9.623035431E0,6.556333899E-1,8.574081421E0
2.712607136E0,-9.730711937E0,2.796611488E-1,8.753842354E0
2.715094271E0,-9.785747528E0,-2.135594189E-1,8.825627327E0
2.717582292E0,-9.900602341E0,-7.474579811E-1,8.744271278E0
2.720070313E0,-9.941280365E0,-1.348355532E0,8.782556534E0
2.722557448E0,-1.004417229E1,-1.887039781E0,8.694022179E0
2.725044636E0,-1.020479012E1,-2.418545485E0,8.444869041E0
2.727532656E0,-1.036271667E1,-2.906980515E0,8.066802979E0
2.730020625E0,-1.050150013E1,-3.340380430E0,7.642974854E0
2.732507813E0,-1.061635590E1,-3.682554007E0,7.262216568E0
2.734995000E0,-1.070489025E1,-3.991527319E0,6.766603470E0
2.737483021E0,-1.072642612E1,-4.204488277E0,6.235097408E0
2.739970990E0,-1.059003448E1,-4.312165737E0,5.504987717E0
2.742458177E0,-1.031007481E1,-4.422235489E0,4.700700283E0
2.744945313E0,-9.931709290E0,-4.558925152E0,3.812364578E0
2.747433334E0,-9.519845009E0,-4.657031059E0,3.036791086E0
2.749921354E0,-9.045766830E0,-4.645066738E0,2.522035122E0
2.752408490E0,-8.607880592E0,-4.666602135E0,2.186740875E0
2.754895677E0,-8.205587387E0,-4.659423828E0,1.909173369E0
2.757383698E0,-7.872685432E0,-4.697709084E0,1.597807288E0
2.759871667E0,-7.597510815E0,-4.707280159E0,1.202692509E0
2.762358854E0,-7.369893551E0,-4.680959225E0,8.102695942E-1
2.764846042E0,-7.192824841E0,-4.649852753E0,4.821537733E-1
2.767334063E0,-7.106683254E0,-4.616353035E0,2.787638307E-1
2.769822031E0,-7.044469833E0,-4.664209366E0,2.045863420E-1
2.772309219E0,-7.075576782E0,-4.788636208E0,1.325025558E-1
2.774796354E0,-7.274180889E0,-4.869992256E0,9.900303930E-2
2.777284375E0,-7.506583691E0,-4.874777794E0,1.998006850E-1
2.779772396E0,-7.767401218E0,-4.846064091E0,3.792623878E-1
2.782259531E0,-8.042875290E0,-4.783850670E0,5.491527915E-1
2.784746719E0,-8.310871124E0,-4.695316315E0,6.711867452E-1
2.787234740E0,-8.619844437E0,-4.623531342E0,6.664010882E-1
2.789722709E0,-8.851948738E0,-4.566103935E0,5.395814776E-1
2.792209896E0,-9.017052650E0,-4.444069862E0,3.720839322E-1
2.794697084E0,-9.148957253E0,-4.304986954E0,3.218346536E-1
2.797185104E0,-9.218349457E0,-4.142275333E0,3.481557071E-1
2.799673073E0,-9.259027481E0,-4.025026798E0,4.845465720E-1
2.802160209E0,-9.316454887E0,-3.965206146E0,7.166503668E-1
2.804647396E0,-9.330811501E0,-3.888635874E0,9.681958556E-1
2.807135417E0,-9.361918449E0,-3.809373617E0,1.219442248E0
2.809623386E0,-9.395418167E0,-3.692125320E0,1.447059512E0
2.812110573E0,-9.388239861E0,-3.541377544E0,1.624128342E0
2.814597761E0,-9.345169067E0,-3.361915827E0,1.777269006E0
2.817085781E0,-9.306883812E0,-3.148655415E0,1.849352837E0
2.819573750E0,-9.244669914E0,-2.918944597E0,1.894816399E0
2.822060938E0,-9.148957253E0,-2.801696301E0,1.772483349E0
2.824548125E0,-8.985946655E0,-2.693720102E0,1.559522152E0
2.827036146E0,-8.796913147E0,-2.633899450E0,1.322632670E0
2.829524115E0,-8.504988670E0,-2.581257343E0,1.173978567E0
2.832011250E0,-8.143373489E0,-2.614757061E0,1.018445134E0
2.834498438E0,-7.776972771E0,-2.775375128E0,9.753743410E-1
2.836986459E0,-7.482655525E0,-2.952444077E0,1.102193952E0
2.839474427E0,-7.357929707E0,-3.026621580E0,1.384846091E0
2.841961615E0,-7.310073376E0,-2.997907639E0,1.820339799E0
2.844448802E0,-7.293323517E0,-2.914158821E0,2.172383785E0
2.846936823E0,-7.345965385E0,-2.837588549E0,2.351845503E0
2.849424792E0,-7.461120129E0,-2.736790895E0,2.289632082E0
2.851911979E0,-7.650153160E0,-2.576471806E0,1.961815476E0
2.854399115E0,-7.865507126E0,-2.385046005E0,1.518844128E0
2.856887136E0,-8.047660828E0,-2.164607286E0,1.154836059E0
2.859375156E0,-8.217551231E0,-1.899003863E0,9.394819736E-1
2.861862292E0,-8.308478355E0,-1.645364642E0,9.873384237E-1
2.864349479E0,-8.408976555E0,-1.436890006E0,1.286740422E0
2.866837500E0,-8.495118141E0,-1.266999602E0,1.724626899E0
2.869325469E0,-8.581559181E0,-1.094716311E0,2.191526413E0
2.871812656E0,-8.612666130E0,-9.699904919E-1,2.617748022E0
2.874299844E0,-8.600702286E0,-8.718847632E-1,2.950350285E0
2.876787865E0,-8.571988106E0,-7.570292354E-1,3.125325441E0
2.879275834E0,-8.504988670E0,-6.732804775E-1,3.295215845E0
2.881763021E0,-8.385048866E0,-6.110670567E-1,3.431606770E0
2.884250156E0,-8.296514511E0,-5.416752100E-1,3.589832067E0
2.886738177E0,-8.172087669E0,-4.408775866E-1,3.759722471E0
2.889226198E0,-8.054839134E0,-3.403790295E-1,4.015754700E0
2.891713334E0,-7.956733704E0,-2.350948304E-1,4.217051029E0
2.894200521E0,-7.867899895E0,-1.824527234E-1,4.475475788E0
2.896688542E0,-7.793722630E0,-5.563312769E-2,4.717449665E0
2.899176511E0,-7.753044605E0,6.909275055E-2,4.949553490E0
2.901663698E0,-7.803293705E0,9.780662507E-2,5.265705109E0
2.904150886E0,-7.934898853E0,1.145563871E-1,5.607879162E0
2.906638906E0,-8.073982239E0,1.193420291E-1,5.971887112E0
2.909126875E0,-8.184051514E0,1.767697781E-1,6.268597126E0
2.911614011E0,-8.341978073E0,2.006980032E-1,6.474678993E0
2.914101198E0,-8.428119659E0,2.605185509E-1,6.522535324E0
2.916589219E0,-8.514560699E0,3.610171080E-1,6.441179276E0
2.919077188E0,-8.528917313E0,4.160520434E-1,6.235097408E0
2.921564375E0,-8.461619377E0,4.902295470E-1,5.924030781E0
2.924051563E0,-8.351549149E0,5.667998791E-1,5.617450237E0
2.926539584E0,-8.210372925E0,6.484549642E-1,5.265705109E0
2.929027552E0,-7.995018482E0,7.130611539E-1,5.026124001E0
2.931514740E0,-7.738687515E0,7.633104324E-1,4.798805714E0
2.934001875E0,-7.485048294E0,7.393822074E-1,4.585545540E0
2.936489896E0,-7.221538544E0,6.987041831E-1,4.432404995E0
2.938977917E0,-6.951149940E0,7.345965505E-1,4.305585384E0
2.941465052E0,-6.668497562E0,7.226324677E-1,4.221836567E0
2.943952240E0,-6.431608200E0,6.939185858E-1,4.128516197E0
2.946440261E0,-6.227919102E0,6.867401004E-1,4.025325775E0
2.948928229E0,-6.117849350E0,6.460621357E-1,3.843471289E0
2.951415417E0,-5.981458187E0,6.460621357E-1,3.637688637E0
2.953902604E0,-5.914459229E0,6.002993584E-1,3.424428225E0
2.956390625E0,-5.897709846E0,5.667998791E-1,3.168396235E0
2.958878594E0,-5.868995667E0,5.787639618E-1,2.852244616E0
2.961365781E0,-5.878567219E0,5.596213937E-1,2.550748825E0
2.963852917E0,-5.976672649E0,5.165506005E-1,2.292025089E0
2.966340938E0,-6.067600250E0,4.351946115E-1,2.158026934E0
2.968828959E0,-6.211169243E0,3.442673683E-1,1.985743642E0
2.971316094E0,-6.400501251E0,2.868396044E-1,1.729412556E0
2.973803281E0,-6.606284142E0,2.485544533E-1,1.552343726E0
2.976291302E0,-6.879364967E0,1.839482337E-1,1.408774376E0
2.978779271E0,-7.235895634E0,6.191428751E-2,1.353739381E0
2.981266459E0,-7.645367622E0,-6.999006122E-2,1.420738459E0
2.983753646E0,-8.081160545E0,-2.159522474E-1,1.557129383E0
2.986241667E0,-8.545666695E0,-3.858426511E-1,1.758126378E0
2.988729636E0,-8.954839706E0,-5.991029739E-1,1.933101535E0
2.991216823E0,-9.364311218E0,-8.455637097E-1,2.062314034E0
2.993703959E0,-9.759426117E0,-1.097109199E0,2.234597206E0
2.996191979E0,-1.013509941E1,-1.384247899E0,2.359024048E0
2.998680000E0,-1.055174923E1,-1.681257010E0,2.423929453E0
3.001167136E0,-1.095404339E1,-1.954038739E0,2.419143677E0
3.003654323E0,-1.131565857E1,-2.265404940E0,2.380559444E0
3.006142344E0,-1.163151073E1,-2.557329178E0,2.385344982E0
3.008630313E0,-1.195484066E1,-2.866302490E0,2.459821701E0
3.011117500E0,-1.220608711E1,-3.174976587E0,2.567498684E0
3.013604688E0,-1.240469170E1,-3.460021496E0,2.620140791E0
3.016092709E0,-1.255334568E1,-3.749552965E0,2.627319336E0
3.018580677E0,-1.258684540E1,-4.034597874E0,2.608176708E0
3.021067813E0,-1.254856014E1,-4.242773533E0,2.574677229E0
3.023555000E0,-1.246959686E1,-4.417449474E0,2.533999205E0
3.026043021E0,-1.230419350E1,-4.590032101E0,2.378166676E0
3.028530990E0,-1.212233829E1,-4.716851711E0,2.038385868E0
3.031018177E0,-1.183490086E1,-4.872385025E0,1.585843205E0
3.033505365E0,-1.150469112E1,-4.977669239E0,1.121336460E0
3.035993386E0,-1.112154007E1,-5.123930454E0,7.456633449E-1
3.038481354E0,-1.068814087E1,-5.289035320E0,5.300102234E-1
3.040968542E0,-1.028375340E1,-5.504389286E0,5.132604837E-1
3.043455677E0,-9.934102058E0,-5.676971912E0,6.113662124E-1
3.045943698E0,-9.682855606E0,-5.751149178E0,7.238288522E-1
3.048431719E0,-9.747462273E0,-5.796612740E0,6.400800347E-1
3.050918854E0,-1.001785088E1,-5.988038540E0,7.432705164E-1
3.053406042E0,-9.709177017E0,-6.146264076E0,1.226620674E0
3.055894063E0,-9.515059471E0,-6.232405663E0,1.116550922E0
3.058382031E0,-9.404989243E0,-6.440581322E0,7.576274872E-1
3.060869219E0,-9.278169632E0,-6.620042801E0,2.691925466E-1
3.063356406E0,-9.113064766E0,-6.711269379E0,-3.628117442E-1
3.065844427E0,-8.847162247E0,-6.723233223E0,-9.759725332E-1
3.068332396E0,-8.524131775E0,-6.655935287E0,-1.485643744E0
3.070819531E0,-8.102695465E0,-6.620042801E0,-1.813759565E0
3.073306719E0,-7.700402260E0,-6.608078957E0,-2.067398787E0
3.075794740E0,-7.540083408E0,-6.742375851E0,-2.086840391E0
3.078282709E0,-7.544868946E0,-6.979265213E0,-1.923829436E0
3.080769896E0,-7.688438416E0,-7.192226887E0,-1.658226132E0
3.083257084E0,-7.922935009E0,-7.343273640E0,-1.337288737E0
3.085745104E0,-8.241478920E0,-7.458128929E0,-1.028614640E0
3.088233073E0,-8.622237206E0,-7.517949581E0,-7.435696125E-1
3.090720261E0,-8.978767395E0,-7.551449299E0,-4.683950245E-1
3.093207396E0,-9.266205788E0,-7.549056530E0,-2.240280211E-1
3.095695417E0,-9.476774216E0,-7.448557854E0,-1.139581800E-1
3.098183438E0,-9.591629982E0,-7.321738243E0,-1.211366430E-1
3.100670573E0,-9.630213737E0,-7.199405193E0,-1.378864050E-1
3.103157761E0,-9.610772133E0,-7.060621262E0,-1.713859290E-1
3.105645781E0,-9.529416084E0,-6.931408882E0,-1.402792335E-1
3.108133750E0,-9.421739578E0,-6.811768055E0,-6.131608039E-2
3.110620938E0,-9.290133476E0,-6.725626469E0,1.013958603E-1
3.113108125E0,-9.280562401E0,-6.643970966E0,3.170489967E-1
3.115596146E0,-9.321240425E0,-6.524330139E0,6.376872063E-1
3.118084115E0,-9.385847092E0,-6.462116718E0,9.825528264E-1
3.120571302E0,-9.488738060E0,-6.368796349E0,1.372882009E0
3.123058438E0,-9.623035431E0,-6.273083687E0,1.748555183E0
3.125546459E0,-9.771389961E0,-6.189334869E0,2.024028778E0
3.128034427E0,-9.919745445E0,-6.093322754E0,2.344667196E0
3.130521615E0,-1.012074280E1,-6.090929985E0,2.648854733E0
3.133008802E0,-1.031486034E1,-6.043073654E0,2.935993433E0
3.135496823E0,-1.046560764E1,-5.964110374E0,3.130111217E0
3.137984792E0,-1.057567787E1,-5.875576019E0,3.278466225E0
3.140471979E0,-1.060678482E1,-5.779862881E0,3.374179125E0
3.142959167E0,-1.061874866E1,-5.674578667E0,3.498605728E0
3.145447188E0,-1.064985561E1,-5.506782055E0,3.632902861E0
3.147935156E0,-1.060439205E1,-5.356034279E0,3.809971809E0
3.150422292E0,-1.055653572E1,-5.207679272E0,3.924827337E0
3.152909479E0,-1.050150013E1,-5.059324265E0,3.999004841E0
3.155397500E0,-1.038664532E1,-4.891527653E0,4.058825493E0
3.157885469E0,-1.021914768E1,-4.666602135E0,4.020540237E0
3.160372656E0,-1.001306534E1,-4.472783566E0,3.977469444E0
3.162859844E0,-9.804889679E0,-4.314558506E0,3.936791420E0
3.165347865E0,-9.615557671E0,-4.151846409E0,3.920041800E0
3.167835834E0,-9.464810371E0,-3.996312857E0,3.860221148E0
3.170323021E0,-9.366703987E0,-3.785445452E0,3.788436413E0
3.172810156E0,-9.227920532E0,-3.560520172E0,3.654438496E0
3.175298177E0,-9.136993408E0,-3.388236761E0,3.510569811E0
3.177786146E0,-9.007481575E0,-3.253939629E0,3.307179928E0
3.180273334E0,-8.981161118E0,-3.124727249E0,3.158824921E0
3.182760521E0,-8.993124962E0,-3.021835804E0,3.063112020E0
3.185248542E0,-9.048159599E0,-2.954836845E0,3.108575821E0
3.187736511E0,-9.113064766E0,-2.895016193E0,3.168396235E0
3.190223698E0,-9.201599121E0,-2.808874607E0,3.331108332E0
3.192710886E0,-9.275776863E0,-2.808874607E0,3.857828379E0
3.195198906E0,-9.419346809E0,-2.787339211E0,4.492225647E0
3.197686875E0,-9.630213737E0,-2.780160904E0,4.978267670E0
3.200174011E0,-9.802496910E0,-2.660220623E0,5.093122959E0
3.202661198E0,-9.790533066E0,-2.564507723E0,5.157729149E0
3.205149219E0,-9.685248375E0,-2.554936409E0,5.294419289E0
3.207637188E0,-9.577272415E0,-2.516651154E0,5.524130344E0
3.210124375E0,-9.507881165E0,-2.559721947E0,5.641378403E0
3.212611563E0,-9.345169067E0,-2.550150633E0,5.313561916E0
3.215099584E0,-8.993124962E0,-2.497508526E0,4.782055855E0
3.217587552E0,-8.492725372E0,-2.382653236E0,4.396512508E0
3.220074740E0,-8.021339417E0,-2.263011932E0,4.229014874E0
3.222561875E0,-7.602296829E0,-2.169392824E0,4.152444363E0
3.225049896E0,-7.214360237E0,-2.037787676E0,3.898506403E0
3.227537917E0,-6.948757172E0,-2.042573214E0,3.762115479E0
3.230025052E0,-6.759424686E0,-2.037787676E0,3.781257868E0
3.232512240E0,-6.646962166E0,-2.054537296E0,3.970290899E0
3.235000261E0,-6.630212307E0,-2.078465462E0,4.267300129E0
3.237488229E0,-6.733103752E0,-2.042573214E0,4.487439632E0
3.239975417E0,-6.886543751E0,-2.061715841E0,4.578367233E0
3.242462604E0,-7.080362320E0,-2.111965179E0,4.516153812E0
3.244950625E0,-7.204789162E0,-2.274976015E0,4.849055290E0
3.247438594E0,-7.250252724E0,-2.509472847E0,5.619843006E0
3.249925729E0,-7.394121170E0,-2.820838690E0,6.163312912E0
3.252412917E0,-7.635796070E0,-2.954836845E0,6.050850391E0
3.254900938E0,-7.827221870E0,-2.799303293E0,5.382953644E0
3.257388906E0,-7.954340458E0,-2.511865616E0,4.193122387E0
3.259876094E0,-7.983054638E0,-2.279761791E0,2.782852650E0
3.262363281E0,-7.839186192E0,-2.215155602E0,1.502094388E0
3.264851302E0,-7.611867905E0,-2.406581402E0,7.408776879E-1
3.267339271E0,-7.307680130E0,-2.756232500E0,8.461619020E-1
3.269826459E0,-6.955935478E0,-3.237190008E0,1.612164259E0
3.272313594E0,-6.713961124E0,-3.771088600E0,2.605783939E0
3.274801615E0,-6.611069679E0,-4.295415878E0,3.778865099E0
3.277289636E0,-6.757031918E0,-4.740779877E0,4.691128731E0
3.279776771E0,-7.051648140E0,-4.948955536E0,4.896911621E0
3.282263959E0,-7.420442104E0,-4.886742115E0,4.712664127E0
3.284751979E0,-7.877471447E0,-4.640281200E0,4.109373569E0
3.287239948E0,-8.296514511E0,-4.319344044E0,3.132503986E0
3.289727136E0,-8.574380875E0,-4.115953922E0,1.923530340E0
3.292214323E0,-8.784949303E0,-4.072883129E0,8.365905881E-1
3.294702344E0,-8.981161118E0,-4.108775616E0,1.109671518E-1
3.297190313E0,-9.103493690E0,-4.261916161E0,-9.002995491E-2
3.299677448E0,-9.177671432E0,-4.479962349E0,2.213360965E-1
3.302164636E0,-9.244669914E0,-4.728815556E0,6.616154313E-1
3.304652656E0,-9.316454887E0,-4.972883701E0,1.114158034E0
3.307140625E0,-9.304491043E0,-5.200500965E0,1.676770449E0
3.309627813E0,-9.256634712E0,-5.391926765E0,1.846660852E0
3.312115000E0,-9.132207870E0,-5.535496235E0,1.676770449E0
3.314603021E0,-9.084351540E0,-5.549852848E0,1.255334616E0
3.317090990E0,-9.009874344E0,-5.497210979E0,7.456633449E-1
3.319578177E0,-8.938090324E0,-5.396712303E0,1.420738399E-1
3.322065313E0,-8.887840271E0,-5.289035320E0,-2.072782665E-1
3.324553334E0,-8.909376144E0,-5.107180595E0,-2.814557552E-1
3.327041302E0,-8.926125526E0,-4.925027370E0,-1.737787426E-1
3.329528490E0,-9.040981293E0,-4.771886349E0,5.593222752E-2
3.332015677E0,-9.220742226E0,-4.570889473E0,3.888336718E-1
3.334503698E0,-9.431310654E0,-4.300201416E0,6.017948985E-1
3.336991667E0,-9.637392044E0,-4.087240219E0,6.975077987E-1
3.339478854E0,-9.735498428E0,-3.912564039E0,5.108676553E-1
3.341966042E0,-9.642177582E0,-3.842873096E0,1.612164229E-1
3.344454063E0,-9.457631111E0,-3.768695593E0,-2.288136631E-1
3.346942031E0,-9.287740707E0,-3.708875179E0,-4.588237405E-1
3.349429167E0,-9.151350021E0,-3.759124279E0,-3.843471408E-1
3.351916354E0,-9.036195755E0,-3.857230186E0,-1.163510010E-1
3.354404375E0,-8.954839706E0,-3.922135353E0,3.936193287E-1
3.356892344E0,-8.883054733E0,-3.953242064E0,8.629116416E-1
3.359379531E0,-8.842376709E0,-3.974777460E0,1.159621716E0
3.361866719E0,-8.902197838E0,-4.017848492E0,1.240977645E0
3.364354740E0,-9.062815666E0,-3.926921129E0,1.188335538E0
3.366842709E0,-9.270991325E0,-3.902992725E0,1.140479088E0
3.369329844E0,-9.460023880E0,-3.902992725E0,1.154836059E0
3.371817031E0,-9.579665184E0,-3.821337700E0,9.299107194E-1
3.374305052E0,-9.574879646E0,-3.637090445E0,7.552346587E-1
3.376793073E0,-9.407382011E0,-3.376272678E0,1.059123158E0
3.379280209E0,-9.110671997E0,-3.076870918E0,1.353739381E0
3.381767396E0,-8.708378792E0,-2.816053152E0,1.459023595E0
3.384255417E0,-8.267800331E0,-2.552543640E0,1.526022673E0
3.386743386E0,-7.841578960E0,-2.277369022E0,1.616949916E0
3.389230573E0,-7.403692245E0,-1.939681888E0,1.772483349E0
3.391717709E0,-7.042077065E0,-1.676471353E0,2.021636009E0
3.394205729E0,-6.761817455E0,-1.496710539E0,2.363809586E0
3.396693750E0,-6.591927052E0,-1.420140266E0,2.775674343E0
3.399180886E0,-6.436393738E0,-1.310070395E0,3.252145052E0
3.401668073E0,-6.148955822E0,-1.156929731E0,3.697509289E0
3.404156094E0,-6.005386829E0,-9.987043738E-1,4.075575352E0
3.406644063E0,-6.038886070E0,-9.340981245E-1,4.365406036E0
3.409131250E0,-6.165705681E0,-8.910273314E-1,4.494618416E0
3.411618438E0,-6.203990936E0,-8.288139701E-1,4.465904236E0
3.414106459E0,-6.189633846E0,-8.096713424E-1,4.288835526E0
3.416594427E0,-6.230311871E0,-8.718847632E-1,4.181158543E0
3.419081615E0,-6.271288872E0,-9.173483849E-1,4.181158543E0
3.421568750E0,-6.280860424E0,-8.575277925E-1,4.293621063E0
3.424056771E0,-6.271288872E0,-5.871388316E-1,4.291228294E0
3.426544740E0,-6.405287266E0,-6.062814593E-1,4.561617374E0
3.429031927E0,-6.546463490E0,-4.743770957E-1,4.126123428E0
3.431519115E0,-6.544070721E0,-3.236292601E-1,3.173182011E0
3.434007136E0,-6.713961124E0,-7.259225845E-1,3.731008768E0
3.436495104E0,-6.819544315E0,-9.340981245E-1,3.616153240E0
3.438982292E0,-6.812067032E0,-1.176072359E0,3.486641645E0
3.441469479E0,-6.790531635E0,-1.441675663E0,3.599403381E0
3.443957500E0,-6.819544315E0,-1.762612939E0,3.565903902E0
3.446445469E0,-6.764210701E0,-1.968395710E0,3.551547050E0
3.448932604E0,-6.723532677E0,-2.306082726E0,3.544368505E0
3.451419792E0,-6.771389008E0,-2.619542599E0,3.527319670E0
3.453907813E0,-6.836294174E0,-2.818445921E0,3.364607811E0
3.456395781E0,-6.862615108E0,-2.885445118E0,3.084647417E0
3.458882969E0,-6.920042992E0,-2.959622622E0,2.754138947E0
3.461370104E0,-6.862615108E0,-3.021835804E0,2.474178553E0
3.463858125E0,-6.797709942E0,-3.103191853E0,2.196312189E0
3.466346146E0,-6.876972198E0,-3.091227770E0,1.822732687E0
3.468833281E0,-6.987041950E0,-3.129513025E0,1.408774376E0
3.471320469E0,-6.994220734E0,-3.189333439E0,1.030409217E0
3.473808490E0,-6.979863644E0,-3.198904753E0,7.911269665E-1
3.476296459E0,-7.001399040E0,-3.234797001E0,6.233302951E-1
3.478783646E0,-7.149754047E0,-3.311666489E0,5.276173949E-1
3.481270834E0,-7.209574699E0,-3.395415306E0,4.965106845E-1
3.483758854E0,-7.278966427E0,-3.416950703E0,4.893322289E-1
3.486246823E0,-7.302894592E0,-3.419343472E0,4.773681164E-1
3.488734011E0,-7.353144169E0,-3.440878868E0,5.228317380E-1
3.491221146E0,-7.413263798E0,-3.412165165E0,5.108676553E-1
3.493709167E0,-7.475477219E0,-3.433700562E0,4.342973232E-1
3.496197136E0,-7.532904625E0,-3.448057413E0,3.290131092E-1
3.498684323E0,-7.640581608E0,-3.419343472E0,2.500499785E-1
3.501171511E0,-7.702795029E0,-3.304188967E0,2.309073806E-1
3.503659531E0,-7.918148994E0,-3.433700562E0,2.189432681E-1
3.506147500E0,-8.071588516E0,-3.500699520E0,1.734796464E-1
3.508634688E0,-8.193622589E0,-3.550948858E0,6.311069429E-2
3.511121823E0,-8.272585869E0,-3.553341627E0,-4.695914313E-2
3.513609844E0,-8.449654579E0,-3.629911900E0,-9.242277592E-2
3.516097865E0,-8.504988670E0,-3.627519131E0,-4.037888348E-1
3.518585000E0,-8.598309517E0,-3.754338741E0,-4.109672904E-1
3.521072188E0,-8.732307434E0,-4.068097591E0,-5.892325938E-2
3.523560209E0,-8.768199921E0,-4.178167343E0,3.290131222E-3
3.526048177E0,-8.698807716E0,-4.230809689E0,-1.689931005E-1
3.528535365E0,-8.646165848E0,-4.293023109E0,-3.364906907E-1
3.531022552E0,-8.579166412E0,-4.395914078E0,-2.431706041E-1
3.533510573E0,-8.468797684E0,-4.499104977E0,-2.216351926E-1
3.535998542E0,-8.353941917E0,-4.618745804E0,-1.857428551E-1
3.538485677E0,-8.253443718E0,-4.747958183E0,-1.450648755E-1
3.540972865E0,-8.181658745E0,-4.893920422E0,-9.242277592E-2
3.543460886E0,-8.129016876E0,-4.929812908E0,-1.450648755E-1
3.545948854E0,-8.023732185E0,-5.018646240E0,-2.479562461E-1
3.548436042E0,-8.016553879E0,-5.174180031E0,-2.216351926E-1
3.550923229E0,-8.071588516E0,-5.308177948E0,-9.960123897E-2
3.553411250E0,-8.054839134E0,-5.406283855E0,-4.695914313E-2
3.555899219E0,-7.968697548E0,-5.423033237E0,-4.935196787E-2
3.558386406E0,-7.963912010E0,-5.525924683E0,1.133599728E-1
3.560873542E0,-7.985447407E0,-5.612365723E0,5.539384484E-1
3.563361563E0,-8.021339417E0,-5.696114540E0,6.568298340E-1
3.565849531E0,-8.064410210E0,-5.818148136E0,7.624131441E-1
3.568336719E0,-8.097909927E0,-5.763113499E0,9.442676306E-1
3.570823906E0,-8.100302696E0,-5.705685616E0,1.016052365E0
3.573311927E0,-8.162516594E0,-5.624329567E0,1.028016448E0
3.575799896E0,-8.217551231E0,-5.506782055E0,1.128515005E0
3.578287084E0,-8.301300049E0,-5.353641510E0,1.272084355E0
3.580774271E0,-8.368298531E0,-5.265107155E0,1.435095429E0
3.583262292E0,-8.519346237E0,-5.494818211E0,3.419642687E0
3.585750261E0,-8.971589088E0,-7.692625523E0,1.629273033E1
3.588237396E0,-8.519346237E0,-6.095715523E0,1.448764420E1
3.590724584E0,-8.543273926E0,-3.337987661E0,6.599105835E0
3.593212604E0,-8.251050949E0,-2.612364054E0,1.037587762E0
3.595700573E0,-8.282156944E0,-2.394617319E0,-5.808576941E-1
3.598187761E0,-8.605487823E0,-2.804089069E0,-1.450648755E-1
3.600674948E0,-9.052945137E0,-3.426522017E0,8.030911088E-1
3.603162969E0,-9.402596474E0,-3.864408493E0,1.030409217E0
3.605650938E0,-9.685248375E0,-4.295415878E0,1.035194874E0
3.608138073E0,-9.974780083E0,-4.688137531E0,1.001695395E0
3.610625261E0,-1.020239735E1,-5.128716469E0,1.231406331E0
3.613113281E0,-1.029093170E1,-5.461318493E0,8.653044701E-1
3.615601250E0,-1.025264645E1,-5.655436516E0,3.936193287E-1
3.618088438E0,-1.016859913E1,-5.724828243E0,-1.450648755E-1
3.620575625E0,-1.007527924E1,-5.758327484E0,-6.215356588E-1
3.623063646E0,-9.946066856E0,-5.799005508E0,-9.759725332E-1
3.625551615E0,-9.745069504E0,-5.839683533E0,-1.117149115E0
3.628038802E0,-9.438488960E0,-5.866004944E0,-1.090828061E0
3.630525938E0,-9.069993973E0,-5.794219971E0,-1.074078321E0
3.633013959E0,-8.650951385E0,-5.633901119E0,-9.735797048E-1
3.635501927E0,-8.246265411E0,-5.475675583E0,-9.397810698E-1
3.637989115E0,-7.860721588E0,-5.334498882E0,-7.292127013E-1
3.640476302E0,-7.473084450E0,-5.200500965E0,-4.636093974E-1
3.642964323E0,-7.135396957E0,-5.047360420E0,-2.216351926E-1
3.645452292E0,-6.867401123E0,-4.956133842E0,-1.307079345E-1
3.647939479E0,-6.694818497E0,-5.004289627E0,9.661021084E-2
3.650426615E0,-6.570391655E0,-5.059324265E0,6.113662124E-1
3.652914636E0,-6.532106876E0,-5.021039009E0,7.815557122E-1
3.655402656E0,-6.551249504E0,-4.886742115E0,8.796614408E-1
3.657889792E0,-6.596713066E0,-4.678566456E0,7.695915699E-1
3.660376979E0,-6.615855694E0,-4.618745804E0,8.988040090E-1
3.662865000E0,-6.737889290E0,-4.695316315E0,1.008873820E0
3.665352969E0,-6.943971157E0,-4.848456860E0,1.073480010E0
3.667840156E0,-7.226324558E0,-4.984847546E0,1.037587762E0
3.670327344E0,-7.523333549E0,-5.145465851E0,9.562317729E-1
3.672815365E0,-7.863114357E0,-5.308177948E0,9.610173702E-1
3.675303334E0,-8.279764175E0,-5.525924683E0,9.658030272E-1
3.677790469E0,-8.734700203E0,-5.784648895E0,1.336989641E0
3.680277656E0,-9.000303268E0,-5.770291805E0,1.272084355E0
3.682765677E0,-9.177671432E0,-5.641079426E0,1.025623560E0
3.685253646E0,-9.337990761E0,-5.545067310E0,6.735795736E-1
3.687740834E0,-9.462417603E0,-5.504389286E0,4.582255483E-1
3.690228021E0,-9.536594391E0,-5.475675583E0,4.965106845E-1
3.692716042E0,-9.670891762E0,-5.446961880E0,5.204389095E-1
3.695204011E0,-9.804889679E0,-5.396712303E0,7.360920906E-1
3.697691146E0,-9.874281883E0,-5.250750065E0,7.360920906E-1
3.700178334E0,-9.678070068E0,-5.114359379E0,-2.781656384E-2
3.702666354E0,-9.500701904E0,-5.277071476E0,-5.425725579E-1
3.705154323E0,-9.270991325E0,-5.356034279E0,-6.765705943E-1
3.707641511E0,-8.981161118E0,-5.365605831E0,-5.210371017E-1
3.710128698E0,-8.694022179E0,-5.446961880E0,-2.814557552E-1
3.712616719E0,-8.196015358E0,-5.698507309E0,-3.699901998E-1
3.715104688E0,-7.654938698E0,-6.019145489E0,-3.819543123E-1
3.717591875E0,-7.324429989E0,-6.304190159E0,-1.666002721E-1
3.720079011E0,-7.444370270E0,-6.545865536E0,2.045863420E-1
3.722567031E0,-7.592725277E0,-6.629614353E0,4.725824594E-1
3.725055052E0,-7.461120129E0,-6.593721867E0,3.529413342E-1
3.727542188E0,-7.154539585E0,-6.454938412E0,-3.499503061E-2
3.730029375E0,-6.843472958E0,-6.258726597E0,-6.167500615E-1
3.732517396E0,-6.486643314E0,-6.067001820E0,-1.375573874E0
3.735005365E0,-6.120242119E0,-5.875576019E0,-2.163410664E0
3.737492552E0,-5.799603939E0,-5.590830326E0,-2.991626501E0
3.739979688E0,-5.562415123E0,-5.363213062E0,-3.626023531E0
3.742467709E0,-5.361418247E0,-5.100002289E0,-4.286741734E0
3.744955729E0,-5.148457050E0,-4.898705959E0,-4.650749683E0
3.747442865E0,-5.294419289E0,-5.095216751E0,-4.693820953E0
3.749930052E0,-5.581557751E0,-5.665007591E0,-4.219742775E0
3.752418073E0,-5.933601856E0,-6.416653156E0,-3.393919706E0
3.754906042E0,-6.474678993E0,-7.074978352E0,-2.366800785E0
3.757393229E0,-7.001399040E0,-7.625626564E0,-1.270289779E0
3.759880365E0,-7.461120129E0,-7.987242222E0,-6.358926296E-1
3.762368386E0,-7.683652401E0,-8.075776100E0,-2.575275302E-1
3.764856406E0,-7.827221870E0,-7.881958008E0,-3.260220960E-2
3.767343542E0,-7.910970688E0,-7.470093250E0,7.507480681E-2
3.769830729E0,-8.004590034E0,-6.948158741E0,1.540379524E-1
3.772318750E0,-8.076375008E0,-6.332904339E0,1.301097274E-1
3.774806719E0,-8.184051514E0,-5.710471153E0,1.492523104E-1
3.777293906E0,-8.282156944E0,-5.135894775E0,1.253240854E-1
3.779781094E0,-8.387441635E0,-4.647459984E0,1.516451389E-1
3.782269115E0,-8.459226608E0,-4.204488277E0,1.444666684E-1
3.784757084E0,-8.562417030E0,-3.830909014E0,2.237289101E-1
3.787244219E0,-8.610273361E0,-3.560520172E0,4.677968323E-1
3.789731406E0,-8.564809799E0,-3.282653570E0,7.576274872E-1
3.792219427E0,-8.497810364E0,-3.040978432E0,1.106979609E0
3.794707396E0,-8.432905197E0,-2.878266573E0,1.348953724E0
3.797194584E0,-8.365905762E0,-2.794517756E0,1.542772412E0
3.799681771E0,-8.349156380E0,-2.751446962E0,1.583450437E0
3.802169792E0,-8.406583786E0,-2.816053152E0,1.504487276E0
3.804657761E0,-8.456833839E0,-2.839981318E0,1.375274777E0
3.807144948E0,-8.504988670E0,-2.940479994E0,1.193121195E0
3.809632084E0,-8.526524544E0,-3.048156977E0,1.018445134E0
3.812120104E0,-8.432905197E0,-3.136691332E0,7.959126234E-1
3.814608073E0,-8.234300613E0,-3.251546860E0,5.419743061E-1
3.817095261E0,-7.942376614E0,-3.340380430E0,3.625126183E-1
3.819582448E0,-7.666903019E0,-3.345165968E0,2.380858511E-1
3.822070469E0,-7.425227642E0,-3.311666489E0,1.830509305E-1
3.824558438E0,-7.252645493E0,-3.301796198E0,2.021935135E-1
3.827045625E0,-7.125825882E0,-3.261118174E0,2.883351147E-1
3.829532761E0,-6.984649181E0,-3.251546860E0,3.768695593E-1
3.832020781E0,-6.910471916E0,-3.268296719E0,4.917250574E-1
3.834508802E0,-6.841079712E0,-3.330809116E0,5.802595019E-1
3.836995938E0,-6.733103752E0,-3.450450182E0,5.635097623E-1
3.839483125E0,-6.723532677E0,-3.629911900E0,4.965106845E-1
3.841971146E0,-6.721139908E0,-3.778266907E0,3.649054468E-1
3.844459115E0,-6.773781776E0,-3.967599154E0,2.213360965E-1
3.846946302E0,-6.824330330E0,-4.149453640E0,1.468594968E-1
3.849433438E0,-6.951149940E0,-4.403092861E0,5.593222752E-2
3.851921459E0,-7.130611420E0,-4.575675011E0,-4.935196787E-2
3.854409479E0,-7.286144733E0,-4.692923546E0,-1.211366430E-1
3.856896615E0,-7.396513939E0,-4.702494621E0,-9.481559694E-2
3.859383802E0,-7.508976460E0,-4.776672363E0,-9.242277592E-2
3.861871823E0,-7.552047253E0,-4.805386066E0,-2.063809521E-2
3.864359792E0,-7.590332508E0,-4.783850670E0,4.875376076E-2
3.866846979E0,-7.578368187E0,-4.745565414E0,1.301097274E-1
3.869334167E0,-7.547261715E0,-4.721637249E0,1.663011760E-1
3.871822188E0,-7.458727360E0,-4.714458942E0,1.301097274E-1
3.874310156E0,-7.276573658E0,-4.702494621E0,5.593222752E-2
3.876797292E0,-7.032505512E0,-4.618745804E0,2.721835673E-2
3.879284479E0,-6.814758778E0,-4.647459984E0,-3.020938672E-2
3.881772500E0,-6.596713066E0,-4.654638290E0,-7.088737190E-2
3.884260469E0,-6.331109524E0,-4.666602135E0,-8.763712645E-2
3.886747656E0,-6.084349632E0,-4.712066174E0,-8.285148442E-2
3.889234844E0,-5.730212212E0,-4.664209366E0,-4.935196787E-2
3.891722865E0,-5.404489040E0,-4.503890514E0,6.550352275E-2
3.894210834E0,-5.138885498E0,-4.460819721E0,3.146561682E-1
3.896697969E0,-4.978267670E0,-4.465605259E0,6.065805554E-1
3.899185156E0,-4.827519894E0,-4.362414837E0,6.807580590E-1
3.901673177E0,-4.872983456E0,-4.288237095E0,6.305087805E-1
3.904161146E0,-4.839483738E0,-4.237987995E0,5.754738450E-1
3.906648334E0,-4.951946259E0,-4.355236530E0,5.252245665E-1
3.909135521E0,-4.966303349E0,-4.436891556E0,6.209374666E-1
3.911623542E0,-5.347061157E0,-4.637888432E0,4.654040039E-1
3.914111511E0,-6.673283100E0,-5.504389286E0,-7.435696125E-1
3.916598646E0,-7.932506084E0,-6.885945320E0,-3.087339401E0
3.919085834E0,-9.306883812E0,-8.671888351E0,-5.847759247E0
3.921573854E0,-1.025264645E1,-1.006540871E1,-7.159923553E0
3.924061823E0,-1.055892849E1,-1.033819008E1,-5.548656464E0
3.926549011E0,-1.054457092E1,-9.988538742E0,-3.252743244E0
3.929036198E0,-9.709177017E0,-9.134002686E0,-1.538584948E0
3.931524219E0,-9.084351540E0,-8.420641899E0,-9.230313301E-1
3.934012188E0,-8.670093536E0,-7.963313580E0,-1.004686356E0
3.936499375E0,-8.839983940E0,-7.716553688E0,-1.181755304E0
3.938986511E0,-9.316454887E0,-7.496414185E0,-1.287039518E0
3.941474531E0,-9.859925270E0,-7.417450905E0,-1.361217022E0
3.943962500E0,-1.034836006E1,-7.580163002E0,-1.435394526E0
3.946449688E0,-1.036271667E1,-7.556234837E0,-1.449751377E0
3.948936875E0,-1.038903809E1,-7.623233795E0,-1.425823212E0
3.951424896E0,-1.045603657E1,-7.759624958E0,-1.361217022E0
3.953912865E0,-1.052782154E1,-7.968099594E0,-1.313360572E0
3.956400052E0,-1.063071251E1,-8.233702660E0,-1.275075316E0
3.958887188E0,-1.058764172E1,-8.449356079E0,-1.148255825E0
3.961375209E0,-1.051585770E1,-8.640781403E0,-8.225327730E-1
3.963863229E0,-1.036989498E1,-1.004118156E1,1.897209287E0
3.966350365E0,-9.984351158E0,-1.103480053E1,3.982254982E0
3.968837552E0,-9.613164902E0,-1.060140038E1,3.304787159E0
3.971325573E0,-9.165707588E0,-9.320642471E0,1.372882009E0
3.973813542E0,-8.552845001E0,-7.773981571E0,-9.960123897E-2
3.976300729E0,-7.937591076E0,-6.572186470E0,-6.861419082E-1
3.978787865E0,-7.592725277E0,-5.964110374E0,-7.507480979E-1
3.981275886E0,-7.396513939E0,-5.875576019E0,-5.066801906E-1
3.983763906E0,-7.233502865E0,-6.100501537E0,-1.737787426E-1
3.986251042E0,-7.080362320E0,-6.440581322E0,6.789634377E-2
3.988738229E0,-6.749853611E0,-6.792625427E0,1.974078715E-1
3.991226250E0,-6.563213348E0,-7.086942673E0,2.667997181E-1
3.993714219E0,-6.582355976E0,-7.240382195E0,3.026920557E-1
3.996201406E0,-6.536892414E0,-7.285845757E0,2.955136001E-1
3.998688542E0,-6.484250069E0,-7.213762283E0,2.452643216E-1
4.001176563E0,-6.407680035E0,-7.098906517E0,2.213360965E-1
4.003664584E0,-6.395715714E0,-7.007979393E0,2.189432681E-1
4.006151719E0,-6.467500687E0,-6.926623344E0,2.333002090E-1
4.008638906E0,-6.613462448E0,-6.840481758E0,2.811566591E-1
4.011126927E0,-6.654140472E0,-6.723233223E0,3.098705411E-1
4.013614896E0,-6.680461884E0,-6.579364777E0,2.811566591E-1
4.016102084E0,-6.709175587E0,-6.450152397E0,2.548356056E-1
4.018589271E0,-6.761817455E0,-6.335297108E0,3.337987661E-1
4.021077292E0,-6.850651264E0,-6.237191200E0,4.127618968E-1
4.023565261E0,-6.884150982E0,-6.143871307E0,4.677968323E-1
4.026052396E0,-6.800102711E0,-6.040680885E0,4.414757788E-1
4.028539584E0,-6.666104794E0,-5.966503143E0,4.821537733E-1
4.031027604E0,-6.558427811E0,-5.997610092E0,6.017948985E-1
4.033515573E0,-6.419643879E0,-5.959324837E0,6.448656917E-1
4.036002761E0,-6.278467655E0,-5.923432350E0,6.544370055E-1
4.038489948E0,-6.208776474E0,-5.928217888E0,6.041877270E-1
4.040977969E0,-6.563213348E0,-5.976074696E0,4.438686073E-1
4.043465938E0,-7.678866863E0,-6.021538258E0,-8.673981763E-3
4.045953073E0,-7.836793423E0,-6.023931026E0,-5.665007830E-1
4.048440261E0,-7.520940781E0,-6.050251961E0,-1.232004523E0
4.050928281E0,-7.113861561E0,-6.227620125E0,-1.813759565E0
4.053416250E0,-7.037291527E0,-6.514758587E0,-2.144268274E0
4.055903438E0,-7.133004189E0,-6.943373203E0,-1.945364833E0
4.058390625E0,-7.133004189E0,-7.295417309E0,-1.524227977E0
4.060878646E0,-7.147361279E0,-7.415058136E0,-1.014257669E0
4.063366615E0,-7.085147858E0,-7.355237484E0,-6.430711150E-1
4.065853802E0,-6.812067032E0,-7.146762848E0,-4.348955154E-1
4.068340938E0,-6.656533718E0,-6.991229534E0,-3.149552941E-1
4.070828959E0,-6.639783859E0,-6.864409924E0,-1.618146300E-1
4.073316927E0,-6.414858341E0,-6.809374809E0,-1.235294715E-1
4.075804115E0,-6.395715714E0,-6.823731899E0,-1.354935765E-1
4.078291302E0,-6.596713066E0,-6.893123627E0,-3.364906907E-1
4.080779323E0,-6.819544315E0,-6.945765972E0,-3.939184248E-1
4.083267292E0,-6.946363926E0,-6.938587666E0,-4.396811724E-1
4.085754479E0,-7.418049335E0,-6.914659023E0,-5.090730190E-1
4.088241615E0,-7.788936615E0,-6.876374245E0,-5.377869010E-1
4.090729636E0,-7.623832226E0,-6.775875568E0,-5.856433511E-1
4.093217604E0,-7.386942387E0,-6.643970966E0,-6.957131624E-1
4.095704792E0,-7.410871029E0,-6.615257263E0,-6.215356588E-1
4.098191979E0,-7.506583691E0,-6.663113594E0,-4.612165689E-1
4.100680000E0,-7.516155243E0,-6.756732941E0,-4.037888348E-1
4.103167969E0,-7.317251682E0,-6.809374809E0,-2.982055247E-1
4.105655156E0,-7.101897717E0,-6.785446644E0,-2.790629268E-1
4.108142292E0,-7.135396957E0,-6.735197544E0,-2.120639086E-1
4.110630313E0,-7.188039303E0,-6.629614353E0,-2.335993052E-1
4.113118281E0,-7.418049335E0,-6.574579239E0,-2.024926096E-1
4.115605469E0,-7.485048294E0,-6.435795784E0,-3.843471408E-1
4.118092656E0,-7.434799194E0,-6.364010811E0,-6.693921089E-1
4.120580677E0,-7.331608772E0,-6.289833546E0,-7.842476368E-1
4.123068646E0,-7.073183537E0,-6.189334869E0,-6.981059909E-1
4.125555834E0,-6.829115868E0,-6.088537216E0,-4.827519655E-1
4.128042969E0,-6.599105835E0,-5.995217323E0,-2.575275302E-1
4.130530990E0,-6.460321903E0,-5.899504185E0,-1.929213256E-1
4.133019011E0,-6.429215431E0,-5.844469070E0,-2.527419031E-1
4.135506146E0,-6.601498604E0,-5.861218929E0,-3.221337497E-1
4.137993334E0,-6.740282059E0,-5.909075737E0,-4.492524564E-1
4.140481354E0,-6.814758778E0,-6.043073654E0,-6.430711150E-1
4.142969323E0,-6.903293133E0,-6.198905945E0,-6.885347366E-1
4.145456511E0,-7.039684296E0,-6.280261993E0,-7.004988194E-1
4.147943646E0,-6.948757172E0,-6.335297108E0,-6.311069727E-1
4.150431667E0,-6.836294174E0,-6.340082645E0,-6.717849374E-1
4.152919688E0,-6.661319256E0,-6.316154480E0,-6.239284873E-1
4.155406823E0,-6.582355976E0,-6.313761711E0,-5.138586760E-1
4.157894011E0,-6.613462448E0,-6.352046967E0,-4.253242314E-1
4.160382031E0,-6.589534283E0,-6.490830421E0,-3.771686554E-1
4.162870000E0,-6.623034000E0,-6.682555676E0,-4.277170599E-1
4.165357188E0,-6.489036083E0,-6.895516872E0,-2.479562461E-1
4.167844323E0,-6.412465572E0,-7.096513748E0,-7.567301393E-2
4.170332344E0,-6.539285183E0,-7.170691490E0,7.986045629E-2
4.172820365E0,-6.558427811E0,-7.213762283E0,6.311069429E-2
4.175307500E0,-6.615855694E0,-7.225726128E0,2.285145670E-1
4.177794688E0,-6.905686378E0,-7.249953270E0,2.524427772E-1
4.180282709E0,-7.109076023E0,-7.276274681E0,3.936193287E-1
4.182770677E0,-7.293323517E0,-7.295417309E0,3.888336718E-1
4.185257865E0,-7.338787079E0,-7.383951664E0,2.979064286E-1
4.187745000E0,-7.290930748E0,-7.412665367E0,2.380858511E-1
4.190233021E0,-7.152146816E0,-7.441379547E0,2.835494876E-1
4.192721042E0,-7.202396393E0,-7.448557854E0,3.218346536E-1
4.195208177E0,-7.204789162E0,-7.482057095E0,3.361915946E-1
4.197695365E0,-7.161718369E0,-7.510771275E0,3.409772217E-1
4.200183386E0,-7.149754047E0,-7.532306671E0,3.720839322E-1
4.202671354E0,-6.910471916E0,-7.599305630E0,3.122633696E-1
4.205158542E0,-6.701997280E0,-7.678268909E0,2.356930375E-1
4.207645677E0,-6.503392696E0,-7.757231712E0,2.333002090E-1
4.210133698E0,-6.343073845E0,-7.776374340E0,1.854437590E-1
4.212621719E0,-6.125027657E0,-7.862815380E0,7.268198580E-2
4.215108854E0,-5.699105263E0,-7.948956966E0,1.396810263E-1
4.217596042E0,-5.280062199E0,-7.812565804E0,1.564307809E-1
4.220084063E0,-4.944767952E0,-7.601698399E0,2.572284341E-1
4.222572031E0,-5.023731232E0,-7.391129971E0,2.691925466E-1
4.225059219E0,-5.282454967E0,-7.300202847E0,4.007977843E-1
4.227546406E0,-5.538486958E0,-7.300202847E0,4.965106845E-1
4.230034427E0,-5.478666782E0,-7.302595615E0,4.989035130E-1
4.232522396E0,-5.232205868E0,-7.309773922E0,5.515456200E-1
4.235009531E0,-4.810770035E0,-7.345666409E0,5.228317380E-1
4.237496719E0,-4.872983456E0,-7.391129971E0,4.486542344E-1
4.239984740E0,-4.861019135E0,-7.321738243E0,2.500499785E-1
4.242472709E0,-4.731806755E0,-7.230511665E0,1.372881979E-1
4.244959896E0,-4.664807796E0,-7.086942673E0,1.205384433E-1
4.247447084E0,-5.030909538E0,-7.022336483E0,3.505485058E-1
4.249935104E0,-5.081159115E0,-7.029514790E0,2.739782035E-1
4.252423073E0,-5.062016487E0,-7.132406235E0,1.181456149E-1
4.254910209E0,-5.258526802E0,-7.082156658E0,-1.139581800E-1
4.257397396E0,-5.280062199E0,-6.950551510E0,-1.546361595E-1
4.259885417E0,-5.112265587E0,-6.759125710E0,-1.618146300E-1
4.262373386E0,-5.073980331E0,-6.634399891E0,-3.101696372E-1
4.264860573E0,-5.179563522E0,-6.565008163E0,-5.066801906E-1
4.267347761E0,-4.937589645E0,-6.361618042E0,-7.292127013E-1
4.269835781E0,-5.117051125E0,-6.194120407E0,-7.363911867E-1
4.272323750E0,-5.045266628E0,-6.155835152E0,-4.540380836E-1
4.274810886E0,-4.837090969E0,-6.114858150E0,-5.832505226E-1
4.277298073E0,-4.542474747E0,-5.988038540E0,-7.363911867E-1
4.279786094E0,-4.746163845E0,-5.813362598E0,-8.440681696E-1
4.282274063E0,-5.509773254E0,-5.885147095E0,-7.866404653E-1
4.284761250E0,-6.010172367E0,-5.983253002E0,-8.368897438E-1
4.287248438E0,-5.744568825E0,-6.045466423E0,-9.110672474E-1
4.289736459E0,-5.763711452E0,-5.978467464E0,-9.541380405E-1
4.292224427E0,-5.598307610E0,-5.641079426E0,-5.090730190E-1
4.294711563E0,-6.477071762E0,-5.518746376E0,-4.540380836E-1
4.297198750E0,-7.518548012E0,-5.758327484E0,-4.779663086E-1
4.299686771E0,-7.824829102E0,-6.067001820E0,-5.306084156E-1
4.302174740E0,-7.013363361E0,-5.973681927E0,-5.449653864E-1
4.304661927E0,-6.091528416E0,-5.633901119E0,-3.628117442E-1
4.307149115E0,-5.605485916E0,-5.391926765E0,-2.647060156E-1
4.309637136E0,-4.971088886E0,-4.977669239E0,5.682953633E-3
4.312125104E0,-4.353441715E0,-4.578067780E0,2.165504545E-1
4.314612240E0,-4.729413986E0,-4.630710125E0,3.385843933E-1
4.317099427E0,-5.904888153E0,-5.198108196E0,3.577269912E-1
4.319587448E0,-5.818746567E0,-5.468497276E0,2.500499785E-1
4.322075417E0,-5.761318684E0,-5.621936798E0,1.710868180E-1
4.324562604E0,-6.074778557E0,-6.153442383E0,3.098705411E-1
4.327049792E0,-5.931209087E0,-6.368796349E0,3.720839322E-1
4.329537813E0,-5.749354839E0,-6.397510529E0,4.390829504E-1
4.332025781E0,-5.885745525E0,-6.529115677E0,4.199403822E-1
4.334512917E0,-5.892923832E0,-6.797410965E0,1.878365725E-1
4.337000104E0,-5.914459229E0,-7.156334400E0,-1.307079345E-1
4.339488125E0,-6.182455540E0,-7.515556812E0,-5.952146053E-1
4.341976094E0,-5.964708805E0,-7.706982613E0,-9.517452121E-1
4.344463281E0,-5.476273537E0,-7.922635555E0,-1.052542806E0
4.346950469E0,-4.834698200E0,-8.001599312E0,-1.057328463E0
4.349438490E0,-4.600201607E0,-7.999206066E0,-9.711868763E-1
4.351926459E0,-5.260919571E0,-8.200202942E0,-7.651050687E-1
4.354413594E0,-5.220241547E0,-8.250452042E0,-5.928218365E-1
4.356900781E0,-4.834698200E0,-8.145168304E0,-5.401797295E-1
4.359388802E0,-4.080659866E0,-7.843672752E0,-4.540380836E-1
4.361876771E0,-3.762115479E0,-7.407879829E0,-2.048854381E-1
4.364363959E0,-3.994219303E0,-7.192226887E0,1.396810263E-1
4.366851094E0,-4.322334766E0,-7.079763889E0,4.079762697E-1
4.369339115E0,-5.313561916E0,-7.290631294E0,6.735795736E-1
4.371827136E0,-5.213063240E0,-7.412665367E0,6.017948985E-1
4.374314271E0,-4.765306473E0,-7.285845757E0,3.816552162E-1
4.376801459E0,-4.949553490E0,-7.029514790E0,1.348953694E-1
4.379289479E0,-4.916054249E0,-6.833303452E0,5.832505226E-2
4.381777448E0,-4.636094093E0,-6.658328056E0,7.268198580E-2
4.384264636E0,-4.736592293E0,-6.699305058E0,7.268198580E-2
4.386751823E0,-5.868995667E0,-7.122834682E0,1.205384433E-1
4.389239844E0,-6.419643879E0,-7.386344433E0,2.045863420E-1
4.391727813E0,-6.239883423E0,-7.429415226E0,2.141576260E-1
4.394214948E0,-6.768996239E0,-7.529913902E0,1.902294010E-1
4.396702136E0,-7.104290485E0,-7.472486019E0,1.181456149E-1
4.399190156E0,-6.489036083E0,-7.122834682E0,-4.217349738E-2
4.401678125E0,-5.617450237E0,-6.579364777E0,-7.088737190E-2
4.404165313E0,-5.521737576E0,-6.158228397E0,1.037886813E-1
4.406652500E0,-6.314359665E0,-5.990431309E0,4.031906128E-1
4.409140521E0,-6.752246380E0,-5.868397713E0,8.413762450E-1
4.411628490E0,-6.857829571E0,-5.679364681E0,1.162014484E0
4.414115625E0,-6.967899323E0,-5.509174824E0,1.380060434E0
4.416602813E0,-6.780960083E0,-5.305785179E0,1.427916884E0
4.419090834E0,-6.618248463E0,-5.021039009E0,1.497308731E0
4.421578802E0,-6.630212307E0,-4.872385025E0,1.506880045E0
4.424065990E0,-6.417251110E0,-4.747958183E0,1.403988719E0
4.426553177E0,-6.256932259E0,-4.726422787E0,1.372882009E0
4.429041198E0,-6.192026615E0,-4.824528694E0,1.126122117E0
4.431529167E0,-6.230311871E0,-4.953741074E0,9.346963167E-1
4.434016302E0,-6.290431499E0,-5.011467934E0,8.629116416E-1
4.436503490E0,-5.919245243E0,-5.030610561E0,4.917250574E-1
4.438991511E0,-5.430809975E0,-5.267499924E0,-1.495514181E-3
4.441479479E0,-4.791627407E0,-5.482853889E0,-5.174478889E-2
4.443966667E0,-4.473083019E0,-5.861218929E0,-8.045866340E-2
4.446453854E0,-4.391726971E0,-6.076572895E0,-1.474576890E-1
4.448941875E0,-4.410869598E0,-6.179763794E0,9.900303930E-2
4.451429844E0,-4.264907360E0,-6.454938412E0,2.620140910E-1
4.453916979E0,-4.035196304E0,-6.651149750E0,2.961117961E-2
4.456404167E0,-4.288835526E0,-6.991229534E0,-1.307079345E-1
4.458892188E0,-4.487439632E0,-7.395915508E0,-1.426720470E-1
4.461380156E0,-4.631308079E0,-7.637590885E0,2.596212626E-1
4.463867344E0,-4.217051029E0,-7.771588802E0,5.156532526E-1
4.466354531E0,-3.740580082E0,-7.788338661E0,8.943174779E-2
4.468842552E0,-3.158824921E0,-7.984848976E0,-4.420739710E-1
4.471330521E0,-2.086242199E0,-8.521140099E0,-8.991031051E-1
4.473817656E0,-1.272383451E0,-9.203393936E0,-1.330110312E0
4.476304844E0,-1.566700578E0,-9.495617867E0,-1.758724689E0
4.478792865E0,-2.335394859E0,-9.603294373E0,-1.782652855E0
4.481280834E0,-2.986541748E0,-9.718150139E0,-1.617548108E0
4.483768021E0,-3.793222189E0,-1.005583763E1,-1.727617979E0
4.486255209E0,-4.193122387E0,-1.104437160E1,-5.665007830E-1
4.488743229E0,-4.705485821E0,-1.205474091E1,1.090229869E0
4.491231198E0,-4.569094658E0,-1.283031464E1,1.233799219E0
4.493718334E0,-4.250550270E0,-1.378564930E1,1.042373419E0
4.496205521E0,-3.848257065E0,-1.442004681E1,1.061515927E0
4.498693542E0,-3.982254982E0,-1.439611816E1,5.491527915E-1
4.501181511E0,-4.217051029E0,-1.440090370E1,5.300102234E-1
4.503668698E0,-4.590630054E0,-1.458545017E1,8.868398666E-1
4.506155834E0,-4.602594376E0,-1.452533054E1,8.150551915E-1
4.508643854E0,-4.006183147E0,-1.458305740E1,5.946164131E-1
4.511131875E0,-3.278466225E0,-1.473380566E1,9.661021084E-2
4.513619011E0,-3.357429266E0,-1.482712555E1,-4.253242314E-1
4.516106198E0,-4.121337891E0,-1.474337673E1,-4.779663086E-1
4.518594219E0,-4.784449100E0,-1.464048576E1,-1.378864050E-1
4.521082188E0,-5.289633751E0,-1.453011608E1,-2.000997961E-1
4.523569375E0,-5.277669430E0,-1.443440342E1,-3.604189157E-1
4.526056511E0,-4.063910007E0,-1.424058533E1,2.243271284E-2
4.528544531E0,-2.581855536E0,-1.442961788E1,-3.317050338E-1
4.531032552E0,-1.846959949E0,-1.466441345E1,-1.112363458E0
4.533519688E0,-1.006481051E0,-1.493958855E1,-1.172183990E0
4.536006875E0,-5.826523304E-1,-1.528206062E1,-1.198505044E0
4.538494896E0,-6.209374666E-1,-1.536102390E1,-1.691725612E0
4.540982865E0,-8.964111805E-1,-1.488455296E1,-2.082054853E0
4.543470052E0,-1.190728426E0,-1.433151245E1,-2.132304192E0
4.545957188E0,-1.763211131E0,-1.396750355E1,-1.756331801E0
4.548445209E0,-2.610569477E0,-1.352004623E1,-1.203290701E0
4.550933229E0,-3.506083488E0,-1.307228947E1,-2.575275302E-1
4.553420365E0,-3.991826296E0,-1.264606762E1,4.893322289E-1
4.555907552E0,-4.157230377E0,-1.224616718E1,9.634101987E-1
4.558395573E0,-4.164408684E0,-1.174128151E1,1.054337502E0
4.560883542E0,-3.745365620E0,-1.049611664E1,5.563312769E-1
4.563370729E0,-3.393321514E0,-9.486045837E0,-6.610172242E-2
4.565857865E0,-3.378964663E0,-8.796315193E0,-3.556332588E-1
4.568345886E0,-3.345465183E0,-8.137989998E0,-6.646065116E-1
4.570833906E0,-3.223431110E0,-7.307381153E0,-1.251147151E0
4.573321042E0,-2.979363203E0,-6.687341213E0,-1.801795483E0
4.575808229E0,-2.926721096E0,-6.234798431E0,-2.005185366E0
4.578296250E0,-2.974577665E0,-5.873183250E0,-1.959721804E0
4.580784219E0,-2.998505831E0,-5.372784138E0,-1.864008784E0
4.583271406E0,-3.060719252E0,-4.951348305E0,-1.607976794E0
4.585758542E0,-3.149253607E0,-4.630710125E0,-1.220040441E0
4.588246563E0,-3.304787159E0,-4.719244480E0,-6.334998012E-1
4.590734531E0,-3.809971809E0,-5.588437080E0,-6.281159353E-3
4.593221719E0,-4.437190533E0,-6.490830421E0,6.789634377E-2
4.595708906E0,-4.664807796E0,-7.012764931E0,-3.604189157E-1
4.598196927E0,-4.593023300E0,-7.156334400E0,-8.201399446E-1
4.600684896E0,-4.695914268E0,-7.137191772E0,-1.953141540E-1
4.603172084E0,-4.681557655E0,-7.412665367E0,-1.409073472E0
4.605659219E0,-4.205086708E0,-7.781160355E0,-1.842473388E0
4.608147240E0,-3.874577999E0,-8.169096947E0,-1.981257200E0
4.610635209E0,-3.608974695E0,-8.271987915E0,-2.072184324E0
4.613122396E0,-3.223431110E0,-8.185846329E0,-1.976471543E0
4.615609584E0,-3.163610697E0,-8.291130066E0,-1.682154298E0
4.618097604E0,-3.300001621E0,-8.473283768E0,-1.418644667E0
4.620585573E0,-3.474976778E0,-8.612068176E0,-1.138684511E0
4.623072761E0,-3.546761274E0,-8.762815475E0,-8.225327730E-1
4.625559896E0,-3.628117323E0,-8.923434258E0,-4.636093974E-1
4.628047917E0,-3.829114437E0,-9.086145401E0,-1.211366430E-1
4.630535886E0,-3.774079561E0,-9.256035805E0,-9.960123897E-2
4.633023073E0,-3.628117323E0,-9.301499367E0,-1.402792335E-1
4.635510261E0,-3.395714521E0,-9.442676544E0,-2.766701281E-1
4.637998281E0,-3.242573738E0,-9.531510353E0,-2.838485837E-1
4.640486250E0,-3.156432152E0,-9.545866966E0,-1.833500415E-1
4.642973438E0,-3.122932673E0,-9.579366684E0,-1.737787426E-1
4.645460573E0,-2.969791889E0,-9.533903122E0,-2.288136631E-1
4.647948594E0,-2.749353170E0,-9.555438042E0,-1.307079345E-1
4.650436563E0,-2.663211584E0,-9.519545555E0,-5.653043464E-2
4.652923750E0,-2.636890650E0,-9.524331093E0,-2.781656384E-2
4.655410938E0,-2.543570518E0,-9.480961800E0,5.832505226E-2
4.657898959E0,-2.467000246E0,-9.493225098E0,1.686939895E-1
4.660386927E0,-2.371287346E0,-9.632008553E0,6.071787328E-2
4.662874063E0,-2.227418661E0,-9.734899521E0,8.075776510E-3
4.665361250E0,-2.088634968E0,-9.978967667E0,-2.542374097E-2
4.667849271E0,-1.954637051E0,-1.027836990E1,-1.642074585E-1
4.670337240E0,-1.863709688E0,-1.050329494E1,-2.527419031E-1
4.672824427E0,-1.719841242E0,-1.052722359E1,-2.838485837E-1
4.675311563E0,-1.614557028E0,-1.049133110E1,-3.484548032E-1
4.677799584E0,-1.607378602E0,-1.028315544E1,-3.221337497E-1
4.680287604E0,-1.638485312E0,-9.983753204E0,-2.431706041E-1
4.682774740E0,-1.698305845E0,-9.734899521E0,-1.283151209E-1
4.685261927E0,-1.818246126E0,-9.519545555E0,4.396811500E-2
4.687749948E0,-1.966601133E0,-9.459425926E0,5.593222752E-2
4.690237917E0,-1.995314956E0,-9.390034676E0,2.482553571E-2
4.692725104E0,-2.074278116E0,-9.284749985E0,3.200400248E-2
4.695212292E0,-2.186740875E0,-9.186644554E0,6.789634377E-2
4.697700313E0,-2.373680115E0,-9.258428574E0,1.085743308E-1
4.700188281E0,-2.467000246E0,-9.294321060E0,4.875376076E-2
4.702675417E0,-2.557927370E0,-9.445069313E0,-1.139581800E-1
4.705162604E0,-2.490928411E0,-9.557830811E0,-1.929213256E-1
4.707650625E0,-2.421536446E0,-9.684650421E0,-1.977069676E-1
4.710138594E0,-2.340180635E0,-9.691828728E0,-2.024926096E-1
4.712625781E0,-2.390429735E0,-9.536295891E0,-1.713859290E-1
4.715112917E0,-2.502892494E0,-9.490832329E0,-1.929213256E-1
4.717600938E0,-2.507678032E0,-9.553045273E0,-1.857428551E-1
4.720088959E0,-2.577069998E0,-9.576973915E0,2.243271284E-2
4.722576094E0,-2.672782898E0,-9.560223579E0,-6.281159353E-3
4.725063281E0,-2.711068153E0,-9.545866966E0,-1.091725305E-1
4.727551302E0,-2.694318295E0,-9.538688660E0,-3.738785535E-2
4.730039271E0,-2.742174864E0,-9.555438042E0,1.525424421E-2
4.732526459E0,-2.756531715E0,-9.397212982E0,1.046859939E-2
4.735013594E0,-2.682354212E0,-9.239286423E0,-1.785643846E-1
4.737501615E0,-2.696711063E0,-8.992825508E0,-1.953141540E-1
4.739989584E0,-2.739781857E0,-8.731708527E0,-1.546361595E-1
4.742476771E0,-2.859423161E0,-8.559425354E0,-2.120639086E-1
4.744963959E0,-2.905185699E0,-8.267202377E0,-2.670988142E-1
4.747451979E0,-3.039183855E0,-8.145168304E0,-2.742772996E-1
4.749939948E0,-3.156432152E0,-8.061419487E0,-1.666002721E-1
4.752427136E0,-3.223431110E0,-8.063812256E0,-1.019940674E-1
4.754914271E0,-3.233002424E0,-8.054241180E0,-1.546361595E-1
4.757402292E0,-3.173182011E0,-8.080561638E0,-2.024926096E-1
4.759890313E0,-3.039183855E0,-8.185846329E0,-2.790629268E-1
4.762377448E0,-2.924328327E0,-8.185846329E0,-4.061816335E-1
4.764864636E0,-2.818745136E0,-7.920242786E0,-4.372883439E-1
4.767352656E0,-2.794816732E0,-7.685447216E0,-2.264208496E-1
4.769840625E0,-2.830709219E0,-7.403094292E0,1.013958603E-1
4.772327813E0,-2.837887764E0,-7.312166691E0,1.205384433E-1
4.774814948E0,-2.672782898E0,-7.316952705E0,-4.695914313E-2
4.777302969E0,-2.481357098E0,-7.367201805E0,-5.413761362E-2
4.779790938E0,-2.347358942E0,-7.479664326E0,-7.328019291E-2
4.782278125E0,-2.270489693E0,-7.522735119E0,-9.481559694E-2
4.784765313E0,-2.217847586E0,-7.553842068E0,-2.096710801E-1
4.787253334E0,-2.076670885E0,-7.630412102E0,-5.976074338E-1
4.789741302E0,-2.028814554E0,-7.862815380E0,-5.521438122E-1
4.792228438E0,-2.189133644E0,-8.121239662E0,-4.612165689E-1
4.794715625E0,-2.742174864E0,-8.097311974E0,-5.784648657E-1
4.797203646E0,-3.156432152E0,-6.933801651E0,-6.478567123E-1
4.799691615E0,-2.289632082E0,-7.108478069E0,-2.958126962E-1
4.802178802E0,-2.323131800E0,-7.608876705E0,-3.260220960E-2
4.804665990E0,-2.682354212E0,-8.190631866E0,1.181456149E-1
4.807154011E0,-2.972184896E0,-8.748458862E0,2.189432681E-1
4.809641979E0,-3.206681490E0,-9.445069313E0,2.548356056E-1
4.812129115E0,-3.300001621E0,-1.018026352E1,3.696911037E-1
4.814616302E0,-3.463012457E0,-1.090558815E1,4.630111754E-1
4.817104323E0,-3.558725595E0,-1.153998566E1,5.180460811E-1
4.819592292E0,-3.608974695E0,-1.214327621E1,5.419743061E-1
4.822079479E0,-3.680759430E0,-1.256710434E1,5.347958803E-1
4.824566667E0,-3.687937975E0,-1.282313633E1,6.376872063E-1
4.827054688E0,-3.616153240E0,-1.302204037E1,6.711867452E-1
4.829542656E0,-3.491726398E0,-1.293589878E1,7.190431952E-1
4.832029792E0,-3.477369547E0,-1.276092339E1,7.648059130E-1
4.834516979E0,-3.484548092E0,-1.209063339E1,7.671987414E-1
4.837005000E0,-3.326322556E0,-1.105633640E1,7.671987414E-1
4.839492969E0,-3.072683334E0,-1.005823040E1,8.198408484E-1
4.841980156E0,-2.833101988E0,-9.344570160E0,9.323035479E-1
4.844467344E0,-2.703889608E0,-8.968897820E0,1.051944613E0
4.846955365E0,-2.734996319E0,-8.779565811E0,1.059123158E0
4.849443334E0,-2.751745939E0,-8.710173607E0,8.533403873E-1
4.851930469E0,-2.694318295E0,-8.707780838E0,7.118647099E-1
4.854417656E0,-2.622533560E0,-8.810671806E0,5.802595019E-1
4.856905677E0,-2.512463808E0,-8.813064575E0,4.510470629E-1
4.859393646E0,-2.407179594E0,-8.796315193E0,4.127618968E-1
4.861880834E0,-2.296810627E0,-8.786744118E0,4.007977843E-1
4.864367969E0,-2.169991016E0,-8.741280556E0,3.074777126E-1
4.866855990E0,-2.138884306E0,-8.583353996E0,2.141576260E-1
4.869344011E0,-2.189133644E0,-8.382356644E0,2.069791555E-1
4.871831146E0,-2.258525372E0,-8.202595711E0,1.109671518E-1
4.874318334E0,-2.007279158E0,-7.893921852E0,1.037886813E-1
4.876806354E0,-2.620140791E0,-6.196513176E0,-6.281159353E-3
4.879294323E0,-2.543570518E0,-5.533103466E0,-5.413761362E-2
4.881781511E0,-2.684746981E0,-5.090431213E0,4.636093974E-2
4.884268646E0,-2.868994236E0,-4.697709084E0,1.902294010E-1
4.886756667E0,-2.596212626E0,-4.147060871E0,2.883351147E-1
4.889244636E0,-2.663211584E0,-3.768695593E0,4.438686073E-1
4.891731823E0,-2.696711063E0,-3.369094372E0,3.816552162E-1
4.894219011E0,-2.670390129E0,-2.935694218E0,3.601198196E-1
4.896707031E0,-2.871387243E0,-2.772982359E0,5.539384484E-1
4.899195000E0,-2.981756210E0,-2.437688112E0,3.553341627E-1
4.901682136E0,-2.967399120E0,-2.413759947E0,3.984049559E-1
4.904169323E0,-2.751745939E0,-2.061715841E0,1.037886813E-1
4.906657344E0,-2.711068153E0,-1.683649778E0,5.593222752E-2
4.909145313E0,-2.703889608E0,-1.575673699E0,2.482553571E-2
4.911632500E0,-2.699103832E0,-1.534995675E0,-8.045866340E-2
4.914119688E0,-2.586641312E0,-1.520638824E0,-1.570289880E-1
4.916607709E0,-2.837887764E0,-1.271785259E0,-3.460619748E-1
4.919095677E0,-2.984148979E0,-1.408176184E0,-5.018945336E-1
4.921582813E0,-2.898007393E0,-1.776969910E0,-6.119644046E-1
4.924070000E0,-2.749353170E0,-2.346760750E0,-6.119644046E-1
4.926558021E0,-2.557927370E0,-3.105584621E0,-2.886342406E-1
4.929045990E0,-2.311167479E0,-3.991527319E0,-1.905284971E-1
4.931533177E0,-2.272882462E0,-4.862813950E0,-1.067797095E-1
4.934020313E0,-2.234597206E0,-5.607579708E0,3.361915946E-1
4.936508334E0,-2.014457464E0,-6.495615959E0,5.659025311E-1
4.938996354E0,-1.952244163E0,-7.498806953E0,2.667997181E-1
4.941483490E0,-1.734198213E0,-8.200202942E0,1.854437590E-1
4.943970677E0,-1.475773335E0,-8.679066658E0,2.356930375E-1
4.946458698E0,-1.205384374E0,-9.114859581E0,2.715853751E-1
4.948946667E0,-1.150050402E0,-9.533903122E0,4.079762697E-1
4.951433854E0,-1.164407372E0,-9.940682411E0,4.917250574E-1
4.953920990E0,-1.173978567E0,-1.018026352E1,2.452643216E-1
4.956409011E0,-1.066301584E0,-1.009172916E1,4.396811500E-2
4.958897031E0,-8.820542693E-1,-9.988538742E0,2.117647976E-1
4.961384167E0,-9.729815125E-1,-9.983753204E0,4.031906128E-1
4.963871354E0,-1.202991605E0,-9.897611618E0,3.337987661E-1
4.966359375E0,-1.356132269E0,-9.739685059E0,6.711867452E-1
4.968847344E0,-1.511665702E0,-9.565009117E0,8.676972985E-1
4.971334531E0,-1.581057549E0,-9.394820213E0,1.313061476E0
4.973821667E0,-1.502094388E0,-8.892027855E0,1.805982947E0
4.976309688E0,-1.480558991E0,-8.456534386E0,1.722234130E0
4.978797656E0,-1.578664780E0,-7.932207108E0,1.892423630E0
4.981284844E0,-1.789532185E0,-7.608876705E0,2.038385868E0
4.983772031E0,-2.012064695E0,-7.549056530E0,1.882852316E0
4.986260052E0,-1.794317842E0,-7.403094292E0,2.062314034E0
4.988748021E0,-1.648056626E0,-7.208976269E0,2.270489693E0
4.991235209E0,-1.858924150E0,-7.012764931E0,2.318346024E0
4.993722344E0,-2.169991016E0,-6.680162430E0,2.107777596E0
4.996210365E0,-2.277667999E0,-6.239583969E0,2.126920223E0
4.998698334E0,-2.280060768E0,-5.581258774E0,1.741376638E0
5.001185521E0,-2.191526413E0,-5.169394016E0,1.142871857E0
5.003672709E0,-2.268096685E0,-5.169394016E0,8.748757839E-1
5.006160729E0,-2.522035122E0,-5.202893734E0,8.078767657E-1
5.008648698E0,-2.517249346E0,-5.394319534E0,6.664010882E-1
5.011135834E0,-2.423929453E0,-5.698507309E0,9.658030272E-1
5.013623021E0,-2.253739834E0,-5.940182209E0,1.147657514E0
5.016111042E0,-1.897209287E0,-6.354439735E0,1.197906852E0
5.018599011E0,-1.801496387E0,-6.852446079E0,1.808375716E0
5.021086198E0,-1.671984792E0,-7.520342350E0,2.047957182E0
5.023573386E0,-1.370489120E0,-6.976872444E0,1.827518344E0
5.026061406E0,-1.128515005E0,-6.962515831E0,1.913959026E0
5.028549375E0,-7.528418303E-1,-7.422236919E0,1.475773335E0
5.031036511E0,-3.840480447E-1,-7.220940590E0,5.826523304E-1
5.033523698E0,3.260220960E-2,-6.720840454E0,1.806581169E-1
5.036011719E0,2.551347017E-1,-6.605686188E0,-2.359921336E-1
5.038499688E0,4.704887569E-1,-6.981658459E0,-6.191428304E-1
5.040986875E0,6.574280262E-1,-7.661519051E0,-2.542374097E-2
5.043474011E0,9.852447510E-1,-8.741280556E0,3.481557071E-1
5.045962031E0,1.540678620E0,-9.493225098E0,1.425524116E0
5.048450000E0,1.425823212E0,-9.684650421E0,3.005684376E0
5.050937188E0,1.215254784E0,-9.854540825E0,3.414856911E0
5.053424375E0,1.313360572E0,-1.026640511E1,3.027219772E0
5.055912396E0,1.511964798E0,-1.092233849E1,2.529213428E0
5.058400365E0,1.890329838E0,-1.158784199E1,2.179562330E0
5.060887552E0,2.136790514E0,-1.125045395E1,1.911566138E0
5.063374688E0,1.904686809E0,-1.031186962E1,2.363809586E0
5.065862709E0,1.576570988E0,-9.761220932E0,3.685544968E0
5.068350677E0,1.653440475E0,-9.890433311E0,3.412464142E0
5.070837865E0,1.875972986E0,-1.022333431E1,2.292025089E0
5.073325052E0,1.892722726E0,-1.079551888E1,7.671987414E-1
5.075813073E0,2.067398787E0,-1.140838051E1,-5.892325938E-2
5.078301042E0,2.429013968E0,-1.160698414E1,-5.760720372E-1
5.080788177E0,2.879163742E0,-1.129591751E1,-3.891327679E-1
5.083275365E0,3.072982550E0,-1.029751205E1,1.663011760E-1
5.085763386E0,2.474477768E0,-8.789136887E0,1.724626899E0
5.088251354E0,1.718046665E0,-7.419844151E0,3.053540707E0
5.090738542E0,1.066899776E0,-6.780661106E0,2.974577665E0
5.093225729E0,9.852447510E-1,-6.476473808E0,2.138884306E0
5.095713750E0,1.586142302E0,-6.313761711E0,-3.340978622E-1
5.098201719E0,1.952543259E0,-6.387938976E0,-2.067398787E0
5.100688854E0,2.163111687E0,-6.361618042E0,-2.412264347E0
5.103176042E0,2.204088688E0,-6.325725555E0,-2.009970903E0
5.105664063E0,2.314158678E0,-6.991229534E0,-1.248754263E0
5.108152031E0,1.806581140E0,-6.677470684E0,-1.624726534E0
5.110639219E0,1.313360572E0,-5.901896954E0,-2.050648928E0
5.113126406E0,1.394716501E0,-6.869195461E0,-1.227218866E0
5.115614427E0,1.411466241E0,-7.812565804E0,-1.045364380E0
5.118102396E0,1.001994491E0,-7.383951664E0,-2.146661043E0
5.120589531E0,7.483552694E-1,-7.441379547E0,-7.842476368E-1
5.123076719E0,6.191428304E-1,-7.960920811E0,1.224227905E0
5.125564740E0,3.819543123E-1,-7.577770233E0,8.844470978E-1
