"Time (s)","Gyroscope x (rad/s)","Gyroscope y (rad/s)","Gyroscope z (rad/s)"
1.491470310E-1,-6.032116711E-2,-4.208737612E-1,-1.672194302E-1
1.516354170E-1,-6.765133142E-2,-3.865135908E-1,-1.550024897E-1
1.541230210E-1,-7.131642103E-2,-3.596363366E-1,-1.403421611E-1
1.566097400E-1,-8.231166750E-2,-3.413109183E-1,-1.293469071E-1
1.590973440E-1,-8.475505561E-2,-3.193204105E-1,-1.195733473E-1
1.615857810E-1,-8.842013776E-2,-2.997733057E-1,-1.146865711E-1
1.640733860E-1,-8.842013776E-2,-2.851129472E-1,-1.134648770E-1
1.665601040E-1,-8.597674966E-2,-2.716743052E-1,-1.146865711E-1
1.690477090E-1,-8.353336155E-2,-2.619007528E-1,-1.195733473E-1
1.715361460E-1,-7.498150319E-2,-2.557922900E-1,-1.256818175E-1
1.740237500E-1,-6.398624927E-2,-2.557922900E-1,-1.305686086E-1
1.765104690E-1,-4.932591692E-2,-2.557922900E-1,-1.366770715E-1
1.789981250E-1,-3.833066672E-2,-2.631224692E-1,-1.452289373E-1
1.814865110E-1,-2.367033064E-2,-2.692309320E-1,-1.476723254E-1
1.839740630E-1,-1.023169141E-2,-2.790044844E-1,-1.513374150E-1
1.864608340E-1,3.206948051E-3,-2.899997234E-1,-1.513374150E-1
1.889484380E-1,1.542389300E-2,-3.034383655E-1,-1.513374150E-1
1.914368750E-1,2.397575416E-2,-3.168770075E-1,-1.501157135E-1
1.939244270E-1,3.497100621E-2,-3.278722763E-1,-1.501157135E-1
1.964111460E-1,3.863608837E-2,-3.425326049E-1,-1.488940120E-1
1.988988020E-1,4.230117425E-2,-3.559712470E-1,-1.513374150E-1
2.013871880E-1,4.596625641E-2,-3.669664860E-1,-1.562241912E-1
2.038747920E-1,4.474456236E-2,-3.828485310E-1,-1.598892659E-1
2.063615110E-1,4.230117425E-2,-3.987305462E-1,-1.696628332E-1
2.088491670E-1,3.619270027E-2,-4.172086716E-1,-1.782146841E-1
2.113375520E-1,2.764083818E-2,-4.367557764E-1,-1.892099380E-1
2.138251560E-1,2.031067200E-2,-4.563029110E-1,-2.014268786E-1
2.163118750E-1,1.053711493E-2,-4.709632397E-1,-2.136438340E-1
2.187995310E-1,1.985253533E-3,-4.868452549E-1,-2.270824611E-1
2.212879170E-1,-6.566607859E-3,-4.953971207E-1,-2.392994165E-1
2.237755210E-1,-1.023169141E-2,-5.015056133E-1,-2.515163720E-1
2.262622400E-1,-1.511846948E-2,-5.051707029E-1,-2.637332976E-1
2.287498960E-1,-1.878355257E-2,-5.063923597E-1,-2.783936262E-1
2.312382810E-1,-2.489202656E-2,-5.063923597E-1,-2.942756712E-1
2.337258860E-1,-2.733541466E-2,-5.051707029E-1,-3.101576865E-1
2.362126040E-1,-3.344388679E-2,-5.051707029E-1,-3.260397315E-1
2.387002610E-1,-4.077405483E-2,-4.990622103E-1,-3.443651497E-1
2.411886460E-1,-4.810422286E-2,-4.917320311E-1,-3.626905680E-1
2.436762500E-1,-5.909947306E-2,-4.868452549E-1,-3.822376728E-1
2.461629690E-1,-6.765133142E-2,-4.795151055E-1,-4.005630910E-1
2.486506250E-1,-7.742489129E-2,-4.709632397E-1,-4.164451063E-1
2.511390110E-1,-8.475505561E-2,-4.599680007E-1,-4.286620617E-1
2.536266150E-1,-9.208522737E-2,-4.501944184E-1,-4.396573007E-1
2.561133340E-1,-1.006370857E-1,-4.501944184E-1,-4.628695250E-1
2.586009900E-1,-1.067455560E-1,-4.526378214E-1,-4.848600030E-1
2.610893750E-1,-1.079672500E-1,-4.538595080E-1,-4.995203316E-1
2.635769790E-1,-1.067455560E-1,-4.453076422E-1,-5.068505406E-1
2.660636980E-1,-1.055238619E-1,-4.306473136E-1,-5.056288242E-1
2.685513020E-1,-1.030804738E-1,-4.049917459E-1,-5.007420182E-1
2.710397400E-1,-9.452861547E-2,-3.718532622E-1,-4.934118688E-1
2.735272920E-1,-8.842013776E-2,-3.327590525E-1,-4.836383164E-1
2.760140630E-1,-8.108997345E-2,-2.899997234E-1,-4.701996744E-1
2.785016670E-1,-7.375980914E-2,-2.435753495E-1,-4.530959427E-1
2.809901040E-1,-6.398624927E-2,-1.983726472E-1,-4.335488379E-1
2.834776560E-1,-5.421269313E-2,-1.531699449E-1,-4.127800465E-1
2.859644270E-1,-4.321744293E-2,-1.116323397E-1,-3.944546282E-1
2.884520310E-1,-3.100049868E-2,-7.131642103E-2,-3.724641204E-1
2.909404690E-1,-2.000524849E-2,-3.833066672E-2,-3.565820754E-1
2.934280210E-1,-7.788302377E-3,-1.023169141E-2,-3.407000601E-1
2.959147400E-1,6.872031838E-3,1.298050396E-2,-3.284831047E-1
2.984023960E-1,2.031067200E-2,2.886253223E-2,-3.162661791E-1
3.008907810E-1,3.619270027E-2,3.619270027E-2,-3.077143133E-1
3.033783860E-1,5.573981255E-2,4.107947648E-2,-2.991624475E-1
3.058651040E-1,7.284353673E-2,3.985778242E-2,-2.967190444E-1
3.083527610E-1,9.116895497E-2,3.374931216E-2,-2.918322682E-1
3.108411460E-1,1.107160673E-1,2.397575416E-2,-2.930539846E-1
3.133287500E-1,1.314848661E-1,1.420219894E-2,-2.967190444E-1
3.158154690E-1,1.510319859E-1,-1.679830020E-3,-3.052709103E-1
3.183031250E-1,1.693574041E-1,-2.000524849E-2,-3.064926267E-1
3.207915110E-1,1.913478971E-1,-5.176930502E-2,-3.028275371E-1
3.232791150E-1,2.023431510E-1,-8.597674966E-2,-3.064926267E-1
3.257658340E-1,2.084516287E-1,-1.226275861E-1,-3.199312389E-1
3.282534900E-1,2.060082406E-1,-1.556133330E-1,-3.419217467E-1
3.307418750E-1,2.035648525E-1,-1.873773932E-1,-3.700207174E-1
3.332294790E-1,1.962346882E-1,-2.142546773E-1,-4.005630910E-1
3.357161980E-1,1.815743446E-1,-2.472404242E-1,-4.323271513E-1
3.382038540E-1,1.656923145E-1,-3.095468581E-1,-4.555393457E-1
3.406922400E-1,1.461452097E-1,-3.791834414E-1,-4.836383164E-1
3.431798440E-1,1.180462316E-1,-4.379774928E-1,-5.190674663E-1
3.456665630E-1,8.872556686E-2,-4.905103445E-1,-5.581616759E-1
3.481542190E-1,5.329642445E-2,-5.369347334E-1,-5.948125124E-1
3.506426040E-1,2.519745007E-2,-5.833591223E-1,-6.314633489E-1
3.531302090E-1,-4.123218823E-3,-6.236750484E-1,-6.644490957E-1
3.556169270E-1,-2.855710872E-2,-6.542174220E-1,-6.986565590E-1
3.581045840E-1,-5.299099907E-2,-6.762079000E-1,-7.291989326E-1
3.605929690E-1,-7.986827940E-2,-6.945333481E-1,-7.560762167E-1
3.630805730E-1,-1.055238619E-1,-7.104153633E-1,-7.780666947E-1
3.655672920E-1,-1.336228400E-1,-7.262973785E-1,-7.988355160E-1
3.680548960E-1,-1.543916464E-1,-7.421793938E-1,-8.098307252E-1
3.705433340E-1,-1.788255423E-1,-7.531746626E-1,-8.196043372E-1
3.730308860E-1,-1.983726472E-1,-7.605048418E-1,-8.232693672E-1
3.755176560E-1,-2.240282297E-1,-7.653915882E-1,-8.293778896E-1
3.780052610E-1,-2.472404242E-1,-7.678350210E-1,-8.269344568E-1
3.804936980E-1,-2.692309320E-1,-7.678350210E-1,-8.244910836E-1
3.829812500E-1,-2.912214398E-1,-7.678350210E-1,-8.183826208E-1
3.854680210E-1,-3.119902313E-1,-7.690566778E-1,-8.110524416E-1
3.879556250E-1,-3.290939629E-1,-7.678350210E-1,-8.012788892E-1
3.904440110E-1,-3.425326049E-1,-7.653915882E-1,-7.902836204E-1
3.929316150E-1,-3.596363366E-1,-7.446228266E-1,-7.817317843E-1
3.954183340E-1,-3.706315756E-1,-7.201889157E-1,-7.780666947E-1
3.979059900E-1,-3.791834414E-1,-7.043069005E-1,-7.707365155E-1
4.003943750E-1,-3.840702176E-1,-7.043069005E-1,-7.621846795E-1
4.028819790E-1,-3.852919042E-1,-7.104153633E-1,-7.524111271E-1
4.053686980E-1,-3.828485310E-1,-7.165238261E-1,-7.438592315E-1
4.078563540E-1,-3.767400384E-1,-7.214106321E-1,-7.353073955E-1
4.103447400E-1,-3.694098890E-1,-7.238540053E-1,-7.255338430E-1
4.128323440E-1,-3.571929336E-1,-7.262973785E-1,-7.194253802E-1
4.153190630E-1,-3.461976945E-1,-7.311841846E-1,-7.108734846E-1
4.178067190E-1,-3.290939629E-1,-7.348492742E-1,-7.096518278E-1
4.202951040E-1,-3.095468581E-1,-7.397360206E-1,-7.059867382E-1
4.227827090E-1,-2.899997234E-1,-7.397360206E-1,-7.072083950E-1
4.252694270E-1,-2.692309320E-1,-7.409577370E-1,-7.133168578E-1
4.277570840E-1,-2.460187376E-1,-7.409577370E-1,-7.230904698E-1
4.302454690E-1,-2.240282297E-1,-7.421793938E-1,-7.389724851E-1
4.327330730E-1,-2.020377368E-1,-7.470661998E-1,-7.572978735E-1
4.352197920E-1,-1.788255423E-1,-7.568397522E-1,-7.817317843E-1
4.377074480E-1,-1.556133330E-1,-7.690566778E-1,-8.086090684E-1
4.401958340E-1,-1.299577504E-1,-7.837170362E-1,-8.403730989E-1
4.426834380E-1,-1.043021679E-1,-7.995990515E-1,-8.758022785E-1
4.451701560E-1,-8.353336155E-2,-8.142594099E-1,-9.148964882E-1
4.476578130E-1,-6.154286116E-2,-8.276980519E-1,-9.552124143E-1
4.501461980E-1,-4.077405483E-2,-8.448017836E-1,-9.979717135E-1
4.526337500E-1,-2.122694254E-2,-8.680139780E-1,-1.040731072E0
4.551205210E-1,-1.679830020E-3,-8.924478292E-1,-1.083643079E0
4.576081770E-1,1.664558798E-2,-9.193251133E-1,-1.127624035E0
4.600965630E-1,2.886253223E-2,-9.486457705E-1,-1.171604991E0
4.625841150E-1,4.107947648E-2,-9.852966070E-1,-1.213142633E0
4.650708860E-1,4.840964451E-2,-1.019504070E0,-1.252236843E0
4.675584900E-1,5.573981255E-2,-1.054933190E0,-1.294996142E0
4.700469270E-1,5.696150661E-2,-1.089140654E0,-1.331647038E0
4.725344790E-1,5.696150661E-2,-1.117239594E0,-1.367076159E0
4.750211980E-1,5.451811850E-2,-1.146560311E0,-1.400061965E0
4.775088540E-1,5.451811850E-2,-1.172215939E0,-1.431825995E0
4.799972400E-1,4.596625641E-2,-1.195428133E0,-1.456259847E0
4.824848440E-1,3.985778242E-2,-1.210088372E0,-1.475806952E0
4.849715630E-1,2.886253223E-2,-1.218640327E0,-1.490467310E0
4.874592190E-1,1.908897609E-2,-1.213753462E0,-1.495354056E0
4.899476040E-1,1.053711493E-2,-1.199093223E0,-1.491688967E0
4.924352090E-1,-1.679830020E-3,-1.170994163E0,-1.481915474E0
4.949219270E-1,-1.756185852E-2,-1.136786699E0,-1.464811683E0
4.974095840E-1,-2.855710872E-2,-1.097692490E0,-1.439156175E0
4.998979690E-1,-3.833066672E-2,-1.045159698E0,-1.407392025E0
5.023855730E-1,-4.932591692E-2,-9.901834130E-1,-1.369519591E0
5.048722920E-1,-5.421269313E-2,-9.278770089E-1,-1.329203606E0
5.073599480E-1,-6.032116711E-2,-8.594620824E-1,-1.285222650E0
5.098483340E-1,-6.276455522E-2,-7.886037827E-1,-1.243685007E0
5.123359380E-1,-6.642963737E-2,-7.116370797E-1,-1.199704051E0
5.148226560E-1,-6.398624927E-2,-6.310052276E-1,-1.158166409E0
5.173103130E-1,-6.032116711E-2,-5.515950918E-1,-1.119072199E0
5.197986980E-1,-5.421269313E-2,-4.734066129E-1,-1.083643079E0
5.222863020E-1,-4.566083103E-2,-3.975088596E-1,-1.045617819E0
5.247730210E-1,-3.710897267E-2,-3.205420971E-1,-1.008966923E0
5.272606770E-1,-3.100049868E-2,-2.435753495E-1,-9.723161459E-1
5.297490630E-1,-2.733541466E-2,-1.824906170E-1,-9.417737722E-1
5.322366670E-1,-2.244863659E-2,-1.299577504E-1,-9.112313986E-1
5.347233860E-1,-1.634016447E-2,-9.819369763E-2,-8.855758309E-1
5.372110420E-1,-6.566607859E-3,-8.231166750E-2,-8.623636365E-1
5.396994270E-1,7.635590737E-4,-7.131642103E-2,-8.415948153E-1
5.421869790E-1,1.053711493E-2,-6.765133142E-2,-8.244910836E-1
5.446737500E-1,2.275406010E-2,-7.131642103E-2,-8.061656952E-1
5.471613540E-1,3.497100621E-2,-7.498150319E-2,-7.927270532E-1
5.496497920E-1,4.596625641E-2,-7.253811508E-2,-7.805100679E-1
5.521373440E-1,5.573981255E-2,-6.765133142E-2,-7.731798887E-1
5.546240630E-1,6.551336497E-2,-6.642963737E-2,-7.719582319E-1
5.571117190E-1,8.139539510E-2,-6.765133142E-2,-7.707365155E-1
5.596001040E-1,9.483403713E-2,-7.009471953E-2,-7.707365155E-1
5.620877090E-1,1.119377613E-1,-7.498150319E-2,-7.731798887E-1
5.645744270E-1,1.278197914E-1,-7.742489129E-2,-7.744016051E-1
5.670620840E-1,1.461452097E-1,-8.231166750E-2,-7.756233215E-1
5.695504690E-1,1.644706279E-1,-8.475505561E-2,-7.780666947E-1
5.720380730E-1,1.852394342E-1,-7.620319724E-2,-7.780666947E-1
5.745247920E-1,2.023431510E-1,-6.520794332E-2,-7.780666947E-1
5.770124480E-1,2.194468826E-1,-5.299099907E-2,-7.780666947E-1
5.795008340E-1,2.402156889E-1,-4.199574888E-2,-7.744016051E-1
5.819884380E-1,2.609844804E-1,-3.466558084E-2,-7.670714259E-1
5.844751560E-1,2.805316150E-1,-3.466558084E-2,-7.560762167E-1
5.869628130E-1,3.025220931E-1,-4.077405483E-2,-7.377507687E-1
5.894511980E-1,3.208475113E-1,-5.299099907E-2,-7.182036638E-1
5.919388020E-1,3.428380191E-1,-7.253811508E-2,-6.913263798E-1
5.944255210E-1,3.660502136E-1,-9.697200358E-2,-6.620057225E-1
5.969131770E-1,3.904841244E-1,-1.275143623E-1,-6.277982593E-1
5.994015630E-1,4.149180055E-1,-1.641651988E-1,-5.899257660E-1
6.018891670E-1,4.430169761E-1,-2.044811249E-1,-5.520532131E-1
6.043758860E-1,4.747810364E-1,-2.484621257E-1,-5.129590034E-1
6.068635420E-1,5.053234100E-1,-2.961082160E-1,-4.811949134E-1
6.093519270E-1,5.407525301E-1,-3.388675153E-1,-4.482091665E-1
6.118394790E-1,5.749599934E-1,-3.767400384E-1,-4.213318825E-1
6.143262500E-1,6.116108298E-1,-4.111002088E-1,-3.981196880E-1
6.168138540E-1,6.458182931E-1,-4.330907166E-1,-3.822376728E-1
6.193022920E-1,6.775823236E-1,-4.306473136E-1,-3.773508966E-1
6.217898440E-1,7.007945180E-1,-3.999522328E-1,-3.810159862E-1
6.242766150E-1,7.215633392E-1,-3.608580232E-1,-3.871244490E-1
6.267642190E-1,7.386670709E-1,-3.205420971E-1,-3.956763148E-1
6.292526040E-1,7.521057129E-1,-2.838912606E-1,-4.127800465E-1
6.317402090E-1,7.667660117E-1,-2.509055138E-1,-4.359922409E-1
6.342269270E-1,7.716528177E-1,-2.203631550E-1,-4.677563012E-1
6.367145840E-1,7.740961909E-1,-1.995943487E-1,-5.068505406E-1
6.392029690E-1,7.765395641E-1,-1.861557066E-1,-5.471664071E-1
6.416905730E-1,7.765395641E-1,-1.861557066E-1,-5.911474228E-1
6.441772920E-1,7.740961909E-1,-2.032594234E-1,-6.375718117E-1
6.466649480E-1,7.667660117E-1,-2.386885732E-1,-6.827745438E-1
6.491533340E-1,7.447755337E-1,-3.071034551E-1,-7.304205894E-1
6.516409380E-1,7.154548764E-1,-3.975088596E-1,-7.805100679E-1
6.541276560E-1,6.763606071E-1,-5.002838969E-1,-8.269344568E-1
6.566153130E-1,6.311579347E-1,-6.053496599E-1,-8.684720993E-1
6.591036980E-1,5.761816502E-1,-7.140804529E-1,-9.087880254E-1
6.615913020E-1,5.163186193E-1,-8.203678727E-1,-9.466605186E-1
6.640780210E-1,4.479037523E-1,-9.181034565E-1,-9.808679819E-1
6.665656770E-1,3.807105422E-1,-1.003622055E0,-1.010188699E0
6.690540630E-1,3.122956753E-1,-1.063485026E0,-1.039509296E0
6.715416670E-1,2.414373755E-1,-1.094027400E0,-1.065164924E0
6.740283860E-1,1.718007922E-1,-1.096470833E0,-1.090973258E0
6.765160420E-1,1.070509851E-1,-1.064706802E0,-1.114185452E0
6.790044270E-1,4.596625641E-2,-1.007287145E0,-1.133732557E0
6.814920310E-1,-5.344913341E-3,-9.254335761E-1,-1.148392797E0
6.839787500E-1,-5.176930502E-2,-8.289197087E-1,-1.160609841E0
6.864663540E-1,-9.452861547E-2,-7.214106321E-1,-1.170383334E0
6.889547920E-1,-1.250709742E-1,-6.090146899E-1,-1.180156946E0
6.914423440E-1,-1.519482583E-1,-4.966188073E-1,-1.194817185E0
6.939291150E-1,-1.702736765E-1,-3.828485310E-1,-1.220472813E0
6.964167190E-1,-1.824906170E-1,-2.728960216E-1,-1.252236843E0
6.989051040E-1,-1.873773932E-1,-1.739387512E-1,-1.281557560E0
7.013927090E-1,-1.824906170E-1,-8.353336155E-2,-1.309656501E0
7.038794270E-1,-1.788255423E-1,-1.679830020E-3,-1.335312128E0
7.063670840E-1,-1.690519750E-1,7.895200700E-2,-1.357302666E0
7.088554690E-1,-1.543916464E-1,1.583621502E-1,-1.378071427E0
7.113430730E-1,-1.446180940E-1,2.353289127E-1,-1.392731786E0
7.138297920E-1,-1.311794519E-1,3.110739589E-1,-1.402505279E0
7.163174480E-1,-1.201841980E-1,3.819322586E-1,-1.408613801E0
7.188058340E-1,-1.152974218E-1,4.466820657E-1,-1.411057115E0
7.212934380E-1,-1.055238619E-1,5.016583204E-1,-1.408613801E0
7.237801560E-1,-1.006370857E-1,5.444176197E-1,-1.404948711E0
7.262678130E-1,-1.006370857E-1,5.712949038E-1,-1.400061965E0
7.287561980E-1,-1.018587798E-1,5.798467398E-1,-1.391510010E0
7.312438020E-1,-1.067455560E-1,5.725166202E-1,-1.378071427E0
7.337305210E-1,-1.165191159E-1,5.505260825E-1,-1.368297815E0
7.362181770E-1,-1.287360638E-1,5.199837089E-1,-1.358524323E0
7.387065630E-1,-1.433963925E-1,4.735593498E-1,-1.347529054E0
7.411941670E-1,-1.653869003E-1,4.222481549E-1,-1.340198874E0
7.436808860E-1,-1.947075576E-1,3.611634374E-1,-1.331647038E0
7.461684900E-1,-2.228065431E-1,2.915268540E-1,-1.325538516E0
7.486569270E-1,-2.545706034E-1,2.145601064E-1,-1.321873426E0
7.511445310E-1,-2.924431264E-1,1.302631795E-1,-1.318208337E0
7.536312500E-1,-3.266505599E-1,3.741439432E-2,-1.318208337E0
7.561188540E-1,-3.633013964E-1,-5.543438718E-2,-1.315765023E0
7.586072920E-1,-3.962871730E-1,-1.543916464E-1,-1.320651770E0
7.610948440E-1,-4.304946065E-1,-2.557922900E-1,-1.321873426E0
7.635816150E-1,-4.610369802E-1,-3.608580232E-1,-1.324316859E0
7.660692190E-1,-4.928010404E-1,-4.709632397E-1,-1.330425382E0
7.685576040E-1,-5.221216679E-1,-6.114581227E-1,-1.343863964E0
7.710452090E-1,-5.428904891E-1,-7.470661998E-1,-1.347529054E0
7.735319270E-1,-5.514423847E-1,-8.667922616E-1,-1.342642307E0
7.760195840E-1,-5.599942207E-1,-9.535325766E-1,-1.332868695E0
7.785079690E-1,-5.697677732E-1,-1.009730577E0,-1.318208337E0
7.809955730E-1,-5.758762360E-1,-1.034164429E0,-1.297439575E0
7.834822920E-1,-5.758762360E-1,-1.043937922E0,-1.274227381E0
7.859699480E-1,-5.734328628E-1,-1.062263370E0,-1.244906664E0
7.884583340E-1,-5.612159371E-1,-1.090362310E0,-1.211920977E0
7.909459380E-1,-5.453338623E-1,-1.103801012E0,-1.177713513E0
7.934326560E-1,-5.221216679E-1,-1.098914266E0,-1.141062737E0
7.959203130E-1,-4.928010404E-1,-1.076923728E0,-1.110520363E0
7.984086980E-1,-4.549284875E-1,-1.058598280E0,-1.079977989E0
8.008963020E-1,-4.121691883E-1,-1.042716265E0,-1.046839476E0
8.033830210E-1,-3.669664860E-1,-1.015838981E0,-1.015075445E0
8.058706770E-1,-3.193204105E-1,-9.730796814E-1,-9.820896983E-1
8.083590630E-1,-2.667875290E-1,-9.144383669E-1,-9.466605186E-1
8.108466670E-1,-2.154763639E-1,-8.435800672E-1,-9.124531150E-1
8.133333860E-1,-1.629435122E-1,-7.690566778E-1,-8.794673681E-1
8.158209900E-1,-1.079672500E-1,-6.957550049E-1,-8.489249945E-1
8.183094270E-1,-5.299099907E-2,-6.273401380E-1,-8.196043372E-1
8.207969790E-1,3.206948051E-3,-5.552601814E-1,-7.915053368E-1
8.232837500E-1,5.451811850E-2,-4.856235683E-1,-7.646280527E-1
8.257713540E-1,1.021642014E-1,-4.184303582E-1,-7.414158583E-1
8.282597920E-1,1.498102844E-1,-3.498627543E-1,-7.206470370E-1
8.307473440E-1,1.864611208E-1,-2.802261710E-1,-6.986565590E-1
8.332340630E-1,2.194468826E-1,-2.166980654E-1,-6.827745438E-1
8.357217190E-1,2.426590770E-1,-1.543916464E-1,-6.656708121E-1
8.382101040E-1,2.597627938E-1,-1.006370857E-1,-6.546755433E-1
8.406977090E-1,2.707580328E-1,-5.299099907E-2,-6.485670805E-1
8.431844270E-1,2.707580328E-1,-1.878355257E-2,-6.461237073E-1
8.456720840E-1,2.634278834E-1,1.985253533E-3,-6.461237073E-1
8.481604690E-1,2.524326444E-1,1.175880991E-2,-6.510104537E-1
8.506480730E-1,2.328855246E-1,6.872031838E-3,-6.607840061E-1
8.531347920E-1,2.084516287E-1,-1.023169141E-2,-6.705575585E-1
8.556224480E-1,1.803526580E-1,-4.199574888E-2,-6.827745438E-1
8.581108340E-1,1.485885978E-1,-8.597674966E-2,-6.925480962E-1
8.605984380E-1,1.156028435E-1,-1.433963925E-1,-7.035433054E-1
8.630851560E-1,7.895200700E-2,-2.044811249E-1,-7.133168578E-1
8.655728130E-1,4.107947648E-2,-2.704526186E-1,-7.206470370E-1
8.680611980E-1,5.650337320E-3,-3.388675153E-1,-7.291989326E-1
8.705488020E-1,-2.855710872E-2,-4.037700295E-1,-7.316423059E-1
8.730355210E-1,-6.032116711E-2,-4.636330605E-1,-7.340856791E-1
8.755231250E-1,-9.208522737E-2,-5.198310018E-1,-7.328640223E-1
8.780115630E-1,-1.177408099E-1,-5.711421967E-1,-7.316423059E-1
8.804991150E-1,-1.385096163E-1,-6.126797795E-1,-7.267554998E-1
8.829858860E-1,-1.580567211E-1,-6.505523324E-1,-7.218687534E-1
8.854734900E-1,-1.751604527E-1,-6.798729897E-1,-7.120952010E-1
8.879619270E-1,-1.873773932E-1,-7.030851841E-1,-7.047650218E-1
8.904494790E-1,-1.873773932E-1,-7.165238261E-1,-6.962131858E-1
8.929361980E-1,-1.910424829E-1,-7.226322889E-1,-6.852179170E-1
8.954238540E-1,-1.837123185E-1,-7.214106321E-1,-6.778877378E-1
8.979122400E-1,-1.739387512E-1,-7.165238261E-1,-6.681141853E-1
9.003998440E-1,-1.617218107E-1,-7.006418109E-1,-6.607840061E-1
9.028865630E-1,-1.446180940E-1,-6.737645268E-1,-6.558972597E-1
9.053742190E-1,-1.275143623E-1,-6.371136904E-1,-6.595623493E-1
9.078626040E-1,-1.079672500E-1,-6.004628539E-1,-6.644490957E-1
9.103502090E-1,-8.719844371E-2,-5.711421967E-1,-6.730009913E-1
9.128369270E-1,-6.398624927E-2,-5.430431962E-1,-6.803311110E-1
9.153245840E-1,-3.833066672E-2,-5.149442554E-1,-6.876612902E-1
9.178129690E-1,-1.878355257E-2,-4.953971207E-1,-6.962131858E-1
9.203005730E-1,3.206948051E-3,-4.697415531E-1,-7.047650218E-1
9.227872920E-1,2.519745007E-2,-4.477510452E-1,-7.120952010E-1
9.252749480E-1,4.352286831E-2,-4.220954478E-1,-7.194253802E-1
9.277633340E-1,5.696150661E-2,-3.962871730E-1,-7.267554998E-1
9.302509380E-1,7.040014863E-2,-3.681881726E-1,-7.353073955E-1
9.327376560E-1,7.650861889E-2,-3.400892019E-1,-7.426375747E-1
9.352253130E-1,7.895200700E-2,-3.107685447E-1,-7.511894107E-1
9.377136980E-1,8.017370105E-2,-2.777827978E-1,-7.609629631E-1
9.402012500E-1,7.284353673E-2,-2.484621257E-1,-7.695148587E-1
9.426880210E-1,6.184828654E-2,-2.179197669E-1,-7.792884111E-1
9.451756250E-1,4.596625641E-2,-1.873773932E-1,-7.902836204E-1
9.476640630E-1,2.397575416E-2,-1.592784226E-1,-8.000571728E-1
9.501516150E-1,-4.581354442E-4,-1.360662282E-1,-8.098307252E-1
9.526383340E-1,-2.611372061E-2,-1.152974218E-1,-8.183826208E-1
9.551259900E-1,-5.421269313E-2,-1.030804738E-1,-8.269344568E-1
9.576143750E-1,-8.353336155E-2,-9.452861547E-2,-8.342646360E-1
9.601019790E-1,-1.128540337E-1,-9.208522737E-2,-8.415948153E-1
9.625886980E-1,-1.397313178E-1,-9.330692142E-2,-8.464815617E-1
9.650763540E-1,-1.653869003E-1,-9.697200358E-2,-8.501466513E-1
9.675647400E-1,-1.910424829E-1,-1.030804738E-1,-8.538117409E-1
9.700523440E-1,-2.118112892E-1,-1.055238619E-1,-8.599202037E-1
9.725390630E-1,-2.313583940E-1,-1.091889441E-1,-8.635852933E-1
9.750267190E-1,-2.460187376E-1,-1.128540337E-1,-8.672503829E-1
9.775151040E-1,-2.582356930E-1,-1.152974218E-1,-8.709154725E-1
9.800027090E-1,-2.655658424E-1,-1.201841980E-1,-8.745805621E-1
9.824894270E-1,-2.680092454E-1,-1.238492802E-1,-8.794673681E-1
9.849770840E-1,-2.680092454E-1,-1.324011385E-1,-8.843541145E-1
9.874654690E-1,-2.643441558E-1,-1.446180940E-1,-8.929060102E-1
9.899530730E-1,-2.545706034E-1,-1.568350345E-1,-8.990144730E-1
9.924397920E-1,-2.423536479E-1,-1.763821393E-1,-9.075663090E-1
9.949273960E-1,-2.240282297E-1,-1.983726472E-1,-9.148964882E-1
9.974158340E-1,-2.032594234E-1,-2.203631550E-1,-9.246700406E-1
9.999033860E-1,-1.824906170E-1,-2.460187376E-1,-9.344435930E-1
1.002390156E0,-1.568350345E-1,-2.704526186E-1,-9.442171454E-1
1.004877761E0,-1.275143623E-1,-2.912214398E-1,-9.527690411E-1
1.007366146E0,-9.819369763E-2,-3.119902313E-1,-9.576557875E-1
1.009853750E0,-6.765133142E-2,-3.266505599E-1,-9.649859667E-1
1.012340469E0,-3.466558084E-2,-3.364241421E-1,-9.686510563E-1
1.014828125E0,-5.344913341E-3,-3.449759781E-1,-9.735378027E-1
1.017316511E0,3.130592033E-2,-3.461976945E-1,-9.759812355E-1
1.019804115E0,6.184828654E-2,-3.461976945E-1,-9.808679819E-1
1.022290834E0,9.483403713E-2,-3.437542915E-1,-9.845330715E-1
1.024778490E0,1.241547018E-1,-3.376458287E-1,-9.881981611E-1
1.027266875E0,1.473668963E-1,-3.266505599E-1,-9.955283403E-1
1.029754479E0,1.705790907E-1,-3.144336343E-1,-1.001636744E0
1.032241198E0,1.864611208E-1,-3.009949923E-1,-1.008966923E0
1.034728854E0,1.925695986E-1,-2.594573796E-1,-1.006523609E0
1.037217240E0,1.534753740E-1,-1.250709742E-1,-9.625425935E-1
1.039704844E0,1.021642014E-1,-4.123218823E-3,-9.124531150E-1
1.042191563E0,6.673506647E-2,5.207473040E-2,-8.782456517E-1
1.044679219E0,2.519745007E-2,8.383878320E-2,-8.525900841E-1
1.047167604E0,-2.367033064E-2,1.107160673E-1,-8.305995464E-1
1.049655209E0,-8.108997345E-2,1.327065676E-1,-8.110524416E-1
1.052141927E0,-1.433963925E-1,1.498102844E-1,-7.927270532E-1
1.054629531E0,-2.130329758E-1,1.693574041E-1,-7.768449783E-1
1.057117969E0,-2.875563502E-1,1.913478971E-1,-7.658497691E-1
1.059605521E0,-3.633013964E-1,2.145601064E-1,-7.560762167E-1
1.062092292E0,-4.402681589E-1,2.463241518E-1,-7.487460375E-1
1.064579896E0,-5.184566379E-1,2.841966748E-1,-7.401941419E-1
1.067068281E0,-5.954233408E-1,3.208475113E-1,-7.377507687E-1
1.069555886E0,-6.638382673E-1,3.526115716E-1,-7.377507687E-1
1.072042604E0,-7.310314775E-1,3.770454824E-1,-7.414158583E-1
1.074530261E0,-7.896727920E-1,3.892624080E-1,-7.463026643E-1
1.077018646E0,-8.360971808E-1,3.892624080E-1,-7.414158583E-1
1.079506250E0,-8.690829277E-1,3.807105422E-1,-7.035433054E-1
1.081992969E0,-8.886300325E-1,3.660502136E-1,-6.375718117E-1
1.084480625E0,-9.045121074E-1,3.489464819E-1,-5.593833923E-1
1.086969011E0,-9.093988538E-1,3.269560039E-1,-4.958552718E-1
1.089456615E0,-9.057337642E-1,2.903051674E-1,-4.604261220E-1
1.091943334E0,-8.886300325E-1,2.353289127E-1,-4.457657933E-1
1.094430990E0,-8.580876589E-1,1.632489264E-1,-4.421007037E-1
1.096919375E0,-8.153283596E-1,7.773031294E-2,-4.445441067E-1
1.099406979E0,-7.591304183E-1,-9.009997360E-3,-4.494308829E-1
1.101893698E0,-6.956022978E-1,-9.575030953E-2,-4.592044353E-1
1.104381302E0,-6.247440577E-1,-1.739387512E-1,-4.653128982E-1
1.106869740E0,-5.477772951E-1,-2.509055138E-1,-4.738647640E-1
1.109357292E0,-4.634803534E-1,-3.180987239E-1,-4.775298536E-1
1.111844063E0,-3.767400384E-1,-3.706315756E-1,-4.836383164E-1
1.114331667E0,-2.887780368E-1,-4.086568058E-1,-4.860817194E-1
1.116820052E0,-2.008160353E-1,-4.355340898E-1,-4.897467792E-1
1.119307656E0,-1.140757278E-1,-4.477510452E-1,-4.934118688E-1
1.121794375E0,-3.344388679E-2,-4.489727318E-1,-4.970769584E-1
1.124282031E0,5.085303262E-2,-4.404208660E-1,-4.982986450E-1
1.126770417E0,1.229330078E-1,-4.269822240E-1,-4.982986450E-1
1.129258021E0,1.889045089E-1,-4.123218954E-1,-4.946335554E-1
1.131744740E0,2.475458533E-1,-3.950654566E-1,-4.897467792E-1
1.134232396E0,2.976353168E-1,-3.767400384E-1,-4.848600030E-1
1.136720781E0,3.403946459E-1,-3.535278440E-1,-4.775298536E-1
1.139208386E0,3.697153032E-1,-3.254288733E-1,-4.689779878E-1
1.141695104E0,3.868190348E-1,-2.973299026E-1,-4.555393457E-1
1.144182761E0,3.929274976E-1,-2.631224692E-1,-4.384356141E-1
1.146671146E0,3.868190348E-1,-2.276933193E-1,-4.152234197E-1
1.149158750E0,3.684936166E-1,-1.910424829E-1,-3.907895386E-1
1.151645469E0,3.477247953E-1,-1.482831687E-1,-3.639122546E-1
1.154133125E0,3.135173619E-1,-1.055238619E-1,-3.370349705E-1
1.156621511E0,2.756448388E-1,-6.276455522E-2,-3.077143133E-1
1.159109063E0,2.328855246E-1,-1.634016447E-2,-2.820587158E-1
1.161595834E0,1.754658818E-1,2.886253223E-2,-2.625116110E-1
1.164083438E0,1.204896197E-1,7.406523079E-2,-2.454078794E-1
1.166571875E0,6.184828654E-2,1.131594554E-1,-2.307475507E-1
1.169059427E0,5.650337320E-3,1.485885978E-1,-2.209739983E-1
1.171546146E0,-5.665608495E-2,1.803526580E-1,-2.099787444E-1
1.174033802E0,-1.140757278E-1,2.060082406E-1,-2.014268786E-1
1.176522188E0,-1.727170646E-1,2.218902707E-1,-1.953184158E-1
1.179009792E0,-2.276933193E-1,2.255553454E-1,-1.892099380E-1
1.181496511E0,-2.802261710E-1,2.194468826E-1,-1.843231618E-1
1.183984167E0,-3.278722763E-1,2.035648525E-1,-1.745496094E-1
1.186472552E0,-3.706315756E-1,1.815743446E-1,-1.635543555E-1
1.188960156E0,-4.121691883E-1,1.583621502E-1,-1.501157135E-1
1.191446875E0,-4.512633979E-1,1.278197914E-1,-1.366770715E-1
1.193934531E0,-4.866925478E-1,9.605573118E-2,-1.244601309E-1
1.196422917E0,-5.209000111E-1,5.940489471E-2,-1.110214889E-1
1.198910521E0,-5.538857579E-1,2.397575416E-2,-9.636115283E-2
1.201397240E0,-5.844281316E-1,-1.878355257E-2,-8.170082420E-2
1.203884896E0,-6.100836992E-1,-7.009471953E-2,-7.192726433E-2
1.206373281E0,-6.223006248E-1,-1.543916464E-1,-5.726693198E-2
1.208860834E0,-6.064186096E-1,-2.961082160E-1,-4.627167806E-2
1.211347604E0,-5.795413256E-1,-4.282039404E-1,-3.649812192E-2
1.213835209E0,-5.587725043E-1,-5.222744346E-1,-2.550287358E-2
1.216323594E0,-5.380037427E-1,-5.735855699E-1,-1.084253844E-2
1.218811198E0,-5.221216679E-1,-5.894675851E-1,8.704573847E-3
1.221297917E0,-5.099047422E-1,-5.845808387E-1,2.458660305E-2
1.223785573E0,-4.903576374E-1,-5.723638535E-1,3.680354729E-2
1.226273959E0,-4.683671296E-1,-5.564818382E-1,4.413371533E-2
1.228761563E0,-4.427115619E-1,-5.393781066E-1,4.657710344E-2
1.231248281E0,-4.146125913E-1,-5.210527182E-1,4.657710344E-2
1.233735938E0,-3.828485310E-1,-5.002838969E-1,4.413371533E-2
1.236224323E0,-3.547495604E-1,-4.721849263E-1,3.802524135E-2
1.238711927E0,-3.254288733E-1,-4.355340898E-1,3.191677108E-2
1.241198646E0,-2.985515893E-1,-3.889569938E-1,2.336490713E-2
1.243686302E0,-2.741177082E-1,-3.327590525E-1,1.603474095E-2
1.246174688E0,-2.496838123E-1,-2.728960216E-1,3.817795310E-3
1.248662292E0,-2.264716178E-1,-2.130329758E-1,-5.955760833E-3
1.251149011E0,-2.069245130E-1,-1.470614821E-1,-2.061609551E-2
1.253636667E0,-1.910424829E-1,-8.353336155E-2,-3.771981969E-2
1.256125052E0,-1.788255423E-1,-2.122694254E-2,-5.604523420E-2
1.258612604E0,-1.751604527E-1,3.985778242E-2,-7.559234649E-2
1.261099323E0,-1.690519750E-1,8.383878320E-2,-9.513945878E-2
1.263586979E0,-1.507265568E-1,9.727742523E-2,-1.146865711E-1
1.266075417E0,-1.201841980E-1,9.483403713E-2,-1.330119967E-1
1.268562969E0,-8.475505561E-2,7.650861889E-2,-1.476723254E-1
1.271049688E0,-4.443913698E-2,4.718795046E-2,-1.598892659E-1
1.273537344E0,-1.389677543E-2,2.031067200E-2,-1.733279079E-1
1.276025729E0,4.428642802E-3,-1.679830020E-3,-1.867665499E-1
1.278513334E0,1.298050396E-2,-2.611372061E-2,-1.977618039E-1
1.281000052E0,1.908897609E-2,-5.665608495E-2,-2.050919682E-1
1.283487709E0,1.908897609E-2,-8.353336155E-2,-2.075353563E-1
1.285976094E0,1.908897609E-2,-1.067455560E-1,-2.038702667E-1
1.288463698E0,1.542389300E-2,-1.287360638E-1,-1.953184158E-1
1.290950417E0,1.786728203E-2,-1.470614821E-1,-1.855448484E-1
1.293438073E0,1.664558798E-2,-1.641651988E-1,-1.721062213E-1
1.295926459E0,1.542389300E-2,-1.800472289E-1,-1.574458778E-1
1.298414011E0,1.298050396E-2,-1.971509457E-1,-1.452289373E-1
1.300900781E0,9.315420873E-3,-2.118112892E-1,-1.317902952E-1
1.303388386E0,8.093725890E-3,-2.264716178E-1,-1.244601309E-1
1.305876823E0,7.635590737E-4,-2.423536479E-1,-1.207950488E-1
1.308364375E0,-4.123218823E-3,-2.496838123E-1,-1.207950488E-1
1.310851094E0,-1.267508045E-2,-2.484621257E-1,-1.256818175E-1
1.313338750E0,-2.611372061E-2,-2.399102598E-1,-1.378987730E-1
1.315827136E0,-3.833066672E-2,-2.228065431E-1,-1.501157135E-1
1.318314740E0,-5.421269313E-2,-2.057028115E-1,-1.647760421E-1
1.320801459E0,-6.887302548E-2,-1.873773932E-1,-1.769929975E-1
1.323289115E0,-7.986827940E-2,-1.714953631E-1,-1.831014603E-1
1.325777500E0,-9.330692142E-2,-1.568350345E-1,-1.806580722E-1
1.328265104E0,-1.055238619E-1,-1.482831687E-1,-1.806580722E-1
1.330751823E0,-1.165191159E-1,-1.372879148E-1,-1.831014603E-1
1.333239479E0,-1.311794519E-1,-1.372879148E-1,-1.806580722E-1
1.335727865E0,-1.397313178E-1,-1.470614821E-1,-1.831014603E-1
1.338215469E0,-1.458397806E-1,-1.568350345E-1,-1.879882365E-1
1.340702188E0,-1.531699449E-1,-1.763821393E-1,-1.977618039E-1
1.343189844E0,-1.592784226E-1,-1.971509457E-1,-2.124221325E-1
1.345678229E0,-1.592784226E-1,-2.228065431E-1,-2.307475507E-1
1.348165834E0,-1.519482583E-1,-2.509055138E-1,-2.478512824E-1
1.350652552E0,-1.348445266E-1,-2.863346636E-1,-2.673983872E-1
1.353140156E0,-1.128540337E-1,-3.254288733E-1,-2.796153426E-1
1.355628594E0,-8.231166750E-2,-3.669664860E-1,-2.942756712E-1
1.358116146E0,-4.199574888E-2,-4.086568058E-1,-3.016058207E-1
1.360602865E0,-4.123218823E-3,-4.550811946E-1,-3.101576865E-1
1.363090521E0,4.107947648E-2,-5.039489865E-1,-3.187095523E-1
1.365578906E0,8.139539510E-2,-5.552601814E-1,-3.297048211E-1
1.368066511E0,1.278197914E-1,-6.004628539E-1,-3.516952991E-1
1.370553229E0,1.730224788E-1,-6.334486008E-1,-3.785725832E-1
1.373040886E0,2.145601064E-1,-6.688777208E-1,-4.066715539E-1
1.375529271E0,2.463241518E-1,-7.140804529E-1,-4.286620617E-1
1.378016875E0,2.719797492E-1,-7.605048418E-1,-4.482091665E-1
1.380503594E0,2.927485406E-1,-7.849387527E-1,-4.677563012E-1
1.382991250E0,3.135173619E-1,-7.922688723E-1,-4.860817194E-1
1.385479636E0,3.245126009E-1,-7.934905887E-1,-5.056288242E-1
1.387967240E0,3.269560039E-1,-7.934905887E-1,-5.263976455E-1
1.390453959E0,3.220692277E-1,-7.947123051E-1,-5.435013771E-1
1.392941615E0,3.159607351E-1,-7.898254991E-1,-5.508314967E-1
1.395430000E0,3.086305857E-1,-7.751652002E-1,-5.496098399E-1
1.397917552E0,2.964136302E-1,-7.556180358E-1,-5.422796607E-1
1.400404323E0,2.817533016E-1,-7.324058414E-1,-5.276193023E-1
1.402891927E0,2.646495700E-1,-7.018635273E-1,-5.068505406E-1
1.405380313E0,2.451024652E-1,-6.700994372E-1,-4.848600030E-1
1.407867917E0,2.279987335E-1,-6.322268844E-1,-4.616478086E-1
1.410354636E0,2.133384049E-1,-5.894675851E-1,-4.359922409E-1
1.412842292E0,1.986780763E-1,-5.308262706E-1,-4.066715539E-1
1.415330677E0,1.791309565E-1,-4.709632397E-1,-3.810159862E-1
1.417818281E0,1.595838517E-1,-4.184303582E-1,-3.651339412E-1
1.420305000E0,1.400367320E-1,-3.730749488E-1,-3.553603888E-1
1.422792656E0,1.192679256E-1,-3.339807391E-1,-3.492519259E-1
1.425281042E0,9.972081333E-2,-3.022166789E-1,-3.480302393E-1
1.427768646E0,8.628217876E-2,-2.753393948E-1,-3.468085229E-1
1.430255365E0,7.040014863E-2,-2.533488870E-1,-3.455868363E-1
1.432743021E0,5.573981255E-2,-2.142546773E-1,-3.468085229E-1
1.435231406E0,4.718795046E-2,-1.666085869E-1,-3.480302393E-1
1.437719011E0,3.985778242E-2,-1.433963925E-1,-3.516952991E-1
1.440205729E0,3.741439432E-2,-1.324011385E-1,-3.529170156E-1
1.442693334E0,3.497100621E-2,-1.336228400E-1,-3.565820754E-1
1.445181771E0,3.619270027E-2,-1.421747059E-1,-3.651339412E-1
1.447669323E0,3.619270027E-2,-1.641651988E-1,-3.700207174E-1
1.450156042E0,3.863608837E-2,-1.983726472E-1,-3.773508966E-1
1.452643698E0,3.863608837E-2,-2.435753495E-1,-3.907895386E-1
1.455132084E0,4.352286831E-2,-2.863346636E-1,-4.103366435E-1
1.457619688E0,4.352286831E-2,-3.217637837E-1,-4.311054647E-1
1.460106406E0,4.718795046E-2,-3.571929336E-1,-4.518742561E-1
1.462594063E0,5.207473040E-2,-4.025483429E-1,-4.701996744E-1
1.465082448E0,5.451811850E-2,-4.465293586E-1,-4.885250926E-1
1.467570052E0,5.329642445E-2,-4.905103445E-1,-5.068505406E-1
1.470056771E0,5.207473040E-2,-5.259394646E-1,-5.251759291E-1
1.472544427E0,5.207473040E-2,-5.577035546E-1,-5.410579443E-1
1.475032813E0,5.451811850E-2,-5.882459283E-1,-5.581616759E-1
1.477520417E0,5.451811850E-2,-6.090146899E-1,-5.777087808E-1
1.480007136E0,5.329642445E-2,-6.200099587E-1,-5.948125124E-1
1.482494740E0,5.085303262E-2,-6.236750484E-1,-6.155813336E-1
1.484983177E0,4.474456236E-2,-6.273401380E-1,-6.314633489E-1
1.487470729E0,3.497100621E-2,-6.297835112E-1,-6.449019909E-1
1.489957500E0,2.641914412E-2,-6.310052276E-1,-6.534538269E-1
1.492445104E0,1.420219894E-2,-6.407787800E-1,-6.546755433E-1
1.494933490E0,6.872031838E-3,-6.493306160E-1,-6.558972597E-1
1.497421094E0,-4.581354442E-4,-6.688777208E-1,-6.583406329E-1
1.499907813E0,7.635590737E-4,-7.006418109E-1,-6.705575585E-1
1.502395469E0,-6.566607859E-3,-7.348492742E-1,-6.852179170E-1
1.504883854E0,-1.878355257E-2,-7.715001106E-1,-6.998782754E-1
1.507371459E0,-4.443913698E-2,-8.105943203E-1,-7.059867382E-1
1.509858177E0,-7.009471953E-2,-8.533536196E-1,-7.120952010E-1
1.512345834E0,-9.819369763E-2,-8.985562921E-1,-7.157602906E-1
1.514834219E0,-1.275143623E-1,-9.388722181E-1,-7.182036638E-1
1.517321823E0,-1.543916464E-1,-9.779664874E-1,-7.169819474E-1
1.519808542E0,-1.861557066E-1,-1.014617324E0,-7.145385742E-1
1.522296198E0,-2.142546773E-1,-1.051268101E0,-7.108734846E-1
1.524784584E0,-2.423536479E-1,-1.084253907E0,-7.059867382E-1
1.527272136E0,-2.790044844E-1,-1.117239594E0,-6.998782754E-1
1.529758906E0,-3.168770075E-1,-1.149003744E0,-6.974348426E-1
1.532246511E0,-3.559712470E-1,-1.183211088E0,-6.974348426E-1
1.534734896E0,-3.950654566E-1,-1.218640327E0,-6.913263798E-1
1.537222500E0,-4.280512035E-1,-1.241852522E0,-6.803311110E-1
1.539709219E0,-4.598152637E-1,-1.256512761E0,-6.681141853E-1
1.542196875E0,-4.915793240E-1,-1.265064716E0,-6.595623493E-1
1.544685261E0,-5.196782947E-1,-1.268729806E0,-6.534538269E-1
1.547172865E0,-5.489989519E-1,-1.262621284E0,-6.571189165E-1
1.549659584E0,-5.685460567E-1,-1.245517612E0,-6.656708121E-1
1.552147240E0,-5.905365944E-1,-1.217418551E0,-6.839962006E-1
1.554635625E0,-6.051968932E-1,-1.188097954E0,-7.157602906E-1
1.557123229E0,-6.149705052E-1,-1.158777237E0,-7.548545003E-1
1.559609948E0,-6.320741773E-1,-1.155112147E0,-8.122741580E-1
1.562097604E0,-6.357392669E-1,-1.145338655E0,-8.855758309E-1
1.564585990E0,-6.271874309E-1,-1.129456639E0,-9.515473247E-1
1.567073542E0,-6.174138784E-1,-1.113574505E0,-1.004080176E0
1.569560313E0,-5.954233408E-1,-1.101357579E0,-1.043174386E0
1.572047917E0,-5.722111464E-1,-1.087918997E0,-1.071426034E0
1.574536354E0,-5.477772951E-1,-1.067150116E0,-1.087308168E0
1.577023906E0,-5.257867575E-1,-1.043937922E0,-1.097081661E0
1.579510625E0,-5.013529062E-1,-1.015838981E0,-1.094638348E0
1.581998281E0,-4.793623984E-1,-9.779664874E-1,-1.077534556E0
1.584486667E0,-4.561502039E-1,-9.242119193E-1,-1.054169655E0
1.586974271E0,-4.353813827E-1,-8.606837988E-1,-1.023627281E0
1.589460990E0,-4.158342779E-1,-7.800519466E-1,-9.869764447E-1
1.591948646E0,-3.999522328E-1,-6.859814525E-1,-9.466605186E-1
1.594437031E0,-3.865135908E-1,-5.845808387E-1,-9.051229358E-1
1.596924636E0,-3.742966652E-1,-4.734066129E-1,-8.648070097E-1
1.599411354E0,-3.633013964E-1,-3.755183518E-1,-8.244910836E-1
1.601899011E0,-3.474193811E-1,-2.997733057E-1,-7.829535007E-1
1.604387396E0,-3.376458287E-1,-2.240282297E-1,-7.463026643E-1
1.606874948E0,-3.376458287E-1,-1.495048702E-1,-7.182036638E-1
1.609361719E0,-3.510844707E-1,-7.253811508E-2,-6.974348426E-1
1.611849323E0,-3.755183518E-1,-4.123218823E-3,-6.791094542E-1
1.614337761E0,-4.011739492E-1,5.451811850E-2,-6.730009913E-1
1.616825313E0,-4.366030693E-1,1.033858955E-1,-6.766660213E-1
1.619312031E0,-4.683671296E-1,1.412584335E-1,-6.901046634E-1
1.621799688E0,-5.001311898E-1,1.730224788E-1,-7.120952010E-1
1.624288073E0,-5.318952799E-1,2.047865391E-1,-7.463026643E-1
1.626775677E0,-5.514423847E-1,2.341072112E-1,-7.841751575E-1
1.629262396E0,-5.685460567E-1,2.426590770E-1,-8.354863524E-1
1.631750052E0,-5.709894896E-1,2.487675399E-1,-8.880192041E-1
1.634238438E0,-5.648810267E-1,2.524326444E-1,-9.344435930E-1
1.636726042E0,-5.502206683E-1,2.487675399E-1,-9.784246087E-1
1.639212761E0,-5.343386531E-1,2.438807636E-1,-1.018740535E0
1.641700417E0,-5.135698318E-1,2.389939874E-1,-1.055391312E0
1.644188802E0,-4.891359508E-1,2.267770469E-1,-1.090973258E0
1.646676354E0,-4.659237564E-1,2.157817930E-1,-1.125180602E0
1.649163125E0,-4.402681589E-1,1.998997629E-1,-1.156944752E0
1.651650729E0,-4.085040987E-1,1.889045089E-1,-1.186265349E0
1.654139167E0,-3.718532622E-1,1.815743446E-1,-1.211920977E0
1.656626719E0,-3.352024257E-1,1.791309565E-1,-1.235133171E0
1.659113438E0,-2.985515893E-1,1.766875684E-1,-1.257123709E0
1.661601094E0,-2.557922900E-1,1.791309565E-1,-1.277892470E0
1.664089479E0,-2.142546773E-1,1.766875684E-1,-1.301104665E0
1.666577084E0,-1.763821393E-1,1.718007922E-1,-1.321873426E0
1.669063802E0,-1.348445266E-1,1.595838517E-1,-1.341420531E0
1.671551459E0,-9.575030953E-2,1.498102844E-1,-1.358524323E0
1.674039844E0,-5.299099907E-2,1.388150454E-1,-1.375627995E0
1.676527448E0,-1.145338640E-2,1.314848661E-1,-1.390288353E0
1.679014167E0,2.764083818E-2,1.143811494E-1,-1.403727055E0
1.681501823E0,6.062658876E-2,9.239064902E-2,-1.417165637E0
1.683990209E0,8.383878320E-2,6.429167092E-2,-1.429382563E0
1.686477761E0,1.070509851E-1,4.474456236E-2,-1.444042921E0
1.688964531E0,1.265980899E-1,3.741439432E-2,-1.455038190E0
1.691452136E0,1.375933439E-1,3.130592033E-2,-1.464811683E0
1.693940573E0,1.388150454E-1,2.397575416E-2,-1.478250384E0
1.696428125E0,1.314848661E-1,1.664558798E-2,-1.494132400E0
1.698914844E0,1.107160673E-1,1.420219894E-2,-1.518566251E0
1.701402500E0,8.750387281E-2,1.786728203E-2,-1.545443535E0
1.703890886E0,5.451811850E-2,3.497100621E-2,-1.571099162E0
1.706378490E0,1.908897609E-2,6.306997687E-2,-1.596754789E0
1.708865209E0,-1.634016447E-2,9.972081333E-2,-1.618745208E0
1.711352865E0,-5.054761097E-2,1.449235082E-1,-1.634627223E0
1.713841250E0,-8.597674966E-2,1.986780763E-1,-1.646844268E0
1.716328854E0,-1.201841980E-1,2.573194206E-1,-1.656617761E0
1.718815573E0,-1.495048702E-1,3.306210935E-1,-1.660282850E0
1.721303229E0,-1.751604527E-1,4.124746025E-1,-1.656617761E0
1.723791615E0,-1.934858710E-1,5.041016936E-1,-1.648065925E0
1.726279219E0,-2.069245130E-1,5.957288146E-1,-1.634627223E0
1.728765938E0,-2.203631550E-1,6.873558760E-1,-1.612636805E0
1.731253542E0,-2.252499312E-1,7.802046537E-1,-1.584537745E0
1.733741979E0,-2.240282297E-1,8.706100583E-1,-1.551552057E0
1.736229531E0,-2.130329758E-1,9.622371197E-1,-1.512457848E0
1.738716250E0,-1.947075576E-1,1.052642584E0,-1.467255116E0
1.741203906E0,-1.714953631E-1,1.141826272E0,-1.418387294E0
1.743692292E0,-1.458397806E-1,1.222458124E0,-1.368297815E0
1.746179896E0,-1.189625040E-1,1.296981454E0,-1.318208337E0
1.748666615E0,-8.964183182E-2,1.361731291E0,-1.269340634E0
1.751154271E0,-5.543438718E-2,1.416707516E0,-1.219251156E0
1.753642656E0,-1.756185852E-2,1.461910248E0,-1.177713513E0
1.756130261E0,1.786728203E-2,1.499782681E0,-1.139840961E0
1.758616979E0,5.573981255E-2,1.530325055E0,-1.094638348E0
1.761104636E0,9.483403713E-2,1.563310862E0,-1.033400893E0
1.763593021E0,1.302631795E-1,1.568197608E0,-9.808679819E-1
1.766080573E0,1.620272398E-1,1.548650503E0,-9.405520558E-1
1.768567344E0,1.852394342E-1,1.498561025E0,-9.161182046E-1
1.771054948E0,2.072299272E-1,1.425259352E0,-9.051229358E-1
1.773543386E0,2.341072112E-1,1.328745484E0,-9.075663090E-1
1.776030938E0,2.524326444E-1,1.222458124E0,-9.197832346E-1
1.778517656E0,2.683146596E-1,1.099066973E0,-9.429954290E-1
1.781005313E0,2.829749882E-1,9.707890153E-1,-9.686510563E-1
1.783493698E0,2.890834510E-1,8.315158486E-1,-9.930849075E-1
1.785981302E0,2.976353168E-1,6.873558760E-1,-1.017518878E0
1.788468021E0,3.049654961E-1,5.419742465E-1,-1.043174386E0
1.790955677E0,3.184041381E-1,3.965925872E-1,-1.059056401E0
1.793444063E0,3.330644667E-1,2.573194206E-1,-1.075091124E0
1.795931667E0,3.465031087E-1,1.278197914E-1,-1.084864736E0
1.798418386E0,3.587200642E-1,1.053711493E-2,-1.090973258E0
1.800906042E0,3.746020794E-1,-9.330692142E-2,-1.093416572E0
1.803394427E0,3.892624080E-1,-1.849340051E-1,-1.094638348E0
1.805881979E0,4.039227366E-1,-2.582356930E-1,-1.093416572E0
1.808368750E0,4.210264683E-1,-3.119902313E-1,-1.093416572E0
1.810856354E0,4.417952895E-1,-3.413109183E-1,-1.092194915E0
1.813344792E0,4.625640810E-1,-3.413109183E-1,-1.088529825E0
1.815832344E0,4.760027230E-1,-3.144336343E-1,-1.083643079E0
1.818319063E0,4.808894992E-1,-2.472404242E-1,-1.072647810E0
1.820806719E0,4.894413650E-1,-1.495048702E-1,-1.054169655E0
1.823295104E0,5.041016936E-1,-2.733541466E-2,-1.028514028E0
1.825782709E0,5.187620521E-1,1.107160673E-1,-1.002858520E0
1.828269427E0,5.358657837E-1,2.634278834E-1,-9.845330715E-1
1.830757084E0,5.468609929E-1,4.332434237E-1,-9.674293399E-1
1.833245469E0,5.493044257E-1,6.018372774E-1,-9.552124143E-1
1.835733073E0,5.517477989E-1,7.728744745E-1,-9.527690411E-1
1.838219792E0,5.541911721E-1,9.378032684E-1,-9.527690411E-1
1.840707448E0,5.541911721E-1,1.089293361E0,-9.588775039E-1
1.843195834E0,5.529694557E-1,1.229788303E0,-9.710944295E-1
1.845683386E0,5.456393361E-1,1.359287858E0,-9.906415343E-1
1.848170104E0,5.419742465E-1,1.476570487E0,-1.019962192E0
1.850657761E0,5.334223509E-1,1.586523056E0,-1.059056401E0
1.853146146E0,5.273138881E-1,1.686702013E0,-1.105633497E0
1.855633750E0,5.236487985E-1,1.768555522E0,-1.155722976E0
1.858120469E0,5.224271417E-1,1.838192105E0,-1.208255887E0
1.860608125E0,5.199837089E-1,1.885838151E0,-1.263232112E0
1.863096511E0,5.150969625E-1,1.915158868E0,-1.312099934E0
1.865584115E0,5.102101564E-1,1.921267390E0,-1.354859233E0
1.868070834E0,5.065450668E-1,1.895611763E0,-1.391510010E0
1.870558490E0,5.077667832E-1,1.832083583E0,-1.414722204E0
1.873046875E0,5.114318728E-1,1.736791492E0,-1.422052383E0
1.875534479E0,5.102101564E-1,1.602405071E0,-1.413500547E0
1.878021198E0,4.992149174E-1,1.442363143E0,-1.392731786E0
1.880508802E0,4.796678126E-1,1.261552334E0,-1.363411069E0
1.882997240E0,4.466820657E-1,1.073411345E0,-1.331647038E0
1.885484792E0,4.051444530E-1,8.938222528E-1,-1.297439575E0
1.887971563E0,3.623851240E-1,7.350019813E-1,-1.268118858E0
1.890459167E0,3.184041381E-1,5.969504714E-1,-1.244906664E0
1.892947552E0,2.890834510E-1,4.772244096E-1,-1.221694469E0
1.895435156E0,2.707580328E-1,3.770454824E-1,-1.193595529E0
1.897921875E0,2.609844804E-1,3.000787199E-1,-1.169161677E0
1.900409531E0,2.536543310E-1,2.438807636E-1,-1.143506050E0
1.902897917E0,2.463241518E-1,2.035648525E-1,-1.115407109E0
1.905385521E0,2.402156889E-1,1.827960461E-1,-1.079977989E0
1.907872240E0,2.341072112E-1,1.815743446E-1,-1.028514028E0
1.910359896E0,2.279987335E-1,1.998997629E-1,-9.698727131E-1
1.912848281E0,2.279987335E-1,2.389939874E-1,-9.087880254E-1
1.915335886E0,2.365505993E-1,3.061871827E-1,-8.489249945E-1
1.917822604E0,2.499892414E-1,4.039227366E-1,-7.963921428E-1
1.920310209E0,2.768665254E-1,5.053234100E-1,-7.463026643E-1
1.922798646E0,3.098522723E-1,6.006155610E-1,-6.949914694E-1
1.925286198E0,3.477247953E-1,6.995728016E-1,-6.485670805E-1
1.927772917E0,3.819322586E-1,7.875348330E-1,-6.119162440E-1
1.930260573E0,4.051444530E-1,8.706100583E-1,-5.825955868E-1
1.932748959E0,4.283566475E-1,9.378032684E-1,-5.691569448E-1
1.935236563E0,4.479037523E-1,9.878927469E-1,-5.703786016E-1
1.937723281E0,4.650074840E-1,1.026986957E0,-5.874823332E-1
1.940210938E0,4.833329022E-1,1.045312405E0,-6.168029904E-1
1.942699323E0,5.053234100E-1,1.046534061E0,-6.571189165E-1
1.945186927E0,5.370874405E-1,1.013548255E0,-7.059867382E-1
1.947673646E0,5.810684562E-1,9.500201941E-1,-7.597413063E-1
1.950161250E0,6.360446811E-1,8.571714163E-1,-8.110524416E-1
1.952649688E0,6.983511448E-1,7.325585485E-1,-8.599202037E-1
1.955137240E0,7.679877281E-1,5.810684562E-1,-9.063445926E-1
1.957623959E0,8.412894011E-1,4.002576768E-1,-9.503256083E-1
1.960111615E0,9.121476412E-1,1.913478971E-1,-9.772028923E-1
1.962600000E0,9.781191945E-1,-1.756185852E-2,-9.845330715E-1
1.965087604E0,1.028208613E0,-1.995943487E-1,-9.759812355E-1
1.967574323E0,1.051420808E0,-3.315373361E-1,-9.625425935E-1
1.970061979E0,1.047755718E0,-3.987305462E-1,-9.539906979E-1
1.972550365E0,1.023321867E0,-3.999522328E-1,-9.466605186E-1
1.975037969E0,9.768974781E-1,-3.437542915E-1,-9.442171454E-1
1.977524688E0,9.084826112E-1,-2.545706034E-1,-9.429954290E-1
1.980012344E0,8.327375054E-1,-1.372879148E-1,-9.429954290E-1
1.982500729E0,7.472189069E-1,-7.788302377E-3,-9.515473247E-1
1.984988334E0,6.617003083E-1,1.278197914E-1,-9.649859667E-1
1.987475052E0,5.761816502E-1,2.609844804E-1,-9.869764447E-1
1.989962656E0,4.931064546E-1,3.819322586E-1,-1.015075445E0
1.992451094E0,4.246915579E-1,4.857762754E-1,-1.050504565E0
1.994938646E0,3.709369898E-1,5.688515306E-1,-1.092194915E0
1.997425417E0,3.306210935E-1,6.336013079E-1,-1.139840961E0
1.999913021E0,3.013004065E-1,6.836907864E-1,-1.194817185E0
2.002401406E0,2.841966748E-1,7.313368917E-1,-1.260788798E0
2.004889011E0,2.817533016E-1,7.850914598E-1,-1.329203606E0
2.007375729E0,2.817533016E-1,8.278507590E-1,-1.404948711E0
2.009863386E0,2.890834510E-1,8.730534315E-1,-1.483137131E0
2.012351771E0,3.098522723E-1,9.243646264E-1,-1.552773714E0
2.014839375E0,3.367295563E-1,9.671239257E-1,-1.615080118E0
2.017326094E0,3.782671690E-1,1.009883285E0,-1.657839417E0
2.019813698E0,4.344651103E-1,1.048977494E0,-1.678608298E0
2.022302136E0,4.906630516E-1,1.074633002E0,-1.683495045E0
2.024789688E0,5.505260825E-1,1.102732062E0,-1.673721433E0
2.027276459E0,6.103891134E-1,1.127165914E0,-1.656617761E0
2.029764063E0,6.702521443E-1,1.161373377E0,-1.643179178E0
2.032252448E0,7.374453545E-1,1.200467587E0,-1.632183909E0
2.034740052E0,8.058602214E-1,1.235896707E0,-1.629740477E0
2.037226771E0,8.791618943E-1,1.270104170E0,-1.627297044E0
2.039714427E0,9.573503733E-1,1.289651275E0,-1.632183909E0
2.042202813E0,1.035538793E0,1.268882513E0,-1.641957402E0
2.044690417E0,1.113727212E0,1.229788303E0,-1.646844268E0
2.047177136E0,1.187028885E0,1.189472318E0,-1.645622492E0
2.049664792E0,1.248113632E0,1.129609346E0,-1.627297044E0
2.052153177E0,1.301868200E0,1.069746256E0,-1.608971715E0
2.054640781E0,1.347070932E0,1.002553105E0,-1.596754789E0
2.057127500E0,1.381278396E0,9.341381788E-1,-1.588202834E0
2.059615104E0,1.402047157E0,8.718317747E-1,-1.575985909E0
2.062103542E0,1.420372605E0,8.046385646E-1,-1.557660460E0
2.064591094E0,1.433811188E0,7.325585485E-1,-1.541778445E0
2.067077813E0,1.435032964E0,6.629219651E-1,-1.528339863E0
2.069565469E0,1.435032964E0,5.981721878E-1,-1.522231340E0
2.072053854E0,1.425259352E0,5.297572613E-1,-1.521009684E0
2.074541459E0,1.403268814E0,4.637857676E-1,-1.527118206E0
2.077028177E0,1.371504784E0,3.892624080E-1,-1.539335132E0
2.079515834E0,1.321415305E0,3.061871827E-1,-1.555217147E0
2.082004219E0,1.263995647E0,2.133384049E-1,-1.572320819E0
2.084491823E0,1.205354333E0,1.363716573E-1,-1.590646267E0
2.086978542E0,1.144269586E0,5.329642445E-2,-1.613858461E0
2.089466198E0,1.081963181E0,-2.489202656E-2,-1.640735745E0
2.091954584E0,1.028208613E0,-8.231166750E-2,-1.676164865E0
2.094442136E0,9.756757617E-1,-1.214058921E-1,-1.714037418E0
2.096928906E0,9.280297160E-1,-1.348445266E-1,-1.758018374E0
2.099416511E0,8.828269839E-1,-1.275143623E-1,-1.804442763E0
2.101904896E0,8.412894011E-1,-9.697200358E-2,-1.849645495E0
2.104392500E0,8.046385646E-1,-5.054761097E-2,-1.891183138E0
2.106879219E0,7.789829373E-1,4.428642802E-3,-1.924168825E0
2.109366875E0,7.594358325E-1,4.718795046E-2,-1.947381020E0
2.111855261E0,7.545490861E-1,7.895200700E-2,-1.954711199E0
2.114342865E0,7.582141757E-1,9.972081333E-2,-1.948602796E0
2.116829584E0,7.679877281E-1,1.107160673E-1,-1.936385870E0
2.119317240E0,7.802046537E-1,1.180462316E-1,-1.921725512E0
2.121805625E0,7.924215794E-1,1.229330078E-1,-1.909508586E0
2.124293229E0,7.997517586E-1,1.265980899E-1,-1.905843496E0
2.126779948E0,8.058602214E-1,1.327065676E-1,-1.907065153E0
2.129267552E0,8.107470274E-1,1.498102844E-1,-1.913173556E0
2.131755990E0,8.168554902E-1,1.766875684E-1,-1.921725512E0
2.134243542E0,8.266290426E-1,2.121167034E-1,-1.926612258E0
2.136730261E0,8.425110579E-1,2.487675399E-1,-1.931499004E0
2.139217917E0,8.583931327E-1,2.866400778E-1,-1.931499004E0
2.141706302E0,8.779402375E-1,3.232909143E-1,-1.931499004E0
2.144193906E0,8.987090588E-1,3.465031087E-1,-1.932720780E0
2.146680625E0,9.194778204E-1,3.623851240E-1,-1.931499004E0
2.149168281E0,9.390249252E-1,3.660502136E-1,-1.927833915E0
2.151656667E0,9.597937465E-1,3.660502136E-1,-1.921725512E0
2.154144271E0,9.781191945E-1,3.672719002E-1,-1.911951900E0
2.156630990E0,9.927794933E-1,3.794888556E-1,-1.893626451E0
2.159118594E0,1.006218195E0,4.002576768E-1,-1.874079347E0
2.161607031E0,1.020878434E0,4.198047817E-1,-1.854532242E0
2.164094584E0,1.031873703E0,4.344651103E-1,-1.837428570E0
2.166581354E0,1.044090629E0,4.417952895E-1,-1.822768211E0
2.169068959E0,1.056307673E0,4.393518865E-1,-1.809329629E0
2.171557344E0,1.061194420E0,4.393518865E-1,-1.793447495E0
2.174044948E0,1.063637733E0,4.430169761E-1,-1.782452345E0
2.176531667E0,1.070967913E0,4.283566475E-1,-1.758018374E0
2.179019323E0,1.081963181E0,4.124746025E-1,-1.731141090E0
2.181507709E0,1.089293361E0,4.088095427E-1,-1.705485582E0
2.183995313E0,1.092958450E0,4.198047817E-1,-1.684716702E0
2.186482031E0,1.096623540E0,4.320217371E-1,-1.663947940E0
2.188969688E0,1.092958450E0,4.393518865E-1,-1.644400835E0
2.191458073E0,1.084406614E0,4.308000207E-1,-1.629740477E0
2.193945625E0,1.069746256E0,4.051444530E-1,-1.615080118E0
2.196432396E0,1.046534061E0,3.684936166E-1,-1.602863193E0
2.198920000E0,1.019656777E0,3.159607351E-1,-1.591867924E0
2.201408438E0,9.927794933E-1,2.536543310E-1,-1.582094431E0
2.203895990E0,9.622371197E-1,1.901262105E-1,-1.573542595E0
2.206382709E0,9.329164624E-1,1.241547018E-1,-1.564990640E0
2.208870365E0,9.084826112E-1,5.940489471E-2,-1.553995371E0
2.211358750E0,8.889354467E-1,-2.901524538E-3,-1.544221878E0
2.213846354E0,8.693883419E-1,-5.909947306E-2,-1.530783176E0
2.216333073E0,8.547280431E-1,-1.116323397E-1,-1.514901161E0
2.218820729E0,8.437327743E-1,-1.617218107E-1,-1.491688967E0
2.221309115E0,8.388460279E-1,-2.130329758E-1,-1.464811683E0
2.223796719E0,8.400676847E-1,-2.582356930E-1,-1.428160906E0
2.226283438E0,8.461761475E-1,-2.973299026E-1,-1.389066696E0
2.228771042E0,8.559496999E-1,-3.303156495E-1,-1.346307397E0
2.231259479E0,8.803836107E-1,-3.535278440E-1,-1.302326322E0
2.233747031E0,9.072608948E-1,-3.706315756E-1,-1.248571754E0
2.236233750E0,9.426900148E-1,-3.852919042E-1,-1.183822036E0
2.238721406E0,9.830059409E-1,-3.804051280E-1,-1.117850542E0
2.241209792E0,1.029430389E0,-3.535278440E-1,-1.056613088E0
2.243697396E0,1.079519868E0,-3.022166789E-1,-1.000415087E0
2.246184115E0,1.139382839E0,-2.460187376E-1,-9.405520558E-1
2.248671771E0,1.210241079E0,-1.714953631E-1,-8.819107413E-1
2.251160156E0,1.285986185E0,-7.864658535E-2,-8.281561732E-1
2.253647761E0,1.370283127E0,3.130592033E-2,-7.792884111E-1
2.256134479E0,1.476723194E0,1.449235082E-1,-7.365291119E-1
2.258622084E0,1.628213406E0,2.670929730E-1,-7.169819474E-1
2.261110521E0,1.796807170E0,3.917058110E-1,-7.145385742E-1
2.263598073E0,1.958070874E0,5.236487985E-1,-7.145385742E-1
2.266084844E0,2.107117653E0,6.384881139E-1,-7.120952010E-1
2.268572448E0,2.250055790E0,7.166765332E-1,-6.986565590E-1
2.271060886E0,2.385663986E0,7.643226385E-1,-6.815528274E-1
2.273548438E0,2.511498451E0,7.863131166E-1,-6.620057225E-1
2.276035156E0,2.623894453E0,7.594358325E-1,-6.449019909E-1
2.278522813E0,2.730181932E0,6.788040400E-1,-6.449019909E-1
2.281011198E0,2.834025860E0,5.566345453E-1,-6.534538269E-1
2.283498802E0,2.942756653E0,4.027010500E-1,-6.778877378E-1
2.285985521E0,3.056374311E0,2.365505993E-1,-7.059867382E-1
2.288473177E0,3.173656940E0,6.673506647E-2,-7.438592315E-1
2.290961563E0,3.300713062E0,-1.043021679E-1,-7.915053368E-1
2.293449115E0,3.431434393E0,-2.692309320E-1,-8.477032781E-1
2.295935886E0,3.569485903E0,-4.245388508E-1,-9.124531150E-1
2.298423490E0,3.717310905E0,-5.699204803E-1,-9.845330715E-1
2.300911875E0,3.877352953E0,-6.969767213E-1,-1.059056401E0
2.303399479E0,4.041059971E0,-8.032641411E-1,-1.133732557E0
2.305886198E0,4.203545570E0,-8.619054556E-1,-1.203369141E0
2.308373854E0,4.351370335E0,-8.350282311E-1,-1.246128440E0
2.310862240E0,4.475983143E0,-7.311841846E-1,-1.266897202E0
2.313349844E0,4.566388607E0,-5.552601814E-1,-1.271783948E0
2.315836563E0,4.614034653E0,-3.290939629E-1,-1.269340634E0
2.318324219E0,4.636025429E0,-1.104106456E-1,-1.269340634E0
2.320812604E0,4.627473354E0,1.204896197E-1,-1.259567022E0
2.323300156E0,4.582270622E0,3.746020794E-1,-1.242463350E0
2.325786927E0,4.497973919E0,6.299362183E-1,-1.229024649E0
2.328274531E0,4.369695663E0,8.571714163E-1,-1.229024649E0
2.330762969E0,4.205988884E0,1.064859509E0,-1.258345366E0
2.333250521E0,4.021512985E0,1.287207842E0,-1.325538516E0
2.335737240E0,3.828485250E0,1.529103398E0,-1.420830727E0
2.338224896E0,3.625684023E0,1.785659194E0,-1.545443535E0
2.340713281E0,3.424104214E0,2.037328243E0,-1.699377060E0
2.343200886E0,3.234741688E0,2.288997412E0,-1.882631302E0
2.345687604E0,3.042935610E0,2.528449535E0,-2.091541052E0
2.348175261E0,2.863346577E0,2.737359285E0,-2.329771519E0
2.350663646E0,2.695974350E0,2.908396482E0,-2.585105658E0
2.353151250E0,2.542040825E0,3.061108351E0,-2.848991632E0
2.355637969E0,2.390550852E0,3.204046488E0,-3.103104115E0
2.358125573E0,2.243947506E0,3.328659534E0,-3.341334581E0
2.360614011E0,2.108339310E0,3.425173283E0,-3.561239481E0
2.363101563E0,1.975174665E0,3.499696732E0,-3.759154081E0
2.365588281E0,1.853005171E0,3.565668106E0,-3.938743114E0
2.368075938E0,1.736944199E0,3.631639719E0,-4.093898296E0
2.370564323E0,1.625769973E0,3.691502810E0,-4.228284836E0
2.373051927E0,1.519482613E0,3.741592169E0,-4.343123913E0
2.375538646E0,1.415485859E0,3.785573244E0,-4.439637661E0
2.378026302E0,1.310420036E0,3.824667454E0,-4.522713184E0
2.380514688E0,1.194359064E0,3.851544619E0,-4.589906216E0
2.383002292E0,1.070967913E0,3.867426634E0,-4.641217709E0
2.385489011E0,9.390249252E-1,3.877200365E0,-4.679090023E0
2.387976615E0,7.960866690E-1,3.888195515E0,-4.707189083E0
2.390465052E0,6.445965767E-1,3.904077530E0,-4.724292755E0
2.392952604E0,4.918847680E-1,3.934619904E0,-4.731622696E0
2.395439375E0,3.416163325E-1,3.978600979E0,-4.729179382E0
2.397926979E0,1.962346882E-1,4.036020756E0,-4.710854053E0
2.400415365E0,5.940489471E-2,4.110543728E0,-4.681533337E0
2.402902969E0,-6.398624927E-2,4.198505878E0,-4.643661022E0
2.405389688E0,-1.751604527E-1,4.288911343E0,-4.599679947E0
2.407877344E0,-2.741177082E-1,4.375651836E0,-4.553255558E0
2.410365729E0,-3.633013964E-1,4.431849480E0,-4.512939453E0
2.412853334E0,-4.402681589E-1,4.475830555E0,-4.476288795E0
2.415340052E0,-5.025745630E-1,4.546689034E0,-4.438416004E0
2.417827709E0,-5.489989519E-1,4.628542423E0,-4.401765347E0
2.420316094E0,-5.819846988E-1,4.710395813E0,-4.365114689E0
2.422803646E0,-6.051968932E-1,4.794692993E0,-4.330906868E0
2.425290365E0,-6.210789680E-1,4.866772652E0,-4.305251598E0
2.427778021E0,-6.357392669E-1,4.920527458E0,-4.283260822E0
2.430266406E0,-6.516213417E-1,4.951222420E0,-4.271044254E0
2.432754011E0,-6.687250137E-1,4.958552837E0,-4.267378807E0
2.435240729E0,-6.858287454E-1,4.948779106E0,-4.268600464E0
2.437728386E0,-7.114843726E-1,4.920527458E0,-4.275930882E0
2.440216771E0,-7.420266867E-1,4.880211353E0,-4.285704136E0
2.442704375E0,-7.762341499E-1,4.831343651E0,-4.296699524E0
2.445191094E0,-8.202151656E-1,4.771480560E0,-4.307694912E0
2.447678750E0,-8.666395545E-1,4.706730843E0,-4.317468643E0
2.450167136E0,-9.203941226E-1,4.629764080E0,-4.326020241E0
2.452654688E0,-9.802571535E-1,4.541801929E0,-4.330906868E0
2.455141459E0,-1.046228647E0,4.441623211E0,-4.330906868E0
2.457629063E0,-1.120751977E0,4.309679985E0,-4.328463554E0
2.460117448E0,-1.196497083E0,4.178958893E0,-4.317468643E0
2.462605052E0,-1.275907159E0,4.064119339E0,-4.293034554E0
2.465091771E0,-1.357760787E0,3.963940620E0,-4.255162239E0
2.467579427E0,-1.439614296E0,3.872313499E0,-4.205072403E0
2.470067813E0,-1.523911238E0,3.784351587E0,-4.141544342E0
2.472555417E0,-1.603321314E0,3.700054646E0,-4.062134266E0
2.475042136E0,-1.683953166E0,3.605983973E0,-3.969285488E0
2.477529792E0,-1.763363361E0,3.505805016E0,-3.860554695E0
2.480018177E0,-1.842773438E0,3.384857416E0,-3.735941887E0
2.482505729E0,-1.922183633E0,3.249249220E0,-3.605220556E0
2.484992500E0,-2.001593828E0,3.103867531E0,-3.463504076E0
2.487480104E0,-2.079782248E0,2.960929394E0,-3.310792208E0
2.489968542E0,-2.157970667E0,2.813104391E0,-3.144641638E0
2.492456094E0,-2.237380743E0,2.656727552E0,-2.968717575E0
2.494942813E0,-2.314347506E0,2.493020296E0,-2.785463572E0
2.497430469E0,-2.394979477E0,2.328091621E0,-2.599766016E0
2.499918854E0,-2.474389553E0,2.161941051E0,-2.409181595E0
2.502406459E0,-2.552577972E0,1.998234153E0,-2.216153860E0
2.504893177E0,-2.625879765E0,1.840635538E0,-2.020682812E0
2.507380834E0,-2.694294453E0,1.691588759E0,-1.826433301E0
2.509869219E0,-2.757822752E0,1.552315593E0,-1.633405566E0
2.512356771E0,-2.817685604E0,1.422815919E0,-1.441599488E0
2.514843542E0,-2.868996859E0,1.293316364E0,-1.255901933E0
2.517331146E0,-2.916642904E0,1.154043198E0,-1.084864736E0
2.519819531E0,-2.955737114E0,1.029430389E0,-9.197832346E-1
2.522307136E0,-2.988723040E0,9.170344472E-1,-7.646280527E-1
2.524793854E0,-3.021708727E0,8.217422962E-1,-6.180247068E-1
2.527281511E0,-3.047364235E0,7.435538173E-1,-4.811949134E-1
2.529769896E0,-3.068133116E0,6.836907864E-1,-3.639122546E-1
2.532257500E0,-3.087680101E0,6.323796511E-1,-2.588465214E-1
2.534744219E0,-3.103562117E0,5.822901726E-1,-1.684411317E-1
2.537231875E0,-3.120666027E0,5.358657837E-1,-9.636115283E-2
2.539720261E0,-3.137769699E0,4.894413650E-1,-4.016320780E-2
2.542207813E0,-3.148764849E0,4.430169761E-1,-2.290677279E-3
2.544694584E0,-3.163425207E0,3.929274976E-1,1.725643501E-2
2.547182188E0,-3.176863909E0,3.465031087E-1,1.725643501E-2
2.549670625E0,-3.192745924E0,3.037438095E-1,1.374406274E-3
2.552158177E0,-3.206184626E0,2.695363462E-1,-2.916795574E-2
2.554644896E0,-3.217179775E0,2.463241518E-1,-6.948387623E-2
2.557132552E0,-3.223288298E0,2.279987335E-1,-1.171299592E-1
2.559620938E0,-3.228175163E0,2.218902707E-1,-1.721062213E-1
2.562108542E0,-3.226953268E0,2.243336588E-1,-2.319692522E-1
2.564595261E0,-3.213514805E0,2.402156889E-1,-2.918322682E-1
2.567082917E0,-3.197632790E0,2.475458533E-1,-3.468085229E-1
2.569571302E0,-3.178085566E0,2.255553454E-1,-4.042281806E-1
2.572058906E0,-3.156095028E0,1.791309565E-1,-4.640912116E-1
2.574545625E0,-3.129217863E0,1.339282542E-1,-5.202891231E-1
2.577033229E0,-3.095010281E0,1.082726792E-1,-5.764871240E-1
2.579521667E0,-3.046142578E0,9.483403713E-2,-6.314633489E-1
2.582009219E0,-2.991166353E0,8.017370105E-2,-6.815528274E-1
2.584495938E0,-2.932524920E0,8.261708915E-2,-7.267554998E-1
2.586983594E0,-2.850671530E0,1.180462316E-1,-7.670714259E-1
2.589471979E0,-2.757822752E0,1.546970755E-1,-8.086090684E-1
2.591959584E0,-2.660087109E0,1.901262105E-1,-8.440381885E-1
2.594446302E0,-2.574568510E0,2.096733153E-1,-8.709154725E-1
2.596933959E0,-2.507375240E0,2.108950168E-1,-8.831323981E-1
2.599422344E0,-2.451177359E0,1.950129867E-1,-8.770239353E-1
2.601909948E0,-2.414526463E0,1.534753740E-1,-8.477032781E-1
2.604396667E0,-2.392535925E0,1.058292910E-1,-7.939487100E-1
2.606884271E0,-2.379097462E0,5.696150661E-2,-7.108734846E-1
2.609372656E0,-2.370545387E0,1.298050396E-2,-6.058077812E-1
2.611860261E0,-2.364437103E0,-2.977880463E-2,-4.836383164E-1
2.614346979E0,-2.360771894E0,-7.253811508E-2,-3.516952991E-1
2.616834636E0,-2.358328581E0,-1.104106456E-1,-2.124221325E-1
2.619323021E0,-2.355885267E0,-1.470614821E-1,-7.559234649E-2
2.621810625E0,-2.350998402E0,-1.873773932E-1,5.268557742E-2
2.624297344E0,-2.341224909E0,-2.289150059E-1,1.675248593E-1
2.626785000E0,-2.322899342E0,-2.765611112E-1,2.664821148E-1
2.629273386E0,-2.292356968E0,-3.303156495E-1,3.458922505E-1
2.631760938E0,-2.255706310E0,-3.828485310E-1,4.033119082E-1
2.634247709E0,-2.210503578E0,-4.379774928E-1,4.399627447E-1
2.636735313E0,-2.149418831E0,-4.868452549E-1,4.460712075E-1
2.639223698E0,-2.074895382E0,-5.332696438E-1,4.240806997E-1
2.641711302E0,-1.997928619E0,-5.809157491E-1,3.739912212E-1
2.644198021E0,-1.912410021E0,-6.358919740E-1,2.970244884E-1
2.646685677E0,-1.828113079E0,-7.006418109E-1,2.005106062E-1
2.649174063E0,-1.748703003E0,-7.886037827E-1,9.300149232E-2
2.651661667E0,-1.677844763E0,-8.765658140E-1,-2.672456764E-2
2.654148386E0,-1.603321314E0,-9.400939345E-1,-1.586675793E-1
2.656636042E0,-1.530019641E0,-9.791881442E-1,-2.991624475E-1
2.659124427E0,-1.454274654E0,-1.009730577E0,-4.433223903E-1
2.661611979E0,-1.382194638E0,-1.048824787E0,-5.948125124E-1
2.664098750E0,-1.312558055E0,-1.089140654E0,-7.450809479E-1
2.666586354E0,-1.239256382E0,-1.130678296E0,-8.892409205E-1
2.669074792E0,-1.158624530E0,-1.169772506E0,-1.023627281E0
2.671562344E0,-1.076771021E0,-1.206423283E0,-1.145949483E0
2.674049063E0,-9.863656163E-1,-1.234522343E0,-1.259567022E0
2.676536719E0,-8.886300325E-1,-1.229635477E0,-1.367076159E0
2.679025104E0,-7.811209559E-1,-1.203979969E0,-1.470920205E0
2.681512709E0,-6.638382673E-1,-1.172215939E0,-1.571099162E0
2.683999427E0,-5.367820263E-1,-1.141673565E0,-1.666391373E0
2.686487084E0,-4.036173224E-1,-1.111131191E0,-1.758018374E0
2.688975469E0,-2.692309320E-1,-1.080588818E0,-1.847202063E0
2.691463021E0,-1.433963925E-1,-1.051268101E0,-1.929055691E0
2.693949740E0,-2.000524849E-2,-1.028055906E0,-2.001135588E0
2.696437396E0,9.849911928E-2,-9.950701594E-1,-2.067107201E0
2.698925781E0,2.194468826E-1,-9.633061290E-1,-2.125748396E0
2.701413386E0,3.403946459E-1,-9.254335761E-1,-2.173394442E0
2.703900104E0,4.662291706E-1,-8.741224408E-1,-2.214932203E0
2.706387761E0,5.920637250E-1,-8.032641411E-1,-2.246696234E0
2.708876146E0,7.227849960E-1,-7.140804529E-1,-2.269908428E0
2.711363750E0,8.547280431E-1,-6.126797795E-1,-2.284568787E0
2.713850469E0,9.805625677E-1,-4.966188073E-1,-2.283347130E0
2.716338073E0,1.100288630E0,-3.804051280E-1,-2.267465115E0
2.718826511E0,1.216349602E0,-2.606790662E-1,-2.241809368E0
2.721314063E0,1.326302052E0,-1.311794519E-1,-2.203936815E0
2.723800781E0,1.431367874E0,-4.581354442E-4,-2.152625799E0
2.726288438E0,1.530477762E0,1.168245375E-1,-2.092762709E0
2.728776823E0,1.619661450E0,2.133384049E-1,-2.024347782E0
2.731264427E0,1.703958392E0,2.939702570E-1,-1.948602796E0
2.733751146E0,1.773594975E0,3.526115716E-1,-1.867970943E0
2.736238802E0,1.839566469E0,3.929274976E-1,-1.783674002E0
2.738727188E0,1.887212634E0,4.112529159E-1,-1.701820493E0
2.741214792E0,1.918976665E0,4.051444530E-1,-1.623632073E0
2.743701511E0,1.927528501E0,3.746020794E-1,-1.545443535E0
2.746189115E0,1.910424829E0,3.196258247E-1,-1.466033459E0
2.748677552E0,1.872552276E0,2.573194206E-1,-1.393953443E0
2.751165104E0,1.822462797E0,1.986780763E-1,-1.325538516E0
2.753651823E0,1.769929886E0,1.534753740E-1,-1.268118858E0
2.756139479E0,1.714953661E0,1.180462316E-1,-1.218029380E0
2.758627865E0,1.655090690E0,8.994726092E-2,-1.175270081E0
2.761115469E0,1.589119196E0,5.940489471E-2,-1.141062737E0
2.763602188E0,1.513374090E0,2.764083818E-2,-1.117850542E0
2.766089844E0,1.430146098E0,7.635590737E-4,-1.109298587E0
2.768578229E0,1.345849276E0,-1.389677543E-2,-1.111742020E0
2.771065834E0,1.257887244E0,-1.389677543E-2,-1.121515512E0
2.773552552E0,1.171146870E0,-6.566607859E-3,-1.137397647E0
2.776040156E0,1.086849928E0,2.031067200E-2,-1.152057886E0
2.778528594E0,1.004996419E0,6.795676053E-2,-1.174048424E0
2.781016146E0,9.341381788E-1,1.278197914E-1,-1.198482275E0
2.783502865E0,8.669449687E-1,2.023431510E-1,-1.224137902E0
2.785990521E0,8.034168482E-1,2.768665254E-1,-1.240019917E0
2.788478906E0,7.411104441E-1,3.416163325E-1,-1.249793530E0
2.790966511E0,6.800256968E-1,3.904841244E-1,-1.246128440E0
2.793453229E0,6.140542030E-1,4.173613787E-1,-1.237576604E0
2.795940886E0,5.493044257E-1,4.356867969E-1,-1.220472813E0
2.798429271E0,4.857762754E-1,4.466820657E-1,-1.196038961E0
2.800916823E0,4.161396921E-1,4.650074840E-1,-1.163053155E0
2.803403594E0,3.538332880E-1,4.979932308E-1,-1.126402378E0
2.805891198E0,2.915268540E-1,5.395308137E-1,-1.087308168E0
2.808379584E0,2.389939874E-1,5.981721878E-1,-1.048061132E0
2.810867188E0,1.950129867E-1,6.690304875E-1,-1.010188699E0
2.813353906E0,1.644706279E-1,7.459971905E-1,-9.857547879E-1
2.815841563E0,1.510319859E-1,8.254073858E-1,-9.662076235E-1
2.818329948E0,1.424801201E-1,9.035958052E-1,-9.527690411E-1
2.820817552E0,1.400367320E-1,9.732323885E-1,-9.405520558E-1
2.823304271E0,1.424801201E-1,1.017213345E0,-9.258917570E-1
2.825791927E0,1.449235082E-1,1.037982225E0,-9.063445926E-1
2.828280313E0,1.461452097E-1,1.030652046E0,-8.855758309E-1
2.830767865E0,1.510319859E-1,1.008661509E0,-8.660287261E-1
2.833254636E0,1.510319859E-1,9.768974781E-1,-8.525900841E-1
2.835742240E0,1.559187621E-1,9.524635673E-1,-8.428165317E-1
2.838230625E0,1.693574041E-1,9.512419105E-1,-8.415948153E-1
2.840718229E0,2.023431510E-1,9.854493141E-1,-8.562551737E-1
2.843204948E0,2.524326444E-1,1.053864241E0,-8.904625773E-1
2.845692604E0,3.110739589E-1,1.149156451E0,-9.320002198E-1
2.848180990E0,3.733803928E-1,1.259108901E0,-9.747595191E-1
2.850668594E0,4.332434237E-1,1.354401112E0,-1.011410356E0
2.853155313E0,4.857762754E-1,1.415485859E0,-1.039509296E0
2.855642917E0,5.309789777E-1,1.424037695E0,-1.059056401E0
2.858131354E0,5.676298141E-1,1.384943485E0,-1.060278177E0
2.860618906E0,6.006155610E-1,1.316528559E0,-1.043174386E0
2.863105625E0,6.238277555E-1,1.238340139E0,-1.008966923E0
2.865593281E0,6.458182931E-1,1.168703556E0,-9.600991607E-1
2.868081667E0,6.678087711E-1,1.117392302E0,-9.002361298E-1
2.870569271E0,6.873558760E-1,1.083184958E0,-8.367080092E-1
2.873055990E0,7.093463540E-1,1.064859509E0,-7.719582319E-1
2.875543646E0,7.313368917E-1,1.059972763E0,-7.084301114E-1
2.878032031E0,7.569924593E-1,1.058750987E0,-6.473453641E-1
2.880519636E0,7.911999226E-1,1.063637733E0,-5.935907960E-1
2.883006354E0,8.290724158E-1,1.070967913E0,-5.447230339E-1
2.885493959E0,8.730534315E-1,1.090515018E0,-5.007420182E-1
2.887982396E0,9.280297160E-1,1.112505555E0,-4.616478086E-1
2.890469948E0,9.891144037E-1,1.139382839E0,-4.298837483E-1
2.892956667E0,1.056307673E0,1.172368646E0,-3.981196880E-1
2.895444323E0,1.134496093E0,1.212684512E0,-3.687990308E-1
2.897932709E0,1.215127945E0,1.250557065E0,-3.455868363E-1
2.900420313E0,1.301868200E0,1.287207842E0,-3.260397315E-1
2.902907031E0,1.397160411E0,1.327523828E0,-2.954973578E-1
2.905394688E0,1.498713732E0,1.376391530E0,-2.600682080E-1
2.907883073E0,1.613553047E0,1.428924441E0,-2.173089087E-1
2.910370625E0,1.736944199E0,1.488787532E0,-1.733279079E-1
2.912857396E0,1.864000440E0,1.547428846E0,-1.244601309E-1
2.915345000E0,1.995943427E0,1.601183414E0,-7.437065244E-2
2.917833386E0,2.129108191E0,1.641499281E0,-2.916795574E-2
2.920320990E0,2.259829521E0,1.670819998E0,1.481304597E-2
2.922807709E0,2.385663986E0,1.683036923E0,4.902049154E-2
2.925295365E0,2.500503302E0,1.684258580E0,7.589777559E-2
2.927783750E0,2.608012438E0,1.680593491E0,9.300149232E-2
2.930271354E0,2.705747843E0,1.678150177E0,9.910997003E-2
2.932758073E0,2.786379814E0,1.675706744E0,9.300149232E-2
2.935245677E0,2.856016397E0,1.680593491E0,7.589777559E-2
2.937734115E0,2.917101145E0,1.698918939E0,4.779879749E-2
2.940221667E0,2.963525534E0,1.727017879E0,5.039489828E-3
2.942708438E0,3.000176430E0,1.766112089E0,-4.993676394E-2
2.945196042E0,3.027053595E0,1.822310090E0,-1.134648770E-1
2.947684427E0,3.039270639E0,1.882173061E0,-1.855448484E-1
2.950172031E0,3.039270639E0,1.945701241E0,-2.673983872E-1
2.952658750E0,3.036827087E0,2.011672735E0,-3.480302393E-1
2.955146406E0,3.022166729E0,2.076422453E0,-4.298837483E-1
2.957634792E0,2.996511221E0,2.135063887E0,-5.068505406E-1
2.960122396E0,2.961081982E0,2.179044962E0,-5.862606764E-1
2.962609115E0,2.912214279E0,2.210808992E0,-6.656708121E-1
2.965096719E0,2.857238054E0,2.231577635E0,-7.475243211E-1
2.967585156E0,2.797374964E0,2.251124859E0,-8.171609044E-1
2.970072709E0,2.732625246E0,2.259676695E0,-8.843541145E-1
2.972559427E0,2.670318842E0,2.249903202E0,-9.478822351E-1
2.975047084E0,2.609234095E0,2.221804142E0,-1.007745266E0
2.977535469E0,2.554257870E0,2.181488276E0,-1.062721491E0
2.980023073E0,2.498059750E0,2.131398916E0,-1.109298587E0
2.982509792E0,2.445527077E0,2.077644348E0,-1.150836229E0
2.984997448E0,2.394215822E0,2.025111437E0,-1.183822036E0
2.987485834E0,2.345348120E0,1.982352018E0,-1.210699320E0
2.989973438E0,2.303810358E0,1.946922898E0,-1.227802992E0
2.992460156E0,2.259829521E0,1.916380525E0,-1.232689738E0
2.994947761E0,2.224400282E0,1.899276853E0,-1.225359559E0
2.997436198E0,2.193857908E0,1.887059927E0,-1.204590797E0
2.999923750E0,2.165758848E0,1.878508091E0,-1.171604991E0
3.002410469E0,2.151098728E0,1.865069389E0,-1.130067468E0
3.004898125E0,2.140103340E0,1.846743941E0,-1.079977989E0
3.007386511E0,2.138881683E0,1.830861926E0,-1.027292371E0
3.009874115E0,2.141324997E0,1.814979911E0,-9.674293399E-1
3.012360834E0,2.153542042E0,1.802762985E0,-9.002361298E-1
3.014848490E0,2.170645714E0,1.792989373E0,-8.281561732E-1
3.017336875E0,2.190192938E0,1.783215880E0,-7.499676943E-1
3.019824427E0,2.213405132E0,1.774664044E0,-6.681141853E-1
3.022311146E0,2.241503954E0,1.768555522E0,-5.825955868E-1
3.024798802E0,2.269603014E0,1.760003686E0,-4.946335554E-1
3.027287188E0,2.296480179E0,1.750230074E0,-4.030064642E-1
3.029774792E0,2.314805746E0,1.719687700E0,-3.064926267E-1
3.032261511E0,2.319692373E0,1.659824729E0,-2.148655206E-1
3.034749167E0,2.309918880E0,1.577971220E0,-1.305686086E-1
3.037237552E0,2.289150000E0,1.472905397E0,-4.871506989E-2
3.039725156E0,2.254942656E0,1.359287858E0,2.580829710E-2
3.042211875E0,2.218291759E0,1.249335408E0,9.544488788E-2
3.044699479E0,2.182862759E0,1.150378108E0,1.504211426E-1
3.047187917E0,2.143768549E0,1.059972763E0,1.882936656E-1
3.049675469E0,2.105895996E0,9.768974781E-1,2.078407854E-1
3.052162188E0,2.063136578E0,9.280297160E-1,2.176143378E-1
3.054649844E0,2.011825562E0,9.243646264E-1,2.298312783E-1
3.057138229E0,1.954405785E0,9.231429100E-1,2.420482337E-1
3.059625834E0,1.884769201E0,9.072608948E-1,2.493783981E-1
3.062112552E0,1.796807170E0,8.706100583E-1,2.591519356E-1
3.064600209E0,1.686854720E0,8.107470274E-1,2.664821148E-1
3.067088594E0,1.553689957E0,7.313368917E-1,2.750339806E-1
3.069576146E0,1.403268814E0,6.384881139E-1,2.774773538E-1
3.072062917E0,1.239561796E0,5.309789777E-1,2.713688910E-1
3.074550521E0,1.064859509E0,4.112529159E-1,2.493783981E-1
3.077038906E0,8.877137899E-1,2.903051674E-1,2.249445021E-1
3.079526511E0,7.093463540E-1,1.693574041E-1,1.944021434E-1
3.082013229E0,5.273138881E-1,6.306997687E-2,1.614163816E-1
3.084500886E0,3.562766612E-1,-3.466558084E-2,1.211004704E-1
3.086989271E0,1.937913001E-1,-1.201841980E-1,7.834116369E-2
3.089476875E0,3.374931216E-2,-1.885990947E-1,3.924693540E-2
3.091963594E0,-1.214058921E-1,-2.386885732E-1,1.114796288E-2
3.094451198E0,-2.680092454E-1,-2.655658424E-1,-5.955760833E-3
3.096939636E0,-4.072824121E-1,-2.802261710E-1,-8.399149403E-3
3.099427188E0,-5.270084739E-1,-2.973299026E-1,-3.512371797E-3
3.101913906E0,-6.357392669E-1,-3.132119179E-1,1.114796288E-2
3.104401563E0,-7.322531343E-1,-3.315373361E-1,3.313846514E-2
3.106889948E0,-8.141067028E-1,-3.498627543E-1,6.123743951E-2
3.109377552E0,-8.837432861E-1,-3.742966652E-1,9.300149232E-2
3.111864271E0,-9.374978542E-1,-4.049917459E-1,1.247655526E-1
3.114351927E0,-9.827005267E-1,-4.379774928E-1,1.589729935E-1
3.116840313E0,-1.010799527E0,-4.697415531E-1,1.968455315E-1
3.119327917E0,-1.035233378E0,-5.027272701E-1,2.371614426E-1
3.121814636E0,-1.047450304E0,-5.271611810E-1,2.835858464E-1
3.124302240E0,-1.051115394E0,-5.528167486E-1,3.336753249E-1
3.126790625E0,-1.052337170E0,-5.894675851E-1,3.923166394E-1
3.129278229E0,-1.046228647E0,-6.297835112E-1,4.558447599E-1
3.131764948E0,-1.037676811E0,-6.725428104E-1,5.242596865E-1
3.134252604E0,-1.029124975E0,-7.189671993E-1,5.963396430E-1
3.136740990E0,-1.018129706E0,-7.727217674E-1,6.696413159E-1
3.139228594E0,-1.005912781E0,-8.374716043E-1,7.392778993E-1
3.141715313E0,-9.900307059E-1,-9.046648145E-1,8.015843034E-1
3.144202969E0,-9.704836011E-1,-9.730796814E-1,8.565605879E-1
3.146691354E0,-9.472714067E-1,-1.030499339E0,9.054283500E-1
3.149178906E0,-9.240592122E-1,-1.075702071E0,9.481876493E-1
3.151665625E0,-8.971819282E-1,-1.107466102E0,9.848384857E-1
3.154153281E0,-8.715263009E-1,-1.133121610E0,1.017824292E0
3.156641667E0,-8.397622705E-1,-1.153890491E0,1.047144890E0
3.159129271E0,-8.165500760E-1,-1.173437595E0,1.065470338E0
3.161615990E0,-7.933378816E-1,-1.192984700E0,1.075243831E0
3.164103646E0,-7.762341499E-1,-1.211310148E0,1.081352353E0
3.166592031E0,-7.640172243E-1,-1.224748731E0,1.083795786E0
3.169079636E0,-7.505785823E-1,-1.234522343E0,1.078908920E0
3.171566354E0,-7.432484031E-1,-1.243074179E0,1.064248681E0
3.174053959E0,-7.432484031E-1,-1.255291104E0,1.042258143E0
3.176542344E0,-7.444701195E-1,-1.273616552E0,1.016602516E0
3.179029948E0,-7.579087615E-1,-1.301715493E0,9.885035753E-1
3.181516667E0,-7.725690603E-1,-1.338366389E0,9.616262913E-1
3.184004323E0,-7.982246280E-1,-1.378682256E0,9.371923804E-1
3.186492709E0,-8.226585388E-1,-1.415333152E0,9.152019024E-1
3.188980313E0,-8.568660021E-1,-1.448318839E0,8.944330812E-1
3.191467031E0,-8.861866593E-1,-1.470309377E0,8.712208867E-1
3.193954688E0,-9.081771374E-1,-1.458092451E0,8.516737819E-1
3.196443073E0,-9.093988538E-1,-1.405559540E0,8.406785131E-1
3.198930625E0,-8.922951221E-1,-1.327371120E0,8.382351398E-1
3.201417396E0,-8.617527485E-1,-1.252847672E0,8.321266770E-1
3.203905000E0,-8.336538076E-1,-1.192984700E0,8.211314082E-1
3.206393386E0,-8.006680608E-1,-1.131899953E0,8.089144826E-1
3.208880990E0,-7.689039707E-1,-1.032942772E0,8.028060198E-1
3.211367709E0,-7.273663878E-1,-8.875610828E-1,7.991409302E-1
3.213855365E0,-6.833853722E-1,-7.507312894E-1,7.881456614E-1
3.216343750E0,-6.394043565E-1,-6.578825116E-1,7.637118101E-1
3.218831354E0,-5.917583108E-1,-5.980194807E-1,7.258392572E-1
3.221318073E0,-5.477772951E-1,-5.491516590E-1,6.794148684E-1
3.223805677E0,-5.135698318E-1,-5.076140761E-1,6.256603003E-1
3.226294115E0,-4.879142344E-1,-5.027272701E-1,5.572454333E-1
3.228781667E0,-4.781406820E-1,-5.234960914E-1,4.827220440E-1
3.231268386E0,-4.769189954E-1,-5.638120174E-1,4.020902216E-1
3.233756042E0,-4.818057716E-1,-5.967977643E-1,3.190149665E-1
3.236244427E0,-4.928010404E-1,-6.077930331E-1,2.322746664E-1
3.238732031E0,-5.050179958E-1,-5.992411375E-1,1.394258887E-1
3.241218750E0,-5.318952799E-1,-5.674771070E-1,4.291202128E-2
3.243706406E0,-5.673243999E-1,-5.320479870E-1,-5.971032009E-2
3.246194792E0,-5.819846988E-1,-4.477510452E-1,-1.550024897E-1
3.248682344E0,-5.441122055E-1,-2.863346636E-1,-2.234173864E-1
3.251169115E0,-4.488200247E-1,-8.353336155E-2,-2.661767006E-1
3.253656719E0,-3.266505599E-1,1.094943732E-1,-3.003841341E-1
3.256145104E0,-2.215848416E-1,2.560977042E-1,-3.309265077E-1
3.258632709E0,-1.605001241E-1,3.220692277E-1,-3.651339412E-1
3.261119427E0,-1.568350345E-1,2.854183912E-1,-3.968980014E-1
3.263607084E0,-2.044811249E-1,1.522536725E-1,-4.262186885E-1
3.266095469E0,-2.924431264E-1,-2.122694254E-2,-4.592044353E-1
3.268583073E0,-3.742966652E-1,-1.531699449E-1,-4.970769584E-1
3.271069792E0,-4.317162931E-1,-1.983726472E-1,-5.386145711E-1
3.273557396E0,-4.585935771E-1,-1.507265568E-1,-5.838172436E-1
3.276045834E0,-4.475983381E-1,-4.581354442E-4,-6.192464232E-1
3.278533386E0,-4.121691883E-1,2.231119573E-1,-6.436802745E-1
3.281020104E0,-3.669664860E-1,4.601207078E-1,-6.656708121E-1
3.283507761E0,-3.217637837E-1,6.702521443E-1,-6.815528274E-1
3.285996146E0,-2.863346636E-1,8.229639530E-1,-6.876612902E-1
3.288483750E0,-2.741177082E-1,8.913788795E-1,-6.839962006E-1
3.290970469E0,-2.936648130E-1,8.645015955E-1,-6.730009913E-1
3.293458125E0,-3.449759781E-1,7.606575489E-1,-6.485670805E-1
3.295946511E0,-4.158342779E-1,6.226060390E-1,-6.180247068E-1
3.298434063E0,-4.989095032E-1,5.041016936E-1,-5.764871240E-1
3.300920834E0,-5.709894896E-1,4.356867969E-1,-5.325061083E-1
3.303408438E0,-6.332958937E-1,4.210264683E-1,-4.921901822E-1
3.305896823E0,-6.797202826E-1,4.723376334E-1,-4.640912116E-1
3.308384427E0,-7.029324770E-1,6.006155610E-1,-4.457657933E-1
3.310871146E0,-7.127060294E-1,7.618792653E-1,-4.396573007E-1
3.313358802E0,-7.273663878E-1,9.182561636E-1,-4.433223903E-1
3.315847188E0,-7.469134927E-1,1.045312405E0,-4.567610323E-1
3.318334792E0,-7.786775231E-1,1.119835734E0,-4.763081372E-1
3.320821511E0,-8.287670016E-1,1.138161182E0,-4.995203316E-1
3.323309115E0,-8.910734653E-1,1.123500824E0,-5.276193023E-1
3.325797500E0,-9.631534219E-1,1.100288630E0,-5.508314967E-1
3.328285104E0,-1.030346632E0,1.083184958E0,-5.630484819E-1
3.330771823E0,-1.097539783E0,1.083184958E0,-5.679352283E-1
3.333259479E0,-1.151294351E0,1.106397152E0,-5.654918551E-1
3.335747865E0,-1.201383829E0,1.140604496E0,-5.459447503E-1
3.338235469E0,-1.255138397E0,1.172368646E0,-5.141806602E-1
3.340722188E0,-1.315001488E0,1.190693974E0,-4.836383164E-1
3.343209844E0,-1.389524817E0,1.183363795E0,-4.457657933E-1
3.345698229E0,-1.471378326E0,1.151599765E0,-4.078932703E-1
3.348185781E0,-1.553231835E0,1.110062122E0,-3.687990308E-1
3.350672500E0,-1.616760015E0,1.068524599E0,-3.284831047E-1
3.353160156E0,-1.654632568E0,1.048977494E0,-2.954973578E-1
3.355648542E0,-1.674179673E0,1.066081166E0,-2.698417902E-1
3.358136146E0,-1.685174823E0,1.110062122E0,-2.539597452E-1
3.360622865E0,-1.687618256E0,1.161373377E0,-2.454078794E-1
3.363110521E0,-1.693726778E0,1.204132676E0,-2.429644912E-1
3.365598906E0,-1.696170092E0,1.227344871E0,-2.466295809E-1
3.368086459E0,-1.687618256E0,1.240783453E0,-2.490729690E-1
3.370573229E0,-1.677844763E0,1.246891975E0,-2.454078794E-1
3.373060834E0,-1.669292808E0,1.232231617E0,-2.405211031E-1
3.375549271E0,-1.663184404E0,1.213906169E0,-2.356343269E-1
3.378036823E0,-1.650967479E0,1.201689243E0,-2.185306102E-1
3.380523542E0,-1.637528777E0,1.188250661E0,-1.940967143E-1
3.383011198E0,-1.626533508E0,1.171146870E0,-1.696628332E-1
3.385499584E0,-1.614316583E0,1.147934675E0,-1.464506239E-1
3.387987188E0,-1.609429836E0,1.112505555E0,-1.220167428E-1
3.390473906E0,-1.611873150E0,1.066081166E0,-9.880454093E-2
3.392961511E0,-1.613094926E0,1.004996419E0,-7.925742865E-2
3.395449948E0,-1.613094926E0,9.365815520E-1,-6.337540597E-2
3.397937500E0,-1.600878000E0,8.803836107E-1,-4.871506989E-2
3.400424219E0,-1.580109119E0,8.327375054E-1,-3.649812192E-2
3.402911875E0,-1.541014910E0,7.838697433E-1,-3.405473381E-2
3.405400261E0,-1.477486849E0,7.325585485E-1,-4.016320780E-2
3.407887865E0,-1.398076653E0,6.922426820E-1,-5.604523420E-2
3.410374584E0,-1.310114622E0,6.580352187E-1,-7.803573459E-2
3.412862240E0,-1.220930934E0,6.201626658E-1,-1.049130186E-1
3.415350625E0,-1.137855768E0,5.602996349E-1,-1.293469071E-1
3.417838229E0,-1.060889006E0,4.735593498E-1,-1.488940120E-1
3.420324948E0,-9.839222431E-1,3.721587062E-1,-1.672194302E-1
3.422812552E0,-9.118422270E-1,2.841966748E-1,-1.892099380E-1
3.425300938E0,-8.483141065E-1,2.108950168E-1,-2.368560284E-1
3.427788542E0,-7.860077024E-1,1.620272398E-1,-2.759502530E-1
3.430275261E0,-7.346965671E-1,8.017370105E-2,-3.101576865E-1
3.432762917E0,-7.017107606E-1,-2.122694254E-2,-3.431434333E-1
3.435251302E0,-6.846070886E-1,-7.253811508E-2,-3.626905680E-1
3.437738906E0,-6.797202826E-1,-1.165191159E-1,-3.773508966E-1
3.440225625E0,-6.858287454E-1,-1.482831687E-1,-3.822376728E-1
3.442713281E0,-7.053758502E-1,-1.592784226E-1,-3.797942698E-1
3.445201667E0,-7.334748507E-1,-1.592784226E-1,-3.724641204E-1
3.447689219E0,-7.652388811E-1,-1.470614821E-1,-3.602471650E-1
3.450175938E0,-8.006680608E-1,-1.226275861E-1,-3.516952991E-1
3.452663594E0,-8.422056437E-1,-8.108997345E-2,-3.407000601E-1
3.455151979E0,-8.812998533E-1,-4.199574888E-2,-3.284831047E-1
3.457639584E0,-9.252808690E-1,-1.634016447E-2,-3.223746419E-1
3.460126302E0,-9.631534219E-1,-4.581354442E-4,-3.260397315E-1
3.462613906E0,-9.961391687E-1,9.315420873E-3,-3.358132839E-1
3.465102344E0,-1.024238110E0,1.298050396E-2,-3.529170156E-1
3.467589896E0,-1.053558826E0,1.053711493E-2,-3.675773442E-1
3.470076667E0,-1.081657767E0,-9.009997360E-3,-3.810159862E-1
3.472564271E0,-1.108535051E0,-3.955236077E-2,-3.932329118E-1
3.475052656E0,-1.136633992E0,-6.642963737E-2,-4.054498672E-1
3.477540261E0,-1.162289619E0,-9.941539168E-2,-4.164451063E-1
3.480026979E0,-1.183058381E0,-1.226275861E-1,-4.237752855E-1
3.482514636E0,-1.203827262E0,-1.372879148E-1,-4.274403751E-1
3.485003021E0,-1.220930934E0,-1.470614821E-1,-4.311054647E-1
3.487490625E0,-1.233147860E0,-1.458397806E-1,-4.384356141E-1
3.489977344E0,-1.250251651E0,-1.372879148E-1,-4.433223903E-1
3.492464948E0,-1.261246920E0,-1.262926757E-1,-4.482091665E-1
3.494953334E0,-1.267355323E0,-1.189625040E-1,-4.579827189E-1
3.497440938E0,-1.267355323E0,-1.165191159E-1,-4.677563012E-1
3.499927656E0,-1.262468576E0,-1.152974218E-1,-4.824166298E-1
3.502415313E0,-1.253916740E0,-1.079672500E-1,-4.958552718E-1
3.504903698E0,-1.240478039E0,-9.941539168E-2,-5.068505406E-1
3.507391302E0,-1.225817680E0,-9.697200358E-2,-5.129590034E-1
3.509878021E0,-1.211157441E0,-1.043021679E-1,-5.251759291E-1
3.512365625E0,-1.191610336E0,-1.091889441E-1,-5.361711979E-1
3.514854063E0,-1.176949978E0,-1.189625040E-1,-5.373928547E-1
3.517341615E0,-1.162289619E0,-1.482831687E-1,-5.398362875E-1
3.519828334E0,-1.147629261E0,-1.592784226E-1,-5.386145711E-1
3.522315990E0,-1.132968903E0,-1.433963925E-1,-5.349494815E-1
3.524804375E0,-1.124417067E0,-1.275143623E-1,-5.276193023E-1
3.527291979E0,-1.117086887E0,-1.189625040E-1,-5.227325559E-1
3.529778698E0,-1.118308663E0,-1.116323397E-1,-5.166240931E-1
3.532266354E0,-1.126860499E0,-9.208522737E-2,-5.129590034E-1
3.534754740E0,-1.137855768E0,-7.253811508E-2,-5.117372870E-1
3.537242292E0,-1.151294351E0,-5.787777901E-2,-5.141806602E-1
3.539729063E0,-1.168398142E0,-4.443913698E-2,-5.190674663E-1
3.542216667E0,-1.190388560E0,-3.344388679E-2,-5.288410187E-1
3.544705052E0,-1.214822531E0,-2.855710872E-2,-5.398362875E-1
3.547192656E0,-1.244143128E0,-4.077405483E-2,-5.544965863E-1
3.549679375E0,-1.274685502E0,-5.176930502E-2,-5.703786016E-1
3.552167031E0,-1.302784443E0,-5.787777901E-2,-5.838172436E-1
3.554655417E0,-1.334548593E0,-5.299099907E-2,-5.996993184E-1
3.557143021E0,-1.367534280E0,-4.688252881E-2,-6.143596172E-1
3.559629740E0,-1.396854997E0,-3.466558084E-2,-6.277982593E-1
3.562117344E0,-1.415180445E0,-1.511846948E-2,-6.363501549E-1
3.564605729E0,-1.428619027E0,-6.566607859E-3,-6.375718117E-1
3.567093334E0,-1.438392639E0,-4.123218823E-3,-6.277982593E-1
3.569580052E0,-1.442057610E0,-4.123218823E-3,-6.192464232E-1
3.572067709E0,-1.440835953E0,-1.511846948E-2,-6.106945276E-1
3.574556094E0,-1.431062460E0,-3.100049868E-2,-6.033644080E-1
3.577043698E0,-1.423732281E0,-4.688252881E-2,-5.887040496E-1
3.579530417E0,-1.409071922E0,-5.543438718E-2,-5.764871240E-1
3.582018073E0,-1.388303161E0,-5.543438718E-2,-5.630484819E-1
3.584506459E0,-1.214822531E0,1.070509851E-1,-5.337277651E-1
3.586994011E0,-8.006680608E-1,5.077667832E-1,-4.860817194E-1
3.589480729E0,-4.280512035E-1,7.301151752E-1,-4.604261220E-1
3.591968386E0,-2.325800955E-1,7.142331600E-1,-4.433223903E-1
3.594456771E0,-1.837123185E-1,5.590779781E-1,-4.384356141E-1
3.596944375E0,-1.922641695E-1,4.271349311E-1,-4.311054647E-1
3.599431094E0,-2.142546773E-1,3.367295563E-1,-4.201101959E-1
3.601918750E0,-2.313583940E-1,2.841966748E-1,-3.956763148E-1
3.604407136E0,-2.521272004E-1,2.438807636E-1,-3.626905680E-1
3.606894688E0,-2.790044844E-1,2.182251811E-1,-3.211529553E-1
3.609381459E0,-3.083251417E-1,2.121167034E-1,-2.722851634E-1
3.611869063E0,-3.303156495E-1,2.267770469E-1,-2.209739983E-1
3.614357448E0,-3.608580232E-1,2.402156889E-1,-1.745496094E-1
3.616845052E0,-4.023956358E-1,2.475458533E-1,-1.305686086E-1
3.619331771E0,-4.475983381E-1,2.512109280E-1,-9.269607067E-2
3.621819427E0,-5.025745630E-1,2.487675399E-1,-6.093201414E-2
3.624307813E0,-5.538857579E-1,2.451024652E-1,-3.771981969E-2
3.626795417E0,-6.027535200E-1,2.451024652E-1,-2.061609551E-2
3.629282136E0,-6.442911625E-1,2.463241518E-1,-1.572931744E-2
3.631769740E0,-6.736118197E-1,2.463241518E-1,-2.305948362E-2
3.634258125E0,-6.980457306E-1,2.524326444E-1,-3.771981969E-2
3.636745729E0,-7.163711190E-1,2.560977042E-1,-6.215370819E-2
3.639232448E0,-7.249229550E-1,2.646495700E-1,-9.269607067E-2
3.641720104E0,-7.224795818E-1,2.683146596E-1,-1.281252056E-1
3.644208490E0,-7.163711190E-1,2.732014358E-1,-1.659977436E-1
3.646696094E0,-7.029324770E-1,2.719797492E-1,-2.038702667E-1
3.649182813E0,-6.846070886E-1,2.683146596E-1,-2.405211031E-1
3.651670417E0,-6.540647149E-1,2.670929730E-1,-2.759502530E-1
3.654158854E0,-6.247440577E-1,2.609844804E-1,-3.089359999E-1
3.656646406E0,-5.966450572E-1,2.499892414E-1,-3.407000601E-1
3.659133125E0,-5.746545792E-1,2.389939874E-1,-3.687990308E-1
3.661620781E0,-5.538857579E-1,2.316638231E-1,-3.981196880E-1
3.664109167E0,-5.318952799E-1,2.267770469E-1,-4.176668227E-1
3.666596771E0,-5.135698318E-1,2.194468826E-1,-4.298837483E-1
3.669083490E0,-4.964661002E-1,2.121167034E-1,-4.384356141E-1
3.671571146E0,-4.866925478E-1,2.035648525E-1,-4.347705245E-1
3.674059531E0,-4.793623984E-1,1.998997629E-1,-4.201101959E-1
3.676547084E0,-4.647020400E-1,1.876828223E-1,-3.981196880E-1
3.679033802E0,-4.366030693E-1,1.608055383E-1,-3.700207174E-1
3.681521459E0,-4.085040987E-1,1.241547018E-1,-3.394783735E-1
3.684009844E0,-3.901786804E-1,8.261708915E-2,-3.077143133E-1
3.686497448E0,-3.877353072E-1,4.963133857E-2,-2.759502530E-1
3.688984167E0,-3.877353072E-1,2.397575416E-2,-2.478512824E-1
3.691471823E0,-3.889569938E-1,4.428642802E-3,-2.185306102E-1
3.693960209E0,-3.877353072E-1,-1.389677543E-2,-1.904316396E-1
3.696447761E0,-3.804051280E-1,-2.855710872E-2,-1.635543555E-1
3.698934531E0,-3.742966652E-1,-4.566083103E-2,-1.440072358E-1
3.701422136E0,-3.865135908E-1,-8.475505561E-2,-1.366770715E-1
3.703910521E0,-4.036173224E-1,-1.250709742E-1,-1.378987730E-1
3.706398125E0,-4.243861437E-1,-1.458397806E-1,-1.464506239E-1
3.708884844E0,-4.317162931E-1,-1.360662282E-1,-1.574458778E-1
3.711372500E0,-4.353813827E-1,-1.043021679E-1,-1.733279079E-1
3.713860886E0,-4.366030693E-1,-9.086353332E-2,-2.063136548E-1
3.716348490E0,-4.427115619E-1,-8.964183182E-2,-2.502946556E-1
3.718835209E0,-4.463766217E-1,-8.353336155E-2,-2.954973578E-1
3.721322813E0,-4.451549351E-1,-6.032116711E-2,-3.260397315E-1
3.723811250E0,-4.488200247E-1,-1.878355257E-2,-3.492519259E-1
3.726298802E0,-4.671454430E-1,3.863608837E-2,-3.761292100E-1
3.728785521E0,-5.062396526E-1,1.070509851E-1,-4.066715539E-1
3.731273177E0,-5.673243999E-1,1.742441803E-1,-4.457657933E-1
3.733761563E0,-6.577298045E-1,2.402156889E-1,-4.873034060E-1
3.736249167E0,-7.676823139E-1,2.939702570E-1,-5.373928547E-1
3.738735886E0,-8.996253014E-1,3.403946459E-1,-5.911474228E-1
3.741223490E0,-1.053558826E0,3.684936166E-1,-6.473453641E-1
3.743711927E0,-1.222152710E0,3.843756318E-1,-7.059867382E-1
3.746199479E0,-1.390746474E0,3.929274976E-1,-7.634063363E-1
3.748686198E0,-1.543458343E0,3.843756318E-1,-8.110524416E-1
3.751173854E0,-1.660740972E0,3.709369898E-1,-8.415948153E-1
3.753662240E0,-1.726712465E0,3.489464819E-1,-8.550334573E-1
3.756149844E0,-1.734042645E0,2.988570333E-1,-8.501466513E-1
3.758636563E0,-1.690061688E0,2.414373755E-1,-8.183826208E-1
3.761124167E0,-1.614316583E0,1.766875684E-1,-7.670714259E-1
3.763612604E0,-1.519024372E0,1.094943732E-1,-7.072083950E-1
3.766100156E0,-1.418845415E0,5.329642445E-2,-6.473453641E-1
3.768586875E0,-1.319888234E0,1.053711493E-2,-5.935907960E-1
3.771074531E0,-1.217265844E0,-2.000524849E-2,-5.459447503E-1
3.773562917E0,-1.125638843E0,-3.833066672E-2,-5.044071078E-1
3.776050521E0,-1.041341901E0,-4.321744293E-2,-4.677563012E-1
3.778537240E0,-9.668185115E-1,-3.955236077E-2,-4.359922409E-1
3.781024896E0,-9.020686746E-1,-3.344388679E-2,-4.042281806E-1
3.783513281E0,-8.397622705E-1,-3.222219273E-2,-3.736858070E-1
3.786000834E0,-7.811209559E-1,-3.466558084E-2,-3.455868363E-1
3.788487604E0,-7.175928354E-1,-3.344388679E-2,-3.150444627E-1
3.790975209E0,-6.491779089E-1,-2.855710872E-2,-2.918322682E-1
3.793463594E0,-5.770979524E-1,-1.878355257E-2,-2.673983872E-1
3.795951198E0,-5.001311898E-1,-5.344913341E-3,-2.466295809E-1
3.798437917E0,-4.268295169E-1,8.093725890E-3,-2.283041626E-1
3.800925573E0,-3.559712470E-1,2.397575416E-2,-2.124221325E-1
3.803413959E0,-2.899997234E-1,3.741439432E-2,-1.953184158E-1
3.805901563E0,-2.350234836E-1,5.085303262E-2,-1.806580722E-1
3.808388281E0,-1.898207814E-1,6.062658876E-2,-1.672194302E-1
3.810875886E0,-1.568350345E-1,7.162184268E-2,-1.562241912E-1
3.813364271E0,-1.311794519E-1,7.895200700E-2,-1.513374150E-1
3.815851875E0,-1.177408099E-1,8.383878320E-2,-1.550024897E-1
3.818338594E0,-1.116323397E-1,8.261708915E-2,-1.696628332E-1
3.820826250E0,-1.067455560E-1,7.406523079E-2,-1.904316396E-1
3.823314636E0,-1.067455560E-1,6.306997687E-2,-2.160872221E-1
3.825802240E0,-1.043021679E-1,5.085303262E-2,-2.441861928E-1
3.828288959E0,-1.030804738E-1,3.741439432E-2,-2.710634768E-1
3.830776563E0,-9.697200358E-2,3.130592033E-2,-3.052709103E-1
3.833265000E0,-8.597674966E-2,3.130592033E-2,-3.370349705E-1
3.835752552E0,-7.742489129E-2,3.741439432E-2,-3.687990308E-1
3.838239271E0,-6.398624927E-2,4.596625641E-2,-4.017847776E-1
3.840726927E0,-5.176930502E-2,5.818320066E-2,-4.359922409E-1
3.843215313E0,-4.321744293E-2,6.673506647E-2,-4.677563012E-1
3.845702917E0,-3.833066672E-2,6.795676053E-2,-4.995203316E-1
3.848189636E0,-3.833066672E-2,7.284353673E-2,-5.300627351E-1
3.850677240E0,-3.344388679E-2,7.162184268E-2,-5.508314967E-1
3.853165677E0,-3.466558084E-2,6.551336497E-2,-5.667135715E-1
3.855653229E0,-3.588727489E-2,6.062658876E-2,-5.813738704E-1
3.858139948E0,-3.588727489E-2,6.062658876E-2,-5.911474228E-1
3.860627604E0,-3.710897267E-2,5.940489471E-2,-5.948125124E-1
3.863115990E0,-4.077405483E-2,5.940489471E-2,-5.984776020E-1
3.865603594E0,-4.321744293E-2,6.551336497E-2,-5.996993184E-1
3.868090313E0,-4.566083103E-2,7.650861889E-2,-5.984776020E-1
3.870577969E0,-4.688252881E-2,8.506047726E-2,-5.960342288E-1
3.873066354E0,-5.176930502E-2,9.483403713E-2,-5.935907960E-1
3.875553906E0,-5.665608495E-2,9.849911928E-2,-5.984776020E-1
3.878040677E0,-6.520794332E-2,9.483403713E-2,-6.094728708E-1
3.880528281E0,-7.253811508E-2,8.750387281E-2,-6.204680800E-1
3.883016667E0,-7.864658535E-2,7.162184268E-2,-6.375718117E-1
3.885504271E0,-8.842013776E-2,5.451811850E-2,-6.583406329E-1
3.887990990E0,-9.575030953E-2,3.497100621E-2,-6.864396334E-1
3.890478646E0,-9.819369763E-2,8.093725890E-3,-7.194253802E-1
3.892967031E0,-9.819369763E-2,-2.367033064E-2,-7.585195899E-1
3.895454584E0,-9.086353332E-2,-6.276455522E-2,-8.000571728E-1
3.897941354E0,-7.498150319E-2,-9.941539168E-2,-8.415948153E-1
3.900428959E0,-6.276455522E-2,-1.470614821E-1,-8.855758309E-1
3.902917344E0,-4.688252881E-2,-2.057028115E-1,-9.271134138E-1
3.905404948E0,-2.855710872E-2,-2.704526186E-1,-9.649859667E-1
3.907891667E0,-9.009997360E-3,-3.388675153E-1,-1.001636744E0
3.910379323E0,1.053711493E-2,-4.013266563E-1,-1.032179117E0
3.912867709E0,1.786728203E-2,-4.355340898E-1,-1.046839476E0
3.915355261E0,-3.100049868E-2,-4.611896873E-1,-1.021183848E0
3.917842031E0,-1.446180940E-1,-5.332696438E-1,-9.588775039E-1
3.920329636E0,-3.242071867E-1,-6.578825116E-1,-8.525900841E-1
3.922818021E0,-5.050179958E-1,-7.947123051E-1,-7.291989326E-1
3.925305625E0,-6.137487888E-1,-8.900044560E-1,-6.094728708E-1
3.927792344E0,-6.418477297E-1,-9.290986657E-1,-5.141806602E-1
3.930280000E0,-6.210789680E-1,-9.193251133E-1,-4.567610323E-1
3.932768386E0,-5.795413256E-1,-8.838959932E-1,-4.323271513E-1
3.935255990E0,-5.343386531E-1,-8.692356348E-1,-4.298837483E-1
3.937742709E0,-4.769189954E-1,-8.900044560E-1,-4.311054647E-1
3.940230313E0,-4.256078303E-1,-9.095515609E-1,-4.298837483E-1
3.942718698E0,-3.779617548E-1,-9.266552925E-1,-4.249969721E-1
3.945206302E0,-3.437542915E-1,-9.168817401E-1,-4.213318825E-1
3.947693021E0,-3.119902313E-1,-8.753440976E-1,-4.286620617E-1
3.950180677E0,-2.912214398E-1,-8.118160367E-1,-4.433223903E-1
3.952669063E0,-2.741177082E-1,-7.372926474E-1,-4.616478086E-1
3.955156667E0,-2.594573796E-1,-6.725428104E-1,-4.787515402E-1
3.957643386E0,-2.435753495E-1,-6.126797795E-1,-4.873034060E-1
3.960130990E0,-2.276933193E-1,-5.479300022E-1,-4.897467792E-1
3.962619427E0,-1.824906170E-1,-4.599680007E-1,-4.873034060E-1
3.965106979E0,-6.520794332E-2,-2.961082160E-1,-4.689779878E-1
3.967593698E0,9.116895497E-2,-1.018587798E-1,-4.421007037E-1
3.970081354E0,2.218902707E-1,4.107947648E-2,-4.188885093E-1
3.972569740E0,3.000787199E-1,1.058292910E-1,-4.030064642E-1
3.975057344E0,3.355078697E-1,1.229330078E-1,-4.005630910E-1
3.977544063E0,3.513898849E-1,1.253764033E-1,-4.115583301E-1
3.980031667E0,3.587200642E-1,1.229330078E-1,-4.311054647E-1
3.982520104E0,3.636068404E-1,1.253764033E-1,-4.457657933E-1
3.985007656E0,3.672719002E-1,1.363716573E-1,-4.592044353E-1
3.987494375E0,3.684936166E-1,1.546970755E-1,-4.677563012E-1
3.989982031E0,3.636068404E-1,1.827960461E-1,-4.750864506E-1
3.992470417E0,3.513898849E-1,2.023431510E-1,-4.738647640E-1
3.994958021E0,3.403946459E-1,2.121167034E-1,-4.653128982E-1
3.997444740E0,3.281776905E-1,2.096733153E-1,-4.457657933E-1
3.999932344E0,3.135173619E-1,1.998997629E-1,-4.249969721E-1
4.002420781E0,3.037438095E-1,1.852394342E-1,-4.030064642E-1
4.004908334E0,2.854183912E-1,1.742441803E-1,-3.761292100E-1
4.007395052E0,2.695363462E-1,1.583621502E-1,-3.492519259E-1
4.009882709E0,2.536543310E-1,1.363716573E-1,-3.187095523E-1
4.012371094E0,2.365505993E-1,1.046075895E-1,-2.845021188E-1
4.014858698E0,2.182251811E-1,6.795676053E-2,-2.515163720E-1
4.017345417E0,1.974563748E-1,2.886253223E-2,-2.209739983E-1
4.019833073E0,1.754658818E-1,-2.901524538E-3,-1.928750277E-1
4.022321459E0,1.546970755E-1,-2.855710872E-2,-1.659977436E-1
4.024809011E0,1.351499557E-1,-4.443913698E-2,-1.464506239E-1
4.027295729E0,1.204896197E-1,-6.154286116E-2,-1.391204596E-1
4.029783386E0,1.082726792E-1,-7.253811508E-2,-1.403421611E-1
4.032271771E0,1.021642014E-1,-7.253811508E-2,-1.440072358E-1
4.034759375E0,1.021642014E-1,-6.887302548E-2,-1.574458778E-1
4.037246094E0,1.131594554E-1,-5.909947306E-2,-1.818797737E-1
4.039733750E0,1.241547018E-1,-4.688252881E-2,-2.173089087E-1
4.042222136E0,1.498102844E-1,-6.032116711E-2,-2.515163720E-1
4.044709688E0,1.815743446E-1,-1.140757278E-1,-2.698417902E-1
4.047196459E0,2.108950168E-1,-1.690519750E-1,-2.881672084E-1
4.049684063E0,2.316638231E-1,-2.191414535E-1,-3.089359999E-1
4.052172448E0,2.389939874E-1,-2.386885732E-1,-3.284831047E-1
4.054660052E0,2.328855246E-1,-2.203631550E-1,-3.407000601E-1
4.057146771E0,2.243336588E-1,-1.653869003E-1,-3.455868363E-1
4.059634427E0,2.206685692E-1,-9.208522737E-2,-3.468085229E-1
4.062122813E0,2.218902707E-1,-1.756185852E-2,-3.516952991E-1
4.064610417E0,2.328855246E-1,4.352286831E-2,-3.663556576E-1
4.067097136E0,2.499892414E-1,9.116895497E-2,-4.017847776E-1
4.069584740E0,2.756448388E-1,1.290414780E-1,-4.530959427E-1
4.072073125E0,3.086305857E-1,1.681357026E-1,-5.202891231E-1
4.074560729E0,3.391729295E-1,2.194468826E-1,-5.972558856E-1
4.077047448E0,3.684936166E-1,2.768665254E-1,-6.742226481E-1
4.079535104E0,3.892624080E-1,3.232909143E-1,-7.353073955E-1
4.082023490E0,4.075878263E-1,3.697153032E-1,-7.829535007E-1
4.084511094E0,4.198047817E-1,4.088095427E-1,-8.159392476E-1
4.086997813E0,4.381301999E-1,4.246915579E-1,-8.293778896E-1
4.089485417E0,4.576773047E-1,4.405735731E-1,-8.305995464E-1
4.091973802E0,4.686725736E-1,4.747810364E-1,-8.330429196E-1
4.094461406E0,4.760027230E-1,5.102101564E-1,-8.391514421E-1
4.096948125E0,4.845545888E-1,5.309789777E-1,-8.342646360E-1
4.099435781E0,5.016583204E-1,5.395308137E-1,-8.196043372E-1
4.101924167E0,5.175403357E-1,5.431959033E-1,-8.025006056E-1
4.104411771E0,5.322006941E-1,5.578562617E-1,-7.915053368E-1
4.106898490E0,5.493044257E-1,5.737382770E-1,-7.817317843E-1
4.109386094E0,5.664080977E-1,5.761816502E-1,-7.682931423E-1
4.111874479E0,5.871769190E-1,5.676298141E-1,-7.536327839E-1
4.114362084E0,6.067240238E-1,5.566345453E-1,-7.279772162E-1
4.116848802E0,6.226060390E-1,5.297572613E-1,-7.023216486E-1
4.119336459E0,6.287145615E-1,4.857762754E-1,-6.693359017E-1
4.121824844E0,6.336013079E-1,4.356867969E-1,-6.400152445E-1
4.124312448E0,6.360446811E-1,3.880407214E-1,-6.119162440E-1
4.126799167E0,6.336013079E-1,3.489464819E-1,-5.911474228E-1
4.129286771E0,6.311579347E-1,3.245126009E-1,-5.777087808E-1
4.131775209E0,6.250494719E-1,3.000787199E-1,-5.691569448E-1
4.134262761E0,6.116108298E-1,2.670929730E-1,-5.618267655E-1
4.136749479E0,6.018372774E-1,2.292204350E-1,-5.520532131E-1
4.139237136E0,5.957288146E-1,1.840177327E-1,-5.386145711E-1
4.141725521E0,5.871769190E-1,1.339282542E-1,-5.263976455E-1
4.144213125E0,5.810684562E-1,9.239064902E-2,-5.105155706E-1
4.146699844E0,5.786250830E-1,5.207473040E-2,-4.946335554E-1
4.149187448E0,5.798467398E-1,2.031067200E-2,-4.885250926E-1
4.151675886E0,5.786250830E-1,-5.344913341E-3,-4.946335554E-1
4.154163438E0,5.761816502E-1,-2.122694254E-2,-5.068505406E-1
4.156650156E0,5.786250830E-1,-3.466558084E-2,-5.239542127E-1
4.159137813E0,5.859552622E-1,-4.688252881E-2,-5.435013771E-1
4.161626198E0,5.920637250E-1,-6.276455522E-2,-5.667135715E-1
4.164113802E0,5.993938446E-1,-7.375980914E-2,-5.874823332E-1
4.166600521E0,6.055023670E-1,-7.620319724E-2,-6.082511544E-1
4.169088125E0,6.140542030E-1,-7.009471953E-2,-6.314633489E-1
4.171576563E0,6.238277555E-1,-6.032116711E-2,-6.534538269E-1
4.174064115E0,6.287145615E-1,-4.932591692E-2,-6.742226481E-1
4.176550834E0,6.323796511E-1,-3.344388679E-2,-6.949914694E-1
4.179038490E0,6.433748603E-1,-2.489202656E-2,-7.133168578E-1
4.181526875E0,6.580352187E-1,-6.566607859E-3,-7.255338430E-1
4.184014479E0,6.751389503E-1,2.153236605E-2,-7.340856791E-1
4.186501198E0,6.861341596E-1,6.429167092E-2,-7.377507687E-1
4.188988802E0,6.922426820E-1,1.253764033E-1,-7.438592315E-1
4.191477240E0,6.934643388E-1,1.962346882E-1,-7.524111271E-1
4.193964792E0,6.971294284E-1,2.524326444E-1,-7.597413063E-1
4.196451511E0,7.020162344E-1,2.939702570E-1,-7.646280527E-1
4.198939167E0,7.081246972E-1,3.306210935E-1,-7.670714259E-1
4.201427552E0,7.142331600E-1,3.721587062E-1,-7.682931423E-1
4.203915156E0,7.130114436E-1,4.271349311E-1,-7.768449783E-1
4.206401875E0,7.081246972E-1,4.869979918E-1,-7.878402472E-1
4.208889479E0,7.020162344E-1,5.468609929E-1,-7.988355160E-1
4.211377917E0,6.910209656E-1,5.957288146E-1,-8.098307252E-1
4.213865469E0,6.775823236E-1,6.433748603E-1,-8.196043372E-1
4.216352188E0,6.555918455E-1,6.922426820E-1,-8.367080092E-1
4.218839844E0,6.372663975E-1,7.337802649E-1,-8.599202037E-1
4.221328229E0,6.238277555E-1,7.545490861E-1,-8.782456517E-1
4.223815834E0,6.079457402E-1,7.362236381E-1,-8.806890249E-1
4.226302552E0,5.908420086E-1,6.983511448E-1,-8.648070097E-1
4.228790209E0,5.676298141E-1,6.604785919E-1,-8.318212628E-1
4.231278594E0,5.370874405E-1,6.287145615E-1,-7.988355160E-1
4.233766146E0,5.041016936E-1,6.164975762E-1,-7.707365155E-1
4.236252865E0,4.662291706E-1,6.079457402E-1,-7.548545003E-1
4.238740521E0,4.332434237E-1,5.798467398E-1,-7.414158583E-1
4.241228906E0,4.002576768E-1,5.529694557E-1,-7.255338430E-1
4.243716511E0,3.672719002E-1,5.297572613E-1,-7.206470370E-1
4.246203229E0,3.379512429E-1,4.882196784E-1,-7.182036638E-1
4.248690886E0,3.171824515E-1,4.564556181E-1,-7.059867382E-1
4.251179271E0,3.025220931E-1,4.308000207E-1,-6.925480962E-1
4.253666823E0,2.841966748E-1,3.978142738E-1,-6.778877378E-1
4.256153542E0,2.585411072E-1,3.733803928E-1,-6.632274389E-1
4.258641198E0,2.316638231E-1,3.697153032E-1,-6.534538269E-1
4.261129584E0,1.998997629E-1,3.843756318E-1,-6.632274389E-1
4.263617188E0,1.669140160E-1,3.904841244E-1,-6.791094542E-1
4.266103906E0,1.351499557E-1,3.819322586E-1,-7.010999322E-1
4.268591563E0,9.605573118E-2,3.648285270E-1,-7.279772162E-1
4.271079948E0,6.551336497E-2,3.477247953E-1,-7.499676943E-1
4.273567500E0,5.085303262E-2,3.428380191E-1,-7.719582319E-1
4.276054219E0,2.886253223E-2,3.416163325E-1,-8.049439788E-1
4.278541875E0,1.053711493E-2,3.135173619E-1,-8.489249945E-1
4.281030261E0,-4.581354442E-4,2.732014358E-1,-8.867974877E-1
4.283517865E0,-4.581354442E-4,2.194468826E-1,-9.039012194E-1
4.286004584E0,-2.901524538E-3,1.925695986E-1,-9.136747718E-1
4.288492240E0,-2.489202656E-2,2.023431510E-1,-9.344435930E-1
4.290980625E0,-4.566083103E-2,2.206685692E-1,-9.674293399E-1
4.293468177E0,-4.688252881E-2,2.365505993E-1,-9.967499971E-1
4.295954948E0,-3.222219273E-2,2.121167034E-1,-1.000415087E0
4.298442552E0,-1.389677543E-2,1.693574041E-1,-9.735378027E-1
4.300930938E0,5.650337320E-3,1.534753740E-1,-9.405520558E-1
4.303418542E0,1.664558798E-2,1.620272398E-1,-9.368869662E-1
4.305905261E0,2.641914412E-2,1.595838517E-1,-9.686510563E-1
4.308392917E0,4.352286831E-2,1.510319859E-1,-1.023627281E0
4.310881302E0,6.062658876E-2,1.522536725E-1,-1.095860004E0
4.313368854E0,7.895200700E-2,1.632489264E-1,-1.181378603E0
4.315855625E0,1.082726792E-1,1.510319859E-1,-1.247350097E0
4.318343229E0,1.327065676E-1,1.302631795E-1,-1.279114127E0
4.320831615E0,1.473668963E-1,1.375933439E-1,-1.308434844E0
4.323319219E0,1.498102844E-1,1.595838517E-1,-1.329203606E0
4.325805938E0,1.363716573E-1,2.011214644E-1,-1.334090471E0
4.328293594E0,1.180462316E-1,2.475458533E-1,-1.332868695E0
4.330781979E0,1.107160673E-1,2.829749882E-1,-1.334090471E0
4.333269531E0,1.070509851E-1,2.915268540E-1,-1.325538516E0
4.335756250E0,8.872556686E-2,3.037438095E-1,-1.315765023E0
4.338243906E0,5.696150661E-2,2.903051674E-1,-1.297439575E0
4.340732292E0,2.519745007E-2,2.328855246E-1,-1.266897202E0
4.343219896E0,-1.511846948E-2,1.644706279E-1,-1.230246425E0
4.345706615E0,-5.665608495E-2,1.119377613E-1,-1.203369141E0
4.348194271E0,-1.006370857E-1,7.650861889E-2,-1.185043693E0
4.350682656E0,-1.360662282E-1,2.153236605E-2,-1.167939901E0
4.353170209E0,-1.543916464E-1,-5.787777901E-2,-1.133732557E0
4.355656927E0,-1.678302884E-1,-1.226275861E-1,-1.103190184E0
4.358144584E0,-1.812689304E-1,-1.592784226E-1,-1.090973258E0
4.360632969E0,-1.983726472E-1,-1.824906170E-1,-1.106855273E0
4.363120573E0,-2.044811249E-1,-2.154763639E-1,-1.133732557E0
4.365607292E0,-2.081461996E-1,-2.289150059E-1,-1.160609841E0
4.368094896E0,-1.971509457E-1,-2.570139766E-1,-1.178935170E0
4.370583334E0,-1.739387512E-1,-2.875563502E-1,-1.172826767E0
4.373070886E0,-1.543916464E-1,-2.643441558E-1,-1.183822036E0
4.375557604E0,-1.446180940E-1,-2.338017821E-1,-1.208255887E0
4.378045261E0,-1.250709742E-1,-2.301367074E-1,-1.227802992E0
4.380533646E0,-1.152974218E-1,-2.044811249E-1,-1.242463350E0
4.383021250E0,-1.140757278E-1,-1.556133330E-1,-1.265675545E0
4.385507969E0,-1.079672500E-1,-1.360662282E-1,-1.288887739E0
4.387995625E0,-9.330692142E-2,-1.714953631E-1,-1.288887739E0
4.390484011E0,-8.108997345E-2,-1.885990947E-1,-1.286444306E0
4.392971563E0,-7.253811508E-2,-1.751604527E-1,-1.293774486E0
4.395458281E0,-5.787777901E-2,-1.812689304E-1,-1.293774486E0
4.397945938E0,-4.566083103E-2,-1.812689304E-1,-1.296217918E0
4.400434323E0,-5.054761097E-2,-1.458397806E-1,-1.324316859E0
4.402921927E0,-6.887302548E-2,-9.086353332E-2,-1.384179831E0
4.405408646E0,-8.475505561E-2,-7.131642103E-2,-1.455038190E0
4.407896302E0,-8.597674966E-2,-9.452861547E-2,-1.521009684E0
4.410384688E0,-9.452861547E-2,-1.079672500E-1,-1.588202834E0
4.412872240E0,-1.055238619E-1,-1.140757278E-1,-1.666391373E0
4.415358959E0,-1.238492802E-1,-1.079672500E-1,-1.758018374E0
4.417846615E0,-1.531699449E-1,-9.208522737E-2,-1.866749167E0
4.420335000E0,-1.824906170E-1,-6.520794332E-2,-1.985253572E0
4.422822604E0,-2.081461996E-1,-3.100049868E-2,-2.104979753E0
4.425309323E0,-2.325800955E-1,1.298050396E-2,-2.223484039E0
4.427796979E0,-2.447970361E-1,5.940489471E-2,-2.329771519E0
4.430285365E0,-2.472404242E-1,9.361234307E-2,-2.422620296E0
4.432772917E0,-2.386885732E-1,1.131594554E-1,-2.491035223E0
4.435259636E0,-2.166980654E-1,1.314848661E-1,-2.535016060E0
4.437747292E0,-1.898207814E-1,1.302631795E-1,-2.560671806E0
4.440235677E0,-1.580567211E-1,9.483403713E-2,-2.569223642E0
4.442723281E0,-1.116323397E-1,4.840964451E-2,-2.569223642E0
4.445210000E0,-4.443913698E-2,4.428642802E-3,-2.553341627E0
4.447697656E0,2.519745007E-2,-3.710897267E-2,-2.505695343E0
4.450186042E0,8.994726092E-2,-5.665608495E-2,-2.449497461E0
4.452673594E0,1.473668963E-1,-5.543438718E-2,-2.388412714E0
4.455160313E0,1.864611208E-1,-4.077405483E-2,-2.332214832E0
4.457647969E0,2.133384049E-1,-7.788302377E-3,-2.296785593E0
4.460136354E0,2.341072112E-1,2.764083818E-2,-2.276016951E0
4.462623959E0,2.683146596E-1,6.917845458E-2,-2.256469727E0
4.465110677E0,3.098522723E-1,1.119377613E-1,-2.249139547E0
4.467598334E0,3.367295563E-1,9.361234307E-2,-2.258913279E0
4.470086719E0,3.416163325E-1,2.764083818E-2,-2.271130085E0
4.472574271E0,3.306210935E-1,-2.855710872E-2,-2.260134935E0
4.475060990E0,3.074088693E-1,-9.697200358E-2,-2.217375517E0
4.477548646E0,2.719797492E-1,-2.105895877E-1,-2.144073963E0
4.480037031E0,2.133384049E-1,-2.826695740E-1,-2.042673349E0
4.482524636E0,1.314848661E-1,-2.655658424E-1,-1.914395332E0
4.485011354E0,4.840964451E-2,-2.753393948E-1,-1.766570330E0
4.487499011E0,5.650337320E-3,-3.303156495E-1,-1.611415029E0
4.489987396E0,-1.389677543E-2,-3.425326049E-1,-1.453816533E0
4.492474948E0,-4.443913698E-2,-2.680092454E-1,-1.303548098E0
4.494961667E0,-7.742489129E-2,-2.362451702E-1,-1.174048424E0
4.497449323E0,-1.104106456E-1,-2.386885732E-1,-1.073869467E0
4.499937709E0,-1.495048702E-1,-2.313583940E-1,-9.918632507E-1
4.502425313E0,-1.678302884E-1,-1.971509457E-1,-9.100096822E-1
4.504912031E0,-1.556133330E-1,-1.531699449E-1,-8.183826208E-1
4.507399636E0,-1.385096163E-1,-1.385096163E-1,-7.206470370E-1
4.509888073E0,-1.372879148E-1,-8.842013776E-2,-6.387935281E-1
4.512375625E0,-1.580567211E-1,-3.222219273E-2,-5.496098399E-1
4.514862344E0,-1.824906170E-1,-1.634016447E-2,-4.445441067E-1
4.517350000E0,-1.910424829E-1,-1.679830020E-3,-3.040492237E-1
4.519838386E0,-1.812689304E-1,1.542389300E-2,-1.391204596E-1
4.522325990E0,-1.629435122E-1,1.542389300E-2,4.046862945E-2
4.524812709E0,-1.433963925E-1,3.619270027E-2,2.139492482E-1
4.527300313E0,-1.311794519E-1,1.375933439E-1,3.581092060E-1
4.529788750E0,-1.495048702E-1,1.998997629E-1,4.521796703E-1
4.532276302E0,-1.971509457E-1,1.766875684E-1,5.095993280E-1
4.534763021E0,-2.533488870E-1,1.608055383E-1,5.328115225E-1
4.537250677E0,-3.083251417E-1,1.559187621E-1,5.376983285E-1
4.539739063E0,-3.633013964E-1,1.253764033E-1,5.303681493E-1
4.542226667E0,-4.097257853E-1,6.917845458E-2,5.230379701E-1
4.544713386E0,-4.427115619E-1,5.650337320E-3,5.169295073E-1
4.547200990E0,-4.610369802E-1,-5.176930502E-2,5.193728805E-1
4.549689427E0,-4.647020400E-1,-9.941539168E-2,5.425850749E-1
4.552176979E0,-4.585935771E-1,-1.030804738E-1,5.902311802E-1
4.554663698E0,-4.463766217E-1,-7.620319724E-2,6.488724947E-1
4.557151354E0,-4.390464723E-1,-3.100049868E-2,7.087355256E-1
4.559639740E0,-4.414898455E-1,1.786728203E-2,7.588250041E-1
4.562127344E0,-4.475983381E-1,3.374931216E-2,7.710419297E-1
4.564614063E0,-4.549284875E-1,2.397575416E-2,7.563816309E-1
4.567101667E0,-4.598152637E-1,9.315420873E-3,7.221741676E-1
4.569590104E0,-4.659237564E-1,-2.367033064E-2,6.623111367E-1
4.572077656E0,-4.720322192E-1,-8.108997345E-2,5.780141950E-1
4.574564375E0,-4.781406820E-1,-1.568350345E-1,4.705050886E-1
4.577052031E0,-4.879142344E-1,-2.411319613E-1,3.544441164E-1
4.579540417E0,-4.903576374E-1,-3.242071867E-1,2.286095917E-1
4.582028021E0,-4.854708612E-1,-3.987305462E-1,9.910997003E-2
4.584514740E0,-4.756973088E-1,-4.624113739E-1,-4.260659590E-2
4.587002344E0,-4.622586668E-1,-5.002838969E-1,-1.867665499E-1
4.589490729E0,-4.390464723E-1,-4.978405237E-1,-3.174878657E-1
4.591978334E0,-4.121691883E-1,-4.685198367E-1,-4.201101959E-1
4.594465052E0,-3.901786804E-1,-4.391991794E-1,-4.873034060E-1
4.596952709E0,-3.742966652E-1,-4.147652984E-1,-5.386145711E-1
4.599441094E0,-3.584146202E-1,-3.742966652E-1,-5.801522136E-1
4.601928698E0,-3.132119179E-1,-2.948864996E-1,-6.082511544E-1
4.604415417E0,-2.716743052E-1,-3.046600819E-1,-6.302416325E-1
4.606903021E0,-2.301367074E-1,-3.217637837E-1,-6.461237073E-1
4.609391406E0,-1.873773932E-1,-3.571929336E-1,-6.510104537E-1
4.611879011E0,-1.458397806E-1,-4.208737612E-1,-6.546755433E-1
4.614365729E0,-1.055238619E-1,-4.917320311E-1,-6.620057225E-1
4.616853386E0,-7.253811508E-2,-5.418215394E-1,-6.693359017E-1
4.619341771E0,-3.588727489E-2,-5.686988235E-1,-6.791094542E-1
4.621829375E0,-7.788302377E-3,-5.870242119E-1,-6.888830066E-1
4.624316094E0,2.031067200E-2,-5.919110179E-1,-7.047650218E-1
4.626803698E0,4.107947648E-2,-5.638120174E-1,-7.206470370E-1
4.629292084E0,6.306997687E-2,-5.210527182E-1,-7.328640223E-1
4.631779688E0,7.528692484E-2,-4.795151055E-1,-7.414158583E-1
4.634266406E0,8.139539510E-2,-4.453076422E-1,-7.463026643E-1
4.636754063E0,8.261708915E-2,-4.306473136E-1,-7.536327839E-1
4.639242448E0,7.406523079E-2,-4.135435820E-1,-7.621846795E-1
4.641730052E0,5.940489471E-2,-3.865135908E-1,-7.695148587E-1
4.644216771E0,4.474456236E-2,-3.706315756E-1,-7.731798887E-1
4.646704375E0,2.764083818E-2,-3.584146202E-1,-7.756233215E-1
4.649192761E0,6.872031838E-3,-3.523061574E-1,-7.780666947E-1
4.651680365E0,-9.009997360E-3,-3.352024257E-1,-7.768449783E-1
4.654167084E0,-2.244863659E-2,-3.217637837E-1,-7.719582319E-1
4.656654740E0,-3.344388679E-2,-3.071034551E-1,-7.658497691E-1
4.659143125E0,-4.077405483E-2,-2.875563502E-1,-7.524111271E-1
4.661630677E0,-4.199574888E-2,-2.777827978E-1,-7.279772162E-1
4.664117448E0,-3.222219273E-2,-2.655658424E-1,-6.913263798E-1
4.666605052E0,-5.344913341E-3,-2.521272004E-1,-6.351284385E-1
4.669093438E0,2.886253223E-2,-2.460187376E-1,-5.593833923E-1
4.671581042E0,8.017370105E-2,-2.386885732E-1,-4.665345848E-1
4.674067761E0,1.339282542E-1,-2.460187376E-1,-3.761292100E-1
4.676555365E0,1.925695986E-1,-2.716743052E-1,-2.930539846E-1
4.679043802E0,2.487675399E-1,-2.948864996E-1,-2.221956849E-1
4.681531354E0,3.000787199E-1,-3.180987239E-1,-1.659977436E-1
4.684018073E0,3.367295563E-1,-3.303156495E-1,-1.269035190E-1
4.686505729E0,3.660502136E-1,-3.315373361E-1,-9.147437662E-2
4.688994115E0,3.868190348E-1,-3.327590525E-1,-6.093201414E-2
4.691481719E0,3.965925872E-1,-3.327590525E-1,-4.016320780E-2
4.693968438E0,3.990359604E-1,-3.315373361E-1,-2.672456764E-2
4.696456094E0,3.941491842E-1,-3.229855001E-1,-1.450762246E-2
4.698944479E0,3.868190348E-1,-3.022166789E-1,1.374406274E-3
4.701432031E0,3.721587062E-1,-2.814478874E-1,2.092151903E-2
4.703918750E0,3.611634374E-1,-2.741177082E-1,4.413371533E-2
4.706406406E0,3.513898849E-1,-2.667875290E-1,6.612421572E-2
4.708894792E0,3.428380191E-1,-2.667875290E-1,8.444963396E-2
4.711382396E0,3.330644667E-1,-2.631224692E-1,1.003316641E-1
4.713869115E0,3.184041381E-1,-2.606790662E-1,1.064401343E-1
4.716356719E0,3.025220931E-1,-2.667875290E-1,1.088835225E-1
4.718845156E0,2.890834510E-1,-2.667875290E-1,1.101052165E-1
4.721332709E0,2.719797492E-1,-2.472404242E-1,1.211004704E-1
4.723819427E0,2.512109280E-1,-2.350234836E-1,1.284306347E-1
4.726307084E0,2.267770469E-1,-2.386885732E-1,1.320957243E-1
4.728795469E0,2.023431510E-1,-2.411319613E-1,1.296523362E-1
4.731283073E0,1.766875684E-1,-2.472404242E-1,1.259872466E-1
4.733769792E0,1.559187621E-1,-2.667875290E-1,1.137702987E-1
4.736257396E0,1.278197914E-1,-2.961082160E-1,9.300149232E-2
4.738745781E0,1.009425074E-1,-3.193204105E-1,6.245913357E-2
4.741233386E0,7.284353673E-2,-3.303156495E-1,3.436015919E-2
4.743720104E0,5.696150661E-2,-3.400892019E-1,1.374406274E-3
4.746207761E0,4.352286831E-2,-3.437542915E-1,-3.527642787E-2
4.748696146E0,4.230117425E-2,-3.437542915E-1,-7.192726433E-2
4.751183750E0,4.596625641E-2,-3.352024257E-1,-1.110214889E-1
4.753670469E0,5.451811850E-2,-3.229855001E-1,-1.513374150E-1
4.756158073E0,6.551336497E-2,-3.132119179E-1,-1.879882365E-1
4.758646511E0,8.261708915E-2,-3.144336343E-1,-2.234173864E-1
4.761134063E0,1.009425074E-1,-3.303156495E-1,-2.515163720E-1
4.763620781E0,1.278197914E-1,-3.620797098E-1,-2.783936262E-1
4.766108438E0,1.534753740E-1,-3.975088596E-1,-3.089359999E-1
4.768596823E0,1.901262105E-1,-4.074351192E-1,-3.407000601E-1
4.771084427E0,2.426590770E-1,-3.975088596E-1,-3.736858070E-1
4.773571146E0,3.061871827E-1,-3.938437700E-1,-4.103366435E-1
4.776058750E0,3.746020794E-1,-4.025483429E-1,-4.469874799E-1
4.778547136E0,4.454603493E-1,-4.111002088E-1,-4.824166298E-1
4.781034740E0,5.126535892E-1,-4.233171642E-1,-5.092939138E-1
4.783521459E0,5.810684562E-1,-4.404208660E-1,-5.251759291E-1
4.786009115E0,6.494833231E-1,-4.660764635E-1,-5.312843919E-1
4.788497500E0,7.056813240E-1,-5.088357925E-1,-5.288410187E-1
4.790985052E0,7.484406233E-1,-5.357130170E-1,-5.178457499E-1
4.793471771E0,7.777612805E-1,-5.613686442E-1,-4.897467792E-1
4.795959427E0,7.973083854E-1,-6.346703172E-1,-4.176668227E-1
4.798447813E0,8.046385646E-1,-7.055285573E-1,-3.113794029E-1
4.800935417E0,7.850914598E-1,-6.908682585E-1,-2.173089087E-1
4.803422136E0,7.618792653E-1,-6.578825116E-1,-1.269035190E-1
4.805909792E0,7.496622801E-1,-6.420004964E-1,-4.260659590E-2
4.808398177E0,7.459971905E-1,-6.297835112E-1,2.702999115E-2
4.810885729E0,7.411104441E-1,-6.175665855E-1,7.956285775E-2
4.813372448E0,7.264500856E-1,-5.967977643E-1,1.125486046E-1
4.815860104E0,7.056813240E-1,-5.699204803E-1,1.320957243E-1
4.818348490E0,6.751389503E-1,-5.430431962E-1,1.394258887E-1
4.820836094E0,6.360446811E-1,-5.112791657E-1,1.394258887E-1
4.823322813E0,5.847335458E-1,-4.758500159E-1,1.333174109E-1
4.825810469E0,5.260922313E-1,-4.440859556E-1,1.284306347E-1
4.828298854E0,4.662291706E-1,-4.159869850E-1,1.211004704E-1
4.830786406E0,4.088095427E-1,-3.914003670E-1,1.125486046E-1
4.833273125E0,3.538332880E-1,-3.852919042E-1,1.088835225E-1
4.835760781E0,3.000787199E-1,-3.889569938E-1,1.186570823E-1
4.838249167E0,2.512109280E-1,-3.877353072E-1,1.406475753E-1
4.840736771E0,2.133384049E-1,-3.828485310E-1,1.614163816E-1
4.843223490E0,1.913478971E-1,-3.779617548E-1,1.736333370E-1
4.845711146E0,1.864611208E-1,-3.633013964E-1,1.797417998E-1
4.848199531E0,1.889045089E-1,-3.535278440E-1,1.834068894E-1
4.850687084E0,1.840177327E-1,-3.559712470E-1,1.919587553E-1
4.853173802E0,1.779092699E-1,-3.596363366E-1,2.041756958E-1
4.855661459E0,1.669140160E-1,-3.669664860E-1,2.212794125E-1
4.858149844E0,1.595838517E-1,-3.755183518E-1,2.359397560E-1
4.860637448E0,1.644706279E-1,-3.975088596E-1,2.518217862E-1
4.863124167E0,1.779092699E-1,-4.184303582E-1,2.640387416E-1
4.865611771E0,2.011214644E-1,-4.404208660E-1,2.786990702E-1
4.868100209E0,2.353289127E-1,-4.648547769E-1,2.909159958E-1
4.870587761E0,2.732014358E-1,-4.795151055E-1,3.031329513E-1
4.873074479E0,3.171824515E-1,-4.868452549E-1,3.165715933E-1
4.875562136E0,3.562766612E-1,-4.892886579E-1,3.410054743E-1
4.878050521E0,4.002576768E-1,-5.125008225E-1,4.033119082E-1
4.880538125E0,4.479037523E-1,-5.173876286E-1,4.595098495E-1
4.883024844E0,4.955498278E-1,-5.039489865E-1,5.083776116E-1
4.885512448E0,5.468609929E-1,-5.039489865E-1,5.499152541E-1
4.888000834E0,5.957288146E-1,-5.186093450E-1,5.804576278E-1
4.890488438E0,6.397097707E-1,-5.369347334E-1,6.061131954E-1
4.892975156E0,6.763606071E-1,-5.760289431E-1,6.256603003E-1
4.895462813E0,6.934643388E-1,-5.955760479E-1,6.403206587E-1
4.897951198E0,7.020162344E-1,-5.845808387E-1,6.549809575E-1
4.900438750E0,6.971294284E-1,-5.735855699E-1,6.598677635E-1
4.902925521E0,6.788040400E-1,-5.784723759E-1,6.488724947E-1
4.905413125E0,6.360446811E-1,-6.077930331E-1,6.207735538E-1
4.907901511E0,5.822901726E-1,-6.297835112E-1,5.829010010E-1
4.910389115E0,5.126535892E-1,-6.652126908E-1,5.389199853E-1
4.912875834E0,4.320217371E-1,-7.067502737E-1,4.851654470E-1
4.915363490E0,3.452814221E-1,-7.434011102E-1,4.326325655E-1
4.917851875E0,2.499892414E-1,-7.629482150E-1,3.837648034E-1
4.920339427E0,1.461452097E-1,-7.910472155E-1,3.336753249E-1
4.922826198E0,3.741439432E-2,-8.252546191E-1,2.823641598E-1
4.925313802E0,-7.131642103E-2,-8.301414251E-1,2.273878902E-1
4.927802188E0,-1.702736765E-1,-8.008207679E-1,1.772984117E-1
4.930289792E0,-2.790044844E-1,-7.739434838E-1,1.259872466E-1
4.932776511E0,-3.718532622E-1,-7.275190949E-1,8.567132801E-2
4.935264115E0,-4.414898455E-1,-6.456655264E-1,5.879404768E-2
4.937752552E0,-5.111264586E-1,-5.674771070E-1,3.924693540E-2
4.940240104E0,-5.880932212E-1,-5.393781066E-1,1.481304597E-2
4.942726823E0,-6.565080881E-1,-5.173876286E-1,-1.084253844E-2
4.945214479E0,-7.053758502E-1,-4.831801951E-1,-3.771981969E-2
4.947702865E0,-7.408050299E-1,-4.282039404E-1,-5.360184610E-2
4.950190469E0,-7.627955079E-1,-3.681881726E-1,-6.215370819E-2
4.952677188E0,-7.811209559E-1,-3.303156495E-1,-6.581879407E-2
4.955164792E0,-7.982246280E-1,-3.376458287E-1,-8.292251825E-2
4.957653229E0,-8.165500760E-1,-3.657447994E-1,-1.159082651E-1
4.960140781E0,-8.324320912E-1,-3.706315756E-1,-1.598892659E-1
4.962627500E0,-8.385405540E-1,-3.804051280E-1,-2.124221325E-1
4.965115156E0,-8.348754644E-1,-3.865135908E-1,-2.612899244E-1
4.967603542E0,-8.312104344E-1,-3.633013964E-1,-3.003841341E-1
4.970091146E0,-8.141067028E-1,-3.400892019E-1,-3.370349705E-1
4.972577865E0,-7.933378816E-1,-2.887780368E-1,-3.614688516E-1
4.975065469E0,-7.615737915E-1,-2.215848416E-1,-3.871244490E-1
4.977553854E0,-7.346965671E-1,-1.824906170E-1,-4.115583301E-1
4.980041459E0,-6.931589246E-1,-1.531699449E-1,-4.323271513E-1
4.982528177E0,-6.357392669E-1,-1.397313178E-1,-4.445441067E-1
4.985015834E0,-5.942016840E-1,-1.421747059E-1,-4.555393457E-1
4.987504219E0,-5.514423847E-1,-1.201841980E-1,-4.677563012E-1
4.989991823E0,-5.099047422E-1,-9.819369763E-2,-4.909684956E-1
4.992478542E0,-4.537068009E-1,-1.128540337E-1,-5.105155706E-1
4.994966146E0,-3.987305462E-1,-1.409530044E-1,-5.263976455E-1
4.997454531E0,-3.608580232E-1,-1.226275861E-1,-5.251759291E-1
4.999942136E0,-3.547495604E-1,-5.421269313E-2,-5.141806602E-1
5.002428854E0,-3.706315756E-1,-4.123218823E-3,-5.044071078E-1
5.004916511E0,-3.791834414E-1,8.093725890E-3,-5.105155706E-1
5.007404896E0,-3.755183518E-1,-4.123218823E-3,-5.227325559E-1
5.009892448E0,-3.779617548E-1,-4.123218823E-3,-5.447230339E-1
5.012379167E0,-3.620797098E-1,3.252761811E-2,-5.630484819E-1
5.014866823E0,-3.376458287E-1,8.383878320E-2,-5.948125124E-1
5.017355209E0,-3.095468581E-1,1.217113137E-1,-6.375718117E-1
5.019842813E0,-2.533488870E-1,1.876828223E-1,-6.864396334E-1
5.022329531E0,-1.885990947E-1,2.243336588E-1,-7.548545003E-1
5.024817188E0,-7.864658535E-2,1.925695986E-1,-8.916842937E-1
5.027305573E0,6.795676053E-2,1.681357026E-1,-1.018740535E0
5.029793125E0,1.669140160E-1,1.094943732E-1,-1.170383334E0
5.032279844E0,2.353289127E-1,3.741439432E-2,-1.332868695E0
5.034767500E0,2.646495700E-1,1.908897609E-2,-1.495354056E0
5.037255886E0,2.573194206E-1,1.542389300E-2,-1.649287581E0
5.039743490E0,2.402156889E-1,-4.123218823E-3,-1.799556017E0
5.042230209E0,2.353289127E-1,-2.977880463E-2,-1.938829184E0
5.044717813E0,2.389939874E-1,-5.344913341E-3,-2.052446842E0
5.047206198E0,2.524326444E-1,8.383878320E-2,-2.144073963E0
5.049693802E0,3.196258247E-1,2.194468826E-1,-2.211266994E0
5.052180521E0,4.014793634E-1,3.086305857E-1,-2.257691383E0
5.054668177E0,4.442386627E-1,3.171824515E-1,-2.305337667E0
5.057156563E0,4.808894992E-1,2.793098986E-1,-2.355427027E0
5.059644167E0,4.857762754E-1,2.218902707E-1,-2.399408102E0
5.062130886E0,5.309789777E-1,1.412584335E-1,-2.433615446E0
5.064618490E0,6.739172339E-1,1.388150454E-1,-2.458049297E0
5.067106875E0,8.486195803E-1,2.377723008E-1,-2.484926701E0
5.069594479E0,1.000109673E0,3.061871827E-1,-2.528907537E0
5.072081198E0,1.081963181E0,2.573194206E-1,-2.580218792E0
5.074568854E0,1.066081166E0,1.070509851E-1,-2.607096195E0
5.077057240E0,9.891144037E-1,-7.620319724E-2,-2.600987673E0
5.079544792E0,9.182561636E-1,-2.484621257E-1,-2.589992285E0
