"Time (s)","Gyroscope x (rad/s)","Gyroscope y (rad/s)","Gyroscope z (rad/s)"
2.924153460E-1,4.561208561E-2,-2.192395367E-2,-6.684698630E-3
2.944163460E-1,4.500121996E-2,-2.253481932E-2,-7.295563817E-3
2.964168460E-1,4.500121996E-2,-2.070222236E-2,-3.630371997E-3
2.984171790E-1,4.561208561E-2,-2.070222236E-2,-5.462967791E-3
3.004174290E-1,4.622295126E-2,-2.253481932E-2,-5.462967791E-3
3.024176290E-1,4.622295126E-2,-2.192395367E-2,-3.019507043E-3
3.044174620E-1,4.439035431E-2,-2.131308801E-2,-2.408641623E-3
3.064173190E-1,4.255775735E-2,-2.314568311E-2,3.481932072E-5
3.084171940E-1,4.133602977E-2,-2.009135857E-2,-1.186911250E-3
3.104170820E-1,4.072516412E-2,-2.009135857E-2,3.481932072E-5
3.124169820E-1,3.828170523E-2,-2.070222236E-2,2.478280338E-3
3.144168910E-1,3.767083585E-2,-2.131308801E-2,4.310875665E-3
3.164168070E-1,3.339478374E-2,-1.886962727E-2,1.256549847E-3
3.184167300E-1,3.644910827E-2,-2.070222236E-2,2.478280338E-3
3.204165150E-1,3.217304870E-2,-2.131308801E-2,3.700010711E-3
3.224163150E-1,3.034045361E-2,-1.886962727E-2,6.143471692E-3
3.244161270E-1,2.728612907E-2,-1.886962727E-2,4.310875665E-3
3.264159500E-1,2.972958982E-2,-1.825876161E-2,7.365202531E-3
3.284157830E-1,2.728612907E-2,-1.948049292E-2,6.143471692E-3
3.304156250E-1,2.606439777E-2,-1.948049292E-2,9.197797626E-3
3.324154750E-1,2.301007323E-2,-1.825876161E-2,1.164125931E-2
3.344152360E-1,2.301007323E-2,-1.948049292E-2,9.808663279E-3
3.364150080E-1,2.178834192E-2,-1.948049292E-2,1.164125931E-2
3.384147900E-1,1.995574497E-2,-2.009135857E-2,9.808663279E-3
3.404145400E-1,1.751228608E-2,-2.131308801E-2,1.225212403E-2
3.424143400E-1,1.812314987E-2,-2.070222236E-2,1.041952893E-2
3.444141470E-1,1.690141857E-2,-2.314568311E-2,1.103039365E-2
3.464139610E-1,1.506882347E-2,-2.314568311E-2,9.808663279E-3
3.484137820E-1,1.629055478E-2,-2.497827820E-2,1.041952893E-2
3.504135400E-1,1.445795782E-2,-2.375655062E-2,1.164125931E-2
3.524133060E-1,1.140363235E-2,-2.558914572E-2,8.586932905E-3
3.544130390E-1,1.262536366E-2,-2.742174082E-2,1.041952893E-2
3.564127720E-1,1.262536366E-2,-2.803260647E-2,1.041952893E-2
3.584125050E-1,8.960171603E-3,-2.986520156E-2,9.197797626E-3
3.604122380E-1,1.262536366E-2,-2.864347026E-2,1.225212403E-2
3.624119710E-1,1.384709403E-2,-3.169779852E-2,9.808663279E-3
3.644117710E-1,1.262536366E-2,-3.353039175E-2,1.164125931E-2
3.664115040E-1,1.445795782E-2,-3.230866417E-2,9.197797626E-3
3.684112370E-1,1.567968912E-2,-3.414125741E-2,9.808663279E-3
3.704109700E-1,1.690141857E-2,-3.597385436E-2,8.586932905E-3
3.724106700E-1,1.812314987E-2,-3.658472002E-2,8.586932905E-3
3.744104030E-1,1.934488118E-2,-4.024991393E-2,8.586932905E-3
3.764101360E-1,2.178834192E-2,-4.269336909E-2,1.164125931E-2
3.784098360E-1,1.934488118E-2,-4.574770108E-2,7.976067252E-3
3.804096360E-1,2.239920571E-2,-4.574770108E-2,8.586932905E-3
3.824093690E-1,2.423180267E-2,-4.819115996E-2,7.365202531E-3
3.844091020E-1,2.362093702E-2,-5.185635015E-2,7.976067252E-3
3.864088350E-1,2.178834192E-2,-5.307808146E-2,9.808663279E-3
3.884085680E-1,2.423180267E-2,-5.307808146E-2,6.143471692E-3
3.904083010E-1,2.301007323E-2,-5.735413730E-2,7.976067252E-3
3.924080340E-1,2.423180267E-2,-5.674327165E-2,6.143471692E-3
3.944078340E-1,2.239920571E-2,-6.040846184E-2,6.754336879E-3
3.964076340E-1,2.606439777E-2,-5.979759991E-2,8.586932905E-3
3.984073670E-1,2.728612907E-2,-6.101932749E-2,6.143471692E-3
4.004071000E-1,2.850786038E-2,-6.163019687E-2,6.143471692E-3
4.024068330E-1,2.789699286E-2,-6.101932749E-2,5.532606505E-3
4.044065660E-1,2.972958982E-2,-5.979759991E-2,7.365202531E-3
4.064062990E-1,2.850786038E-2,-6.346279383E-2,7.365202531E-3
4.084060320E-1,2.850786038E-2,-6.407365203E-2,6.143471692E-3
4.104058320E-1,2.728612907E-2,-6.407365203E-2,9.197797626E-3
4.124056320E-1,3.034045361E-2,-6.529539078E-2,7.365202531E-3
4.144053650E-1,2.667526528E-2,-6.529539078E-2,4.921741318E-3
4.164050980E-1,2.728612907E-2,-6.651711464E-2,7.365202531E-3
4.184048310E-1,2.667526528E-2,-7.018230110E-2,8.586932905E-3
4.204045640E-1,2.606439777E-2,-6.834971160E-2,9.197797626E-3
4.224042640E-1,2.789699286E-2,-7.140403986E-2,8.586932905E-3
4.244039970E-1,2.484266832E-2,-7.262577116E-2,9.808663279E-3
4.264037970E-1,2.606439777E-2,-7.140403986E-2,9.197797626E-3
4.284035300E-1,2.484266832E-2,-7.140403986E-2,1.164125931E-2
4.304032630E-1,2.056661062E-2,-7.323663682E-2,1.225212403E-2
4.324030290E-1,2.484266832E-2,-7.079317421E-2,1.225212403E-2
4.344027620E-1,2.484266832E-2,-6.773884594E-2,1.469558571E-2
4.364024950E-1,2.301007323E-2,-6.773884594E-2,1.469558571E-2
4.384022610E-1,1.995574497E-2,-6.590624899E-2,1.652818173E-2
4.404019940E-1,2.056661062E-2,-6.285192817E-2,1.469558571E-2
4.424017940E-1,1.934488118E-2,-6.285192817E-2,1.530645043E-2
4.444015270E-1,1.812314987E-2,-6.224105880E-2,1.347385533E-2
4.464012600E-1,1.567968912E-2,-6.407365203E-2,1.225212403E-2
4.484009600E-1,1.629055478E-2,-6.712798029E-2,1.347385533E-2
4.504006930E-1,1.262536366E-2,-6.529539078E-2,1.408472005E-2
4.524004260E-1,1.140363235E-2,-6.590624899E-2,1.347385533E-2
4.544001590E-1,1.018190198E-2,-6.957144290E-2,1.041952893E-2
4.563998920E-1,1.201449800E-2,-6.773884594E-2,1.103039365E-2
4.583996920E-1,1.018190198E-2,-7.018230110E-2,1.041952893E-2
4.603994580E-1,1.018190198E-2,-7.140403986E-2,9.808663279E-3
4.623991910E-1,1.079276763E-2,-7.140403986E-2,7.365202531E-3
4.643989240E-1,1.079276763E-2,-7.323663682E-2,9.197797626E-3
4.663986570E-1,8.960171603E-3,-7.568009198E-2,9.197797626E-3
4.683983900E-1,1.323622838E-2,-7.506922632E-2,7.976067252E-3
4.703981230E-1,1.384709403E-2,-7.568009198E-2,6.143471692E-3
4.723978560E-1,1.506882347E-2,-7.384749502E-2,7.976067252E-3
4.743976560E-1,1.262536366E-2,-7.629096508E-2,6.143471692E-3
4.763973890E-1,1.690141857E-2,-7.262577116E-2,8.586932905E-3
4.783971220E-1,1.690141857E-2,-6.957144290E-2,1.041952893E-2
4.803968550E-1,1.873401366E-2,-6.773884594E-2,6.754336879E-3
4.823966210E-1,2.239920571E-2,-6.529539078E-2,1.041952893E-2
4.843963540E-1,1.995574497E-2,-5.979759991E-2,1.225212403E-2
4.863960540E-1,2.178834192E-2,-6.040846184E-2,1.103039365E-2
4.883958540E-1,2.117747627E-2,-5.796500295E-2,1.041952893E-2
4.903956540E-1,2.239920571E-2,-5.552154034E-2,1.041952893E-2
4.923960540E-1,2.239920571E-2,-5.552154034E-2,1.041952893E-2
4.943957870E-1,2.789699286E-2,-5.002375320E-2,1.286298968E-2
4.963955200E-1,2.728612907E-2,-4.880202562E-2,1.225212403E-2
4.983952530E-1,2.728612907E-2,-4.696942866E-2,1.286298968E-2
5.003949860E-1,2.606439777E-2,-5.124548823E-2,1.103039365E-2
5.023947190E-1,2.667526528E-2,-5.002375320E-2,1.347385533E-2
5.043945190E-1,2.606439777E-2,-5.307808146E-2,9.808663279E-3
5.063942520E-1,2.606439777E-2,-5.246721581E-2,1.103039365E-2
5.083939850E-1,2.911872417E-2,-5.429981276E-2,1.041952893E-2
5.103937180E-1,2.911872417E-2,-5.613240972E-2,9.197797626E-3
5.123934510E-1,2.972958982E-2,-5.857586488E-2,7.976067252E-3
5.143931840E-1,2.972958982E-2,-5.979759991E-2,8.586932905E-3
5.163929170E-1,2.972958982E-2,-6.101932749E-2,4.310875665E-3
5.183926500E-1,2.972958982E-2,-6.590624899E-2,6.143471692E-3
5.203924160E-1,2.972958982E-2,-6.590624899E-2,4.310875665E-3
5.223921490E-1,3.095132113E-2,-6.773884594E-2,2.478280338E-3
5.243918820E-1,2.972958982E-2,-7.384749502E-2,2.478280338E-3
5.263916150E-1,2.911872417E-2,-6.957144290E-2,-5.760459462E-4
5.283913150E-1,2.850786038E-2,-7.384749502E-2,-5.760459462E-4
5.303910480E-1,3.034045361E-2,-7.384749502E-2,-5.760459462E-4
5.323907810E-1,2.789699286E-2,-7.506922632E-2,-1.797776436E-3
5.343905140E-1,2.667526528E-2,-7.690182328E-2,-4.241236951E-3
5.363903140E-1,2.850786038E-2,-7.568009198E-2,-4.852102604E-3
5.383900470E-1,2.789699286E-2,-7.934528589E-2,-4.241236951E-3
5.403897800E-1,2.789699286E-2,-7.873442024E-2,-4.852102604E-3
5.423895130E-1,2.606439777E-2,-7.934528589E-2,-7.906428538E-3
5.443892460E-1,2.423180267E-2,-7.873442024E-2,-5.462967791E-3
5.463889790E-1,2.301007323E-2,-8.056701720E-2,-1.157161966E-2
5.483887120E-1,2.117747627E-2,-7.812355459E-2,-9.739024565E-3
5.503884450E-1,2.056661062E-2,-7.690182328E-2,-9.739024565E-3
5.523875110E-1,1.873401366E-2,-8.056701720E-2,-7.906428538E-3
5.543872440E-1,1.751228608E-2,-7.812355459E-2,-1.034989022E-2
5.563869770E-1,1.690141857E-2,-7.751268893E-2,-1.157161966E-2
5.583867100E-1,1.567968912E-2,-7.934528589E-2,-9.739024565E-3
5.603864430E-1,1.201449800E-2,-7.873442024E-2,-1.157161966E-2
5.623861760E-1,1.323622838E-2,-7.751268893E-2,-1.279335096E-2
5.643859090E-1,1.140363235E-2,-7.629096508E-2,-1.340421569E-2
5.663857090E-1,1.018190198E-2,-7.873442024E-2,-1.096075494E-2
5.683855420E-1,1.018190198E-2,-7.873442024E-2,-1.218248531E-2
5.703852750E-1,9.571036324E-3,-7.812355459E-2,-1.157161966E-2
5.723850080E-1,1.018190198E-2,-7.690182328E-2,-1.096075494E-2
5.743847410E-1,9.571036324E-3,-7.751268893E-2,-1.034989022E-2
5.763844740E-1,1.018190198E-2,-7.751268893E-2,-1.279335096E-2
5.783842070E-1,1.140363235E-2,-7.506922632E-2,-1.096075494E-2
5.803839730E-1,1.323622838E-2,-7.384749502E-2,-9.739024565E-3
5.823837730E-1,1.323622838E-2,-7.323663682E-2,-7.906428538E-3
5.843835060E-1,1.384709403E-2,-7.201489806E-2,-6.073832978E-3
5.863832390E-1,1.262536366E-2,-7.201489806E-2,-6.073832978E-3
5.883830050E-1,1.323622838E-2,-6.896057725E-2,-3.630371997E-3
5.903827380E-1,1.323622838E-2,-6.590624899E-2,-4.852102604E-3
5.923824710E-1,1.690141857E-2,-6.346279383E-2,-2.408641623E-3
5.943821710E-1,1.384709403E-2,-5.979759991E-2,-1.797776436E-3
5.963819040E-1,1.384709403E-2,-5.674327165E-2,1.867415034E-3
5.983817040E-1,1.262536366E-2,-5.613240972E-2,-1.186911250E-3
6.003814700E-1,1.384709403E-2,-5.124548823E-2,1.867415034E-3
6.023812360E-1,1.140363235E-2,-5.124548823E-2,3.089145757E-3
6.043810020E-1,1.079276763E-2,-5.002375320E-2,3.700010711E-3
6.063808020E-1,8.960171603E-3,-5.063461885E-2,2.478280338E-3
6.083805680E-1,9.571036324E-3,-4.635856301E-2,3.700010711E-3
6.103803340E-1,7.127576042E-3,-4.452596605E-2,3.089145757E-3
6.123801670E-1,6.516710389E-3,-4.269336909E-2,7.365202531E-3
6.143800000E-1,6.516710389E-3,-4.086077586E-2,4.310875665E-3
6.163797660E-1,5.905845203E-3,-4.024991393E-2,4.921741318E-3
6.183795320E-1,5.294980016E-3,-3.963904455E-2,9.808663279E-3
6.203792980E-1,1.629788545E-3,-3.841731697E-2,7.365202531E-3
6.223790640E-1,4.073249176E-3,-3.536298871E-2,9.808663279E-3
6.243788300E-1,1.629788545E-3,-3.414125741E-2,9.197797626E-3
6.263785960E-1,2.240653848E-3,-3.169779852E-2,1.103039365E-2
6.283783620E-1,1.018923242E-3,-2.986520156E-2,9.808663279E-3
6.303781950E-1,4.080579965E-4,-2.864347026E-2,1.103039365E-2
6.323779610E-1,-8.136724937E-4,-2.803260647E-2,1.286298968E-2
6.343777270E-1,4.080579965E-4,-2.558914572E-2,1.347385533E-2
6.363774930E-1,-2.035402926E-3,-2.497827820E-2,1.591731608E-2
6.383772590E-1,-2.646268113E-3,-2.497827820E-2,1.469558571E-2
6.403770250E-1,-3.257133532E-3,-2.192395367E-2,1.774991304E-2
6.423767910E-1,-5.089729093E-3,-2.131308801E-2,1.652818173E-2
6.443766240E-1,-6.311459467E-3,-2.009135857E-2,2.019337192E-2
6.463764240E-1,-6.311459467E-3,-1.948049292E-2,2.019337192E-2
6.483761900E-1,-5.700594280E-3,-1.398270484E-2,2.141510136E-2
6.503759560E-1,-8.144055493E-3,-1.215010975E-2,2.141510136E-2
6.523757220E-1,-9.365785867E-3,-8.484918624E-3,2.202596888E-2
6.543755220E-1,-1.058751717E-2,-9.095783345E-3,2.263683267E-2
6.563752880E-1,-1.180924661E-2,-6.041456945E-3,2.202596888E-2
6.583750540E-1,-1.119838096E-2,-1.765400521E-3,2.263683267E-2
6.603748540E-1,-1.242011227E-2,-2.376265824E-3,2.446942963E-2
6.623746540E-1,-1.180924661E-2,-1.154535334E-3,2.752375603E-2
6.643743870E-1,-1.364184264E-2,1.288925647E-3,2.508029342E-2
6.663741200E-1,-1.303097699E-2,3.121521557E-3,2.569116093E-2
6.683738200E-1,-1.486357301E-2,3.121521557E-3,2.630202472E-2
6.703735530E-1,-1.303097699E-2,4.343251698E-3,2.752375603E-2
6.723732860E-1,-1.242011227E-2,8.619308472E-3,2.508029342E-2
6.743730190E-1,-1.180924661E-2,7.397578098E-3,2.691289037E-2
6.763728190E-1,-1.058751717E-2,9.230174124E-3,2.691289037E-2
6.783725520E-1,-1.119838096E-2,1.289536618E-2,2.752375603E-2
6.803722850E-1,-9.976651520E-3,1.106277015E-2,2.874548547E-2
6.823720180E-1,-8.754921146E-3,1.106277015E-2,2.508029342E-2
6.843717510E-1,-5.700594280E-3,1.472796034E-2,2.508029342E-2
6.863714840E-1,-6.922325119E-3,1.533882599E-2,2.446942963E-2
6.883712170E-1,-5.700594280E-3,1.594969258E-2,2.569116093E-2
6.903709500E-1,-6.311459467E-3,1.472796034E-2,2.569116093E-2
6.923707500E-1,-2.646268113E-3,1.594969258E-2,2.202596888E-2
6.943704830E-1,-2.646268113E-3,1.411709562E-2,2.324769832E-2
6.963702160E-1,-1.424537739E-3,1.167363487E-2,2.508029342E-2
6.983699490E-1,-2.646268113E-3,1.167363487E-2,2.324769832E-2
7.003696820E-1,-1.424537739E-3,1.106277015E-2,2.446942963E-2
7.023694150E-1,-1.424537739E-3,8.619308472E-3,2.202596888E-2
7.043691480E-1,-2.035402926E-3,1.106277015E-2,2.202596888E-2
7.063688810E-1,4.080579965E-4,9.230174124E-3,2.080423757E-2
7.083686810E-1,4.080579965E-4,7.397578098E-3,2.202596888E-2
7.103684140E-1,4.080579965E-4,5.564982537E-3,2.202596888E-2
7.123681470E-1,-2.028072631E-4,5.564982537E-3,1.897164062E-2
7.143678800E-1,-2.035402926E-3,2.510656137E-3,1.897164062E-2
7.163676130E-1,1.629788545E-3,4.954117350E-3,2.202596888E-2
7.183673460E-1,1.629788545E-3,6.786712445E-3,1.774991304E-2
7.203670790E-1,4.080579965E-4,5.564982537E-3,2.019337192E-2
7.223668120E-1,1.629788545E-3,5.564982537E-3,1.836077683E-2
7.243666120E-1,1.629788545E-3,5.564982537E-3,1.836077683E-2
7.263663450E-1,1.629788545E-3,7.397578098E-3,1.836077683E-2
7.283660780E-1,2.240653848E-3,6.175847724E-3,1.836077683E-2
7.303658110E-1,1.629788545E-3,6.175847724E-3,1.958250813E-2
7.323655110E-1,-2.028072631E-4,9.230174124E-3,1.713904552E-2
7.343652440E-1,2.851518802E-3,9.230174124E-3,1.774991304E-2
7.363649770E-1,1.629788545E-3,8.008443750E-3,1.713904552E-2
7.383647430E-1,5.294980016E-3,9.841038845E-3,1.591731608E-2
7.403645430E-1,5.905845203E-3,9.841038845E-3,1.652818173E-2
7.423642760E-1,5.294980016E-3,1.045190450E-2,1.774991304E-2
7.443640090E-1,2.240653848E-3,1.167363487E-2,1.836077683E-2
7.463637420E-1,5.294980016E-3,1.228450052E-2,1.897164062E-2
7.483634750E-1,2.851518802E-3,1.472796034E-2,1.774991304E-2
7.503632080E-1,3.462384222E-3,1.289536618E-2,1.836077683E-2
7.523629410E-1,1.018923242E-3,1.167363487E-2,2.080423757E-2
7.543627070E-1,1.018923242E-3,1.228450052E-2,1.652818173E-2
7.563624400E-1,1.629788545E-3,1.045190450E-2,1.836077683E-2
7.583621730E-1,1.018923242E-3,1.106277015E-2,1.897164062E-2
7.603619060E-1,1.629788545E-3,1.045190450E-2,1.652818173E-2
7.623616390E-1,2.240653848E-3,1.167363487E-2,1.713904552E-2
7.643613720E-1,2.240653848E-3,1.228450052E-2,1.591731608E-2
7.663611380E-1,4.073249176E-3,1.045190450E-2,1.713904552E-2
7.683608710E-1,3.462384222E-3,9.230174124E-3,1.897164062E-2
7.703606710E-1,3.462384222E-3,9.841038845E-3,1.652818173E-2
7.723604040E-1,2.851518802E-3,7.397578098E-3,1.774991304E-2
7.743601370E-1,5.294980016E-3,3.121521557E-3,1.713904552E-2
7.763598370E-1,7.738440763E-3,1.899790834E-3,1.897164062E-2
7.783595700E-1,6.516710389E-3,-1.765400521E-3,1.591731608E-2
7.803593030E-1,7.127576042E-3,-7.263187785E-3,1.530645043E-2
7.823590360E-1,1.018190198E-2,-6.041456945E-3,1.713904552E-2
7.843587690E-1,1.018190198E-2,-7.263187785E-3,1.652818173E-2
7.863585690E-1,8.960171603E-3,-7.874052972E-3,1.713904552E-2
7.883583350E-1,1.018190198E-2,-7.263187785E-3,1.591731608E-2
7.903580680E-1,1.201449800E-2,-7.874052972E-3,1.774991304E-2
7.923578340E-1,1.140363235E-2,-6.652322132E-3,1.408472005E-2
7.943575670E-1,1.079276763E-2,-9.095783345E-3,1.469558571E-2
7.963573000E-1,1.140363235E-2,-9.095783345E-3,1.469558571E-2
7.983570660E-1,1.079276763E-2,-9.706648998E-3,1.469558571E-2
8.003567990E-1,1.201449800E-2,-1.031751465E-2,1.530645043E-2
8.023565990E-1,8.960171603E-3,-1.398270484E-2,1.408472005E-2
8.043563320E-1,1.140363235E-2,-1.276097447E-2,1.347385533E-2
8.063560650E-1,1.201449800E-2,-1.398270484E-2,1.530645043E-2
8.083557980E-1,1.201449800E-2,-1.398270484E-2,1.530645043E-2
8.103555310E-1,1.018190198E-2,-1.398270484E-2,1.591731608E-2
8.123552640E-1,1.140363235E-2,-1.520443615E-2,1.591731608E-2
8.143549970E-1,1.079276763E-2,-1.337184012E-2,1.530645043E-2
8.163547970E-1,1.140363235E-2,-9.095783345E-3,1.469558571E-2
8.183545970E-1,7.738440763E-3,-1.092837937E-2,1.530645043E-2
8.203543300E-1,1.079276763E-2,-6.652322132E-3,1.041952893E-2
8.223540630E-1,1.018190198E-2,-6.041456945E-3,1.469558571E-2
8.243537960E-1,1.079276763E-2,-4.819727037E-3,1.347385533E-2
8.263535290E-1,8.349305950E-3,-5.430592224E-3,1.347385533E-2
8.283532620E-1,8.349305950E-3,-2.376265824E-3,1.225212403E-2
8.303529950E-1,8.960171603E-3,-1.154535334E-3,9.808663279E-3
8.323527950E-1,1.201449800E-2,-1.154535334E-3,1.347385533E-2
8.343525280E-1,1.079276763E-2,-5.436700303E-4,1.225212403E-2
8.363522610E-1,1.079276763E-2,-5.436700303E-4,1.164125931E-2
8.383519940E-1,1.079276763E-2,-2.376265824E-3,1.041952893E-2
8.403517270E-1,1.079276763E-2,-1.765400521E-3,1.041952893E-2
8.423514600E-1,1.079276763E-2,-2.987131011E-3,1.469558571E-2
8.443511930E-1,1.262536366E-2,-1.765400521E-3,9.808663279E-3
8.463509260E-1,1.262536366E-2,-2.987131011E-3,8.586932905E-3
8.483507260E-1,1.140363235E-2,-2.987131011E-3,7.365202531E-3
8.503504590E-1,1.323622838E-2,-5.436700303E-4,7.976067252E-3
8.523501590E-1,8.960171603E-3,-5.436700303E-4,7.976067252E-3
8.543498920E-1,1.079276763E-2,6.719517842E-5,8.586932905E-3
8.563496580E-1,9.571036324E-3,6.719517842E-5,7.976067252E-3
8.583493910E-1,1.079276763E-2,-2.376265824E-3,9.197797626E-3
8.603491240E-1,9.571036324E-3,-3.597996198E-3,1.103039365E-2
8.623488570E-1,9.571036324E-3,-2.376265824E-3,6.754336879E-3
8.643486570E-1,9.571036324E-3,-4.208861385E-3,7.365202531E-3
8.663483900E-1,7.738440763E-3,-3.597996198E-3,6.143471692E-3
8.683481230E-1,7.738440763E-3,-3.597996198E-3,8.586932905E-3
8.703478560E-1,7.127576042E-3,6.719517842E-5,7.976067252E-3
8.723475890E-1,6.516710389E-3,-5.436700303E-4,5.532606505E-3
8.743473550E-1,6.516710389E-3,6.780604017E-4,5.532606505E-3
8.763470880E-1,7.127576042E-3,3.121521557E-3,5.532606505E-3
8.783468210E-1,5.294980016E-3,2.510656137E-3,4.921741318E-3
8.803466210E-1,7.127576042E-3,3.732386511E-3,4.921741318E-3
8.823463540E-1,4.073249176E-3,3.732386511E-3,3.700010711E-3
8.843460540E-1,2.851518802E-3,3.121521557E-3,3.089145757E-3
8.863457870E-1,3.462384222E-3,5.564982537E-3,1.256549847E-3
8.883455200E-1,3.462384222E-3,3.121521557E-3,2.478280338E-3
8.903452530E-1,2.851518802E-3,6.175847724E-3,6.456845440E-4
8.923449860E-1,3.462384222E-3,4.343251698E-3,-5.760459462E-4
8.943447860E-1,2.240653848E-3,4.954117350E-3,-1.797776436E-3
8.963446190E-1,2.851518802E-3,4.954117350E-3,-1.797776436E-3
8.983443520E-1,1.629788545E-3,4.343251698E-3,-5.462967791E-3
9.003440850E-1,1.629788545E-3,4.343251698E-3,-7.295563817E-3
9.023438180E-1,1.018923242E-3,4.343251698E-3,-8.517294191E-3
9.043435510E-1,-2.028072631E-4,2.510656137E-3,-7.295563817E-3
9.063432840E-1,-8.136724937E-4,1.899790834E-3,-9.128159843E-3
9.083430170E-1,-1.424537739E-3,4.343251698E-3,-1.157161966E-2
9.103428170E-1,-1.424537739E-3,1.899790834E-3,-1.218248531E-2
9.123427170E-1,-1.424537739E-3,1.899790834E-3,-1.340421569E-2
9.143424500E-1,-2.035402926E-3,6.780604017E-4,-1.768027246E-2
9.163421500E-1,-8.136724937E-4,6.780604017E-4,-1.829113811E-2
9.183418830E-1,-1.424537739E-3,-5.436700303E-4,-1.951286942E-2
9.203416160E-1,-1.424537739E-3,-5.436700303E-4,-2.134546451E-2
9.223413160E-1,-8.136724937E-4,-4.819727037E-3,-2.378892526E-2
9.243410490E-1,-1.424537739E-3,-4.819727037E-3,-2.378892526E-2
9.263408490E-1,-8.136724937E-4,-6.652322132E-3,-2.439978905E-2
9.283405820E-1,4.080579965E-4,-7.874052972E-3,-2.806498110E-2
9.303403150E-1,1.629788545E-3,-1.092837937E-2,-2.806498110E-2
9.323400480E-1,1.018923242E-3,-1.398270484E-2,-3.050844371E-2
9.343397810E-1,2.851518802E-3,-1.153924502E-2,-3.234103695E-2
9.363395140E-1,3.462384222E-3,-1.703703031E-2,-3.173017129E-2
9.383392470E-1,4.684114829E-3,-1.703703031E-2,-3.539536521E-2
9.403389800E-1,5.294980016E-3,-1.886962727E-2,-3.600623086E-2
9.423387800E-1,6.516710389E-3,-1.948049292E-2,-3.844969347E-2
9.443385130E-1,7.738440763E-3,-2.192395367E-2,-3.722796217E-2
9.468322300E-1,8.349305950E-3,-2.314568311E-2,-3.844969347E-2
9.488319630E-1,8.349305950E-3,-2.620000951E-2,-3.783882409E-2
9.508316960E-1,1.201449800E-2,-2.742174082E-2,-4.211488366E-2
9.528314290E-1,1.201449800E-2,-3.108693287E-2,-4.272574559E-2
9.548311620E-1,1.506882347E-2,-3.230866417E-2,-4.272574559E-2
9.568308950E-1,1.506882347E-2,-3.597385436E-2,-4.272574559E-2
9.588306950E-1,1.384709403E-2,-3.475212306E-2,-4.333661124E-2
9.608304280E-1,1.812314987E-2,-4.208250716E-2,-4.394748062E-2
9.628301610E-1,1.873401366E-2,-4.086077586E-2,-4.272574559E-2
9.648298940E-1,1.812314987E-2,-4.391510412E-2,-4.211488366E-2
9.668296270E-1,1.934488118E-2,-4.330423847E-2,-4.394748062E-2
9.688293600E-1,1.934488118E-2,-4.758029431E-2,-4.455834255E-2
9.708290930E-1,1.995574497E-2,-4.941289127E-2,-4.028228670E-2
9.728287590E-1,1.812314987E-2,-4.513683170E-2,-4.455834255E-2
9.748285590E-1,1.690141857E-2,-4.635856301E-2,-4.455834255E-2
9.768282920E-1,1.873401366E-2,-4.452596605E-2,-4.455834255E-2
9.788280250E-1,1.751228608E-2,-4.452596605E-2,-4.578007385E-2
9.808277580E-1,1.690141857E-2,-4.819115996E-2,-4.639093950E-2
9.828275240E-1,1.567968912E-2,-4.574770108E-2,-4.883439839E-2
9.848272570E-1,1.262536366E-2,-4.758029431E-2,-4.761267081E-2
9.868269900E-1,1.323622838E-2,-4.819115996E-2,-5.188872665E-2
9.888267900E-1,1.140363235E-2,-5.124548823E-2,-5.127786100E-2
9.908265900E-1,1.262536366E-2,-5.491067469E-2,-5.249959230E-2
9.928262900E-1,1.079276763E-2,-5.796500295E-2,-5.677565187E-2
9.948260230E-1,1.018190198E-2,-6.163019687E-2,-5.433218926E-2
9.968257560E-1,8.960171603E-3,-6.651711464E-2,-6.044084206E-2
9.988254890E-1,5.294980016E-3,-7.079317421E-2,-6.288430095E-2
1.000825222E0,4.684114829E-3,-7.568009198E-2,-6.532775611E-2
1.002824955E0,-2.028072631E-4,-7.812355459E-2,-6.654949486E-2
1.004824788E0,-2.646268113E-3,-7.995615155E-2,-7.143642008E-2
1.006824554E0,-3.867998952E-3,-8.178874850E-2,-7.082554698E-2
1.008824320E0,-8.754921146E-3,-8.423221111E-2,-7.387987524E-2
1.010824086E0,-1.242011227E-2,-8.606480062E-2,-7.510160655E-2
1.012823852E0,-1.364184264E-2,-8.728653938E-2,-7.265814394E-2
1.014823618E0,-1.669616811E-2,-8.850826323E-2,-7.449074090E-2
1.016823384E0,-2.036136016E-2,-9.339518845E-2,-7.571247220E-2
1.018823150E0,-1.791789941E-2,-9.461691976E-2,-7.876680046E-2
1.020822983E0,-2.219395712E-2,-9.767124057E-2,-7.449074090E-2
1.022822749E0,-2.219395712E-2,-1.013364345E-1,-7.387987524E-2
1.024822515E0,-2.219395712E-2,-1.007255688E-1,-7.326900959E-2
1.026822281E0,-2.341568656E-2,-1.056124941E-1,-7.021468133E-2
1.028822047E0,-2.219395712E-2,-1.068342179E-1,-6.899295002E-2
1.030821813E0,-2.402655222E-2,-1.080559567E-1,-6.838208437E-2
1.032821579E0,-2.158309147E-2,-1.068342179E-1,-6.532775611E-2
1.034821345E0,-1.975049637E-2,-1.043907627E-1,-6.105170399E-2
1.036821178E0,-1.975049637E-2,-1.043907627E-1,-6.044084206E-2
1.038820944E0,-2.158309147E-2,-1.025581658E-1,-5.738651380E-2
1.040820710E0,-1.975049637E-2,-9.644951671E-2,-5.188872665E-2
1.042820476E0,-1.364184264E-2,-9.278432280E-2,-4.944526777E-2
1.044820209E0,-1.119838096E-2,-8.728653938E-2,-4.455834255E-2
1.046819975E0,-6.922325119E-3,-7.934528589E-2,-4.333661124E-2
1.048819741E0,-8.754921146E-3,-7.629096508E-2,-4.150401801E-2
1.050819507E0,-6.311459467E-3,-7.079317421E-2,-3.844969347E-2
1.052819373E0,-1.424537739E-3,-6.407365203E-2,-3.478449956E-2
1.054819139E0,-2.035402926E-3,-6.040846184E-2,-3.173017129E-2
1.056818905E0,1.629788545E-3,-5.063461885E-2,-2.684325166E-2
1.058818671E0,4.073249176E-3,-4.513683170E-2,-2.134546451E-2
1.060818437E0,3.462384222E-3,-4.330423847E-2,-1.951286942E-2
1.062818203E0,7.127576042E-3,-3.841731697E-2,-1.645854115E-2
1.064817969E0,8.960171603E-3,-3.291952983E-2,-9.739024565E-3
1.066817769E0,7.127576042E-3,-3.230866417E-2,-7.295563817E-3
1.068817569E0,8.960171603E-3,-2.986520156E-2,-3.630371997E-3
1.070817302E0,9.571036324E-3,-2.742174082E-2,1.867415034E-3
1.072817035E0,1.018190198E-2,-2.925433777E-2,6.143471692E-3
1.074816768E0,1.140363235E-2,-2.803260647E-2,1.225212403E-2
1.076816501E0,1.201449800E-2,-2.681087516E-2,1.591731608E-2
1.078816234E0,1.262536366E-2,-2.803260647E-2,1.897164062E-2
1.080815967E0,1.506882347E-2,-2.620000951E-2,2.202596888E-2
1.082815733E0,1.323622838E-2,-2.803260647E-2,2.324769832E-2
1.084815466E0,1.201449800E-2,-2.864347026E-2,2.935635112E-2
1.086815199E0,1.323622838E-2,-2.986520156E-2,3.179981187E-2
1.088814932E0,1.079276763E-2,-2.925433777E-2,3.241067752E-2
1.090814665E0,8.349305950E-3,-3.108693287E-2,3.668673337E-2
1.092814398E0,8.960171603E-3,-3.353039175E-2,3.607587144E-2
1.094814131E0,5.905845203E-3,-3.414125741E-2,4.157365486E-2
1.096813864E0,5.294980016E-3,-3.536298871E-2,3.851933032E-2
1.098813664E0,1.629788545E-3,-3.780645132E-2,4.584971070E-2
1.100813397E0,1.018923242E-3,-3.902817890E-2,4.584971070E-2
1.102813130E0,-2.028072631E-4,-3.902817890E-2,4.707144201E-2
1.104812863E0,-4.478864372E-3,-3.841731697E-2,5.318009481E-2
1.106812596E0,-3.867998952E-3,-3.719558194E-2,5.195836723E-2
1.108812329E0,-7.533190306E-3,-3.963904455E-2,5.318009481E-2
1.110812062E0,-1.242011227E-2,-3.963904455E-2,5.806701630E-2
1.112811795E0,-9.976651520E-3,-4.024991393E-2,5.867788196E-2
1.114811595E0,-1.364184264E-2,-3.963904455E-2,5.928875133E-2
1.116811328E0,-1.852876507E-2,-3.841731697E-2,6.234307587E-2
1.118811061E0,-1.791789941E-2,-4.024991393E-2,6.417566538E-2
1.120810794E0,-2.158309147E-2,-3.963904455E-2,6.417566538E-2
1.122810527E0,-2.219395712E-2,-4.208250716E-2,6.417566538E-2
1.124810260E0,-2.647001296E-2,-4.391510412E-2,6.845173240E-2
1.126809993E0,-2.769174427E-2,-4.330423847E-2,6.600826234E-2
1.128809726E0,-2.830260806E-2,-4.513683170E-2,6.661913544E-2
1.130809526E0,-2.952433936E-2,-4.574770108E-2,6.784085929E-2
1.132809259E0,-3.074606881E-2,-4.696942866E-2,6.906259060E-2
1.134808992E0,-3.013520502E-2,-4.696942866E-2,7.211691886E-2
1.136808725E0,-3.196780011E-2,-5.002375320E-2,6.906259060E-2
1.138808458E0,-3.196780011E-2,-5.063461885E-2,7.150605321E-2
1.140808191E0,-3.074606881E-2,-4.941289127E-2,6.967345625E-2
1.142807924E0,-2.952433936E-2,-5.063461885E-2,6.906259060E-2
1.144807724E0,-2.830260806E-2,-4.819115996E-2,7.028432190E-2
1.146807524E0,-2.708087675E-2,-4.941289127E-2,7.089518756E-2
1.148807257E0,-2.708087675E-2,-4.880202562E-2,7.394951582E-2
1.150806990E0,-2.463741601E-2,-5.124548823E-2,7.028432190E-2
1.152806723E0,-2.097222582E-2,-4.941289127E-2,7.028432190E-2
1.154806456E0,-2.219395712E-2,-5.063461885E-2,7.089518756E-2
1.156806189E0,-1.852876507E-2,-4.880202562E-2,7.211691886E-2
1.158805922E0,-1.547443867E-2,-5.063461885E-2,7.150605321E-2
1.160805722E0,-1.547443867E-2,-5.185635015E-2,7.028432190E-2
1.162805522E0,-1.119838096E-2,-4.880202562E-2,6.967345625E-2
1.164805288E0,-8.144055493E-3,-5.063461885E-2,6.906259060E-2
1.166805021E0,-7.533190306E-3,-5.063461885E-2,6.906259060E-2
1.168804754E0,-3.867998952E-3,-5.063461885E-2,6.722999364E-2
1.170804487E0,1.629788545E-3,-5.552154034E-2,6.600826234E-2
1.172804220E0,-2.028072631E-4,-5.307808146E-2,7.089518756E-2
1.174803953E0,5.294980016E-3,-5.429981276E-2,6.600826234E-2
1.176803753E0,8.349305950E-3,-5.735413730E-2,6.600826234E-2
1.178803486E0,8.349305950E-3,-5.735413730E-2,6.356480718E-2
1.180803219E0,1.262536366E-2,-6.101932749E-2,6.234307587E-2
1.182802952E0,1.323622838E-2,-6.590624899E-2,6.234307587E-2
1.184802685E0,1.384709403E-2,-6.773884594E-2,6.112134457E-2
1.186802418E0,1.506882347E-2,-6.957144290E-2,6.112134457E-2
1.188802151E0,1.934488118E-2,-7.384749502E-2,5.989961326E-2
1.190801851E0,1.873401366E-2,-7.629096508E-2,5.867788196E-2
1.192801651E0,2.178834192E-2,-7.812355459E-2,5.195836723E-2
1.194801384E0,2.362093702E-2,-8.362134546E-2,5.318009481E-2
1.196801117E0,2.423180267E-2,-8.545394242E-2,5.134750158E-2
1.198800850E0,2.423180267E-2,-8.972999454E-2,5.012577027E-2
1.200800583E0,2.728612907E-2,-9.217345715E-2,5.073663220E-2
1.202800349E0,2.606439777E-2,-9.461691976E-2,4.768230766E-2
1.204800082E0,2.728612907E-2,-9.950383753E-2,4.584971070E-2
1.206799815E0,2.850786038E-2,-1.031690314E-1,4.157365486E-2
1.208799615E0,2.972958982E-2,-1.025581658E-1,4.279538617E-2
1.210799348E0,2.972958982E-2,-1.050016284E-1,3.668673337E-2
1.212799081E0,3.095132113E-2,-1.098885462E-1,3.607587144E-2
1.214798814E0,2.972958982E-2,-1.074450910E-1,3.485413641E-2
1.216798547E0,3.034045361E-2,-1.086668149E-1,2.935635112E-2
1.218798280E0,3.034045361E-2,-1.123320088E-1,2.691289037E-2
1.220797980E0,3.095132113E-2,-1.086668149E-1,2.813461982E-2
1.222797713E0,2.972958982E-2,-1.117211431E-1,2.202596888E-2
1.224797513E0,2.972958982E-2,-1.159972027E-1,2.141510136E-2
1.226797279E0,3.095132113E-2,-1.153863370E-1,1.958250813E-2
1.228797045E0,3.156218678E-2,-1.166080683E-1,1.408472005E-2
1.230796811E0,3.156218678E-2,-1.147754714E-1,1.408472005E-2
1.232796577E0,3.034045361E-2,-1.190515310E-1,1.164125931E-2
1.234796343E0,3.156218678E-2,-1.184406579E-1,7.976067252E-3
1.236796109E0,3.095132113E-2,-1.227167174E-1,6.754336879E-3
1.238795942E0,3.034045361E-2,-1.251601726E-1,3.700010711E-3
1.240795775E0,2.850786038E-2,-1.288253814E-1,6.456845440E-4
1.242795641E0,2.972958982E-2,-1.263819188E-1,1.867415034E-3
1.244795507E0,2.850786038E-2,-1.269927770E-1,-3.019507043E-3
1.246795373E0,2.728612907E-2,-1.263819188E-1,-8.517294191E-3
1.248795239E0,2.850786038E-2,-1.288253814E-1,-9.128159843E-3
1.250795139E0,2.728612907E-2,-1.294362396E-1,-1.034989022E-2
1.252795005E0,2.850786038E-2,-1.276036352E-1,-1.523681171E-2
1.254794938E0,3.034045361E-2,-1.282145083E-1,-1.401508134E-2
1.256794871E0,2.911872417E-2,-1.288253814E-1,-1.584767736E-2
1.258794804E0,2.850786038E-2,-1.257710457E-1,-2.012373321E-2
1.260794737E0,3.034045361E-2,-1.282145083E-1,-2.195633017E-2
1.262794670E0,3.095132113E-2,-1.269927770E-1,-2.623238601E-2
1.264794603E0,3.095132113E-2,-1.294362396E-1,-2.745411731E-2
1.266794536E0,3.217304870E-2,-1.263819188E-1,-2.928671241E-2
1.268794469E0,3.339478374E-2,-1.276036352E-1,-3.173017129E-2
1.270794469E0,3.522738069E-2,-1.312688291E-1,-3.356277198E-2
1.272794435E0,3.644910827E-2,-1.245493144E-1,-3.295190260E-2
1.274794401E0,3.705997020E-2,-1.269927770E-1,-3.661709651E-2
1.276794334E0,3.705997020E-2,-1.263819188E-1,-3.906055540E-2
1.278794300E0,3.889256716E-2,-1.294362396E-1,-4.089314863E-2
1.280794300E0,3.889256716E-2,-1.294362396E-1,-4.150401801E-2
1.282794266E0,4.011429846E-2,-1.306579709E-1,-4.150401801E-2
1.284794232E0,4.072516412E-2,-1.300470978E-1,-4.455834255E-2
1.286794232E0,4.194689542E-2,-1.288253814E-1,-4.516920820E-2
1.288794198E0,4.439035431E-2,-1.294362396E-1,-4.394748062E-2
1.290794164E0,4.316862673E-2,-1.306579709E-1,-4.455834255E-2
1.292794130E0,4.316862673E-2,-1.331014186E-1,-4.761267081E-2
1.294794096E0,4.377949238E-2,-1.318797022E-1,-4.761267081E-2
1.296794062E0,4.561208561E-2,-1.294362396E-1,-4.883439839E-2
1.298794028E0,4.683381692E-2,-1.312688291E-1,-4.883439839E-2
1.300793994E0,4.805554450E-2,-1.312688291E-1,-4.944526777E-2
1.302793927E0,4.927727953E-2,-1.306579709E-1,-4.883439839E-2
1.304793827E0,4.927727953E-2,-1.312688291E-1,-4.944526777E-2
1.306793727E0,5.110987648E-2,-1.300470978E-1,-4.883439839E-2
1.308793627E0,4.988814145E-2,-1.282145083E-1,-4.944526777E-2
1.310793493E0,5.049900711E-2,-1.251601726E-1,-4.761267081E-2
1.312793393E0,5.049900711E-2,-1.245493144E-1,-4.455834255E-2
1.314793293E0,4.988814145E-2,-1.251601726E-1,-4.455834255E-2
1.316793193E0,5.049900711E-2,-1.227167174E-1,-4.578007385E-2
1.318793093E0,5.233160406E-2,-1.202732548E-1,-4.272574559E-2
1.320792993E0,4.988814145E-2,-1.159972027E-1,-4.333661124E-2
1.322792893E0,5.172073841E-2,-1.153863370E-1,-4.150401801E-2
1.324792793E0,5.110987648E-2,-1.092776880E-1,-4.211488366E-2
1.326792693E0,4.988814145E-2,-1.068342179E-1,-4.211488366E-2
1.328792593E0,4.866641387E-2,-1.031690314E-1,-3.906055540E-2
1.330792493E0,4.866641387E-2,-1.013364345E-1,-3.478449956E-2
1.332792426E0,4.805554450E-2,-1.001147106E-1,-3.539536521E-2
1.334792359E0,4.927727953E-2,-9.522778541E-2,-3.417363390E-2
1.336792225E0,4.622295126E-2,-8.850826323E-2,-3.356277198E-2
1.338792091E0,4.622295126E-2,-9.095172584E-2,-3.173017129E-2
1.340791957E0,4.622295126E-2,-8.789739758E-2,-3.111930937E-2
1.342791823E0,4.622295126E-2,-8.301047236E-2,-2.867584862E-2
1.344791689E0,4.377949238E-2,-8.362134546E-2,-2.745411731E-2
1.346791555E0,4.377949238E-2,-8.117788285E-2,-2.745411731E-2
1.348791455E0,4.255775735E-2,-7.812355459E-2,-2.378892526E-2
1.350791288E0,4.500121996E-2,-7.568009198E-2,-2.439978905E-2
1.352791121E0,4.072516412E-2,-7.445836812E-2,-2.623238601E-2
1.354790954E0,4.011429846E-2,-7.140403986E-2,-2.012373321E-2
1.356790787E0,3.828170523E-2,-7.201489806E-2,-2.134546451E-2
1.358790620E0,3.828170523E-2,-6.896057725E-2,-2.195633017E-2
1.360790453E0,3.705997020E-2,-6.712798029E-2,-1.890200190E-2
1.362790286E0,3.767083585E-2,-6.834971160E-2,-1.890200190E-2
1.364790152E0,3.828170523E-2,-6.407365203E-2,-1.645854115E-2
1.366789952E0,3.950343281E-2,-6.163019687E-2,-1.462594699E-2
1.368789752E0,3.767083585E-2,-6.224105880E-2,-1.340421569E-2
1.370789585E0,3.767083585E-2,-6.163019687E-2,-1.462594699E-2
1.372789385E0,3.889256716E-2,-6.163019687E-2,-1.340421569E-2
1.374789151E0,4.133602977E-2,-6.101932749E-2,-1.096075494E-2
1.376788951E0,4.316862673E-2,-5.979759991E-2,-1.218248531E-2
1.378788751E0,4.194689542E-2,-6.224105880E-2,-9.128159843E-3
1.380788551E0,4.377949238E-2,-6.285192817E-2,-9.128159843E-3
1.382788284E0,4.622295126E-2,-5.979759991E-2,-9.128159843E-3
1.384788017E0,4.683381692E-2,-6.040846184E-2,-1.096075494E-2
1.386787750E0,4.805554450E-2,-6.285192817E-2,-6.684698630E-3
1.388787483E0,5.049900711E-2,-6.163019687E-2,-4.852102604E-3
1.390787216E0,5.233160406E-2,-6.101932749E-2,-6.073832978E-3
1.392787616E0,5.233160406E-2,-6.101932749E-2,-6.073832978E-3
1.394787349E0,5.721852556E-2,-5.979759991E-2,-1.797776436E-3
1.396787182E0,5.660766363E-2,-5.918673426E-2,-3.019507043E-3
1.398786915E0,6.149458140E-2,-5.735413730E-2,3.481932072E-5
1.400786648E0,6.088371575E-2,-5.918673426E-2,1.256549847E-3
1.402786381E0,6.149458140E-2,-5.857586488E-2,-1.186911250E-3
1.404786114E0,6.210544705E-2,-6.040846184E-2,-5.760459462E-4
1.406785847E0,6.149458140E-2,-5.918673426E-2,2.478280338E-3
1.408785580E0,6.271631271E-2,-5.735413730E-2,2.478280338E-3
1.410785380E0,6.393804401E-2,-5.796500295E-2,3.089145757E-3
1.412785146E0,6.332717836E-2,-6.040846184E-2,5.532606505E-3
1.414784879E0,6.454890966E-2,-5.796500295E-2,5.532606505E-3
1.416784612E0,6.393804401E-2,-6.040846184E-2,5.532606505E-3
1.418784345E0,6.577064097E-2,-5.857586488E-2,7.365202531E-3
1.420784045E0,6.332717836E-2,-6.040846184E-2,9.197797626E-3
1.422783778E0,6.271631271E-2,-5.918673426E-2,9.808663279E-3
1.424783511E0,6.271631271E-2,-5.491067469E-2,9.808663279E-3
1.426783311E0,6.332717836E-2,-5.613240972E-2,9.808663279E-3
1.428783044E0,6.515977532E-2,-5.307808146E-2,9.808663279E-3
1.430782777E0,6.271631271E-2,-5.246721581E-2,1.286298968E-2
1.432782510E0,6.271631271E-2,-5.246721581E-2,1.408472005E-2
1.434782276E0,6.210544705E-2,-4.758029431E-2,1.408472005E-2
1.436782009E0,6.149458140E-2,-4.696942866E-2,1.347385533E-2
1.438781742E0,6.393804401E-2,-4.696942866E-2,1.469558571E-2
1.440781475E0,5.966198817E-2,-4.819115996E-2,1.652818173E-2
1.442781275E0,6.149458140E-2,-4.819115996E-2,1.530645043E-2
1.444780975E0,6.027285382E-2,-4.819115996E-2,1.652818173E-2
1.446780708E0,5.905112252E-2,-4.819115996E-2,1.713904552E-2
1.448780441E0,5.721852556E-2,-5.246721581E-2,2.019337192E-2
1.450780174E0,5.905112252E-2,-4.696942866E-2,1.774991304E-2
1.452779240E0,5.477506667E-2,-5.002375320E-2,2.019337192E-2
1.454778973E0,5.599679425E-2,-4.941289127E-2,1.713904552E-2
1.456778706E0,5.660766363E-2,-5.002375320E-2,1.836077683E-2
1.458778506E0,5.477506667E-2,-5.002375320E-2,1.897164062E-2
1.460778239E0,5.355333164E-2,-4.941289127E-2,2.202596888E-2
1.462777972E0,5.294246972E-2,-4.941289127E-2,2.080423757E-2
1.464777705E0,5.110987648E-2,-4.635856301E-2,2.080423757E-2
1.466777438E0,5.172073841E-2,-4.819115996E-2,1.958250813E-2
1.468777171E0,5.049900711E-2,-4.941289127E-2,1.958250813E-2
1.470776904E0,5.233160406E-2,-4.819115996E-2,2.019337192E-2
1.472776670E0,5.049900711E-2,-4.819115996E-2,2.019337192E-2
1.474776470E0,5.233160406E-2,-4.758029431E-2,2.080423757E-2
1.476776203E0,5.233160406E-2,-4.513683170E-2,2.202596888E-2
1.478775936E0,5.110987648E-2,-4.635856301E-2,2.202596888E-2
1.480775702E0,4.927727953E-2,-4.880202562E-2,2.019337192E-2
1.482775402E0,4.744468257E-2,-4.574770108E-2,2.263683267E-2
1.484775135E0,4.744468257E-2,-4.819115996E-2,2.080423757E-2
1.486774868E0,4.622295126E-2,-4.635856301E-2,2.080423757E-2
1.488774668E0,4.805554450E-2,-4.635856301E-2,2.385856397E-2
1.490774468E0,4.622295126E-2,-4.880202562E-2,2.385856397E-2
1.492774201E0,4.622295126E-2,-4.635856301E-2,2.080423757E-2
1.494773934E0,4.561208561E-2,-4.635856301E-2,2.141510136E-2
1.496773667E0,4.377949238E-2,-4.819115996E-2,2.263683267E-2
1.498773400E0,4.194689542E-2,-5.002375320E-2,2.263683267E-2
1.500773133E0,4.439035431E-2,-4.819115996E-2,2.324769832E-2
1.502772866E0,4.255775735E-2,-4.941289127E-2,2.385856397E-2
1.504772699E0,4.072516412E-2,-5.063461885E-2,2.141510136E-2
1.506772432E0,4.194689542E-2,-5.063461885E-2,2.385856397E-2
1.508772165E0,4.194689542E-2,-4.941289127E-2,2.263683267E-2
1.510771898E0,3.828170523E-2,-5.307808146E-2,2.385856397E-2
1.512771631E0,4.072516412E-2,-4.880202562E-2,2.385856397E-2
1.514771364E0,3.828170523E-2,-5.368894711E-2,2.324769832E-2
1.516771097E0,3.828170523E-2,-5.307808146E-2,2.202596888E-2
1.518770830E0,3.767083585E-2,-5.185635015E-2,2.324769832E-2
1.520770596E0,3.705997020E-2,-5.307808146E-2,2.263683267E-2
1.522770296E0,3.644910827E-2,-5.246721581E-2,2.141510136E-2
1.524770029E0,3.950343281E-2,-4.941289127E-2,2.263683267E-2
1.526769762E0,3.461651132E-2,-5.491067469E-2,2.263683267E-2
1.528769495E0,3.461651132E-2,-5.185635015E-2,2.385856397E-2
1.530769228E0,3.767083585E-2,-5.063461885E-2,2.080423757E-2
1.532768961E0,3.644910827E-2,-4.941289127E-2,1.958250813E-2
1.534768694E0,3.767083585E-2,-4.758029431E-2,2.080423757E-2
1.536768494E0,3.522738069E-2,-4.819115996E-2,2.202596888E-2
1.538768194E0,3.705997020E-2,-4.696942866E-2,2.141510136E-2
1.540767927E0,3.400564566E-2,-4.635856301E-2,2.080423757E-2
1.542767693E0,3.461651132E-2,-4.452596605E-2,2.141510136E-2
1.544767426E0,3.339478374E-2,-4.513683170E-2,1.897164062E-2
1.546767159E0,3.644910827E-2,-4.269336909E-2,2.202596888E-2
1.548766892E0,3.339478374E-2,-4.086077586E-2,1.958250813E-2
1.550766625E0,3.400564566E-2,-4.330423847E-2,1.836077683E-2
1.552766425E0,3.400564566E-2,-4.147164151E-2,1.774991304E-2
1.554766158E0,3.400564566E-2,-3.963904455E-2,1.713904552E-2
1.556765891E0,3.400564566E-2,-4.024991393E-2,1.652818173E-2
1.558765624E0,3.400564566E-2,-3.780645132E-2,1.713904552E-2
1.560765357E0,3.217304870E-2,-3.658472002E-2,1.469558571E-2
1.562765090E0,3.217304870E-2,-3.780645132E-2,1.347385533E-2
1.564764823E0,3.339478374E-2,-3.780645132E-2,1.408472005E-2
1.566764623E0,3.156218678E-2,-3.536298871E-2,1.469558571E-2
1.568764389E0,3.278391808E-2,-3.658472002E-2,1.286298968E-2
1.570764122E0,3.400564566E-2,-3.291952983E-2,1.286298968E-2
1.572763855E0,3.278391808E-2,-3.353039175E-2,1.286298968E-2
1.574763588E0,3.217304870E-2,-3.353039175E-2,1.408472005E-2
1.576763321E0,3.156218678E-2,-3.414125741E-2,1.347385533E-2
1.578763054E0,3.278391808E-2,-3.169779852E-2,9.197797626E-3
1.580762820E0,3.278391808E-2,-3.291952983E-2,1.103039365E-2
1.582762653E0,3.339478374E-2,-3.108693287E-2,1.103039365E-2
1.584762453E0,3.217304870E-2,-3.169779852E-2,8.586932905E-3
1.586762186E0,3.278391808E-2,-3.169779852E-2,7.365202531E-3
1.588761919E0,3.278391808E-2,-3.353039175E-2,9.808663279E-3
1.590761619E0,3.278391808E-2,-3.291952983E-2,7.365202531E-3
1.592761352E0,3.156218678E-2,-3.108693287E-2,7.365202531E-3
1.594761085E0,3.217304870E-2,-3.291952983E-2,9.197797626E-3
1.596760818E0,3.156218678E-2,-3.047606722E-2,6.754336879E-3
1.598760651E0,3.217304870E-2,-3.230866417E-2,3.700010711E-3
1.600760384E0,3.156218678E-2,-3.108693287E-2,4.921741318E-3
1.602760117E0,3.156218678E-2,-3.291952983E-2,3.089145757E-3
1.604759850E0,3.217304870E-2,-3.047606722E-2,4.310875665E-3
1.606759583E0,3.156218678E-2,-3.108693287E-2,2.478280338E-3
1.608759316E0,3.095132113E-2,-3.047606722E-2,2.478280338E-3
1.610759049E0,2.911872417E-2,-3.047606722E-2,3.089145757E-3
1.612758782E0,2.911872417E-2,-3.047606722E-2,-1.186911250E-3
1.614758582E0,3.034045361E-2,-3.353039175E-2,6.456845440E-4
1.616758315E0,2.911872417E-2,-3.414125741E-2,1.867415034E-3
1.618758048E0,2.911872417E-2,-3.414125741E-2,-5.760459462E-4
1.620757781E0,2.911872417E-2,-3.475212306E-2,-2.408641623E-3
1.622757514E0,2.972958982E-2,-3.658472002E-2,-1.186911250E-3
1.624757247E0,2.789699286E-2,-3.719558194E-2,1.256549847E-3
1.626756980E0,2.667526528E-2,-3.658472002E-2,-1.186911250E-3
1.628756713E0,2.667526528E-2,-3.719558194E-2,-4.241236951E-3
1.630756513E0,2.728612907E-2,-3.780645132E-2,-1.186911250E-3
1.632756246E0,2.667526528E-2,-3.780645132E-2,-1.797776436E-3
1.634755979E0,2.606439777E-2,-3.841731697E-2,-1.797776436E-3
1.636755712E0,2.606439777E-2,-3.719558194E-2,-4.241236951E-3
1.638755445E0,2.606439777E-2,-3.902817890E-2,-4.241236951E-3
1.640755178E0,2.362093702E-2,-3.902817890E-2,-1.797776436E-3
1.642754911E0,2.301007323E-2,-3.902817890E-2,-4.241236951E-3
1.644754644E0,2.362093702E-2,-3.963904455E-2,-5.462967791E-3
1.646754444E0,2.239920571E-2,-4.086077586E-2,-4.852102604E-3
1.648754177E0,2.117747627E-2,-4.391510412E-2,-7.906428538E-3
1.650753910E0,2.178834192E-2,-4.574770108E-2,-6.684698630E-3
1.652753643E0,1.873401366E-2,-4.513683170E-2,-4.852102604E-3
1.654753376E0,1.751228608E-2,-4.391510412E-2,-6.684698630E-3
1.656753109E0,1.629055478E-2,-4.696942866E-2,-6.073832978E-3
1.658752842E0,1.690141857E-2,-4.574770108E-2,-1.034989022E-2
1.660752642E0,1.567968912E-2,-4.758029431E-2,-9.128159843E-3
1.662752442E0,1.629055478E-2,-4.758029431E-2,-7.906428538E-3
1.664752175E0,1.506882347E-2,-4.635856301E-2,-1.157161966E-2
1.666751941E0,1.323622838E-2,-4.574770108E-2,-1.096075494E-2
1.668751707E0,9.571036324E-3,-4.330423847E-2,-1.157161966E-2
1.670751473E0,1.018190198E-2,-4.208250716E-2,-1.096075494E-2
1.672751239E0,6.516710389E-3,-4.513683170E-2,-1.157161966E-2
1.674751005E0,8.349305950E-3,-4.330423847E-2,-1.279335096E-2
1.676750838E0,5.905845203E-3,-4.391510412E-2,-1.034989022E-2
1.678750604E0,4.684114829E-3,-4.208250716E-2,-1.279335096E-2
1.680750370E0,4.073249176E-3,-4.147164151E-2,-1.218248531E-2
1.682750136E0,4.684114829E-3,-4.147164151E-2,-1.279335096E-2
1.684749902E0,2.851518802E-3,-4.147164151E-2,-1.279335096E-2
1.686749668E0,2.851518802E-3,-4.330423847E-2,-1.034989022E-2
1.688749468E0,5.294980016E-3,-4.086077586E-2,-1.279335096E-2
1.690749234E0,4.073249176E-3,-4.269336909E-2,-1.401508134E-2
1.692749067E0,8.349305950E-3,-4.147164151E-2,-1.218248531E-2
1.694748833E0,5.294980016E-3,-3.719558194E-2,-1.279335096E-2
1.696748599E0,4.073249176E-3,-3.963904455E-2,-1.279335096E-2
1.698748365E0,5.905845203E-3,-4.086077586E-2,-1.462594699E-2
1.700748131E0,7.127576042E-3,-3.841731697E-2,-1.401508134E-2
1.702747864E0,8.349305950E-3,-3.841731697E-2,-1.218248531E-2
1.704747630E0,9.571036324E-3,-3.963904455E-2,-1.340421569E-2
1.706747396E0,8.349305950E-3,-3.902817890E-2,-1.218248531E-2
1.708747229E0,1.201449800E-2,-3.658472002E-2,-1.096075494E-2
1.710747029E0,1.323622838E-2,-3.597385436E-2,-1.096075494E-2
1.712746795E0,1.262536366E-2,-3.597385436E-2,-8.517294191E-3
1.714746561E0,1.262536366E-2,-3.475212306E-2,-1.157161966E-2
1.716746327E0,1.323622838E-2,-3.475212306E-2,-1.157161966E-2
1.718746093E0,1.506882347E-2,-3.230866417E-2,-1.096075494E-2
1.720745859E0,1.629055478E-2,-3.230866417E-2,-1.096075494E-2
1.722745625E0,1.323622838E-2,-3.230866417E-2,-9.739024565E-3
1.724745458E0,1.629055478E-2,-3.536298871E-2,-8.517294191E-3
1.726745191E0,1.629055478E-2,-3.475212306E-2,-1.157161966E-2
1.728744924E0,1.567968912E-2,-3.414125741E-2,-1.034989022E-2
1.730744657E0,1.629055478E-2,-3.353039175E-2,-9.739024565E-3
1.732744390E0,1.506882347E-2,-3.414125741E-2,-9.739024565E-3
1.734744123E0,1.506882347E-2,-3.291952983E-2,-1.034989022E-2
1.736743856E0,1.445795782E-2,-3.230866417E-2,-9.128159843E-3
1.738743656E0,1.384709403E-2,-2.986520156E-2,-8.517294191E-3
1.740743456E0,1.567968912E-2,-3.291952983E-2,-8.517294191E-3
1.742743189E0,1.506882347E-2,-3.230866417E-2,-6.684698630E-3
1.744742922E0,1.445795782E-2,-2.864347026E-2,-6.684698630E-3
1.746742655E0,1.506882347E-2,-2.803260647E-2,-4.852102604E-3
1.748742388E0,1.445795782E-2,-2.681087516E-2,-5.462967791E-3
1.750742088E0,1.567968912E-2,-2.558914572E-2,-4.852102604E-3
1.752741821E0,1.323622838E-2,-2.497827820E-2,-6.073832978E-3
1.754741621E0,1.384709403E-2,-2.436741441E-2,-4.241236951E-3
1.756741354E0,1.262536366E-2,-2.620000951E-2,-3.019507043E-3
1.758741087E0,1.323622838E-2,-2.375655062E-2,-4.241236951E-3
1.760740820E0,1.079276763E-2,-2.070222236E-2,-3.630371997E-3
1.762740586E0,1.079276763E-2,-1.948049292E-2,-5.760459462E-4
1.764740319E0,7.127576042E-3,-1.825876161E-2,-1.797776436E-3
1.766740052E0,8.960171603E-3,-1.703703031E-2,-5.760459462E-4
1.768739785E0,7.738440763E-3,-1.703703031E-2,-1.797776436E-3
1.770739585E0,7.738440763E-3,-1.642616652E-2,3.481932072E-5
1.772739285E0,7.127576042E-3,-1.459357049E-2,-1.797776436E-3
1.774739018E0,7.738440763E-3,-1.337184012E-2,-1.797776436E-3
1.776738751E0,4.073249176E-3,-1.459357049E-2,3.481932072E-5
1.778738484E0,5.905845203E-3,-1.337184012E-2,-1.186911250E-3
1.780738217E0,3.462384222E-3,-1.276097447E-2,-1.186911250E-3
1.782737950E0,2.240653848E-3,-1.520443615E-2,-5.760459462E-4
1.784737683E0,2.240653848E-3,-1.337184012E-2,-2.408641623E-3
1.786737483E0,1.018923242E-3,-1.153924502E-2,-1.186911250E-3
1.788737216E0,1.018923242E-3,-1.337184012E-2,-2.408641623E-3
1.790736949E0,1.018923242E-3,-1.092837937E-2,3.481932072E-5
1.792736682E0,2.240653848E-3,-1.398270484E-2,-1.186911250E-3
1.794736415E0,-2.035402926E-3,-1.337184012E-2,-3.630371997E-3
1.796736148E0,-1.424537739E-3,-1.398270484E-2,-5.760459462E-4
1.798735881E0,1.018923242E-3,-1.398270484E-2,6.456845440E-4
1.800735614E0,1.018923242E-3,-1.581530087E-2,-5.760459462E-4
1.802735414E0,1.018923242E-3,-1.764789782E-2,-2.408641623E-3
1.804735147E0,-2.028072631E-4,-1.948049292E-2,-5.760459462E-4
1.806734880E0,4.080579965E-4,-1.642616652E-2,-1.797776436E-3
1.808734613E0,-2.028072631E-4,-1.642616652E-2,6.456845440E-4
1.810734346E0,1.629788545E-3,-1.642616652E-2,-1.186911250E-3
1.812734079E0,2.851518802E-3,-1.398270484E-2,-1.797776436E-3
1.814733812E0,1.018923242E-3,-1.642616652E-2,1.867415034E-3
1.816733612E0,2.240653848E-3,-1.459357049E-2,-1.186911250E-3
1.818733412E0,1.629788545E-3,-1.825876161E-2,6.456845440E-4
1.820733145E0,2.851518802E-3,-1.459357049E-2,3.481932072E-5
1.822732878E0,1.629788545E-3,-1.886962727E-2,-1.186911250E-3
1.824732611E0,3.462384222E-3,-1.825876161E-2,6.456845440E-4
1.826732344E0,4.073249176E-3,-1.520443615E-2,1.256549847E-3
1.828732077E0,4.073249176E-3,-1.703703031E-2,2.478280338E-3
1.830731810E0,4.684114829E-3,-1.825876161E-2,-1.186911250E-3
1.832731643E0,8.349305950E-3,-1.703703031E-2,1.256549847E-3
1.834731443E0,5.294980016E-3,-1.764789782E-2,-1.797776436E-3
1.836731176E0,5.905845203E-3,-1.886962727E-2,1.867415034E-3
1.838730909E0,8.960171603E-3,-1.703703031E-2,3.481932072E-5
1.840730642E0,8.960171603E-3,-1.642616652E-2,1.256549847E-3
1.842730375E0,7.738440763E-3,-1.764789782E-2,3.089145757E-3
1.844730108E0,1.018190198E-2,-1.398270484E-2,-5.760459462E-4
1.846729841E0,8.349305950E-3,-1.581530087E-2,6.456845440E-4
1.848729641E0,9.571036324E-3,-1.642616652E-2,1.256549847E-3
1.850729374E0,9.571036324E-3,-1.459357049E-2,1.867415034E-3
1.852729107E0,9.571036324E-3,-1.337184012E-2,3.089145757E-3
1.854728840E0,8.349305950E-3,-1.337184012E-2,1.867415034E-3
1.856728573E0,1.201449800E-2,-1.276097447E-2,4.310875665E-3
1.858728273E0,9.571036324E-3,-1.153924502E-2,3.089145757E-3
1.860728006E0,1.079276763E-2,-9.095783345E-3,4.310875665E-3
1.862727739E0,7.738440763E-3,-8.484918624E-3,1.867415034E-3
1.864727539E0,9.571036324E-3,-9.706648998E-3,1.867415034E-3
1.866727272E0,1.018190198E-2,-6.652322132E-3,2.478280338E-3
1.868727005E0,8.960171603E-3,-6.041456945E-3,3.089145757E-3
1.870726771E0,1.018190198E-2,-4.819727037E-3,3.089145757E-3
1.872726504E0,7.738440763E-3,-2.987131011E-3,1.867415034E-3
1.874726237E0,8.960171603E-3,-1.765400521E-3,3.700010711E-3
1.876725970E0,7.738440763E-3,-1.765400521E-3,1.256549847E-3
1.878725703E0,5.905845203E-3,-2.376265824E-3,3.700010711E-3
1.880725503E0,5.294980016E-3,-1.765400521E-3,6.456845440E-4
1.882725236E0,5.294980016E-3,6.719517842E-5,2.478280338E-3
1.884724969E0,5.294980016E-3,-5.436700303E-4,4.921741318E-3
1.886724702E0,4.684114829E-3,-5.436700303E-4,3.089145757E-3
1.888724435E0,3.462384222E-3,-1.154535334E-3,6.456845440E-4
1.890724168E0,3.462384222E-3,3.732386511E-3,4.921741318E-3
1.892723901E0,3.462384222E-3,4.343251698E-3,3.089145757E-3
1.894723567E0,2.851518802E-3,4.343251698E-3,2.478280338E-3
1.896723333E0,1.629788545E-3,5.564982537E-3,3.700010711E-3
1.898723066E0,2.851518802E-3,6.175847724E-3,3.089145757E-3
1.900722799E0,2.851518802E-3,6.786712445E-3,3.700010711E-3
1.902722532E0,4.080579965E-4,6.175847724E-3,2.478280338E-3
1.904722265E0,2.851518802E-3,7.397578098E-3,6.456845440E-4
1.906721998E0,4.080579965E-4,7.397578098E-3,1.256549847E-3
1.908721731E0,1.629788545E-3,8.008443750E-3,2.478280338E-3
1.910721531E0,-2.028072631E-4,9.230174124E-3,2.478280338E-3
1.912721331E0,-8.136724937E-4,9.230174124E-3,3.700010711E-3
1.914721064E0,-8.136724937E-4,1.106277015E-2,3.089145757E-3
1.916720797E0,-2.028072631E-4,9.841038845E-3,1.867415034E-3
1.918720530E0,1.629788545E-3,1.167363487E-2,1.867415034E-3
1.920720263E0,-2.035402926E-3,1.167363487E-2,3.089145757E-3
1.922719996E0,4.080579965E-4,1.289536618E-2,1.256549847E-3
1.924719729E0,-2.035402926E-3,1.228450052E-2,3.089145757E-3
1.926719529E0,-8.136724937E-4,1.167363487E-2,4.921741318E-3
1.928719262E0,-1.424537739E-3,1.411709562E-2,3.089145757E-3
1.930718995E0,-8.136724937E-4,1.350622997E-2,2.478280338E-3
1.932718728E0,-2.646268113E-3,1.472796034E-2,3.089145757E-3
1.934718461E0,-8.136724937E-4,1.839315146E-2,2.478280338E-3
1.936718194E0,-5.089729093E-3,1.656055637E-2,3.700010711E-3
1.938717927E0,-5.700594280E-3,1.900401711E-2,3.089145757E-3
1.940717660E0,-3.867998952E-3,1.961488277E-2,4.310875665E-3
1.942717460E0,-6.311459467E-3,1.900401711E-2,2.478280338E-3
1.944717193E0,-7.533190306E-3,2.144747972E-2,2.478280338E-3
1.946716926E0,-5.089729093E-3,1.961488277E-2,4.921741318E-3
1.948716659E0,-4.478864372E-3,2.144747972E-2,3.089145757E-3
1.950716392E0,-6.311459467E-3,2.022574842E-2,4.310875665E-3
1.952716125E0,-5.700594280E-3,2.205834351E-2,5.532606505E-3
1.954715925E0,-6.311459467E-3,2.205834351E-2,3.089145757E-3
1.956715658E0,-8.144055493E-3,2.144747972E-2,5.532606505E-3
1.958715458E0,-5.700594280E-3,2.389094047E-2,4.921741318E-3
1.960715191E0,-7.533190306E-3,2.205834351E-2,1.256549847E-3
1.962714924E0,-7.533190306E-3,2.266920917E-2,6.456845440E-4
1.964714657E0,-6.922325119E-3,2.205834351E-2,3.089145757E-3
1.966714390E0,-8.754921146E-3,2.328007482E-2,1.256549847E-3
1.968714123E0,-9.365785867E-3,2.389094047E-2,1.256549847E-3
1.970713856E0,-8.144055493E-3,1.900401711E-2,2.478280338E-3
1.972713589E0,-8.754921146E-3,1.961488277E-2,1.867415034E-3
1.974713389E0,-6.922325119E-3,1.778228767E-2,3.089145757E-3
1.976713122E0,-8.754921146E-3,1.778228767E-2,1.867415034E-3
1.978712888E0,-9.976651520E-3,1.594969258E-2,6.456845440E-4
1.980712621E0,-6.922325119E-3,1.839315146E-2,-5.760459462E-4
1.982712354E0,-6.311459467E-3,1.656055637E-2,-5.760459462E-4
1.984712087E0,-8.144055493E-3,1.717142388E-2,2.478280338E-3
1.986711820E0,-8.144055493E-3,1.594969258E-2,-1.186911250E-3
1.988711620E0,-8.144055493E-3,1.411709562E-2,1.256549847E-3
1.990711420E0,-6.922325119E-3,1.533882599E-2,-1.186911250E-3
1.992711153E0,-6.922325119E-3,1.533882599E-2,1.256549847E-3
1.994710886E0,-8.754921146E-3,1.533882599E-2,3.481932072E-5
1.996710619E0,-6.922325119E-3,1.594969258E-2,3.481932072E-5
1.998710352E0,-5.089729093E-3,1.533882599E-2,3.481932072E-5
2.000710085E0,-5.089729093E-3,1.167363487E-2,3.481932072E-5
2.002709818E0,-3.257133532E-3,1.045190450E-2,-3.630371997E-3
2.004709584E0,-4.478864372E-3,9.230174124E-3,6.456845440E-4
2.006709317E0,-3.867998952E-3,1.045190450E-2,-2.408641623E-3
2.008709050E0,-3.257133532E-3,1.228450052E-2,6.456845440E-4
2.010708783E0,-1.424537739E-3,8.619308472E-3,-1.797776436E-3
2.012708516E0,-3.257133532E-3,9.841038845E-3,-3.019507043E-3
2.014708249E0,-1.424537739E-3,9.230174124E-3,-1.797776436E-3
2.016708015E0,-2.035402926E-3,6.175847724E-3,3.481932072E-5
2.018707748E0,-2.035402926E-3,5.564982537E-3,-3.630371997E-3
2.020707548E0,-2.028072631E-4,4.954117350E-3,-2.408641623E-3
2.022707281E0,-8.136724937E-4,6.786712445E-3,-5.760459462E-4
2.024707014E0,4.080579965E-4,4.954117350E-3,1.256549847E-3
2.026706714E0,-8.136724937E-4,3.121521557E-3,3.481932072E-5
2.028706447E0,-2.028072631E-4,1.899790834E-3,-1.186911250E-3
2.030706180E0,-2.028072631E-4,3.121521557E-3,3.481932072E-5
2.032705913E0,-8.136724937E-4,-5.436700303E-4,3.481932072E-5
2.034705646E0,1.018923242E-3,5.564982537E-3,3.481932072E-5
2.036705446E0,-2.028072631E-4,6.719517842E-5,3.481932072E-5
2.038705179E0,2.851518802E-3,1.899790834E-3,-5.760459462E-4
2.040704912E0,4.080579965E-4,1.899790834E-3,1.867415034E-3
2.042704645E0,1.018923242E-3,1.288925647E-3,2.478280338E-3
2.044704378E0,2.240653848E-3,-5.436700303E-4,1.256549847E-3
2.046704111E0,3.462384222E-3,6.780604017E-4,1.256549847E-3
2.048703844E0,3.462384222E-3,6.719517842E-5,6.456845440E-4
2.050703577E0,4.684114829E-3,6.719517842E-5,3.089145757E-3
2.052703377E0,5.294980016E-3,-2.376265824E-3,2.478280338E-3
2.054703110E0,5.294980016E-3,-4.208861385E-3,3.089145757E-3
2.056702843E0,6.516710389E-3,-3.597996198E-3,5.532606505E-3
2.058702576E0,5.905845203E-3,-2.987131011E-3,5.532606505E-3
2.060702309E0,7.127576042E-3,-4.208861385E-3,5.532606505E-3
2.062702042E0,7.738440763E-3,-4.819727037E-3,5.532606505E-3
2.064701775E0,4.684114829E-3,-6.041456945E-3,6.754336879E-3
2.066701575E0,6.516710389E-3,-4.208861385E-3,6.143471692E-3
2.068701375E0,7.738440763E-3,-4.208861385E-3,7.365202531E-3
2.070701141E0,7.127576042E-3,-7.263187785E-3,4.921741318E-3
2.072700907E0,7.738440763E-3,-7.263187785E-3,6.754336879E-3
2.074700673E0,6.516710389E-3,-6.041456945E-3,5.532606505E-3
2.076700439E0,1.018190198E-2,-6.041456945E-3,6.754336879E-3
2.078700172E0,8.960171603E-3,-7.874052972E-3,6.143471692E-3
2.080699938E0,8.349305950E-3,-6.041456945E-3,6.143471692E-3
2.082699771E0,9.571036324E-3,-7.263187785E-3,7.365202531E-3
2.084699604E0,7.738440763E-3,-1.031751465E-2,7.365202531E-3
2.086699404E0,8.960171603E-3,-9.706648998E-3,6.143471692E-3
2.088699170E0,9.571036324E-3,-9.095783345E-3,7.976067252E-3
2.090698936E0,7.738440763E-3,-9.095783345E-3,6.754336879E-3
2.092698702E0,8.960171603E-3,-1.153924502E-2,6.754336879E-3
2.094698468E0,7.127576042E-3,-9.095783345E-3,7.976067252E-3
2.096698234E0,7.738440763E-3,-9.706648998E-3,7.976067252E-3
2.098698067E0,7.738440763E-3,-9.706648998E-3,1.041952893E-2
2.100697800E0,1.018190198E-2,-1.031751465E-2,9.197797626E-3
2.102697566E0,8.960171603E-3,-9.095783345E-3,6.754336879E-3
2.104697332E0,8.349305950E-3,-9.095783345E-3,7.976067252E-3
2.106697098E0,8.349305950E-3,-9.095783345E-3,1.103039365E-2
2.108696864E0,8.960171603E-3,-7.874052972E-3,8.586932905E-3
2.110696630E0,9.571036324E-3,-7.874052972E-3,1.103039365E-2
2.112696396E0,1.262536366E-2,-7.263187785E-3,1.041952893E-2
2.114696229E0,1.079276763E-2,-4.819727037E-3,9.808663279E-3
2.116695995E0,1.018190198E-2,-6.652322132E-3,1.225212403E-2
2.118695761E0,1.018190198E-2,-5.430592224E-3,1.225212403E-2
2.120695527E0,1.140363235E-2,-5.430592224E-3,1.041952893E-2
2.122695293E0,1.140363235E-2,-5.430592224E-3,1.347385533E-2
2.124695093E0,1.140363235E-2,-7.874052972E-3,8.586932905E-3
2.126694859E0,1.323622838E-2,-6.652322132E-3,1.041952893E-2
2.128694625E0,1.323622838E-2,-6.041456945E-3,9.197797626E-3
2.130694425E0,1.323622838E-2,-6.041456945E-3,1.103039365E-2
2.132694158E0,1.262536366E-2,-1.765400521E-3,9.808663279E-3
2.134693891E0,1.323622838E-2,-1.765400521E-3,9.197797626E-3
2.136693624E0,1.445795782E-2,-2.376265824E-3,9.197797626E-3
2.138693390E0,1.323622838E-2,-4.208861385E-3,1.164125931E-2
2.140693123E0,1.506882347E-2,-4.208861385E-3,1.103039365E-2
2.142692856E0,1.629055478E-2,-6.652322132E-3,1.164125931E-2
2.144692589E0,1.506882347E-2,-5.430592224E-3,1.164125931E-2
2.146692389E0,1.629055478E-2,-7.263187785E-3,1.225212403E-2
2.148692089E0,1.506882347E-2,-8.484918624E-3,1.347385533E-2
2.150691822E0,1.690141857E-2,-7.263187785E-3,1.286298968E-2
2.152691555E0,1.506882347E-2,-6.652322132E-3,1.103039365E-2
2.154691288E0,1.262536366E-2,-6.652322132E-3,1.164125931E-2
2.156691021E0,1.140363235E-2,-4.208861385E-3,1.164125931E-2
2.158690754E0,1.506882347E-2,-4.819727037E-3,1.103039365E-2
2.160690587E0,1.506882347E-2,-4.208861385E-3,1.164125931E-2
2.162690387E0,1.140363235E-2,-2.376265824E-3,1.103039365E-2
2.164690120E0,1.140363235E-2,-2.376265824E-3,8.586932905E-3
2.166689853E0,1.384709403E-2,6.719517842E-5,1.041952893E-2
2.168689586E0,1.140363235E-2,-3.597996198E-3,1.103039365E-2
2.170689319E0,1.262536366E-2,-4.819727037E-3,8.586932905E-3
2.172689052E0,1.445795782E-2,-5.430592224E-3,9.197797626E-3
2.174688785E0,1.140363235E-2,-7.263187785E-3,9.808663279E-3
2.176688585E0,1.201449800E-2,-9.706648998E-3,7.365202531E-3
2.178688318E0,1.323622838E-2,-1.276097447E-2,6.754336879E-3
2.180688051E0,1.079276763E-2,-1.215010975E-2,9.808663279E-3
2.182687784E0,1.323622838E-2,-1.337184012E-2,6.143471692E-3
2.184687517E0,1.262536366E-2,-1.276097447E-2,7.365202531E-3
2.186687217E0,1.201449800E-2,-1.337184012E-2,4.921741318E-3
2.188686950E0,1.445795782E-2,-1.398270484E-2,4.310875665E-3
2.190686683E0,1.445795782E-2,-1.153924502E-2,4.310875665E-3
2.192686483E0,1.506882347E-2,-1.581530087E-2,5.532606505E-3
2.194686216E0,1.567968912E-2,-1.825876161E-2,3.089145757E-3
2.196685949E0,1.506882347E-2,-1.703703031E-2,3.089145757E-3
2.198685682E0,1.567968912E-2,-2.131308801E-2,2.478280338E-3
2.200685415E0,1.567968912E-2,-2.009135857E-2,-5.760459462E-4
2.202685148E0,1.445795782E-2,-2.436741441E-2,-5.760459462E-4
2.204684881E0,1.201449800E-2,-2.558914572E-2,3.481932072E-5
2.206684614E0,1.201449800E-2,-2.681087516E-2,1.867415034E-3
2.208684447E0,8.960171603E-3,-2.986520156E-2,1.867415034E-3
2.210684180E0,9.571036324E-3,-3.108693287E-2,-1.797776436E-3
2.212683913E0,8.960171603E-3,-3.169779852E-2,-1.186911250E-3
2.214683646E0,7.738440763E-3,-3.353039175E-2,-2.408641623E-3
2.216683379E0,9.571036324E-3,-3.353039175E-2,-2.408641623E-3
2.218683112E0,4.684114829E-3,-3.414125741E-2,-3.019507043E-3
2.220682845E0,4.073249176E-3,-3.536298871E-2,-4.852102604E-3
2.222682578E0,1.629788545E-3,-3.414125741E-2,-5.462967791E-3
2.224682344E0,5.294980016E-3,-3.169779852E-2,-3.019507043E-3
2.226682077E0,2.240653848E-3,-3.047606722E-2,-3.630371997E-3
2.228681810E0,-2.035402926E-3,-2.986520156E-2,-6.073832978E-3
2.230681543E0,4.080579965E-4,-2.986520156E-2,-6.073832978E-3
2.232681276E0,-1.424537739E-3,-2.864347026E-2,-4.852102604E-3
2.234681009E0,-2.646268113E-3,-2.620000951E-2,-6.073832978E-3
2.236680742E0,-2.646268113E-3,-2.864347026E-2,-6.684698630E-3
2.238680542E0,-5.089729093E-3,-2.558914572E-2,-8.517294191E-3
2.240680342E0,-4.478864372E-3,-2.681087516E-2,-9.739024565E-3
2.242680075E0,-7.533190306E-3,-2.558914572E-2,-9.739024565E-3
2.244679808E0,-6.922325119E-3,-2.009135857E-2,-8.517294191E-3
2.246679541E0,-6.922325119E-3,-2.253481932E-2,-8.517294191E-3
2.248679274E0,-8.144055493E-3,-2.131308801E-2,-8.517294191E-3
2.250679007E0,-9.365785867E-3,-2.070222236E-2,-6.073832978E-3
2.252678740E0,-7.533190306E-3,-1.886962727E-2,-8.517294191E-3
2.254678540E0,-7.533190306E-3,-1.642616652E-2,-1.034989022E-2
2.256678240E0,-8.144055493E-3,-1.642616652E-2,-9.128159843E-3
2.258677973E0,-9.365785867E-3,-1.825876161E-2,-9.128159843E-3
2.260677706E0,-8.144055493E-3,-1.825876161E-2,-9.128159843E-3
2.262677439E0,-8.144055493E-3,-1.764789782E-2,-9.128159843E-3
2.264677172E0,-6.922325119E-3,-1.886962727E-2,-1.034989022E-2
2.266676905E0,-6.922325119E-3,-1.886962727E-2,-1.034989022E-2
2.268676638E0,-6.311459467E-3,-1.642616652E-2,-9.739024565E-3
2.270676438E0,-7.533190306E-3,-2.070222236E-2,-8.517294191E-3
2.272676171E0,-3.257133532E-3,-2.192395367E-2,-7.295563817E-3
2.274675904E0,-6.311459467E-3,-1.948049292E-2,-1.034989022E-2
2.276675637E0,-4.478864372E-3,-2.192395367E-2,-7.295563817E-3
2.278675370E0,-6.922325119E-3,-2.070222236E-2,-8.517294191E-3
2.280675103E0,-5.700594280E-3,-2.131308801E-2,-6.684698630E-3
2.282674836E0,-3.867998952E-3,-2.253481932E-2,-4.241236951E-3
2.284674602E0,-4.478864372E-3,-2.314568311E-2,-6.073832978E-3
2.286674402E0,-4.478864372E-3,-2.131308801E-2,-7.295563817E-3
2.288674135E0,-2.646268113E-3,-2.253481932E-2,-6.073832978E-3
2.290673868E0,-2.646268113E-3,-2.070222236E-2,-6.684698630E-3
2.292674268E0,-2.646268113E-3,-2.070222236E-2,-6.684698630E-3
2.294673968E0,-3.867998952E-3,-2.314568311E-2,-7.295563817E-3
2.296673701E0,-3.257133532E-3,-2.436741441E-2,-4.241236951E-3
2.298673434E0,-2.646268113E-3,-2.620000951E-2,-3.630371997E-3
2.300673167E0,-3.867998952E-3,-2.558914572E-2,-3.630371997E-3
2.302672967E0,-4.478864372E-3,-2.375655062E-2,-4.852102604E-3
2.304672700E0,-3.257133532E-3,-2.436741441E-2,-2.408641623E-3
2.306672466E0,-2.646268113E-3,-2.131308801E-2,-4.241236951E-3
2.308672199E0,-3.867998952E-3,-2.009135857E-2,-1.797776436E-3
2.310671932E0,-4.478864372E-3,-2.070222236E-2,-2.408641623E-3
2.312671665E0,-5.700594280E-3,-2.009135857E-2,-5.760459462E-4
2.314671398E0,-3.257133532E-3,-2.192395367E-2,-1.186911250E-3
2.316671231E0,-2.646268113E-3,-1.337184012E-2,-1.797776436E-3
2.318671031E0,-3.867998952E-3,-1.642616652E-2,6.456845440E-4
2.320670797E0,-5.089729093E-3,-1.337184012E-2,6.456845440E-4
2.322670563E0,-6.311459467E-3,-1.459357049E-2,3.481932072E-5
2.324670329E0,-6.311459467E-3,-1.642616652E-2,-5.760459462E-4
2.326670095E0,-8.754921146E-3,-1.459357049E-2,6.456845440E-4
2.328669861E0,-8.754921146E-3,-1.520443615E-2,-1.186911250E-3
2.330669627E0,-7.533190306E-3,-1.276097447E-2,3.481932072E-5
2.332669460E0,-8.144055493E-3,-1.215010975E-2,1.256549847E-3
2.334669293E0,-8.754921146E-3,-1.276097447E-2,3.089145757E-3
2.336669159E0,-8.144055493E-3,-1.153924502E-2,4.310875665E-3
2.338669025E0,-8.144055493E-3,-1.092837937E-2,4.921741318E-3
2.340668891E0,-6.922325119E-3,-7.874052972E-3,3.089145757E-3
2.342668757E0,-1.119838096E-2,-6.041456945E-3,3.700010711E-3
2.344668623E0,-1.058751717E-2,-8.484918624E-3,4.921741318E-3
2.346668456E0,-9.365785867E-3,-2.376265824E-3,3.089145757E-3
2.348668389E0,-9.365785867E-3,-2.376265824E-3,3.089145757E-3
2.350668289E0,-1.058751717E-2,-4.208861385E-3,4.921741318E-3
2.352667555E0,-8.754921146E-3,-3.597996198E-3,3.089145757E-3
2.354667521E0,-9.365785867E-3,-2.376265824E-3,3.700010711E-3
2.356667454E0,-1.119838096E-2,-4.819727037E-3,4.310875665E-3
2.358667387E0,-8.754921146E-3,-5.436700303E-4,3.089145757E-3
2.360667320E0,-1.058751717E-2,-6.041456945E-3,4.310875665E-3
2.362667253E0,-1.058751717E-2,-4.819727037E-3,6.143471692E-3
2.364667253E0,-1.119838096E-2,-2.987131011E-3,6.754336879E-3
2.366667219E0,-9.976651520E-3,-1.765400521E-3,3.700010711E-3
2.368667185E0,-9.976651520E-3,-4.819727037E-3,6.754336879E-3
2.370667151E0,-1.119838096E-2,-1.765400521E-3,4.921741318E-3
2.372667117E0,-1.119838096E-2,-2.987131011E-3,3.700010711E-3
2.374667083E0,-1.058751717E-2,1.899790834E-3,4.921741318E-3
2.376667049E0,-1.119838096E-2,-1.154535334E-3,6.143471692E-3
2.378667015E0,-1.180924661E-2,-1.765400521E-3,3.089145757E-3
2.380667015E0,-1.119838096E-2,-2.987131011E-3,5.532606505E-3
2.382666981E0,-9.976651520E-3,-3.597996198E-3,3.700010711E-3
2.384666914E0,-1.119838096E-2,-2.376265824E-3,4.921741318E-3
2.386666880E0,-1.058751717E-2,-3.597996198E-3,4.310875665E-3
2.388666846E0,-1.058751717E-2,-2.987131011E-3,6.754336879E-3
2.390666812E0,-1.119838096E-2,-3.597996198E-3,6.143471692E-3
2.392666778E0,-9.976651520E-3,-1.765400521E-3,4.310875665E-3
2.394666744E0,-7.533190306E-3,-1.154535334E-3,6.754336879E-3
2.396666677E0,-8.754921146E-3,1.288925647E-3,4.921741318E-3
2.398666610E0,-8.144055493E-3,-1.154535334E-3,7.365202531E-3
2.400666543E0,-8.754921146E-3,6.719517842E-5,6.143471692E-3
2.402666476E0,-7.533190306E-3,-1.154535334E-3,5.532606505E-3
2.404666376E0,-6.922325119E-3,6.719517842E-5,7.365202531E-3
2.406666342E0,-5.700594280E-3,-1.154535334E-3,3.700010711E-3
2.408666275E0,-4.478864372E-3,6.719517842E-5,6.143471692E-3
2.410666241E0,-3.867998952E-3,6.719517842E-5,6.143471692E-3
2.412666174E0,-5.700594280E-3,6.719517842E-5,6.754336879E-3
2.414666040E0,-5.700594280E-3,-1.154535334E-3,5.532606505E-3
2.416665906E0,-5.700594280E-3,6.780604017E-4,5.532606505E-3
2.418665772E0,-5.089729093E-3,6.780604017E-4,5.532606505E-3
2.420665638E0,-1.424537739E-3,6.719517842E-5,5.532606505E-3
2.422665504E0,-4.478864372E-3,6.719517842E-5,4.921741318E-3
2.424665370E0,-3.867998952E-3,-1.765400521E-3,2.478280338E-3
2.426665270E0,-5.089729093E-3,-2.376265824E-3,4.921741318E-3
2.428665103E0,-5.700594280E-3,-1.765400521E-3,2.478280338E-3
2.430664936E0,-4.478864372E-3,-3.597996198E-3,3.700010711E-3
2.432664769E0,-4.478864372E-3,-2.376265824E-3,3.700010711E-3
2.434664602E0,-4.478864372E-3,-6.652322132E-3,3.700010711E-3
2.436664435E0,-5.089729093E-3,-4.208861385E-3,1.256549847E-3
2.438664268E0,-6.311459467E-3,-5.430592224E-3,4.310875665E-3
2.440664101E0,-5.089729093E-3,-4.208861385E-3,4.310875665E-3
2.442663934E0,-7.533190306E-3,-5.430592224E-3,2.478280338E-3
2.444663767E0,-5.700594280E-3,-4.819727037E-3,1.867415034E-3
2.446663567E0,-5.700594280E-3,-2.376265824E-3,4.310875665E-3
2.448663367E0,-5.089729093E-3,-4.819727037E-3,1.867415034E-3
2.450663167E0,-6.922325119E-3,-7.263187785E-3,3.700010711E-3
2.452662967E0,-4.478864372E-3,-4.819727037E-3,3.089145757E-3
2.454662767E0,-4.478864372E-3,-3.597996198E-3,4.310875665E-3
2.456662567E0,-4.478864372E-3,6.719517842E-5,3.089145757E-3
2.458662367E0,-3.867998952E-3,-5.436700303E-4,2.478280338E-3
2.460662100E0,-4.478864372E-3,6.780604017E-4,3.089145757E-3
2.462661833E0,-3.867998952E-3,6.780604017E-4,5.532606505E-3
2.464661566E0,-4.478864372E-3,1.899790834E-3,4.310875665E-3
2.466661299E0,-3.257133532E-3,1.899790834E-3,4.921741318E-3
2.468661032E0,-4.478864372E-3,5.564982537E-3,3.700010711E-3
2.470660765E0,-3.867998952E-3,4.954117350E-3,1.867415034E-3
2.472660465E0,-4.478864372E-3,1.899790834E-3,2.478280338E-3
2.474660265E0,-5.089729093E-3,5.564982537E-3,5.532606505E-3
2.476659998E0,-5.089729093E-3,5.564982537E-3,5.532606505E-3
2.478659731E0,-6.311459467E-3,5.564982537E-3,5.532606505E-3
2.480659464E0,-7.533190306E-3,4.343251698E-3,4.921741318E-3
2.482659197E0,-7.533190306E-3,6.786712445E-3,5.532606505E-3
2.484658930E0,-9.976651520E-3,5.564982537E-3,6.143471692E-3
2.486658663E0,-6.311459467E-3,8.008443750E-3,6.754336879E-3
2.488658463E0,-9.365785867E-3,9.230174124E-3,9.197797626E-3
2.490658263E0,-1.058751717E-2,8.619308472E-3,6.754336879E-3
2.492657996E0,-7.533190306E-3,1.167363487E-2,7.365202531E-3
2.494657729E0,-8.754921146E-3,1.167363487E-2,9.808663279E-3
2.496657462E0,-1.180924661E-2,9.230174124E-3,1.041952893E-2
2.498657195E0,-9.365785867E-3,1.228450052E-2,7.976067252E-3
2.500656928E0,-1.303097699E-2,1.289536618E-2,9.197797626E-3
2.502656694E0,-1.364184264E-2,9.841038845E-3,6.754336879E-3
2.504656494E0,-1.364184264E-2,9.841038845E-3,7.976067252E-3
2.506656294E0,-1.180924661E-2,1.350622997E-2,1.103039365E-2
2.508656027E0,-1.242011227E-2,1.411709562E-2,1.041952893E-2
2.510655760E0,-1.242011227E-2,1.411709562E-2,9.808663279E-3
2.512655460E0,-1.242011227E-2,1.717142388E-2,1.103039365E-2
2.514655193E0,-1.364184264E-2,1.656055637E-2,1.469558571E-2
2.516654926E0,-1.242011227E-2,1.656055637E-2,1.530645043E-2
2.518654659E0,-9.976651520E-3,1.839315146E-2,1.408472005E-2
2.520654459E0,-1.119838096E-2,2.083661221E-2,1.103039365E-2
2.522654192E0,-1.058751717E-2,2.022574842E-2,1.347385533E-2
2.524653958E0,-9.976651520E-3,2.083661221E-2,1.408472005E-2
2.526653691E0,-1.119838096E-2,2.328007482E-2,1.652818173E-2
2.528653424E0,-9.976651520E-3,2.755613066E-2,1.469558571E-2
2.530653157E0,-1.058751717E-2,2.877786197E-2,1.530645043E-2
2.532652923E0,-9.365785867E-3,3.061045893E-2,1.591731608E-2
2.534652656E0,-8.144055493E-3,2.755613066E-2,1.652818173E-2
2.536652456E0,-6.311459467E-3,3.122132272E-2,1.713904552E-2
2.538652189E0,-1.058751717E-2,2.938872762E-2,1.530645043E-2
2.540651922E0,-7.533190306E-3,2.999959141E-2,1.591731608E-2
2.542651655E0,-6.922325119E-3,2.877786197E-2,1.347385533E-2
2.544651388E0,-8.144055493E-3,2.816699632E-2,1.591731608E-2
2.546651121E0,-9.365785867E-3,2.938872762E-2,1.408472005E-2
2.548650854E0,-7.533190306E-3,2.816699632E-2,1.591731608E-2
2.550650554E0,-9.365785867E-3,2.633439936E-2,1.591731608E-2
2.552650354E0,-9.976651520E-3,2.633439936E-2,1.347385533E-2
2.554650087E0,-1.058751717E-2,2.511267178E-2,1.530645043E-2
2.556649820E0,-1.486357301E-2,2.328007482E-2,1.469558571E-2
2.558649553E0,-1.364184264E-2,2.694526687E-2,1.103039365E-2
2.560649286E0,-1.364184264E-2,2.633439936E-2,1.103039365E-2
2.562649019E0,-1.486357301E-2,2.511267178E-2,1.164125931E-2
2.564648752E0,-1.730703376E-2,2.266920917E-2,1.286298968E-2
2.566648485E0,-1.608530432E-2,2.450180426E-2,1.103039365E-2
2.568648285E0,-1.608530432E-2,2.328007482E-2,1.347385533E-2
2.570648018E0,-1.730703376E-2,2.205834351E-2,1.041952893E-2
2.572647751E0,-1.730703376E-2,2.450180426E-2,8.586932905E-3
2.574647484E0,-1.913962886E-2,2.450180426E-2,1.041952893E-2
2.576647217E0,-2.036136016E-2,2.572353557E-2,9.197797626E-3
2.578646950E0,-2.036136016E-2,2.389094047E-2,8.586932905E-3
2.580646683E0,-2.219395712E-2,2.389094047E-2,1.225212403E-2
2.582646483E0,-2.280482091E-2,2.450180426E-2,9.197797626E-3
2.584646283E0,-2.402655222E-2,2.389094047E-2,7.365202531E-3
2.586646016E0,-2.341568656E-2,2.450180426E-2,8.586932905E-3
2.588645749E0,-2.524828166E-2,2.328007482E-2,6.143471692E-3
2.590645482E0,-2.402655222E-2,2.389094047E-2,5.532606505E-3
2.592645215E0,-2.463741601E-2,2.328007482E-2,6.754336879E-3
2.594644948E0,-2.647001296E-2,2.572353557E-2,5.532606505E-3
2.596644681E0,-2.708087675E-2,2.328007482E-2,3.089145757E-3
2.598644481E0,-2.708087675E-2,2.511267178E-2,4.310875665E-3
2.600644214E0,-2.585914731E-2,2.450180426E-2,2.478280338E-3
2.602643947E0,-2.585914731E-2,2.450180426E-2,3.089145757E-3
2.604643680E0,-2.769174427E-2,2.144747972E-2,3.089145757E-3
2.606643413E0,-2.524828166E-2,2.144747972E-2,1.867415034E-3
2.608643146E0,-2.769174427E-2,1.656055637E-2,6.456845440E-4
2.610642912E0,-2.585914731E-2,2.083661221E-2,3.089145757E-3
2.612642645E0,-2.463741601E-2,1.839315146E-2,-1.797776436E-3
2.614642445E0,-2.341568656E-2,2.022574842E-2,-1.186911250E-3
2.616642178E0,-2.463741601E-2,1.778228767E-2,-1.186911250E-3
2.618641911E0,-2.463741601E-2,1.472796034E-2,-5.760459462E-4
2.620641611E0,-2.585914731E-2,1.594969258E-2,-1.186911250E-3
2.622641344E0,-2.341568656E-2,1.472796034E-2,-3.019507043E-3
2.624641077E0,-2.158309147E-2,1.411709562E-2,-2.408641623E-3
2.626640810E0,-2.280482091E-2,1.594969258E-2,-1.186911250E-3
2.628640543E0,-2.097222582E-2,1.228450052E-2,-4.241236951E-3
2.630640343E0,-2.158309147E-2,1.350622997E-2,-5.462967791E-3
2.632640109E0,-1.975049637E-2,1.289536618E-2,-4.852102604E-3
2.634639842E0,-2.158309147E-2,1.167363487E-2,-6.684698630E-3
2.636639575E0,-1.975049637E-2,8.619308472E-3,-7.295563817E-3
2.638639308E0,-1.852876507E-2,8.008443750E-3,-6.073832978E-3
2.640639041E0,-1.913962886E-2,8.008443750E-3,-6.684698630E-3
2.642638774E0,-1.975049637E-2,7.397578098E-3,-7.295563817E-3
2.644638507E0,-1.913962886E-2,6.175847724E-3,-9.128159843E-3
2.646638307E0,-1.791789941E-2,5.564982537E-3,-8.517294191E-3
2.648638040E0,-1.913962886E-2,4.343251698E-3,-1.034989022E-2
2.650637773E0,-1.608530432E-2,6.175847724E-3,-9.739024565E-3
2.652637506E0,-1.913962886E-2,3.121521557E-3,-1.034989022E-2
2.654637239E0,-1.791789941E-2,3.121521557E-3,-1.096075494E-2
2.656636972E0,-1.913962886E-2,6.719517842E-5,-1.279335096E-2
2.658636672E0,-1.852876507E-2,3.121521557E-3,-1.279335096E-2
2.660636472E0,-1.669616811E-2,1.288925647E-3,-1.279335096E-2
2.662636272E0,-1.730703376E-2,-5.436700303E-4,-1.279335096E-2
2.664636005E0,-1.913962886E-2,-2.376265824E-3,-1.279335096E-2
2.666635738E0,-2.158309147E-2,-1.765400521E-3,-1.218248531E-2
2.668635471E0,-2.158309147E-2,-2.987131011E-3,-1.218248531E-2
2.670635204E0,-2.097222582E-2,-1.154535334E-3,-1.340421569E-2
2.672634937E0,-2.341568656E-2,-2.376265824E-3,-1.340421569E-2
2.674634670E0,-2.585914731E-2,-2.376265824E-3,-1.218248531E-2
2.676634470E0,-2.463741601E-2,-5.436700303E-4,-1.584767736E-2
2.678634203E0,-2.585914731E-2,-3.597996198E-3,-1.218248531E-2
2.680633936E0,-2.708087675E-2,-2.376265824E-3,-1.462594699E-2
2.682633669E0,-2.769174427E-2,-1.154535334E-3,-1.645854115E-2
2.684633402E0,-3.013520502E-2,-2.376265824E-3,-1.706940867E-2
2.686633135E0,-3.257866576E-2,6.780604017E-4,-1.462594699E-2
2.688632868E0,-3.380039707E-2,2.510656137E-3,-1.401508134E-2
2.690632601E0,-3.257866576E-2,6.719517842E-5,-1.706940867E-2
2.692632401E0,-3.380039707E-2,1.899790834E-3,-1.645854115E-2
2.694632134E0,-3.685472161E-2,6.719517842E-5,-1.645854115E-2
2.696631867E0,-3.807645291E-2,6.780604017E-4,-1.706940867E-2
2.698631600E0,-3.990904987E-2,3.121521557E-3,-1.829113811E-2
2.700631333E0,-3.929818422E-2,1.899790834E-3,-1.523681171E-2
2.702631066E0,-4.051991180E-2,6.780604017E-4,-1.890200190E-2
2.704630799E0,-3.929818422E-2,2.510656137E-3,-1.829113811E-2
2.706630532E0,-3.990904987E-2,3.121521557E-3,-1.706940867E-2
2.708630332E0,-4.051991180E-2,6.780604017E-4,-1.829113811E-2
2.710630065E0,-4.051991180E-2,2.510656137E-3,-1.462594699E-2
2.712629798E0,-4.113077745E-2,3.732386511E-3,-1.951286942E-2
2.714629531E0,-3.807645291E-2,3.732386511E-3,-1.890200190E-2
2.716629264E0,-3.929818422E-2,4.954117350E-3,-1.951286942E-2
2.718628997E0,-3.807645291E-2,6.786712445E-3,-1.951286942E-2
2.720628730E0,-3.807645291E-2,8.619308472E-3,-1.645854115E-2
2.722628463E0,-3.929818422E-2,5.564982537E-3,-1.645854115E-2
2.724628263E0,-3.685472161E-2,5.564982537E-3,-1.768027246E-2
2.726627996E0,-3.746558726E-2,5.564982537E-3,-1.951286942E-2
2.728627729E0,-3.929818422E-2,2.510656137E-3,-2.195633017E-2
2.730627462E0,-3.624385968E-2,-5.436700303E-4,-2.073459886E-2
2.732627195E0,-3.868731856E-2,-5.430592224E-3,-2.134546451E-2
2.734626928E0,-3.807645291E-2,-4.819727037E-3,-2.317805961E-2
2.736626661E0,-3.807645291E-2,-1.092837937E-2,-2.562152036E-2
2.738626461E0,-3.929818422E-2,-1.398270484E-2,-2.684325166E-2
2.740626294E0,-3.685472161E-2,-1.153924502E-2,-2.867584862E-2
2.742626027E0,-3.990904987E-2,-1.276097447E-2,-2.989757806E-2
2.744625760E0,-4.113077745E-2,-1.276097447E-2,-2.989757806E-2
2.746625493E0,-3.868731856E-2,-1.092837937E-2,-2.928671241E-2
2.748625226E0,-3.868731856E-2,-8.484918624E-3,-2.989757806E-2
2.750624959E0,-4.235250875E-2,-7.874052972E-3,-3.111930937E-2
2.752624692E0,-3.868731856E-2,-6.041456945E-3,-3.050844371E-2
2.754624492E0,-4.174164683E-2,-4.208861385E-3,-3.356277198E-2
2.756624292E0,-4.113077745E-2,1.288925647E-3,-3.478449956E-2
2.758624025E0,-4.357423633E-2,-1.154535334E-3,-3.295190260E-2
2.760623758E0,-4.418510571E-2,3.121521557E-3,-3.844969347E-2
2.762623491E0,-4.357423633E-2,6.786712445E-3,-3.844969347E-2
2.764623224E0,-4.357423633E-2,4.343251698E-3,-3.967142105E-2
2.766622924E0,-4.296337441E-2,9.841038845E-3,-4.150401801E-2
2.768622657E0,-4.357423633E-2,9.841038845E-3,-4.211488366E-2
2.770622457E0,-4.418510571E-2,1.106277015E-2,-4.394748062E-2
2.772622190E0,-4.479597136E-2,9.841038845E-3,-4.700180516E-2
2.774621923E0,-4.540683329E-2,1.167363487E-2,-4.761267081E-2
2.776621656E0,-4.418510571E-2,1.106277015E-2,-4.883439839E-2
2.778621422E0,-4.540683329E-2,1.045190450E-2,-5.066699535E-2
2.780621155E0,-4.601769894E-2,1.106277015E-2,-5.372131988E-2
2.782620888E0,-4.479597136E-2,1.289536618E-2,-5.188872665E-2
2.784620621E0,-4.662856832E-2,1.289536618E-2,-5.311045796E-2
2.786620421E0,-4.662856832E-2,1.533882599E-2,-5.372131988E-2
2.788620187E0,-4.785029590E-2,1.167363487E-2,-5.188872665E-2
2.790619953E0,-4.907202348E-2,1.106277015E-2,-5.127786100E-2
2.792619719E0,-4.723943025E-2,1.594969258E-2,-5.249959230E-2
2.794619485E0,-5.090462044E-2,1.289536618E-2,-5.005612969E-2
2.796619251E0,-5.212635547E-2,1.167363487E-2,-5.005612969E-2
2.798619017E0,-4.968289286E-2,1.350622997E-2,-4.822353274E-2
2.800618783E0,-5.212635547E-2,1.350622997E-2,-4.822353274E-2
2.802618616E0,-5.151548609E-2,9.841038845E-3,-4.822353274E-2
2.804618382E0,-5.212635547E-2,1.167363487E-2,-4.578007385E-2
2.806618148E0,-5.212635547E-2,1.228450052E-2,-4.578007385E-2
2.808617914E0,-5.090462044E-2,8.008443750E-3,-4.394748062E-2
2.810617680E0,-5.212635547E-2,8.008443750E-3,-4.333661124E-2
2.812617446E0,-5.090462044E-2,4.343251698E-3,-4.089314863E-2
2.814617212E0,-5.090462044E-2,4.343251698E-3,-4.211488366E-2
2.816616978E0,-4.846116155E-2,1.288925647E-3,-4.089314863E-2
2.818616778E0,-4.907202348E-2,-1.154535334E-3,-3.967142105E-2
2.820616544E0,-4.907202348E-2,6.780604017E-4,-3.661709651E-2
2.822616310E0,-4.968289286E-2,-2.376265824E-3,-3.356277198E-2
2.824616076E0,-4.785029590E-2,-3.597996198E-3,-3.478449956E-2
2.826615876E0,-4.968289286E-2,-2.376265824E-3,-3.050844371E-2
2.828615642E0,-5.029375851E-2,-2.376265824E-3,-2.928671241E-2
2.830615408E0,-4.968289286E-2,1.899790834E-3,-2.928671241E-2
2.832615241E0,-5.029375851E-2,-5.436700303E-4,-3.173017129E-2
2.834615074E0,-5.090462044E-2,3.732386511E-3,-2.806498110E-2
2.836614840E0,-5.029375851E-2,4.954117350E-3,-2.562152036E-2
2.838614606E0,-5.151548609E-2,6.175847724E-3,-2.623238601E-2
2.840614339E0,-5.212635547E-2,4.343251698E-3,-2.439978905E-2
2.842614105E0,-5.151548609E-2,6.786712445E-3,-2.378892526E-2
2.844613871E0,-5.212635547E-2,8.008443750E-3,-2.378892526E-2
2.846613637E0,-5.334808305E-2,5.564982537E-3,-2.317805961E-2
2.848613437E0,-5.212635547E-2,6.175847724E-3,-2.501065657E-2
2.850613170E0,-5.273721740E-2,8.008443750E-3,-2.256719396E-2
2.852612903E0,-4.968289286E-2,9.841038845E-3,-2.378892526E-2
2.854612636E0,-5.029375851E-2,5.564982537E-3,-2.195633017E-2
2.856612369E0,-4.968289286E-2,9.230174124E-3,-2.256719396E-2
2.858612102E0,-4.907202348E-2,4.954117350E-3,-2.256719396E-2
2.860611835E0,-4.968289286E-2,8.619308472E-3,-2.256719396E-2
2.862611568E0,-4.479597136E-2,7.397578098E-3,-2.378892526E-2
2.864611368E0,-4.723943025E-2,6.175847724E-3,-2.317805961E-2
2.866611101E0,-4.479597136E-2,6.175847724E-3,-2.134546451E-2
2.868610834E0,-4.357423633E-2,5.564982537E-3,-2.256719396E-2
2.870610567E0,-4.235250875E-2,4.343251698E-3,-2.134546451E-2
2.872610300E0,-4.051991180E-2,5.564982537E-3,-2.256719396E-2
2.874610033E0,-3.929818422E-2,6.719517842E-5,-2.134546451E-2
2.876609766E0,-3.685472161E-2,1.288925647E-3,-2.195633017E-2
2.878609499E0,-3.685472161E-2,-2.987131011E-3,-2.134546451E-2
2.880609299E0,-3.502212465E-2,-8.484918624E-3,-2.256719396E-2
2.882609032E0,-3.257866576E-2,-6.652322132E-3,-2.195633017E-2
2.884608765E0,-3.196780011E-2,-1.031751465E-2,-2.378892526E-2
2.886608498E0,-2.830260806E-2,-1.398270484E-2,-2.378892526E-2
2.888608231E0,-2.585914731E-2,-1.520443615E-2,-2.378892526E-2
2.890607964E0,-2.463741601E-2,-1.825876161E-2,-2.195633017E-2
2.892607697E0,-2.097222582E-2,-2.192395367E-2,-2.256719396E-2
2.894607430E0,-2.036136016E-2,-2.436741441E-2,-2.439978905E-2
2.896607230E0,-1.852876507E-2,-2.742174082E-2,-2.195633017E-2
2.898606963E0,-1.364184264E-2,-3.108693287E-2,-2.195633017E-2
2.900606729E0,-1.608530432E-2,-3.230866417E-2,-2.256719396E-2
2.902606462E0,-1.303097699E-2,-3.353039175E-2,-2.012373321E-2
2.904606195E0,-1.180924661E-2,-3.414125741E-2,-2.134546451E-2
2.906605928E0,-1.058751717E-2,-3.475212306E-2,-2.134546451E-2
2.908605661E0,-9.365785867E-3,-3.719558194E-2,-2.195633017E-2
2.910605461E0,-9.365785867E-3,-3.902817890E-2,-2.134546451E-2
2.912605261E0,-8.754921146E-3,-3.963904455E-2,-2.073459886E-2
2.914604994E0,-8.144055493E-3,-4.391510412E-2,-2.317805961E-2
2.916604727E0,-6.311459467E-3,-4.574770108E-2,-2.195633017E-2
2.918604460E0,-8.754921146E-3,-4.880202562E-2,-2.134546451E-2
2.920604193E0,-7.533190306E-3,-5.063461885E-2,-2.073459886E-2
2.922603926E0,-5.700594280E-3,-5.002375320E-2,-1.890200190E-2
2.924603659E0,-5.700594280E-3,-5.002375320E-2,-1.951286942E-2
2.926603425E0,-7.533190306E-3,-5.185635015E-2,-2.073459886E-2
2.928603158E0,-8.144055493E-3,-5.429981276E-2,-1.706940867E-2
2.930602891E0,-6.922325119E-3,-5.124548823E-2,-1.890200190E-2
2.932602624E0,-5.700594280E-3,-5.002375320E-2,-1.584767736E-2
2.934602357E0,-8.144055493E-3,-5.002375320E-2,-1.706940867E-2
2.936602090E0,-6.922325119E-3,-4.819115996E-2,-1.645854115E-2
2.938601856E0,-8.754921146E-3,-4.758029431E-2,-1.768027246E-2
2.940601589E0,-5.089729093E-3,-4.513683170E-2,-1.462594699E-2
2.942601389E0,-8.144055493E-3,-4.635856301E-2,-1.401508134E-2
2.944601122E0,-8.754921146E-3,-4.269336909E-2,-1.768027246E-2
2.946600855E0,-5.089729093E-3,-4.208250716E-2,-1.218248531E-2
2.948600555E0,-7.533190306E-3,-4.147164151E-2,-1.584767736E-2
2.950600288E0,-5.700594280E-3,-4.024991393E-2,-1.523681171E-2
2.952600021E0,-6.311459467E-3,-4.024991393E-2,-1.584767736E-2
2.954599754E0,-5.089729093E-3,-4.024991393E-2,-1.645854115E-2
2.956599487E0,-6.311459467E-3,-4.086077586E-2,-1.706940867E-2
2.958599287E0,-5.700594280E-3,-4.024991393E-2,-1.523681171E-2
2.960599020E0,-4.478864372E-3,-3.963904455E-2,-1.768027246E-2
2.962598753E0,-5.089729093E-3,-4.208250716E-2,-1.584767736E-2
2.964598486E0,-1.424537739E-3,-4.208250716E-2,-1.951286942E-2
2.966598219E0,-2.646268113E-3,-4.513683170E-2,-1.645854115E-2
2.968597952E0,-2.028072631E-4,-4.269336909E-2,-1.706940867E-2
2.970597685E0,4.080579965E-4,-4.391510412E-2,-1.768027246E-2
2.972597418E0,1.018923242E-3,-4.269336909E-2,-1.706940867E-2
2.974597218E0,2.851518802E-3,-4.513683170E-2,-1.829113811E-2
2.976596951E0,3.462384222E-3,-4.696942866E-2,-1.768027246E-2
2.978596684E0,4.684114829E-3,-4.696942866E-2,-1.645854115E-2
2.980596417E0,6.516710389E-3,-4.574770108E-2,-1.706940867E-2
2.982596183E0,6.516710389E-3,-4.574770108E-2,-1.829113811E-2
2.984595916E0,8.349305950E-3,-4.635856301E-2,-1.768027246E-2
2.986595649E0,1.201449800E-2,-4.391510412E-2,-1.768027246E-2
2.988595449E0,1.323622838E-2,-4.330423847E-2,-1.523681171E-2
2.990595249E0,1.323622838E-2,-4.208250716E-2,-1.706940867E-2
2.992594982E0,1.506882347E-2,-4.024991393E-2,-1.829113811E-2
2.994594715E0,1.567968912E-2,-4.330423847E-2,-1.645854115E-2
2.996594448E0,1.812314987E-2,-3.719558194E-2,-1.706940867E-2
2.998594181E0,2.056661062E-2,-3.597385436E-2,-1.829113811E-2
3.000593914E0,2.056661062E-2,-3.536298871E-2,-1.706940867E-2
3.002593647E0,2.056661062E-2,-3.414125741E-2,-1.951286942E-2
3.004593447E0,2.362093702E-2,-3.291952983E-2,-1.645854115E-2
3.006593247E0,2.056661062E-2,-3.230866417E-2,-1.584767736E-2
3.008592980E0,2.301007323E-2,-3.108693287E-2,-1.584767736E-2
3.010592713E0,2.423180267E-2,-2.986520156E-2,-1.706940867E-2
3.012592446E0,2.362093702E-2,-2.864347026E-2,-1.645854115E-2
3.014592179E0,2.545353398E-2,-2.925433777E-2,-1.706940867E-2
3.016591912E0,2.545353398E-2,-2.864347026E-2,-1.645854115E-2
3.018591645E0,2.606439777E-2,-2.803260647E-2,-1.645854115E-2
3.020591445E0,2.423180267E-2,-2.742174082E-2,-1.768027246E-2
3.022591178E0,2.484266832E-2,-2.620000951E-2,-1.706940867E-2
3.024590911E0,2.667526528E-2,-2.497827820E-2,-1.584767736E-2
3.026590644E0,2.423180267E-2,-2.436741441E-2,-1.645854115E-2
3.028590377E0,2.239920571E-2,-2.497827820E-2,-1.584767736E-2
3.030590110E0,2.362093702E-2,-2.131308801E-2,-1.584767736E-2
3.032589843E0,2.301007323E-2,-2.314568311E-2,-1.462594699E-2
3.034589576E0,2.239920571E-2,-2.253481932E-2,-1.462594699E-2
3.036589376E0,2.117747627E-2,-1.703703031E-2,-1.523681171E-2
3.038589109E0,1.873401366E-2,-2.314568311E-2,-1.340421569E-2
3.040588842E0,1.873401366E-2,-2.009135857E-2,-1.645854115E-2
3.042588542E0,1.934488118E-2,-2.131308801E-2,-1.584767736E-2
3.044588275E0,1.751228608E-2,-2.070222236E-2,-1.462594699E-2
3.046588041E0,1.629055478E-2,-2.131308801E-2,-1.340421569E-2
3.048587774E0,1.812314987E-2,-1.825876161E-2,-1.462594699E-2
3.050587507E0,1.567968912E-2,-1.581530087E-2,-1.340421569E-2
3.052587307E0,1.629055478E-2,-1.459357049E-2,-1.096075494E-2
3.054587040E0,1.506882347E-2,-1.642616652E-2,-1.096075494E-2
3.056586740E0,1.567968912E-2,-1.092837937E-2,-1.157161966E-2
3.058586473E0,1.384709403E-2,-9.706648998E-3,-7.906428538E-3
3.060586206E0,1.262536366E-2,-7.874052972E-3,-9.128159843E-3
3.062585939E0,1.140363235E-2,-6.041456945E-3,-8.517294191E-3
3.064585672E0,1.201449800E-2,-2.376265824E-3,-6.073832978E-3
3.066585405E0,9.571036324E-3,6.719517842E-5,-6.684698630E-3
3.068585238E0,7.738440763E-3,3.732386511E-3,-6.684698630E-3
3.070584971E0,8.349305950E-3,5.564982537E-3,-4.852102604E-3
3.072584704E0,7.127576042E-3,6.786712445E-3,-1.797776436E-3
3.074584437E0,5.294980016E-3,9.841038845E-3,-3.630371997E-3
3.076584170E0,5.294980016E-3,1.167363487E-2,3.481932072E-5
3.078583903E0,4.684114829E-3,1.106277015E-2,2.478280338E-3
3.080583636E0,4.073249176E-3,1.533882599E-2,1.256549847E-3
3.082583436E0,3.462384222E-3,1.900401711E-2,3.089145757E-3
3.084583236E0,2.851518802E-3,1.778228767E-2,3.089145757E-3
3.086582969E0,4.684114829E-3,1.961488277E-2,3.700010711E-3
3.088582702E0,2.851518802E-3,1.961488277E-2,4.310875665E-3
3.090582435E0,4.073249176E-3,2.328007482E-2,5.532606505E-3
3.092582168E0,1.629788545E-3,2.511267178E-2,5.532606505E-3
3.094581868E0,3.462384222E-3,2.572353557E-2,6.143471692E-3
3.096581601E0,2.240653848E-3,2.816699632E-2,6.143471692E-3
3.098581401E0,3.462384222E-3,2.572353557E-2,7.365202531E-3
3.100581134E0,4.073249176E-3,2.999959141E-2,5.532606505E-3
3.102580867E0,3.462384222E-3,2.877786197E-2,6.754336879E-3
3.104580600E0,4.684114829E-3,3.183218837E-2,5.532606505E-3
3.106580333E0,2.851518802E-3,3.305391595E-2,5.532606505E-3
3.108580066E0,4.073249176E-3,3.305391595E-2,5.532606505E-3
3.110579799E0,4.073249176E-3,3.427565098E-2,6.754336879E-3
3.112579532E0,2.851518802E-3,3.061045893E-2,8.586932905E-3
3.114579332E0,1.629788545E-3,3.366478533E-2,7.365202531E-3
3.116579065E0,3.462384222E-3,2.877786197E-2,6.143471692E-3
3.118578798E0,2.240653848E-3,2.877786197E-2,4.310875665E-3
3.120578531E0,3.462384222E-3,2.572353557E-2,6.143471692E-3
3.122578264E0,4.684114829E-3,2.572353557E-2,6.143471692E-3
3.124577997E0,2.240653848E-3,2.572353557E-2,3.089145757E-3
3.126577730E0,2.851518802E-3,2.205834351E-2,3.089145757E-3
3.128577463E0,2.851518802E-3,2.266920917E-2,3.089145757E-3
3.130577263E0,4.073249176E-3,2.144747972E-2,1.867415034E-3
3.132576996E0,2.240653848E-3,2.022574842E-2,3.700010711E-3
3.134576729E0,2.851518802E-3,1.717142388E-2,3.700010711E-3
3.136576462E0,2.851518802E-3,1.900401711E-2,3.089145757E-3
3.138576195E0,2.851518802E-3,1.778228767E-2,2.478280338E-3
3.140575928E0,4.073249176E-3,1.350622997E-2,6.456845440E-4
3.142575661E0,2.851518802E-3,1.350622997E-2,3.089145757E-3
3.144575394E0,2.240653848E-3,1.289536618E-2,2.478280338E-3
3.146575194E0,4.073249176E-3,9.230174124E-3,1.867415034E-3
3.148574927E0,3.462384222E-3,8.619308472E-3,6.456845440E-4
3.150574660E0,4.073249176E-3,8.619308472E-3,1.256549847E-3
3.152574393E0,2.851518802E-3,5.564982537E-3,2.478280338E-3
3.154574159E0,2.240653848E-3,9.841038845E-3,3.089145757E-3
3.156573892E0,2.851518802E-3,7.397578098E-3,1.867415034E-3
3.158573625E0,5.905845203E-3,9.230174124E-3,2.478280338E-3
3.160573425E0,5.294980016E-3,8.008443750E-3,4.310875665E-3
3.162573225E0,4.073249176E-3,8.619308472E-3,3.089145757E-3
3.164572925E0,5.294980016E-3,7.397578098E-3,6.456845440E-4
3.166572658E0,8.349305950E-3,9.230174124E-3,2.478280338E-3
3.168572391E0,8.349305950E-3,9.230174124E-3,4.921741318E-3
3.170572124E0,8.349305950E-3,1.106277015E-2,4.921741318E-3
3.172571857E0,7.738440763E-3,8.619308472E-3,3.089145757E-3
3.174571590E0,1.079276763E-2,1.106277015E-2,3.089145757E-3
3.176571423E0,1.079276763E-2,1.411709562E-2,4.921741318E-3
3.178571156E0,1.201449800E-2,1.289536618E-2,3.700010711E-3
3.180570889E0,1.018190198E-2,1.289536618E-2,5.532606505E-3
3.182570622E0,1.140363235E-2,1.472796034E-2,5.532606505E-3
3.184570355E0,1.323622838E-2,1.594969258E-2,7.365202531E-3
3.186570088E0,1.262536366E-2,1.778228767E-2,9.808663279E-3
3.188569821E0,1.201449800E-2,1.778228767E-2,1.286298968E-2
3.190569554E0,1.384709403E-2,2.022574842E-2,9.197797626E-3
3.192570020E0,1.384709403E-2,2.022574842E-2,9.197797626E-3
3.194569786E0,1.629055478E-2,2.205834351E-2,1.347385533E-2
3.196569552E0,1.567968912E-2,2.205834351E-2,1.347385533E-2
3.198569318E0,1.445795782E-2,2.450180426E-2,1.469558571E-2
3.200569084E0,1.751228608E-2,2.328007482E-2,1.591731608E-2
3.202568850E0,1.812314987E-2,2.572353557E-2,1.591731608E-2
3.204568616E0,1.629055478E-2,2.572353557E-2,1.713904552E-2
3.206568382E0,1.751228608E-2,2.755613066E-2,1.836077683E-2
3.208568215E0,1.751228608E-2,2.877786197E-2,1.774991304E-2
3.210567981E0,1.690141857E-2,3.061045893E-2,2.019337192E-2
3.212567747E0,1.690141857E-2,3.122132272E-2,2.202596888E-2
3.214567513E0,1.812314987E-2,3.305391595E-2,2.141510136E-2
3.216567246E0,1.629055478E-2,3.122132272E-2,2.263683267E-2
3.218567012E0,1.567968912E-2,3.183218837E-2,2.385856397E-2
3.220566778E0,1.323622838E-2,3.366478533E-2,2.508029342E-2
3.222566544E0,1.201449800E-2,3.183218837E-2,2.508029342E-2
3.224566410E0,8.349305950E-3,3.183218837E-2,2.752375603E-2
3.226566176E0,1.201449800E-2,3.366478533E-2,2.630202472E-2
3.228565942E0,5.294980016E-3,3.427565098E-2,2.874548547E-2
3.230565708E0,5.905845203E-3,3.610824421E-2,2.874548547E-2
3.232565474E0,3.462384222E-3,3.549737856E-2,2.813461982E-2
3.234565240E0,1.018923242E-3,3.855170310E-2,3.057808056E-2
3.236565006E0,4.080579965E-4,4.038430005E-2,3.302154317E-2
3.238564839E0,-8.136724937E-4,4.099516571E-2,3.179981187E-2
3.240564672E0,4.080579965E-4,4.221689701E-2,3.057808056E-2
3.242564438E0,-3.257133532E-3,4.466035962E-2,3.302154317E-2
3.244564204E0,-2.646268113E-3,4.404949024E-2,3.363240883E-2
3.246563970E0,-5.089729093E-3,4.832554981E-2,3.302154317E-2
3.248563736E0,-3.867998952E-3,4.832554981E-2,3.668673337E-2
3.250563502E0,-3.257133532E-3,5.137987435E-2,3.485413641E-2
3.252562602E0,-5.089729093E-3,5.382333696E-2,3.179981187E-2
3.254562368E0,-6.922325119E-3,5.748853087E-2,3.302154317E-2
3.256562168E0,-2.028072631E-4,5.565593392E-2,3.241067752E-2
3.258561901E0,-2.035402926E-3,5.932112411E-2,3.302154317E-2
3.260561634E0,-8.136724937E-4,5.932112411E-2,3.302154317E-2
3.262561367E0,1.629788545E-3,6.298631430E-2,3.179981187E-2
3.264561100E0,-8.136724937E-4,6.237544864E-2,3.118894808E-2
3.266560833E0,1.629788545E-3,6.176458299E-2,3.302154317E-2
3.268560566E0,1.018923242E-3,6.542977691E-2,3.118894808E-2
3.270560366E0,1.629788545E-3,6.481891125E-2,2.813461982E-2
3.272560099E0,3.462384222E-3,6.726237386E-2,2.874548547E-2
3.274559832E0,2.851518802E-3,6.787323952E-2,3.057808056E-2
3.276559565E0,3.462384222E-3,6.848409772E-2,2.996721677E-2
3.278559298E0,5.294980016E-3,7.214929163E-2,2.752375603E-2
3.280559031E0,4.073249176E-3,7.276016474E-2,2.874548547E-2
3.282558764E0,5.905845203E-3,7.520361990E-2,2.630202472E-2
3.284558497E0,4.073249176E-3,7.581448555E-2,2.569116093E-2
3.286558297E0,5.905845203E-3,7.764708251E-2,2.508029342E-2
3.288558030E0,4.684114829E-3,7.581448555E-2,2.569116093E-2
3.290557763E0,6.516710389E-3,7.764708251E-2,2.752375603E-2
3.292557496E0,4.684114829E-3,7.825794816E-2,2.446942963E-2
3.294557229E0,6.516710389E-3,7.825794816E-2,2.202596888E-2
3.296556962E0,4.073249176E-3,7.825794816E-2,2.202596888E-2
3.298556695E0,3.462384222E-3,7.703621686E-2,2.202596888E-2
3.300556428E0,3.462384222E-3,7.520361990E-2,2.141510136E-2
3.302556228E0,4.684114829E-3,7.764708251E-2,2.202596888E-2
3.304555961E0,4.684114829E-3,7.337102294E-2,2.080423757E-2
3.306555694E0,3.462384222E-3,7.520361990E-2,1.713904552E-2
3.308555427E0,4.684114829E-3,7.398188859E-2,1.958250813E-2
3.310555160E0,2.851518802E-3,7.581448555E-2,1.897164062E-2
3.312554893E0,2.240653848E-3,7.337102294E-2,1.836077683E-2
3.314554626E0,-1.424537739E-3,7.153842598E-2,1.591731608E-2
3.316554359E0,-8.136724937E-4,7.092756778E-2,1.469558571E-2
3.318554159E0,4.080579965E-4,7.337102294E-2,1.530645043E-2
3.320553892E0,4.080579965E-4,6.970583647E-2,1.530645043E-2
3.322553625E0,-2.035402926E-3,7.031669468E-2,1.286298968E-2
3.324553358E0,-2.035402926E-3,6.604064256E-2,1.164125931E-2
3.326553091E0,-3.257133532E-3,6.787323952E-2,1.041952893E-2
3.328552824E0,-3.257133532E-3,6.665150821E-2,7.976067252E-3
3.330552524E0,-4.478864372E-3,6.604064256E-2,7.365202531E-3
3.332552324E0,-3.867998952E-3,6.420804560E-2,6.754336879E-3
3.334552124E0,-6.311459467E-3,6.359717995E-2,3.700010711E-3
3.336551890E0,-5.700594280E-3,6.298631430E-2,3.089145757E-3
3.338551623E0,-4.478864372E-3,6.115372106E-2,1.256549847E-3
3.340551356E0,-6.311459467E-3,6.237544864E-2,3.481932072E-5
3.342551089E0,-6.922325119E-3,5.993198603E-2,-5.760459462E-4
3.344550822E0,-7.533190306E-3,6.115372106E-2,-5.760459462E-4
3.346550555E0,-7.533190306E-3,6.054285541E-2,-5.760459462E-4
3.348550355E0,-6.922325119E-3,6.298631430E-2,-4.241236951E-3
3.350550088E0,-4.478864372E-3,6.176458299E-2,-3.630371997E-3
3.352549821E0,-7.533190306E-3,6.054285541E-2,-4.241236951E-3
3.354549554E0,-6.311459467E-3,6.298631430E-2,-6.073832978E-3
3.356549287E0,-6.311459467E-3,6.359717995E-2,-5.462967791E-3
3.358549020E0,-6.922325119E-3,6.237544864E-2,-4.852102604E-3
3.360548753E0,-6.922325119E-3,6.665150821E-2,-8.517294191E-3
3.362548453E0,-7.533190306E-3,6.176458299E-2,-7.295563817E-3
3.364548253E0,-6.922325119E-3,6.481891125E-2,-7.295563817E-3
3.366547986E0,-7.533190306E-3,6.237544864E-2,-7.295563817E-3
3.368547719E0,-8.144055493E-3,6.298631430E-2,-4.241236951E-3
3.370547452E0,-5.700594280E-3,6.237544864E-2,-7.295563817E-3
3.372547185E0,-6.311459467E-3,6.115372106E-2,-7.295563817E-3
3.374546951E0,-6.311459467E-3,5.993198603E-2,-7.295563817E-3
3.376546684E0,-3.257133532E-3,5.809939280E-2,-9.128159843E-3
3.378546417E0,-6.311459467E-3,5.993198603E-2,-7.906428538E-3
3.380546217E0,-3.867998952E-3,6.176458299E-2,-7.295563817E-3
3.382545950E0,-3.867998952E-3,5.748853087E-2,-1.034989022E-2
3.384545650E0,-3.257133532E-3,5.687766150E-2,-7.295563817E-3
3.386545383E0,-1.424537739E-3,5.687766150E-2,-7.906428538E-3
3.388545116E0,-2.035402926E-3,5.443419889E-2,-8.517294191E-3
3.390544882E0,1.018923242E-3,5.443419889E-2,-9.739024565E-3
3.392544615E0,-2.646268113E-3,5.382333696E-2,-9.739024565E-3
3.394544348E0,-2.035402926E-3,5.382333696E-2,-8.517294191E-3
3.396544148E0,-1.424537739E-3,5.076900870E-2,-1.340421569E-2
3.398543881E0,-2.028072631E-4,5.137987435E-2,-9.739024565E-3
3.400543581E0,-2.028072631E-4,4.832554981E-2,-1.157161966E-2
3.402543314E0,-2.035402926E-3,4.771468416E-2,-8.517294191E-3
3.404543047E0,1.629788545E-3,4.832554981E-2,-1.034989022E-2
3.406542780E0,1.629788545E-3,4.649295285E-2,-1.034989022E-2
3.408542513E0,2.851518802E-3,4.649295285E-2,-7.295563817E-3
3.410542313E0,1.018923242E-3,4.527122527E-2,-7.906428538E-3
3.412542113E0,3.462384222E-3,4.588208720E-2,-8.517294191E-3
3.414541879E0,2.851518802E-3,4.343862832E-2,-7.295563817E-3
3.416541645E0,3.462384222E-3,4.404949024E-2,-4.852102604E-3
3.418541411E0,4.684114829E-3,4.221689701E-2,-4.852102604E-3
3.420541177E0,4.073249176E-3,3.855170310E-2,-7.906428538E-3
3.422540943E0,3.462384222E-3,3.977343813E-2,-7.295563817E-3
3.424540709E0,4.073249176E-3,3.549737856E-2,-6.684698630E-3
3.426540542E0,5.905845203E-3,3.305391595E-2,-6.073832978E-3
3.428540375E0,5.905845203E-3,3.244305402E-2,-4.852102604E-3
3.430540175E0,5.905845203E-3,3.244305402E-2,-4.241236951E-3
3.432539975E0,6.516710389E-3,2.999959141E-2,-1.186911250E-3
3.434539775E0,7.127576042E-3,2.999959141E-2,-5.760459462E-4
3.436539575E0,9.571036324E-3,3.366478533E-2,3.481932072E-5
3.438539375E0,8.349305950E-3,3.122132272E-2,1.256549847E-3
3.440539175E0,8.960171603E-3,3.061045893E-2,6.456845440E-4
3.442539041E0,8.349305950E-3,2.938872762E-2,1.256549847E-3
3.444538941E0,9.571036324E-3,3.122132272E-2,1.867415034E-3
3.446538807E0,8.349305950E-3,2.999959141E-2,3.700010711E-3
3.448538673E0,8.960171603E-3,3.183218837E-2,4.921741318E-3
3.450538539E0,9.571036324E-3,3.183218837E-2,5.532606505E-3
3.452538405E0,1.079276763E-2,2.938872762E-2,7.976067252E-3
3.454538271E0,1.079276763E-2,3.305391595E-2,7.976067252E-3
3.456538137E0,1.201449800E-2,3.427565098E-2,7.976067252E-3
3.458538070E0,1.201449800E-2,3.671910986E-2,9.808663279E-3
3.460537970E0,1.567968912E-2,3.732997552E-2,1.225212403E-2
3.462537836E0,1.445795782E-2,3.916257247E-2,1.164125931E-2
3.464537702E0,1.629055478E-2,4.282776266E-2,1.347385533E-2
3.466537568E0,1.751228608E-2,4.527122527E-2,1.530645043E-2
3.468537401E0,1.812314987E-2,4.710382223E-2,1.713904552E-2
3.470537267E0,1.812314987E-2,4.832554981E-2,1.652818173E-2
3.472537133E0,1.995574497E-2,5.015814677E-2,1.774991304E-2
3.474537033E0,2.056661062E-2,5.321247131E-2,1.897164062E-2
3.476536866E0,1.995574497E-2,5.504506826E-2,2.263683267E-2
3.478536699E0,2.117747627E-2,5.504506826E-2,2.202596888E-2
3.480536532E0,2.301007323E-2,5.565593392E-2,2.324769832E-2
3.482536398E0,2.362093702E-2,5.687766150E-2,2.446942963E-2
3.484536231E0,2.423180267E-2,5.748853087E-2,2.752375603E-2
3.486536064E0,2.178834192E-2,5.748853087E-2,3.057808056E-2
3.488535897E0,2.362093702E-2,5.809939280E-2,2.935635112E-2
3.490535763E0,2.606439777E-2,6.054285541E-2,3.057808056E-2
3.492535563E0,2.423180267E-2,5.809939280E-2,3.057808056E-2
3.494535363E0,2.484266832E-2,5.871025845E-2,3.424327448E-2
3.496535163E0,2.423180267E-2,5.626679584E-2,3.607587144E-2
3.498534963E0,2.728612907E-2,5.687766150E-2,3.607587144E-2
3.500534896E0,2.667526528E-2,5.626679584E-2,3.851933032E-2
3.502534696E0,2.606439777E-2,5.626679584E-2,3.974105790E-2
3.504534496E0,2.728612907E-2,5.748853087E-2,4.096279293E-2
3.506534262E0,2.667526528E-2,5.626679584E-2,3.974105790E-2
3.508533995E0,2.728612907E-2,5.382333696E-2,4.401711747E-2
3.510533728E0,2.911872417E-2,5.871025845E-2,4.218452051E-2
3.512533461E0,2.789699286E-2,5.932112411E-2,4.768230766E-2
3.514533194E0,2.789699286E-2,5.993198603E-2,4.218452051E-2
3.516532927E0,2.789699286E-2,5.748853087E-2,4.523884505E-2
3.518532660E0,2.667526528E-2,6.054285541E-2,4.768230766E-2
3.520532460E0,3.156218678E-2,6.176458299E-2,4.768230766E-2
3.522532193E0,3.217304870E-2,6.176458299E-2,4.951490462E-2
3.524531926E0,2.850786038E-2,6.359717995E-2,4.951490462E-2
3.526531659E0,3.217304870E-2,6.298631430E-2,5.134750158E-2
3.528531425E0,3.034045361E-2,6.054285541E-2,4.951490462E-2
3.530531158E0,3.156218678E-2,5.932112411E-2,5.134750158E-2
3.532530891E0,3.278391808E-2,6.054285541E-2,5.256922916E-2
3.534530624E0,3.034045361E-2,6.115372106E-2,5.379096046E-2
3.536530424E0,3.034045361E-2,6.176458299E-2,5.318009481E-2
3.538530124E0,2.972958982E-2,5.993198603E-2,5.440182611E-2
3.540529857E0,3.156218678E-2,5.932112411E-2,5.745615438E-2
3.542529590E0,3.156218678E-2,6.115372106E-2,5.623441935E-2
3.544529323E0,3.034045361E-2,5.932112411E-2,5.623441935E-2
3.546529056E0,3.278391808E-2,5.993198603E-2,5.989961326E-2
3.548528789E0,3.034045361E-2,5.932112411E-2,5.745615438E-2
3.550528522E0,3.339478374E-2,5.748853087E-2,6.173220649E-2
3.552528255E0,3.156218678E-2,5.626679584E-2,6.051047891E-2
3.554527988E0,3.278391808E-2,6.054285541E-2,5.867788196E-2
3.556527721E0,3.156218678E-2,5.871025845E-2,5.928875133E-2
3.558527454E0,3.156218678E-2,5.748853087E-2,5.867788196E-2
3.560527054E0,3.278391808E-2,5.809939280E-2,6.051047891E-2
3.562526787E0,3.400564566E-2,5.871025845E-2,5.989961326E-2
3.564526520E0,3.278391808E-2,5.748853087E-2,6.173220649E-2
3.566526286E0,3.095132113E-2,5.565593392E-2,6.112134457E-2
3.568526086E0,3.522738069E-2,5.687766150E-2,6.173220649E-2
3.570525819E0,3.461651132E-2,5.626679584E-2,6.112134457E-2
3.572525552E0,3.461651132E-2,5.871025845E-2,5.867788196E-2
3.574525285E0,3.339478374E-2,5.687766150E-2,5.989961326E-2
3.576524985E0,3.400564566E-2,5.993198603E-2,5.867788196E-2
3.578524718E0,3.278391808E-2,5.626679584E-2,5.989961326E-2
3.580524451E0,3.705997020E-2,5.687766150E-2,5.684528872E-2
3.582524251E0,3.644910827E-2,5.993198603E-2,5.806701630E-2
3.584524051E0,3.583824262E-2,5.932112411E-2,5.684528872E-2
3.586523784E0,3.583824262E-2,5.871025845E-2,5.379096046E-2
3.588523517E0,3.767083585E-2,5.871025845E-2,5.379096046E-2
3.590523250E0,3.767083585E-2,5.871025845E-2,5.501269177E-2
3.592522983E0,3.950343281E-2,5.504506826E-2,5.134750158E-2
3.594522716E0,4.011429846E-2,5.626679584E-2,4.890403897E-2
3.596522449E0,4.194689542E-2,5.504506826E-2,4.951490462E-2
3.598522282E0,4.439035431E-2,5.565593392E-2,5.012577027E-2
3.600522015E0,4.316862673E-2,5.137987435E-2,4.523884505E-2
3.602521748E0,4.377949238E-2,4.954728112E-2,4.584971070E-2
3.604521481E0,4.744468257E-2,4.893641546E-2,4.340625182E-2
3.606521214E0,4.927727953E-2,4.527122527E-2,4.157365486E-2
3.608520947E0,5.049900711E-2,4.038430005E-2,3.851933032E-2
3.610520680E0,4.988814145E-2,3.916257247E-2,3.790846467E-2
3.612520413E0,4.988814145E-2,3.427565098E-2,3.729759902E-2
3.614520179E0,5.294246972E-2,3.122132272E-2,3.729759902E-2
3.616519912E0,5.416420102E-2,2.816699632E-2,3.485413641E-2
3.618519645E0,5.599679425E-2,2.450180426E-2,3.302154317E-2
3.620519378E0,5.599679425E-2,2.205834351E-2,3.118894808E-2
3.622519111E0,5.844025686E-2,1.778228767E-2,3.057808056E-2
3.624518844E0,5.599679425E-2,9.841038845E-3,2.874548547E-2
3.626518577E0,6.027285382E-2,6.175847724E-3,2.630202472E-2
3.628518310E0,6.149458140E-2,5.564982537E-3,2.630202472E-2
3.630518110E0,6.454890966E-2,-5.436700303E-4,2.080423757E-2
3.632517843E0,6.638150662E-2,-4.208861385E-3,2.202596888E-2
3.634517576E0,6.638150662E-2,-6.652322132E-3,2.080423757E-2
3.636517342E0,6.699237227E-2,-1.459357049E-2,2.080423757E-2
3.638517075E0,6.943582743E-2,-1.703703031E-2,1.774991304E-2
3.640516808E0,6.882496923E-2,-2.375655062E-2,1.836077683E-2
3.642516541E0,7.187929749E-2,-2.620000951E-2,1.469558571E-2
3.644516274E0,7.371189445E-2,-3.047606722E-2,1.286298968E-2
3.646516074E0,7.249015570E-2,-3.047606722E-2,1.286298968E-2
3.648515807E0,7.310102135E-2,-3.536298871E-2,1.225212403E-2
3.650515540E0,7.371189445E-2,-3.719558194E-2,1.103039365E-2
3.652515273E0,7.371189445E-2,-3.841731697E-2,9.197797626E-3
3.654515006E0,7.249015570E-2,-4.208250716E-2,7.365202531E-3
3.656514739E0,7.004670054E-2,-4.147164151E-2,5.532606505E-3
3.658514472E0,6.943582743E-2,-4.391510412E-2,6.754336879E-3
3.660514272E0,6.515977532E-2,-4.696942866E-2,4.921741318E-3
3.662514038E0,6.149458140E-2,-5.307808146E-2,2.478280338E-3
3.664513771E0,5.660766363E-2,-5.307808146E-2,3.700010711E-3
3.666513504E0,5.294246972E-2,-5.429981276E-2,-1.186911250E-3
3.668513237E0,4.805554450E-2,-5.918673426E-2,-5.462967791E-3
3.670512970E0,4.500121996E-2,-6.163019687E-2,-3.630371997E-3
3.672512770E0,3.950343281E-2,-7.018230110E-2,-9.128159843E-3
3.674512536E0,3.522738069E-2,-7.384749502E-2,-1.096075494E-2
3.676512336E0,3.095132113E-2,-7.812355459E-2,-1.096075494E-2
3.678512136E0,2.667526528E-2,-8.484306931E-2,-1.706940867E-2
3.680511869E0,2.178834192E-2,-9.217345715E-2,-2.195633017E-2
3.682511602E0,1.812314987E-2,-9.828211367E-2,-2.256719396E-2
3.684511302E0,1.384709403E-2,-1.037798971E-1,-2.745411731E-2
3.686511035E0,7.738440763E-3,-1.166080683E-1,-3.417363390E-2
3.688510768E0,5.905845203E-3,-1.178297922E-1,-3.722796217E-2
3.690510501E0,4.080579965E-4,-1.251601726E-1,-4.089314863E-2
3.692510301E0,-2.035402926E-3,-1.373774856E-1,-4.150401801E-2
3.694510034E0,-4.478864372E-3,-1.379883587E-1,-4.394748062E-2
3.696509767E0,-6.922325119E-3,-1.465404630E-1,-4.639093950E-2
3.698509500E0,-1.058751717E-2,-1.563142985E-1,-4.883439839E-2
3.700509233E0,-1.364184264E-2,-1.612012386E-1,-5.005612969E-2
3.702508966E0,-1.791789941E-2,-1.715859324E-1,-5.127786100E-2
3.704508699E0,-1.913962886E-2,-1.740294099E-1,-5.188872665E-2
3.706508432E0,-1.791789941E-2,-1.776945889E-1,-5.249959230E-2
3.708508232E0,-2.158309147E-2,-1.850249767E-1,-4.883439839E-2
3.710507965E0,-2.463741601E-2,-1.905227602E-1,-4.516920820E-2
3.712507698E0,-2.341568656E-2,-1.929662228E-1,-4.822353274E-2
3.714507431E0,-2.341568656E-2,-1.972422749E-1,-4.150401801E-2
3.716507164E0,-2.280482091E-2,-1.978531480E-1,-3.783882409E-2
3.718506897E0,-1.913962886E-2,-2.002965957E-1,-3.661709651E-2
3.720506630E0,-1.913962886E-2,-1.978531480E-1,-3.234103695E-2
3.722506363E0,-1.486357301E-2,-1.972422749E-1,-2.623238601E-2
3.724506163E0,-1.608530432E-2,-1.966314018E-1,-1.951286942E-2
3.726505896E0,-1.119838096E-2,-1.923553646E-1,-1.890200190E-2
3.728505629E0,-8.144055493E-3,-1.874684244E-1,-1.157161966E-2
3.730505362E0,-5.700594280E-3,-1.862467080E-1,-6.684698630E-3
3.732505095E0,-1.424537739E-3,-1.770837307E-1,-2.408641623E-3
3.734504828E0,3.462384222E-3,-1.721968055E-1,2.478280338E-3
3.736504561E0,5.294980016E-3,-1.666990221E-1,5.532606505E-3
3.738504294E0,1.262536366E-2,-1.563142985E-1,1.469558571E-2
3.740504094E0,1.629055478E-2,-1.447078735E-1,2.080423757E-2
3.742503827E0,1.934488118E-2,-1.398209482E-1,2.324769832E-2
3.744503560E0,2.545353398E-2,-1.257710457E-1,3.057808056E-2
3.746503293E0,2.789699286E-2,-1.221058518E-1,3.118894808E-2
3.748503026E0,3.400564566E-2,-1.050016284E-1,4.035192356E-2
3.750502759E0,3.950343281E-2,-8.911913633E-2,4.829317331E-2
3.752502492E0,4.316862673E-2,-8.056701720E-2,5.073663220E-2
3.754502292E0,4.988814145E-2,-6.590624899E-2,5.501269177E-2
3.756502092E0,5.721852556E-2,-5.063461885E-2,6.234307587E-2
3.758501825E0,5.905112252E-2,-4.024991393E-2,6.661913544E-2
3.760501558E0,6.454890966E-2,-2.497827820E-2,7.028432190E-2
3.762501291E0,7.126842439E-2,-9.706648998E-3,7.456038147E-2
3.764501024E0,7.310102135E-2,-1.154535334E-3,7.700383663E-2
3.766500757E0,7.859880477E-2,9.841038845E-3,8.189076185E-2
3.768500490E0,8.287486434E-2,2.450180426E-2,8.861028403E-2
3.770500290E0,8.715092391E-2,3.122132272E-2,9.166460484E-2
3.772500023E0,8.959438652E-2,4.038430005E-2,9.655153006E-2
3.774499756E0,9.142697603E-2,4.893641546E-2,1.002167240E-1
3.776499489E0,9.325957298E-2,5.321247131E-2,1.014384553E-1
3.778499222E0,9.631390125E-2,5.932112411E-2,1.063253731E-1
3.780498955E0,9.936822206E-2,6.298631430E-2,1.099905595E-1
3.782498721E0,9.997909516E-2,6.542977691E-2,1.099905595E-1
3.784498454E0,9.936822206E-2,6.665150821E-2,1.154883504E-1
3.786498254E0,1.048660129E-1,6.970583647E-2,1.148774847E-1
3.788497987E0,1.042551473E-1,7.031669468E-2,1.154883504E-1
3.790497720E0,1.042551473E-1,7.276016474E-2,1.167100817E-1
3.792497420E0,1.048660129E-1,7.581448555E-2,1.179318056E-1
3.794497153E0,1.024225503E-1,7.031669468E-2,1.179318056E-1
3.796496853E0,1.024225503E-1,7.337102294E-2,1.185426787E-1
3.798496586E0,9.875736386E-2,7.276016474E-2,1.167100817E-1
3.800496319E0,9.753563255E-2,7.153842598E-2,1.191535443E-1
3.802496119E0,9.631390125E-2,7.092756778E-2,1.160992160E-1
3.804495885E0,9.325957298E-2,6.848409772E-2,1.179318056E-1
3.806495618E0,9.203784168E-2,6.848409772E-2,1.154883504E-1
3.808495351E0,8.776178956E-2,6.115372106E-2,1.179318056E-1
3.810495084E0,8.226399869E-2,6.359717995E-2,1.173209473E-1
3.812494817E0,8.348572999E-2,5.993198603E-2,1.167100817E-1
3.814494550E0,7.432275265E-2,5.443419889E-2,1.136557534E-1
3.816494283E0,6.821410358E-2,4.954728112E-2,1.142666191E-1
3.818494083E0,6.760323048E-2,4.771468416E-2,1.154883504E-1
3.820493849E0,6.149458140E-2,4.466035962E-2,1.160992160E-1
3.822493615E0,5.660766363E-2,3.916257247E-2,1.160992160E-1
3.824493381E0,5.294246972E-2,3.610824421E-2,1.148774847E-1
3.826493147E0,4.683381692E-2,2.938872762E-2,1.130448878E-1
3.828492913E0,4.072516412E-2,2.511267178E-2,1.136557534E-1
3.830492679E0,3.767083585E-2,2.205834351E-2,1.142666191E-1
3.832492512E0,2.911872417E-2,1.961488277E-2,1.130448878E-1
3.834492345E0,2.362093702E-2,1.961488277E-2,1.130448878E-1
3.836492111E0,2.178834192E-2,2.205834351E-2,1.136557534E-1
3.838491877E0,1.751228608E-2,2.022574842E-2,1.130448878E-1
3.840491643E0,1.262536366E-2,2.144747972E-2,1.148774847E-1
3.842491409E0,7.738440763E-3,2.144747972E-2,1.142666191E-1
3.844491142E0,3.462384222E-3,2.083661221E-2,1.142666191E-1
3.846490908E0,-2.028072631E-4,2.144747972E-2,1.167100817E-1
3.848490741E0,-4.478864372E-3,2.144747972E-2,1.136557534E-1
3.850490507E0,-8.144055493E-3,2.450180426E-2,1.118231565E-1
3.852490273E0,-1.058751717E-2,2.511267178E-2,1.136557534E-1
3.854490039E0,-1.119838096E-2,2.694526687E-2,1.124340221E-1
3.856489839E0,-1.547443867E-2,2.816699632E-2,1.167100817E-1
3.858489605E0,-1.486357301E-2,2.999959141E-2,1.130448878E-1
3.860489371E0,-1.608530432E-2,2.938872762E-2,1.160992160E-1
3.862489137E0,-1.547443867E-2,3.366478533E-2,1.136557534E-1
3.864488970E0,-1.730703376E-2,3.549737856E-2,1.167100817E-1
3.866488703E0,-1.486357301E-2,4.099516571E-2,1.142666191E-1
3.868488469E0,-1.486357301E-2,4.160603508E-2,1.124340221E-1
3.870488235E0,-1.486357301E-2,4.343862832E-2,1.124340221E-1
3.872488001E0,-1.486357301E-2,4.466035962E-2,1.124340221E-1
3.874487767E0,-1.119838096E-2,4.893641546E-2,1.106014252E-1
3.876487533E0,-1.180924661E-2,5.199074000E-2,1.087688282E-1
3.878487299E0,-7.533190306E-3,5.321247131E-2,1.063253731E-1
3.880487099E0,-4.478864372E-3,5.504506826E-2,1.026601791E-1
3.882486832E0,-1.424537739E-3,5.565593392E-2,9.960585833E-2
3.884486565E0,-1.424537739E-3,5.809939280E-2,9.899498522E-2
3.886486298E0,5.294980016E-3,5.871025845E-2,9.349720180E-2
3.888486031E0,8.349305950E-3,5.993198603E-2,9.349720180E-2
3.890485764E0,8.960171603E-3,5.993198603E-2,9.044288099E-2
3.892485497E0,1.384709403E-2,5.871025845E-2,8.799941093E-2
3.894485230E0,1.934488118E-2,5.687766150E-2,8.555595577E-2
3.896485030E0,2.301007323E-2,5.626679584E-2,8.127989620E-2
3.898484763E0,3.095132113E-2,5.748853087E-2,7.822556794E-2
3.900484496E0,3.034045361E-2,5.626679584E-2,7.822556794E-2
3.902484229E0,3.644910827E-2,5.321247131E-2,7.394951582E-2
3.904483962E0,4.255775735E-2,5.137987435E-2,7.272778451E-2
3.906483695E0,4.500121996E-2,5.199074000E-2,7.089518756E-2
3.908483428E0,5.049900711E-2,5.015814677E-2,6.661913544E-2
3.910483228E0,5.660766363E-2,4.466035962E-2,6.295394152E-2
3.912483061E0,5.966198817E-2,4.527122527E-2,6.234307587E-2
3.914482794E0,6.332717836E-2,4.038430005E-2,5.989961326E-2
3.916482527E0,6.821410358E-2,3.427565098E-2,5.684528872E-2
3.918482260E0,7.004670054E-2,3.183218837E-2,5.440182611E-2
3.920481993E0,7.432275265E-2,2.938872762E-2,5.440182611E-2
3.922481726E0,7.615534961E-2,2.511267178E-2,5.073663220E-2
3.924481459E0,7.737707347E-2,2.450180426E-2,4.768230766E-2
3.926481292E0,7.859880477E-2,2.022574842E-2,4.523884505E-2
3.928481092E0,7.920967042E-2,2.022574842E-2,4.279538617E-2
3.930480825E0,8.165314049E-2,1.778228767E-2,4.401711747E-2
3.932480558E0,8.043140173E-2,1.839315146E-2,4.218452051E-2
3.934480291E0,7.798794657E-2,1.717142388E-2,4.096279293E-2
3.936480024E0,8.165314049E-2,1.839315146E-2,3.851933032E-2
3.938479757E0,7.737707347E-2,2.083661221E-2,3.851933032E-2
3.940479490E0,7.615534961E-2,2.205834351E-2,3.790846467E-2
3.942479290E0,7.371189445E-2,2.205834351E-2,3.607587144E-2
3.944479023E0,7.004670054E-2,2.633439936E-2,3.790846467E-2
3.946478756E0,6.821410358E-2,2.877786197E-2,3.790846467E-2
3.948478489E0,6.760323048E-2,3.244305402E-2,3.607587144E-2
3.950478222E0,6.454890966E-2,3.732997552E-2,3.546500579E-2
3.952477922E0,6.027285382E-2,4.221689701E-2,3.668673337E-2
3.954477655E0,5.905112252E-2,4.710382223E-2,3.851933032E-2
3.956477388E0,5.416420102E-2,4.893641546E-2,3.851933032E-2
3.958477188E0,5.355333164E-2,5.504506826E-2,3.913019598E-2
3.960476921E0,4.988814145E-2,5.993198603E-2,4.157365486E-2
3.962476654E0,4.500121996E-2,6.604064256E-2,4.279538617E-2
3.964476420E0,4.072516412E-2,7.092756778E-2,4.279538617E-2
3.966476153E0,3.828170523E-2,7.398188859E-2,4.279538617E-2
3.968475886E0,3.522738069E-2,7.825794816E-2,4.462798312E-2
3.970475619E0,3.156218678E-2,8.314486593E-2,4.584971070E-2
3.972475285E0,3.034045361E-2,8.497746289E-2,4.890403897E-2
3.974475085E0,2.484266832E-2,9.047525376E-2,4.951490462E-2
3.976474818E0,2.178834192E-2,9.658390284E-2,5.256922916E-2
3.978474551E0,1.629055478E-2,9.658390284E-2,5.562355742E-2
3.980474284E0,1.445795782E-2,1.008599624E-1,5.623441935E-2
3.982474017E0,1.201449800E-2,1.088012084E-1,5.867788196E-2
3.984473750E0,8.960171603E-3,1.081903428E-1,5.806701630E-2
3.986473483E0,6.516710389E-3,1.130772606E-1,6.234307587E-2
3.988473216E0,2.240653848E-3,1.167424545E-1,6.539739668E-2
3.990472982E0,4.080579965E-4,1.161315888E-1,6.661913544E-2
3.992472715E0,-3.257133532E-3,1.191859171E-1,6.845173240E-2
3.994472448E0,-4.478864372E-3,1.197967827E-1,7.089518756E-2
3.996472181E0,-7.533190306E-3,1.185750514E-1,7.150605321E-2
3.998471914E0,-1.058751717E-2,1.185750514E-1,7.272778451E-2
4.000471647E0,-9.976651520E-3,1.197967827E-1,7.272778451E-2
4.002471380E0,-9.976651520E-3,1.204076484E-1,7.578211278E-2
4.004471180E0,-1.242011227E-2,1.204076484E-1,7.700383663E-2
4.006470980E0,-1.058751717E-2,1.216293797E-1,7.822556794E-2
4.008470713E0,-1.242011227E-2,1.216293797E-1,7.639297843E-2
4.010470446E0,-1.180924661E-2,1.210185140E-1,7.761470973E-2
4.012470179E0,-8.144055493E-3,1.234619766E-1,8.127989620E-2
4.014469912E0,-9.976651520E-3,1.197967827E-1,8.066903055E-2
4.016469645E0,-7.533190306E-3,1.197967827E-1,8.311249316E-2
4.018469378E0,-5.700594280E-3,1.185750514E-1,8.677768707E-2
4.020469178E0,-5.700594280E-3,1.210185140E-1,8.433422446E-2
4.022468911E0,-3.257133532E-3,1.222402453E-1,8.494509012E-2
4.024468644E0,-2.028072631E-4,1.197967827E-1,8.616681397E-2
4.026468377E0,4.684114829E-3,1.185750514E-1,8.738855273E-2
4.028468110E0,7.127576042E-3,1.216293797E-1,8.799941093E-2
4.030467843E0,8.349305950E-3,1.191859171E-1,8.738855273E-2
4.032467643E0,1.262536366E-2,1.185750514E-1,8.677768707E-2
4.034467376E0,1.445795782E-2,1.161315888E-1,8.616681397E-2
4.036467176E0,1.995574497E-2,1.149098575E-1,8.677768707E-2
4.038466909E0,2.239920571E-2,1.130772606E-1,8.738855273E-2
4.040466642E0,2.728612907E-2,1.142989993E-1,8.372335881E-2
4.042466375E0,2.667526528E-2,1.106338054E-1,8.555595577E-2
4.044466108E0,3.095132113E-2,1.088012084E-1,8.311249316E-2
4.046465841E0,3.461651132E-2,1.063577533E-1,8.189076185E-2
4.048465574E0,3.461651132E-2,1.033034176E-1,8.250162750E-2
4.050465307E0,3.889256716E-2,9.780563414E-2,7.944730669E-2
4.052465107E0,4.072516412E-2,9.597303718E-2,7.944730669E-2
4.054464840E0,4.011429846E-2,9.475130588E-2,7.944730669E-2
4.056464573E0,4.377949238E-2,8.986438811E-2,7.700383663E-2
4.058464306E0,4.683381692E-2,8.803179115E-2,7.394951582E-2
4.060464039E0,4.744468257E-2,8.558833599E-2,7.394951582E-2
4.062463772E0,4.805554450E-2,8.253400773E-2,7.211691886E-2
4.064463505E0,4.744468257E-2,7.642535120E-2,6.967345625E-2
4.066463238E0,4.805554450E-2,7.642535120E-2,6.784085929E-2
4.068463038E0,5.110987648E-2,7.337102294E-2,6.784085929E-2
4.070462771E0,5.110987648E-2,7.276016474E-2,6.234307587E-2
4.072462537E0,5.110987648E-2,7.031669468E-2,6.234307587E-2
4.074462270E0,5.110987648E-2,6.848409772E-2,6.234307587E-2
4.076462003E0,5.172073841E-2,6.359717995E-2,5.867788196E-2
4.078461736E0,5.110987648E-2,6.298631430E-2,5.623441935E-2
4.080461469E0,5.110987648E-2,5.748853087E-2,5.440182611E-2
4.082461269E0,5.172073841E-2,5.871025845E-2,4.890403897E-2
4.084461069E0,5.049900711E-2,5.748853087E-2,5.195836723E-2
4.086460802E0,4.866641387E-2,5.199074000E-2,4.890403897E-2
4.088460535E0,4.927727953E-2,4.954728112E-2,4.707144201E-2
4.090460268E0,4.744468257E-2,5.015814677E-2,4.401711747E-2
4.092460668E0,4.744468257E-2,5.015814677E-2,4.401711747E-2
4.094460401E0,4.866641387E-2,5.015814677E-2,4.157365486E-2
4.096460134E0,4.622295126E-2,5.015814677E-2,4.157365486E-2
4.098459900E0,4.622295126E-2,4.710382223E-2,3.668673337E-2
4.100459633E0,4.439035431E-2,4.771468416E-2,3.302154317E-2
4.102459366E0,4.500121996E-2,4.771468416E-2,3.363240883E-2
4.104459099E0,4.194689542E-2,4.649295285E-2,2.935635112E-2
4.106458832E0,4.377949238E-2,4.343862832E-2,2.813461982E-2
4.108458565E0,4.255775735E-2,4.343862832E-2,2.813461982E-2
4.110458331E0,4.194689542E-2,4.282776266E-2,2.630202472E-2
4.112458064E0,4.255775735E-2,4.527122527E-2,2.202596888E-2
4.114457864E0,3.950343281E-2,4.466035962E-2,2.324769832E-2
4.116457597E0,3.828170523E-2,4.343862832E-2,2.080423757E-2
4.118457330E0,3.705997020E-2,4.404949024E-2,1.530645043E-2
4.120457030E0,3.461651132E-2,4.282776266E-2,1.469558571E-2
4.122456763E0,3.339478374E-2,4.343862832E-2,1.408472005E-2
4.124456496E0,3.034045361E-2,4.099516571E-2,1.286298968E-2
4.126456229E0,2.972958982E-2,4.221689701E-2,1.225212403E-2
4.128455962E0,2.484266832E-2,4.038430005E-2,6.754336879E-3
4.130455762E0,2.362093702E-2,3.916257247E-2,7.365202531E-3
4.132455495E0,1.995574497E-2,3.671910986E-2,4.921741318E-3
4.134455228E0,1.934488118E-2,3.794084117E-2,2.478280338E-3
4.136454961E0,1.323622838E-2,2.999959141E-2,-1.797776436E-3
4.138454694E0,1.629055478E-2,3.549737856E-2,-3.630371997E-3
4.140454427E0,1.018190198E-2,3.122132272E-2,-6.684698630E-3
4.142454160E0,1.018190198E-2,3.183218837E-2,-7.295563817E-3
4.144453893E0,6.516710389E-3,2.816699632E-2,-1.096075494E-2
4.146453693E0,4.073249176E-3,2.572353557E-2,-1.279335096E-2
4.148453426E0,-8.136724937E-4,2.572353557E-2,-1.401508134E-2
4.150453159E0,-2.035402926E-3,2.572353557E-2,-1.462594699E-2
4.152452225E0,-3.867998952E-3,2.511267178E-2,-1.768027246E-2
4.154451958E0,-5.700594280E-3,2.450180426E-2,-1.890200190E-2
4.156451691E0,-6.922325119E-3,2.328007482E-2,-2.012373321E-2
4.158451424E0,-9.976651520E-3,1.900401711E-2,-2.256719396E-2
4.160451224E0,-8.144055493E-3,1.839315146E-2,-2.562152036E-2
4.162451024E0,-1.058751717E-2,1.656055637E-2,-2.745411731E-2
4.164450757E0,-1.119838096E-2,1.533882599E-2,-3.234103695E-2
4.166450490E0,-9.976651520E-3,1.411709562E-2,-2.928671241E-2
4.168450223E0,-1.180924661E-2,1.717142388E-2,-3.111930937E-2
4.170449956E0,-1.364184264E-2,1.472796034E-2,-3.295190260E-2
4.172449689E0,-1.608530432E-2,1.289536618E-2,-3.356277198E-2
4.174449422E0,-1.425270736E-2,1.350622997E-2,-3.417363390E-2
4.176449222E0,-1.425270736E-2,1.106277015E-2,-3.539536521E-2
4.178449022E0,-1.608530432E-2,1.656055637E-2,-3.722796217E-2
4.180448788E0,-1.852876507E-2,1.533882599E-2,-3.661709651E-2
4.182448521E0,-1.791789941E-2,1.167363487E-2,-3.600623086E-2
4.184448254E0,-1.669616811E-2,1.350622997E-2,-3.967142105E-2
4.186447987E0,-1.730703376E-2,1.350622997E-2,-3.844969347E-2
4.188447720E0,-1.730703376E-2,1.350622997E-2,-4.089314863E-2
4.190447453E0,-1.730703376E-2,1.228450052E-2,-4.333661124E-2
4.192447253E0,-1.547443867E-2,9.841038845E-3,-4.272574559E-2
4.194446986E0,-1.730703376E-2,1.045190450E-2,-4.211488366E-2
4.196446719E0,-1.852876507E-2,1.228450052E-2,-4.394748062E-2
4.198446452E0,-1.608530432E-2,1.106277015E-2,-4.211488366E-2
4.200446185E0,-1.547443867E-2,9.841038845E-3,-4.333661124E-2
4.202445918E0,-1.425270736E-2,8.619308472E-3,-3.906055540E-2
4.204445651E0,-1.486357301E-2,1.289536618E-2,-4.211488366E-2
4.206445351E0,-1.425270736E-2,1.167363487E-2,-4.028228670E-2
4.208445151E0,-1.425270736E-2,1.106277015E-2,-3.967142105E-2
4.210444884E0,-1.425270736E-2,1.167363487E-2,-4.211488366E-2
4.212444617E0,-1.486357301E-2,9.230174124E-3,-4.089314863E-2
4.214444350E0,-1.119838096E-2,1.106277015E-2,-3.783882409E-2
4.216444083E0,-1.242011227E-2,9.230174124E-3,-3.967142105E-2
4.218443849E0,-9.976651520E-3,1.106277015E-2,-3.783882409E-2
4.220443582E0,-9.365785867E-3,1.228450052E-2,-3.967142105E-2
4.222443315E0,-9.365785867E-3,1.167363487E-2,-3.661709651E-2
4.224443115E0,-8.144055493E-3,1.228450052E-2,-3.661709651E-2
4.226442881E0,-8.144055493E-3,1.289536618E-2,-3.661709651E-2
4.228442647E0,-8.144055493E-3,1.411709562E-2,-3.783882409E-2
4.230442413E0,-5.700594280E-3,1.411709562E-2,-3.722796217E-2
4.232442179E0,-5.089729093E-3,1.411709562E-2,-3.783882409E-2
4.234441945E0,-3.867998952E-3,1.533882599E-2,-3.600623086E-2
4.236441711E0,-5.089729093E-3,1.411709562E-2,-3.661709651E-2
4.238441477E0,-5.700594280E-3,1.289536618E-2,-3.600623086E-2
4.240441310E0,-4.478864372E-3,1.106277015E-2,-3.234103695E-2
4.242441043E0,-4.478864372E-3,1.472796034E-2,-3.173017129E-2
4.244440809E0,-5.089729093E-3,1.411709562E-2,-3.417363390E-2
4.246440575E0,-4.478864372E-3,1.289536618E-2,-3.234103695E-2
4.248440341E0,-4.478864372E-3,1.106277015E-2,-3.356277198E-2
4.250440107E0,-2.646268113E-3,1.350622997E-2,-3.295190260E-2
4.252439873E0,-5.700594280E-3,1.289536618E-2,-3.234103695E-2
4.254439706E0,-8.754921146E-3,1.167363487E-2,-3.173017129E-2
