"Time (s)","Acceleration x (m/s^2)","Acceleration y (m/s^2)","Acceleration z (m/s^2)"
1.420825000E-2,-1.914258152E-1,3.569493294E0,1.070399284E1
1.664819800E-2,-7.417750359E-2,3.461816072E0,1.059870911E1
1.908637500E-2,1.914258115E-2,3.375674486E0,1.049581718E1
2.152413500E-2,9.092725813E-2,3.296711445E0,1.046710396E1
2.393798900E-2,1.028913707E-1,3.236890793E0,1.041446114E1
2.631606200E-2,1.028913707E-1,3.236890793E0,1.041446114E1
2.871798900E-2,-3.589234129E-2,3.241676569E0,1.026580715E1
3.115575000E-2,-3.589234129E-2,3.241676569E0,1.026580715E1
3.356960400E-2,-1.220339537E-1,3.279961586E0,1.013420200E1
3.598351000E-2,-4.860421121E-1,3.313461065E0,9.707980156E0
3.842127100E-2,-4.860421121E-1,3.313461065E0,9.707980156E0
4.085903100E-2,-4.860421121E-1,3.313461065E0,9.707980156E0
4.330288500E-2,-7.588238716E-1,3.334996462E0,9.392127991E0
4.575137500E-2,-9.074779749E-1,3.356531858E0,9.229117393E0
4.820767700E-2,-1.012762189E0,3.354139090E0,9.083154678E0
5.067158300E-2,-1.113260746E0,3.358924866E0,8.918049812E0
5.313267700E-2,-1.141974568E0,3.284747362E0,8.695218086E0
5.559158300E-2,-1.177866936E0,3.212962627E0,8.506185532E0
5.804877100E-2,-1.213759303E0,3.143570662E0,8.317152023E0
6.050460400E-2,-1.316650629E0,3.110071182E0,8.130212784E0
6.295939600E-2,-1.474876046E0,3.122035265E0,7.979465485E0
6.541325000E-2,-1.690230131E0,3.143570662E0,7.871788502E0
6.786627100E-2,-1.931905150E0,3.208176851E0,7.766504288E0
7.031861400E-2,-2.204986095E0,3.296711445E0,7.706683636E0
7.277043700E-2,-2.449054003E0,3.368496180E0,7.704290867E0
7.522168700E-2,-2.691028118E0,3.457030535E0,7.713861942E0
7.767246800E-2,-2.906382322E0,3.516851187E0,7.740182877E0
8.012288500E-2,-3.098107100E0,3.559921980E0,7.771289825E0
8.257298900E-2,-3.289532900E0,3.610171080E0,7.821538925E0
8.502272900E-2,-3.430709362E0,3.665505171E0,7.864609718E0
8.747215600E-2,-3.586242914E0,3.684647799E0,7.938787460E0
8.992127100E-2,-3.730111361E0,3.727718592E0,8.053643227E0
9.237012500E-2,-3.806681633E0,3.777967930E0,8.173583031E0
9.481866600E-2,-3.885644913E0,3.856930971E0,8.333902359E0
9.726689600E-2,-3.907180309E0,3.933501244E0,8.482256889E0
9.971491600E-2,-3.907180309E0,4.012464523E0,8.613862038E0
1.021627290E-1,-3.854538202E0,4.098606110E0,8.752944946E0
1.046103330E-1,-3.761218071E0,4.163212299E0,8.896514893E0
1.070576770E-1,-3.636492252E0,4.228117466E0,8.989834785E0
1.095048120E-1,-3.454637766E0,4.256831646E0,9.090332985E0
1.119518430E-1,-3.222533941E0,4.280759811E0,9.188439369E0
1.143986660E-1,-2.815454960E0,4.232903481E0,9.600303650E0
1.168452810E-1,-2.257628202E0,4.196712017E0,9.976275444E0
1.192917910E-1,-1.649552107E0,4.098606110E0,9.981060982E0
1.217381460E-1,-1.261615753E0,3.986143351E0,9.791728973E0
1.241827290E-1,-8.955138922E-1,3.809074640E0,9.595518112E0
1.266017390E-1,-6.176473498E-1,3.653541088E0,9.495018959E0
1.289973120E-1,-5.410770178E-1,3.524029493E0,9.344271660E0
1.313928850E-1,-4.884349108E-1,3.382853031E0,9.226723671E0
1.337876770E-1,-5.315057039E-1,3.284747362E0,9.190832138E0
1.361824680E-1,-6.200401783E-1,3.110071182E0,9.104690552E0
1.385780410E-1,-7.253243923E-1,2.956631422E0,9.006584167E0
1.409736140E-1,-8.859425783E-1,2.858525753E0,8.865407944E0
1.433684060E-1,-9.912267923E-1,2.714956284E0,8.752944946E0
1.457631980E-1,-1.163509965E0,2.609672308E0,8.621041298E0
1.481587710E-1,-1.319043517E0,2.508874655E0,8.477471352E0
1.505543430E-1,-1.482054472E0,2.417947292E0,8.451150894E0
1.529491350E-1,-1.680658817E0,2.367697954E0,8.415258408E0
1.553439270E-1,-1.807478428E0,2.288734913E0,8.518149376E0
1.577395000E-1,-1.936690807E0,2.248056889E0,8.621041298E0
1.601350730E-1,-2.099701881E0,2.243271112E0,8.640183449E0
1.625298640E-1,-2.243271112E0,2.207378864E0,8.748159409E0
1.649246560E-1,-2.362912416E0,2.200200319E0,8.798408508E0
1.673202290E-1,-2.475374937E0,2.221735716E0,8.879764557E0
1.697158020E-1,-2.542673111E0,2.240878344E0,8.824729919E0
1.721105930E-1,-2.401197433E0,2.267199516E0,8.788837433E0
1.745053850E-1,-2.221735716E0,2.283949137E0,8.755337715E0
1.769009580E-1,-2.032702923E0,2.283949137E0,8.736195564E0
1.792965310E-1,-1.903191328E0,2.329412937E0,8.702695847E0
1.816913230E-1,-1.752443433E0,2.370090723E0,8.717052460E0
1.840861140E-1,-1.635195136E0,2.415554523E0,8.726624489E0
1.864816870E-1,-1.539482236E0,2.458625317E0,8.750552177E0
1.888772600E-1,-1.453340650E0,2.496910334E0,8.805587769E0
1.912720520E-1,-1.374078393E0,2.511267424E0,8.949156761E0
1.936668430E-1,-1.309472203E0,2.518445730E0,9.040083885E0
1.960624160E-1,-1.280758262E0,2.537887573E0,9.064012527E0
1.984579890E-1,-1.225723386E0,2.583351135E0,9.092725754E0
2.008527810E-1,-1.187438250E0,2.607279301E0,9.154939651E0
2.032475730E-1,-1.146760225E0,2.628814697E0,9.233902931E0
2.056431460E-1,-1.118046403E0,2.652743101E0,9.294022560E0
2.080387180E-1,-1.077368379E0,2.681456804E0,9.279664993E0
2.104335100E-1,-1.046261668E0,2.688635349E0,9.262915611E0
2.128283020E-1,-1.034297585E0,2.707777977E0,9.212367058E0
2.152238750E-1,-1.019940615E0,2.717349291E0,9.171689034E0
2.176194480E-1,-1.041476011E0,2.738884687E0,9.154939651E0
2.200142390E-1,-1.063011408E0,2.710170746E0,9.128618240E0
2.224090310E-1,-1.110867858E0,2.712563515E0,9.186046600E0
2.248046040E-1,-1.146760225E0,2.695813894E0,9.207581520E0
2.272001770E-1,-1.187438250E0,2.695813894E0,9.217152596E0
2.295949680E-1,-1.197009563E0,2.664707184E0,9.272486687E0
2.319897600E-1,-1.197009563E0,2.616850615E0,9.272486687E0
2.343853330E-1,-1.180259824E0,2.576172590E0,9.142974854E0
2.367809060E-1,-1.132403374E0,2.564208508E0,8.927620888E0
2.391756980E-1,-1.101296663E0,2.554637194E0,8.633005142E0
2.415704890E-1,-1.051047325E0,2.540280342E0,8.348258972E0
2.439660620E-1,-9.720842242E-1,2.504088879E0,8.168797493E0
2.463616350E-1,-8.715856671E-1,2.475374937E0,8.008178711E0
2.487564270E-1,-8.186444640E-1,2.465803623E0,7.845467091E0
2.511512180E-1,-7.492526174E-1,2.415554523E0,7.771289825E0
2.535467910E-1,-6.391827464E-1,2.379662037E0,7.747361660E0
2.559423640E-1,-4.956133962E-1,2.355733871E0,7.792825222E0
2.583371560E-1,1.770688742E-1,2.317448616E0,7.809575081E0
2.607319480E-1,1.273579836E0,2.183450699E0,7.572386265E0
2.631275730E-1,1.584945917E0,2.090130568E0,7.483851910E0
2.655231460E-1,1.484447360E0,2.035095692E0,7.649255753E0
2.679178850E-1,1.098903775E0,1.943869352E0,8.067999840E0
2.703126770E-1,4.357928336E-1,1.852941990E0,8.546863556E0
2.727083020E-1,-3.951148391E-1,1.781157374E0,9.028120041E0
2.751038750E-1,-9.696913958E-1,1.795514345E0,9.255437851E0
2.774986140E-1,-1.189831018E0,1.915155411E0,9.085547447E0
2.798934060E-1,-1.192223907E0,2.032702923E0,8.709874153E0
2.822890310E-1,-1.173081279E0,2.135594130E0,8.372187614E0
2.846846040E-1,-1.259222865E0,2.221735716E0,8.192725182E0
2.870793430E-1,-1.450947881E0,2.288734913E0,8.211868286E0
2.894741350E-1,-1.723729610E0,2.327019930E0,8.379365921E0
2.918697600E-1,-2.044667006E0,2.343769789E0,8.582756042E0
2.942653330E-1,-2.408375978E0,2.374876499E0,8.831908226E0
2.966600730E-1,-2.724527597E0,2.391626120E0,9.035298347E0
2.990548640E-1,-2.937488794E0,2.413161755E0,9.217152596E0
3.014504890E-1,-3.037987471E0,2.427518606E0,9.296415329E0
3.038460620E-1,-3.042773008E0,2.453839540E0,9.325128555E0
3.062408020E-1,-3.052344322E0,2.441875458E0,9.303593636E0
3.086355930E-1,-3.057130098E0,2.429911375E0,9.294022560E0
3.110312180E-1,-3.047558784E0,2.403590441E0,9.325128555E0
3.134267910E-1,-3.057130098E0,2.336591244E0,9.372985840E0
3.158215310E-1,-3.107678413E0,2.295913219E0,9.449555397E0
3.182163230E-1,-3.143570662E0,2.252842426E0,9.590732574E0
3.206119480E-1,-3.145963669E0,2.226521492E0,9.719944954E0
3.230075210E-1,-3.107678413E0,2.166700840E0,9.827920914E0
3.254022600E-1,-3.011666298E0,2.128415823E0,9.878170013E0
3.277970520E-1,-2.949453115E0,2.080559254E0,9.928419113E0
3.301926770E-1,-2.820240498E0,2.066202402E0,9.947562218E0
3.325882500E-1,-2.714956284E0,2.035095692E0,9.957133293E0
3.349830410E-1,-2.650350094E0,2.018345833E0,9.995418549E0
3.373778330E-1,-2.580958366E0,2.049452543E0,1.002413273E1
3.397734060E-1,-2.518445730E0,2.085345030E0,9.988240242E0
3.421689790E-1,-2.470589399E0,2.106880426E0,9.966704369E0
3.445637710E-1,-2.417947292E0,2.121237278E0,9.923633575E0
3.469585620E-1,-2.384447813E0,2.137987137E0,9.813264847E0
3.493541350E-1,-2.374876499E0,2.173879385E0,9.724730492E0
3.517497080E-1,-2.396411896E0,2.224128723E0,9.619445801E0
3.541445000E-1,-2.391626120E0,2.212164640E0,9.451948166E0
3.565392910E-1,-2.396411896E0,2.219342947E0,9.233902931E0
3.589348640E-1,-2.425125837E0,2.260020971E0,8.951549530E0
3.613304370E-1,-2.417947292E0,2.338984251E0,8.644968987E0
3.637252290E-1,-2.427518606E0,2.365305185E0,8.343473434E0
3.661200210E-1,-2.429911375E0,2.439482689E0,8.060821533E0
3.685155930E-1,-2.432304144E0,2.494517565E0,7.833503246E0
3.709112180E-1,-2.477767944E0,2.537887573E0,7.663612843E0
3.733059580E-1,-2.540280342E0,2.590529680E0,7.543672562E0
3.757007500E-1,-2.571387053E0,2.624029160E0,7.498209000E0
3.780963750E-1,-2.616850615E0,2.674278498E0,7.491030216E0
3.804919480E-1,-2.640778780E0,2.679064035E0,7.546065331E0
3.828866870E-1,-2.645564556E0,2.712563515E0,7.654041290E0
3.852814790E-1,-2.592922449E0,2.712563515E0,7.807182312E0
3.876771040E-1,-2.470589399E0,2.738884687E0,7.974679470E0
3.900726770E-1,-2.315055847E0,2.746062994E0,8.130212784E0
3.924674160E-1,-2.094916344E0,2.719742060E0,8.281260490E0
3.948622080E-1,-1.807478428E0,2.679064035E0,8.410472870E0
3.972578330E-1,-1.515554070E0,2.657528639E0,8.532505989E0
3.996534060E-1,-1.218544960E0,2.655135870E0,8.635397911E0
4.020481460E-1,-9.577272534E-1,2.600100994E0,8.764909744E0
4.044429370E-1,-7.348956466E-1,2.537887573E0,8.939585686E0
4.068385620E-1,-5.267201066E-1,2.468196630E0,9.071190834E0
4.092341350E-1,-3.592225015E-1,2.434697151E0,9.169296265E0
4.116288750E-1,-2.177468538E-1,2.358126640E0,9.313164711E0
4.140236660E-1,-9.332008660E-2,2.379662037E0,9.437591553E0
4.164192910E-1,-6.221338734E-2,2.350948334E0,9.576375008E0
4.188148640E-1,-1.722832322E-1,2.240878344E0,9.803693771E0
4.212096560E-1,-3.376871049E-1,2.092523336E0,1.003370380E1
4.236044480E-1,-5.626124144E-1,1.951047778E0,1.022273636E1
4.260000210E-1,-8.524430394E-1,1.802692771E0,1.034477043E1
4.283955930E-1,-1.158724308E0,1.613659739E0,1.039053345E1
4.307903850E-1,-1.508375525E0,1.419841170E0,1.034477043E1
4.331851770E-1,-1.881655931E0,1.189831018E0,1.026819992E1
4.355807500E-1,-2.202593327E0,9.792626500E-1,1.019162941E1
4.379763230E-1,-2.492124796E0,7.372884750E-1,1.011505985E1
4.403711140E-1,-2.784348249E0,5.171487927E-1,9.952347755E0
4.427659060E-1,-3.014059305E0,3.161516786E-1,9.772586823E0
4.451614790E-1,-3.181855917E0,7.896314561E-2,9.607481956E0
4.475571040E-1,-3.327818155E0,-1.172483116E-1,9.428020477E0
4.499518430E-1,-3.375674486E0,-3.113660514E-1,9.370592117E0
4.523466350E-1,-3.397209883E0,-4.980062246E-1,9.394520760E0
4.547422600E-1,-3.287140131E0,-7.013961077E-1,9.631410599E0
4.571378330E-1,-3.071486950E0,-8.548358679E-1,9.945169449E0
4.595325730E-1,-2.813062191E0,-9.792626500E-1,1.033998489E1
4.619273640E-1,-2.516052961E0,-1.067797065E0,1.071595669E1
4.643229890E-1,-2.236092806E0,-1.144367456E0,1.108235836E1
4.667185620E-1,-1.975275040E0,-1.165902853E0,1.157797146E1
4.691133020E-1,-1.690230131E0,-1.156331539E0,1.207597733E1
4.715080930E-1,-1.477268934E0,-1.113260746E0,1.248036480E1
4.739037180E-1,-1.292722464E0,-1.010369420E0,1.284676552E1
4.762992910E-1,-1.163509965E0,-9.098708034E-1,1.322034550E1
4.786940830E-1,-1.086939692E0,-7.923234105E-1,1.349551964E1
4.810888750E-1,-1.012762189E0,-6.750751138E-1,1.367019558E1
4.834844480E-1,-8.715856671E-1,-4.956133962E-1,1.388106346E1
4.858800210E-1,-6.990033388E-1,-3.376871049E-1,1.398873997E1
4.882748120E-1,-5.506483316E-1,-1.986042857E-1,1.395763397E1
4.906696040E-1,-4.860421121E-1,7.178467698E-3,1.383559990E1
4.930651770E-1,-2.994019389E-1,5.003990531E-1,1.376142216E1
4.954607500E-1,-1.531406492E-1,9.888339639E-1,1.375185108E1
4.978555410E-1,-1.076770201E-1,1.175474167E0,1.368694592E1
5.002503330E-1,-1.339980662E-1,1.242473125E0,1.358883953E1
5.026459060E-1,-3.349951655E-2,1.268794179E0,1.346680546E1
5.050414790E-1,6.699903309E-2,1.261615753E0,1.319641685E1
5.074362710E-1,1.890329868E-1,1.264008522E0,1.273908901E1
5.098310620E-1,3.520440459E-1,1.249651670E0,1.230090332E1
5.122266870E-1,3.855435550E-1,1.194616675E0,1.172871971E1
5.146222600E-1,3.975076675E-1,1.110867858E0,1.115892887E1
5.170170000E-1,4.453641176E-1,1.039083242E0,1.076381397E1
5.194117910E-1,4.788636267E-1,9.314061999E-1,1.040010452E1
5.218074160E-1,5.003990531E-1,8.401798606E-1,1.005284595E1
5.242029890E-1,4.980062246E-1,7.325028181E-1,9.629017830E0
5.265977290E-1,4.453641176E-1,6.463612318E-1,9.202795982E0
5.289925210E-1,3.903291821E-1,6.032904387E-1,8.819944382E0
5.313881460E-1,3.329014480E-1,5.338985324E-1,8.570791245E0
5.337837180E-1,2.727817893E-1,4.788636267E-1,8.365009308E0
5.361785100E-1,2.153540403E-1,4.166502357E-1,8.173583031E0
5.385733020E-1,1.651047617E-1,3.113660514E-1,7.981858253E0
5.409688750E-1,1.507478207E-1,2.488535494E-1,8.099106789E0
5.433644480E-1,4.785645381E-2,1.866401732E-1,8.221439362E0
5.457592390E-1,-3.589234129E-2,1.459621787E-1,8.345866203E0
5.481540310E-1,-1.339980662E-1,7.896314561E-2,8.549256325E0
5.505496040E-1,-3.137588799E-1,5.024927482E-2,8.836693764E0
5.529451770E-1,-5.650052428E-1,1.674975827E-2,8.958727837E0
5.553399680E-1,-8.042874932E-1,-6.699903309E-2,8.958727837E0
5.577347600E-1,-1.106082320E0,-1.244267747E-1,8.743373871E0
5.601303330E-1,-1.398006678E0,-2.081755698E-1,8.491828918E0
5.625259580E-1,-1.572981834E0,-2.970091105E-1,8.345866203E0
5.649206980E-1,-1.721336842E0,-3.855435550E-1,8.130212784E0
5.673154890E-1,-1.848156333E0,-4.788636267E-1,8.041678429E0
5.697111140E-1,-1.924726725E0,-5.889334679E-1,7.993822098E0
5.721066870E-1,-1.996810555E0,-6.870391965E-1,7.938787460E0
5.745014270E-1,-2.001596212E0,-7.731808424E-1,7.859824181E0
5.768962180E-1,-1.960619092E0,-8.715856671E-1,7.912466049E0
5.792918430E-1,-1.872084618E0,-9.553344250E-1,8.060821533E0
5.816874160E-1,-1.836192250E0,-1.065404296E0,7.883752346E0
5.840822080E-1,-1.697408557E0,-1.141974568E0,7.907680511E0
5.864770000E-1,-1.570588946E0,-1.197009563E0,7.795217991E0
5.888725730E-1,-1.441376567E0,-1.223330617E0,7.459923744E0
5.912681460E-1,-1.240080357E0,-1.340578914E0,7.096214771E0
5.936629370E-1,-1.031904817E0,-1.347757339E0,7.158428192E0
5.960577290E-1,-8.907282352E-1,-1.410269856E0,6.873383045E0
5.984533020E-1,-7.061817646E-1,-1.431805253E0,7.108178616E0
6.008488750E-1,-6.056832075E-1,-1.453340650E0,7.079464912E0
6.032436660E-1,-4.501497746E-1,-1.494018674E0,7.390532017E0
6.056384580E-1,-3.999004960E-1,-1.515554070E0,7.526922703E0
6.080340310E-1,-3.089732230E-1,-1.541875124E0,7.862216949E0
6.104296560E-1,-3.065803945E-1,-1.628016710E0,8.063214302E0
6.128243960E-1,-3.209373355E-1,-1.702194214E0,8.487042427E0
6.152191870E-1,-3.017947674E-1,-1.764407635E0,9.006584167E0
6.176148120E-1,-3.233301640E-1,-1.826620936E0,9.435198784E0
6.200103850E-1,-4.094717801E-1,-1.924726725E0,9.569196701E0
6.224051250E-1,-5.027918816E-1,-1.992024899E0,9.688838005E0
6.247999160E-1,-6.224330068E-1,-2.044667006E0,9.897313118E0
6.271955410E-1,-7.157530785E-1,-2.094916344E0,9.952347755E0
6.295911140E-1,-8.353942037E-1,-2.209771633E0,9.856635094E0
6.319859060E-1,-1.003190875E0,-2.307877541E0,9.672088623E0
6.343806980E-1,-1.378864050E0,-2.358126640E0,9.581160545E0
6.367762710E-1,-1.900798440E0,-2.391626120E0,9.217152596E0
6.391718430E-1,-2.461018085E0,-2.408375978E0,8.961120605E0
6.415666350E-1,-2.889632463E0,-2.358126640E0,9.013762474E0
6.439614270E-1,-3.244069338E0,-2.338984251E0,9.035298347E0
6.463570000E-1,-3.524029493E0,-2.341377020E0,9.032905579E0
6.487525730E-1,-3.720540047E0,-2.379662037E0,9.037691116E0
6.511473640E-1,-3.794717550E0,-2.439482689E0,9.016156197E0
6.535421560E-1,-3.756432533E0,-2.530709028E0,9.075976372E0
6.559377810E-1,-3.670290947E0,-2.619243383E0,9.018548965E0
6.583333540E-1,-3.557528973E0,-2.667099953E0,9.138189316E0
6.607280930E-1,-3.555136204E0,-2.753241539E0,9.004191399E0
6.631228850E-1,-3.576671600E0,-2.805883646E0,8.836693764E0
6.655185100E-1,-3.607778311E0,-2.808276415E0,8.817551613E0
6.679140830E-1,-3.732504129E0,-2.820240498E0,8.601898193E0
6.703088750E-1,-3.902394533E0,-2.786741018E0,8.611469269E0
6.727036660E-1,-4.112963200E0,-2.743670225E0,8.448758125E0
6.750992390E-1,-4.340580463E0,-2.691028118E0,8.427222252E0
6.774948120E-1,-4.615755081E0,-2.650350094E0,8.235795975E0
6.798896040E-1,-4.840979099E0,-2.588136673E0,8.226224899E0
6.822843960E-1,-5.080261707E0,-2.559422970E0,8.079963684E0
6.846799680E-1,-5.355735302E0,-2.525923491E0,8.067999840E0
6.870755410E-1,-5.568696499E0,-2.494517565E0,7.989036560E0
6.894703330E-1,-5.762515068E0,-2.403590441E0,8.096714020E0
6.918651250E-1,-6.018846035E0,-2.367697954E0,8.099106789E0
6.942606980E-1,-6.164808273E0,-2.341377020E0,7.998608112E0
6.966563230E-1,-6.241378784E0,-2.307877541E0,8.067999840E0
6.990510620E-1,-6.339484692E0,-2.324627161E0,8.108677864E0
7.014458540E-1,-6.375376701E0,-2.360519648E0,8.032107353E0
7.038414790E-1,-6.349055767E0,-2.408375978E0,8.075178146E0
7.062370520E-1,-6.344270229E0,-2.453839540E0,8.053643227E0
7.086317910E-1,-6.301199436E0,-2.487339020E0,8.029714584E0
7.110265830E-1,-6.215057850E0,-2.472982168E0,8.039285660E0
7.134222080E-1,-6.181558132E0,-2.506481647E0,7.871788502E0
7.158177810E-1,-6.104988098E0,-2.472982168E0,7.668398380E0
7.182125730E-1,-6.057131290E0,-2.449054003E0,7.438388348E0
7.206073640E-1,-6.026024818E0,-2.425125837E0,7.184749126E0
7.230029370E-1,-6.026024818E0,-2.350948334E0,7.002595425E0
7.253985100E-1,-6.011667728E0,-2.202593327E0,7.009773731E0
7.277933020E-1,-6.212665081E0,-2.114058733E0,6.765706062E0
7.301880930E-1,-6.538387775E0,-2.111665964E0,6.521637917E0
7.325836660E-1,-6.806384087E0,-2.142772675E0,6.389733791E0
7.349792910E-1,-7.024429798E0,-2.195414782E0,6.425626278E0
7.373740310E-1,-7.045965195E0,-2.248056889E0,6.492924213E0
7.397688230E-1,-6.878168583E0,-2.322234392E0,6.602993965E0
7.421644480E-1,-6.569494724E0,-2.432304144E0,6.669992924E0
7.445600210E-1,-6.174379826E0,-2.513660192E0,6.835097790E0
7.469547600E-1,-5.860620975E0,-2.588136673E0,6.926024914E0
7.493495520E-1,-5.587839127E0,-2.705385208E0,6.897311211E0
7.517451770E-1,-5.305186749E0,-2.803490877E0,7.034001350E0
7.541407500E-1,-5.053940296E0,-2.884846687E0,7.141678333E0
7.565355410E-1,-4.817050934E0,-2.961417198E0,7.151249409E0
7.589303330E-1,-4.601397991E0,-2.985345364E0,7.325925827E0
7.613259060E-1,-4.431507587E0,-2.987738132E0,7.433602810E0
7.637214790E-1,-4.295116425E0,-2.982952595E0,7.541279793E0
7.661162710E-1,-4.208974838E0,-2.951845884E0,7.704290867E0
7.685110620E-1,-4.177569389E0,-2.937488794E0,7.783253670E0
7.709066870E-1,-4.153641224E0,-2.935096025E0,7.929215908E0
7.733022600E-1,-4.189533234E0,-2.903989315E0,8.041678429E0
7.756970000E-1,-4.203890324E0,-2.942274570E0,8.156833649E0
7.780917910E-1,-4.218546391E0,-2.999702215E0,8.288438797E0
7.804874160E-1,-4.208974838E0,-3.009273529E0,8.439186096E0
7.828829890E-1,-4.335794449E0,-2.853740215E0,8.549256325E0
7.852777290E-1,-4.378865242E0,-2.825026274E0,8.688039780E0
7.876725210E-1,-4.331008911E0,-2.880061150E0,8.798408508E0
7.900681460E-1,-4.184747696E0,-2.920739174E0,8.915657043E0
7.924637180E-1,-3.916751623E0,-2.982952595E0,9.037691116E0
7.948585100E-1,-3.607778311E0,-3.006880760E0,9.102297783E0
7.972533020E-1,-3.294318676E0,-3.009273529E0,9.131011009E0
7.996488750E-1,-2.949453115E0,-2.978166819E0,9.107083321E0
8.020444480E-1,-2.628814697E0,-2.937488794E0,9.090332985E0
8.044392390E-1,-2.405983210E0,-2.844168901E0,9.052047729E0
8.068340310E-1,-2.183450699E0,-2.810669184E0,8.982656479E0
8.092296560E-1,-1.955833435E0,-2.741277456E0,8.896514893E0
8.116252290E-1,-1.721336842E0,-2.523231506E0,8.743373871E0
8.140199680E-1,-1.450947881E0,-2.260020971E0,8.530113220E0
8.164147600E-1,-1.132403374E0,-2.102094650E0,8.333902359E0
8.188103850E-1,-8.042874932E-1,-1.975275040E0,8.108677864E0
8.212059580E-1,-5.506483316E-1,-1.884048700E0,7.941180229E0
8.236007500E-1,-3.640081584E-1,-1.757229090E0,7.785646915E0
8.259955410E-1,-2.273181528E-1,-1.647159338E0,7.673183918E0
8.283911140E-1,-1.339980662E-1,-1.534696579E0,7.572386265E0
8.307866870E-1,-7.178468257E-2,-1.429412484E0,7.512565613E0
8.331814790E-1,2.392822644E-3,-1.283151150E0,7.529315472E0
8.355762710E-1,2.632105052E-1,-1.108475089E0,7.699504852E0
8.379718430E-1,6.966105103E-1,-8.835497499E-1,8.022536278E0
8.403674680E-1,1.357328653E0,-5.817549825E-1,8.506185532E0
8.427622080E-1,2.118844509E0,-3.783650696E-1,9.198010445E0
8.451570000E-1,2.810669184E0,-2.033899277E-1,9.933204651E0
8.475526250E-1,3.567100286E0,-5.024927482E-2,1.079731274E1
8.499481980E-1,4.486542225E0,2.632104978E-2,1.183639622E1
8.523429370E-1,5.501697540E0,7.657032460E-2,1.297597790E1
8.547377290E-1,6.411269188E0,2.297109663E-1,1.394327641E1
8.571333540E-1,7.148856640E0,4.429712892E-1,1.488903999E1
8.595289270E-1,7.577471256E0,6.822535396E-1,1.574357700E1
8.619237180E-1,7.737790108E0,9.744769931E-1,1.639711571E1
8.643185100E-1,7.699504852E0,1.307079315E0,1.693340683E1
8.667140830E-1,7.483851910E0,1.654337764E0,1.730220222E1
8.691096560E-1,7.120142937E0,2.023131609E0,1.742423630E1
8.715044480E-1,6.605386734E0,2.370090723E0,1.742184258E1
8.738992390E-1,5.951847076E0,2.705385208E0,1.722323799E1
8.762948640E-1,5.358128071E0,2.920739174E0,1.703869247E1
8.786904370E-1,4.888835907E0,3.076272726E0,1.686880112E1
8.810851770E-1,4.462614059E0,3.078665495E0,1.654786491E1
8.834799680E-1,4.136891365E0,2.992523909E0,1.616979790E1
8.858755930E-1,3.614956856E0,2.674278498E0,1.594457340E1
8.882711660E-1,3.208176851E0,2.195414782E0,1.554257965E1
8.906659580E-1,2.920739174E0,1.666301847E0,1.513310814E1
8.930607500E-1,2.547458887E0,1.232901812E0,1.465663719E1
8.954563230E-1,2.032702923E0,1.067797065E0,1.372283745E1
8.978518960E-1,1.405484200E0,6.200401783E-1,1.366301727E1
9.002466870E-1,8.306085467E-1,1.435693651E-1,1.366301727E1
9.026414790E-1,3.544368446E-1,-3.592225015E-1,1.370608807E1
9.050371040E-1,-1.316052526E-1,-8.282157183E-1,1.367976665E1
9.074326770E-1,-6.343970895E-1,-1.189831018E0,1.343809223E1
9.098274160E-1,-1.132403374E0,-1.517946839E0,1.324666595E1
9.122222080E-1,-1.675873160E0,-1.764407635E0,1.285394382E1
9.146178330E-1,-2.209771633E0,-1.972882271E0,1.245882893E1
9.170134060E-1,-2.746062994E0,-2.090130568E0,1.188903809E1
9.194081460E-1,-3.258426189E0,-2.209771633E0,1.131685448E1
9.218029370E-1,-3.725325823E0,-2.262413740E0,1.076142120E1
9.241985620E-1,-4.158426762E0,-2.286342144E0,1.023948669E1
9.265941350E-1,-4.534399033E0,-2.338984251E0,9.734301567E0
9.289889270E-1,-4.888835907E0,-2.319841623E0,9.205188751E0
9.313837180E-1,-5.168796062E0,-2.348555326E0,8.934800148E0
9.337792910E-1,-5.386841774E0,-2.379662037E0,8.676075935E0
9.361748640E-1,-5.554339409E0,-2.434697151E0,8.551649094E0
9.385696560E-1,-5.618945599E0,-2.496910334E0,8.463114738E0
9.409644480E-1,-5.597410202E0,-2.583351135E0,8.309973717E0
9.433600730E-1,-5.599802971E0,-2.616850615E0,8.216653824E0
9.457556460E-1,-5.621338367E0,-2.535494804E0,8.087141991E0
9.481503850E-1,-5.606981754E0,-2.470589399E0,7.893323898E0
9.505451770E-1,-5.547161102E0,-2.408375978E0,7.785646915E0
9.529408020E-1,-5.444269657E0,-2.279163599E0,7.625327587E0
9.553363750E-1,-5.293222904E0,-2.178664923E0,7.462316513E0
9.577311660E-1,-5.106582642E0,-2.097309113E0,7.512565613E0
9.601259580E-1,-4.900799751E0,-2.023131609E0,7.670791149E0
9.625215310E-1,-4.706682205E0,-1.915155411E0,7.558029652E0
9.649171040E-1,-4.462614059E0,-1.831406593E0,7.577471256E0
9.673118960E-1,-4.223331928E0,-1.855334878E0,7.938787460E0
9.697066870E-1,-4.002892971E0,-1.800299883E0,7.936394691E0
9.721023120E-1,-3.766003847E0,-1.716551185E0,7.972286701E0
9.744978850E-1,-3.579064369E0,-1.613659739E0,8.219046593E0
9.768926250E-1,-3.468994617E0,-1.489233017E0,8.152048111E0
9.792874160E-1,-3.356531858E0,-1.340578914E0,8.360222816E0
9.816830410E-1,-3.234498024E0,-1.240080357E0,8.408080101E0
9.840786140E-1,-3.098107100E0,-1.192223907E0,8.515756607E0
9.864734060E-1,-2.915953398E0,-1.199402332E0,8.625826836E0
9.888681980E-1,-2.758027315E0,-1.187438250E0,8.922835350E0
9.912637710E-1,-2.659921408E0,-1.137188911E0,9.001798630E0
9.936593430E-1,-2.602493763E0,-1.084546804E0,9.166903496E0
9.960541350E-1,-2.573779821E0,-1.067797065E0,9.392127991E0
9.984489270E-1,-2.564208508E0,-1.031904817E0,9.399306297E0
1.000844552E0,-2.540280342E0,-9.553344250E-1,9.545269012E0
1.003240125E0,-2.492124796E0,-9.170492887E-1,9.564411163E0
1.005634864E0,-2.449054003E0,-8.428717852E-1,9.562018394E0
1.008029656E0,-2.355733871E0,-7.923234105E-1,1.000498962E1
1.010425281E0,-2.315055847E0,-7.540382147E-1,9.782157898E0
1.012820854E0,-2.233700037E0,-7.325028181E-1,1.004088211E1
1.015215646E0,-2.226521492E0,-7.061817646E-1,9.844670296E0
1.017610437E0,-2.190629244E0,-6.774678826E-1,9.763015747E0
1.020006010E0,-2.152343988E0,-6.272186637E-1,9.767801285E0
1.022401583E0,-2.166700840E0,-5.051847100E-1,9.404091835E0
1.024796375E0,-2.121237278E0,-4.884349108E-1,9.351449966E0
1.027191166E0,-2.085345030E0,-5.003990531E-1,9.380164146E0
1.029586791E0,-2.047059774E0,-5.338985324E-1,9.380164146E0
1.031982364E0,-2.018345833E0,-5.267201066E-1,9.384949684E0
1.034377104E0,-2.123630047E0,-4.334000051E-1,8.961120605E0
1.036771896E0,-2.243271112E0,-3.927220106E-1,8.755337715E0
1.039167521E0,-2.429911375E0,-3.735794425E-1,8.568398476E0
1.041563093E0,-2.528316259E0,-4.142574072E-1,8.391329765E0
1.043957885E0,-2.600100994E0,-4.381856322E-1,8.345866203E0
1.046352677E0,-2.619243383E0,-4.956133962E-1,8.238189697E0
1.048748250E0,-2.700599432E0,-5.578267574E-1,8.089534760E0
1.051143823E0,-2.796312332E0,-5.171487927E-1,7.596613884E0
1.053538614E0,-2.848954439E0,-5.458626747E-1,7.392924786E0
1.055933406E0,-2.908775091E0,-5.817549825E-1,7.234998226E0
1.058329031E0,-2.990130901E0,-6.104688644E-1,7.122535706E0
1.060724604E0,-3.045166016E0,-5.985047817E-1,6.847062111E0
1.063119343E0,-3.083451033E0,-5.506483316E-1,6.396912098E0
1.065514135E0,-3.198605776E0,-5.123631358E-1,6.250949860E0
1.067909760E0,-3.308675528E0,-4.621138871E-1,6.100202084E0
1.070305333E0,-3.366103172E0,-4.453641176E-1,6.246164322E0
1.072700125E0,-3.435495138E0,-4.429712892E-1,6.516852379E0
1.075094916E0,-3.540779352E0,-3.400799036E-1,6.526423931E0
1.077490489E0,-3.643670797E0,-2.368894368E-1,6.619743824E0
1.079886062E0,-3.770789385E0,-1.938186288E-1,6.911668301E0
1.082280854E0,-4.022035599E0,-1.459621787E-1,7.144071102E0
1.084675646E0,-4.206283092E0,2.392822644E-3,7.009773731E0
1.087071218E0,-4.323830605E0,5.742774159E-2,7.249355316E0
1.089466843E0,-4.536791801E0,7.657032460E-2,7.756932735E0
1.091861583E0,-4.668396950E0,3.664009571E-1,7.004988194E0
1.094256375E0,-4.634897232E0,5.530411601E-1,6.710670948E0
1.096652000E0,-4.742574692E0,6.224330068E-1,6.777669907E0
1.099047573E0,-4.917549610E0,7.157530785E-1,6.837490559E0
1.101442364E0,-4.907978535E0,7.516453862E-1,6.813562393E0
1.103837156E0,-4.876871586E0,8.353942037E-1,6.607779503E0
1.106232729E0,-4.934299469E0,9.361918569E-1,6.552744865E0
1.108628302E0,-5.073082924E0,9.984052777E-1,6.744170666E0
1.111023093E0,-5.202295303E0,1.039083242E0,6.794419765E0
1.113417885E0,-5.214259624E0,1.130010486E0,6.519245148E0
1.115813510E0,-5.152046204E0,1.168295622E0,6.310770512E0
1.118209083E0,-5.082654476E0,1.151545882E0,6.246164322E0
1.120603823E0,-5.058726311E0,1.096511006E0,6.303592205E0
1.122998614E0,-5.013262749E0,1.082154036E0,6.308377743E0
1.125394239E0,-4.958227634E0,1.029511929E0,6.550352097E0
1.127789812E0,-4.915156841E0,9.840483069E-1,6.660421848E0
1.130184604E0,-4.891228676E0,9.314061999E-1,6.722635269E0
1.132579396E0,-4.802694321E0,9.266205430E-1,6.650850773E0
1.134974968E0,-4.819443703E0,9.026923180E-1,6.787241459E0
1.137370541E0,-4.984548569E0,8.114659786E-1,7.215855598E0
1.139765333E0,-5.142475128E0,6.631109715E-1,7.852645874E0
1.142160125E0,-5.156831741E0,5.913262963E-1,7.840681553E0
1.144555750E0,-5.010869503E0,4.357928336E-1,7.962715626E0
1.146951323E0,-4.977370262E0,2.799602449E-1,8.484649658E0
1.149346062E0,-4.893621445E0,1.435693651E-1,8.259724617E0
1.151740854E0,-4.687539577E0,-5.024927482E-2,8.487042427E0
1.154136479E0,-4.579862595E0,-2.488535494E-1,8.652147293E0
1.156532052E0,-4.460221291E0,-3.759722710E-1,8.534899712E0
1.158926843E0,-4.374079704E0,-5.171487927E-1,8.633005142E0
1.161321635E0,-4.433900356E0,-6.320042610E-1,8.927620888E0
1.163717208E0,-4.469792843E0,-6.702894568E-1,8.757730484E0
1.166112781E0,-4.534399033E0,-7.396813035E-1,8.671290398E0
1.168507573E0,-4.740181446E0,-7.803592682E-1,8.807980537E0
1.170902364E0,-4.994120121E0,-7.827520967E-1,8.918049812E0
1.173297989E0,-5.245366573E0,-8.066803217E-1,8.788837433E0
1.175693562E0,-5.429912567E0,-7.612167001E-1,8.601898193E0
1.178088302E0,-5.738586903E0,-7.037889361E-1,8.613862038E0
1.180483093E0,-6.076273918E0,-6.678966284E-1,8.443971634E0
1.182878718E0,-6.298806667E0,-6.056832075E-1,8.161619186E0
1.185274291E0,-6.552744865E0,-5.075774789E-1,8.101499557E0
1.187669083E0,-6.878168583E0,-4.573282301E-1,8.190332413E0
1.190063875E0,-7.124928474E0,-3.903291821E-1,8.113463402E0
1.192459448E0,-7.323532581E0,-3.448655605E-1,8.096714020E0
1.194855021E0,-7.491030216E0,-2.799602449E-1,8.120641708E0
1.197249812E0,-7.634898663E0,-2.177468538E-1,8.101499557E0
1.199644604E0,-7.709076405E0,-1.363908947E-1,7.919644833E0
1.202040229E0,-7.847859859E0,-5.982056633E-2,7.945965767E0
1.204435802E0,-8.024929047E0,1.674975827E-2,8.070392609E0
1.206830541E0,-8.067999840E0,9.332008660E-2,7.986643791E0
1.209225333E0,-8.084749222E0,1.842473447E-1,7.917252064E0
1.211620958E0,-8.171190262E0,2.751746178E-1,7.850253105E0
1.214016531E0,-8.290831566E0,3.161516786E-1,7.905287743E0
1.216411323E0,-8.309973717E0,3.664009571E-1,7.996214867E0
1.218806114E0,-8.242975235E0,3.568296731E-1,7.962715626E0
1.221201687E0,-8.199904442E0,3.568296731E-1,7.867002487E0
1.223597312E0,-8.233403206E0,3.352942765E-1,7.941180229E0
1.225992052E0,-8.233403206E0,3.544368446E-1,8.046463966E0
1.228386843E0,-8.147261620E0,3.544368446E-1,8.118248940E0
1.230782468E0,-8.127820015E0,3.616153300E-1,8.199904442E0
1.233178041E0,-8.072785378E0,3.472583890E-1,8.290831566E0
1.235572833E0,-7.979465485E0,3.257229924E-1,8.424829483E0
1.237967625E0,-7.795217991E0,2.946162820E-1,8.515756607E0
1.240363198E0,-7.526922703E0,1.794617027E-1,8.489435196E0
1.242758771E0,-7.244569778E0,6.939185411E-2,8.410472870E0
1.245153562E0,-6.973881721E0,-1.004985496E-1,8.353044510E0
1.247548354E0,-6.758527756E0,-2.488535494E-1,8.252546310E0
1.249943979E0,-6.586244106E0,-3.807578981E-1,8.226224899E0
1.252339552E0,-6.423233509E0,-5.291129351E-1,8.094321251E0
1.254734291E0,-6.301199436E0,-6.774678826E-1,7.943572998E0
1.257129083E0,-6.171987057E0,-8.234301209E-1,7.742575645E0
1.259524708E0,-6.116951942E0,-9.433703423E-1,7.558029652E0
1.261920281E0,-6.095416546E0,-1.077368379E0,7.357032299E0
1.264315073E0,-6.104988098E0,-1.158724308E0,7.170392036E0
1.266709864E0,-6.164808273E0,-1.266401410E0,7.122535706E0
1.269105437E0,-6.148058891E0,-1.362114310E0,6.873383045E0
1.271501010E0,-6.193522453E0,-1.354935765E0,6.641279221E0
1.273895802E0,-6.267699718E0,-1.299900889E0,6.377769470E0
1.276290593E0,-6.380162239E0,-1.220937729E0,6.121737480E0
1.278686218E0,-6.451947212E0,-1.137188911E0,5.867799282E0
1.281081791E0,-6.555137634E0,-9.864411354E-1,5.707480431E0
1.283476583E0,-6.634100914E0,-8.476574421E-1,5.611767292E0
1.285871375E0,-6.753741741E0,-7.085745931E-1,5.525625706E0
1.288266948E0,-6.928418159E0,-6.224330068E-1,5.367699623E0
1.290662521E0,-7.036394119E0,-5.937191248E-1,5.382056236E0
1.293057312E0,-7.191927433E0,-5.291129351E-1,5.346164227E0
1.295452104E0,-7.256533623E0,-4.716851711E-1,5.116153717E0
1.297847729E0,-7.445566654E0,-4.022932947E-1,4.963013172E0
1.300243302E0,-7.792825222E0,-2.703889608E-1,5.087440014E0
1.302638041E0,-8.008178711E0,-1.627119333E-1,5.113760948E0
1.305032833E0,-8.381758690E0,-6.699903309E-2,5.439484119E0
1.307428458E0,-8.570791245E0,3.349951655E-2,5.539982796E0
1.309824031E0,-8.680861473E0,1.411765367E-1,5.523232937E0
1.312218823E0,-8.695218086E0,2.153540403E-1,5.417948723E0
1.314613614E0,-8.654540062E0,2.751746178E-1,5.257330418E0
1.317009187E0,-8.345866203E0,3.711866140E-1,4.572684288E0
1.319404760E0,-8.422436714E0,4.692923427E-1,4.498506546E0
1.321799552E0,-8.448758125E0,4.956133962E-1,4.663611412E0
1.324194343E0,-8.386544228E0,4.740779996E-1,4.912764072E0
1.326589968E0,-8.360222816E0,4.022932947E-1,5.154438972E0
1.328985541E0,-8.309973717E0,2.946162820E-1,5.434698582E0
1.331380281E0,-8.240582466E0,1.316052526E-1,5.681159019E0
1.333775073E0,-8.149654388E0,-1.435693540E-2,5.951847076E0
1.336170698E0,-8.082356453E0,-1.579262912E-1,6.224628925E0
1.338566271E0,-8.041678429E0,-2.560320199E-1,6.528816700E0
1.340961062E0,-8.012965202E0,-3.735794425E-1,6.818347931E0
1.343355854E0,-7.989036560E0,-4.716851711E-1,7.091429234E0
1.345751427E0,-7.984251022E0,-5.602195859E-1,7.349853992E0
1.348147000E0,-7.962715626E0,-6.870391965E-1,7.594220638E0
1.350541791E0,-7.965108395E0,-7.947162390E-1,7.716254711E0
1.352936583E0,-8.020143509E0,-9.170492887E-1,7.869395256E0
1.355332208E0,-8.147261620E0,-9.984052777E-1,8.154440880E0
1.357727781E0,-8.166404724E0,-1.036690354E0,8.178368568E0
1.360122573E0,-8.161619186E0,-1.036690354E0,8.022536278E0
1.362517364E0,-8.168797493E0,-9.792626500E-1,7.771289825E0
1.364912937E0,-8.106285095E0,-1.000798106E0,7.373782158E0
1.367308510E0,-8.108677864E0,-9.601200819E-1,7.292426109E0
1.369703302E0,-8.130212784E0,-9.074779749E-1,7.218248844E0
1.372098093E0,-8.149654388E0,-8.330013752E-1,7.096214771E0
1.374493718E0,-8.180761337E0,-8.186444640E-1,6.949953556E0
1.376889291E0,-8.183154106E0,-7.468597889E-1,6.741777897E0
1.379284031E0,-8.134998322E0,-6.702894568E-1,6.327520370E0
1.381678823E0,-8.415258408E0,-5.937191248E-1,6.303592205E0
1.384074448E0,-8.532505989E0,-5.458626747E-1,6.396912098E0
1.386470021E0,-8.542078018E0,-4.812564552E-1,6.370591164E0
1.388864812E0,-8.556434631E0,-4.046861231E-1,6.253343105E0
1.391259604E0,-8.506185532E0,-3.257229924E-1,6.023632050E0
1.393655177E0,-8.374580383E0,-2.249253243E-1,5.472983360E0
1.396050802E0,-8.554041862E0,-1.196411327E-1,5.360520840E0
1.398445541E0,-8.793622971E0,-4.307080805E-2,5.480162144E0
1.400840333E0,-8.963513374E0,1.196411345E-2,5.877370834E0
1.403235958E0,-8.882157326E0,2.392822690E-2,6.002096653E0
1.405631531E0,-8.695218086E0,4.785645287E-3,5.884549141E0
1.408026271E0,-8.422436714E0,-7.896314561E-2,5.669195175E0
1.410421062E0,-8.134998322E0,-1.148554832E-1,5.532804012E0
1.412816687E0,-7.934001446E0,-1.148554832E-1,5.449055195E0
1.415212260E0,-7.764111042E0,-1.196411327E-1,5.446662426E0
1.417607052E0,-7.680362701E0,-1.268195957E-1,5.451447964E0
1.420001843E0,-7.258926392E0,-1.411765367E-1,4.888835907E0
1.422397416E0,-7.347461224E0,-8.614161611E-2,4.682754040E0
1.424793041E0,-7.514958382E0,-8.614161611E-2,4.898406982E0
1.427187781E0,-7.608577728E0,-1.220339537E-1,5.204688549E0
1.429582573E0,-7.677969456E0,-1.387837082E-1,5.470590591E0
1.431978198E0,-7.780860901E0,-1.938186288E-1,5.695516109E0
1.434373771E0,-7.833503246E0,-2.632105052E-1,5.870192051E0
1.436768562E0,-7.797610760E0,-3.089732230E-1,5.973382473E0
1.439163354E0,-7.780860901E0,-3.592225015E-1,6.028417587E0
1.441558927E0,-7.816753387E0,-3.233301640E-1,6.073881149E0
1.443954552E0,-7.797610760E0,-2.898306549E-1,6.035595894E0
1.446349291E0,-7.778468132E0,-2.632105052E-1,5.963811398E0
1.448744083E0,-7.749754429E0,-2.368894368E-1,5.886941910E0
1.451139708E0,-7.689933777E0,-2.105683982E-1,5.803193092E0
1.453535281E0,-7.582256794E0,-1.722832322E-1,5.724229813E0
1.455930073E0,-7.457530975E0,-1.555334777E-1,5.626124382E0
1.458324864E0,-7.376174927E0,-1.268195957E-1,5.516054630E0
1.460720437E0,-7.290033340E0,-1.148554832E-1,5.396413326E0
1.463116010E0,-7.194320202E0,-1.555334777E-1,5.295615673E0
1.465510802E0,-7.089035988E0,-1.387837082E-1,5.173581600E0
1.467905593E0,-6.997809887E0,-1.579262912E-1,5.056333542E0
1.470301218E0,-6.890132904E0,-1.459621787E-1,4.951049328E0
1.472696791E0,-6.765706062E0,-1.818545163E-1,4.817050934E0
1.475091531E0,-6.677171707E0,-2.584248483E-1,4.658825874E0
1.477486323E0,-6.634100914E0,-3.137588799E-1,4.496113777E0
1.479881948E0,-6.583851337E0,-3.879363835E-1,4.354937077E0
1.482277521E0,-6.591030121E0,-4.621138871E-1,4.170390606E0
1.484672312E0,-6.617351055E0,-5.003990531E-1,4.029214382E0
1.487067104E0,-6.629314899E0,-5.745765567E-1,3.892823458E0
1.489462677E0,-6.660421848E0,-6.631109715E-1,3.734897137E0
1.491858250E0,-6.729813576E0,-7.420741320E-1,3.622135162E0
1.494253041E0,-6.787241459E0,-7.947162390E-1,3.555136204E0
1.496647833E0,-6.882954121E0,-8.401798606E-1,3.483351469E0
1.499043458E0,-6.971488953E0,-9.194421172E-1,3.461816072E0
1.501439031E0,-7.055536747E0,-9.840483069E-1,3.461816072E0
1.503833823E0,-7.156035423E0,-1.074975610E0,3.514458179E0
1.506228614E0,-7.218248844E0,-1.141974568E0,3.591028690E0
1.508624187E0,-7.273283482E0,-1.208973646E0,3.629313707E0
1.511019760E0,-7.371389389E0,-1.283151150E0,3.730111361E0
1.513414552E0,-7.455138206E0,-1.321436286E0,3.859323740E0
1.515809343E0,-7.596613884E0,-1.371685624E0,3.921537161E0
1.518204916E0,-7.699504852E0,-1.395613790E0,4.022035599E0
1.520600541E0,-7.857431412E0,-1.415055513E0,4.086641788E0
1.522995281E0,-8.005785942E0,-1.390828133E0,4.156033993E0
1.525390073E0,-8.192725182E0,-1.350150228E0,4.225724697E0
1.527785698E0,-8.381758690E0,-1.290329576E0,4.307080746E0
1.530181271E0,-8.577970505E0,-1.211366415E0,4.421936035E0
1.532576062E0,-8.755337715E0,-1.106082320E0,4.543970108E0
1.534970854E0,-8.999405861E0,-9.936196208E-1,4.651647091E0
1.537366427E0,-9.221938133E0,-8.572286963E-1,4.728217602E0
1.539762052E0,-9.449555397E0,-7.301099896E-1,4.778766155E0
1.542156791E0,-9.595518112E0,-6.343970895E-1,4.819443703E0
1.544551583E0,-9.669695854E0,-5.793621540E-1,4.781158924E0
1.546947208E0,-9.676874161E0,-4.980062246E-1,4.768895626E0
1.549342781E0,-9.640981674E0,-4.692923427E-1,4.701896667E0
1.551737573E0,-9.547661781E0,-4.692923427E-1,4.646861553E0
1.554132364E0,-9.444769859E0,-5.219344497E-1,4.589433670E0
1.556527937E0,-9.382556915E0,-5.171487927E-1,4.591826439E0
1.558923510E0,-9.401699066E0,-5.506483316E-1,4.666004181E0
1.561318302E0,-9.392127991E0,-5.841478109E-1,4.744967461E0
1.563713093E0,-9.032905579E0,-8.353942037E-1,4.805087090E0
1.566108718E0,-9.004191399E0,-6.439684033E-1,4.869693279E0
1.568504291E0,-9.236295700E0,-2.946162820E-1,4.910371304E0
1.570899031E0,-9.372985840E0,-1.507478207E-1,4.884049892E0
1.573293823E0,-9.365806580E0,-1.627119333E-1,4.955834866E0
1.575689448E0,-9.305986404E0,-2.512463629E-1,4.979763031E0
1.578085021E0,-9.315557480E0,-3.305086195E-1,4.965405941E0
1.580479812E0,-9.257830620E0,-3.711866140E-1,4.912764072E0
1.582874604E0,-9.056833267E0,-4.788636267E-1,4.984548569E0
1.585270177E0,-8.784051895E0,-6.320042610E-1,5.094618320E0
1.587665802E0,-8.458329201E0,-7.827520967E-1,5.233402252E0
1.590060541E0,-8.123034477E0,-9.050851464E-1,5.312365532E0
1.592455333E0,-7.838288784E0,-9.912267923E-1,5.321936607E0
1.594850958E0,-7.601399422E0,-1.060618639E0,5.420341492E0
1.597246531E0,-7.414460182E0,-1.084546804E0,5.523232937E0
1.599641323E0,-7.282855034E0,-1.074975610E0,5.523232937E0
1.602036114E0,-7.270890713E0,-1.012762189E0,5.465805054E0
1.604431687E0,-7.299604416E0,-9.170492887E-1,5.398806095E0
1.606827312E0,-7.404888630E0,-7.923234105E-1,5.350949764E0
1.609222052E0,-7.577471256E0,-6.702894568E-1,5.298008442E0
1.611616843E0,-7.725826263E0,-6.559324861E-1,5.355735302E0
1.614012468E0,-7.960322857E0,-5.650052428E-1,5.355735302E0
1.616408041E0,-8.199904442E0,-4.501497746E-1,5.305186749E0
1.618802833E0,-8.412865639E0,-3.137588799E-1,5.341378212E0
1.621197625E0,-8.613862038E0,-2.225325108E-1,5.396413326E0
1.623593198E0,-8.796015739E0,-1.052841991E-1,5.465805054E0
1.625988771E0,-8.968298912E0,-2.871387079E-2,5.528018475E0
1.628383562E0,-9.099904060E0,5.742774159E-2,5.606981754E0
1.630778354E0,-9.221938133E0,6.939185411E-2,5.714658737E0
1.633173979E0,-9.301200867E0,7.178468257E-2,5.774479389E0
1.635569552E0,-9.332307816E0,3.110669367E-2,5.788836002E0
1.637964291E0,-9.245866776E0,-4.546362907E-2,5.731408596E0
1.640359083E0,-9.107083321E0,-1.651047617E-1,5.662016392E0
1.642754708E0,-8.939585686E0,-2.922234535E-1,5.542375565E0
1.645150281E0,-8.796015739E0,-4.573282301E-1,5.417948723E0
1.647545073E0,-8.635397911E0,-5.817549825E-1,5.302793980E0
1.649939864E0,-8.544470787E0,-7.420741320E-1,5.183153152E0
1.652335437E0,-8.563612938E0,-8.476574421E-1,5.147260666E0
1.654731062E0,-8.549256325E0,-9.744769931E-1,5.104189873E0
1.657125802E0,-8.515756607E0,-1.089332461E0,4.960620403E0
1.659520593E0,-8.458329201E0,-1.163509965E0,4.744967461E0
1.661916218E0,-8.386544228E0,-1.230509043E0,4.646861553E0
1.664311791E0,-8.333902359E0,-1.290329576E0,4.634897232E0
1.666706583E0,-8.522934914E0,-9.960124493E-1,4.409972191E0
1.669101375E0,-8.532505989E0,-7.899305820E-1,3.777967930E0
1.671496948E0,-8.338687897E0,-7.731808424E-1,3.888037682E0
1.673892521E0,-8.288438797E0,-8.353942037E-1,4.055535316E0
1.676287312E0,-8.281260490E0,-8.907282352E-1,4.134498596E0
1.678682104E0,-8.185546875E0,-1.055832982E0,4.319045067E0
1.681077729E0,-8.060821533E0,-1.256830096E0,4.663611412E0
1.683473302E0,-7.898109436E0,-1.470090389E0,4.852943420E0
1.685868093E0,-7.730611801E0,-1.601695657E0,4.898406982E0
1.688262885E0,-7.479066372E0,-1.678265929E0,4.759324074E0
1.690658458E0,-7.196712971E0,-1.805085540E0,4.852943420E0
1.693054031E0,-6.993024349E0,-1.864906192E0,4.979763031E0
1.695448823E0,-6.911668301E0,-1.836192250E0,5.063511848E0
1.697843614E0,-6.775277138E0,-1.817049742E0,5.080261707E0
1.700239239E0,-6.619743824E0,-1.874477386E0,5.278865814E0
1.702634812E0,-6.337091446E0,-2.176272154E0,5.484947681E0
1.705029552E0,-6.370591164E0,-2.169093609E0,5.480162144E0
1.707424343E0,-6.512066841E0,-2.023131609E0,5.535196781E0
1.709819968E0,-6.425626278E0,-2.047059774E0,5.559125423E0
1.712215541E0,-6.224628925E0,-2.152343988E0,5.518447399E0
1.714610333E0,-6.028417587E0,-2.190629244E0,5.427519798E0
1.717005125E0,-5.803193092E0,-2.221735716E0,5.219045162E0
1.719400750E0,-5.537590027E0,-2.324627161E0,5.087440014E0
1.721796323E0,-5.343770981E0,-2.415554523E0,4.977370262E0
1.724191062E0,-5.173581600E0,-2.513660192E0,4.886443138E0
1.726585854E0,-4.972584724E0,-2.609672308E0,4.788337231E0
1.728981479E0,-4.735395908E0,-2.738884687E0,4.668396950E0
1.731377052E0,-4.563112736E0,-2.901596546E0,4.539184570E0
1.733771843E0,-4.421936035E0,-3.148356438E0,4.584648132E0
1.736166635E0,-4.283152580E0,-3.457030535E0,4.785944462E0
1.738562208E0,-4.249652863E0,-3.679862022E0,4.919942379E0
1.740957781E0,-4.311866283E0,-3.830610037E0,4.833800793E0
1.743352573E0,-4.319045067E0,-3.888037682E0,4.654039860E0
1.745747364E0,-4.376472473E0,-3.840181351E0,4.438685894E0
1.748142989E0,-4.441078663E0,-3.722932816E0,4.189533234E0
1.750538562E0,-4.474578381E0,-3.588635683E0,3.957429647E0
1.752933354E0,-4.534399033E0,-3.397209883E0,3.768396616E0
1.755328146E0,-4.579862595E0,-3.229712248E0,3.687040567E0
1.757723718E0,-4.283152580E0,-3.468994617E0,3.667897940E0
1.760119291E0,-4.412364960E0,-3.342175007E0,3.468994617E0
1.762514083E0,-4.812265396E0,-2.901596546E0,3.452244759E0
1.764908875E0,-4.917549610E0,-2.805883646E0,3.607778311E0
1.767304500E0,-4.948656559E0,-2.762812853E0,3.837788343E0
1.769700073E0,-5.039583683E0,-2.681456804E0,4.077070713E0
1.772094864E0,-5.099404335E0,-2.640778780E0,4.256831646E0
1.774489656E0,-5.018048286E0,-2.750848770E0,4.381258488E0
1.776885229E0,-4.565505505E0,-3.291925669E0,4.508078098E0
1.779280802E0,-4.943870544E0,-2.959024191E0,4.352544308E0
1.781675593E0,-5.049154758E0,-2.784348249E0,4.441078663E0
1.784070385E0,-4.733003139E0,-2.851347208E0,4.670789719E0
1.786466010E0,-4.508078098E0,-2.817847729E0,4.874478817E0
1.788861583E0,-4.350151539E0,-2.719742060E0,5.049154758E0
1.791256323E0,-4.259224415E0,-2.638386011E0,5.199902534E0
1.793651114E0,-4.175176620E0,-2.607279301E0,5.353342533E0
1.796046739E0,-4.091427803E0,-2.592922449E0,5.472983360E0
1.798442312E0,-3.947858334E0,-2.619243383E0,5.578267574E0
1.800837104E0,-3.792324781E0,-2.590529680E0,5.638088226E0
1.803231896E0,-3.730111361E0,-2.645564556E0,5.688337803E0
1.805627468E0,-3.696611881E0,-2.753241539E0,5.829514027E0
1.808023093E0,-3.734897137E0,-2.858525753E0,5.927918911E0
1.810417833E0,-3.797110319E0,-2.961417198E0,5.863013744E0
1.812812625E0,-3.878466368E0,-3.066701412E0,5.834300041E0
1.815208250E0,-3.950251102E0,-3.066701412E0,5.623731613E0
1.817603823E0,-4.062713623E0,-3.200998545E0,5.590231895E0
1.819998614E0,-4.163212299E0,-3.378067255E0,5.724229813E0
1.822393406E0,-4.331008911E0,-3.483351469E0,5.645267010E0
1.824788979E0,-4.457828522E0,-3.547957659E0,5.492125988E0
1.827184604E0,-4.493721008E0,-3.598206997E0,5.264508724E0
1.829579343E0,-4.445864677E0,-3.631706476E0,4.807479858E0
1.831974135E0,-4.230510235E0,-3.816252947E0,4.797908306E0
1.834369760E0,-3.986143351E0,-3.998107433E0,4.606183529E0
1.836765333E0,-3.722932816E0,-4.115355968E0,4.266402721E0
1.839160125E0,-3.502494097E0,-4.139284134E0,3.586242914E0
1.841554916E0,-3.358924866E0,-4.280759811E0,3.370888948E0
1.843950489E0,-3.291925669E0,-4.438685894E0,3.049951553E0
1.846346062E0,-3.236890793E0,-4.699503899E0,3.085843801E0
1.848740854E0,-3.236890793E0,-5.003691196E0,2.987738132E0
1.851135646E0,-3.318246841E0,-5.254937649E0,2.738884687E0
1.853531271E0,-3.502494097E0,-5.389235020E0,2.384447813E0
1.855926843E0,-3.837788343E0,-5.437091351E0,1.814656854E0
1.858321635E0,-4.165605068E0,-5.595017433E0,1.783550143E0
1.860716427E0,-4.474578381E0,-5.752943993E0,1.551446438E0
1.863112000E0,-4.733003139E0,-5.901597977E0,1.201795220E0
1.865507573E0,-4.958227634E0,-6.035595894E0,8.500502706E-1
1.867902364E0,-5.123332500E0,-6.169594288E0,5.673980713E-1
1.870297156E0,-5.326722145E0,-6.238986015E0,2.727817893E-1
1.872692781E0,-5.587839127E0,-6.229414463E0,-7.657032460E-2
1.875088354E0,-5.915955067E0,-6.303592205E0,-5.024927482E-2
1.877483093E0,-6.270092487E0,-6.334698677E0,-7.178467698E-3
1.879877885E0,-6.612565517E0,-6.313163280E0,-1.004985496E-1
1.882273510E0,-6.993024349E0,-6.186343670E0,-2.129612118E-1
1.884669083E0,-7.354639530E0,-6.047560215E0,-3.065803945E-1
1.887063875E0,-7.680362701E0,-5.819942951E0,-4.262215197E-1
1.889458666E0,-8.024929047E0,-5.511268616E0,-5.697908998E-1
1.891854291E0,-8.319544792E0,-5.231009483E0,-8.572286963E-1
1.894249864E0,-8.515756607E0,-5.147260666E0,-7.396813035E-1
1.896644604E0,-8.649754524E0,-5.104189873E0,-7.372884750E-1
1.899039396E0,-8.721838951E0,-5.082654476E0,-8.401798606E-1
1.901435021E0,-8.764909744E0,-5.034798145E0,-1.039083242E0
1.903830593E0,-8.788837433E0,-4.955834866E0,-1.244866014E0
1.906225385E0,-8.798408508E0,-4.812265396E0,-1.661516190E0
1.908620177E0,-8.717052460E0,-4.905585289E0,-1.381256819E0
1.911015750E0,-8.621041298E0,-4.996512890E0,-1.505982757E0
1.913411375E0,-8.458329201E0,-4.963013172E0,-2.054238319E0
1.915806114E0,-8.460721970E0,-5.034798145E0,-2.135594130E0
1.918200906E0,-8.448758125E0,-5.242973328E0,-2.073380709E0
1.920596531E0,-8.355437279E0,-5.338985443E0,-2.750848770E0
1.922992104E0,-8.228617668E0,-5.611767292E0,-2.619243383E0
1.925386896E0,-8.099106789E0,-5.918347836E0,-2.813062191E0
1.927781687E0,-7.972286701E0,-6.227021694E0,-3.208176851E0
1.930177260E0,-7.936394691E0,-6.430411816E0,-3.734897137E0
1.932572885E0,-8.108677864E0,-6.535995007E0,-4.448257446E0
1.934967625E0,-8.405686378E0,-6.844669342E0,-4.254438877E0
1.937362416E0,-8.717052460E0,-7.146463871E0,-4.402793884E0
1.939758041E0,-9.097511292E0,-7.309175968E0,-4.658825874E0
1.942153614E0,-9.506983757E0,-7.388139248E0,-4.896014214E0
1.944548406E0,-9.942776680E0,-7.400103092E0,-5.082654476E0
1.946943198E0,-1.016530895E1,-7.596613884E0,-5.199902534E0
1.949338771E0,-1.054367352E1,-7.625327587E0,-5.587839127E0
1.951734343E0,-1.110150051E1,-7.340282440E0,-5.848656654E0
1.954129135E0,-1.162104225E1,-7.101000309E0,-6.006882191E0
1.956523927E0,-1.192493057E1,-7.036394119E0,-6.071488380E0
1.958919552E0,-1.210708427E1,-7.069893837E0,-6.097809315E0
1.961315125E0,-1.232004547E1,-7.038786888E0,-6.097809315E0
1.963709864E0,-1.271516037E1,-6.794419765E0,-6.069095612E0
1.966104656E0,-1.268405342E1,-7.029215813E0,-6.021239281E0
1.968500281E0,-1.285394382E1,-7.079464912E0,-6.207879066E0
1.970895854E0,-1.328734398E1,-6.693921566E0,-6.191129684E0
1.973290646E0,-1.356251907E1,-6.495316982E0,-6.035595894E0
1.975685437E0,-1.336391449E1,-6.803991318E0,-5.865406513E0
1.978081062E0,-1.347159195E1,-6.665207386E0,-5.748157978E0
1.980476635E0,-1.385952759E1,-6.272485256E0,-5.671587944E0
1.982871427E0,-1.375902939E1,-6.284449577E0,-5.516054630E0
1.985266218E0,-1.362951756E1,-6.186343670E0,-5.535196781E0
1.987661791E0,-1.371087360E1,-5.901597977E0,-5.413163185E0
1.990057364E0,-1.362712479E1,-5.810371399E0,-5.336592674E0
1.992452156E0,-1.299512100E1,-5.970989704E0,-5.827121258E0
1.994846948E0,-1.263380432E1,-6.162415504E0,-5.271687508E0
1.997242573E0,-1.250429249E1,-6.332305908E0,-4.788337231E0
1.999638146E0,-1.236550903E1,-6.488138676E0,-4.747360229E0
2.002032885E0,-1.240379429E1,-6.109773636E0,-5.343770981E0
2.004427677E0,-1.223151112E1,-6.250949860E0,-5.106582642E0
2.006823302E0,-1.233918858E1,-6.610172749E0,-4.582255363E0
2.009218875E0,-1.260479164E1,-6.796812534E0,-4.357329845E0
2.011613666E0,-1.294487095E1,-6.933203697E0,-4.433900356E0
2.014008458E0,-1.330648708E1,-7.079464912E0,-4.524827480E0
2.016404083E0,-1.356251907E1,-7.230212688E0,-4.591826439E0
2.018799656E0,-1.371565914E1,-7.282855034E0,-5.231009483E0
2.021194448E0,-1.429023552E1,-7.232605457E0,-4.905585289E0
2.023589239E0,-1.488903999E1,-7.191927433E0,-4.443471432E0
2.025984812E0,-1.530778408E1,-7.196712971E0,-4.354937077E0
2.028380385E0,-1.548993778E1,-7.416852951E0,-4.232903481E0
2.030775177E0,-1.576032639E1,-7.426424026E0,-4.216153622E0
2.033169968E0,-1.615783310E1,-7.258926392E0,-4.153641224E0
2.035565593E0,-1.650000763E1,-7.148856640E0,-4.105784416E0
2.037961166E0,-1.673241043E1,-7.074679375E0,-4.024428368E0
2.040355906E0,-1.687598038E1,-7.053143978E0,-3.849752426E0
2.042750698E0,-1.685923004E1,-7.050751209E0,-3.663112402E0
2.045146323E0,-1.668216133E1,-7.165606499E0,-3.538386583E0
2.047541896E0,-1.667259026E1,-6.966702938E0,-3.483351469E0
2.049936687E0,-1.667259026E1,-6.653243542E0,-3.267997503E0
2.052331479E0,-1.651914978E1,-6.466603279E0,-3.073879719E0
2.054727052E0,-1.619611931E1,-6.413661957E0,-2.789133787E0
2.057122677E0,-1.593739510E1,-6.476174355E0,-2.458625317E0
2.059517416E0,-1.560239983E1,-6.650850773E0,-2.126022816E0
2.061912208E0,-1.557129383E1,-6.689135551E0,-1.869691849E0
2.064307833E0,-1.557129383E1,-6.478567123E0,-1.570588946E0
2.066703406E0,-1.549711609E1,-6.308377743E0,-1.405484200E0
2.069098198E0,-1.527189159E1,-6.284449577E0,-1.213759303E0
2.071492989E0,-1.498235989E1,-6.339484692E0,-9.409775138E-1
2.073888562E0,-1.469252968E1,-6.418447495E0,-6.702894568E-1
2.076284187E0,-1.444846153E1,-6.447161674E0,-5.051847100E-1
2.078678927E0,-1.434556961E1,-6.413661957E0,-4.238287210E-1
2.081073718E0,-1.432882023E1,-6.356234074E0,-2.488535494E-1
2.083469343E0,-1.430967808E1,-6.341877460E0,6.221338734E-2
2.085864916E0,-1.423998642E1,-6.322734833E0,2.488535494E-1
2.088259708E0,-1.407966709E1,-6.332305908E0,2.751746178E-1
2.090654500E0,-1.397438335E1,-6.274878502E0,2.416750938E-1
2.093050073E0,-1.393609810E1,-6.183950901E0,1.746760458E-1
2.095445698E0,-1.382602787E1,-6.095416546E0,5.024927482E-2
2.097840437E0,-1.359123230E1,-5.992525101E0,9.571290575E-3
2.100235229E0,-1.331127262E1,-5.863013744E0,-6.460621208E-2
2.102630854E0,-1.305972672E1,-5.803193092E0,-2.033899277E-1
2.105026427E0,-1.279890919E1,-5.776872158E0,-2.799602449E-1
2.107421218E0,-1.258804131E1,-5.800800323E0,-5.742774159E-2
2.109816010E0,-1.225304699E1,-5.798407555E0,-2.416750938E-1
2.112211583E0,-1.194168091E1,-5.772086620E0,1.507478207E-1
2.114607156E0,-1.151815128E1,-5.752943993E0,8.907282352E-1
2.117001948E0,-1.123549843E1,-5.422734261E0,1.589731574E0
2.119396739E0,-1.086909771E1,-5.331807137E0,1.968096614E0
2.121792364E0,-1.067767239E1,-5.140082359E0,2.197807550E0
2.124187937E0,-1.051735306E1,-5.013262749E0,2.346162558E0
2.126582729E0,-1.021077251E1,-5.058726311E0,2.281556368E0
2.128977521E0,-9.887741089E0,-5.118546963E0,2.054238319E0
2.131373093E0,-9.557232857E0,-5.168796062E0,1.704586983E0
2.133768666E0,-9.229117393E0,-5.216652393E0,1.139581800E0
2.136163458E0,-9.040083885E0,-5.190331459E0,5.386841893E-1
2.138558250E0,-8.879764557E0,-5.156831741E0,-9.571290761E-2
2.140953875E0,-8.733802795E0,-5.152046204E0,-6.678966284E-1
2.143349448E0,-8.597112656E0,-5.190331459E0,-1.220937729E0
2.145744239E0,-8.460721970E0,-5.233402252E0,-1.666301847E0
2.148139031E0,-8.379365921E0,-5.300401211E0,-2.061416626E0
2.150534604E0,-8.369794846E0,-5.346164227E0,-2.415554523E0
2.152930177E0,-8.360222816E0,-5.379663467E0,-2.664707184E0
2.155324968E0,-8.558827400E0,-5.130510807E0,-2.726920605E0
2.157719760E0,-8.601898193E0,-5.089832783E0,-2.827419043E0
2.160115385E0,-8.558827400E0,-5.135296345E0,-2.925524712E0
2.162510958E0,-8.434400558E0,-5.235795021E0,-3.054737091E0
2.164905698E0,-8.336295128E0,-5.346164227E0,-3.174677372E0
2.167300489E0,-8.250153542E0,-5.484947681E0,-3.248854876E0
2.169696114E0,-8.338687897E0,-5.441876888E0,-3.251247883E0
2.172091687E0,-8.621041298E0,-5.245366573E0,-3.267997503E0
2.174486479E0,-8.934800148E0,-4.986941338E0,-3.222533941E0
2.176881271E0,-9.150154114E0,-4.764110088E0,-3.198605776E0
2.179276896E0,-9.248259544E0,-4.620540619E0,-3.267997503E0
2.181672468E0,-9.181260109E0,-4.534399033E0,-3.239283562E0
2.184067208E0,-9.085547447E0,-4.476971149E0,-3.200998545E0
2.186462000E0,-9.011369705E0,-4.472185612E0,-3.179463148E0
2.188857625E0,-8.937192917E0,-4.481756687E0,-3.021237612E0
2.191253198E0,-8.772088051E0,-4.472185612E0,-2.729313374E0
2.193647989E0,-8.460721970E0,-4.467400074E0,-1.862513304E0
2.196042781E0,-8.197511673E0,-4.402793884E0,-1.223330617E0
2.198438406E0,-8.048856735E0,-4.216153622E0,-7.851449251E-1
2.200833979E0,-8.008178711E0,-4.045963764E0,-4.836492836E-1
2.203228718E0,-7.931608677E0,-3.969393730E0,-2.632105052E-1
2.205623510E0,-7.919644833E0,-3.928715706E0,-9.810572863E-2
2.208019135E0,-7.754539967E0,-3.878466368E0,-3.589234129E-2
2.210414708E0,-7.517351627E0,-3.842574120E0,-8.135596663E-2
2.212809500E0,-7.330711365E0,-3.880859137E0,-2.898306549E-1
2.215204291E0,-7.266105175E0,-3.931108475E0,-7.516453862E-1
2.217599916E0,-7.144071102E0,-4.012464523E0,-1.278365493E0
2.219995489E0,-6.636493683E0,-4.053142548E0,-1.462911963E0
2.222390229E0,-5.590231895E0,-3.962215185E0,-9.696913958E-1
2.224785021E0,-4.761716843E0,-3.782753468E0,-2.344966233E-1
2.227180646E0,-4.486542225E0,-3.588635683E0,-1.938186288E-1
2.229576218E0,-4.038785458E0,-3.435495138E0,-1.890329868E-1
2.231971010E0,-3.744468451E0,-3.287140131E0,2.826521695E-1
2.234365802E0,-3.634099483E0,-3.145963669E0,4.477569461E-1
2.236761427E0,-3.466601849E0,-3.105285645E0,5.219344497E-1
2.239157000E0,-3.244069338E0,-3.073879719E0,4.788636267E-1
2.241551739E0,-2.987738132E0,-3.138785124E0,3.041875660E-1
2.243946531E0,-2.741277456E0,-3.239283562E0,-1.148554832E-1
2.246342156E0,-2.578565598E0,-3.339782238E0,-6.032904387E-1
2.248737729E0,-2.420340061E0,-3.411566973E0,-1.055832982E0
2.251132521E0,-2.183450699E0,-3.524029493E0,-1.345364571E0
2.253527312E0,-1.905584097E0,-3.672683716E0,-1.575374603E0
2.255922937E0,-1.649552107E0,-3.818645954E0,-1.697408557E0
2.258318510E0,-1.489233017E0,-3.971786499E0,-1.797907114E0
2.260713250E0,-1.390828133E0,-4.153641224E0,-1.896012783E0
2.263108041E0,-1.470090389E0,-4.331008911E0,-2.085345030E0
2.265503666E0,-1.876870275E0,-4.520041943E0,-2.319841623E0
2.267899239E0,-2.679064035E0,-4.658825874E0,-2.520838737E0
2.270294031E0,-3.763610840E0,-4.704289436E0,-2.604886532E0
2.272688823E0,-4.848157883E0,-4.706682205E0,-2.408375978E0
2.275084396E0,-5.666802406E0,-4.689932346E0,-2.015953064E0
2.277480021E0,-6.143272877E0,-4.658825874E0,-1.584945917E0
2.279874760E0,-6.308377743E0,-4.620540619E0,-1.161117196E0
2.282269552E0,-6.219843388E0,-4.527220249E0,-7.779664397E-1
2.284665177E0,-6.033203125E0,-4.409972191E0,-5.003990531E-1
2.287060750E0,-5.843871117E0,-4.297509670E0,-3.065803945E-1
2.289455541E0,-5.520840168E0,-4.148855209E0,-1.986042857E-1
2.291850333E0,-5.216652393E0,-3.998107433E0,-1.363908947E-1
2.294245906E0,-4.955834866E0,-3.878466368E0,-1.172483116E-1
2.296641531E0,-4.838586330E0,-3.749253988E0,-6.939185411E-2
2.299036271E0,-4.884049892E0,-3.641277790E0,-3.828516230E-2
2.301431062E0,-5.116153717E0,-3.533600807E0,-5.503492057E-2
2.303826687E0,-5.429912567E0,-3.495315790E0,-1.674975827E-2
2.306222260E0,-5.673980713E0,-3.526422262E0,7.178467698E-3
2.308617052E0,-5.788836002E0,-3.571886063E0,-6.460621208E-2
2.311011843E0,-5.812764645E0,-3.552743435E0,-1.100698411E-1
2.313407416E0,-5.923133373E0,-3.540779352E0,-8.614161611E-2
2.315803041E0,-6.097809315E0,-3.488137245E0,-3.349951655E-2
2.318197781E0,-6.102594852E0,-3.466601849E0,9.571290575E-3
2.320592573E0,-6.004489422E0,-3.502494097E0,-1.746760458E-1
2.322988198E0,-5.942276001E0,-3.535993576E0,-4.546362907E-2
2.325383771E0,-5.762515068E0,-3.564707518E0,5.503492057E-2
2.327778562E0,-5.803193092E0,-3.749253988E0,3.520440459E-1
2.330173354E0,-5.626124382E0,-3.909573078E0,3.544368446E-1
2.332568927E0,-5.271687508E0,-3.962215185E0,3.400799036E-1
2.334964552E0,-4.812265396E0,-4.026821613E0,4.190430641E-1
2.337359291E0,-4.383651257E0,-3.990929127E0,4.525425732E-1
2.339754083E0,-4.072285175E0,-3.986143351E0,4.190430641E-1
2.342149708E0,-3.739682674E0,-4.033999920E0,3.687937856E-1
2.344545281E0,-3.440280676E0,-4.086641788E0,9.092725813E-2
2.346940073E0,-3.189034462E0,-4.160819530E0,-2.898306549E-1
2.349334864E0,-2.963809967E0,-4.299902439E0,-6.750751138E-1
2.351730437E0,-2.927917719E0,-4.579862595E0,-1.022333503E0
2.354126062E0,-3.145963669E0,-4.881657124E0,-1.201795220E0
2.356520802E0,-4.079463482E0,-5.776872158E0,-7.516453862E-1
2.358915593E0,-5.068297386E0,-6.524031162E0,-8.859425783E-1
2.361311218E0,-6.179165363E0,-7.067500591E0,-1.249651670E0
2.363706791E0,-7.290033340E0,-7.268497944E0,-1.639980793E0
2.366101583E0,-8.216653824E0,-7.359425068E0,-1.683051586E0
2.368496375E0,-9.001798630E0,-7.357032299E0,-1.730908036E0
2.370891948E0,-9.597910881E0,-7.337889671E0,-1.685444474E0
2.373287573E0,-1.026102161E1,-7.359425068E0,-1.702194214E0
2.375682312E0,-1.083799076E1,-7.325925827E0,-1.522732496E0
2.378077104E0,-1.129292679E1,-7.299604416E0,-1.335793257E0
2.380472729E0,-1.142692471E1,-7.206284523E0,-1.252044439E0
2.382868302E0,-1.136231804E1,-7.098607540E0,-1.201795220E0
2.385263093E0,-1.146281719E1,-7.117750168E0,-1.127617717E0
2.387657885E0,-1.135753250E1,-7.218248844E0,-1.005583763E0
2.390053458E0,-1.100578785E1,-7.213462830E0,-9.337990284E-1
2.392449083E0,-1.085474110E1,-7.280461788E0,-9.074779749E-1
2.394843823E0,-1.051735306E1,-7.251748085E0,-1.022333503E0
2.397238614E0,-1.015334511E1,-7.158428192E0,-1.015154958E0
2.399634239E0,-9.945169449E0,-7.091429234E0,-9.242277741E-1
2.402029812E0,-9.461520195E0,-6.978667259E0,-7.492526174E-1
2.404424604E0,-9.073583603E0,-6.868597507E0,-5.961119533E-1
2.406819396E0,-8.647361755E0,-6.713063717E0,-4.621138871E-1
2.409214968E0,-8.386544228E0,-6.598208427E0,-3.448655605E-1
2.411610593E0,-8.281260490E0,-6.543173313E0,-2.775674164E-1
2.414005333E0,-8.015357971E0,-6.535995007E0,-2.679961324E-1
2.416400125E0,-7.852645874E0,-6.617351055E0,-1.746760458E-1
2.418795750E0,-7.768897057E0,-6.677171707E0,-2.440679073E-1
2.421191323E0,-7.938787460E0,-6.835097790E0,-3.855435550E-1
2.423586114E0,-8.024929047E0,-7.000202656E0,-6.391827464E-1
2.425980906E0,-8.329116821E0,-7.203891754E0,-8.353942037E-1
2.428376479E0,-8.422436714E0,-7.368996620E0,-1.046261668E0
2.430772104E0,-8.551649094E0,-7.486244678E0,-1.125224829E0
2.433166843E0,-8.642576218E0,-7.555636406E0,-1.249651670E0
2.435561635E0,-8.573184013E0,-7.634898663E0,-1.204187989E0
2.437957260E0,-8.637790680E0,-7.599006653E0,-1.108475089E0
2.440352833E0,-8.784051895E0,-7.582256794E0,-1.125224829E0
2.442747625E0,-8.894122124E0,-7.601399422E0,-9.290133715E-1
2.445142416E0,-9.004191399E0,-7.606184959E0,-7.061817646E-1
2.447537989E0,-9.040083885E0,-7.577471256E0,-5.315057039E-1
2.449933562E0,-9.140582085E0,-7.507780075E0,-2.994019389E-1
2.452328354E0,-9.032905579E0,-7.474280834E0,-1.268195957E-1
2.454723146E0,-8.764909744E0,-7.419245720E0,5.024927482E-2
2.457118771E0,-8.606683731E0,-7.349853992E0,1.579262912E-1
2.459514343E0,-8.228617668E0,-7.304390430E0,1.674975902E-1
2.461909135E0,-7.649255753E0,-7.196712971E0,-5.264209956E-2
2.464303927E0,-7.270890713E0,-7.093822002E0,-7.896314561E-2
2.466699500E0,-6.988238335E0,-7.004988194E0,-6.221338734E-2
2.469095125E0,-6.753741741E0,-7.012166977E0,-1.698904037E-1
2.471489864E0,-6.512066841E0,-7.110571384E0,-2.970091105E-1
2.473884656E0,-6.310770512E0,-7.206284523E0,-3.999004960E-1
2.476280281E0,-6.334698677E0,-7.318747044E0,-3.831507266E-1
2.478675854E0,-6.528816700E0,-7.404888630E0,-5.147559643E-1
2.481070646E0,-6.662814617E0,-7.435995579E0,-6.032904387E-1
2.483465437E0,-7.062715054E0,-7.500601768E0,-4.740779996E-1
2.485861010E0,-7.112964630E0,-7.471887589E0,-5.769693851E-1
2.488256635E0,-7.383353233E0,-7.402495861E0,-4.812564552E-1
2.490651375E0,-7.754539967E0,-7.342675209E0,-5.434698462E-1
2.493046166E0,-7.689933777E0,-7.290033340E0,-6.487540603E-1
2.495441791E0,-7.469494820E0,-7.220641613E0,-5.961119533E-1
2.497837364E0,-7.139285564E0,-7.167999268E0,-6.248258352E-1
2.500232156E0,-6.736992359E0,-7.156035423E0,-5.147559643E-1
2.502626948E0,-6.500102520E0,-7.184749126E0,-4.381856322E-1
2.505022521E0,-6.243771553E0,-7.208677292E0,-4.166502357E-1
2.507418093E0,-5.903990746E0,-7.258926392E0,-3.017947674E-1
2.509812885E0,-5.626124382E0,-7.227819920E0,-3.879363835E-1
2.512207677E0,-5.420341492E0,-7.115357399E0,-2.368894368E-1
2.514603302E0,-5.032404900E0,-6.990631580E0,-2.584248483E-1
2.516998875E0,-5.077868938E0,-6.842276573E0,-1.579262912E-1
2.519393666E0,-4.979763031E0,-6.803991318E0,-2.105683982E-1
2.521788458E0,-4.922335148E0,-6.751348972E0,-1.339980662E-1
2.524184031E0,-4.721039295E0,-6.658029079E0,-6.221338734E-2
2.526579656E0,-4.682754040E0,-6.562315941E0,-0.000000000E0
2.528974396E0,-4.618147850E0,-6.480959892E0,9.092725813E-2
2.531369187E0,-4.855336189E0,-6.394519329E0,2.632105052E-1
2.533764812E0,-4.723432064E0,-6.339484692E0,2.129612118E-1
2.536160385E0,-4.876871586E0,-6.310770512E0,2.970091105E-1
2.538555177E0,-4.651647091E0,-6.289235115E0,2.464607358E-1
2.540949968E0,-4.773980141E0,-6.207879066E0,5.434698462E-1
2.543345593E0,-4.756931305E0,-6.186343670E0,5.027918816E-1
2.545741166E0,-5.080261707E0,-6.183950901E0,6.415755749E-1
2.548135906E0,-5.611767292E0,-6.215057850E0,6.200401783E-1
2.550530698E0,-6.329913139E0,-6.274878502E0,5.721837282E-1
2.552926323E0,-7.055536747E0,-6.435197353E0,2.703889608E-1
2.555321896E0,-7.701898098E0,-6.691528320E0,-7.178468257E-2
2.557716687E0,-8.436793327E0,-7.009773731E0,-3.879363835E-1
2.560111479E0,-9.291629791E0,-7.282855034E0,-4.214358926E-1
2.562507104E0,-1.000977516E1,-7.512565613E0,-5.602195859E-1
2.564902677E0,-1.068245792E1,-7.668398380E0,-7.157530785E-1
2.567297416E0,-1.126899815E1,-7.701898098E0,-6.750751138E-1
2.569692208E0,-1.140538883E1,-7.792825222E0,-1.106082320E0
2.572087833E0,-1.153968620E1,-7.878966808E0,-1.173081279E0
2.574483406E0,-1.198475170E1,-7.945965767E0,-1.359721422E0
2.576878198E0,-1.207597733E1,-8.039285660E0,-1.321436286E0
2.579272989E0,-1.207119179E1,-8.094321251E0,-1.460519075E0
2.581668614E0,-1.237029457E1,-8.132605553E0,-1.331007600E0
2.584064187E0,-1.220040417E1,-8.152048111E0,-1.208973646E0
2.586458927E0,-1.185075283E1,-8.099106789E0,-1.194616675E0
2.588853718E0,-1.166411304E1,-8.072785378E0,-8.715856671E-1
2.591249343E0,-1.123549843E1,-7.943572998E0,-6.702894568E-1
2.593644916E0,-1.087627602E1,-7.694719315E0,-5.673980713E-1
2.596039708E0,-1.070638561E1,-7.536494255E0,-3.544368446E-1
2.598434500E0,-1.080927753E1,-7.419245720E0,-2.632104978E-2
2.600830125E0,-1.084038353E1,-7.244569778E0,3.759722710E-1
2.603225698E0,-1.075902748E1,-7.086643219E0,6.200401783E-1
2.605620437E0,-1.041206837E1,-7.036394119E0,6.056832075E-1
2.608015229E0,-1.005763149E1,-6.995417118E0,6.152545214E-1
2.610410854E0,-9.882955551E0,-6.861418724E0,7.037889361E-1
2.612806427E0,-1.024187946E1,-6.124130249E0,8.090731502E-1
2.615201218E0,-9.684052467E0,-6.284449577E0,9.433703423E-1
2.617596010E0,-8.987442017E0,-6.667600155E0,1.000798106E0
2.619991635E0,-8.286046028E0,-7.129714012E0,1.039083242E0
2.622387208E0,-8.012965202E0,-7.251748085E0,1.055832982E0
2.624782000E0,-8.144868851E0,-6.897311211E0,1.189831018E0
2.627176791E0,-8.053643227E0,-6.653243542E0,1.280758262E0
2.629572364E0,-7.658827305E0,-6.595815659E0,1.228116274E0
2.631967937E0,-7.072286606E0,-6.605386734E0,1.127617717E0
2.634362729E0,-6.564708710E0,-6.619743824E0,1.074975610E0
2.636757521E0,-6.198307991E0,-6.617351055E0,1.029511929E0
2.639153146E0,-6.026024818E0,-6.485745907E0,1.113260746E0
2.641548718E0,-6.033203125E0,-6.387341022E0,1.151545882E0
2.643943510E0,-6.009274960E0,-6.413661957E0,1.036690354E0
2.646338302E0,-5.851049423E0,-6.437590122E0,9.553344250E-1
2.648733875E0,-5.908776283E0,-6.519245148E0,8.500502706E-1
2.651129500E0,-6.002096653E0,-6.634100914E0,7.348956466E-1
2.653524239E0,-6.102594852E0,-6.756134510E0,5.506483316E-1
2.655919031E0,-6.140880108E0,-6.892525673E0,4.286143482E-1
2.658314656E0,-6.128916264E0,-7.072286606E0,2.536391914E-1
2.660710229E0,-6.112166405E0,-7.261319637E0,1.196411345E-2
2.663105021E0,-6.152844429E0,-7.498209000E0,-2.608176768E-1
2.665499812E0,-6.203093529E0,-7.670791149E0,-5.027918816E-1
2.667895385E0,-6.279664040E0,-7.831110477E0,-7.516453862E-1
2.670290958E0,-6.332305908E0,-7.931608677E0,-8.401798606E-1
2.672685750E0,-6.329913139E0,-7.969893932E0,-9.146564603E-1
2.675080541E0,-6.308377743E0,-7.962715626E0,-8.377870321E-1
2.677476166E0,-6.310770512E0,-7.888537884E0,-6.535396576E-1
2.679871739E0,-6.351448536E0,-7.749754429E0,-4.692923427E-1
2.682266531E0,-6.361020088E0,-7.569993496E0,-2.440679073E-1
2.684661323E0,-6.339484692E0,-7.390532017E0,-2.632104978E-2
2.687056896E0,-6.327520370E0,-7.225427151E0,2.440679073E-1
2.689452521E0,-6.193522453E0,-7.132106781E0,3.424727321E-1
2.691847260E0,-6.028417587E0,-7.045965195E0,5.123631358E-1
2.694242052E0,-5.913562298E0,-6.945167542E0,6.631109715E-1
2.696637677E0,-5.798407555E0,-6.856633186E0,8.476574421E-1
2.699033250E0,-5.762515068E0,-6.734599113E0,9.720842242E-1
2.701428041E0,-5.764907837E0,-6.698707104E0,1.070189953E0
2.703822833E0,-5.659623623E0,-6.564708710E0,1.211366415E0
2.706218406E0,-5.606981754E0,-6.430411816E0,1.357328653E0
2.708614031E0,-5.604588985E0,-6.353841305E0,1.402792215E0
2.711008771E0,-5.683551788E0,-6.365805626E0,1.498804331E0
2.713403562E0,-5.748157978E0,-6.394519329E0,1.565803289E0
2.715799187E0,-5.760122299E0,-6.473781586E0,1.558624864E0
2.718194760E0,-5.714658737E0,-6.571887493E0,1.484447360E0
2.720589552E0,-5.669195175E0,-6.732206345E0,1.369292736E0
2.722984343E0,-5.592624664E0,-6.844669342E0,1.264008522E0
2.725379968E0,-5.547161102E0,-6.969096184E0,1.161117196E0
2.727775541E0,-5.518447399E0,-7.122535706E0,9.936196208E-1
2.730170281E0,-5.499304771E0,-7.246962547E0,8.162516356E-1
2.732565073E0,-5.456233978E0,-7.306783199E0,6.128616929E-1
2.734960698E0,-5.417948723E0,-7.412067413E0,4.788636267E-1
2.737356271E0,-5.496912003E0,-7.577471256E0,3.137588799E-1
2.739751062E0,-5.702694416E0,-7.766504288E0,1.866401732E-1
2.742145854E0,-5.992525101E0,-7.957930088E0,4.546362907E-2
2.744541479E0,-6.303592205E0,-8.159226418E0,-1.268195957E-1
2.746937052E0,-6.564708710E0,-8.336295128E0,-3.017947674E-1
2.749331843E0,-6.777669907E0,-8.513363838E0,-3.687937856E-1
2.751726635E0,-6.983452797E0,-8.621041298E0,-3.975076675E-1
2.754122208E0,-7.134500027E0,-8.680861473E0,-3.711866140E-1
2.756517781E0,-7.124928474E0,-8.659325600E0,-3.520440459E-1
2.758912573E0,-7.081857681E0,-8.611469269E0,-2.994019389E-1
2.761307364E0,-7.045965195E0,-8.554041862E0,-1.890329868E-1
2.763702989E0,-7.036394119E0,-8.470293045E0,-4.307080805E-2
2.766098562E0,-6.952346325E0,-8.453543663E0,7.417750359E-2
2.768493354E0,-6.813562393E0,-8.417651176E0,8.374879509E-2
2.770888146E0,-6.612565517E0,-8.422436714E0,7.896314561E-2
2.773283718E0,-6.449554443E0,-8.424829483E0,1.531406492E-1
2.775679291E0,-6.296413898E0,-8.439186096E0,1.627119333E-1
2.778074083E0,-6.191129684E0,-8.477471352E0,2.081755698E-1
2.780468875E0,-6.049952984E0,-8.484649658E0,2.392822653E-1
2.782864500E0,-5.975775242E0,-8.501399994E0,2.297109663E-1
2.785260073E0,-5.879763603E0,-8.482256889E0,2.297109663E-1
2.787654864E0,-5.740979671E0,-8.465507507E0,2.009970993E-1
2.790049656E0,-5.623731613E0,-8.463114738E0,2.225325108E-1
2.792445229E0,-5.535196781E0,-8.499007225E0,2.536391914E-1
2.794840854E0,-5.535196781E0,-8.503792763E0,2.946162820E-1
2.797235593E0,-5.489733219E0,-8.539685249E0,3.233301640E-1
2.799630385E0,-5.458626747E0,-8.532505989E0,3.041875660E-1
2.802026010E0,-5.389235020E0,-8.592327118E0,2.560320199E-1
2.804421583E0,-5.417948723E0,-8.570791245E0,2.321037948E-1
2.806816375E0,-5.360520840E0,-8.637790680E0,2.081755698E-1
2.809211166E0,-5.262115955E0,-8.678468704E0,2.392822653E-1
2.811606739E0,-5.197509766E0,-8.692825317E0,2.081755698E-1
2.814002364E0,-5.154438972E0,-8.709874153E0,2.297109663E-1
2.816397104E0,-5.034798145E0,-8.762516975E0,2.512463629E-1
2.818791896E0,-4.953442097E0,-8.781659126E0,2.608176768E-1
2.821187521E0,-4.922335148E0,-8.851051331E0,2.009970993E-1
2.823583093E0,-5.044369221E0,-8.791230202E0,1.962114573E-1
2.825977885E0,-5.140082359E0,-8.654540062E0,1.387837082E-1
2.828372677E0,-5.039583683E0,-8.621041298E0,1.914258152E-1
2.830768250E0,-5.051547527E0,-8.635397911E0,1.339980662E-1
2.833163875E0,-5.085047245E0,-8.625826836E0,5.503492057E-2
2.835558614E0,-5.077868938E0,-8.822337151E0,-5.503492057E-2
2.837953406E0,-5.319543839E0,-8.685647011E0,-1.196411345E-2
2.840349031E0,-5.228616714E0,-8.654540062E0,-9.571290575E-3
2.842744604E0,-5.118546963E0,-8.621041298E0,1.435693540E-2
2.845139396E0,-4.596612453E0,-8.896514893E0,1.842473447E-1
2.847534187E0,-4.927121162E0,-8.946763992E0,4.573282301E-1
2.849929812E0,-5.094618320E0,-9.226723671E0,2.874378264E-1
2.852325385E0,-5.819942951E0,-8.451150894E0,1.507478207E-1
2.854720177E0,-5.678766251E0,-7.948358536E0,1.387837082E-1
2.857114968E0,-5.266901970E0,-7.802396297E0,3.185445070E-1
2.859510541E0,-5.173581600E0,-7.819146156E0,3.329014480E-1
2.861906114E0,-4.723432064E0,-8.654540062E0,2.440679073E-1
2.864300906E0,-5.140082359E0,-8.822337151E0,3.329014480E-1
2.866695698E0,-5.499304771E0,-8.721838951E0,2.081755698E-1
2.869091323E0,-5.156831741E0,-8.441578865E0,3.927220106E-1
2.871486896E0,-5.070690155E0,-7.704290867E0,4.310071766E-1
2.873881687E0,-4.706682205E0,-7.467102051E0,2.826521695E-1
2.876276479E0,-4.824229717E0,-7.450352192E0,1.387837082E-1
2.878672052E0,-5.120939732E0,-7.599006653E0,8.374879509E-2
2.881067677E0,-4.675575256E0,-8.939585686E0,2.608176768E-1
2.883462416E0,-5.116153717E0,-9.195617676E0,4.597210586E-1
2.885857208E0,-5.063511848E0,-9.164510727E0,5.865406394E-1
2.888252833E0,-4.886443138E0,-8.791230202E0,5.913262963E-1
2.890648406E0,-4.529613495E0,-8.630612373E0,1.962114573E-1
2.893043198E0,-4.421936035E0,-8.678468704E0,-7.896314561E-2
2.895437989E0,-4.718646049E0,-8.695218086E0,-1.938186288E-1
2.897833562E0,-4.946263313E0,-8.786444664E0,-1.316052526E-1
2.900229187E0,-4.340580463E0,-1.005045319E1,1.938186288E-1
2.902623927E0,-4.603790760E0,-1.025623608E1,3.544368446E-1
2.905018718E0,-4.596612453E0,-1.008873844E1,4.908277392E-1
2.907414343E0,-4.443471432E0,-9.815657616E0,5.602195859E-1
2.909809916E0,-4.534399033E0,-9.150154114E0,4.238287210E-1
2.912204708E0,-4.479363918E0,-8.652147293E0,2.129612118E-1
2.914599500E0,-4.455435753E0,-8.496614456E0,1.052841991E-1
2.916995073E0,-4.510470867E0,-8.537292480E0,1.292124242E-1
2.919390698E0,-4.539184570E0,-8.676075935E0,2.344966233E-1
2.921785437E0,-4.503292084E0,-8.927620888E0,4.070789516E-1
2.924180229E0,-4.314259052E0,-9.248259544E0,4.860421121E-1
2.926575854E0,-4.216153622E0,-9.468698502E0,6.846463680E-1
2.928971427E0,-4.840979099E0,-8.534899712E0,1.970489502E0
2.931366218E0,-3.483351469E0,-9.928419113E0,1.328614831E0
2.933761010E0,-3.631706476E0,-1.022273636E1,8.162516356E-1
2.936156635E0,-3.775574923E0,-1.012941647E1,4.046861231E-1
2.938552208E0,-3.734897137E0,-9.703194618E0,3.640081584E-1
2.940947000E0,-3.837788343E0,-8.767302513E0,1.890329868E-1
2.943341791E0,-3.801896095E0,-8.154440880E0,2.153540403E-1
2.945737364E0,-3.969393730E0,-7.606184959E0,2.225325108E-1
2.948132937E0,-4.041178226E0,-7.146463871E0,5.817549825E-1
2.950527729E0,-2.822633505E0,-7.749754429E0,1.278365493E0
2.952922521E0,-1.850549221E0,-6.286842346E0,3.294318676E0
2.955318146E0,-1.702194214E0,-3.382853031E0,6.167201042E0
2.957713718E0,-3.864109516E0,-1.809871197E0,6.133701801E0
2.960108510E0,-4.955834866E0,-2.748456001E0,3.976572037E0
2.962503302E0,-6.126523495E0,-4.242474556E0,2.420340061E0
2.964898875E0,-6.186343670E0,-5.561518192E0,1.831406593E0
2.967294448E0,-5.614160061E0,-6.777669907E0,1.362114310E0
2.969689239E0,-5.228616714E0,-7.888537884E0,7.178467698E-3
2.972084031E0,-4.903192520E0,-8.644968987E0,-8.258228898E-1
2.974479656E0,-4.776372910E0,-9.013762474E0,-8.476574421E-1
2.976875229E0,-4.896014214E0,-9.322735786E0,-1.192223907E0
2.979270021E0,-5.097011566E0,-9.607481956E0,-1.369292736E0
2.981664812E0,-5.401198864E0,-9.863813400E0,-1.280758262E0
2.984060385E0,-5.535196781E0,-9.933204651E0,-1.254437327E0
2.986456010E0,-5.662016392E0,-9.993025780E0,-9.816554785E-1
2.988850750E0,-5.535196781E0,-1.045274639E1,-5.626124144E-1
2.991245541E0,-6.104988098E0,-1.072792149E1,-3.041875660E-1
2.993641166E0,-6.983452797E0,-1.021555805E1,-2.009970993E-1
2.996036739E0,-7.036394119E0,-1.013180923E1,1.651047617E-1
2.998431531E0,-6.945167542E0,-1.006241703E1,4.501497746E-1
3.000826323E0,-6.181558132E0,-1.067527866E1,4.884349108E-1
3.003221896E0,-6.406483650E0,-1.056042385E1,4.286143482E-1
3.005617521E0,-6.349055767E0,-1.032802105E1,4.310071766E-1
3.008012260E0,-5.585446358E0,-1.083081245E1,4.597210586E-1
3.010407052E0,-4.833800793E0,-1.153250790E1,3.999004960E-1
3.012802677E0,-4.381258488E0,-1.202303600E1,2.416750938E-1
3.015198250E0,-3.990929127E0,-1.251865005E1,-1.052841991E-1
3.017593041E0,-3.710968733E0,-1.297597790E1,-3.951148391E-1
3.019987833E0,-3.552743435E0,-1.330648708E1,-6.176473498E-1
3.022383458E0,-3.370888948E0,-1.345484161E1,-7.779664397E-1
3.024779031E0,-3.344567776E0,-1.349073410E1,-9.098708034E-1
3.027173771E0,-3.344567776E0,-1.340219975E1,-9.314061999E-1
3.029568562E0,-3.282354355E0,-1.331845093E1,-9.026923180E-1
3.031964187E0,-3.210569859E0,-1.316261864E1,-8.114659786E-1
3.034359760E0,-3.153141975E0,-1.294487095E1,-7.588238716E-1
3.036754552E0,-3.133999348E0,-1.272951698E1,-5.171487927E-1
3.039149343E0,-3.299104214E0,-1.240140152E1,-2.416750938E-1
3.041544968E0,-3.397209883E0,-1.205175018E1,-1.196411345E-2
3.043940541E0,-3.404388428E0,-1.173589802E1,1.746760458E-1
3.046335333E0,-3.330210924E0,-1.151336479E1,2.751746178E-1
3.048730125E0,-3.100499868E0,-1.135513973E1,3.209373355E-1
3.051125698E0,-2.796312332E0,-1.113978577E1,3.065803945E-1
3.053521271E0,-2.580958366E0,-1.097228813E1,3.544368446E-1
3.055916062E0,-2.394019127E0,-1.080688477E1,2.850449979E-1
3.058310854E0,-2.305484533E0,-1.067527866E1,2.081755698E-1
3.060706479E0,-2.161915302E0,-1.049103165E1,1.316052526E-1
3.063102052E0,-2.015953064E0,-1.024666500E1,7.657032460E-2
3.065496843E0,-1.800299883E0,-9.959526062E0,4.546362907E-2
3.067891635E0,-1.596910000E0,-9.593125343E0,-4.785645287E-3
3.070287208E0,-1.419841170E0,-9.152546883E0,-2.153540403E-2
3.072682781E0,-1.295115232E0,-8.664112091E0,1.004985496E-1
3.075077573E0,-1.194616675E0,-8.164011955E0,1.674975902E-1
3.077472364E0,-1.115653515E0,-7.663612843E0,2.775674164E-1
3.079867989E0,-1.058225870E0,-7.227819920E0,3.687937856E-1
3.082263562E0,-1.055832982E0,-6.820741177E0,3.879363835E-1
3.084658354E0,-1.144367456E0,-6.516852379E0,3.927220106E-1
3.087053146E0,-1.314257860E0,-6.320342064E0,2.703889608E-1
3.089448718E0,-1.458126307E0,-6.227021694E0,1.339980662E-1
3.091844343E0,-1.596910000E0,-6.198307991E0,-4.307080805E-2
3.094239083E0,-1.730908036E0,-6.219843388E0,-1.531406492E-1
3.096633875E0,-1.886441588E0,-6.258128643E0,-2.775674164E-1
3.099029500E0,-2.099701881E0,-6.272485256E0,-3.879363835E-1
3.101425073E0,-2.367697954E0,-6.327520370E0,-4.692923427E-1
3.103819864E0,-2.626421928E0,-6.420840263E0,-5.003990531E-1
3.106214656E0,-2.839383125E0,-6.564708710E0,-5.123631358E-1
3.108610281E0,-3.040380239E0,-6.698707104E0,-5.051847100E-1
3.111005854E0,-3.253640652E0,-6.825526714E0,-4.980062246E-1
3.113400593E0,-3.471387386E0,-6.914061069E0,-4.740779996E-1
3.115795385E0,-3.667897940E0,-6.995417118E0,-4.357928336E-1
3.118191010E0,-3.878466368E0,-7.024429798E0,-3.592225015E-1
3.120586583E0,-4.120141506E0,-7.029215813E0,-2.850449979E-1
3.122981375E0,-4.393222332E0,-7.009773731E0,-2.297109663E-1
3.125376166E0,-4.663611412E0,-6.973881721E0,-1.531406492E-1
3.127771791E0,-4.867300510E0,-6.930810928E0,-9.092725813E-2
3.130167364E0,-4.991727352E0,-6.926024914E0,-6.460621208E-2
3.132562156E0,-5.068297386E0,-6.973881721E0,-1.914258115E-2
3.134956948E0,-5.111368179E0,-7.026822567E0,-2.392822644E-3
3.137352521E0,-5.082654476E0,-7.069893837E0,1.435693540E-2
3.139748093E0,-5.008476734E0,-7.134500027E0,1.196411345E-2
3.142142885E0,-4.955834866E0,-7.182356358E0,-1.914258115E-2
3.144537677E0,-4.898406982E0,-7.232605457E0,-0.000000000E0
3.146933302E0,-4.749752998E0,-7.254140854E0,5.503492057E-2
3.149328875E0,-4.618147850E0,-7.251748085E0,1.316052526E-1
3.151723666E0,-4.488935471E0,-7.196712971E0,2.225325108E-1
3.154118458E0,-4.359723091E0,-7.144071102E0,3.281157911E-1
3.156514031E0,-4.314259052E0,-7.115357399E0,4.046861231E-1
3.158909604E0,-4.316651821E0,-7.117750168E0,5.315057039E-1
3.161304396E0,-4.338187218E0,-7.098607540E0,5.961119533E-1
3.163699187E0,-4.386044025E0,-7.093822002E0,6.296114326E-1
3.166094812E0,-4.374079704E0,-7.146463871E0,6.535396576E-1
3.168490385E0,-4.407579422E0,-7.249355316E0,7.037889361E-1
3.170885177E0,-4.462614059E0,-7.342675209E0,7.420741320E-1
3.173279968E0,-4.548755646E0,-7.433602810E0,8.042874932E-1
3.175675541E0,-4.656432629E0,-7.517351627E0,8.715856671E-1
3.178071166E0,-4.776372910E0,-7.642077446E0,8.668000102E-1
3.180465906E0,-4.845765114E0,-7.790432453E0,9.146564603E-1
3.182860698E0,-4.924727917E0,-7.972286701E0,9.098708034E-1
3.185256323E0,-5.772086620E0,-7.680362701E0,1.489233017E0
3.187651896E0,-6.217450619E0,-7.606184959E0,1.692622900E0
3.190046687E0,-6.066702843E0,-7.874181271E0,1.474876046E0
3.192441479E0,-5.662016392E0,-8.221439362E0,1.415055513E0
3.194837052E0,-5.264508724E0,-8.518149376E0,1.371685624E0
3.197232677E0,-4.960620403E0,-8.757730484E0,1.252044439E0
3.199627416E0,-4.783551693E0,-9.059226990E0,1.036690354E0
3.202022208E0,-4.716253281E0,-9.337093353E0,8.330013752E-1
3.204417833E0,-4.661218643E0,-9.705587387E0,6.511468887E-1
3.206813406E0,-4.599005222E0,-1.010788059E1,5.195416212E-1
3.209208198E0,-4.467400074E0,-1.025145054E1,7.157530785E-1
3.211602989E0,-4.228117466E0,-9.760622978E0,8.787640929E-1
3.213998614E0,-3.902394533E0,-8.989834785E0,7.779664397E-1
3.216394187E0,-3.749253988E0,-8.817551613E0,5.386841893E-1
3.218788979E0,-3.543172121E0,-9.257830620E0,5.721837282E-1
3.221183771E0,-3.215355396E0,-1.038814068E1,7.588238716E-1
3.223579343E0,-3.430709362E0,-1.062981510E1,7.899305820E-1
3.225974916E0,-3.665505171E0,-1.061306572E1,5.506483316E-1
3.228369708E0,-3.749253988E0,-1.006002426E1,4.310071766E-1
3.230764500E0,-3.485744476E0,-9.523733139E0,1.244267747E-1
3.233160125E0,-3.327818155E0,-9.095118523E0,-2.081755698E-1
3.235555698E0,-3.339782238E0,-8.953942299E0,-2.608176768E-1
3.237950489E0,-3.284747362E0,-9.040083885E0,3.589234129E-2
3.240345281E0,-3.157927752E0,-9.200403214E0,2.946162820E-1
3.242740854E0,-3.131606579E0,-9.358628273E0,2.392822653E-1
3.245136479E0,-3.110071182E0,-9.648159981E0,4.546362907E-2
3.247531218E0,-2.664707184E0,-1.014377308E1,4.546362907E-2
3.249926010E0,-1.587338686E0,-1.151815128E1,-9.571290761E-2
3.252321635E0,-1.709372640E0,-1.191057396E1,2.225325108E-1
3.254717208E0,-2.236092806E0,-1.133599758E1,7.417750359E-2
3.257112000E0,-2.813062191E0,-1.041206837E1,-3.305086195E-1
3.259506791E0,-3.085843801E0,-9.526125908E0,-6.607181430E-1
3.261902364E0,-3.258426189E0,-9.011369705E0,-8.401798606E-1
3.264297989E0,-3.653541088E0,-8.594719887E0,-8.138588071E-1
3.266692729E0,-3.878466368E0,-8.812766075E0,-4.788636267E-1
3.269087521E0,-3.883252144E0,-9.370592117E0,9.092725813E-2
3.271483146E0,-3.631706476E0,-9.710372925E0,5.793621540E-1
3.273878718E0,-3.205784082E0,-9.562018394E0,8.138588071E-1
3.276273510E0,-2.434697151E0,-9.147761345E0,1.079761267E0
3.278668302E0,-1.206580877E0,-8.678468704E0,2.305484533E0
3.281063927E0,-4.214358926E-1,-8.171190262E0,3.823431492E0
3.283459500E0,-1.036690354E0,-7.766504288E0,3.133999348E0
3.285854239E0,-2.777169704E0,-7.905287743E0,4.022932947E-1
3.288249031E0,-4.400400639E0,-8.851051331E0,-2.109273195E0
3.290644656E0,-5.367699623E0,-9.751050949E0,-2.935096025E0
3.293040229E0,-5.633302689E0,-1.007438183E1,-3.246462107E0
3.295435021E0,-5.185545921E0,-1.067767239E1,-2.860918522E0
3.297829812E0,-4.400400639E0,-1.117328548E1,-1.759621978E0
3.300225437E0,-3.390031576E0,-1.114217854E1,-6.296114326E-1
3.302621010E0,-2.557030201E0,-1.067288589E1,2.392822653E-1
3.305015802E0,-2.152343988E0,-1.017248726E1,6.343970895E-1
3.307410593E0,-2.097309113E0,-9.593125343E0,8.524430394E-1
3.309806166E0,-2.425125837E0,-9.162117958E0,8.377870321E-1
3.312201739E0,-2.829811811E0,-9.040083885E0,8.739784956E-1
3.314596531E0,-3.143570662E0,-9.131011009E0,8.234301209E-1
3.316991323E0,-3.323032379E0,-9.279664993E0,9.122636318E-1
3.319386948E0,-3.390031576E0,-9.413662910E0,1.058225870E0
3.321782521E0,-3.141177893E0,-9.767801285E0,9.290133715E-1
3.324177312E0,-2.516052961E0,-1.041446114E1,6.798607111E-1
3.326572104E0,-2.758027315E0,-1.030169964E1,8.572286963E-1
3.328967677E0,-2.975774050E0,-9.880562782E0,8.066803217E-1
3.331363302E0,-3.196212769E0,-9.420842171E0,9.768698215E-1
3.333758041E0,-3.337389469E0,-9.004191399E0,8.500502706E-1
3.336152833E0,-3.200998545E0,-8.803194046E0,5.961119533E-1
3.338548458E0,-3.208176851E0,-8.697610855E0,5.889334679E-1
3.340944031E0,-3.294318676E0,-8.731410027E0,6.320042610E-1
3.343338823E0,-3.306282759E0,-8.829515457E0,9.409775138E-1
3.345733614E0,-3.069094181E0,-9.111868858E0,1.189831018E0
3.348129239E0,-2.379662037E0,-1.008395290E1,1.027119160E0
3.350524812E0,-2.374876499E0,-1.024427223E1,1.319043517E0
3.352919552E0,-2.585743904E0,-1.026102161E1,1.431805253E0
3.355314343E0,-2.774776936E0,-1.021077251E1,1.280758262E0
3.357709968E0,-2.987738132E0,-1.004088211E1,1.017547846E0
3.360105541E0,-3.217748165E0,-9.971489906E0,6.583253145E-1
3.362500333E0,-3.279961586E0,-1.005763149E1,5.003990531E-1
3.364895125E0,-3.303889751E0,-1.020598698E1,4.812564552E-1
3.367290750E0,-3.272783279E0,-1.032562828E1,5.267201066E-1
3.369686323E0,-2.676671267E0,-1.103689480E1,3.233301640E-1
3.372081114E0,-2.566601276E0,-1.113978577E1,5.578267574E-1
3.374475906E0,-2.650350094E0,-1.094357395E1,7.588238716E-1
3.376871479E0,-2.769991398E0,-1.063938713E1,7.444669604E-1
3.379267052E0,-2.659921408E0,-1.037109184E1,6.655037999E-1
3.381661843E0,-2.688635349E0,-1.015813065E1,5.841478109E-1
3.384056635E0,-2.784348249E0,-9.859027863E0,5.075774789E-1
3.386452260E0,-2.856132984E0,-9.767801285E0,5.027918816E-1
3.388847833E0,-2.896811008E0,-9.722337723E0,4.118646085E-1
3.391242625E0,-2.848954439E0,-9.760622978E0,4.716851711E-1
3.393637416E0,-2.786741018E0,-9.897313118E0,6.272186637E-1
3.396032989E0,-2.262413740E0,-1.065374374E1,5.985047817E-1
3.398428614E0,-2.319841623E0,-1.072792149E1,7.348956466E-1
3.400823354E0,-2.504088879E0,-1.063699436E1,9.218349457E-1
3.403218146E0,-2.408375978E0,-1.073988533E1,4.884349108E-1
3.405613771E0,-2.595315218E0,-1.038335514E1,8.282157183E-1
3.408009343E0,-2.614457846E0,-1.004566765E1,6.152545214E-1
3.410404135E0,-2.489732027E0,-1.004088211E1,1.794617027E-1
3.412798927E0,-2.482553482E0,-1.005523872E1,1.507478207E-1
3.415194500E0,-2.482553482E0,-1.006241703E1,1.722832322E-1
3.417590125E0,-2.468196630E0,-1.007677460E1,2.368894368E-1
3.419984864E0,-2.444268227E0,-1.015573788E1,2.440679073E-1
3.422379656E0,-2.542673111E0,-1.001695347E1,4.621138871E-1
3.424775281E0,-2.511267424E0,-9.969097137E0,5.123631358E-1
3.427170854E0,-2.439482689E0,-1.003370380E1,5.602195859E-1
3.429565646E0,-2.403590441E0,-1.009830952E1,5.721837282E-1
3.431960437E0,-2.377269268E0,-1.017727280E1,6.607181430E-1
3.434356062E0,-2.398804665E0,-1.024427223E1,6.942176819E-1
3.436751635E0,-2.410768747E0,-1.028016472E1,7.396813035E-1
3.439146375E0,-2.035095692E0,-1.083559799E1,6.104688644E-1
3.441541166E0,-1.955833435E0,-1.092891788E1,7.755736113E-1
3.443936791E0,-2.030309916E0,-1.096510983E1,9.026923180E-1
3.446332364E0,-2.238485575E0,-1.086670494E1,1.089332461E0
3.448727156E0,-2.334198475E0,-1.071834946E1,1.228116274E0
3.451121948E0,-2.561815739E0,-1.045274639E1,1.390828133E0
3.453517573E0,-2.722134829E0,-1.018205833E1,1.357328653E0
3.455913146E0,-2.810669184E0,-9.993025780E0,1.237687469E0
3.458307937E0,-2.978166819E0,-9.861420631E0,1.101296663E0
3.460702729E0,-2.939881802E0,-9.810872078E0,9.936196208E-1
3.463098302E0,-3.004487991E0,-9.794121742E0,9.912267923E-1
3.465493875E0,-3.110071182E0,-9.887741089E0,7.851449251E-1
3.467888666E0,-2.844168901E0,-1.009352398E1,5.650052428E-1
3.470283458E0,-2.647957325E0,-1.028973579E1,6.535396576E-1
3.472679083E0,-2.597707987E0,-1.039771175E1,7.995018363E-1
3.475074656E0,-2.650350094E0,-1.037348461E1,9.409775138E-1
3.477469448E0,-2.726920605E0,-1.038574791E1,8.739784956E-1
3.479864239E0,-2.676671267E0,-1.033759212E1,9.242277741E-1
3.482259812E0,-2.597707987E0,-1.026580715E1,9.888339639E-1
3.484655437E0,-2.513660192E0,-1.021795082E1,9.696913958E-1
3.487050177E0,-2.480160713E0,-1.015573788E1,1.039083242E0
3.489444968E0,-2.496910334E0,-1.013180923E1,1.027119160E0
3.491840593E0,-2.484946251E0,-1.010070229E1,1.024726272E0
3.494236166E0,-2.465803623E0,-1.006002426E1,1.007976532E0
3.496630958E0,-2.446661234E0,-1.001934624E1,1.010369420E0
3.499025750E0,-2.420340061E0,-9.976275444E0,1.005583763E0
3.501421375E0,-2.417947292E0,-9.918848038E0,1.039083242E0
3.503816948E0,-2.429911375E0,-9.827920914E0,1.079761267E0
3.506211687E0,-2.461018085E0,-9.748658180E0,1.089332461E0
3.508606479E0,-2.516052961E0,-9.669695854E0,1.115653515E0
3.511002104E0,-2.559422970E0,-9.554840088E0,1.091725349E0
3.513397677E0,-2.635993242E0,-9.485447884E0,1.055832982E0
3.515792468E0,-2.676671267E0,-9.516554832E0,7.396813035E-1
3.518187260E0,-2.655135870E0,-9.279664993E0,1.141974568E0
3.520582885E0,-2.291127682E0,-8.908478737E0,1.240080357E0
3.522978458E0,-1.972882271E0,-8.621041298E0,1.110867858E0
3.525373250E0,-1.896012783E0,-8.357830048E0,1.127617717E0
3.527768041E0,-1.809871197E0,-8.353044510E0,9.696913958E-1
3.530163614E0,-1.776371717E0,-8.680861473E0,7.947162390E-1
3.532559239E0,-2.047059774E0,-8.748159409E0,9.960124493E-1
3.534953979E0,-2.283949137E0,-8.757730484E0,1.252044439E0
3.537348771E0,-2.410768747E0,-8.752944946E0,1.350150228E0
3.539744396E0,-2.449054003E0,-8.824729919E0,1.319043517E0
3.542139968E0,-2.427518606E0,-9.135796547E0,6.176473498E-1
3.544534760E0,-2.427518606E0,-9.142974854E0,9.361918569E-1
3.546929552E0,-2.384447813E0,-9.193224907E0,1.366899967E0
3.549325125E0,-2.343769789E0,-9.272486687E0,1.513161182E0
3.551720750E0,-2.350948334E0,-9.305986404E0,1.419841170E0
3.554115489E0,-2.291127682E0,-9.418449402E0,1.247258782E0
3.556510281E0,-2.255235434E0,-9.521340370E0,1.122832060E0
3.558905906E0,-2.243271112E0,-9.638588905E0,1.019940615E0
3.561301479E0,-2.149951220E0,-9.734301567E0,1.063011408E0
3.563696271E0,-2.035095692E0,-9.861420631E0,1.204187989E0
3.566091062E0,-1.922333837E0,-9.971489906E0,1.287936807E0
3.568486687E0,-1.857727647E0,-1.004566765E1,1.386042476E0
3.570882260E0,-1.879263043E0,-1.009352398E1,1.448554993E0
3.573277000E0,-1.857727647E0,-1.014377308E1,1.455733418E0
3.575671791E0,-1.829013824E0,-1.014377308E1,1.479661703E0
3.578067416E0,-1.812264085E0,-1.012702370E1,1.477268934E0
3.580462989E0,-1.809871197E0,-1.008634567E1,1.402792215E0
3.582857781E0,-1.876870275E0,-9.978668213E0,1.331007600E0
3.585252573E0,-1.917548299E0,-9.921240807E0,1.235294700E0
3.587648198E0,-1.996810555E0,-9.868598938E0,1.165902853E0
3.590043771E0,-2.099701881E0,-9.818050385E0,1.139581800E0
3.592438562E0,-2.219342947E0,-9.707980156E0,1.022333503E0
3.594833354E0,-2.386840582E0,-9.619445801E0,9.098708034E-1
3.597228927E0,-2.568994284E0,-9.509376526E0,8.715856671E-1
3.599624500E0,-2.554637194E0,-9.416056633E0,8.162516356E-1
3.602019291E0,-2.425125837E0,-9.370592117E0,9.050851464E-1
3.604414083E0,-2.327019930E0,-9.313164711E0,9.529415965E-1
3.606809708E0,-2.305484533E0,-9.262915611E0,8.715856671E-1
3.609205281E0,-2.336591244E0,-9.128618240E0,1.082154036E0
3.611600073E0,-2.640778780E0,-9.018548965E0,1.314257860E0
3.613994864E0,-2.628814697E0,-8.999405861E0,1.041476011E0
3.616390437E0,-2.695813894E0,-9.064012527E0,8.186444640E-1
3.618786062E0,-2.772384167E0,-9.123832703E0,8.955138922E-1
3.621180802E0,-2.863311291E0,-9.166903496E0,1.022333503E0
3.623575593E0,-2.836990356E0,-9.289237022E0,1.003190875E0
3.625971218E0,-2.841775894E0,-9.461520195E0,1.065404296E0
3.628366791E0,-2.872882605E0,-9.684052467E0,1.201795220E0
3.630761583E0,-2.839383125E0,-9.854242325E0,1.302293777E0
3.633156375E0,-2.932703257E0,-9.847063065E0,1.390828133E0
3.635552000E0,-2.992523909E0,-9.782157898E0,1.494018674E0
3.637947573E0,-2.927917719E0,-9.806086540E0,1.723729610E0
3.640342364E0,-2.896811008E0,-9.684052467E0,1.537089467E0
3.642737156E0,-2.844168901E0,-9.679266930E0,1.699801445E0
3.645132729E0,-2.774776936E0,-9.617053032E0,1.589731574E0
3.647528302E0,-2.743670225E0,-9.487840652E0,1.467697620E0
3.649923093E0,-2.688635349E0,-9.444769859E0,1.553839207E0
3.652317885E0,-2.609672308E0,-9.363413811E0,1.460519075E0
3.654713510E0,-2.576172590E0,-9.286844254E0,1.304686546E0
3.657109083E0,-2.554637194E0,-9.270093918E0,1.393221021E0
3.659503875E0,-2.458625317E0,-9.241081238E0,1.237687469E0
3.661898666E0,-2.310270309E0,-9.267701149E0,1.228116274E0
3.664294239E0,-2.049452543E0,-9.339486122E0,1.132403374E0
3.666689864E0,-1.654337764E0,-9.449555397E0,1.173081279E0
3.669084604E0,-1.264008522E0,-9.559625626E0,1.316650629E0
3.671479396E0,-9.720842242E-1,-9.645767212E0,1.453340650E0
3.673875021E0,-8.162516356E-1,-9.691230774E0,1.594517231E0
3.676270593E0,-7.827520967E-1,-9.672088623E0,1.623231053E0
3.678665385E0,-8.428717852E-1,-9.595518112E0,1.561017632E0
3.681059322E0,-9.314061999E-1,-9.497411728E0,1.443769336E0
3.683454895E0,-1.070189953E0,-9.411270142E0,1.290329576E0
3.685850520E0,-1.211366415E0,-9.337093353E0,1.096511006E0
3.688245259E0,-1.335793257E0,-9.298808098E0,9.960124493E-1
3.690640051E0,-1.443769336E0,-9.305986404E0,9.888339639E-1
3.693035676E0,-1.484447360E0,-9.337093353E0,1.005583763E0
3.695431249E0,-1.515554070E0,-9.396913528E0,1.077368379E0
3.697826041E0,-1.601695657E0,-9.447162628E0,1.165902853E0
3.700220832E0,-1.616052628E0,-9.511769295E0,1.254437327E0
3.702616457E0,-1.604088426E0,-9.559625626E0,1.273579836E0
3.705012030E0,-1.869691849E0,-9.313164711E0,1.393221021E0
3.707406822E0,-2.042274237E0,-8.736195564E0,1.563410521E0
3.709801613E0,-1.864906192E0,-8.755337715E0,1.438983679E0
3.712197186E0,-1.931905150E0,-9.004191399E0,1.350150228E0
3.714592759E0,-1.994417667E0,-9.277272224E0,1.125224829E0
3.716987551E0,-2.015953064E0,-9.511769295E0,1.015154958E0
3.719382343E0,-2.078166485E0,-9.461520195E0,9.768698215E-1
3.721777968E0,-2.137987137E0,-9.075976372E0,1.307079315E0
3.724173541E0,-2.054238319E0,-9.097511292E0,1.264008522E0
3.726568332E0,-2.006381750E0,-9.174081802E0,1.199402332E0
3.728963124E0,-2.051845312E0,-9.262915611E0,1.189831018E0
3.731358697E0,-2.121237278E0,-9.372985840E0,1.197009563E0
3.733754322E0,-2.126022816E0,-9.468698502E0,1.182652593E0
3.736149061E0,-2.080559254E0,-9.578767776E0,1.067797065E0
3.738543853E0,-2.087737799E0,-9.650552750E0,1.110867858E0
3.740939478E0,-2.042274237E0,-9.698409081E0,1.106082320E0
3.743335051E0,-2.003988981E0,-9.753444672E0,1.108475089E0
3.745729843E0,-1.965703845E0,-9.798908234E0,1.125224829E0
3.748124634E0,-1.946262121E0,-9.854242325E0,1.120439172E0
3.750520259E0,-1.946262121E0,-9.892526627E0,1.084546804E0
3.752915832E0,-1.955833435E0,-9.942776680E0,1.048654556E0
3.755310572E0,-1.982453585E0,-9.947562218E0,1.101296663E0
3.757705363E0,-2.030309916E0,-9.933204651E0,1.115653515E0
3.760100988E0,-2.032702923E0,-9.937990189E0,1.187438250E0
3.762496561E0,-2.051845312E0,-9.928419113E0,1.192223907E0
3.764891353E0,-2.068595171E0,-9.911669731E0,1.220937729E0
3.767286145E0,-2.102094650E0,-9.875777245E0,1.275972724E0
3.769681770E0,-2.094916344E0,-9.863813400E0,1.290329576E0
3.772077343E0,-2.118844509E0,-9.868598938E0,1.287936807E0
3.774472134E0,-2.147558212E0,-9.885348320E0,1.328614831E0
3.776866926E0,-2.135594130E0,-9.918848038E0,1.335793257E0
3.779262499E0,-2.116451740E0,-9.978668213E0,1.326221943E0
3.781658072E0,-2.140379906E0,-1.010788059E1,1.290329576E0
3.784052863E0,-2.188236237E0,-1.022752190E1,1.268794179E0
3.786447655E0,-2.271985054E0,-1.028016472E1,1.297508121E0
3.788843280E0,-2.307877541E0,-1.028255749E1,1.354935765E0
3.791238853E0,-2.327019930E0,-1.021316528E1,1.412662625E0
3.793633645E0,-2.377269268E0,-1.006480980E1,1.482054472E0
3.796028436E0,-2.446661234E0,-9.863813400E0,1.541875124E0
3.798424009E0,-2.492124796E0,-9.710372925E0,1.587338686E0
3.800819634E0,-2.557030201E0,-9.581160545E0,1.549053550E0
3.803214374E0,-2.621636391E0,-9.502198219E0,1.525125384E0
3.805609166E0,-2.671885490E0,-9.418449402E0,1.458126307E0
3.808004791E0,-2.700599432E0,-9.353842735E0,1.419841170E0
3.810400363E0,-2.731706142E0,-9.305986404E0,1.359721422E0
3.812795155E0,-2.746062994E0,-9.248259544E0,1.326221943E0
3.815189947E0,-2.760420084E0,-9.205188751E0,1.299900889E0
3.817585572E0,-2.750848770E0,-9.176474571E0,1.287936807E0
3.819981145E0,-2.738884687E0,-9.142974854E0,1.297508121E0
3.822375884E0,-2.738884687E0,-9.150154114E0,1.280758262E0
3.824770676E0,-2.729313374E0,-9.150154114E0,1.275972724E0
3.827166301E0,-2.707777977E0,-9.186046600E0,1.261615753E0
3.829561874E0,-2.664707184E0,-9.212367058E0,1.261615753E0
3.831956666E0,-2.650350094E0,-9.217152596E0,1.247258782E0
3.834351457E0,-2.655135870E0,-9.245866776E0,1.242473125E0
3.836747082E0,-2.679064035E0,-9.255437851E0,1.242473125E0
3.839142655E0,-2.702992201E0,-9.291629791E0,1.216152072E0
3.841537447E0,-2.726920605E0,-9.329915047E0,1.201795220E0
3.843932238E0,-2.736491680E0,-9.356235504E0,1.192223907E0
3.846327811E0,-2.760420084E0,-9.411270142E0,1.192223907E0
3.848723384E0,-2.786741018E0,-9.430413246E0,1.218544960E0
3.851118176E0,-2.815454960E0,-9.447162628E0,1.232901812E0
3.853512968E0,-2.820240498E0,-9.461520195E0,1.208973646E0
3.855908593E0,-2.856132984E0,-9.483055115E0,1.223330617E0
3.858304166E0,-2.863311291E0,-9.475876808E0,1.216152072E0
3.860698957E0,-2.865704298E0,-9.499805450E0,1.242473125E0
3.863093749E0,-2.892025232E0,-9.475876808E0,1.240080357E0
3.865489322E0,-2.903989315E0,-9.471091270E0,1.268794179E0
3.867884947E0,-2.903989315E0,-9.504590988E0,1.268794179E0
3.870279686E0,-2.906382322E0,-9.499805450E0,1.268794179E0
3.872674478E0,-2.860918522E0,-9.511769295E0,1.283151150E0
3.875070103E0,-2.858525753E0,-9.535696983E0,1.261615753E0
3.877465676E0,-2.853740215E0,-9.554840088E0,1.268794179E0
3.879860468E0,-2.870489836E0,-9.557232857E0,1.290329576E0
3.882255259E0,-2.889632463E0,-9.538089752E0,1.275972724E0
3.884650884E0,-2.932703257E0,-9.523733139E0,1.242473125E0
3.887046457E0,-2.994916677E0,-9.437591553E0,1.237687469E0
3.889441249E0,-3.073879719E0,-9.329915047E0,1.211366415E0
3.891836041E0,-3.081058264E0,-9.233902931E0,1.223330617E0
3.894231613E0,-3.033201694E0,-9.174081802E0,1.237687469E0
3.896627186E0,-2.968595505E0,-9.162117958E0,1.254437327E0
3.899021978E0,-2.920739174E0,-9.085547447E0,1.271187067E0
3.901416770E0,-2.930310488E0,-8.858229637E0,1.357328653E0
3.903812395E0,-3.284747362E0,-8.365009308E0,1.378864050E0
3.906207968E0,-3.181855917E0,-8.443971634E0,1.311864972E0
3.908602759E0,-3.018844843E0,-8.683254242E0,1.266401410E0
3.910997551E0,-2.836990356E0,-8.908478737E0,1.225723386E0
3.913393124E0,-2.372483730E0,-9.052047729E0,1.189831018E0
3.915788749E0,-1.757229090E0,-8.941978455E0,1.249651670E0
3.918183488E0,-1.826620936E0,-8.980263710E0,1.266401410E0
3.920578280E0,-2.102094650E0,-9.071190834E0,1.232901812E0
3.922973905E0,-2.255235434E0,-9.126225471E0,1.223330617E0
3.925369478E0,-2.315055847E0,-9.166903496E0,1.177866936E0
3.927764270E0,-2.353341103E0,-9.186046600E0,1.127617717E0
3.930159061E0,-2.422732830E0,-9.200403214E0,1.079761267E0
3.932554686E0,-2.506481647E0,-9.229117393E0,1.055832982E0
3.934950259E0,-3.339782238E0,-8.278866768E0,1.632802367E0
3.937344999E0,-2.872882605E0,-8.379365921E0,1.628016710E0
3.939739791E0,-2.427518606E0,-8.513363838E0,1.561017632E0
3.942135416E0,-2.219342947E0,-8.611469269E0,1.201795220E0
3.944530988E0,-2.231307030E0,-8.695218086E0,9.553344250E-1
3.946925780E0,-2.343769789E0,-8.719446182E0,9.361918569E-1
3.949320572E0,-2.358126640E0,-8.776873589E0,8.401798606E-1
3.951716197E0,-2.391626120E0,-8.803194046E0,8.668000102E-1
3.954111770E0,-2.458625317E0,-8.793622971E0,1.003190875E0
3.956506561E0,-2.480160713E0,-8.812766075E0,1.091725349E0
3.958901353E0,-2.492124796E0,-8.810373306E0,1.182652593E0
3.961296926E0,-2.492124796E0,-8.817551613E0,1.204187989E0
3.963692551E0,-2.482553482E0,-8.843872070E0,1.208973646E0
3.966087291E0,-2.468196630E0,-8.865407944E0,1.197009563E0
3.968482082E0,-2.449054003E0,-8.891729355E0,1.213759303E0
3.970877707E0,-2.427518606E0,-8.918049812E0,1.187438250E0
3.973273280E0,-2.461018085E0,-8.913264275E0,1.182652593E0
3.975668072E0,-2.499303341E0,-8.913264275E0,1.199402332E0
3.978062863E0,-2.513660192E0,-8.867800713E0,1.218544960E0
3.980458436E0,-2.633600473E0,-8.589934349E0,1.290329576E0
3.982854061E0,-2.671885490E0,-8.410472870E0,1.335793257E0
3.985248801E0,-2.588136673E0,-8.262117386E0,1.388435364E0
3.987643593E0,-2.487339020E0,-8.099106789E0,1.415055513E0
3.990039218E0,-2.386840582E0,-7.943572998E0,1.417448282E0
3.992434791E0,-2.221735716E0,-7.922037601E0,1.472483277E0
3.994829582E0,-2.013560295E0,-8.022536278E0,1.575374603E0
3.997224374E0,-1.862513304E0,-8.164011955E0,1.611266971E0
3.999619999E0,-1.754836321E0,-8.348258972E0,1.525125384E0
4.002015572E0,-1.771586061E0,-8.489435196E0,1.482054472E0
4.004410363E0,-1.848156333E0,-8.522934914E0,1.292722464E0
4.006805155E0,-1.915155411E0,-8.597112656E0,1.098903775E0
4.009200728E0,-1.946262121E0,-8.712266922E0,1.077368379E0
4.011596301E0,-1.963011861E0,-8.800801277E0,8.955138922E-1
4.013991093E0,-1.955833435E0,-8.910871506E0,7.803592682E-1
4.016385884E0,-1.934298038E0,-8.973084450E0,5.961119533E-1
4.018781509E0,-1.975275040E0,-9.011369705E0,7.660023570E-1
4.021177082E0,-1.987239242E0,-8.965906143E0,9.577272534E-1
4.023571874E0,-1.994417667E0,-8.889336586E0,1.094118118E0
4.025966666E0,-2.027917147E0,-8.745766640E0,1.149153113E0
4.028362238E0,-2.030309916E0,-8.649754524E0,1.225723386E0
4.030757863E0,-1.994417667E0,-8.530113220E0,1.197009563E0
4.033152603E0,-1.948654890E0,-8.441578865E0,1.218544960E0
4.035547395E0,-1.927119493E0,-8.400900841E0,1.211366415E0
4.037943020E0,-1.946262121E0,-8.453543663E0,1.094118118E0
4.040338593E0,-2.015953064E0,-8.381758690E0,1.225723386E0
4.042733384E0,-2.092523336E0,-8.283653259E0,1.259222865E0
4.045128176E0,-2.109273195E0,-8.127820015E0,1.170688510E0
4.047523749E0,-2.094916344E0,-8.048856735E0,1.127617717E0
4.049919374E0,-2.054238319E0,-8.010572433E0,1.139581800E0
4.052314166E0,-1.972882271E0,-8.032107353E0,1.048654556E0
4.054708957E0,-1.867298961E0,-8.168797493E0,1.132403374E0
4.057104530E0,-1.764407635E0,-8.343473434E0,1.058225870E0
4.059500103E0,-1.714158297E0,-8.558827400E0,9.792626500E-1
4.061894895E0,-1.637588024E0,-8.863015175E0,9.409775138E-1
4.064289686E0,-1.599302888E0,-9.166903496E0,1.005583763E0
4.066685311E0,-1.565803289E0,-9.351449966E0,9.864411354E-1
4.069080884E0,-1.534696579E0,-9.416056633E0,1.015154958E0
4.071475676E0,-1.520339727E0,-9.284450531E0,9.457631707E-1
4.073870468E0,-1.546660781E0,-8.968298912E0,8.377870321E-1
4.076266041E0,-1.587338686E0,-8.467900276E0,8.644071817E-1
4.078661613E0,-1.754836321E0,-7.780860901E0,7.444669604E-1
4.081056405E0,-1.869691849E0,-7.156035423E0,5.243272781E-1
4.083451197E0,-1.850549221E0,-7.196712971E0,1.000798106E0
4.085846822E0,-1.771586061E0,-7.874181271E0,1.910369754E0
4.088242395E0,-1.912762642E0,-7.850253105E0,1.635195136E0
4.090637186E0,-2.080559254E0,-7.483851910E0,1.015154958E0
4.093031978E0,-2.092523336E0,-7.795217991E0,1.350150228E0
4.095427603E0,-2.047059774E0,-8.144868851E0,1.489233017E0
4.097823176E0,-2.039881229E0,-8.115856171E0,1.103689432E0
4.100217968E0,-2.011167526E0,-8.228617668E0,8.907282352E-1
4.102612759E0,-1.953440547E0,-8.520542145E0,9.744769931E-1
4.105008332E0,-1.915155411E0,-8.815158844E0,9.050851464E-1
4.107403905E0,-2.008774519E0,-9.171689034E0,8.401798606E-1
4.109798697E0,-2.190629244E0,-9.583553314E0,8.955138922E-1
4.112193488E0,-2.238485575E0,-9.712766647E0,8.907282352E-1
4.114589113E0,-2.348555326E0,-9.779765129E0,9.984052777E-1
4.116984686E0,-2.511267424E0,-9.794121742E0,1.314257860E0
4.119379478E0,-2.578565598E0,-9.518947601E0,1.170688510E0
4.121774270E0,-2.494517565E0,-9.859027863E0,1.144367456E0
4.124169843E0,-2.276770830E0,-1.016530895E1,1.661516190E0
4.126565468E0,-2.329412937E0,-9.949954987E0,1.058225870E0
4.128960207E0,-2.207378864E0,-1.022752190E1,1.074975610E0
4.131354999E0,-2.291127682E0,-1.005523872E1,9.888339639E-1
4.133750624E0,-2.391626120E0,-9.636196136E0,5.410770178E-1
4.136146197E0,-2.573779821E0,-9.248259544E0,5.769693851E-1
4.138540988E0,-2.736491680E0,-8.973084450E0,4.980062246E-1
4.140935780E0,-2.559422970E0,-9.538089752E0,1.829013824E0
4.143331353E0,-2.379662037E0,-9.710372925E0,1.946262121E0
4.145726978E0,-2.250449657E0,-9.631410599E0,1.541875124E0
4.148121718E0,-2.087737799E0,-9.518947601E0,1.328614831E0
4.150516509E0,-1.963011861E0,-9.382556915E0,1.120439172E0
4.152912134E0,-1.893620014E0,-9.159725189E0,1.003190875E0
4.155307707E0,-1.876870275E0,-8.922835350E0,9.242277741E-1
4.157702499E0,-1.817049742E0,-8.748159409E0,9.696913958E-1
4.160097291E0,-1.745265007E0,-8.740981102E0,1.122832060E0
4.162492916E0,-1.702194214E0,-8.719446182E0,1.158724308E0
4.164888488E0,-1.680658817E0,-8.767302513E0,1.144367456E0
4.167283280E0,-1.742872238E0,-8.729017258E0,9.984052777E-1
4.169678072E0,-1.742872238E0,-8.700303078E0,8.042874932E-1
4.172073645E0,-1.721336842E0,-8.664112091E0,6.535396576E-1
4.174469218E0,-1.745265007E0,-8.683254242E0,6.415755749E-1
4.176864009E0,-1.750050664E0,-8.743373871E0,6.511468887E-1
4.179258801E0,-1.802692771E0,-8.748159409E0,6.367899179E-1
4.181654426E0,-1.936690807E0,-8.791230202E0,6.248258352E-1
4.184049999E0,-1.943869352E0,-8.973084450E0,6.750751138E-1
4.186444791E0,-1.740479350E0,-9.023334503E0,6.463612318E-1
4.188839582E0,-1.584945917E0,-9.006584167E0,6.200401783E-1
4.191235155E0,-1.458126307E0,-8.989834785E0,5.985047817E-1
4.193630780E0,-1.244866014E0,-9.078369141E0,7.923234105E-1
4.196025520E0,-9.457631707E-1,-9.166903496E0,8.691928387E-1
4.198420311E0,-6.750751138E-1,-9.442377090E0,1.134796143E0
4.200815936E0,-4.334000051E-1,-9.693623543E0,1.156331539E0
4.203211509E0,-1.339980662E-1,-1.005523872E1,1.189831018E0
4.205606301E0,-3.828516230E-2,-1.019641590E1,9.960124493E-1
4.208001093E0,-3.110669367E-2,-1.014855862E1,8.907282352E-1
4.210396718E0,-4.785645381E-2,-1.006480980E1,6.774678826E-1
4.212792291E0,-1.435693651E-1,-1.002173901E1,8.500502706E-1
4.215187082E0,-2.970091105E-1,-9.952347755E0,8.282157183E-1
4.217581874E0,-5.099703074E-1,-9.902098656E0,9.337990284E-1
4.219977447E0,-8.377870321E-1,-9.995418549E0,1.173081279E0
4.222373020E0,-1.204187989E0,-1.019880867E1,2.042274237E0
4.224767811E0,-1.470090389E0,-1.022034359E1,2.137987137E0
4.227162603E0,-1.687837243E0,-1.013420200E1,1.922333837E0
4.229558228E0,-1.795514345E0,-1.006720352E1,1.711765528E0
4.231953801E0,-1.826620936E0,-1.001456070E1,1.565803289E0
4.234348593E0,-1.874477386E0,-1.000259686E1,1.450947881E0
4.236743384E0,-1.922333837E0,-1.006241703E1,1.381256819E0
4.239138957E0,-1.929512382E0,-1.017727280E1,1.347757339E0
4.241534582E0,-1.919941068E0,-1.019402313E1,1.362114310E0
4.243929322E0,-1.826620936E0,-1.012223816E1,1.328614831E0
4.246324113E0,-1.750050664E0,-1.005045319E1,1.436590910E0
4.248719738E0,-1.716551185E0,-9.971489906E0,1.525125384E0
4.251115311E0,-1.606481314E0,-9.849455833E0,1.608874083E0
4.253510103E0,-1.522732496E0,-9.614660263E0,1.520339727E0
4.255904895E0,-1.436590910E0,-9.372985840E0,1.206580877E0
4.258300520E0,-1.285543919E0,-9.001798630E0,7.420741320E-1
4.260696093E0,-1.146760225E0,-8.592327118E0,2.512463629E-1
4.263090884E0,-9.649057388E-1,-8.226224899E0,-3.400799036E-1
4.265485676E0,-8.162516356E-1,-8.039285660E0,-5.171487927E-1
4.267881249E0,-7.061817646E-1,-7.886145115E0,-5.362913609E-1
4.270276822E0,-6.894320250E-1,-7.737790108E0,-2.874378264E-1
4.272671613E0,-7.157530785E-1,-7.675576687E0,1.914258152E-1
4.275066405E0,-8.258228898E-1,-7.514958382E0,6.248258352E-1
4.277462030E0,-9.361918569E-1,-7.361817837E0,9.194421172E-1
4.279857603E0,-9.816554785E-1,-7.153642178E0,1.204187989E0
4.282252395E0,-1.137188911E0,-7.000202656E0,1.422233939E0
4.284647186E0,-1.242473125E0,-6.914061069E0,1.630409479E0
4.287042759E0,-1.304686546E0,-6.863811970E0,1.742872238E0
4.289438384E0,-1.307079315E0,-6.854240417E0,1.884048700E0
4.291833176E0,-1.228116274E0,-6.854240417E0,1.797907114E0
4.294227968E0,-1.156331539E0,-6.918846607E0,1.776371717E0
4.296623541E0,-8.835497499E-1,-6.918846607E0,1.594517231E0
4.299019113E0,-5.841478109E-1,-7.002595425E0,1.434198022E0
4.301413905E0,-3.855435550E-1,-7.108178616E0,1.170688510E0
4.303808697E0,-2.584248483E-1,-7.323532581E0,9.792626500E-1
4.306204322E0,-1.100698411E-1,-7.464709282E0,6.152545214E-1
4.308599895E0,1.196411345E-2,-7.637291908E0,4.932205677E-1
4.310994686E0,6.939185411E-2,-7.754539967E0,5.602195859E-1
4.313389478E0,3.349951655E-2,-7.852645874E0,6.607181430E-1
4.315785051E0,-1.483550072E-1,-7.627720356E0,3.687937856E-1
4.318180676E0,-1.986042857E-1,-7.213462830E0,3.041875660E-1
4.320575416E0,-1.603191197E-1,-6.847062111E0,3.400799036E-1
4.322970207E0,-1.052841991E-1,-6.492924213E0,7.301099896E-1
4.325365832E0,-5.742774159E-2,-6.174379826E0,1.204187989E0
4.327761405E0,-1.316052526E-1,-5.877370834E0,1.639980793E0
4.330156197E0,-2.344966233E-1,-5.712265968E0,1.905584097E0
4.332550988E0,-2.033899277E-1,-5.717051506E0,1.989632010E0
4.334946561E0,-1.938186288E-1,-5.815157413E0,1.692622900E0
4.337342186E0,-1.531406492E-1,-5.978168488E0,1.347757339E0
4.339736926E0,-1.746760458E-1,-6.169594288E0,1.077368379E0
4.342131718E0,-1.459621787E-1,-6.274878502E0,7.923234105E-1
4.344527343E0,-2.871387079E-2,-6.339484692E0,6.248258352E-1
4.346922916E0,-8.614161611E-2,-6.442375660E0,4.956133962E-1
4.349317707E0,-2.608176768E-1,-6.648457527E0,5.267201066E-1
4.351712499E0,-5.961119533E-1,-6.906882763E0,6.176473498E-1
4.354108124E0,-8.210372925E-1,-7.223034382E0,1.010369420E0
4.356503697E0,-6.224330068E-1,-7.352246761E0,1.709372640E0
4.358898488E0,-5.554339290E-1,-7.156035423E0,1.594517231E0
4.361293280E0,-4.980062246E-1,-6.866204739E0,2.994019389E-1
4.363688853E0,-2.584248483E-1,-7.074679375E0,2.560320199E-1
4.366084426E0,-2.679961324E-1,-7.491030216E0,7.157530785E-1
4.368479218E0,-3.520440459E-1,-7.697112083E0,5.554339290E-1
4.370874009E0,-2.416750938E-1,-7.811967850E0,1.028913707E-1
4.373269634E0,-3.589234129E-2,-7.945965767E0,-2.392822690E-2
4.375665207E0,1.603191197E-1,-8.051250458E0,-5.264209956E-2
4.378059999E0,3.113660514E-1,-8.257331848E0,-2.799602449E-1
4.380454791E0,5.291129351E-1,-8.582756042E0,-5.075774789E-1
4.382850363E0,5.937191248E-1,-9.205188751E0,-6.032904387E-1
4.385245988E0,1.046261668E0,-1.119242764E1,-7.157530785E-1
4.387640728E0,2.013560295E0,-1.472842121E1,-5.362913609E-1
4.390035520E0,2.994916677E0,-1.921974945E1,5.099703074E-1
4.392431145E0,4.376472473E0,-2.411576462E1,1.472483277E0
4.394826718E0,5.681159019E0,-2.819762039E1,1.931905150E0
4.397221509E0,6.574280262E0,-3.079054260E1,2.248056889E0
4.399616301E0,6.677171707E0,-3.127179909E1,2.453839540E0
4.402011926E0,5.781657696E0,-2.970121002E1,2.475374937E0
4.404407499E0,3.957429647E0,-2.667997169E1,2.619243383E0
4.406802291E0,1.517946839E0,-2.303600311E1,2.743670225E0
4.409197082E0,-9.936196208E-1,-1.970339966E1,2.640778780E0
4.411592655E0,-3.210569859E0,-1.705065536E1,2.224128723E0
4.413988228E0,-4.922335148E0,-1.495843124E1,1.606481314E0
4.416383020E0,-5.968596935E0,-1.325623703E1,9.960124493E-1
4.418777811E0,-6.605386734E0,-1.197039413E1,4.238287210E-1
4.421173436E0,-6.729813576E0,-1.127378368E1,-6.699903309E-2
4.423569009E0,-6.727420807E0,-1.124507046E1,-6.008976102E-1
4.425963801E0,-6.631708145E0,-1.164736366E1,-1.000798106E0
4.428358593E0,-6.497709751E0,-1.219801140E1,-1.158724308E0
4.430754166E0,-6.179165363E0,-1.286112213E1,-1.091725349E0
4.433149791E0,-5.788836002E0,-1.344287777E1,-8.401798606E-1
4.435544530E0,-5.180759907E0,-1.398873997E1,-3.831507266E-1
4.437939322E0,-4.613361835E0,-1.452503204E1,2.153540403E-1
4.440334947E0,-4.036392689E0,-1.494407463E1,7.683951855E-1
4.442730520E0,-3.509672642E0,-1.513071442E1,1.259222865E0
4.445125311E0,-2.987738132E0,-1.520010662E1,1.855334878E0
4.447520103E0,-2.425125837E0,-1.516660690E1,2.169093609E0
4.449915728E0,-1.817049742E0,-1.505414486E1,2.520838737E0
4.452311301E0,-1.398006678E0,-1.490578938E1,2.939881802E0
4.454706093E0,-9.720842242E-1,-1.475952816E1,3.251247883E0
4.457100884E0,-4.022932947E-1,-1.452024555E1,3.205784082E0
4.459496457E0,6.460621208E-2,-1.426152229E1,3.141177893E0
4.461892030E0,4.860421121E-1,-1.394566917E1,3.045166016E0
4.464286822E0,1.015154958E0,-1.348355579E1,2.877668381E0
4.466681613E0,1.450947881E0,-1.329452229E1,2.640778780E0
4.469077238E0,1.695015788E0,-1.330648708E1,2.396411896E0
4.471472811E0,1.994417667E0,-1.322034550E1,2.291127682E0
4.473867603E0,2.427518606E0,-1.301904869E1,2.181057930E0
4.476262395E0,2.798705101E0,-1.285155106E1,1.999203324E0
4.478657968E0,3.098107100E0,-1.275105286E1,1.848156333E0
4.481053593E0,3.323032379E0,-1.263619709E1,1.630409479E0
4.483448332E0,3.490530014E0,-1.253300667E1,1.443769336E0
4.485843124E0,3.641277790E0,-1.241097260E1,1.244866014E0
4.488238749E0,3.722932816E0,-1.225304699E1,1.022333503E0
4.490634322E0,3.768396616E0,-1.219561863E1,8.931210637E-1
4.493029113E0,3.715754509E0,-1.221954727E1,7.420741320E-1
4.495423905E0,3.636492252E0,-1.235833073E1,5.673980713E-1
4.497819530E0,3.500101328E0,-1.255693531E1,4.334000051E-1
4.500215103E0,3.291925669E0,-1.273190975E1,4.046861231E-1
4.502609895E0,3.045166016E0,-1.276780224E1,3.807578981E-1
4.505004686E0,2.750848770E0,-1.268166065E1,3.664009571E-1
4.507400259E0,2.547458887E0,-1.243729401E1,3.041875660E-1
4.509795832E0,2.334198475E0,-1.205414295E1,2.946162820E-1
4.512190624E0,2.169093609E0,-1.154207897E1,3.329014480E-1
4.514585416E0,2.128415823E0,-1.098664474E1,3.424727321E-1
4.516981041E0,2.377269268E0,-9.906884193E0,9.026923180E-1
4.519376613E0,2.528316259E0,-8.544470787E0,1.592124343E0
4.521771405E0,2.461018085E0,-7.153642178E0,1.596910000E0
4.524166197E0,2.295913219E0,-5.815157413E0,1.063011408E0
4.526561770E0,2.097309113E0,-4.666004181E0,4.668995142E-1
4.528957395E0,1.869691849E0,-3.727718592E0,-1.914258115E-2
4.531352186E0,1.594517231E0,-3.090928555E0,-3.879363835E-1
4.533746978E0,1.314257860E0,-2.683849812E0,-6.080760360E-1
4.536142551E0,1.072582722E0,-2.439482689E0,-7.707880139E-1
4.538538124E0,8.715856671E-1,-2.508874655E0,-7.731808424E-1
4.540932916E0,8.258228898E-1,-3.191427231E0,-5.530411601E-1
4.543327707E0,1.055832982E0,-4.175176620E0,-2.898306549E-1
4.545723332E0,1.378864050E0,-5.204688549E0,-1.339980662E-1
4.548118905E0,1.572981834E0,-6.160022736E0,-4.546362907E-2
4.550513697E0,1.568196177E0,-7.036394119E0,9.571290761E-2
4.552908488E0,1.362114310E0,-7.776075363E0,1.866401732E-1
4.555304061E0,1.141974568E0,-8.388936996E0,2.608176768E-1
4.557699686E0,8.883354068E-1,-8.913264275E0,3.592225015E-1
4.560094426E0,6.631109715E-1,-9.351449966E0,4.286143482E-1
4.562489218E0,3.520440459E-1,-9.703194618E0,4.190430641E-1
4.564884843E0,1.387837082E-1,-1.006720352E1,3.544368446E-1
4.567280416E0,-3.828516230E-2,-1.038066292E1,2.826521695E-1
4.569675207E0,-1.746760458E-1,-1.064417267E1,2.608176768E-1
4.572069999E0,-3.855435550E-1,-1.084277630E1,2.536391914E-1
4.574465572E0,-5.123631358E-1,-1.102253723E1,3.113660514E-1
4.576861197E0,-5.506483316E-1,-1.119721317E1,4.190430641E-1
4.579255988E0,-5.434698462E-1,-1.135035419E1,5.027918816E-1
4.581650780E0,-5.386841893E-1,-1.143410301E1,6.056832075E-1
4.584046353E0,-5.362913609E-1,-1.145324516E1,7.205387354E-1
4.586441926E0,-5.123631358E-1,-1.141735363E1,7.827520967E-1
4.588836718E0,-5.051847100E-1,-1.134317589E1,7.875377536E-1
4.591231509E0,-4.597210586E-1,-1.122832012E1,7.731808424E-1
4.593627134E0,-4.070789516E-1,-1.106321526E1,6.942176819E-1
4.596022707E0,-3.472583890E-1,-1.090499020E1,6.104688644E-1
4.598417499E0,-2.799602449E-1,-1.075424194E1,5.123631358E-1
4.600812291E0,-1.770688742E-1,-1.057956600E1,4.381856322E-1
4.603207863E0,-9.332008660E-2,-1.041206837E1,3.927220106E-1
4.605603488E0,3.349951655E-2,-1.026819992E1,3.352942765E-1
4.607998228E0,1.555334777E-1,-1.015095139E1,2.922234535E-1
4.610393020E0,2.970091105E-1,-9.995418549E0,2.970091105E-1
4.612788645E0,4.046861231E-1,-9.854242325E0,3.185445070E-1
4.615184218E0,5.458626747E-1,-9.755837440E0,3.424727321E-1
4.617579009E0,6.870391965E-1,-9.638588905E0,3.759722710E-1
4.619973801E0,8.162516356E-1,-9.533304214E0,4.070789516E-1
4.622369426E0,9.098708034E-1,-9.430413246E0,4.525425732E-1
4.624764999E0,1.010369420E0,-9.365806580E0,4.788636267E-1
4.627159791E0,1.096511006E0,-9.291629791E0,5.267201066E-1
4.629554582E0,1.180259824E0,-9.250652313E0,5.482555032E-1
4.631950155E0,1.232901812E0,-9.250652313E0,5.937191248E-1
4.634345728E0,1.307079315E0,-9.248259544E0,6.607181430E-1
4.636740520E0,1.354935765E0,-9.262915611E0,6.894320250E-1
4.639135311E0,1.429412484E0,-9.286844254E0,7.013961077E-1
4.641530936E0,1.494018674E0,-9.305986404E0,7.277171612E-1
4.643926509E0,1.539482236E0,-9.356235504E0,7.492526174E-1
4.646321301E0,1.594517231E0,-9.411270142E0,7.636095285E-1
4.648716093E0,1.589731574E0,-9.456734657E0,7.683951855E-1
4.651111666E0,1.616052628E0,-9.509376526E0,7.636095285E-1
4.653507291E0,1.642373681E0,-9.552447319E0,7.420741320E-1
4.655902030E0,1.642373681E0,-9.605089188E0,7.468597889E-1
4.658296822E0,1.651944876E0,-9.655338287E0,7.348956466E-1
4.660692447E0,1.649552107E0,-9.686445236E0,7.325028181E-1
4.663088020E0,1.661516190E0,-9.724730492E0,7.564310431E-1
4.665482811E0,1.635195136E0,-9.755837440E0,7.492526174E-1
4.667877603E0,1.616052628E0,-9.789336205E0,7.516453862E-1
4.670273228E0,1.606481314E0,-9.815657616E0,7.540382147E-1
4.672668801E0,1.556231976E0,-9.844670296E0,7.731808424E-1
4.675063593E0,1.549053550E0,-9.863813400E0,7.588238716E-1
4.677458384E0,1.525125384E0,-9.868598938E0,7.301099896E-1
4.679853957E0,1.484447360E0,-9.902098656E0,7.229315639E-1
4.682249582E0,1.458126307E0,-9.916455269E0,7.348956466E-1
4.684644322E0,1.441376567E0,-9.926026344E0,7.277171612E-1
4.687039113E0,1.415055513E0,-9.923633575E0,7.109674215E-1
4.689434738E0,1.393221021E0,-9.899705887E0,7.085745931E-1
4.691830311E0,1.383649707E0,-9.890133858E0,6.846463680E-1
4.694225103E0,1.378864050E0,-9.899705887E0,6.439684033E-1
4.696619895E0,1.371685624E0,-9.899705887E0,6.463612318E-1
4.699015520E0,1.388435364E0,-9.892526627E0,6.224330068E-1
4.701411093E0,1.371685624E0,-9.880562782E0,5.697908998E-1
4.703805832E0,1.395613790E0,-9.878170013E0,5.434698462E-1
4.706200624E0,1.407876968E0,-9.861420631E0,5.243272781E-1
4.708596249E0,1.422233939E0,-9.859027863E0,4.908277392E-1
4.710991822E0,1.434198022E0,-9.825528145E0,4.692923427E-1
4.713386613E0,1.450947881E0,-9.815657616E0,4.525425732E-1
4.715781405E0,1.489233017E0,-9.791728973E0,4.310071766E-1
4.718177030E0,1.508375525E0,-9.765408516E0,4.262215197E-1
4.720572603E0,1.551446438E0,-9.760622978E0,4.286143482E-1
4.722967395E0,1.580160260E0,-9.741479874E0,4.262215197E-1
4.725362186E0,1.632802367E0,-9.731908798E0,4.597210586E-1
4.727757759E0,1.671087503E0,-9.703194618E0,4.836492836E-1
4.730153384E0,1.714158297E0,-9.712766647E0,5.123631358E-1
4.732548124E0,1.778764486E0,-9.724730492E0,5.745765567E-1
4.734942916E0,1.800299883E0,-9.734301567E0,5.985047817E-1
4.737338541E0,1.836192250E0,-9.739087105E0,6.104688644E-1
4.739734113E0,1.855334878E0,-9.741479874E0,6.655037999E-1
4.742128905E0,1.864906192E0,-9.786943436E0,6.966105103E-1
4.744523697E0,1.855334878E0,-9.784550667E0,7.205387354E-1
4.746919322E0,1.862513304E0,-9.794121742E0,7.277171612E-1
4.749314895E0,1.817049742E0,-9.820742607E0,7.468597889E-1
4.751709686E0,1.788335800E0,-9.823135376E0,7.420741320E-1
4.754104478E0,1.762014747E0,-9.827920914E0,7.564310431E-1
4.756500051E0,1.740479350E0,-9.839884758E0,7.731808424E-1
4.758895624E0,1.695015788E0,-9.849455833E0,7.851449251E-1
4.761290416E0,1.659123421E0,-9.861420631E0,8.090731502E-1
4.763685207E0,1.630409479E0,-9.851848602E0,8.090731502E-1
4.766080832E0,1.594517231E0,-9.849455833E0,8.090731502E-1
4.768476405E0,1.529910922E0,-9.827920914E0,8.114659786E-1
4.770871197E0,1.505982757E0,-9.835099220E0,8.186444640E-1
4.773265988E0,1.474876046E0,-9.837491989E0,7.875377536E-1
4.775661561E0,1.417448282E0,-9.813264847E0,7.755736113E-1
4.778057186E0,1.352542996E0,-9.837491989E0,8.042874932E-1
4.780451926E0,1.290329576E0,-9.818050385E0,8.090731502E-1
4.782846718E0,1.237687469E0,-9.791728973E0,7.947162390E-1
4.785242343E0,1.199402332E0,-9.794121742E0,7.707880139E-1
4.787637916E0,1.141974568E0,-9.789336205E0,7.468597889E-1
4.790032707E0,1.089332461E0,-9.772586823E0,7.492526174E-1
4.792427499E0,1.053440213E0,-9.748658180E0,7.301099896E-1
4.794823124E0,9.816554785E-1,-9.746265411E0,7.205387354E-1
4.797218697E0,9.553344250E-1,-9.751050949E0,7.181459069E-1
4.799613488E0,9.361918569E-1,-9.753444672E0,7.013961077E-1
4.802008280E0,9.146564603E-1,-9.739087105E0,7.061817646E-1
4.804403853E0,8.979067206E-1,-9.729516029E0,7.109674215E-1
4.806799478E0,8.691928387E-1,-9.717552185E0,6.942176819E-1
4.809194218E0,8.377870321E-1,-9.707980156E0,6.966105103E-1
4.811589009E0,8.162516356E-1,-9.705587387E0,7.061817646E-1
4.813984634E0,8.018946648E-1,-9.693623543E0,7.157530785E-1
4.816380207E0,7.923234105E-1,-9.705587387E0,7.516453862E-1
4.818774999E0,7.803592682E-1,-9.696016312E0,7.492526174E-1
4.821169791E0,7.707880139E-1,-9.700801849E0,7.731808424E-1
4.823565416E0,7.660023570E-1,-9.681659698E0,8.066803217E-1
4.825960988E0,7.540382147E-1,-9.703194618E0,8.377870321E-1
4.828355780E0,7.612167001E-1,-9.722337723E0,8.596215248E-1
4.830750572E0,7.492526174E-1,-9.746265411E0,8.955138922E-1
4.833146145E0,7.253243923E-1,-9.770194054E0,9.505487680E-1
4.835541718E0,7.061817646E-1,-9.796515465E0,9.577272534E-1
4.837936509E0,6.678966284E-1,-9.813264847E0,9.768698215E-1
4.840331301E0,6.583253145E-1,-9.825528145E0,9.840483069E-1
4.842726926E0,6.487540603E-1,-9.823135376E0,1.007976532E0
4.845122499E0,6.511468887E-1,-9.837491989E0,1.015154958E0
4.847517291E0,6.367899179E-1,-9.837491989E0,1.029511929E0
4.849912082E0,6.463612318E-1,-9.839884758E0,1.060618639E0
4.852307655E0,6.367899179E-1,-9.861420631E0,1.082154036E0
4.854703280E0,6.224330068E-1,-9.890133858E0,1.086939692E0
4.857098020E0,6.487540603E-1,-9.911669731E0,1.091725349E0
4.859492811E0,6.487540603E-1,-9.930811882E0,1.103689432E0
4.861888436E0,6.463612318E-1,-9.954740524E0,1.103689432E0
4.864284009E0,6.391827464E-1,-9.971489906E0,1.108475089E0
4.866678801E0,6.320042610E-1,-9.971489906E0,1.108475089E0
4.869073593E0,6.008976102E-1,-9.978668213E0,1.110867858E0
4.871469218E0,5.937191248E-1,-9.954740524E0,1.089332461E0
4.873864791E0,6.152545214E-1,-9.964311600E0,1.086939692E0
4.876259582E0,6.391827464E-1,-9.957133293E0,1.082154036E0
4.878654374E0,6.535396576E-1,-9.964311600E0,1.060618639E0
4.881049947E0,6.583253145E-1,-9.969097137E0,1.063011408E0
4.883445572E0,6.798607111E-1,-9.933204651E0,1.048654556E0
4.885840311E0,7.133602500E-1,-9.926026344E0,1.058225870E0
4.888235103E0,7.301099896E-1,-9.870991707E0,1.051047325E0
4.890630728E0,7.612167001E-1,-9.866206169E0,1.051047325E0
4.893026301E0,7.899305820E-1,-9.832706451E0,9.936196208E-1
4.895421093E0,8.210372925E-1,-9.806086540E0,9.768698215E-1
4.897815884E0,8.548358679E-1,-9.806086540E0,9.577272534E-1
4.900211509E0,8.811569214E-1,-9.789336205E0,9.409775138E-1
4.902607082E0,9.146564603E-1,-9.779765129E0,9.050851464E-1
