"Time (s)","Gyroscope x (rad/s)","Gyroscope y (rad/s)","Gyroscope z (rad/s)"
2.292235300E-2,-1.025612593E0,-1.091889501E0,-2.606790662E-1
2.543141500E-2,-1.025612593E0,-1.091889501E0,-2.606790662E-1
2.794089400E-2,-1.025612593E0,-1.091889501E0,-2.606790662E-1
3.045073800E-2,-1.025612593E0,-1.091889501E0,-2.606790662E-1
3.296058200E-2,-1.025612593E0,-1.091889501E0,-2.606790662E-1
3.547026900E-2,-1.025612593E0,-1.091889501E0,-2.606790662E-1
3.797516500E-2,-1.025612593E0,-1.091889501E0,-2.606790662E-1
4.043667500E-2,-1.025612593E0,-1.091889501E0,-2.606790662E-1
4.289735300E-2,-1.025612593E0,-1.091889501E0,-2.606790662E-1
4.535724800E-2,-1.025612593E0,-1.091889501E0,-2.606790662E-1
4.781797800E-2,-1.025612593E0,-1.091889501E0,-2.606790662E-1
5.027943600E-2,-1.025612593E0,-1.091889501E0,-2.606790662E-1
5.274016500E-2,-1.025612593E0,-1.091889501E0,-2.606790662E-1
5.520006100E-2,-1.025612593E0,-1.091889501E0,-2.606790662E-1
5.766073800E-2,-1.025612593E0,-1.091889501E0,-2.606790662E-1
6.012224800E-2,-1.025612593E0,-1.091889501E0,-2.606790662E-1
6.258292500E-2,-1.025612593E0,-1.091889501E0,-2.606790662E-1
6.504282100E-2,-1.025612593E0,-1.091889501E0,-2.606790662E-1
6.750355000E-2,-1.025612593E0,-1.091889501E0,-2.606790662E-1
6.996500900E-2,-1.025612593E0,-1.091889501E0,-2.606790662E-1
7.242573800E-2,-1.025612593E0,-1.091889501E0,-2.606790662E-1
7.488563400E-2,-1.025612593E0,-1.091889501E0,-2.606790662E-1
7.734631100E-2,-1.025612593E0,-1.091889501E0,-2.606790662E-1
7.980782100E-2,-1.025612593E0,-1.091889501E0,-2.606790662E-1
8.226849800E-2,-1.025612593E0,-1.091889501E0,-2.606790662E-1
8.472839400E-2,-1.025612593E0,-1.091889501E0,-2.606790662E-1
8.718912300E-2,-1.025612593E0,-1.091889501E0,-2.606790662E-1
8.965058200E-2,-1.025612593E0,-1.091889501E0,-2.606790662E-1
9.211131100E-2,-1.025612593E0,-1.091889501E0,-2.606790662E-1
9.457120700E-2,-1.415333152E0,-1.182294846E0,8.506047726E-2
9.703188400E-2,-1.349361539E0,-1.225054145E0,7.895200700E-2
9.949339400E-2,-1.290720224E0,-1.286138892E0,7.406523079E-2
1.019540710E-1,-1.227192163E0,-1.341115117E0,6.795676053E-2
1.044139670E-1,-1.161220670E0,-1.378987670E0,5.818320066E-2
1.068746960E-1,-1.101357579E0,-1.403421521E0,4.596625641E-2
1.093361550E-1,-1.043937922E0,-1.414416790E0,2.886253223E-2
1.117968840E-1,-9.950701594E-1,-1.418081880E0,4.428642802E-3
1.142567800E-1,-9.301676750E-1,-1.419303656E0,-2.367033064E-2
1.167174570E-1,-8.751913905E-1,-1.422968745E0,-5.909947306E-2
1.191789670E-1,-8.165500760E-1,-1.433963895E0,-1.006370857E-1
1.216396440E-1,-7.640172243E-1,-1.449845910E0,-1.470614821E-1
1.240995400E-1,-7.151494026E-1,-1.470614791E0,-1.971509457E-1
1.265602170E-1,-6.662816405E-1,-1.496270418E0,-2.484621257E-1
1.290217280E-1,-6.198572516E-1,-1.525591016E0,-3.022166789E-1
1.314824570E-1,-5.832064152E-1,-1.556133389E0,-3.620797098E-1
1.339423530E-1,-5.477772951E-1,-1.596449256E0,-4.256078303E-1
1.364030300E-1,-5.221216679E-1,-1.640430331E0,-4.940227270E-1
1.388645400E-1,-5.037962794E-1,-1.688076377E0,-5.624375939E-1
1.413252170E-1,-4.964661002E-1,-1.738165855E0,-6.332958937E-1
1.437851130E-1,-4.964661002E-1,-1.794363856E0,-7.043069005E-1
1.462457900E-1,-5.086830258E-1,-1.856670260E0,-7.739434838E-1
1.487073000E-1,-5.270084739E-1,-1.921420097E0,-8.399149776E-1
1.511680300E-1,-5.563291311E-1,-1.986169815E0,-9.022213817E-1
1.536279250E-1,-5.832064152E-1,-2.055806398E0,-9.559759498E-1
1.560886030E-1,-6.125270724E-1,-2.120556355E0,-9.987352490E-1
1.585501130E-1,-6.418477297E-1,-2.175532579E0,-1.032942772E0
1.610107900E-1,-6.711684465E-1,-2.213405132E0,-1.057376623E0
1.634706860E-1,-7.041541934E-1,-2.225621939E0,-1.068371892E0
1.659313630E-1,-7.383615971E-1,-2.213405132E0,-1.068371892E0
1.683928730E-1,-7.725690603E-1,-2.174310923E0,-1.053711534E0
1.708535500E-1,-8.153283596E-1,-2.116891146E0,-1.030499339E0
1.733134460E-1,-8.629744649E-1,-2.046032906E0,-9.987352490E-1
1.757741750E-1,-9.142856598E-1,-1.969066143E0,-9.571976662E-1
1.782356860E-1,-9.706363082E-1,-1.879882455E0,-9.083298445E-1
1.806963630E-1,-1.032942772E0,-1.779703498E0,-8.521319032E-1
1.831562590E-1,-1.100135922E0,-1.664864182E0,-7.898254991E-1
1.856169360E-1,-1.173437595E0,-1.499935389E0,-7.177455425E-1
1.880784460E-1,-1.260177851E0,-1.236049414E0,-6.284091473E-1
1.905391230E-1,-1.342031479E0,-9.513946176E-1,-5.062396526E-1
1.929990190E-1,-1.423884988E0,-6.789567471E-1,-3.791834414E-1
1.954597480E-1,-1.508181930E0,-4.395045936E-1,-2.533488870E-1
1.979212590E-1,-1.596143842E0,-2.391466945E-1,-1.287360638E-1
2.003819360E-1,-1.685327530E0,-8.276980370E-2,-6.566607859E-3
2.028418320E-1,-1.776954651E0,3.206948191E-2,1.082726792E-1
2.053025090E-1,-1.864916682E0,1.041494608E-1,2.133384049E-1
2.077640190E-1,-1.954100370E0,1.383569092E-1,3.086305857E-1
2.102246960E-1,-2.044505835E0,1.408002973E-1,3.929274976E-1
2.126845920E-1,-2.127581120E0,1.188097894E-1,4.650074840E-1
2.151453210E-1,-2.209434509E0,8.215895295E-2,5.273138881E-1
2.176068320E-1,-2.283957958E0,3.084778599E-2,5.774033666E-1
2.200675090E-1,-2.348707676E0,-2.535016090E-2,6.201626658E-1
2.225274050E-1,-2.404905558E0,-8.399149776E-2,6.580352187E-1
2.249880820E-1,-2.452551842E0,-1.389677525E-1,6.873558760E-1
2.274495920E-1,-2.490424156E0,-1.817270666E-1,7.203416228E-1
2.299102690E-1,-2.522188425E0,-2.110477239E-1,7.496622801E-1
2.323701650E-1,-2.547843933E0,-2.330382317E-1,7.777612805E-1
2.348308940E-1,-2.567390919E0,-2.452551723E-1,8.095253110E-1
2.372923530E-1,-2.580829620E0,-2.550287247E-1,8.437327743E-1
2.397530820E-1,-2.590603113E0,-2.660239935E-1,8.791618943E-1
2.422129780E-1,-2.596711636E0,-2.794626355E-1,9.182561636E-1
2.446736550E-1,-2.602820158E0,-2.831276953E-1,9.659022093E-1
2.471351650E-1,-2.613815308E0,-2.428117841E-1,1.042868972E0
2.495958420E-1,-2.626032352E0,-1.585148573E-1,1.139382839E0
2.520557380E-1,-2.633362532E0,-5.589252338E-2,1.237118363E0
2.545164670E-1,-2.638249397E0,5.650337040E-2,1.334854007E0
2.569779250E-1,-2.648022890E0,1.652341783E-1,1.427702785E0
2.594386550E-1,-2.656574726E0,2.580829561E-1,1.514443040E0
2.618985500E-1,-2.668791771E0,3.399364948E-1,1.596296549E0
2.643592280E-1,-2.677343607E0,4.059080184E-1,1.673263311E0
2.668207380E-1,-2.683451891E0,4.425588250E-1,1.734348059E0
2.692814150E-1,-2.689560413E0,4.572191834E-1,1.788102627E0
2.717413110E-1,-2.692003965E0,4.291202128E-1,1.823531747E0
2.742020400E-1,-2.693225622E0,3.497100472E-1,1.844300628E0
2.766634980E-1,-2.692003965E0,2.128802687E-1,1.844300628E0
2.791242280E-1,-2.685895443E0,1.374406368E-2,1.816201568E0
2.815841230E-1,-2.671235085E0,-2.403683960E-1,1.769777179E0
2.840448000E-1,-2.648022890E0,-5.409052372E-1,1.698918939E0
2.865063110E-1,-2.622367382E0,-8.780929446E-1,1.604848504E0
2.889669880E-1,-2.591825008E0,-1.237271070E0,1.487565756E0
2.914268840E-1,-2.555174112E0,-1.594005942E0,1.355622768E0
2.938876130E-1,-2.522188425E0,-1.906759739E0,1.209019423E0
2.963490710E-1,-2.489202499E0,-2.152320385E0,1.057529330E0
2.988097480E-1,-2.461103678E0,-2.314805746E0,9.182561636E-1
3.012696960E-1,-2.433004618E0,-2.395437479E0,7.973083854E-1
3.037303730E-1,-2.411014080E0,-2.405210972E0,6.959077120E-1
3.061918840E-1,-2.387801886E0,-2.361230135E0,6.116108298E-1
3.086525610E-1,-2.363368034E0,-2.279376507E0,5.517477989E-1
3.111124570E-1,-2.340155840E0,-2.173089027E0,5.102101564E-1
3.135731340E-1,-2.319386959E0,-2.052141428E0,4.906630516E-1
3.160346440E-1,-2.298618317E0,-1.926306844E0,4.943281412E-1
3.184953730E-1,-2.281514406E0,-1.800472260E0,5.248705149E-1
3.209552170E-1,-2.269297600E0,-1.692963123E0,6.006155610E-1
3.234159460E-1,-2.269297600E0,-1.601336122E0,7.521057129E-1
3.258774570E-1,-2.268075943E0,-1.492605329E0,9.219212532E-1
3.283381340E-1,-2.269297600E0,-1.365549088E0,1.083184958E0
3.307980300E-1,-2.274184227E0,-1.218945742E0,1.245670319E0
3.332587070E-1,-2.274184227E0,-1.061347127E0,1.410598993E0
3.357202170E-1,-2.269297600E0,-9.025267959E-1,1.575527787E0
3.381808940E-1,-2.258302212E0,-7.547017932E-1,1.736791492E0
3.406407900E-1,-2.243642092E0,-6.203153729E-1,1.891946673E0
3.431015190E-1,-2.227759838E0,-4.944808483E-1,2.033663273E0
3.455630300E-1,-2.211877823E0,-3.759764731E-1,2.163162947E0
3.480237070E-1,-2.195995808E0,-2.623589039E-1,2.281667233E0
3.504836030E-1,-2.177670479E0,-1.585148573E-1,2.389176369E0
3.529442800E-1,-2.158123255E0,-6.444438547E-2,2.490576982E0
3.554057900E-1,-2.128802776E0,1.130067464E-2,2.582204103E0
3.578664670E-1,-2.090930223E0,6.994201243E-2,2.666501045E0
3.603263630E-1,-2.040840626E0,1.053711548E-1,2.743467808E0
3.627870920E-1,-1.978534222E0,1.163664013E-1,2.814326048E0
3.652485500E-1,-1.901567459E0,9.926267713E-2,2.876632452E0
3.677092800E-1,-1.809940457E0,6.383354217E-2,2.931608677E0
3.701691750E-1,-1.704874754E0,8.857285604E-3,2.980476379E0
3.726298530E-1,-1.582705259E0,-6.444438547E-2,3.019570827E0
3.750913630E-1,-1.442210436E0,-1.536280811E-1,3.051334858E0
3.775520400E-1,-1.284611821E0,-2.550287247E-1,3.076990366E0
3.800119360E-1,-1.108687758E0,-3.637595475E-1,3.094094038E0
3.824726650E-1,-9.106205702E-1,-4.798205197E-1,3.105089426E0
3.849341230E-1,-6.956022978E-1,-6.080984473E-1,3.100202560E0
3.873948530E-1,-4.585935771E-1,-7.595885396E-1,3.079433680E0
3.898547480E-1,-2.020377368E-1,-9.269607067E-1,3.042783022E0
3.923154250E-1,6.917845458E-2,-1.101662993E0,2.995136738E0
3.947769360E-1,3.501681983E-1,-1.273921967E0,2.935273886E0
3.972376130E-1,6.336013079E-1,-1.437628984E0,2.866858959E0
3.996975090E-1,9.109259844E-1,-1.573237062E0,2.781340361E0
4.021582380E-1,1.177255392E0,-1.667307615E0,2.676274538E0
4.046196960E-1,1.420372605E0,-1.672194362E0,2.611524820E0
4.070804250E-1,1.619508743E0,-1.320346355E0,2.537001371E0
4.095403210E-1,1.880951405E0,-4.443913698E-1,2.424605370E0
4.120009980E-1,2.191261768E0,5.757235289E-1,2.302436113E0
4.144625090E-1,2.401393175E0,1.107160687E0,2.174158096E0
4.169231860E-1,2.588312626E0,1.218334913E0,2.083752632E0
4.193830820E-1,2.765458345E0,1.195122719E0,1.988460541E0
4.218437590E-1,2.858307123E0,1.092500329E0,1.725796223E0
4.243052690E-1,2.830208063E0,8.542698622E-1,1.284764528E0
4.267659460E-1,2.688491583E0,5.647283196E-1,7.472189069E-1
4.292258420E-1,2.460034609E0,2.348707765E-1,1.412584335E-1
4.316865710E-1,2.172936440E0,-1.817270666E-1,-4.756973088E-1
4.341480820E-1,1.857739210E0,-6.264238358E-1,-1.040272832E0
4.366087590E-1,1.551093936E0,-9.807152748E-1,-1.514290333E0
4.390686550E-1,1.293316364E0,-1.184738278E0,-1.878355265E0
4.415293320E-1,1.102732062E0,-1.229941010E0,-2.131246090E0
4.439908420E-1,9.915578365E-1,-1.132205367E0,-2.283957958E0
4.464515190E-1,9.573503733E-1,-9.428427219E-1,-2.362146378E0
4.489114150E-1,9.781191945E-1,-6.985038519E-1,-2.384136915E0
4.513721440E-1,1.042868972E0,-4.297310412E-1,-2.374363184E0
4.538336030E-1,1.143047929E0,-1.682884246E-1,-2.327938795E0
4.562943320E-1,1.265217423E0,7.116370648E-2,-2.252193928E0
4.587542280E-1,1.402047157E0,2.874036431E-1,-2.153236628E0
4.612149050E-1,1.542542100E0,4.792096615E-1,-2.040840626E0
4.636764150E-1,1.678150177E0,6.380299330E-1,-1.922336340E0
4.661370920E-1,1.808871388E0,7.516475320E-1,-1.801388621E0
4.685969880E-1,1.918823957E0,7.992936373E-1,-1.679219127E0
4.710577170E-1,2.003120899E0,7.614210844E-1,-1.550941229E0
4.735191750E-1,2.062983990E0,6.355865598E-1,-1.428771734E0
4.759799050E-1,2.084974289E0,4.291202128E-1,-1.310267329E0
4.784398000E-1,2.070314169E0,1.383569092E-1,-1.199093223E0
4.809004780E-1,2.019002914E0,-2.086043358E-1,-1.102579355E0
4.833619880E-1,1.937149405E0,-5.665608048E-1,-1.024390817E0
4.858226650E-1,1.841857195E0,-8.744278550E-1,-9.633061290E-1
4.882825610E-1,1.750230074E0,-1.107771516E0,-9.266552925E-1
4.907432900E-1,1.667154908E0,-1.262926698E0,-9.107732773E-1
4.932047480E-1,1.596296549E0,-1.356997132E0,-9.107732773E-1
4.956654780E-1,1.547428846E0,-1.404643297E0,-9.181034565E-1
4.981253730E-1,1.513221383E0,-1.410751700E0,-9.266552925E-1
5.005860500E-1,1.488787532E0,-1.383874416E0,-9.315420985E-1
5.030475610E-1,1.476570487E0,-1.330119848E0,-9.229902029E-1
5.055082380E-1,1.469240427E0,-1.267813444E0,-8.948912621E-1
5.079681340E-1,1.466796994E0,-1.204285383E0,-8.533536196E-1
5.104288110E-1,1.459466815E0,-1.145644069E0,-7.947123051E-1
5.128903210E-1,1.453358293E0,-1.097997904E0,-7.201889157E-1
5.153509980E-1,1.446028233E0,-1.065012217E0,-6.284091473E-1
5.178108940E-1,1.438698053E0,-1.043021679E0,-5.306735635E-1
5.202716230E-1,1.431367874E0,-1.025918007E0,-4.256078303E-1
5.227330820E-1,1.425259352E0,-1.005149126E0,-3.168770075E-1
5.251938110E-1,1.419150949E0,-9.819369912E-1,-2.081461996E-1
5.276537070E-1,1.411820769E0,-9.575030804E-1,-1.030804738E-1
5.301143840E-1,1.400825500E0,-9.428427219E-1,-6.566607859E-3
5.325758940E-1,1.384943485E0,-9.318475127E-1,8.261708915E-2
5.350365710E-1,1.361731291E0,-9.318475127E-1,1.620272398E-1
5.374964670E-1,1.336075664E0,-9.355126023E-1,2.328855246E-1
5.399571960E-1,1.300646544E0,-9.489512444E-1,2.915268540E-1
5.424186550E-1,1.260330558E0,-9.733850956E-1,3.403946459E-1
5.448793840E-1,1.213906169E0,-1.007592559E0,3.807105422E-1
5.473392800E-1,1.162595034E0,-1.038134933E0,4.210264683E-1
5.497999570E-1,1.106397152E0,-1.083337665E0,4.491254389E-1
5.522614670E-1,1.047755718E0,-1.133427143E0,4.723376334E-1
5.547221440E-1,9.903361201E-1,-1.184738278E0,4.894413650E-1
5.571820400E-1,9.304730892E-1,-1.233605981E0,5.053234100E-1
5.596427170E-1,8.742751479E-1,-1.280030489E0,5.150969625E-1
5.621042280E-1,8.205205798E-1,-1.319124699E0,5.212054253E-1
5.645649050E-1,7.728744745E-1,-1.355775476E0,5.236487985E-1
5.670248000E-1,7.288935184E-1,-1.385096192E0,5.248705149E-1
5.694855300E-1,6.897992492E-1,-1.413195133E0,5.175403357E-1
5.719470400E-1,6.580352187E-1,-1.433963895E0,5.102101564E-1
5.744077170E-1,6.287145615E-1,-1.455954432E0,4.992149174E-1
5.768676130E-1,6.018372774E-1,-1.481610060E0,4.821111858E-1
5.793282900E-1,5.835118294E-1,-1.512152433E0,4.637857676E-1
5.817898000E-1,5.712949038E-1,-1.550024867E0,4.417952895E-1
5.842504780E-1,5.627430081E-1,-1.590340853E0,4.173613787E-1
5.867103730E-1,5.615213513E-1,-1.635543585E0,3.953709006E-1
5.891711030E-1,5.627430081E-1,-1.680746198E0,3.721587062E-1
5.916325610E-1,5.725166202E-1,-1.732057452E0,3.501681983E-1
5.940932900E-1,5.859552622E-1,-1.783368587E0,3.318427801E-1
5.965531860E-1,6.006155610E-1,-1.834679723E0,3.147390485E-1
5.990138630E-1,6.128324866E-1,-1.890877724E0,3.000787199E-1
6.014753730E-1,6.311579347E-1,-1.948297381E0,2.903051674E-1
6.039360500E-1,6.494833231E-1,-2.009382010E0,2.841966748E-1
6.063959460E-1,6.690304875E-1,-2.076575279E0,2.829749882E-1
6.088566750E-1,6.910209656E-1,-2.149876833E0,2.927485406E-1
6.113181340E-1,7.130114436E-1,-2.230508804E0,3.061871827E-1
6.137788630E-1,7.374453545E-1,-2.317249060E0,3.232909143E-1
6.162387590E-1,7.594358325E-1,-2.423536539E0,3.416163325E-1
6.186994360E-1,7.826480269E-1,-2.535932302E0,3.636068404E-1
6.211609460E-1,8.107470274E-1,-2.648328304E0,3.892624080E-1
6.236216230E-1,8.425110579E-1,-2.760724068E0,4.185830951E-1
6.260815190E-1,8.754968047E-1,-2.865789890E0,4.625640810E-1
6.285421960E-1,8.950439692E-1,-2.940313339E0,5.212054253E-1
6.310037070E-1,9.011524320E-1,-2.974520683E0,5.993938446E-1
6.334643840E-1,8.877137899E-1,-2.983072519E0,7.007945180E-1
6.359242800E-1,8.840487003E-1,-3.014836550E0,8.131904006E-1
6.383850090E-1,9.011524320E-1,-3.085695028E0,9.121476412E-1
6.408465190E-1,9.390249252E-1,-3.173656940E0,9.903361201E-1
6.433071960E-1,9.878927469E-1,-3.271392584E0,1.055085897E0
6.457670920E-1,1.030652046E0,-3.371571541E0,1.114948988E0
6.482277690E-1,1.067302823E0,-3.474193811E0,1.183363795E0
6.506892800E-1,1.097845197E0,-3.580481291E0,1.254222155E0
6.531499570E-1,1.129609346E0,-3.692877054E0,1.327523828E0
6.556098530E-1,1.146713018E0,-3.805273056E0,1.391051888E0
6.580705820E-1,1.156486630E0,-3.918890476E0,1.446028233E0
6.605320400E-1,1.152821541E0,-4.038769245E0,1.497339368E0
6.629927690E-1,1.135717750E0,-4.167047501E0,1.549872160E0
6.654526650E-1,1.111283898E0,-4.308763981E0,1.599961638E0
6.679133420E-1,1.079519868E0,-4.455367088E0,1.654937983E0
6.703748530E-1,1.044090629E0,-4.600749016E0,1.714800954E0
6.728355300E-1,1.009883285E0,-4.746130466E0,1.774664044E0
6.752954250E-1,9.781191945E-1,-4.879295349E0,1.836970448E0
6.777561030E-1,9.512419105E-1,-5.003908157E0,1.902941942E0
6.802176130E-1,9.268079996E-1,-5.116303921E0,1.968913436E0
6.826783420E-1,9.109259844E-1,-5.221369743E0,2.036106586E0
6.851381860E-1,8.974873424E-1,-5.320326805E0,2.103299856E0
6.875989150E-1,8.913788795E-1,-5.411953926E0,2.172936440E0
6.900603730E-1,8.864920735E-1,-5.496251106E0,2.242573023E0
6.925211030E-1,8.926005363E-1,-5.575661182E0,2.313431263E0
6.949809980E-1,9.048175216E-1,-5.650184631E0,2.383067846E0
6.974416750E-1,9.194778204E-1,-5.711269379E0,2.453926086E0
6.999031860E-1,9.439117312E-1,-5.763802052E0,2.524784327E0
7.023638630E-1,9.695672989E-1,-5.807783127E0,2.591977596E0
7.048237590E-1,1.002553105E0,-5.839547157E0,2.657949209E0
7.072844880E-1,1.039203882E0,-5.863980770E0,2.725142241E0
7.097459460E-1,1.080741525E0,-5.883528233E0,2.791113853E0
7.122066750E-1,1.127165914E0,-5.899410248E0,2.861972094E0
7.146665710E-1,1.177255392E0,-5.907961845E0,2.937717199E0
7.171272480E-1,1.233453274E0,-5.912848949E0,3.017127275E0
7.195887590E-1,1.295759797E0,-5.905518532E0,3.101424217E0
7.220494360E-1,1.361731291E0,-5.888414860E0,3.191829681E0
7.245093320E-1,1.431367874E0,-5.861537457E0,3.284678459E0
7.269700090E-1,1.502226114E0,-5.822443485E0,3.383635759E0
7.294315190E-1,1.575527787E0,-5.773575783E0,3.483814716E0
7.318922480E-1,1.642720938E0,-5.713712692E0,3.587658644E0
7.343520920E-1,1.697697282E0,-5.645297527E0,3.689059258E0
7.368128210E-1,1.739234805E0,-5.578104496E0,3.792903423E0
7.392743320E-1,1.766112089E0,-5.509689331E0,3.896747351E0
7.417350090E-1,1.777107358E0,-5.435166359E0,4.012808323E0
7.441949050E-1,1.770998955E0,-5.348425865E0,4.138642788E0
7.466555820E-1,1.750230074E0,-5.242138386E0,4.275472641E0
7.491170920E-1,1.717244387E0,-5.113860607E0,4.417189121E0
7.515777690E-1,1.670819998E0,-4.956262112E0,4.556462288E0
7.540376650E-1,1.608513594E0,-4.774229527E0,4.689779758E0
7.564983940E-1,1.529103398E0,-4.578758240E0,4.813170910E0
7.589598530E-1,1.437476277E0,-4.369848728E0,4.925566673E0
7.614205820E-1,1.327523828E0,-4.153608799E0,5.023302555E0
7.638804780E-1,1.205354333E0,-3.929885864E0,5.105155945E0
7.663411550E-1,1.069746256E0,-3.709980726E0,5.174792767E0
7.688026650E-1,9.292513728E-1,-3.497406006E0,5.232212067E0
7.712633420E-1,7.802046537E-1,-3.297048092E0,5.273749828E0
7.737232380E-1,6.372663975E-1,-3.116237402E0,5.303070545E0
7.761839150E-1,4.918847680E-1,-2.961081982E0,5.318952560E0
7.786454250E-1,3.648285270E-1,-2.842577696E0,5.327504158E0
7.811061030E-1,2.499892414E-1,-2.760724068E0,5.325060844E0
7.835659980E-1,1.534753740E-1,-2.727738380E0,5.316509247E0
7.860267280E-1,7.895200700E-2,-2.742398739E0,5.307957172E0
7.884882380E-1,2.764083818E-2,-2.798596621E0,5.301848888E0
7.909489150E-1,6.872031838E-3,-2.901219130E0,5.300627232E0
7.934088110E-1,1.542389300E-2,-3.042935610E0,5.306735516E0
7.958694880E-1,5.573981255E-2,-3.221302986E0,5.317730904E0
7.983309980E-1,1.278197914E-1,-3.421660900E0,5.342164516E0
8.007916750E-1,2.304421216E-1,-3.636679173E0,5.371485233E0
8.032515710E-1,3.636068404E-1,-3.860249281E0,5.410579681E0
8.057123000E-1,5.199837089E-1,-4.086415291E0,5.459447384E0
8.081737590E-1,6.946860552E-1,-4.313650608E0,5.513201714E0
8.106344880E-1,8.803836107E-1,-4.542107582E0,5.574286461E0
8.130943840E-1,1.072189689E0,-4.765677452E0,5.637814999E0
8.155550610E-1,1.260330558E0,-4.979474068E0,5.698899269E0
8.180165710E-1,1.448471546E0,-5.179831982E0,5.759984016E0
8.204772480E-1,1.624395609E0,-5.355756283E0,5.818625450E0
8.229371440E-1,1.794211149E0,-5.502359390E0,5.872380257E0
8.253978210E-1,1.949366331E0,-5.613533497E0,5.913917542E0
8.278593320E-1,2.089861155E0,-5.679504871E0,5.945681572E0
8.303200090E-1,2.215695620E0,-5.706382275E0,5.965229034E0
8.327799050E-1,2.323204756E0,-5.695387363E0,5.973780632E0
8.352406340E-1,2.413610220E0,-5.644075871E0,5.973780632E0
8.377020920E-1,2.491798639E0,-5.558557510E0,5.971337318E0
8.401628210E-1,2.556548595E0,-5.432723045E0,5.966450691E0
8.426227170E-1,2.615189791E0,-5.275124073E0,5.957898617E0
8.450833940E-1,2.659170866E0,-5.096756935E0,5.940794945E0
8.475449050E-1,2.692156553E0,-4.895177364E0,5.918804646E0
8.500055820E-1,2.715368748E0,-4.666720390E0,5.884597301E0
8.524654780E-1,2.734915972E0,-4.422381401E0,5.840616226E0
8.549262070E-1,2.741024256E0,-4.179264069E0,5.785639763E0
8.573876650E-1,2.741024256E0,-3.937216043E0,5.726998329E0
8.598483420E-1,2.738580942E0,-3.703872442E0,5.658583641E0
8.623082380E-1,2.736137629E0,-3.488854170E0,5.581616879E0
8.647689670E-1,2.738580942E0,-3.295826435E0,5.498541832E0
8.672304780E-1,2.744689465E0,-3.132119417E0,5.403249264E0
8.696911550E-1,2.756906509E0,-2.996511221E0,5.298183918E0
8.721510500E-1,2.777675152E0,-2.904884100E0,5.187009335E0
8.746117280E-1,2.808217525E0,-2.846242905E0,5.072170258E0
8.770732380E-1,2.850976944E0,-2.812035322E0,4.950000763E0
8.795339150E-1,2.912061691E0,-2.794931650E0,4.821722984E0
8.819938110E-1,2.985363245E0,-2.792488337E0,4.682449818E0
8.844545400E-1,3.074547052E0,-2.804705143E0,4.535693645E0
8.869159980E-1,3.169839144E0,-2.831582546E0,4.378095150E0
8.893767280E-1,3.263909578E0,-2.875563383E0,4.210722923E0
8.918366230E-1,3.361645222E0,-2.929317951E0,4.043350697E0
8.942973000E-1,3.454493999E0,-2.994067907E0,3.875978470E0
8.967588110E-1,3.535125732E0,-3.068591118E0,3.707384825E0
8.992194880E-1,3.607205868E0,-3.145557880E0,3.555894613E0
9.016793840E-1,3.669512272E0,-3.196869135E0,3.427616596E0
9.041400610E-1,3.717158318E0,-3.210307837E0,3.322551012E0
9.066015710E-1,3.746479034E0,-3.184652090E0,3.244362593E0
9.090622480E-1,3.764804363E0,-3.122345686E0,3.196716309E0
9.115221440E-1,3.770912886E0,-3.018501759E0,3.189386368E0
9.139828730E-1,3.777021408E0,-2.871898413E0,3.212598562E0
9.164443320E-1,3.781908035E0,-2.694752693E0,3.223593712E0
9.189050610E-1,3.753809214E0,-2.511498451E0,3.210155010E0
9.213649570E-1,3.706162930E0,-2.375890493E0,3.184499502E0
9.238256340E-1,3.640191555E0,-2.259829521E0,3.141740084E0
9.262871440E-1,3.558337927E0,-2.153542042E0,3.086763859E0
9.287478210E-1,3.460602522E0,-2.043589592E0,3.026900768E0
9.312077170E-1,3.355536699E0,-1.900651217E0,2.968259573E0
9.336683940E-1,3.246805906E0,-1.702736735E0,2.903509617E0
9.361299050E-1,3.130744934E0,-1.459619522E0,2.821656227E0
9.385905820E-1,3.007353783E0,-1.210393786E0,2.720255613E0
9.410504780E-1,2.875410795E0,-9.746068120E-1,2.600529432E0
9.435112070E-1,2.737359285E0,-7.608102560E-1,2.471029758E0
9.459727170E-1,2.571208715E0,-5.323534012E-1,2.339086771E0
9.484333940E-1,2.319539785E0,-2.403683960E-1,2.176601410E0
9.508932900E-1,2.029998064E0,9.071081877E-2,1.995790720E0
9.533539670E-1,1.728239655E0,4.205683470E-1,1.800319552E0
9.558154780E-1,1.432589531E0,7.504258752E-1,1.596296549E0
9.582761550E-1,1.135717750E0,1.072953224E0,1.382500052E0
9.607360500E-1,8.425110579E-1,1.356386304E0,1.156486630E0
9.631967280E-1,5.346440673E-1,1.599656224E0,9.231429100E-1
9.656582380E-1,2.157817930E-1,1.793905735E0,6.910209656E-1
9.681189670E-1,-9.330692142E-2,1.930735469E0,4.784461260E-1
9.705788630E-1,-3.828485310E-1,2.030914307E0,2.964136302E-1
9.730395400E-1,-6.320741773E-1,2.099329233E0,1.449235082E-1
9.755009980E-1,-8.214368224E-1,2.131093264E0,2.397575416E-2
9.779617280E-1,-9.400939345E-1,2.122541428E0,-6.887302548E-2
9.804216230E-1,-9.926267862E-1,2.078560591E0,-1.385096163E-1
9.828823000E-1,-9.889616966E-1,2.008924007E0,-1.922641695E-1
9.853438110E-1,-9.425373077E-1,1.903858185E0,-2.447970361E-1
9.878044880E-1,-8.654178381E-1,1.767028451E0,-2.936648130E-1
9.902643840E-1,-7.713474035E-1,1.600878000E0,-3.523061574E-1
9.927251130E-1,-6.638382673E-1,1.402963400E0,-4.158342779E-1
9.951865710E-1,-5.551074743E-1,1.184127450E0,-4.818057716E-1
9.976473000E-1,-4.341596961E-1,9.520054460E-1,-5.477772951E-1
1.000107196E0,-3.180987239E-1,7.113316059E-1,-6.088619828E-1
1.002567873E0,-2.081461996E-1,4.767662883E-1,-6.552863717E-1
1.005029384E0,-9.819369763E-2,2.629697323E-1,-6.786513329E-1
1.007490061E0,1.175880991E-2,7.849387079E-2,-6.872031689E-1
1.009949957E0,1.058292910E-1,-7.543963939E-2,-6.810947061E-1
1.012410634E0,1.901262105E-1,-2.183778882E-1,-6.662816405E-1
1.014872144E0,2.622061968E-1,-3.417690396E-1,-6.357392669E-1
1.017332821E0,3.257342875E-1,-4.358395338E-1,-5.893148780E-1
1.019792717E0,3.794888556E-1,-4.981459379E-1,-5.367820263E-1
1.022253446E0,4.308000207E-1,-5.506787896E-1,-4.891359508E-1
1.024714905E0,4.772244096E-1,-6.019899845E-1,-4.463766217E-1
1.027175634E0,5.260922313E-1,-6.508577466E-1,-4.036173224E-1
1.029635530E0,5.761816502E-1,-6.923953891E-1,-3.645231128E-1
1.032096207E0,6.323796511E-1,-7.278245091E-1,-3.266505599E-1
1.034557717E0,6.922426820E-1,-7.656970620E-1,-2.973299026E-1
1.037018394E0,7.582141757E-1,-8.072346449E-1,-2.765611112E-1
1.039478290E0,8.327375054E-1,-8.561024070E-1,-2.728960216E-1
1.041938967E0,9.158127308E-1,-9.086353183E-1,-2.814478874E-1
1.044400478E0,1.008661509E0,-9.697200060E-1,-2.899997234E-1
1.046861155E0,1.103953719E0,-1.032026410E0,-3.058817685E-1
1.049321050E0,1.205354333E0,-1.099219680E0,-3.242071867E-1
1.051781780E0,1.307976723E0,-1.168856263E0,-3.400892019E-1
1.054243238E0,1.404490590E0,-1.228719234E0,-3.523061574E-1
1.056703967E0,1.502226114E0,-1.283695459E0,-3.547495604E-1
1.059163863E0,1.595074892E0,-1.330119848E0,-3.645231128E-1
1.061624540E0,1.680593491E0,-1.359440565E0,-3.694098890E-1
1.064086050E0,1.739234805E0,-1.361883998E0,-3.608580232E-1
1.066546728E0,1.775885701E0,-1.361883998E0,-3.315373361E-1
1.069006623E0,1.784437537E0,-1.353332043E0,-2.936648130E-1
1.071467300E0,1.774664044E0,-1.337450027E0,-2.545706034E-1
1.073928811E0,1.761225343E0,-1.326454878E0,-2.228065431E-1
1.076389488E0,1.751451850E0,-1.316681266E0,-1.910424829E-1
1.078849384E0,1.756338596E0,-1.321568012E0,-1.641651988E-1
1.081310113E0,1.786880970E0,-1.343558550E0,-1.372879148E-1
1.083771571E0,1.845522285E0,-1.376544356E0,-1.189625040E-1
1.086232300E0,1.926154137E0,-1.407086611E0,-1.043021679E-1
1.088692196E0,2.008007765E0,-1.431520581E0,-9.086353332E-2
1.091152873E0,2.060540438E0,-1.429077148E0,-6.765133142E-2
1.093614384E0,2.048323631E0,-1.376544356E0,-2.977880463E-2
1.096075061E0,1.964026690E0,-1.270256877E0,1.664558798E-2
1.098534957E0,1.817423344E0,-1.106549859E0,7.406523079E-2
1.100995634E0,1.624395609E0,-8.939749599E-1,1.412584335E-1
1.103457144E0,1.405712247E0,-6.398624778E-1,2.121167034E-1
1.105917821E0,1.196802497E0,-3.662029207E-1,2.793098986E-1
1.108377717E0,1.017213345E0,-1.108687744E-1,3.330644667E-1
1.110838446E0,8.803836107E-1,9.559759498E-2,3.660502136E-1
1.113299905E0,7.814263701E-1,2.446443290E-1,3.831539452E-1
1.115760634E0,7.081246972E-1,3.277195692E-1,3.904841244E-1
1.118220530E0,6.519267559E-1,3.460449576E-1,3.953709006E-1
1.120681207E0,5.981721878E-1,3.167243004E-1,3.917058110E-1
1.123142717E0,5.395308137E-1,2.373141646E-1,3.807105422E-1
1.125603394E0,4.906630516E-1,1.481304616E-1,3.623851240E-1
1.128063290E0,4.698942602E-1,6.383354217E-2,3.293993771E-1
1.130523967E0,4.760027230E-1,-2.290677279E-2,2.854183912E-1
1.132985478E0,5.016583204E-1,-1.169772521E-1,2.304421216E-1
1.135446155E0,5.505260825E-1,-2.110477239E-1,1.693574041E-1
1.137906050E0,6.201626658E-1,-2.855710983E-1,1.082726792E-1
1.140366728E0,6.897992492E-1,-3.588727713E-1,5.085303262E-2
1.142828238E0,7.508839965E-1,-4.285093546E-1,7.635590737E-4
1.145288967E0,7.997517586E-1,-4.798205197E-1,-3.833066672E-2
1.147748863E0,8.302941322E-1,-5.176930428E-1,-6.887302548E-2
1.150209540E0,8.327375054E-1,-5.482354164E-1,-9.086353332E-2
1.152671050E0,8.180772066E-1,-5.665608048E-1,-1.140757278E-1
1.155131728E0,7.899782062E-1,-5.714476109E-1,-1.421747059E-1
1.157591623E0,7.582141757E-1,-5.677825212E-1,-1.714953631E-1
1.160052300E0,7.288935184E-1,-5.555655956E-1,-2.069245130E-1
1.162513811E0,7.032378912E-1,-5.409052372E-1,-2.484621257E-1
1.164974488E0,6.861341596E-1,-5.213581324E-1,-2.924431264E-1
1.167434384E0,6.861341596E-1,-5.066977739E-1,-3.388675153E-1
1.169895113E0,6.983511448E-1,-4.969242513E-1,-3.914003670E-1
1.172356571E0,7.252284288E-1,-4.957025647E-1,-4.353813827E-1
1.174817248E0,7.545490861E-1,-5.042544007E-1,-4.793623984E-1
1.177277144E0,7.765395641E-1,-5.164713860E-1,-5.209000111E-1
1.179737873E0,7.997517586E-1,-5.286883116E-1,-5.563291311E-1
1.182199332E0,8.119687438E-1,-5.286883116E-1,-5.905365944E-1
1.184660061E0,8.241856694E-1,-5.128062963E-1,-6.223006248E-1
1.187119957E0,8.302941322E-1,-4.810422063E-1,-6.430694461E-1
1.189580634E0,8.290724158E-1,-4.358395338E-1,-6.552863717E-1
1.192042144E0,8.180772066E-1,-3.796415627E-1,-6.552863717E-1
1.194502821E0,7.985301018E-1,-3.136700690E-1,-6.516213417E-1
1.196962717E0,7.655443549E-1,-2.440334857E-1,-6.479562521E-1
1.199423394E0,7.386670709E-1,-1.707318127E-1,-6.540647149E-1
1.201884905E0,7.166765332E-1,-1.059819981E-1,-6.700994372E-1
1.204345582E0,7.081246972E-1,-5.344913527E-2,-6.945333481E-1
1.206805478E0,7.044596076E-1,-1.679829881E-2,-7.201889157E-1
1.209266207E0,7.056813240E-1,3.054236295E-4,-7.482879162E-1
1.211727665E0,7.056813240E-1,5.192201585E-3,-7.812736630E-1
1.214188394E0,7.069029808E-1,-3.359660041E-3,-8.179244995E-1
1.216648290E0,7.093463540E-1,-2.535016090E-2,-8.606837988E-1
1.219108967E0,7.142331600E-1,-5.589252338E-2,-8.997780085E-1
1.221570478E0,7.130114436E-1,-9.498675168E-2,-9.352071285E-1
1.224031155E0,7.056813240E-1,-1.328592747E-1,-9.706363082E-1
1.226491050E0,6.971294284E-1,-1.780619770E-1,-1.001178622E0
1.228951728E0,6.849125028E-1,-2.220429778E-1,-1.026834249E0
1.231413238E0,6.726955175E-1,-2.672456801E-1,-1.047603011E0
1.233873915E0,6.604785919E-1,-3.051182032E-1,-1.058598280E0
1.236333811E0,6.409314871E-1,-3.344388604E-1,-1.061041713E0
1.238794540E0,6.189410090E-1,-3.503209054E-1,-1.047603011E0
1.241255998E0,5.945070982E-1,-3.649812341E-1,-1.028055906E0
1.243716728E0,5.749599934E-1,-3.698680103E-1,-1.002400398E0
1.246176623E0,5.590779781E-1,-3.686463237E-1,-9.718579650E-1
1.248637300E0,5.444176197E-1,-3.735330999E-1,-9.413156509E-1
1.251098811E0,5.395308137E-1,-3.637595475E-1,-9.083298445E-1
1.253559488E0,5.395308137E-1,-3.564293683E-1,-8.765658140E-1
1.256019384E0,5.444176197E-1,-3.552076817E-1,-8.435800672E-1
1.258480061E0,5.505260825E-1,-3.527642787E-1,-8.093726039E-1
1.260941571E0,5.578562617E-1,-3.490992188E-1,-7.702783942E-1
1.263402248E0,5.676298141E-1,-3.466558158E-1,-7.287407517E-1
1.265862144E0,5.761816502E-1,-3.442124426E-1,-6.847597957E-1
1.268322821E0,5.822901726E-1,-3.466558158E-1,-6.455128193E-1
1.270784332E0,5.883986354E-1,-3.588727713E-1,-6.113054156E-1
1.273245061E0,6.006155610E-1,-3.808632791E-1,-5.844281316E-1
1.275704957E0,6.140542030E-1,-4.187358022E-1,-5.624375939E-1
1.278165634E0,6.336013079E-1,-4.712686539E-1,-5.502206683E-1
1.280627092E0,6.507050395E-1,-5.335750580E-1,-5.453338623E-1
1.283087821E0,6.726955175E-1,-6.044333577E-1,-5.465555787E-1
1.285547717E0,6.910209656E-1,-6.789567471E-1,-5.514423847E-1
1.288008394E0,6.959077120E-1,-7.510367036E-1,-5.514423847E-1
1.290469905E0,6.922426820E-1,-8.145648241E-1,-5.575508475E-1
1.292930582E0,6.922426820E-1,-8.939749599E-1,-5.758762360E-1
1.295390478E0,6.849125028E-1,-9.660549164E-1,-5.954233408E-1
1.297851155E0,6.678087711E-1,-1.027139664E0,-6.235223413E-1
1.300312665E0,6.421532035E-1,-1.078450799E0,-6.491779089E-1
1.302773342E0,6.091674566E-1,-1.121210098E0,-6.675033569E-1
1.305233238E0,5.774033666E-1,-1.155417562E0,-6.823163629E-1
1.307693967E0,5.407525301E-1,-1.174964666E0,-6.908682585E-1
1.310155425E0,4.943281412E-1,-1.171299577E0,-6.981984377E-1
1.312616155E0,4.356867969E-1,-1.135870457E0,-7.043069005E-1
1.315076050E0,3.746020794E-1,-1.087002754E0,-7.104153633E-1
1.317536728E0,3.086305857E-1,-1.029583097E0,-7.140804529E-1
1.319998238E0,2.389939874E-1,-9.611681700E-1,-7.116370797E-1
1.322458915E0,1.608055383E-1,-8.805363178E-1,-7.055285573E-1
1.324918811E0,8.750387281E-2,-8.145648241E-1,-6.981984377E-1
1.327379488E0,1.542389300E-2,-7.510367036E-1,-6.933116317E-1
1.329840998E0,-6.032116711E-2,-6.826218367E-1,-6.969767213E-1
1.332301675E0,-1.238492802E-1,-6.203153729E-1,-7.079719901E-1
1.334761571E0,-1.751604527E-1,-5.580089688E-1,-7.299624681E-1
1.337222300E0,-2.179197669E-1,-5.018110275E-1,-7.568397522E-1
1.339683759E0,-2.484621257E-1,-4.468347728E-1,-7.922688723E-1
1.342144488E0,-2.667875290E-1,-3.943018913E-1,-8.289197087E-1
1.344604384E0,-2.753393948E-1,-3.490992188E-1,-8.692356348E-1
1.347065061E0,-2.802261710E-1,-3.173351586E-1,-9.132166505E-1
1.349526519E0,-2.826695740E-1,-2.953446507E-1,-9.633061290E-1
1.351987248E0,-2.753393948E-1,-2.867927849E-1,-1.014617324E0
1.354447144E0,-2.667875290E-1,-2.819060087E-1,-1.062263370E0
1.356907821E0,-2.606790662E-1,-2.806843221E-1,-1.106244445E0
1.359369332E0,-2.619007528E-1,-2.660239935E-1,-1.140451789E0
1.361830009E0,-2.802261710E-1,-2.464768738E-1,-1.162442327E0
1.364289905E0,-3.083251417E-1,-2.232646793E-1,-1.181989431E0
1.366750582E0,-3.303156495E-1,-2.098260373E-1,-1.194206357E0
1.369212092E0,-3.290939629E-1,-1.756185889E-1,-1.206423283E0
1.371672769E0,-3.180987239E-1,-1.157555580E-1,-1.210088372E0
1.374132665E0,-2.948864996E-1,-6.933116168E-2,-1.202758312E0
1.376593394E0,-2.777827978E-1,-3.512371704E-2,-1.185654521E0
1.379054853E0,-2.680092454E-1,-2.535016090E-2,-1.166107416E0
1.381515582E0,-2.521272004E-1,-3.756710514E-2,-1.135565042E0
1.383975478E0,-2.521272004E-1,-5.589252338E-2,-1.107466102E0
1.386436155E0,-2.545706034E-1,-7.910472155E-2,-1.076923728E0
1.388897665E0,-2.594573796E-1,-1.072036922E-1,-1.041494608E0
1.391358342E0,-2.655658424E-1,-1.169772521E-1,-1.008508801E0
1.393818238E0,-2.838912606E-1,-1.120904684E-1,-9.755230546E-1
1.396278915E0,-3.095468581E-1,-9.987352788E-2,-9.303203821E-1
1.398740425E0,-3.352024257E-1,-8.399149776E-2,-8.729007244E-1
1.401201103E0,-3.669664860E-1,-5.955760926E-2,-8.020424247E-1
1.403660998E0,-4.048390090E-1,-3.268032894E-2,-7.311841846E-1
1.406121675E0,-4.329380095E-1,-2.412846684E-2,-6.737645268E-1
1.408583186E0,-4.585935771E-1,-3.145863488E-2,-6.320741773E-1
1.411043863E0,-4.781406820E-1,-4.978405312E-2,-5.990884304E-1
1.413503759E0,-5.013529062E-1,-6.077930331E-2,-5.709894896E-1
1.415964488E0,-5.282301903E-1,-8.032641560E-2,-5.404471159E-1
1.418425946E0,-5.367820263E-1,-1.304158866E-1,-4.964661002E-1
1.420886675E0,-5.221216679E-1,-2.293731421E-1,-4.414898455E-1
1.423346571E0,-4.793623984E-1,-3.784198761E-1,-4.011739492E-1
1.425807248E0,-4.085040987E-1,-5.641174316E-1,-4.170559645E-1
1.428268759E0,-3.474193811E-1,-7.094991207E-1,-4.915793240E-1
1.430729436E0,-3.083251417E-1,-8.255600929E-1,-5.929799676E-1
1.433189332E0,-2.912214398E-1,-9.245173335E-1,-6.847597957E-1
1.435650009E0,-2.790044844E-1,-9.929322004E-1,-7.629482150E-1
1.438111519E0,-2.912214398E-1,-9.831586480E-1,-8.228112459E-1
1.440572196E0,-3.058817685E-1,-9.379559755E-1,-8.594620824E-1
1.443032092E0,-3.400892019E-1,-8.634325862E-1,-8.838959932E-1
1.445492769E0,-3.718532622E-1,-7.730271816E-1,-9.022213817E-1
1.447954280E0,-3.791834414E-1,-6.618530154E-1,-9.132166505E-1
1.450414957E0,-3.889569938E-1,-5.494571328E-1,-9.156600237E-1
1.452874853E0,-3.987305462E-1,-4.431696832E-1,-9.132166505E-1
1.455335582E0,-4.085040987E-1,-3.784198761E-1,-8.985562921E-1
1.457797040E0,-4.304946065E-1,-3.881934285E-1,-8.790091872E-1
1.460257769E0,-4.427115619E-1,-4.199574888E-1,-8.582404256E-1
1.462717665E0,-4.243861437E-1,-4.749337435E-1,-8.496885300E-1
1.465178342E0,-3.914003670E-1,-5.531222224E-1,-8.423583508E-1
1.467639853E0,-3.437542915E-1,-6.471926570E-1,-8.374716043E-1
1.470100530E0,-2.851129472E-1,-7.400414348E-1,-8.435800672E-1
1.472560425E0,-2.289150059E-1,-8.341119289E-1,-8.423583508E-1
1.475021103E0,-1.861557066E-1,-9.306257963E-1,-8.350282311E-1
1.477482613E0,-1.556133330E-1,-1.016144395E0,-8.167027831E-1
1.479943290E0,-1.385096163E-1,-1.100441337E0,-7.910472155E-1
1.482403186E0,-1.421747059E-1,-1.145644069E0,-7.568397522E-1
1.484863915E0,-1.409530044E-1,-1.155417562E0,-7.128587365E-1
1.487325373E0,-1.568350345E-1,-1.187181592E0,-6.626165509E-1
1.489786050E0,-1.861557066E-1,-1.226275921E0,-6.064186096E-1
1.492245998E0,-2.240282297E-1,-1.247044683E0,-5.392253995E-1
1.494706675E0,-2.643441558E-1,-1.286138892E0,-4.561502039E-1
1.497168134E0,-3.303156495E-1,-1.335006714E0,-3.633013964E-1
1.499628863E0,-4.268295169E-1,-1.355775476E0,-2.985515893E-1
1.502088759E0,-5.380037427E-1,-1.300799251E0,-2.667875290E-1
1.504549436E0,-6.687250137E-1,-1.167634487E0,-2.545706034E-1
1.507010946E0,-7.982246280E-1,-9.782719016E-1,-2.399102598E-1
1.509471623E0,-9.228374958E-1,-7.412631512E-1,-2.203631550E-1
1.511931519E0,-1.041494608E0,-4.810422063E-1,-1.971509457E-1
1.514392196E0,-1.144116879E0,-2.195995897E-1,-1.812689304E-1
1.516853707E0,-1.244295835E0,1.985253580E-2,-1.849340051E-1
1.519314384E0,-1.338366389E0,2.214321345E-1,-2.130329758E-1
1.521774280E0,-1.418998241E0,3.680354655E-1,-2.606790662E-1
1.524235009E0,-1.494743228E0,4.865398407E-1,-3.022166789E-1
1.526696467E0,-1.565601468E0,5.696150661E-1,-3.278722763E-1
1.529157144E0,-1.637681484E0,6.099309921E-1,-3.486410677E-1
1.531617040E0,-1.699987888E0,6.404733658E-1,-3.571929336E-1
1.534077769E0,-1.761072636E0,6.514685750E-1,-3.596363366E-1
1.536539228E0,-1.825822473E0,6.551336646E-1,-3.559712470E-1
1.538999957E0,-1.885685444E0,6.575770974E-1,-3.400892019E-1
1.541459853E0,-1.947991967E0,6.673506498E-1,-3.229855001E-1
1.543920530E0,-2.006633282E0,6.893411279E-1,-3.083251417E-1
1.546382040E0,-2.065274477E0,7.174401283E-1,-3.009949923E-1
1.548842717E0,-2.116585732E0,7.540909648E-1,-3.022166789E-1
1.551302613E0,-2.150793314E0,7.944068313E-1,-3.119902313E-1
1.553763290E0,-2.176448822E0,8.286142945E-1,-3.290939629E-1
1.556224800E0,-2.191109180E0,8.518264890E-1,-3.474193811E-1
1.558685478E0,-2.193552494E0,8.603783846E-1,-3.633013964E-1
1.561145373E0,-2.188665628E0,8.628217578E-1,-3.681881726E-1
1.563606050E0,-2.130024433E0,8.542698622E-1,-3.510844707E-1
1.566067561E0,-2.084821701E0,8.322793841E-1,-3.254288733E-1
1.568528238E0,-2.021293640E0,7.931851745E-1,-2.826695740E-1
1.570988134E0,-1.943105102E0,7.418739796E-1,-2.362451702E-1
1.573448863E0,-1.856364846E0,6.893411279E-1,-1.959292591E-1
1.575910321E0,-1.758629203E0,6.368082762E-1,-1.605001241E-1
1.578371050E0,-1.654785275E0,5.818319917E-1,-1.311794519E-1
1.580830946E0,-1.519177079E0,5.170822144E-1,-9.575030953E-2
1.583291623E0,-1.372573733E0,4.523324072E-1,-8.108997345E-2
1.585753134E0,-1.233300567E0,3.839175105E-1,-7.864658535E-2
1.588213811E0,-1.097692490E0,3.130592108E-1,-7.742489129E-2
1.590673707E0,-9.657495022E-1,2.495311052E-1,-7.131642103E-2
1.593134384E0,-8.373188972E-1,1.860029846E-1,-5.909947306E-2
1.595595894E0,-7.175928354E-1,1.285833418E-1,-3.833066672E-2
1.598056571E0,-6.051968932E-1,8.093725890E-2,-1.634016447E-2
1.600516467E0,-5.074613690E-1,3.939964995E-2,-4.581354442E-4
1.602977144E0,-4.268295169E-1,1.130067464E-2,1.786728203E-2
1.605438655E0,-3.657447994E-1,-1.191152167E-2,4.230117425E-2
1.607899332E0,-3.193204105E-1,-1.679829881E-2,7.406523079E-2
1.610359228E0,-2.875563502E-1,-7.024743594E-3,1.070509851E-1
1.612819957E0,-2.692309320E-1,8.857285604E-3,1.449235082E-1
1.615281415E0,-2.619007528E-1,4.184303805E-2,1.913478971E-1
1.617742144E0,-2.753393948E-1,6.383354217E-2,2.707580328E-1
1.620202040E0,-3.034383655E-1,6.994201243E-2,3.733803928E-1
1.622662717E0,-3.400892019E-1,7.238540053E-2,4.613423944E-1
1.625124175E0,-3.755183518E-1,7.971556485E-2,5.358657837E-1
1.627584905E0,-4.048390090E-1,7.971556485E-2,6.103891134E-1
1.630044800E0,-4.292729199E-1,7.360709459E-2,6.775823236E-1
1.632505478E0,-4.414898455E-1,6.383354217E-2,7.398887277E-1
1.634966988E0,-4.390464723E-1,5.039490014E-2,7.973083854E-1
1.637427665E0,-4.268295169E-1,4.062134400E-2,8.535063267E-1
1.639887561E0,-4.036173224E-1,3.817795217E-2,9.060391784E-1
1.642348238E0,-3.755183518E-1,4.184303805E-2,9.536852837E-1
1.644809748E0,-3.437542915E-1,4.184303805E-2,1.003774762E0
1.647270425E0,-3.083251417E-1,4.672981426E-2,1.062416077E0
1.649730321E0,-2.777827978E-1,5.528167635E-2,1.127165914E0
1.652191050E0,-2.472404242E-1,6.261184067E-2,1.199245930E0
1.654652509E0,-2.179197669E-1,5.772506446E-2,1.273769259E0
1.657113238E0,-1.873773932E-1,4.306473210E-2,1.353179336E0
1.659573082E0,-1.556133330E-1,1.740914769E-2,1.437476277E0
1.662033811E0,-1.189625040E-1,-1.557660475E-2,1.522994876E0
1.664495269E0,-8.231166750E-2,-5.589252338E-2,1.608513594E0
1.666955998E0,-3.955236077E-2,-9.132166207E-2,1.689145327E0
1.669415894E0,6.872031838E-3,-1.279724985E-1,1.764890432E0
1.671876571E0,5.696150661E-2,-1.585148573E-1,1.838192105E0
1.674338082E0,1.119377613E-1,-1.841704547E-1,1.904163599E0
1.676798759E0,1.656923145E-1,-2.086043358E-1,1.962804914E0
1.679258655E0,2.267770469E-1,-2.220429778E-1,2.016559601E0
1.681719332E0,2.890834510E-1,-2.281514555E-1,2.061762094E0
1.684180842E0,3.477247953E-1,-2.305948436E-1,2.098412991E0
1.686641519E0,4.051444530E-1,-2.293731421E-1,2.131398916E0
1.689101415E0,4.576773047E-1,-2.257080674E-1,2.159497738E0
1.691562092E0,5.053234100E-1,-2.195995897E-1,2.182709932E0
1.694023603E0,5.529694557E-1,-2.220429778E-1,2.208365440E0
1.696484280E0,5.896202922E-1,-2.220429778E-1,2.232799530E0
1.698944175E0,6.201626658E-1,-2.257080674E-1,2.252346516E0
1.701404905E0,6.592568755E-1,-2.367033064E-1,2.274337053E0
1.703866363E0,6.800256968E-1,-2.489202619E-1,2.292662382E0
1.706327040E0,7.007945180E-1,-2.623589039E-1,2.313431263E0
1.708786936E0,7.178982496E-1,-2.770192325E-1,2.331756592E0
1.711247665E0,7.325585485E-1,-2.941229641E-1,2.356190681E0
1.713709123E0,7.435538173E-1,-3.100049794E-1,2.376959324E0
1.716169853E0,7.459971905E-1,-3.246653080E-1,2.400171518E0
1.718629748E0,7.533273697E-1,-3.381039500E-1,2.424605370E0
1.721090425E0,7.557707429E-1,-3.478775024E-1,2.453926086E0
1.723551936E0,7.618792653E-1,-3.490992188E-1,2.490576982E0
1.726012613E0,7.643226385E-1,-3.442124426E-1,2.529671192E0
1.728472509E0,7.692093849E-1,-3.417690396E-1,2.567543745E0
1.730933186E0,7.740961909E-1,-3.381039500E-1,2.612746477E0
1.733394696E0,7.753179073E-1,-3.344388604E-1,2.657949209E0
1.735855373E0,7.789829373E-1,-3.332171738E-1,2.703151941E0
1.738315269E0,7.887565494E-1,-3.344388604E-1,2.749576330E0
1.740775946E0,7.997517586E-1,-3.405473530E-1,2.793557167E0
1.743237457E0,8.095253110E-1,-3.503209054E-1,2.831429720E0
1.745698134E0,8.229639530E-1,-3.600944579E-1,2.860750437E0
1.748158030E0,8.364025950E-1,-3.723114133E-1,2.883962631E0
1.750618759E0,8.559496999E-1,-3.808632791E-1,2.898622990E0
1.753080217E0,8.718317747E-1,-3.869717419E-1,2.903509617E0
1.755540946E0,8.913788795E-1,-3.918585181E-1,2.897401333E0
1.758000790E0,9.158127308E-1,-3.894151151E-1,2.885184288E0
1.760461519E0,9.402466416E-1,-3.881934285E-1,2.861972094E0
1.762922978E0,9.646805525E-1,-3.955236077E-1,2.822877884E0
1.765383707E0,9.915578365E-1,-3.967452943E-1,2.782562017E0
1.767843603E0,1.015991688E0,-3.918585181E-1,2.745911121E0
1.770304280E0,1.042868972E0,-3.833066523E-1,2.708038568E0
1.772765790E0,1.066081166E0,-3.674246371E-1,2.665279388E0
1.775226467E0,1.089293361E0,-3.466558158E-1,2.626185179E0
1.777686363E0,1.116170645E0,-3.295520842E-1,2.583425760E0
1.780147040E0,1.136939406E0,-3.124483824E-1,2.534558058E0
1.782608550E0,1.156486630E0,-2.977880239E-1,2.483246803E0
1.785069228E0,1.168703556E0,-2.819060087E-1,2.428270578E0
1.787529123E0,1.182142138E0,-2.611372173E-1,2.372072697E0
1.789989800E0,1.190693974E0,-2.403683960E-1,2.318318129E0
1.792451311E0,1.198024154E0,-2.183778882E-1,2.264563560E0
1.794911988E0,1.198024154E0,-1.853921413E-1,2.216917515E0
1.797371884E0,1.196802497E0,-1.499630064E-1,2.172936440E0
1.799832561E0,1.190693974E0,-1.120904684E-1,2.132620573E0
1.802294071E0,1.176033735E0,-7.177454978E-2,2.100856543E0
1.804754748E0,1.158929944E0,-3.145863488E-2,2.070314169E0
1.807214644E0,1.138161182E0,5.192201585E-3,2.045880079E0
1.809675373E0,1.111283898E0,3.817795217E-2,2.025111437E0
1.812136832E0,1.078298092E0,6.505523622E-2,2.009229422E0
1.814597561E0,1.041647315E0,8.093725890E-2,2.000677586E0
1.817057457E0,1.001331329E0,8.582404256E-2,1.994569063E0
1.819518134E0,9.597937465E-1,7.971556485E-2,1.993347287E0
1.821979644E0,9.145910740E-1,5.650337040E-2,1.987238884E0
1.824440321E0,8.669449687E-1,2.840439789E-2,1.986017108E0
1.826900217E0,8.192988634E-1,-1.191152167E-2,1.983573794E0
1.829360894E0,7.704311013E-1,-5.589252338E-2,1.990903974E0
1.831822405E0,7.288935184E-1,-1.035386100E-1,1.998234153E0
1.834283082E0,6.849125028E-1,-1.524063945E-1,2.005564213E0
1.836742978E0,6.470399499E-1,-2.037175596E-1,2.012894392E0
1.839203655E0,6.116108298E-1,-2.501419485E-1,2.020224571E0
1.841665165E0,5.786250830E-1,-2.819060087E-1,2.026333094E0
1.844125842E0,5.444176197E-1,-3.051182032E-1,2.027554750E0
1.846585738E0,5.138752460E-1,-3.185568452E-1,2.029998064E0
1.849046415E0,4.857762754E-1,-3.185568452E-1,2.029998064E0
1.851507925E0,4.625640810E-1,-3.100049794E-1,2.025111437E0
1.853968603E0,4.417952895E-1,-2.953446507E-1,2.015337706E0
1.856428498E0,4.259132445E-1,-2.757975459E-1,2.006785870E0
1.858889228E0,4.088095427E-1,-2.648022771E-1,1.989682198E0
1.861350686E0,3.965925872E-1,-2.525853515E-1,1.967691779E0
1.863811415E0,3.868190348E-1,-2.452551723E-1,1.942036152E0
1.866271311E0,3.819322586E-1,-2.428117841E-1,1.910272121E0
1.868731988E0,3.807105422E-1,-2.452551723E-1,1.873621225E0
1.871193446E0,3.831539452E-1,-2.562504113E-1,1.829640269E0
1.873654175E0,3.868190348E-1,-2.648022771E-1,1.781994224E0
1.876114071E0,3.978142738E-1,-2.782409191E-1,1.731904745E0
1.878574748E0,4.063661397E-1,-2.892361879E-1,1.676928401E0
1.881036259E0,4.222481549E-1,-2.953446507E-1,1.620730519E0
1.883496936E0,4.356867969E-1,-2.965663373E-1,1.562089205E0
1.885956832E0,4.515688419E-1,-2.880144715E-1,1.505891204E0
1.888417509E0,4.650074840E-1,-2.684673667E-1,1.446028233E0
1.890879019E0,4.784461260E-1,-2.391466945E-1,1.383721709E0
1.893339696E0,4.869979918E-1,-2.000524700E-1,1.323858738E0
1.895799592E0,4.931064546E-1,-1.548497826E-1,1.265217423E0
1.898260269E0,4.918847680E-1,-1.010952219E-1,1.206575990E0
1.900721780E0,4.906630516E-1,-4.734066129E-2,1.150378108E0
1.903182457E0,4.796678126E-1,5.192201585E-3,1.097845197E0
1.905642353E0,4.686725736E-1,4.306473210E-2,1.048977494E0
1.908103082E0,4.479037523E-1,7.116370648E-2,1.001331329E0
1.910564540E0,4.234698713E-1,8.338065445E-2,9.585720897E-1
1.913025217E0,3.953709006E-1,8.338065445E-2,9.194778204E-1
1.915485113E0,3.648285270E-1,6.872031838E-2,8.816053271E-1
1.917945842E0,3.306210935E-1,4.428642616E-2,8.498412371E-1
1.920407300E0,2.903051674E-1,1.252236869E-2,8.205205798E-1
1.922868030E0,2.475458533E-1,-2.535016090E-2,7.936432958E-1
1.925327925E0,2.060082406E-1,-6.444438547E-2,7.692093849E-1
1.927788603E0,1.669140160E-1,-1.096470803E-1,7.472189069E-1
1.930250113E0,1.180462316E-1,-1.536280811E-1,7.288935184E-1
1.932710790E0,7.528692484E-2,-1.976090819E-1,7.117897868E-1
1.935170686E0,3.374931216E-2,-2.415900975E-1,6.897992492E-1
1.937631363E0,-1.145338640E-2,-2.770192325E-1,6.702521443E-1
1.940092873E0,-5.299099907E-2,-3.014531136E-1,6.470399499E-1
1.942553550E0,-9.086353332E-2,-3.173351586E-1,6.116108298E-1
1.945013446E0,-1.238492802E-1,-3.295520842E-1,5.627430081E-1
1.947474123E0,-1.409530044E-1,-3.478775024E-1,5.309789777E-1
1.949935634E0,-1.421747059E-1,-3.539859951E-1,5.212054253E-1
1.952396311E0,-1.360662282E-1,-3.490992188E-1,5.285356045E-1
1.954856207E0,-1.226275861E-1,-3.417690396E-1,5.554128885E-1
1.957316884E0,-1.116323397E-1,-3.307738006E-1,6.128324866E-1
1.959778394E0,-9.819369763E-2,-3.124483824E-1,6.885775924E-1
1.962239071E0,-8.231166750E-2,-2.880144715E-1,7.728744745E-1
1.964698967E0,-6.154286116E-2,-2.623589039E-1,8.425110579E-1
1.967159696E0,-4.077405483E-2,-2.342599183E-1,8.913788795E-1
1.969621155E0,-2.489202656E-2,-2.098260373E-1,9.109259844E-1
1.972081884E0,-9.009997360E-3,-1.902789176E-1,9.048175216E-1
1.974541728E0,-2.901524538E-3,-1.426328421E-1,8.620582223E-1
1.977002457E0,-2.901524538E-3,-4.367557913E-2,7.814263701E-1
1.979463915E0,-2.901524538E-3,4.184303805E-2,6.983511448E-1
1.981924644E0,-9.009997360E-3,1.041494608E-1,6.189410090E-1
1.984384540E0,-2.000524849E-2,1.310267299E-1,5.529694557E-1
1.986845217E0,-3.344388679E-2,1.236965731E-1,5.041016936E-1
1.989306675E0,-4.688252881E-2,9.559759498E-2,4.747810364E-1
1.991767405E0,-5.299099907E-2,5.161659420E-2,4.698942602E-1
1.994227300E0,-6.032116711E-2,-7.024743594E-3,4.906630516E-1
1.996687978E0,-6.765133142E-2,-6.810946763E-2,5.309789777E-1
1.999149488E0,-7.864658535E-2,-1.206423342E-1,5.835118294E-1
2.001610165E0,-9.330692142E-2,-1.475196183E-1,6.519267559E-1
2.004070061E0,-1.006370857E-1,-1.609582454E-1,7.313368917E-1
2.006530738E0,-1.018587798E-1,-1.609582454E-1,8.192988634E-1
2.008992248E0,-1.055238619E-1,-1.401894391E-1,9.023740888E-1
2.011452925E0,-1.030804738E-1,-9.620844573E-2,9.817842841E-1
2.013912821E0,-1.018587798E-1,-4.734066129E-2,1.052642584E0
2.016373498E0,-9.086353332E-2,3.054236295E-4,1.113727212E0
2.018835009E0,-7.864658535E-2,5.283828825E-2,1.156486630E0
2.021295686E0,-7.009471953E-2,1.029277667E-1,1.183363795E0
2.023755582E0,-6.520794332E-2,1.542389393E-1,1.194359064E0
2.026216311E0,-6.887302548E-2,1.969982386E-1,1.193137407E0
2.028677769E0,-8.842013776E-2,2.299840003E-1,1.185807228E0
2.031138446E0,-1.067455560E-1,2.483094037E-1,1.176033735E0
2.033598342E0,-1.165191159E-1,2.593046725E-1,1.168703556E0
2.036059071E0,-1.262926757E-1,2.556395829E-1,1.167481780E0
2.038520530E0,-1.433963925E-1,2.446443290E-1,1.182142138E0
2.040981259E0,-1.605001241E-1,2.263189107E-1,1.200467587E0
2.043441103E0,-1.763821393E-1,2.055501044E-1,1.226123214E0
2.045901832E0,-1.824906170E-1,1.737860441E-1,1.260330558E0
2.048363290E0,-1.849340051E-1,1.530172378E-1,1.300646544E0
2.050824019E0,-1.824906170E-1,1.591257155E-1,1.329967141E0
2.053283915E0,-1.861557066E-1,1.603474021E-1,1.351957679E0
2.055744592E0,-2.093679011E-1,1.261399537E-1,1.356844425E0
2.058206050E0,-2.313583940E-1,7.971556485E-2,1.339740753E0
2.060666780E0,-2.570139766E-1,6.505523622E-2,1.299424887E0
2.063126675E0,-2.496838123E-1,7.971556485E-2,1.246891975E0
2.065587353E0,-2.264716178E-1,1.127013192E-1,1.187028885E0
2.068048863E0,-1.885990947E-1,1.493521482E-1,1.128387570E0
2.070509540E0,-1.372879148E-1,1.933331639E-1,1.079519868E0
2.072969436E0,-7.498150319E-2,2.250972092E-1,1.035538793E0
2.075430113E0,7.635590737E-4,2.312056869E-1,1.004996419E0
2.077891623E0,8.994726092E-2,2.092151791E-1,9.891144037E-1
2.080352300E0,1.766875684E-1,1.579040140E-1,9.817842841E-1
2.082812196E0,2.719797492E-1,8.093725890E-2,9.768974781E-1
2.085272873E0,3.611634374E-1,-9.162708884E-4,9.720106721E-1
2.087734384E0,4.320217371E-1,-9.254335612E-2,9.756757617E-1
2.090195061E0,5.028799772E-1,-1.951656938E-1,9.927794933E-1
2.092654957E0,5.639647245E-1,-3.002314270E-1,1.015991688E0
2.095115686E0,6.091674566E-1,-3.894151151E-1,1.040425539E0
2.097577144E0,6.433748603E-1,-4.724903405E-1,1.070967913E0
2.100037821E0,6.739172339E-1,-5.470137000E-1,1.099066973E0
2.102497717E0,6.971294284E-1,-6.068767309E-1,1.132052660E0
2.104958446E0,7.117897868E-1,-6.520794630E-1,1.165038466E0
2.107419905E0,7.178982496E-1,-6.850652099E-1,1.200467587E0
2.109880582E0,7.313368917E-1,-7.070556879E-1,1.235896707E0
2.112340478E0,7.325585485E-1,-7.241594195E-1,1.272547603E0
2.114801207E0,7.276718020E-1,-7.327113152E-1,1.317750216E0
2.117262665E0,7.252284288E-1,-7.314895988E-1,1.366618037E0
2.119723394E0,7.203416228E-1,-7.266027927E-1,1.420372605E0
2.122183290E0,7.130114436E-1,-7.143858671E-1,1.477792263E0
2.124643967E0,7.069029808E-1,-6.936170459E-1,1.532768488E0
2.127105478E0,7.093463540E-1,-6.679614782E-1,1.587744713E0
2.129566155E0,7.130114436E-1,-6.386408210E-1,1.650051117E0
2.132026050E0,7.117897868E-1,-6.080984473E-1,1.722131133E0
2.134486728E0,7.154548764E-1,-5.958815217E-1,1.802762985E0
2.136948238E0,7.215633392E-1,-5.861079693E-1,1.898055196E0
2.139408915E0,7.337802649E-1,-5.861079693E-1,1.999455810E0
2.141868811E0,7.545490861E-1,-5.934380889E-1,2.111851692E0
2.144329488E0,7.667660117E-1,-6.044333577E-1,2.225469351E0
2.146790998E0,7.863131166E-1,-6.300889254E-1,2.342751980E0
2.149251675E0,8.083036542E-1,-6.630746722E-1,2.464921474E0
2.151711571E0,8.339592218E-1,-7.070556879E-1,2.585869074E0
2.154172248E0,8.376243114E-1,-7.583668828E-1,2.697043419E0
2.156633759E0,8.437327743E-1,-8.108997345E-1,2.802109003E0
2.159094436E0,8.583931327E-1,-8.536590338E-1,2.894957781E0
2.161554332E0,8.754968047E-1,-8.793146014E-1,2.975589752E0
2.164015009E0,9.048175216E-1,-9.025267959E-1,3.052556515E0
2.166476519E0,9.231429100E-1,-9.098569751E-1,3.128301620E0
2.168937196E0,9.329164624E-1,-9.074136019E-1,3.213820219E0
2.171397092E0,9.255862832E-1,-8.988617659E-1,3.311555624E0
2.173857821E0,9.206995368E-1,-8.768712282E-1,3.425173283E0
2.176319280E0,8.999307156E-1,-8.780929446E-1,3.543677568E0
2.178779957E0,8.608365059E-1,-9.025267959E-1,3.660960436E0
2.181239853E0,7.948650122E-1,-9.403993487E-1,3.781908035E0
2.183700582E0,7.178982496E-1,-9.746068120E-1,3.904077530E0
2.186162040E0,6.543701291E-1,-1.006370902E0,4.032355309E0
2.188622769E0,6.201626658E-1,-1.012479305E0,4.165520191E0
2.191082613E0,6.079457402E-1,-9.123004079E-1,4.288911343E0
2.193543342E0,5.810684562E-1,-7.351546884E-1,4.374429703E0
2.196004800E0,5.358657837E-1,-5.335750580E-1,4.424519539E0
2.198465530E0,4.442386627E-1,-3.197785318E-1,4.457505226E0
2.200925425E0,3.257342875E-1,-1.438545287E-1,4.481938839E0
2.203386103E0,1.986780763E-1,-1.557660475E-2,4.505151272E0
2.205847613E0,7.284353673E-2,5.528167635E-2,4.527141571E0
2.208308290E0,-3.588727489E-2,9.193251282E-2,4.551575661E0
2.210768186E0,-9.941539168E-2,1.078145429E-1,4.565014362E0
2.213228863E0,-1.067455560E-1,1.236965731E-1,4.568679333E0
2.215690373E0,-6.765133142E-2,1.701209545E-1,4.569900990E0
2.218151050E0,-1.389677543E-2,2.483094037E-1,4.547910690E0
2.220610946E0,3.619270027E-2,3.533751369E-1,4.467278481E0
2.223071623E0,9.972081333E-2,4.046863019E-1,4.310901642E0
2.225533134E0,2.389939874E-1,3.191677034E-1,4.163076878E0
2.227993811E0,3.794888556E-1,1.249182671E-1,4.049458981E0
2.230453707E0,5.529694557E-1,-2.257080674E-1,3.939506769E0
2.232914384E0,7.154548764E-1,-6.142069101E-1,3.910186052E0
2.235375894E0,8.327375054E-1,-8.817580342E-1,3.919959545E0
2.237836571E0,9.072608948E-1,-9.904888272E-1,3.919959545E0
2.240296467E0,9.732323885E-1,-9.684983492E-1,3.923624754E0
2.242757144E0,1.025765300E0,-8.719844818E-1,3.913851023E0
2.245218655E0,1.046534061E0,-7.742488980E-1,3.877200365E0
2.247679332E0,1.039203882E0,-7.058340311E-1,3.819780588E0
2.250139228E0,1.044090629E0,-6.862868667E-1,3.761139393E0
2.252599957E0,1.041647315E0,-7.632536292E-1,3.692724466E0
2.255061415E0,1.053864241E0,-9.110786915E-1,3.626752853E0
2.257522092E0,1.062416077E0,-1.082115889E0,3.565668106E0
2.259981988E0,1.059972763E0,-1.250709772E0,3.505805016E0
2.262442717E0,1.057529330E0,-1.438850760E0,3.431281805E0
2.264904175E0,1.073411345E0,-1.631878495E0,3.353093386E0
2.267364905E0,1.101510286E0,-1.805359125E0,3.229702234E0
2.269824748E0,1.158929944E0,-1.960514307E0,3.050112963E0
2.272285478E0,1.224901438E0,-2.072910070E0,2.831429720E0
2.274746936E0,1.301868200E0,-2.131551504E0,2.607859612E0
2.277207665E0,1.370283127E0,-2.140103340E0,2.385511160E0
2.279667509E0,1.416707516E0,-2.088792086E0,2.172936440E0
2.282128238E0,1.431367874E0,-1.982504725E0,1.970135093E0
2.284589748E0,1.417929173E0,-1.829792976E0,1.780772448E0
2.287050425E0,1.375169873E0,-1.650203824E0,1.603626728E0
2.289510321E0,1.294538021E0,-1.451067686E0,1.433811188E0
2.291970998E0,1.185807228E0,-1.234827757E0,1.283542752E0
2.294432509E0,1.059972763E0,-1.018587828E0,1.144269586E0
2.296893186E0,9.182561636E-1,-8.267817497E-1,1.018435121E0
2.299353082E0,7.667660117E-1,-6.325323582E-1,9.097042680E-1
2.301813759E0,6.177192926E-1,-4.333961308E-1,8.131904006E-1
2.304275269E0,4.808894992E-1,-2.232646793E-1,7.301151752E-1
2.306735946E0,3.648285270E-1,-2.168507688E-2,6.641436815E-1
2.309195842E0,2.756448388E-1,1.664558798E-1,6.189410090E-1
2.311656519E0,2.157817930E-1,3.252761662E-1,5.810684562E-1
2.314118030E0,1.718007922E-1,4.450022280E-1,5.517477989E-1
2.316578707E0,1.461452097E-1,5.231906772E-1,5.407525301E-1
2.319038603E0,1.351499557E-1,5.610632300E-1,5.444176197E-1
2.321499280E0,1.339282542E-1,5.476245880E-1,5.554128885E-1
2.323960790E0,1.400367320E-1,4.853181541E-1,5.761816502E-1
2.326421467E0,1.449235082E-1,3.875826001E-1,6.079457402E-1
2.328881363E0,1.473668963E-1,2.605263591E-1,6.421532035E-1
2.331342040E0,1.412584335E-1,1.200314835E-1,6.641436815E-1
2.333803550E0,1.302631795E-1,-5.803049076E-3,6.653653979E-1
2.336264228E0,1.119377613E-1,-1.023169160E-1,6.384881139E-1
2.338724123E0,9.483403713E-2,-1.609582454E-1,5.774033666E-1
2.341184800E0,7.773031294E-2,-1.792836636E-1,4.906630516E-1
2.343646311E0,7.895200700E-2,-1.658450365E-1,4.002576768E-1
2.346106988E0,7.895200700E-2,-1.279724985E-1,3.147390485E-1
2.348566884E0,8.750387281E-2,-8.032641560E-2,2.402156889E-1
2.351027561E0,9.605573118E-2,-3.390202299E-2,1.742441803E-1
2.353489071E0,1.021642014E-1,3.970507067E-3,1.241547018E-1
2.355949748E0,9.849911928E-2,3.695625812E-2,8.261708915E-2
2.358409644E0,8.139539510E-2,6.383354217E-2,4.596625641E-2
2.360870373E0,5.818320066E-2,8.215895295E-2,1.298050396E-2
2.363331832E0,2.519745007E-2,9.681928903E-2,-2.000524849E-2
2.365792509E0,-9.009997360E-3,9.681928903E-2,-7.131642103E-2
2.368252405E0,-3.955236077E-2,8.093725890E-2,-1.311794519E-1
2.370713134E0,-5.299099907E-2,5.161659420E-2,-1.763821393E-1
2.373174592E0,-5.176930502E-2,1.130067464E-2,-1.910424829E-1
2.375635321E0,-4.077405483E-2,-3.390202299E-2,-1.849340051E-1
2.378095217E0,-1.511846948E-2,-8.032641560E-2,-1.605001241E-1
2.380555894E0,1.985253533E-3,-1.194206402E-1,-1.409530044E-1
2.383017353E0,6.872031838E-3,-1.536280811E-1,-1.348445266E-1
2.385478082E0,6.872031838E-3,-1.988307834E-1,-1.324011385E-1
2.387937978E0,6.872031838E-3,-2.525853515E-1,-1.262926757E-1
2.390398655E0,1.985253533E-3,-2.977880239E-1,-1.226275861E-1
2.392860165E0,-6.566607859E-3,-3.319954872E-1,-1.177408099E-1
2.395320842E0,-1.756185852E-2,-3.552076817E-1,-1.152974218E-1
2.397780738E0,-3.588727489E-2,-3.698680103E-1,-1.104106456E-1
2.400241415E0,-5.543438718E-2,-3.747547865E-1,-1.043021679E-1
2.402702873E0,-7.620319724E-2,-3.747547865E-1,-1.018587798E-1
2.405163603E0,-9.575030953E-2,-3.686463237E-1,-9.819369763E-2
2.407623498E0,-1.116323397E-1,-3.600944579E-1,-9.452861547E-2
2.410084175E0,-1.299577504E-1,-3.466558158E-1,-9.208522737E-2
2.412545686E0,-1.421747059E-1,-3.319954872E-1,-9.208522737E-2
2.415006363E0,-1.458397806E-1,-3.148917556E-1,-9.086353332E-2
2.417466259E0,-1.507265568E-1,-3.002314270E-1,-9.819369763E-2
2.419926936E0,-1.507265568E-1,-2.806843221E-1,-1.018587798E-1
2.422388446E0,-1.458397806E-1,-2.599155009E-1,-1.067455560E-1
2.424849123E0,-1.421747059E-1,-2.342599183E-1,-1.079672500E-1
2.427309019E0,-1.336228400E-1,-2.061609477E-1,-9.819369763E-2
2.429769696E0,-1.299577504E-1,-1.841704547E-1,-8.842013776E-2
2.432231207E0,-1.226275861E-1,-1.609582454E-1,-7.375980914E-2
2.434691884E0,-1.214058921E-1,-1.389677525E-1,-5.543438718E-2
2.437151780E0,-1.238492802E-1,-1.243074164E-1,-3.833066672E-2
2.439612457E0,-1.275143623E-1,-1.120904684E-1,-2.122694254E-2
2.442073967E0,-1.299577504E-1,-9.865183383E-2,7.635590737E-4
2.444534644E0,-1.385096163E-1,-8.399149776E-2,1.664558798E-2
2.446994540E0,-1.433963925E-1,-6.444438547E-2,3.008422814E-2
2.449455217E0,-1.568350345E-1,-4.367557913E-2,2.886253223E-2
2.451916728E0,-1.702736765E-1,-1.557660475E-2,2.031067200E-2
2.454377405E0,-1.788255423E-1,1.496575773E-2,1.542389300E-2
2.456837300E0,-1.812689304E-1,4.672981426E-2,1.664558798E-2
2.459297978E0,-1.763821393E-1,7.116370648E-2,2.153236605E-2
2.461759488E0,-1.702736765E-1,9.315420687E-2,3.008422814E-2
2.464220165E0,-1.629435122E-1,1.139230132E-1,4.230117425E-2
2.466680061E0,-1.531699449E-1,1.261399537E-1,5.207473040E-2
2.469140738E0,-1.446180940E-1,1.285833418E-1,5.818320066E-2
2.471602248E0,-1.372879148E-1,1.310267299E-1,6.184828654E-2
2.474062925E0,-1.336228400E-1,1.334701329E-1,6.429167092E-2
2.476522821E0,-1.336228400E-1,1.273616552E-1,5.818320066E-2
2.478983498E0,-1.348445266E-1,1.163664013E-1,4.718795046E-2
2.481445009E0,-1.385096163E-1,9.315420687E-2,3.497100621E-2
2.483905686E0,-1.409530044E-1,6.627693027E-2,2.886253223E-2
2.486365582E0,-1.421747059E-1,3.329117596E-2,3.374931216E-2
2.488826311E0,-1.409530044E-1,1.527118147E-3,4.352286831E-2
2.491287769E0,-1.360662282E-1,-2.535016090E-2,5.573981255E-2
2.493748498E0,-1.287360638E-1,-4.978405312E-2,6.673506647E-2
2.496208342E0,-1.189625040E-1,-7.910472155E-2,6.917845458E-2
2.498669071E0,-1.091889441E-1,-1.072036922E-1,6.795676053E-2
2.501130530E0,-9.575030953E-2,-1.340809762E-1,6.673506647E-2
2.503591259E0,-8.108997345E-2,-1.597365588E-1,6.062658876E-2
2.506051103E0,-6.398624927E-2,-1.805053651E-1,5.329642445E-2
2.508511832E0,-5.054761097E-2,-1.988307834E-1,4.596625641E-2
2.510973290E0,-3.710897267E-2,-2.134911120E-1,3.741439432E-2
2.513434019E0,-2.367033064E-2,-2.208212912E-1,3.008422814E-2
2.515893915E0,-1.389677543E-2,-2.269297540E-1,2.275406010E-2
2.518354592E0,7.635590737E-4,-2.281514555E-1,1.786728203E-2
2.520816050E0,9.315420873E-3,-2.257080674E-1,1.053711493E-2
2.523276780E0,2.031067200E-2,-2.220429778E-1,5.650337320E-3
2.525736675E0,2.641914412E-2,-2.220429778E-1,7.635590737E-4
2.528197353E0,3.252761811E-2,-2.281514555E-1,-5.344913341E-3
2.530658863E0,3.252761811E-2,-2.220429778E-1,-1.023169141E-2
2.533119540E0,2.886253223E-2,-2.122694254E-1,-1.389677543E-2
2.535579436E0,2.153236605E-2,-2.024958730E-1,-1.878355257E-2
2.538040113E0,1.298050396E-2,-1.890572309E-1,-1.878355257E-2
2.540501623E0,1.985253533E-3,-1.817270666E-1,-2.000524849E-2
2.542962300E0,-7.788302377E-3,-1.756185889E-1,-1.878355257E-2
2.545422196E0,-1.756185852E-2,-1.670667231E-1,-1.878355257E-2
2.547882873E0,-2.855710872E-2,-1.597365588E-1,-2.122694254E-2
2.550344384E0,-3.466558084E-2,-1.511846930E-1,-1.756185852E-2
2.552805061E0,-3.955236077E-2,-1.438545287E-1,-1.756185852E-2
2.555264957E0,-4.077405483E-2,-1.401894391E-1,-1.511846948E-2
2.557725634E0,-4.077405483E-2,-1.365243644E-1,-1.511846948E-2
2.560187144E0,-3.710897267E-2,-1.328592747E-1,-1.389677543E-2
2.562647821E0,-3.588727489E-2,-1.255291104E-1,-1.634016447E-2
2.565107717E0,-3.100049868E-2,-1.218640283E-1,-1.634016447E-2
2.567568394E0,-2.733541466E-2,-1.181989461E-1,-9.009997360E-3
2.570029905E0,-2.000524849E-2,-1.133121699E-1,-4.581354442E-4
2.572490582E0,-1.267508045E-2,-1.120904684E-1,3.206948051E-3
2.574950478E0,-1.023169141E-2,-1.145338640E-1,1.985253533E-3
2.577411155E0,-1.389677543E-2,-1.120904684E-1,5.650337320E-3
2.579872665E0,-1.511846948E-2,-1.120904684E-1,1.053711493E-2
2.582333342E0,-1.878355257E-2,-1.157555580E-1,1.908897609E-2
2.584793238E0,-2.122694254E-2,-1.206423342E-1,2.397575416E-2
2.587253915E0,-2.611372061E-2,-1.206423342E-1,3.252761811E-2
2.589715425E0,-3.222219273E-2,-1.181989461E-1,3.741439432E-2
2.592176103E0,-4.199574888E-2,-1.059819981E-1,3.741439432E-2
2.594635998E0,-4.932591692E-2,-1.023169160E-1,4.963133857E-2
2.597096675E0,-5.421269313E-2,-9.987352788E-2,6.184828654E-2
2.599558186E0,-6.154286116E-2,-9.743013978E-2,5.696150661E-2
2.602018863E0,-6.765133142E-2,-9.498675168E-2,4.596625641E-2
2.604478759E0,-7.253811508E-2,-9.376505762E-2,3.619270027E-2
2.606939436E0,-7.864658535E-2,-9.254335612E-2,2.519745007E-2
2.609400946E0,-8.231166750E-2,-9.498675168E-2,1.175880991E-2
2.611861623E0,-7.742489129E-2,-1.023169160E-1,1.985253533E-3
2.614321519E0,-5.909947306E-2,-1.243074164E-1,-2.901524538E-3
2.616782196E0,-6.032116711E-2,-1.181989461E-1,-1.511846948E-2
2.619243707E0,-8.475505561E-2,-8.399149776E-2,-1.511846948E-2
2.621704384E0,-1.079672500E-1,-5.833591148E-2,-5.344913341E-3
2.624164280E0,-1.189625040E-1,-5.344913527E-2,1.053711493E-2
2.626624957E0,-1.201841980E-1,-5.100574717E-2,3.130592033E-2
2.629086467E0,-1.152974218E-1,-4.978405312E-2,5.451811850E-2
2.631547144E0,-1.104106456E-1,-4.367557913E-2,7.162184268E-2
2.634007040E0,-1.043021679E-1,-4.001049697E-2,6.917845458E-2
2.636467717E0,-1.055238619E-1,-3.756710514E-2,6.062658876E-2
2.638929228E0,-1.116323397E-1,-4.123219103E-2,4.963133857E-2
2.641389905E0,-1.189625040E-1,-4.489727318E-2,4.718795046E-2
2.643849800E0,-1.226275861E-1,-4.367557913E-2,5.085303262E-2
2.646310478E0,-1.238492802E-1,-4.367557913E-2,5.940489471E-2
2.648771988E0,-1.226275861E-1,-4.489727318E-2,6.429167092E-2
2.651232665E0,-1.238492802E-1,-3.878879920E-2,6.429167092E-2
2.653692561E0,-1.201841980E-1,-3.634541109E-2,6.306997687E-2
2.656153290E0,-1.177408099E-1,-3.145863488E-2,6.062658876E-2
2.658614748E0,-1.152974218E-1,-2.901524492E-2,5.818320066E-2
2.661075478E0,-1.140757278E-1,-2.779355086E-2,5.696150661E-2
2.663535321E0,-1.079672500E-1,-2.657185495E-2,5.696150661E-2
2.665996050E0,-1.067455560E-1,-1.924168877E-2,5.696150661E-2
2.668457509E0,-1.043021679E-1,-9.468132630E-3,5.696150661E-2
2.670918238E0,-1.006370857E-1,1.527118147E-3,5.329642445E-2
2.673378082E0,-9.697200358E-2,1.130067464E-2,5.207473040E-2
2.675838811E0,-9.452861547E-2,1.496575773E-2,4.840964451E-2
2.678300269E0,-8.842013776E-2,1.985253580E-2,4.474456236E-2
2.680760998E0,-8.597674966E-2,2.473931387E-2,4.107947648E-2
2.683220842E0,-8.108997345E-2,2.718270384E-2,3.863608837E-2
2.685681571E0,-7.742489129E-2,3.084778599E-2,3.497100621E-2
2.688143030E0,-7.620319724E-2,3.206948191E-2,3.008422814E-2
2.690603759E0,-7.375980914E-2,3.451287001E-2,2.641914412E-2
2.693063603E0,-7.253811508E-2,3.451287001E-2,2.275406010E-2
2.695524332E0,-7.131642103E-2,3.695625812E-2,1.908897609E-2
2.697985790E0,-7.131642103E-2,4.062134400E-2,1.664558798E-2
2.700446519E0,-6.887302548E-2,3.939964995E-2,1.420219894E-2
2.702906363E0,-6.642963737E-2,3.817795217E-2,1.053711493E-2
2.705367092E0,-6.642963737E-2,3.573456407E-2,6.872031838E-3
2.707828550E0,-6.276455522E-2,3.451287001E-2,3.206948051E-3
2.710289280E0,-6.398624927E-2,3.206948191E-2,-4.581354442E-4
2.712749175E0,-6.398624927E-2,3.084778599E-2,-2.901524538E-3
2.715209853E0,-6.276455522E-2,2.962609194E-2,-2.901524538E-3
2.717671311E0,-6.276455522E-2,3.206948191E-2,-4.123218823E-3
2.720132040E0,-6.276455522E-2,3.329117596E-2,-6.566607859E-3
2.722591936E0,-6.154286116E-2,3.451287001E-2,-7.788302377E-3
2.725052613E0,-6.520794332E-2,3.451287001E-2,-9.009997360E-3
2.727514071E0,-6.398624927E-2,3.573456407E-2,-1.145338640E-2
2.729974800E0,-6.276455522E-2,3.329117596E-2,-1.756185852E-2
2.732434696E0,-6.276455522E-2,3.695625812E-2,-1.634016447E-2
2.734895373E0,-5.909947306E-2,3.817795217E-2,-1.634016447E-2
2.737356832E0,-5.787777901E-2,4.062134400E-2,-1.756185852E-2
2.739817561E0,-5.909947306E-2,3.939964995E-2,-1.634016447E-2
2.742277457E0,-5.787777901E-2,3.695625812E-2,-1.389677543E-2
2.744738134E0,-6.154286116E-2,3.573456407E-2,-1.511846948E-2
2.747199592E0,-6.642963737E-2,3.451287001E-2,-1.878355257E-2
2.749660321E0,-7.009471953E-2,3.695625812E-2,-1.634016447E-2
2.752120217E0,-7.498150319E-2,3.451287001E-2,-1.634016447E-2
2.754580894E0,-7.742489129E-2,3.573456407E-2,-2.000524849E-2
2.757042405E0,-7.742489129E-2,3.695625812E-2,-2.000524849E-2
2.759503082E0,-7.742489129E-2,3.939964995E-2,-1.756185852E-2
2.761962978E0,-7.498150319E-2,4.306473210E-2,-1.756185852E-2
2.764423655E0,-7.620319724E-2,4.550812021E-2,-1.878355257E-2
2.766885165E0,-7.864658535E-2,4.550812021E-2,-1.756185852E-2
2.769345842E0,-8.108997345E-2,5.161659420E-2,-1.756185852E-2
2.771805738E0,-8.231166750E-2,5.650337040E-2,-1.878355257E-2
2.774266415E0,-8.597674966E-2,6.627693027E-2,-1.878355257E-2
2.776727925E0,-8.842013776E-2,6.994201243E-2,-2.000524849E-2
2.779188603E0,-9.086353332E-2,7.238540053E-2,-2.000524849E-2
2.781648498E0,-9.330692142E-2,7.360709459E-2,-2.367033064E-2
2.784109175E0,-9.208522737E-2,7.482878864E-2,-2.367033064E-2
2.786570686E0,-9.819369763E-2,7.482878864E-2,-2.122694254E-2
2.789031363E0,-9.697200358E-2,6.994201243E-2,-1.634016447E-2
2.791491259E0,-9.452861547E-2,6.872031838E-2,-1.511846948E-2
2.793951936E0,-9.575030953E-2,7.238540053E-2,-1.267508045E-2
2.796413446E0,-9.697200358E-2,7.605048269E-2,-1.267508045E-2
2.798874123E0,-9.575030953E-2,8.338065445E-2,-1.145338640E-2
2.801334019E0,-9.575030953E-2,8.948912472E-2,-1.389677543E-2
2.803794696E0,-9.819369763E-2,9.315420687E-2,-1.634016447E-2
2.806256207E0,-1.018587798E-1,1.017060652E-1,-1.389677543E-2
2.808716884E0,-9.941539168E-2,1.078145429E-1,-1.389677543E-2
2.811176780E0,-9.819369763E-2,1.249182671E-1,-1.389677543E-2
2.813637457E0,-9.819369763E-2,1.371352077E-1,-1.511846948E-2
2.816098967E0,-9.941539168E-2,1.481304616E-1,-1.511846948E-2
2.818559644E0,-1.018587798E-1,1.542389393E-1,-1.634016447E-2
2.821019540E0,-1.067455560E-1,1.603474021E-1,-1.634016447E-2
2.823480217E0,-1.055238619E-1,1.640124917E-1,-1.511846948E-2
2.825941728E0,-1.030804738E-1,1.676775664E-1,-1.634016447E-2
2.828402405E0,-1.018587798E-1,1.737860441E-1,-1.511846948E-2
2.830862300E0,-9.575030953E-2,1.774511337E-1,-1.267508045E-2
2.833322978E0,-8.964183182E-2,1.774511337E-1,-1.023169141E-2
2.835784488E0,-8.475505561E-2,1.774511337E-1,-9.009997360E-3
2.838245165E0,-7.864658535E-2,1.774511337E-1,-6.566607859E-3
2.840705061E0,-7.864658535E-2,1.786728203E-1,-6.566607859E-3
2.843165738E0,-7.620319724E-2,1.811162084E-1,-9.009997360E-3
2.845627248E0,-7.253811508E-2,1.884463727E-1,-9.009997360E-3
2.848087925E0,-6.642963737E-2,1.921114624E-1,-1.267508045E-2
2.850547821E0,-6.154286116E-2,2.043284029E-1,-1.023169141E-2
2.853008498E0,-4.810422286E-2,2.177670449E-1,-6.566607859E-3
2.855470009E0,-3.588727489E-2,2.299840003E-1,-2.901524538E-3
2.857930686E0,-2.489202656E-2,2.409792393E-1,1.985253533E-3
2.860390582E0,-1.267508045E-2,2.458660156E-1,4.428642802E-3
2.862851259E0,-5.344913341E-3,2.507528067E-1,4.428642802E-3
2.865312769E0,7.635590737E-4,2.483094037E-1,4.428642802E-3
2.867773446E0,4.428642802E-3,2.373141646E-1,3.206948051E-3
2.870233342E0,7.635590737E-4,2.214321345E-1,3.206948051E-3
2.872694019E0,-6.566607859E-3,2.043284029E-1,7.635590737E-4
2.875155530E0,-1.878355257E-2,1.847812980E-1,-4.581354442E-4
2.877616207E0,-3.466558084E-2,1.688992679E-1,-2.901524538E-3
2.880076103E0,-5.299099907E-2,1.505738497E-1,-4.581354442E-4
2.882536780E0,-6.887302548E-2,1.322484314E-1,1.985253533E-3
2.884998290E0,-8.108997345E-2,1.163664013E-1,6.872031838E-3
2.887458967E0,-9.086353332E-2,1.004843712E-1,1.053711493E-2
2.889918863E0,-9.330692142E-2,8.704573661E-2,1.175880991E-2
2.892379540E0,-8.964183182E-2,7.849387079E-2,1.420219894E-2
2.894841050E0,-7.986827940E-2,7.605048269E-2,1.175880991E-2
2.897301728E0,-7.253811508E-2,7.971556485E-2,5.650337320E-3
2.899761623E0,-5.909947306E-2,8.826743066E-2,7.635590737E-4
2.902222300E0,-5.421269313E-2,9.681928903E-2,-4.123218823E-3
2.904683811E0,-4.688252881E-2,1.090362370E-1,-1.267508045E-2
2.907144488E0,-4.321744293E-2,1.188097894E-1,-2.000524849E-2
2.909604384E0,-4.199574888E-2,1.285833418E-1,-2.855710872E-2
2.912065061E0,-4.199574888E-2,1.432436854E-1,-3.344388679E-2
2.914526571E0,-4.443913698E-2,1.615691036E-1,-3.466558084E-2
2.916987248E0,-4.566083103E-2,1.688992679E-1,-4.077405483E-2
2.919447144E0,-4.688252881E-2,1.786728203E-1,-4.566083103E-2
2.921907821E0,-4.688252881E-2,1.884463727E-1,-4.810422286E-2
2.924369332E0,-4.443913698E-2,1.969982386E-1,-5.299099907E-2
2.926830009E0,-3.833066672E-2,2.055501044E-1,-5.543438718E-2
2.929289905E0,-3.588727489E-2,2.141019702E-1,-5.909947306E-2
2.931750582E0,-3.222219273E-2,2.214321345E-1,-6.520794332E-2
2.934212092E0,-2.733541466E-2,2.275405973E-1,-6.765133142E-2
2.936672769E0,-2.489202656E-2,2.348707765E-1,-7.009471953E-2
2.939132665E0,-2.244863659E-2,2.397575527E-1,-7.131642103E-2
2.941593342E0,-2.244863659E-2,2.385358512E-1,-7.253811508E-2
2.944054853E0,-2.244863659E-2,2.385358512E-1,-7.009471953E-2
2.946515530E0,-2.611372061E-2,2.360924631E-1,-6.520794332E-2
2.948975425E0,-2.977880463E-2,2.299840003E-1,-6.154286116E-2
2.951436103E0,-3.466558084E-2,2.238755226E-1,-6.032116711E-2
2.953897613E0,-4.077405483E-2,2.177670449E-1,-5.421269313E-2
2.956358290E0,-4.932591692E-2,2.092151791E-1,-4.688252881E-2
2.958818186E0,-5.665608495E-2,2.018850148E-1,-4.566083103E-2
2.961278863E0,-6.398624927E-2,1.933331639E-1,-4.199574888E-2
2.963740373E0,-7.009471953E-2,1.872246861E-1,-3.955236077E-2
2.966201050E0,-7.620319724E-2,1.811162084E-1,-4.077405483E-2
2.968660946E0,-8.108997345E-2,1.860029846E-1,-3.955236077E-2
2.971121623E0,-8.231166750E-2,1.921114624E-1,-3.833066672E-2
2.973583134E0,-8.475505561E-2,1.957765520E-1,-3.955236077E-2
2.976043811E0,-8.964183182E-2,2.067717910E-1,-4.566083103E-2
2.978503707E0,-8.842013776E-2,2.189887464E-1,-4.566083103E-2
2.980964384E0,-8.964183182E-2,2.299840003E-1,-4.443913698E-2
2.983425894E0,-9.208522737E-2,2.446443290E-1,-4.688252881E-2
2.985886571E0,-8.964183182E-2,2.568612695E-1,-4.688252881E-2
2.988346467E0,-8.964183182E-2,2.666348219E-1,-5.054761097E-2
2.990807144E0,-8.964183182E-2,2.788517773E-1,-5.054761097E-2
2.993268655E0,-8.842013776E-2,2.886253297E-1,-5.421269313E-2
2.995729332E0,-8.597674966E-2,2.996205688E-1,-5.543438718E-2
2.998189228E0,-8.353336155E-2,3.093941510E-1,-5.665608495E-2
3.000649905E0,-8.108997345E-2,3.179459870E-1,-5.909947306E-2
3.003111415E0,-7.864658535E-2,3.240544796E-1,-6.032116711E-2
3.005572092E0,-7.498150319E-2,3.264978528E-1,-6.154286116E-2
3.008031988E0,-7.253811508E-2,3.350497186E-1,-6.154286116E-2
3.010492665E0,-6.765133142E-2,3.387148082E-1,-6.154286116E-2
3.012954175E0,-6.276455522E-2,3.411581814E-1,-6.154286116E-2
3.015414853E0,-5.909947306E-2,3.436015844E-1,-6.154286116E-2
3.017874748E0,-5.909947306E-2,3.423798978E-1,-6.642963737E-2
3.020335425E0,-5.054761097E-2,3.472666740E-1,-6.642963737E-2
3.022796936E0,-4.810422286E-2,3.472666740E-1,-6.520794332E-2
3.025257613E0,-4.566083103E-2,3.484883606E-1,-6.642963737E-2
3.027717509E0,-4.443913698E-2,3.460449576E-1,-6.398624927E-2
3.030178186E0,-4.077405483E-2,3.448232710E-1,-6.276455522E-2
3.032639696E0,-3.710897267E-2,3.411581814E-1,-5.909947306E-2
3.035100373E0,-3.588727489E-2,3.374931216E-1,-5.665608495E-2
3.037560269E0,-3.222219273E-2,3.301629424E-1,-5.176930502E-2
3.040020946E0,-2.977880463E-2,3.240544796E-1,-4.932591692E-2
3.042482457E0,-3.222219273E-2,3.179459870E-1,-4.443913698E-2
3.044943134E0,-2.855710872E-2,3.045073450E-1,-3.955236077E-2
3.047403030E0,-3.344388679E-2,2.947337925E-1,-3.588727489E-2
3.049863707E0,-3.466558084E-2,2.874036431E-1,-2.611372061E-2
3.052325217E0,-3.466558084E-2,2.751866877E-1,-2.122694254E-2
3.054785894E0,-3.588727489E-2,2.629697323E-1,-1.634016447E-2
3.057245790E0,-3.710897267E-2,2.544178963E-1,-1.145338640E-2
3.059706467E0,-3.710897267E-2,2.470877171E-1,-6.566607859E-3
3.062167978E0,-3.833066672E-2,2.373141646E-1,-4.123218823E-3
3.064628655E0,-3.710897267E-2,2.263189107E-1,-2.901524538E-3
3.067088550E0,-3.588727489E-2,2.165453583E-1,-4.581354442E-4
3.069549228E0,-3.710897267E-2,2.116585821E-1,3.206948051E-3
3.072010738E0,-3.466558084E-2,2.031067163E-1,3.206948051E-3
3.074471415E0,-3.466558084E-2,1.957765520E-1,1.985253533E-3
3.076931311E0,-3.466558084E-2,1.921114624E-1,-4.581354442E-4
3.079391988E0,-3.222219273E-2,1.860029846E-1,-4.123218823E-3
3.081853498E0,-2.977880463E-2,1.798945218E-1,-7.788302377E-3
3.084314175E0,-2.977880463E-2,1.774511337E-1,-1.023169141E-2
3.086774071E0,-2.733541466E-2,1.713426560E-1,-1.023169141E-2
3.089234748E0,-2.367033064E-2,1.640124917E-1,-1.511846948E-2
3.091696259E0,-2.122694254E-2,1.591257155E-1,-1.756185852E-2
3.094156936E0,-1.756185852E-2,1.530172378E-1,-2.122694254E-2
3.096616832E0,-1.511846948E-2,1.444653720E-1,-2.489202656E-2
3.099077509E0,-1.389677543E-2,1.383569092E-1,-2.977880463E-2
3.101539019E0,-1.023169141E-2,1.285833418E-1,-3.344388679E-2
3.103999696E0,-5.344913341E-3,1.200314835E-1,-3.710897267E-2
3.106459592E0,-1.679830020E-3,1.102579311E-1,-3.833066672E-2
3.108920269E0,1.985253533E-3,1.017060652E-1,-4.199574888E-2
3.111381780E0,3.206948051E-3,9.315420687E-2,-4.321744293E-2
3.113842457E0,5.650337320E-3,8.338065445E-2,-4.443913698E-2
3.116302353E0,1.175880991E-2,7.360709459E-2,-4.443913698E-2
3.118763030E0,1.053711493E-2,6.139015034E-2,-4.810422286E-2
3.121224540E0,1.175880991E-2,5.161659420E-2,-4.932591692E-2
3.123685217E0,1.420219894E-2,4.062134400E-2,-4.810422286E-2
3.126145113E0,1.786728203E-2,3.206948191E-2,-4.810422286E-2
3.128605790E0,1.908897609E-2,2.229592577E-2,-4.688252881E-2
3.131067300E0,2.153236605E-2,1.130067464E-2,-4.688252881E-2
3.133527978E0,2.275406010E-2,2.748812549E-3,-4.566083103E-2
3.135987873E0,2.397575416E-2,-7.024743594E-3,-4.321744293E-2
3.138448550E0,2.764083818E-2,-1.801999472E-2,-4.199574888E-2
3.140910061E0,2.519745007E-2,-2.535016090E-2,-3.833066672E-2
3.143370738E0,2.275406010E-2,-3.512371704E-2,-3.466558084E-2
3.145830634E0,2.153236605E-2,-4.367557913E-2,-3.100049868E-2
3.148291311E0,2.153236605E-2,-5.222744122E-2,-2.855710872E-2
3.150752821E0,2.031067200E-2,-6.077930331E-2,-2.611372061E-2
3.153213498E0,1.786728203E-2,-6.810946763E-2,-2.122694254E-2
3.155673394E0,1.664558798E-2,-7.421794534E-2,-1.878355257E-2
3.158134071E0,1.298050396E-2,-7.910472155E-2,-1.756185852E-2
3.160595582E0,1.175880991E-2,-8.521319181E-2,-1.511846948E-2
3.163056259E0,6.872031838E-3,-8.765657991E-2,-1.267508045E-2
3.165516155E0,6.872031838E-3,-9.009996802E-2,-1.145338640E-2
3.167976832E0,1.985253533E-3,-9.254335612E-2,-1.389677543E-2
3.170438342E0,-4.581354442E-4,-9.376505762E-2,-1.389677543E-2
3.172899019E0,-1.679830020E-3,-9.254335612E-2,-1.389677543E-2
3.175358915E0,-4.123218823E-3,-9.376505762E-2,-1.389677543E-2
3.177819592E0,-6.566607859E-3,-9.376505762E-2,-1.145338640E-2
3.180281103E0,-6.566607859E-3,-9.254335612E-2,-1.267508045E-2
3.182741780E0,-6.566607859E-3,-9.254335612E-2,-1.389677543E-2
3.185201675E0,-9.009997360E-3,-9.132166207E-2,-1.389677543E-2
3.187662353E0,-1.145338640E-2,-8.887827396E-2,-1.511846948E-2
3.190123863E0,-1.145338640E-2,-9.132166207E-2,-1.634016447E-2
3.192584540E0,-1.145338640E-2,-9.254335612E-2,-1.511846948E-2
3.195044436E0,-1.389677543E-2,-9.132166207E-2,-1.389677543E-2
3.197505113E0,-1.511846948E-2,-9.009996802E-2,-9.009997360E-3
3.199966623E0,-1.634016447E-2,-9.254335612E-2,-5.344913341E-3
3.202427300E0,-1.878355257E-2,-9.498675168E-2,-4.123218823E-3
3.204887196E0,-2.122694254E-2,-9.620844573E-2,-1.679830020E-3
3.207347873E0,-2.367033064E-2,-9.498675168E-2,7.635590737E-4
3.209809384E0,-2.733541466E-2,-9.376505762E-2,4.428642802E-3
3.212270061E0,-2.855710872E-2,-9.009996802E-2,6.872031838E-3
3.214729957E0,-2.977880463E-2,-8.765657991E-2,8.093725890E-3
3.217190634E0,-3.100049868E-2,-8.276980370E-2,9.315420873E-3
3.219652144E0,-3.100049868E-2,-7.543963939E-2,8.093725890E-3
3.222112821E0,-3.222219273E-2,-6.810946763E-2,9.315420873E-3
3.224572717E0,-2.977880463E-2,-5.955760926E-2,8.093725890E-3
3.227033394E0,-2.977880463E-2,-4.978405312E-2,8.093725890E-3
3.229494905E0,-3.222219273E-2,-4.245388508E-2,6.872031838E-3
3.231955582E0,-2.855710872E-2,-3.268032894E-2,8.093725890E-3
3.234415478E0,-2.611372061E-2,-2.168507688E-2,8.093725890E-3
3.236876155E0,-2.733541466E-2,-1.313321572E-2,5.650337320E-3
3.239337665E0,-2.611372061E-2,-2.137965523E-3,8.093725890E-3
3.241798342E0,-2.611372061E-2,7.635590620E-3,9.315420873E-3
3.244258238E0,-2.855710872E-2,1.252236869E-2,6.872031838E-3
3.246718915E0,-2.611372061E-2,1.985253580E-2,8.093725890E-3
3.249180425E0,-2.733541466E-2,2.840439789E-2,1.053711493E-2
3.251641103E0,-2.611372061E-2,3.084778599E-2,9.315420873E-3
3.254100998E0,-2.611372061E-2,3.573456407E-2,9.315420873E-3
3.256561675E0,-2.122694254E-2,4.184303805E-2,1.053711493E-2
3.259023134E0,-2.000524849E-2,4.672981426E-2,1.053711493E-2
3.261483863E0,-1.756185852E-2,5.405998230E-2,1.053711493E-2
3.263943759E0,-1.634016447E-2,5.894676223E-2,9.315420873E-3
3.266404436E0,-1.389677543E-2,6.383354217E-2,9.315420873E-3
3.268865894E0,-1.145338640E-2,6.872031838E-2,9.315420873E-3
3.271326623E0,-9.009997360E-3,7.482878864E-2,9.315420873E-3
3.273786467E0,-7.788302377E-3,7.727217674E-2,8.093725890E-3
3.276247196E0,-6.566607859E-3,8.093725890E-2,6.872031838E-3
3.278708655E0,-4.123218823E-3,8.460234851E-2,5.650337320E-3
3.281169384E0,-4.581354442E-4,8.826743066E-2,5.650337320E-3
3.283629228E0,1.985253533E-3,8.948912472E-2,8.093725890E-3
3.286089957E0,3.206948051E-3,9.193251282E-2,6.872031838E-3
3.288551415E0,5.650337320E-3,9.071081877E-2,5.650337320E-3
3.291012144E0,6.872031838E-3,9.071081877E-2,8.093725890E-3
3.293471988E0,9.315420873E-3,9.193251282E-2,9.315420873E-3
3.295932717E0,9.315420873E-3,8.826743066E-2,9.315420873E-3
3.298394175E0,1.298050396E-2,8.704573661E-2,9.315420873E-3
3.300854853E0,9.315420873E-3,8.704573661E-2,1.053711493E-2
3.303314748E0,9.315420873E-3,8.460234851E-2,1.053711493E-2
3.305775478E0,1.175880991E-2,8.093725890E-2,1.175880991E-2
3.308236936E0,9.315420873E-3,7.727217674E-2,1.298050396E-2
3.310697613E0,8.093725890E-3,7.238540053E-2,1.298050396E-2
3.313157509E0,4.428642802E-3,7.238540053E-2,1.420219894E-2
3.315618238E0,3.206948051E-3,6.994201243E-2,1.542389300E-2
3.318079696E0,4.428642802E-3,6.627693027E-2,1.664558798E-2
3.320540373E0,1.985253533E-3,6.505523622E-2,1.786728203E-2
3.323000269E0,7.635590737E-4,6.261184067E-2,1.786728203E-2
3.325460998E0,-1.679830020E-3,6.261184067E-2,2.031067200E-2
3.327922457E0,-2.901524538E-3,5.772506446E-2,2.153236605E-2
3.330383134E0,-4.123218823E-3,5.528167635E-2,2.275406010E-2
3.332843030E0,-5.344913341E-3,5.283828825E-2,2.519745007E-2
3.335303759E0,-7.788302377E-3,5.039490014E-2,2.519745007E-2
3.337765217E0,-7.788302377E-3,4.672981426E-2,2.641914412E-2
3.340225894E0,-1.023169141E-2,4.306473210E-2,2.764083818E-2
3.342685790E0,-1.267508045E-2,4.184303805E-2,2.764083818E-2
3.345146519E0,-1.389677543E-2,3.939964995E-2,3.008422814E-2
3.347607978E0,-1.511846948E-2,3.695625812E-2,3.252761811E-2
3.350068655E0,-1.756185852E-2,3.817795217E-2,3.130592033E-2
3.352528550E0,-1.878355257E-2,3.939964995E-2,3.130592033E-2
3.354989280E0,-2.122694254E-2,4.062134400E-2,3.130592033E-2
3.357450738E0,-2.122694254E-2,4.184303805E-2,3.130592033E-2
3.359911415E0,-2.122694254E-2,4.184303805E-2,3.252761811E-2
3.362371311E0,-2.122694254E-2,4.550812021E-2,3.374931216E-2
3.364831988E0,-2.122694254E-2,4.672981426E-2,3.130592033E-2
3.367293498E0,-2.244863659E-2,5.161659420E-2,3.252761811E-2
3.369754175E0,-2.244863659E-2,5.405998230E-2,3.252761811E-2
3.372214071E0,-1.878355257E-2,5.772506446E-2,3.252761811E-2
3.374674748E0,-2.000524849E-2,5.772506446E-2,3.252761811E-2
3.377136259E0,-2.000524849E-2,5.894676223E-2,3.252761811E-2
3.379596936E0,-2.000524849E-2,6.261184067E-2,3.374931216E-2
3.382056832E0,-2.000524849E-2,6.383354217E-2,3.252761811E-2
3.384517509E0,-2.122694254E-2,6.749862432E-2,3.374931216E-2
3.386979019E0,-2.611372061E-2,6.749862432E-2,2.886253223E-2
3.389439696E0,-2.489202656E-2,7.360709459E-2,3.252761811E-2
3.391899592E0,-1.389677543E-2,6.994201243E-2,3.497100621E-2
3.394360269E0,-1.634016447E-2,6.994201243E-2,3.497100621E-2
3.396821780E0,-1.511846948E-2,7.116370648E-2,3.497100621E-2
3.399282457E0,-1.389677543E-2,7.116370648E-2,3.497100621E-2
3.401742353E0,-1.511846948E-2,7.116370648E-2,3.619270027E-2
3.404203030E0,-1.023169141E-2,6.994201243E-2,3.619270027E-2
3.406664540E0,-1.023169141E-2,6.994201243E-2,3.741439432E-2
3.409125217E0,-9.009997360E-3,6.872031838E-2,3.985778242E-2
3.411585113E0,-6.566607859E-3,6.872031838E-2,4.107947648E-2
3.414045790E0,-5.344913341E-3,6.749862432E-2,3.985778242E-2
3.416507300E0,-5.344913341E-3,6.627693027E-2,4.107947648E-2
3.418967978E0,-4.123218823E-3,6.749862432E-2,4.230117425E-2
3.421427873E0,-5.344913341E-3,6.872031838E-2,4.474456236E-2
3.423888550E0,-2.901524538E-3,6.994201243E-2,4.596625641E-2
3.426350061E0,-5.344913341E-3,6.994201243E-2,4.718795046E-2
3.428810738E0,-5.344913341E-3,7.238540053E-2,4.840964451E-2
3.431270634E0,-5.344913341E-3,7.360709459E-2,4.840964451E-2
3.433731311E0,-5.344913341E-3,7.482878864E-2,5.085303262E-2
3.436192769E0,-5.344913341E-3,7.605048269E-2,5.207473040E-2
3.438653498E0,-7.788302377E-3,7.605048269E-2,5.085303262E-2
3.441113394E0,-1.023169141E-2,7.482878864E-2,5.085303262E-2
3.443574071E0,-1.145338640E-2,7.482878864E-2,5.207473040E-2
3.446035582E0,-1.267508045E-2,7.482878864E-2,5.451811850E-2
3.448496259E0,-1.389677543E-2,7.238540053E-2,5.573981255E-2
3.450956155E0,-1.756185852E-2,7.116370648E-2,5.818320066E-2
3.453416832E0,-2.244863659E-2,6.872031838E-2,6.062658876E-2
3.455878290E0,-2.367033064E-2,6.627693027E-2,6.184828654E-2
3.458339019E0,-2.733541466E-2,6.383354217E-2,6.184828654E-2
3.460798915E0,-2.977880463E-2,6.383354217E-2,6.184828654E-2
3.463259592E0,-3.222219273E-2,6.261184067E-2,6.429167092E-2
3.465721050E0,-3.588727489E-2,6.016845629E-2,6.306997687E-2
3.468181780E0,-3.710897267E-2,6.016845629E-2,6.306997687E-2
3.470641623E0,-4.077405483E-2,5.894676223E-2,6.306997687E-2
3.473102353E0,-4.321744293E-2,5.894676223E-2,6.551336497E-2
3.475563811E0,-4.688252881E-2,5.528167635E-2,6.306997687E-2
3.478024540E0,-4.932591692E-2,5.894676223E-2,6.306997687E-2
3.480484436E0,-5.176930502E-2,5.528167635E-2,6.184828654E-2
3.482945113E0,-5.299099907E-2,5.528167635E-2,6.306997687E-2
3.485406571E0,-5.299099907E-2,5.650337040E-2,6.306997687E-2
3.487867248E0,-5.543438718E-2,5.772506446E-2,6.184828654E-2
3.490327144E0,-5.665608495E-2,5.650337040E-2,6.062658876E-2
3.492787873E0,-5.787777901E-2,5.405998230E-2,6.062658876E-2
3.495249332E0,-5.665608495E-2,5.405998230E-2,6.062658876E-2
3.497710009E0,-5.787777901E-2,5.405998230E-2,5.940489471E-2
3.500169905E0,-5.787777901E-2,5.528167635E-2,6.062658876E-2
3.502630582E0,-5.787777901E-2,5.405998230E-2,6.306997687E-2
3.505092092E0,-5.665608495E-2,5.283828825E-2,6.306997687E-2
3.507552821E0,-5.787777901E-2,5.161659420E-2,6.429167092E-2
3.510012665E0,-6.032116711E-2,5.161659420E-2,6.429167092E-2
3.512473342E0,-5.909947306E-2,5.283828825E-2,6.795676053E-2
3.514934853E0,-6.032116711E-2,5.161659420E-2,6.795676053E-2
3.517395530E0,-6.032116711E-2,5.161659420E-2,6.917845458E-2
3.519855425E0,-6.032116711E-2,5.039490014E-2,7.162184268E-2
3.522316103E0,-6.154286116E-2,5.161659420E-2,7.284353673E-2
3.524777613E0,-6.276455522E-2,5.161659420E-2,7.528692484E-2
3.527238290E0,-6.398624927E-2,5.283828825E-2,7.773031294E-2
3.529698186E0,-6.398624927E-2,5.283828825E-2,7.895200700E-2
3.532158863E0,-6.398624927E-2,5.039490014E-2,8.017370105E-2
3.534620373E0,-6.276455522E-2,4.672981426E-2,8.261708915E-2
3.537081050E0,-6.276455522E-2,4.428642616E-2,8.383878320E-2
3.539540946E0,-6.398624927E-2,4.184303805E-2,8.750387281E-2
3.542001623E0,-6.520794332E-2,3.817795217E-2,8.994726092E-2
3.544463134E0,-6.398624927E-2,3.329117596E-2,8.994726092E-2
3.546923811E0,-6.642963737E-2,3.329117596E-2,9.239064902E-2
3.549383707E0,-6.765133142E-2,3.084778599E-2,9.483403713E-2
3.551844384E0,-6.765133142E-2,2.718270384E-2,9.483403713E-2
3.554305894E0,-6.765133142E-2,2.473931387E-2,9.849911928E-2
3.556766571E0,-6.887302548E-2,2.229592577E-2,1.009425074E-1
3.559226467E0,-7.009471953E-2,1.863084175E-2,1.021642014E-1
3.561687144E0,-7.131642103E-2,1.618745178E-2,1.033858955E-1
3.564148655E0,-7.131642103E-2,1.374406368E-2,1.058292910E-1
3.566609332E0,-7.253811508E-2,8.857285604E-3,1.082726792E-1
3.569069228E0,-7.375980914E-2,6.413896102E-3,1.082726792E-1
3.571529905E0,-7.375980914E-2,5.192201585E-3,1.107160673E-1
3.573991415E0,-7.375980914E-2,2.748812549E-3,1.156028435E-1
3.576452092E0,-7.375980914E-2,-9.162708884E-4,1.156028435E-1
3.578911988E0,-7.375980914E-2,-4.581354558E-3,1.143811494E-1
3.581372665E0,-7.742489129E-2,-7.024743594E-3,1.156028435E-1
3.583834175E0,-7.742489129E-2,-8.246437646E-3,1.168245375E-1
3.586294853E0,-7.742489129E-2,-9.468132630E-3,1.180462316E-1
3.588754748E0,-7.742489129E-2,-1.191152167E-2,1.192679256E-1
3.591215425E0,-7.742489129E-2,-1.557660475E-2,1.217113137E-1
3.593676936E0,-7.620319724E-2,-1.801999472E-2,1.229330078E-1
3.596137613E0,-7.620319724E-2,-2.290677279E-2,1.241547018E-1
3.598597509E0,-7.620319724E-2,-2.412846684E-2,1.253764033E-1
3.601058186E0,-7.742489129E-2,-2.657185495E-2,1.253764033E-1
3.603519644E0,-7.620319724E-2,-2.779355086E-2,1.265980899E-1
3.605980373E0,-7.620319724E-2,-3.145863488E-2,1.278197914E-1
3.608440269E0,-7.498150319E-2,-3.512371704E-2,1.302631795E-1
3.610900946E0,-7.620319724E-2,-3.756710514E-2,1.302631795E-1
3.613362405E0,-7.742489129E-2,-4.123219103E-2,1.314848661E-1
3.615823134E0,-7.620319724E-2,-4.489727318E-2,1.327065676E-1
3.618282978E0,-7.620319724E-2,-4.978405312E-2,1.351499557E-1
3.620743707E0,-7.498150319E-2,-5.833591148E-2,1.375933439E-1
3.623205165E0,-6.642963737E-2,-7.910472155E-2,1.424801201E-1
3.625665842E0,-6.398624927E-2,-9.254335612E-2,1.437018216E-1
3.628125738E0,-6.520794332E-2,-9.498675168E-2,1.473668963E-1
3.630586467E0,-6.520794332E-2,-9.620844573E-2,1.473668963E-1
3.633047925E0,-6.642963737E-2,-9.620844573E-2,1.498102844E-1
3.635508603E0,-6.765133142E-2,-9.620844573E-2,1.522536725E-1
3.637968498E0,-6.642963737E-2,-9.254335612E-2,1.571404636E-1
3.640429228E0,-6.276455522E-2,-9.132166207E-2,1.632489264E-1
3.642890686E0,-5.299099907E-2,-8.521319181E-2,1.718007922E-1
3.645351363E0,-4.688252881E-2,-8.032641560E-2,1.815743446E-1
3.647811259E0,-4.321744293E-2,-8.276980370E-2,1.876828223E-1
3.650271936E0,-4.199574888E-2,-8.765657991E-2,1.913478971E-1
3.652733446E0,-4.566083103E-2,-8.765657991E-2,1.889045089E-1
3.655194123E0,-4.688252881E-2,-9.009996802E-2,1.901262105E-1
3.657654019E0,-4.932591692E-2,-8.887827396E-2,1.901262105E-1
3.660114696E0,-4.810422286E-2,-9.254335612E-2,1.901262105E-1
3.662576207E0,-5.054761097E-2,-9.743013978E-2,1.901262105E-1
3.665036884E0,-4.810422286E-2,-9.865183383E-2,1.937913001E-1
3.667496780E0,-4.688252881E-2,-1.035386100E-1,1.937913001E-1
3.669957457E0,-4.321744293E-2,-1.072036922E-1,1.937913001E-1
3.672418967E0,-3.833066672E-2,-1.084253863E-1,1.937913001E-1
3.674879644E0,-3.710897267E-2,-1.133121699E-1,1.925695986E-1
3.677339540E0,-3.344388679E-2,-1.157555580E-1,1.913478971E-1
3.679800217E0,-3.100049868E-2,-1.194206402E-1,1.901262105E-1
3.682261728E0,-2.977880463E-2,-1.267508119E-1,1.889045089E-1
3.684722405E0,-2.733541466E-2,-1.340809762E-1,1.864611208E-1
3.687182300E0,-2.122694254E-2,-1.414111406E-1,1.864611208E-1
3.689642978E0,-2.000524849E-2,-1.475196183E-1,1.840177327E-1
3.692104488E0,-1.511846948E-2,-1.548497826E-1,1.827960461E-1
3.694565165E0,-1.267508045E-2,-1.646233350E-1,1.791309565E-1
3.697025061E0,-7.788302377E-3,-1.731752008E-1,1.779092699E-1
3.699485738E0,-5.344913341E-3,-1.817270666E-1,1.766875684E-1
3.701947248E0,-2.901524538E-3,-1.902789176E-1,1.742441803E-1
3.704407925E0,-4.581354442E-4,-1.976090819E-1,1.742441803E-1
3.706867821E0,-4.581354442E-4,-2.024958730E-1,1.705790907E-1
3.709328498E0,7.635590737E-4,-2.098260373E-1,1.681357026E-1
3.711790009E0,-1.679830020E-3,-2.159345001E-1,1.656923145E-1
3.714250686E0,-4.581354442E-4,-2.208212912E-1,1.620272398E-1
3.716710582E0,-4.123218823E-3,-2.232646793E-1,1.608055383E-1
3.719171259E0,-5.344913341E-3,-2.281514555E-1,1.583621502E-1
3.721632717E0,-1.145338640E-2,-2.318165302E-1,1.534753740E-1
3.724093446E0,-1.511846948E-2,-2.330382317E-1,1.510319859E-1
3.726553342E0,-2.000524849E-2,-2.379250079E-1,1.461452097E-1
3.729014019E0,-2.489202656E-2,-2.391466945E-1,1.437018216E-1
3.731475478E0,-2.977880463E-2,-2.440334857E-1,1.424801201E-1
3.733936207E0,-3.588727489E-2,-2.476985604E-1,1.400367320E-1
3.736396050E0,-4.199574888E-2,-2.501419485E-1,1.388150454E-1
3.738856780E0,-5.054761097E-2,-2.513636351E-1,1.363716573E-1
3.741318238E0,-5.543438718E-2,-2.538070381E-1,1.363716573E-1
3.743778967E0,-6.276455522E-2,-2.586938143E-1,1.339282542E-1
3.746238811E0,-6.887302548E-2,-2.611372173E-1,1.339282542E-1
3.748699540E0,-7.620319724E-2,-2.648022771E-1,1.314848661E-1
3.751160998E0,-8.231166750E-2,-2.660239935E-1,1.314848661E-1
3.753621675E0,-9.208522737E-2,-2.672456801E-1,1.314848661E-1
3.756081571E0,-9.819369763E-2,-2.709107697E-1,1.302631795E-1
3.758542300E0,-1.079672500E-1,-2.709107697E-1,1.302631795E-1
3.761003759E0,-1.201841980E-1,-2.684673667E-1,1.278197914E-1
3.763464436E0,-1.275143623E-1,-2.684673667E-1,1.278197914E-1
3.765924332E0,-1.397313178E-1,-2.660239935E-1,1.278197914E-1
3.768385061E0,-1.519482583E-1,-2.623589039E-1,1.265980899E-1
3.770846519E0,-1.629435122E-1,-2.599155009E-1,1.253764033E-1
3.773307196E0,-1.763821393E-1,-2.562504113E-1,1.241547018E-1
3.775767092E0,-1.910424829E-1,-2.538070381E-1,1.217113137E-1
3.778227769E0,-2.044811249E-1,-2.513636351E-1,1.217113137E-1
3.780689280E0,-2.203631550E-1,-2.489202619E-1,1.204896197E-1
3.783149957E0,-2.362451702E-1,-2.464768738E-1,1.192679256E-1
3.785609853E0,-2.509055138E-1,-2.452551723E-1,1.192679256E-1
3.788070530E0,-2.680092454E-1,-2.452551723E-1,1.168245375E-1
3.790532040E0,-2.863346636E-1,-2.464768738E-1,1.143811494E-1
3.792992717E0,-3.058817685E-1,-2.452551723E-1,1.107160673E-1
3.795452613E0,-3.229855001E-1,-2.428117841E-1,1.119377613E-1
3.797913290E0,-3.413109183E-1,-2.367033064E-1,1.082726792E-1
3.800374800E0,-3.620797098E-1,-2.367033064E-1,1.021642014E-1
3.802835478E0,-3.865135908E-1,-2.342599183E-1,9.972081333E-2
3.805295373E0,-4.072824121E-1,-2.293731421E-1,9.727742523E-2
3.807756050E0,-4.304946065E-1,-2.244863659E-1,9.116895497E-2
3.810217561E0,-4.573718905E-1,-2.171562016E-1,8.750387281E-2
3.812678238E0,-4.891359508E-1,-2.122694254E-1,8.139539510E-2
3.815138134E0,-5.123481154E-1,-2.037175596E-1,8.017370105E-2
3.817598811E0,-5.428904891E-1,-2.000524700E-1,7.528692484E-2
3.820060321E0,-5.758762360E-1,-1.963873953E-1,6.795676053E-2
3.822520998E0,-6.088619828E-1,-1.915006191E-1,6.184828654E-2
3.824980894E0,-6.442911625E-1,-1.902789176E-1,5.573981255E-2
3.827441571E0,-6.846070886E-1,-1.853921413E-1,4.840964451E-2
3.829903030E0,-7.224795818E-1,-1.768402755E-1,3.863608837E-2
3.832363759E0,-7.615737915E-1,-1.646233350E-1,2.886253223E-2
3.834823655E0,-8.043331504E-1,-1.511846930E-1,1.786728203E-2
3.837284332E0,-8.507575393E-1,-1.353026628E-1,3.206948051E-3
3.839745790E0,-9.008470178E-1,-1.157555580E-1,-1.145338640E-2
3.842206519E0,-9.510892034E-1,-9.498675168E-2,-2.855710872E-2
3.844666363E0,-1.003622055E0,-7.055285573E-2,-4.566083103E-2
3.847127092E0,-1.059819937E0,-4.245388508E-2,-6.276455522E-2
3.849588550E0,-1.118461370E0,-1.557660475E-2,-7.864658535E-2
3.852049228E0,-1.180767775E0,1.374406368E-2,-9.452861547E-2
3.854509123E0,-1.241852522E0,3.573456407E-2,-1.140757278E-1
3.856969853E0,-1.307824016E0,5.772506446E-2,-1.360662282E-1
3.859431311E0,-1.375017166E0,7.238540053E-2,-1.556133330E-1
3.861891988E0,-1.444653749E0,8.460234851E-2,-1.763821393E-1
3.864351884E0,-1.510625243E0,9.193251282E-2,-1.959292591E-1
3.866812561E0,-1.575375080E0,8.582404256E-2,-2.215848416E-1
3.869274071E0,-1.641346574E0,7.360709459E-2,-2.447970361E-1
3.871734748E0,-1.704874754E0,5.283828825E-2,-2.692309320E-1
3.874194644E0,-1.768402815E0,3.451287001E-2,-2.973299026E-1
3.876655321E0,-1.834374309E0,1.863084175E-2,-3.254288733E-1
3.879116832E0,-1.902789235E0,1.007897966E-2,-3.571929336E-1
3.881577509E0,-1.966317296E0,1.527118147E-3,-3.914003670E-1
3.884037405E0,-2.034732103E0,-5.803049076E-3,-4.207210541E-1
3.886498082E0,-2.098260403E0,-1.557660475E-2,-4.488200247E-1
3.888959592E0,-2.158123255E0,-3.023693897E-2,-4.769189954E-1
3.891420269E0,-2.219208002E0,-4.734066129E-2,-5.025745630E-1
3.893880165E0,-2.276627779E0,-6.933116168E-2,-5.233433843E-1
3.896340842E0,-2.331604004E0,-9.254335612E-2,-5.380037427E-1
3.898802353E0,-2.380471706E0,-1.218640283E-1,-5.538857579E-1
3.901263030E0,-2.430561304E0,-1.487413049E-1,-5.722111464E-1
3.903722925E0,-2.475764036E0,-1.682884246E-1,-5.929799676E-1
3.906183603E0,-2.517301559E0,-1.780619770E-1,-6.137487888E-1
3.908645113E0,-2.555174112E0,-1.805053651E-1,-6.332958937E-1
3.911105790E0,-2.588159800E0,-1.646233350E-1,-6.540647149E-1
3.913565686E0,-2.617480516E0,-1.365243644E-1,-6.737645268E-1
3.916026363E0,-2.641914368E0,-9.620844573E-2,-6.896465421E-1
3.918487873E0,-2.657796383E0,-4.734066129E-2,-6.981984377E-1
3.920948550E0,-2.665126562E0,3.970507067E-3,-7.018635273E-1
3.923408446E0,-2.657796383E0,6.261184067E-2,-7.018635273E-1
3.925869123E0,-2.650466204E0,1.163664013E-1,-7.043069005E-1
3.928330634E0,-2.643136024E0,1.444653720E-1,-7.104153633E-1
3.930791311E0,-2.624810696E0,1.603474021E-1,-7.250757217E-1
3.933251207E0,-2.588159800E0,1.786728203E-1,-7.495095730E-1
3.935711884E0,-2.541735411E0,1.933331639E-1,-7.715001106E-1
3.938173342E0,-2.490424156E0,1.994416267E-1,-7.983773947E-1
3.940634071E0,-2.435447931E0,2.055501044E-1,-8.252546191E-1
3.943093915E0,-2.379250050E0,2.067717910E-1,-8.399149776E-1
3.945554644E0,-2.326717138E0,1.688992679E-1,-8.460234404E-1
3.948016103E0,-2.279071093E0,7.238540053E-2,-8.496885300E-1
3.950476780E0,-2.232646704E0,-6.566607952E-2,-8.509102464E-1
3.952936675E0,-2.193552494E0,-2.281514555E-1,-8.496885300E-1
3.955397405E0,-2.167896986E0,-4.089622498E-1,-8.484668136E-1
3.957858863E0,-2.148349762E0,-6.007682681E-1,-8.472451568E-1
3.960319540E0,-2.134911060E0,-8.182299137E-1,-8.411366940E-1
3.962779436E0,-2.120250940E0,-1.068677306E0,-8.276980519E-1
3.965240165E0,-2.097038746E0,-1.343558550E0,-8.057075143E-1
3.967701623E0,-2.057944298E0,-1.640430331E0,-7.739434838E-1
3.970162300E0,-2.004189968E0,-1.943410516E0,-7.385143638E-1
3.972622196E0,-1.945548534E0,-2.231730461E0,-7.043069005E-1
3.975082873E0,-1.880798697E0,-2.482177734E0,-6.737645268E-1
3.977544384E0,-1.817270637E0,-2.682535648E0,-6.442911625E-1
3.980005061E0,-1.758629203E0,-2.824252367E0,-6.247440577E-1
3.982464957E0,-1.708539724E0,-2.907327414E0,-6.113054156E-1
3.984925634E0,-1.663337111E0,-2.932983160E0,-6.027535200E-1
3.987387144E0,-1.621799469E0,-2.907327414E0,-6.003101468E-1
3.989847821E0,-1.585148692E0,-2.841356039E0,-6.003101468E-1
3.992307717E0,-1.547276139E0,-2.730181932E0,-6.027535200E-1
3.994768394E0,-1.503295064E0,-2.573804855E0,-6.027535200E-1
3.997229905E0,-1.451983929E0,-2.389328957E0,-6.003101468E-1
3.999690582E0,-1.397007704E0,-2.176754236E0,-5.978667736E-1
4.002150478E0,-1.340809703E0,-1.949519038E0,-5.929799676E-1
4.004611155E0,-1.284611821E0,-1.716175318E0,-5.880932212E-1
4.007072665E0,-1.236965656E0,-1.496270418E0,-5.832064152E-1
4.009533342E0,-1.195428133E0,-1.304464340E0,-5.819846988E-1
4.011993238E0,-1.169772506E0,-1.144422293E0,-5.880932212E-1
4.014453915E0,-1.161220670E0,-1.019809484E0,-5.990884304E-1
4.016915425E0,-1.164885759E0,-9.269607067E-1,-6.137487888E-1
4.019376103E0,-1.180767775E0,-8.707627654E-1,-6.308525205E-1
4.021835998E0,-1.206423283E0,-8.670976758E-1,-6.467345357E-1
4.024296675E0,-1.239409089E0,-9.000834227E-1,-6.650599241E-1
4.026758134E0,-1.277281642E0,-9.452861547E-1,-6.835380793E-1
4.029218863E0,-1.307824016E0,-9.953756332E-1,-7.043069005E-1
4.031678759E0,-1.329814434E0,-1.049130201E0,-7.226322889E-1
4.034139436E0,-1.343253136E0,-1.105328083E0,-7.397360206E-1
4.036600894E0,-1.353026628E0,-1.163969398E0,-7.531746626E-1
4.039061623E0,-1.355470061E0,-1.216502309E0,-7.580614686E-1
4.041521519E0,-1.354248405E0,-1.260483265E0,-7.580614686E-1
4.043982196E0,-1.350583315E0,-1.298355818E0,-7.519529462E-1
4.046443655E0,-1.348139882E0,-1.330119848E0,-7.409577370E-1
4.048904384E0,-1.340809703E0,-1.352110386E0,-7.287407517E-1
4.051364228E0,-1.329814434E0,-1.371657491E0,-7.140804529E-1
4.053824957E0,-1.312710762E0,-1.388761282E0,-6.994200945E-1
4.056286415E0,-1.299272060E0,-1.399756551E0,-6.872031689E-1
4.058747092E0,-1.276059866E0,-1.413195133E0,-6.749862432E-1
4.061206988E0,-1.249182701E0,-1.420525312E0,-6.688777208E-1
4.063667717E0,-1.221083641E0,-1.421746969E0,-6.613948941E-1
4.066129175E0,-1.189319611E0,-1.418081880E0,-6.540647149E-1
4.068589853E0,-1.157555580E0,-1.404643297E0,-6.479562521E-1
4.071049748E0,-1.125791550E0,-1.389982939E0,-6.442911625E-1
4.073510425E0,-1.092805743E0,-1.366770744E0,-6.418477297E-1
4.075971936E0,-1.061041713E0,-1.335006714E0,-6.418477297E-1
4.078432613E0,-1.026834249E0,-1.293469071E0,-6.467345357E-1
4.080892509E0,-9.962918758E-1,-1.248266339E0,-6.503996253E-1
4.083353186E0,-9.645278454E-1,-1.198176861E0,-6.565080881E-1
4.085814696E0,-9.352071285E-1,-1.145644069E0,-6.626165509E-1
4.088275373E0,-9.081771374E-1,-1.093111157E0,-6.700994372E-1
4.090735269E0,-8.837432861E-1,-1.044243336E0,-6.774296165E-1
4.093195946E0,-8.617527485E-1,-9.978190064E-1,-6.847597957E-1
4.095657457E0,-8.397622705E-1,-9.611681700E-1,-6.896465421E-1
4.098118134E0,-8.226585388E-1,-9.306257963E-1,-6.920899153E-1
4.100578030E0,-8.018897176E-1,-9.025267959E-1,-6.945333481E-1
4.103038707E0,-7.798992395E-1,-8.805363178E-1,-6.945333481E-1
4.105500217E0,-7.591304183E-1,-8.707627654E-1,-6.933116317E-1
4.107960894E0,-7.420266867E-1,-8.695410490E-1,-6.920899153E-1
4.110420790E0,-7.261446714E-1,-8.732061386E-1,-6.884248853E-1
4.112881467E0,-7.053758502E-1,-8.854231238E-1,-6.823163629E-1
4.115342978E0,-6.931589246E-1,-9.013051391E-1,-6.786513329E-1
4.117803655E0,-6.821636558E-1,-9.196305275E-1,-6.737645268E-1
4.120263550E0,-6.699467301E-1,-9.452861547E-1,-6.626165509E-1
4.122724228E0,-6.589514613E-1,-9.746068120E-1,-6.479562521E-1
4.125185738E0,-6.503996253E-1,-1.002705812E0,-6.308525205E-1
4.127646415E0,-6.418477297E-1,-1.032026410E0,-6.125270724E-1
4.130106311E0,-6.357392669E-1,-1.057682037E0,-5.929799676E-1
4.132566988E0,-6.284091473E-1,-1.078450799E0,-5.746545792E-1
4.135028498E0,-6.235223413E-1,-1.100441337E0,-5.575508475E-1
4.137489175E0,-6.186355352E-1,-1.123653531E0,-5.392253995E-1
4.139949071E0,-6.149705052E-1,-1.148087382E0,-5.245651007E-1
4.142409748E0,-6.076403260E-1,-1.170077920E0,-5.111264586E-1
4.144871207E0,-6.015318632E-1,-1.182294846E0,-4.940227270E-1
4.147331936E0,-5.954233408E-1,-1.190846682E0,-4.793623984E-1
4.149791780E0,-5.868715048E-1,-1.200620294E0,-4.683671296E-1
4.152252509E0,-5.770979524E-1,-1.196955204E0,-4.537068009E-1
4.154713967E0,-5.661026835E-1,-1.182294846E0,-4.402681589E-1
4.157174644E0,-5.551074743E-1,-1.171299577E0,-4.243861437E-1
4.159634540E0,-5.453338623E-1,-1.160304427E0,-4.109475017E-1
4.162095269E0,-5.343386531E-1,-1.149309158E0,-3.987305462E-1
4.164556728E0,-5.233433843E-1,-1.134648800E0,-3.840702176E-1
4.167017405E0,-5.099047422E-1,-1.106549859E0,-3.694098890E-1
4.169477300E0,-4.952444136E-1,-1.072342396E0,-3.523061574E-1
4.171938030E0,-4.781406820E-1,-1.036913276E0,-3.425326049E-1
4.174399488E0,-4.561502039E-1,-1.000262380E0,-3.339807391E-1
4.176860165E0,-4.341596961E-1,-9.684983492E-1,-3.290939629E-1
4.179320061E0,-4.097257853E-1,-9.342908859E-1,-3.242071867E-1
4.181780738E0,-3.816268146E-1,-8.988617659E-1,-3.168770075E-1
4.184242248E0,-3.523061574E-1,-8.609892130E-1,-3.095468581E-1
4.186702925E0,-3.254288733E-1,-8.231166601E-1,-3.058817685E-1
4.189162821E0,-2.961082160E-1,-7.815790772E-1,-2.985515893E-1
4.191623498E0,-2.667875290E-1,-7.449282408E-1,-2.912214398E-1
4.194085009E0,-2.411319613E-1,-7.094991207E-1,-2.851129472E-1
4.196545686E0,-2.179197669E-1,-6.801784039E-1,-2.814478874E-1
4.199005582E0,-1.922641695E-1,-6.557445526E-1,-2.741177082E-1
4.201466259E0,-1.690519750E-1,-6.264238358E-1,-2.680092454E-1
4.203927769E0,-1.519482583E-1,-5.995466113E-1,-2.655658424E-1
4.206388446E0,-1.324011385E-1,-5.812211633E-1,-2.631224692E-1
4.208848342E0,-1.324011385E-1,-5.653391480E-1,-2.655658424E-1
4.211309019E0,-8.231166750E-2,-5.604523420E-1,-2.509055138E-1
4.213770530E0,-8.353336155E-2,-5.543438792E-1,-2.533488870E-1
4.216231207E0,-7.620319724E-2,-5.482354164E-1,-2.460187376E-1
4.218691103E0,-6.887302548E-2,-5.470137000E-1,-2.386885732E-1
4.221151780E0,-5.787777901E-2,-5.470137000E-1,-2.338017821E-1
4.223613290E0,-5.054761097E-2,-5.531222224E-1,-2.301367074E-1
4.226073967E0,-4.688252881E-2,-5.641174316E-1,-2.240282297E-1
4.228533863E0,-3.955236077E-2,-5.751127005E-1,-2.179197669E-1
4.230994540E0,-3.466558084E-2,-5.897729993E-1,-2.142546773E-1
4.233455998E0,-2.977880463E-2,-6.007682681E-1,-2.093679011E-1
4.235916728E0,-2.244863659E-2,-6.142069101E-1,-2.008160353E-1
4.238376623E0,-1.145338640E-2,-6.252021790E-1,-1.971509457E-1
4.240837300E0,-5.344913341E-3,-6.386408210E-1,-1.947075576E-1
4.243298759E0,1.985253533E-3,-6.459710002E-1,-1.885990947E-1
4.245759488E0,1.053711493E-2,-6.508577466E-1,-1.800472289E-1
4.248219332E0,2.153236605E-2,-6.557445526E-1,-1.739387512E-1
4.250680061E0,3.008422814E-2,-6.557445526E-1,-1.702736765E-1
4.253141519E0,4.474456236E-2,-6.545228362E-1,-1.605001241E-1
4.255602196E0,5.696150661E-2,-6.471926570E-1,-1.519482583E-1
4.258062092E0,7.162184268E-2,-6.386408210E-1,-1.446180940E-1
4.260522821E0,8.139539510E-2,-6.325323582E-1,-1.348445266E-1
4.262984280E0,9.361234307E-2,-6.276455522E-1,-1.238492802E-1
4.265444957E0,1.058292910E-1,-6.252021790E-1,-1.140757278E-1
4.267904853E0,1.156028435E-1,-6.203153729E-1,-1.043021679E-1
4.270365530E0,1.241547018E-1,-6.215370893E-1,-9.330692142E-2
4.272827040E0,1.339282542E-1,-6.203153729E-1,-8.353336155E-2
4.275287717E0,1.412584335E-1,-6.215370893E-1,-7.498150319E-2
4.277747613E0,1.498102844E-1,-6.239804626E-1,-6.642963737E-2
4.280208290E0,1.559187621E-1,-6.276455522E-1,-5.787777901E-2
4.282669800E0,1.595838517E-1,-6.325323582E-1,-5.054761097E-2
4.285130478E0,1.620272398E-1,-6.361974478E-1,-4.566083103E-2
4.287590373E0,1.608055383E-1,-6.361974478E-1,-4.199574888E-2
4.290051050E0,1.620272398E-1,-6.361974478E-1,-3.710897267E-2
4.292512561E0,1.583621502E-1,-6.374191046E-1,-3.466558084E-2
4.294973238E0,1.546970755E-1,-6.361974478E-1,-3.710897267E-2
4.297433134E0,1.498102844E-1,-6.325323582E-1,-3.588727489E-2
4.299893811E0,1.437018216E-1,-6.252021790E-1,-3.710897267E-2
4.302355321E0,1.375933439E-1,-6.178719997E-1,-4.199574888E-2
4.304815998E0,1.327065676E-1,-6.105418205E-1,-4.566083103E-2
4.307275894E0,1.278197914E-1,-6.007682681E-1,-4.932591692E-2
4.309736571E0,1.229330078E-1,-5.909947157E-1,-5.543438718E-2
4.312198082E0,1.180462316E-1,-5.799994469E-1,-5.909947306E-2
4.314658759E0,1.131594554E-1,-5.690042377E-1,-6.642963737E-2
4.317118655E0,1.143811494E-1,-5.567872524E-1,-7.131642103E-2
4.319579332E0,1.156028435E-1,-5.433486104E-1,-7.620319724E-2
4.322040842E0,1.119377613E-1,-5.323534012E-1,-8.231166750E-2
4.324501519E0,1.070509851E-1,-5.140279531E-1,-8.719844371E-2
4.326961415E0,1.375933439E-1,-5.042544007E-1,-8.597674966E-2
4.329422092E0,1.314848661E-1,-4.895940721E-1,-9.452861547E-2
4.331883550E0,1.339282542E-1,-4.749337435E-1,-9.697200358E-2
4.334344280E0,1.375933439E-1,-4.627167881E-1,-1.006370857E-1
4.336804175E0,1.449235082E-1,-4.529432356E-1,-1.043021679E-1
4.339264853E0,1.461452097E-1,-4.443913698E-1,-1.079672500E-1
4.341726311E0,1.546970755E-1,-4.395045936E-1,-1.079672500E-1
4.344187040E0,1.583621502E-1,-4.395045936E-1,-1.079672500E-1
4.346646936E0,1.620272398E-1,-4.346178174E-1,-1.104106456E-1
4.349107613E0,1.620272398E-1,-4.297310412E-1,-1.165191159E-1
4.351569071E0,1.656923145E-1,-4.248442650E-1,-1.189625040E-1
4.354029748E0,1.681357026E-1,-4.224008918E-1,-1.238492802E-1
4.356489644E0,1.681357026E-1,-4.187358022E-1,-1.287360638E-1
4.358950373E0,1.644706279E-1,-4.150707126E-1,-1.311794519E-1
4.361411832E0,1.583621502E-1,-4.040754735E-1,-1.385096163E-1
4.363872509E0,1.583621502E-1,-3.979669809E-1,-1.409530044E-1
4.366332405E0,1.485885978E-1,-3.906368315E-1,-1.458397806E-1
4.368793134E0,1.388150454E-1,-3.857500553E-1,-1.482831687E-1
4.371254592E0,1.351499557E-1,-3.784198761E-1,-1.543916464E-1
4.373715269E0,1.265980899E-1,-3.698680103E-1,-1.605001241E-1
4.376175165E0,1.229330078E-1,-3.600944579E-1,-1.641651988E-1
4.378635842E0,1.241547018E-1,-3.539859951E-1,-1.678302884E-1
4.381097353E0,1.143811494E-1,-3.442124426E-1,-1.727170646E-1
4.383558030E0,1.131594554E-1,-3.381039500E-1,-1.727170646E-1
4.386017925E0,1.082726792E-1,-3.332171738E-1,-1.751604527E-1
4.388478603E0,1.009425074E-1,-3.295520842E-1,-1.751604527E-1
4.390940113E0,9.361234307E-2,-3.295520842E-1,-1.727170646E-1
4.393400790E0,8.383878320E-2,-3.307738006E-1,-1.739387512E-1
4.395860686E0,7.406523079E-2,-3.356605768E-1,-1.714953631E-1
4.398321363E0,6.306997687E-2,-3.405473530E-1,-1.678302884E-1
4.400782873E0,5.207473040E-2,-3.478775024E-1,-1.629435122E-1
4.403243550E0,4.352286831E-2,-3.576510847E-1,-1.605001241E-1
4.405703446E0,3.008422814E-2,-3.698680103E-1,-1.556133330E-1
4.408164123E0,1.664558798E-2,-3.808632791E-1,-1.519482583E-1
4.410625634E0,5.650337320E-3,-3.943018913E-1,-1.482831687E-1
4.413086311E0,-4.123218823E-3,-4.077405334E-1,-1.409530044E-1
4.415546207E0,-1.389677543E-2,-4.248442650E-1,-1.360662282E-1
4.418006884E0,-2.489202656E-2,-4.443913698E-1,-1.324011385E-1
4.420468394E0,-3.588727489E-2,-4.614951015E-1,-1.275143623E-1
4.422929071E0,-4.443913698E-2,-4.822639227E-1,-1.214058921E-1
4.425388967E0,-5.299099907E-2,-5.042544007E-1,-1.165191159E-1
4.427849644E0,-6.398624927E-2,-5.250232220E-1,-1.128540337E-1
4.430311155E0,-7.009471953E-2,-5.470137000E-1,-1.091889441E-1
4.432771832E0,-7.498150319E-2,-5.714476109E-1,-1.079672500E-1
4.435231728E0,-7.864658535E-2,-5.946598053E-1,-1.043021679E-1
4.437692405E0,-8.231166750E-2,-6.215370893E-1,-1.030804738E-1
4.440153915E0,-8.964183182E-2,-6.447492838E-1,-1.006370857E-1
4.442614592E0,-8.108997345E-2,-6.728482842E-1,-9.697200358E-2
4.445074488E0,-8.353336155E-2,-6.985038519E-1,-9.575030953E-2
4.447535165E0,-8.108997345E-2,-7.217160463E-1,-9.575030953E-2
4.449996675E0,-7.375980914E-2,-7.449282408E-1,-9.575030953E-2
4.452457353E0,-6.887302548E-2,-7.669187188E-1,-9.452861547E-2
4.454917248E0,-5.176930502E-2,-7.876875401E-1,-9.575030953E-2
4.457377925E0,-5.665608495E-2,-8.096780181E-1,-1.006370857E-1
4.459839384E0,-2.489202656E-2,-8.292251825E-1,-9.330692142E-2
4.462300113E0,-5.344913341E-3,-8.499939442E-1,-9.330692142E-2
4.464760009E0,9.315420873E-3,-8.658760190E-1,-9.330692142E-2
4.467220686E0,2.031067200E-2,-8.805363178E-1,-9.330692142E-2
4.469682144E0,2.886253223E-2,-8.903098702E-1,-9.575030953E-2
4.472142873E0,6.795676053E-2,-8.988617659E-1,-8.964183182E-2
4.474602717E0,9.849911928E-2,-8.976400495E-1,-8.108997345E-2
4.477063446E0,1.229330078E-1,-8.866447806E-1,-7.864658535E-2
4.479524905E0,1.705790907E-1,-8.695410490E-1,-6.887302548E-2
4.481985582E0,2.035648525E-1,-8.377770185E-1,-6.276455522E-2
4.484445478E0,2.524326444E-1,-7.913526297E-1,-5.176930502E-2
4.486906207E0,3.000787199E-1,-7.351546884E-1,-4.321744293E-2
4.489367665E0,3.489464819E-1,-6.642963886E-1,-2.855710872E-2
4.491828342E0,3.917058110E-1,-5.873296261E-1,-1.634016447E-2
4.494288238E0,4.332434237E-1,-5.018110275E-1,-2.901524538E-3
4.496748915E0,4.503471553E-1,-4.114056230E-1,4.428642802E-3
4.499210425E0,4.686725736E-1,-3.246653080E-1,1.298050396E-2
4.501671103E0,4.869979918E-1,-2.464768738E-1,1.908897609E-2
4.504130998E0,4.906630516E-1,-1.780619770E-1,2.031067200E-2
4.506591675E0,4.821111858E-1,-1.230857223E-1,1.542389300E-2
4.509053186E0,4.686725736E-1,-8.399149776E-2,5.650337320E-3
4.511513863E0,4.503471553E-1,-5.955760926E-2,-7.788302377E-3
4.513973759E0,4.271349311E-1,-4.978405312E-2,-2.244863659E-2
4.516434436E0,3.965925872E-1,-5.100574717E-2,-4.077405483E-2
4.518895946E0,3.684936166E-1,-6.444438547E-2,-5.665608495E-2
4.521356623E0,3.403946459E-1,-8.887827396E-2,-7.253811508E-2
4.523816519E0,3.135173619E-1,-1.218640283E-1,-9.086353332E-2
4.526277196E0,2.805316150E-1,-1.621799469E-1,-1.091889441E-1
4.528738707E0,2.573194206E-1,-1.963873953E-1,-1.177408099E-1
4.531199384E0,2.499892414E-1,-2.354816198E-1,-1.226275861E-1
4.533659280E0,2.145601064E-1,-2.562504113E-1,-1.299577504E-1
4.536119957E0,1.766875684E-1,-2.635805905E-1,-1.336228400E-1
4.538581467E0,1.473668963E-1,-2.525853515E-1,-1.226275861E-1
4.541042144E0,1.156028435E-1,-2.391466945E-1,-1.140757278E-1
4.543502040E0,8.383878320E-2,-2.147128135E-1,-9.697200358E-2
4.545962717E0,5.207473040E-2,-1.841704547E-1,-7.009471953E-2
4.548424228E0,5.650337320E-3,-1.560714692E-1,-4.566083103E-2
4.550884905E0,-4.443913698E-2,-1.206423342E-1,-1.023169141E-2
4.553344800E0,-7.498150319E-2,-8.887827396E-2,3.497100621E-2
4.555805478E0,-1.201841980E-1,-5.589252338E-2,8.261708915E-2
4.558266936E0,-1.776038408E-1,-2.779355086E-2,1.327065676E-1
4.560727665E0,-2.362451702E-1,-8.246437646E-3,1.815743446E-1
4.563187561E0,-2.985515893E-1,1.007897966E-2,2.365505993E-1
4.565648238E0,-3.669664860E-1,2.840439789E-2,2.951919436E-1
4.568109696E0,-4.390464723E-1,4.184303805E-2,3.501681983E-1
4.570570425E0,-5.111264586E-1,5.283828825E-2,4.027010500E-1
4.573030321E0,-5.868715048E-1,6.139015034E-2,4.540122151E-1
4.575490998E0,-6.613948941E-1,6.261184067E-2,4.979932308E-1
4.577952457E0,-7.249229550E-1,5.161659420E-2,5.383091569E-1
4.580413186E0,-7.835643291E-1,3.451287001E-2,5.712949038E-1
4.582873082E0,-8.287670016E-1,8.857285604E-3,6.030589342E-1
4.585333759E0,-8.544226289E-1,-2.290677279E-2,6.262711287E-1
4.587795217E0,-8.605310917E-1,-6.077930331E-2,6.323796511E-1
4.590255946E0,-8.519791961E-1,-9.254335612E-2,6.274928451E-1
4.592715842E0,-8.226585388E-1,-1.157555580E-1,6.091674566E-1
4.595176519E0,-7.798992395E-1,-1.145338640E-1,5.774033666E-1
4.597637978E0,-7.261446714E-1,-8.887827396E-2,5.322006941E-1
4.600098707E0,-6.589514613E-1,-3.634541109E-2,4.808894992E-1
4.602558550E0,-5.758762360E-1,3.817795217E-2,4.198047817E-1
4.605019280E0,-4.952444136E-1,1.432436854E-1,3.428380191E-1
4.607480738E0,-4.109475017E-1,2.788517773E-1,2.573194206E-1
4.609941467E0,-3.217637837E-1,4.364503622E-1,1.681357026E-1
4.612401311E0,-2.325800955E-1,6.087092757E-1,7.162184268E-2
4.614862040E0,-1.470614821E-1,7.785248160E-1,-2.855710872E-2
4.617323498E0,-6.154286116E-2,9.361234307E-1,-1.214058921E-1
4.619784228E0,5.451811850E-2,1.054627776E0,-2.057028115E-1
4.622244071E0,1.437018216E-1,1.154806733E0,-2.936648130E-1
4.624704800E0,2.463241518E-1,1.220778227E0,-3.730749488E-1
4.627166259E0,3.587200642E-1,1.261094213E0,-4.427115619E-1
4.629626936E0,4.674508572E-1,1.280641317E0,-5.062396526E-1
4.632086832E0,5.737382770E-1,1.279419541E0,-5.661026835E-1
4.634547561E0,6.763606071E-1,1.267202616E0,-6.149705052E-1
4.637009019E0,7.802046537E-1,1.253764033E0,-6.479562521E-1
4.639469696E0,8.693883419E-1,1.242768764E0,-6.749862432E-1
4.641929592E0,9.402466416E-1,1.241547108E0,-6.933116317E-1
4.644390321E0,9.940012097E-1,1.270867705E0,-6.957550049E-1
4.646851780E0,1.026986957E0,1.329509020E0,-6.859814525E-1
4.649312457E0,1.028208613E0,1.417623758E0,-6.713211536E-1
4.651772353E0,1.008661509E0,1.526354551E0,-6.418477297E-1
4.654233082E0,9.610154629E-1,1.638750434E0,-6.076403260E-1
4.656694540E0,8.950439692E-1,1.752368093E0,-5.709894896E-1
4.659155217E0,8.192988634E-1,1.857433796E0,-5.331169367E-1
4.661615113E0,7.423321605E-1,1.955169320E0,-4.940227270E-1
4.664075790E0,6.751389503E-1,2.039466381E0,-4.561502039E-1
4.666537300E0,6.226060390E-1,2.106659412E0,-4.292729199E-1
4.668997978E0,5.920637250E-1,2.151862144E0,-4.011739492E-1
4.671457873E0,5.993938446E-1,2.165300846E0,-3.669664860E-1
4.673918550E0,6.323796511E-1,2.148197174E0,-3.388675153E-1
4.676380061E0,6.763606071E-1,2.104216099E0,-3.168770075E-1
4.678840738E0,7.398887277E-1,2.044353008E0,-2.924431264E-1
4.681300634E0,7.997517586E-1,1.966164589E0,-2.777827978E-1
4.683761311E0,8.596147895E-1,1.883089423E0,-2.655658424E-1
4.686222821E0,9.194778204E-1,1.789018869E0,-2.557922900E-1
4.688683498E0,9.707890153E-1,1.692505002E0,-2.521272004E-1
4.691143394E0,1.034317136E0,1.591104388E0,-2.435753495E-1
4.693604071E0,1.079519868E0,1.492147088E0,-2.399102598E-1
4.696065582E0,1.135717750E0,1.396702290E0,-2.264716178E-1
4.698526259E0,1.176033735E0,1.301410079E0,-2.154763639E-1
4.700986155E0,1.226123214E0,1.203674555E0,-1.971509457E-1
4.703446832E0,1.274990916E0,1.112047434E0,-1.751604527E-1
4.705908342E0,1.316528559E0,1.035080671E0,-1.556133330E-1
4.708369019E0,1.347070932E0,9.715525508E-1,-1.360662282E-1
4.710828915E0,1.373948216E0,9.239065051E-1,-1.104106456E-1
4.713289592E0,1.393495321E0,8.884773254E-1,-8.597674966E-2
4.715751103E0,1.410598993E0,8.664868474E-1,-6.154286116E-2
4.718211780E0,1.422815919E0,8.616000414E-1,-3.222219273E-2
4.720671675E0,1.431367874E0,8.860339522E-1,-1.679830020E-3
4.723132353E0,1.447249889E0,9.092461467E-1,2.641914412E-2
4.725593863E0,1.479013920E0,9.043593407E-1,4.963133857E-2
4.728054540E0,1.509556293E0,9.190196991E-1,7.162184268E-2
4.730514436E0,1.530325055E0,9.568922520E-1,9.361234307E-2
4.732975113E0,1.557202339E0,9.947647452E-1,1.143811494E-1
4.735436623E0,1.582857966E0,1.032637239E0,1.314848661E-1
4.737897300E0,1.602405071E0,1.068066478E0,1.498102844E-1
4.740357196E0,1.617065430E0,1.098608851E0,1.632489264E-1
4.742817873E0,1.641499281E0,1.114490867E0,1.742441803E-1
4.745279384E0,1.656159639E0,1.126707792E0,1.889045089E-1
4.747740061E0,1.662268162E0,1.153585076E0,2.096733153E-1
4.750199957E0,1.665933132E0,1.190235853E0,2.341072112E-1
4.752660634E0,1.647607803E0,1.235438585E0,2.585411072E-1
4.755122144E0,1.659824729E0,1.263537526E0,2.927485406E-1
4.757582821E0,1.628060699E0,1.283084631E0,3.122956753E-1
4.760042717E0,1.601183414E0,1.294079900E0,3.306210935E-1
4.762503394E0,1.573084354E0,1.289193153E0,3.452814221E-1
4.764964905E0,1.554759026E0,1.272089362E0,3.587200642E-1
4.767425582E0,1.538877010E0,1.252542257E0,3.733803928E-1
4.769885478E0,1.529103398E0,1.219556570E0,3.892624080E-1
4.772346155E0,1.516886473E0,1.195122719E0,4.014793634E-1
4.774807665E0,1.505891204E0,1.176797271E0,4.149180055E-1
4.777268342E0,1.501004457E0,1.168245435E0,4.295783341E-1
4.779728238E0,1.502226114E0,1.163358569E0,4.454603493E-1
4.782188915E0,1.507112861E0,1.165802002E0,4.625640810E-1
4.784650425E0,1.511999726E0,1.173132181E0,4.808894992E-1
4.787111103E0,1.519329786E0,1.185349107E0,5.016583204E-1
4.789570998E0,1.526659966E0,1.196344376E0,5.236487985E-1
4.792031675E0,1.533990145E0,1.203674555E0,5.431959033E-1
4.794493186E0,1.541320324E0,1.209782958E0,5.639647245E-1
4.796953863E0,1.551093936E0,1.217113137E0,5.859552622E-1
4.799413759E0,1.560867429E0,1.228108406E0,6.042806506E-1
4.801874436E0,1.575527787E0,1.239103675E0,6.238277555E-1
4.804335946E0,1.593853235E0,1.254985690E0,6.433748603E-1
4.806796623E0,1.614621997E0,1.279419541E0,6.592568755E-1
4.809256519E0,1.642720938E0,1.302631736E0,6.751389503E-1
4.811717196E0,1.664711475E0,1.322178841E0,6.836907864E-1
4.814178707E0,1.685480356E0,1.333174109E0,6.861341596E-1
4.816639384E0,1.698918939E0,1.344169378E0,6.800256968E-1
4.819099280E0,1.709914207E0,1.351499557E0,6.665870547E-1
4.821559957E0,1.702584028E0,1.361273170E0,6.409314871E-1
4.824021467E0,1.701362371E0,1.380820274E0,6.164975762E-1
4.826482144E0,1.700140595E0,1.394258857E0,5.847335458E-1
4.828942040E0,1.694032192E0,1.407850266E0,5.517477989E-1
4.831402717E0,1.685480356E0,1.424953938E0,5.114318728E-1
4.833864228E0,1.657381296E0,1.431062460E0,4.625640810E-1
4.836324905E0,1.623173833E0,1.439614296E0,4.112529159E-1
4.838784800E0,1.610956907E0,1.418845415E0,3.599417508E-1
4.841245478E0,1.570641041E0,1.391815424E0,2.988570333E-1
4.843706988E0,1.527881742E0,1.349056125E0,2.365505993E-1
4.846167665E0,1.501004457E0,1.295301557E0,1.840177327E-1
4.848627561E0,1.472905397E0,1.240325332E0,1.363716573E-1
4.851088238E0,1.443584800E0,1.191457629E0,9.361234307E-2
4.853549748E0,1.420372605E0,1.146254897E0,6.917845458E-2
4.856010425E0,1.404490590E0,1.109604001E0,5.696150661E-2
4.858470321E0,1.398382068E0,1.074174881E0,4.840964451E-2
4.860930998E0,1.392273664E0,1.048519373E0,4.352286831E-2
4.863392509E0,1.388608575E0,1.028972149E0,4.474456236E-2
4.865853186E0,1.382500052E0,1.009425044E0,4.718795046E-2
4.868313082E0,1.376391530E0,9.923213720E-1,4.230117425E-2
4.870773759E0,1.369061470E0,9.703308940E-1,4.474456236E-2
4.873235269E0,1.370283127E0,9.385668039E-1,4.963133857E-2
4.875695946E0,1.362952948E0,9.031376839E-1,4.963133857E-2
4.878155842E0,1.358066201E0,8.713735938E-1,5.207473040E-2
4.880616519E0,1.350736022E0,8.444963098E-1,5.818320066E-2
4.883078030E0,1.343405843E0,8.225058317E-1,6.306997687E-2
4.885538707E0,1.336075664E0,8.017370105E-1,6.795676053E-2
4.887998603E0,1.331188917E0,7.834116220E-1,7.406523079E-2
4.890459332E0,1.329967141E0,7.614210844E-1,8.383878320E-2
4.892920790E0,1.323858738E0,7.443174124E-1,8.506047726E-2
4.895381467E0,1.320193648E0,7.296570539E-1,8.506047726E-2
4.897841363E0,1.318971992E0,7.162184119E-1,8.506047726E-2
4.900302040E0,1.317750216E0,7.076665759E-1,8.628217876E-2
4.902763550E0,1.316528559E0,7.003363967E-1,8.383878320E-2
4.905224228E0,1.315306902E0,6.942279339E-1,8.139539510E-2
4.907684123E0,1.314085126E0,6.856760383E-1,8.383878320E-2
4.910144853E0,1.315306902E0,6.697940230E-1,8.506047726E-2
4.912606311E0,1.314085126E0,6.551336646E-1,8.139539510E-2
4.915066988E0,1.311641812E0,6.453601122E-1,8.017370105E-2
4.917526884E0,1.306754947E0,6.343649030E-1,8.261708915E-2
4.919987613E0,1.301868200E0,6.233696342E-1,8.383878320E-2
4.922449071E0,1.296981454E0,6.074876189E-1,8.506047726E-2
4.924909800E0,1.289651275E0,5.928272605E-1,8.872556686E-2
4.927369644E0,1.282321095E0,5.769452453E-1,9.239064902E-2
4.929830373E0,1.276212692E0,5.635066032E-1,9.483403713E-2
4.932291832E0,1.268882513E0,5.537330508E-1,9.972081333E-2
