"Time (s)","Gyroscope x (rad/s)","Gyroscope y (rad/s)","Gyroscope z (rad/s)"
7.551286000E-3,4.680754989E-2,1.907426715E-1,9.780716300E-1
9.551286000E-3,4.680754989E-2,1.907426715E-1,9.780716300E-1
1.155128600E-2,4.680754989E-2,1.907426715E-1,9.780716300E-1
1.355128600E-2,4.680754989E-2,1.907426715E-1,9.780716300E-1
1.555128600E-2,-1.492801905E-1,3.361285925E-1,1.053207994E0
1.755153600E-2,-1.706604809E-1,3.544545472E-1,1.060538411E0
1.955173600E-2,-1.859321147E-1,3.672827184E-1,1.061760187E0
2.155190200E-2,-1.914298981E-1,3.746131063E-1,1.063592792E0
2.355204400E-2,-2.005928755E-1,3.880521357E-1,1.062981844E0
2.555216900E-2,-2.012037337E-1,3.972151279E-1,1.060538411E0
2.754939100E-2,-2.030363381E-1,4.033237696E-1,1.049542904E0
2.954679100E-2,-2.030363381E-1,4.033237696E-1,1.049542904E0
3.154688100E-2,-1.987602860E-1,4.002694488E-1,1.043434143E0
3.354688100E-2,-1.957059503E-1,4.008803070E-1,1.039158106E0
3.554688100E-2,-1.926516294E-1,3.990477324E-1,1.026329994E0
3.754688100E-2,-1.889864355E-1,3.917173445E-1,1.016556144E0
3.954688100E-2,-1.834886521E-1,3.843869567E-1,1.003727913E0
4.154688100E-2,-1.847103834E-1,3.770565689E-1,9.982301593E-1
4.354688100E-2,-1.847103834E-1,3.581197560E-1,9.860128760E-1
4.554688100E-2,-1.865429729E-1,3.397938013E-1,9.701303840E-1
4.754688100E-2,-1.853212416E-1,3.281873465E-1,9.615782499E-1
4.954688100E-2,-1.889864355E-1,3.086396754E-1,9.487500787E-1
5.154688100E-2,-1.944842190E-1,2.866485119E-1,9.316458702E-1
5.354688100E-2,-1.957059503E-1,2.762638032E-1,9.249263406E-1
5.554688100E-2,-1.987602860E-1,2.432770878E-1,9.157633781E-1
5.754688100E-2,-2.048689276E-1,2.054034323E-1,9.120981693E-1
5.954688100E-2,-2.109775841E-1,1.815796942E-1,9.047678113E-1
6.154688100E-2,-2.140319049E-1,1.724167168E-1,9.023243189E-1
6.354691800E-2,-2.176970989E-1,1.644754708E-1,8.974373937E-1
6.554695300E-2,-2.152536362E-1,1.687515229E-1,8.925504684E-1
6.754609000E-2,-2.030363381E-1,2.066251636E-1,8.815549016E-1
6.954525600E-2,-2.030363381E-1,2.066251636E-1,8.815549016E-1
7.154532200E-2,-2.005928755E-1,2.200642079E-1,8.821657896E-1
7.354535500E-2,-1.938733608E-1,2.365575731E-1,8.791114688E-1
7.554538800E-2,-1.853212416E-1,2.774855494E-1,8.766679764E-1
7.754538800E-2,-1.767691374E-1,3.123048544E-1,8.766679764E-1
7.954535400E-2,-1.718822122E-1,3.336851299E-1,8.772788644E-1
8.154532000E-2,-1.596648991E-1,3.709479272E-1,8.742245436E-1
8.354528600E-2,-1.505019218E-1,4.051563740E-1,8.772788644E-1
8.554525200E-2,-1.443932652E-1,4.283692539E-1,8.803331852E-1
8.754608500E-2,-1.376737505E-1,4.344778955E-1,8.821657896E-1
8.954695100E-2,-1.315651089E-1,4.448626041E-1,8.907178640E-1
9.154691700E-2,-1.242347211E-1,4.497495294E-1,8.986591101E-1
9.354691700E-2,-1.217912585E-1,4.528038502E-1,9.017134309E-1
9.554695000E-2,-1.150717437E-1,4.552473128E-1,9.127090573E-1
9.754698300E-2,-1.114065498E-1,4.589125216E-1,9.298132658E-1
9.954701600E-2,-1.071304902E-1,4.564690590E-1,9.365327954E-1
1.015470490E-1,-1.022435725E-1,4.576907754E-1,9.560804963E-1
1.035470820E-1,-1.028544381E-1,4.625777006E-1,9.792933464E-1
1.055471150E-1,-1.040761694E-1,4.705189466E-1,1.001895308E0
1.075462810E-1,-1.052978933E-1,4.760167301E-1,1.014112711E0
1.095463140E-1,-1.114065498E-1,4.864014387E-1,1.039769053E0
1.115463140E-1,-1.242347211E-1,5.022839308E-1,1.061760187E0
1.135463140E-1,-1.315651089E-1,5.175555944E-1,1.072144866E0
1.155463140E-1,-1.474476010E-1,5.383250117E-1,1.092303395E0
1.175463140E-1,-1.633300930E-1,5.584835410E-1,1.112461925E0
1.195463140E-1,-1.718822122E-1,5.713117123E-1,1.119792342E0
1.215463140E-1,-1.932624876E-1,5.926920176E-1,1.133842230E0
1.235462800E-1,-2.146427780E-1,6.152940392E-1,1.147281289E0
1.255462460E-1,-2.372447848E-1,6.372851729E-1,1.153389931E0
1.275470790E-1,-2.488512248E-1,6.495024562E-1,1.155222535E0
1.295479120E-1,-2.738966942E-1,6.696610451E-1,1.156444311E0
1.315478450E-1,-3.013856411E-1,6.934847832E-1,1.154611707E0
1.335478110E-1,-3.154355288E-1,7.050912380E-1,1.150946498E0
1.355477770E-1,-3.417027593E-1,7.221954465E-1,1.145448685E0
1.375477430E-1,-3.704134226E-1,7.454082966E-1,1.136285663E0
1.395477430E-1,-3.862959146E-1,7.502952218E-1,1.132009625E0
1.415477760E-1,-4.180608988E-1,7.728972435E-1,1.121014118E0
1.435478090E-1,-4.486041665E-1,7.863363028E-1,1.105131626E0
1.455478420E-1,-4.822017550E-1,8.003861904E-1,1.089859962E0
1.475470080E-1,-5.310709476E-1,8.266534209E-1,1.068479657E0
1.495462080E-1,-5.310709476E-1,8.266534209E-1,1.068479657E0
1.515462410E-1,-5.603924990E-1,8.358163834E-1,1.052597165E0
1.535462740E-1,-5.750532746E-1,8.400924206E-1,1.045877695E0
1.555462740E-1,-6.055965424E-1,8.523097038E-1,1.031216860E0
1.575462400E-1,-6.324746013E-1,8.645270467E-1,1.018999577E0
1.595462060E-1,-6.428593397E-1,8.633053303E-1,1.012890935E0
1.615461720E-1,-6.636287570E-1,8.730791807E-1,9.994518757E-1
1.635461380E-1,-6.807329655E-1,8.743008971E-1,9.860128760E-1
1.655461040E-1,-6.966154575E-1,8.791878223E-1,9.774607420E-1
1.675469370E-1,-7.051675916E-1,8.743008971E-1,9.707412124E-1
1.695469030E-1,-7.149413824E-1,8.596401215E-1,9.573022127E-1
1.715469030E-1,-7.241044044E-1,8.419250250E-1,9.450848699E-1
1.735469360E-1,-7.265478373E-1,8.370380998E-1,9.371436238E-1
1.755469690E-1,-7.289913297E-1,8.248208165E-1,9.255372286E-1
1.775470020E-1,-7.296021581E-1,8.138252497E-1,9.151524901E-1
1.795470350E-1,-7.283804417E-1,8.064948320E-1,9.078221321E-1
1.815470680E-1,-7.253261209E-1,7.967209816E-1,8.956047893E-1
1.835471010E-1,-7.241044044E-1,7.906123400E-1,8.821657896E-1
1.855471340E-1,-7.210500836E-1,7.863363028E-1,8.766679764E-1
1.875463000E-1,-7.253261209E-1,7.741189599E-1,8.687267303E-1
1.895454000E-1,-7.253261209E-1,7.741189599E-1,8.687267303E-1
1.915454000E-1,-7.265478373E-1,7.643451095E-1,8.754462600E-1
1.935454000E-1,-7.234935164E-1,7.588473558E-1,8.791114688E-1
1.955454000E-1,-7.173848748E-1,7.374670506E-1,8.766679764E-1
1.975454000E-1,-7.143305540E-1,7.099781036E-1,8.711702228E-1
1.995454000E-1,-7.124979496E-1,6.965391040E-1,8.681158423E-1
2.015453660E-1,-7.082219124E-1,6.659958363E-1,8.589528799E-1
2.035453320E-1,-7.039458156E-1,6.366742849E-1,8.430703878E-1
2.055452980E-1,-7.008914948E-1,6.183483601E-1,8.326857090E-1
2.075461310E-1,-6.996697783E-1,5.823072791E-1,8.143597245E-1
2.095469310E-1,-6.972263455E-1,5.438227654E-1,7.911468744E-1
2.115468970E-1,-6.966154575E-1,5.090034604E-1,7.685448527E-1
2.135468630E-1,-6.960045695E-1,4.894557893E-1,7.581601143E-1
2.155468290E-1,-6.941719651E-1,4.509712756E-1,7.337254882E-1
2.175468290E-1,-6.923394203E-1,4.124867618E-1,7.080692053E-1
2.195468290E-1,-6.929502487E-1,3.929390609E-1,6.958518624E-1
2.215468620E-1,-6.911176443E-1,3.556762934E-1,6.763041615E-1
2.235468950E-1,-6.898959279E-1,3.196352422E-1,6.518695951E-1
2.255469280E-1,-6.892850995E-1,3.031418920E-1,6.414848566E-1
2.275460940E-1,-6.966154575E-1,2.414444834E-1,6.078872681E-1
2.295452270E-1,-6.966154575E-1,2.414444834E-1,6.078872681E-1
2.315452600E-1,-7.094436288E-1,2.206750661E-1,5.895613432E-1
2.335452600E-1,-7.143305540E-1,2.121229619E-1,5.816200972E-1
2.355452260E-1,-7.369325757E-1,2.194533348E-1,5.736788511E-1
2.375451920E-1,-7.680866718E-1,2.787072659E-1,5.742896795E-1
2.395451580E-1,-7.864126563E-1,3.306308091E-1,5.779548883E-1
2.415451240E-1,-8.389470577E-1,4.815145433E-1,6.109415889E-1
2.435450900E-1,-8.963683844E-1,6.537785530E-1,6.634759903E-1
2.455450560E-1,-9.201921225E-1,7.283040881E-1,6.885215044E-1
2.475458890E-1,-9.739482999E-1,8.407033086E-1,7.422776222E-1
2.495467890E-1,-1.022817492E0,8.981246352E-1,8.045858741E-1
2.515468220E-1,-1.066188931E0,9.256135821E-1,8.656724095E-1
2.535468550E-1,-1.085736632E0,9.353874326E-1,8.968265653E-1
2.555468880E-1,-1.120555878E0,9.598219991E-1,9.609673619E-1
2.575469210E-1,-1.148044825E0,9.469938278E-1,1.011058331E0
2.595469540E-1,-1.163927317E0,9.347765446E-1,1.033660412E0
2.615469870E-1,-1.192027211E0,9.311113358E-1,1.073977470E0
2.635470200E-1,-1.210353136E0,9.463829994E-1,1.113683701E0
2.655470530E-1,-1.216461778E0,9.488264322E-1,1.129566193E0
2.675461860E-1,-1.186529398E0,9.243918061E-1,1.188820124E0
2.695453190E-1,-1.186529398E0,9.243918061E-1,1.188820124E0
2.715454850E-1,-1.186529398E0,9.213374853E-1,1.188820124E0
2.735454850E-1,-1.161483884E0,9.207266569E-1,1.199204803E0
2.755454850E-1,-1.134605885E0,9.237809777E-1,1.206535220E0
2.775454850E-1,-1.100397348E0,9.292787313E-1,1.206535220E0
2.795454850E-1,-1.084514856E0,9.335548282E-1,1.203480840E0
2.815454510E-1,-1.048473835E0,9.414960742E-1,1.190652728E0
2.835454170E-1,-1.008767605E0,9.506590366E-1,1.171105027E0
2.855453830E-1,-9.861655831E-1,9.567676783E-1,1.157665968E0
2.875462160E-1,-9.372963309E-1,9.592111707E-1,1.133842230E0
2.895473490E-1,-8.872054219E-1,9.634872079E-1,1.106964231E0
2.915473150E-1,-8.395579457E-1,9.622654915E-1,1.073366642E0
2.935472810E-1,-8.077929020E-1,9.573785663E-1,1.056262374E0
2.955469470E-1,-7.577019930E-1,9.518807530E-1,1.021443009E0
2.975469470E-1,-7.051675916E-1,9.390525818E-1,9.878454804E-1
2.995469800E-1,-6.825655699E-1,9.286679029E-1,9.707412124E-1
3.015470130E-1,-6.330854893E-1,9.036223888E-1,9.347001910E-1
3.035470460E-1,-5.823836327E-1,8.810204268E-1,9.053786397E-1
3.055470790E-1,-5.579490662E-1,8.694139719E-1,8.852201104E-1
3.075462450E-1,-4.993059933E-1,8.162686825E-1,8.253552914E-1
3.095462780E-1,-4.809800088E-1,7.930558324E-1,8.009206653E-1
3.115462780E-1,-4.614323378E-1,7.612907887E-1,7.783187032E-1
3.135462440E-1,-4.266130030E-1,6.879869699E-1,7.288386226E-1
3.155462100E-1,-3.924045563E-1,5.981897712E-1,6.787476540E-1
3.175461760E-1,-3.551417887E-1,5.028948188E-1,6.243806481E-1
3.195461420E-1,-3.380375504E-1,4.534147382E-1,5.950590968E-1
3.215461080E-1,-2.940552533E-1,3.446807265E-1,5.339725614E-1
3.235460740E-1,-2.512947023E-1,2.304489166E-1,4.759403765E-1
3.255460400E-1,-2.268600762E-1,1.748601794E-1,4.453971088E-1
3.275469060E-1,-1.755474061E-1,5.574145541E-2,3.885866404E-1
3.295478060E-1,-1.095739529E-1,-6.093380973E-2,3.446043432E-1
3.315476720E-1,-7.658722997E-2,-1.177442744E-1,3.213914633E-1
3.335477050E-1,-6.337726954E-3,-2.325869352E-1,2.871830165E-1
3.355477380E-1,6.635523587E-2,-3.431535661E-1,2.639701366E-1
3.375477710E-1,1.414916664E-1,-4.439463317E-1,2.596940994E-1
3.395478040E-1,1.799761802E-1,-4.909829497E-1,2.719113827E-1
3.415478370E-1,2.496148050E-1,-5.697845817E-1,3.189480305E-1
3.435478700E-1,3.021492362E-1,-6.284276247E-1,4.087451994E-1
3.455478700E-1,3.180317283E-1,-6.443101168E-1,4.728860557E-1
3.475470030E-1,3.473532498E-1,-6.540839672E-1,7.874816656E-1
3.495458360E-1,3.473532498E-1,-6.540839672E-1,7.874816656E-1
3.515458360E-1,3.491858542E-1,-6.418666840E-1,8.870527148E-1
3.535458360E-1,3.559053540E-1,-6.003278494E-1,1.084362149E0
3.555461690E-1,3.644574881E-1,-5.490151644E-1,1.255404472E0
3.575461690E-1,3.650683463E-1,-4.854851663E-1,1.409953356E0
3.595461350E-1,3.626248837E-1,-4.451680481E-1,1.480202794E0
3.615461010E-1,3.510184288E-1,-3.590360582E-1,1.604819298E0
3.635460670E-1,3.345250785E-1,-2.692388594E-1,1.705612063E0
3.655460330E-1,3.235295117E-1,-2.142609805E-1,1.744707465E0
3.675468660E-1,2.954297066E-1,-9.575312585E-2,1.814957023E0
3.695468320E-1,2.612212598E-1,2.825251780E-2,1.865047932E0
3.715467980E-1,2.447278947E-1,9.239336848E-2,1.887650013E0
3.735467980E-1,2.068542391E-1,2.225076705E-1,1.913306355E0
3.755467980E-1,1.708131880E-1,3.465133011E-1,1.934686542E0
3.775468310E-1,1.384373307E-1,4.631885588E-1,1.944460392E0
3.795468640E-1,1.219439730E-1,5.169447064E-1,1.946903944E0
3.815468970E-1,9.384417534E-2,6.049093008E-1,1.959732056E0
3.835469300E-1,1.042288840E-1,5.273294449E-1,2.047085762E0
3.855469630E-1,1.121701300E-1,4.827362597E-1,2.099009275E0
3.875461290E-1,1.476003081E-1,3.599523604E-1,2.256001711E0
3.895453290E-1,1.628719419E-1,3.202461004E-1,2.303038359E0
3.915452950E-1,1.818087697E-1,2.787072659E-1,2.345798969E0
3.935452610E-1,2.172389477E-1,1.950187236E-1,2.423989534E0
3.955452270E-1,2.575560510E-1,1.052215397E-1,2.482632637E0
3.975451930E-1,3.027600944E-1,1.664607786E-2,2.532112837E0
3.995451590E-1,3.235295117E-1,-2.733621933E-2,2.552882195E0
4.015451250E-1,3.687335253E-1,-1.091921628E-1,2.585868835E0
4.035450910E-1,4.121049643E-1,-1.782199293E-1,2.611525297E0
4.055450910E-1,4.285983145E-1,-2.093740702E-1,2.624353409E0
4.075459570E-1,4.566981196E-1,-2.942843437E-1,2.624353409E0
4.095468570E-1,4.634176493E-1,-4.079052806E-1,2.592588425E0
4.115468570E-1,4.579198658E-1,-4.696026444E-1,2.563877821E0
4.135473900E-1,4.255439937E-1,-6.088799238E-1,2.482021809E0
4.155473900E-1,3.626248837E-1,-7.597636580E-1,2.367179155E0
4.175473900E-1,2.722168267E-1,-9.179777503E-1,2.230345249E0
4.195473900E-1,2.172389477E-1,-9.906707406E-1,2.161317587E0
4.215473900E-1,9.995282441E-2,-1.105513334E0,2.020818472E0
4.235474230E-1,-2.038762718E-2,-1.181260705E0,1.899867296E0
4.255474560E-1,-7.780896127E-2,-1.208749652E0,1.844889402E0
4.275466220E-1,-3.074942827E-1,-1.300990224E0,1.700114369E0
4.295467550E-1,-3.074942827E-1,-1.300990224E0,1.700114369E0
4.315467880E-1,-3.600287139E-1,-1.322981358E0,1.681177497E0
4.335468210E-1,-4.632649422E-1,-1.373683214E0,1.654910326E0
4.355468540E-1,-5.665011406E-1,-1.421330690E0,1.645136476E0
4.375468540E-1,-6.141486168E-1,-1.453095675E0,1.647579908E0
4.395468200E-1,-7.039458156E-1,-1.517236590E0,1.664073229E0
4.415467860E-1,-7.864126563E-1,-1.599703312E0,1.699503422E0
4.435467520E-1,-8.597164750E-1,-1.684002757E0,1.747151017E0
4.455467180E-1,-8.908706307E-1,-1.710880876E0,1.773418188E0
4.475475510E-1,-9.464593530E-1,-1.697441816E0,1.827174306E0
4.495483170E-1,-9.910525084E-1,-1.621083617E0,1.895591259E0
4.515483170E-1,-1.008767605E0,-1.564273119E0,1.937740922E0
4.535483170E-1,-1.031980515E0,-1.414611220E0,2.043420553E0
4.555483500E-1,-1.037478209E0,-1.233795047E0,2.180254459E0
4.575483830E-1,-1.027093530E0,-1.132391453E0,2.256612539E0
4.595484160E-1,-9.861655831E-1,-9.149234295E-1,2.422157049E0
4.615484490E-1,-9.140834808E-1,-6.779077053E-1,2.566932201E0
4.635484820E-1,-8.261188865E-1,-4.280638099E-1,2.653675079E0
4.655485150E-1,-7.827474475E-1,-3.022255898E-1,2.675666094E0
4.675476810E-1,-5.640577078E-1,1.082758680E-1,2.601751328E0
4.695468470E-1,-5.640577078E-1,1.082758680E-1,2.601751328E0
4.715461470E-1,-5.640577078E-1,1.082758680E-1,2.601751328E0
4.735456130E-1,-4.644866586E-1,1.626428664E-1,2.524782419E0
4.755456130E-1,-3.612504303E-1,1.589776874E-1,2.444759130E0
4.775456130E-1,-3.032182455E-1,1.388191283E-1,2.404442072E0
4.795456130E-1,-1.883755773E-1,6.490442902E-2,2.325029373E0
4.815456130E-1,-6.803511828E-2,-5.910121277E-2,2.249282122E0
4.835455790E-1,5.841398984E-2,-2.026545405E-1,2.167426348E0
4.855455450E-1,1.225548387E-1,-2.765692472E-1,2.129552603E0
4.875463780E-1,2.496148050E-1,-4.176791012E-1,2.049529314E0
4.895462440E-1,3.797291219E-1,-5.410739183E-1,1.976836324E0
4.915462100E-1,4.475351572E-1,-5.948300362E-1,1.940184355E0
4.935461760E-1,5.849798322E-1,-6.809620261E-1,1.883984804E0
4.955461420E-1,7.248679996E-1,-7.365507483E-1,1.847332835E0
4.975461080E-1,7.969500422E-1,-7.530441284E-1,1.838169932E0
4.995461080E-1,9.374490976E-1,-7.677049041E-1,1.840002418E0
5.015461410E-1,1.068174243E0,-7.756461501E-1,1.857717514E0
5.035461740E-1,1.184849501E0,-7.811439037E-1,1.893147707E0
5.055462070E-1,1.238605618E0,-7.854200006E-1,1.915749788E0
5.075453730E-1,1.325959325E0,-7.927503586E-1,1.970116735E0
5.095459390E-1,1.394987106E0,-8.122980595E-1,2.035479307E0
5.115459720E-1,1.421865225E0,-8.263479471E-1,2.074574709E0
5.135460050E-1,1.462793231E0,-8.599455357E-1,2.158263206E0
5.155460050E-1,1.482340932E0,-9.045386910E-1,2.243173599E0
5.175459710E-1,1.487838626E0,-9.332493544E-1,2.285323143E0
5.195459370E-1,1.482340932E0,-9.998337030E-1,2.369622707E0
5.215459030E-1,1.464625835E0,-1.074970126E0,2.449645996E0
5.235458690E-1,1.439580321E0,-1.169043422E0,2.528447628E0
5.255458350E-1,1.424308658E0,-1.218523502E0,2.566932201E0
5.275466680E-1,1.391321898E0,-1.322370529E0,2.628018618E0
5.295475010E-1,1.354059219E0,-1.441489220E0,2.683607340E0
5.315482010E-1,1.337565780E0,-1.502575755E0,2.706820250E0
5.335482340E-1,1.302135587E0,-1.633911848E0,2.739196062E0
5.355482670E-1,1.271592379E0,-1.772578239E0,2.761187315E0
5.375483000E-1,1.259375095E0,-1.845271230E0,2.766685009E0
5.395483330E-1,1.242270827E0,-1.986991882E0,2.773404598E0
5.415483660E-1,1.233107805E0,-2.127490997E0,2.775237083E0
5.435483990E-1,1.232496977E0,-2.265546560E0,2.765463352E0
5.455484320E-1,1.235551357E0,-2.329076529E0,2.760576487E0
5.475475980E-1,1.256320715E0,-2.554485798E0,2.728811502E0
5.495466980E-1,1.256320715E0,-2.554485798E0,2.728811502E0
5.515466980E-1,1.265483737E0,-2.604576588E0,2.717815876E0
5.535466980E-1,1.279533625E0,-2.698039055E0,2.697046518E0
5.555466980E-1,1.295416117E0,-2.787225485E0,2.675055265E0
5.575466980E-1,1.303357363E0,-2.829985857E0,2.665281534E0
5.595466980E-1,1.311298609E0,-2.910009384E0,2.643290281E0
5.615466640E-1,1.323515892E0,-2.992476225E0,2.620077372E0
5.635466300E-1,1.325348496E0,-3.031571388E0,2.609692574E0
5.655465960E-1,1.329624534E0,-3.114038229E0,2.587701559E0
5.675474290E-1,1.333289742E0,-3.191618204E0,2.568153858E0
5.695468620E-1,1.336954951E0,-3.272252321E0,2.551049709E0
5.715468280E-1,1.337565780E0,-3.310736895E0,2.546162605E0
5.735467940E-1,1.341230989E0,-3.387706041E0,2.533334494E0
5.755467600E-1,1.343063593E0,-3.464674950E0,2.527225971E0
5.775467600E-1,1.346117973E0,-3.497661591E0,2.526004076E0
5.795467930E-1,1.341230989E0,-3.542254925E0,2.540664911E0
5.815468260E-1,1.327791929E0,-3.546530962E0,2.565710306E0
5.835468590E-1,1.317407250E0,-3.530648470E0,2.588923216E0
5.855468920E-1,1.277090192E0,-3.456733704E0,2.649399042E0
5.875460580E-1,1.176908255E0,-3.211165905E0,2.810056448E0
5.895452240E-1,1.176908255E0,-3.211165905E0,2.810056448E0
5.915451900E-1,1.153084517E0,-3.146414280E0,2.851595402E0
5.935451900E-1,1.130482435E0,-3.038901806E0,2.935283899E0
5.955451560E-1,1.118876100E0,-2.935665607E0,3.011641979E0
5.975451220E-1,1.121319532E0,-2.882520437E0,3.045850515E0
5.995450880E-1,1.133536816E0,-2.766455889E0,3.111824036E0
6.015450540E-1,1.153084517E0,-2.632065535E0,3.171688795E0
6.035450200E-1,1.161636591E0,-2.556929111E0,3.199177742E0
6.055449860E-1,1.159193158E0,-2.343737125E0,3.238883972E0
6.075458190E-1,1.132925987E0,-2.084119558E0,3.265761852E0
6.095467190E-1,1.110323906E0,-1.827556133E0,3.278590202E0
6.115467520E-1,1.107269645E0,-1.707826495E0,3.282866240E0
6.135467850E-1,1.118265152E0,-1.494634509E0,3.284698725E0
6.155468180E-1,1.141478062E0,-1.295492411E0,3.278590202E0
6.175468510E-1,1.153084517E0,-1.197754025E0,3.274314165E0
6.195468840E-1,1.170188785E0,-9.992228150E-1,3.262707710E0
6.215469170E-1,1.182406068E0,-8.190175891E-1,3.240716457E0
6.235469500E-1,1.185460329E0,-7.371616364E-1,3.229110003E0
6.255469830E-1,1.188514709E0,-5.948300362E-1,3.193068981E0
6.275461160E-1,1.182406068E0,-4.677700698E-1,3.133815050E0
6.295452160E-1,1.173243046E0,-4.390594065E-1,3.110602140E0
6.315452160E-1,1.159803987E0,-4.201225638E-1,3.083724022E0
6.335452160E-1,1.125595570E0,-3.962988257E-1,3.028746128E0
6.355452160E-1,1.074893713E0,-3.871358633E-1,2.979876995E0
6.375452160E-1,1.048015714E0,-3.908010423E-1,2.957274914E0
6.395451820E-1,9.850965738E-1,-3.853032589E-1,2.923677444E0
6.415451480E-1,9.069058299E-1,-3.541491330E-1,2.906573296E0
6.435451140E-1,8.647561073E-1,-3.242167234E-1,2.905962229E0
6.455450800E-1,7.890087962E-1,-2.539672256E-1,2.903518915E0
6.475459130E-1,7.242571115E-1,-1.727221459E-1,2.909627438E0
6.495467460E-1,6.766096354E-1,-8.720101416E-2,2.913903475E0
6.515467790E-1,6.607271433E-1,-4.688390717E-2,2.915736198E0
6.535467450E-1,6.246860623E-1,3.985895589E-2,2.918179750E0
6.555467450E-1,5.947536826E-1,1.235474944E-1,2.920623064E0
6.575467780E-1,5.825363398E-1,1.614211351E-1,2.921844721E0
6.595468110E-1,5.611560941E-1,2.188424766E-1,2.922455788E0
6.615468440E-1,5.440518856E-1,2.493857294E-1,2.921844721E0
6.635468770E-1,5.379431844E-1,2.512183189E-1,2.920623064E0
6.655469100E-1,5.214498639E-1,2.347249687E-1,2.912681818E0
6.675460760E-1,4.487568736E-1,9.239336848E-2,2.855871439E0
6.695452420E-1,4.487568736E-1,9.239336848E-2,2.855871439E0
6.715444750E-1,4.487568736E-1,9.239336848E-2,2.855871439E0
6.735444410E-1,4.053854346E-1,7.483099122E-3,2.832658529E0
6.755444070E-1,3.644574881E-1,-9.147707373E-2,2.799671888E0
6.775443730E-1,3.394120038E-1,-1.360702366E-1,2.784400225E0
6.795443390E-1,2.624429762E-1,-1.647808999E-1,2.767295837E0
6.815443050E-1,1.427133977E-1,-1.305724531E-1,2.767295837E0
6.835442710E-1,9.078984708E-2,-1.189660057E-1,2.759354591E0
6.855442370E-1,1.382082608E-2,-9.697485715E-2,2.737363577E0
6.875451030E-1,-4.604396969E-2,-3.772092983E-2,2.698879004E0
6.895460360E-1,-7.170030475E-2,1.527163113E-4,2.676887751E0
6.915460690E-1,-1.126282811E-1,5.574145541E-2,2.636570692E0
6.935457020E-1,-1.559997052E-1,1.125519201E-1,2.600529671E0
6.955457350E-1,-1.987602860E-1,1.626428664E-1,2.568764687E0
6.975457680E-1,-2.201405615E-1,1.809688359E-1,2.551049709E0
6.995458010E-1,-2.610685229E-1,2.310597748E-1,2.511954308E0
7.015458340E-1,-3.050508201E-1,2.994766831E-1,2.474691391E0
7.035458670E-1,-3.282637000E-1,3.361285925E-1,2.455143690E0
7.055458670E-1,-4.034001231E-1,4.442517459E-1,2.426433086E0
7.075450000E-1,-4.895321429E-1,5.529857874E-1,2.406274557E0
7.095450000E-1,-5.335144401E-1,6.122397184E-1,2.404442072E0
7.115450000E-1,-6.129269004E-1,7.356344461E-1,2.398944139E0
7.135450000E-1,-6.831763983E-1,8.718574047E-1,2.403220177E0
7.155450000E-1,-7.350999713E-1,9.891435504E-1,2.413604975E0
7.175449660E-1,-7.503715754E-1,1.033736706E0,2.414826632E0
7.195449320E-1,-7.631997466E-1,1.103986263E0,2.420324564E0
7.215448980E-1,-7.577019930E-1,1.147968531E0,2.424600601E0
7.235448640E-1,-7.515933514E-1,1.167516232E0,2.422767878E0
7.255448300E-1,-7.283804417E-1,1.177290082E0,2.422157049E0
7.275456630E-1,-7.002806664E-1,1.170570493E0,2.427654743E0
7.295464960E-1,-6.837872863E-1,1.156520605E0,2.430098295E0
7.315472290E-1,-6.453027725E-1,1.118036151E0,2.433152676E0
7.335472290E-1,-6.000987291E-1,1.064279914E0,2.436817884E0
7.355472620E-1,-5.524512529E-1,1.007469535E0,2.438039541E0
7.375472950E-1,-5.292384028E-1,9.787588120E-1,2.436207056E0
7.395473280E-1,-4.815908968E-1,9.317222238E-1,2.427654743E0
7.415473610E-1,-4.424955249E-1,8.901833892E-1,2.417881012E0
7.435473940E-1,-4.211152196E-1,8.681922555E-1,2.416659355E0
7.455474270E-1,-3.759112060E-1,8.248208165E-1,2.411772251E0
7.475465930E-1,-3.056617081E-1,7.417431474E-1,2.411161423E0
7.495456930E-1,-2.867248654E-1,7.148650289E-1,2.412383318E0
7.515456590E-1,-2.635119855E-1,6.849326491E-1,2.414826632E0
7.535460250E-1,-2.268600762E-1,6.293439269E-1,2.419713497E0
7.555459910E-1,-1.969276816E-1,5.743660331E-1,2.430709124E0
7.575459570E-1,-1.871538460E-1,5.468770862E-1,2.438039541E0
7.595459230E-1,-1.688278764E-1,5.004513264E-1,2.452700377E0
7.615458890E-1,-1.572214365E-1,4.619668424E-1,2.469804525E0
7.635458550E-1,-1.547779888E-1,4.430300295E-1,2.475913286E0
7.655458550E-1,-1.566105783E-1,4.014911950E-1,2.491184711E0
7.675467550E-1,-1.724930704E-1,3.617849350E-1,2.508289099E0
7.695467880E-1,-1.816560477E-1,3.404046595E-1,2.518062830E0
7.715468210E-1,-2.048689276E-1,2.884811163E-1,2.533945322E0
7.735468540E-1,-2.311361432E-1,2.231185287E-1,2.550438643E0
7.755468870E-1,-2.610685229E-1,1.492038369E-1,2.569986343E0
7.775469200E-1,-2.714532316E-1,1.021672115E-1,2.576095104E0
7.795469530E-1,-2.897791862E-1,-4.581489484E-4,2.588312387E0
7.815469860E-1,-3.203224540E-1,-9.758572280E-2,2.591977596E0
7.835469860E-1,-3.307071626E-1,-1.488984078E-1,2.591366768E0
7.855469860E-1,-3.612504303E-1,-2.472477108E-1,2.591366768E0
7.875461190E-1,-4.046218693E-1,-3.908010423E-1,2.590755939E0
7.895452190E-1,-4.253912866E-1,-4.372268021E-1,2.591977596E0
7.915452190E-1,-4.406629205E-1,-4.799873531E-1,2.590145111E0
7.935452190E-1,-4.644866586E-1,-5.740606189E-1,2.590145111E0
7.955451850E-1,-4.736496508E-1,-6.253733039E-1,2.584647179E0
7.975451510E-1,-4.858669341E-1,-7.334964275E-1,2.569986343E0
7.995451170E-1,-4.999168515E-1,-8.269588351E-1,2.557158232E0
8.015450830E-1,-5.127450228E-1,-9.149234295E-1,2.538221359E0
8.035450490E-1,-5.121341348E-1,-9.558513761E-1,2.524171591E0
8.055450150E-1,-4.944190681E-1,-1.046259403E0,2.491795778E0
8.075458480E-1,-4.638758004E-1,-1.128726244E0,2.453922033E0
8.095467140E-1,-4.424955249E-1,-1.167821646E0,2.434374332E0
8.115467140E-1,-3.960697651E-1,-1.256397128E0,2.401387691E0
8.135467470E-1,-3.386484087E-1,-1.350470304E0,2.380007267E0
8.155467800E-1,-3.111594915E-1,-1.398117781E0,2.371455193E0
8.175468130E-1,-2.604576647E-1,-1.479973793E0,2.374509573E0
8.216758460E-1,-2.134210467E-1,-1.550223231E0,2.389170408E0
8.236758790E-1,-1.810451895E-1,-1.590540409E0,2.414215803E0
8.256759120E-1,-1.700496078E-1,-1.596649051E0,2.431930780E0
8.276759450E-1,-1.529453844E-1,-1.591151237E0,2.478967428E0
8.296750780E-1,-1.248455867E-1,-1.571603537E0,2.570597410E0
8.316748110E-1,-1.248455867E-1,-1.571603537E0,2.570597410E0
8.336747770E-1,-1.016327068E-1,-1.547168970E0,2.643290281E0
8.356747430E-1,-7.536549866E-2,-1.514182210E0,2.718426704E0
8.376747090E-1,-6.192646548E-2,-1.497688890E0,2.758743763E0
8.396746750E-1,-3.260493279E-2,-1.474475980E0,2.828993320E0
8.416746410E-1,-3.283400787E-3,-1.459815264E0,2.898632050E0
8.436746070E-1,3.153591976E-2,-1.468978167E0,2.971324921E0
8.456746070E-1,4.864014685E-2,-1.479362965E0,3.002479076E0
8.476746400E-1,8.223773539E-2,-1.521512628E0,3.049515724E0
8.496755400E-1,1.195005104E-1,-1.577101350E0,3.086778402E0
8.516764730E-1,1.451568604E-1,-1.608866334E0,3.109380484E0
8.536765060E-1,1.983021349E-1,-1.676672339E0,3.160082340E0
8.556765390E-1,2.612212598E-1,-1.757306576E0,3.216892719E0
8.576765720E-1,2.887101769E-1,-1.792125940E0,3.249268532E0
8.596766050E-1,3.412446082E-1,-1.873371005E0,3.325015783E0
8.616766380E-1,3.821725547E-1,-1.952172637E0,3.415423870E0
8.636766380E-1,4.096615016E-1,-2.023032904E0,3.520492792E0
8.656766380E-1,4.169918895E-1,-2.053576231E0,3.580357552E0
8.676766380E-1,4.249331355E-1,-2.118327856E0,3.704363108E0
8.696757710E-1,4.108832479E-1,-2.219120741E0,4.023845673E0
8.716749040E-1,4.108832479E-1,-2.219120741E0,4.023845673E0
8.736744040E-1,4.108832479E-1,-2.219120741E0,4.023845673E0
8.756743700E-1,3.846160173E-1,-2.241111755E0,4.156403542E0
8.776739360E-1,3.650683463E-1,-2.244166136E0,4.220544338E0
8.796739020E-1,3.161991239E-1,-2.236224890E0,4.343939304E0
8.816738680E-1,2.502256632E-1,-2.212401152E0,4.456338406E0
8.836738340E-1,1.689805984E-1,-2.169640541E0,4.548578739E0
8.856738000E-1,1.195005104E-1,-2.143984318E0,4.587674141E0
8.876737660E-1,1.137736533E-2,-2.086562872E0,4.641430378E0
8.896745990E-1,-1.162934676E-1,-2.020589590E0,4.674417019E0
8.916748320E-1,-1.798234582E-1,-1.989435434E0,4.684191227E0
8.936748650E-1,-3.117703497E-1,-1.944842219E0,4.702517033E0
8.956748980E-1,-4.345542490E-1,-1.922240257E0,4.713512421E0
8.976749310E-1,-4.907538593E-1,-1.920407653E0,4.714734554E0
8.996749640E-1,-5.884923339E-1,-1.931403160E0,4.714123249E0
9.016749970E-1,-6.666830778E-1,-1.968665957E0,4.708625793E0
9.036750300E-1,-7.198283076E-1,-2.015702486E0,4.700073719E0
9.056750630E-1,-7.381542921E-1,-2.040748119E0,4.693964958E0
9.076750630E-1,-7.564802766E-1,-2.096336842E0,4.677471638E0
9.096741630E-1,-7.601454258E-1,-2.145205975E0,4.655480385E0
9.116741290E-1,-7.564802766E-1,-2.165975332E0,4.642652035E0
9.136740950E-1,-7.473172545E-1,-2.195297003E0,4.620050430E0
9.156740610E-1,-7.320456505E-1,-2.218509912E0,4.593172073E0
9.176740270E-1,-7.241044044E-1,-2.230116367E0,4.580344200E0
9.196739930E-1,-7.070001364E-1,-2.250274897E0,4.554076672E0
9.216739590E-1,-6.898959279E-1,-2.275931120E0,4.525366306E0
9.236739590E-1,-6.764569283E-1,-2.285094261E0,4.511316299E0
9.256739920E-1,-6.550766230E-1,-2.310139656E0,4.478329659E0
9.276740250E-1,-6.422484517E-1,-2.346791506E0,4.428238392E0
9.296749250E-1,-6.398049593E-1,-2.402380228E0,4.355545521E0
9.316758250E-1,-6.428593397E-1,-2.431701899E0,4.316450119E0
9.336763580E-1,-6.489679813E-1,-2.498897076E0,4.243146420E0
9.356763910E-1,-6.294202805E-1,-2.521498919E0,4.206494331E0
9.376768240E-1,-6.000987291E-1,-2.523942471E0,4.196109772E0
9.396768570E-1,-5.243514776E-1,-2.505005598E0,4.171675205E0
9.416768570E-1,-4.418846369E-1,-2.492177486E0,4.130136490E0
9.436768570E-1,-4.040110111E-1,-2.484847069E0,4.101425648E0
9.456768570E-1,-3.276528418E-1,-2.477516651E0,4.025678158E0
9.476768570E-1,-2.567924857E-1,-2.479349375E0,3.932215929E0
9.496759900E-1,-1.663844138E-1,-2.484236240E0,3.767893076E0
9.516750900E-1,-1.407280862E-1,-2.482403755E0,3.709861040E0
9.536750560E-1,-1.162934676E-1,-2.474462509E0,3.649996281E0
9.556750220E-1,-7.047858089E-2,-2.448806047E0,3.522936344E0
9.576749880E-1,-4.787656292E-2,-2.437199593E0,3.460017204E0
9.596749540E-1,-5.115996581E-3,-2.402991056E0,3.328070164E0
9.616749200E-1,2.725986205E-2,-2.342515469E0,3.180851698E0
9.636748860E-1,4.558581859E-2,-2.305863619E0,3.051348209E0
9.656748520E-1,1.259909570E-2,-2.258826971E0,2.722091913E0
9.676748180E-1,-7.536549866E-2,-2.137875557E0,2.339079380E0
9.696756840E-1,-2.855031490E-1,-1.922851086E0,2.061746597E0
9.716756840E-1,-3.899610937E-1,-1.823890924E0,1.944460392E0
9.736757170E-1,-5.640577078E-1,-1.649183393E0,1.808848381E0
9.756757500E-1,-6.917285323E-1,-1.398728728E0,1.739820600E0
9.776757830E-1,-7.326564789E-1,-1.302822828E0,1.669571042E0
9.796754160E-1,-7.784714103E-1,-9.931141734E-1,1.655521154E0
9.816754490E-1,-7.711409926E-1,-6.730207801E-1,1.646969080E0
9.836754820E-1,-7.638106346E-1,-4.891503453E-1,1.624366999E0
9.856764150E-1,-7.577019930E-1,-1.543961912E-1,1.554117560E0
9.876763810E-1,-7.686975598E-1,1.443169117E-1,1.419116378E0
9.896754810E-1,-7.754170895E-1,5.829181671E-1,1.125290155E0
9.916756140E-1,-7.754170895E-1,5.829181671E-1,1.125290155E0
9.936755800E-1,-8.157341480E-1,7.600690722E-1,8.589528799E-1
9.956755460E-1,-8.768206835E-1,9.011789560E-1,5.773440003E-1
9.976755120E-1,-9.061422348E-1,9.402743578E-1,4.533383846E-1
9.996754780E-1,-9.525679946E-1,1.002582550E0,2.615266740E-1
1.001675478E0,-9.861655831E-1,1.028238893E0,1.185842156E-1
1.003675511E0,-9.947177172E-1,1.023352027E0,5.444336683E-2
1.005675544E0,-1.010600209E0,9.915869832E-1,-6.834054738E-2
1.007675577E0,-1.022817492E0,9.384417534E-1,-2.002874464E-1
1.009676477E0,-1.028926134E0,8.761335015E-1,-3.444516361E-1
1.011677410E0,-1.028926134E0,8.492553830E-1,-4.195880592E-1
1.013677443E0,-1.020984888E0,7.741189599E-1,-5.961281061E-1
1.015677843E0,-1.014265418E0,7.179193497E-1,-7.854963541E-1
1.017677876E0,-1.009378433E0,6.855435371E-1,-8.783478737E-1
1.019677876E0,-1.006324172E0,6.238461137E-1,-1.045724988E0
1.021677876E0,-1.002658963E0,5.615378618E-1,-1.196608663E0
1.023677876E0,-1.000215530E0,5.322163701E-1,-1.260749459E0
1.025677876E0,-9.983828664E-1,4.741841555E-1,-1.367040038E0
1.027677876E0,-9.928851128E-1,4.198171496E-1,-1.448285103E0
1.029677009E0,-9.757808447E-1,3.349068761E-1,-1.504484773E0
1.031676675E0,-9.757808447E-1,3.349068761E-1,-1.504484773E0
1.033676641E0,-9.910525084E-1,2.829833329E-1,-1.491656542E0
1.035676274E0,-1.019763112E0,2.267837226E-1,-1.459280729E0
1.037676240E0,-1.036867380E0,1.931861341E-1,-1.444009066E0
1.039676606E0,-1.086958289E0,1.540907621E-1,-1.399415970E0
1.041676572E0,-1.133994937E0,9.789115191E-2,-1.346270680E0
1.043676538E0,-1.157207847E0,7.528914511E-2,-1.321835995E0
1.045675571E0,-1.189583659E0,3.863722831E-2,-1.270523310E0
1.047675571E0,-1.203633666E0,1.664607786E-2,-1.236314893E0
1.049676437E0,-1.206077099E0,-1.267545391E-2,-1.225930214E0
1.051676303E0,-1.206687927E0,-5.665775016E-2,-1.208825946E0
1.053676336E0,-1.155375242E0,-4.871650413E-2,-1.197830439E0
1.055676369E0,-9.825003743E-1,5.635231733E-2,-1.145906806E0
1.057676402E0,-8.835402131E-1,7.834346592E-2,-1.112309217E0
1.059676435E0,-7.241044044E-1,3.130684420E-2,-1.030453324E0
1.061676468E0,-6.208681464E-1,-1.043052375E-1,-9.534842968E-1
1.063676468E0,-5.848271251E-1,-1.989893466E-1,-9.156106710E-1
1.065676434E0,-5.212971568E-1,-4.146247804E-1,-8.514698148E-1
1.067676400E0,-4.730387628E-1,-6.522513628E-1,-8.154287338E-1
1.069675500E0,-3.661373556E-1,-1.096961260E0,-7.604508996E-1
1.071674600E0,-3.319289088E-1,-1.193477988E0,-7.476227283E-1
1.073673933E0,-3.319289088E-1,-1.193477988E0,-7.476227283E-1
1.075673533E0,-2.671771944E-1,-1.368796349E0,-7.268533111E-1
1.077673499E0,-2.323578745E-1,-1.441489220E0,-7.195228934E-1
1.079673499E0,-1.541671157E-1,-1.590540409E0,-6.926448345E-1
1.081673499E0,-7.047858089E-2,-1.718822122E0,-6.559929252E-1
1.083673499E0,-2.527454868E-2,-1.775021672E0,-6.364452243E-1
1.085673499E0,7.063129544E-2,-1.869094968E0,-5.949063897E-1
1.087673499E0,1.647045463E-1,-1.954616070E0,-5.521458387E-1
1.089674365E0,2.117411643E-1,-1.994322300E0,-5.277112126E-1
1.091674698E0,2.984840274E-1,-2.065182686E0,-4.837289155E-1
1.093674698E0,3.833943009E-1,-2.135432243E0,-4.495204687E-1
1.095675031E0,4.566981196E-1,-2.205681801E0,-4.281401932E-1
1.097675064E0,4.909065962E-1,-2.240500927E0,-4.256967306E-1
1.099675097E0,5.532148480E-1,-2.312583208E0,-4.238641262E-1
1.101675130E0,6.094144583E-1,-2.380389214E0,-4.220315218E-1
1.103675163E0,6.338490248E-1,-2.410932302E0,-4.263075888E-1
1.105675196E0,6.692792177E-1,-2.484847069E0,-4.501313269E-1
1.107675229E0,6.802747846E-1,-2.575865984E0,-4.904484451E-1
1.109674395E0,6.906595230E-1,-2.668717623E0,-5.417611003E-1
1.111674395E0,7.022659779E-1,-2.710867167E0,-5.643631220E-1
1.113674361E0,7.175375819E-1,-2.782949448E0,-6.089562774E-1
1.115674327E0,7.352526784E-1,-2.853198767E0,-6.504951119E-1
1.117674293E0,7.462482452E-1,-2.874579191E0,-6.590472460E-1
1.119674259E0,7.572438121E-1,-2.924669981E0,-6.834818721E-1
1.121674225E0,7.529677749E-1,-2.993087053E0,-7.280750275E-1
1.123674191E0,7.480808496E-1,-3.016299963E0,-7.549530864E-1
1.125674191E0,7.230353951E-1,-3.062725544E0,-8.465828896E-1
1.127674191E0,7.016550899E-1,-3.103042841E0,-9.608146548E-1
1.129675091E0,6.808856726E-1,-3.106096983E0,-1.031064153E0
1.131675991E0,6.540076137E-1,-3.112205744E0,-1.175228357E0
1.133676657E0,6.326273084E-1,-3.097544909E0,-1.327333808E0
1.135676690E0,6.179665327E-1,-3.074942827E0,-1.481271863E0
1.137676723E0,6.362925172E-1,-3.040734529E0,-1.563127756E0
1.139676756E0,6.112470627E-1,-3.030349731E0,-1.630322933E0
1.141676789E0,5.880341530E-1,-3.017521620E0,-1.666364074E0
1.143676789E0,5.849798322E-1,-3.010802031E0,-1.677970529E0
1.145676789E0,5.733733773E-1,-2.982702255E0,-1.677359581E0
1.147676789E0,5.923101902E-1,-2.926502705E0,-1.661477089E0
1.149675922E0,5.837581158E-1,-2.871524811E0,-1.655368447E0
1.151675022E0,5.837581158E-1,-2.871524811E0,-1.655368447E0
1.153675022E0,5.489387512E-1,-2.846479416E0,-1.687744260E0
1.155675022E0,5.135086179E-1,-2.803718805E0,-1.720731020E0
1.157674988E0,4.988478422E-1,-2.767677784E0,-1.774487138E0
1.159674954E0,4.841870666E-1,-2.689486980E0,-1.834352016E0
1.161674020E0,4.811327457E-1,-2.610074520E0,-1.857564807E0
1.163673986E0,4.817436039E-1,-2.577698708E0,-1.869171262E0
1.165673952E0,4.676937163E-1,-2.502562284E0,-1.885053754E0
1.167673918E0,4.536437988E-1,-2.416430235E0,-1.912542701E0
1.169674751E0,4.481460154E-1,-2.362673998E0,-1.933312178E0
1.171674717E0,4.432590902E-1,-2.235003233E0,-1.978516221E0
1.173675183E0,4.731914997E-1,-2.078010798E0,-1.999285579E0
1.175675216E0,4.945717752E-1,-2.002263546E0,-2.004783392E0
1.177675249E0,5.477170348E-1,-1.838551641E0,-2.010281086E0
1.179674849E0,5.910884738E-1,-1.713935137E0,-2.010281086E0
1.181674882E0,6.094144583E-1,-1.616807580E0,-2.011502981E0
1.183674915E0,6.167448163E-1,-1.575879574E0,-2.018222332E0
1.185674948E0,6.301838756E-1,-1.480584621E0,-2.032272339E0
1.187674981E0,6.259077787E-1,-1.396896124E0,-2.047544003E0
1.189674114E0,5.892558694E-1,-1.245401502E0,-2.065869808E0
1.191673914E0,5.892558694E-1,-1.245401502E0,-2.065869808E0
1.193673880E0,5.581017733E-1,-1.142776132E0,-2.064037323E0
1.195673846E0,5.336671472E-1,-1.101848245E0,-2.064037323E0
1.197673812E0,5.025130510E-1,-1.016937971E0,-2.045100451E0
1.199673778E0,4.658611119E-1,-9.418014884E-1,-2.015779018E0
1.201673744E0,4.499786198E-1,-8.452847600E-1,-1.987068295E0
1.203673744E0,4.402047694E-1,-8.074111342E-1,-1.961411953E0
1.205673744E0,4.395939112E-1,-7.371616364E-1,-1.902158022E0
1.207673777E0,4.402047694E-1,-6.815729141E-1,-1.843514919E0
1.209674677E0,4.389830232E-1,-6.632469296E-1,-1.817858577E0
1.211675610E0,4.371504486E-1,-6.327036619E-1,-1.762880683E0
1.213675643E0,4.285983145E-1,-6.113234162E-1,-1.706070304E0
1.215675676E0,4.237114191E-1,-6.064364910E-1,-1.673694372E0
1.217675709E0,4.127158225E-1,-5.954409242E-1,-1.612607837E0
1.219675742E0,4.108832479E-1,-5.783366561E-1,-1.551521420E0
1.221676675E0,4.139375687E-1,-5.612324476E-1,-1.499597788E0
1.223676675E0,4.255439937E-1,-5.484042764E-1,-1.475163221E0
1.225676675E0,4.505894780E-1,-5.288565755E-1,-1.418963552E0
1.227676675E0,4.951826334E-1,-5.154175758E-1,-1.374370456E0
1.229675808E0,5.910884738E-1,-4.537201524E-1,-1.307175279E0
1.231674908E0,5.910884738E-1,-4.537201524E-1,-1.307175279E0
1.233674441E0,6.619488597E-1,-4.433354437E-1,-1.264414668E0
1.235674407E0,7.016550899E-1,-4.292855561E-1,-1.247921348E0
1.237674373E0,7.816784382E-1,-4.298964143E-1,-1.214934587E0
1.239674773E0,8.574257493E-1,-4.378376603E-1,-1.189889193E0
1.241674739E0,9.172905087E-1,-4.708243906E-1,-1.155069828E0
1.243674705E0,9.362273216E-1,-4.922046661E-1,-1.139187336E0
1.245674671E0,9.606619477E-1,-5.679519773E-1,-1.096426725E0
1.247674637E0,9.893726110E-1,-6.088799238E-1,-1.067716122E0
1.249675470E0,1.008309484E0,-6.265950203E-1,-1.058553100E0
1.251675636E0,1.045572281E0,-6.510296464E-1,-1.030453324E0
1.253675669E0,1.063287258E0,-6.998988390E-1,-9.944122434E-1
1.255675702E0,1.052902579E0,-7.414376736E-1,-9.644798636E-1
1.257675735E0,1.021137595E0,-7.915286422E-1,-9.003390074E-1
1.259675768E0,9.857074022E-1,-8.239045143E-1,-8.007679582E-1
1.261675801E0,9.258426428E-1,-8.648324609E-1,-6.950882673E-1
1.263675834E0,8.891907334E-1,-8.996517658E-1,-6.407212615E-1
1.265675867E0,7.920631766E-1,-9.863946438E-1,-5.069417953E-1
1.267675867E0,6.888269186E-1,-1.073748350E0,-3.597232699E-1
1.269674967E0,5.446627140E-1,-1.166599870E0,-8.972083032E-2
1.271674067E0,5.446627140E-1,-1.166599870E0,-8.972083032E-2
1.273673300E0,5.226715803E-1,-1.173319459E0,-1.458440814E-2
1.275673266E0,5.055673718E-1,-1.176984668E0,5.383250117E-2
1.277673232E0,5.037347674E-1,-1.157436967E0,1.851685345E-1
1.279673198E0,5.232824683E-1,-1.151328325E0,3.024546504E-1
1.281673164E0,5.324454308E-1,-1.158047795E0,3.543781936E-1
1.283673164E0,5.605452061E-1,-1.175762892E0,4.796055853E-1
1.285673197E0,5.910884738E-1,-1.191645384E0,5.810092092E-1
1.287673230E0,6.228534579E-1,-1.216690898E0,6.830236912E-1
1.289674130E0,6.411794424E-1,-1.224632144E0,7.233408093E-1
1.291675063E0,6.918812394E-1,-1.244179845E0,7.832056284E-1
1.293675096E0,7.419722080E-1,-1.294881582E0,8.406269550E-1
1.295674729E0,7.615199089E-1,-1.327257514E0,8.693376184E-1
1.297674762E0,8.122217059E-1,-1.407280803E0,9.175959826E-1
1.299674795E0,8.671995997E-1,-1.492191076E0,9.621891379E-1
1.301675161E0,9.160687923E-1,-1.586264372E0,1.003117085E0
1.303675161E0,9.429468513E-1,-1.640020490E0,1.020221353E0
1.305675161E0,9.954812527E-1,-1.746921897E0,1.053818941E0
1.307675161E0,1.043739676E0,-1.838551641E0,1.073977470E0
1.309674294E0,1.088332772E0,-1.948507428E0,1.079475284E0
1.311674494E0,1.102382660E0,-2.002874374E0,1.083751321E0
1.313674460E0,1.113378286E0,-2.125658274E0,1.088027358E0
1.315674893E0,1.109713078E0,-2.189799070E0,1.086805582E0
1.317674859E0,1.087721944E0,-2.301587582E0,1.094746828E0
1.319674825E0,1.052291751E0,-2.410932302E0,1.098412037E0
1.321674791E0,1.032133222E0,-2.460412502E0,1.103299022E0
1.323674757E0,9.905943274E-1,-2.534327269E0,1.119792342E0
1.325674723E0,9.447794557E-1,-2.572811604E0,1.161331177E0
1.327673789E0,9.295078516E-1,-2.600911379E0,1.190652728E0
1.329674655E0,8.952993751E-1,-2.642450333E0,1.256626129E0
1.331675555E0,8.720865250E-1,-2.638174295E0,1.324432254E0
1.333675921E0,8.488736153E-1,-2.616794109E0,1.403233886E0
1.335675954E0,8.409323692E-1,-2.612517834E0,1.438053131E0
1.337675987E0,8.177194595E-1,-2.575865984E0,1.505859137E0
1.339676020E0,8.030587435E-1,-2.540435791E0,1.591991186E0
1.341676053E0,7.969500422E-1,-2.515390396E0,1.639027834E0
1.343676086E0,8.030587435E-1,-2.424371481E0,1.741042256E0
1.345675686E0,8.226063848E-1,-2.335795879E0,1.853441477E0
1.347675652E0,8.531496525E-1,-2.235614061E0,1.954234242E0
1.349674752E0,9.453903437E-1,-2.096947670E0,2.092289925E0
1.351673818E0,9.453903437E-1,-2.096947670E0,2.092289925E0
1.353673784E0,1.021137595E0,-2.023643732E0,2.170480490E0
1.355674150E0,1.054735184E0,-1.979050636E0,2.201634645E0
1.357674116E0,1.135980248E0,-1.902081609E0,2.248060465E0
1.359674082E0,1.208673239E0,-1.816560507E0,2.262110472E0
1.361673282E0,1.244714260E0,-1.803732395E0,2.260277748E0
1.363673315E0,1.270981550E0,-1.812284470E0,2.263332129E0
1.365673348E0,1.284420490E0,-1.795791149E0,2.268218994E0
1.367673381E0,1.317407250E0,-1.750587106E0,2.265775442E0
1.369674281E0,1.339398384E0,-1.736537218E0,2.272495031E0
1.371674114E0,1.341841817E0,-1.766469598E0,2.303038359E0
1.373673814E0,1.336344123E0,-1.783573747E0,2.353740215E0
1.375673380E0,1.324126720E0,-1.815338850E0,2.380618334E0
1.377673413E0,1.264261961E0,-1.913077235E0,2.440483093E0
1.379672546E0,1.167134404E0,-2.045634985E0,2.555936575E0
1.381672546E0,1.112156510E0,-2.114051819E0,2.623131752E0
1.383672546E0,9.979247451E-1,-2.217288017E0,2.749580860E0
1.385672546E0,9.105709791E-1,-2.282650709E0,2.862590790E0
1.387673446E0,9.014080167E-1,-2.260659456E0,2.981098652E0
1.389672579E0,1.019304991E0,-2.240500927E0,3.144810677E0
1.391671845E0,1.019304991E0,-2.240500927E0,3.144810677E0
1.393672211E0,1.136591196E0,-2.251496553E0,3.366554737E0
1.395672177E0,1.222112298E0,-2.213623047E0,3.497279882E0
1.397672143E0,1.382769823E0,-2.210568666E0,3.594407558E0
1.399672109E0,1.505553722E0,-2.262492180E0,3.498501539E0
1.401672075E0,1.554422975E0,-2.328465700E0,3.447188854E0
1.403672041E0,1.632613778E0,-2.523942471E0,3.445967197E0
1.405672407E0,1.705917597E0,-2.735301733E0,3.649996281E0
1.407672407E0,1.726076126E0,-2.859307528E0,3.770947456E0
1.409673307E0,1.741347790E0,-3.078608036E0,4.045226097E0
1.411674240E0,1.765782356E0,-3.179400921E0,4.256585598E0
1.413674273E0,1.813429832E0,-3.169626951E0,4.199774742E0
1.415674306E0,1.825647116E0,-3.171459675E0,4.067828178E0
1.417674339E0,1.858633876E0,-3.173902988E0,3.783775568E0
1.419674372E0,1.932548523E0,-3.180622578E0,3.522325277E0
1.421674838E0,1.971643925E0,-3.176346540E0,3.416034698E0
1.423674838E0,2.084654093E0,-3.167183638E0,3.244381666E0
1.425674804E0,2.207437992E0,-3.099377632E0,3.067230701E0
1.427674770E0,2.242257357E0,-3.079829931E0,3.007365942E0
1.429673870E0,2.074880123E0,-2.586250782E0,2.905351400E0
1.431672936E0,2.074880123E0,-2.586250782E0,2.905351400E0
1.433673236E0,1.770669222E0,-1.932624936E0,2.723313570E0
1.435673202E0,1.608179092E0,-1.622305393E0,2.633516312E0
1.437673168E0,1.400484920E0,-1.089630842E0,2.536999702E0
1.439674034E0,1.277701020E0,-6.504187584E-1,2.499737024E0
1.441674067E0,1.256320715E0,-4.995350540E-1,2.496682644E0
1.443674100E0,1.258764148E0,-2.741257846E-1,2.489963055E0
1.445674133E0,1.272203207E0,-3.283400834E-2,2.426433086E0
1.447674899E0,1.289918303E0,7.040221989E-2,2.401387691E0
1.449675799E0,1.320461631E0,2.078468949E-1,2.349464178E0
1.451676532E0,1.383991599E0,2.438879460E-1,2.303649187E0
1.453676565E0,1.448132396E0,2.035708427E-1,2.290821075E0
1.455676598E0,1.492114663E0,1.534798890E-1,2.287155867E0
1.457676598E0,1.569694638E0,2.580905706E-2,2.301816702E0
1.459676598E0,1.628337622E0,-1.134682223E-1,2.309146881E0
1.461676598E0,1.655826569E0,-1.873829067E-1,2.304260015E0
1.463676598E0,1.699808955E0,-3.065016270E-1,2.274938583E0
1.465676531E0,1.734017372E0,-3.895792961E-1,2.229123592E0
1.467676531E0,1.745623827E0,-4.091269970E-1,2.205910683E0
1.469675631E0,1.746845484E0,-3.791945875E-1,2.153987169E0
1.471674731E0,1.746845484E0,-3.791945875E-1,2.153987169E0
1.473674931E0,1.736460805E0,-3.590360582E-1,2.152154684E0
1.475674897E0,1.723021746E0,-3.327688277E-1,2.147267580E0
1.477674863E0,1.679650307E0,-2.771801054E-1,2.141769886E0
1.479674829E0,1.632002831E0,-2.185370475E-1,2.141159058E0
1.481674795E0,1.606346488E0,-1.886046380E-1,2.141769886E0
1.483674761E0,1.550757766E0,-1.305724531E-1,2.130774260E0
1.485674761E0,1.498223424E0,-6.826419383E-2,2.121000528E0
1.487674794E0,1.468901873E0,-3.588833287E-2,2.116724491E0
1.489675694E0,1.415145755E0,7.483099122E-3,2.102674484E0
1.491676627E0,1.365054727E0,2.764165215E-2,2.078239918E0
1.493676660E0,1.319850683E0,2.031126991E-2,2.049529314E0
1.495676693E0,1.297859550E0,1.298088674E-2,2.033646822E0
1.497676726E0,1.242270827E0,1.374446787E-3,2.007990360E0
1.499676759E0,1.179351687E0,-1.389718428E-2,1.971338511E0
1.501676759E0,1.150030136E0,-2.672535367E-2,1.951790810E0
1.503676725E0,1.080391526E0,-5.726861581E-2,1.913306355E0
1.505676691E0,9.973138571E-1,-8.353582025E-2,1.909641147E0
1.507675924E0,9.606619477E-1,-8.842274547E-2,1.882763028E0
1.509675024E0,8.482627273E-1,-1.336267740E-1,1.769142151E0
1.511674990E0,8.103891015E-1,-1.501201391E-1,1.737987995E0
1.513674956E0,7.309766412E-1,-1.721112877E-1,1.677512288E0
1.515674922E0,6.863834858E-1,-1.769981980E-1,1.646969080E0
1.517674922E0,5.898667574E-1,-1.745547503E-1,1.603597641E0
1.519674955E0,4.750240743E-1,-1.427897513E-1,1.577330470E0
1.521674988E0,4.188244939E-1,-1.165225431E-1,1.556560993E0
1.523675021E0,2.972623110E-1,-5.482515693E-2,1.508913517E0
1.525675121E0,1.750892550E-1,4.428773187E-3,1.456990004E0
1.527675154E0,1.115592644E-1,3.619376570E-2,1.434387922E0
1.529676054E0,-7.559457328E-3,9.422596544E-2,1.384297013E0
1.531676954E0,-1.254564524E-1,1.449277848E-1,1.332984328E0
1.533676754E0,-1.853212416E-1,1.711949855E-1,1.310993195E0
1.535676754E0,-3.007747829E-1,2.090686262E-1,1.265789151E0
1.537677520E0,-4.119522572E-1,2.383901626E-1,1.246852279E0
1.539677520E0,-4.638758004E-1,2.725986242E-1,1.285336852E0
1.541677520E0,-5.023602843E-1,3.514002264E-1,1.442940116E0
1.543677520E0,-5.310709476E-1,4.112650156E-1,1.492420197E0
1.545677520E0,-6.361398101E-1,3.581197560E-1,1.474094152E0
1.547677486E0,-6.862307191E-1,3.391829133E-1,1.452103019E0
1.549676586E0,-7.949647307E-1,3.892738819E-1,1.384907842E0
1.551675652E0,-7.949647307E-1,3.892738819E-1,1.384907842E0
1.553675618E0,-7.943539023E-1,4.057672322E-1,1.400179505E0
1.555675584E0,-8.212319613E-1,4.039346576E-1,1.380631804E0
1.557675550E0,-8.597164750E-1,4.094324410E-1,1.367192745E0
1.559675516E0,-9.043096304E-1,4.137084782E-1,1.343979955E0
1.561675482E0,-9.311876893E-1,4.161519408E-1,1.316491008E0
1.563675482E0,-9.855546951E-1,4.479169548E-1,1.245019674E0
1.565675215E0,-1.031980515E0,4.619668424E-1,1.181489706E0
1.567675248E0,-1.056415081E0,4.631885588E-1,1.150335670E0
1.569676148E0,-1.101008296E0,4.442517459E-1,1.061149240E0
1.571676181E0,-1.119945049E0,4.528038502E-1,1.007393122E0
1.573676214E0,-1.109560370E0,4.778493345E-1,9.866237044E-1
1.575676247E0,-1.041143417E0,6.030766964E-1,1.151557326E0
1.577676280E0,-1.031369567E0,6.513350606E-1,1.226693749E0
1.579676280E0,-1.072908401E0,6.733261943E-1,1.170494199E0
1.581676246E0,-1.103451729E0,6.763805151E-1,1.092303395E0
1.583676212E0,-1.162705660E0,6.733261943E-1,9.230937362E-1
1.585676178E0,-1.135827541E0,7.551821470E-1,1.053207994E0
1.587676144E0,-1.107116938E0,8.071057200E-1,1.100244641E0
1.589675244E0,-1.080238819E0,9.671524167E-1,1.276784778E0
1.591674310E0,-1.080238819E0,9.671524167E-1,1.276784778E0
1.593674276E0,-1.072297573E0,1.011134744E0,1.277395606E0
1.595674276E0,-1.109560370E0,1.014799833E0,1.191874504E0
1.597673542E0,-1.085736632E0,1.031904101E0,1.336649537E0
1.599673575E0,-1.058858514E0,1.031904101E0,1.405677319E0
1.601673608E0,-9.977720380E-1,1.023962855E0,1.455157399E0
1.603673641E0,-8.859837055E-1,8.969029188E-1,1.561447978E0
1.605673674E0,-7.974082232E-1,7.771732807E-1,1.579773903E0
1.607673707E0,-7.723627687E-1,7.148650289E-1,1.583439112E0
1.609674607E0,-6.123160720E-1,3.947716653E-1,1.657353759E0
1.611675540E0,-3.307071626E-1,-1.525636017E-1,1.883984804E0
1.613675540E0,-1.669952869E-1,-3.834706545E-1,2.031203270E0
1.615675540E0,4.925100878E-2,-6.919575930E-1,2.183919668E0
1.617675540E0,1.103375331E-1,-7.127270103E-1,2.206521511E0
1.619675540E0,1.748601720E-2,-5.264131427E-1,2.091068029E0
1.621675540E0,-6.742425263E-2,-4.048509300E-1,1.971949339E0
1.623675540E0,-2.427425832E-1,-1.513418704E-1,1.715996861E0
1.625675806E0,-4.088979363E-1,7.712173462E-2,1.532126427E0
1.627675772E0,-4.852560759E-1,1.718058437E-1,1.534569860E0
1.629674872E0,-6.672939062E-1,5.969680548E-1,1.688507915E0
1.631674672E0,-6.672939062E-1,5.969680548E-1,1.688507915E0
1.633674638E0,-7.137196660E-1,7.099781036E-1,1.681788325E0
1.635674604E0,-8.279514909E-1,9.121745229E-1,1.635973454E0
1.637674570E0,-9.091965556E-1,1.092990637E0,1.659797192E0
1.639674536E0,-9.580658078E-1,1.262811184E0,1.489365816E0
1.641674402E0,-9.684504867E-1,1.315345645E0,1.489365816E0
1.643674435E0,-9.598983526E-1,1.412473202E0,1.505248308E0
1.645674468E0,-9.580658078E-1,1.445459843E0,1.395903468E0
1.647674501E0,-9.684504867E-1,1.424690485E0,1.326264858E0
1.649675401E0,-9.592875242E-1,1.337336779E0,1.313436627E0
1.651676334E0,-9.464593530E-1,1.306182623E0,1.350699425E0
1.653676367E0,-9.476810694E-1,1.300684810E0,1.323821306E0
1.655676400E0,-9.171378016E-1,1.257313371E0,1.292667270E0
1.657676400E0,-8.798750043E-1,1.173624873E0,1.267010927E0
1.659676366E0,-8.578838706E-1,1.135140300E0,1.249906659E0
1.661676332E0,-8.090146780E-1,1.054506183E0,1.244408846E0
1.663676298E0,-7.741953135E-1,1.015410781E0,1.227915525E0
1.665676264E0,-7.485389709E-1,9.689850211E-1,1.157055140E0
1.667676230E0,-7.308239341E-1,9.555459619E-1,1.136285663E0
1.669675330E0,-6.709591150E-1,8.626944423E-1,1.127122760E0
1.671674430E0,-6.709591150E-1,8.626944423E-1,1.127122760E0
1.673673930E0,-6.697373986E-1,8.791878223E-1,1.121014118E0
1.675673863E0,-6.679047942E-1,8.816312551E-1,1.106964231E0
1.677673896E0,-6.569092274E-1,9.091202021E-1,1.069090486E0
1.679673929E0,-6.495788097E-1,9.231700897E-1,1.010447502E0
1.681673962E0,-6.404158473E-1,9.714284539E-1,8.778896928E-1
1.683673995E0,-6.294202805E-1,1.028849840E0,8.174140453E-1
1.685674028E0,-6.165921092E-1,1.094212413E0,8.039750457E-1
1.687674061E0,-6.037639380E-1,1.148579359E0,8.064184785E-1
1.689674961E0,-5.958226919E-1,1.273195863E0,8.186357617E-1
1.691675127E0,-5.952118039E-1,1.394758105E0,8.375726342E-1
1.693675127E0,-5.946009755E-1,1.444849014E0,8.546768427E-1
1.695675127E0,-5.933791995E-1,1.526704907E0,8.846092224E-1
1.697675127E0,-5.903248787E-1,1.601841331E0,9.255372286E-1
1.699675127E0,-5.933791995E-1,1.631162882E0,9.298132658E-1
1.701675260E0,-6.000987291E-1,1.658041000E0,9.292023778E-1
1.703675226E0,-6.055965424E-1,1.676366925E0,9.218720198E-1
1.705675192E0,-5.817728043E-1,1.634828091E0,9.292023778E-1
1.707675158E0,-5.640577078E-1,1.597565293E0,9.316458702E-1
1.709674258E0,-5.292384028E-1,1.467450976E0,9.182068110E-1
1.711674224E0,-4.522693455E-1,1.325730324E0,8.913287520E-1
1.713674190E0,-4.229478240E-1,1.268308997E0,8.687267303E-1
1.715674156E0,-4.082870483E-1,1.132086039E0,8.400160670E-1
1.717674122E0,-3.722459972E-1,1.069777727E0,8.473464251E-1
1.719674122E0,-3.514765799E-1,1.045953989E0,8.449029922E-1
1.721674122E0,-3.282637000E-1,1.016021609E0,8.473464251E-1
1.723674155E0,-3.148246706E-1,1.025795460E0,8.375726342E-1
1.725674188E0,-3.313180506E-1,1.041677952E0,8.113054037E-1
1.727674221E0,-3.355940878E-1,1.062447429E0,8.070293665E-1
1.729675121E0,-3.624721766E-1,1.136362076E0,7.948120236E-1
1.731676021E0,-4.217261076E-1,1.177290082E0,7.984772325E-1
1.733676554E0,-4.504367709E-1,1.190118194E0,8.015315533E-1
1.735676654E0,-4.809800088E-1,1.247539520E0,8.003098369E-1
1.737676620E0,-5.121341348E-1,1.276861072E0,7.795404196E-1
1.739676586E0,-5.115233064E-1,1.304350019E0,7.551057935E-1
1.741676552E0,-5.286275148E-1,1.344056249E0,7.117343545E-1
1.743676518E0,-5.408447981E-1,1.353219271E0,6.530913115E-1
1.745676484E0,-5.475643277E-1,1.385595083E0,5.577962995E-1
1.747676450E0,-5.622251034E-1,1.374599576E0,5.113705397E-1
1.749675550E0,-6.159812212E-1,1.305571795E0,3.311653137E-1
1.751674650E0,-6.159812212E-1,1.305571795E0,3.311653137E-1
1.753674683E0,-6.630178690E-1,1.270752430E0,2.877938747E-1
1.755674716E0,-6.953937411E-1,1.223715782E0,2.083813995E-1
1.757674749E0,-7.332673669E-1,1.173014045E0,1.289689243E-1
1.759674782E0,-7.534258962E-1,1.132696867E0,8.865182102E-2
1.761674815E0,-8.218428493E-1,1.114370942E0,4.100432992E-2
1.763674848E0,-8.884271383E-1,1.134529471E0,3.741549561E-3
1.765674881E0,-9.134725928E-1,1.141248941E0,-1.275181212E-2
1.767674914E0,-9.507353902E-1,1.160796642E0,-3.596469015E-2
1.769675780E0,-9.910525084E-1,1.168127060E0,-5.245805159E-2
1.771675780E0,-1.009378433E0,1.163240194E0,-7.139487565E-2
1.773675780E0,-1.009989381E0,1.141248941E0,-8.300131559E-2
1.775675780E0,-1.015487075E0,1.097877502E0,-1.178206354E-1
1.777675780E0,-1.002658963E0,1.052673578E0,-1.587486118E-1
1.779675780E0,-9.989937544E-1,1.036180139E0,-1.782962978E-1
1.781675780E0,-9.794460535E-1,9.860892296E-1,-2.051743716E-1
1.783675746E0,-9.623418450E-1,9.311113358E-1,-2.326633036E-1
1.785675712E0,-9.507353902E-1,9.054549932E-1,-2.461023331E-1
1.787675678E0,-9.372963309E-1,8.516988754E-1,-2.784782052E-1
1.789674778E0,-9.183595181E-1,7.961101532E-1,-3.401755691E-1
1.791674378E0,-9.146943688E-1,7.771732807E-1,-3.560580909E-1
1.793674344E0,-9.116400480E-1,7.649559975E-1,-3.731622994E-1
1.795674310E0,-9.122508764E-1,7.325801253E-1,-3.994295001E-1
1.797674310E0,-9.116400480E-1,6.989825368E-1,-4.208098054E-1
1.799674310E0,-9.134725928E-1,6.824892163E-1,-4.311945140E-1
1.801674343E0,-9.116400480E-1,6.409503818E-1,-4.544073939E-1
1.803674376E0,-9.165269136E-1,5.975789428E-1,-4.611268938E-1
1.805674409E0,-9.299659729E-1,5.670356750E-1,-4.495204687E-1
1.807674442E0,-9.171378016E-1,3.770565689E-1,-3.817144334E-1
1.809675342E0,-9.122508764E-1,2.780964077E-1,-3.609450161E-1
1.811676275E0,-9.085856676E-1,2.567161322E-1,-3.725514412E-1
1.813676275E0,-9.104182720E-1,2.677116990E-1,-3.884339333E-1
1.815676241E0,-9.201921225E-1,3.159700334E-1,-4.195880592E-1
1.817676407E0,-9.342420101E-1,4.033237696E-1,-4.525747895E-1
1.819676373E0,-9.415724277E-1,4.515821338E-1,-4.660138190E-1
1.821676339E0,-9.568440318E-1,5.407684445E-1,-4.990005493E-1
1.823676305E0,-9.702830911E-1,6.183483601E-1,-5.405393839E-1
1.825676271E0,-9.715048075E-1,6.464481354E-1,-5.655848384E-1
1.827676237E0,-9.782243371E-1,6.855435371E-1,-6.095671654E-1
1.829675370E0,-9.831112623E-1,7.038694620E-1,-6.975317597E-1
1.831674503E0,-9.837220907E-1,6.971499324E-1,-7.286858559E-1
1.833674536E0,-9.879981875E-1,6.818783283E-1,-7.622834444E-1
1.835674569E0,-1.022817492E0,5.407684445E-1,-8.294786215E-1
1.837674602E0,-1.057025909E0,4.021020532E-1,-8.789587021E-1
1.839674635E0,-1.083904028E0,3.190243840E-1,-8.771261573E-1
1.841674668E0,-1.244561553E0,-1.623374373E-1,-7.170794606E-1
1.843674701E0,-1.390558362E0,-7.249443531E-1,-4.617377818E-1
1.845674734E0,-1.459586143E0,-9.656252265E-1,-3.316234648E-1
1.847674734E0,-1.571374536E0,-1.353524685E0,-9.521862119E-2
1.849675600E0,-1.670334697E0,-1.596038222E0,9.414960444E-2
1.851675966E0,-1.782733917E0,-1.711491704E0,2.596940994E-1
1.853675966E0,-1.848096490E0,-1.737148046E0,3.378848433E-1
1.855675966E0,-1.976989031E0,-1.735926270E0,4.960989356E-1
1.857675966E0,-2.122375011E0,-1.706604719E0,6.653085947E-1
1.859675966E0,-2.193846226E0,-1.685835361E0,7.502188683E-1
1.861675932E0,-2.322127819E0,-1.632690072E0,9.218720198E-1
1.863675898E0,-2.443079233E0,-1.556942821E0,1.093525171E0
1.865675864E0,-2.499889612E0,-1.499521494E0,1.175992012E0
1.867675830E0,-2.602514982E0,-1.360855103E0,1.326264858E0
1.869674930E0,-2.840141535E0,-9.949467778E-1,1.646358252E0
1.871674030E0,-2.840141535E0,-9.949467778E-1,1.646358252E0
1.873673296E0,-2.840141535E0,-9.949467778E-1,1.646358252E0
1.875673296E0,-2.896341085E0,-8.245153427E-1,1.733711958E0
1.877673096E0,-2.896341085E0,-5.874996781E-1,1.810680985E0
1.879673129E0,-2.884123802E0,-4.561636150E-1,1.842445970E0
1.881673162E0,-2.835254669E0,-1.672243625E-1,1.897423863E0
1.883673195E0,-2.770503044E0,1.320996135E-1,1.928577900E0
1.885673228E0,-2.735072851E0,2.842050493E-1,1.935908318E0
1.887673261E0,-2.699642658E0,5.279402733E-1,1.946903944E0
1.889674161E0,-2.591519356E0,7.460191846E-1,1.929799676E0
1.891675061E0,-2.503554821E0,8.419250250E-1,1.905975938E0
1.893675027E0,-2.298914909E0,9.921978712E-1,1.847332835E0
1.895674993E0,-2.058845043E0,1.083216786E0,1.763033509E0
1.897674959E0,-1.774792552E0,1.121090412E0,1.657353759E0
1.899674925E0,-1.609858990E0,1.119868755E0,1.596878052E0
1.901674891E0,-1.256778836E0,1.069777727E0,1.456990004E0
1.903674857E0,-8.817076087E-1,9.616546035E-1,1.317101836E0
1.905674823E0,-6.911176443E-1,8.773552179E-1,1.248074055E0
1.907674823E0,-3.166572750E-1,6.635523438E-1,1.108185887E0
1.909673956E0,2.787072770E-2,3.966042697E-1,9.725738168E-1
1.911673956E0,1.891391575E-1,2.475531399E-1,9.072112441E-1
1.913673956E0,4.701371789E-1,-3.344487399E-2,7.905359864E-1
1.915673956E0,6.949355602E-1,-2.612976134E-1,6.934084296E-1
1.917673956E0,8.763625622E-1,-4.500549734E-1,6.152176857E-1
1.919673956E0,9.460011721E-1,-5.239696503E-1,5.779548883E-1
1.921673956E0,1.045572281E0,-6.333145499E-1,5.150357485E-1
1.923673956E0,1.110323906E0,-7.127270103E-1,4.631122053E-1
1.925673989E0,1.128649950E0,-7.463245988E-1,4.460079968E-1
1.927674022E0,1.135369420E0,-7.725918293E-1,4.240168333E-1
1.929674922E0,1.115821719E0,-7.646505833E-1,4.203516543E-1
1.931675822E0,1.098106623E0,-7.438811660E-1,4.203516543E-1
1.933676555E0,1.047404766E0,-6.687447429E-1,4.227951169E-1
1.935676588E0,9.802096486E-1,-5.624541640E-1,4.270711541E-1
1.937676621E0,9.044623375E-1,-4.378376603E-1,4.301255047E-1
1.939676621E0,8.617017865E-1,-3.761402667E-1,4.325689375E-1
1.941676587E0,7.688502669E-1,-2.564106882E-1,4.325689375E-1
1.943676553E0,6.772204638E-1,-1.617265791E-1,4.301255047E-1
1.945676519E0,6.277403831E-1,-1.238529310E-1,4.295146167E-1
1.947676485E0,5.342780352E-1,-7.559457421E-2,4.246276915E-1
1.949675585E0,3.980550766E-1,-4.077525437E-2,4.209625125E-1
1.951674651E0,3.546836376E-1,-3.711006418E-2,4.191299081E-1
1.953674784E0,3.107013404E-1,-2.916881628E-2,4.191299081E-1
1.955674784E0,2.288453877E-1,-2.672535367E-2,4.130212665E-1
1.957674817E0,1.549306959E-1,-2.428189293E-2,4.026365578E-1
1.959674850E0,1.213331074E-1,-2.000583708E-2,3.953061700E-1
1.961674883E0,5.902485549E-2,-1.206458826E-2,3.702606857E-1
1.963674916E0,-2.290744742E-4,-1.756237634E-2,3.158936799E-1
1.965674949E0,-2.771801129E-2,-2.183843218E-2,2.798526287E-1
1.967674982E0,-8.575020730E-2,-2.733621933E-2,1.778381467E-1
1.969675882E0,-1.340085566E-1,-3.649919853E-2,4.894557595E-2
1.971675915E0,-1.621083617E-1,-3.466660157E-2,-1.947133057E-2
1.973675915E0,-2.030363381E-1,-1.817324013E-2,-1.550834179E-1
1.975675915E0,-2.286926806E-1,2.397646010E-2,-2.723695338E-1
1.977675648E0,-2.415208519E-1,7.040221989E-2,-3.652210534E-1
1.979675648E0,-2.402991205E-1,8.628471941E-2,-4.085924923E-1
1.981675648E0,-2.329687327E-1,1.070541367E-1,-4.806745946E-1
1.983675648E0,-2.140319049E-1,1.070541367E-1,-5.472589135E-1
1.985675614E0,-1.999820024E-1,1.076650023E-1,-5.851325393E-1
1.987675580E0,-1.621083617E-1,1.046106741E-1,-6.639341712E-1
1.989674680E0,-1.089630872E-1,6.490442902E-2,-7.787768245E-1
1.991674780E0,-1.089630872E-1,6.490442902E-2,-7.787768245E-1
1.993674746E0,-6.803511828E-2,4.963280261E-2,-8.600218892E-1
1.995674712E0,-4.543310404E-2,2.580905706E-2,-9.284388423E-1
1.997674678E0,-3.504839167E-2,6.261368748E-3,-9.919688106E-1
1.999674644E0,-3.504839167E-2,1.985311974E-3,-1.020679474E0
2.001674644E0,-4.298964143E-2,5.039638374E-3,-1.065883517E0
2.003674677E0,-6.986771524E-2,1.542434748E-2,-1.091539860E0
2.005674710E0,-9.185886383E-2,2.458732575E-2,-1.095815897E0
2.007674743E0,-1.443932652E-1,4.108068720E-2,-1.079322577E0
2.009675643E0,-2.109775841E-1,6.062837690E-2,-1.035340190E0
2.011676576E0,-2.476294935E-1,7.590000331E-2,-1.005407810E0
2.013676476E0,-3.178789914E-1,1.101084575E-1,-9.290496707E-1
2.015676509E0,-3.807981312E-1,1.498146951E-1,-8.398633599E-1
2.017676509E0,-4.082870483E-1,1.736384481E-1,-7.952702045E-1
2.019676475E0,-4.510476291E-1,2.243402600E-1,-7.103599310E-1
2.021676441E0,-4.797582924E-1,2.744311988E-1,-6.315582991E-1
2.023676407E0,-5.035820603E-1,3.147483170E-1,-5.515349507E-1
2.025676373E0,-5.145776272E-1,3.318525553E-1,-5.118287206E-1
2.027676339E0,-5.408447981E-1,3.526219726E-1,-4.348596931E-1
2.029675439E0,-5.866597295E-1,3.630066812E-1,-3.224605024E-1
2.031674539E0,-6.104834676E-1,3.630066812E-1,-2.827542424E-1
2.033674539E0,-6.379724145E-1,3.605632186E-1,-2.430480123E-1
2.035674572E0,-7.002806664E-1,3.410155177E-1,-1.624137908E-1
2.037674872E0,-7.332673669E-1,3.355177343E-1,-1.202640980E-1
2.039674905E0,-7.955756187E-1,3.342960179E-1,-3.657555580E-2
2.041674938E0,-8.468883038E-1,3.397938013E-1,5.383250117E-2
2.043674971E0,-8.817076087E-1,3.477350473E-1,1.399645060E-1
2.045675004E0,-8.933140635E-1,3.465133011E-1,1.821141988E-1
2.047675037E0,-9.128617644E-1,3.281873465E-1,2.737439871E-1
2.049675937E0,-9.330202937E-1,3.019201458E-1,3.684281111E-1
2.051675803E0,-9.397398233E-1,2.835941911E-1,4.124104083E-1
2.053675803E0,-9.507353902E-1,2.371684313E-1,5.058727860E-1
2.055675803E0,-9.660070539E-1,1.626428664E-1,6.139959097E-1
2.057675803E0,-9.666178823E-1,1.156062484E-1,6.634759903E-1
2.059675803E0,-9.788352251E-1,4.046982154E-2,7.642687559E-1
2.061675803E0,-9.867764711E-1,-2.733621933E-2,8.583420515E-1
2.063675769E0,-9.855546951E-1,-9.697485715E-2,9.475283623E-1
2.065675735E0,-9.702830911E-1,-1.244637966E-1,9.896780849E-1
2.067675701E0,-9.525679946E-1,-1.574505121E-1,1.089859962E0
2.069674801E0,-8.963683844E-1,-1.562287807E-1,1.310382366E0
2.071673901E0,-8.963683844E-1,-1.562287807E-1,1.310382366E0
2.073674101E0,-8.963683844E-1,-1.562287807E-1,1.310382366E0
2.075674067E0,-8.664360046E-1,-1.336267740E-1,1.396514297E0
2.077674033E0,-8.566621542E-1,-1.299615800E-1,1.445994377E0
2.079674033E0,-7.986299396E-1,-1.122464910E-1,1.548008919E0
2.081674066E0,-7.143305540E-1,-8.353582025E-2,1.631697416E0
2.083674099E0,-6.104834676E-1,-4.688390717E-2,1.703168631E0
2.085674132E0,-5.475643277E-1,-3.466660157E-2,1.741653204E0
2.087674165E0,-4.534910917E-1,-8.597928286E-2,1.825341702E0
2.089675065E0,-3.398701549E-1,-1.305724531E-1,1.893758655E0
2.091675965E0,-2.885574698E-1,-1.751656085E-1,1.921858430E0
2.093675998E0,-1.737148017E-1,-3.187189400E-1,1.968284130E0
2.095675998E0,-6.925684959E-2,-4.207334518E-1,2.009823084E0
2.097675964E0,-1.305724494E-2,-4.335615933E-1,2.020207644E0
2.099675930E0,6.696610153E-2,-5.264131427E-1,2.037922859E0
2.101675896E0,1.274417639E-1,-5.722280145E-1,2.028148890E0
2.103675862E0,1.695914567E-1,-6.101016402E-1,2.031814098E0
2.105675828E0,1.775327176E-1,-5.942191482E-1,2.031203270E0
2.107675794E0,1.860848218E-1,-6.345362663E-1,1.991497040E0
2.109674894E0,2.056325078E-1,-6.436992288E-1,1.965229869E0
2.111674894E0,1.976912618E-1,-6.388123035E-1,1.971949339E0
2.113674927E0,1.488220394E-1,-5.948300362E-1,1.973171115E0
2.115674960E0,1.188896447E-1,-5.435173512E-1,1.967673302E0
2.117674993E0,1.023962870E-1,-4.934264123E-1,1.967062473E0
2.119675026E0,2.298380435E-2,-3.914119005E-1,1.984166622E0
2.121675059E0,-4.237877578E-2,-3.058907688E-1,1.982334137E0
2.123675159E0,-1.278999150E-1,-2.570215464E-1,1.997605681E0
2.125675192E0,-1.413389444E-1,-2.557998300E-1,2.006768703E0
2.127675225E0,-1.969276816E-1,-3.162754774E-1,2.039755344E0
2.129676091E0,-2.519055605E-1,-3.223841190E-1,2.078239918E0
2.131676957E0,-2.610685229E-1,-3.559817076E-1,2.097787619E0
2.133676723E0,-3.001639247E-1,-4.048509300E-1,2.129552603E0
2.135676723E0,-3.600287139E-1,-4.372268021E-1,2.139937401E0
2.137676723E0,-3.765220642E-1,-4.641048610E-1,2.135661364E0
2.139676723E0,-4.003458023E-1,-4.915938079E-1,2.155819893E0
2.141676689E0,-4.217261076E-1,-5.294674635E-1,2.171702385E0
2.143676655E0,-4.308890700E-1,-5.410739183E-1,2.174145699E0
2.145676621E0,-4.235586822E-1,-5.569564104E-1,2.185752153E0
2.147676587E0,-4.644866586E-1,-5.569564104E-1,2.203467369E0
2.149675687E0,-4.938081801E-1,-4.488332272E-1,2.163761139E0
2.151674753E0,-4.938081801E-1,-4.488332272E-1,2.163761139E0
2.153674719E0,-5.212971568E-1,-3.462078869E-1,2.119167805E0
2.155674685E0,-5.292384028E-1,-2.270891517E-1,2.051361799E0
2.157674685E0,-4.657084048E-1,-2.057088763E-1,2.031203270E0
2.159674718E0,-3.862959146E-1,-1.372919679E-1,1.995773077E0
2.161674751E0,-2.916117907E-1,-1.195768714E-1,1.978057981E0
2.163674784E0,-2.451860309E-1,-1.018617824E-1,1.965229869E0
2.165674817E0,-1.425606757E-1,-9.575312585E-2,1.937130094E0
2.167674850E0,-2.710714564E-2,-1.153008118E-1,1.896202087E0
2.169675750E0,6.574437022E-2,-1.696678251E-1,1.850387216E0
2.171675783E0,1.231657043E-1,-1.678352207E-1,1.829617739E0
2.173675783E0,2.245693356E-1,-1.812742651E-1,1.793576717E0
2.175675749E0,2.862667143E-1,-1.928807050E-1,1.740431428E0
2.177675715E0,3.223077655E-1,-2.075414658E-1,1.714164257E0
2.179675681E0,3.479641080E-1,-2.118175179E-1,1.648801684E0
2.181675647E0,3.772856593E-1,-2.032654136E-1,1.581606507E0
2.183675547E0,3.595705628E-1,-2.124283910E-1,1.553506732E0
2.185675513E0,2.832123935E-1,-2.698497176E-1,1.522963405E0
2.187675479E0,2.606103718E-1,-3.242167234E-1,1.468596458E0
2.189674612E0,2.545017302E-1,-4.158465266E-1,1.384297013E0
2.191673745E0,2.545017302E-1,-4.158465266E-1,1.384297013E0
2.193673778E0,2.691625059E-1,-4.066835344E-1,1.369025350E0
2.195673811E0,2.819906771E-1,-3.926336467E-1,1.365971088E0
2.197673844E0,2.557234764E-1,-3.950771093E-1,1.375133991E0
2.199673877E0,2.343431860E-1,-4.011857510E-1,1.369636297E0
2.201673910E0,1.818087697E-1,-3.761402667E-1,1.347034216E0
2.203673943E0,1.598176211E-1,-3.926336467E-1,1.332984328E0
2.205673976E0,1.109483987E-1,-3.938553631E-1,1.310382366E0
2.207673976E0,1.017854214E-1,-3.596469164E-1,1.294499755E0
2.209674842E0,8.223773539E-2,-2.112066597E-1,1.295110703E0
2.211675742E0,1.048397496E-1,-1.525636017E-1,1.299386740E0
2.213675742E0,1.017854214E-1,-2.244929783E-2,1.318934441E0
2.215675742E0,6.085744873E-2,1.259909570E-1,1.336038709E0
2.217675742E0,7.368562371E-2,1.571450830E-1,1.342147350E0
2.219675708E0,6.879869848E-2,1.895209402E-1,1.375133991E0
2.221675674E0,4.253149405E-2,2.860376537E-1,1.411785960E0
2.223675640E0,4.802928120E-2,2.890919745E-1,1.436220527E0
2.225675606E0,4.741841555E-2,3.074179292E-1,1.484478951E0
2.227675572E0,3.153591976E-2,3.239113092E-1,1.542511106E0
2.229674672E0,6.207918003E-2,3.294090927E-1,1.653077722E0
2.231674472E0,6.207918003E-2,3.294090927E-1,1.653077722E0
2.233674438E0,6.513350457E-2,3.410155177E-1,1.755092263E0
2.235674438E0,7.368562371E-2,2.823724449E-1,1.882763028E0
2.237674471E0,8.590292186E-2,3.697261810E-1,1.919414997E0
2.239674504E0,1.781435758E-1,4.674646258E-1,1.993329644E0
2.241674537E0,2.642755806E-1,6.763805151E-1,2.139937401E0
2.243674570E0,3.015383482E-1,7.735081315E-1,2.179032803E0
2.245674603E0,2.923753858E-1,9.427177906E-1,2.202245474E0
2.247674636E0,2.483930737E-1,9.799805880E-1,2.160706758E0
2.249675536E0,8.956811577E-2,7.209737301E-1,2.147878647E0
2.251676436E0,-3.504839167E-2,7.637342811E-1,2.141159058E0
2.253676402E0,-1.975385547E-1,6.800457239E-1,2.268829823E0
2.255676368E0,-3.484222591E-1,6.238461137E-1,2.375120401E0
2.257676334E0,-3.551417887E-1,6.556110978E-1,2.416659355E0
2.259676300E0,-2.244166136E-1,7.735081315E-1,2.445369959E0
2.261676266E0,-7.719809562E-2,8.755226135E-1,2.437428713E0
2.263676232E0,-3.260493279E-2,8.681922555E-1,2.456365585E0
2.265676198E0,9.750936180E-2,8.840747476E-1,2.582203865E0
2.267676198E0,1.818087697E-1,8.755226135E-1,2.783789396E0
2.269675364E0,3.638466001E-1,8.138252497E-1,3.100217581E0
2.271674530E0,3.638466001E-1,8.138252497E-1,3.100217581E0
2.273673663E0,3.638466001E-1,8.138252497E-1,3.100217581E0
2.275673696E0,4.237114191E-1,6.794348955E-1,3.167412758E0
2.277673729E0,4.566981196E-1,5.688682795E-1,3.188182116E0
2.279673762E0,5.269476175E-1,3.025310040E-1,3.210784197E0
2.281673795E0,6.289620996E-1,-4.444044828E-2,3.224223137E0
2.283673828E0,6.662248969E-1,-2.784018219E-1,3.225444794E0
2.285673828E0,6.503424048E-1,-8.739954233E-1,3.235829592E0
2.287673828E0,5.611560941E-1,-1.652848601E0,3.248046875E0
2.289674694E0,5.067890882E-1,-2.066404343E0,3.274314165E0
2.291674860E0,3.864486217E-1,-2.894126892E0,3.340898275E0
2.293674860E0,2.911536396E-1,-3.537367821E0,3.500334263E0
2.295674860E0,1.891391575E-1,-3.958864927E0,3.700697899E0
2.297674826E0,1.451568604E-1,-4.075540066E0,3.799047232E0
2.299674792E0,5.963572115E-2,-4.129907131E0,3.976198196E0
2.301674758E0,-2.955060638E-2,-4.015064716E0,4.109366894E0
2.303674724E0,-6.498079002E-2,-3.904497862E0,4.155792713E0
2.305674690E0,-1.089630872E-1,-3.583182812E0,4.193666458E0
2.307674656E0,-1.046870351E-1,-3.189785480E0,4.172286034E0
2.309673756E0,-3.993531689E-2,-2.821433783E0,4.106923580E0
2.311673722E0,1.603521290E-3,-2.654056787E0,4.058665276E0
2.313673722E0,1.127809957E-1,-2.350456715E0,3.927329063E0
2.315673755E0,2.160172164E-1,-2.073734760E0,3.760562897E0
2.317673788E0,2.703842223E-1,-1.952783465E0,3.681761265E0
2.319673821E0,3.742313087E-1,-1.724319816E0,3.543705702E0
2.321673854E0,4.750240743E-1,-1.525177836E0,3.433139086E0
2.323673887E0,5.269476175E-1,-1.429271936E0,3.376328468E0
2.325673920E0,6.020840406E-1,-1.239292860E0,3.257820606E0
2.327673953E0,6.802747846E-1,-1.048702955E0,3.158860445E0
2.329674819E0,7.089854479E-1,-9.772316813E-1,3.118543386E0
2.331675652E0,7.560220957E-1,-8.092437387E-1,3.037298441E0
2.333676518E0,8.024478555E-1,-6.540839672E-1,2.946279526E0
2.335676484E0,8.250498772E-1,-5.221370459E-1,2.844875813E0
2.337676450E0,8.549822569E-1,-4.524984360E-1,2.782567501E0
2.339676416E0,9.093492627E-1,-2.845104933E-1,2.686661720E0
2.341676382E0,9.032406211E-1,-8.170322329E-2,2.618855715E0
2.343676348E0,8.836929202E-1,1.908953860E-2,2.552271366E0
2.345676348E0,8.207738400E-1,1.889100820E-1,2.387337685E0
2.347676381E0,7.407504916E-1,2.719877362E-1,2.230956316E0
2.349675547E0,5.825363398E-1,2.872593701E-1,2.075185537E0
2.351674680E0,5.825363398E-1,2.872593701E-1,2.075185537E0
2.353674713E0,4.811327457E-1,2.420553565E-1,1.934075713E0
2.355674746E0,3.736204505E-1,1.828014255E-1,1.786857247E0
2.357674779E0,3.143665195E-1,1.485929638E-1,1.719662070E0
2.359674812E0,2.062433809E-1,8.567385375E-2,1.593212962E0
2.361674845E0,9.750936180E-2,1.786780916E-2,1.467374682E0
2.363674845E0,4.680754989E-2,-1.084285788E-2,1.406288147E0
2.365674845E0,-5.642867833E-2,-4.688390717E-2,1.294499755E0
2.367674845E0,-1.450041384E-1,-8.048149943E-2,1.185154915E0
2.369675711E0,-1.889864355E-1,-1.073595658E-1,1.131398797E0
2.371675711E0,-2.659554482E-1,-1.519527286E-1,1.031216860E0
2.373675711E0,-3.264311254E-1,-2.252565622E-1,9.334784746E-1
2.375675677E0,-3.496440053E-1,-2.625193298E-1,8.882744312E-1
2.377675643E0,-3.960697651E-1,-3.419318199E-1,8.009206653E-1
2.379675609E0,-4.314999282E-1,-4.109596014E-1,7.123452425E-1
2.381675575E0,-4.754822254E-1,-4.879286289E-1,6.054438353E-1
2.383675541E0,-5.041928887E-1,-5.355761051E-1,5.510768294E-1
2.385675507E0,-5.469534397E-1,-6.522513628E-1,4.478405714E-1
2.387675473E0,-6.104834676E-1,-7.780895829E-1,3.531564772E-1
2.389674573E0,-6.172029972E-1,-8.923214078E-1,2.114357352E-1
2.391673706E0,-6.172029972E-1,-8.923214078E-1,2.114357352E-1
2.393673739E0,-5.842162371E-1,-8.898779750E-1,1.240820065E-1
2.395673772E0,-5.640577078E-1,-8.794932365E-1,8.376489580E-2
2.397673805E0,-5.164102316E-1,-8.471173644E-1,-1.153008174E-2
2.399673838E0,-4.589888752E-1,-7.799221873E-1,-1.086576581E-1
2.401673871E0,-3.875176311E-1,-6.882924438E-1,-2.149482071E-1
2.403673904E0,-3.472005427E-1,-6.314819455E-1,-2.650391459E-1
2.405673937E0,-2.671771944E-1,-5.196936131E-1,-3.487277031E-1
2.407673937E0,-1.914298981E-1,-4.115704596E-1,-4.336379766E-1
2.409674770E0,-1.547779888E-1,-3.669773042E-1,-4.757876694E-1
2.411675636E0,-7.292203605E-2,-2.838996351E-1,-5.613088012E-1
2.413675602E0,5.413793400E-2,-1.733330190E-1,-6.425538659E-1
2.415675568E0,1.537089646E-1,-4.688390717E-2,-6.553820372E-1
2.417675534E0,5.483279228E-1,6.006332636E-1,-6.004042029E-1
2.419675500E0,8.476518989E-1,1.225548387E0,-5.820782185E-1
2.421675466E0,1.121930361E0,1.790598750E0,-5.985715985E-1
2.423675466E0,1.253877282E0,2.074651003E0,-6.120105982E-1
2.425675499E0,1.473177910E0,2.678796768E0,-6.413321495E-1
2.427675532E0,1.705917597E0,3.216969013E0,-6.590472460E-1
2.429674698E0,1.856190443E0,3.757584810E0,-6.779840589E-1
2.431673831E0,1.856190443E0,3.757584810E0,-6.779840589E-1
2.433673864E0,1.792660475E0,3.845549345E0,-6.792057753E-1
2.435673897E0,1.713858843E0,3.809508324E0,-6.779840589E-1
2.437673930E0,1.490893006E0,3.590207815E0,-6.706537008E-1
2.439673963E0,1.197677612E0,3.227353811E0,-6.572146416E-1
2.441673963E0,8.702539206E-1,2.793028593E0,-6.449973583E-1
2.443673963E0,6.992116570E-1,2.566397667E0,-6.425538659E-1
2.445673963E0,3.888920844E-1,2.107027054E0,-6.431647539E-1
2.447673963E0,1.243874356E-1,1.661706209E0,-6.425538659E-1
2.449674829E0,1.565342210E-2,1.457066298E0,-6.394995451E-1
2.451675695E0,-1.437824070E-1,1.086881995E0,-6.065128446E-1
2.453675661E0,-2.439643145E-1,7.838928103E-1,-5.350415707E-1
2.455675627E0,-2.763401568E-1,6.604980230E-1,-4.855615199E-1
2.457675593E0,-3.026073575E-1,4.631885588E-1,-3.743840456E-1
2.459675559E0,-2.952769995E-1,3.226895630E-1,-2.613739669E-1
2.461675525E0,-2.567924857E-1,2.408336252E-1,-1.587486118E-1
2.463675491E0,-2.280818075E-1,2.170098722E-1,-1.153771728E-1
2.465675457E0,-1.566105783E-1,1.992947906E-1,-5.062545836E-2
2.467675423E0,-8.025242388E-2,1.889100820E-1,-5.345070967E-4
2.469674556E0,8.323038928E-3,1.082758680E-1,8.987355232E-2
2.471673689E0,8.323038928E-3,1.082758680E-1,8.987355232E-2
2.473673055E0,1.870774850E-2,7.590000331E-2,1.045343131E-1
2.475673088E0,2.359467000E-2,4.413501546E-2,1.198059469E-1
2.477673121E0,2.237293869E-2,-2.977968007E-2,1.448514163E-1
2.479673154E0,1.015563495E-2,-1.036943719E-1,1.668425649E-1
2.481673187E0,-2.672535367E-3,-1.782199293E-1,1.778381467E-1
2.483673220E0,-1.427897532E-2,-2.105957866E-1,1.833359301E-1
2.485673220E0,-3.443752974E-2,-2.735149264E-1,1.851685345E-1
2.487673186E0,-4.665483162E-2,-3.211624026E-1,1.808924675E-1
2.489674019E0,-5.032002553E-2,-3.419318199E-1,1.753946841E-1
2.491674885E0,-5.398521572E-2,-3.724750876E-1,1.686751693E-1
2.493674851E0,-5.093089119E-2,-3.975205719E-1,1.601230502E-1
2.495674817E0,-5.276348442E-2,-4.036292136E-1,1.564578563E-1
2.497674783E0,-4.665483162E-2,-4.127921760E-1,1.387427747E-1
2.499674749E0,-3.688098863E-2,-4.121813178E-1,1.198059469E-1
2.501674749E0,-3.077233583E-2,-4.103487432E-1,1.100321040E-1
2.503674782E0,-2.099849284E-2,-4.054618180E-1,9.170614183E-2
2.505674815E0,-2.672535367E-3,-3.920227587E-1,7.460191846E-2
2.507674848E0,2.176207490E-2,-3.694207668E-1,5.688682571E-2
2.509674014E0,4.925100878E-2,-3.486513495E-1,4.589125142E-2
2.511674047E0,6.146831438E-2,-3.394883573E-1,4.222606122E-2
2.513674080E0,8.590292186E-2,-3.266601861E-1,3.550654277E-2
2.515674113E0,9.750936180E-2,-3.217732608E-1,3.184135258E-2
2.517674146E0,1.133918613E-1,-3.113885522E-1,2.512183413E-2
2.519674146E0,1.249983013E-1,-3.107776940E-1,1.229366288E-2
2.521674146E0,1.286634952E-1,-3.101668358E-1,5.574145354E-3
2.523674146E0,1.335504204E-1,-3.187189400E-1,-9.086620063E-3
2.525674146E0,1.329395473E-1,-3.291036487E-1,-2.191479132E-2
2.527674146E0,1.249983013E-1,-3.223841190E-1,-3.168863431E-2
2.529675012E0,1.243874356E-1,-3.187189400E-1,-3.840815276E-2
2.531675878E0,1.127809957E-1,-3.028364480E-1,-3.413209692E-2
2.533676511E0,1.017854214E-1,-2.796235681E-1,-2.435825206E-2
2.535676477E0,9.812022746E-2,-2.649627924E-1,-1.886046492E-2
2.537676443E0,8.651378751E-2,-2.222022265E-1,-8.475755341E-3
2.539676409E0,7.979427278E-2,-1.782199293E-1,-1.145372284E-3
2.541676375E0,7.673994452E-2,-1.562287807E-1,7.635815564E-5
2.543676341E0,7.002042979E-2,-1.134682223E-1,2.519819187E-3
2.545676307E0,6.513350457E-2,-7.864890248E-2,3.741549561E-3
2.547676307E0,6.146831438E-2,-5.604688451E-2,6.872233935E-4
2.549675440E0,5.719225854E-2,-2.733621933E-2,1.908953884E-3
2.551674573E0,5.719225854E-2,-2.733621933E-2,1.908953884E-3
2.553674606E0,5.535966158E-2,-1.450804994E-2,3.130684374E-3
2.555674639E0,5.474879593E-2,-7.788531948E-3,6.872233935E-4
2.557674672E0,5.535966158E-2,7.635815418E-4,7.635815564E-5
2.559674705E0,5.658139288E-2,8.704829961E-3,1.298088697E-3
2.561674738E0,5.780312419E-2,1.237002108E-2,6.872233935E-4
2.563674738E0,6.024658307E-2,2.031126991E-2,4.352414981E-3
2.565674704E0,6.330090761E-2,2.519819140E-2,1.298088697E-3
2.567674670E0,6.757696718E-2,2.764165215E-2,3.130684374E-3
2.569675503E0,7.246389240E-2,3.008511290E-2,5.574145354E-3
2.571675469E0,7.673994452E-2,2.886338346E-2,7.406740915E-3
2.573675435E0,8.101600409E-2,2.580905706E-2,8.628471754E-3
2.575675401E0,8.223773539E-2,2.336559631E-2,9.850202128E-3
2.577675367E0,8.712465316E-2,2.031126991E-2,9.850202128E-3
2.579675367E0,8.895725012E-2,1.664607786E-2,1.473712362E-2
2.581675400E0,9.201157838E-2,1.298088674E-2,1.412625890E-2
2.583675433E0,9.323330969E-2,8.093964309E-3,1.656972058E-2
2.585675466E0,9.873109311E-2,2.596177394E-3,1.718058437E-2
2.587675499E0,9.995282441E-2,-5.955935922E-3,2.023491077E-2
2.589674665E0,1.030071527E-1,-1.511891466E-2,2.206750773E-2
2.591674398E0,1.030071527E-1,-1.511891466E-2,2.206750773E-2
2.593674431E0,1.054506153E-1,-2.061670274E-2,2.390010282E-2
2.595674464E0,1.048397496E-1,-2.244929783E-2,2.512183413E-2
2.597674464E0,1.066723466E-1,-3.039054573E-2,2.756529488E-2
2.599674464E0,1.085049361E-1,-3.344487399E-2,2.695442922E-2
2.601674464E0,1.066723466E-1,-3.711006418E-2,2.817615867E-2
2.603674464E0,1.078940704E-1,-4.260785133E-2,2.878702432E-2
2.605674464E0,1.085049361E-1,-4.566217586E-2,2.878702432E-2
2.607674464E0,1.072832122E-1,-4.627304152E-2,2.878702432E-2
2.609675330E0,1.066723466E-1,-4.688390717E-2,2.695442922E-2
2.611676196E0,1.066723466E-1,-4.993823543E-2,2.756529488E-2
2.613676162E0,1.042288840E-1,-5.543602258E-2,2.695442922E-2
2.615676128E0,1.054506153E-1,-5.360342562E-2,2.573269792E-2
2.617676094E0,1.017854214E-1,-5.849034712E-2,2.390010282E-2
2.619676060E0,9.873109311E-2,-5.787948146E-2,2.206750773E-2
2.621676026E0,9.750936180E-2,-5.787948146E-2,2.451096848E-2
2.623675992E0,9.323330969E-2,-5.910121277E-2,2.328923717E-2
2.625675992E0,9.078984708E-2,-6.093380973E-2,2.206750773E-2
2.627675992E0,8.956811577E-2,-5.910121277E-2,2.267837152E-2
2.629675158E0,8.407033235E-2,-6.215553731E-2,1.962404512E-2
2.631675024E0,8.407033235E-2,-6.215553731E-2,1.962404512E-2
2.633675057E0,8.284860104E-2,-6.582073122E-2,1.840231568E-2
2.635675090E0,8.162686974E-2,-6.520986557E-2,1.656972058E-2
2.637675123E0,8.162686974E-2,-7.192938030E-2,1.656972058E-2
2.639675156E0,7.918340713E-2,-7.254024595E-2,1.473712362E-2
2.641649191E0,7.857254148E-2,-7.070764899E-2,1.718058437E-2
2.643648757E0,7.918340713E-2,-7.315111160E-2,1.412625890E-2
2.645648723E0,8.101600409E-2,-7.742717117E-2,1.412625890E-2
2.647648689E0,8.223773539E-2,-7.987063378E-2,1.412625890E-2
2.649649522E0,8.223773539E-2,-8.659014851E-2,9.239336476E-3
2.651649788E0,8.590292186E-2,-8.964447677E-2,1.107193250E-2
2.653649754E0,8.651378751E-2,-9.697485715E-2,9.239336476E-3
2.655649720E0,8.590292186E-2,-9.758572280E-2,8.628471754E-3
2.657649720E0,8.651378751E-2,-1.024726480E-1,9.850202128E-3
2.659649753E0,8.834638447E-2,-1.073595658E-1,9.850202128E-3
2.661649786E0,8.834638447E-2,-1.104138941E-1,1.046106778E-2
2.663649819E0,8.895725012E-2,-1.146899462E-1,1.046106778E-2
2.665649852E0,8.895725012E-2,-1.232420653E-1,1.473712362E-2
2.667649885E0,9.017898142E-2,-1.269072592E-1,1.290452853E-2
2.669649051E0,8.956811577E-2,-1.348485053E-1,1.473712362E-2
2.671648217E0,8.956811577E-2,-1.348485053E-1,1.473712362E-2
2.673647450E0,8.773551881E-2,-1.360702366E-1,1.840231568E-2
2.675647450E0,8.834638447E-2,-1.372919679E-1,1.779145002E-2
2.677647450E0,8.651378751E-2,-1.372919679E-1,1.901318133E-2
2.679647450E0,8.529205620E-2,-1.397354305E-1,2.084577642E-2
2.681647450E0,8.407033235E-2,-1.385136992E-1,2.084577642E-2
2.683647450E0,8.468119800E-2,-1.360702366E-1,2.328923717E-2
2.685647450E0,8.101600409E-2,-1.336267740E-1,2.206750773E-2
2.687647450E0,7.918340713E-2,-1.324050426E-1,2.328923717E-2
2.689648283E0,7.979427278E-2,-1.305724531E-1,2.634356357E-2
2.691648416E0,7.857254148E-2,-1.287398487E-1,2.878702432E-2
2.693648382E0,7.796167582E-2,-1.250746548E-1,2.512183413E-2
2.695648348E0,7.796167582E-2,-1.244637966E-1,2.756529488E-2
2.697648314E0,7.551821321E-2,-1.244637966E-1,2.756529488E-2
2.699648280E0,7.429648191E-2,-1.232420653E-1,3.061962128E-2
2.701648246E0,7.246389240E-2,-1.207986027E-1,3.000875562E-2
2.703648646E0,7.307475805E-2,-1.232420653E-1,3.367394581E-2
2.705648646E0,6.940956414E-2,-1.195768714E-1,3.733913973E-2
2.707648679E0,7.063129544E-2,-1.226311997E-1,3.672827408E-2
2.709647845E0,7.063129544E-2,-1.226311997E-1,3.733913973E-2
2.711647611E0,6.818783283E-2,-1.201877370E-1,3.428481147E-2
2.713647644E0,6.574437022E-2,-1.232420653E-1,3.428481147E-2
2.715647677E0,6.513350457E-2,-1.226311997E-1,3.306308016E-2
2.717647710E0,6.635523587E-2,-1.256855279E-1,3.306308016E-2
2.719647710E0,6.574437022E-2,-1.305724531E-1,3.123048507E-2
2.721647710E0,6.513350457E-2,-1.324050426E-1,3.123048507E-2
2.723647676E0,6.513350457E-2,-1.391245574E-1,2.878702432E-2
2.725647642E0,6.635523587E-2,-1.458440721E-1,2.756529488E-2
2.727647608E0,6.391177326E-2,-1.488984078E-1,2.939788997E-2
2.729648441E0,6.574437022E-2,-1.556179225E-1,2.939788997E-2
2.731649274E0,6.574437022E-2,-1.660026312E-1,2.817615867E-2
2.733650040E0,6.574437022E-2,-1.727221459E-1,2.756529488E-2
2.735650040E0,6.574437022E-2,-1.794416606E-1,2.878702432E-2
2.737650040E0,6.696610153E-2,-1.886046380E-1,2.817615867E-2
2.739650040E0,6.513350457E-2,-1.965458989E-1,3.000875562E-2
2.741650040E0,6.696610153E-2,-2.020436823E-1,2.817615867E-2
2.743650040E0,6.574437022E-2,-2.112066597E-1,3.061962128E-2
2.745650040E0,6.696610153E-2,-2.209804952E-1,3.061962128E-2
2.747650040E0,6.757696718E-2,-2.246456891E-1,3.000875562E-2
2.749649173E0,6.757696718E-2,-2.380847335E-1,3.245221451E-2
2.751648273E0,6.757696718E-2,-2.380847335E-1,3.245221451E-2
2.753648306E0,6.635523587E-2,-2.423607856E-1,3.184135258E-2
2.755648339E0,6.757696718E-2,-2.490803003E-1,3.245221451E-2
2.757648372E0,6.696610153E-2,-2.521346211E-1,3.184135258E-2
2.759648405E0,6.879869848E-2,-2.594650090E-1,3.306308016E-2
2.761648438E0,6.818783283E-2,-2.594650090E-1,3.123048507E-2
2.763648471E0,6.696610153E-2,-2.637410760E-1,3.306308016E-2
2.765648504E0,6.635523587E-2,-2.643519342E-1,3.306308016E-2
2.767648504E0,6.757696718E-2,-2.643519342E-1,3.306308016E-2
2.769649337E0,6.879869848E-2,-2.674062550E-1,3.367394581E-2
2.771649570E0,6.879869848E-2,-2.674062550E-1,3.245221451E-2
2.773649536E0,6.757696718E-2,-2.643519342E-1,3.184135258E-2
2.775649502E0,6.818783283E-2,-2.649627924E-1,3.123048507E-2
2.777649468E0,6.818783283E-2,-2.594650090E-1,3.245221451E-2
2.779649434E0,6.635523587E-2,-2.551889420E-1,3.184135258E-2
2.781649400E0,6.879869848E-2,-2.539672256E-1,3.123048507E-2
2.783649400E0,7.002042979E-2,-2.490803003E-1,3.000875562E-2
2.785649433E0,6.879869848E-2,-2.454151064E-1,2.878702432E-2
2.787649466E0,6.635523587E-2,-2.393064648E-1,3.000875562E-2
2.789648632E0,6.757696718E-2,-2.283108830E-1,3.184135258E-2
2.791647765E0,6.757696718E-2,-2.283108830E-1,3.184135258E-2
2.793647798E0,6.879869848E-2,-2.289217561E-1,3.306308016E-2
2.795647831E0,6.879869848E-2,-2.228130996E-1,2.695442922E-2
2.797647864E0,7.002042979E-2,-2.173153162E-1,2.145664208E-2
2.799647897E0,6.940956414E-2,-2.142609805E-1,1.779145002E-2
2.801647897E0,6.696610153E-2,-2.112066597E-1,1.534798928E-2
2.803647897E0,6.818783283E-2,-2.093740702E-1,1.656972058E-2
2.805647897E0,6.696610153E-2,-2.093740702E-1,1.412625890E-2
2.807647897E0,6.940956414E-2,-2.057088763E-1,1.168279815E-2
2.809648763E0,6.757696718E-2,-2.050980031E-1,1.412625890E-2
2.811649663E0,6.696610153E-2,-2.038762718E-1,1.290452853E-2
2.813649629E0,6.879869848E-2,-2.026545405E-1,1.229366288E-2
2.815649595E0,6.757696718E-2,-2.026545405E-1,1.290452853E-2
2.817649561E0,7.002042979E-2,-2.026545405E-1,1.229366288E-2
2.819649527E0,6.818783283E-2,-2.014328092E-1,1.351539325E-2
2.821649493E0,6.818783283E-2,-2.002110779E-1,1.412625890E-2
2.823649459E0,6.757696718E-2,-1.989893466E-1,1.412625890E-2
2.825649425E0,6.879869848E-2,-1.983784884E-1,1.351539325E-2
2.827649391E0,6.879869848E-2,-1.959350258E-1,1.473712362E-2
2.829648524E0,6.696610153E-2,-1.904372424E-1,1.595885493E-2
2.831647657E0,6.696610153E-2,-1.904372424E-1,1.595885493E-2
2.833647690E0,6.757696718E-2,-1.886046380E-1,1.473712362E-2
2.835647723E0,6.635523587E-2,-1.879937798E-1,1.595885493E-2
2.837647756E0,6.818783283E-2,-1.824959964E-1,1.534798928E-2
2.839647789E0,6.635523587E-2,-1.800525337E-1,1.656972058E-2
2.841647822E0,6.757696718E-2,-1.757764816E-1,1.595885493E-2
2.843647855E0,6.757696718E-2,-1.721112877E-1,1.656972058E-2
2.845647855E0,6.818783283E-2,-1.690569520E-1,1.656972058E-2
2.847647821E0,6.574437022E-2,-1.666134894E-1,1.779145002E-2
2.849648654E0,6.513350457E-2,-1.641700417E-1,1.656972058E-2
2.851649520E0,6.574437022E-2,-1.629483104E-1,1.718058437E-2
2.853649486E0,6.635523587E-2,-1.586722434E-1,1.901318133E-2
2.855649452E0,6.635523587E-2,-1.531744599E-1,1.901318133E-2
2.857649418E0,6.574437022E-2,-1.488984078E-1,2.145664208E-2
2.859649384E0,6.635523587E-2,-1.458440721E-1,2.206750773E-2
2.861649384E0,6.574437022E-2,-1.379028261E-1,2.573269792E-2
2.863649417E0,6.696610153E-2,-1.330159009E-1,2.878702432E-2
2.865649450E0,6.696610153E-2,-1.293507218E-1,2.756529488E-2
2.867649483E0,6.696610153E-2,-1.287398487E-1,2.817615867E-2
2.869648649E0,6.513350457E-2,-1.140790880E-1,3.184135258E-2
2.871647815E0,6.513350457E-2,-1.140790880E-1,3.184135258E-2
2.873647148E0,6.513350457E-2,-1.140790880E-1,3.184135258E-2
2.875647181E0,6.879869848E-2,-1.140790880E-1,3.061962128E-2
2.877647214E0,6.757696718E-2,-1.104138941E-1,3.245221451E-2
2.879647214E0,6.940956414E-2,-1.079704314E-1,3.123048507E-2
2.881647214E0,6.757696718E-2,-1.085812971E-1,3.245221451E-2
2.883647214E0,6.757696718E-2,-1.049161032E-1,3.245221451E-2
2.885647214E0,7.002042979E-2,-1.049161032E-1,3.306308016E-2
2.887647214E0,7.063129544E-2,-1.043052375E-1,3.306308016E-2
2.889648080E0,7.002042979E-2,-1.030835137E-1,3.367394581E-2
2.891648946E0,7.063129544E-2,-9.941831976E-2,3.611740842E-2
2.893648912E0,7.063129544E-2,-9.941831976E-2,3.611740842E-2
2.895648878E0,7.185302675E-2,-1.000291854E-1,3.611740842E-2
2.897648844E0,7.368562371E-2,-9.697485715E-2,3.672827408E-2
2.899648810E0,7.368562371E-2,-9.697485715E-2,3.733913973E-2
2.901648776E0,7.368562371E-2,-9.269879758E-2,3.611740842E-2
2.903648742E0,7.429648191E-2,-9.453139454E-2,3.856086731E-2
2.905648708E0,7.612907887E-2,-9.147707373E-2,3.672827408E-2
2.907648708E0,7.735081017E-2,-9.147707373E-2,3.672827408E-2
2.909647874E0,7.612907887E-2,-9.025534242E-2,3.733913973E-2
2.911647640E0,7.796167582E-2,-8.720101416E-2,3.917173296E-2
2.913647673E0,7.673994452E-2,-8.659014851E-2,3.733913973E-2
2.915647706E0,7.673994452E-2,-8.597928286E-2,3.672827408E-2
2.917647739E0,7.857254148E-2,-8.109235764E-2,3.795000166E-2
2.919647772E0,7.857254148E-2,-8.170322329E-2,3.856086731E-2
2.921647805E0,8.040513843E-2,-7.803803682E-2,3.795000166E-2
2.923647805E0,8.101600409E-2,-7.498370856E-2,4.039346427E-2
2.925647771E0,8.407033235E-2,-7.131851465E-2,4.039346427E-2
2.927647737E0,8.345946670E-2,-6.765332818E-2,4.405865446E-2
2.929648570E0,8.468119800E-2,-7.009678334E-2,4.528038576E-2
2.931649403E0,8.468119800E-2,-6.520986557E-2,4.528038576E-2
2.933650069E0,8.590292186E-2,-6.643159688E-2,4.466952011E-2
2.935650035E0,8.590292186E-2,-6.765332818E-2,4.711298272E-2
2.937650001E0,8.712465316E-2,-6.398813426E-2,5.016730726E-2
2.939650001E0,8.712465316E-2,-6.337726861E-2,5.199990422E-2
2.941650034E0,8.895725012E-2,-6.154467165E-2,5.444336683E-2
2.943650067E0,9.017898142E-2,-6.154467165E-2,5.383250117E-2
2.945650100E0,9.140071273E-2,-6.337726861E-2,5.627596006E-2
2.947650133E0,9.262244403E-2,-6.215553731E-2,5.933028832E-2
2.949649299E0,9.384417534E-2,-6.765332818E-2,6.421720982E-2
2.951648432E0,9.384417534E-2,-6.765332818E-2,6.421720982E-2
2.953648465E0,9.445504099E-2,-7.192938030E-2,6.360634416E-2
2.955648498E0,9.445504099E-2,-7.376197726E-2,6.727153808E-2
2.957648498E0,9.201157838E-2,-7.620543987E-2,6.910412759E-2
2.959648498E0,9.506590664E-2,-8.170322329E-2,6.727153808E-2
2.961648498E0,9.262244403E-2,-8.720101416E-2,6.971499324E-2
2.963648498E0,9.323330969E-2,-9.208793938E-2,7.093672454E-2
2.965648498E0,9.323330969E-2,-9.697485715E-2,7.582364976E-2
2.967648498E0,9.445504099E-2,-1.006400511E-1,7.643451542E-2
2.969649331E0,9.201157838E-2,-1.036943719E-1,7.765624672E-2
2.971649564E0,9.140071273E-2,-1.079704314E-1,8.009970188E-2
2.973649530E0,9.017898142E-2,-1.104138941E-1,8.315403014E-2
2.975649496E0,8.895725012E-2,-1.140790880E-1,8.498662710E-2
2.977649462E0,8.773551881E-2,-1.226311997E-1,8.865182102E-2
2.979649428E0,8.651378751E-2,-1.256855279E-1,8.926268667E-2
2.981649394E0,8.468119800E-2,-1.299615800E-1,9.170614183E-2
2.983649360E0,8.468119800E-2,-1.360702366E-1,9.537133574E-2
2.985649360E0,8.162686974E-2,-1.360702366E-1,9.476047009E-2
2.987649393E0,8.223773539E-2,-1.403462887E-1,9.659306705E-2
2.989648559E0,8.040513843E-2,-1.482875347E-1,1.008691266E-1
2.991647925E0,8.040513843E-2,-1.507309973E-1,1.008691266E-1
2.993647958E0,7.857254148E-2,-1.513418704E-1,1.002582610E-1
2.995647991E0,7.857254148E-2,-1.537853181E-1,1.020908505E-1
2.997648024E0,7.673994452E-2,-1.580613852E-1,1.039234474E-1
2.999648057E0,7.673994452E-2,-1.605048478E-1,1.039234474E-1
3.001648057E0,7.551821321E-2,-1.598939747E-1,1.033125818E-1
3.003648023E0,7.307475805E-2,-1.653917581E-1,1.051451787E-1
3.005647989E0,7.246389240E-2,-1.647808999E-1,1.039234474E-1
3.007647955E0,7.002042979E-2,-1.653917581E-1,1.063669100E-1
3.009648788E0,6.879869848E-2,-1.696678251E-1,1.057560444E-1
3.011649654E0,6.696610153E-2,-1.745547503E-1,1.063669100E-1
3.013649620E0,6.696610153E-2,-1.776090711E-1,1.051451787E-1
3.015649586E0,6.452263892E-2,-1.831068546E-1,1.063669100E-1
3.017649586E0,6.269004941E-2,-1.904372424E-1,1.088103727E-1
3.019649619E0,6.146831438E-2,-1.941024363E-1,1.075886413E-1
3.021649652E0,5.902485549E-2,-2.044871449E-1,1.075886413E-1
3.023649685E0,5.719225854E-2,-2.105957866E-1,1.088103727E-1
3.025649718E0,5.658139288E-2,-2.148718536E-1,1.106429696E-1
3.027649751E0,5.413793400E-2,-2.234239578E-1,1.100321040E-1
3.029648917E0,5.169447139E-2,-2.331978083E-1,1.112538353E-1
3.031648050E0,5.230533704E-2,-2.380847335E-1,1.112538353E-1
3.033648083E0,5.047274008E-2,-2.411390543E-1,1.118647009E-1
3.035648083E0,4.741841555E-2,-2.490803003E-1,1.112538353E-1
3.037648083E0,4.802928120E-2,-2.551889420E-1,1.094212383E-1
3.039648083E0,4.802928120E-2,-2.606867552E-1,1.081995070E-1
3.041648083E0,4.497495294E-2,-2.698497176E-1,1.057560444E-1
3.043648083E0,4.069889709E-2,-2.759583890E-1,1.057560444E-1
3.045648083E0,4.069889709E-2,-2.796235681E-1,1.063669100E-1
3.047648049E0,3.947716579E-2,-2.851213515E-1,1.020908505E-1
3.049648882E0,3.581197560E-2,-2.924517393E-1,1.002582610E-1
3.051649515E0,3.397937864E-2,-2.991712391E-1,9.781479836E-2
3.053649481E0,3.336851299E-2,-2.997821271E-1,9.903652966E-2
3.055649447E0,3.153591976E-2,-3.034473062E-1,9.537133574E-2
3.057649413E0,2.787072770E-2,-3.095559776E-1,9.231700748E-2
3.059649379E0,2.787072770E-2,-3.113885522E-1,9.048441797E-2
3.061649345E0,2.542726509E-2,-3.181080818E-1,9.109527618E-2
3.063649345E0,2.298380435E-2,-3.242167234E-1,8.804095536E-2
3.065649378E0,2.176207490E-2,-3.260493279E-1,8.559749275E-2
3.067649644E0,2.176207490E-2,-3.327688277E-1,8.437576145E-2
3.069648810E0,1.809688285E-2,-3.468187451E-1,7.582364976E-2
3.071647976E0,1.809688285E-2,-3.468187451E-1,7.582364976E-2
3.073647542E0,1.809688285E-2,-3.468187451E-1,7.582364976E-2
3.075647575E0,1.504255645E-2,-3.523165286E-1,7.399105281E-2
3.077647608E0,1.626428775E-2,-3.559817076E-1,7.215845585E-2
3.079647608E0,1.320996135E-2,-3.633120954E-1,7.093672454E-2
3.081647574E0,1.198823005E-2,-3.633120954E-1,7.093672454E-2
3.083647540E0,8.323038928E-3,-3.614795208E-1,7.704538107E-2
3.085647506E0,9.544769302E-3,-3.620903790E-1,7.765624672E-2
3.087647472E0,7.101308554E-3,-3.602577746E-1,8.009970188E-2
3.089648305E0,4.046982154E-3,-3.504839242E-1,8.498662710E-2
3.091649171E0,2.825251780E-3,-3.419318199E-1,8.681922406E-2
3.093649137E0,-1.450804994E-3,-3.315471113E-1,8.804095536E-2
3.095649137E0,2.825251780E-3,-3.132211566E-1,8.804095536E-2
3.097649170E0,4.657847341E-3,-2.942843437E-1,8.804095536E-2
3.099649203E0,6.490443368E-3,-2.802344263E-1,8.620835841E-2
3.101649236E0,1.382082608E-2,-2.509129047E-1,8.071056753E-2
3.103649269E0,2.664899640E-2,-2.105957866E-1,7.582364976E-2
3.105649302E0,3.520110995E-2,-1.928807050E-1,7.032585889E-2
3.107649335E0,5.230533704E-2,-1.653917581E-1,5.444336683E-2
3.109648501E0,6.635523587E-2,-1.348485053E-1,3.856086731E-2
3.111648534E0,6.940956414E-2,-1.134682223E-1,3.306308016E-2
3.113648534E0,7.612907887E-2,-7.559457421E-2,1.962404512E-2
3.115648534E0,8.101600409E-2,-3.100141138E-2,8.628471754E-3
3.117648534E0,7.918340713E-2,1.114829071E-2,1.298088697E-3
3.119648534E0,7.673994452E-2,3.069597855E-2,-2.977967961E-3
3.121648534E0,7.612907887E-2,6.734789163E-2,-8.475755341E-3
3.123648534E0,6.879869848E-2,8.689557761E-2,-7.254024968E-3
3.125648500E0,6.207918003E-2,9.117163718E-2,-2.977967961E-3
3.127648233E0,4.680754989E-2,8.139779419E-2,5.574145354E-3
3.129649066E0,2.909245715E-2,5.329799280E-2,1.595885493E-2
3.131649899E0,1.992947794E-2,3.802636266E-2,2.267837152E-2
3.133650332E0,-8.399396902E-4,-5.955935922E-3,3.306308016E-2
3.135650298E0,-2.099849284E-2,-4.993823543E-2,4.283692688E-2
3.137650264E0,-3.688098863E-2,-9.208793938E-2,4.955644161E-2
3.139650230E0,-4.298964143E-2,-1.128573567E-1,5.261076987E-2
3.141650230E0,-5.093089119E-2,-1.476766765E-1,6.116288155E-2
3.143650263E0,-5.337435007E-2,-1.849394590E-1,6.666067243E-2
3.145650296E0,-5.520694703E-2,-1.941024363E-1,7.032585889E-2
3.147650329E0,-5.215261877E-2,-2.185370475E-1,7.399105281E-2
3.149649495E0,-4.421137273E-2,-2.625193298E-1,7.887797803E-2
3.151648628E0,-4.604396969E-2,-2.747366428E-1,8.315403014E-2
3.153648661E0,-4.298964143E-2,-2.900082767E-1,8.437576145E-2
3.155648694E0,-4.054617882E-2,-3.144428730E-1,8.620835841E-2
3.157648694E0,-3.871358559E-2,-3.419318199E-1,9.048441797E-2
3.159648660E0,-3.932445124E-2,-3.572034538E-1,9.048441797E-2
3.161648626E0,-4.176791012E-2,-3.846924007E-1,9.414960444E-2
3.163648592E0,-4.909829423E-2,-4.097378552E-1,9.781479836E-2
3.165648558E0,-5.398521572E-2,-4.201225638E-1,1.020908505E-1
3.167648524E0,-5.642867833E-2,-4.470006526E-1,1.069777757E-1
3.169649357E0,-6.070473418E-2,-4.738787115E-1,1.124755666E-1
3.171649323E0,-6.009386852E-2,-4.812090993E-1,1.130864322E-1
3.173649323E0,-6.436992437E-2,-5.001459122E-1,1.155298874E-1
3.175649356E0,-6.864598393E-2,-5.123631954E-1,1.210276783E-1
3.177649389E0,-7.536549866E-2,-5.196936131E-1,1.240820065E-1
3.179649422E0,-7.780896127E-2,-5.233588219E-1,1.253037304E-1
3.181649455E0,-8.208502084E-2,-5.319108963E-1,1.246928647E-1
3.183649488E0,-8.513934165E-2,-5.386304259E-1,1.240820065E-1
3.185649521E0,-8.758280426E-2,-5.374087095E-1,1.259146035E-1
3.187649554E0,-9.002626687E-2,-5.404630303E-1,1.277471930E-1
3.189648720E0,-9.491318464E-2,-5.337435007E-1,1.277471930E-1
3.191648486E0,-9.430231899E-2,-5.343543887E-1,1.253037304E-1
3.193648486E0,-9.674578160E-2,-5.331326723E-1,1.234711409E-1
3.195648486E0,-9.735664725E-2,-5.313000679E-1,1.191950813E-1
3.197648486E0,-9.796751291E-2,-5.288565755E-1,1.198059469E-1
3.199648486E0,-9.918924421E-2,-5.258022547E-1,1.198059469E-1
3.201648486E0,-1.010218412E-1,-5.196936131E-1,1.179733500E-1
3.203648452E0,-9.796751291E-2,-5.099197626E-1,1.149190217E-1
3.205648418E0,-9.918924421E-2,-5.056437254E-1,1.136972904E-1
3.207648384E0,-9.246972948E-2,-4.909829497E-1,1.051451787E-1
3.209649217E0,-8.880453557E-2,-4.842634201E-1,9.414960444E-2
3.211650083E0,-8.575020730E-2,-4.751004577E-1,9.414960444E-2
3.213650049E0,-8.636107296E-2,-4.518875778E-1,1.027017161E-1
3.215650015E0,-8.330674469E-2,-4.225660264E-1,1.063669100E-1
3.217649981E0,-7.964155823E-2,-3.926336467E-1,1.057560444E-1
3.219649981E0,-7.353290170E-2,-3.798054755E-1,1.075886413E-1
3.221649981E0,-6.864598393E-2,-3.596469164E-1,1.039234474E-1
3.223650014E0,-6.742425263E-2,-3.370448947E-1,1.020908505E-1
3.225650047E0,-6.742425263E-2,-3.260493279E-1,1.008691266E-1
3.227650080E0,-6.375905871E-2,-3.126102984E-1,9.842566401E-2
3.229649246E0,-6.009386852E-2,-2.881756723E-1,9.414960444E-2
3.231649179E0,-5.826127157E-2,-2.802344263E-1,9.353873879E-2
3.233649212E0,-5.765040591E-2,-2.735149264E-1,9.231700748E-2
3.235649212E0,-5.276348442E-2,-2.582432926E-1,9.048441797E-2
3.237649178E0,-5.032002553E-2,-2.503020465E-1,9.170614183E-2
3.239649144E0,-4.665483162E-2,-2.362521291E-1,9.170614183E-2
3.241649110E0,-4.298964143E-2,-2.222022265E-1,9.231700748E-2
3.243649076E0,-3.932445124E-2,-2.112066597E-1,9.292787313E-2
3.245649042E0,-4.054617882E-2,-2.063197345E-1,9.109527618E-2
3.247649008E0,-4.054617882E-2,-1.977676302E-1,8.926268667E-2
3.249649841E0,-4.115704447E-2,-1.916589737E-1,8.620835841E-2
3.251650074E0,-3.871358559E-2,-1.916589737E-1,8.681922406E-2
3.253650107E0,-3.993531689E-2,-1.837177277E-1,8.376489580E-2
3.255650140E0,-3.810271993E-2,-1.806633919E-1,8.498662710E-2
3.257650173E0,-3.871358559E-2,-1.800525337E-1,8.681922406E-2
3.259650206E0,-3.504839167E-2,-1.788308024E-1,8.559749275E-2
3.261650239E0,-3.627012298E-2,-1.776090711E-1,8.498662710E-2
3.263650272E0,-3.627012298E-2,-1.788308024E-1,8.254316449E-2
3.265650305E0,-3.504839167E-2,-1.818851233E-1,8.132143319E-2
3.267650338E0,-3.321579844E-2,-1.843285859E-1,8.193229884E-2
3.269649471E0,-3.504839167E-2,-1.831068546E-1,8.376489580E-2
3.271648571E0,-3.382666409E-2,-1.818851233E-1,8.376489580E-2
3.273647671E0,-3.382666409E-2,-1.818851233E-1,8.376489580E-2
3.275647671E0,-3.321579844E-2,-1.812742651E-1,8.315403014E-2
3.277647671E0,-3.504839167E-2,-1.782199293E-1,8.315403014E-2
3.279647671E0,-3.565925732E-2,-1.757764816E-1,8.009970188E-2
3.281647671E0,-3.688098863E-2,-1.751656085E-1,8.193229884E-2
3.283647637E0,-3.749185428E-2,-1.727221459E-1,8.071056753E-2
3.285647603E0,-3.749185428E-2,-1.690569520E-1,7.765624672E-2
3.287647569E0,-3.871358559E-2,-1.666134894E-1,7.643451542E-2
3.289648402E0,-3.810271993E-2,-1.629483104E-1,7.399105281E-2
3.291648468E0,-4.054617882E-2,-1.641700417E-1,7.154759020E-2
3.293648434E0,-3.871358559E-2,-1.592831165E-1,6.971499324E-2
3.295648400E0,-4.176791012E-2,-1.537853181E-1,6.666067243E-2
3.297648400E0,-4.482223839E-2,-1.531744599E-1,6.604980677E-2
3.299648400E0,-4.115704447E-2,-1.543961912E-1,6.482807547E-2
3.301648433E0,-4.176791012E-2,-1.531744599E-1,6.604980677E-2
3.303648466E0,-4.421137273E-2,-1.519527286E-1,6.360634416E-2
3.305648499E0,-4.421137273E-2,-1.507309973E-1,6.421720982E-2
3.307648532E0,-4.604396969E-2,-1.531744599E-1,6.360634416E-2
3.309647698E0,-4.787656292E-2,-1.501201391E-1,6.238461286E-2
3.311647731E0,-4.604396969E-2,-1.507309973E-1,6.421720982E-2
3.313647731E0,-4.360050708E-2,-1.482875347E-1,6.299547851E-2
3.315647697E0,-4.482223839E-2,-1.470658034E-1,6.482807547E-2
3.317647663E0,-4.482223839E-2,-1.446223408E-1,6.238461286E-2
3.319647629E0,-4.237877578E-2,-1.434006095E-1,6.482807547E-2
3.321647595E0,-3.932445124E-2,-1.415680200E-1,6.238461286E-2
3.323647561E0,-4.054617882E-2,-1.391245574E-1,6.360634416E-2
3.325647527E0,-3.871358559E-2,-1.379028261E-1,6.177374721E-2
3.327647493E0,-3.993531689E-2,-1.354593635E-1,6.421720982E-2
3.329648359E0,-3.871358559E-2,-1.287398487E-1,6.177374721E-2
3.331649259E0,-3.627012298E-2,-1.305724531E-1,6.238461286E-2
3.333650159E0,-3.565925732E-2,-1.250746548E-1,6.238461286E-2
3.335650159E0,-3.688098863E-2,-1.195768714E-1,6.238461286E-2
3.337650159E0,-3.810271993E-2,-1.140790880E-1,6.055201590E-2
3.339650159E0,-3.627012298E-2,-1.134682223E-1,5.933028832E-2
3.341650159E0,-3.504839167E-2,-1.104138941E-1,5.933028832E-2
3.343650159E0,-3.504839167E-2,-1.006400511E-1,5.933028832E-2
3.345650159E0,-3.627012298E-2,-9.941831976E-2,5.627596006E-2
3.347650192E0,-3.443752974E-2,-9.392052889E-2,5.627596006E-2
3.349649358E0,-3.321579844E-2,-8.597928286E-2,5.627596006E-2
3.351648491E0,-3.382666409E-2,-8.292495459E-2,5.627596006E-2
3.353648524E0,-3.138320148E-2,-8.353582025E-2,5.566509441E-2
3.355648557E0,-3.443752974E-2,-7.742717117E-2,5.505422875E-2
3.357648590E0,-3.138320148E-2,-7.376197726E-2,5.566509441E-2
3.359648623E0,-3.138320148E-2,-6.887505949E-2,5.444336683E-2
3.361648623E0,-2.955060638E-2,-6.459899992E-2,5.261076987E-2
3.363648589E0,-2.710714564E-2,-6.154467165E-2,5.383250117E-2
3.365648555E0,-3.077233583E-2,-5.604688451E-2,5.444336683E-2
3.367648521E0,-2.771801129E-2,-5.360342562E-2,5.322163552E-2
3.369649354E0,-2.710714564E-2,-4.566217586E-2,5.199990422E-2
3.371649320E0,-2.893974073E-2,-4.566217586E-2,5.444336683E-2
3.373649286E0,-3.016147204E-2,-4.138612002E-2,5.505422875E-2
3.375649286E0,-2.527454868E-2,-4.321871698E-2,5.383250117E-2
3.377649286E0,-2.832887508E-2,-3.955352306E-2,5.444336683E-2
3.379649319E0,-2.588541433E-2,-3.894266114E-2,5.505422875E-2
3.381649352E0,-2.588541433E-2,-3.894266114E-2,5.505422875E-2
3.383649385E0,-2.588541433E-2,-3.955352306E-2,5.566509441E-2
3.385649418E0,-2.405281924E-2,-4.260785133E-2,5.444336683E-2
3.387649451E0,-2.405281924E-2,-4.321871698E-2,5.383250117E-2
3.389648617E0,-2.588541433E-2,-4.505131021E-2,5.322163552E-2
3.391647750E0,-2.527454868E-2,-4.505131021E-2,5.383250117E-2
3.393647750E0,-2.710714564E-2,-4.382958263E-2,5.566509441E-2
3.395647750E0,-2.649627998E-2,-4.505131021E-2,5.444336683E-2
3.397647750E0,-2.466368489E-2,-4.382958263E-2,5.261076987E-2
3.399647750E0,-2.405281924E-2,-4.077525437E-2,5.138903856E-2
3.401647750E0,-2.405281924E-2,-4.016438872E-2,4.955644161E-2
3.403647750E0,-2.527454868E-2,-3.649919853E-2,5.138903856E-2
3.405647750E0,-2.283108793E-2,-3.527746722E-2,5.199990422E-2
3.407647716E0,-2.222022414E-2,-3.405573592E-2,4.955644161E-2
3.409648549E0,-2.222022414E-2,-2.855795063E-2,4.894557595E-2
3.411649415E0,-2.038762718E-2,-2.733621933E-2,4.772384837E-2
3.413649381E0,-1.855503209E-2,-2.489275858E-2,4.466952011E-2
3.415649347E0,-1.794416644E-2,-1.817324013E-2,4.528038576E-2
3.417649313E0,-1.733330078E-2,-1.817324013E-2,4.650211707E-2
3.419649279E0,-1.611157134E-2,-1.267545391E-2,4.650211707E-2
3.421649245E0,-1.488984004E-2,-9.621127509E-3,4.405865446E-2
3.423649245E0,-1.305724494E-2,-9.621127509E-3,4.528038576E-2
3.425649278E0,-1.244637929E-2,-4.123340361E-3,4.283692688E-2
3.427649311E0,-1.244637929E-2,-5.345070735E-3,3.978259861E-2
3.429648477E0,-1.122464892E-2,-5.345070735E-3,4.466952011E-2
3.431648110E0,-1.122464892E-2,-5.345070735E-3,4.466952011E-2
3.433648143E0,-8.170322515E-3,-4.734205548E-3,4.405865446E-2
3.435648176E0,-7.559457328E-3,-1.069014193E-3,4.589125142E-2
3.437648209E0,-5.115996581E-3,-4.581489484E-4,4.528038576E-2
3.439648209E0,-3.283400787E-3,-2.290744567E-3,4.283692688E-2
3.441648175E0,-2.061670180E-3,-2.901609987E-3,4.161519557E-2
3.443648141E0,-3.283400787E-3,-5.955935922E-3,4.466952011E-2
3.445648107E0,-2.290744742E-4,-9.621127509E-3,4.222606122E-2
3.447648073E0,-2.290744742E-4,-1.084285788E-2,4.100432992E-2
3.449648906E0,9.926559869E-4,-1.328631863E-2,3.856086731E-2
3.451649772E0,2.825251780E-3,-1.634064503E-2,3.917173296E-2
3.453649772E0,3.436116967E-3,-2.061670274E-2,3.795000166E-2
3.455649772E0,3.436116967E-3,-2.428189293E-2,3.795000166E-2
3.457649805E0,5.879578181E-3,-2.672535367E-2,3.611740842E-2
3.459649838E0,4.657847341E-3,-3.222314268E-2,3.672827408E-2
3.461649871E0,4.046982154E-3,-3.344487399E-2,3.550654277E-2
3.463649904E0,4.657847341E-3,-3.527746722E-2,3.123048507E-2
3.465649937E0,7.712173741E-3,-3.649919853E-2,3.061962128E-2
3.467649970E0,1.015563495E-2,-4.138612002E-2,2.695442922E-2
3.469649136E0,8.323038928E-3,-3.955352306E-2,2.328923717E-2
3.471648302E0,8.323038928E-3,-3.955352306E-2,2.328923717E-2
3.473647902E0,8.323038928E-3,-3.955352306E-2,2.328923717E-2
3.475647902E0,9.544769302E-3,-4.138612002E-2,2.084577642E-2
3.477647902E0,1.076649968E-2,-3.772092983E-2,2.145664208E-2
3.479647902E0,1.015563495E-2,-3.100141138E-2,2.084577642E-2
3.481647902E0,1.320996135E-2,-2.244929783E-2,2.206750773E-2
3.483647902E0,1.198823005E-2,-1.878410578E-2,2.267837152E-2
3.485647868E0,1.443169173E-2,-1.328631863E-2,2.206750773E-2
3.487647834E0,1.382082608E-2,-1.069014193E-3,1.962404512E-2
3.489648667E0,1.259909570E-2,7.635815418E-4,1.962404512E-2
3.491649033E0,1.382082608E-2,9.926560335E-3,1.901318133E-2
3.493648999E0,1.504255645E-2,1.053742506E-2,1.901318133E-2
3.495648965E0,1.320996135E-2,1.664607786E-2,1.656972058E-2
3.497648931E0,1.565342210E-2,1.664607786E-2,1.779145002E-2
3.499648897E0,1.626428775E-2,1.664607786E-2,1.962404512E-2
3.501648897E0,1.809688285E-2,1.725694351E-2,2.206750773E-2
3.503648930E0,1.687515154E-2,2.031126991E-2,2.023491077E-2
3.505648963E0,1.443169173E-2,2.092213556E-2,2.267837152E-2
3.507648996E0,1.626428775E-2,1.786780916E-2,2.267837152E-2
3.509648162E0,1.504255645E-2,1.481348183E-2,2.451096848E-2
3.511648195E0,1.626428775E-2,1.542434748E-2,2.512183413E-2
3.513648228E0,1.443169173E-2,1.420261711E-2,2.634356357E-2
3.515648261E0,1.382082608E-2,1.237002108E-2,2.756529488E-2
3.517648261E0,1.320996135E-2,1.175915636E-2,2.756529488E-2
3.519648227E0,1.443169173E-2,6.872233935E-3,2.939788997E-2
3.521648193E0,1.137736533E-2,6.261368748E-3,3.184135258E-2
3.523648159E0,1.259909570E-2,4.428773187E-3,3.123048507E-2
3.525648125E0,1.137736533E-2,3.207042580E-3,3.000875562E-2
3.527648091E0,1.076649968E-2,3.207042580E-3,3.061962128E-2
3.529648924E0,7.101308554E-3,3.817907767E-3,3.000875562E-2
3.531649757E0,7.101308554E-3,4.428773187E-3,2.817615867E-2
3.533650157E0,8.323038928E-3,5.039638374E-3,2.939788997E-2
3.535650190E0,6.490443368E-3,5.650503561E-3,2.695442922E-2
3.537650223E0,4.657847341E-3,8.093964309E-3,2.756529488E-2
3.539650256E0,4.657847341E-3,8.093964309E-3,2.695442922E-2
3.541650289E0,2.825251780E-3,1.175915636E-2,2.634356357E-2
3.543650322E0,2.825251780E-3,1.175915636E-2,2.390010282E-2
3.545650355E0,9.926559869E-4,1.298088674E-2,2.328923717E-2
3.547650388E0,3.817907709E-4,1.664607786E-2,2.206750773E-2
3.549649554E0,-2.672535367E-3,2.153299935E-2,2.206750773E-2
3.551648654E0,-2.672535367E-3,2.153299935E-2,2.206750773E-2
3.553648654E0,-3.894265974E-3,2.580905706E-2,2.206750773E-2
3.555648654E0,-4.505131394E-3,2.580905706E-2,2.206750773E-2
3.557648654E0,-7.559457328E-3,3.130684420E-2,2.267837152E-2
3.559648654E0,-5.115996581E-3,3.252857551E-2,2.512183413E-2
3.561648654E0,-7.559457328E-3,3.619376570E-2,2.573269792E-2
3.563648620E0,-5.115996581E-3,3.741549700E-2,2.756529488E-2
3.565648586E0,-8.170322515E-3,3.802636266E-2,3.306308016E-2
3.567648552E0,-8.781188168E-3,4.657847434E-2,3.000875562E-2
3.569649385E0,-1.244637929E-2,5.085453019E-2,3.061962128E-2
3.571649351E0,-1.061378326E-2,4.963280261E-2,3.061962128E-2
3.573649317E0,-1.061378326E-2,5.451972410E-2,3.184135258E-2
3.575649283E0,-1.244637929E-2,5.818491429E-2,3.306308016E-2
3.577649249E0,-1.305724494E-2,5.818491429E-2,3.306308016E-2
3.579649249E0,-1.244637929E-2,6.368270516E-2,3.550654277E-2
3.581649282E0,-1.488984004E-2,7.101308554E-2,3.795000166E-2
3.583649315E0,-1.550070569E-2,7.284568250E-2,3.978259861E-2
3.585649348E0,-1.611157134E-2,7.528914511E-2,3.795000166E-2
3.587649381E0,-1.611157134E-2,7.956519723E-2,4.283692688E-2
3.589648547E0,-1.733330078E-2,8.689557761E-2,4.528038576E-2
3.591647847E0,-1.733330078E-2,8.689557761E-2,4.528038576E-2
3.593647880E0,-1.733330078E-2,8.689557761E-2,4.711298272E-2
3.595647880E0,-1.977676153E-2,8.994990587E-2,4.772384837E-2
3.597647846E0,-2.038762718E-2,9.117163718E-2,4.955644161E-2
3.599647812E0,-1.794416644E-2,9.483683109E-2,5.383250117E-2
3.601647778E0,-2.099849284E-2,9.666942805E-2,4.955644161E-2
3.603647744E0,-2.038762718E-2,9.850201756E-2,5.138903856E-2
3.605647710E0,-2.222022414E-2,1.027780771E-1,5.016730726E-2
3.607647676E0,-2.099849284E-2,1.064432710E-1,5.261076987E-2
3.609648509E0,-2.099849284E-2,1.088867337E-1,5.199990422E-2
3.611649409E0,-2.222022414E-2,1.131627858E-1,4.955644161E-2
3.613649442E0,-2.038762718E-2,1.174388453E-1,4.955644161E-2
3.615649475E0,-1.977676153E-2,1.192714423E-1,4.833471403E-2
3.617649508E0,-2.099849284E-2,1.223257631E-1,4.833471403E-2
3.619649541E0,-1.855503209E-2,1.296561509E-1,4.833471403E-2
3.621649574E0,-1.977676153E-2,1.333213449E-1,4.650211707E-2
3.623649607E0,-1.855503209E-2,1.339322031E-1,4.405865446E-2
3.625649640E0,-1.733330078E-2,1.369865239E-1,4.405865446E-2
3.627649673E0,-1.611157134E-2,1.455386430E-1,4.344778880E-2
3.629648806E0,-1.305724494E-2,1.492038369E-1,4.100432992E-2
3.631647906E0,-1.305724494E-2,1.492038369E-1,4.100432992E-2
3.633647906E0,-1.000291854E-2,1.547016203E-1,4.039346427E-2
3.635647906E0,-5.726861767E-3,1.583668143E-1,4.039346427E-2
3.637647906E0,-5.115996581E-3,1.626428664E-1,3.795000166E-2
3.639647906E0,-4.505131394E-3,1.675297916E-1,3.672827408E-2
3.641647872E0,9.926559869E-4,1.681406647E-1,3.733913973E-2
3.643647838E0,1.603521290E-3,1.711949855E-1,3.489567712E-2
3.645647804E0,2.214386594E-3,1.718058437E-1,3.672827408E-2
3.647647770E0,9.544769302E-3,1.711949855E-1,3.733913973E-2
3.649648603E0,1.015563495E-2,1.724167168E-1,3.795000166E-2
3.651649303E0,1.137736533E-2,1.711949855E-1,3.672827408E-2
3.653649269E0,1.443169173E-2,1.699732542E-1,3.550654277E-2
3.655649235E0,1.565342210E-2,1.699732542E-1,3.733913973E-2
3.657649235E0,1.565342210E-2,1.687515229E-1,3.611740842E-2
3.659649268E0,1.687515154E-2,1.650863290E-1,3.550654277E-2
3.661649301E0,1.565342210E-2,1.589776874E-1,3.489567712E-2
3.663649334E0,1.565342210E-2,1.589776874E-1,3.550654277E-2
3.665649367E0,1.565342210E-2,1.565342247E-1,3.428481147E-2
3.667649400E0,1.443169173E-2,1.510364264E-1,3.367394581E-2
3.669648566E0,1.259909570E-2,1.412625909E-1,3.184135258E-2
3.671647732E0,1.259909570E-2,1.412625909E-1,3.184135258E-2
3.673647365E0,9.544769302E-3,1.388191283E-1,3.245221451E-2
3.675647331E0,1.015563495E-2,1.333213449E-1,3.245221451E-2
3.677647297E0,5.879578181E-3,1.320996135E-1,3.184135258E-2
3.679647263E0,3.436116967E-3,1.266018152E-1,3.123048507E-2
3.681647229E0,1.603521290E-3,1.223257631E-1,3.061962128E-2
3.683647195E0,1.603521290E-3,1.192714423E-1,2.939788997E-2
3.685647161E0,-2.672535367E-3,1.186605766E-1,2.939788997E-2
3.687647127E0,-6.337726954E-3,1.131627858E-1,2.756529488E-2
3.689647993E0,-5.726861767E-3,1.119410545E-1,2.817615867E-2
3.691648926E0,-8.170322515E-3,1.076650023E-1,2.512183413E-2
3.693648959E0,-8.170322515E-3,1.052215397E-1,2.634356357E-2
3.695648992E0,-1.183551457E-2,1.058324054E-1,2.695442922E-2
3.697649025E0,-1.244637929E-2,1.021672115E-1,2.573269792E-2
3.699649058E0,-1.244637929E-2,9.911288321E-2,2.634356357E-2
3.701649091E0,-1.366810966E-2,9.789115191E-2,2.573269792E-2
3.703649124E0,-1.611157134E-2,9.728029370E-2,2.634356357E-2
3.705649157E0,-1.672243699E-2,9.361509979E-2,2.634356357E-2
3.707649157E0,-1.366810966E-2,9.239336848E-2,2.573269792E-2
3.709648290E0,-1.244637929E-2,9.056077152E-2,2.878702432E-2
3.711648290E0,-1.488984004E-2,9.056077152E-2,2.756529488E-2
3.713648290E0,-1.244637929E-2,8.933904022E-2,2.817615867E-2
3.715648290E0,-1.122464892E-2,9.056077152E-2,2.817615867E-2
3.717648290E0,-1.000291854E-2,9.239336848E-2,2.817615867E-2
3.719648256E0,-1.061378326E-2,9.239336848E-2,3.000875562E-2
3.721648222E0,-8.781188168E-3,9.056077152E-2,2.878702432E-2
3.723648188E0,-7.559457328E-3,9.361509979E-2,3.000875562E-2
3.725648154E0,-6.337726954E-3,9.422596544E-2,3.061962128E-2
3.727648120E0,-5.115996581E-3,9.728029370E-2,3.000875562E-2
3.729648953E0,-1.450804994E-3,9.483683109E-2,3.123048507E-2
3.731649786E0,-1.450804994E-3,9.911288321E-2,3.306308016E-2
3.733650119E0,-2.290744742E-4,9.911288321E-2,3.367394581E-2
3.735650119E0,3.817907709E-4,9.911288321E-2,3.123048507E-2
3.737650152E0,1.603521290E-3,1.009454802E-1,3.184135258E-2
3.739650185E0,2.214386594E-3,1.009454802E-1,3.184135258E-2
3.741650218E0,2.825251780E-3,9.972374886E-2,3.184135258E-2
3.743650251E0,3.436116967E-3,1.009454802E-1,3.123048507E-2
3.745650284E0,3.436116967E-3,9.972374886E-2,3.061962128E-2
3.747650317E0,2.214386594E-3,1.015563458E-1,3.000875562E-2
3.749649483E0,2.825251780E-3,1.009454802E-1,3.061962128E-2
3.751648583E0,2.825251780E-3,1.009454802E-1,3.061962128E-2
3.753648549E0,3.817907709E-4,9.911288321E-2,3.000875562E-2
3.755648515E0,9.926559869E-4,9.911288321E-2,3.000875562E-2
3.757648481E0,-8.399396902E-4,9.728029370E-2,2.939788997E-2
3.759648447E0,-1.450804994E-3,9.239336848E-2,3.000875562E-2
3.761648413E0,3.817907709E-4,9.239336848E-2,2.817615867E-2
3.763648379E0,-1.450804994E-3,8.994990587E-2,2.878702432E-2
3.765648345E0,-3.894265974E-3,8.811730891E-2,2.512183413E-2
3.767648345E0,-3.894265974E-3,8.139779419E-2,2.573269792E-2
3.769649245E0,-6.337726954E-3,8.078692853E-2,2.634356357E-2
3.771649278E0,-8.170322515E-3,8.078692853E-2,2.390010282E-2
3.773649311E0,-8.170322515E-3,7.651086897E-2,2.328923717E-2
3.775649344E0,-7.559457328E-3,7.406741381E-2,2.451096848E-2
3.777649377E0,-1.061378326E-2,6.979135424E-2,2.390010282E-2
3.779649410E0,-1.305724494E-2,6.734789163E-2,2.206750773E-2
3.781649443E0,-1.122464892E-2,6.490442902E-2,2.267837152E-2
3.783649476E0,-1.305724494E-2,6.429356337E-2,2.328923717E-2
3.785649476E0,-1.611157134E-2,5.879577994E-2,2.145664208E-2
3.787649476E0,-1.855503209E-2,5.574145541E-2,2.206750773E-2
3.789648609E0,-1.977676153E-2,5.146539584E-2,2.328923717E-2
3.791648142E0,-1.977676153E-2,5.146539584E-2,2.328923717E-2
3.793648142E0,-2.099849284E-2,4.657847434E-2,1.962404512E-2
3.795648142E0,-2.283108793E-2,4.841107130E-2,2.023491077E-2
3.797648108E0,-2.405281924E-2,4.657847434E-2,2.023491077E-2
3.799648074E0,-2.710714564E-2,4.780020565E-2,1.962404512E-2
3.801648040E0,-2.893974073E-2,4.657847434E-2,1.962404512E-2
3.803648006E0,-3.138320148E-2,4.657847434E-2,2.023491077E-2
3.805647972E0,-3.321579844E-2,4.535674304E-2,1.779145002E-2
3.807647938E0,-3.504839167E-2,4.413501546E-2,1.962404512E-2
3.809648771E0,-3.749185428E-2,4.596760869E-2,1.962404512E-2
3.811649637E0,-4.054617882E-2,4.902193695E-2,1.595885493E-2
3.813649637E0,-4.421137273E-2,4.902193695E-2,1.534798928E-2
3.815649670E0,-4.421137273E-2,4.963280261E-2,1.473712362E-2
3.817649703E0,-4.787656292E-2,5.207626149E-2,1.473712362E-2
3.819649736E0,-5.215261877E-2,5.451972410E-2,1.290452853E-2
3.821649769E0,-5.398521572E-2,5.451972410E-2,1.473712362E-2
3.823649802E0,-5.765040591E-2,5.513058975E-2,1.290452853E-2
3.825649835E0,-5.826127157E-2,5.879577994E-2,1.351539325E-2
3.827649868E0,-6.070473418E-2,5.940664560E-2,1.290452853E-2
3.829649001E0,-6.253732741E-2,6.123924255E-2,1.168279815E-2
3.831648101E0,-6.253732741E-2,6.123924255E-2,1.168279815E-2
3.833648067E0,-6.681338698E-2,6.185010448E-2,1.229366288E-2
3.835648033E0,-6.742425263E-2,6.307183951E-2,1.473712362E-2
3.837647999E0,-6.986771524E-2,6.246097013E-2,1.290452853E-2
3.839647965E0,-7.108944654E-2,6.307183951E-2,1.412625890E-2
3.841647931E0,-7.047858089E-2,6.185010448E-2,1.290452853E-2
3.843647897E0,-7.353290170E-2,6.429356337E-2,1.351539325E-2
3.845647897E0,-7.231117040E-2,6.307183951E-2,1.229366288E-2
3.847647930E0,-7.170030475E-2,6.429356337E-2,1.290452853E-2
3.849648830E0,-7.231117040E-2,6.368270516E-2,1.351539325E-2
3.851649330E0,-7.231117040E-2,6.185010448E-2,1.229366288E-2
3.853649363E0,-7.292203605E-2,6.123924255E-2,1.473712362E-2
3.855649396E0,-7.414376736E-2,6.123924255E-2,1.473712362E-2
3.857649429E0,-7.292203605E-2,6.001751125E-2,1.595885493E-2
3.859649462E0,-7.414376736E-2,5.940664560E-2,1.534798928E-2
3.861649495E0,-7.536549866E-2,6.123924255E-2,1.595885493E-2
3.863649495E0,-7.475463301E-2,6.185010448E-2,1.718058437E-2
3.865649495E0,-7.597636431E-2,6.123924255E-2,1.779145002E-2
3.867649495E0,-7.475463301E-2,5.879577994E-2,1.779145002E-2
3.869648628E0,-7.780896127E-2,5.757404864E-2,2.145664208E-2
3.871647761E0,-7.780896127E-2,5.757404864E-2,2.145664208E-2
3.873646961E0,-7.475463301E-2,6.246097013E-2,1.901318133E-2
3.875646927E0,-7.658722997E-2,6.001751125E-2,2.084577642E-2
3.877646893E0,-7.658722997E-2,6.062837690E-2,2.023491077E-2
3.879646859E0,-7.841982692E-2,5.940664560E-2,2.206750773E-2
3.881646825E0,-7.658722997E-2,6.062837690E-2,2.023491077E-2
3.883646791E0,-7.903069258E-2,6.001751125E-2,2.084577642E-2
3.885646757E0,-7.780896127E-2,6.062837690E-2,1.901318133E-2
3.887646723E0,-7.719809562E-2,6.062837690E-2,1.901318133E-2
3.889647556E0,-7.841982692E-2,6.001751125E-2,2.023491077E-2
3.891648422E0,-7.964155823E-2,6.062837690E-2,1.779145002E-2
3.893648455E0,-7.841982692E-2,6.062837690E-2,1.962404512E-2
3.895648488E0,-7.903069258E-2,6.001751125E-2,1.901318133E-2
3.897648521E0,-7.903069258E-2,6.001751125E-2,1.595885493E-2
3.899648554E0,-7.780896127E-2,6.001751125E-2,1.779145002E-2
3.901648587E0,-7.964155823E-2,6.001751125E-2,1.595885493E-2
3.903648620E0,-7.903069258E-2,6.185010448E-2,1.595885493E-2
3.905648653E0,-8.086328954E-2,6.612616032E-2,1.290452853E-2
3.907648253E0,-8.025242388E-2,6.795875728E-2,1.595885493E-2
3.909647353E0,-8.147415519E-2,7.223481685E-2,1.290452853E-2
3.911647686E0,-8.086328954E-2,7.284568250E-2,1.534798928E-2
3.913647652E0,-7.841982692E-2,7.528914511E-2,1.473712362E-2
3.915647618E0,-8.025242388E-2,7.834346592E-2,1.656972058E-2
3.917647584E0,-7.964155823E-2,8.200865984E-2,1.534798928E-2
3.919647550E0,-7.780896127E-2,8.384125680E-2,1.595885493E-2
3.921647516E0,-7.658722997E-2,8.567385375E-2,1.351539325E-2
3.923647516E0,-7.780896127E-2,8.811730891E-2,1.412625890E-2
3.925647549E0,-7.597636431E-2,8.994990587E-2,1.656972058E-2
3.927647582E0,-7.475463301E-2,9.178250283E-2,1.718058437E-2
3.929648482E0,-7.536549866E-2,9.422596544E-2,1.718058437E-2
3.931649382E0,-7.353290170E-2,9.544769675E-2,1.534798928E-2
3.933650215E0,-7.108944654E-2,9.911288321E-2,1.534798928E-2
3.935650248E0,-7.047858089E-2,1.003346145E-1,1.595885493E-2
3.937650281E0,-6.925684959E-2,1.003346145E-1,1.534798928E-2
3.939650314E0,-6.925684959E-2,1.076650023E-1,1.290452853E-2
3.941650314E0,-7.108944654E-2,1.088867337E-1,1.534798928E-2
3.943650314E0,-7.108944654E-2,1.119410545E-1,1.351539325E-2
3.945650314E0,-7.292203605E-2,1.131627858E-1,1.229366288E-2
3.947650314E0,-7.292203605E-2,1.168279797E-1,1.595885493E-2
3.949649447E0,-7.475463301E-2,1.235474944E-1,9.850202128E-3
3.951648547E0,-7.475463301E-2,1.235474944E-1,9.850202128E-3
3.953648513E0,-7.841982692E-2,1.266018152E-1,9.239336476E-3
3.955648479E0,-7.903069258E-2,1.284344196E-1,9.239336476E-3
3.957648445E0,-8.208502084E-2,1.333213449E-1,6.185010541E-3
3.959648411E0,-8.330674469E-2,1.375973970E-1,5.574145354E-3
3.961648377E0,-8.636107296E-2,1.388191283E-1,3.130684374E-3
3.963648343E0,-8.880453557E-2,1.424843222E-1,1.298088697E-3
3.965648309E0,-9.185886383E-2,1.437060535E-1,-2.367102774E-3
3.967648675E0,-9.491318464E-2,1.449277848E-1,-3.588833380E-3
3.969649541E0,-1.004109755E-1,1.504255682E-1,-7.864889689E-3
3.971649174E0,-1.059087589E-1,1.540907621E-1,-9.697485715E-3
3.973648807E0,-1.101848185E-1,1.534798890E-1,-1.153008174E-2
3.975648840E0,-1.162934676E-1,1.589776874E-1,-1.458440814E-2
3.977648873E0,-1.254564524E-1,1.589776874E-1,-1.702786796E-2
3.979648906E0,-1.370628923E-1,1.626428664E-1,-2.435825206E-2
3.981648939E0,-1.388954818E-1,1.620320082E-1,-2.741257846E-2
3.983648972E0,-1.486693323E-1,1.663080603E-1,-2.741257846E-2
3.985648972E0,-1.602757722E-1,1.681406647E-1,-3.291036561E-2
3.987648938E0,-1.651626974E-1,1.687515229E-1,-3.535382450E-2
3.989648038E0,-1.810451895E-1,1.791362315E-1,-4.024074972E-2
3.991647271E0,-1.902081668E-1,1.791362315E-1,-4.146247730E-2
3.993647237E0,-1.908190250E-1,1.754710376E-1,-4.329507425E-2
3.995647203E0,-2.060906589E-1,1.803579628E-1,-4.757113010E-2
3.997647169E0,-2.158645093E-1,1.779145002E-1,-5.245805159E-2
3.999647135E0,-2.268600762E-1,1.840231568E-1,-5.856670439E-2
4.001647135E0,-2.354121953E-1,1.852448881E-1,-6.223189831E-2
4.003647168E0,-2.457969040E-1,1.882992089E-1,-6.467536092E-2
4.005647201E0,-2.586250603E-1,1.901318133E-1,-6.895141304E-2
4.007647234E0,-2.647337317E-1,1.931861341E-1,-7.078400999E-2
4.009648134E0,-2.781727612E-1,1.950187236E-1,-7.628180087E-2
4.011649067E0,-2.922226489E-1,1.992947906E-1,-7.994698733E-2
4.013649100E0,-2.983313203E-1,2.005165219E-1,-8.300131559E-2
4.015649133E0,-3.136029541E-1,1.974621862E-1,-8.788824081E-2
4.017649166E0,-3.288745880E-1,2.035708427E-1,-9.094256163E-2
4.019649166E0,-3.417027593E-1,2.041817009E-1,-8.972083032E-2
4.021649166E0,-3.508657217E-1,2.066251636E-1,-9.460775554E-2
