"Time (s)","Acceleration x (m/s^2)","Acceleration y (m/s^2)","Acceleration z (m/s^2)"
1.436699500E-2,-1.098903775E0,9.216554642E0,1.199402332E0
1.665925500E-2,-1.118644595E0,9.226125717E0,1.252044439E0
1.895336600E-2,-1.133001566E0,9.254839897E0,1.299900889E0
2.121890900E-2,-1.128215909E0,9.268598557E0,1.328614831E0
2.347027200E-2,-1.142572761E0,9.263813019E0,1.362114310E0
2.572491100E-2,-1.152144074E0,9.263813019E0,1.371685624E0
2.797594900E-2,-1.147956610E0,9.263813019E0,1.395613790E0
3.023364000E-2,-1.156929731E0,9.273384094E0,1.376471281E0
3.248083200E-2,-1.147956610E0,9.278169632E0,1.395613790E0
3.473290700E-2,-1.147358418E0,9.292527199E0,1.366899967E0
3.698644600E-2,-1.166501045E0,9.292527199E0,1.366899967E0
3.924193900E-2,-1.161715388E0,9.297312737E0,1.386042476E0
4.149425900E-2,-1.161715388E0,9.316454887E0,1.328614831E0
4.374712800E-2,-1.147358418E0,9.354740143E0,1.324427366E0
4.600017900E-2,-1.133001566E0,9.383454323E0,1.333998680E0
4.825341300E-2,-1.114457130E0,9.406784058E0,1.320239902E0
5.050335300E-2,-1.109073281E0,9.407382011E0,1.258026481E0
5.274670000E-2,-1.104287624E0,9.445069313E0,1.224527001E0
5.501299700E-2,-1.108475089E0,9.455238342E0,1.162313581E0
5.726733000E-2,-1.108475089E0,9.455238342E0,1.124028444E0
5.952257900E-2,-1.108475089E0,9.479166985E0,1.105484009E0
6.176965000E-2,-1.093519926E0,9.469595909E0,1.062413216E0
6.401293500E-2,-1.070189953E0,9.479166985E0,1.052842021E0
6.627611900E-2,-1.060618639E0,9.483952522E0,1.057627559E0
6.852025800E-2,-1.046261668E0,9.493523598E0,1.081555843E0
7.078856900E-2,-1.065404296E0,9.498309135E0,1.105484009E0
7.303875300E-2,-1.051645517E0,9.507282257E0,1.138983607E0
7.529546600E-2,-1.056431174E0,9.512067795E0,1.162911773E0
7.754448900E-2,-1.075573802E0,9.502496719E0,1.186840057E0
7.979595400E-2,-1.066002488E0,9.502496719E0,1.186840057E0
8.204870000E-2,-1.056431174E0,9.540781975E0,1.182652593E0
8.429430600E-2,-1.022931695E0,9.535996437E0,1.163509965E0
8.656054200E-2,-9.613165259E-1,9.564111710E0,1.182652593E0
8.881487500E-2,-9.421738982E-1,9.592825890E0,1.178465128E0
9.106774400E-2,-9.188438654E-1,9.640682220E0,1.207179070E0
9.331841500E-2,-9.044869542E-1,9.655039787E0,1.222134113E0
9.557030700E-2,-8.811569214E-1,9.697511673E0,1.236491084E0
9.782366400E-2,-8.668000102E-1,9.721440315E0,1.251446247E0
1.000763490E-1,-8.428717852E-1,9.754940033E0,1.217946768E0
1.023298270E-1,-8.380861282E-1,9.764511108E0,1.174875975E0
1.045832450E-1,-8.189435601E-1,9.774082184E0,1.180259824E0
1.068364190E-1,-8.333004713E-1,9.807581902E0,1.165902853E0
1.090897160E-1,-8.237292171E-1,9.826126099E0,1.151545882E0
1.113439890E-1,-8.141579032E-1,9.826724052E0,1.132403374E0
1.135925850E-1,-8.039883971E-1,9.836296082E0,1.094118118E0
1.158356260E-1,-7.896314859E-1,9.831509590E0,1.079761267E0
1.181005800E-1,-7.848458290E-1,9.836296082E0,1.061216831E0
1.203518000E-1,-7.704889178E-1,9.826724052E0,1.032503009E0
1.226119930E-1,-7.609176040E-1,9.817152977E0,1.042074203E0
1.248619940E-1,-7.657032609E-1,9.802796364E0,1.060618639E0
1.271165100E-1,-7.471588850E-1,9.802796364E0,1.074975610E0
1.293696830E-1,-7.328019142E-1,9.783653259E0,1.094118118E0
1.316216360E-1,-7.328019142E-1,9.774082184E0,1.084546804E0
1.338746260E-1,-7.184450030E-1,9.759725571E0,1.027119160E0
1.361270680E-1,-7.226324677E-1,9.764511108E0,1.017547846E0
1.383795100E-1,-7.322037220E-1,9.745368004E0,1.027119160E0
1.406289000E-1,-7.657032609E-1,9.745368004E0,1.007976532E0
1.428875660E-1,-7.561319470E-1,9.707681656E0,9.643075466E-1
1.451409840E-1,-7.657032609E-1,9.693324089E0,9.786644578E-1
1.473963550E-1,-7.842476368E-1,9.678967476E0,9.499505758E-1
1.496469040E-1,-8.129615188E-1,9.655039787E0,9.637092948E-1
1.518997740E-1,-8.321040869E-1,9.626923561E0,9.780662656E-1
1.541525200E-1,-8.368897438E-1,9.602995872E0,9.828519225E-1
1.564064870E-1,-8.560323119E-1,9.583852768E0,9.870393276E-1
1.586600270E-1,-8.841479421E-1,9.602995872E0,9.972088337E-1
1.609142370E-1,-8.985049129E-1,9.598209381E0,1.006181955E0
1.631665570E-1,-9.224331379E-1,9.583852768E0,1.010967612E0
1.654204030E-1,-9.272187948E-1,9.579067230E0,1.044467092E0
1.676720500E-1,-9.655039310E-1,9.588638306E0,1.087537885E0
1.699254680E-1,-9.846464992E-1,9.602995872E0,1.111466169E0
1.721783970E-1,-9.894321561E-1,9.612566948E0,1.097109199E0
1.744319370E-1,-1.018146038E0,9.626325607E0,1.135394335E0
1.766843790E-1,-1.022931695E0,9.621540070E0,1.173679471E0
1.789312670E-1,-1.018744230E0,9.645467758E0,1.183250785E0
1.811784590E-1,-9.948160052E-1,9.664610863E0,1.211964726E0
1.834455490E-1,-1.009172916E0,9.683155060E0,1.259821177E0
1.856989060E-1,-1.000199914E0,9.687940598E0,1.264606714E0
1.879542760E-1,-9.858429432E-1,9.697511673E0,1.293918848E0
1.902041540E-1,-9.714859724E-1,9.707083702E0,1.260419369E0
1.924573880E-1,-9.858429432E-1,9.711869240E0,1.255633712E0
1.947101970E-1,-9.858429432E-1,9.697511673E0,1.279561877E0
1.969635530E-1,-9.571290612E-1,9.697511673E0,1.298704505E0
1.992170320E-1,-9.810572863E-1,9.673583984E0,1.307677627E0
2.014713040E-1,-9.810572863E-1,9.654440880E0,1.312463164E0
2.037233180E-1,-9.810572863E-1,9.664012909E0,1.312463164E0
2.059728920E-1,-9.619147182E-1,9.644869804E0,1.317248821E0
2.082152620E-1,-9.571290612E-1,9.626325607E0,1.298106313E0
2.104778360E-1,-9.475577474E-1,9.626325607E0,1.240678549E0
2.127354650E-1,-9.571290612E-1,9.616754532E0,1.226321578E0
2.149869290E-1,-9.714859724E-1,9.597611427E0,1.235892892E0
2.172373560E-1,-9.714859724E-1,9.583254814E0,1.235892892E0
2.194965730E-1,-9.284151793E-1,9.583254814E0,1.269392371E0
2.217500520E-1,-9.284151793E-1,9.573683739E0,1.250249863E0
2.240038970E-1,-9.188438654E-1,9.583254814E0,1.216750264E0
2.262551780E-1,-9.092726111E-1,9.564111710E0,1.211964726E0
2.285085340E-1,-8.524430394E-1,9.583254814E0,1.231107235E0
2.307619530E-1,-8.380861282E-1,9.611968994E0,1.241276741E0
2.330157370E-1,-8.237292171E-1,9.621540070E0,1.212562919E0
2.352678130E-1,-8.470591903E-1,9.607182503E0,1.174277663E0
2.375221450E-1,-8.422735929E-1,9.588040352E0,1.145563841E0
2.397739150E-1,-8.518448472E-1,9.602396965E0,1.140778184E0
2.420276990E-1,-8.614161611E-1,9.616754532E0,1.183848977E0
2.442805070E-1,-8.853443861E-1,9.640682220E0,1.183848977E0
2.465339870E-1,-8.805587292E-1,9.645467758E0,1.159920812E0
2.487869160E-1,-8.566305041E-1,9.626325607E0,1.135992527E0
2.510394180E-1,-8.805587292E-1,9.621540070E0,1.126421213E0
2.532932640E-1,-8.566305041E-1,9.635896683E0,1.116850019E0
2.555478400E-1,-8.662018180E-1,9.664610863E0,1.107278705E0
2.577999770E-1,-8.327022791E-1,9.659825325E0,1.078564763E0
2.600529680E-1,-8.231309652E-1,9.659825325E0,1.055234790E0
2.623054090E-1,-8.279166222E-1,9.664610863E0,1.088734269E0
2.645595590E-1,-8.518448472E-1,9.645467758E0,1.116850019E0
2.668124880E-1,-8.470591903E-1,9.640682220E0,1.140778184E0
2.690658450E-1,-8.518448472E-1,9.640682220E0,1.140778184E0
2.713193250E-1,-8.279166222E-1,9.650253296E0,1.135992527E0
2.735732930E-1,-8.045865893E-1,9.664012909E0,1.170090318E0
2.758253670E-1,-8.141579032E-1,9.673583984E0,1.155733347E0
2.780750620E-1,-7.950153351E-1,9.668798447E0,1.155733347E0
2.803191420E-1,-8.141579032E-1,9.697511673E0,1.165304661E0
2.825842170E-1,-8.285148144E-1,9.702297211E0,1.184447169E0
2.848382450E-1,-8.380861282E-1,9.731011391E0,1.184447169E0
2.870943480E-1,-8.333004713E-1,9.726225853E0,1.194018483E0
2.893449590E-1,-8.620143533E-1,9.764511108E0,1.227517962E0
2.915988650E-1,-8.524430394E-1,9.774082184E0,1.241874933E0
2.938508180E-1,-8.476574421E-1,9.778867722E0,1.232901812E0
2.961038080E-1,-8.572286963E-1,9.759725571E0,1.256231904E0
2.983560670E-1,-8.476574421E-1,9.764511108E0,1.261017561E0
3.006100950E-1,-8.476574421E-1,9.778269768E0,1.256830096E0
3.028638190E-1,-8.333004713E-1,9.759725571E0,1.232901812E0
3.051180910E-1,-8.524430394E-1,9.759725571E0,1.213759303E0
3.073702280E-1,-8.763712645E-1,9.735796928E0,1.213161111E0
3.096242550E-1,-8.901300430E-1,9.731011391E0,1.213161111E0
3.118759030E-1,-9.044869542E-1,9.707083702E0,1.237089276E0
3.141260250E-1,-9.332008362E-1,9.702297211E0,1.241276741E0
3.163687000E-1,-9.475577474E-1,9.674181938E0,1.246062398E0
3.186353020E-1,-9.948160052E-1,9.688538551E0,1.241276741E0
3.208891470E-1,-9.948160052E-1,9.655039787E0,1.235892892E0
3.231454940E-1,-1.009172916E0,9.645467758E0,1.245464206E0
3.253959220E-1,-1.004387259E0,9.669396400E0,1.245464206E0
3.276464100E-1,-1.023529887E0,9.650253296E0,1.216750264E0
3.298857290E-1,-1.051645517E0,9.650253296E0,1.188036442E0
3.321388420E-1,-1.061216831E0,9.636494637E0,1.125823021E0
3.343950060E-1,-1.051047325E0,9.626923561E0,1.087537885E0
3.366645980E-1,-1.055832982E0,9.612566948E0,1.073180914E0
3.389176500E-1,-1.031904817E0,9.617352486E0,1.082752228E0
3.411705190E-1,-1.008574724E0,9.626923561E0,1.092323542E0
3.434214350E-1,-9.846464992E-1,9.645467758E0,1.106680512E0
3.456752800E-1,-9.798609018E-1,9.655039787E0,1.121635556E0
3.479273540E-1,-9.798609018E-1,9.664610863E0,1.107278705E0
3.501770490E-1,-9.798609018E-1,9.678967476E0,1.107278705E0
3.524200300E-1,-9.702895880E-1,9.678967476E0,1.073779106E0
3.546865090E-1,-9.655039310E-1,9.674181938E0,1.064207911E0
3.569399890E-1,-9.463613629E-1,9.688538551E0,1.049850941E0
3.591966410E-1,-9.272187948E-1,9.707681656E0,1.002592683E0
3.614465200E-1,-9.128618240E-1,9.698110580E0,9.786644578E-1
3.637001810E-1,-9.463613629E-1,9.707681656E0,9.876375198E-1
3.659526220E-1,-9.320043921E-1,9.722038269E0,9.643075466E-1
3.682061010E-1,-9.032905698E-1,9.736394882E0,9.738788009E-1
3.704590920E-1,-8.985049129E-1,9.726823807E0,9.547362328E-1
3.727124500E-1,-9.128618240E-1,9.731609344E0,9.547362328E-1
3.749658070E-1,-9.080761671E-1,9.712467194E0,9.355936646E-1
3.772195290E-1,-8.979067206E-1,9.726823807E0,9.020941257E-1
3.794713600E-1,-9.122636318E-1,9.731609344E0,8.877372146E-1
3.817258150E-1,-9.218349457E-1,9.717850685E0,8.542376757E-1
3.839779510E-1,-9.260223508E-1,9.703494072E0,8.159525394E-1
3.862313700E-1,-9.260223508E-1,9.689137459E0,7.920243144E-1
3.884844210E-1,-9.547362328E-1,9.674779892E0,7.818548083E-1
3.907378380E-1,-9.547362328E-1,9.665208817E0,8.057830334E-1
3.929911950E-1,-9.643075466E-1,9.655637741E0,8.392825127E-1
3.952438810E-1,-9.738788009E-1,9.636494637E0,8.584251404E-1
3.974974830E-1,-1.012163997E0,9.626923561E0,9.200403094E-1
3.997511450E-1,-1.012163997E0,9.626923561E0,9.439685345E-1
4.020037080E-1,-1.036092162E0,9.602995872E0,9.678967595E-1
4.042568200E-1,-1.064806104E0,9.574281693E0,1.005583763E0
4.065098110E-1,-1.065404296E0,9.564710617E0,1.077368379E0
4.087632290E-1,-1.084546804E0,9.555138588E0,1.120439172E0
4.110165860E-1,-1.118046403E0,9.540781975E0,1.167697430E0
4.132689050E-1,-1.161117196E0,9.559925079E0,1.210768223E0
4.155204310E-1,-1.185045362E0,9.550353050E0,1.258624673E0
4.177764730E-1,-1.218544960E0,9.526425362E0,1.296311617E0
4.200288530E-1,-1.247258782E0,9.545567513E0,1.296311617E0
4.222831260E-1,-1.266401410E0,9.545567513E0,1.277169108E0
4.245355060E-1,-1.289731383E0,9.555138588E0,1.210170031E0
4.267889250E-1,-1.317847013E0,9.555138588E0,1.176670551E0
4.290420380E-1,-1.332203984E0,9.559925079E0,1.186241865E0
4.312953940E-1,-1.327418327E0,9.546165466E0,1.147956610E0
4.335485070E-1,-1.341775298E0,9.546165466E0,1.138385415E0
4.358022300E-1,-1.356132269E0,9.536594391E0,1.166501045E0
4.380536950E-1,-1.384846091E0,9.527023315E0,1.247856975E0
4.403041220E-1,-1.423131227E0,9.479166985E0,1.295115232E0
4.425605900E-1,-1.461416483E0,9.460023880E0,1.338186026E0
4.448142520E-1,-1.466202021E0,9.431310654E0,1.399801254E0
4.470688300E-1,-1.514058471E0,9.412167549E0,1.462014675E0
4.493225540E-1,-1.524826288E0,9.387641907E0,1.604985833E0
4.515768270E-1,-1.577468276E0,9.358927727E0,1.728814363E0
4.538276200E-1,-1.578066587E0,9.344570160E0,1.810170293E0
4.560774980E-1,-1.563709617E0,9.330213547E0,1.843669891E0
4.583193800E-1,-1.535593987E0,9.315856934E0,1.838884234E0
4.605706010E-1,-1.492523074E0,9.330213547E0,1.805982947E0
4.628268870E-1,-1.439880967E0,9.363713264E0,1.738983870E0
4.650955640E-1,-1.387238979E0,9.392427444E0,1.696511269E0
4.673493480E-1,-1.368096352E0,9.397212982E0,1.667797327E0
4.696028880E-1,-1.320239902E0,9.430113792E0,1.663609982E0
4.718537410E-1,-1.263410330E0,9.458827972E0,1.654636860E0
4.741056940E-1,-1.239482164E0,9.468399048E0,1.616351724E0
4.763560000E-1,-1.163509965E0,9.492327690E0,1.621735573E0
4.786006900E-1,-1.130608678E0,9.482755661E0,1.655235052E0
4.808669260E-1,-1.092323542E0,9.501300812E0,1.698305845E0
4.831183910E-1,-1.073779106E0,9.530014038E0,1.741974831E0
4.853744330E-1,-1.073779106E0,9.525228500E0,1.770688772E0
4.876245540E-1,-1.055234790E0,9.530014038E0,1.789831281E0
4.898788880E-1,-1.016949654E0,9.529416084E0,1.808973908E0
4.921311460E-1,-1.016949654E0,9.529416084E0,1.785045743E0
4.943845040E-1,-9.930213690E-1,9.558130264E0,1.723430514E0
4.966338930E-1,-9.643075466E-1,9.586843491E0,1.685145378E0
4.988774230E-1,-9.499505758E-1,9.615557671E0,1.652244091E0
5.011437800E-1,-9.355936646E-1,9.625128746E0,1.714457393E0
5.033972580E-1,-9.595218897E-1,9.653842926E0,1.738385677E0
5.056539720E-1,-9.738788009E-1,9.705886841E0,1.757528186E0
5.079045830E-1,-9.834501147E-1,9.758528709E0,1.715055585E0
5.101566580E-1,-9.834501147E-1,9.801599503E0,1.671984792E0
5.124063530E-1,-9.828519225E-1,9.844670296E0,1.619940877E0
5.146467100E-1,-9.876375198E-1,9.868598938E0,1.557727575E0
5.169044600E-1,-9.966106415E-1,9.916455269E0,1.515254974E0
5.191694760E-1,-9.870393276E-1,9.988240242E0,1.496710539E0
5.214268600E-1,-9.487541914E-1,1.004985523E1,1.459023595E0
5.236789970E-1,-9.631111026E-1,1.007378292E1,1.430309772E0
5.259302170E-1,-9.864411354E-1,1.012642574E1,1.363310695E0
5.281805840E-1,-1.004985452E0,1.015992451E1,1.282552958E0
5.304301560E-1,-1.033699393E0,1.017428207E1,1.272981644E0
5.326880300E-1,-1.104885817E0,1.017906761E1,1.291526079E0
5.349411430E-1,-1.171884894E0,1.017428207E1,1.315454245E0
5.371960250E-1,-1.223928809E0,1.020299530E1,1.339382529E0
5.394477330E-1,-1.276570916E0,1.022692394E1,1.357926846E0
5.417015790E-1,-1.290329576E0,1.023649502E1,1.301097274E0
5.439555460E-1,-1.308874011E0,1.024187946E1,1.186241865E0
5.462076220E-1,-1.317847013E0,1.026580715E1,1.071386337E0
5.484607950E-1,-1.317248821E0,1.026580715E1,9.996016622E-1
5.507129310E-1,-1.307677627E0,1.025683403E1,9.421738982E-1
5.529664710E-1,-1.283749342E0,1.026161957E1,9.086744189E-1
5.552198890E-1,-1.240678549E0,1.026161957E1,8.374879360E-1
5.574734910E-1,-1.225723386E0,1.025683403E1,7.896314859E-1
5.597268480E-1,-1.192223907E0,1.025204849E1,7.178468108E-1
5.619805100E-1,-1.173081279E0,1.023828983E1,6.364908218E-1
5.642329520E-1,-1.171884894E0,1.022393322E1,5.264210105E-1
5.664863070E-1,-1.161715388E0,1.019581699E1,4.067798555E-1
5.687391140E-1,-1.170688510E0,1.016291618E1,3.062812984E-1
5.709927150E-1,-1.203589797E0,1.012941647E1,2.051845491E-1
5.732458280E-1,-1.222134113E0,1.010608673E1,1.477568001E-1
5.754990640E-1,-1.250848055E0,1.005823040E1,1.088734269E-1
5.777529700E-1,-1.283749342E0,9.991828918E0,7.956135273E-2
5.800084620E-1,-1.326221943E0,9.943972588E0,5.503492057E-2
5.822550450E-1,-1.321436286E0,9.891928673E0,7.417750359E-2
5.844987580E-1,-1.331007600E0,9.848857880E0,6.400800496E-2
5.867640780E-1,-1.340578914E0,9.796813965E0,3.050848842E-2
5.890148720E-1,-1.339980721E0,9.734601021E0,2.991028316E-2
5.912618190E-1,-1.363908887E0,9.681958199E0,4.366901144E-2
5.935256750E-1,-1.378265858E0,9.644271851E0,-4.187439568E-3
5.957779330E-1,-1.383051515E0,9.610772133E0,3.828516230E-2
5.980335470E-1,-1.411765337E0,9.582057953E0,8.135596663E-2
6.002800070E-1,-1.440479279E0,9.529416084E0,9.990034252E-2
6.025372700E-1,-1.469193101E0,9.486345291E0,1.758724600E-1
6.047901400E-1,-1.497906923E0,9.467203140E0,1.998006850E-1
6.070444120E-1,-1.536192179E0,9.476774216E0,2.279163599E-1
6.092968520E-1,-1.574477315E0,9.434301376E0,2.709871531E-1
6.115500260E-1,-1.612762451E0,9.424132347E0,3.326023519E-1
6.137999660E-1,-1.631905079E0,9.419944763E0,3.278166950E-1
6.160440460E-1,-1.636690736E0,9.424132347E0,3.373879790E-1
6.183089990E-1,-1.660618901E0,9.419944763E0,3.421736360E-1
6.205625380E-1,-1.694118381E0,9.419346809E0,4.229314029E-1
6.228189470E-1,-1.684547186E0,9.409774780E0,4.564309120E-1
6.250691910E-1,-1.694716692E0,9.433703423E0,4.905286431E-1
6.273223050E-1,-1.709073544E0,9.461818695E0,6.005984545E-1
6.295754170E-1,-1.680957913E0,9.480961800E0,6.245267391E-1
6.318287130E-1,-1.680957913E0,9.480961800E0,6.484549642E-1
6.340823140E-1,-1.676770449E0,9.480961800E0,7.250252366E-1
6.363351820E-1,-1.677368641E0,9.494720459E0,8.255237937E-1
6.385881110E-1,-1.658824325E0,9.509077072E0,8.877372146E-1
6.408411630E-1,-1.649253011E0,9.485149384E0,9.355936646E-1
6.430944590E-1,-1.634896040E0,9.470791817E0,9.451649189E-1
6.453479390E-1,-1.620539188E0,9.466006279E0,8.829515576E-1
6.476010510E-1,-1.606780410E0,9.427721024E0,9.451649189E-1
6.498509290E-1,-1.597209096E0,9.375079155E0,1.016351461E0
6.520948250E-1,-1.578664780E0,9.375079155E0,1.088136077E0
6.543600840E-1,-1.507478237E0,9.427123070E0,1.098305583E0
6.566138080E-1,-1.407577872E0,9.465408325E0,1.055832982E0
6.588699100E-1,-1.350748420E0,9.493523598E0,1.070788145E0
6.611196040E-1,-1.302891970E0,9.503094673E0,1.023529887E0
6.633730840E-1,-1.250249863E0,9.507881165E0,9.708877802E-1
6.656276610E-1,-1.202393413E0,9.513264656E0,9.086744189E-1
6.678800420E-1,-1.178465128E0,9.498908043E0,8.853443861E-1
6.701341320E-1,-1.154536963E0,9.503693581E0,8.662018180E-1
6.723823610E-1,-1.125823021E0,9.494122505E0,8.614161611E-1
6.746259520E-1,-1.116251707E0,9.474979401E0,8.470591903E-1
6.768923700E-1,-1.092323542E0,9.470193863E0,8.279166222E-1
6.791468260E-1,-1.116251707E0,9.441479683E0,8.273184299E-1
6.814014650E-1,-1.135394335E0,9.441479683E0,8.560323119E-1
6.836518930E-1,-1.188036442E0,9.431908607E0,8.608179688E-1
6.859051880E-1,-1.225723386E0,9.431908607E0,8.650053740E-1
6.881595210E-1,-1.258624673E0,9.408578873E0,8.362914920E-1
6.904114120E-1,-1.306481123E0,9.389435768E0,8.165507317E-1
6.926647080E-1,-1.335195065E0,9.394221306E0,8.979067206E-1
6.949173940E-1,-1.373480201E0,9.394221306E0,9.074779749E-1
6.971708130E-1,-1.392622828E0,9.403793335E0,9.361918569E-1
6.994238040E-1,-1.426122308E0,9.384650230E0,1.002592683E0
7.016775270E-1,-1.440479279E0,9.365508080E0,1.002592683E0
7.039309450E-1,-1.473978758E0,9.355338097E0,1.093519926E0
7.061852170E-1,-1.507478237E0,9.327222824E0,1.131206870E0
7.084350340E-1,-1.560120344E0,9.322437286E0,1.107278705E0
7.106774650E-1,-1.578664780E0,9.312865257E0,1.116251707E0
7.129429070E-1,-1.597807288E0,9.308079720E0,1.058824062E0
7.151921740E-1,-1.592423439E0,9.299106598E0,1.001396298E0
7.174363760E-1,-1.582852125E0,9.284749985E0,9.439685345E-1
7.196896720E-1,-1.606182218E0,9.308678627E0,8.626125455E-1
7.219565170E-1,-1.630110383E0,9.323035240E0,8.673982024E-1
7.242137190E-1,-1.667797327E0,9.351749420E0,8.434699774E-1
7.264656720E-1,-1.686939955E0,9.342177391E0,8.626125455E-1
7.287155500E-1,-1.706082582E0,9.375677109E0,9.200403094E-1
7.309684790E-1,-1.721037745E0,9.399007797E0,9.637092948E-1
7.332220190E-1,-1.711466432E0,9.403793335E0,1.011565804E0
7.354748890E-1,-1.730608940E0,9.422935486E0,1.059422255E0
7.377295280E-1,-1.692921996E0,9.432506561E0,1.030708313E0
7.399819080E-1,-1.692921996E0,9.465408325E0,1.040279627E0
7.422359970E-1,-1.678565025E0,9.489336014E0,1.050449133E0
7.444877060E-1,-1.678565025E0,9.513264656E0,1.098305583E0
7.467409400E-1,-1.660020709E0,9.513264656E0,1.093519926E0
7.489927110E-1,-1.645663738E0,9.546165466E0,1.141376376E0
7.512417950E-1,-1.622333765E0,9.536594391E0,1.170090318E0
7.535001560E-1,-1.588834286E0,9.541379929E0,1.132403374E0
7.557533910E-1,-1.574477315E0,9.541379929E0,1.122832060E0
7.580077250E-1,-1.536192179E0,9.555737495E0,1.079761267E0
7.602572360E-1,-1.526620865E0,9.536594391E0,1.094118118E0
7.625127300E-1,-1.502692580E0,9.527023315E0,1.089332461E0
7.647663300E-1,-1.512263894E0,9.517452240E0,1.113260746E0
7.670204810E-1,-1.522433400E0,9.465408325E0,1.146162033E0
7.692731060E-1,-1.560120344E0,9.436694145E0,1.165304661E0
7.715261570E-1,-1.579262972E0,9.393623352E0,1.169492126E0
7.737793300E-1,-1.603789330E0,9.355338097E0,1.269990563E0
7.760296970E-1,-1.651645780E0,9.317052841E0,1.393819213E0
7.782722510E-1,-1.670788407E0,9.288339615E0,1.421934843E0
7.805331160E-1,-1.709073544E0,9.240483284E0,1.435693622E0
7.827916600E-1,-1.751546144E0,9.202795982E0,1.406979680E0
7.850481280E-1,-1.746760488E0,9.188439369E0,1.411765337E0
7.872997150E-1,-1.751546144E0,9.164510727E0,1.406381488E0
7.895515460E-1,-1.775474429E0,9.164510727E0,1.396810174E0
7.918047210E-1,-1.765903115E0,9.150154114E0,1.463809252E0
7.940583830E-1,-1.775474429E0,9.154939651E0,1.482951880E0
7.963121050E-1,-1.761715651E0,9.164510727E0,1.502094388E0
7.985636310E-1,-1.761715651E0,9.169296265E0,1.545165181E0
8.008170490E-1,-1.780858278E0,9.192625999E0,1.564307809E0
8.030702230E-1,-1.833500385E0,9.202198029E0,1.583450437E0
8.053238860E-1,-1.866401672E0,9.193224907E0,1.588235974E0
8.075774870E-1,-1.909472466E0,9.202795982E0,1.597209096E0
8.098313320E-1,-1.933400750E0,9.221938133E0,1.583450437E0
8.120836520E-1,-1.966900229E0,9.221938133E0,1.597209096E0
8.143338340E-1,-2.014158487E0,9.226125717E0,1.645065546E0
8.165730910E-1,-2.029113531E0,9.221340179E0,1.731207132E0
8.188298040E-1,-2.053041935E0,9.221340179E0,1.764108539E0
8.210960400E-1,-2.086541414E0,9.206983566E0,1.759322882E0
8.233526320E-1,-2.096112728E0,9.221340179E0,1.759322882E0
8.256058060E-1,-2.096112728E0,9.183054924E0,1.802393675E0
8.278556830E-1,-2.105684042E0,9.150154114E0,1.787438512E0
8.301091630E-1,-2.124228239E0,9.159725189E0,1.777867198E0
8.323636800E-1,-2.133799553E0,9.121439934E0,1.730010748E0
8.346136800E-1,-2.157129526E0,9.102297783E0,1.701296926E0
8.368554400E-1,-2.171486616E0,9.116654396E0,1.706082582E0
8.391212480E-1,-2.176272154E0,9.107083321E0,1.724626899E0
8.413742990E-1,-2.223530531E0,9.064610481E0,1.691127419E0
8.436311960E-1,-2.242672920E0,9.078967094E0,1.686341763E0
8.458780210E-1,-2.233101845E0,9.083752632E0,1.643270969E0
8.481182560E-1,-2.242074728E0,9.112466812E0,1.595414519E0
8.503760680E-1,-2.242074728E0,9.122037888E0,1.547558069E0
8.526400450E-1,-2.256431818E0,9.122037888E0,1.537986755E0
8.548971250E-1,-2.270190477E0,9.108279228E0,1.490130305E0
8.571499940E-1,-2.294118643E0,9.117850304E0,1.470987678E0
8.594001780E-1,-2.293520451E0,9.132207870E0,1.432702541E0
8.616531690E-1,-2.307877541E0,9.146564484E0,1.432702541E0
8.639069530E-1,-2.331805706E0,9.184251785E0,1.456630826E0
8.661601880E-1,-2.365305185E0,9.208179474E0,1.494915962E0
8.684141540E-1,-2.394019127E0,9.260822296E0,1.500299811E0
8.706661680E-1,-2.422732830E0,9.322437286E0,1.529013634E0
8.729193420E-1,-2.446661234E0,9.408578873E0,1.520040631E0
8.751720890E-1,-2.460419893E0,9.461220741E0,1.496112347E0
8.774243470E-1,-2.465205431E0,9.522835732E0,1.458425403E0
8.796734310E-1,-2.469991207E0,9.604191780E0,1.454237938E0
8.819327080E-1,-2.455634356E0,9.694520950E0,1.435693622E0
8.841858210E-1,-2.469991207E0,9.737591743E0,1.450050473E0
8.864410700E-1,-2.527418852E0,9.780662537E0,1.460219979E0
8.886915580E-1,-2.570489645E0,9.823135376E0,1.498505235E0
8.909450380E-1,-2.594418049E0,9.861420631E0,1.522433400E0
8.931979670E-1,-2.617748022E0,9.914062500E0,1.512862086E0
8.954512620E-1,-2.622533560E0,9.952347755E0,1.465603828E0
8.977037650E-1,-2.584248543E0,9.985847473E0,1.441675663E0
8.999574880E-1,-2.555534601E0,1.002831936E1,1.427916884E0
9.022111510E-1,-2.517847538E0,1.007139015E1,1.471585870E0
9.044652400E-1,-2.475374937E0,1.004746246E1,1.476371527E0
9.067173150E-1,-2.465803623E0,1.004267693E1,1.471585870E0
9.089704260E-1,-2.446661234E0,1.002353382E1,1.447657704E0
9.112233560E-1,-2.450848579E0,9.994820595E0,1.399203062E0
9.134746990E-1,-2.465205431E0,9.995418549E0,1.360917926E0
9.157215250E-1,-2.478964329E0,9.995418549E0,1.298704505E0
9.179815350E-1,-2.478964329E0,1.001456070E1,1.251446247E0
9.202322070E-1,-2.468794823E0,1.002891827E1,1.170090318E0
9.224928270E-1,-2.449652195E0,1.002413273E1,1.131805062E0
9.247430100E-1,-2.420938253E0,1.004806042E1,1.103689432E0
9.269969160E-1,-2.377867460E0,1.004806042E1,1.074975610E0
9.292486860E-1,-2.349153519E0,1.002951622E1,9.936196208E-1
9.314994190E-1,-2.348555326E0,1.001515961E1,9.361918569E-1
9.337445960E-1,-2.353341103E0,9.967302322E0,8.973084688E-1
9.360085120E-1,-2.362912416E0,9.929615974E0,9.116654396E-1
9.382619310E-1,-2.367697954E0,9.891330719E0,9.302098155E-1
9.405185220E-1,-2.381456852E0,9.867402077E0,9.062815905E-1
9.427680340E-1,-2.367099762E0,9.833903313E0,8.967102766E-1
9.450212690E-1,-2.400599241E0,9.820143700E0,8.673982024E-1
9.472744420E-1,-2.391027927E0,9.848259926E0,8.871390224E-1
9.495245040E-1,-2.371885538E0,9.886545181E0,9.014959335E-1
9.517677280E-1,-2.376671076E0,9.934401512E0,9.116654396E-1
9.540346950E-1,-2.358126640E0,9.991230965E0,9.260223508E-1
9.562878080E-1,-2.334198475E0,1.006301594E1,9.170492887E-1
9.585448270E-1,-2.353341103E0,1.013420200E1,9.367900491E-1
9.607905560E-1,-2.382055044E0,1.018684387E1,9.750752449E-1
9.630315840E-1,-2.405983210E0,1.023888779E1,9.852447510E-1
9.652868320E-1,-2.444268227E0,1.030110168E1,1.023529887E0
9.675531890E-1,-2.482553482E0,1.033460140E1,9.996016622E-1
9.698093540E-1,-2.515454769E0,1.042014408E1,1.004985452E0
9.720627710E-1,-2.558525562E0,1.050150013E1,1.015154958E0
9.743130160E-1,-2.629113913E0,1.058764172E1,9.146564603E-1
9.765669820E-1,-2.681157827E0,1.066421223E1,8.291130662E-1
9.788153350E-1,-2.719442844E0,1.074497032E1,8.482556343E-1
9.810560570E-1,-2.729014158E0,1.081675434E1,8.823533654E-1
9.833121600E-1,-2.748156786E0,1.087837029E1,8.297112584E-1
9.855787630E-1,-2.733799934E0,1.093101215E1,8.638089895E-1
9.878352930E-1,-2.706282377E0,1.101177025E1,1.022333503E0
9.900884670E-1,-2.660220623E0,1.111107159E1,1.310070395E0
9.923385890E-1,-2.542972326E0,1.122473145E1,1.550549030E0
9.945921900E-1,-2.405983210E0,1.138146114E1,1.729412556E0
9.968443260E-1,-2.268994093E0,1.156211948E1,1.855035782E0
9.990973790E-1,-2.146361828E0,1.169013500E1,1.971087694E0
1.001350856E0,-2.080559254E0,1.181815147E1,2.115853310E0
1.003604274E0,-2.038684845E0,1.191805172E1,2.293520451E0
1.005857508E0,-2.058425665E0,1.195573807E1,2.423331022E0
1.008109584E0,-2.010569334E0,1.197488117E1,2.375474691E0
1.010360134E0,-1.910668850E0,1.199880886E1,2.304288149E0
1.012618679E0,-1.997408748E0,1.206521034E1,2.486142635E0
1.014872157E0,-2.255235434E0,1.212682533E1,2.729612350E0
1.017123683E0,-2.531606436E0,1.213220882E1,2.814557552E0
1.019375880E0,-2.783450842E0,1.211785221E1,2.832503796E0
1.021629054E0,-2.992822886E0,1.214237881E1,2.860619545E0
1.023883205E0,-3.139981508E0,1.224287701E1,2.755335331E0
1.026137295E0,-3.196212769E0,1.237208939E1,2.588435888E0
1.028389675E0,-3.171686411E0,1.256770229E1,2.489133835E0
1.030643519E0,-3.086143017E0,1.279143143E1,2.462214470E0
1.032895044E0,-2.987439156E0,1.300080395E1,2.631506681E0
1.035148157E0,-2.870190859E0,1.320957756E1,2.896511793E0
1.037401758E0,-2.805584431E0,1.340878010E1,3.199203968E0
1.039655055E0,-2.735594511E0,1.360858059E1,3.468994617E0
1.041908595E0,-2.723032236E0,1.381256866E1,3.709473372E0
1.044161585E0,-2.685943365E0,1.404108334E1,3.835694790E0
1.046415064E0,-2.648256540E0,1.428395462E1,3.875176191E0
1.048669031E0,-2.581257343E0,1.453221035E1,3.829712629E0
1.050921472E0,-2.467000246E0,1.477986717E1,3.764508247E0
1.053173793E0,-2.310270309E0,1.501316738E1,3.781257868E0
1.055427210E0,-2.134995937E0,1.521775341E1,3.830909014E0
1.057680445E0,-1.954936147E0,1.536012650E1,3.937987804E0
1.059933496E0,-1.794018745E0,1.546002674E1,4.049253941E0
1.062186304E0,-1.666002750E0,1.551685619E1,4.098307133E0
1.064440636E0,-1.580459356E0,1.550668716E1,4.160520554E0
1.066694360E0,-1.481755376E0,1.543490219E1,4.304089546E0
1.068946680E0,-1.415354609E0,1.530150223E1,4.389633179E0
1.071199609E0,-1.325623751E0,1.509093380E1,4.527220249E0
1.073452477E0,-1.259821177E0,1.487617874E1,4.650450706E0
1.075705163E0,-1.174875975E0,1.465185165E1,4.759324074E0
1.077954430E0,-1.061216831E0,1.444606876E1,4.911268711E0
1.080199182E0,-9.954141974E-1,1.420738411E1,5.029713154E0
1.082465967E0,-9.002995491E-1,1.401655674E1,5.115256786E0
1.084720361E0,-8.201399446E-1,1.385863018E1,5.214558601E0
1.086975426E0,-7.298108935E-1,1.373480225E1,5.291129112E0
1.089225121E0,-6.634100676E-1,1.361994648E1,5.319244862E0
1.091478234E0,-6.065805554E-1,1.352901936E1,5.371288776E0
1.093731592E0,-6.017948985E-1,1.347697544E1,5.380859852E0
1.095984765E0,-5.778666735E-1,1.340519047E1,5.318048477E0
1.098237206E0,-5.964110494E-1,1.336750412E1,5.207978249E0
1.100486351E0,-5.856433511E-1,1.331067371E1,5.059025288E0
1.102745628E0,-5.228317380E-1,1.331605816E1,4.872983456E0
1.104997398E0,-4.313062727E-1,1.330648708E1,4.639084816E0
1.107251976E0,-3.493520916E-1,1.329272842E1,4.395017147E0
1.109503563E0,-2.667997181E-1,1.328375530E1,4.146761417E0
1.111754113E0,-1.848455518E-1,1.319342613E1,3.964907169E0
1.113999596E0,-1.274178028E-1,1.314616776E1,3.811766386E0
1.116267845E0,-6.460621208E-2,1.307019520E1,3.692125320E0
1.118517113E0,6.939185411E-2,1.301276779E1,3.562912941E0
1.120770592E0,4.755735099E-1,1.299422359E1,3.138785124E0
1.123005333E0,7.220342159E-1,1.297926807E1,3.273979664E0
1.125259667E0,9.218349457E-1,1.289791203E1,3.273979664E0
1.127516196E0,1.116850019E0,1.278305721E1,3.312264681E0
1.129785483E0,1.225723386E0,1.258744335E1,3.364308596E0
1.132038840E0,1.264008522E0,1.233021545E1,3.357728481E0
1.134291770E0,1.222732425E0,1.204965687E1,3.188436270E0
1.136539268E0,1.143171072E0,1.171645641E1,2.922832966E0
1.138783164E0,9.876375198E-1,1.141196918E1,2.738585472E0
1.141048361E0,7.938188910E-1,1.115533924E1,2.520838737E0
1.143301474E0,5.904290080E-1,1.093699455E1,2.370090723E0
1.145557944E0,4.486542344E-1,1.078923702E1,2.287538528E0
1.147807944E0,3.248256743E-1,1.075633621E1,2.276770830E0
1.150059470E0,2.769692242E-1,1.079940701E1,2.310868502E0
1.152309958E0,2.961117923E-1,1.086580753E1,2.349153519E0
1.154567588E0,3.523431420E-1,1.100399303E1,2.422134638E0
1.156821922E0,4.420739710E-1,1.119422245E1,2.500499725E0
1.159074911E0,5.371887088E-1,1.137069321E1,2.482553482E0
1.161326682E0,6.233302951E-1,1.152802086E1,2.426920414E0
1.163580038E0,6.999006271E-1,1.164227867E1,2.284547329E0
1.165833518E0,8.009973764E-1,1.174277687E1,2.103889227E0
1.168086325E0,8.871390224E-1,1.186241817E1,1.899302959E0
1.170337179E0,9.870393276E-1,1.194317627E1,1.861616015E0
1.172593527E0,1.034297585E0,1.203829098E1,1.934597135E0
1.174847311E0,1.052842021E0,1.211426258E1,2.021337032E0
1.177099631E0,1.071386337E0,1.216630650E1,2.107478619E0
1.179350912E0,1.042074203E0,1.214237881E1,2.279761791E0
1.181605123E0,1.003190875E0,1.210887909E1,2.394019127E0
1.183858846E0,9.409775138E-1,1.207059383E1,2.469991207E0
1.186112448E0,8.500502706E-1,1.195573807E1,2.612364054E0
1.188365560E0,7.405785918E-1,1.186540890E1,2.639881611E0
1.190618917E0,6.693921089E-1,1.180857944E1,2.596212626E0
1.192872700E0,6.083751321E-1,1.169432259E1,2.461018085E0
1.195121236E0,5.670989752E-1,1.159023476E1,2.221137524E0
1.197365193E0,5.210371017E-1,1.149571800E1,2.009970903E0
1.199631062E0,4.791627228E-1,1.136231804E1,1.822732687E0
1.201884603E0,4.235295951E-1,1.120080280E1,1.610967875E0
1.204140889E0,4.103690982E-1,1.107757282E1,1.413560033E0
1.206390828E0,3.595215976E-1,1.092562866E1,1.202393413E0
1.208644246E0,3.032902777E-1,1.078325558E1,1.009771109E0
1.210898152E0,2.614158690E-1,1.065942669E1,8.745766878E-1
1.213147053E0,1.956132501E-1,1.053141022E1,7.830511928E-1
1.215390217E0,1.250249892E-1,1.035075283E1,6.807580590E-1
1.217655903E0,2.572284266E-2,1.015035343E1,5.928218365E-1
1.219909687E0,-8.315058798E-2,9.874580383E0,5.383850932E-1
1.222166584E0,-1.447657645E-1,9.655039787E0,5.461617708E-1
1.224416401E0,-1.585244983E-1,9.483952522E0,4.205385745E-1
1.226670002E0,-1.908276081E-1,9.360123634E0,3.188436031E-1
1.228923725E0,-2.662015259E-1,9.169894218E0,1.740778536E-1
1.231175617E0,-3.086741269E-1,8.998807907E0,1.393819153E-1
1.233428302E0,-3.367897868E-1,8.788837433E0,1.136590764E-1
1.235681598E0,-4.037888348E-1,8.560322762E0,1.501496136E-1
1.237935504E0,-4.271188378E-1,8.307880402E0,1.770688742E-1
1.240188862E0,-4.468596280E-1,8.073982239E0,3.002992272E-1
1.242442952E0,-4.713860750E-1,7.868797302E0,4.277170599E-1
1.244695332E0,-5.330012441E-1,7.687541008E0,5.030909777E-1
1.246949481E0,-5.330012441E-1,7.530212879E0,5.258227587E-1
1.249197833E0,-5.192425251E-1,7.396214962E0,5.778666735E-1
1.251441241E0,-4.719842672E-1,7.243672371E0,6.388836503E-1
1.253704181E0,-4.576273263E-1,7.138986588E0,6.622136831E-1
1.255949848E0,-4.432703853E-1,7.057630539E0,6.759724021E-1
1.258217120E0,-4.151547253E-1,7.028916359E0,7.621139884E-1
1.260467364E0,-3.828516304E-1,7.009175777E0,8.626125455E-1
1.262723467E0,-3.978067636E-1,6.999604225E0,9.870393276E-1
1.264974871E0,-3.840480447E-1,6.970890522E0,1.144367456E0
1.267226763E0,-3.565305769E-1,6.946363926E0,1.297508121E0
1.269479938E0,-3.242274821E-1,6.926623344E0,1.450648785E0
1.271732867E0,-2.865405083E-1,6.917052269E0,1.575075507E0
1.273986529E0,-2.440679073E-1,6.873981476E0,1.594218135E0
1.276239336E0,-1.962114573E-1,6.788437843E0,1.550549030E0
1.278492022E0,-1.190429255E-1,6.735795975E0,1.426122308E0
1.280745501E0,-2.811566554E-2,6.683752060E0,1.244866014E0
1.282999956E0,1.914258115E-2,6.607181549E0,1.311266780E0
1.285252337E0,8.973085135E-2,6.597609997E0,1.464407444E0
1.287505693E0,1.082752272E-1,6.673582554E0,1.560718536E0
1.289758317E0,1.597209126E-1,6.778268337E0,1.638485312E0
1.292011979E0,2.943171859E-1,6.850052834E0,1.390828133E0
1.294265092E0,3.672982752E-1,6.879364967E0,1.075573802E0
1.296515032E0,4.881358147E-1,6.932007313E0,7.274180651E-1
1.298758501E0,5.754738450E-1,6.956533432E0,3.978067636E-1
1.301025591E0,7.064808607E-1,7.005586624E0,-1.178465188E-1
1.303277788E0,8.518448472E-1,7.101299286E0,-5.569294691E-1
1.305534257E0,9.631111026E-1,7.164111137E0,-9.768698215E-1
1.307783891E0,1.079162955E0,7.274778843E0,-1.301097274E0
1.310037370E0,1.217946768E0,7.380063057E0,-1.538584948E0
1.312290972E0,1.275972724E0,7.394420147E0,-1.715055585E0
1.314543351E0,1.324427366E0,7.451848030E0,-1.829312921E0
1.316792009E0,1.334596872E0,7.504489899E0,-1.915454507E0
1.319051163E0,1.330409408E0,7.519444942E0,-2.120639086E0
1.321302933E0,1.283749342E0,7.510472298E0,-2.264806747E0
1.323557633E0,1.226919770E0,7.486543655E0,-2.260020971E0
1.325809220E0,1.102493048E0,7.500302792E0,-2.088335991E0
1.328061784E0,1.015753269E0,7.442874908E0,-1.898106575E0
1.330312210E0,8.961120844E-1,7.361518860E0,-1.707278967E0
1.332569107E0,7.519445419E-1,7.261020184E0,-1.445863128E0
1.334822831E0,6.604190469E-1,7.170093060E0,-1.212562919E0
1.337077714E0,5.210371017E-1,7.083951473E0,-9.170492887E-1
1.339328386E0,4.486542344E-1,7.021738052E0,-7.022934556E-1
1.341581987E0,3.098705411E-1,6.906882763E0,-5.318048596E-1
1.343834855E0,1.998006850E-1,6.796812534E0,-3.798605800E-1
1.346088454E0,8.494520187E-2,6.668198586E0,-3.092723191E-1
1.348340469E0,-7.597211748E-2,6.420541286E0,-3.499503136E-1
1.350590408E0,-2.572284341E-1,6.239883423E0,-2.703889608E-1
1.352847550E0,-3.672982752E-1,6.172883987E0,-1.375873089E-1
1.355101761E0,-4.959124923E-1,6.072983742E0,-6.221338734E-2
1.357355240E0,-6.293123364E-1,6.010770321E0,3.708875179E-2
1.359607375E0,-7.579265833E-1,5.996413708E0,1.034895778E-1
1.361859878E0,-8.578268886E-1,6.077769279E0,5.563312769E-2
1.364113723E0,-9.236295223E-1,6.144768715E0,-4.426721856E-2
1.366366898E0,-9.990034699E-1,6.202196121E0,-1.639083475E-1
1.368620193E0,-1.078564763E0,6.222535133E0,-4.606183469E-1
1.370873550E0,-1.125224829E0,6.403791428E0,-6.029912829E-1
1.373127639E0,-1.138983607E0,6.504290104E0,-7.028916478E-1
1.375379408E0,-1.168295622E0,6.604190350E0,-6.305087805E-1
1.377632095E0,-1.206580877E0,6.689733982E0,-5.443671346E-1
1.379885817E0,-1.273579836E0,6.732804775E0,-5.204389095E-1
1.382138930E0,-1.301695466E0,6.723233223E0,-5.778666735E-1
1.384393020E0,-1.335195065E0,6.728019238E0,-5.826523304E-1
1.386646681E0,-1.439282775E0,6.704689026E0,-5.976074338E-1
1.388899245E0,-1.520040631E0,6.680760860E0,-6.269195080E-1
1.391153029E0,-1.567298889E0,6.657430649E0,-7.040880919E-1
1.393404860E0,-1.604985833E0,6.604788780E0,-7.334001660E-1
1.395657789E0,-1.618744493E0,6.610172749E0,-8.051848412E-1
1.397910841E0,-1.633101463E0,6.610172749E0,-8.386843204E-1
1.400164747E0,-1.679761529E0,6.553342819E0,-9.726824164E-1
1.402418044E0,-1.731805444E0,6.467799664E0,-1.040877819E0
1.404671218E0,-1.802393675E0,6.425326824E0,-1.074975610E0
1.406924513E0,-1.764108539E0,6.367899418E0,-1.170688510E0
1.409178480E0,-1.730010748E0,6.368497372E0,-1.284945726E0
1.411431044E0,-1.691725612E0,6.358926296E0,-1.409372568E0
1.413681227E0,-1.633699656E0,6.297310829E0,-1.505085468E0
1.415923414E0,-1.585245013E0,6.244668961E0,-1.643869162E0
1.418186353E0,-1.590030670E0,6.187839508E0,-1.687538147E0
1.420430249E0,-1.542174220E0,6.149554253E0,-1.706680775E0
1.422696790E0,-1.508674622E0,6.097510338E0,-1.744965911E0
1.424937086E0,-1.466202021E0,6.107081413E0,-1.754537225E0
1.427207105E0,-1.432104349E0,6.111867428E0,-1.807179332E0
1.429456189E0,-1.365703583E0,6.116652966E0,-1.849651933E0
1.431712293E0,-1.308275819E0,6.092724800E0,-1.931007862E0
1.433961683E0,-1.255633712E0,6.068796635E0,-1.993221283E0
1.436215711E0,-1.212562919E0,6.078367710E0,-2.045265198E0
1.438468700E0,-1.150349498E0,6.064010620E0,-2.093121529E0
1.440721996E0,-1.030708313E0,6.111867428E0,-2.192423820E0
1.442975293E0,-9.828519225E-1,6.107081413E0,-2.249851465E0
1.445229505E0,-9.403793216E-1,6.111867428E0,-2.259422779E0
1.447480054E0,-9.541380405E-1,6.207580090E0,-2.287538528E0
1.449724927E0,-9.493523836E-1,6.236293793E0,-2.368296146E0
1.451974255E0,-9.583254457E-1,6.312864304E0,-2.477767944E0
1.454240856E0,-9.385846853E-1,6.341578007E0,-2.525624275E0
1.456495984E0,-9.152546525E-1,6.436692715E0,-2.558525562E0
1.458751660E0,-9.337990284E-1,6.556334019E0,-2.624328136E0
1.461000256E0,-8.901300430E-1,6.613761902E0,-2.743371248E0
1.463254895E0,-8.614161611E-1,6.780661106E0,-2.852244616E0
1.465506787E0,-8.129615188E-1,6.933203697E0,-2.970689297E0
1.467760388E0,-9.272187948E-1,7.000202656E0,-3.008974552E0
1.470013133E0,-8.554341197E-1,7.134200573E0,-3.122633457E0
1.472263316E0,-8.165507317E-1,7.205387115E0,-3.212962627E0
1.474506786E0,-8.979067206E-1,7.401000500E0,-3.173480988E0
1.476770275E0,-1.016949654E0,7.530212879E0,-3.144767046E0
1.479015758E0,-1.159920812E0,7.749155998E0,-3.129213810E0
1.481283275E0,-1.326221943E0,7.940581799E0,-3.186043262E0
1.483532725E0,-1.530210137E0,8.050651550E0,-3.263211966E0
1.485788463E0,-1.663011789E0,8.236693382E0,-3.305086374E0
1.488037670E0,-1.805982947E0,8.389834404E0,-3.352942705E0
1.490288281E0,-1.924427629E0,8.590232849E0,-3.418745279E0
1.492545299E0,-2.028515339E0,8.737990379E0,-3.504288673E0
1.494794994E0,-2.137388945E0,8.900702477E0,-3.589832067E0
1.497039440E0,-2.189432621E0,9.044271469E0,-3.742374659E0
1.499305614E0,-2.278565407E0,9.202198029E0,-3.957130432E0
1.501558116E0,-2.448455811E0,9.283554077E0,-4.153341770E0
1.503814585E0,-2.571087837E0,9.375079155E0,-4.306482315E0
1.506064219E0,-2.642872572E0,9.594022751E0,-4.319643021E0
1.508317575E0,-2.709273338E0,9.694520950E0,-4.390829563E0
1.510570749E0,-2.751745939E0,9.795019150E0,-4.462016106E0
1.512821116E0,-2.723032236E0,9.942776680E0,-4.499104977E0
1.515065989E0,-2.751147747E0,1.006720352E1,-4.594219685E0
1.517330760E0,-2.817548752E0,1.011446095E1,-4.570291042E0
1.519583445E0,-3.300300598E0,1.029093170E1,-4.140779495E0
1.521839426E0,-3.184846878E0,1.034836006E1,-4.402793884E0
1.524089670E0,-3.063411236E0,1.032562828E1,-4.904688358E0
1.526342966E0,-3.040081263E0,1.037288570E1,-4.822733879E0
1.528596385E0,-2.944368362E0,1.051107121E1,-4.917250633E0
1.530850167E0,-2.950350285E0,1.070130062E1,-4.724628448E0
1.533102304E0,-3.113660574E0,1.084427261E1,-4.423132420E0
1.535356881E0,-3.113660574E0,1.092502975E1,-4.470390797E0
1.537608529E0,-3.093919754E0,1.103988552E1,-4.613361835E0
1.539861948E0,-3.141177893E0,1.118764210E1,-4.612763882E0
1.542115121E0,-3.267399311E0,1.133001518E1,-4.248456478E0
1.544368418E0,-3.311068296E0,1.139163017E1,-4.066602230E0
1.546621896E0,-3.358326674E0,1.148255730E1,-4.156930923E0
1.548874093E0,-3.390031576E0,1.155434227E1,-4.362713814E0
1.551124886E0,-3.412165165E0,1.150289631E1,-4.731208801E0
1.553381661E0,-3.381656647E0,1.147537899E1,-5.042275429E0
1.555633982E0,-3.355933666E0,1.144247818E1,-5.377270699E0
1.557888498E0,-3.367299557E0,1.135334492E1,-5.941977024E0
1.560140573E0,-3.393022537E0,1.114935684E1,-6.426523209E0
1.562393623E0,-3.376272678E0,1.095493984E1,-6.839285374E0
1.564647163E0,-3.452843189E0,1.074556828E1,-6.773482800E0
1.566900337E0,-3.473780155E0,1.064447117E1,-6.358327866E0
1.569153939E0,-3.596412420E0,1.055713367E1,-5.632704735E0
1.571407906E0,-3.711267948E0,1.050209904E1,-4.705485821E0
1.573659859E0,-3.859024763E0,1.051944637E1,-3.687339783E0
1.575909737E0,-4.040879250E0,1.048355389E1,-2.612364054E0
1.578152657E0,-4.245465755E0,1.045783138E1,-1.733001828E0
1.580419136E0,-4.353740692E0,1.048534870E1,-1.058824062E0
1.582672555E0,-4.505684853E0,1.055474091E1,-2.841476798E-1
1.584925789E0,-4.513461590E0,1.066361427E1,2.614158690E-1
1.587163155E0,-4.367499352E0,1.085324574E1,5.168496966E-1
1.589420601E0,-4.125824451E0,1.125284672E1,6.209374666E-1
1.591685249E0,-3.760320902E0,1.187677479E1,6.406782866E-1
1.593941657E0,-3.351148129E0,1.293918800E1,5.204389095E-1
1.596194404E0,-2.907279491E0,1.401715469E1,7.776673418E-3
1.598444588E0,-2.470589399E0,1.496710587E1,-7.968099117E-1
1.600698494E0,-2.103889227E0,1.577468300E1,-1.885544300E0
1.602952399E0,-1.798804402E0,1.627717590E1,-2.980858803E0
1.605204902E0,-1.540977836E0,1.651825333E1,-4.111467361E0
1.607458686E0,-1.368694544E0,1.654397583E1,-5.096114159E0
1.609710639E0,-1.283749342E0,1.645005798E1,-5.832505226E0
1.611964668E0,-1.223928809E0,1.621316719E1,-6.307480335E0
1.614219245E0,-1.232901812E0,1.578425503E1,-6.430112839E0
1.616469672E0,-1.204786181E0,1.526919937E1,-6.232106686E0
1.618723517E0,-1.125224829E0,1.464407444E1,-5.934798241E0
1.620975898E0,-1.042074203E0,1.395135212E1,-5.384449005E0
1.623230415E0,-9.116654396E-1,1.326341629E1,-4.867001057E0
1.625484320E0,-7.764709592E-1,1.253719425E1,-4.296911240E0
1.627736334E0,-7.657032609E-1,1.183011532E1,-3.536591768E0
1.629989446E0,-8.315058947E-1,1.117986584E1,-2.732603550E0
1.632241949E0,-9.828519225E-1,1.066361427E1,-1.995015860E0
1.634494329E0,-1.208973646E0,1.030528927E1,-1.405185103E0
1.636749030E0,-1.415952802E0,1.005165005E1,-9.870393276E-1
1.639002448E0,-1.597807288E0,9.927223206E0,-7.351947427E-1
1.641256232E0,-1.749751568E0,9.765707016E0,-7.369893789E-1
1.643509710E0,-1.896311998E0,9.613762856E0,-8.578268886E-1
1.645761663E0,-2.038086653E0,9.433105469E0,-1.031904817E0
1.648013739E0,-2.165504456E0,9.361918449E0,-1.167099237E0
1.650262518E0,-2.279163599E0,9.372088432E0,-1.243669510E0
1.652520942E0,-2.383849621E0,9.443274498E0,-1.238883972E0
1.654774298E0,-2.440679073E0,9.534201622E0,-1.234098315E0
1.657028813E0,-2.517249346E0,9.710672379E0,-1.185045362E0
1.659280949E0,-2.522633314E0,9.929615974E0,-1.116850019E0
1.661534672E0,-2.537588358E0,1.016770172E1,-1.048654556E0
1.663787359E0,-2.514856577E0,1.041535854E1,-9.032905698E-1
1.666040533E0,-2.477767944E0,1.066301632E1,-7.292127013E-1
1.668293523E0,-2.407179594E0,1.090528965E1,-5.886343718E-1
1.670546818E0,-2.332403898E0,1.114337540E1,-4.480560422E-1
1.672800176E0,-2.248056889E0,1.137129116E1,-2.021935135E-1
1.675053716E0,-2.163709879E0,1.158066368E1,-3.349951655E-2
1.677305731E0,-2.098505497E0,1.177089310E1,1.453639716E-1
1.679560003E0,-2.051845312E0,1.191805172E1,3.326023519E-1
1.681812505E0,-1.991426587E0,1.204128170E1,5.635097623E-1
1.684066044E0,-1.902294040E0,1.218365479E1,7.704889178E-1
1.686318913E0,-1.875374794E0,1.225424290E1,1.015154958E0
1.688572208E0,-1.852642894E0,1.235892868E1,1.226321578E0
1.690825383E0,-1.782652855E0,1.239183044E1,1.432104349E0
1.693078557E0,-1.764706731E0,1.235294724E1,1.642672777E0
1.695331914E0,-1.733001828E0,1.228534985E1,1.938784599E0
1.697585575E0,-1.724626899E0,1.220877934E1,2.196611166E0
1.699837894E0,-1.740180254E0,1.212203979E1,2.435295343E0
1.702091556E0,-1.732403636E0,1.199761295E1,2.788236618E0
1.704344547E0,-1.685743570E0,1.185404301E1,2.935993433E0
1.706597966E0,-1.705484390E0,1.168175983E1,3.111865759E0
1.708851018E0,-1.767697692E0,1.143410301E1,3.238685369E0
1.711100896E0,-1.786840320E0,1.119541931E1,3.294916868E0
1.713342045E0,-1.796411633E0,1.098544884E1,3.336193085E0
1.715601932E0,-1.815554142E0,1.066181946E1,3.352942705E0
1.717863467E0,-1.796411633E0,1.043749237E1,3.327818155E0
1.720120181E0,-1.771885157E0,1.018505001E1,3.211766243E0
1.722372196E0,-1.742573142E0,9.851848602E0,3.128017426E0
1.724623293E0,-1.770090580E0,9.565906525E0,3.049652576E0
1.726876406E0,-1.721635938E0,9.299106598E0,2.880958557E0
1.729129641E0,-1.649253011E0,9.089735031E0,2.717050076E0
1.731383121E0,-1.558325768E0,8.885149002E0,2.577668190E0
1.733636417E0,-1.438086390E0,8.670990944E0,2.346760750E0
1.735889102E0,-1.350748420E0,8.490332603E0,2.078166485E0
1.738140933E0,-1.273579836E0,8.309675217E0,1.881356835E0
1.740390261E0,-1.205384374E0,8.162516594E0,1.636690736E0
1.742648867E0,-1.171286702E0,8.043473244E0,1.502094388E0
1.744902103E0,-1.146760225E0,7.900502205E0,1.357926846E0
1.747157046E0,-1.121635556E0,7.829914093E0,1.104287624E0
1.749403384E0,-1.096511006E0,7.749155998E0,9.409775138E-1
1.751649294E0,-1.043270707E0,7.682755470E0,7.447660565E-1
1.753914003E0,-1.013958573E0,7.664210796E0,5.533402562E-1
1.756168398E0,-9.888339639E-1,7.654639721E0,4.001995921E-1
1.758423952E0,-1.007378340E0,7.645666599E0,2.183450609E-1
1.760673586E0,-9.918249846E-1,7.636693478E0,5.084748194E-2
1.762927188E0,-9.816554785E-1,7.660621643E0,-9.690931439E-2
1.765180605E0,-9.804590940E-1,7.689933777E0,-2.691925466E-1
1.767434267E0,-9.702895880E-1,7.771289825E0,-4.642075896E-1
1.769688234E0,-9.361918569E-1,7.814360619E0,-6.125625968E-1
1.771940126E0,-8.883354068E-1,7.914859295E0,-6.783652306E-1
1.774193301E0,-8.309076428E-1,7.971688747E0,-7.304090858E-1
1.776446475E0,-7.220342159E-1,8.048258781E0,-7.100701332E-1
1.778699649E0,-6.556333899E-1,8.133802414E0,-6.185446382E-1
1.780952822E0,-5.754738450E-1,8.261817932E0,-5.694918036E-1
1.783192750E0,-4.953143001E-1,8.371290207E0,-4.492524564E-1
1.785446474E0,-4.342973232E-1,8.489734650E0,-2.853440940E-1
1.787703675E0,-3.822534084E-1,8.542376518E0,-2.368894368E-1
1.789968995E0,-2.925225794E-1,8.613563538E0,-2.123630047E-1
1.792221924E0,-2.015953064E-1,8.675178528E0,-2.542374134E-1
1.794471497E0,-1.399801224E-1,8.732605934E0,-2.249253243E-1
1.796711548E0,-5.443671346E-2,8.741579056E0,-2.392822653E-1
1.798978273E0,-2.392822644E-3,8.779864311E0,-2.195414752E-1
1.801231630E0,9.750752151E-2,8.818149567E0,-2.333002090E-1
1.803488222E0,1.878365725E-1,8.855836868E0,-2.231307179E-1
1.805739014E0,2.542374134E-1,8.851051331E0,-2.416750938E-1
1.807990113E0,3.355933726E-1,8.779266357E0,-2.656033039E-1
1.810240174E0,3.780659735E-1,8.740981102E0,-2.566302419E-1
1.812493713E0,3.637090325E-1,8.755337715E0,-2.368894368E-1
1.814737365E0,2.967100143E-1,8.626724243E0,-1.328016520E-1
1.817002807E0,2.201396823E-1,8.455039024E0,-1.495514158E-2
1.819250732E0,1.387837082E-1,8.359326363E0,8.913264424E-2
1.821513733E0,4.247260094E-2,8.249256134E0,2.985046208E-1
1.823764466E0,-1.058823988E-1,8.072785378E0,5.312066078E-1
1.826018127E0,-3.116651475E-1,7.771887779E0,8.009973764E-1
1.828269715E0,-5.455635786E-1,7.390232563E0,1.089332461E0
1.830522461E0,-7.890332937E-1,6.966104984E0,1.247856975E0
1.832775207E0,-1.041476011E0,6.594619274E0,1.430907965E0
1.835028747E0,-1.176670551E0,6.393621922E0,1.773679733E0
1.837282409E0,-1.268195987E0,6.216553211E0,2.025524378E0
1.839536072E0,-1.320838094E0,6.044867992E0,2.167897224E0
1.841790162E0,-1.373480201E0,5.925825119E0,2.252842426E0
1.844042174E0,-1.369292736E0,5.801398277E0,2.337787628E0
1.846295103E0,-1.360917926E0,5.796014786E0,2.500499725E0
1.848544676E0,-1.286142230E0,5.880959988E0,2.793022156E0
1.850788085E0,-1.305284739E0,5.919245243E0,2.812762976E0
1.853054138E0,-1.344168067E0,5.900102615E0,2.898306370E0
1.855307861E0,-1.386042476E0,5.929414749E0,2.740380049E0
1.857564757E0,-1.399203062E0,5.958128452E0,2.587837696E0
1.859815184E0,-1.398006678E0,5.997011662E0,2.367697954E0
1.862067076E0,-1.426122308E0,6.059225082E0,2.219941139E0
1.864320433E0,-1.448854089E0,6.131010056E0,2.005185366E0
1.866573485E0,-1.438684583E0,6.245865345E0,1.948355794E0
1.868827209E0,-1.420140266E0,6.426523209E0,2.016551256E0
1.871080322E0,-1.416550994E0,6.555137634E0,2.142174482E0
1.873333373E0,-1.341775298E0,6.707081795E0,2.391626120E0
1.875584348E0,-1.271785259E0,6.825526714E0,2.589034081E0
1.877832578E0,-1.211366415E0,6.939185619E0,2.853441000E0
1.880092466E0,-1.151545882E0,7.143173695E0,3.237488985E0
1.882346312E0,-1.067797065E0,7.280761242E0,3.487539053E0
1.884601317E0,-1.034895778E0,7.399804115E0,3.540779352E0
1.886852598E0,-9.816554785E-1,7.471588612E0,3.388236761E0
1.889105955E0,-9.523434043E-1,7.529016495E0,3.245265722E0
1.891359983E0,-9.182456732E-1,7.619943619E0,3.035893679E0
1.893612303E0,-8.745766878E-1,7.682157040E0,2.864208698E0
1.895866270E0,-7.920243144E-1,7.721040249E0,2.635095835E0
1.898116514E0,-7.579265833E-1,7.764111042E0,2.492124796E0
1.900367368E0,-6.771687865E-1,7.754539967E0,2.449652195E0
1.902624448E0,-5.623133183E-1,7.706683636E0,2.339582443E0
1.904878232E0,-5.318048596E-1,7.621738434E0,1.928016901E0
1.907132138E0,-5.240281820E-1,7.532605648E0,1.405783296E0
1.909384458E0,-5.126622319E-1,7.533204079E0,1.061815023E0
1.911634336E0,-4.839483798E-1,7.518846989E0,1.085743308E0
1.913878537E0,-4.558327198E-1,7.466204643E0,1.166501045E0
1.916143490E0,-4.085744619E-1,7.371089935E0,1.176072359E0
1.918397213E0,-3.613162339E-1,7.270591736E0,1.223330617E0
1.920653439E0,-3.619144261E-1,7.217949390E0,1.356730461E0
1.922903806E0,-3.870390654E-1,7.212565422E0,1.624726534E0
1.925156431E0,-4.396811724E-1,7.140780926E0,1.724028707E0
1.927409848E0,-5.252245665E-1,7.060023308E0,1.752144337E0
1.929663205E0,-6.005984545E-1,7.003193855E0,1.607976794E0
1.931917111E0,-7.046862841E-1,6.932007313E0,1.534995675E0
1.934168881E0,-8.045865893E-1,6.879963398E0,1.500898004E0
1.936422543E0,-8.949156404E-1,6.865606308E0,1.543370605E0
1.938675411E0,-9.224331379E-1,6.837490559E0,1.375872970E0
1.940928767E0,-8.931210637E-1,6.814160824E0,1.174875975E0
1.943182063E0,-9.062815905E-1,6.804589272E0,1.045663476E0
1.945435298E0,-9.391828775E-1,6.795616150E0,9.547362328E-1
1.947689998E0,-9.589236975E-1,6.809374809E0,1.064806104E0
1.949946590E0,-1.021735311E0,6.851847649E0,1.298704505E0
1.952194332E0,-1.116850019E0,6.947560310E0,1.256231904E0
1.954448116E0,-1.239482164E0,7.015157700E0,1.103091240E0
1.956699825E0,-1.325623751E0,7.167700291E0,1.103689432E0
1.958954342E0,-1.425524116E0,7.258029461E0,1.127617717E0
1.961207455E0,-1.511067510E0,7.348956585E0,1.089930773E0
1.963461911E0,-1.587039590E0,7.449455261E0,1.061216831E0
1.965714352E0,-1.719841242E0,7.506882668E0,9.942178130E-1
1.967968684E0,-1.828714728E0,7.545167923E0,8.841479421E-1
1.970221247E0,-1.922633052E0,7.598408222E0,6.975077987E-1
1.972468806E0,-2.075175524E0,7.703094482E0,8.027920127E-1
1.974713252E0,-2.212762833E0,7.727620602E0,7.399803996E-1
1.976975947E0,-2.350948334E0,7.808378696E0,7.686942816E-1
1.979217097E0,-2.470589399E0,7.846663475E0,8.542376757E-1
1.981477839E0,-2.647060156E0,7.880163193E0,9.637092948E-1
1.983739741E0,-2.746960402E0,7.899305820E0,1.021137118E0
1.985996943E0,-2.824128866E0,7.936992645E0,1.150349498E0
1.988248713E0,-2.938984394E0,7.917252064E0,1.388435364E0
1.990498958E0,-3.122035265E0,7.940581799E0,1.756331801E0
1.992751826E0,-3.317648649E0,7.978867054E0,1.894517303E0
1.995004938E0,-3.473780155E0,8.041678429E0,1.717448473E0
1.997257990E0,-3.576671600E0,8.085348129E0,1.468594909E0
1.999511712E0,-3.667000771E0,8.185248375E0,1.411167145E0
2.001765436E0,-3.733999729E0,8.328219414E0,1.521835208E0
2.004019343E0,-3.797409534E0,8.508877754E0,1.785643935E0
2.006271174E0,-3.855435371E0,8.666205406E0,1.930409670E0
2.008524286E0,-3.926621914E0,8.880363464E0,1.907079697E0
2.010773858E0,-3.968496323E0,9.095717430E0,1.669592023E0
2.013017144E0,-4.028316975E0,9.296713829E0,1.283151150E0
2.015283380E0,-4.021736622E0,9.521639824E0,9.738788009E-1
2.017537104E0,-4.022335052E0,9.774082184E0,1.037288666E0
2.019794123E0,-3.994817495E0,9.997811317E0,1.168295622E0
2.022044793E0,-3.924229145E0,1.021675491E1,1.294517040E0
2.024296868E0,-3.858426571E0,1.045962620E1,1.406381488E0
2.026549981E0,-3.806382656E0,1.062592697E1,1.417149186E0
2.028802911E0,-3.768097401E0,1.075035381E1,1.355534077E0
2.031056145E0,-3.735196114E0,1.090289593E1,1.347159147E0
2.033308892E0,-3.672982693E0,1.106501007E1,1.325025558E0
2.035563226E0,-3.573082447E0,1.119841003E1,1.249651670E0
2.037816339E0,-3.472583771E0,1.130309582E1,1.145563841E0
2.040070184E0,-3.391227961E0,1.137488079E1,1.036092162E0
2.042322014E0,-3.337987661E0,1.140359497E1,8.883354068E-1
2.044575066E0,-3.261417150E0,1.145145130E1,7.692924738E-1
2.046828179E0,-3.160918713E0,1.150887871E1,6.747759581E-1
2.049080010E0,-3.080160856E0,1.155194950E1,5.988038778E-1
2.051329949E0,-3.022135019E0,1.155194950E1,5.126622319E-1
2.053587639E0,-2.969492912E0,1.151426220E1,3.930211067E-1
2.055841973E0,-2.926422119E0,1.145683479E1,3.643072546E-1
2.058096062E0,-2.927020311E0,1.146640587E1,4.408775866E-1
2.060343621E0,-2.960519791E0,1.150887871E1,5.413761139E-1
2.062601006E0,-2.937189817E0,1.158006477E1,5.946164131E-1
2.064853813E0,-2.874378204E0,1.168056393E1,4.091726840E-1
2.067108146E0,-2.857628345E0,1.171047401E1,-8.315058798E-2
2.069360282E0,-2.792423964E0,1.169731331E1,-6.424728632E-1
2.071613761E0,-2.729612350E0,1.165484047E1,-8.386843204E-1
2.073867424E0,-2.612364054E0,1.157767200E1,-5.946164131E-1
2.076118644E0,-2.534597397E0,1.163330555E1,-2.033899166E-2
2.078363334E0,-2.447259426E0,1.165603733E1,4.875376225E-1
2.080625846E0,-2.258824587E0,1.170748329E1,8.805587292E-1
2.082879325E0,-2.002792597E0,1.178285694E1,9.014959335E-1
2.085135185E0,-1.792822361E0,1.181635666E1,8.117650747E-1
2.087386101E0,-1.634896040E0,1.184985638E1,5.682953596E-1
2.089639335E0,-1.420140266E0,1.186421299E1,4.402793646E-1
2.091892508E0,-1.330409408E0,1.187797165E1,6.131607890E-1
2.094145011E0,-1.352542996E0,1.192941761E1,1.096511006E0
2.096391532E0,-1.549950838E0,1.199043465E1,1.521835208E0
2.098646171E0,-1.874776483E0,1.201436234E1,1.816750646E0
2.100904776E0,-2.246262312E0,1.203829098E1,1.997408748E0
2.103159781E0,-2.618346214E0,1.212921810E1,2.130210400E0
2.105413015E0,-2.993421078E0,1.209631634E1,2.070987940E0
2.107665762E0,-3.364906788E0,1.210110188E1,2.184048891E0
2.109918143E0,-3.600001574E0,1.216271782E1,2.547159672E0
2.112171500E0,-3.773481369E0,1.226202011E1,2.948555708E0
2.114421499E0,-3.890131474E0,1.235175037E1,3.465405464E0
2.116673881E0,-3.984647989E0,1.252642632E1,4.168895245E0
2.118917105E0,-4.140779495E0,1.271067429E1,4.944767952E0
2.121184073E0,-4.253840446E0,1.288116264E1,5.576473236E0
2.123436696E0,-4.333401680E0,1.324247837E1,6.104688644E0
2.125693105E0,-4.348955154E0,1.359900951E1,6.379265308E0
2.127943350E0,-4.459024906E0,1.404706573E1,6.458228111E0
2.130197377E0,-4.563711166E0,1.447657681E1,6.341578007E0
2.132449208E0,-4.685744762E0,1.482054520E1,6.061019897E0
2.134702809E0,-4.724030018E0,1.520220089E1,6.025127411E0
2.136954824E0,-4.568496704E0,1.566820240E1,6.210571289E0
2.139206594E0,-4.426722050E0,1.601576042E1,6.327819347E0
2.141462332E0,-4.289134502E0,1.627777481E1,6.387639999E0
2.143715566E0,-3.994817495E0,1.671087456E1,6.444469452E0
2.145969655E0,-3.718446493E0,1.700638962E1,6.212964058E0
2.148220144E0,-3.359523058E0,1.732164383E1,5.839085579E0
2.150463185E0,-2.925225735E0,1.759382629E1,5.435894966E0
2.152727652E0,-2.419741869E0,1.791326904E1,5.119443893E0
2.154980824E0,-1.909472466E0,1.807956886E1,4.850251675E0
2.157237477E0,-1.357328653E0,1.827937126E1,4.676771641E0
2.159487720E0,-7.585247755E-1,1.840260124E1,4.689932346E0
2.161740467E0,-1.363908947E-1,1.851087570E1,4.789234638E0
2.163994374E0,4.001995921E-1,1.851027870E1,4.910670280E0
2.166248525E0,9.846464992E-1,1.845165443E1,5.023132801E0
2.168500783E0,1.441077471E0,1.831287003E1,5.090730190E0
2.170753590E0,1.702493310E0,1.785943031E1,5.112864017E0
2.173006519E0,1.721635938E0,1.721576118E1,5.156532764E0
2.175259754E0,1.584048629E0,1.649133301E1,5.146363258E0
2.177511890E0,1.375872970E0,1.575314808E1,5.121836662E0
2.179767323E0,1.110269666E0,1.504307747E1,5.096712112E0
2.182019948E0,8.255237937E-1,1.442393494E1,5.072185993E0
2.184274220E0,5.934200287E-1,1.388614845E1,5.015356064E0
2.186525622E0,4.181457460E-1,1.339561939E1,4.944169998E0
2.188779223E0,3.188436031E-1,1.301934814E1,4.841278553E0
2.191032153E0,2.817548811E-1,1.268614769E1,4.666602135E0
2.193285511E0,2.787638307E-1,1.242413330E1,4.468596458E0
2.195538135E0,3.038884699E-1,1.217707443E1,4.218546391E0
2.197791430E0,4.163511395E-1,1.198265743E1,3.715455294E0
2.200045398E0,5.036891699E-1,1.178345490E1,3.322434187E0
2.202299609E0,6.346961856E-1,1.161236858E1,2.896511793E0
2.204551563E0,7.800601721E-1,1.143230820E1,2.479562521E0
2.206804676E0,9.242277741E-1,1.128455162E1,2.221137524E0
2.209057727E0,1.028913736E0,1.109432220E1,2.133799553E0
2.211309864E0,1.119840980E0,1.090828037E1,2.056631088E0
2.213559619E0,1.192223907E0,1.073180962E1,1.955534339E0
2.215816821E0,1.259222865E0,1.057448101E1,1.916650891E0
2.218070116E0,1.302293777E0,1.042732334E1,1.843669891E0
2.220322314E0,1.311864972E0,1.026042366E1,1.833500385E0
2.222577014E0,1.298106313E0,1.010309505E1,1.803590059E0
2.224830187E0,1.240678549E0,9.931410789E0,1.849651933E0
2.227083788E0,1.178465128E0,9.816555023E0,1.954337835E0
2.229336351E0,1.096511006E0,9.707083702E0,2.120639086E0
2.231589403E0,9.672985673E-1,9.606584549E0,2.291725874E0
2.233842517E0,8.380861282E-1,9.486943245E0,2.514856577E0
2.236096423E0,6.610172391E-1,9.396614075E0,2.676372051E0
2.238350329E0,4.701896608E-1,9.300901413E0,2.813361168E0
2.240602587E0,3.080759048E-1,9.215357780E0,2.898306370E0
2.242855638E0,1.519442350E-1,9.148957253E0,2.839682341E0
2.245108568E0,-9.571290575E-3,9.154341698E0,2.767299414E0
2.247361802E0,-1.459621787E-1,9.178867340E0,2.523231506E0
2.249614610E0,-2.919243574E-1,9.265607834E0,2.207378864E0
2.251869127E0,-3.990031779E-1,9.414560318E0,1.772483349E0
2.254122057E0,-5.108676553E-1,9.573084831E0,1.347757339E0
2.256376085E0,-6.089733839E-1,9.774082184E0,1.037886858E0
2.258627610E0,-6.741777658E-1,9.970293999E0,7.471588850E-1
2.260880784E0,-7.585247755E-1,1.011386299E1,4.941178858E-1
2.263134141E0,-8.673982024E-1,1.030469036E1,4.325026870E-1
2.265387376E0,-9.768698215E-1,1.043868923E1,3.804588020E-1
2.267640610E0,-1.071984529E0,1.056251717E1,4.001995921E-1
2.269893662E0,-1.152742267E0,1.065822983E1,3.571287692E-1
2.272147203E0,-1.233500123E0,1.070608711E1,3.332005441E-1
2.274397997E0,-1.275972724E0,1.077308559E1,3.571287692E-1
2.276639939E0,-1.261615753E0,1.082094193E1,2.715853751E-1
2.278905929E0,-1.237687469E0,1.088255692E1,2.338984162E-1
2.281159347E0,-1.247258782E0,1.082572746E1,2.237289101E-1
2.283416305E0,-1.256231904E0,1.071625614E1,1.609173268E-1
2.285666123E0,-1.274776220E0,1.056849957E1,1.214357466E-1
2.287916123E0,-1.231705427E0,1.042074299E1,8.255238086E-2
2.290156357E0,-1.226919770E0,1.025862885E1,1.435693651E-1
2.292410508E0,-1.174875975E0,1.010548782E1,1.764706671E-1
2.294665512E0,-1.146760225E0,9.938589096E0,2.422732860E-1
2.296931504E0,-1.152144074E0,9.805189133E0,3.613162339E-1
2.299175766E0,-1.161715388E0,9.637691498E0,4.606183469E-1
2.301441696E0,-1.152742267E0,9.446864128E0,5.790630579E-1
2.303691758E0,-1.173081279E0,9.284152031E0,7.926225066E-1
2.305947922E0,-1.183250785E0,9.112466812E0,9.302098155E-1
2.308198472E0,-1.188634634E0,9.002396584E0,1.097109199E0
2.310452193E0,-1.198804140E0,8.935398102E0,1.230509043E0
2.312700484E0,-1.237687469E0,8.844470978E0,1.349551916E0
2.314944075E0,-1.243071318E0,8.772686005E0,1.478166223E0
2.317209823E0,-1.229312658E0,8.705686569E0,1.568495274E0
2.319463912E0,-1.186840057E0,8.624929428E0,1.625324726E0
2.321720565E0,-1.119840980E0,8.562715530E0,1.591825247E0
2.323971541E0,-1.057627559E0,8.500502586E0,1.515254974E0
2.326223861E0,-9.667003751E-1,8.386244774E0,1.433300734E0
2.328477707E0,-9.326026440E-1,8.295916557E0,1.327418327E0
2.330729232E0,-9.326026440E-1,8.172087669E0,1.264606714E0
2.332982345E0,-9.559326172E-1,8.033902168E0,1.235294700E0
2.335236007E0,-9.840483069E-1,7.905287743E0,1.224527001E0
2.337489424E0,-9.846464992E-1,7.805387497E0,1.276570916E0
2.339742538E0,-9.888339639E-1,7.652844906E0,1.270588875E0
2.341995771E0,-9.649057388E-1,7.505088329E0,1.255633712E0
2.344249190E0,-9.643075466E-1,7.347760201E0,1.149153113E0
2.346499800E0,-9.451649189E-1,7.223931789E0,1.110269666E0
2.348738509E0,-8.883354068E-1,7.171887875E0,1.105484009E0
2.350994917E0,-8.452646136E-1,7.143173695E0,1.091127157E0
2.353260786E0,-7.830511928E-1,7.057032108E0,1.095314622E0
2.355517683E0,-7.172485590E-1,7.037889481E0,1.143171072E0
2.357771162E0,-6.215356588E-1,7.033103943E0,1.048056364E0
2.360020552E0,-5.108676553E-1,7.043273449E0,8.476574421E-1
2.362274764E0,-4.289134443E-1,6.967301369E0,6.705885530E-1
2.364528730E0,-3.373879790E-1,6.905686378E0,4.313062727E-1
2.366780867E0,-2.554338276E-1,6.844070911E0,1.926222295E-1
2.369033857E0,-1.495514214E-1,6.810571671E0,3.948157281E-2
2.371286726E0,-4.426721856E-2,6.705885410E0,-7.058826834E-2
2.373540143E0,6.520441920E-2,6.672984123E0,-1.663011760E-1
2.375789838E0,1.375873089E-1,6.649055958E0,-3.188436031E-1
2.378030256E0,1.663011760E-1,6.606583118E0,-3.433700502E-1
2.380287580E0,2.045863420E-1,6.558726788E0,-4.103690982E-1
2.382554182E0,2.572284341E-1,6.544369698E0,-4.863412082E-1
2.384809430E0,2.769692242E-1,6.482754707E0,-5.778666735E-1
2.387062604E0,3.032902777E-1,6.383452415E0,-1.013360381E0
2.389312176E0,2.596212626E-1,6.208776474E0,-1.674975872E0
2.391565899E0,1.728814393E-1,6.048457623E0,-2.317448616E0
2.393819196E0,1.034895778E-1,5.940182209E0,-2.724826813E0
2.396072981E0,-4.785645287E-3,5.821737289E0,-2.922234535E0
2.398325666E0,-8.554340899E-2,5.836094379E0,-2.931805849E0
2.400579755E0,-1.860419661E-1,5.801996708E0,-2.769692183E0
2.402831525E0,-2.494517565E-1,5.815755367E0,-2.497508526E0
2.405084880E0,-3.128615618E-1,5.791228771E0,-2.124826431E0
2.407337749E0,-3.625126183E-1,5.766702652E0,-1.752144337E0
2.409591228E0,-4.121637046E-1,5.746961594E0,-1.393819213E0
2.411841046E0,-4.618147612E-1,5.722435474E0,-1.064207911E0
2.414084026E0,-4.013960063E-1,5.912066460E0,-7.896314859E-1
2.416347210E0,-3.451646566E-1,6.040680885E0,-6.119644046E-1
2.418591716E0,-3.182454109E-1,6.073582172E0,-4.103690982E-1
2.420860454E0,-3.236292601E-1,6.096911907E0,-2.045863420E-1
2.423110394E0,-3.296113312E-1,6.110671043E0,-2.811566554E-2
2.425366558E0,-3.493520916E-1,6.101099491E0,5.324030295E-2
2.427616864E0,-4.067798555E-1,6.148357868E0,1.728814393E-1
2.429866498E0,-3.876372576E-1,6.253043652E0,1.591227055E-1
2.432109844E0,-4.444667995E-1,6.382256031E0,1.028913707E-1
2.434373454E0,-4.582255483E-1,6.501298904E0,7.776673418E-3
2.436617838E0,-5.533402562E-1,6.630511761E0,-7.776673883E-2
2.438885783E0,-6.915257573E-1,6.797410965E0,-3.469592705E-2
2.441132427E0,-8.243274093E-1,6.888338089E0,-1.106680483E-1
2.443379069E0,-8.745766878E-1,7.032505512E0,-4.307080805E-1
2.445642252E0,-9.110672474E-1,7.156932354E0,-7.597211599E-1
2.447891948E0,-9.571290612E-1,7.305287361E0,-1.012762189E0
2.450138469E0,-1.032503009E0,7.392027378E0,-1.237089276E0
2.452401287E0,-1.069591761E0,7.535596848E0,-1.399203062E0
2.454655986E0,-1.087537885E0,7.588238716E0,-1.604387641E0
2.456908366E0,-1.077368379E0,7.688737392E0,-1.713859200E0
2.459149149E0,-1.095912814E0,7.779664516E0,-1.765903115E0
2.461413737E0,-1.105484009E0,7.789236069E0,-1.794616938E0
2.463667643E0,-1.109671474E0,7.755736351E0,-1.880758643E0
2.465924112E0,-1.142572761E0,7.670193195E0,-2.005783558E0
2.468175150E0,-1.208375454E0,7.551748276E0,-2.107478619E0
2.470427714E0,-1.274178028E0,7.427919865E0,-2.170888424E0
2.472681436E0,-1.240678549E0,7.280162811E0,-2.224128723E0
2.474930216E0,-1.278365493E0,7.146762848E0,-2.263610125E0
2.477176248E0,-1.283151150E0,7.066005230E0,-2.264208317E0
2.479439066E0,-1.259222865E0,6.979863644E0,-2.249851465E0
2.481693156E0,-1.273579836E0,6.917650223E0,-2.202593327E0
2.483948771E0,-1.197607756E0,6.865606308E0,-2.188236237E0
2.486199502E0,-1.107278705E0,6.798607349E0,-2.207378864E0
2.488452860E0,-1.069591761E0,6.736393929E0,-2.179263115E0
2.490706949E0,-1.064207911E0,6.646064758E0,-2.256431818E0
2.492958903E0,-1.058824062E0,6.517450809E0,-2.395813704E0
2.495212015E0,-1.063011408E0,6.407979012E0,-2.458625317E0
2.497464638E0,-1.052842021E0,6.293721676E0,-2.531008244E0
2.499718178E0,-1.042672515E0,6.160920143E0,-2.608176708E0
2.501971657E0,-1.057029366E0,6.008377552E0,-2.585444927E0
2.504225198E0,-1.161715388E0,5.879165173E0,-2.533999205E0
2.506478799E0,-1.252642632E0,5.803193092E0,-2.477767944E0
2.508732400E0,-1.290329576E0,5.769693375E0,-2.478366137E0
2.510984353E0,-1.290329576E0,5.703292847E0,-2.468794823E0
2.513236794E0,-1.305284739E0,5.617151260E0,-2.373680115E0
2.515490151E0,-1.376471281E0,5.474180222E0,-2.332403898E0
2.517744057E0,-1.481755376E0,5.392824173E0,-2.242074728E0
2.519997415E0,-1.576870084E0,5.245665550E0,-2.276770830E0
2.522250528E0,-1.695314884E0,5.164309502E0,-2.244467735E0
2.524503824E0,-1.785643935E0,5.174479008E0,-2.245065928E0
2.526757729E0,-1.899901152E0,5.179264545E0,-2.292922258E0
2.529009986E0,-1.960918188E0,5.136792183E0,-2.360519648E0
2.531263221E0,-1.969891191E0,5.132006168E0,-2.465803623E0
2.533515541E0,-2.069193363E0,5.151747227E0,-2.566900492E0
2.535769448E0,-2.216351986E0,5.209175110E0,-2.638685226E0
2.538021889E0,-2.358724833E0,5.290530682E0,-2.681756020E0
2.540273292E0,-2.463410854E0,5.433502197E0,-2.752942562E0
2.542529518E0,-2.605185747E0,5.557928562E0,-2.858226538E0
2.544783424E0,-2.709273338E0,5.744568825E0,-2.971885681E0
2.547036110E0,-2.756531715E0,5.973681927E0,-3.056830883E0
2.549287879E0,-2.784647465E0,6.221937180E0,-3.165704250E0
2.551541175E0,-2.656631231E0,6.574280262E0,-3.157927752E0
2.553795020E0,-2.495713949E0,6.940980434E0,-3.116651535E0
2.556048134E0,-2.310270309E0,7.326822758E0,-3.069991350E0
2.558301125E0,-2.149353027E0,7.679165840E0,-3.043072224E0
2.560554115E0,-2.054238319E0,7.993822098E0,-3.059821844E0
2.562808814E0,-1.987239242E0,8.289336205E0,-3.143570662E0
2.565061011E0,-1.963310957E0,8.523234367E0,-3.270988464E0
2.567314245E0,-1.948355794E0,8.699705124E0,-3.351148129E0
2.569566809E0,-1.991426587E0,8.924032211E0,-3.397808075E0
2.571820471E0,-2.019542217E0,9.081359863E0,-3.430709362E0
2.574073523E0,-2.047657967E0,9.296115875E0,-3.515056372E0
2.576323157E0,-2.105085611E0,9.453444481E0,-3.547957659E0
2.578567237E0,-2.142772675E0,9.629914284E0,-3.613760471E0
2.580833899E0,-2.218744755E0,9.778269768E0,-3.684946775E0
2.583086463E0,-2.289333105E0,9.935597420E0,-3.741776466E0
2.585342749E0,-2.346162558E0,1.013599682E1,-3.841078520E0
2.587592505E0,-2.412563324E0,1.037468052E1,-3.926023722E0
2.589842750E0,-2.478964329E0,1.063250732E1,-3.967299938E0
2.592086583E0,-2.545365095E0,1.088973618E1,-3.994817495E0
2.594352208E0,-2.626122952E0,1.113799095E1,-4.074976921E0
2.596602331E0,-2.687737942E0,1.143410301E1,-4.140181541E0
2.598846289E0,-2.763710260E0,1.175354481E1,-4.191029072E0
2.601099097E0,-2.816352367E0,1.207298660E1,-4.203591347E0
2.603365149E0,-2.811566591E0,1.254497051E1,-4.229313850E0
2.605621191E0,-2.811566591E0,1.291226959E1,-4.298706055E0
2.607874731E0,-2.864806890E0,1.302174091E1,-4.178466320E0
2.610125219E0,-3.035295486E0,1.296012592E1,-4.217947960E0
2.612376805E0,-3.114856958E0,1.292243862E1,-4.443471432E0
2.614618016E0,-3.153141975E0,1.287458229E1,-4.433900356E0
2.616884863E0,-3.348755360E0,1.266461182E1,-4.225724697E0
2.619136511E0,-3.325425386E0,1.230688477E1,-4.185046673E0
2.621393589E0,-3.210569859E0,1.176850033E1,-4.168895245E0
2.623643528E0,-3.147160053E0,1.132822037E1,-3.621536970E0
2.625896885E0,-2.984447956E0,1.108295631E1,-2.852244616E0
2.628150853E0,-2.940180779E0,1.073838997E1,-2.280359983E0
2.630407017E0,-2.933600664E0,1.058465099E1,-1.712064624E0
2.632656102E0,-2.906083107E0,1.041715336E1,-1.473978758E0
2.634910374E0,-2.849851847E0,1.061216831E1,-1.396211982E0
2.637161778E0,-2.782852650E0,1.107936668E1,-1.469193101E0
2.639416051E0,-2.627917528E0,1.176730347E1,-2.105085611E0
2.641668919E0,-2.453241348E0,1.251266766E1,-2.831307411E0
2.643922277E0,-2.236690998E0,1.332861996E1,-3.413361549E0
2.646172460E0,-2.036292076E0,1.406261826E1,-3.627519131E0
2.648413427E0,-1.929811478E0,1.476730537E1,-3.220739365E0
2.650669041E0,-2.014756680E0,1.535175228E1,-2.547757864E0
2.652935702E0,-2.213361025E0,1.588475323E1,-1.889731646E0
2.655191135E0,-2.496312141E0,1.631785393E1,-1.496112347E0
2.657444431E0,-2.805584431E0,1.653739548E1,-1.505683661E0
2.659693820E0,-3.016152859E0,1.641057587E1,-2.081157446E0
2.661947726E0,-3.190230846E0,1.577468300E1,-3.233899832E0
2.664201144E0,-3.335594654E0,1.522014618E1,-4.328616142E0
2.666454441E0,-3.418745279E0,1.530210114E1,-4.816154003E0
2.668707737E0,-3.471985579E0,1.580758476E1,-4.727021217E0
2.670961582E0,-3.467798233E0,1.636989784E1,-4.646861553E0
2.673213657E0,-3.514458179E0,1.671326828E1,-4.831707001E0
2.675463108E0,-3.660420418E0,1.676650810E1,-5.094917774E0
2.677706272E0,-3.812364578E0,1.671924973E1,-5.129015446E0
2.679972568E0,-3.947559118E0,1.670907974E1,-4.804787636E0
2.682226902E0,-4.144967079E0,1.660858154E1,-4.385445595E0
2.684484225E0,-4.308277130E0,1.626880074E1,-3.943371773E0
2.686733249E0,-4.310071945E0,1.567717552E1,-3.646063566E0
2.688986971E0,-4.034298897E0,1.481815243E1,-3.454637766E0
2.691238863E0,-3.531806231E0,1.388734436E1,-3.075973511E0
2.693492220E0,-2.862414122E0,1.277049446E1,-2.788236618E0
2.695744845E0,-2.184048891E0,1.161476135E1,-2.401197433E0
2.697997958E0,-1.520638824E0,1.065464115E1,-1.830509305E0
2.700247957E0,-9.816554785E-1,9.775279045E0,-1.259821177E0
2.702505220E0,-5.844469070E-1,9.148957253E0,-6.981059909E-1
2.704758700E0,-3.200400174E-1,8.704490662E0,-3.266202807E-1
2.707013583E0,-9.272187948E-2,8.527421951E0,-1.836491376E-1
2.709264621E0,3.050848842E-2,8.446065903E0,-1.166501045E-1
2.711514682E0,-3.529413417E-2,8.384450912E0,-2.512463629E-1
2.713757540E0,-2.147558331E-1,8.323433876E0,-4.773681164E-1
2.716023652E0,-4.408775866E-1,8.290532112E0,-7.794619799E-1
2.718277497E0,-6.161518097E-1,8.353343964E0,-9.044869542E-1
2.720533967E0,-7.830511928E-1,8.486743927E0,-8.751748800E-1
2.722784273E0,-9.164510965E-1,8.672785759E0,-7.932206988E-1
2.725037996E0,-1.017547846E0,8.930013657E0,-6.628118753E-1
2.727290194E0,-1.070189953E0,9.182456970E0,-6.041877270E-1
2.729540011E0,-1.150947690E0,9.449854851E0,-5.934200287E-1
2.731782869E0,-1.194018483E0,9.740582466E0,-5.916253924E-1
2.734049714E0,-1.265803218E0,9.993025780E0,-5.760720372E-1
2.736302827E0,-1.351944804E0,1.025085258E1,-5.312066078E-1
2.738559114E0,-1.471585870E0,1.056012440E1,-4.055834413E-1
2.740809298E0,-1.605584025E0,1.079821014E1,-2.279163599E-1
2.743063630E0,-1.716252089E0,1.097946644E1,-8.374879509E-2
2.745312410E0,-1.740778446E0,1.121276665E1,5.204389244E-2
2.747556611E0,-1.741974831E0,1.146520996E1,2.015953064E-1
2.749824555E0,-1.709073544E0,1.166979599E1,3.086741269E-1
2.752075166E0,-1.657627940E0,1.183131123E1,4.151547253E-1
2.754332062E0,-1.620539188E0,1.199282742E1,5.934200287E-1
2.756581940E0,-1.512263894E0,1.215912819E1,7.477570772E-1
2.758834809E0,-1.413560033E0,1.233500099E1,8.931210637E-1
2.761088471E0,-1.319043517E0,1.246840096E1,1.042672515E0
2.763340668E0,-1.272383451E0,1.257727432E1,1.182054400E0
2.765594148E0,-1.201795220E0,1.260538960E1,1.264008522E0
2.767847138E0,-1.131206870E0,1.268136215E1,1.412961721E0
2.770100494E0,-1.117448211E0,1.263350582E1,1.494317770E0
2.772353729E0,-1.089930773E0,1.262333584E1,1.656431437E0
2.774605866E0,-1.104885817E0,1.258505058E1,1.814357758E0
2.776852143E0,-1.195813060E0,1.246062374E1,2.014158487E0
2.779101227E0,-1.310668588E0,1.230808163E1,2.155933142E0
2.781366364E0,-1.425524116E0,1.211246777E1,2.307279348E0
2.783621063E0,-1.539781332E0,1.179781246E1,2.390429735E0
2.785876006E0,-1.663609982E0,1.150708389E1,2.455035925E0
2.788124969E0,-1.834696770E0,1.120738316E1,2.457428932E0
2.790374419E0,-1.929213285E0,1.078804111E1,2.416152716E0
2.792632354E0,-2.128415823E0,1.034058285E1,2.330609322E0
2.794885284E0,-2.283949137E0,9.911669731E0,2.212762833E0
2.797140533E0,-2.444866419E0,9.459425926E0,2.060818434E0
2.799391997E0,-2.576471806E0,9.069396019E0,1.856830359E0
2.801645355E0,-2.656033039E0,8.750552177E0,1.658226132E0
2.803898467E0,-2.735594511E0,8.431708336E0,1.483550072E0
2.806151520E0,-2.781656265E0,8.141578674E0,1.271187067E0
2.808404692E0,-2.794816732E0,7.875377655E0,1.034895778E0
2.810657682E0,-2.779263496E0,7.651648521E0,8.327022791E-1
2.812910673E0,-2.768495798E0,7.466204643E0,6.017948985E-1
2.815164701E0,-2.738585472E0,7.314260483E0,4.097708762E-1
2.817417388E0,-2.642274380E0,7.152745247E0,2.129612118E-1
2.819670684E0,-2.593819857E0,7.033702374E0,7.357929647E-2
2.821923613E0,-2.511865616E0,6.938587666E0,-7.956135273E-2
2.824176969E0,-2.449652195E0,6.848258495E0,-1.615155339E-1
2.826430632E0,-2.378465652E0,6.752545357E0,-1.710868180E-1
2.828683257E0,-2.335394859E0,6.657430649E0,-1.860419661E-1
2.830931731E0,-2.264208317E0,6.600003242E0,-1.668993831E-1
2.833190214E0,-2.221735716E0,6.542575359E0,-1.190429255E-1
2.835442289E0,-2.188236237E0,6.547360897E0,-1.046859920E-1
2.837697478E0,-2.207977057E0,6.523432732E0,-2.333002165E-2
2.839949246E0,-2.170290232E0,6.527620316E0,4.845465720E-2
2.842202665E0,-2.156531334E0,6.589235306E0,1.447657645E-1
2.844455716E0,-2.146960020E0,6.603592396E0,1.734796464E-1
2.846709623E0,-2.138585329E0,6.636493683E0,2.835494876E-1
2.848965177E0,-2.100898266E0,6.660421848E0,3.559323549E-1
2.851215970E0,-2.062613010E0,6.708278179E0,3.463610709E-1
2.853468411E0,-2.024926186E0,6.812964439E0,4.049852192E-1
2.855720853E0,-2.001596212E0,6.855436802E0,4.336991012E-1
2.857975736E0,-1.930409670E0,6.945765972E0,4.588237405E-1
2.860232572E0,-1.835294962E0,6.988836765E0,4.833501875E-1
2.862481169E0,-1.697707653E0,7.069594383E0,4.654040039E-1
2.864734525E0,-1.487737536E0,7.155138016E0,3.469592929E-1
2.866986600E0,-1.306481123E0,7.288537979E0,2.673979402E-1
2.869241910E0,-1.192223907E0,7.379465103E0,1.872383654E-1
2.871494045E0,-1.034297585E0,7.488936901E0,3.110669367E-2
2.873747097E0,-9.050851464E-1,7.532007694E0,-2.027917206E-1
2.875996120E0,-8.087740541E-1,7.479963779E0,-3.846462369E-1
2.878240261E0,-7.172485590E-1,7.466204643E0,-6.233302951E-1
2.880506252E0,-6.448656917E-1,7.505088329E0,-8.428717852E-1
2.882760037E0,-5.437689424E-1,7.572087288E0,-1.009172916E0
2.885016446E0,-4.145565331E-1,7.686344624E0,-1.175474167E0
2.887267545E0,-2.859423161E-1,7.738986492E0,-1.246062398E0
2.889519193E0,-1.579262912E-1,7.771887779E0,-1.245464206E0
2.891772671E0,-1.016949583E-2,7.767102242E0,-1.225723386E0
2.894025356E0,1.124626622E-1,7.823333740E0,-1.043270707E0
2.896275234E0,2.111666054E-1,7.803592682E0,-8.273184299E-1
2.898519191E0,3.092723191E-1,7.755138397E0,-5.593222976E-1
2.900783230E0,3.373879790E-1,7.640881062E0,-4.313062727E-1
2.903026638E0,2.991028428E-1,7.621738434E0,-3.690928817E-1
2.905295924E0,2.356930375E-1,7.539783955E0,-1.692921966E-1
2.907544581E0,1.441675574E-1,7.434499741E0,1.070788130E-1
2.909798244E0,6.640082598E-2,7.295716286E0,4.360919297E-1
2.912039577E0,-7.716853172E-2,7.090531826E0,6.155536175E-1
2.914303737E0,-2.255235314E-1,6.975676060E0,8.297112584E-1
2.916557032E0,-3.840480447E-1,6.780063152E0,1.100100160E0
2.918813502E0,-5.276173949E-1,6.579664230E0,1.337587833E0
2.921064296E0,-6.705885530E-1,6.427121639E0,1.469791293E0
2.923318447E0,-8.183453679E-1,6.293721676E0,1.468594909E0
2.925570522E0,-9.140582681E-1,6.174080849E0,1.667797327E0
2.927823696E0,-1.000798106E0,6.044867992E0,1.881955028E0
2.930076381E0,-1.054038405E0,5.949155331E0,2.020140409E0
2.932329249E0,-1.097109199E0,5.863611698E0,2.066800594E0
2.934583093E0,-1.130608678E0,5.849255085E0,2.167299032E0
2.936835962E0,-1.178465128E0,5.801398277E0,2.219342947E0
2.939089442E0,-1.207179070E0,5.830112457E0,2.209771633E0
2.941343653E0,-1.240080357E0,5.873183250E0,2.114058733E0
2.943595912E0,-1.206580877E0,5.897111416E0,2.124228239E0
2.945849024E0,-1.197009563E0,5.873183250E0,2.152942181E0
2.948100428E0,-1.188036442E0,5.892325878E0,2.176870346E0
2.950351099E0,-1.188036442E0,5.949155331E0,2.215155602E0
2.952607996E0,-1.183848977E0,6.020341873E0,2.244467735E0
2.954861598E0,-1.131206870E0,6.034698486E0,2.230708838E0
2.957116053E0,-1.102493048E0,6.034698486E0,2.158924341E0
2.959368677E0,-1.059422255E0,6.106483459E0,2.149951220E0
2.961621301E0,-1.030110121E0,6.149554253E0,2.026122570E0
2.963874413E0,-1.044467092E0,6.240481377E0,1.964507341E0
2.966127526E0,-1.058225870E0,6.168696880E0,1.935195327E0
2.968381006E0,-1.100698471E0,6.145366669E0,1.901097536E0
2.970634241E0,-1.124626637E0,6.126224041E0,1.891526341E0
2.972888390E0,-1.186840057E0,6.116652966E0,1.934597135E0
2.975137475E0,-1.210768223E0,6.187839508E0,1.982453585E0
2.977381432E0,-1.225125194E0,6.273981094E0,2.011765718E0
2.979646142E0,-1.210768223E0,6.340381622E0,1.964507341E0
2.981899988E0,-1.182054400E0,6.364310265E0,1.907079697E0
2.984156030E0,-1.162911773E0,6.431309223E0,1.907677889E0
2.986406518E0,-1.186840057E0,6.412166595E0,1.936391711E0
2.988659569E0,-1.210768223E0,6.436094761E0,1.922034740E0
2.990912804E0,-1.209571838E0,6.441478729E0,1.759322882E0
2.993163171E0,-1.214955688E0,6.531807423E0,1.846062660E0
2.995408105E0,-1.207179070E0,6.564110756E0,2.123630047E0
2.997672265E0,-1.218544960E0,6.644270420E0,2.520838737E0
2.999925438E0,-1.238883972E0,6.677171707E0,2.760120869E0
3.002181358E0,-1.329213023E0,6.763313293E0,2.669791937E0
3.004431785E0,-1.435693622E0,6.826723099E0,2.176870346E0
3.006684959E0,-1.513460279E0,6.985845566E0,1.565504193E0
3.008938134E0,-1.524227977E0,7.082156658E0,9.684949517E-1
3.011188317E0,-1.551745534E0,7.244868755E0,7.058826685E-1
3.013432396E0,-1.541576028E0,7.402196884E0,6.496513486E-1
3.015697166E0,-1.524227977E0,7.645068169E0,9.146564603E-1
3.017950767E0,-1.516451359E0,7.834699631E0,1.217348576E0
3.020206749E0,-1.551745534E0,7.981858253E0,1.576870084E0
3.022457360E0,-1.572084427E0,8.110472679E0,1.716252089E0
3.024710656E0,-1.626521230E0,8.261817932E0,2.070987940E0
3.026963828E0,-1.728216171E0,8.452047348E0,2.449652195E0
3.029216025E0,-1.849053741E0,8.618349075E0,2.765504837E0
3.031467124E0,-1.974676847E0,8.779266357E0,3.110669374E0
3.033723044E0,-2.079961061E0,8.936594009E0,3.192623615E0
3.035976524E0,-2.215753794E0,9.119047165E0,2.805584431E0
3.038230308E0,-2.340778828E0,9.259027481E0,2.251047850E0
3.040482626E0,-2.471187592E0,9.346364975E0,1.682154298E0
3.042736228E0,-2.549552441E0,9.447462082E0,1.218544960E0
3.044987205E0,-2.638685226E0,9.610174179E0,9.942178130E-1
3.047230796E0,-2.633899450E0,9.724431038E0,9.427721500E-1
3.049492698E0,-2.643470764E0,9.810572624E0,1.028913736E0
3.051735190E0,-2.672184706E0,9.819545746E0,1.052842021E0
3.054001242E0,-2.711068153E0,9.824331284E0,1.119840980E0
3.056241721E0,-2.825923443E0,9.762118340E0,1.281356573E0
3.058511434E0,-2.941377163E0,9.652048111E0,1.519442320E0
3.060761191E0,-3.055634499E0,9.485149384E0,1.656431437E0
3.063017843E0,-3.189034462E0,9.308678627E0,1.731207132E0
3.065268027E0,-3.302693367E0,9.166305542E0,1.634297848E0
3.067522238E0,-3.368496180E0,9.043074608E0,1.470389485E0
3.069774313E0,-3.452843189E0,8.928817749E0,1.335793257E0
3.072027242E0,-3.542573929E0,8.805587769E0,1.186241865E0
3.074279928E0,-3.598805189E0,8.758329391E0,1.094716311E0
3.076532735E0,-3.627519131E0,8.739186287E0,1.094716311E0
3.078786582E0,-3.665804386E0,8.763114929E0,1.109073281E0
3.081040244E0,-3.713062525E0,8.772686005E0,1.065404296E0
3.083293845E0,-3.736392498E0,8.820542336E0,1.046859860E0
3.085547628E0,-3.755535126E0,8.873184204E0,9.702895880E-1
3.087799703E0,-3.830909014E0,8.944969177E0,8.751748800E-1
3.090052876E0,-3.878765583E0,9.049654961E0,8.751748800E-1
3.092305806E0,-3.940979004E0,9.173483849E0,9.332008362E-1
3.094559102E0,-3.945166349E0,9.293125153E0,9.056833982E-1
3.096810933E0,-3.897907972E0,9.421739578E0,8.775677085E-1
3.099061665E0,-3.873979807E0,9.521639824E0,8.596215248E-1
3.101319051E0,-3.931407690E0,9.617352486E0,8.979067206E-1
3.103573263E0,-3.998406649E0,9.740582466E0,9.990034699E-1
3.105826070E0,-4.027718544E0,9.826724052E0,1.061815023E0
3.108077352E0,-4.055834293E0,9.912267685E0,1.047458172E0
3.110327351E0,-4.079762459E0,1.001276588E1,9.906286001E-1
3.112584065E0,-4.055834293E0,1.013659477E1,9.583254457E-1
3.114837850E0,-4.051048756E0,1.025563812E1,9.397810698E-1
3.117093160E0,-3.808177233E0,1.038425159E1,8.656035662E-1
3.119344808E0,-3.859622955E0,1.044227791E1,7.363911867E-1
3.121598590E0,-3.906881094E0,1.049910736E1,6.741777658E-1
3.123850177E0,-3.939782381E0,1.054696369E1,6.364908218E-1
3.126103595E0,-3.945166349E0,1.057089233E1,6.699903607E-1
3.128356586E0,-3.940380573E0,1.062831974E1,6.508477330E-1
3.130610188E0,-3.902095556E0,1.065703392E1,6.562315822E-1
3.132862935E0,-3.855435371E0,1.069950676E1,7.621139884E-1
3.135116414E0,-3.812364578E0,1.074197865E1,7.531409264E-1
3.137369954E0,-3.783650875E0,1.073240757E1,7.339983582E-1
3.139623737E0,-3.764508247E0,1.072821999E1,6.717849374E-1
3.141875934E0,-3.711866140E0,1.074736309E1,5.952146053E-1
3.144129291E0,-3.688536167E0,1.071386337E1,6.622136831E-1
3.146378925E0,-3.659822226E0,1.071326542E1,6.957131624E-1
3.148620869E0,-3.631706476E0,1.070847988E1,7.010970116E-1
3.150883135E0,-3.602992773E0,1.068455124E1,7.052844763E-1
3.153138507E0,-3.545564890E0,1.069890785E1,6.915257573E-1
3.155382648E0,-3.464807272E0,1.065105152E1,6.580262184E-1
3.157634722E0,-3.373879910E0,1.069412231E1,5.485545993E-1
3.159885211E0,-3.291925669E0,1.071386337E1,3.337987661E-1
3.162141985E0,-3.206382275E0,1.074197865E1,3.870390654E-1
3.164394610E0,-3.120838881E0,1.081854916E1,3.547359705E-1
3.166648212E0,-3.082553864E0,1.084726334E1,3.164508045E-1
3.168904681E0,-3.020938635E0,1.086161995E1,2.739782035E-1
3.171170611E0,-2.959323406E0,1.087059307E1,3.984049559E-1
3.173423968E0,-2.899502754E0,1.090768242E1,7.387840152E-1
3.175677569E0,-2.859423161E0,1.101595688E1,1.179661512E0
3.177926592E0,-2.740978241E0,1.104467106E1,1.299900889E0
3.180179888E0,-2.575873613E0,1.110568810E1,1.506880045E0
3.182433366E0,-2.382055044E0,1.122891808E1,1.713859200E0
3.184686785E0,-2.282752752E0,1.138564873E1,1.743769526E0
3.186940203E0,-2.239083767E0,1.149093246E1,1.625324726E0
3.189190691E0,-2.257628202E0,1.161535931E1,1.530210137E0
3.191430010E0,-2.389831543E0,1.168714428E1,1.353141189E0
3.193684221E0,-2.523829699E0,1.180140114E1,1.496710539E0
3.195939592E0,-2.672782898E0,1.192044449E1,1.683948994E0
3.198209001E0,-2.845066071E0,1.212024498E1,1.956730723E0
3.200461809E0,-3.107678413E0,1.217288685E1,2.104487419E0
3.202714983E0,-3.317648649E0,1.231107235E1,2.262413740E0
3.204965227E0,-3.457030535E0,1.254856014E1,2.526222467E0
3.207218400E0,-3.629313707E0,1.268674564E1,2.669791937E0
3.209469499E0,-3.802195072E0,1.282014561E1,2.952144861E0
3.211716081E0,-3.879961967E0,1.298106289E1,3.268595695E0
3.213977373E0,-3.953541279E0,1.323290730E1,3.647858143E0
3.216230913E0,-4.060021877E0,1.337528038E1,3.973282099E0
3.218486589E0,-4.162314892E0,1.351286793E1,4.361517429E0
3.220737381E0,-4.274179459E0,1.379821205E1,4.860421181E0
3.222990982E0,-4.371088982E0,1.407398415E1,5.062614441E0
3.225244034E0,-4.574478626E0,1.413201046E1,4.951946259E0
3.227497575E0,-4.706682205E0,1.432822227E1,4.770689964E0
3.229751175E0,-4.759324074E0,1.463809299E1,4.724628448E0
3.232002762E0,-4.791627407E0,1.484327698E1,4.525425911E0
3.234256424E0,-4.776672363E0,1.498206043E1,4.425525665E0
3.236509354E0,-4.629513741E0,1.513400459E1,4.475176334E0
3.238763017E0,-4.483551502E0,1.532902050E1,4.630111694E0
3.241016252E0,-4.308277130E0,1.549053574E1,4.737190723E0
3.243269243E0,-4.094119549E0,1.550010681E1,4.680959225E0
3.245522843E0,-3.798605919E0,1.554736519E1,4.619942188E0
3.247775650E0,-3.518645763E0,1.561376572E1,4.645665169E0
3.250025466E0,-3.171686411E0,1.559881115E1,4.699503899E0
3.252281692E0,-2.810370207E0,1.569332695E1,4.735395908E0
3.254535354E0,-2.411366940E0,1.571665764E1,4.741976261E0
3.256787430E0,-1.997408748E0,1.568255997E1,4.704887390E0
3.259034378E0,-1.526620865E0,1.577707577E1,4.707878590E0
3.261295547E0,-1.122832060E0,1.568136311E1,4.723432064E0
3.263548538E0,-8.231309652E-1,1.546182156E1,4.732405186E0
3.265804276E0,-6.000002623E-1,1.511785316E1,4.793421745E0
3.268053177E0,-5.048855543E-1,1.474098396E1,4.901697159E0
3.270303542E0,-4.869394004E-1,1.433540058E1,5.080560684E0
3.272560317E0,-5.778666735E-1,1.392503166E1,5.268995285E0
3.274810379E0,-6.783652306E-1,1.352423382E1,5.457430363E0
3.277054946E0,-7.788637877E-1,1.318086338E1,5.617151260E0
3.279319717E0,-9.074779749E-1,1.286142159E1,5.709873199E0
3.281573745E0,-9.888339639E-1,1.261376476E1,5.760720730E0
3.283831007E0,-1.045663476E0,1.241336536E1,5.749952793E0
3.286079908E0,-1.025922656E0,1.226620674E1,5.686542988E0
3.288333265E0,-9.966106415E-1,1.214237881E1,5.575874805E0
3.290586317E0,-9.008977413E-1,1.208016491E1,5.465805054E0
3.292837172E0,-8.099704385E-1,1.198983574E1,5.327021599E0
3.295083144E0,-6.711867452E-1,1.196172047E1,5.217549801E0
3.297345779E0,-5.611169338E-1,1.193300629E1,5.064409256E0
3.299599258E0,-4.079762697E-1,1.189053345E1,4.854438782E0
3.301855483E0,-2.590230405E-1,1.185763264E1,4.634897232E0
3.304105116E0,-8.195417374E-2,1.180080318E1,4.362713814E0
3.306358534E0,7.597211748E-2,1.176730347E1,4.195814610E0
3.308611463E0,1.292124242E-1,1.167697430E1,4.070789337E0
3.310861647E0,2.057827413E-1,1.154357433E1,4.003790379E0
3.313104749E0,3.738785386E-1,1.144905853E1,3.697509289E0
3.315370740E0,5.126622319E-1,1.143470097E1,3.477967739E0
3.317624647E0,6.370890141E-1,1.138265705E1,3.320639610E0
3.319881849E0,7.525427341E-1,1.131147099E1,3.172284603E0
3.322130873E0,8.440681696E-1,1.123549843E1,2.952144861E0
3.324383986E0,9.110672474E-1,1.113081264E1,2.831905603E0
3.326637098E0,9.684949517E-1,1.105424213E1,2.774477959E0
3.328890149E0,9.637092948E-1,1.093519974E1,2.793022156E0
3.331143263E0,1.026520967E0,1.086401272E1,2.615355253E0
3.333394728E0,1.070189953E0,1.079282665E1,2.510071039E0
3.335634657E0,1.098903775E0,1.075932693E1,2.481357098E0
3.337888257E0,1.098305583E0,1.070668507E1,2.533401012E0
3.340140148E0,1.064806104E0,1.063071251E1,2.595016241E0
3.342399487E0,1.016949654E0,1.052064323E1,2.679961443E0
3.344665783E0,9.499505758E-1,1.043988514E1,2.755933523E0
3.346916027E0,8.542376757E-1,1.034895802E1,2.874378204E0
3.349159069E0,7.112665176E-1,1.020120144E1,3.006581545E0
3.351421703E0,6.209374666E-1,1.004865837E1,2.976671457E0
3.353675427E0,4.929214716E-1,9.972686768E0,2.918047190E0
3.355933117E0,3.936193287E-1,9.882357597E0,2.903092146E0
3.358181775E0,2.650051117E-1,9.787242889E0,2.911466837E0
3.360434522E0,1.178465188E-1,9.687342644E0,2.910270452E0
3.362687817E0,-1.016949583E-2,9.606584549E0,2.851646423E0
3.364941297E0,-1.094716340E-1,9.583254814E0,2.712264538E0
3.367194592E0,-2.608176768E-1,9.545567513E0,2.568096876E0
3.369447642E0,-3.637090325E-1,9.584450722E0,2.333600283E0
3.371701122E0,-4.582255483E-1,9.628120422E0,2.190030813E0
3.373955028E0,-5.670989752E-1,9.675976753E0,2.046461582E0
3.376205882E0,-6.903293133E-1,9.738189697E0,2.021935225E0
3.378458141E0,-7.992027402E-1,9.791430473E0,1.887937069E0
3.380713207E0,-8.937192559E-1,9.824930191E0,1.820937991E0
3.382966869E0,-9.595218897E-1,9.849455833E0,1.624726534E0
3.385220409E0,-1.000798106E0,9.892526627E0,1.438086390E0
3.387473033E0,-1.009172916E0,9.893125534E0,1.175474167E0
3.389726513E0,-9.978070259E-1,9.894321442E0,8.691928387E-1
3.391980663E0,-1.001396298E0,9.890133858E0,6.538388133E-1
3.394232738E0,-9.960124493E-1,9.890133858E0,4.815555513E-1
3.396485545E0,-9.469595551E-1,9.842875481E0,2.901297510E-1
3.398738902E0,-9.463613629E-1,9.786046028E0,1.752742529E-1
3.400992319E0,-9.409775138E-1,9.671789169E0,1.028913707E-1
3.403245860E0,-9.409775138E-1,9.581459999E0,3.529413417E-2
3.405499644E0,-9.601200819E-1,9.448060036E0,6.281159073E-2
3.407752086E0,-9.930213690E-1,9.343374252E0,6.699903309E-2
3.410002696E0,-1.021735311E0,9.223732948E0,7.537391037E-2
3.412244639E0,-1.079162955E0,9.109476089E0,1.752742529E-1
3.414510874E0,-1.117448211E0,8.933005333E0,2.644068897E-1
3.416764292E0,-1.179661512E0,8.770891190E0,3.110669553E-1
3.419020945E0,-1.213161111E0,8.580063820E0,3.672982752E-1
3.421270761E0,-1.231705427E0,8.394021988E0,3.708875179E-1
3.423524057E0,-1.265803218E0,8.279764175E0,4.510470629E-1
3.425777537E0,-1.289731383E0,8.141578674E0,4.929214716E-1
3.428030711E0,-1.323230863E0,8.017151833E0,5.784648657E-1
3.430279551E0,-1.333400369E0,7.935796261E0,6.783652306E-1
3.432536202E0,-1.343569875E0,7.916653633E0,8.500502706E-1
3.434789437E0,-1.344168067E0,7.849654675E0,9.882357717E-1
3.437044382E0,-1.344766378E0,7.787441254E0,1.116850019E0
3.439296701E0,-1.316650629E0,7.720442295E0,1.169492126E0
3.441549814E0,-1.274776220E0,7.624729156E0,1.322034478E0
3.443803109E0,-1.237687469E0,7.576274872E0,1.494317770E0
3.446056832E0,-1.167099237E0,7.552346706E0,1.637887120E0
3.448308358E0,-1.067198873E0,7.451848030E0,1.704287887E0
3.450561898E0,-9.720842242E-1,7.375277519E0,1.670788407E0
3.452815316E0,-8.817551732E-1,7.313662529E0,1.618146300E0
3.455068979E0,-8.237292171E-1,7.241877556E0,1.527219057E0
3.457322153E0,-7.423732281E-1,7.151548862E0,1.421336651E0
3.459574595E0,-7.082754970E-1,7.085147858E0,1.316052437E0
3.461828562E0,-6.173482537E-1,7.094718933E0,1.182652593E0
3.464082588E0,-5.222335458E-1,7.075576782E0,1.149153113E0
3.466334724E0,-4.600201547E-1,7.094718933E0,1.125823021E0
3.468586556E0,-4.025924206E-1,7.070790768E0,1.030110121E0
3.470835762E0,-3.834498227E-1,7.009175777E0,9.583254457E-1
3.473090890E0,-3.254238665E-1,6.966702938E0,8.243274093E-1
3.475334542E0,-2.434697002E-1,6.966702938E0,6.424728632E-1
3.477599190E0,-1.477568001E-1,6.938587666E0,4.707878530E-1
3.479838021E0,-5.563312769E-2,6.896114826E0,2.410768867E-1
3.482096077E0,2.632104978E-2,6.867999077E0,3.589234129E-2
3.484346870E0,1.082752272E-1,6.872784615E0,-1.932204217E-1
3.486616463E0,1.950150430E-1,6.835097790E0,-4.468596280E-1
3.488869271E0,2.727817893E-1,6.859624386E0,-6.951149702E-1
3.491122810E0,3.403790295E-1,6.865008354E0,-9.194421172E-1
3.493372810E0,3.990031779E-1,6.903293133E0,-1.172483087E0
3.495625373E0,4.570291340E-1,6.946962357E0,-1.377667665E0
3.497879524E0,5.054838061E-1,6.990033150E0,-1.511067510E0
3.500133186E0,5.150550604E-1,7.037889481E0,-1.634896040E0
3.502385810E0,5.539384484E-1,7.085746288E0,-1.749153376E0
3.504638800E0,5.353940725E-1,7.119245529E0,-1.811366796E0
3.506891791E0,5.114658475E-1,7.167101860E0,-1.825723648E0
3.509145087E0,4.689932466E-1,7.195816040E0,-1.840080619E0
3.511395088E0,3.696911037E-1,7.220342159E0,-2.017149448E0
3.513639534E0,2.949153781E-1,7.220940590E0,-2.222932339E0
3.515904976E0,1.579262912E-1,7.178467751E0,-2.338385820E0
3.518159125E0,-2.751746029E-2,7.131209850E0,-2.349153519E0
3.520414008E0,-1.902294010E-1,7.140182972E0,-2.187039852E0
3.522664191E0,-3.720839322E-1,7.144968510E0,-1.934597135E0
3.524917120E0,-5.641079545E-1,7.134799004E0,-1.600798368E0
3.527170783E0,-7.142575383E-1,7.176673412E0,-1.137188911E0
3.529423590E0,-8.685946465E-1,7.180860519E0,-7.549355626E-1
3.531676397E0,-1.017547846E0,7.185048103E0,-4.354937077E-1
3.533930304E0,-1.118644595E0,7.241877556E0,-2.249253243E-1
3.536184515E0,-1.223928809E0,7.269993305E0,-9.571290761E-2
3.538436774E0,-1.286142230E0,7.274778843E0,-5.982056609E-4
3.540689643E0,-1.343569875E0,7.274778843E0,6.161518395E-2
3.542942816E0,-1.429113269E0,7.265207767E0,7.537391037E-2
3.545196295E0,-1.481755376E0,7.279564857E0,1.184447184E-1
3.547449164E0,-1.581655741E0,7.246663570E0,9.391828626E-2
3.549703497E0,-1.599601984E0,7.213762283E0,-1.674975827E-2
3.551955877E0,-1.622931957E0,7.204190731E0,-1.220339537E-1
3.554209967E0,-1.693520188E0,7.171289444E0,-2.799602449E-1
3.556458868E0,-1.744965911E0,7.124031067E0,-4.432703853E-1
3.558703496E0,-1.819741607E0,7.100701332E0,-6.448656917E-1
3.560968144E0,-1.913659930E0,7.068397999E0,-8.656035662E-1
3.563221623E0,-2.006979942E0,7.030711174E0,-1.119242787E0
3.565477910E0,-2.063211441E0,7.012166977E0,-1.287338614E0
3.567727911E0,-2.010569334E0,7.107879639E0,-1.444068432E0
3.569981390E0,-2.005185366E0,7.160521984E0,-1.568495274E0
3.572235478E0,-1.989632010E0,7.165905476E0,-1.754537225E0
3.574484380E0,-1.940579176E0,7.099504948E0,-2.012962103E0
3.576727300E0,-1.896910191E0,6.980462074E0,-2.161915302E0
3.578992986E0,-1.858624935E0,6.909275532E0,-2.210369825E0
3.581246954E0,-1.863410592E0,6.851847649E0,-2.191227436E0
3.583503667E0,-1.801795483E0,6.803991318E0,-2.181656122E0
3.585753483E0,-1.686939955E0,6.742375851E0,-2.239083767E0
3.588006107E0,-1.625324726E0,6.675376892E0,-2.267797709E0
3.590257206E0,-1.596610904E0,6.604190350E0,-2.282752752E0
3.592513066E0,-1.554138303E0,6.561119556E0,-2.244467735E0
3.594765996E0,-1.535593987E0,6.517450809E0,-2.130210400E0
3.597020085E0,-1.479362607E0,6.545566559E0,-1.957328916E0
3.599272587E0,-1.470987678E0,6.545566559E0,-1.799402595E0
3.601525821E0,-1.371087432E0,6.549753666E0,-1.741974831E0
3.603778934E0,-1.337587833E0,6.488138676E0,-1.751546144E0
3.606032352E0,-1.280758262E0,6.483353138E0,-1.789831281E0
3.608286259E0,-1.232901812E0,6.521039963E0,-1.765304923E0
3.610535161E0,-1.238285661E0,6.592226505E0,-1.692921996E0
3.612778324E0,-1.176670551E0,6.573681831E0,-1.726421595E0
3.615044071E0,-1.123430252E0,6.530611038E0,-1.869990945E0
3.617297916E0,-1.070189953E0,6.459424496E0,-1.956132531E0
3.619554508E0,-1.055832982E0,6.397809505E0,-1.999801517E0
3.621802738E0,-1.079162955E0,6.335596085E0,-2.047657967E0
3.624042850E0,-1.074377418E0,6.283552170E0,-2.120040894E0
3.626299808E0,-1.054636598E0,6.259624004E0,-2.210968018E0
3.628563418E0,-1.097109199E0,6.236293793E0,-2.263610125E0
3.630806827E0,-1.091725349E0,6.226722717E0,-2.359323025E0
3.633073306E0,-1.182652593E0,6.184250355E0,-2.321636200E0
3.635322391E0,-1.191625714E0,6.203392506E0,-2.388635159E0
3.637580142E0,-1.200598717E0,6.236892223E0,-2.508276224E0
3.639829959E0,-1.228714466E0,6.318248272E0,-2.517249346E0
3.642083560E0,-1.305284739E0,6.375077724E0,-2.522035122E0
3.644337527E0,-1.433300734E0,6.437291145E0,-2.560320139E0
3.646586184E0,-1.499701619E0,6.466603279E0,-2.584248543E0
3.648829348E0,-1.527817249E0,6.556932449E0,-2.612962246E0
3.651095033E0,-1.590030670E0,6.600003242E0,-2.574677229E0
3.653349063E0,-1.666600943E0,6.699903488E0,-2.516651154E0
3.655605715E0,-1.747358680E0,6.809374809E0,-2.492124796E0
3.657855471E0,-1.814357758E0,6.948158741E0,-2.458027124E0
3.660108828E0,-1.819741607E0,7.076773167E0,-2.419143677E0
3.662362917E0,-1.890928149E0,7.143173695E0,-2.395215511E0
3.664615115E0,-1.996212244E0,7.252645493E0,-2.304288149E0
3.666868044E0,-2.076970100E0,7.472187042E0,-2.298306227E0
3.669120973E0,-2.257628202E0,7.630113125E0,-2.374278307E0
3.671374574E0,-2.466402054E0,7.773084164E0,-2.402992249E0
3.673624269E0,-2.651845694E0,7.950153351E0,-2.464607239E0
3.675867495E0,-2.794218540E0,8.169694901E0,-2.554936409E0
3.678132693E0,-2.931207657E0,8.346763611E0,-2.726621389E0
3.680383484E0,-3.034697294E0,8.475975990E0,-2.893520832E0
3.682643860E0,-3.105285645E0,8.566903114E0,-3.074777126E0
3.684893799E0,-3.194418192E0,8.615358353E0,-3.294916868E0
3.687147828E0,-3.288336515E0,8.635098457E0,-3.495913982E0
3.689400026E0,-3.311068296E0,8.716454506E0,-3.672982693E0
3.691653505E0,-3.348755360E0,8.784051895E0,-3.820739508E0
3.693907655E0,-3.314657450E0,8.903095245E0,-3.987040758E0
3.696160097E0,-3.223132133E0,9.003593445E0,-4.134199142E0
3.698413880E0,-3.199203968E0,8.974879265E0,-4.220939159E0
3.700665345E0,-3.160320520E0,9.008976936E0,-4.335196495E0
3.702919007E0,-3.155534744E0,9.013762474E0,-4.406980991E0
3.705171937E0,-3.131606579E0,9.056833267E0,-4.449453831E0
3.707425477E0,-3.073580742E0,9.166305542E0,-4.563112736E0
3.709678406E0,-3.020938635E0,9.190233231E0,-4.634299278E0
3.711930969E0,-2.973680258E0,9.218947411E0,-4.653441906E0
3.714184998E0,-2.954537868E0,9.199805260E0,-4.677370071E0
3.716439454E0,-2.940180779E0,9.204590797E0,-4.691727161E0
3.718691956E0,-2.935993433E0,9.270991325E0,-4.600201607E0
3.720944581E0,-2.912663460E0,9.375677109E0,-4.508676052E0
3.723197632E0,-2.866003275E0,9.580264091E0,-4.368097782E0
3.725450988E0,-2.801397085E0,9.641280174E0,-4.013959885E0
3.727704284E0,-2.774477959E0,9.693324089E0,-3.754936934E0
3.729957397E0,-2.735594511E0,9.617352486E0,-3.851248026E0
3.732210816E0,-2.687139750E0,9.564710617E0,-4.013959885E0
3.734464721E0,-2.595614433E0,9.441479683E0,-4.214957237E0
3.736716918E0,-2.513660192E0,9.332008362E0,-4.387838364E0
3.738970031E0,-2.494517565E0,9.174679756E0,-4.393222332E0
3.741222778E0,-2.390429735E0,9.131608963E0,-4.345366001E0
3.743476501E0,-2.376072884E0,9.055039406E0,-4.345963955E0
3.745729674E0,-2.423929453E0,8.974281311E0,-4.293920040E0
3.747981017E0,-2.491526604E0,9.121439934E0,-4.092324734E0
3.750231872E0,-2.592623234E0,9.373882294E0,-3.851846218E0
3.752490233E0,-2.694318295E0,9.759725571E0,-3.591626883E0
3.754742309E0,-2.719442844E0,1.025503922E1,-3.464209080E0
3.756996703E0,-2.720041037E0,1.074556828E1,-3.418147087E0
3.759247923E0,-2.753540754E0,1.119362450E1,-3.352942705E0
3.761502135E0,-2.791825771E0,1.167039394E1,-3.407379389E0
3.763755248E0,-2.781656265E0,1.213340569E1,-3.619742393E0
3.766006286E0,-2.733799934E0,1.277228928E1,-3.720241070E0
3.768245361E0,-2.777468920E0,1.349193001E1,-3.610769272E0
3.770499511E0,-2.931805849E0,1.424925900E1,-3.290729284E0
3.772755126E0,-2.991626501E0,1.501556015E1,-2.893520832E0
3.775020627E0,-3.160918713E0,1.563948917E1,-2.493321180E0
3.777264158E0,-3.315255880E0,1.623948860E1,-2.150549412E0
3.779530576E0,-3.434896946E0,1.685444450E1,-2.070389748E0
3.781780760E0,-3.539582968E0,1.746521187E1,-2.181656122E0
3.784037107E0,-3.623929977E0,1.804248047E1,-2.393420935E0
3.786287230E0,-3.812962770E0,1.859163284E1,-2.730210543E0
3.788539854E0,-3.929612875E0,1.920778465E1,-3.195614576E0
3.790788267E0,-4.140779495E0,1.933819389E1,-3.750151396E0
3.793046628E0,-4.557728767E0,1.921077728E1,-3.973282099E0
3.795298948E0,-4.903491974E0,1.904926109E1,-4.119244099E0
3.797554136E0,-5.188237667E0,1.866880226E1,-4.165904045E0
3.799805968E0,-5.455037594E0,1.810170364E1,-4.089334011E0
3.802059324E0,-5.579464436E0,1.734796333E1,-3.802793503E0
3.804312681E0,-5.755934715E0,1.638006783E1,-3.604189157E0
3.806566830E0,-5.736792088E0,1.518305779E1,-3.439682484E0
3.808818905E0,-5.608178139E0,1.390529060E1,-3.294916868E0
3.811071653E0,-5.275575638E0,1.266042423E1,-3.162713289E0
3.813324643E0,-4.772484779E0,1.149093246E1,-2.890529871E0
3.815577756E0,-4.165306091E0,1.057866859E1,-2.444866419E0
3.817831723E0,-3.554538012E0,9.833304405E0,-1.935195327E0
3.820084652E0,-3.033500910E0,9.302098274E0,-1.481755376E0
3.822338498E0,-2.592623234E0,8.928817749E0,-1.214955688E0
3.824592404E0,-2.279761791E0,8.547162056E0,-1.086939692E0
3.826844419E0,-2.117648125E0,8.332406998E0,-1.087537885E0
3.829097409E0,-2.036890268E0,8.217551231E0,-1.078564763E0
3.831349911E0,-2.022533417E0,8.241478920E0,-1.073180914E0
3.833603878E0,-2.118844509E0,8.379066467E0,-8.291130662E-1
3.835857358E0,-2.248655081E0,8.550751686E0,-5.988038778E-1
3.838110653E0,-2.387438774E0,8.769695282E0,-5.024927258E-1
3.840360043E0,-2.491526604E0,9.027522087E0,-5.868397355E-1
3.842617794E0,-2.572284460E0,9.294919968E0,-6.717849374E-1
3.844866268E0,-2.657229662E0,9.524032593E0,-8.237292171E-1
3.847108211E0,-2.690130949E0,9.743574142E0,-8.751748800E-1
3.849364009E0,-2.742174864E0,9.939187050E0,-9.457631707E-1
3.851629085E0,-2.751745939E0,1.009172916E1,-9.684949517E-1
3.853885860E0,-2.728415966E0,1.035852909E1,-9.523434043E-1
3.856138424E0,-2.690729141E0,1.061575794E1,-8.500502706E-1
3.858388607E0,-2.630310297E0,1.088195896E1,-6.951149702E-1
3.860642940E0,-2.564507723E0,1.115354443E1,-5.353940725E-1
3.862895442E0,-2.470589399E0,1.140060329E1,-3.517449200E-1
3.865148739E0,-2.338984251E0,1.165244770E1,-1.818545163E-1
3.867401545E0,-2.216351986E0,1.187139130E1,-4.127619043E-2
3.869654841E0,-2.093719721E0,1.206640625E1,1.136590764E-1
3.871907831E0,-1.951945066E0,1.229432297E1,3.212364316E-1
3.874158015E0,-1.762912035E0,1.246062374E1,5.096712112E-1
3.876401729E0,-1.612762451E0,1.262154102E1,8.129615188E-1
3.878668636E0,-1.429113269E0,1.275912857E1,1.067797065E0
3.880920772E0,-1.282552958E0,1.288235855E1,1.303490162E0
3.883177180E0,-1.165304661E0,1.295773315E1,1.515254974E0
3.885426936E0,-1.057029366E0,1.297627735E1,1.712064624E0
3.887680537E0,-9.678967595E-1,1.294217968E1,1.908276081E0
3.889933466E0,-8.781659007E-1,1.296550941E1,2.070987940E0
3.892183894E0,-7.980063558E-1,1.293619728E1,2.224726915E0
3.894429072E0,-7.369893789E-1,1.283629704E1,2.310270309E0
3.896694209E0,-7.513462901E-1,1.268315601E1,2.404786825E0
3.898946100E0,-7.704889178E-1,1.252582836E1,2.465803623E0
3.901201837E0,-8.327022791E-1,1.228774261E1,2.487937450E0
3.903452264E0,-9.128618240E-1,1.209691525E1,2.462214470E0
3.905705926E0,-1.036092162E0,1.178764248E1,2.416750908E0
3.907959223E0,-1.130608678E0,1.147358418E1,2.328216314E0
3.910212823E0,-1.249053478E0,1.116849995E1,2.254039049E0
3.912460810E0,-1.371685624E0,1.077368355E1,2.140978098E0
3.914707940E0,-1.460818172E0,1.044526863E1,2.004587173E0
3.916968988E0,-1.588834286E0,1.006899738E1,1.910668850E0
3.919212091E0,-1.697109461E0,9.774082184E0,1.774278045E0
3.921468378E0,-1.791027784E0,9.431310654E0,1.652244091E0
3.923731318E0,-1.880160451E0,9.088538170E0,1.457827210E0
3.925987116E0,-1.955534339E0,8.807381630E0,1.312463164E0
3.928241022E0,-2.011167526E0,8.545966148E0,1.176670551E0
3.930491143E0,-2.062613010E0,8.279166222E0,1.002592683E0
3.932745293E0,-2.118844509E0,8.065009117E0,8.859425783E-1
3.934997429E0,-2.165504456E0,7.884350777E0,8.033902049E-1
3.937250604E0,-2.184048891E0,7.751548767E0,6.873382926E-1
3.939503289E0,-2.183450699E0,7.632505894E0,6.340979934E-1
3.941756890E0,-2.187638044E0,7.523034573E0,5.473581553E-1
3.944009880E0,-2.197209358E0,7.460821152E0,4.941178858E-1
3.946264092E0,-2.191825628E0,7.437490940E0,4.462614357E-1
3.948519524E0,-2.177468538E0,7.380063057E0,4.414757788E-1
3.950770135E0,-2.158924341E0,7.351349354E0,4.648058116E-1
3.953022454E0,-2.115853310E0,7.341778278E0,4.797609448E-1
3.955274773E0,-2.063809633E0,7.374679565E0,5.180460811E-1
3.957528923E0,-2.040479422E0,7.417750359E0,6.000002623E-1
3.959781914E0,-2.031506538E0,7.441080093E0,6.239284873E-1
3.962035637E0,-2.012363911E0,7.455437183E0,6.478567123E-1
3.964288689E0,-1.965105653E0,7.493722439E0,6.771687865E-1
3.966542229E0,-1.979462504E0,7.531409264E0,7.058826685E-1
3.968796012E0,-1.970489502E0,7.560122967E0,7.208378315E-1
3.971048209E0,-1.936989903E0,7.622336388E0,7.070791125E-1
3.973299003E0,-1.926820397E0,7.617550850E0,6.017948985E-1
3.975544669E0,-1.907677889E0,7.765307903E0,5.886343718E-1
3.977807182E0,-1.893320918E0,7.798807144E0,5.551348329E-1
3.980060966E0,-1.831705689E0,7.908278942E0,5.132604837E-1
3.982317741E0,-1.793420553E0,7.980063438E0,4.947160780E-1
3.984567924E0,-1.740778446E0,8.027321815E0,4.761717021E-1
3.986821770E0,-1.669592023E0,8.094321251E0,4.289134443E-1
3.989073539E0,-1.587637782E0,8.103892326E0,2.715853751E-1
3.991326714E0,-1.487139225E0,8.137989998E0,1.238285750E-1
3.993579581E0,-1.424925923E0,8.161917686E0,2.871387079E-2
3.995832876E0,-1.362712502E0,8.185846329E0,-5.682953820E-2
3.998085623E0,-1.233500123E0,8.242675781E0,-1.328016520E-1
4.000335867E0,-1.147358418E0,8.233104706E0,-2.374876440E-1
4.002593314E0,-1.033101201E0,8.266604424E0,-3.038884699E-1
4.004847282E0,-9.571290612E-1,8.237890244E0,-3.517449200E-1
4.007100211E0,-8.333004713E-1,8.285746574E0,-3.601198196E-1
4.009352225E0,-7.142575383E-1,8.285746574E0,-3.738785386E-1
4.011604422E0,-6.334998012E-1,8.275577545E0,-3.738785386E-1
4.013858328E0,-5.144568682E-1,8.294719696E0,-3.589234054E-1
4.016112173E0,-4.336991012E-1,8.289934158E0,-3.583251834E-1
4.018365287E0,-3.433700502E-1,8.246863365E0,-3.391826153E-1
4.020618644E0,-3.008974493E-1,8.222934723E0,-3.678964674E-1
4.022872427E0,-2.626122832E-1,8.175078392E0,-4.109672904E-1
4.025124867E0,-2.440679073E-1,8.117650986E0,-3.158525825E-1
4.027377797E0,-2.536391914E-1,8.008178711E0,-2.638086975E-1
4.029630605E0,-2.632105052E-1,7.912466049E0,-1.878365725E-1
4.031883658E0,-3.397808075E-1,7.841279984E0,-8.374879509E-2
4.034137625E0,-3.924229145E-1,7.759923935E0,-5.084748194E-2
4.036390737E0,-5.353940725E-1,7.588238716E0,8.135596663E-2
4.038644094E0,-7.022934556E-1,7.264011383E0,2.027917206E-1
4.040898061E0,-8.787640929E-1,6.997211456E0,2.530409992E-1
4.043150258E0,-1.088136077E0,6.673582554E0,3.218346536E-1
4.045403310E0,-1.311864972E0,6.354140759E0,4.145565331E-1
4.047655507E0,-1.505683661E0,5.987440586E0,3.439682424E-1
4.049909291E0,-1.634896040E0,5.772684574E0,5.192425251E-1
4.052163198E0,-1.755733609E0,5.553143024E0,8.327022791E-1
4.054414052E0,-1.880160451E0,5.423930645E0,1.008574724E0
4.056653432E0,-1.951945066E0,5.299503803E0,1.189232826E0
4.058910268E0,-1.976471543E0,5.166104317E0,1.298106313E0
4.061172169E0,-1.972284079E0,5.079962254E0,1.450648785E0
4.063419117E0,-2.044667006E0,5.055436134E0,1.651047587E0
4.065685108E0,-2.108076811E0,5.036293507E0,1.884945989E0
4.067935474E0,-2.118246317E0,4.983053207E0,2.037488461E0
4.070191883E0,-2.152343988E0,4.963910580E0,2.161915302E0
4.072441701E0,-2.209771633E0,4.973481655E0,2.194816589E0
4.074694692E0,-2.257030010E0,4.992624283E0,2.199602127E0
4.076949024E0,-2.303689957E0,5.055436134E0,1.984846354E0
4.079201038E0,-2.364706993E0,5.170291424E0,1.813161373E0
4.081454517E0,-2.382653236E0,5.284548759E0,1.689332843E0
4.083707142E0,-2.406581402E0,5.337191105E0,1.646261930E0
4.085960804E0,-2.373680115E0,5.432305813E0,1.704886079E0
4.088213734E0,-2.350948334E0,5.503491879E0,1.862812400E0
4.090467212E0,-2.323430777E0,5.608178139E0,2.060220242E0
4.092720385E0,-2.300698996E0,5.731408596E0,2.300100803E0
4.094973803E0,-2.273779631E0,5.835496426E0,2.583052158E0
4.097226611E0,-2.227717876E0,5.925227165E0,2.784647465E0
4.099479603E0,-2.200798512E0,5.991627693E0,3.053241730E0
4.101733021E0,-2.201396942E0,6.038886070E0,3.182454109E0
4.103986438E0,-2.144567251E0,6.124429703E0,3.264408350E0
4.106239428E0,-2.092523336E0,6.233901024E0,3.294318676E0
4.108491260E0,-2.015953064E0,6.300900459E0,3.165704250E0
4.110738452E0,-1.906481385E0,6.434299946E0,3.119642496E0
4.112990466E0,-1.820937991E0,6.558128834E0,3.072982550E0
4.115251575E0,-1.730608940E0,6.648457527E0,3.092723370E0
4.117506579E0,-1.660020709E0,6.734001160E0,3.198605776E0
4.119760791E0,-1.579262972E0,6.814758778E0,3.238087177E0
4.122011950E0,-1.535593987E0,6.920042992E0,3.033500910E0
4.124265063E0,-1.486541033E0,7.044469833E0,2.704487801E0
4.126519152E0,-1.456032634E0,7.169494629E0,2.351546526E0
4.128771472E0,-1.406979680E0,7.289135933E0,2.108675003E0
4.131025073E0,-1.374078393E0,7.412964344E0,2.104487419E0
4.133277453E0,-1.303490162E0,7.555935860E0,2.210968018E0
4.135530870E0,-1.265205026E0,7.679764271E0,2.245664120E0
4.137783861E0,-1.256231904E0,7.717451096E0,2.327019930E0
4.140036974E0,-1.204786181E0,7.798209190E0,2.437688112E0
4.142290393E0,-1.185643673E0,7.831708431E0,2.447857618E0
4.144540271E0,-1.167099237E0,7.893323898E0,2.462214470E0
4.146785021E0,-1.176670551E0,7.969295979E0,2.510669231E0
4.149055406E0,-1.204187989E0,8.074580193E0,2.334198475E0
4.151302659E0,-1.189232826E0,8.175078392E0,2.191825628E0
4.153559739E0,-1.155135155E0,8.204390526E0,1.957328916E0
4.155807664E0,-1.153938770E0,8.166703224E0,1.765903115E0
4.158061326E0,-1.191027522E0,8.185846329E0,1.641476393E0
4.160312119E0,-1.214357495E0,8.310273170E0,1.561316729E0
4.162569321E0,-1.261017561E0,8.377271652E0,1.350748420E0
4.164822801E0,-1.278963685E0,8.425726891E0,1.121635556E0
4.167077440E0,-1.334596872E0,8.402397156E0,9.056833982E-1
4.169328478E0,-1.371685624E0,8.331210136E0,7.621139884E-1
4.171581834E0,-1.467398524E0,8.250452042E0,8.422735929E-1
4.173831284E0,-1.615753531E0,8.278568268E0,1.004387259E0
4.176074998E0,-1.801795483E0,8.307282448E0,1.142572761E0
4.178340867E0,-1.983649969E0,8.344968796E0,1.390828133E0
4.180594407E0,-2.132004976E0,8.325826645E0,1.499701619E0
4.182851364E0,-2.274976015E0,8.325826645E0,1.623530149E0
4.185102280E0,-2.404188633E0,8.344968796E0,1.752144337E0
4.187354172E0,-2.533401012E0,8.378468513E0,1.838286042E0
4.189607345E0,-2.666800737E0,8.420941353E0,1.919043779E0
4.191861191E0,-2.757129908E0,8.511868477E0,1.942971945E0
4.194116806E0,-2.842075109E0,8.593224525E0,1.819143414E0
4.196367112E0,-2.960519791E0,8.655437469E0,1.709073544E0
4.198617905E0,-3.074178934E0,8.717651367E0,1.670788407E0
4.200859726E0,-3.203391314E0,8.751151085E0,1.751546144E0
4.203127548E0,-3.340978622E0,8.775078773E0,1.770090580E0
4.205379196E0,-3.502494097E0,8.756534576E0,1.659422517E0
4.207635971E0,-3.691527128E0,8.737990379E0,1.496112347E0
4.209882553E0,-3.828516245E0,8.724231720E0,1.371087432E0
4.212126021E0,-3.914059639E0,8.757730484E0,1.341775298E0
4.214391951E0,-4.004986763E0,8.772088051E0,1.461416483E0
4.216642074E0,-4.072584152E0,8.843274117E0,1.657627940E0
4.218889206E0,-4.144967079E0,8.861818314E0,1.810170293E0
4.221153305E0,-4.202394962E0,8.861818314E0,1.877169371E0
4.223405197E0,-4.273581028E0,8.909674644E0,1.872383714E0
4.225661605E0,-4.396811485E0,8.948558807E0,1.733600020E0
4.227911117E0,-4.485944271E0,9.015557289E0,1.518245935E0
4.230164412E0,-4.517649174E0,9.092725754E0,1.284347534E0
4.232418380E0,-4.530809879E0,9.174081802E0,1.060020447E0
4.234673201E0,-4.549952030E0,9.265008926E0,1.055832982E0
4.236924545E0,-4.545166492E0,9.340981483E0,1.070788145E0
4.239178573E0,-4.536193371E0,9.455238342E0,1.119242787E0
4.241429976E0,-4.503292084E0,9.559925079E0,1.158126116E0
4.243683698E0,-4.493721008E0,9.617352486E0,1.163509965E0
4.245933271E0,-4.484149456E0,9.712467194E0,1.116251707E0
4.248176740E0,-4.426722050E0,9.784252167E0,1.083350420E0
4.250442794E0,-4.365106583E0,9.884152412E0,1.098903775E0
4.252696700E0,-4.298706055E0,9.964909554E0,1.089930773E0
4.254953414E0,-4.251447678E0,1.004566765E1,1.133599758E0
4.257204084E0,-4.189832687E0,1.010788059E1,1.196411371E0
4.259455915E0,-4.128217220E0,1.017428207E1,1.173679471E0
4.261709333E0,-4.018147469E0,1.023170948E1,1.102493048E0
4.263962263E0,-3.951746702E0,1.026999474E1,1.045663476E0
4.266215743E0,-3.870390654E0,1.032682419E1,9.505487680E-1
4.268469100E0,-3.798605919E0,1.037946606E1,8.506484628E-1
4.270723005E0,-3.722035646E0,1.039860916E1,7.651050687E-1
4.272975323E0,-3.673580885E0,1.040399265E1,5.934200287E-1
4.275228741E0,-3.591028690E0,1.038544846E1,2.919243574E-1
4.277480878E0,-3.558127165E0,1.039023399E1,3.403790295E-1
4.279734968E0,-3.525824070E0,1.048475075E1,5.898307562E-1
4.281987775E0,-3.498904943E0,1.051765156E1,7.860422134E-1
4.284241192E0,-3.503690481E0,1.054098225E1,8.434699774E-1
4.286494244E0,-3.503092289E0,1.053679466E1,7.429714203E-1
4.288747723E0,-3.507279873E0,1.052722359E1,6.664010882E-1
4.291001142E0,-3.488137245E0,1.051825047E1,6.137589812E-1
4.293254925E0,-3.474378586E0,1.051286602E1,6.616154313E-1
4.295506634E0,-3.436093330E0,1.050329494E1,6.855437160E-1
4.297760052E0,-3.422334671E0,1.049372387E1,6.903293133E-1
4.300012982E0,-3.369094372E0,1.050867844E1,5.377869010E-1
4.302266584E0,-3.383451223E0,1.050808048E1,6.239284873E-1
4.304519940E0,-3.407977581E0,1.052722359E1,6.669993401E-1
4.306773114E0,-3.417548895E0,1.053200912E1,6.813562512E-1
4.309026410E0,-3.409173965E0,1.059840965E1,9.254241586E-1
4.311279766E0,-3.410370588E0,1.064985561E1,1.184447169E0
4.313532024E0,-3.411566973E0,1.066839981E1,1.337587833E0
4.315785503E0,-3.292523861E0,1.066361427E1,1.371087432E0
4.318037884E0,-3.069991350E0,1.065344429E1,1.444068432E0
4.320288556E0,-2.938386202E0,1.071446133E1,1.770090580E0
4.322545330E0,-2.760719061E0,1.090409279E1,2.279163599E0
4.324798442E0,-2.648256540E0,1.104108143E1,2.524427891E0
4.327052837E0,-2.544168711E0,1.119362450E1,2.630908489E0
4.329305889E0,-2.491526604E0,1.128395367E1,2.526820660E0
4.331557538E0,-2.538186550E0,1.139880848E1,2.383849621E0
4.333811383E0,-2.621935368E0,1.142871952E1,2.044068813E0
4.336064067E0,-2.573480844E0,1.148614693E1,1.858026743E0
4.338317790E0,-2.744567633E0,1.159621716E1,1.824527264E0
4.340570659E0,-2.977269650E0,1.172064304E1,1.786242127E0
4.342822063E0,-3.162713289E0,1.180618668E1,1.800599098E0
4.345062236E0,-3.357728481E0,1.184028435E1,1.795215130E0
4.347316020E0,-3.491128206E0,1.194497108E1,1.828714728E0
4.349570170E0,-3.558725595E0,1.213041401E1,2.039881229E0
4.351839824E0,-3.765106440E0,1.228295708E1,2.322234392E0
4.354089579E0,-3.879961967E0,1.235414314E1,2.513660192E0
4.356333720E0,-3.991228104E0,1.243430328E1,2.829512835E0
4.358596293E0,-4.112663746E0,1.263829136E1,3.269792080E0
4.360849468E0,-4.280759811E0,1.270469189E1,3.600001574E0
4.363106120E0,-4.492524624E0,1.290389442E1,4.021138668E0
4.365357096E0,-4.723432064E0,1.314198017E1,4.418945312E0
4.367609231E0,-4.957928658E0,1.339920902E1,4.720440865E0
4.369862161E0,-5.125426292E0,1.361336613E1,4.859822750E0
4.372114908E0,-5.244469166E0,1.388973713E1,4.918447018E0
4.374367961E0,-5.382654667E0,1.415234947E1,4.871787071E0
4.376619120E0,-5.482554913E0,1.437667656E1,4.868197441E0
4.378864664E0,-5.401797295E0,1.456690598E1,4.836492538E0
4.381128763E0,-5.302495003E0,1.475294781E1,4.900500774E0
4.383382730E0,-5.212764263E0,1.489532089E1,5.045266628E0
4.385637247E0,-4.980062008E0,1.498565006E1,5.089533806E0
4.387887736E0,-4.837090969E0,1.494257927E1,4.989633560E0
4.390140421E0,-4.640879631E0,1.492343616E1,4.779663086E0
4.392390849E0,-4.335196495E0,1.490010643E1,4.584648132E0
4.394634134E0,-4.073780537E0,1.495215034E1,4.543372154E0
4.396900551E0,-3.750151396E0,1.499940872E1,4.521238327E0
4.399153970E0,-3.341576815E0,1.503649712E1,4.570889473E0
4.401411355E0,-3.013760090E0,1.503589916E1,4.615156651E0
4.403660013E0,-2.662613392E0,1.497368622E1,4.668995380E0
4.405913186E0,-2.325823545E0,1.502513123E1,4.809573650E0
4.408162941E0,-1.960918188E0,1.511964798E1,4.998008251E0
4.410407082E0,-1.623530149E0,1.513280869E1,5.124229908E0
4.412672829E0,-1.333998680E0,1.501795292E1,5.215157032E0
4.414926431E0,-1.163509965E0,1.478405476E1,5.276772022E0
4.417182656E0,-1.068395257E0,1.449751377E1,5.332405090E0
4.419433266E0,-1.044467092E0,1.419242954E1,5.402395248E0
4.421685585E0,-1.092323542E0,1.388734436E1,5.486144066E0
4.423938820E0,-1.154536963E0,1.359601784E1,5.603990555E0
4.426191811E0,-1.269392371E0,1.333878994E1,5.697310925E0
4.428443764E0,-1.388435364E0,1.309591866E1,5.761917114E0
4.430692727E0,-1.473978758E0,1.291466236E1,5.813362598E0
4.432951393E0,-1.535593987E0,1.273340607E1,5.821139336E0
4.435204445E0,-1.587637782E0,1.257188988E1,5.776872158E0
4.437460243E0,-1.610967875E0,1.243848991E1,5.680561066E0
4.439711036E0,-1.624726534E0,1.235773277E1,5.584249973E0
4.441964333E0,-1.623530149E0,1.225304699E1,5.444868088E0
4.444218361E0,-1.599003673E0,1.216271782E1,5.291129112E0
4.446472145E0,-1.555334687E0,1.205803108E1,5.137390137E0
4.448710426E0,-1.492523074E0,1.195872974E1,4.922036171E0
4.450976478E0,-1.377069473E0,1.185882950E1,4.730610371E0
4.453229408E0,-1.271187067E0,1.173500061E1,4.539184570E0
4.455487709E0,-1.165902853E0,1.162552929E1,4.390231133E0
4.457736244E0,-1.074377418E0,1.149751282E1,4.251447678E0
4.459989356E0,-1.050449133E0,1.129711437E1,4.255036831E0
4.462242774E0,-1.117448211E0,1.100638580E1,4.362713814E0
4.464496313E0,-1.006181955E0,1.082094193E1,4.012763500E0
4.466749488E0,-8.434699774E-1,1.070668507E1,3.763910055E0
4.469002539E0,-7.238288522E-1,1.060678482E1,3.658625841E0
4.471255958E0,-6.185446382E-1,1.045424175E1,3.576671600E0
4.473507971E0,-5.324030519E-1,1.027777100E1,3.513859987E0
4.475751502E0,-4.851447940E-1,1.016351414E1,3.513261795E0
4.478002295E0,-4.420739710E-1,1.004925728E1,3.536591768E0
4.480264319E0,-5.144568682E-1,9.891330719E0,3.769293785E0
4.482523780E0,-4.654040039E-1,9.786644936E0,3.520440340E0
4.484778296E0,-3.786641955E-1,9.744172096E0,3.285943747E0
4.487026892E0,-3.409772217E-1,9.729815483E0,3.305684566E0
4.489265235E0,-3.367897868E-1,9.705886841E0,3.405584812E0
4.491522375E0,-3.661018610E-1,9.672387123E0,3.601198196E0
4.493785741E0,-4.055834413E-1,9.657432556E0,3.811766386E0
4.496044103E0,-3.720839322E-1,9.700503349E0,3.835694790E0
4.498296606E0,-3.726821244E-1,9.695118904E0,3.936193228E0
4.500547155E0,-3.678964674E-1,9.728618622E0,3.922434568E0
4.502800390E0,-3.391826153E-1,9.781260490E0,3.870390654E0
4.505053624E0,-3.098705411E-1,9.800403595E0,3.702893019E0
4.507307104E0,-3.038884699E-1,9.839286804E0,3.531208038E0
4.509557531E0,-2.841476798E-1,9.868000984E0,3.354139090E0
4.511799535E0,-2.638086975E-1,9.878170013E0,3.120240688E0
4.514065771E0,-2.333002090E-1,9.897911072E0,2.733201742E0
4.516319189E0,-1.836491376E-1,9.917651176E0,2.394019127E0
4.518575963E0,4.187439568E-3,9.832706451E0,1.982453585E0
4.520825903E0,2.925225794E-1,9.886545181E0,1.348355532E0
4.523078953E0,2.033899277E-1,1.012522888E1,1.167697430E0
4.525332372E0,3.589233849E-3,1.016829967E1,1.147956610E0
4.527586155E0,-1.286142170E-1,1.017846966E1,9.655039310E-1
4.529837986E0,-2.123630047E-1,1.017966557E1,6.400800347E-1
4.532091648E0,-3.068794906E-1,1.021316528E1,5.587241054E-1
4.534344639E0,-3.972085714E-1,1.026102161E1,4.869394004E-1
4.536598424E0,-4.971089065E-1,1.031844902E1,5.347958803E-1
4.538851415E0,-6.065805554E-1,1.028076267E1,5.144568682E-1
4.541104344E0,-5.958128572E-1,1.016650486E1,3.798605800E-1
4.543357762E0,-3.038884699E-1,9.961918831E0,-7.178467698E-3
4.545609532E0,-4.426721931E-1,1.016650486E1,1.178465188E-1
4.547854466E0,-6.329016089E-1,1.006720352E1,1.304088384E-1
4.550116613E0,-7.609176040E-1,9.924231529E0,9.571290761E-2
4.552366856E0,-9.463613629E-1,9.766903877E0,1.274178028E-1
4.554612583E0,-1.060020447E0,9.629316330E0,4.965107143E-2
4.556877171E0,-1.115653515E0,9.453444481E0,-1.333998591E-1
4.559130710E0,-1.191625714E0,9.268000603E0,-1.974078715E-1
4.561386814E0,-1.315454245E0,9.167501450E0,-1.076770201E-1
4.563637546E0,-1.449452281E0,9.038887978E0,6.281159073E-2
4.565889316E0,-1.534995675E0,8.895915985E0,1.333998591E-1
4.568141575E0,-1.615753531E0,8.719446182E0,7.956135273E-2
4.570391147E0,-1.720439434E0,8.605188370E0,1.692921966E-1
4.572648898E0,-1.830509305E0,8.576474190E0,3.164508045E-1
4.574901584E0,-1.878963947E0,8.461619377E0,4.450650215E-1
4.577155979E0,-1.936391711E0,8.299505234E0,4.815555513E-1
4.579408848E0,-1.998006940E0,8.190033913E0,5.623133183E-1
4.581663059E0,-2.041675806E0,8.137392044E0,6.574280262E-1
4.583915073E0,-2.094317913E0,8.027321815E0,7.184450030E-1
4.586168368E0,-2.108675003E0,7.913064480E0,7.657032609E-1
4.588421236E0,-2.142174482E0,7.855636597E0,8.129615188E-1
4.590674654E0,-2.137388945E0,7.789236069E0,8.267202377E-1
4.592927462E0,-2.161317110E0,7.755736351E0,8.650053740E-1
4.595180515E0,-2.190629244E0,7.698308468E0,9.696913958E-1
4.597434421E0,-2.171486616E0,7.607381344E0,1.045663476E0
4.599688387E0,-2.167299032E0,7.502097130E0,1.154536963E0
4.601940645E0,-2.120040894E0,7.368697166E0,1.177866936E0
4.604193697E0,-2.038684845E0,7.240083218E0,1.134796143E0
4.606446627E0,-1.967498422E0,7.149155617E0,1.172483087E0
4.608699862E0,-1.887338877E0,7.077371120E0,1.292124271E0
4.610952364E0,-1.816750646E0,6.991229534E0,1.411167145E0
4.613205965E0,-1.750349760E0,6.862017155E0,1.472782373E0
4.615460115E0,-1.669592023E0,6.728617191E0,1.510469317E0
4.617714144E0,-1.545763373E0,6.571289062E0,1.471585870E0
4.619966036E0,-1.417149186E0,6.442076683E0,1.462014675E0
4.622219088E0,-1.279561877E0,6.389434814E0,1.495514154E0
4.624472261E0,-1.113260746E0,6.394220352E0,1.477568030E0
4.626725740E0,-9.607182741E-1,6.308078766E0,1.434497118E0
4.628979097E0,-8.171489239E-1,6.222535133E0,1.347757339E0
4.631229525E0,-6.646065116E-1,6.174678802E0,1.176072359E0
4.633472505E0,-5.204389095E-1,6.151348591E0,9.804590940E-1
4.635739290E0,-3.720839322E-1,6.180062771E0,7.567301393E-1
4.637990145E0,-1.992024779E-1,6.185446739E0,4.989035130E-1
4.640244050E0,-7.477571070E-2,6.247660160E0,2.703889608E-1
4.642497712E0,7.417750359E-2,6.309873104E0,3.708875179E-2
4.644751191E0,2.033899277E-1,6.400800705E0,-1.770688742E-1
4.647004914E0,3.284149170E-1,6.449255466E0,-4.390829504E-1
4.649259187E0,4.582255483E-1,6.525825500E0,-6.771687865E-1
4.651511079E0,5.641079545E-1,6.583253384E0,-9.062815905E-1
4.653765167E0,6.412764788E-1,6.645466805E0,-1.149153113E0
4.656016388E0,7.190431952E-1,6.751348972E0,-1.439880967E0
4.658269562E0,7.579265833E-1,6.803991318E0,-1.630708575E0
4.660522980E0,7.920243144E-1,6.894918442E0,-1.783251047E0
4.662776521E0,7.639086246E-1,6.933203697E0,-1.873580098E0
4.665029999E0,7.597211599E-1,6.957131863E0,-1.959721804E0
4.667282867E0,6.885347366E-1,6.957131863E0,-1.969891191E0
4.669536530E0,6.215356588E-1,6.976274490E0,-1.950748682E0
