"Time (s)","Gyroscope x (rad/s)","Gyroscope y (rad/s)","Gyroscope z (rad/s)"
1.442537720E-1,-3.009949923E-1,-1.340809703E0,-4.665345848E-1
1.467914280E-1,-2.948864996E-1,-1.290720224E0,-4.921901822E-1
1.493290850E-1,-2.875563502E-1,-1.228413820E0,-5.251759291E-1
1.518667410E-1,-2.851129472E-1,-1.162442327E0,-5.606050491E-1
1.544043970E-1,-2.863346636E-1,-1.095249176E0,-5.996993184E-1
1.569420530E-1,-2.875563502E-1,-1.029277682E0,-6.412369013E-1
1.594797100E-1,-2.875563502E-1,-9.681929350E-1,-6.864396334E-1
1.620173660E-1,-2.924431264E-1,-9.119949341E-1,-7.304205894E-1
1.645550220E-1,-2.973299026E-1,-8.631271720E-1,-7.756233215E-1
1.670926780E-1,-3.009949923E-1,-8.215895891E-1,-8.208259940E-1
1.696303350E-1,-3.046600819E-1,-7.837170362E-1,-8.648070097E-1
1.721679910E-1,-3.119902313E-1,-7.507312894E-1,-9.075663090E-1
1.747056470E-1,-3.242071867E-1,-7.189671993E-1,-9.503256083E-1
1.772433030E-1,-3.376458287E-1,-6.933116317E-1,-9.906415343E-1
1.797809600E-1,-3.571929336E-1,-6.676560640E-1,-1.028514028E0
1.823186160E-1,-3.791834414E-1,-6.468872428E-1,-1.066386580E0
1.848250220E-1,-4.023956358E-1,-6.310052276E-1,-1.099525094E0
1.873122620E-1,-4.268295169E-1,-6.224533319E-1,-1.128845692E0
1.898004390E-1,-4.524851143E-1,-6.163448691E-1,-1.154501319E0
1.922892930E-1,-4.805840850E-1,-6.102364063E-1,-1.177713513E0
1.947773660E-1,-5.050179958E-1,-6.016845703E-1,-1.202147365E0
1.972646050E-1,-5.343386531E-1,-5.967977643E-1,-1.222916245E0
1.997527300E-1,-5.612159371E-1,-5.955760479E-1,-1.240019917E0
2.022416370E-1,-5.844281316E-1,-5.967977643E-1,-1.247350097E0
2.047297100E-1,-6.076403260E-1,-6.016845703E-1,-1.241241574E0
2.072169490E-1,-6.210789680E-1,-6.126797795E-1,-1.222916245E0
2.097050740E-1,-6.308525205E-1,-6.334486008E-1,-1.193595529E0
2.121939800E-1,-6.284091473E-1,-6.713211536E-1,-1.155722976E0
2.146820530E-1,-6.198572516E-1,-7.153021693E-1,-1.112963676E0
2.171692930E-1,-6.076403260E-1,-7.641699314E-1,-1.067608237E0
2.196574180E-1,-5.929799676E-1,-8.105943203E-1,-1.023627281E0
2.221463240E-1,-5.770979524E-1,-8.496885300E-1,-9.808679819E-1
2.246343970E-1,-5.612159371E-1,-8.838959932E-1,-9.429954290E-1
2.271216370E-1,-5.428904891E-1,-9.071081877E-1,-9.075663090E-1
2.296097620E-1,-5.270084739E-1,-9.156600237E-1,-8.806890249E-1
2.320986680E-1,-5.147915483E-1,-9.156600237E-1,-8.599202037E-1
2.345867410E-1,-5.025745630E-1,-9.046648145E-1,-8.440381885E-1
2.370739800E-1,-4.879142344E-1,-8.912261724E-1,-8.391514421E-1
2.395621050E-1,-4.720322192E-1,-8.753440976E-1,-8.379297256E-1
2.420510120E-1,-4.573718905E-1,-8.557969928E-1,-8.379297256E-1
2.445390850E-1,-4.463766217E-1,-8.374716043E-1,-8.452599049E-1
2.470263240E-1,-4.378247857E-1,-8.203678727E-1,-8.550334573E-1
2.495144490E-1,-4.292729199E-1,-8.008207679E-1,-8.660287261E-1
2.520033550E-1,-4.231644273E-1,-7.837170362E-1,-8.782456517E-1
2.544914280E-1,-4.219427407E-1,-7.727217674E-1,-8.916842937E-1
2.569786680E-1,-4.243861437E-1,-7.653915882E-1,-9.063445926E-1
2.594667930E-1,-4.256078303E-1,-7.641699314E-1,-9.197832346E-1
2.619556990E-1,-4.292729199E-1,-7.751652002E-1,-9.356653094E-1
2.644437720E-1,-4.304946065E-1,-7.910472155E-1,-9.539906979E-1
2.669310120E-1,-4.329380095E-1,-8.167027831E-1,-9.710944295E-1
2.694191370E-1,-4.366030693E-1,-8.509102464E-1,-9.906415343E-1
2.719080430E-1,-4.390464723E-1,-8.887827396E-1,-1.007745266E0
2.743961160E-1,-4.414898455E-1,-9.217684865E-1,-1.027292371E0
2.768833550E-1,-4.475983381E-1,-9.596410394E-1,-1.045617819E0
2.793714800E-1,-4.475983381E-1,-1.009730577E0,-1.062721491E0
2.818603870E-1,-4.463766217E-1,-1.073258638E0,-1.081199646E0
2.843484600E-1,-4.488200247E-1,-1.139230132E0,-1.097081661E0
2.868356990E-1,-4.475983381E-1,-1.210088372E0,-1.119072199E0
2.893238240E-1,-4.439332485E-1,-1.282168388E0,-1.144727707E0
2.918127300E-1,-4.414898455E-1,-1.356691718E0,-1.175270081E0
2.943008030E-1,-4.378247857E-1,-1.431215167E0,-1.203369141E0
2.967880430E-1,-4.280512035E-1,-1.504516840E0,-1.235133171E0
2.992761680E-1,-4.170559645E-1,-1.582705259E0,-1.265675545E0
3.017650740E-1,-4.011739492E-1,-1.657228589E0,-1.299883008E0
3.042531470E-1,-3.791834414E-1,-1.726865172E0,-1.332868695E0
3.067403870E-1,-3.584146202E-1,-1.791615009E0,-1.367076159E0
3.092285120E-1,-3.327590525E-1,-1.840482831E0,-1.397618532E0
3.117174180E-1,-3.083251417E-1,-1.878355265E0,-1.428160906E0
3.142054910E-1,-2.838912606E-1,-1.901567459E0,-1.456259847E0
3.166927300E-1,-2.582356930E-1,-1.910119414E0,-1.483137131E0
3.191808550E-1,-2.386885732E-1,-1.895459056E0,-1.503905892E0
3.216697620E-1,-2.338017821E-1,-1.839261055E0,-1.516122937E0
3.241578350E-1,-2.411319613E-1,-1.753742456E0,-1.521009684E0
3.266450740E-1,-2.521272004E-1,-1.651120186E0,-1.514901161E0
3.291331990E-1,-2.692309320E-1,-1.537502527E0,-1.505127668E0
3.316221050E-1,-2.875563502E-1,-1.418998241E0,-1.484358788E0
3.341101780E-1,-3.144336343E-1,-1.301715493E0,-1.457481503E0
3.365974180E-1,-3.425326049E-1,-1.185654521E0,-1.420830727E0
3.390855430E-1,-3.718532622E-1,-1.075702071E0,-1.380514860E0
3.415744490E-1,-4.048390090E-1,-9.743013978E-1,-1.335312128E0
3.440625220E-1,-4.427115619E-1,-8.802309036E-1,-1.288887739E0
3.465497620E-1,-4.818057716E-1,-7.959339619E-1,-1.236354828E0
3.490378870E-1,-5.221216679E-1,-7.238540053E-1,-1.185043693E0
3.515267930E-1,-5.587725043E-1,-6.603258848E-1,-1.132510781E0
3.540148660E-1,-5.929799676E-1,-6.126797795E-1,-1.083643079E0
3.565021050E-1,-6.259657145E-1,-5.760289431E-1,-1.037065983E0
3.589902300E-1,-6.503996253E-1,-5.528167486E-1,-9.955283403E-1
3.614791370E-1,-6.711684465E-1,-5.418215394E-1,-9.613208771E-1
3.639672100E-1,-6.846070886E-1,-5.442649126E-1,-9.332218766E-1
3.664544490E-1,-6.907155514E-1,-5.515950918E-1,-9.100096822E-1
3.689425740E-1,-6.968240142E-1,-5.686988235E-1,-8.892409205E-1
3.714314800E-1,-7.004891038E-1,-5.894675851E-1,-8.745805621E-1
3.739195530E-1,-6.992673874E-1,-6.090146899E-1,-8.623636365E-1
3.764067930E-1,-6.980457306E-1,-6.273401380E-1,-8.550334573E-1
3.788949180E-1,-6.907155514E-1,-6.456655264E-1,-8.464815617E-1
3.813838240E-1,-6.846070886E-1,-6.591041684E-1,-8.367080092E-1
3.838718970E-1,-6.723901033E-1,-6.713211536E-1,-8.232693672E-1
3.863591370E-1,-6.626165509E-1,-6.823163629E-1,-8.061656952E-1
3.888472620E-1,-6.418477297E-1,-6.920899153E-1,-7.890619636E-1
3.913361680E-1,-6.223006248E-1,-7.079719901E-1,-7.646280527E-1
3.938242410E-1,-5.990884304E-1,-7.165238261E-1,-7.426375747E-1
3.963114800E-1,-5.734328628E-1,-7.201889157E-1,-7.169819474E-1
3.987996050E-1,-5.502206683E-1,-7.250757217E-1,-6.913263798E-1
4.012885120E-1,-5.233433843E-1,-7.250757217E-1,-6.681141853E-1
4.037765850E-1,-4.940227270E-1,-7.238540053E-1,-6.449019909E-1
4.062638240E-1,-4.659237564E-1,-7.214106321E-1,-6.265766025E-1
4.087519490E-1,-4.402681589E-1,-7.140804529E-1,-6.106945276E-1
4.112408550E-1,-4.133908749E-1,-7.067502737E-1,-5.972558856E-1
4.137289280E-1,-3.901786804E-1,-6.969767213E-1,-5.887040496E-1
4.162161680E-1,-3.694098890E-1,-6.933116317E-1,-5.801522136E-1
4.187042930E-1,-3.449759781E-1,-6.884248853E-1,-5.764871240E-1
4.211931990E-1,-3.242071867E-1,-6.884248853E-1,-5.716003180E-1
4.236812720E-1,-3.058817685E-1,-6.933116317E-1,-5.752654076E-1
4.261685120E-1,-2.899997234E-1,-7.006418109E-1,-5.801522136E-1
4.286566370E-1,-2.790044844E-1,-7.091936469E-1,-5.899257660E-1
4.311455430E-1,-2.716743052E-1,-7.226322889E-1,-6.094728708E-1
4.336336160E-1,-2.692309320E-1,-7.482879162E-1,-6.314633489E-1
4.361208550E-1,-2.765611112E-1,-7.690566778E-1,-6.558972597E-1
4.386089800E-1,-2.875563502E-1,-7.788302302E-1,-6.815528274E-1
4.410978870E-1,-3.046600819E-1,-7.849387527E-1,-7.084301114E-1
4.435859600E-1,-3.229855001E-1,-7.886037827E-1,-7.340856791E-1
4.460731990E-1,-3.474193811E-1,-7.898254991E-1,-7.585195899E-1
4.485613240E-1,-3.742966652E-1,-7.873821259E-1,-7.805100679E-1
4.510502300E-1,-4.023956358E-1,-7.824953198E-1,-8.012788892E-1
4.535383030E-1,-4.292729199E-1,-7.788302302E-1,-8.171609044E-1
4.560255430E-1,-4.537068009E-1,-7.812736630E-1,-8.354863524E-1
4.585136680E-1,-4.756973088E-1,-7.898254991E-1,-8.501466513E-1
4.610025740E-1,-4.879142344E-1,-8.032641411E-1,-8.684720993E-1
4.634906470E-1,-4.976878166E-1,-8.191461563E-1,-8.843541145E-1
4.659778870E-1,-5.013529062E-1,-8.362498879E-1,-8.953493834E-1
4.684660120E-1,-5.001311898E-1,-8.496885300E-1,-9.063445926E-1
4.709549180E-1,-4.952444136E-1,-8.594620824E-1,-9.136747718E-1
4.734429910E-1,-4.842491746E-1,-8.692356348E-1,-9.173398614E-1
4.759302300E-1,-4.671454430E-1,-8.741224408E-1,-9.197832346E-1
4.784183550E-1,-4.451549351E-1,-8.716790676E-1,-9.173398614E-1
4.809072620E-1,-4.182776511E-1,-8.606837988E-1,-9.148964882E-1
4.833953350E-1,-3.901786804E-1,-8.423583508E-1,-9.087880254E-1
4.858825740E-1,-3.559712470E-1,-8.154810667E-1,-9.002361298E-1
4.883706990E-1,-3.217637837E-1,-7.837170362E-1,-8.904625773E-1
4.908596050E-1,-2.814478874E-1,-7.446228266E-1,-8.794673681E-1
4.933476780E-1,-2.423536479E-1,-6.994200945E-1,-8.660287261E-1
4.958349180E-1,-2.032594234E-1,-6.529957056E-1,-8.513683677E-1
4.983230430E-1,-1.678302884E-1,-6.004628539E-1,-8.342646360E-1
5.008119490E-1,-1.372879148E-1,-5.442649126E-1,-8.183826208E-1
5.033000220E-1,-1.067455560E-1,-4.844018817E-1,-8.037222624E-1
5.057872620E-1,-8.475505561E-2,-4.208737612E-1,-7.902836204E-1
5.082753870E-1,-6.642963737E-2,-3.547495604E-1,-7.768449783E-1
5.107642930E-1,-5.176930502E-2,-2.887780368E-1,-7.634063363E-1
5.132523660E-1,-4.321744293E-2,-2.215848416E-1,-7.499676943E-1
5.157396050E-1,-3.588727489E-2,-1.568350345E-1,-7.365291119E-1
5.182277300E-1,-3.588727489E-2,-9.941539168E-2,-7.194253802E-1
5.207166370E-1,-3.588727489E-2,-4.443913698E-2,-7.047650218E-1
5.232047100E-1,-4.077405483E-2,6.872031838E-3,-6.852179170E-1
5.256919490E-1,-5.299099907E-2,4.963133857E-2,-6.656708121E-1
5.281800740E-1,-6.642963737E-2,8.506047726E-2,-6.461237073E-1
5.306689800E-1,-8.231166750E-2,1.217113137E-1,-6.290199757E-1
5.331570530E-1,-9.575030953E-2,1.595838517E-1,-6.143596172E-1
5.356442930E-1,-1.140757278E-1,1.864611208E-1,-5.972558856E-1
5.381324180E-1,-1.348445266E-1,2.047865391E-1,-5.801522136E-1
5.406213240E-1,-1.543916464E-1,2.108950168E-1,-5.679352283E-1
5.431093970E-1,-1.824906170E-1,2.096733153E-1,-5.532749295E-1
5.455966370E-1,-2.105895877E-1,2.023431510E-1,-5.410579443E-1
5.480847620E-1,-2.374668717E-1,1.876828223E-1,-5.215108395E-1
5.505736680E-1,-2.619007528E-1,1.705790907E-1,-5.092939138E-1
5.530617410E-1,-2.826695740E-1,1.485885978E-1,-4.958552718E-1
5.555489800E-1,-2.948864996E-1,1.192679256E-1,-4.860817194E-1
5.580371050E-1,-3.034383655E-1,8.628217876E-2,-4.799732268E-1
5.605260120E-1,-3.083251417E-1,5.818320066E-2,-4.701996744E-1
5.630140850E-1,-3.119902313E-1,3.863608837E-2,-4.592044353E-1
5.655013240E-1,-3.156553209E-1,2.519745007E-2,-4.494308829E-1
5.679894490E-1,-3.144336343E-1,3.130592033E-2,-4.433223903E-1
5.704783550E-1,-3.132119179E-1,4.107947648E-2,-4.408790171E-1
5.729664280E-1,-3.095468581E-1,5.818320066E-2,-4.457657933E-1
5.754536680E-1,-2.997733057E-1,8.750387281E-2,-4.543176591E-1
5.779417930E-1,-2.924431264E-1,1.180462316E-1,-4.689779878E-1
5.804306990E-1,-2.790044844E-1,1.546970755E-1,-4.860817194E-1
5.829187720E-1,-2.643441558E-1,1.974563748E-1,-5.056288242E-1
5.854060120E-1,-2.521272004E-1,2.487675399E-1,-5.215108395E-1
5.878941370E-1,-2.411319613E-1,3.037438095E-1,-5.337277651E-1
5.903830430E-1,-2.350234836E-1,3.660502136E-1,-5.459447503E-1
5.928711160E-1,-2.313583940E-1,4.308000207E-1,-5.606050491E-1
5.953583550E-1,-2.301367074E-1,5.004366040E-1,-5.801522136E-1
5.978464800E-1,-2.362451702E-1,5.712949038E-1,-5.972558856E-1
6.003353870E-1,-2.411319613E-1,6.421532035E-1,-6.180247068E-1
6.028234600E-1,-2.447970361E-1,7.130114436E-1,-6.375718117E-1
6.053106990E-1,-2.533488870E-1,7.802046537E-1,-6.595623493E-1
6.077988240E-1,-2.570139766E-1,8.376243114E-1,-6.803311110E-1
6.102877300E-1,-2.570139766E-1,8.877137899E-1,-7.023216486E-1
6.127758030E-1,-2.557922900E-1,9.280297160E-1,-7.267554998E-1
6.152630430E-1,-2.533488870E-1,9.524635673E-1,-7.499676943E-1
6.177511680E-1,-2.521272004E-1,9.634588361E-1,-7.768449783E-1
6.202400740E-1,-2.423536479E-1,9.597937465E-1,-8.061656952E-1
6.227281470E-1,-2.399102598E-1,9.475768209E-1,-8.318212628E-1
6.252153870E-1,-2.423536479E-1,9.231429100E-1,-8.611419201E-1
6.277035120E-1,-2.472404242E-1,8.926005363E-1,-8.880192041E-1
6.301924180E-1,-2.521272004E-1,8.473978639E-1,-9.161182046E-1
6.326804910E-1,-2.582356930E-1,7.924215794E-1,-9.442171454E-1
6.351677300E-1,-2.619007528E-1,7.288935184E-1,-9.747595191E-1
6.376558550E-1,-2.643441558E-1,6.580352187E-1,-1.002858520E0
6.401447620E-1,-2.667875290E-1,5.859552622E-1,-1.035844207E0
6.426328350E-1,-2.716743052E-1,5.163186193E-1,-1.065164924E0
6.451200740E-1,-2.765611112E-1,4.515688419E-1,-1.093416572E0
6.476081990E-1,-2.790044844E-1,3.953709006E-1,-1.116628766E0
6.500971050E-1,-2.826695740E-1,3.440597057E-1,-1.134954214E0
6.525851780E-1,-2.851129472E-1,2.964136302E-1,-1.149614573E0
6.550724180E-1,-2.814478874E-1,2.597627938E-1,-1.163053155E0
6.575605430E-1,-2.716743052E-1,2.231119573E-1,-1.175270081E0
6.600494490E-1,-2.570139766E-1,1.779092699E-1,-1.182600260E0
6.625375220E-1,-2.374668717E-1,1.327065676E-1,-1.186265349E0
6.650247620E-1,-2.179197669E-1,8.139539510E-2,-1.187487125E0
6.675128870E-1,-1.983726472E-1,3.374931216E-2,-1.182600260E0
6.700017930E-1,-1.812689304E-1,-1.511846948E-2,-1.175270081E0
6.724898660E-1,-1.653869003E-1,-5.421269313E-2,-1.165496588E0
6.749771050E-1,-1.556133330E-1,-8.108997345E-2,-1.155722976E0
6.774652300E-1,-1.495048702E-1,-1.006370857E-1,-1.144727707E0
6.799541370E-1,-1.446180940E-1,-1.091889441E-1,-1.136175871E0
6.824422100E-1,-1.470614821E-1,-1.091889441E-1,-1.126402378E0
6.849294490E-1,-1.482831687E-1,-1.043021679E-1,-1.116628766E0
6.874175740E-1,-1.470614821E-1,-9.208522737E-2,-1.105633497E0
6.899064800E-1,-1.470614821E-1,-7.498150319E-2,-1.094638348E0
6.923945530E-1,-1.421747059E-1,-5.909947306E-2,-1.079977989E0
6.948817930E-1,-1.348445266E-1,-3.955236077E-2,-1.065164924E0
6.973699180E-1,-1.250709742E-1,-2.000524849E-2,-1.045617819E0
6.998588240E-1,-1.165191159E-1,3.206948051E-3,-1.023627281E0
7.023468970E-1,-1.067455560E-1,2.519745007E-2,-1.000415087E0
7.048341370E-1,-9.819369763E-2,4.596625641E-2,-9.735378027E-1
7.073222620E-1,-8.597674966E-2,6.673506647E-2,-9.454388618E-1
7.098111680E-1,-7.253811508E-2,8.506047726E-2,-9.185615778E-1
7.122992410E-1,-6.276455522E-2,1.033858955E-1,-8.941276670E-1
7.147864800E-1,-4.932591692E-2,1.241547018E-1,-8.745805621E-1
7.172746050E-1,-4.077405483E-2,1.424801201E-1,-8.574768305E-1
7.197635120E-1,-2.855710872E-2,1.608055383E-1,-8.464815617E-1
7.222515850E-1,-1.878355257E-2,1.791309565E-1,-8.428165317E-1
7.247388240E-1,-1.389677543E-2,1.876828223E-1,-8.403730989E-1
7.272269490E-1,-1.679830020E-3,1.901262105E-1,-8.391514421E-1
7.297158550E-1,1.053711493E-2,1.791309565E-1,-8.354863524E-1
7.322039280E-1,2.641914412E-2,1.571404636E-1,-8.342646360E-1
7.346911680E-1,4.474456236E-2,1.253764033E-1,-8.305995464E-1
7.371792930E-1,6.673506647E-2,8.750387281E-2,-8.318212628E-1
7.396681990E-1,8.628217876E-2,4.352286831E-2,-8.342646360E-1
7.421562720E-1,1.094943732E-1,-4.123218823E-3,-8.403730989E-1
7.446435120E-1,1.351499557E-1,-5.543438718E-2,-8.489249945E-1
7.471316370E-1,1.644706279E-1,-1.079672500E-1,-8.611419201E-1
7.496205430E-1,1.986780763E-1,-1.641651988E-1,-8.709154725E-1
7.521086160E-1,2.353289127E-1,-2.166980654E-1,-8.819107413E-1
7.545958550E-1,2.756448388E-1,-2.704526186E-1,-8.929060102E-1
7.570839800E-1,3.159607351E-1,-3.156553209E-1,-9.039012194E-1
7.595728870E-1,3.574983478E-1,-3.510844707E-1,-9.124531150E-1
7.620609600E-1,3.941491842E-1,-3.742966652E-1,-9.197832346E-1
7.645481990E-1,4.308000207E-1,-3.877353072E-1,-9.283351302E-1
7.670363240E-1,4.698942602E-1,-3.901786804E-1,-9.356653094E-1
7.695252300E-1,5.028799772E-1,-3.840702176E-1,-9.442171454E-1
7.720133030E-1,5.322006941E-1,-3.681881726E-1,-9.539906979E-1
7.745005430E-1,5.590779781E-1,-3.400892019E-1,-9.613208771E-1
7.769886680E-1,5.786250830E-1,-2.936648130E-1,-9.686510563E-1
7.794775740E-1,5.896202922E-1,-2.374668717E-1,-9.759812355E-1
7.819656470E-1,5.969504714E-1,-1.714953631E-1,-9.796462655E-1
7.844528870E-1,6.006155610E-1,-9.697200358E-2,-9.808679819E-1
7.869410120E-1,5.993938446E-1,-2.122694254E-2,-9.772028923E-1
7.894299180E-1,5.969504714E-1,5.696150661E-2,-9.649859667E-1
7.919179910E-1,5.920637250E-1,1.388150454E-1,-9.442171454E-1
7.944052300E-1,5.883986354E-1,2.157817930E-1,-9.173398614E-1
7.968933550E-1,5.810684562E-1,2.915268540E-1,-8.843541145E-1
7.993822620E-1,5.737382770E-1,3.660502136E-1,-8.513683677E-1
8.018703350E-1,5.578562617E-1,4.369085133E-1,-8.159392476E-1
8.043575740E-1,5.456393361E-1,5.089884996E-1,-7.817317843E-1
8.068456990E-1,5.236487985E-1,5.798467398E-1,-7.463026643E-1
8.093346050E-1,4.943281412E-1,6.458182931E-1,-7.120952010E-1
8.118226780E-1,4.613423944E-1,7.056813240E-1,-6.791094542E-1
8.143099180E-1,4.234698713E-1,7.508839965E-1,-6.473453641E-1
8.167980430E-1,3.782671690E-1,7.838697433E-1,-6.131379604E-1
8.192869490E-1,3.342861533E-1,8.034168482E-1,-5.838172436E-1
8.217750220E-1,2.841966748E-1,8.021951914E-1,-5.532749295E-1
8.242622620E-1,2.328855246E-1,7.838697433E-1,-5.263976455E-1
8.267503870E-1,1.803526580E-1,7.496622801E-1,-5.044071078E-1
8.292392930E-1,1.290414780E-1,6.995728016E-1,-4.873034060E-1
8.317273660E-1,7.773031294E-2,6.372663975E-1,-4.726430774E-1
8.342146050E-1,2.031067200E-2,5.651864409E-1,-4.592044353E-1
8.367027300E-1,-3.710897267E-2,4.894413650E-1,-4.469874799E-1
8.391916370E-1,-9.575030953E-2,4.161396921E-1,-4.384356141E-1
8.416797100E-1,-1.580567211E-1,3.440597057E-1,-4.323271513E-1
8.441669490E-1,-2.191414535E-1,2.732014358E-1,-4.274403751E-1
8.466550740E-1,-2.802261710E-1,2.108950168E-1,-4.237752855E-1
8.491439800E-1,-3.388675153E-1,1.498102844E-1,-4.201101959E-1
8.516320530E-1,-3.962871730E-1,9.727742523E-2,-4.152234197E-1
8.541192930E-1,-4.439332485E-1,4.840964451E-2,-4.103366435E-1
8.566074180E-1,-4.879142344E-1,8.093725890E-3,-4.066715539E-1
8.590963240E-1,-5.233433843E-1,-2.733541466E-2,-4.042281806E-1
8.615843970E-1,-5.477772951E-1,-5.909947306E-2,-4.054498672E-1
8.640716370E-1,-5.612159371E-1,-9.086353332E-2,-4.115583301E-1
8.665597620E-1,-5.709894896E-1,-1.226275861E-1,-4.188885093E-1
8.690486680E-1,-5.746545792E-1,-1.543916464E-1,-4.274403751E-1
8.715367410E-1,-5.722111464E-1,-1.824906170E-1,-4.359922409E-1
8.740239800E-1,-5.709894896E-1,-2.044811249E-1,-4.396573007E-1
8.765121050E-1,-5.661026835E-1,-2.276933193E-1,-4.359922409E-1
8.790010120E-1,-5.551074743E-1,-2.484621257E-1,-4.335488379E-1
8.814890850E-1,-5.392253995E-1,-2.667875290E-1,-4.298837483E-1
8.839763240E-1,-5.209000111E-1,-2.851129472E-1,-4.262186885E-1
8.864644490E-1,-4.964661002E-1,-2.973299026E-1,-4.188885093E-1
8.889533550E-1,-4.695888162E-1,-3.034383655E-1,-4.103366435E-1
8.914414280E-1,-4.390464723E-1,-2.973299026E-1,-4.042281806E-1
8.939286680E-1,-4.085040987E-1,-2.826695740E-1,-3.944546282E-1
8.964167930E-1,-3.694098890E-1,-2.594573796E-1,-3.883461356E-1
8.989056990E-1,-3.290939629E-1,-2.289150059E-1,-3.810159862E-1
9.013937720E-1,-2.912214398E-1,-1.898207814E-1,-3.724641204E-1
9.038810120E-1,-2.472404242E-1,-1.409530044E-1,-3.675773442E-1
9.063691370E-1,-2.057028115E-1,-8.231166750E-2,-3.614688516E-1
9.088580430E-1,-1.678302884E-1,-1.756185852E-2,-3.553603888E-1
9.113461160E-1,-1.275143623E-1,5.207473040E-2,-3.480302393E-1
9.138333550E-1,-8.964183182E-2,1.229330078E-1,-3.455868363E-1
9.163214800E-1,-5.176930502E-2,1.901262105E-1,-3.431434333E-1
9.188103870E-1,-1.389677543E-2,2.463241518E-1,-3.443651497E-1
9.212984600E-1,2.397575416E-2,2.927485406E-1,-3.455868363E-1
9.237856990E-1,6.184828654E-2,3.281776905E-1,-3.492519259E-1
9.262738240E-1,9.361234307E-2,3.489464819E-1,-3.541387022E-1
9.287627300E-1,1.241547018E-1,3.611634374E-1,-3.590254784E-1
9.312508030E-1,1.473668963E-1,3.672719002E-1,-3.651339412E-1
9.337380430E-1,1.669140160E-1,3.636068404E-1,-3.724641204E-1
9.362261680E-1,1.815743446E-1,3.513898849E-1,-3.834593594E-1
9.387150740E-1,1.913478971E-1,3.355078697E-1,-3.944546282E-1
9.412031470E-1,1.962346882E-1,3.122956753E-1,-4.066715539E-1
9.436903870E-1,2.011214644E-1,2.805316150E-1,-4.188885093E-1
9.461785120E-1,2.035648525E-1,2.463241518E-1,-4.286620617E-1
9.486674180E-1,2.035648525E-1,2.072299272E-1,-4.372139275E-1
9.511554910E-1,2.023431510E-1,1.669140160E-1,-4.421007037E-1
9.536427300E-1,1.998997629E-1,1.302631795E-1,-4.457657933E-1
9.561308550E-1,1.889045089E-1,9.239064902E-2,-4.469874799E-1
9.586197620E-1,1.840177327E-1,5.818320066E-2,-4.494308829E-1
9.611078350E-1,1.742441803E-1,3.252761811E-2,-4.518742561E-1
9.635950740E-1,1.644706279E-1,1.053711493E-2,-4.567610323E-1
9.660831990E-1,1.498102844E-1,-5.344913341E-3,-4.628695250E-1
9.685721050E-1,1.351499557E-1,-1.878355257E-2,-4.640912116E-1
9.710601780E-1,1.217113137E-1,-2.611372061E-2,-4.689779878E-1
9.735474180E-1,1.046075895E-1,-2.977880463E-2,-4.714213610E-1
9.760355430E-1,8.872556686E-2,-2.977880463E-2,-4.738647640E-1
9.785244490E-1,7.650861889E-2,-3.222219273E-2,-4.763081372E-1
9.810125220E-1,6.184828654E-2,-3.344388679E-2,-4.775298536E-1
9.834997620E-1,5.207473040E-2,-3.588727489E-2,-4.811949134E-1
9.859878870E-1,4.352286831E-2,-3.710897267E-2,-4.836383164E-1
9.884767930E-1,3.619270027E-2,-4.199574888E-2,-4.860817194E-1
9.909648660E-1,3.497100621E-2,-4.810422286E-2,-4.860817194E-1
9.934521050E-1,3.374931216E-2,-5.543438718E-2,-4.897467792E-1
9.959402300E-1,3.497100621E-2,-6.398624927E-2,-4.946335554E-1
9.984291370E-1,3.985778242E-2,-7.986827940E-2,-4.995203316E-1
1.000917210E0,4.963133857E-2,-9.575030953E-2,-5.044071078E-1
1.003404449E0,6.184828654E-2,-1.177408099E-1,-5.105155706E-1
1.005892574E0,7.284353673E-2,-1.372879148E-1,-5.190674663E-1
1.008381480E0,8.628217876E-2,-1.617218107E-1,-5.288410187E-1
1.010869553E0,9.849911928E-2,-1.861557066E-1,-5.361711979E-1
1.013356741E0,1.131594554E-1,-2.093679011E-1,-5.459447503E-1
1.015844918E0,1.253764033E-1,-2.301367074E-1,-5.520532131E-1
1.018333824E0,1.314848661E-1,-2.484621257E-1,-5.569399595E-1
1.020821897E0,1.363716573E-1,-2.667875290E-1,-5.642701387E-1
1.023309137E0,1.363716573E-1,-2.790044844E-1,-5.728220344E-1
1.025797262E0,1.363716573E-1,-2.924431264E-1,-5.813738704E-1
1.028286168E0,1.351499557E-1,-3.046600819E-1,-5.899257660E-1
1.030774241E0,1.302631795E-1,-3.144336343E-1,-5.935907960E-1
1.033261480E0,1.253764033E-1,-3.266505599E-1,-5.984776020E-1
1.035749605E0,1.180462316E-1,-3.364241421E-1,-5.960342288E-1
1.038238512E0,1.094943732E-1,-3.425326049E-1,-5.899257660E-1
1.040726585E0,1.021642014E-1,-3.498627543E-1,-5.801522136E-1
1.043213824E0,9.239064902E-2,-3.547495604E-1,-5.716003180E-1
1.045701949E0,8.506047726E-2,-3.559712470E-1,-5.630484819E-1
1.048190855E0,7.650861889E-2,-3.523061574E-1,-5.532749295E-1
1.050678928E0,6.795676053E-2,-3.461976945E-1,-5.435013771E-1
1.053166168E0,6.062658876E-2,-3.327590525E-1,-5.349494815E-1
1.055654293E0,5.329642445E-2,-3.144336343E-1,-5.190674663E-1
1.058143199E0,4.718795046E-2,-2.936648130E-1,-5.019637346E-1
1.060631272E0,4.230117425E-2,-2.728960216E-1,-4.799732268E-1
1.063118460E0,4.352286831E-2,-2.521272004E-1,-4.592044353E-1
1.065606637E0,4.596625641E-2,-2.325800955E-1,-4.359922409E-1
1.068095543E0,5.085303262E-2,-2.215848416E-1,-4.164451063E-1
1.070583616E0,5.696150661E-2,-2.105895877E-1,-3.993414044E-1
1.073070855E0,6.306997687E-2,-2.032594234E-1,-3.859027624E-1
1.075558980E0,6.551336497E-2,-1.959292591E-1,-3.736858070E-1
1.078047887E0,6.917845458E-2,-1.873773932E-1,-3.602471650E-1
1.080535960E0,6.673506647E-2,-1.824906170E-1,-3.480302393E-1
1.083023199E0,5.818320066E-2,-1.812689304E-1,-3.382566571E-1
1.085511324E0,5.329642445E-2,-1.788255423E-1,-3.309265077E-1
1.088000230E0,4.107947648E-2,-1.800472289E-1,-3.272614181E-1
1.090488303E0,3.008422814E-2,-1.824906170E-1,-3.284831047E-1
1.092975543E0,2.031067200E-2,-1.873773932E-1,-3.333698809E-1
1.095463668E0,5.650337320E-3,-1.947075576E-1,-3.407000601E-1
1.097952574E0,-5.344913341E-3,-2.069245130E-1,-3.504736125E-1
1.100440647E0,-1.878355257E-2,-2.179197669E-1,-3.639122546E-1
1.102927887E0,-3.344388679E-2,-2.276933193E-1,-3.810159862E-1
1.105416012E0,-4.810422286E-2,-2.301367074E-1,-3.981196880E-1
1.107904918E0,-6.520794332E-2,-2.338017821E-1,-4.152234197E-1
1.110392991E0,-8.231166750E-2,-2.313583940E-1,-4.311054647E-1
1.112880230E0,-9.819369763E-2,-2.228065431E-1,-4.469874799E-1
1.115368355E0,-1.140757278E-1,-2.130329758E-1,-4.616478086E-1
1.117857262E0,-1.238492802E-1,-2.020377368E-1,-4.763081372E-1
1.120345335E0,-1.336228400E-1,-1.910424829E-1,-4.873034060E-1
1.122832574E0,-1.360662282E-1,-1.763821393E-1,-4.982986450E-1
1.125320699E0,-1.372879148E-1,-1.653869003E-1,-5.056288242E-1
1.127809605E0,-1.372879148E-1,-1.543916464E-1,-5.129590034E-1
1.130297678E0,-1.299577504E-1,-1.458397806E-1,-5.166240931E-1
1.132784866E0,-1.189625040E-1,-1.385096163E-1,-5.215108395E-1
1.135273043E0,-1.104106456E-1,-1.311794519E-1,-5.215108395E-1
1.137761949E0,-1.018587798E-1,-1.201841980E-1,-5.215108395E-1
1.140250022E0,-9.330692142E-2,-1.116323397E-1,-5.166240931E-1
1.142737262E0,-8.475505561E-2,-1.018587798E-1,-5.117372870E-1
1.145225387E0,-7.131642103E-2,-9.452861547E-2,-5.056288242E-1
1.147714293E0,-5.909947306E-2,-8.842013776E-2,-5.007420182E-1
1.150202366E0,-4.810422286E-2,-8.353336155E-2,-4.921901822E-1
1.152689605E0,-3.466558084E-2,-8.108997345E-2,-4.799732268E-1
1.155177730E0,-2.611372061E-2,-7.498150319E-2,-4.689779878E-1
1.157666637E0,-1.023169141E-2,-5.665608495E-2,-4.543176591E-1
1.160154710E0,3.985778242E-2,4.963133857E-2,-4.347705245E-1
1.162641897E0,1.156028435E-1,2.499892414E-1,-4.188885093E-1
1.165130074E0,1.693574041E-1,4.369085133E-1,-3.907895386E-1
1.167618980E0,1.913478971E-1,5.431959033E-1,-3.492519259E-1
1.170107053E0,1.937913001E-1,6.079457402E-1,-3.126010895E-1
1.172594293E0,1.962346882E-1,6.714738607E-1,-2.893888950E-1
1.175082418E0,1.974563748E-1,7.093463540E-1,-2.808370292E-1
1.177571324E0,1.852394342E-1,7.130114436E-1,-2.735068500E-1
1.180059397E0,1.656923145E-1,6.861341596E-1,-2.673983872E-1
1.182546637E0,1.400367320E-1,6.372663975E-1,-2.600682080E-1
1.185034762E0,1.021642014E-1,5.737382770E-1,-2.515163720E-1
1.187523668E0,6.429167092E-2,5.077667832E-1,-2.380777150E-1
1.190011741E0,2.031067200E-2,4.417952895E-1,-2.258607745E-1
1.192498980E0,-2.000524849E-2,3.758237660E-1,-2.087570578E-1
1.194987105E0,-6.276455522E-2,3.159607351E-1,-1.977618039E-1
1.197476012E0,-1.006370857E-1,2.658712566E-1,-1.879882365E-1
1.199964085E0,-1.324011385E-1,2.218902707E-1,-1.831014603E-1
1.202451272E0,-1.617218107E-1,1.962346882E-1,-1.782146841E-1
1.204939449E0,-1.849340051E-1,1.876828223E-1,-1.733279079E-1
1.207428303E0,-1.983726472E-1,1.864611208E-1,-1.708845198E-1
1.209916428E0,-2.093679011E-1,1.974563748E-1,-1.672194302E-1
1.212403616E0,-2.105895877E-1,2.182251811E-1,-1.623326540E-1
1.214891793E0,-2.093679011E-1,2.512109280E-1,-1.586675793E-1
1.217380647E0,-2.057028115E-1,2.878617644E-1,-1.562241912E-1
1.219868772E0,-2.057028115E-1,3.306210935E-1,-1.586675793E-1
1.222355960E0,-2.032594234E-1,3.709369898E-1,-1.611109674E-1
1.224844137E0,-2.020377368E-1,4.173613787E-1,-1.647760421E-1
1.227332991E0,-2.057028115E-1,4.588989913E-1,-1.659977436E-1
1.229821116E0,-2.081461996E-1,4.992149174E-1,-1.672194302E-1
1.232308303E0,-2.130329758E-1,5.334223509E-1,-1.721062213E-1
1.234796480E0,-2.191414535E-1,5.590779781E-1,-1.769929975E-1
1.237285387E0,-2.276933193E-1,5.786250830E-1,-1.843231618E-1
1.239773460E0,-2.411319613E-1,5.932853818E-1,-1.940967143E-1
1.242260647E0,-2.545706034E-1,5.981721878E-1,-2.026485801E-1
1.244748824E0,-2.704526186E-1,5.981721878E-1,-2.099787444E-1
1.247237678E0,-2.887780368E-1,5.896202922E-1,-2.124221325E-1
1.249725803E0,-3.107685447E-1,5.700731874E-1,-2.136438340E-1
1.252213043E0,-3.315373361E-1,5.468609929E-1,-2.112004459E-1
1.254701168E0,-3.510844707E-1,5.150969625E-1,-2.075353563E-1
1.257190074E0,-3.730749488E-1,4.735593498E-1,-2.014268786E-1
1.259678147E0,-3.950654566E-1,4.320217371E-1,-1.916533262E-1
1.262165335E0,-4.158342779E-1,3.917058110E-1,-1.831014603E-1
1.264653512E0,-4.366030693E-1,3.452814221E-1,-1.696628332E-1
1.267142418E0,-4.610369802E-1,3.000787199E-1,-1.574458778E-1
1.269630491E0,-4.818057716E-1,2.536543310E-1,-1.427855492E-1
1.272117730E0,-5.037962794E-1,2.096733153E-1,-1.281252056E-1
1.274605855E0,-5.245651007E-1,1.620272398E-1,-1.122431830E-1
1.277094762E0,-5.428904891E-1,1.156028435E-1,-9.391776472E-2
1.279582835E0,-5.587725043E-1,6.917845458E-2,-7.559234649E-2
1.282070022E0,-5.746545792E-1,2.153236605E-2,-5.848862603E-2
1.284558199E0,-5.832064152E-1,-2.367033064E-2,-4.260659590E-2
1.287047053E0,-5.929799676E-1,-6.887302548E-2,-3.405473381E-2
1.289535178E0,-5.954233408E-1,-1.067455560E-1,-3.161134571E-2
1.292022418E0,-5.966450572E-1,-1.409530044E-1,-3.649812192E-2
1.294510543E0,-5.905365944E-1,-1.617218107E-1,-4.871506989E-2
1.296999397E0,-5.770979524E-1,-1.739387512E-1,-6.704048812E-2
1.299487522E0,-5.612159371E-1,-1.727170646E-1,-8.903098851E-2
1.301974710E0,-5.428904891E-1,-1.641651988E-1,-1.207950488E-1
1.304462887E0,-5.196782947E-1,-1.372879148E-1,-1.598892659E-1
1.306951741E0,-4.928010404E-1,-9.941539168E-2,-2.075353563E-1
1.309439866E0,-4.610369802E-1,-6.154286116E-2,-2.600682080E-1
1.311927053E0,-4.292729199E-1,-2.489202656E-2,-3.150444627E-1
1.314415230E0,-3.999522328E-1,-4.123218823E-3,-3.639122546E-1
1.316904085E0,-3.779617548E-1,1.985253533E-3,-4.091149569E-1
1.319392210E0,-3.547495604E-1,-1.145338640E-2,-4.433223903E-1
1.321879397E0,-3.425326049E-1,-4.199574888E-2,-4.714213610E-1
1.324367574E0,-3.376458287E-1,-8.231166750E-2,-4.897467792E-1
1.326856480E0,-3.339807391E-1,-1.311794519E-1,-5.056288242E-1
1.329344553E0,-3.413109183E-1,-1.861557066E-1,-5.105155706E-1
1.331831741E0,-3.596363366E-1,-2.594573796E-1,-5.166240931E-1
1.334319918E0,-3.901786804E-1,-3.498627543E-1,-5.154023767E-1
1.336808824E0,-4.329380095E-1,-4.440859556E-1,-5.019637346E-1
1.339296897E0,-4.744756222E-1,-5.369347334E-1,-4.689779878E-1
1.341784137E0,-5.037962794E-1,-6.126797795E-1,-4.225535989E-1
1.344272262E0,-4.989095032E-1,-6.468872428E-1,-3.639122546E-1
1.346761168E0,-4.781406820E-1,-6.383354068E-1,-2.942756712E-1
1.349249241E0,-4.549284875E-1,-6.163448691E-1,-2.209739983E-1
1.351736428E0,-4.475983381E-1,-6.041279435E-1,-1.550024897E-1
1.354224605E0,-4.463766217E-1,-5.919110179E-1,-1.049130186E-1
1.356713512E0,-4.500417113E-1,-5.760289431E-1,-6.704048812E-2
1.359201585E0,-4.512633979E-1,-5.503733754E-1,-4.016320780E-2
1.361688824E0,-4.500417113E-1,-5.112791657E-1,-1.939439960E-2
1.364176949E0,-4.512633979E-1,-4.611896873E-1,6.261184346E-3
1.366665803E0,-4.561502039E-1,-4.049917459E-1,3.558185324E-2
1.369153928E0,-4.573718905E-1,-3.474193811E-1,6.978929788E-2
1.371641116E0,-4.585935771E-1,-2.875563502E-1,1.113269106E-1
1.374129293E0,-4.598152637E-1,-2.399102598E-1,1.528645307E-1
1.376618147E0,-4.573718905E-1,-1.873773932E-1,1.882936656E-1
1.379106272E0,-4.537068009E-1,-1.214058921E-1,2.115058601E-1
1.381593460E0,-4.427115619E-1,-4.932591692E-2,2.396048307E-1
1.384081637E0,-4.268295169E-1,4.596625641E-2,2.664821148E-1
1.386570491E0,-4.121691883E-1,1.876828223E-1,2.848075330E-1
1.389058616E0,-4.121691883E-1,3.428380191E-1,3.031329513E-1
1.391545803E0,-4.231644273E-1,4.760027230E-1,3.226800561E-1
1.394033980E0,-4.109475017E-1,6.238277555E-1,3.336753249E-1
1.396522887E0,-3.901786804E-1,7.728744745E-1,3.373403847E-1
1.399010960E0,-4.023956358E-1,8.583931327E-1,3.385621011E-1
1.401498147E0,-4.427115619E-1,8.693883419E-1,3.385621011E-1
1.403986324E0,-4.903576374E-1,8.522846103E-1,3.348970115E-1
1.406475178E0,-5.221216679E-1,8.425110579E-1,3.275668323E-1
1.408963303E0,-5.367820263E-1,8.364025950E-1,3.153499067E-1
1.411450491E0,-5.428904891E-1,8.339592218E-1,3.006895781E-1
1.413938668E0,-5.428904891E-1,8.290724158E-1,2.872509360E-1
1.416427574E0,-5.404471159E-1,8.217422962E-1,2.774773538E-1
1.418915647E0,-5.380037427E-1,8.131904006E-1,2.725905776E-1
1.421402835E0,-5.367820263E-1,7.973083854E-1,2.689255178E-1
1.423891012E0,-5.392253995E-1,7.777612805E-1,2.689255178E-1
1.426379866E0,-5.343386531E-1,7.557707429E-1,2.567085624E-1
1.428867991E0,-5.270084739E-1,7.350019813E-1,2.408265322E-1
1.431355178E0,-5.184566379E-1,7.154548764E-1,2.188360244E-1
1.433843355E0,-5.050179958E-1,7.007945180E-1,2.017323077E-1
1.436332210E0,-4.891359508E-1,6.934643388E-1,1.846285909E-1
1.438820335E0,-4.756973088E-1,6.836907864E-1,1.724116355E-1
1.441307522E0,-4.537068009E-1,6.726955175E-1,1.626380831E-1
1.443795699E0,-4.378247857E-1,6.568135023E-1,1.528645307E-1
1.446284605E0,-4.194993675E-1,6.348230243E-1,1.443126649E-1
1.448772678E0,-3.962871730E-1,6.103891134E-1,1.357607991E-1
1.451259866E0,-3.718532622E-1,5.896202922E-1,1.296523362E-1
1.453748043E0,-3.461976945E-1,5.651864409E-1,1.186570823E-1
1.456236897E0,-3.229855001E-1,5.431959033E-1,1.125486046E-1
1.458725022E0,-2.961082160E-1,5.212054253E-1,1.039967462E-1
1.461212210E0,-2.728960216E-1,5.016583204E-1,1.003316641E-1
1.463700387E0,-2.472404242E-1,4.772244096E-1,9.788827598E-2
1.466189241E0,-2.191414535E-1,4.662291706E-1,9.910997003E-2
1.468677366E0,-1.947075576E-1,4.540122151E-1,1.003316641E-1
1.471164553E0,-1.702736765E-1,4.454603493E-1,1.064401343E-1
1.473652730E0,-1.543916464E-1,4.405735731E-1,1.113269106E-1
1.476141637E0,-1.421747059E-1,4.369085133E-1,1.186570823E-1
1.478629710E0,-1.299577504E-1,4.356867969E-1,1.259872466E-1
1.481116897E0,-1.201841980E-1,4.308000207E-1,1.320957243E-1
1.483605074E0,-1.152974218E-1,4.198047817E-1,1.382041872E-1
1.486093928E0,-1.043021679E-1,4.185830951E-1,1.320957243E-1
1.488582053E0,-9.086353332E-2,4.198047817E-1,1.247655526E-1
1.491069241E0,-8.719844371E-2,3.929274976E-1,1.357607991E-1
1.493557418E0,-8.108997345E-2,3.538332880E-1,1.540862173E-1
1.496046324E0,-8.108997345E-2,3.208475113E-1,1.711899489E-1
1.498534397E0,-7.864658535E-2,3.037438095E-1,1.834068894E-1
1.501021637E0,-6.887302548E-2,2.817533016E-1,1.968455315E-1
1.503509762E0,-5.787777901E-2,2.622061968E-1,2.041756958E-1
1.505998616E0,-4.199574888E-2,2.414373755E-1,2.078407854E-1
1.508486741E0,-2.611372061E-2,2.243336588E-1,2.115058601E-1
1.510973928E0,-6.566607859E-3,2.060082406E-1,2.127275616E-1
1.513462105E0,1.664558798E-2,1.925695986E-1,2.127275616E-1
1.515951012E0,4.840964451E-2,1.827960461E-1,2.115058601E-1
1.518439085E0,8.017370105E-2,1.766875684E-1,2.078407854E-1
1.520926324E0,1.143811494E-1,1.681357026E-1,2.066190839E-1
1.523414449E0,1.461452097E-1,1.522536725E-1,2.005106062E-1
1.525903303E0,1.766875684E-1,1.278197914E-1,1.992889196E-1
1.528391428E0,2.072299272E-1,9.727742523E-2,1.956238300E-1
1.530878616E0,2.389939874E-1,5.696150661E-2,1.919587553E-1
1.533366793E0,2.695363462E-1,1.053711493E-2,1.907370538E-1
1.535855647E0,3.049654961E-1,-4.443913698E-2,1.944021434E-1
1.538343772E0,3.367295563E-1,-1.091889441E-1,1.992889196E-1
1.540830960E0,3.709369898E-1,-1.873773932E-1,2.066190839E-1
1.543319137E0,4.051444530E-1,-2.826695740E-1,2.249445021E-1
1.545807991E0,4.234698713E-1,-3.730749488E-1,2.383831441E-1
1.548296116E0,4.491254389E-1,-4.599680007E-1,2.420482337E-1
1.550783303E0,4.747810364E-1,-5.479300022E-1,2.371614426E-1
1.553271480E0,5.028799772E-1,-6.273401380E-1,2.261662036E-1
1.555760335E0,5.358657837E-1,-6.847597957E-1,2.163926363E-1
1.558248460E0,5.639647245E-1,-7.275190949E-1,2.115058601E-1
1.560735699E0,6.030589342E-1,-7.800519466E-1,2.053973973E-1
1.563223824E0,6.384881139E-1,-8.301414251E-1,1.956238300E-1
1.565712678E0,6.763606071E-1,-8.777875304E-1,1.834068894E-1
1.568200803E0,7.117897868E-1,-9.205468297E-1,1.699682474E-1
1.570687991E0,7.459971905E-1,-9.547542930E-1,1.565296054E-1
1.573176168E0,7.753179073E-1,-9.791881442E-1,1.455343664E-1
1.575665022E0,8.046385646E-1,-1.004843712E0,1.369825006E-1
1.578153147E0,8.388460279E-1,-1.023169160E0,1.333174109E-1
1.580640335E0,8.718317747E-1,-1.039051175E0,1.296523362E-1
1.583128512E0,9.072608948E-1,-1.051268101E0,1.272089481E-1
1.585617366E0,9.439117312E-1,-1.061041713E0,1.259872466E-1
1.588105491E0,9.866710305E-1,-1.068371892E0,1.235438585E-1
1.590592730E0,1.034317136E0,-1.079367161E0,1.284306347E-1
1.593080855E0,1.103953719E0,-1.124569774E0,1.394258887E-1
1.595569762E0,1.222458124E0,-1.273616552E0,1.601946950E-1
1.598057835E0,1.340962410E0,-1.412889719E0,1.736333370E-1
1.600545022E0,1.470462084E0,-1.561936498E0,1.760767251E-1
1.603033199E0,1.622104883E0,-1.761072636E0,1.699682474E-1
1.605522053E0,1.772373319E0,-1.956543803E0,1.638597846E-1
1.608010178E0,1.904316306E0,-2.122694254E0,1.699682474E-1
1.610497366E0,1.998386860E0,-2.227759838E0,1.980672181E-1
1.612985543E0,2.052141428E0,-2.270519257E0,2.383831441E-1
1.615474397E0,2.071688414E0,-2.254637241E0,2.848075330E-1
1.617962522E0,2.064358234E0,-2.188665628E0,3.373403847E-1
1.620449710E0,2.035037756E0,-2.086043358E0,3.984251320E-1
1.622937887E0,1.988613248E0,-1.951656938E0,4.643966258E-1
1.625426793E0,1.927528501E0,-1.803831935E0,5.328115225E-1
1.627914866E0,1.862778664E0,-1.647455096E0,6.036698222E-1
1.630402053E0,1.798028946E0,-1.506960154E0,6.757497787E-1
1.632890230E0,1.729614019E0,-1.370130420E0,7.417212725E-1
1.635379137E0,1.667307615E0,-1.236965656E0,8.052493930E-1
1.637867210E0,1.607444525E0,-1.106244445E0,8.638907075E-1
1.640354397E0,1.550024867E0,-9.779664874E-1,9.139801860E-1
1.642842574E0,1.498713732E0,-8.521319032E-1,9.628480077E-1
1.645331428E0,1.448471546E0,-7.275190949E-1,1.010494113E0
1.647819553E0,1.403268814E0,-6.187883019E-1,1.054475069E0
1.650306741E0,1.361731291E0,-5.271611810E-1,1.096012712E0
1.652794918E0,1.318971992E0,-4.575245976E-1,1.135106921E0
1.655283824E0,1.274990916E0,-3.987305462E-1,1.172979474E0
1.657771897E0,1.232231617E0,-3.498627543E-1,1.209630251E0
1.660259085E0,1.188250661E0,-3.156553209E-1,1.238950968E0
1.662747262E0,1.146713018E0,-2.912214398E-1,1.264606595E0
1.665236116E0,1.102732062E0,-2.655658424E-1,1.284153700E0
1.667724241E0,1.057529330E0,-2.386885732E-1,1.300035715E0
1.670211428E0,1.012326598E0,-2.081461996E-1,1.306144118E0
1.672699605E0,9.671239257E-1,-1.653869003E-1,1.309809208E0
1.675188512E0,9.170344472E-1,-1.214058921E-1,1.306144118E0
1.677676585E0,8.596147895E-1,-7.375980914E-2,1.301257372E0
1.680163824E0,7.948650122E-1,-2.733541466E-2,1.292705536E0
1.682651949E0,7.252284288E-1,3.252761811E-2,1.284153700E0
1.685140803E0,6.507050395E-1,1.046075895E-1,1.270714998E0
1.687628928E0,5.725166202E-1,1.925695986E-1,1.257276416E0
1.690116116E0,4.882196784E-1,2.903051674E-1,1.251167893E0
1.692604293E0,4.002576768E-1,4.051444530E-1,1.243837714E0
1.695093147E0,3.110739589E-1,5.334223509E-1,1.234064221E0
1.697581272E0,2.194468826E-1,6.665870547E-1,1.227955699E0
1.700068460E0,1.253764033E-1,8.021951914E-1,1.218182087E0
1.702556637E0,3.374931216E-2,9.524635673E-1,1.208408594E0
1.705045491E0,-6.276455522E-2,1.105175376E0,1.197413325E0
1.707533616E0,-1.580567211E-1,1.255443811E0,1.187639832E0
1.710020803E0,-2.509055138E-1,1.408155680E0,1.176644564E0
1.712508980E0,-3.400892019E-1,1.548650503E0,1.170536041E0
1.714997835E0,-4.207210541E-1,1.683036923E0,1.157097459E0
1.717485960E0,-4.903576374E-1,1.813758254E0,1.137550354E0
1.719973147E0,-5.514423847E-1,1.946922898E0,1.115559816E0
1.722461324E0,-5.978667736E-1,2.080087662E0,1.091125965E0
1.724950230E0,-6.308525205E-1,2.213252306E0,1.060583591E0
1.727438303E0,-6.565080881E-1,2.341530323E0,1.028819442E0
1.729925491E0,-6.675033569E-1,2.457591295E0,9.970554113E-1
1.732413668E0,-6.723901033E-1,2.554105043E0,9.652913809E-1
1.734902522E0,-6.723901033E-1,2.637180328E0,9.335273504E-1
1.737390647E0,-6.613948941E-1,2.708038568E0,8.980981708E-1
1.739877835E0,-6.418477297E-1,2.774010181E0,8.638907075E-1
1.742366012E0,-6.137487888E-1,2.827764750E0,8.260182142E-1
1.744854918E0,-5.770979524E-1,2.882740974E0,7.918107510E-1
1.747342991E0,-5.294518471E-1,2.938938856E0,7.539382577E-1
1.749830178E0,-4.756973088E-1,2.995136738E0,7.160657048E-1
1.752318355E0,-4.158342779E-1,3.044004679E0,6.769714952E-1
1.754807210E0,-3.486410677E-1,3.081877232E0,6.403206587E-1
1.757295335E0,-2.790044844E-1,3.103867531E0,6.048914790E-1
1.759782522E0,-2.020377368E-1,3.116084576E0,5.706840754E-1
1.762270699E0,-1.201841980E-1,3.122193098E0,5.352548957E-1
1.764759553E0,-3.833066672E-2,3.119749546E0,4.998257756E-1
1.767247678E0,4.230117425E-2,3.106311083E0,4.705050886E-1
1.769734866E0,1.217113137E-1,3.091650724E0,4.436278343E-1
1.772223043E0,1.986780763E-1,3.070881844E0,4.179722369E-1
1.774711897E0,2.683146596E-1,3.040339470E0,3.947600424E-1
1.777200022E0,3.318427801E-1,3.000023603E0,3.739912212E-1
1.779687262E0,3.917058110E-1,2.945047379E0,3.568875194E-1
1.782175387E0,4.442386627E-1,2.868080616E0,3.446705639E-1
1.784664241E0,4.869979918E-1,2.777675152E0,3.348970115E-1
1.787152366E0,5.212054253E-1,2.666501045E0,3.263451457E-1
1.789639605E0,5.480827093E-1,2.538223028E0,3.214583695E-1
1.792127730E0,5.688515306E-1,2.396506548E0,3.165715933E-1
1.794616637E0,5.883986354E-1,2.240129709E0,3.141281903E-1
1.797104710E0,6.030589342E-1,2.069092274E0,3.104631305E-1
1.799591897E0,6.128324866E-1,1.885838151E0,3.080197275E-1
1.802080074E0,6.274928451E-1,1.701362371E0,3.031329513E-1
1.804568928E0,6.409314871E-1,1.514443040E0,2.945810854E-1
1.807057053E0,6.580352187E-1,1.326302052E0,2.835858464E-1
1.809544241E0,6.812474132E-1,1.146713018E0,2.725905776E-1
1.812032418E0,7.020162344E-1,9.695672989E-1,2.652604282E-1
1.814521272E0,7.288935184E-1,7.985301018E-1,2.615953386E-1
1.817009397E0,7.557707429E-1,6.494833231E-1,2.603736520E-1
1.819496585E0,7.887565494E-1,5.346440673E-1,2.615953386E-1
1.821984762E0,8.217422962E-1,4.466820657E-1,2.677038014E-1
1.824473616E0,8.412894011E-1,3.807105422E-1,2.799207568E-1
1.826961741E0,8.657232523E-1,3.452814221E-1,2.945810854E-1
1.829448928E0,8.791618943E-1,3.269560039E-1,3.116848171E-1
1.831937105E0,8.938222528E-1,3.318427801E-1,3.287885487E-1
1.834425960E0,8.974873424E-1,3.562766612E-1,3.446705639E-1
1.836914085E0,8.999307156E-1,3.978142738E-1,3.568875194E-1
1.839401272E0,8.987090588E-1,4.576773047E-1,3.703261614E-1
1.841889449E0,8.974873424E-1,5.309789777E-1,3.837648034E-1
1.844378303E0,8.999307156E-1,6.152759194E-1,4.008685052E-1
1.846866428E0,9.035958052E-1,7.020162344E-1,4.179722369E-1
1.849353616E0,9.023740888E-1,7.887565494E-1,4.375193417E-1
1.851841793E0,9.060391784E-1,8.718317747E-1,4.546230733E-1
1.854330647E0,8.999307156E-1,9.378032684E-1,4.741701782E-1
1.856818772E0,8.913788795E-1,9.878927469E-1,4.876088202E-1
1.859305960E0,8.791618943E-1,1.026986957E0,4.986040890E-1
1.861794137E0,8.681666851E-1,1.051420808E0,5.071559548E-1
1.864282991E0,8.486195803E-1,1.051420808E0,5.169295073E-1
1.866771116E0,8.266290426E-1,1.029430389E0,5.242596865E-1
1.869258303E0,8.009734750E-1,9.903361201E-1,5.303681493E-1
1.871746480E0,7.740961909E-1,9.292513728E-1,5.352548957E-1
1.874235335E0,7.472189069E-1,8.498412371E-1,5.389199853E-1
1.876723460E0,7.166765332E-1,7.557707429E-1,5.303681493E-1
1.879210647E0,6.812474132E-1,6.568135023E-1,5.144860744E-1
1.881698824E0,6.470399499E-1,5.566345453E-1,4.912739098E-1
1.884187730E0,6.091674566E-1,4.650074840E-1,4.631749392E-1
1.886675803E0,5.725166202E-1,3.941491842E-1,4.375193417E-1
1.889162991E0,5.358657837E-1,3.465031087E-1,4.069769979E-1
1.891651168E0,4.967715442E-1,3.122956753E-1,3.703261614E-1
1.894140022E0,4.564556181E-1,2.878617644E-1,3.300102353E-1
1.896628147E0,4.173613787E-1,2.707580328E-1,2.872509360E-1
1.899115335E0,3.721587062E-1,2.597627938E-1,2.457133085E-1
1.901603512E0,3.281776905E-1,2.609844804E-1,2.066190839E-1
1.904092366E0,2.805316150E-1,2.756448388E-1,1.699682474E-1
1.906580491E0,2.353289127E-1,2.817533016E-1,1.284306347E-1
1.909067678E0,1.852394342E-1,2.915268540E-1,8.689302206E-2
1.911555855E0,1.388150454E-1,3.037438095E-1,4.657710344E-2
1.914044710E0,8.506047726E-2,3.245126009E-1,1.114796288E-2
1.916532835E0,2.764083818E-2,3.562766612E-1,-2.305948362E-2
1.919020022E0,-2.977880463E-2,3.892624080E-1,-5.604523420E-2
1.921508199E0,-8.597674966E-2,4.198047817E-1,-8.903098851E-2
1.923997053E0,-1.433963925E-1,4.479037523E-1,-1.269035190E-1
1.926485178E0,-1.971509457E-1,4.796678126E-1,-1.623326540E-1
1.928972366E0,-2.435753495E-1,5.004366040E-1,-1.928750277E-1
1.931460543E0,-2.838912606E-1,4.869979918E-1,-2.221956849E-1
1.933949397E0,-3.058817685E-1,4.100312293E-1,-2.454078794E-1
1.936437522E0,-3.009949923E-1,2.634278834E-1,-2.576248348E-1
1.938924710E0,-2.790044844E-1,8.994726092E-2,-2.539597452E-1
1.941412887E0,-2.472404242E-1,-5.665608495E-2,-2.368560284E-1
1.943901741E0,-2.154763639E-1,-1.250709742E-1,-2.087570578E-1
1.946389866E0,-1.849340051E-1,-1.079672500E-1,-1.757712960E-1
1.948877053E0,-1.580567211E-1,-1.267508045E-2,-1.330119967E-1
1.951365230E0,-1.348445266E-1,1.388150454E-1,-7.925742865E-2
1.953854085E0,-1.104106456E-1,3.281776905E-1,-2.550287358E-2
1.956342210E0,-9.575030953E-2,5.212054253E-1,1.969982497E-2
1.958829842E0,-8.842013776E-2,6.763606071E-1,4.779879749E-2
1.961318019E0,-8.842013776E-2,7.802046537E-1,5.635065958E-2
1.963806925E0,-9.697200358E-2,8.376243114E-1,4.413371533E-2
1.966294998E0,-1.140757278E-1,8.681666851E-1,2.336490713E-2
1.968782186E0,-1.372879148E-1,8.864920735E-1,-8.399149403E-3
1.971270363E0,-1.629435122E-1,9.011524320E-1,-4.260659590E-2
1.973759217E0,-1.885990947E-1,9.304730892E-1,-8.414421231E-2
1.976247342E0,-2.118112892E-1,9.720106721E-1,-1.269035190E-1
1.978734530E0,-2.399102598E-1,1.009883285E0,-1.708845198E-1
1.981222707E0,-2.753393948E-1,1.036760569E0,-2.112004459E-1
1.983711561E0,-3.144336343E-1,1.067302823E0,-2.564031482E-1
1.986199686E0,-3.547495604E-1,1.106397152E0,-3.077143133E-1
1.988686873E0,-4.146125913E-1,1.127165914E0,-3.553603888E-1
1.991175050E0,-4.818057716E-1,1.160151601E0,-3.993414044E-1
1.993663957E0,-5.441122055E-1,1.229788303E0,-4.469874799E-1
1.996152030E0,-6.198572516E-1,1.309198380E0,-4.836383164E-1
1.998639217E0,-7.004891038E-1,1.386165142E0,-5.141806602E-1
2.001127394E0,-7.896727920E-1,1.465575337E0,-5.422796607E-1
2.003616300E0,-8.861866593E-1,1.548650503E0,-5.703786016E-1
2.006104373E0,-9.888089895E-1,1.625617266E0,-6.082511544E-1
2.008591561E0,-1.088987947E0,1.696475506E0,-6.571189165E-1
2.011079738E0,-1.189166903E0,1.753895164E0,-7.182036638E-1
2.013568592E0,-1.283237338E0,1.797876239E0,-7.939487100E-1
2.016056717E0,-1.377307892E0,1.844300628E0,-8.758022785E-1
2.018543905E0,-1.467713237E0,1.898055196E0,-9.600991607E-1
2.021032082E0,-1.547123432E0,1.967691779E0,-1.046839476E0
2.023520936E0,-1.626533508E0,2.054432154E0,-1.130067468E0
2.026009061E0,-1.688839912E0,2.155832767E0,-1.210699320E0
2.028496248E0,-1.740151167E0,2.256011724E0,-1.287665963E0
2.030984425E0,-1.780467033E0,2.352525473E0,-1.356080890E0
2.033473280E0,-1.808565974E0,2.439265728E0,-1.426939249E0
2.035961405E0,-1.829334855E0,2.515010834E0,-1.499019146E0
2.038448592E0,-1.835443258E0,2.584647417E0,-1.569877505E0
2.040936769E0,-1.831778169E0,2.646953821E0,-1.643179178E0
2.043425623E0,-1.815896153E0,2.697043419E0,-1.720145941E0
2.045913748E0,-1.787797213E0,2.736137629E0,-1.803221107E0
2.048400936E0,-1.751146436E0,2.769123316E0,-1.886296391E0
2.050889113E0,-1.705943704E0,2.796000719E0,-1.970593214E0
2.053377967E0,-1.654632568E0,2.816769361E0,-2.056111813E0
2.055866092E0,-1.598434567E0,2.830208063E0,-2.144073963E0
2.058353280E0,-1.538571477E0,2.831429720E0,-2.232035875E0
2.060841457E0,-1.472599983E0,2.826543093E0,-2.315111160E0
2.063330311E0,-1.402963400E0,2.805774212E0,-2.396964550E0
2.065818436E0,-1.330883503E0,2.775231838E0,-2.476374865E0
2.068305623E0,-1.257581830E0,2.744689465E0,-2.549676418E0
2.070793800E0,-1.181836724E0,2.710481882E0,-2.618091345E0
2.073282655E0,-1.107313395E0,2.677496195E0,-2.675510883E0
2.075770780E0,-1.035233378E0,2.649397373E0,-2.726822138E0
2.078257967E0,-9.643751383E-1,2.622519970E0,-2.767138004E0
2.080746144E0,-8.910734653E-1,2.589534283E0,-2.800123930E0
2.083234998E0,-8.202151656E-1,2.552883387E0,-2.823336124E0
2.085723123E0,-7.493568659E-1,2.515010834E0,-2.839218140E0
2.088210311E0,-6.760551929E-1,2.480803490E0,-2.846548319E0
2.090698488E0,-6.051968932E-1,2.451482773E0,-2.845326424E0
2.093187342E0,-5.318952799E-1,2.427048922E0,-2.836774588E0
2.095675467E0,-4.585935771E-1,2.402615070E0,-2.820892572E0
2.098162655E0,-3.889569938E-1,2.379402876E0,-2.800123930E0
2.100650832E0,-3.193204105E-1,2.353747129E0,-2.775689840E0
2.103139686E0,-2.570139766E-1,2.328091621E0,-2.747591019E0
2.105627811E0,-1.983726472E-1,2.304879427E0,-2.717048645E0
2.108114998E0,-1.507265568E-1,2.281667233E0,-2.686506271E0
2.110603175E0,-1.091889441E-1,2.267006874E0,-2.653520584E0
2.113092030E0,-8.108997345E-2,2.259676695E0,-2.619313002E0
2.115580155E0,-5.909947306E-2,2.256011724E0,-2.585105658E0
2.118067342E0,-5.176930502E-2,2.254789829E0,-2.553341627E0
2.120555519E0,-5.543438718E-2,2.256011724E0,-2.524020910E0
2.123044373E0,-6.765133142E-2,2.256011724E0,-2.500808716E0
2.125532498E0,-9.452861547E-2,2.252346516E0,-2.476374865E0
2.128019686E0,-1.262926757E-1,2.249903202E0,-2.455605984E0
2.130507811E0,-1.678302884E-1,2.245016336E0,-2.438502312E0
2.132996717E0,-2.130329758E-1,2.235242844E0,-2.421398640E0
2.135484842E0,-2.655658424E-1,2.224247694E0,-2.403073072E0
2.137972030E0,-3.217637837E-1,2.204700470E0,-2.387191057E0
2.140460207E0,-3.791834414E-1,2.183931589E0,-2.367644072E0
2.142949061E0,-4.378247857E-1,2.158276081E0,-2.348096848E0
2.145437186E0,-4.976878166E-1,2.132620573E0,-2.327327967E0
2.147924373E0,-5.599942207E-1,2.106964827E0,-2.304115772E0
2.150412550E0,-6.210789680E-1,2.077644348E0,-2.278460264E0
2.152901405E0,-6.784985662E-1,2.050766945E0,-2.254026413E0
2.155389530E0,-7.383615971E-1,2.026333094E0,-2.224705696E0
2.157876717E0,-8.018897176E-1,1.999455810E0,-2.195384979E0
2.160364894E0,-8.605310917E-1,1.968913436E0,-2.164842606E0
2.162853748E0,-9.167290330E-1,1.938371062E0,-2.133078575E0
2.165341873E0,-9.729269743E-1,1.905385256E0,-2.100092888E0
2.167829061E0,-1.025459886E0,1.873621225E0,-2.065885544E0
2.170317238E0,-1.075549364E0,1.844300628E0,-2.029234648E0
2.172806092E0,-1.118308663E0,1.803984642E0,-1.990140319E0
2.175294217E0,-1.159846187E0,1.784437537E0,-1.947381020E0
2.177781405E0,-1.198940516E0,1.783215880E0,-1.898513317E0
2.180269582E0,-1.235591292E0,1.756338596E0,-1.847202063E0
2.182758436E0,-1.272242069E0,1.707470775E0,-1.797112584E0
2.185246561E0,-1.302784443E0,1.641499281E0,-1.745801449E0
2.187733748E0,-1.329661727E0,1.564532518E0,-1.698155403E0
2.190221925E0,-1.347987175E0,1.477792263E0,-1.649287581E0
2.192710780E0,-1.365090966E0,1.394716978E0,-1.602863193E0
2.195198905E0,-1.373642802E0,1.326302052E0,-1.555217147E0
2.197686092E0,-1.379751205E0,1.271325827E0,-1.506349325E0
2.200174269E0,-1.376086116E0,1.227344871E0,-1.456259847E0
2.202663123E0,-1.369977713E0,1.184585571E0,-1.407392025E0
2.205151196E0,-1.356539011E0,1.143047929E0,-1.364632726E0
2.207638436E0,-1.341878772E0,1.101510286E0,-1.320651770E0
2.210126613E0,-1.319888234E0,1.059972763E0,-1.281557560E0
2.212615467E0,-1.294232607E0,1.017213345E0,-1.244906664E0
2.215103592E0,-1.262468576E0,9.732323885E-1,-1.209477544E0
2.217590780E0,-1.233147860E0,9.329164624E-1,-1.177713513E0
2.220078957E0,-1.197718740E0,8.913788795E-1,-1.150836229E0
2.222567811E0,-1.159846187E0,8.473978639E-1,-1.126402378E0
2.225055936E0,-1.120751977E0,8.070819378E-1,-1.104411840E0
2.227543123E0,-1.076771021E0,7.692093849E-1,-1.086086392E0
2.230031300E0,-1.036455035E0,7.423321605E-1,-1.068830013E0
2.232520155E0,-9.900307059E-1,7.203416228E-1,-1.052947998E0
2.235008280E0,-9.423846006E-1,7.007945180E-1,-1.039509296E0
2.237495467E0,-8.910734653E-1,6.897992492E-1,-1.027292371E0
2.239983592E0,-8.373188972E-1,6.873558760E-1,-1.015075445E0
2.242472498E0,-7.823426127E-1,6.959077120E-1,-1.004080176E0
2.244960623E0,-7.237012982E-1,7.166765332E-1,-9.894198179E-1
2.247447811E0,-6.613948941E-1,7.484406233E-1,-9.759812355E-1
2.249935936E0,-6.027535200E-1,7.899782062E-1,-9.600991607E-1
2.252424842E0,-5.441122055E-1,8.400676847E-1,-9.466605186E-1
2.254912967E0,-4.854708612E-1,8.913788795E-1,-9.344435930E-1
2.257400155E0,-4.329380095E-1,9.487984776E-1,-9.222266674E-1
2.259888280E0,-3.865135908E-1,1.011104941E0,-9.124531150E-1
2.262377186E0,-3.425326049E-1,1.081963181E0,-9.026795626E-1
2.264865259E0,-3.083251417E-1,1.156486630E0,-8.941276670E-1
2.267352498E0,-2.753393948E-1,1.238340139E0,-8.855758309E-1
2.269840675E0,-2.521272004E-1,1.321415305E0,-8.819107413E-1
2.272329530E0,-2.350234836E-1,1.400825500E0,-8.782456517E-1
2.274817655E0,-2.191414535E-1,1.477792263E0,-8.770239353E-1
2.277304842E0,-2.069245130E-1,1.551093936E0,-8.770239353E-1
2.279793019E0,-1.995943487E-1,1.618287086E0,-8.794673681E-1
2.282281873E0,-1.934858710E-1,1.674485087E0,-8.855758309E-1
2.284769946E0,-1.922641695E-1,1.724574566E0,-8.880192041E-1
2.287257186E0,-1.922641695E-1,1.760003686E0,-8.941276670E-1
2.289745311E0,-1.934858710E-1,1.786880970E0,-9.014578462E-1
2.292234217E0,-1.995943487E-1,1.802762985E0,-9.075663090E-1
2.294722290E0,-2.081461996E-1,1.811314821E0,-9.161182046E-1
2.297209530E0,-2.191414535E-1,1.811314821E0,-9.246700406E-1
2.299697655E0,-2.301367074E-1,1.802762985E0,-9.320002198E-1
2.302186561E0,-2.460187376E-1,1.790546060E0,-9.393303990E-1
2.304674634E0,-2.655658424E-1,1.769777179E0,-9.454388618E-1
2.307161873E0,-2.838912606E-1,1.747786760E0,-9.478822351E-1
2.309649998E0,-3.071034551E-1,1.717244387E0,-9.503256083E-1
2.312138905E0,-3.327590525E-1,1.684258580E0,-9.503256083E-1
2.314626978E0,-3.547495604E-1,1.646386027E0,-9.491039515E-1
2.317114217E0,-3.791834414E-1,1.602405071E0,-9.491039515E-1
2.319602342E0,-4.011739492E-1,1.555980682E0,-9.515473247E-1
2.322091248E0,-4.243861437E-1,1.502226114E0,-9.564340711E-1
2.324579321E0,-4.488200247E-1,1.449693203E0,-9.625425935E-1
2.327066561E0,-4.744756222E-1,1.398382068E0,-9.710944295E-1
2.329554686E0,-4.964661002E-1,1.354401112E0,-9.808679819E-1
2.332043592E0,-5.270084739E-1,1.317750216E0,-9.894198179E-1
2.334531665E0,-5.514423847E-1,1.311641812E0,-9.991934299E-1
2.337018905E0,-5.770979524E-1,1.309198380E0,-1.008966923E0
2.339507030E0,-6.064186096E-1,1.295759797E0,-1.017518878E0
2.341995936E0,-6.381826997E-1,1.278656006E0,-1.026070714E0
2.344484009E0,-6.760551929E-1,1.262773991E0,-1.034622550E0
2.346971248E0,-7.127060294E-1,1.249335408E0,-1.040731072E0
2.349459373E0,-7.518002391E-1,1.244448543E0,-1.045617819E0
2.351948280E0,-7.896727920E-1,1.243226886E0,-1.050504565E0
2.354436353E0,-8.299887180E-1,1.244448543E0,-1.052947998E0
2.356923592E0,-8.629744649E-1,1.254222155E0,-1.055391312E0
2.359411717E0,-8.935168386E-1,1.271325827E0,-1.060278177E0
2.361900623E0,-9.216157794E-1,1.292094707E0,-1.062721491E0
2.364388696E0,-9.448279738E-1,1.315306902E0,-1.067608237E0
2.366875936E0,-9.631534219E-1,1.345849276E0,-1.070204377E0
2.369364061E0,-9.741486907E-1,1.378834963E0,-1.073869467E0
2.371852967E0,-9.827005267E-1,1.406933904E0,-1.077534556E0
2.374341040E0,-9.851438999E-1,1.437476277E0,-1.078756213E0
2.376828280E0,-9.778137207E-1,1.469240427E0,-1.079977989E0
2.379316405E0,-9.668185115E-1,1.499782681E0,-1.078756213E0
2.381805311E0,-9.533798695E-1,1.531546831E0,-1.076312900E0
2.384293384E0,-9.362761378E-1,1.560867429E0,-1.071426034E0
2.386780623E0,-9.130639434E-1,1.596296549E0,-1.065164924E0
2.389268748E0,-8.861866593E-1,1.639055848E0,-1.057834744E0
2.391757655E0,-8.629744649E-1,1.683036923E0,-1.050504565E0
2.394245728E0,-8.373188972E-1,1.725796223E0,-1.041952729E0
2.396732967E0,-8.141067028E-1,1.762447000E0,-1.034622550E0
2.399221092E0,-7.847860456E-1,1.794211149E0,-1.026070714E0
2.401709998E0,-7.603521347E-1,1.821088433E0,-1.023627281E0
2.404198071E0,-7.346965671E-1,1.847965717E0,-1.023627281E0
2.406685311E0,-7.114843726E-1,1.876064658E0,-1.027292371E0
2.409173436E0,-6.894938350E-1,1.904163599E0,-1.037065983E0
2.411662342E0,-6.699467301E-1,1.929819226E0,-1.050504565E0
2.414150415E0,-6.528429985E-1,1.949366331E0,-1.068830013E0
2.416637655E0,-6.394043565E-1,1.968913436E0,-1.089751482E0
2.419125780E0,-6.247440577E-1,1.984795451E0,-1.112963676E0
2.421614686E0,-6.161921620E-1,1.999455810E0,-1.134954214E0
2.424102759E0,-6.039752364E-1,2.012894392E0,-1.155722976E0
2.426589998E0,-5.954233408E-1,2.022667885E0,-1.175270081E0
2.429078123E0,-5.893148780E-1,2.029998064E0,-1.188708782E0
2.431567030E0,-5.844281316E-1,2.034884930E0,-1.199704051E0
2.434055103E0,-5.807630420E-1,2.034884930E0,-1.204590797E0
2.436542342E0,-5.819846988E-1,2.032441616E0,-1.203369141E0
2.439030467E0,-5.832064152E-1,2.027554750E0,-1.196038961E0
2.441519373E0,-5.929799676E-1,2.020224571E0,-1.183822036E0
2.444007446E0,-6.027535200E-1,2.014116049E0,-1.166718245E0
2.446494686E0,-6.174138784E-1,2.009229422E0,-1.144727707E0
2.448982811E0,-6.381826997E-1,2.011672735E0,-1.116628766E0
2.451471717E0,-6.589514613E-1,2.019002914E0,-1.084864736E0
2.453959790E0,-6.894938350E-1,2.032441616E0,-1.048061132E0
2.456447030E0,-7.224795818E-1,2.051988602E0,-1.006523609E0
2.458935155E0,-7.591304183E-1,2.073979139E0,-9.600991607E-1
2.461424061E0,-8.006680608E-1,2.102078199E0,-9.100096822E-1
2.463912134E0,-8.458707333E-1,2.127733707E0,-8.538117409E-1
2.466399373E0,-8.922951221E-1,2.148502588E0,-7.988355160E-1
2.468887498E0,-9.411629438E-1,2.158276081E0,-7.401941419E-1
2.471376405E0,-9.851438999E-1,2.160719395E0,-6.827745438E-1
2.473864478E0,-1.035233378E0,2.155832767E0,-6.277982593E-1
2.476351717E0,-1.076771021E0,2.139950752E0,-5.752654076E-1
2.478839842E0,-1.121973753E0,2.117960215E0,-5.227325559E-1
2.481328748E0,-1.163511276E0,2.093526363E0,-4.763081372E-1
2.483816821E0,-1.207492352E0,2.067870617E0,-4.323271513E-1
2.486304061E0,-1.250251651E0,2.037328243E0,-3.920112252E-1
2.488792186E0,-1.294232607E0,2.003120899E0,-3.565820754E-1
2.491281092E0,-1.339435339E0,1.968913436E0,-3.272614181E-1
2.493769165E0,-1.379751205E0,1.932262540E0,-3.003841341E-1
2.496256405E0,-1.422510505E0,1.898055196E0,-2.796153426E-1
2.498744530E0,-1.466491580E0,1.860182643E0,-2.588465214E-1
2.501233436E0,-1.510472536E0,1.816201568E0,-2.307475507E-1
2.503721509E0,-1.563005447E0,1.755116940E0,-1.879882365E-1
2.506208748E0,-1.627755284E0,1.665933132E0,-1.391204596E-1
2.508696873E0,-1.701056957E0,1.560867429E0,-9.758284688E-2
2.511185780E0,-1.776801944E0,1.443584800E0,-5.482354015E-2
2.513673853E0,-1.859877229E0,1.288429618E0,-1.206423342E-2
2.516161092E0,-1.949060917E0,1.090515018E0,3.191677108E-2
2.518649217E0,-2.050461531E0,8.571714163E-1,8.322793990E-2
2.521138123E0,-2.156749010E0,6.006155610E-1,1.382041872E-1
2.523626196E0,-2.264258146E0,3.416163325E-1,1.992889196E-1
2.526113436E0,-2.366880417E0,8.994726092E-2,2.603736520E-1
2.528601561E0,-2.465837717E0,-1.421747059E-1,3.190149665E-1
2.531090467E0,-2.551356316E0,-3.535278440E-1,3.739912212E-1
2.533578540E0,-2.630766392E0,-5.393781066E-1,4.179722369E-1
2.536065780E0,-2.696738005E0,-7.006418109E-1,4.534013867E-1
2.538553905E0,-2.750492573E0,-8.435800672E-1,4.778352678E-1
2.541042811E0,-2.789586782E0,-9.596410394E-1,4.924955964E-1
2.543530884E0,-2.816463947E0,-1.047603011E0,4.937172830E-1
2.546018123E0,-2.826237440E0,-1.101357579E0,4.766135812E-1
2.548506248E0,-2.822572470E0,-1.122126460E0,4.436278343E-1
2.550995155E0,-2.804247141E0,-1.120904684E0,3.910949528E-1
2.553483228E0,-2.772483110E0,-1.086697221E0,3.300102353E-1
2.555970467E0,-2.722393513E0,-1.030499339E0,2.677038014E-1
2.558458592E0,-2.661308765E0,-9.596410394E-1,2.041756958E-1
2.560947498E0,-2.578233480E0,-8.716790676E-1,1.406475753E-1
2.563435571E0,-2.485384703E0,-7.824953198E-1,8.078455180E-2
2.565922811E0,-2.382762432E0,-7.079719901E-1,1.725643501E-2
2.568410936E0,-2.275253296E0,-6.542174220E-1,-3.649812192E-2
2.570899842E0,-2.166522503E0,-6.175665855E-1,-8.903098851E-2
2.573387915E0,-2.056570053E0,-5.882459283E-1,-1.378987730E-1
2.575875155E0,-1.944174170E0,-5.711421967E-1,-1.855448484E-1
2.578363280E0,-1.835443258E0,-5.625903010E-1,-2.270824611E-1
2.580852186E0,-1.721825719E0,-5.467082858E-1,-2.551814318E-1
2.583340259E0,-1.608208179E0,-5.149442554E-1,-2.686200738E-1
2.585827498E0,-1.487260342E0,-4.782933891E-1,-2.722851634E-1
2.588315623E0,-1.362647533E0,-4.453076422E-1,-2.710634768E-1
2.590804530E0,-1.240478039E0,-4.343124032E-1,-2.698417902E-1
2.593292603E0,-1.112200141E0,-4.501944184E-1,-2.783936262E-1
2.595779842E0,-9.839222431E-1,-4.880669713E-1,-3.028275371E-1
2.598267967E0,-8.568660021E-1,-5.271611810E-1,-3.407000601E-1
2.600756873E0,-7.346965671E-1,-5.344913602E-1,-3.907895386E-1
2.603244946E0,-6.174138784E-1,-4.953971207E-1,-4.469874799E-1
2.605732186E0,-5.086830258E-1,-4.184303582E-1,-5.092939138E-1
2.608220311E0,-4.109475017E-1,-3.388675153E-1,-5.752654076E-1
2.610709217E0,-3.242071867E-1,-2.802261710E-1,-6.387935281E-1
2.613197290E0,-2.484621257E-1,-2.350234836E-1,-6.901046634E-1
2.615684530E0,-1.702736765E-1,-1.776038408E-1,-7.182036638E-1
2.618172655E0,-8.842013776E-2,-1.140757278E-1,-7.145385742E-1
2.620661561E0,9.315420873E-3,6.872031838E-3,-6.852179170E-1
2.623149634E0,1.302631795E-1,2.157817930E-1,-6.510104537E-1
2.625636873E0,2.707580328E-1,4.833329022E-1,-6.375718117E-1
2.628124998E0,4.124746025E-1,7.618792653E-1,-6.595623493E-1
2.630613905E0,5.248705149E-1,9.756757617E-1,-7.023216486E-1
2.633101978E0,5.822901726E-1,1.079519868E0,-7.450809479E-1
2.635589217E0,5.859552622E-1,1.074633002E0,-7.719582319E-1
2.638077342E0,5.419742465E-1,9.915578365E-1,-7.829535007E-1
2.640566248E0,4.698942602E-1,8.706100583E-1,-7.817317843E-1
2.643054321E0,3.831539452E-1,7.582141757E-1,-7.707365155E-1
2.645541561E0,2.988570333E-1,6.922426820E-1,-7.572978735E-1
2.648029686E0,2.243336588E-1,6.800256968E-1,-7.463026643E-1
2.650518592E0,1.534753740E-1,7.032378912E-1,-7.353073955E-1
2.653006665E0,9.116895497E-2,7.484406233E-1,-7.328640223E-1
2.655493905E0,3.619270027E-2,7.985301018E-1,-7.401941419E-1
2.657982030E0,-1.756185852E-2,8.351809382E-1,-7.548545003E-1
2.660470936E0,-7.131642103E-2,8.412894011E-1,-7.780666947E-1
2.662959009E0,-1.262926757E-1,8.156337738E-1,-8.049439788E-1
2.665446248E0,-1.837123185E-1,7.521057129E-1,-8.293778896E-1
2.667934373E0,-2.423536479E-1,6.641436815E-1,-8.477032781E-1
2.670423280E0,-3.009949923E-1,5.578562617E-1,-8.635852933E-1
2.672911353E0,-3.571929336E-1,4.479037523E-1,-8.709154725E-1
2.675398592E0,-4.048390090E-1,3.440597057E-1,-8.721371889E-1
2.677886717E0,-4.475983381E-1,2.475458533E-1,-8.684720993E-1
2.680375623E0,-4.866925478E-1,1.583621502E-1,-8.635852933E-1
2.682863696E0,-5.270084739E-1,7.650861889E-2,-8.550334573E-1
2.685350936E0,-5.551074743E-1,7.635590737E-4,-8.440381885E-1
2.687839061E0,-5.917583108E-1,-7.498150319E-2,-8.269344568E-1
2.690327967E0,-6.308525205E-1,-1.421747059E-1,-8.134958148E-1
2.692816040E0,-6.760551929E-1,-1.995943487E-1,-7.951704264E-1
2.695303280E0,-7.261446714E-1,-2.447970361E-1,-7.805100679E-1
2.697791405E0,-7.823426127E-1,-2.765611112E-1,-7.621846795E-1
2.700280311E0,-8.458707333E-1,-2.863346636E-1,-7.524111271E-1
2.702768384E0,-8.984035850E-1,-2.570139766E-1,-7.450809479E-1
2.705255623E0,-9.350544214E-1,-1.666085869E-1,-7.414158583E-1
2.707743748E0,-9.448279738E-1,-2.855710872E-2,-7.291989326E-1
2.710232655E0,-9.265025854E-1,1.278197914E-1,-7.169819474E-1
2.712720728E0,-8.959602118E-1,2.634278834E-1,-7.047650218E-1
2.715207967E0,-8.727480173E-1,3.416163325E-1,-6.791094542E-1
2.717696092E0,-8.690829277E-1,3.391729295E-1,-6.375718117E-1
2.720184998E0,-8.861866593E-1,2.585411072E-1,-5.838172436E-1
2.722673071E0,-9.240592122E-1,1.400367320E-1,-5.190674663E-1
2.725160259E0,-9.570449591E-1,9.315420873E-3,-4.469874799E-1
2.727648436E0,-9.875873327E-1,-1.128540337E-1,-3.749074936E-1
2.730137342E0,-1.008356094E0,-2.228065431E-1,-3.089359999E-1
2.732625415E0,-1.026681542E0,-3.229855001E-1,-2.637332976E-1
2.735112655E0,-1.046228647E0,-4.049917459E-1,-2.405211031E-1
2.737600780E0,-1.074327588E0,-4.563029110E-1,-2.380777150E-1
2.740089686E0,-1.108535051E0,-4.685198367E-1,-2.588465214E-1
2.742577759E0,-1.139077425E0,-4.257605374E-1,-3.040492237E-1
2.745064998E0,-1.154959440E0,-3.217637837E-1,-3.639122546E-1
2.747553123E0,-1.137855768E0,-1.324011385E-1,-4.359922409E-1
2.750042030E0,-1.081657767E0,1.608055383E-1,-5.251759291E-1
2.752530103E0,-9.839222431E-1,5.761816502E-1,-6.497887969E-1
2.755017342E0,-8.568660021E-1,1.062416077E0,-8.232693672E-1
2.757505467E0,-7.237012982E-1,1.544985414E0,-1.039509296E0
2.759994373E0,-6.161921620E-1,1.946922898E0,-1.262010455E0
2.762482446E0,-5.636593103E-1,2.209587336E0,-1.458703279E0
2.764969686E0,-5.673243999E-1,2.324426651E0,-1.607749939E0
2.767457811E0,-6.161921620E-1,2.336643457E0,-1.698155403E0
2.769946717E0,-7.017107606E-1,2.288997412E0,-1.723810911E0
2.772434790E0,-8.031114340E-1,2.181488276E0,-1.695711970E0
2.774921978E0,-9.093988538E-1,2.015337706E0,-1.615080118E0
2.777410155E0,-1.003469348E0,1.812536478E0,-1.500240922E0
2.779899061E0,-1.085322857E0,1.588966489E0,-1.370741248E0
2.782387134E0,-1.136633992E0,1.424037695E0,-1.251015186E0
2.784874321E0,-1.162289619E0,1.361731291E0,-1.174048424E0
2.787362498E0,-1.169619799E0,1.180920482E0,-1.109298587E0
2.789851353E0,-1.159846187E0,9.060391784E-1,-1.049282908E0
2.792339478E0,-1.137855768E0,6.055023670E-1,-9.943066239E-1
2.794826665E0,-1.099983215E0,3.037438095E-1,-9.454388618E-1
2.797314842E0,-1.058445573E0,3.374931216E-2,-9.075663090E-1
2.799803696E0,-1.014464617E0,-2.228065431E-1,-8.782456517E-1
2.802291821E0,-9.717052579E-1,-4.709632397E-1,-8.513683677E-1
2.804779009E0,-9.326110482E-1,-6.872031689E-1,-8.232693672E-1
2.807267186E0,-8.947384953E-1,-8.655705452E-1,-7.963921428E-1
2.809756040E0,-8.568660021E-1,-9.901834130E-1,-7.670714259E-1
2.812244165E0,-8.238802552E-1,-1.065928459E0,-7.365291119E-1
2.814731353E0,-7.933378816E-1,-1.105022669E0,-7.023216486E-1
2.817219530E0,-7.676823139E-1,-1.116017938E0,-6.644490957E-1
2.819708384E0,-7.505785823E-1,-1.095249176E0,-6.204680800E-1
2.822196509E0,-7.408050299E-1,-1.065928459E0,-5.703786016E-1
2.824683748E0,-7.395833135E-1,-1.048824787E0,-5.215108395E-1
2.827171873E0,-7.395833135E-1,-1.037829518E0,-4.836383164E-1
2.829660780E0,-7.420266867E-1,-1.023169160E0,-4.653128982E-1
2.832148853E0,-7.420266867E-1,-9.865183234E-1,-4.677563012E-1
2.834636040E0,-7.456917763E-1,-9.217684865E-1,-4.982986450E-1
2.837124217E0,-7.579087615E-1,-8.130376935E-1,-5.691569448E-1
2.839613071E0,-7.774558663E-1,-6.297835112E-1,-6.754443645E-1
2.842101196E0,-8.141067028E-1,-3.596363366E-1,-8.073873520E-1
2.844588384E0,-8.727480173E-1,-6.398624927E-2,-9.356653094E-1
2.847076561E0,-9.533798695E-1,1.143811494E-1,-1.048061132E0
2.849565415E0,-1.051115394E0,2.573194206E-1,-1.138619304E0
2.852053540E0,-1.162289619E0,4.002576768E-1,-1.222916245E0
2.854540728E0,-1.267355323E0,5.175403357E-1,-1.292552829E0
2.857028905E0,-1.368755937E0,6.055023670E-1,-1.347529054E0
2.859517759E0,-1.457939744E0,6.812474132E-1,-1.378071427E0
2.862005884E0,-1.530019641E0,7.472189069E-1,-1.389066696E0
2.864493071E0,-1.591104388E0,7.863131166E-1,-1.380514860E0
2.866981248E0,-1.642415524E0,8.021951914E-1,-1.358524323E0
2.869470103E0,-1.687618256E0,7.973083854E-1,-1.329203606E0
2.871958228E0,-1.725490808E0,7.643226385E-1,-1.287665963E0
2.874445415E0,-1.758476496E0,7.093463540E-1,-1.235133171E0
2.876933592E0,-1.784132123E0,6.323796511E-1,-1.174048424E0
2.879422446E0,-1.802457571E0,5.431959033E-1,-1.101968408E0
2.881910571E0,-1.806122661E0,4.515688419E-1,-1.019962192E0
2.884397759E0,-1.800014138E0,3.599417508E-1,-9.332218766E-1
2.886885936E0,-1.785353780E0,2.732014358E-1,-8.367080092E-1
2.889374790E0,-1.763363361E0,1.925695986E-1,-7.401941419E-1
2.891862915E0,-1.735264301E0,1.449235082E-1,-6.412369013E-1
2.894350103E0,-1.705943704E0,1.033858955E-1,-5.435013771E-1
2.896838280E0,-1.668071151E0,4.107947648E-2,-4.518742561E-1
2.899327134E0,-1.626533508E0,-3.710897267E-2,-3.675773442E-1
2.901815259E0,-1.580109119E0,-1.152974218E-1,-2.869454920E-1
2.904302446E0,-1.525132895E0,-1.898207814E-1,-2.124221325E-1
2.906790623E0,-1.461604834E0,-2.582356930E-1,-1.488940120E-1
2.909279478E0,-1.393189907E0,-3.168770075E-1,-9.269607067E-2
2.911767550E0,-1.323553324E0,-3.620797098E-1,-4.016320780E-2
2.914254790E0,-1.249029875E0,-3.987305462E-1,1.527118147E-4
2.916742967E0,-1.174506545E0,-4.282039404E-1,3.191677108E-2
2.919231821E0,-1.106091619E0,-4.526378214E-1,5.390727147E-2
2.921719894E0,-1.038898468E0,-4.758500159E-1,6.734590977E-2
2.924207134E0,-9.814788103E-1,-4.990622103E-1,6.734590977E-2
2.926695259E0,-9.301676750E-1,-5.186093450E-1,5.757235363E-2
2.929184165E0,-8.922951221E-1,-5.320479870E-1,3.680354729E-2
2.931672290E0,-8.641961813E-1,-5.357130170E-1,1.114796288E-2
2.934159478E0,-8.409839869E-1,-5.418215394E-1,-1.817270555E-2
2.936647603E0,-8.189934492E-1,-5.503733754E-1,-4.993676394E-2
2.939136509E0,-7.970029712E-1,-5.589252710E-1,-8.170082420E-2
2.941624582E0,-7.725690603E-1,-5.723638535E-1,-1.134648770E-1
2.944111821E0,-7.273663878E-1,-5.967977643E-1,-1.452289373E-1
2.946599946E0,-6.736118197E-1,-6.236750484E-1,-1.782146841E-1
2.949088853E0,-6.137487888E-1,-6.444438696E-1,-2.063136548E-1
2.951576978E0,-5.489989519E-1,-6.542174220E-1,-2.295258641E-1
2.954064165E0,-4.805840850E-1,-6.615476012E-1,-2.515163720E-1
2.956552290E0,-4.133908749E-1,-6.639909744E-1,-2.686200738E-1
2.959041196E0,-3.449759781E-1,-6.652126908E-1,-2.832804024E-1
2.961529269E0,-2.765611112E-1,-6.639909744E-1,-2.918322682E-1
2.964016509E0,-2.105895877E-1,-6.603258848E-1,-3.028275371E-1
2.966504634E0,-1.495048702E-1,-6.554391384E-1,-3.150444627E-1
2.968993540E0,-9.452861547E-2,-6.493306160E-1,-3.333698809E-1
2.971481613E0,-5.543438718E-2,-6.261184216E-1,-3.492519259E-1
2.973968853E0,-3.710897267E-2,-5.870242119E-1,-3.626905680E-1
2.976456978E0,-4.077405483E-2,-5.503733754E-1,-3.687990308E-1
2.978945884E0,-5.543438718E-2,-5.283828974E-1,-3.675773442E-1
2.981433957E0,-7.498150319E-2,-5.344913602E-1,-3.700207174E-1
2.983921196E0,-9.819369763E-2,-5.540384650E-1,-3.749074936E-1
2.986409321E0,-1.250709742E-1,-5.601469278E-1,-3.810159862E-1
2.988898228E0,-1.580567211E-1,-5.589252710E-1,-3.907895386E-1
2.991386300E0,-1.947075576E-1,-5.540384650E-1,-4.017847776E-1
2.993873540E0,-2.386885732E-1,-5.601469278E-1,-4.140017331E-1
2.996361665E0,-2.887780368E-1,-5.686988235E-1,-4.286620617E-1
2.998850571E0,-3.352024257E-1,-5.772506595E-1,-4.433223903E-1
3.001338644E0,-3.914003670E-1,-5.833591223E-1,-4.530959427E-1
3.003825884E0,-4.427115619E-1,-5.882459283E-1,-4.665345848E-1
3.006314009E0,-4.940227270E-1,-5.882459283E-1,-4.714213610E-1
3.008802915E0,-5.343386531E-1,-5.858024955E-1,-4.738647640E-1
3.011290988E0,-5.685460567E-1,-5.882459283E-1,-4.701996744E-1
3.013778228E0,-5.954233408E-1,-5.967977643E-1,-4.653128982E-1
3.016266353E0,-6.137487888E-1,-6.090146899E-1,-4.555393457E-1
3.018755259E0,-6.308525205E-1,-6.322268844E-1,-4.469874799E-1
3.021243332E0,-6.394043565E-1,-6.578825116E-1,-4.347705245E-1
3.023730571E0,-6.430694461E-1,-6.896465421E-1,-4.249969721E-1
3.026218696E0,-6.467345357E-1,-7.250757217E-1,-4.127800465E-1
3.028707603E0,-6.503996253E-1,-7.592831254E-1,-3.956763148E-1
3.031195675E0,-6.552863717E-1,-7.947123051E-1,-3.724641204E-1
3.033682915E0,-6.601731777E-1,-8.228112459E-1,-3.480302393E-1
3.036171040E0,-6.650599241E-1,-8.472451568E-1,-3.162661791E-1
3.038659946E0,-6.736118197E-1,-8.741224408E-1,-2.820587158E-1
3.041148019E0,-6.870504618E-1,-9.009997249E-1,-2.478512824E-1
3.043635259E0,-6.943806410E-1,-9.242119193E-1,-2.099787444E-1
3.046123384E0,-7.041541934E-1,-9.510892034E-1,-1.733279079E-1
3.048612290E0,-7.090409398E-1,-9.730796814E-1,-1.342336833E-1
3.051100363E0,-7.114843726E-1,-9.938485026E-1,-9.513945878E-2
3.053587603E0,-7.139277458E-1,-1.010952234E0,-5.726693198E-2
3.056075728E0,-7.102626562E-1,-1.023169160E0,-2.183778957E-2
3.058564634E0,-7.090409398E-1,-1.035386086E0,1.114796288E-2
3.061052707E0,-7.090409398E-1,-1.041494608E0,4.169032723E-2
3.063539946E0,-7.053758502E-1,-1.045159698E0,6.978929788E-2
3.066028071E0,-7.090409398E-1,-1.043937922E0,9.422318637E-2
3.068516978E0,-7.041541934E-1,-1.032942772E0,1.162136942E-1
3.071005050E0,-7.029324770E-1,-1.013395548E0,1.394258887E-1
3.073492290E0,-7.041541934E-1,-9.914051294E-1,1.589729935E-1
3.075980415E0,-7.029324770E-1,-9.645278454E-1,1.772984117E-1
3.078469321E0,-7.017107606E-1,-9.315420985E-1,1.956238300E-1
3.080957394E0,-7.004891038E-1,-8.973346353E-1,2.078407854E-1
3.083444634E0,-7.053758502E-1,-8.680139780E-1,2.078407854E-1
3.085932759E0,-7.078192830E-1,-8.313631415E-1,2.053973973E-1
3.088421665E0,-7.139277458E-1,-7.922688723E-1,1.931804419E-1
3.090909738E0,-7.163711190E-1,-7.507312894E-1,1.797417998E-1
3.093396978E0,-7.200362086E-1,-7.140804529E-1,1.601946950E-1
3.095885103E0,-7.200362086E-1,-6.810947061E-1,1.394258887E-1
3.098374009E0,-7.249229550E-1,-6.566607952E-1,1.137702987E-1
3.100862082E0,-7.273663878E-1,-6.371136904E-1,8.567132801E-2
3.103349321E0,-7.310314775E-1,-6.187883019E-1,5.268557742E-2
3.105837446E0,-7.334748507E-1,-5.992411375E-1,1.359135192E-2
3.108326353E0,-7.322531343E-1,-5.833591223E-1,-2.550287358E-2
3.110814425E0,-7.359182239E-1,-5.711421967E-1,-6.704048812E-2
3.113301665E0,-7.334748507E-1,-5.601469278E-1,-1.146865711E-1
3.115789790E0,-7.298097610E-1,-5.577035546E-1,-1.672194302E-1
3.118278696E0,-7.273663878E-1,-5.564818382E-1,-2.197522968E-1
3.120766769E0,-7.261446714E-1,-5.662553906E-1,-2.710634768E-1
3.123254009E0,-7.261446714E-1,-5.760289431E-1,-3.187095523E-1
3.125742134E0,-7.298097610E-1,-5.906893015E-1,-3.541387022E-1
3.128231040E0,-7.298097610E-1,-6.077930331E-1,-3.749074936E-1
3.130719113E0,-7.383615971E-1,-6.346703172E-1,-3.785725832E-1
3.133206353E0,-7.456917763E-1,-6.627692580E-1,-3.700207174E-1
3.135694478E0,-7.395833135E-1,-6.749862432E-1,-3.492519259E-1
3.138183384E0,-7.127060294E-1,-6.615476012E-1,-3.162661791E-1
3.140671457E0,-6.931589246E-1,-7.140804529E-1,-3.016058207E-1
3.143158696E0,-6.894938350E-1,-7.861604095E-1,-2.930539846E-1
3.145646821E0,-6.870504618E-1,-8.399149776E-1,-2.845021188E-1
3.148135728E0,-6.797202826E-1,-8.716790676E-1,-2.735068500E-1
3.150623800E0,-6.711684465E-1,-8.985562921E-1,-2.673983872E-1
3.153111040E0,-6.528429985E-1,-9.352071285E-1,-2.661767006E-1
3.155599165E0,-6.296308041E-1,-9.571976662E-1,-2.710634768E-1
3.158088071E0,-6.039752364E-1,-9.559759498E-1,-2.808370292E-1
3.160576144E0,-5.795413256E-1,-9.303203821E-1,-2.991624475E-1
3.163063384E0,-5.624375939E-1,-8.948912621E-1,-3.272614181E-1
3.165551509E0,-5.416688323E-1,-8.521319032E-1,-3.602471650E-1
3.168040415E0,-5.245651007E-1,-7.983773947E-1,-3.956763148E-1
3.170528488E0,-5.123481154E-1,-7.287407517E-1,-4.311054647E-1
3.173015728E0,-5.025745630E-1,-6.444438696E-1,-4.689779878E-1
3.175503853E0,-5.001311898E-1,-5.528167486E-1,-5.044071078E-1
3.177992759E0,-4.964661002E-1,-4.624113739E-1,-5.435013771E-1
3.180480832E0,-4.952444136E-1,-3.767400384E-1,-5.862606764E-1
3.182968071E0,-4.989095032E-1,-2.997733057E-1,-6.290199757E-1
3.185456196E0,-5.025745630E-1,-2.338017821E-1,-6.791094542E-1
3.187945103E0,-5.074613690E-1,-1.800472289E-1,-7.316423059E-1
3.190433175E0,-5.172349215E-1,-1.360662282E-1,-7.817317843E-1
3.192920415E0,-5.282301903E-1,-1.079672500E-1,-8.305995464E-1
3.195408540E0,-5.343386531E-1,-8.842013776E-2,-8.733588457E-1
3.197897446E0,-5.343386531E-1,-8.231166750E-2,-9.100096822E-1
3.200385519E0,-5.306735635E-1,-7.742489129E-2,-9.417737722E-1
3.202872759E0,-5.233433843E-1,-7.864658535E-2,-9.600991607E-1
3.205360884E0,-5.086830258E-1,-8.353336155E-2,-9.674293399E-1
3.207849790E0,-4.928010404E-1,-1.006370857E-1,-9.686510563E-1
3.210337863E0,-4.744756222E-1,-1.189625040E-1,-9.613208771E-1
3.212825103E0,-4.512633979E-1,-1.433963925E-1,-9.527690411E-1
3.215313228E0,-4.243861437E-1,-1.653869003E-1,-9.356653094E-1
3.217802134E0,-3.914003670E-1,-1.959292591E-1,-9.161182046E-1
3.220290207E0,-3.633013964E-1,-2.325800955E-1,-8.916842937E-1
3.222777446E0,-3.315373361E-1,-2.680092454E-1,-8.709154725E-1
3.225265571E0,-2.973299026E-1,-2.985515893E-1,-8.525900841E-1
3.227754478E0,-2.619007528E-1,-3.217637837E-1,-8.415948153E-1
3.230242550E0,-2.289150059E-1,-3.364241421E-1,-8.305995464E-1
3.232729790E0,-2.008160353E-1,-3.400892019E-1,-8.293778896E-1
3.235217915E0,-1.788255423E-1,-3.339807391E-1,-8.330429196E-1
3.237706821E0,-1.531699449E-1,-3.132119179E-1,-8.428165317E-1
3.240194894E0,-1.360662282E-1,-2.802261710E-1,-8.538117409E-1
3.242682134E0,-1.238492802E-1,-2.289150059E-1,-8.660287261E-1
3.245170259E0,-1.079672500E-1,-1.714953631E-1,-8.745805621E-1
3.247659165E0,-9.208522737E-2,-1.165191159E-1,-8.843541145E-1
3.250147238E0,-6.887302548E-2,-6.276455522E-2,-8.965710402E-1
3.252634478E0,-3.833066672E-2,-6.566607859E-3,-9.124531150E-1
3.255122603E0,-1.679830020E-3,4.474456236E-2,-9.271134138E-1
3.257611509E0,3.985778242E-2,9.239064902E-2,-9.295567870E-1
3.260099582E0,6.306997687E-2,1.571404636E-1,-8.953493834E-1
3.262586821E0,6.673506647E-2,2.218902707E-1,-8.110524416E-1
3.265074946E0,5.085303262E-2,2.780882120E-1,-7.157602906E-1
3.267563853E0,3.008422814E-2,3.269560039E-1,-6.375718117E-1
3.270051925E0,5.650337320E-3,3.746020794E-1,-5.789304972E-1
3.272539165E0,-2.611372061E-2,4.271349311E-1,-5.471664071E-1
3.275027290E0,-6.642963737E-2,4.894413650E-1,-5.459447503E-1
3.277516196E0,-1.116323397E-1,5.419742465E-1,-5.593833923E-1
3.280004269E0,-1.556133330E-1,6.042806506E-1,-5.874823332E-1
3.282491509E0,-2.008160353E-1,6.763606071E-1,-6.277982593E-1
3.284979634E0,-2.313583940E-1,7.521057129E-1,-6.632274389E-1
3.287468540E0,-2.533488870E-1,8.388460279E-1,-7.108734846E-1
3.289956613E0,-2.643441558E-1,9.365815520E-1,-7.707365155E-1
3.292443853E0,-2.435753495E-1,1.008661509E0,-8.281561732E-1
3.294931978E0,-2.057028115E-1,1.099066973E0,-8.941276670E-1
3.297420884E0,-1.568350345E-1,1.183363795E0,-9.735378027E-1
3.299908957E0,-6.887302548E-2,1.222458124E0,-1.030957460E0
3.302396196E0,3.008422814E-2,1.271325827E0,-1.088529825E0
3.304884321E0,1.241547018E-1,1.337297320E0,-1.156944752E0
3.307373228E0,2.255553454E-1,1.373948216E0,-1.219251156E0
3.309861300E0,3.171824515E-1,1.404490590E0,-1.268118858E0
3.312348488E0,3.978142738E-1,1.426481009E0,-1.316986680E0
3.314836665E0,4.711159468E-1,1.425259352E0,-1.351194143E0
3.317325571E0,5.419742465E-1,1.400825500E0,-1.368297815E0
3.319813644E0,5.957288146E-1,1.372726560E0,-1.380514860E0
3.322300832E0,6.336013079E-1,1.351957679E0,-1.403727055E0
3.324789009E0,6.531484127E-1,1.314085126E0,-1.428160906E0
3.327277915E0,6.629219651E-1,1.250557065E0,-1.447708011E0
3.329765988E0,6.653653979E-1,1.155264854E0,-1.447708011E0
3.332253228E0,6.592568755E-1,1.046534061E0,-1.441599488E0
3.334741353E0,6.421532035E-1,9.219212532E-1,-1.428160906E0
3.337230207E0,6.250494719E-1,7.911999226E-1,-1.420830727E0
3.339718332E0,6.091674566E-1,6.629219651E-1,-1.422052383E0
3.342205519E0,5.957288146E-1,5.395308137E-1,-1.433047652E0
3.344693696E0,5.810684562E-1,4.173613787E-1,-1.439156175E0
3.347182550E0,5.700731874E-1,3.000787199E-1,-1.413500547E0
3.349670675E0,5.480827093E-1,2.108950168E-1,-1.352415800E0
3.352157915E0,5.175403357E-1,1.595838517E-1,-1.273005724E0
3.354646040E0,4.760027230E-1,1.253764033E-1,-1.189930439E0
3.357134894E0,4.320217371E-1,1.046075895E-1,-1.120293856E0
3.359623019E0,3.917058110E-1,8.750387281E-2,-1.077534556E0
3.362110207E0,3.452814221E-1,9.483403713E-2,-1.060278177E0
3.364598384E0,2.951919436E-1,1.327065676E-1,-1.054169655E0
3.367087238E0,2.463241518E-1,1.742441803E-1,-1.050504565E0
3.369575363E0,2.035648525E-1,1.974563748E-1,-1.060278177E0
3.372062550E0,1.595838517E-1,2.121167034E-1,-1.082421303E0
3.374550728E0,1.290414780E-1,2.047865391E-1,-1.108076930E0
3.377039582E0,1.082726792E-1,1.669140160E-1,-1.126402378E0
3.379527707E0,1.046075895E-1,1.265980899E-1,-1.147171140E0
3.382014894E0,9.849911928E-2,9.239064902E-2,-1.166718245E0
3.384503071E0,9.727742523E-2,6.062658876E-2,-1.196038961E0
3.386991925E0,1.021642014E-1,2.886253223E-2,-1.230246425E0
3.389480050E0,1.143811494E-1,-1.511846948E-2,-1.249793530E0
3.391967238E0,1.375933439E-1,-7.253811508E-2,-1.257123709E0
3.394455415E0,1.669140160E-1,-1.324011385E-1,-1.253458619E0
3.396944269E0,1.913478971E-1,-1.824906170E-1,-1.251015186E0
3.399432394E0,2.243336588E-1,-2.301367074E-1,-1.246128440E0
3.401919582E0,2.585411072E-1,-2.777827978E-1,-1.236354828E0
3.404407759E0,2.939702570E-1,-3.290939629E-1,-1.225359559E0
3.406896613E0,3.281776905E-1,-3.694098890E-1,-1.211920977E0
3.409384738E0,3.574983478E-1,-3.938437700E-1,-1.209477544E0
3.411871925E0,3.831539452E-1,-4.049917459E-1,-1.213142633E0
3.414360050E0,4.075878263E-1,-4.111002088E-1,-1.227802992E0
3.416848957E0,4.295783341E-1,-4.147652984E-1,-1.242463350E0
3.419337082E0,4.491254389E-1,-4.147652984E-1,-1.254680276E0
3.421824269E0,4.711159468E-1,-4.086568058E-1,-1.263232112E0
3.424312394E0,4.894413650E-1,-3.975088596E-1,-1.266897202E0
3.426801300E0,5.077667832E-1,-3.865135908E-1,-1.266897202E0
3.429289425E0,5.212054253E-1,-3.657447994E-1,-1.268118858E0
3.431776613E0,5.260922313E-1,-3.266505599E-1,-1.265675545E0
3.434264738E0,5.236487985E-1,-2.496838123E-1,-1.252236843E0
3.436753644E0,5.212054253E-1,-1.458397806E-1,-1.232689738E0
3.439241717E0,5.163186193E-1,-1.018587798E-1,-1.237576604E0
3.441728957E0,5.053234100E-1,-1.018587798E-1,-1.249793530E0
3.444217134E0,4.894413650E-1,-1.214058921E-1,-1.266897202E0
3.446705988E0,4.698942602E-1,-1.421747059E-1,-1.286444306E0
3.449194061E0,4.576773047E-1,-1.299577504E-1,-1.302326322E0
3.451681300E0,4.588989913E-1,-7.375980914E-2,-1.307213187E0
3.454169425E0,4.613423944E-1,-3.588727489E-2,-1.312099934E0
3.456658332E0,4.637857676E-1,-2.122694254E-2,-1.313321590E0
3.459146457E0,4.625640810E-1,-2.977880463E-2,-1.313321590E0
3.461633644E0,4.625640810E-1,-4.199574888E-2,-1.307213187E0
3.464121769E0,4.613423944E-1,-4.810422286E-2,-1.294996142E0
3.466610675E0,4.540122151E-1,-4.199574888E-2,-1.280335903E0
3.469098748E0,4.417952895E-1,-3.710897267E-2,-1.255901933E0
3.471585988E0,4.295783341E-1,-4.199574888E-2,-1.227802992E0
3.474074113E0,4.112529159E-1,-5.176930502E-2,-1.193595529E0
3.476563019E0,3.782671690E-1,-5.665608495E-2,-1.155722976E0
3.479051092E0,3.526115716E-1,-5.787777901E-2,-1.116628766E0
3.481538332E0,3.232909143E-1,-5.787777901E-2,-1.081199646E0
3.484026457E0,2.976353168E-1,-5.909947306E-2,-1.054169655E0
3.486515363E0,2.707580328E-1,-5.543438718E-2,-1.027292371E0
3.489003436E0,2.451024652E-1,-4.810422286E-2,-1.000415087E0
3.491490675E0,2.267770469E-1,-3.344388679E-2,-9.674293399E-1
3.493978800E0,2.206685692E-1,-2.611372061E-2,-9.442171454E-1
3.496467707E0,2.182251811E-1,-4.199574888E-2,-9.271134138E-1
3.498955780E0,2.206685692E-1,-7.986827940E-2,-9.148964882E-1
3.501443019E0,2.133384049E-1,-1.470614821E-1,-9.002361298E-1
3.503931144E0,2.035648525E-1,-2.399102598E-1,-8.831323981E-1
3.506420050E0,1.876828223E-1,-3.486410677E-1,-8.709154725E-1
3.508908123E0,1.681357026E-1,-4.624113739E-1,-8.611419201E-1
3.511395363E0,1.485885978E-1,-5.686988235E-1,-8.586985469E-1
3.513883488E0,1.265980899E-1,-6.737645268E-1,-8.586985469E-1
3.516372394E0,9.972081333E-2,-7.641699314E-1,-8.599202037E-1
3.518860467E0,7.406523079E-2,-8.215895891E-1,-8.550334573E-1
3.521347707E0,4.963133857E-2,-8.521319032E-1,-8.489249945E-1
3.523835832E0,2.641914412E-2,-8.619054556E-1,-8.391514421E-1
3.526324738E0,1.053711493E-2,-8.423583508E-1,-8.257128000E-1
3.528812811E0,-7.788302377E-3,-8.008207679E-1,-8.110524416E-1
3.531300050E0,-2.122694254E-2,-7.324058414E-1,-7.988355160E-1
3.533788175E0,-3.588727489E-2,-6.468872428E-1,-7.927270532E-1
3.536277082E0,-5.176930502E-2,-5.503733754E-1,-7.951704264E-1
3.538765155E0,-6.642963737E-2,-4.330907166E-1,-8.000571728E-1
3.541252394E0,-7.009471953E-2,-2.985515893E-1,-8.122741580E-1
3.543740519E0,-7.009471953E-2,-1.531699449E-1,-8.269344568E-1
3.546229425E0,-5.909947306E-2,1.985253533E-3,-8.464815617E-1
3.548717498E0,-4.199574888E-2,1.620272398E-1,-8.648070097E-1
3.551204738E0,-1.023169141E-2,3.257342875E-1,-8.831323981E-1
3.553692863E0,2.275406010E-2,4.821111858E-1,-9.014578462E-1
3.556181769E0,6.306997687E-2,6.287145615E-1,-9.222266674E-1
3.558669842E0,1.033858955E-1,7.667660117E-1,-9.491039515E-1
3.561157082E0,1.424801201E-1,8.999307156E-1,-9.772028923E-1
3.563645207E0,1.876828223E-1,1.033095479E0,-1.012632012E0
3.566134113E0,2.304421216E-1,1.161373377E0,-1.050504565E0
3.568622186E0,2.707580328E-1,1.274990916E0,-1.081199646E0
3.571109425E0,3.122956753E-1,1.372726560E0,-1.105633497E0
3.573597550E0,3.477247953E-1,1.447249889E0,-1.116628766E0
3.576086457E0,3.770454824E-1,1.504669547E0,-1.125180602E0
3.578574530E0,4.027010500E-1,1.555980682E0,-1.126402378E0
3.581061769E0,4.234698713E-1,1.604848504E0,-1.126402378E0
3.583549894E0,4.393518865E-1,1.643942714E0,-1.120293856E0
3.586038800E0,4.564556181E-1,1.679371834E0,-1.109298587E0
3.588526873E0,4.625640810E-1,1.714800954E0,-1.094638348E0
3.591014113E0,4.711159468E-1,1.742899895E0,-1.076312900E0
3.593502238E0,4.857762754E-1,1.767333865E0,-1.052947998E0
3.595991144E0,4.992149174E-1,1.784437537E0,-1.026070714E0
3.598479217E0,5.138752460E-1,1.784437537E0,-9.943066239E-1
3.600966457E0,5.285356045E-1,1.772220612E0,-9.625425935E-1
3.603454582E0,5.224271417E-1,1.694032192E0,-9.246700406E-1
3.605943488E0,3.904841244E-1,1.196802497E0,-8.965710402E-1
3.608431561E0,1.608055383E-1,4.283566475E-1,-8.428165317E-1
3.610918800E0,4.107947648E-2,4.474456236E-2,-7.426375747E-1
3.613406925E0,5.818320066E-2,6.184828654E-2,-6.155813336E-1
3.615895832E0,1.265980899E-1,1.718007922E-1,-4.934118688E-1
3.618383905E0,1.950129867E-1,2.121167034E-1,-3.968980014E-1
3.620871144E0,2.487675399E-1,1.742441803E-1,-3.223746419E-1
3.623359269E0,2.927485406E-1,1.229330078E-1,-2.576248348E-1
3.625848175E0,3.257342875E-1,9.361234307E-2,-1.928750277E-1
3.628336248E0,3.367295563E-1,7.040014863E-2,-1.293469071E-1
3.630823488E0,3.196258247E-1,3.619270027E-2,-7.437065244E-2
3.633311613E0,2.866400778E-1,-2.367033064E-2,-5.726693198E-2
3.635800519E0,2.377723008E-1,-7.620319724E-2,-6.948387623E-2
3.638288592E0,1.852394342E-1,-1.214058921E-1,-7.803573459E-2
3.640775832E0,1.327065676E-1,-1.458397806E-1,-7.925742865E-2
3.643263957E0,7.895200700E-2,-1.507265568E-1,-7.925742865E-2
3.645752863E0,2.764083818E-2,-1.568350345E-1,-8.170082420E-2
3.648240936E0,-2.122694254E-2,-1.751604527E-1,-8.658760041E-2
3.650728175E0,-6.765133142E-2,-2.044811249E-1,-9.147437662E-2
3.653216300E0,-1.091889441E-1,-2.411319613E-1,-1.061347127E-1
3.655705207E0,-1.446180940E-1,-2.753393948E-1,-1.232384369E-1
3.658193280E0,-1.751604527E-1,-3.144336343E-1,-1.427855492E-1
3.660680519E0,-1.995943487E-1,-3.498627543E-1,-1.598892659E-1
3.663168644E0,-2.228065431E-1,-3.840702176E-1,-1.757712960E-1
3.665657550E0,-2.362451702E-1,-4.025483429E-1,-1.843231618E-1
3.668145623E0,-2.496838123E-1,-4.086568058E-1,-1.855448484E-1
3.670632863E0,-2.570139766E-1,-4.098785222E-1,-1.843231618E-1
3.673120988E0,-2.655658424E-1,-4.111002088E-1,-1.794363856E-1
3.675609894E0,-2.728960216E-1,-4.159869850E-1,-1.696628332E-1
3.678097967E0,-2.765611112E-1,-4.147652984E-1,-1.550024897E-1
3.680585207E0,-2.802261710E-1,-4.147652984E-1,-1.427855492E-1
3.683073332E0,-2.851129472E-1,-4.098785222E-1,-1.281252056E-1
3.685562238E0,-2.863346636E-1,-4.049917459E-1,-1.134648770E-1
3.688050311E0,-2.887780368E-1,-3.975088596E-1,-9.636115283E-2
3.690537550E0,-2.863346636E-1,-3.901786804E-1,-7.803573459E-2
3.693025675E0,-2.826695740E-1,-3.791834414E-1,-5.971032009E-2
3.695514582E0,-2.765611112E-1,-3.681881726E-1,-4.382828996E-2
3.698002655E0,-2.680092454E-1,-3.559712470E-1,-2.916795574E-2
3.700489894E0,-2.533488870E-1,-3.400892019E-1,-1.817270555E-2
3.702978019E0,-2.264716178E-1,-2.997733057E-1,1.527118147E-4
3.705466925E0,-1.898207814E-1,-2.728960216E-1,1.725643501E-2
3.707954998E0,-1.556133330E-1,-2.728960216E-1,2.825168520E-2
3.710442238E0,-1.214058921E-1,-2.643441558E-1,3.191677108E-2
3.712930363E0,-8.719844371E-2,-2.484621257E-1,3.191677108E-2
3.715419269E0,-5.787777901E-2,-2.423536479E-1,2.458660305E-2
3.717907342E0,-3.344388679E-2,-2.399102598E-1,1.603474095E-2
3.720394582E0,-1.023169141E-2,-2.313583940E-1,8.704573847E-3
3.722882707E0,1.985253533E-3,-2.142546773E-1,-2.290677279E-3
3.725371613E0,4.428642802E-3,-2.069245130E-1,-1.328592747E-2
3.727859686E0,7.635590737E-4,-2.069245130E-1,-2.428117767E-2
3.730346873E0,-4.123218823E-3,-2.069245130E-1,-2.794626169E-2
3.732835050E0,-1.634016447E-2,-2.069245130E-1,-2.305948362E-2
3.735323957E0,-2.855710872E-2,-2.105895877E-1,-1.572931744E-2
3.737812030E0,-4.077405483E-2,-2.154763639E-1,-1.084253844E-2
3.740299269E0,-6.032116711E-2,-2.252499312E-1,-7.177455351E-3
3.742787394E0,-7.986827940E-2,-2.338017821E-1,-4.734066315E-3
3.745276300E0,-1.030804738E-1,-2.374668717E-1,-2.290677279E-3
3.747764373E0,-1.214058921E-1,-2.399102598E-1,1.527118147E-4
3.750251561E0,-1.433963925E-1,-2.447970361E-1,3.817795310E-3
3.752739738E0,-1.653869003E-1,-2.484621257E-1,8.704573847E-3
3.755228592E0,-1.861557066E-1,-2.509055138E-1,1.603474095E-2
3.757716717E0,-2.093679011E-1,-2.545706034E-1,3.069507517E-2
3.760203905E0,-2.313583940E-1,-2.582356930E-1,4.779879749E-2
3.762692082E0,-2.484621257E-1,-2.619007528E-1,7.223268598E-2
3.765180936E0,-2.667875290E-1,-2.680092454E-1,9.666658193E-2
3.767669061E0,-2.814478874E-1,-2.802261710E-1,1.149920002E-1
3.770156248E0,-2.912214398E-1,-2.912214398E-1,1.320957243E-1
3.772644425E0,-2.985515893E-1,-2.948864996E-1,1.443126649E-1
3.775133280E0,-3.046600819E-1,-2.948864996E-1,1.626380831E-1
3.777621405E0,-3.022166789E-1,-2.973299026E-1,1.797417998E-1
3.780108592E0,-2.961082160E-1,-2.961082160E-1,2.017323077E-1
3.782596769E0,-2.851129472E-1,-2.973299026E-1,2.200577259E-1
3.785085623E0,-2.680092454E-1,-2.973299026E-1,2.383831441E-1
3.787573748E0,-2.496838123E-1,-2.985515893E-1,2.530434728E-1
3.790060936E0,-2.325800955E-1,-2.985515893E-1,2.603736520E-1
3.792549113E0,-2.154763639E-1,-2.985515893E-1,2.689255178E-1
3.795037967E0,-1.983726472E-1,-2.887780368E-1,2.811424434E-1
3.797526092E0,-1.800472289E-1,-2.643441558E-1,3.019112647E-1
3.800013280E0,-1.678302884E-1,-2.423536479E-1,3.300102353E-1
3.802501405E0,-1.543916464E-1,-2.228065431E-1,3.617742956E-1
3.804990311E0,-1.519482583E-1,-2.093679011E-1,3.984251320E-1
3.807478436E0,-1.458397806E-1,-1.959292591E-1,4.326325655E-1
3.809965623E0,-1.360662282E-1,-1.800472289E-1,4.595098495E-1
3.812453748E0,-1.177408099E-1,-1.751604527E-1,4.778352678E-1
3.814942655E0,-9.086353332E-2,-1.849340051E-1,4.863871336E-1
3.817430780E0,-5.543438718E-2,-2.008160353E-1,4.790569544E-1
3.819917967E0,-7.788302377E-3,-2.093679011E-1,4.643966258E-1
3.822406144E0,4.963133857E-2,-2.191414535E-1,4.399627447E-1
3.824894998E0,1.082726792E-1,-2.264716178E-1,3.984251320E-1
3.827383123E0,1.705790907E-1,-2.362451702E-1,3.495573401E-1
3.829870311E0,2.255553454E-1,-2.460187376E-1,2.933593988E-1
3.832358436E0,2.732014358E-1,-2.411319613E-1,2.371614426E-1
3.834847342E0,3.122956753E-1,-2.276933193E-1,1.821851879E-1
3.837335415E0,3.440597057E-1,-2.093679011E-1,1.308740228E-1
3.839822655E0,3.697153032E-1,-1.861557066E-1,8.200624585E-2
3.842310780E0,3.941491842E-1,-1.812689304E-1,3.436015919E-2
3.844799686E0,4.136963189E-1,-1.947075576E-1,-1.817270555E-2
3.847287811E0,4.283566475E-1,-2.203631550E-1,-6.948387623E-2
3.849774998E0,4.417952895E-1,-2.496838123E-1,-1.244601309E-1
3.852263123E0,4.515688419E-1,-2.838912606E-1,-1.745496094E-1
3.854752030E0,4.576773047E-1,-3.486410677E-1,-2.099787444E-1
3.857240103E0,4.613423944E-1,-4.159869850E-1,-2.490729690E-1
3.859727342E0,4.637857676E-1,-4.685198367E-1,-2.893888950E-1
3.862215467E0,4.711159468E-1,-5.222744346E-1,-3.272614181E-1
3.864704373E0,4.808894992E-1,-5.784723759E-1,-3.578037918E-1
3.867192446E0,4.943281412E-1,-6.420004964E-1,-3.846810758E-1
3.869679686E0,5.212054253E-1,-7.140804529E-1,-4.054498672E-1
3.872167811E0,5.468609929E-1,-7.898254991E-1,-4.176668227E-1
3.874656717E0,5.822901726E-1,-8.667922616E-1,-4.213318825E-1
3.877144790E0,6.103891134E-1,-9.425373077E-1,-4.262186885E-1
3.879632030E0,6.397097707E-1,-1.020725727E0,-4.335488379E-1
3.882120155E0,6.617003083E-1,-1.100135922E0,-4.433223903E-1
3.884609061E0,6.812474132E-1,-1.185654521E0,-4.555393457E-1
3.887097134E0,7.007945180E-1,-1.273616552E0,-4.689779878E-1
3.889584373E0,7.154548764E-1,-1.355470061E0,-4.824166298E-1
3.892072498E0,7.276718020E-1,-1.431215167E0,-4.934118688E-1
3.894561405E0,7.484406233E-1,-1.483747959E0,-5.031854510E-1
3.897049478E0,7.924215794E-1,-1.454427361E0,-5.105155706E-1
3.899536717E0,8.681666851E-1,-1.323706031E0,-5.141806602E-1
3.902024842E0,9.390249252E-1,-1.185654521E0,-5.166240931E-1
3.904513748E0,1.004996419E0,-1.050046444E0,-5.117372870E-1
3.907001821E0,1.072189689E0,-9.205468297E-1,-5.044071078E-1
3.909489061E0,1.135717750E0,-7.922688723E-1,-4.982986450E-1
3.911977186E0,1.198024154E0,-6.505523324E-1,-4.885250926E-1
3.914466092E0,1.246891975E0,-5.137225389E-1,-4.824166298E-1
3.916954165E0,1.281099439E0,-3.938437700E-1,-4.811949134E-1
3.919441405E0,1.295759797E0,-3.009949923E-1,-4.848600030E-1
3.921929530E0,1.285986185E0,-2.179197669E-1,-4.787515402E-1
3.924418436E0,1.246891975E0,-1.152974218E-1,-4.567610323E-1
3.926906509E0,1.167481780E0,-1.023169141E-2,-4.152234197E-1
3.929393748E0,1.108840466E0,5.696150661E-2,-3.602471650E-1
3.931881873E0,1.086849928E0,1.449235082E-1,-2.845021188E-1
3.934370780E0,1.048977494E0,2.487675399E-1,-2.124221325E-1
3.936858853E0,1.022100210E0,3.135173619E-1,-1.721062213E-1
3.939346092E0,9.891144037E-1,3.538332880E-1,-1.562241912E-1
3.941834217E0,9.243646264E-1,3.794888556E-1,-1.672194302E-1
3.944323123E0,8.327375054E-1,3.941491842E-1,-1.806580722E-1
3.946811196E0,7.398887277E-1,3.990359604E-1,-1.892099380E-1
3.949298436E0,6.604785919E-1,3.978142738E-1,-1.892099380E-1
3.951786561E0,5.700731874E-1,3.941491842E-1,-2.002051920E-1
3.954275467E0,4.760027230E-1,3.917058110E-1,-2.295258641E-1
3.956763540E0,3.904841244E-1,3.892624080E-1,-2.796153426E-1
3.959250780E0,2.903051674E-1,4.161396921E-1,-3.309265077E-1
3.961738905E0,2.108950168E-1,4.259132445E-1,-3.859027624E-1
3.964227811E0,1.510319859E-1,4.527905285E-1,-4.274403751E-1
3.966715884E0,1.009425074E-1,5.187620521E-1,-4.506525695E-1
3.969203123E0,7.162184268E-2,6.384881139E-1,-4.176668227E-1
3.971691248E0,7.650861889E-2,7.398887277E-1,-3.455868363E-1
3.974180155E0,9.972081333E-2,8.376243114E-1,-2.551814318E-1
3.976668228E0,1.290414780E-1,9.512419105E-1,-1.598892659E-1
3.979155467E0,1.437018216E-1,1.036760569E0,-7.070557028E-2
3.981643592E0,1.644706279E-1,1.068524599E0,1.527118147E-4
3.984132498E0,1.608055383E-1,1.096623540E0,6.978929788E-2
3.986620571E0,1.510319859E-1,1.101510286E0,1.259872466E-1
3.989107811E0,1.669140160E-1,1.103953719E0,1.736333370E-1
3.991595936E0,1.730224788E-1,1.136939406E0,2.127275616E-1
3.994084842E0,2.194468826E-1,1.177255392E0,2.518217862E-1
3.996572915E0,2.695363462E-1,1.088071704E0,2.970244884E-1
3.999060155E0,3.110739589E-1,8.657232523E-1,3.410054743E-1
4.001548280E0,3.831539452E-1,6.494833231E-1,3.703261614E-1
4.004037186E0,4.931064546E-1,5.407525301E-1,3.972034156E-1
4.006525259E0,6.311579347E-1,5.199837089E-1,4.265241027E-1
4.009012498E0,7.679877281E-1,5.725166202E-1,4.619532526E-1
4.011500623E0,8.278507590E-1,7.374453545E-1,5.144860744E-1
4.013989530E0,8.437327743E-1,9.011524320E-1,5.376983285E-1
4.016477603E0,8.632798791E-1,9.439117312E-1,5.157077909E-1
4.018964842E0,8.852704167E-1,8.852704167E-1,4.619532526E-1
4.021452967E0,8.938222528E-1,8.046385646E-1,3.898732662E-1
4.023941873E0,8.828269839E-1,6.873558760E-1,2.958027720E-1
4.026429946E0,8.449544907E-1,5.407525301E-1,2.029540092E-1
4.028917186E0,7.985301018E-1,3.953709006E-1,1.149920002E-1
4.031405311E0,7.765395641E-1,2.047865391E-1,1.969982497E-2
4.033894217E0,7.472189069E-1,5.451811850E-2,-6.215370819E-2
4.036382290E0,7.203416228E-1,-5.543438718E-2,-1.537808031E-1
4.038869530E0,6.922426820E-1,-1.641651988E-1,-2.551814318E-1
4.041357655E0,6.323796511E-1,-2.118112892E-1,-3.455868363E-1
4.043846561E0,5.749599934E-1,-2.350234836E-1,-4.262186885E-1
4.046334634E0,5.309789777E-1,-3.119902313E-1,-5.019637346E-1
4.048821873E0,5.126535892E-1,-3.791834414E-1,-5.667135715E-1
4.051309998E0,5.224271417E-1,-4.074351192E-1,-6.180247068E-1
4.053798905E0,5.493044257E-1,-4.514161348E-1,-6.839962006E-1
4.056286978E0,5.847335458E-1,-5.503733754E-1,-7.805100679E-1
4.058774217E0,6.250494719E-1,-6.456655264E-1,-8.819107413E-1
4.061262342E0,6.641436815E-1,-7.421793938E-1,-9.833113551E-1
4.063751248E0,6.849125028E-1,-8.606837988E-1,-1.077534556E0
4.066239321E0,6.800256968E-1,-9.804098606E-1,-1.163053155E0
4.068726509E0,6.617003083E-1,-1.034164429E0,-1.226581335E0
4.071214686E0,6.409314871E-1,-9.950701594E-1,-1.277892470E0
4.073703592E0,6.189410090E-1,-9.107732773E-1,-1.314543247E0
4.076191665E0,6.164975762E-1,-7.995990515E-1,-1.341420531E0
4.078678853E0,6.091674566E-1,-7.116370797E-1,-1.376849771E0
4.081167030E0,5.981721878E-1,-6.505523324E-1,-1.411057115E0
4.083655936E0,5.725166202E-1,-5.931326747E-1,-1.441599488E0
4.086144009E0,5.370874405E-1,-5.112791657E-1,-1.466033459E0
4.088631196E0,5.053234100E-1,-4.098785222E-1,-1.492910743E0
4.091119373E0,4.601207078E-1,-2.851129472E-1,-1.513679504E0
4.093608280E0,4.332434237E-1,-1.543916464E-1,-1.540556788E0
4.096096353E0,4.124746025E-1,-2.611372061E-2,-1.571099162E0
4.098583592E0,3.965925872E-1,8.506047726E-2,-1.618745208E0
4.101071717E0,3.880407214E-1,1.889045089E-1,-1.670056462E0
4.103560571E0,3.855973184E-1,2.854183912E-1,-1.731141090E0
4.106048696E0,3.770454824E-1,3.782671690E-1,-1.787339091E0
4.108535884E0,3.648285270E-1,4.479037523E-1,-1.850867152E0
4.111024061E0,3.550549746E-1,5.065450668E-1,-1.916838646E0
4.113512915E0,3.416163325E-1,5.456393361E-1,-1.986475229E0
4.116001040E0,3.269560039E-1,5.639647245E-1,-2.052446842E0
4.118488228E0,3.171824515E-1,5.590779781E-1,-2.126970053E0
4.120976405E0,3.110739589E-1,5.541911721E-1,-2.211266994E0
4.123465259E0,3.049654961E-1,5.517477989E-1,-2.305337667E0
4.125953384E0,3.135173619E-1,5.578562617E-1,-2.395742893E0
4.128440571E0,3.220692277E-1,5.712949038E-1,-2.482483149E0
4.130928748E0,3.330644667E-1,5.883986354E-1,-2.566780090E0
4.133417603E0,3.428380191E-1,6.164975762E-1,-2.638860226E0
4.135905728E0,3.513898849E-1,6.629219651E-1,-2.695058107E0
4.138392915E0,3.477247953E-1,7.154548764E-1,-2.724378824E0
4.140881040E0,3.416163325E-1,7.728744745E-1,-2.724378824E0
4.143369946E0,3.196258247E-1,8.327375054E-1,-2.697501421E0
4.145858071E0,2.866400778E-1,9.023740888E-1,-2.641303539E0
4.148345259E0,2.451024652E-1,9.817842841E-1,-2.560671806E0
4.150833436E0,1.986780763E-1,1.051420808E0,-2.491035223E0
4.153322290E0,1.485885978E-1,1.092958450E0,-2.425063610E0
4.155810415E0,1.156028435E-1,1.117392302E0,-2.371309042E0
4.158297603E0,9.239064902E-2,1.112505555E0,-2.327327967E0
4.160785780E0,8.017370105E-2,1.096623540E0,-2.305337667E0
4.163274634E0,6.306997687E-2,1.062416077E0,-2.293120623E0
4.165762759E0,3.741439432E-2,1.004996419E0,-2.289455414E0
4.168249946E0,9.315420873E-3,9.475768209E-1,-2.294342279E0
4.170738071E0,-2.244863659E-2,8.938222528E-1,-2.304115772E0
4.173226978E0,-5.299099907E-2,8.388460279E-1,-2.317554474E0
4.175715050E0,-8.231166750E-2,7.936432958E-1,-2.333436489E0
4.178202290E0,-1.091889441E-1,7.313368917E-1,-2.352983713E0
4.180690467E0,-1.495048702E-1,6.519267559E-1,-2.368865728E0
4.183179321E0,-1.788255423E-1,5.847335458E-1,-2.374974251E0
4.185667394E0,-2.044811249E-1,5.370874405E-1,-2.372530699E0
4.188154634E0,-2.154763639E-1,5.187620521E-1,-2.350540161E0
4.190642759E0,-2.057028115E-1,5.016583204E-1,-2.326106310E0
4.193131665E0,-2.032594234E-1,4.479037523E-1,-2.290677309E0
4.195619738E0,-2.179197669E-1,3.684936166E-1,-2.216153860E0
4.198106978E0,-2.582356930E-1,2.609844804E-1,-2.108644724E0
4.200595103E0,-3.547495604E-1,1.314848661E-1,-2.010909081E0
4.203084009E0,-4.622586668E-1,1.908897609E-2,-1.958376288E0
4.205572082E0,-5.648810267E-1,-9.208522737E-2,-1.931499004E0
4.208059321E0,-6.467345357E-1,-2.447970361E-1,-1.918060422E0
4.210547446E0,-7.200362086E-1,-4.306473136E-1,-1.899734974E0
4.213036353E0,-8.018897176E-1,-6.187883019E-1,-1.850867152E0
4.215524425E0,-8.849649429E-1,-7.861604095E-1,-1.756796718E0
4.218011665E0,-9.546015263E-1,-9.376505613E-1,-1.613858461E0
4.220499790E0,-9.912523627E-1,-1.081810474E0,-1.401283622E0
4.222988696E0,-9.863656163E-1,-1.234522343E0,-1.132510781E0
4.225476769E0,-9.081771374E-1,-1.353026628E0,-8.428165317E-1
4.227964009E0,-7.139277458E-1,-1.357913494E0,-5.508314967E-1
4.230452134E0,-4.182776511E-1,-1.265064716E0,-3.431434333E-1
4.232941040E0,-7.375980914E-2,-1.102579355E0,-2.564031482E-1
4.235429165E0,2.622061968E-1,-9.315420985E-1,-2.698417902E-1
4.237916353E0,5.224271417E-1,-8.594620824E-1,-3.590254784E-1
4.240404478E0,6.629219651E-1,-9.193251133E-1,-4.323271513E-1
4.242893384E0,6.763606071E-1,-1.058598280E0,-4.213318825E-1
4.245381457E0,6.018372774E-1,-1.202758312E0,-3.211529553E-1
4.247868696E0,4.760027230E-1,-1.300493836E0,-1.928750277E-1
4.250356821E0,3.367295563E-1,-1.332257867E0,-7.437065244E-2
4.252845728E0,2.072299272E-1,-1.293163657E0,1.114796288E-2
4.255333800E0,8.506047726E-2,-1.208866715E0,6.978929788E-2
4.257821040E0,-2.733541466E-2,-1.097692490E0,1.039967462E-1
4.260309165E0,-1.238492802E-1,-9.706363082E-1,1.247655526E-1
4.262798071E0,-2.093679011E-1,-8.460234404E-1,1.223221645E-1
4.265286144E0,-2.814478874E-1,-7.214106321E-1,1.101052165E-1
4.267773384E0,-3.437542915E-1,-6.102364063E-1,8.567132801E-2
4.270261509E0,-3.962871730E-1,-5.063923597E-1,5.512896553E-2
4.272750415E0,-4.427115619E-1,-4.147652984E-1,2.214321308E-2
4.275238488E0,-4.854708612E-1,-3.339807391E-1,-1.084253844E-2
4.277725728E0,-5.196782947E-1,-2.704526186E-1,-3.649812192E-2
4.280213853E0,-5.477772951E-1,-2.252499312E-1,-5.482354015E-2
4.282702759E0,-5.685460567E-1,-2.008160353E-1,-7.070557028E-2
4.285190832E0,-5.795413256E-1,-2.020377368E-1,-8.292251825E-2
4.287678071E0,-5.893148780E-1,-2.228065431E-1,-8.903098851E-2
4.290166196E0,-5.966450572E-1,-2.582356930E-1,-9.025268257E-2
4.292655103E0,-5.954233408E-1,-3.034383655E-1,-8.780929446E-2
4.295143175E0,-5.942016840E-1,-3.547495604E-1,-7.925742865E-2
4.297630415E0,-5.856497884E-1,-4.037700295E-1,-6.948387623E-2
4.300118540E0,-5.734328628E-1,-4.489727318E-1,-5.726693198E-2
4.302607446E0,-5.624375939E-1,-4.831801951E-1,-4.016320780E-2
4.305095519E0,-5.526640415E-1,-5.076140761E-1,-2.061609551E-2
4.307582759E0,-5.392253995E-1,-5.173876286E-1,2.596100792E-3
4.310070884E0,-5.282301903E-1,-5.161659122E-1,2.458660305E-2
4.312559790E0,-5.172349215E-1,-5.063923597E-1,5.268557742E-2
4.315047863E0,-5.086830258E-1,-4.929537475E-1,7.956285775E-2
4.317535103E0,-5.086830258E-1,-4.856235683E-1,1.064401343E-1
4.320023228E0,-5.196782947E-1,-4.868452549E-1,1.357607991E-1
4.322512134E0,-5.221216679E-1,-4.917320311E-1,1.638597846E-1
4.325000207E0,-5.184566379E-1,-4.978405237E-1,1.882936656E-1
4.327487446E0,-5.025745630E-1,-4.892886579E-1,2.066190839E-1
4.329975571E0,-4.744756222E-1,-4.697415531E-1,2.237228155E-1
4.332464478E0,-4.475983381E-1,-4.355340898E-1,2.249445021E-1
4.334952550E0,-4.219427407E-1,-3.645231128E-1,1.797417998E-1
4.337439790E0,-3.791834414E-1,-2.557922900E-1,1.284306347E-1
4.339927915E0,-3.193204105E-1,-1.385096163E-1,7.467607409E-2
4.342416821E0,-2.460187376E-1,-3.833066672E-2,8.704573847E-3
4.344904894E0,-1.666085869E-1,2.764083818E-2,-6.826218218E-2
4.347392134E0,-9.208522737E-2,4.840964451E-2,-1.452289373E-1
4.349880259E0,-2.733541466E-2,3.130592033E-2,-2.087570578E-1
4.352369165E0,1.908897609E-2,-6.566607859E-3,-2.490729690E-1
4.354857238E0,4.596625641E-2,-5.299099907E-2,-2.673983872E-1
4.357344478E0,5.451811850E-2,-1.043021679E-1,-2.673983872E-1
4.359832603E0,4.107947648E-2,-1.507265568E-1,-2.539597452E-1
4.362321509E0,1.420219894E-2,-1.837123185E-1,-2.356343269E-1
4.364809582E0,-3.588727489E-2,-2.325800955E-1,-2.197522968E-1
4.367296821E0,-9.208522737E-2,-2.899997234E-1,-2.112004459E-1
4.369784946E0,-1.519482583E-1,-3.449759781E-1,-2.026485801E-1
4.372273853E0,-2.081461996E-1,-3.938437700E-1,-2.002051920E-1
4.374761925E0,-2.594573796E-1,-4.355340898E-1,-2.014268786E-1
4.377249165E0,-3.095468581E-1,-4.636330605E-1,-2.050919682E-1
4.379737290E0,-3.486410677E-1,-4.685198367E-1,-2.026485801E-1
4.382226196E0,-3.767400384E-1,-4.514161348E-1,-1.989834905E-1
4.384714269E0,-3.987305462E-1,-4.208737612E-1,-1.953184158E-1
4.387201509E0,-4.243861437E-1,-4.049917459E-1,-1.928750277E-1
4.389689634E0,-4.451549351E-1,-3.962871730E-1,-1.892099380E-1
4.392178488E0,-4.756973088E-1,-3.975088596E-1,-1.928750277E-1
4.394666613E0,-5.099047422E-1,-4.159869850E-1,-1.965401024E-1
4.397153853E0,-5.465555787E-1,-4.330907166E-1,-2.002051920E-1
4.399641978E0,-5.758762360E-1,-4.440859556E-1,-2.014268786E-1
4.402130884E0,-5.942016840E-1,-4.563029110E-1,-2.002051920E-1
4.404618957E0,-5.990884304E-1,-4.697415531E-1,-2.002051920E-1
4.407106144E0,-5.942016840E-1,-4.807367921E-1,-2.014268786E-1
4.409594321E0,-5.709894896E-1,-4.844018817E-1,-1.965401024E-1
4.412083175E0,-5.343386531E-1,-4.734066129E-1,-1.928750277E-1
4.414571300E0,-4.928010404E-1,-4.440859556E-1,-1.806580722E-1
4.417058540E0,-4.475983381E-1,-3.840702176E-1,-1.647760421E-1
4.419546665E0,-3.938437700E-1,-3.217637837E-1,-1.537808031E-1
4.422035519E0,-3.449759781E-1,-2.814478874E-1,-1.623326540E-1
4.424523644E0,-3.083251417E-1,-2.570139766E-1,-1.806580722E-1
4.427010832E0,-2.838912606E-1,-2.399102598E-1,-2.038702667E-1
4.429499009E0,-2.716743052E-1,-2.215848416E-1,-2.209739983E-1
4.431987863E0,-2.680092454E-1,-1.947075576E-1,-2.319692522E-1
4.434475988E0,-2.716743052E-1,-1.556133330E-1,-2.368560284E-1
4.436963175E0,-2.802261710E-1,-1.091889441E-1,-2.368560284E-1
4.439451353E0,-2.838912606E-1,-5.176930502E-2,-2.331909388E-1
4.441940207E0,-2.875563502E-1,4.428642802E-3,-2.270824611E-1
4.444428332E0,-2.899997234E-1,5.207473040E-2,-2.246390730E-1
4.446915519E0,-2.948864996E-1,7.773031294E-2,-2.234173864E-1
4.449403696E0,-2.997733057E-1,8.261708915E-2,-2.221956849E-1
4.451892550E0,-3.022166789E-1,6.917845458E-2,-2.246390730E-1
4.454380675E0,-3.046600819E-1,4.474456236E-2,-2.270824611E-1
4.456867863E0,-2.985515893E-1,2.886253223E-2,-2.258607745E-1
4.459355988E0,-2.887780368E-1,3.619270027E-2,-2.209739983E-1
4.461844894E0,-2.790044844E-1,6.062658876E-2,-2.136438340E-1
4.464333019E0,-2.704526186E-1,8.872556686E-2,-2.075353563E-1
4.466820207E0,-2.643441558E-1,1.119377613E-1,-1.989834905E-1
4.469308384E0,-2.472404242E-1,1.608055383E-1,-1.965401024E-1
4.471797238E0,-2.191414535E-1,2.402156889E-1,-1.879882365E-1
4.474285311E0,-1.885990947E-1,3.196258247E-1,-1.806580722E-1
4.476772550E0,-1.690519750E-1,3.672719002E-1,-1.745496094E-1
4.479260675E0,-1.556133330E-1,3.587200642E-1,-1.708845198E-1
4.481749582E0,-1.568350345E-1,3.196258247E-1,-1.733279079E-1
4.484237707E0,-1.727170646E-1,2.536543310E-1,-1.831014603E-1
4.486724894E0,-1.971509457E-1,1.485885978E-1,-1.977618039E-1
4.489213071E0,-2.240282297E-1,3.497100621E-2,-2.148655206E-1
4.491701925E0,-2.215848416E-1,-7.009471953E-2,-1.879882365E-1
4.494189998E0,-1.959292591E-1,-1.849340051E-1,-1.330119967E-1
4.496677238E0,-1.837123185E-1,-3.071034551E-1,-9.391776472E-2
4.499165363E0,-1.885990947E-1,-4.147652984E-1,-7.559234649E-2
4.501654269E0,-2.069245130E-1,-4.880669713E-1,-6.581879407E-2
4.504142342E0,-2.276933193E-1,-5.222744346E-1,-7.314895838E-2
4.506629582E0,-2.484621257E-1,-5.271611810E-1,-9.636115283E-2
4.509117707E0,-2.728960216E-1,-4.941754341E-1,-1.195733473E-1
4.511606613E0,-2.863346636E-1,-4.062134326E-1,-1.269035190E-1
4.514094738E0,-2.875563502E-1,-2.997733057E-1,-1.244601309E-1
4.516581925E0,-2.790044844E-1,-2.069245130E-1,-1.146865711E-1
4.519070050E0,-2.643441558E-1,-1.409530044E-1,-1.134648770E-1
4.521558957E0,-2.570139766E-1,-1.104106456E-1,-1.134648770E-1
4.524047030E0,-2.509055138E-1,-1.030804738E-1,-1.146865711E-1
4.526534269E0,-2.509055138E-1,-1.067455560E-1,-1.171299592E-1
4.529022394E0,-2.509055138E-1,-1.128540337E-1,-1.122431830E-1
4.531511300E0,-2.509055138E-1,-1.079672500E-1,-1.000262350E-1
4.533999373E0,-2.509055138E-1,-1.018587798E-1,-8.536590636E-2
4.536486613E0,-2.533488870E-1,-9.330692142E-2,-6.948387623E-2
4.538974738E0,-2.533488870E-1,-8.353336155E-2,-5.482354015E-2
4.541463644E0,-2.533488870E-1,-7.498150319E-2,-4.504998401E-2
4.543951717E0,-2.545706034E-1,-7.009471953E-2,-3.527642787E-2
4.546438957E0,-2.570139766E-1,-6.276455522E-2,-2.916795574E-2
4.548927082E0,-2.545706034E-1,-5.665608495E-2,-2.305948362E-2
4.551415988E0,-2.557922900E-1,-5.421269313E-2,-1.817270555E-2
4.553904061E0,-2.460187376E-1,-5.787777901E-2,-1.206423342E-2
4.556391300E0,-2.362451702E-1,-6.520794332E-2,-1.068982761E-3
4.558879425E0,-2.264716178E-1,-6.887302548E-2,1.114796288E-2
4.561368332E0,-2.179197669E-1,-7.009471953E-2,2.336490713E-2
4.563856405E0,-2.130329758E-1,-6.642963737E-2,2.947338112E-2
4.566343644E0,-2.057028115E-1,-6.032116711E-2,3.680354729E-2
4.568831769E0,-2.032594234E-1,-5.787777901E-2,3.680354729E-2
4.571320675E0,-1.947075576E-1,-5.787777901E-2,3.191677108E-2
4.573808748E0,-1.824906170E-1,-5.665608495E-2,2.947338112E-2
4.576295988E0,-1.727170646E-1,-5.543438718E-2,3.436015919E-2
4.578784113E0,-1.629435122E-1,-4.810422286E-2,3.313846514E-2
4.581273019E0,-1.531699449E-1,-4.688252881E-2,3.558185324E-2
4.583761092E0,-1.421747059E-1,-4.443913698E-2,3.680354729E-2
4.586248332E0,-1.324011385E-1,-3.955236077E-2,3.436015919E-2
4.588736457E0,-1.201841980E-1,-3.588727489E-2,3.191677108E-2
4.591225363E0,-1.140757278E-1,-2.611372061E-2,2.825168520E-2
4.593713436E0,-1.043021679E-1,-1.389677543E-2,2.092151903E-2
4.596200675E0,-9.330692142E-2,-1.679830020E-3,1.481304597E-2
4.598688800E0,-8.353336155E-2,1.298050396E-2,1.236965694E-2
4.601177707E0,-8.108997345E-2,2.764083818E-2,8.704573847E-3
4.603665780E0,-7.620319724E-2,3.985778242E-2,5.039489828E-3
4.606153019E0,-6.887302548E-2,5.085303262E-2,1.374406274E-3
4.608641144E0,-6.642963737E-2,5.818320066E-2,1.527118147E-4
4.611130050E0,-6.520794332E-2,6.551336497E-2,-3.512371797E-3
4.613618123E0,-6.276455522E-2,7.406523079E-2,-7.177455351E-3
4.616105363E0,-6.154286116E-2,8.017370105E-2,-8.399149403E-3
4.618593488E0,-6.520794332E-2,8.261708915E-2,-7.177455351E-3
4.621082394E0,-6.520794332E-2,8.261708915E-2,-5.955760833E-3
4.623570467E0,-6.642963737E-2,8.017370105E-2,-7.177455351E-3
4.626057707E0,-5.909947306E-2,8.017370105E-2,-5.955760833E-3
4.628545832E0,-5.665608495E-2,8.506047726E-2,-5.955760833E-3
4.631034738E0,-5.176930502E-2,9.483403713E-2,-5.955760833E-3
4.633522811E0,-5.176930502E-2,1.094943732E-1,-5.955760833E-3
4.636010050E0,-5.421269313E-2,1.253764033E-1,-4.734066315E-3
4.638498175E0,-5.665608495E-2,1.400367320E-1,-1.068982761E-3
4.640987082E0,-6.276455522E-2,1.510319859E-1,-1.068982761E-3
4.643475155E0,-6.887302548E-2,1.571404636E-1,1.527118147E-4
4.645962394E0,-7.131642103E-2,1.608055383E-1,1.527118147E-4
4.648450519E0,-7.742489129E-2,1.681357026E-1,1.374406274E-3
4.650939425E0,-7.986827940E-2,1.705790907E-1,1.374406274E-3
4.653427498E0,-8.353336155E-2,1.705790907E-1,2.596100792E-3
4.655914738E0,-9.208522737E-2,1.669140160E-1,1.374406274E-3
4.658402863E0,-9.819369763E-2,1.644706279E-1,2.596100792E-3
4.660891769E0,-1.043021679E-1,1.620272398E-1,2.596100792E-3
4.663379842E0,-1.079672500E-1,1.644706279E-1,2.596100792E-3
4.665867082E0,-1.116323397E-1,1.620272398E-1,2.596100792E-3
4.668355207E0,-1.152974218E-1,1.608055383E-1,2.596100792E-3
4.670844113E0,-1.165191159E-1,1.595838517E-1,-1.068982761E-3
4.673332186E0,-1.189625040E-1,1.583621502E-1,-4.734066315E-3
4.675819425E0,-1.189625040E-1,1.583621502E-1,-9.620844387E-3
4.678307550E0,-1.214058921E-1,1.583621502E-1,-1.328592747E-2
4.680796457E0,-1.201841980E-1,1.571404636E-1,-1.695101149E-2
4.683284530E0,-1.152974218E-1,1.595838517E-1,-2.061609551E-2
4.685771769E0,-1.091889441E-1,1.632489264E-1,-2.550287358E-2
4.688259894E0,-1.030804738E-1,1.644706279E-1,-2.794626169E-2
4.690748800E0,-9.452861547E-2,1.644706279E-1,-3.161134571E-2
4.693236873E0,-8.719844371E-2,1.669140160E-1,-3.527642787E-2
4.695724113E0,-7.986827940E-2,1.681357026E-1,-3.649812192E-2
4.698212238E0,-7.131642103E-2,1.705790907E-1,-4.138490185E-2
4.700701144E0,-6.765133142E-2,1.730224788E-1,-4.138490185E-2
4.703189217E0,-5.787777901E-2,1.766875684E-1,-4.382828996E-2
4.705676405E0,-5.421269313E-2,1.827960461E-1,-4.504998401E-2
4.708164582E0,-4.932591692E-2,1.876828223E-1,-4.993676394E-2
4.710653488E0,-4.321744293E-2,1.889045089E-1,-5.238015205E-2
4.713141561E0,-4.321744293E-2,1.913478971E-1,-5.360184610E-2
4.715628800E0,-3.466558084E-2,1.937913001E-1,-5.604523420E-2
4.718116925E0,-3.344388679E-2,1.950129867E-1,-5.726693198E-2
4.720605780E0,-3.466558084E-2,1.937913001E-1,-5.848862603E-2
4.723093905E0,-2.977880463E-2,1.901262105E-1,-5.848862603E-2
4.725581092E0,-2.977880463E-2,1.876828223E-1,-5.971032009E-2
4.728069269E0,-3.100049868E-2,1.852394342E-1,-5.726693198E-2
4.730558175E0,-2.977880463E-2,1.840177327E-1,-5.604523420E-2
4.733046248E0,-3.710897267E-2,1.803526580E-1,-5.360184610E-2
4.735533436E0,-3.833066672E-2,1.803526580E-1,-5.238015205E-2
4.738021613E0,-4.199574888E-2,1.742441803E-1,-4.993676394E-2
4.740510467E0,-4.688252881E-2,1.718007922E-1,-4.871506989E-2
4.742998592E0,-4.932591692E-2,1.681357026E-1,-4.627167806E-2
4.745485780E0,-5.299099907E-2,1.644706279E-1,-4.627167806E-2
4.747973957E0,-5.909947306E-2,1.644706279E-1,-4.260659590E-2
4.750462811E0,-6.765133142E-2,1.620272398E-1,-4.016320780E-2
4.752950936E0,-7.131642103E-2,1.571404636E-1,-3.649812192E-2
4.755438123E0,-7.986827940E-2,1.546970755E-1,-3.405473381E-2
4.757926300E0,-8.719844371E-2,1.485885978E-1,-3.161134571E-2
4.760415155E0,-9.208522737E-2,1.437018216E-1,-2.794626169E-2
4.762903280E0,-9.819369763E-2,1.375933439E-1,-2.550287358E-2
4.765390467E0,-9.819369763E-2,1.327065676E-1,-2.428117767E-2
4.767878644E0,-1.043021679E-1,1.265980899E-1,-2.305948362E-2
4.770367498E0,-1.055238619E-1,1.168245375E-1,-1.939439960E-2
4.772855623E0,-1.079672500E-1,1.094943732E-1,-1.939439960E-2
4.775342811E0,-1.091889441E-1,1.033858955E-1,-1.817270555E-2
4.777830988E0,-1.116323397E-1,9.483403713E-2,-1.817270555E-2
4.780319842E0,-1.079672500E-1,8.994726092E-2,-1.695101149E-2
4.782807915E0,-1.091889441E-1,8.628217876E-2,-1.572931744E-2
4.785295155E0,-1.055238619E-1,8.017370105E-2,-1.572931744E-2
4.787783332E0,-1.043021679E-1,7.406523079E-2,-1.572931744E-2
4.790272186E0,-1.067455560E-1,6.795676053E-2,-1.695101149E-2
4.792760311E0,-1.043021679E-1,6.306997687E-2,-1.817270555E-2
4.795247498E0,-1.018587798E-1,5.818320066E-2,-2.061609551E-2
4.797735623E0,-1.006370857E-1,5.207473040E-2,-2.183778957E-2
4.800224530E0,-9.941539168E-2,4.840964451E-2,-2.305948362E-2
4.802712603E0,-9.941539168E-2,4.352286831E-2,-2.550287358E-2
4.805199842E0,-9.575030953E-2,3.741439432E-2,-2.672456764E-2
4.807687967E0,-9.208522737E-2,2.641914412E-2,-2.672456764E-2
4.810176873E0,-8.842013776E-2,9.315420873E-3,-3.038965166E-2
4.812664946E0,-8.353336155E-2,-9.009997360E-3,-3.161134571E-2
4.815152186E0,-7.742489129E-2,-2.611372061E-2,-3.405473381E-2
4.817640311E0,-7.009471953E-2,-3.588727489E-2,-3.405473381E-2
4.820129217E0,-6.154286116E-2,-4.321744293E-2,-3.649812192E-2
4.822617290E0,-5.787777901E-2,-4.688252881E-2,-3.405473381E-2
4.825104530E0,-5.665608495E-2,-4.077405483E-2,-2.916795574E-2
4.827592655E0,-5.787777901E-2,-2.611372061E-2,-2.550287358E-2
4.830081561E0,-6.154286116E-2,-1.267508045E-2,-2.550287358E-2
4.832569634E0,-6.398624927E-2,-1.679830020E-3,-2.550287358E-2
4.835056873E0,-6.642963737E-2,9.315420873E-3,-2.916795574E-2
4.837544998E0,-6.765133142E-2,1.664558798E-2,-3.161134571E-2
4.840033905E0,-6.520794332E-2,2.275406010E-2,-3.527642787E-2
4.842521978E0,-6.520794332E-2,2.519745007E-2,-3.649812192E-2
4.845009217E0,-6.276455522E-2,2.153236605E-2,-3.771981969E-2
4.847497342E0,-6.032116711E-2,2.031067200E-2,-3.649812192E-2
4.849986248E0,-5.909947306E-2,1.664558798E-2,-3.527642787E-2
4.852474321E0,-6.032116711E-2,1.175880991E-2,-3.283303976E-2
4.854961561E0,-6.032116711E-2,6.872031838E-3,-3.161134571E-2
4.857449686E0,-6.154286116E-2,7.635590737E-4,-3.038965166E-2
4.859938592E0,-6.520794332E-2,-4.581354442E-4,-2.916795574E-2
4.862426665E0,-6.154286116E-2,-2.901524538E-3,-2.794626169E-2
4.864913905E0,-6.276455522E-2,-2.901524538E-3,-2.672456764E-2
4.867402030E0,-6.276455522E-2,-7.788302377E-3,-2.672456764E-2
4.869890936E0,-6.398624927E-2,-1.267508045E-2,-3.038965166E-2
4.872379009E0,-6.765133142E-2,-2.000524849E-2,-2.794626169E-2
4.874866248E0,-6.887302548E-2,-2.733541466E-2,-2.794626169E-2
4.877354373E0,-7.009471953E-2,-3.466558084E-2,-2.672456764E-2
4.879843280E0,-7.009471953E-2,-4.199574888E-2,-2.916795574E-2
4.882331353E0,-7.131642103E-2,-4.810422286E-2,-2.672456764E-2
4.884818592E0,-6.887302548E-2,-5.054761097E-2,-2.916795574E-2
4.887306717E0,-6.276455522E-2,-5.054761097E-2,-2.916795574E-2
4.889795623E0,-6.398624927E-2,-4.932591692E-2,-2.916795574E-2
4.892283696E0,-6.154286116E-2,-4.932591692E-2,-2.794626169E-2
4.894770936E0,-6.276455522E-2,-5.054761097E-2,-2.672456764E-2
4.897259061E0,-6.642963737E-2,-5.665608495E-2,-2.672456764E-2
4.899747967E0,-6.520794332E-2,-6.520794332E-2,-2.550287358E-2
4.902236040E0,-6.398624927E-2,-6.642963737E-2,-2.428117767E-2
4.904723280E0,-6.032116711E-2,-5.054761097E-2,-2.305948362E-2
4.907211405E0,-6.276455522E-2,-4.932591692E-2,-2.305948362E-2
4.909700311E0,-7.864658535E-2,-7.986827940E-2,-1.939439960E-2
4.912188384E0,-8.353336155E-2,-1.189625040E-1,-1.450762246E-2
4.914675623E0,-8.353336155E-2,-1.311794519E-1,-1.068982761E-3
4.917163748E0,-7.864658535E-2,-1.324011385E-1,6.261184346E-3
4.919652655E0,-6.765133142E-2,-1.360662282E-1,5.039489828E-3
4.922140728E0,-6.398624927E-2,-1.385096163E-1,1.527118147E-4
4.924627967E0,-5.787777901E-2,-1.336228400E-1,-4.734066315E-3
4.927116092E0,-5.421269313E-2,-1.324011385E-1,-7.177455351E-3
4.929604998E0,-5.176930502E-2,-1.372879148E-1,-7.177455351E-3
4.932093071E0,-5.054761097E-2,-1.446180940E-1,-9.620844387E-3
4.934580311E0,-5.299099907E-2,-1.556133330E-1,-1.328592747E-2
4.937068436E0,-5.299099907E-2,-1.714953631E-1,-1.817270555E-2
4.939557342E0,-5.421269313E-2,-1.885990947E-1,-2.428117767E-2
4.942045415E0,-5.421269313E-2,-1.995943487E-1,-2.794626169E-2
4.944532655E0,-5.054761097E-2,-2.081461996E-1,-3.405473381E-2
4.947020780E0,-5.054761097E-2,-2.191414535E-1,-3.894151375E-2
4.949509686E0,-4.810422286E-2,-2.240282297E-1,-4.138490185E-2
4.951997759E0,-4.810422286E-2,-2.325800955E-1,-4.260659590E-2
4.954484998E0,-4.566083103E-2,-2.423536479E-1,-4.871506989E-2
4.956973123E0,-4.566083103E-2,-2.472404242E-1,-4.993676394E-2
4.959462030E0,-4.199574888E-2,-2.423536479E-1,-4.749337584E-2
4.961950103E0,-4.688252881E-2,-2.301367074E-1,-4.382828996E-2
4.964437342E0,-4.810422286E-2,-2.203631550E-1,-4.504998401E-2
4.966925467E0,-4.932591692E-2,-2.154763639E-1,-4.871506989E-2
4.969414373E0,-4.932591692E-2,-2.142546773E-1,-4.993676394E-2
4.971902446E0,-5.054761097E-2,-2.240282297E-1,-4.993676394E-2
4.974389686E0,-5.421269313E-2,-2.374668717E-1,-5.360184610E-2
4.976877811E0,-5.543438718E-2,-2.509055138E-1,-5.482354015E-2
4.979366717E0,-5.543438718E-2,-2.594573796E-1,-6.215370819E-2
4.981854790E0,-5.299099907E-2,-2.631224692E-1,-6.459710002E-2
4.984342030E0,-5.299099907E-2,-2.680092454E-1,-6.581879407E-2
4.986830155E0,-5.176930502E-2,-2.667875290E-1,-6.459710002E-2
4.989319061E0,-4.932591692E-2,-2.680092454E-1,-6.337540597E-2
4.991807134E0,-4.566083103E-2,-2.704526186E-1,-6.093201414E-2
4.994294373E0,-4.199574888E-2,-2.716743052E-1,-5.848862603E-2
4.996782498E0,-3.955236077E-2,-2.753393948E-1,-5.604523420E-2
4.999271405E0,-3.588727489E-2,-2.814478874E-1,-5.604523420E-2
5.001759478E0,-3.222219273E-2,-2.863346636E-1,-5.360184610E-2
5.004246665E0,-2.611372061E-2,-2.912214398E-1,-5.360184610E-2
5.006734842E0,-2.489202656E-2,-2.912214398E-1,-4.993676394E-2
5.009223748E0,-2.122694254E-2,-2.936648130E-1,-5.115845799E-2
5.011711821E0,-1.511846948E-2,-2.899997234E-1,-4.993676394E-2
5.014199009E0,-1.511846948E-2,-2.899997234E-1,-4.749337584E-2
5.016687186E0,-1.389677543E-2,-2.887780368E-1,-4.749337584E-2
5.019176040E0,-1.267508045E-2,-2.899997234E-1,-4.871506989E-2
5.021664165E0,-7.788302377E-3,-2.899997234E-1,-4.749337584E-2
5.024151353E0,-6.566607859E-3,-2.948864996E-1,-4.504998401E-2
5.026639530E0,-6.566607859E-3,-2.973299026E-1,-4.138490185E-2
5.029128384E0,-5.344913341E-3,-3.022166789E-1,-4.016320780E-2
5.031616509E0,-4.123218823E-3,-3.071034551E-1,-3.771981969E-2
5.034103696E0,-4.123218823E-3,-3.144336343E-1,-3.527642787E-2
5.036591873E0,-2.901524538E-3,-3.205420971E-1,-3.161134571E-2
5.039080728E0,-2.901524538E-3,-3.266505599E-1,-3.161134571E-2
5.041568853E0,-5.344913341E-3,-3.364241421E-1,-2.916795574E-2
5.044056040E0,-6.566607859E-3,-3.413109183E-1,-2.672456764E-2
5.046544217E0,-7.788302377E-3,-3.474193811E-1,-2.550287358E-2
5.049033071E0,-9.009997360E-3,-3.559712470E-1,-2.305948362E-2
5.051521196E0,-1.145338640E-2,-3.620797098E-1,-2.183778957E-2
5.054008384E0,-1.389677543E-2,-3.657447994E-1,-1.939439960E-2
5.056496561E0,-1.389677543E-2,-3.694098890E-1,-1.695101149E-2
5.058985415E0,-1.389677543E-2,-3.681881726E-1,-1.328592747E-2
