"Time (s)","Acceleration x (m/s^2)","Acceleration y (m/s^2)","Acceleration z (m/s^2)"
3.217192000E-2,-1.831039429E0,4.940399170E0,9.834930420E0
3.720732000E-2,-1.285156250E0,4.672241211E0,9.152587891E0
4.224272100E-2,-1.869338989E0,4.581268311E0,8.872467041E0
4.727812100E-2,-2.384094238E0,4.648300171E0,9.298629761E0
5.231352200E-2,-1.984268188E0,4.569305420E0,9.190902710E0
5.734892200E-2,-1.464721680E0,4.444793701E0,9.131042480E0
6.241484000E-2,-7.584228516E-1,4.028213501E0,8.247573853E0
6.745024000E-2,-1.349792480E0,4.123977661E0,8.309829712E0
7.248564100E-2,-1.819061279E0,4.289169312E0,8.556427002E0
7.752104100E-2,-1.847793579E0,4.404098511E0,8.858108521E0
8.255644200E-2,-1.608367920E0,4.404098511E0,8.968231201E0
8.759184200E-2,-1.340225220E0,4.317901611E0,8.803039551E0
9.265776000E-2,-1.081649780E0,4.339447021E0,8.999359131E0
9.769316000E-2,-7.680053711E-1,4.425643921E0,8.882049561E0
1.027285610E-1,-5.908355713E-1,4.344238281E0,8.604309082E0
1.077639610E-1,-1.766357422E-1,4.262832642E0,8.501373291E0
1.128298790E-1,9.390258789E-2,4.260452271E0,8.453475952E0
1.178652790E-1,5.081176758E-2,4.200592041E0,8.518127441E0
1.229311970E-1,1.034851074E-1,4.181442261E0,8.458267212E0
1.279665980E-1,2.327728271E-1,4.147918701E0,8.233215332E0
1.330019980E-1,3.045959473E-1,4.121582031E0,7.967453003E0
1.380679160E-1,3.764190674E-1,4.145523071E0,7.622695923E0
1.431033170E-1,3.931884766E-1,4.116790771E0,7.292297363E0
1.481387170E-1,3.452911377E-1,4.044967651E0,7.083999634E0
1.532046350E-1,4.171295166E-1,3.956375122E0,6.882888794E0
1.582400350E-1,4.961395264E-1,3.827102661E0,6.736831665E0
1.632754360E-1,5.919036865E-1,3.657104492E0,6.624313354E0
1.683108360E-1,7.666778564E-1,3.465576172E0,6.550094604E0
1.733462370E-1,9.534301758E-1,3.259674072E0,6.614730835E0
1.784121540E-1,1.130599976E0,3.041793823E0,6.885284424E0
1.834475550E-1,1.322128296E0,2.845474243E0,7.242019653E0
1.884829550E-1,1.492126465E0,2.723373413E0,7.754379272E0
1.935183560E-1,1.607040405E0,2.687454224E0,8.202087402E0
1.985842740E-1,1.810546875E0,2.744918823E0,8.561218262E0
2.036196740E-1,1.899139404E0,2.821533203E0,8.800643921E0
2.086550740E-1,1.982925415E0,2.969970703E0,8.855712891E0
2.137209920E-1,2.035598755E0,3.197418213E0,8.800643921E0
2.187563930E-1,2.004486084E0,3.424865723E0,8.700088501E0
2.237917930E-1,1.987716675E0,3.654708862E0,8.633041382E0
2.288271940E-1,2.073913574E0,3.800765991E0,8.664169312E0
2.338625940E-1,2.181655884E0,3.901321411E0,8.642623901E0
2.389285120E-1,2.258270264E0,3.815124512E0,8.494186401E0
2.439639120E-1,2.275024414E0,3.470352173E0,8.216461182E0
2.489993130E-1,2.425857544E0,2.931671143E0,7.943511963E0
2.540347130E-1,2.263046265E0,2.603652954E0,7.625091553E0
2.591006310E-1,2.081100464E0,2.606048584E0,7.553268433E0
2.641360310E-1,2.480926514E0,2.476760864E0,8.008163452E0
2.691714320E-1,3.105804443E0,2.550979614E0,8.053649902E0
2.742373500E-1,2.916671753E0,2.637176514E0,7.364120483E0
2.792727500E-1,2.729919434E0,2.534225464E0,6.423202515E0
2.843081510E-1,2.684432983E0,2.378601074E0,5.783950806E0
2.893435510E-1,2.682037354E0,2.273254395E0,5.652267456E0
2.944094690E-1,2.655700684E0,2.268463135E0,5.815078735E0
2.994448690E-1,2.349243164E0,2.160736084E0,6.624313354E0
3.044802700E-1,1.753082275E0,2.155944824E0,8.391235352E0
3.095156700E-1,1.034820557E0,2.579711914E0,1.062263489E1
3.145815880E-1,4.530334473E-1,3.180664062E0,1.170240784E1
3.196169880E-1,6.278076172E-1,3.748092651E0,1.143186951E1
3.246523890E-1,1.563949585E0,4.013839722E0,1.045503235E1
3.296877890E-1,2.619781494E0,4.056945801E0,9.174133301E0
3.347537070E-1,3.345230103E0,4.013839722E0,8.101531982E0
3.397891080E-1,3.840835571E0,3.795974731E0,7.996185303E0
3.448245080E-1,4.403472900E0,3.554153442E0,8.369689941E0
3.498599080E-1,4.233474731E0,3.288406372E0,9.099914551E0
3.549258260E-1,3.551132202E0,2.955612183E0,9.126251221E0
3.599612270E-1,3.206375122E0,3.211791992E0,9.636215210E0
3.649966270E-1,3.314102173E0,2.773651123E0,9.557205200E0
3.700320280E-1,3.385940552E0,2.412124634E0,9.052032471E0
3.750979450E-1,3.479309082E0,2.280441284E0,8.877258301E0
3.801333460E-1,3.742675781E0,2.122421265E0,8.757537842E0
3.851687460E-1,4.262207031E0,2.048202515E0,8.556427002E0
3.902346640E-1,4.858367920E0,2.105667114E0,8.228424072E0
3.952700650E-1,5.183975220E0,2.179885864E0,7.826202393E0
4.003054650E-1,5.090606689E0,2.266082764E0,7.675369263E0
4.053408650E-1,4.963714600E0,2.440856934E0,7.711273193E0
4.104067830E-1,5.085815430E0,2.634780884E0,7.644241333E0
4.154421840E-1,5.188766479E0,2.833496094E0,7.385665894E0
4.204775840E-1,5.102569580E0,3.183059692E0,7.107940674E0
4.255129850E-1,4.891891479E0,3.503875732E0,6.832611084E0
4.305789030E-1,4.635711670E0,3.786392212E0,6.569244385E0
4.356143030E-1,4.597396851E0,4.123977661E0,6.360946655E0
4.406497030E-1,4.453750610E0,4.116790771E0,5.894073486E0
4.456851040E-1,4.259811401E0,3.987503052E0,5.343414307E0
4.507510220E-1,4.233474731E0,3.915679932E0,4.720916748E0
4.557864220E-1,4.195175171E0,3.769638062E0,4.555725098E0
4.608218220E-1,4.597396851E0,4.037780762E0,5.211730957E0
4.658572230E-1,5.617324829E0,4.940399170E0,6.044921875E0
4.709231410E-1,4.915832520E0,4.760833740E0,5.029769897E0
4.759585410E-1,4.592605591E0,4.540573120E0,4.704162598E0
4.809939420E-1,4.654861450E0,4.279602051E0,4.977096558E0
4.860293420E-1,4.434600830E0,3.939620972E0,4.986679077E0
4.910952600E-1,4.034759521E0,3.269241333E0,4.699371338E0
4.961306600E-1,4.436981201E0,2.550979614E0,4.974700928E0
5.011660610E-1,5.112152100E0,2.558166504E0,6.073638916E0
5.062014610E-1,5.600570679E0,3.623580933E0,7.151031494E0
5.112673790E-1,5.413818359E0,3.776809692E0,7.280319214E0
5.163027790E-1,4.542327881E0,3.683441162E0,6.724868774E0
5.213381800E-1,2.842453003E0,4.588455200E0,5.666625977E0
5.263735800E-1,1.743515015E0,5.258834839E0,4.910064697E0
5.314394980E-1,1.073135376E0,5.198974609E0,4.708953857E0
5.364748990E-1,3.429107666E-1,5.186996460E0,4.486282349E0
5.415102990E-1,1.609497070E-1,5.309112549E0,4.500656128E0
5.465456990E-1,5.823211670E-1,5.457550049E0,4.934005737E0
5.516116170E-1,1.104263306E0,5.610778809E0,5.247650146E0
5.566470180E-1,1.508880615E0,5.768798828E0,5.273986816E0
5.616824180E-1,2.018844604E0,5.814285278E0,5.522979736E0
5.667483360E-1,2.646118164E0,5.713729858E0,5.815078735E0
5.717837370E-1,2.962158203E0,5.644287109E0,5.364959717E0
5.768191370E-1,3.057922363E0,5.436004639E0,5.108779907E0
5.818545370E-1,3.328475952E0,5.107986450E0,5.168640137E0
5.869204550E-1,3.716339111E0,4.698577881E0,5.858169556E0
5.919558560E-1,3.824066162E0,4.361007690E0,6.076034546E0
5.969912560E-1,3.910263062E0,4.004272461E0,6.102371216E0
6.020571740E-1,4.233474731E0,3.582885742E0,6.174194336E0
6.070925740E-1,4.733871460E0,3.094467163E0,6.341796875E0
6.121279750E-1,5.306076050E0,2.646759033E0,6.629104614E0
6.171633750E-1,5.885482788E0,2.251708984E0,6.861343384E0
6.221987760E-1,6.594161987E0,1.808776855E0,7.124694824E0
6.272646940E-1,7.408187866E0,1.411346436E0,7.361724854E0
6.323000940E-1,7.908584595E0,1.083343506E0,7.653823853E0
6.373354940E-1,8.073776245E0,8.822326660E-1,7.905212402E0
6.423708950E-1,8.112091064E0,6.619567871E-1,8.271514893E0
6.474368130E-1,8.104904175E0,4.488830566E-1,8.496582031E0
6.524722130E-1,8.052230835E0,2.980346680E-1,8.831771851E0
6.575076130E-1,7.872665405E0,1.352386475E-1,9.178924561E0
6.625430140E-1,7.374679565E0,2.749633789E-2,9.348907471E0
6.676089320E-1,6.663589478E0,2.749633789E-2,9.305816650E0
6.726443320E-1,6.172790527E0,9.692382812E-2,9.301025391E0
6.776797330E-1,5.911819458E0,4.425048828E-2,9.521301270E0
6.827151330E-1,5.839996338E0,-7.305908203E-2,9.581146240E0
6.877810510E-1,5.849563599E0,-2.143096924E-1,9.418350220E0
6.928164510E-1,5.942947388E0,-3.914947510E-1,9.301025391E0
6.978518520E-1,6.213485718E0,-6.213378906E-1,9.310607910E0
7.029177700E-1,6.630081177E0,-8.583526611E-1,9.243560791E0
7.079531700E-1,7.221450806E0,-1.179183960E0,9.147796631E0
7.129885700E-1,7.884643555E0,-1.504791260E0,9.080764771E0
7.180239710E-1,8.456848145E0,-1.693939209E0,9.255538940E0
7.230593710E-1,8.880630493E0,-1.758575439E0,9.418350220E0
7.281252890E-1,9.088928223E0,-1.679565430E0,9.471023560E0
7.331606900E-1,9.148773193E0,-1.473663330E0,9.681701660E0
7.381960900E-1,9.021881104E0,-1.152847290E0,9.945068359E0
7.432620080E-1,8.775283813E0,-7.218933105E-1,1.016532898E1
7.482974080E-1,8.526290894E0,-1.927642822E-1,1.023237610E1
7.533328090E-1,8.377838135E0,3.076171875E-1,1.016772461E1
7.583682090E-1,8.301223755E0,7.792816162E-1,1.001689148E1
7.634341270E-1,8.298828125E0,1.253326416E0,9.909149170E0
7.684695280E-1,8.394607544E0,1.760894775E0,9.784652710E0
7.735049280E-1,8.514312744E0,2.345077515E0,9.573974609E0
7.785403280E-1,8.504730225E0,2.857437134E0,9.382431030E0
7.836062460E-1,8.294052124E0,3.333892822E0,9.111892700E0
7.886416470E-1,8.025894165E0,3.573303223E0,8.654602051E0
7.936770470E-1,8.246170044E0,3.712173462E0,8.580368042E0
7.987429650E-1,8.722610474E0,3.855819702E0,8.618682861E0
8.037783650E-1,9.086532593E0,4.064117432E0,8.534881592E0
8.088137660E-1,9.302001953E0,4.253265381E0,8.283493042E0
8.138491660E-1,9.472000122E0,4.375366211E0,7.919570923E0
8.189150840E-1,9.601287842E0,4.533386230E0,7.792678833E0
8.239504850E-1,9.706619263E0,4.825469971E0,7.898025513E0
8.289858850E-1,9.677902222E0,5.170242310E0,8.041671753E0
8.340212850E-1,9.483963013E0,5.529373169E0,8.084777832E0
8.390566860E-1,9.239761353E0,5.852584839E0,7.984222412E0
8.441226040E-1,8.894989014E0,6.123138428E0,7.787887573E0
8.491580040E-1,8.612472534E0,6.386489868E0,7.696914673E0
8.541934040E-1,8.418548584E0,6.640289307E0,7.651428223E0
8.592593220E-1,8.212646484E0,6.779144287E0,7.598754883E0
8.642947230E-1,8.124053955E0,6.783935547E0,7.601150513E0
8.693301230E-1,8.076171875E0,6.748016357E0,7.536499023E0
8.743655240E-1,8.042648315E0,6.678588867E0,7.581985474E0
8.794314420E-1,7.908584595E0,6.664230347E0,7.565231323E0
8.844668420E-1,7.719436646E0,6.700134277E0,7.443130493E0
8.895022420E-1,7.559020996E0,6.759994507E0,7.251586914E0
8.945376430E-1,7.288482666E0,6.841400146E0,7.155822754E0
8.996035610E-1,6.881469727E0,6.927581787E0,7.031326294E0
9.046389610E-1,6.524734497E0,6.989837646E0,6.849365234E0
9.096743620E-1,6.230239868E0,6.961105347E0,6.744018555E0
9.147097620E-1,5.945327759E0,6.965896606E0,6.715286255E0
9.197756800E-1,5.737045288E0,7.004196167E0,6.703323364E0
9.248110800E-1,5.567047119E0,7.001800537E0,6.705718994E0
9.298464810E-1,5.425796509E0,6.858154297E0,6.674591064E0
9.348818810E-1,5.289321899E0,6.673797607E0,6.619522095E0
9.399477990E-1,5.207916260E0,6.501419067E0,6.502212524E0
9.449831990E-1,5.143280029E0,6.357772827E0,6.329818726E0
9.500186000E-1,5.093002319E0,6.257217407E0,6.164627075E0
9.550540000E-1,4.992446899E0,6.276367188E0,6.030548096E0
9.601199180E-1,4.786544800E0,6.336212158E0,5.968307495E0
9.651553190E-1,4.583038330E0,6.527755737E0,5.839019775E0
9.701907190E-1,4.329254150E0,6.779144287E0,5.757614136E0
9.752566370E-1,4.051528931E0,7.001800537E0,5.714508057E0
9.802920370E-1,3.769012451E0,7.193344116E0,5.590011597E0
9.853274380E-1,3.527191162E0,7.451919556E0,5.487060547E0
9.903628380E-1,3.373962402E0,7.617111206E0,5.513397217E0
9.954287560E-1,3.141723633E0,7.763168335E0,5.582839966E0
1.000464156E0,2.828079224E0,7.954696655E0,5.563674927E0
1.005499557E0,2.473739624E0,8.191726685E0,5.511001587E0
1.010534957E0,2.157714844E0,8.342559814E0,5.446365356E0
1.015600875E0,1.963775635E0,8.459869385E0,5.451156616E0
1.020636276E0,1.863220215E0,8.440719604E0,5.465515137E0
1.025671676E0,1.805755615E0,8.467056274E0,5.436782837E0
1.030707076E0,1.796188354E0,8.447906494E0,5.427215576E0
1.035772994E0,1.748306274E0,8.452697754E0,5.369750977E0
1.040808395E0,1.736328125E0,8.421569824E0,5.254821777E0
1.045843795E0,1.887161255E0,8.380859375E0,5.185394287E0
1.050879195E0,2.253479004E0,8.301864624E0,5.216522217E0
1.055945113E0,2.603027344E0,8.263549805E0,5.161453247E0
1.060980514E0,2.830474854E0,8.134262085E0,5.108779907E0
1.066015914E0,3.108200073E0,7.799072266E0,5.127929688E0
1.071051315E0,3.294952393E0,7.358535767E0,5.278762817E0
1.076117233E0,3.302139282E0,6.961105347E0,5.424819946E0
1.081152633E0,3.010040283E0,6.613952637E0,5.585235596E0
1.086188033E0,2.569503784E0,6.290725708E0,5.664230347E0
1.091223434E0,2.186431885E0,6.063278198E0,5.664230347E0
1.096289352E0,2.018844604E0,5.864562988E0,5.774368286E0
1.101324752E0,1.990112305E0,5.692184448E0,5.848587036E0
1.106360153E0,1.973358154E0,5.586837769E0,5.908447266E0
1.111395553E0,2.016448975E0,5.591629028E0,5.920410156E0
1.116461471E0,2.105041504E0,5.634719849E0,5.932388306E0
1.121496871E0,2.267837524E0,5.723297119E0,5.939575195E0
1.126532272E0,2.490509033E0,5.744857788E0,5.906051636E0
1.131567672E0,2.749069214E0,5.692184448E0,5.810287476E0
1.136633590E0,2.966949463E0,5.649078369E0,5.692962646E0
1.141668990E0,3.120178223E0,5.605987549E0,5.642684937E0
1.146704391E0,3.357208252E0,5.577255249E0,5.604385376E0
1.151770309E0,3.508041382E0,5.622741699E0,5.546920776E0
1.156805709E0,3.436218262E0,5.663452148E0,5.501434326E0
1.161841110E0,3.309326172E0,5.718521118E0,5.352996826E0
1.166876510E0,3.273406982E0,5.828643799E0,5.156661987E0
1.171942428E0,3.340438843E0,5.950744629E0,5.108779907E0
1.176977828E0,3.450576782E0,6.096801758E0,5.027374268E0
1.182013229E0,3.541549683E0,6.168624878E0,4.981887817E0
1.187048629E0,3.524795532E0,6.221298218E0,4.924423218E0
1.192114547E0,3.421844482E0,6.221298218E0,4.912460327E0
1.197149947E0,3.335662842E0,6.185379028E0,4.977096558E0
1.202185348E0,3.400299072E0,6.211715698E0,4.965133667E0
1.207220748E0,3.620559692E0,6.290725708E0,4.926818848E0
1.212286666E0,3.737884521E0,6.472686768E0,4.847808838E0
1.217322067E0,3.608596802E0,6.733657837E0,4.819076538E0
1.222357467E0,3.536773682E0,6.798294067E0,4.816696167E0
1.227392867E0,3.520004272E0,6.788726807E0,4.682617188E0
1.232458785E0,3.570281982E0,6.726470947E0,4.589233398E0
1.237494186E0,3.733093262E0,6.673797607E0,4.567687988E0
1.242529586E0,3.730697632E0,6.645065308E0,4.603607178E0
1.247564987E0,3.553527832E0,6.599578857E0,4.591629028E0
1.252630904E0,3.292556763E0,6.554092407E0,4.562896729E0
1.257666305E0,3.136932373E0,6.647460938E0,4.582061768E0
1.262701705E0,2.069122314E0,9.606704712E0,4.828659058E0
1.267767623E0,3.452911377E-1,1.439988708E1,4.543746948E0
1.272803024E0,4.530334473E-1,1.434721375E1,3.152725220E0
1.277838424E0,1.044403076E0,1.383724976E1,3.454391479E0
1.282873824E0,1.511276245E0,1.282211304E1,4.364181519E0
1.287939742E0,2.093063354E0,1.077507019E1,4.708953857E0
1.292975143E0,3.129760742E0,8.244400024E0,5.058502197E0
1.298010543E0,3.656478882E0,6.487060547E0,5.831832886E0
1.303045944E0,3.361984253E0,6.360153198E0,6.066467285E0
1.308111862E0,3.424240112E0,6.214111328E0,5.815078735E0
1.313147262E0,3.812103271E0,5.907653809E0,5.659454346E0
1.318182662E0,3.888717651E0,6.032150269E0,5.752822876E0
1.323218063E0,3.699569702E0,6.355377197E0,5.805496216E0
1.328283981E0,3.474517822E0,6.604370117E0,5.633117676E0
1.333319381E0,3.299743652E0,6.745620728E0,5.398483276E0
1.338354781E0,3.345230103E0,6.819854736E0,5.364959717E0
1.343390182E0,3.378753662E0,7.001800537E0,5.455947876E0
1.348456100E0,3.218338013E0,7.298690796E0,5.288345337E0
1.353491500E0,2.998077393E0,7.478256226E0,5.130325317E0
1.358526901E0,2.919067383E0,7.463882446E0,4.926818848E0
1.363562301E0,3.302139282E0,8.031311035E0,3.911682129E0
1.368628219E0,3.788162231E0,9.166168213E0,3.918869019E0
1.373663619E0,4.278976440E0,9.774291992E0,4.955551147E0
1.378699020E0,4.568664551E0,1.011427307E1,4.957946777E0
1.383734420E0,4.647674561E0,1.031298828E1,4.742462158E0
1.388800338E0,4.614166260E0,1.027467346E1,4.498260498E0
1.393835738E0,4.796112061E0,9.994552612E0,4.443191528E0
1.398871139E0,4.879913330E0,9.556427002E0,4.625152588E0
1.403937057E0,4.836822510E0,9.166168213E0,4.922027588E0
1.408972457E0,4.664443970E0,8.852523804E0,5.084838867E0
1.414007858E0,4.384323120E0,8.617889404E0,5.305099487E0
1.419043258E0,4.018005371E0,8.483810425E0,5.276382446E0
1.424109176E0,3.426635742E0,8.555648804E0,4.950759888E0
1.429144576E0,3.309326172E0,8.376083374E0,4.986679077E0
1.434179977E0,3.309326172E0,8.191726685E0,4.929214478E0
1.439215377E0,3.045959473E0,8.402420044E0,4.756835938E0
1.444281295E0,2.837661743E0,8.546066284E0,4.881332397E0
1.449316695E0,2.658096313E0,8.493392944E0,4.845413208E0
1.454352096E0,2.526412964E0,8.344955444E0,4.685012817E0
1.459387496E0,2.356430054E0,8.201309204E0,4.622756958E0
1.464453414E0,2.277420044E0,8.007369995E0,4.510238647E0
1.469488815E0,2.349243164E0,7.839782715E0,4.653884888E0
1.474524215E0,2.610214233E0,7.834991455E0,4.673034668E0
1.479559615E0,2.777801514E0,8.364105225E0,4.680221558E0
1.484625533E0,2.670074463E0,9.226013184E0,4.845413208E0
1.489660934E0,2.114608765E0,9.982589722E0,4.184616089E0
1.494696334E0,1.379592896E0,1.017651367E1,3.313125610E0
1.499731735E0,1.283828735E0,9.848510742E0,3.291580200E0
1.504797653E0,1.683654785E0,9.431915283E0,3.485519409E0
1.509833053E0,1.841674805E0,9.106307983E0,3.334671021E0
1.514868453E0,1.702804565E0,8.795059204E0,3.334671021E0
1.519903854E0,1.597457886E0,8.488601685E0,3.243698120E0
1.524969772E0,1.942230225E0,7.930755615E0,3.076110840E0
1.530005172E0,2.365997314E0,7.377700806E0,2.666702271E0
1.535040572E0,2.732315063E0,7.073638916E0,2.549377441E0
1.540075973E0,2.634155273E0,6.949127197E0,2.815139771E0
1.545141891E0,2.239105225E0,7.056869507E0,2.882171631E0
1.550177291E0,1.865615845E0,7.255584717E0,2.867813110E0
1.555212692E0,1.640563965E0,7.188552856E0,2.987518311E0
1.560248092E0,1.750686646E0,6.338607788E0,3.121597290E0
1.565314010E0,1.745910645E0,5.989059448E0,2.379394531E0
1.570349410E0,1.305374146E0,6.501419067E0,2.436859131E0
1.575384811E0,4.314880371E-1,7.966674805E0,2.585296631E0
1.580450729E0,-2.747955322E-1,9.022506714E0,2.166305542E0
1.585486129E0,-6.099853516E-1,9.094345093E0,1.744934082E0
1.590521529E0,-1.086441040E0,9.391220093E0,1.855056763E0
1.595556930E0,-1.361770630E0,9.740768433E0,1.845489502E0
1.600622848E0,-1.182205200E0,9.822174072E0,1.503112793E0
1.605658248E0,-9.092712402E-1,9.731201172E0,1.304397583E0
1.610693649E0,-7.536468506E-1,9.786270142E0,1.383407593E0
1.615729049E0,-6.937866211E-1,1.008793640E1,1.464813232E0
1.620794967E0,-7.033691406E-1,1.057875061E1,1.440872192E0
1.625830367E0,-6.770324707E-1,1.075831604E1,1.512695312E0
1.630865768E0,-3.657836914E-1,1.019567871E1,1.196655273E0
1.635901168E0,6.277465820E-2,1.005680847E1,8.758392334E-1
1.640967086E0,3.620605469E-1,1.077507019E1,7.776641846E-1
1.646002487E0,2.495269775E-1,1.152685547E1,7.417602539E-1
1.651037887E0,-2.819824219E-1,1.189555359E1,7.345733643E-1
1.656073287E0,-8.254699707E-1,1.195541382E1,6.172637939E-1
1.661139205E0,-1.304306030E0,1.150051880E1,5.430450439E-1
1.666174606E0,-1.555694580E0,1.079182434E1,4.903717041E-1
1.671210006E0,-1.558090210E0,9.891601562E0,5.597991943E-1
1.676245406E0,-1.479080200E0,9.099121094E0,1.060180664E0
1.681311324E0,-1.402465820E0,8.299468994E0,1.512695312E0
1.686346725E0,-1.254028320E0,7.595565796E0,1.749710083E0
1.691382125E0,-9.475708008E-1,6.494232178E0,2.137573242E0
1.696417526E0,-3.059234619E-1,5.206161499E0,2.271652222E0
1.701483444E0,2.040405273E-1,4.164672852E0,2.384185791E0
1.706518844E0,-2.245178223E-1,4.207778931E0,2.566146851E0
1.711554244E0,-5.932312012E-1,4.059326172E0,2.276443481E0
1.716620162E0,2.878417969E-1,4.418457031E0,2.376998901E0
1.721655563E0,-1.000213623E-1,6.314666748E0,2.537414551E0
1.726690963E0,-6.746368408E-1,7.095184326E0,1.574935913E0
1.731726363E0,-2.173461914E-1,8.500579834E0,1.711410522E0
1.736792281E0,2.929687500E-3,9.178131104E0,1.460021973E0
1.741827682E0,5.751342773E-1,9.271514893E0,4.975433350E-1
1.746863082E0,4.961395264E-1,1.092350769E1,3.993835449E-1
1.751898483E0,3.740234375E-1,1.211581421E1,-1.249389648E-1
1.756964401E0,1.348464966E0,1.095223999E1,-2.614135742E-1
1.761999801E0,2.260665894E0,9.668945312E0,-3.930969238E-1
1.767035201E0,2.449798584E0,1.071281433E1,-2.254943848E-1
1.772070602E0,1.748306274E0,1.062423706E1,-3.763275146E-1
1.777136520E0,1.259887695E0,7.648239136E0,-9.964294434E-1
1.782171920E0,5.009155273E-1,7.937942505E0,-5.367431641E-1
1.787207320E0,-2.101593018E-1,8.768722534E0,-1.441040039E-1
1.792242721E0,-3.298950195E-2,4.490295410E0,-3.260498047E-1
1.797308639E0,3.452911377E-1,-2.388259888E0,-1.441757202E0
1.802344039E0,6.038665771E-1,3.818359375E-1,2.125610352E0
1.807379440E0,-9.523010254E-2,7.811050415E0,1.859848022E0
1.812414840E0,-1.143890381E0,1.070324707E1,-1.894256592E0
1.817480758E0,-1.237274170E0,1.158190918E1,-3.555831909E0
1.822516158E0,-1.081649780E0,1.153642273E1,-4.175933838E0
1.827551559E0,-2.487045288E0,1.018609619E1,-5.294021606E0
1.832617477E0,-2.551681519E0,1.018130493E1,-2.892639160E0
1.837652877E0,3.232711792E0,1.077267456E1,2.810348511E0
1.842688278E0,4.911041260E0,1.027946472E1,-1.187973022E0
1.847723678E0,6.433746338E0,1.019328308E1,-3.081787109E0
1.852759078E0,4.590209961E0,1.325785828E1,-3.460067749E0
1.857824996E0,6.709136963E-1,1.460818481E1,-5.672302246E0
1.862860397E0,-9.643249512E-1,1.130178833E1,-4.898986816E0
1.867895797E0,-9.116516113E-1,7.001800537E0,-2.763351440E0
1.872961715E0,-1.481475830E0,8.335372925E0,-4.409790039E-1
1.877997115E0,-1.498245239E0,9.551635742E0,-1.199935913E0
1.883032516E0,-7.033691406E-1,8.924346924E0,-9.006652832E-1
1.888067916E0,-1.115158081E0,9.599517822E0,-1.321258545E-1
1.893133834E0,-1.471908569E0,1.012623596E1,3.802337646E-1
1.898169235E0,-1.191772461E0,1.036326599E1,2.916412354E-1
1.903204635E0,-8.733520508E-1,1.030340576E1,-1.847991943E-1
1.908240035E0,-4.974670410E-1,9.498962402E0,1.172714233E0
1.913305953E0,-5.213928223E-2,9.072784424E0,2.537414551E0
1.918341354E0,4.482421875E-1,9.065612793E0,2.657119751E0
1.923376754E0,5.296478271E-1,8.110321045E0,-1.623718262E0
1.928412154E0,9.223022461E-1,6.850967407E0,-5.909332275E0
1.933478072E0,2.095458984E0,5.079269409E0,-8.018630981E0
1.938513473E0,3.093841553E0,4.636337280E0,-7.594848633E0
1.943548873E0,3.177642822E0,5.060104370E0,-2.528717041E0
1.948584274E0,1.642959595E0,5.510223389E0,1.084121704E0
1.953650192E0,-5.884399414E-1,5.050537109E0,3.286788940E0
1.958685592E0,-2.020172119E0,5.831039429E0,4.723312378E0
1.963720992E0,-1.500625610E0,8.352142334E0,5.760009766E0
1.968756393E0,3.397903442E0,1.303997803E1,2.350662231E0
1.973822311E0,6.278121948E0,1.567359924E1,-3.017135620E0
1.978857711E0,5.356369019E0,1.525222778E1,-5.373031616E0
1.983893112E0,4.195175171E0,1.574543762E1,-4.491973877E0
1.988959029E0,7.954101562E-1,1.842694092E1,-1.547103882E0
1.993994430E0,-1.673019409E0,2.043327332E1,1.835906982E0
1.999029830E0,-6.123809814E-1,1.979162598E1,3.131164551E0
2.004065231E0,1.496902466E0,1.753390503E1,2.913299561E0
2.009131149E0,2.540786743E0,1.562092590E1,2.635574341E0
2.014166549E0,1.944625854E0,1.479254150E1,3.108062744E-1
2.019201949E0,1.013275146E0,1.377740479E1,-1.745819092E0
2.024237350E0,9.031524658E-1,1.228581238E1,-1.987625122E0
2.029303268E0,9.941253662E-1,1.095942688E1,-1.994812012E0
2.034338668E0,6.325988770E-1,1.039439392E1,-1.448944092E0
2.039374069E0,3.524780273E-1,1.041833496E1,-1.298095703E0
2.044409469E0,5.344390869E-1,1.055958557E1,-8.360137939E-1
2.049475387E0,6.541442871E-1,1.089717102E1,4.025268555E-2
2.054510787E0,6.014709473E-1,1.114616394E1,-1.536712646E-1
2.059546188E0,5.799255371E-1,1.099772644E1,-9.581298828E-1
2.064581588E0,5.871124268E-1,1.090196228E1,-2.183227539E-1
2.069647506E0,4.219055176E-1,1.079901123E1,-1.183181763E0
2.074682906E0,4.099426270E-1,1.053085327E1,-1.216705322E0
2.079718307E0,3.979644775E-1,1.020045471E1,-1.039535522E0
2.084753707E0,2.998046875E-1,9.858093262E0,-1.149658203E0
2.089819625E0,4.362487793E-2,9.355300903E0,-1.085021973E0
2.094855026E0,7.475280762E-2,8.826187134E0,-9.676971436E-1
2.099890426E0,1.274261475E-1,7.557266235E0,-7.067413330E-1
2.104925826E0,1.058776855E0,4.013839722E0,2.389831543E-1
2.109991744E0,4.638107300E0,5.136718750E0,-1.446548462E0
2.115027145E0,7.690734863E-1,1.010708618E1,-3.213470459E0
2.120062545E0,-3.705749512E-1,1.233369446E1,-2.248596191E0
2.125097945E0,1.513671875E-1,1.265930176E1,-1.305282593E0
2.130163863E0,7.379455566E-1,1.218046570E1,-2.470397949E-1
2.135199264E0,1.465789795E0,1.176387024E1,-3.045043945E-1
2.140234664E0,1.970962524E0,1.155317688E1,-1.087417603E0
2.145270065E0,1.815338135E0,1.136643982E1,-1.293319702E0
2.150335983E0,1.377197266E0,1.105279541E1,-1.312469482E0
2.155371383E0,1.152145386E0,1.077267456E1,-7.498321533E-1
2.160406783E0,1.065948486E0,1.064338684E1,-1.584625244E-1
2.165472701E0,9.917297363E-1,1.062423706E1,-4.313964844E-1
2.170508102E0,1.053985596E0,1.056916809E1,-7.593994141E-1
2.175543502E0,9.007568359E-1,1.063142395E1,-3.140869141E-1
2.180578903E0,4.937438965E-1,1.112222290E1,-1.081848145E-1
2.185644820E0,-1.048126221E-1,1.183569336E1,3.227691650E-1
2.190680221E0,-6.195678711E-1,1.271197510E1,7.465515137E-1
2.195715621E0,-8.613739014E-1,1.362895203E1,6.986694336E-1
2.200751022E0,-1.409652710E0,1.476860046E1,8.279418945E-1
2.205816940E0,-1.280364990E0,1.398568726E1,1.261306763E0
2.210852340E0,3.860015869E-1,1.158670044E1,1.888580322E0
2.215887740E0,6.780853271E-1,1.095223999E1,1.246932983E0
2.220923141E0,4.913482666E-1,1.055241394E1,2.677001953E-1
2.225989059E0,5.727539062E-1,9.740768433E0,-2.466476440E0
2.231024459E0,6.780853271E-1,8.617889404E0,-3.888626099E0
2.236059860E0,7.594909668E-1,7.648239136E0,-4.010726929E0
2.241095260E0,6.924591064E-1,7.617111206E0,-3.512741089E0
2.246161178E0,5.895080566E-1,8.024124146E0,-2.677154541E0
2.251196578E0,4.290924072E-1,8.586761475E0,-2.023544312E0
2.256231979E0,2.519226074E-1,9.151794434E0,-1.571044922E0
2.261267379E0,1.274261475E-1,9.568389893E0,-1.195144653E0
2.266333297E0,5.320739746E-2,9.829360962E0,-9.820709229E-1
2.271368697E0,-1.024169922E-1,1.000413513E1,-9.676971436E-1
2.276404098E0,-1.263580322E-1,1.000653076E1,-1.075439453E0
2.281470016E0,-1.814270020E-1,9.961044312E0,-1.166427612E0
2.286505416E0,-1.622772217E-1,9.886825562E0,-1.164031982E0
2.291540817E0,-4.734802246E-2,9.755142212E0,-1.099380493E0
2.296576217E0,-3.083190918E-1,9.724014282E0,-1.767364502E0
2.301642135E0,-7.608184814E-1,9.561203003E0,-2.859115601E0
2.306677535E0,-2.350570679E0,9.714431763E0,-4.860671997E0
2.311712936E0,-1.479080200E0,9.642608643E0,-3.235015869E0
2.316748336E0,1.061157227E0,9.106307983E0,3.874206543E-1
2.321814254E0,8.169555664E-1,9.209259033E0,8.063964844E-1
2.326849654E0,2.303771973E-1,9.882034302E0,1.863098145E-1
2.331885055E0,4.530334473E-1,1.045663452E1,1.791229248E-1
2.336920455E0,6.517486572E-1,1.025791931E1,-3.978881836E-1
2.341986373E0,7.570953369E-1,9.783874512E0,-9.700927734E-1
2.347021774E0,7.403411865E-1,9.752746582E0,-1.156845093E0
2.352057174E0,7.714691162E-1,9.913162231E0,-9.581298828E-1
2.357092574E0,7.259826660E-1,1.028665161E1,-6.684265137E-1
2.362158492E0,8.385009766E-1,1.050213623E1,-4.649200439E-1
2.367193893E0,8.768157959E-1,1.061465454E1,-4.721069336E-1
2.372229293E0,9.366607666E-1,1.062423706E1,-5.511169434E-1
2.377295211E0,1.087493896E0,1.036805725E1,-5.558929443E-1
2.382330612E0,1.463394165E0,9.731201172E0,-3.571777344E-1
2.387366012E0,1.530426025E0,9.319396973E0,-2.302856445E-1
2.392401412E0,9.749755859E-1,9.364883423E0,-4.553375244E-1
2.397436813E0,4.961395264E-1,9.513320923E0,-7.115173340E-1
2.402502731E0,3.860015869E-1,9.520507812E0,-8.408050537E-1
2.407538131E0,3.740234375E-1,9.589935303E0,-1.001220703E0
2.412573531E0,3.285369873E-1,9.688095093E0,-1.147262573E0
2.417639449E0,2.950134277E-1,9.755142212E0,-1.257400513E0
2.422674850E0,2.734680176E-1,9.795837402E0,-1.341201782E0
2.427710250E0,2.998046875E-1,9.793441772E0,-1.398651123E0
2.432745651E0,2.639007568E-1,9.786270142E0,-1.477661133E0
2.437811569E0,2.830505371E-1,9.721618652E0,-1.551879883E0
2.442846969E0,3.189544678E-1,9.767105103E0,-1.594985962E0
2.447882369E0,3.572692871E-1,9.786270142E0,-1.532730103E0
2.452917770E0,4.075469971E-1,9.805419922E0,-1.439361572E0
2.457983688E0,3.979644775E-1,9.853302002E0,-1.317260742E0
2.463019088E0,4.290924072E-1,9.898788452E0,-1.190368652E0
2.468054488E0,4.554290771E-1,9.862884521E0,-1.063476562E0
2.473089889E0,4.530334473E-1,9.874847412E0,-9.509429932E-1
2.478155807E0,4.266967773E-1,9.884429932E0,-8.815155029E-1
2.483191207E0,4.147338867E-1,9.850906372E0,-8.408050537E-1
2.488226608E0,4.243011475E-1,9.855697632E0,-7.641906738E-1
2.493262008E0,4.745788574E-1,9.843719482E0,-8.455963135E-1
2.498327926E0,4.434661865E-1,9.843719482E0,-8.072967529E-1
2.503363326E0,4.410705566E-1,9.814987183E0,-8.479919434E-1
2.508398727E0,4.123382568E-1,9.838928223E0,-8.743286133E-1
2.513434127E0,3.907928467E-1,9.848510742E0,-9.533386230E-1
2.518500045E0,3.620605469E-1,9.826965332E0,-1.022766113E0
2.523535445E0,3.716278076E-1,9.805419922E0,-1.085021973E0
2.528570846E0,3.476867676E-1,9.798233032E0,-1.144866943E0
2.533606246E0,3.548736572E-1,9.786270142E0,-1.190368652E0
2.538672164E0,3.476867676E-1,9.769500732E0,-1.204727173E0
2.543707565E0,3.452911377E-1,9.743164062E0,-1.195144653E0
2.548742965E0,3.213500977E-1,9.779083252E0,-1.226272583E0
2.553808883E0,2.830505371E-1,9.733596802E0,-1.211914062E0
2.558844283E0,2.734680176E-1,9.719223022E0,-1.149658203E0
2.563879684E0,2.447357178E-1,9.747955322E0,-1.140090942E0
2.568915084E0,2.016448975E-1,9.791046143E0,-1.135299683E0
2.573981002E0,1.657257080E-1,9.807815552E0,-1.108963013E0
2.579016403E0,1.561584473E-1,9.807815552E0,-1.082626343E0
2.584051803E0,1.609497070E-1,9.798233032E0,-1.094589233E0
2.589087203E0,2.040405273E-1,9.786270142E0,-1.113754272E0
2.594153121E0,1.944580078E-1,9.810211182E0,-1.082626343E0
2.599188522E0,1.992492676E-1,9.822174072E0,-1.077835083E0
2.604223922E0,2.662963867E-1,9.841323853E0,-1.111358643E0
2.609259322E0,3.069915771E-1,9.824569702E0,-1.111358643E0
2.614325240E0,3.093872070E-1,9.826965332E0,-1.101776123E0
2.619360641E0,3.213500977E-1,9.858093262E0,-1.065856934E0
2.624396041E0,3.572692871E-1,9.879638672E0,-1.070648193E0
2.629431442E0,3.716278076E-1,9.884429932E0,-1.070648193E0
2.634497360E0,3.979644775E-1,9.865264893E0,-1.089813232E0
2.639532760E0,4.171295166E-1,9.836547852E0,-1.092193604E0
2.644568160E0,4.410705566E-1,9.798233032E0,-1.080230713E0
2.649603561E0,4.458465576E-1,9.757537842E0,-1.068252563E0
2.654669479E0,4.314880371E-1,9.738372803E0,-1.077835083E0
2.659704879E0,4.578247070E-1,9.747955322E0,-1.087417603E0
2.664740279E0,4.386749268E-1,9.793441772E0,-1.039535522E0
2.669775680E0,4.027557373E-1,9.771896362E0,-1.120925903E0
2.674841598E0,4.243011475E-1,9.771896362E0,-1.144866943E0
2.679876998E0,4.434661865E-1,9.788650513E0,-1.123321533E0
2.684912399E0,4.123382568E-1,9.791046143E0,-1.099380493E0
2.689978317E0,4.338836670E-1,9.791046143E0,-1.123321533E0
2.695013717E0,4.171295166E-1,9.812606812E0,-1.092193604E0
2.700049117E0,4.099426270E-1,9.776687622E0,-1.108963013E0
2.705084518E0,4.219055176E-1,9.776687622E0,-1.120925903E0
2.710150436E0,4.123382568E-1,9.805419922E0,-1.130508423E0
2.715185836E0,3.955688477E-1,9.822174072E0,-1.142471313E0
2.720221237E0,3.716278076E-1,9.803024292E0,-1.125717163E0
2.725256637E0,3.836059570E-1,9.755142212E0,-1.125717163E0
2.730322555E0,4.003601074E-1,9.786270142E0,-1.108963013E0
2.735357955E0,3.955688477E-1,9.692886353E0,-1.075439453E0
2.740393356E0,3.883972168E-1,9.659378052E0,-1.094589233E0
2.745428756E0,3.907928467E-1,9.680923462E0,-1.120925903E0
2.750494674E0,3.955688477E-1,9.714431763E0,-1.075439453E0
2.755530074E0,3.955688477E-1,9.767105103E0,-1.065856934E0
2.760565475E0,4.099426270E-1,9.764709473E0,-1.116149902E0
2.765600875E0,4.051513672E-1,9.779083252E0,-1.113754272E0
2.770666793E0,4.027557373E-1,9.767105103E0,-1.137695312E0
2.775702194E0,4.123382568E-1,9.774291992E0,-1.137695312E0
2.780737594E0,4.290924072E-1,9.740768433E0,-1.185577393E0
2.785772994E0,4.314880371E-1,9.700073242E0,-1.175994873E0
2.790838912E0,3.955688477E-1,9.690490723E0,-1.149658203E0
2.795874313E0,3.860015869E-1,9.786270142E0,-1.125717163E0
2.800909713E0,4.075469971E-1,9.973007202E0,-1.077835083E0
2.805945113E0,4.075469971E-1,1.001132202E1,-1.073043823E0
2.811011031E0,4.434661865E-1,9.882034302E0,-1.178390503E0
2.816046432E0,4.290924072E-1,9.786270142E0,-1.252609253E0
2.821081832E0,3.596649170E-1,9.776687622E0,-1.283737183E0
2.826147750E0,3.381195068E-1,9.771896362E0,-1.231063843E0
2.831183151E0,3.141784668E-1,9.798233032E0,-1.156845093E0
2.836218551E0,2.830505371E-1,9.843719482E0,-1.156845093E0
2.841253951E0,2.830505371E-1,9.874847412E0,-1.166427612E0
2.846319869E0,2.734680176E-1,9.814987183E0,-1.123321533E0
2.851355270E0,3.022003174E-1,9.774291992E0,-1.180786133E0
2.856390670E0,3.261413574E-1,9.793441772E0,-1.247817993E0
2.861426070E0,3.189544678E-1,9.757537842E0,-1.185577393E0
2.866491988E0,3.022003174E-1,9.779083252E0,-1.164031982E0
2.871527389E0,3.213500977E-1,9.896392822E0,-1.135299683E0
2.876562789E0,2.878417969E-1,9.992172241E0,-1.104171753E0
2.881598190E0,2.495269775E-1,9.862884521E0,-1.113754272E0
2.886664108E0,2.878417969E-1,9.721618652E0,-1.128112793E0
2.891699508E0,2.112274170E-1,9.659378052E0,-1.111358643E0
2.896734908E0,2.064361572E-1,9.680923462E0,-1.175994873E0
2.901770309E0,2.231903076E-1,9.597122192E0,-1.073043823E0
2.906836227E0,1.729125977E-1,9.616271973E0,-1.061080933E0
2.911871627E0,9.150695801E-2,9.721618652E0,-1.010803223E0
2.916907028E0,1.896667480E-1,9.812606812E0,-1.006011963E0
2.921942428E0,2.207946777E-1,9.879638672E0,-1.077835083E0
2.927008346E0,1.992492676E-1,9.905975342E0,-1.089813232E0
2.932043746E0,1.992492676E-1,9.939498901E0,-1.080230713E0
2.937079147E0,1.896667480E-1,9.941879272E0,-1.082626343E0
2.942145065E0,2.471313477E-1,9.927520752E0,-1.073043823E0
2.947180465E0,2.303771973E-1,9.946670532E0,-1.058685303E0
2.952215865E0,2.064361572E-1,9.891601562E0,-1.015579224E0
2.957251266E0,2.423400879E-1,9.819778442E0,-1.049102783E0
2.962317184E0,3.261413574E-1,9.791046143E0,-9.748840332E-1
2.967352584E0,3.309326172E-1,9.798233032E0,-9.748840332E-1
2.972387985E0,3.045959473E-1,9.819778442E0,-1.027557373E0
2.977423385E0,2.854461670E-1,9.759933472E0,-1.053894043E0
2.982489303E0,2.974090576E-1,9.724014282E0,-1.128112793E0
2.987524703E0,3.045959473E-1,9.757537842E0,-1.077835083E0
2.992560104E0,2.782592773E-1,9.829360962E0,-1.113754272E0
2.997595504E0,2.423400879E-1,9.884429932E0,-1.096984863E0
3.002661422E0,2.279815674E-1,9.870056152E0,-1.077835083E0
3.007696822E0,2.662963867E-1,9.798233032E0,-1.037139893E0
3.012732223E0,2.255859375E-1,9.807815552E0,-1.025161743E0
3.017767623E0,2.567138672E-1,9.812606812E0,-1.039535522E0
3.022833541E0,2.902374268E-1,9.788650513E0,-1.029953003E0
3.027868942E0,2.447357178E-1,9.788650513E0,-1.025161743E0
3.032904342E0,4.362792969E-1,9.812606812E0,-1.178390503E0
3.037939742E0,4.482421875E-1,9.882034302E0,-1.185577393E0
3.043005660E0,3.429107666E-1,9.939498901E0,-1.142471313E0
3.048041061E0,3.500823975E-1,9.896392822E0,-1.080230713E0
3.053076461E0,2.758636475E-1,9.920333862E0,-1.029953003E0
3.058111862E0,3.788146973E-1,9.913162231E0,-9.246063232E-1
3.063177779E0,2.591094971E-1,9.819778442E0,-8.791198730E-1
3.068213180E0,2.591094971E-1,9.846115112E0,-8.432006836E-1
3.073248580E0,2.471313477E-1,9.886825562E0,-8.791198730E-1
3.078283981E0,4.410705566E-1,9.685699463E0,-9.605255127E-1
3.083349899E0,3.668518066E-1,9.530090332E0,-1.166427612E0
3.088385299E0,2.447357178E-1,9.757537842E0,-1.207122803E0
3.093420699E0,2.303771973E-1,9.870056152E0,-1.032348633E0
3.098456100E0,2.567138672E-1,9.946670532E0,-1.063476562E0
3.103522018E0,3.213500977E-1,1.016934204E1,-1.221481323E0
3.108557418E0,7.187957764E-1,9.953857422E0,-1.240646362E0
3.113592819E0,5.009155273E-1,9.690490723E0,-1.173599243E0
3.118658737E0,2.543182373E-1,9.673736572E0,-1.096984863E0
3.123694137E0,2.231903076E-1,9.630645752E0,-9.748840332E-1
3.128729537E0,1.968383789E-2,9.630645752E0,-9.461517334E-1
3.133764938E0,1.968383789E-2,9.649795532E0,-8.910827637E-1
3.138830856E0,2.351684570E-1,9.707260132E0,-9.126281738E-1
3.143866256E0,2.207946777E-1,9.786270142E0,-9.533386230E-1
3.148901656E0,1.944580078E-1,9.860488892E0,-9.964294434E-1
3.153937057E0,2.207946777E-1,9.850906372E0,-1.015579224E0
3.159002975E0,2.040405273E-1,9.841323853E0,-1.041915894E0
3.164038375E0,2.088317871E-1,9.826965332E0,-1.027557373E0
3.169073776E0,2.088317871E-1,9.838928223E0,-1.046707153E0
3.174109176E0,2.088317871E-1,9.829360962E0,-1.046707153E0
3.179175094E0,1.872863770E-1,9.824569702E0,-1.025161743E0
3.184210494E0,1.729125977E-1,9.779083252E0,-1.049102783E0
3.189245895E0,1.537628174E-1,9.774291992E0,-1.082626343E0
3.194281295E0,1.226348877E-1,9.826965332E0,-1.099380493E0
3.199347213E0,9.869384766E-2,9.788650513E0,-1.092193604E0
3.204382613E0,5.081176758E-2,9.838928223E0,-1.132904053E0
3.209418014E0,2.207946777E-2,9.872451782E0,-1.094589233E0
3.214453414E0,1.249694824E-2,9.850906372E0,-1.120925903E0
3.219519332E0,-6.652832031E-3,9.846115112E0,-1.106567383E0
3.224554733E0,1.249694824E-2,9.846115112E0,-1.135299683E0
3.229590133E0,5.340576172E-4,9.841323853E0,-1.113754272E0
3.234625533E0,-1.861572266E-2,9.810211182E0,-1.108963013E0
3.239691451E0,5.340576172E-4,9.783874512E0,-1.111358643E0
3.244726852E0,-1.383972168E-2,9.781478882E0,-1.106567383E0
3.249762252E0,-2.101135254E-2,9.800628662E0,-1.087417603E0
3.254828170E0,-1.383972168E-2,9.791046143E0,-1.128112793E0
3.259863570E0,-6.652832031E-3,9.822174072E0,-1.118530273E0
3.264898971E0,-4.257202148E-3,9.807815552E0,-1.087417603E0
3.269934371E0,1.011657715E-2,9.853302002E0,-1.089813232E0
3.275000289E0,-1.861572266E-3,9.838928223E0,-1.085021973E0
3.280035690E0,-6.652832031E-3,9.826965332E0,-1.123321533E0
3.285071090E0,-6.652832031E-3,9.814987183E0,-1.080230713E0
3.290106490E0,1.968383789E-2,9.788650513E0,-1.094589233E0
3.295172408E0,-4.257202148E-3,9.805419922E0,-1.125717163E0
3.300207809E0,-1.861572266E-3,9.822174072E0,-1.080230713E0
3.305243209E0,-2.101135254E-2,9.817382812E0,-1.092193604E0
3.310278610E0,-2.580261230E-2,9.819778442E0,-1.116149902E0
3.315344528E0,-1.383972168E-2,9.807815552E0,-1.118530273E0
3.320379928E0,1.249694824E-2,9.781478882E0,-1.099380493E0
3.325415328E0,3.405761719E-2,9.781478882E0,-1.101776123E0
3.330450729E0,5.560302734E-2,9.767105103E0,-1.116149902E0
3.335516647E0,5.799865723E-2,9.800628662E0,-1.147262573E0
3.340552047E0,9.150695801E-2,9.783874512E0,-1.123321533E0
3.345587447E0,1.130523682E-1,9.783874512E0,-1.101776123E0
3.350622848E0,1.585540771E-1,9.807815552E0,-1.123321533E0
3.355688766E0,1.489715576E-1,9.786270142E0,-1.125717163E0
3.360724166E0,1.585540771E-1,9.781478882E0,-1.061080933E0
3.365759567E0,2.040405273E-1,9.819778442E0,-1.118530273E0
3.370825485E0,2.471313477E-1,9.829360962E0,-1.111358643E0
3.375860885E0,3.069915771E-1,9.848510742E0,-1.113754272E0
3.380896285E0,3.357238770E-1,9.879638672E0,-1.111358643E0
3.385931686E0,3.476867676E-1,9.853302002E0,-1.118530273E0
3.390997604E0,3.812103271E-1,9.850906372E0,-1.113754272E0
3.396033004E0,4.051513672E-1,9.853302002E0,-1.041915894E0
3.401068404E0,4.266967773E-1,9.834152222E0,-1.027557373E0
3.406103805E0,4.434661865E-1,9.807815552E0,-1.051498413E0
3.411169723E0,4.171295166E-1,9.788650513E0,-1.020370483E0
3.416205123E0,4.314880371E-1,9.791046143E0,-1.010803223E0
3.421240524E0,4.314880371E-1,9.805419922E0,-1.032348633E0
3.426306442E0,4.530334473E-1,9.805419922E0,-1.020370483E0
3.431341842E0,4.362792969E-1,9.838928223E0,-1.041915894E0
3.436377242E0,4.171295166E-1,9.800628662E0,-1.065856934E0
3.441412643E0,4.219055176E-1,9.791046143E0,-1.077835083E0
3.446478561E0,4.171295166E-1,9.810211182E0,-1.073043823E0
3.451513961E0,4.314880371E-1,9.812606812E0,-1.089813232E0
3.456549362E0,4.578247070E-1,9.829360962E0,-1.061080933E0
3.461584762E0,4.865570068E-1,9.867660522E0,-1.041915894E0
3.466620162E0,4.721832275E-1,9.870056152E0,-1.087417603E0
3.471686080E0,4.698028564E-1,9.896392822E0,-1.120925903E0
3.476721481E0,4.578247070E-1,9.898788452E0,-1.106567383E0
3.481756881E0,4.362792969E-1,9.874847412E0,-1.101776123E0
3.486792281E0,4.458465576E-1,9.877243042E0,-1.116149902E0
3.491858199E0,4.458465576E-1,9.889221191E0,-1.089813232E0
3.496893600E0,4.434661865E-1,9.905975342E0,-1.099380493E0
3.501929000E0,4.051513672E-1,9.893997192E0,-1.142471313E0
3.506964401E0,3.668518066E-1,9.884429932E0,-1.094589233E0
3.512030319E0,3.333282471E-1,9.865264893E0,-1.099380493E0
3.517065719E0,2.782592773E-1,9.870056152E0,-1.094589233E0
3.522101119E0,6.996154785E-2,9.915557861E0,-2.326812744E-1
3.527167037E0,1.968383789E-2,9.882034302E0,-8.049011230E-1
3.532202438E0,3.644561768E-1,9.702468872E0,-1.798492432E0
3.537237838E0,4.219055176E-1,9.822174072E0,-1.374710083E0
3.542273238E0,3.141784668E-1,9.951461792E0,-1.156845093E0
3.547339156E0,2.686767578E-1,9.975402832E0,-1.020370483E0
3.552374557E0,1.848907471E-1,9.858093262E0,-9.246063232E-1
3.557409957E0,-6.652832031E-3,9.925125122E0,-9.174194336E-1
3.562475875E0,-5.932617188E-2,9.874847412E0,-1.128112793E0
3.567511276E0,4.650115967E-1,9.688095093E0,-1.539916992E0
3.572546676E0,4.985198975E-1,9.798233032E0,-1.374710083E0
3.577582076E0,3.860015869E-1,9.862884521E0,-1.187973022E0
3.582617477E0,3.596649170E-1,9.891601562E0,-1.099380493E0
3.587683395E0,3.476867676E-1,9.872451782E0,-1.092193604E0
3.592718795E0,3.716278076E-1,9.879638672E0,-1.135299683E0
3.597754195E0,3.596649170E-1,9.867660522E0,-1.269378662E0
3.602820113E0,4.147338867E-1,9.949066162E0,-1.365142822E0
3.607855514E0,4.482421875E-1,1.000173950E1,-1.403442383E0
3.612890914E0,5.057067871E-1,1.012384033E1,-1.420211792E0
3.617926315E0,4.865570068E-1,1.026031494E1,-1.468093872E0
3.622961715E0,4.219055176E-1,1.039678955E1,-1.506393433E0
3.628027633E0,3.620605469E-1,1.038481140E1,-1.444152832E0
3.633063033E0,3.812103271E-1,1.031538391E1,-1.252609253E0
3.638098434E0,3.189544678E-1,1.015257263E1,-1.082626343E0
3.643164352E0,2.279815674E-1,1.004483032E1,-9.222106934E-1
3.648199752E0,2.231903076E-1,9.956253052E0,-7.546234131E-1
3.653235153E0,2.519226074E-1,9.884429932E0,-6.205444336E-1
3.658270553E0,2.183990479E-1,9.848510742E0,-6.181488037E-1
3.663336471E0,2.160034180E-1,9.831756592E0,-7.139129639E-1
3.668371871E0,2.040405273E-1,9.834152222E0,-6.995544434E-1
3.673407272E0,1.226348877E-1,9.788650513E0,-7.498321533E-1
3.678442672E0,6.756591797E-2,9.652191162E0,-6.588439941E-1
3.683508590E0,3.405761719E-2,9.482192993E0,-5.558929443E-1
3.688543990E0,-2.101135254E-2,9.288269043E0,-3.021087646E-1
3.693579391E0,-5.932617188E-2,9.249969482E0,-1.512756348E-1
3.698614791E0,-1.263580322E-1,9.108703613E0,-6.030273438E-2
3.703680709E0,-2.412872314E-1,8.957870483E0,-9.381103516E-2
3.708716110E0,-2.987365723E-1,8.936325073E0,-2.638092041E-1
3.713751510E0,-3.442382812E-1,8.900405884E0,-3.164825439E-1
3.718786910E0,-3.609924316E-1,8.974624634E0,-5.630798340E-1
3.723852828E0,-3.657836914E-1,9.185317993E0,-8.432006836E-1
3.728888229E0,-3.490142822E-1,9.393615723E0,-1.001220703E0
3.733923629E0,-2.723999023E-1,9.630645752E0,-1.015579224E0
3.738959029E0,-1.766357422E-1,9.853302002E0,-1.089813232E0
3.744024947E0,-3.298950195E-2,1.004962158E1,-1.147262573E0
3.749060348E0,1.010894775E-1,1.021003723E1,-1.166427612E0
3.754095748E0,1.944580078E-1,1.029144287E1,-1.190368652E0
3.759131149E0,2.231903076E-1,1.028665161E1,-1.274154663E0
3.764197067E0,1.729125977E-1,1.033453369E1,-1.401046753E0
3.769232467E0,2.183990479E-1,1.028425598E1,-1.336410522E0
3.774267867E0,2.854461670E-1,1.031777954E1,-1.283737183E0
3.779333785E0,2.591094971E-1,1.034172058E1,-1.233459473E0
3.784369186E0,1.848907471E-1,1.029144287E1,-1.175994873E0
3.789404586E0,8.673095703E-2,1.019088745E1,-1.202331543E0
3.794439987E0,4.122924805E-2,1.000413513E1,-1.132904053E0
3.799505904E0,-4.974365234E-2,9.829360962E0,-1.056289673E0
3.804541305E0,-1.694488525E-1,9.604309082E0,-1.061080933E0
3.809576705E0,-2.173461914E-1,9.537261963E0,-1.164031982E0
3.814612106E0,-2.723999023E-1,9.436706543E0,-1.353164673E0
3.819678024E0,-1.934051514E-1,9.393615723E0,-1.401046753E0
3.824713424E0,-2.245178223E-1,9.379241943E0,-1.341201782E0
3.829748824E0,-3.322601318E-1,9.429534912E0,-1.386688232E0
3.834784225E0,-4.495849609E-1,9.491775513E0,-1.535125732E0
3.839850143E0,-5.142211914E-1,9.503753662E0,-1.702728271E0
3.844885543E0,-5.836486816E-1,9.475021362E0,-1.695541382E0
3.849920944E0,-5.668945312E-1,9.479812622E0,-1.599777222E0
3.854956344E0,-4.112701416E-1,9.448684692E0,-1.556671143E0
3.860022262E0,-3.729705811E-1,9.424743652E0,-1.669204712E0
3.865057662E0,-4.088745117E-1,9.458251953E0,-1.934967041E0
3.870093063E0,-3.274688721E-1,9.472625732E0,-2.136077881E0
3.875128463E0,-2.221221924E-1,9.451080322E0,-2.097763062E0
3.880194381E0,-9.762573242E-2,9.472625732E0,-1.930175781E0
3.885229781E0,-3.778076172E-2,9.525299072E0,-1.858352661E0
3.890265182E0,2.207946777E-2,9.587539673E0,-1.956512451E0
3.895300582E0,1.082763672E-1,9.700073242E0,-1.946929932E0
3.900366500E0,2.495269775E-1,9.879638672E0,-1.832015991E0
3.905401901E0,3.189544678E-1,1.006878662E1,-1.784118652E0
3.910437301E0,2.303771973E-1,1.021003723E1,-1.738632202E0
3.915472701E0,1.393890381E-1,1.021961975E1,-1.563858032E0
3.920538619E0,1.082763672E-1,1.015496826E1,-1.288528442E0
3.925574020E0,5.799865723E-2,1.010948181E1,-1.178390503E0
3.930609420E0,-1.526947021E-1,1.006399536E1,-1.187973022E0
3.935644820E0,-2.317047119E-1,9.946670532E0,-1.293319702E0
3.940710738E0,-1.957855225E-1,9.807815552E0,-1.247817993E0
3.945746139E0,-2.891693115E-1,9.554031372E0,-1.235855103E0
3.950781539E0,-4.543609619E-1,9.360092163E0,-1.331619263E0
3.955847457E0,-6.411132812E-1,9.226013184E0,-1.472885132E0
3.960882858E0,-7.799835205E-1,9.127853394E0,-1.537521362E0
3.965918258E0,-8.637695312E-1,9.103912354E0,-1.611740112E0
3.970953658E0,-9.212341309E-1,9.161376953E0,-1.839187622E0
3.976019576E0,-9.140472412E-1,9.314605713E0,-2.107345581E0
3.981054977E0,-9.403839111E-1,9.482192993E0,-2.301269531E0
3.986090377E0,-9.619293213E-1,9.580368042E0,-2.375488281E0
3.991125778E0,-9.595489502E-1,9.676132202E0,-2.464080811E0
3.996191695E0,-9.236297607E-1,9.666549683E0,-2.456893921E0
4.001227096E0,-8.206787109E-1,9.618667603E0,-2.368316650E0
4.006262496E0,-7.344818115E-1,9.671340942E0,-2.286911011E0
4.011297897E0,-6.411132812E-1,9.707260132E0,-2.131286621E0
4.016363815E0,-4.639434814E-1,9.656982422E0,-1.922988892E0
4.021399215E0,-3.059234619E-1,9.690490723E0,-1.748214722E0
4.026434615E0,-2.508544922E-1,9.795837402E0,-1.719482422E0
4.031470016E0,2.639007568E-1,9.498962402E0,-1.530334473E0
4.036535934E0,1.393890381E-1,9.826965332E0,-1.424987793E0
4.041571334E0,8.911132812E-2,1.005441284E1,-1.156845093E0
4.046606735E0,2.830505371E-1,1.009510803E1,-9.748840332E-1
4.051642135E0,5.296478271E-1,1.005680847E1,-9.940338135E-1
4.056708053E0,7.235870361E-1,1.014300537E1,-9.892425537E-1
4.061743453E0,9.797668457E-1,1.009750366E1,-9.437561035E-1
4.066778854E0,1.223968506E0,1.003526306E1,-9.365844727E-1
4.071844772E0,1.420288086E0,9.999343872E0,-9.509429932E-1
4.076880172E0,1.566345215E0,9.965835571E0,-9.198150635E-1
4.081915572E0,1.659713745E0,9.874847412E0,-9.150238037E-1
4.086950973E0,1.681259155E0,9.769500732E0,-8.503875732E-1
4.092016891E0,1.633377075E0,9.690490723E0,-7.977142334E-1
4.097052291E0,1.511276245E0,9.589935303E0,-7.354583740E-1
4.102087692E0,1.389175415E0,9.570785522E0,-5.199890137E-1
4.107123092E0,1.298187256E0,9.673736572E0,-3.739471436E-1
4.112189010E0,1.231155396E0,9.747955322E0,-3.308410645E-1
4.117224410E0,1.197631836E0,9.805419922E0,-3.476104736E-1
4.122259811E0,1.147354126E0,9.855697632E0,-4.649200439E-1
4.127295211E0,1.144958496E0,9.903579712E0,-5.319519043E-1
4.132361129E0,1.183273315E0,9.941879272E0,-5.582885742E-1
4.137396529E0,1.226364136E0,9.886825562E0,-5.319519043E-1
4.142431930E0,1.262283325E0,9.846115112E0,-4.577331543E-1
4.147467330E0,1.295791626E0,9.786270142E0,-4.864654541E-1
4.152533248E0,1.331710815E0,9.762313843E0,-3.978881836E-1
4.157568649E0,1.329315186E0,9.688095093E0,-3.643646240E-1
4.162634567E0,1.300582886E0,9.618667603E0,-4.170379639E-1
4.167669967E0,1.336502075E0,9.467834473E0,-5.918121338E-1
4.172705367E0,1.188049316E0,9.769500732E0,-1.656494141E-1
4.177740768E0,1.104263306E0,9.896392822E0,-2.063446045E-1
4.182776168E0,1.130599976E0,9.855697632E0,-3.045043945E-1
4.187811569E0,1.077926636E0,9.819778442E0,-2.183227539E-1
4.192877487E0,1.010879517E0,9.826965332E0,-1.273345947E-1
4.197912887E0,9.246978760E-1,9.810211182E0,-1.201477051E-1
4.202978805E0,8.792114258E-1,9.779083252E0,2.589416504E-2
4.208014205E0,8.145599365E-1,9.764709473E0,8.573913574E-2
4.213049606E0,7.690734863E-1,9.764709473E0,1.192626953E-1
4.218085006E0,6.876678467E-1,9.745559692E0,1.527862549E-1
4.223120406E0,6.230316162E-1,9.752746582E0,1.719360352E-1
4.228186324E0,5.392303467E-1,9.757537842E0,1.623687744E-1
4.233221725E0,5.128936768E-1,9.738372803E0,1.049041748E-1
4.238257125E0,4.865570068E-1,9.721618652E0,1.336364746E-1
4.243292526E0,4.314880371E-1,9.700073242E0,1.647491455E-1
4.248358444E0,4.147338867E-1,9.750350952E0,1.623687744E-1
4.253393844E0,3.668518066E-1,9.721618652E0,8.813476562E-2
4.258429244E0,3.596649170E-1,9.731201172E0,8.813476562E-2
4.263495162E0,3.333282471E-1,9.740768433E0,6.658935547E-2
4.268530563E0,4.602203369E-1,9.486984253E0,-2.398681641E-1
4.273565963E0,3.740234375E-1,9.714431763E0,1.934814453E-1
4.278601363E0,1.753082275E-1,9.884429932E0,3.874206543E-1
4.283636764E0,2.351684570E-1,9.783874512E0,8.335876465E-2
4.288702682E0,3.405151367E-1,9.786270142E0,-1.481628418E-2
4.293738082E0,3.740234375E-1,9.807815552E0,4.025268555E-2
4.298773483E0,3.045959473E-1,9.838928223E0,9.532165527E-2
4.303808883E0,3.333282471E-1,9.812606812E0,1.551818848E-1
4.308874801E0,3.405151367E-1,9.769500732E0,2.461547852E-1
4.313910201E0,2.926177979E-1,9.783874512E0,3.108062744E-1
4.318945602E0,2.591094971E-1,9.795837402E0,3.108062744E-1
4.323981002E0,4.003601074E-1,9.544448853E0,3.068542480E-2
4.329046920E0,3.692321777E-1,9.874847412E0,6.436004639E-1
4.334082320E0,5.560302734E-2,1.005920410E1,7.202148438E-1
4.339117721E0,4.841613770E-2,9.996948242E0,4.664306641E-1
4.344183639E0,2.878417969E-1,9.877243042E0,4.736022949E-1
4.349219039E0,3.500823975E-1,9.728805542E0,5.191040039E-1
4.354254440E0,2.950134277E-1,9.747955322E0,4.831848145E-1
4.359289840E0,2.183990479E-1,9.752746582E0,5.310668945E-1
4.364355758E0,1.585540771E-1,9.795837402E0,6.579589844E-1
4.369391158E0,1.322174072E-1,9.798233032E0,7.393646240E-1
4.374426559E0,1.034851074E-1,9.807815552E0,8.040008545E-1
4.379461959E0,8.673095703E-2,9.824569702E0,8.016204834E-1
4.384527877E0,9.390258789E-2,9.829360962E0,7.728881836E-1
4.389563278E0,1.106719971E-1,9.551635742E0,2.892608643E-1
4.394598678E0,1.298217773E-1,9.865264893E0,8.614654541E-1
4.399634078E0,3.166198730E-2,1.004483032E1,1.072158813E0
4.404699996E0,-4.017639160E-2,1.005680847E1,8.423156738E-1
4.409735397E0,-4.257202148E-3,1.001371765E1,8.087921143E-1
4.414770797E0,2.687072754E-2,9.977798462E0,8.901977539E-1
4.419806197E0,-4.257202148E-3,9.932312012E0,9.596252441E-1
4.424872115E0,-3.538513184E-2,9.915557861E0,1.019485474E0
4.429907516E0,-3.059387207E-2,9.925125122E0,1.057785034E0
4.434942916E0,7.720947266E-3,9.956253052E0,1.069763184E0
4.439978317E0,-1.191711426E-1,9.939498901E0,1.043426514E0
4.445044235E0,3.405761719E-2,9.901184082E0,1.084121704E0
4.450079635E0,2.782592773E-1,9.879638672E0,8.806152344E-1
4.455115035E0,1.178436279E-1,9.889221191E0,9.117431641E-1
4.460180953E0,3.883361816E-2,9.908370972E0,9.404754639E-1
4.465216354E0,6.039428711E-2,9.927520752E0,8.758392334E-1
4.470251754E0,3.643798828E-2,9.898788452E0,8.087921143E-1
4.475287154E0,-6.411743164E-2,9.870056152E0,7.800598145E-1
4.480353072E0,-5.693054199E-2,9.925125122E0,7.752838135E-1
4.485388473E0,-9.045410156E-2,9.949066162E0,7.441558838E-1
4.490423873E0,-1.143951416E-1,1.000892639E1,6.603546143E-1
4.495459274E0,-1.335449219E-1,9.973007202E0,7.537231445E-1
4.500525192E0,-1.239624023E-1,9.973007202E0,7.585144043E-1
4.505560592E0,-2.029724121E-1,9.987380981E0,7.704925537E-1
4.510595992E0,-2.676239014E-1,9.975402832E0,7.800598145E-1
4.515631393E0,-3.538055420E-1,9.987380981E0,8.734436035E-1
4.520697311E0,-4.615478516E-1,9.913162231E0,9.189300537E-1
4.525732711E0,-6.602630615E-1,9.908370972E0,1.017089844E0
4.530768112E0,-4.495849609E-1,9.929916382E0,9.141387939E-1
4.535803512E0,-5.285797119E-1,9.963439941E0,7.106323242E-1
4.540869430E0,-5.597076416E-1,1.001611328E1,7.800598145E-1
4.545904830E0,-3.466339111E-1,9.393615723E0,4.161529541E-1
4.550940231E0,-2.173461914E-1,9.592330933E0,8.878021240E-1
4.555975631E0,-1.862182617E-1,9.788650513E0,1.337921143E0
4.561041549E0,-2.652282715E-1,9.855697632E0,1.213409424E0
4.566076949E0,-2.676239014E-1,9.846115112E0,1.009902954E0
4.571112350E0,-2.436828613E-1,9.793441772E0,8.782348633E-1
4.576147750E0,-1.215667725E-1,9.781478882E0,6.866912842E-1
4.581213668E0,-6.172180176E-2,9.901184082E0,5.669860840E-1
4.586249069E0,-7.368469238E-2,9.872451782E0,4.592437744E-1
4.591314987E0,-1.622009277E-2,9.817382812E0,4.712066650E-1
4.596350387E0,6.039428711E-2,9.882034302E0,5.597991943E-1
4.601385787E0,4.841613770E-2,9.858093262E0,4.017791748E-1
4.606421188E0,5.325317383E-3,9.961044312E0,3.993835449E-1
4.611456588E0,3.883361816E-2,1.009510803E1,4.759979248E-1
4.616522506E0,5.325317383E-3,9.996948242E0,4.664306641E-1
4.621557906E0,-2.340698242E-2,9.810211182E0,5.406494141E-1
4.626593307E0,2.687072754E-2,9.731201172E0,6.028900146E-1
4.631628707E0,5.560302734E-2,9.664154053E0,6.340179443E-1
4.636694625E0,1.226348877E-1,9.747955322E0,6.412048340E-1
4.641730026E0,6.996154785E-2,9.803024292E0,6.172637939E-1
4.646765426E0,2.447509766E-2,9.800628662E0,6.819000244E-1
4.651800826E0,5.560302734E-2,9.824569702E0,5.980987549E-1
4.656866744E0,9.150695801E-2,9.807815552E0,5.980987549E-1
4.661902145E0,9.390258789E-2,9.814987183E0,5.550079346E-1
4.666937545E0,8.433532715E-2,9.841323853E0,5.597991943E-1
4.671972945E0,1.130523682E-1,9.889221191E0,6.124725342E-1
4.677038863E0,1.034851074E-1,9.953857422E0,5.693817139E-1
4.682074264E0,1.370086670E-1,9.977798462E0,5.693817139E-1
4.687109664E0,1.250305176E-1,9.965835571E0,6.244354248E-1
4.692145065E0,9.150695801E-2,9.956253052E0,6.938781738E-1
4.697210983E0,1.058807373E-1,9.927520752E0,8.040008545E-1
4.702246383E0,3.788146973E-1,9.475021362E0,5.717620850E-1
4.707281783E0,4.171295166E-1,9.613876343E0,8.495025635E-1
4.712317184E0,-9.523010254E-2,9.929916382E0,1.438476562E0
4.717383102E0,2.351684570E-1,9.690490723E0,1.017089844E0
4.722418502E0,2.495269775E-1,9.893997192E0,1.304397583E0
4.727453903E0,5.799865723E-2,9.925125122E0,1.270874023E0
4.732489303E0,2.591094971E-1,9.759933472E0,1.278060913E0
4.737555221E0,3.692321777E-1,9.846115112E0,1.254119873E0
4.742590621E0,3.955688477E-1,9.980194092E0,1.148773193E0
4.747626022E0,4.147338867E-1,1.013581848E1,1.167922974E0
4.752691940E0,4.434661865E-1,1.014300537E1,1.242141724E0
4.757727340E0,4.243011475E-1,1.000892639E1,1.191864014E0
4.762762740E0,4.961395264E-1,9.831756592E0,1.175109863E0
4.767798141E0,5.823211670E-1,9.726409912E0,1.199050903E0
4.772864059E0,6.373901367E-1,9.666549683E0,1.215805054E0
4.777899459E0,6.613311768E-1,9.709655762E0,1.249328613E0
4.782934860E0,6.589355469E-1,9.838928223E0,1.177505493E0
4.787970260E0,6.613311768E-1,9.910766602E0,1.108078003E0
4.793036178E0,5.607757568E-1,9.939498901E0,1.076950073E0
4.798071578E0,4.817657471E-1,9.927520752E0,1.050613403E0
4.803137496E0,3.907928467E-1,9.862884521E0,1.031463623E0
4.808172897E0,3.069915771E-1,9.788650513E0,1.124832153E0
4.813208297E0,2.136230469E-1,9.812606812E0,1.139190674E0
4.818243697E0,6.996154785E-2,9.831756592E0,1.084121704E0
4.823279098E0,-3.298950195E-2,9.874847412E0,1.038635254E0
4.828314498E0,-1.431121826E-1,9.877243042E0,9.907531738E-1
4.833380416E0,-2.580413818E-1,9.822174072E0,9.237213135E-1
4.838415817E0,-3.921203613E-1,9.812606812E0,8.758392334E-1
4.843451217E0,-4.663391113E-1,9.862884521E0,7.896423340E-1
4.848486617E0,-5.644989014E-1,9.872451782E0,8.518981934E-1
4.853552535E0,-6.411132812E-1,9.889221191E0,8.614654541E-1
4.858587936E0,-6.578674316E-1,9.901184082E0,7.417602539E-1
4.863623336E0,-7.153320312E-1,9.934707642E0,5.909271240E-1
4.868689254E0,-6.459045410E-1,9.886825562E0,5.933227539E-1
4.873724654E0,-6.554718018E-1,9.867660522E0,6.316223145E-1
4.878760055E0,-6.315307617E-1,9.812606812E0,7.082366943E-1
4.883795455E0,-5.046386719E-1,9.738372803E0,7.776641846E-1
4.888861373E0,-4.184570312E-1,9.671340942E0,7.944335938E-1
4.893896774E0,-3.346557617E-1,9.613876343E0,9.045562744E-1
4.898932174E0,-2.197265625E-1,9.642608643E0,9.739990234E-1
4.903967574E0,-1.359405518E-1,9.683319092E0,1.031463623E0
4.909033492E0,-3.298950195E-2,9.733596802E0,1.029067993E0
4.914068893E0,6.756591797E-2,9.803024292E0,1.009902954E0
4.919104293E0,1.441802979E-1,9.831756592E0,9.548492432E-1
4.924139694E0,2.136230469E-1,9.803024292E0,8.830108643E-1
4.929205612E0,2.998046875E-1,9.733596802E0,9.380798340E-1
4.934241012E0,3.357238770E-1,9.700073242E0,9.739990234E-1
4.939276412E0,3.668518066E-1,9.774291992E0,9.739990234E-1
4.944311813E0,3.165740967E-1,9.865264893E0,1.000335693E0
4.949377731E0,3.045959473E-1,9.910766602E0,1.062576294E0
4.954413131E0,3.141784668E-1,9.917938232E0,1.072158813E0
4.959448531E0,2.806549072E-1,9.913162231E0,1.086517334E0
4.964483932E0,2.591094971E-1,9.903579712E0,1.112854004E0
4.969549850E0,2.543182373E-1,9.805419922E0,1.203842163E0
4.974585250E0,4.961395264E-1,9.546844482E0,1.268478394E0
4.979620651E0,4.123382568E-1,9.786270142E0,1.206237793E0
4.984686569E0,3.093872070E-1,1.004005432E1,1.254119873E0
4.989721969E0,4.123382568E-1,9.989776611E0,1.273269653E0
4.994757369E0,4.602203369E-1,9.889221191E0,1.287643433E0
4.999792770E0,4.602203369E-1,9.803024292E0,1.321151733E0
5.004858688E0,3.955688477E-1,9.759933472E0,1.357070923E0
5.009894088E0,3.740234375E-1,9.774291992E0,1.366638184E0
5.014929488E0,3.261413574E-1,9.810211182E0,1.268478394E0
5.019995406E0,2.878417969E-1,9.843719482E0,1.187072754E0
5.025030807E0,2.734680176E-1,9.915557861E0,1.136795044E0
5.030066207E0,2.758636475E-1,9.961044312E0,1.100891113E0
5.035101608E0,2.639007568E-1,9.925125122E0,1.084121704E0
5.040137008E0,2.662963867E-1,9.903579712E0,1.048217773E0
5.045202926E0,3.022003174E-1,9.877243042E0,1.002731323E0
5.050238326E0,3.333282471E-1,9.814987183E0,9.883575439E-1
5.055273727E0,3.524780273E-1,9.767105103E0,9.692077637E-1
5.060309127E0,3.500823975E-1,9.661758423E0,9.907531738E-1
5.065375045E0,3.405151367E-1,9.654586792E0,1.048217773E0
5.070410445E0,3.045959473E-1,9.692886353E0,1.153564453E0
5.075445846E0,3.045959473E-1,9.750350952E0,1.093704224E0
5.080481246E0,3.117828369E-1,9.745559692E0,1.064971924E0
5.085547164E0,3.524780273E-1,9.798233032E0,1.041030884E0
5.090582565E0,3.716278076E-1,9.774291992E0,1.002731323E0
5.095617965E0,4.266967773E-1,9.788650513E0,1.017089844E0
5.100653365E0,4.482421875E-1,9.800628662E0,1.048217773E0
5.105719283E0,4.434661865E-1,9.783874512E0,1.088912964E0
5.110754684E0,4.362792969E-1,9.774291992E0,1.120040894E0
5.115790084E0,4.314880371E-1,9.779083252E0,1.088912964E0
5.120856002E0,4.410705566E-1,9.783874512E0,1.108078003E0
5.125891403E0,4.290924072E-1,9.791046143E0,1.184692383E0
5.130926803E0,4.434661865E-1,9.798233032E0,1.199050903E0
5.135962203E0,4.243011475E-1,9.803024292E0,1.170318604E0
5.141017397E0,4.314880371E-1,9.817382812E0,1.151168823E0
5.146052798E0,4.338836670E-1,9.841323853E0,1.141586304E0
5.151088198E0,4.171295166E-1,9.843719482E0,1.110458374E0
5.156123598E0,4.051513672E-1,9.850906372E0,1.110458374E0
5.161189516E0,3.716278076E-1,9.803024292E0,1.084121704E0
5.166224917E0,3.405151367E-1,9.759933472E0,1.100891113E0
5.171260317E0,3.189544678E-1,9.724014282E0,1.100891113E0
5.176295718E0,3.022003174E-1,9.704864502E0,1.122436523E0
5.181361636E0,3.069915771E-1,9.771896362E0,1.134414673E0
5.186397036E0,3.165740967E-1,9.788650513E0,1.134414673E0
5.191432436E0,3.524780273E-1,9.822174072E0,1.072158813E0
5.196498354E0,4.051513672E-1,9.853302002E0,1.045822144E0
5.201533755E0,4.243011475E-1,9.908370972E0,1.029067993E0
5.206569155E0,4.698028564E-1,9.913162231E0,9.476623535E-1
5.211604555E0,5.033111572E-1,9.882034302E0,9.141387939E-1
5.216639956E0,4.913482666E-1,9.886825562E0,9.380798340E-1
5.221705874E0,5.081024170E-1,9.843719482E0,9.979400635E-1
5.226741274E0,5.057067871E-1,9.798233032E0,9.739990234E-1
5.231776675E0,4.841613770E-1,9.814987183E0,1.009902954E0
5.236842593E0,4.410705566E-1,9.759933472E0,1.033843994E0
5.241877993E0,4.075469971E-1,9.735992432E0,1.081741333E0
5.246913393E0,3.979644775E-1,9.683319092E0,1.045822144E0
5.251948794E0,4.314880371E-1,9.635421753E0,9.955444336E-1
5.257014712E0,4.530334473E-1,9.604309082E0,1.019485474E0
5.262050112E0,4.554290771E-1,9.630645752E0,9.859619141E-1
5.267085513E0,4.721832275E-1,9.625854492E0,9.644165039E-1
5.272120913E0,4.937438965E-1,9.621063232E0,9.500579834E-1
5.277186831E0,5.224609375E-1,9.623458862E0,9.285125732E-1
5.282222231E0,5.057067871E-1,9.597122192E0,9.021759033E-1
5.287257632E0,5.344390869E-1,9.630645752E0,8.973846436E-1
5.292293032E0,6.110534668E-1,9.613876343E0,9.332885742E-1
5.297358950E0,5.775299072E-1,9.671340942E0,9.213256836E-1
5.302394350E0,5.607757568E-1,9.743164062E0,8.830108643E-1
5.307429751E0,6.038665771E-1,9.817382812E0,8.423156738E-1
5.312495669E0,6.038665771E-1,9.850906372E0,8.183746338E-1
5.317531069E0,6.110534668E-1,9.872451782E0,8.327331543E-1
5.322566470E0,6.206359863E-1,9.898788452E0,7.800598145E-1
5.327601870E0,5.990753174E-1,9.891601562E0,7.657012939E-1
5.332637270E0,5.535888672E-1,9.834152222E0,7.896423340E-1
5.337703188E0,5.799255371E-1,9.805419922E0,7.968292236E-1
5.342738589E0,5.775299072E-1,9.812606812E0,8.159790039E-1
5.347773989E0,5.966949463E-1,9.786270142E0,7.609100342E-1
5.352809389E0,6.182403564E-1,9.724014282E0,6.819000244E-1
5.357875307E0,6.086578369E-1,9.747955322E0,7.154235840E-1
5.362910708E0,5.607757568E-1,9.731201172E0,7.178192139E-1
5.367946108E0,5.224609375E-1,9.731201172E0,7.178192139E-1
5.373012026E0,4.698028564E-1,9.752746582E0,7.369689941E-1
5.378047427E0,4.434661865E-1,9.757537842E0,6.555633545E-1
5.383082827E0,4.386749268E-1,9.726409912E0,6.244354248E-1
5.388118227E0,4.266967773E-1,9.757537842E0,6.531677246E-1
5.393184145E0,4.386749268E-1,9.724014282E0,6.364135742E-1
5.398219546E0,4.243011475E-1,9.728805542E0,6.579589844E-1
5.403254946E0,3.716278076E-1,9.735992432E0,6.196594238E-1
5.408290346E0,3.764190674E-1,9.781478882E0,6.148681641E-1
5.413356264E0,3.860015869E-1,9.814987183E0,6.316223145E-1
5.418391665E0,3.429107666E-1,9.814987183E0,6.675415039E-1
5.423427065E0,3.620605469E-1,9.795837402E0,6.938781738E-1
5.428462466E0,4.099426270E-1,9.805419922E0,7.058410645E-1
5.433528384E0,4.482421875E-1,9.855697632E0,7.130279541E-1
5.438563784E0,5.368347168E-1,9.800628662E0,6.771087646E-1
5.443599184E0,5.320434570E-1,9.764709473E0,6.795043945E-1
5.448634585E0,5.368347168E-1,9.755142212E0,6.436004639E-1
5.453700503E0,5.871124268E-1,9.724014282E0,6.531677246E-1
5.458735903E0,5.823211670E-1,9.707260132E0,6.795043945E-1
5.463771304E0,5.416259766E-1,9.704864502E0,7.202148438E-1
5.468806704E0,5.152893066E-1,9.745559692E0,7.537231445E-1
5.473872622E0,5.320434570E-1,9.743164062E0,7.321777344E-1
5.478908022E0,5.344390869E-1,9.731201172E0,7.297821045E-1
5.483943423E0,5.128936768E-1,9.767105103E0,7.633056641E-1
5.489009341E0,4.937438965E-1,9.767105103E0,7.202148438E-1
5.494044741E0,4.961395264E-1,9.791046143E0,7.130279541E-1
5.499080141E0,5.440216064E-1,9.812606812E0,6.723327637E-1
5.504115542E0,5.895080566E-1,9.786270142E0,6.412048340E-1
5.509181460E0,6.397857666E-1,9.793441772E0,6.316223145E-1
5.514216860E0,6.469726562E-1,9.791046143E0,6.723327637E-1
5.519252261E0,6.637268066E-1,9.764709473E0,7.130279541E-1
5.524287661E0,6.780853271E-1,9.731201172E0,7.465515137E-1
5.529353579E0,7.164001465E-1,9.750350952E0,7.896423340E-1
5.534388979E0,7.403411865E-1,9.757537842E0,8.111877441E-1
5.539424380E0,7.020263672E-1,9.735992432E0,7.848510742E-1
5.544459780E0,6.086578369E-1,9.673736572E0,7.968292236E-1
5.549525698E0,6.900634766E-1,9.673736572E0,7.968292236E-1
5.554561098E0,8.289337158E-1,9.597122192E0,7.752838135E-1
5.559596499E0,7.858276367E-1,9.527694702E0,8.183746338E-1
5.564631899E0,5.871124268E-1,9.872451782E0,8.063964844E-1
5.569697817E0,5.583801270E-1,9.968215942E0,7.728881836E-1
5.574733218E0,6.302032471E-1,9.908370972E0,8.207702637E-1
5.579768618E0,5.990753174E-1,9.810211182E0,8.686523438E-1
5.584804018E0,6.278076172E-1,9.779083252E0,8.901977539E-1
5.589869936E0,6.373901367E-1,9.757537842E0,8.758392334E-1
5.594905337E0,6.421813965E-1,9.762313843E0,8.949890137E-1
5.599940737E0,6.517486572E-1,9.752746582E0,8.854064941E-1
5.604976138E0,6.325988770E-1,9.735992432E0,8.638610840E-1
5.610042055E0,6.469726562E-1,9.704864502E0,8.471069336E-1
5.615077456E0,6.589355469E-1,9.659378052E0,8.495025635E-1
5.620112856E0,6.302032471E-1,9.671340942E0,8.662567139E-1
5.625148257E0,6.062622070E-1,9.692886353E0,8.925933838E-1
5.630214175E0,5.416259766E-1,9.714431763E0,9.141387939E-1
5.635249575E0,5.511932373E-1,9.726409912E0,9.308929443E-1
5.640284975E0,5.966949463E-1,9.735992432E0,9.069519043E-1
5.645350893E0,6.038665771E-1,9.719223022E0,9.596252441E-1
5.650386294E0,6.565399170E-1,9.724014282E0,1.024276733E0
5.655421694E0,6.948547363E-1,9.752746582E0,1.057785034E0
5.660457095E0,7.187957764E-1,9.779083252E0,1.120040894E0
5.665523013E0,7.283630371E-1,9.767105103E0,1.132019043E0
5.670558413E0,7.570953369E-1,9.743164062E0,1.203842163E0
5.675593813E0,8.049774170E-1,9.755142212E0,1.220596313E0
5.680629214E0,8.097686768E-1,9.721618652E0,1.273269653E0
5.685695132E0,8.073730469E-1,9.726409912E0,1.249328613E0
5.690730532E0,8.313140869E-1,9.745559692E0,1.290023804E0
5.695765932E0,8.145599365E-1,9.738372803E0,1.256515503E0
5.700801333E0,8.049774170E-1,9.728805542E0,1.242141724E0
5.705867251E0,7.834320068E-1,9.661758423E0,1.179901123E0
5.710902651E0,7.187957764E-1,9.585144043E0,1.129623413E0
5.715938052E0,7.092132568E-1,9.573181152E0,1.098495483E0
5.720973452E0,6.182403564E-1,9.637817383E0,1.105682373E0
5.726039370E0,5.320434570E-1,9.678527832E0,1.084121704E0
5.731074770E0,4.602203369E-1,9.678527832E0,1.019485474E0
5.736110171E0,4.338836670E-1,9.680923462E0,1.108078003E0
5.741145571E0,4.314880371E-1,9.683319092E0,1.165527344E0
5.746211489E0,3.740234375E-1,9.728805542E0,1.153564453E0
5.751246889E0,2.662963867E-1,9.735992432E0,1.167922974E0
5.756282290E0,2.040405273E-1,9.791046143E0,1.122436523E0
5.761348208E0,2.327728271E-1,9.788650513E0,1.012298584E0
5.766383608E0,2.160034180E-1,9.798233032E0,9.572296143E-1
5.771419009E0,9.150695801E-2,9.850906372E0,9.093475342E-1
5.776454409E0,-9.048461914E-3,9.893997192E0,7.848510742E-1
5.781520327E0,-1.143951416E-1,9.913162231E0,6.172637939E-1
5.786555727E0,-2.077636719E-1,9.917938232E0,4.927673340E-1
5.791591128E0,-2.077636719E-1,9.949066162E0,4.759979248E-1
5.796626528E0,-1.838226318E-1,9.910766602E0,5.885314941E-1
5.801692446E0,-3.226776123E-1,9.807815552E0,6.914825439E-1
5.806727846E0,-6.913909912E-1,9.611480713E0,8.327331543E-1
5.811763247E0,-1.502990723E-1,9.922729492E0,8.925933838E-1
5.816798647E0,2.327728271E-1,9.977798462E0,7.178192139E-1
5.821864565E0,2.974090576E-1,1.002568054E1,6.459960938E-1
5.826899966E0,2.375640869E-1,1.004483032E1,7.178192139E-1
5.831935366E0,2.255859375E-1,1.005920410E1,8.710479736E-1
5.836970766E0,2.423400879E-1,1.005201721E1,8.854064941E-1
5.842036684E0,2.207946777E-1,9.982589722E0,8.997802734E-1
5.847072085E0,2.902374268E-1,9.934707642E0,8.734436035E-1
5.852107485E0,2.207946777E-1,9.858093262E0,8.423156738E-1
5.857142886E0,2.136230469E-1,9.882034302E0,8.710479736E-1
5.862208804E0,2.231903076E-1,9.836547852E0,8.854064941E-1
5.867244204E0,2.088317871E-1,9.738372803E0,8.183746338E-1
5.872279604E0,2.016448975E-1,9.738372803E0,8.231658936E-1
5.877315005E0,2.950134277E-1,9.305023193E0,6.842956543E-1
5.882380923E0,5.224609375E-1,8.945892334E0,5.382537842E-1
5.887416323E0,4.314880371E-1,9.400802612E0,9.069519043E-1
5.892451723E0,1.992492676E-1,9.568389893E0,9.380798340E-1
5.897517641E0,6.756591797E-2,9.654586792E0,9.093475342E-1
5.902553042E0,7.954406738E-2,9.704864502E0,8.878021240E-1
5.907588442E0,4.362487793E-2,9.704864502E0,8.662567139E-1
5.912623843E0,6.517028809E-2,9.704864502E0,9.285125732E-1
5.917689761E0,9.150695801E-2,9.661758423E0,9.428710938E-1
5.922725161E0,9.629821777E-2,9.604309082E0,9.500579834E-1
5.927760561E0,1.753082275E-1,9.568389893E0,1.012298584E0
5.932795962E0,2.639007568E-1,9.563598633E0,9.835662842E-1
5.937861880E0,3.883972168E-1,9.604309082E0,9.069519043E-1
5.942897280E0,4.171295166E-1,9.630645752E0,9.093475342E-1
5.947932680E0,4.721832275E-1,9.640213013E0,8.159790039E-1
5.952968081E0,5.631713867E-1,9.630645752E0,7.609100342E-1
5.958033999E0,5.942993164E-1,9.690490723E0,6.962738037E-1
5.963069399E0,6.038665771E-1,9.690490723E0,6.675415039E-1
5.968104800E0,5.583801270E-1,9.656982422E0,6.771087646E-1
5.973140200E0,5.583801270E-1,9.673736572E0,6.938781738E-1
5.978206118E0,5.655670166E-1,9.676132202E0,7.680969238E-1
5.983254402E0,5.224609375E-1,9.716827393E0,8.375244141E-1
5.988289803E0,5.128936768E-1,9.712036133E0,8.399200439E-1
5.993325203E0,5.320434570E-1,9.712036133E0,8.351287842E-1
5.998391121E0,5.392303467E-1,9.733596802E0,8.686523438E-1
6.003426522E0,5.296478271E-1,9.728805542E0,8.375244141E-1
6.008461922E0,4.650115967E-1,9.707260132E0,8.782348633E-1
6.013527840E0,3.812103271E-1,9.724014282E0,8.447113037E-1
6.018563240E0,3.860015869E-1,9.716827393E0,8.231658936E-1
6.023598641E0,3.429107666E-1,9.685699463E0,7.776641846E-1
6.028634041E0,3.189544678E-1,9.668945312E0,7.680969238E-1
6.033699959E0,2.902374268E-1,9.678527832E0,7.537231445E-1
6.038735359E0,2.016448975E-1,9.671340942E0,7.202148438E-1
6.043770760E0,1.920623779E-1,9.702468872E0,6.938781738E-1
6.048806160E0,1.465759277E-1,9.676132202E0,6.842956543E-1
6.053872078E0,6.277465820E-2,9.613876343E0,6.483917236E-1
6.058907479E0,2.447509766E-2,9.599517822E0,6.364135742E-1
6.063942879E0,-2.101135254E-2,9.597122192E0,6.004943848E-1
6.068978279E0,-7.128906250E-2,9.580368042E0,6.028900146E-1
6.074044197E0,-1.479034424E-1,9.640213013E0,5.669860840E-1
6.079079598E0,-2.005767822E-1,9.649795532E0,5.071258545E-1
6.084114998E0,-2.532501221E-1,9.659378052E0,5.167083740E-1
6.089150398E0,-2.652282715E-1,9.642608643E0,5.837402344E-1
6.094216316E0,-2.747955322E-1,9.652191162E0,6.172637939E-1
6.099251717E0,-3.011322021E-1,9.690490723E0,6.603546143E-1
6.104287117E0,-2.771911621E-1,9.702468872E0,6.579589844E-1
6.109322518E0,-2.580413818E-1,9.714431763E0,6.866912842E-1
6.114388436E0,-2.436828613E-1,9.685699463E0,6.962738037E-1
6.119423836E0,-2.412872314E-1,9.712036133E0,6.459960938E-1
6.124459236E0,-2.963562012E-1,9.719223022E0,6.890869141E-1
6.129494637E0,-2.580413818E-1,9.721618652E0,7.393646240E-1
6.134560555E0,-2.939605713E-1,9.645004272E0,7.154235840E-1
6.139595955E0,-3.202972412E-1,9.613876343E0,6.412048340E-1
6.144631355E0,-3.370513916E-1,9.671340942E0,6.412048340E-1
6.149697273E0,-3.466339111E-1,9.704864502E0,6.124725342E-1
6.154732674E0,-3.849334717E-1,9.690490723E0,5.597991943E-1
6.159768074E0,-4.136657715E-1,9.735992432E0,5.310668945E-1
6.164803475E0,-3.921203613E-1,9.817382812E0,5.214843750E-1
6.169869393E0,-3.969116211E-1,9.769500732E0,4.831848145E-1
6.174904793E0,-4.256286621E-1,9.697677612E0,4.568481445E-1
6.179940193E0,-4.567565918E-1,9.702468872E0,4.329071045E-1
6.184975594E0,-5.357666016E-1,9.747955322E0,4.640350342E-1
6.190041512E0,-5.716857910E-1,9.740768433E0,4.137573242E-1
6.195076912E0,-6.028137207E-1,9.795837402E0,3.898162842E-1
6.200112313E0,-6.243591309E-1,9.743164062E0,3.730468750E-1
6.205147713E0,-5.908355713E-1,9.750350952E0,3.658752441E-1
6.210213631E0,-6.123809814E-1,9.755142212E0,3.682556152E-1
6.215249031E0,-6.339263916E-1,9.771896362E0,3.251647949E-1
6.220284432E0,-6.554718018E-1,9.817382812E0,2.030639648E-1
6.225319832E0,-5.932312012E-1,9.791046143E0,1.934814453E-1
6.230385750E0,-3.035278320E-1,9.697677612E0,4.448699951E-1
6.235421150E0,2.929687500E-3,9.640213013E0,5.813446045E-1
6.240456551E0,1.322174072E-1,9.642608643E0,5.813446045E-1
6.245491951E0,5.325317383E-3,9.666549683E0,4.951477051E-1
6.250557869E0,-2.173461914E-1,9.738372803E0,4.376983643E-1
6.255593270E0,-3.801422119E-1,9.747955322E0,6.795043945E-1
6.260628670E0,-5.214080811E-1,9.786270142E0,9.500579834E-1
6.265694588E0,-6.698455811E-1,9.783874512E0,1.076950073E0
6.270729988E0,-7.153320312E-1,9.776687622E0,1.041030884E0
6.275765389E0,-6.746368408E-1,9.788650513E0,8.710479736E-1
6.280800789E0,-5.166168213E-1,9.757537842E0,6.483917236E-1
6.285866707E0,-4.256286621E-1,9.733596802E0,3.778381348E-1
6.290902107E0,-2.915649414E-1,9.709655762E0,2.341918945E-1
6.295937508E0,-1.934051514E-1,9.582763672E0,2.940368652E-1
6.300972908E0,-3.538513184E-2,9.257141113E0,4.807891846E-1
6.306038826E0,-2.125549316E-1,9.252349854E0,5.574035645E-1
6.311074227E0,-4.783020020E-1,9.237991333E0,7.273864746E-1
6.316109627E0,-6.865997314E-1,9.240386963E0,7.872467041E-1
6.321145027E0,-8.589935303E-1,9.149398804E0,7.537231445E-1
6.326210945E0,-8.542022705E-1,9.053634644E0,6.052856445E-1
6.331246346E0,-7.727966309E-1,9.036880493E0,6.986694336E-1
6.336281746E0,-6.578674316E-1,9.091949463E0,6.771087646E-1
6.341347664E0,-6.219635010E-1,9.281082153E0,5.837402344E-1
6.346383064E0,-8.182830811E-1,9.822174072E0,5.214843750E-1
6.351418465E0,-1.196563721E0,1.077746582E1,2.700958252E-1
6.356453865E0,-1.529357910E0,1.193147278E1,9.532165527E-2
6.361489266E0,-1.922012329E0,1.316687012E1,-4.425048828E-4
6.366555184E0,-2.132705688E0,1.435440063E1,2.389831543E-1
6.371590584E0,-2.072845459E0,1.519955444E1,5.909271240E-1
6.376656502E0,-1.783142090E0,1.575740051E1,8.399200439E-1
6.381691902E0,-1.376129150E0,1.604710388E1,1.067367554E0
6.386727303E0,-7.560424805E-1,1.620033264E1,1.194259644E0
6.391762703E0,2.902374268E-1,1.571910095E1,1.211029053E0
6.396798104E0,1.365234375E0,1.479493713E1,1.213409424E0
6.401864022E0,2.210388184E0,1.368881226E1,1.086517334E0
6.406899422E0,2.631759644E0,1.241749573E1,7.130279541E-1
6.411934822E0,1.963775635E0,1.089237976E1,2.270050049E-1
6.416970223E0,9.606018066E-1,9.539657593E0,-1.081848145E-1
6.422036141E0,6.565399170E-1,8.646621704E0,-2.733764648E-1
6.427071541E0,7.475280762E-1,8.069625854E0,-3.571777344E-1
6.432106941E0,1.006103516E0,7.873291016E0,-4.146423340E-1
6.437142342E0,1.293395996E0,7.820617676E0,-2.853546143E-1
6.442208260E0,1.585494995E0,7.823013306E0,-2.159271240E-1
6.447243660E0,1.978149414E0,8.000183105E0,-1.242065430E-2
6.452279061E0,2.325302124E0,8.253967285E0,4.831848145E-1
6.457314461E0,2.315719604E0,8.945892334E0,1.064971924E0
6.462380379E0,2.100250244E0,9.551635742E0,1.555786133E0
6.467415779E0,2.002090454E0,9.884429932E0,1.732955933E0
6.472451180E0,1.786605835E0,1.032734680E1,1.553390503E0
6.477486580E0,1.482543945E0,1.071041870E1,1.364257812E0
6.482552498E0,1.154541016E0,1.103364563E1,1.038635254E0
6.487587898E0,8.337097168E-1,1.124194336E1,5.406494141E-1
6.492623299E0,8.408966064E-1,1.124433899E1,3.275604248E-1
6.497658699E0,8.432922363E-1,1.118447876E1,5.023345947E-1
6.502724617E0,9.582061768E-1,1.121800232E1,3.347473145E-1
6.507760018E0,1.006103516E0,1.123475647E1,-1.512756348E-1
6.512795418E0,1.077926636E0,1.099533081E1,-4.409790039E-1
6.517861336E0,1.279037476E0,1.079661560E1,-4.768981934E-1
6.522896736E0,1.367614746E0,1.052847290E1,-5.104064941E-1
6.527932137E0,9.366607666E-1,1.063859558E1,-7.713775635E-1
6.532967537E0,3.860015869E-1,1.116532898E1,-8.743286133E-1
6.538033455E0,1.777038574E-1,1.145262146E1,-7.402496338E-1
6.543068855E0,1.585540771E-1,1.142390442E1,-6.181488037E-1
6.548104256E0,-8.566284180E-2,1.149572754E1,-8.934783936E-1
6.553139656E0,-3.657836914E-1,1.167050171E1,-8.863067627E-1
6.558205574E0,-4.998626709E-1,1.162741089E1,-7.402496338E-1
6.563240975E0,-5.764770508E-1,1.138079834E1,-6.109619141E-1
6.568276375E0,-8.805389404E-1,1.116772461E1,-6.468811035E-1
6.573311775E0,-1.220504761E0,1.119883728E1,-9.964294434E-1
6.578377693E0,-1.203750610E0,1.094026184E1,-1.025161743E0
6.583413094E0,-1.062500000E0,1.061225891E1,-9.006652832E-1
6.588448494E0,-8.733520508E-1,1.022918701E1,-7.210998535E-1
6.593483895E0,-7.344818115E-1,9.989776611E0,-5.630798340E-1
6.598549813E0,-7.081451416E-1,9.882034302E0,-5.128021240E-1
6.603585213E0,-6.818084717E-1,9.858093262E0,-7.450408936E-1
6.608620613E0,-9.092712402E-1,9.783874512E0,-9.533386230E-1
6.613656014E0,-1.103195190E0,9.673736572E0,-8.958740234E-1
6.618721932E0,-1.055313110E0,9.604309082E0,-7.043457031E-1
6.623757332E0,-9.978485107E-1,9.506149292E0,-5.798339844E-1
6.628792732E0,-7.799835205E-1,9.293060303E0,-6.229400635E-1
6.633858650E0,-5.118255615E-1,9.053634644E0,-6.827850342E-1
6.638894051E0,-4.878845215E-1,9.032089233E0,-8.025054932E-1
6.643929451E0,-4.759063721E-1,9.017730713E0,-9.485473633E-1
6.648964852E0,-3.466339111E-1,8.895614624E0,-1.164031982E0
6.654030770E0,-3.107147217E-1,8.847732544E0,-1.362747192E0
6.659066170E0,-3.250732422E-1,8.854919434E0,-1.518371582E0
6.664101570E0,-3.466339111E-1,8.900405884E0,-1.456115723E0
6.669136971E0,-3.059234619E-1,8.866882324E0,-1.305282593E0
6.674202889E0,-2.125549316E-1,8.878860474E0,-1.096984863E0
6.679238289E0,-2.580261230E-2,8.780700684E0,-8.791198730E-1
6.684273689E0,1.202392578E-1,8.627471924E0,-6.780090332E-1
6.689309090E0,2.543182373E-1,8.507766724E0,-4.266052246E-1
6.694375008E0,4.578247070E-1,8.292282104E0,-2.757720947E-1
6.699410408E0,5.607757568E-1,8.072021484E0,-1.632537842E-1
6.704445809E0,6.182403564E-1,7.906814575E0,-1.871948242E-1
6.709481209E0,6.038665771E-1,7.715286255E0,-2.709960938E-1
6.714547127E0,5.751342773E-1,7.614715576E0,-3.284454346E-1
6.719582527E0,5.033111572E-1,7.588378906E0,-4.337921143E-1
6.724617928E0,3.524780273E-1,7.609939575E0,-4.936523438E-1
6.729653328E0,1.944580078E-1,7.681762695E0,-5.080108643E-1
6.734719246E0,3.166198730E-2,7.813446045E0,-4.936523438E-1
6.739754647E0,-1.838226318E-1,7.914001465E0,-4.385833740E-1
6.744790047E0,-4.280242920E-1,7.990615845E0,-4.313964844E-1
6.749825447E0,-7.009735107E-1,8.107925415E0,-4.673156738E-1
6.754891365E0,-9.619293213E-1,8.285095215E0,-5.702667236E-1
6.759926766E0,-1.148681641E0,8.383255005E0,-6.827850342E-1
6.764962166E0,-1.395294189E0,8.438323975E0,-8.336334229E-1
6.770028084E0,-1.634704590E0,8.570007324E0,-9.844665527E-1
6.775063484E0,-1.883697510E0,8.665771484E0,-1.104171753E0
6.780098885E0,-2.230865479E0,8.730422974E0,-1.233459473E0
6.785134285E0,-2.489440918E0,8.732818604E0,-1.255004883E0
6.790200203E0,-2.714492798E0,8.687332153E0,-1.271759033E0
6.795235604E0,-2.915603638E0,8.656204224E0,-1.374710083E0
6.800271004E0,-3.018554688E0,8.596343994E0,-1.372329712E0
6.805306404E0,-3.042495728E0,8.450302124E0,-1.312469482E0
6.810372322E0,-2.997009277E0,8.313827515E0,-1.266983032E0
6.815407723E0,-2.908416748E0,8.117507935E0,-1.168807983E0
6.820443123E0,-2.762374878E0,7.935546875E0,-1.089813232E0
6.825478523E0,-2.599563599E0,7.796676636E0,-1.061080933E0
6.830544441E0,-2.465499878E0,7.755981445E0,-1.010803223E0
6.835579842E0,-2.305084229E0,7.712890625E0,-9.629211426E-1
6.840615242E0,-2.130310059E0,7.648239136E0,-9.006652832E-1
6.845650643E0,-2.017776489E0,7.574020386E0,-9.389648438E-1
6.850716561E0,-1.895675659E0,7.502197266E0,-1.025161743E0
6.855751961E0,-1.761596680E0,7.439941406E0,-1.147262573E0
6.860787361E0,-1.610763550E0,7.396850586E0,-1.178390503E0
6.865853279E0,-1.507812500E0,7.401641846E0,-1.168807983E0
6.870888680E0,-1.371337891E0,7.360931396E0,-1.075439453E0
6.875924080E0,-1.275573730E0,7.262771606E0,-9.485473633E-1
6.880959480E0,-1.242065430E0,7.164611816E0,-8.072967529E-1
6.886025398E0,-1.210937500E0,7.061660767E0,-6.708221436E-1
6.891060799E0,-1.316284180E0,6.932373047E0,-6.349029541E-1
6.896096199E0,-1.409652710E0,6.815063477E0,-5.989990234E-1
6.901131600E0,-1.505416870E0,6.652252197E0,-6.277313232E-1
6.906197518E0,-1.550903320E0,6.487060547E0,-6.540679932E-1
6.911232918E0,-1.522186279E0,6.309875488E0,-6.995544434E-1
6.916268318E0,-1.493453979E0,6.175811768E0,-6.588439941E-1
6.921303719E0,-1.388107300E0,6.013000488E0,-7.187042236E-1
6.926369637E0,-1.301910400E0,5.828643799E0,-8.934783936E-1
6.931405037E0,-1.170227051E0,5.665847778E0,-9.820709229E-1
6.936440438E0,-1.088836670E0,5.550918579E0,-1.003616333E0
6.941475838E0,-9.882659912E-1,5.424026489E0,-9.796752930E-1
6.946541756E0,-8.542022705E-1,5.352203369E0,-9.772796631E-1
6.951577156E0,-7.129364014E-1,5.383331299E0,-9.988250732E-1
6.956612557E0,-5.764770508E-1,5.426422119E0,-9.509429932E-1
6.961647957E0,-4.447937012E-1,5.515014648E0,-9.437561035E-1
6.966713875E0,-4.088745117E-1,5.723297119E0,-9.748840332E-1
6.971749275E0,-3.705749512E-1,5.957931519E0,-9.413604736E-1
6.976784676E0,-3.849334717E-1,6.233261108E0,-8.551788330E-1
6.981820076E0,-3.466339111E-1,6.472686768E0,-8.503875732E-1
6.986885994E0,-2.819824219E-1,6.647460938E0,-9.102478027E-1
6.991921395E0,-5.190124512E-1,7.099975586E0,-9.413604736E-1
6.996956795E0,-6.219635010E-1,7.471069336E0,-1.013198853E0
7.002022713E0,-6.099853516E-1,7.717666626E0,-1.178390503E0
7.007058113E0,-5.692901611E-1,7.873291016E0,-1.381896973E0
7.012093514E0,-6.004180908E-1,8.052856445E0,-1.513580322E0
7.017128914E0,-6.387176514E-1,8.321014404E0,-1.638076782E0
7.022194832E0,-6.530914307E-1,8.522125244E0,-1.659622192E0
7.027230232E0,-5.405578613E-1,8.675354004E0,-1.499221802E0
7.032265633E0,-5.357666016E-1,8.778305054E0,-1.219085693E0
7.037301033E0,-5.477447510E-1,8.763946533E0,-9.509429932E-1
7.042366951E0,-5.285797119E-1,8.665771484E0,-8.767242432E-1
7.047402352E0,-5.357666016E-1,8.440719604E0,-8.025054932E-1
7.052437752E0,-5.070343018E-1,8.182144165E0,-8.072967529E-1
7.057473152E0,-4.543609619E-1,7.861328125E0,-7.713775635E-1
7.062539070E0,-4.735260010E-1,7.528533936E0,-7.546234131E-1
7.067574471E0,-6.578674316E-1,7.174194336E0,-8.503875732E-1
7.072609871E0,-6.698455811E-1,6.898849487E0,-1.053894043E0
7.077645272E0,-8.302612305E-1,6.645065308E0,-1.228668213E0
7.082711189E0,-9.786987305E-1,6.417617798E0,-1.343597412E0
7.087746590E0,-9.595489502E-1,6.250030518E0,-1.494430542E0
7.092781990E0,-9.547576904E-1,6.357772827E0,-1.982849121E0
7.097817391E0,-8.110961914E-1,6.630706787E0,-2.497604370E0
7.102883309E0,-5.477447510E-1,6.992233276E0,-2.737014771E0
7.107918709E0,-3.705749512E-1,7.521347046E0,-3.160797119E0
7.112954109E0,-3.514099121E-1,8.361709595E0,-3.275711060E0
7.118020027E0,-2.436828613E-1,9.149398804E0,-3.584564209E0
7.123055428E0,-3.466339111E-1,1.044227600E1,-4.010726929E0
7.128090828E0,-5.453491211E-1,1.212060547E1,-3.661178589E0
7.133126229E0,-4.328155518E-1,1.377500916E1,-3.005172729E0
7.138192147E0,6.277465820E-2,1.519955444E1,-2.792083740E0
7.143227547E0,9.438476562E-1,1.630807495E1,-1.781723022E0
7.148262947E0,1.671691895E0,1.743334961E1,-1.488800049E-1
7.153298348E0,1.920684814E0,1.814682007E1,8.040008545E-1
7.158364266E0,1.745910645E0,1.813723755E1,8.087921143E-1
7.163399666E0,1.291000366E0,1.803668213E1,-1.680450439E-1
7.168435066E0,1.417846680E-1,1.870466614E1,-1.166427612E0
7.173470467E0,-1.495849609E0,2.039976501E1,-1.911010742E0
7.178536385E0,-3.815826416E0,2.216906738E1,-8.240509033E-1
7.183571785E0,-6.681686401E0,2.365109253E1,3.349044800E0
7.188607186E0,-8.443817139E0,2.332307434E1,9.178924561E0
7.193642586E0,-8.498886108E0,1.886268616E1,1.051968384E1
7.198708504E0,-8.233123779E0,1.261621094E1,3.224548340E0
7.203743904E0,-9.329666138E0,9.460647583E0,-8.152694702E0
7.208779305E0,-8.431838989E0,8.835769653E0,-1.209834290E1
7.213814705E0,-2.836593628E0,8.162994385E0,-7.058547974E0
7.218880623E0,9.390258789E-2,8.723236084E0,6.842956543E-1
7.223916023E0,-2.405639648E0,1.060029602E1,4.378555298E0
7.228951424E0,-4.637039185E0,1.164416504E1,3.361007690E0
7.233986824E0,-4.356918335E0,1.230975342E1,1.579727173E0
7.239052742E0,-3.317825317E0,1.326504517E1,8.973846436E-1
7.244088143E0,-2.156646729E0,1.418441772E1,1.270874023E0
7.249123543E0,-7.704010010E-1,1.476141357E1,1.948440552E0
7.254189461E0,3.836059570E-1,1.452677917E1,1.941253662E0
7.259224861E0,8.552551270E-1,1.462733459E1,1.773666382E0
7.264260262E0,1.051589966E0,1.523307800E1,2.527832031E0
7.269295662E0,9.701843262E-1,1.582682800E1,3.890136719E0
7.274361580E0,6.230316162E-1,1.636552429E1,5.142303467E0
7.279396980E0,8.887786865E-1,1.606146240E1,4.979492188E0
7.284432381E0,1.444229126E0,1.511575317E1,3.782394409E0
7.289467781E0,1.587890625E0,1.440946960E1,2.705001831E0
7.294533699E0,1.425079346E0,1.354994202E1,2.274047852E0
7.299569100E0,1.523239136E0,1.234088135E1,2.089691162E0
7.304604500E0,1.997299194E0,1.105039978E1,1.527053833E0
7.309639900E0,1.980529785E0,1.017651367E1,4.688262939E-1
7.314705818E0,1.370010376E0,9.838928223E0,-5.056152344E-1
7.319741219E0,7.594909668E-1,9.747955322E0,-1.113754272E0
7.324776619E0,1.226348877E-1,1.014060974E1,-1.350769043E0
7.329812020E0,-4.040832520E-1,1.062184143E1,-1.274154663E0
7.334877938E0,-8.733520508E-1,1.095463562E1,-1.101776123E0
7.339913338E0,-1.282760620E0,1.129461670E1,-1.204727173E0
7.344948738E0,-1.634704590E0,1.159628296E1,-1.695541382E0
7.349984139E0,-1.629913330E0,1.156275940E1,-2.064239502E0
7.355050057E0,-7.967376709E-1,1.117489624E1,-1.563858032E0
7.360085457E0,-3.107147217E-1,1.054762268E1,-8.551788330E-1
7.365120857E0,-1.694488525E-1,9.949066162E0,-2.638092041E-1
7.370186775E0,2.926635742E-2,9.321792603E0,9.771728516E-2
7.375222176E0,1.082763672E-1,8.742385864E0,4.783935547E-1
7.380257576E0,1.968383789E-2,8.198913574E0,8.734436035E-1
7.385292977E0,-8.566284180E-2,7.691329956E0,1.187072754E0
7.390358895E0,-1.550903320E-1,7.248413086E0,1.378616333E0
7.395394295E0,-3.418426514E-1,6.882095337E0,1.349884033E0
7.400429695E0,-5.573120117E-1,6.568450928E0,1.249328613E0
7.405495613E0,-7.656097412E-1,6.331436157E0,1.064971924E0
7.410531014E0,-9.403839111E-1,6.137496948E0,7.369689941E-1
7.415566414E0,-1.045730591E0,6.209320068E0,4.281158447E-1
7.420601814E0,-1.158264160E0,6.470291138E0,1.791229248E-1
7.425637215E0,-1.335433960E0,6.862945557E0,-3.157043457E-2
7.430703133E0,-1.673019409E0,7.193344116E0,-1.704254150E-1
7.435738533E0,-2.022567749E0,7.478256226E0,-3.260498047E-1
7.440773934E0,-2.252410889E0,7.679367065E0,-3.595733643E-1
7.445809334E0,-2.336212158E0,7.708099365E0,-3.547821045E-1
7.450875252E0,-2.417617798E0,7.650634766E0,-4.098510742E-1
7.455910652E0,-2.522949219E0,7.535720825E0,-4.697113037E-1
7.460946053E0,-2.506195068E0,7.257980347E0,-4.218292236E-1
7.466011971E0,-2.487045288E0,6.925186157E0,-4.625244141E-1
7.471047371E0,-2.491836548E0,6.702529907E0,-5.199890137E-1
7.476082772E0,-2.458312988E0,6.625915527E0,-5.966033936E-1
7.481118172E0,-2.374511719E0,6.611557007E0,-6.540679932E-1
7.486184090E0,-2.293106079E0,6.657043457E0,-7.570190430E-1
7.491219490E0,-2.283538818E0,6.621124268E0,-8.671417236E-1
7.496254891E0,-2.178192139E0,6.597183228E0,-8.863067627E-1
7.501290291E0,-2.125518799E0,6.479873657E0,-7.761688232E-1
7.506356209E0,-2.072845459E0,6.302703857E0,-5.247802734E-1
7.511391609E0,-1.943557739E0,6.135101318E0,-2.494354248E-1
7.516427010E0,-1.895675659E0,6.125534058E0,-1.297302246E-1
7.521462410E0,-1.965103149E0,6.257217407E0,6.419372559E-2
7.526528328E0,-1.986648560E0,6.539718628E0,4.448699951E-1
7.531563729E0,-2.001022339E0,6.977859497E0,6.459960938E-1
7.536599129E0,-1.977081299E0,7.334594727E0,4.927673340E-1
7.541634529E0,-1.919616699E0,7.681762695E0,4.496612549E-1
7.546700447E0,-1.807083130E0,7.923568726E0,4.496612549E-1
7.551735848E0,-1.766387939E0,8.160598755E0,8.335876465E-2
7.556771248E0,-1.574859619E0,8.225250244E0,-1.417083740E-1
7.561806648E0,-1.388107300E0,8.179748535E0,-4.115295410E-2
7.566872566E0,-1.268402100E0,8.127075195E0,1.288452148E-1
7.571907967E0,-1.107986450E0,7.930755615E0,2.246093750E-1
7.576943367E0,-1.009826660E0,7.614715576E0,5.669860840E-1
7.581978768E0,-1.048126221E0,7.392059326E0,8.159790039E-1
7.587044686E0,-1.273178101E0,7.336990356E0,9.189300537E-1
7.592080086E0,-1.474288940E0,7.296295166E0,9.620208740E-1
7.597115486E0,-1.802307129E0,7.219680786E0,8.135833740E-1
7.602181404E0,-2.115936279E0,7.049697876E0,4.400939941E-1
7.607216805E0,-2.175796509E0,6.925186157E0,2.988281250E-1
7.612252205E0,-2.317062378E0,6.848571777E0,7.034454346E-1
7.617287605E0,-2.894058228E0,6.908432007E0,1.141586304E0
7.622353523E0,-3.257980347E0,6.908432007E0,9.835662842E-1
7.627388924E0,-3.320220947E0,6.855758667E0,7.680969238E-1
7.632424324E0,-3.315429688E0,6.834213257E0,7.752838135E-1
7.637459725E0,-3.325012207E0,6.882095337E0,7.896423340E-1
7.642525643E0,-3.394439697E0,7.090393066E0,8.806152344E-1
7.647561043E0,-3.396835327E0,7.320236206E0,1.041030884E0
7.652596443E0,-3.222061157E0,7.542892456E0,9.596252441E-1
7.657631844E0,-2.944335938E0,7.660217285E0,4.927673340E-1
7.662697762E0,-2.618728638E0,7.641052246E0,-2.087402344E-1
7.667733162E0,-2.472671509E0,7.669784546E0,-7.546234131E-1
7.672768563E0,-2.398452759E0,7.755981445E0,-6.756134033E-1
7.677803963E0,-2.343383789E0,7.784713745E0,-3.021087646E-1
7.682869881E0,-2.197341919E0,7.777526855E0,-5.008392334E-1
7.687905281E0,-2.032150269E0,7.614715576E0,-1.094589233E0
7.692940682E0,-2.084823608E0,7.284317017E0,-1.322036743E0
7.697976082E0,-2.175796509E0,6.920410156E0,-8.575744629E-1
7.703042000E0,-2.154251099E0,6.585220337E0,-2.733764648E-1
7.708077400E0,-2.012985229E0,6.501419067E0,-3.930969238E-1
7.713112801E0,-1.476684570E0,6.860549927E0,-1.204727173E0
7.718148201E0,-1.131927490E0,7.528533936E0,-1.942138672E0
7.723214119E0,-1.462326050E0,8.565216064E0,-2.131286621E0
7.728249520E0,-1.728088379E0,9.659378052E0,-1.762573242E0
7.733284920E0,-1.811874390E0,1.066732788E1,-1.319656372E0
7.738350838E0,-1.787933350E0,1.190513611E1,-1.477661133E0
7.743386238E0,-2.257202148E0,1.354277039E1,-1.707504272E0
7.748421639E0,-3.174179077E0,1.547488403E1,-1.858352661E0
7.753457039E0,-4.134246826E0,1.664564514E1,-9.126281738E-1
7.758522957E0,-5.039260864E0,1.644453430E1,1.045822144E0
7.763558357E0,-5.451065063E0,1.584359741E1,1.560577393E0
7.768593758E0,-5.410369873E0,1.613328552E1,-9.317932129E-1
7.773629158E0,-4.629852295E0,1.800315857E1,-4.597305298E0
7.778695076E0,-3.497390747E0,2.134307861E1,-4.999542236E0
7.783730477E0,-2.575622559E0,2.437892151E1,-2.468872070E0
7.788765877E0,-2.228469849E0,2.595429993E1,7.728881836E-1
7.793801277E0,-2.843780518E0,2.552334595E1,1.886184692E0
7.798867195E0,-3.981018066E0,2.343081665E1,3.586883545E-1
7.803902596E0,-4.402404785E0,2.085466003E1,-7.809600830E-1
7.808937996E0,-4.179748535E0,1.895605469E1,-7.641906738E-1
7.813973397E0,-3.823013306E0,1.756024170E1,-9.317932129E-1
7.819039314E0,-3.657806396E0,1.637031555E1,-1.149658203E0
7.824074715E0,-3.923568726E0,1.525462341E1,-1.635681152E0
7.829110115E0,-4.167770386E0,1.431370544E1,-1.753005981E0
7.834145516E0,-3.842163086E0,1.343981934E1,-1.470489502E0
7.839211434E0,-3.315429688E0,1.265930176E1,-1.353164673E0
7.844246834E0,-2.944335938E0,1.201525879E1,-1.228668213E0
7.849282234E0,-2.362548828E0,1.144065857E1,-1.032348633E0
7.854348152E0,-1.613159180E0,1.085887146E1,-8.623504639E-1
7.859383553E0,-1.577239990E0,1.046142578E1,-1.099380493E0
7.864418953E0,-2.032150269E0,1.025552368E1,-1.480056763E0
7.869454354E0,-2.520568848E0,9.977798462E0,-1.930175781E0
7.874520272E0,-2.941940308E0,9.472625732E0,-2.547882080E0
7.879555672E0,-3.487823486E0,9.135040283E0,-3.041076660E0
7.884591072E0,-4.139038086E0,9.084762573E0,-3.268524170E0
7.889626473E0,-4.579574585E0,9.257141113E0,-3.218246460E0
7.894692391E0,-4.577178955E0,9.398406982E0,-3.172760010E0
7.899727791E0,-3.954681396E0,9.434310913E0,-3.115295410E0
7.904763191E0,-2.920394897E0,9.563598633E0,-2.595764160E0
7.909798592E0,-2.338607788E0,9.494171143E0,-2.394653320E0
7.914864510E0,-2.288330078E0,9.096740723E0,-2.392257690E0
7.919899910E0,-2.415222168E0,8.658599854E0,-2.224655151E0
7.924935311E0,-2.424789429E0,8.177352905E0,-1.650054932E0
7.929970711E0,-2.120727539E0,7.631484985E0,-7.881317139E-1
7.935036629E0,-1.639495850E0,6.884490967E0,-2.677917480E-2
7.940072029E0,-1.146286011E0,6.108764648E0,4.496612549E-1
7.945107430E0,-5.285797119E-1,5.378540039E0,5.478210449E-1
7.950142830E0,-1.048126221E-1,4.744079590E0,3.802337646E-1
7.955208748E0,1.370086670E-1,4.315505981E0,6.419372559E-2
7.960244148E0,2.734680176E-1,3.985107422E0,-1.967620850E-1
7.965279549E0,3.381195068E-1,3.669082642E0,-4.673156738E-1
7.970345467E0,3.117828369E-1,3.415298462E0,-6.780090332E-1
7.975380867E0,2.423400879E-1,3.185455322E0,-7.953186035E-1
7.980416268E0,1.585540771E-1,2.912506104E0,-8.144683838E-1
7.985451668E0,1.537628174E-1,2.610839844E0,-7.282867432E-1
7.990517586E0,1.465759277E-1,2.392974854E0,-7.737731934E-1
7.995552986E0,4.602050781E-2,2.328323364E0,-7.905273438E-1
8.000588387E0,-2.125549316E-1,2.428878784E0,-7.929229736E-1
8.005623787E0,-5.621032715E-1,2.685058594E0,-7.139129639E-1
8.010689705E0,-1.088836670E0,3.247695923E0,-6.708221436E-1
8.015725105E0,-1.687377930E0,4.111999512E0,-6.492767334E-1
8.020760506E0,-2.319442749E0,5.139114380E0,-7.234954834E-1
8.025795906E0,-2.824630737E0,6.163833618E0,-5.319519043E-1
8.030861824E0,-3.205307007E0,6.834213257E0,5.941772461E-2
8.035897225E0,-3.545272827E0,7.090393066E0,4.664306641E-1
8.040932625E0,-3.842163086E0,7.231643677E0,7.250061035E-1
8.045968025E0,-4.062423706E0,7.281921387E0,8.183746338E-1
8.051033943E0,-4.148620605E0,7.157424927E0,8.159790039E-1
8.056069344E0,-4.122283936E0,6.841400146E0,8.303375244E-1
8.061104744E0,-4.002578735E0,6.558883667E0,9.189300537E-1
8.066170662E0,-3.722457886E0,6.206924438E0,1.045822144E0
8.071206063E0,-3.325012207E0,5.809494019E0,1.141586304E0
8.076241463E0,-3.037704468E0,5.546127319E0,8.638610840E-1
8.081276863E0,-2.645065308E0,5.294738770E0,4.472656250E-1
8.086342781E0,-2.214111328E0,5.167846680E0,1.719360352E-1
8.091378182E0,-1.780746460E0,5.103210449E0,7.138061523E-2
8.096413582E0,-1.390502930E0,5.141510010E0,1.152038574E-2
8.101448982E0,-1.043334961E0,5.246856689E0,-1.225433350E-1
8.106514900E0,-4.735260010E-1,5.258834839E0,-4.122467041E-1
8.111550301E0,8.433532715E-2,5.266006470E0,-8.743286133E-1
8.116585701E0,3.476867676E-1,5.469512939E0,-1.288528442E0
8.121621102E0,6.062622070E-1,5.706542969E0,-1.506393433E0
8.126687020E0,7.044219971E-1,5.948364258E0,-1.659622192E0
8.131722420E0,7.762603760E-1,6.130310059E0,-1.925384521E0
8.136757820E0,8.408966064E-1,6.345794678E0,-2.253387451E0
8.141793221E0,1.008483887E0,6.477478027E0,-2.614913940E0
8.146859139E0,9.629974365E-1,6.561279297E0,-2.698715210E0
8.151894539E0,9.390563965E-1,6.637893677E0,-2.708282471E0
8.156929939E0,9.175109863E-1,6.846176147E0,-3.280502319E0
8.161965340E0,9.869384766E-1,7.059265137E0,-3.984390259E0
8.167031258E0,1.396347046E0,7.224472046E0,-3.922149658E0
8.172066658E0,1.846466064E0,7.468673706E0,-4.096923828E0
8.177102059E0,1.868011475E0,8.172576904E0,-4.925323486E0
8.182137459E0,1.551971436E0,9.384033203E0,-5.971588135E0
8.187203377E0,6.948547363E-1,1.081816101E1,-5.183883667E0
8.192238777E0,-3.921203613E-1,1.196020508E1,-2.179168701E0
8.197274178E0,-1.289947510E0,1.299928284E1,5.047302246E-1
8.202340096E0,-1.723297119E0,1.420596313E1,1.828720093E0
8.207375496E0,-1.689773560E0,1.536474609E1,3.116806030E0
8.212410897E0,-1.263610840E0,1.593696594E1,4.194198608E0
8.217446297E0,-3.681793213E-1,1.605667114E1,3.363403320E0
8.222512215E0,3.620605469E-1,1.623863220E1,1.819152832E0
8.227547615E0,3.716278076E-1,1.655467224E1,8.573913574E-2
8.232583016E0,-6.339263916E-1,1.745010376E1,-1.769760132E0
8.237618416E0,-3.076019287E0,1.917393494E1,-2.073822021E0
8.242684334E0,-5.355300903E0,2.115632629E1,-7.809600830E-1
8.247719734E0,-7.191650391E0,2.301901245E1,1.167922974E0
8.252755135E0,-8.664077759E0,2.345954895E1,6.418411255E0
8.257790535E0,-9.066314697E0,2.176205444E1,9.638610840E0
8.262856453E0,-9.298553467E0,1.959530640E1,3.552551270E0
8.267891854E0,-9.470932007E0,1.789064026E1,-4.956436157E0
8.272927254E0,-7.282623291E0,1.540545654E1,-6.943634033E0
8.277962654E0,-3.205307007E0,1.333686829E1,-6.273254395E0
8.283028572E0,1.728820801E-2,1.254438782E1,-5.545410156E0
8.288063973E0,6.277465820E-2,1.251325989E1,-2.210296631E0
8.293099373E0,-1.321060181E0,1.317405701E1,7.202148438E-1
8.298134773E0,-2.376907349E0,1.474226379E1,1.381011963E0
8.303200691E0,-2.661819458E0,1.676057434E1,9.021759033E-1
8.308236092E0,-1.816665649E0,1.782119751E1,1.352279663E0
8.313271492E0,-5.692901611E-1,1.818272400E1,2.810348511E0
8.318306893E0,3.476867676E-1,1.820188904E1,3.808731079E0
8.323372811E0,6.828765869E-1,1.799359131E1,3.875762939E0
8.328408211E0,6.182403564E-1,1.694972229E1,3.581283569E0
8.333443611E0,3.309326172E-1,1.521391296E1,3.653106689E0
8.338509529E0,7.475280762E-2,1.390429688E1,4.570083618E0
8.343544930E0,2.926635742E-2,1.288914490E1,5.870132446E0
8.348580330E0,4.003601074E-1,1.161782837E1,6.832611084E0
8.353615730E0,9.342651367E-1,1.081336975E1,7.309051514E0
8.358681648E0,1.640563965E0,1.008554077E1,6.272369385E0
8.363717049E0,2.445007324E0,9.616271973E0,3.246093750E0
8.368752449E0,2.938217163E0,9.661758423E0,-2.278900146E-1
8.373787850E0,2.342056274E0,1.015017700E1,-2.025939941E0
8.378853768E0,1.128204346E0,1.070085144E1,-1.851165771E0
8.383889168E0,4.458465576E-1,1.100251770E1,-1.034744263E0
8.388924568E0,4.602050781E-2,1.117968750E1,-7.115173340E-1
8.393959969E0,-5.597076416E-1,1.113659668E1,-6.540679932E-1
8.399025887E0,-1.098403931E0,1.093548584E1,-6.756134033E-1
8.404061287E0,-1.493453979E0,1.061465454E1,-4.792785645E-1
8.409096688E0,-1.833419800E0,1.028665161E1,-3.284454346E-1
8.414132088E0,-2.003417969E0,9.917938232E0,-5.487213135E-1
8.419198006E0,-2.044113159E0,9.513320923E0,-9.437561035E-1
8.424233406E0,-2.113540649E0,9.065612793E0,-1.257400513E0
8.429268807E0,-2.242828369E0,8.529312134E0,-1.252609253E0
8.434304207E0,-2.352966309E0,8.026519775E0,-8.455963135E-1
8.439370125E0,-2.341003418E0,7.712890625E0,-3.116912842E-1
8.444405525E0,-2.319442749E0,7.535720825E0,6.744384766E-3
8.449440926E0,-2.230865479E0,7.236434937E0,1.815185547E-1
8.454506844E0,-2.137496948E0,6.958709717E0,2.796783447E-1
8.459542244E0,-2.254806519E0,6.685775757E0,2.581329346E-1
8.464577645E0,-2.408035278E0,6.362548828E0,4.504394531E-2
8.469613045E0,-2.587600708E0,6.123138428E0,-2.566223145E-1
8.474678963E0,-2.824630737E0,5.847808838E0,-5.343475342E-1
8.479714363E0,-2.956314087E0,5.510223389E0,-9.389648438E-1
8.484749764E0,-3.025741577E0,5.165451050E0,-1.125717163E0
8.489815682E0,-3.212493896E0,4.961944580E0,-1.082626343E0
8.494851082E0,-3.454299927E0,4.861389160E0,-1.068252563E0
8.499886482E0,-3.557250977E0,4.784774780E0,-1.070648193E0
8.504921883E0,-3.581192017E0,4.758438110E0,-1.080230713E0
8.509957283E0,-3.533309937E0,4.813507080E0,-1.276550293E0
8.515023201E0,-3.559646606E0,4.947586060E0,-1.386688232E0
8.520058602E0,-3.676956177E0,5.172637939E0,-1.353164673E0
8.525094002E0,-3.744003296E0,5.354598999E0,-1.413024902E0
8.530129402E0,-3.765548706E0,5.615570068E0,-1.374710083E0
8.535195320E0,-3.739212036E0,5.804702759E0,-9.916381836E-1
8.540230721E0,-3.755966187E0,5.931594849E0,-5.654754639E-1
8.545266121E0,-3.705688477E0,6.084823608E0,-3.691558838E-1
8.550332039E0,-3.674560547E0,6.216506958E0,-3.763275146E-1
8.555367439E0,-3.557250977E0,6.221298218E0,-4.601287842E-1
8.560402840E0,-3.332199097E0,6.130310059E0,-1.776123047E-1
8.565438240E0,-3.064041138E0,6.022583008E0,1.910858154E-1
8.570504158E0,-2.827026367E0,5.955535889E0,3.586883545E-1
8.575539559E0,-2.633087158E0,5.910049438E0,1.144714355E-1
8.580574959E0,-2.391281128E0,6.034545898E0,-3.875732422E-2
8.585640877E0,-2.156646729E0,6.216506958E0,4.743957520E-2
8.590676277E0,-1.886093140E0,6.367340088E0,2.892608643E-1
8.595711678E0,-1.577239990E0,6.427200317E0,4.329071045E-1
8.600747078E0,-1.345016479E0,6.537338257E0,5.813446045E-1
8.605782479E0,-1.148681641E0,6.716903687E0,8.997802734E-1
8.610848397E0,-1.091217041E0,6.994628906E0,1.234970093E0
8.615883797E0,-1.062500000E0,7.317840576E0,1.311584473E0
8.620919197E0,-8.829345703E-1,7.521347046E0,1.108078003E0
8.625954598E0,-8.015289307E-1,7.681762695E0,8.782348633E-1
8.631020516E0,-7.201232910E-1,7.664993286E0,8.806152344E-1
8.636055916E0,-5.884399414E-1,7.504592896E0,1.136795044E0
8.641091316E0,-5.884399414E-1,7.262771606E0,1.541427612E0
8.646126717E0,-6.291351318E-1,7.071243286E0,1.749710083E0
8.651192635E0,-7.273101807E-1,6.817459106E0,1.634796143E0
8.656228035E0,-8.422241211E-1,6.618728638E0,9.404754639E-1
8.661263436E0,-9.619293213E-1,6.585220337E0,-2.853546143E-1
8.666329354E0,-1.026580811E0,6.771957397E0,-1.219085693E0
8.671364754E0,-9.715118408E-1,7.092788696E0,-1.384292603E0
8.676400154E0,-9.403839111E-1,7.456710815E0,-1.278945923E0
8.681435555E0,-8.039245605E-1,7.823013306E0,-1.587799072E0
8.686501473E0,-6.530914307E-1,8.148635864E0,-1.961288452E0
8.691536873E0,-9.068756104E-1,8.457489014E0,-1.946929932E0
8.696572273E0,-1.201354980E0,8.543670654E0,-1.630889893E0
8.701607674E0,-1.292343140E0,8.285095215E0,-1.264587402E0
8.706673592E0,-1.421630859E0,8.055252075E0,-1.017974854E0
8.711708992E0,-1.840606689E0,7.985824585E0,-9.533386230E-1
8.716744393E0,-2.341003418E0,8.048080444E0,-7.450408936E-1
8.721779793E0,-2.688156128E0,8.328201294E0,-8.120727539E-1
8.726845711E0,-3.064041138E0,9.192504883E0,-1.424987793E0
8.731881111E0,-3.506973267E0,1.048536682E1,-1.858352661E0
8.736916512E0,-4.143829346E0,1.219004822E1,-2.066635132E0
8.741951912E0,-4.689712524E0,1.400962830E1,-2.483230591E0
8.747017830E0,-5.103912354E0,1.519476318E1,-1.499221802E0
8.752053230E0,-5.328964233E0,1.556587219E1,1.531845093E0
8.757088631E0,-6.200454712E0,1.558981323E1,1.680282593E0
8.762124031E0,-6.490142822E0,1.564009094E1,-2.583786011E0
8.767189949E0,-5.477401733E0,1.660255432E1,-6.864624023E0
8.772225350E0,-4.462265015E0,1.895126343E1,-7.087280273E0
8.777260750E0,-4.064819336E0,2.237496948E1,-3.855102539E0
8.782296150E0,-3.423171997E0,2.621047974E1,1.264495850E-1
8.787362068E0,-3.313049316E0,2.819288635E1,1.565368652E0
8.792397469E0,-4.117492676E0,2.664144897E1,5.526123047E-1
8.797432869E0,-4.754348755E0,2.238694763E1,-7.498321533E-1
8.802498787E0,-5.144607544E0,1.833117676E1,-1.089813232E0
8.807534188E0,-4.883636475E0,1.642538452E1,-1.142471313E0
8.812569588E0,-4.364089966E0,1.575260925E1,-1.585403442E0
8.817604988E0,-4.024124146E0,1.523785400E1,-2.083404541E0
8.822670906E0,-4.048065186E0,1.458424377E1,-2.583786011E0
8.827706307E0,-4.230026245E0,1.379895020E1,-2.531112671E0
8.832741707E0,-4.024124146E0,1.279817200E1,-1.800888062E0
8.837777107E0,-3.851745605E0,1.237678528E1,-1.111358643E0
8.842843025E0,-3.736816406E0,1.184527588E1,-1.049102783E0
8.847878426E0,-3.753570557E0,1.119883728E1,-1.422607422E0
8.852913826E0,-3.585983276E0,1.039678955E1,-1.712295532E0
8.857949227E0,-3.334594727E0,9.508529663E0,-1.911010742E0
8.863015145E0,-3.564437866E0,8.780700684E0,-2.495208740E0
8.868050545E0,-4.081588745E0,8.371292114E0,-3.275711060E0
8.873085945E0,-4.598724365E0,8.261154175E0,-3.771316528E0
8.878121346E0,-4.929122925E0,8.570007324E0,-3.560623169E0
8.883187264E0,-4.921951294E0,8.967453003E0,-3.108123779E0
8.888222664E0,-4.627456665E0,9.130249023E0,-2.957290649E0
8.893258064E0,-4.265930176E0,9.096740723E0,-3.026718140E0
8.898293465E0,-3.782302856E0,8.924346924E0,-3.124877930E0
8.903359383E0,-3.296279907E0,8.589157104E0,-3.194305420E0
8.908394783E0,-3.131088257E0,8.107925415E0,-3.134460449E0
8.913430184E0,-3.145446777E0,7.710494995E0,-2.904617310E0
8.918465584E0,-3.143051147E0,7.344177246E0,-2.507171631E0
8.923531502E0,-2.994613647E0,6.987442017E0,-2.073822021E0
8.928566902E0,-2.776748657E0,6.609161377E0,-1.468093872E0
8.933602303E0,-2.561264038E0,6.137496948E0,-9.006652832E-1
8.938668221E0,-2.398452759E0,5.651473999E0,-4.266052246E-1
8.943703621E0,-2.185379028E0,5.194183350E0,2.589416504E-2
8.948739022E0,-1.816665649E0,4.665069580E0,2.772827148E-1
8.953774422E0,-1.457534790E0,4.186218262E0,2.677001953E-1
8.958840340E0,-1.175018311E0,3.748092651E0,-4.425048828E-4
8.963875740E0,-9.475708008E-1,3.362625122E0,-2.566223145E-1
8.968911141E0,-9.643249512E-1,3.266845703E0,-4.313964844E-1
8.973946541E0,-1.026580811E0,3.286010742E0,-4.792785645E-1
8.979012459E0,-1.057708740E0,3.345855713E0,-5.223846436E-1
8.984047859E0,-1.105590820E0,3.417694092E0,-6.157531738E-1
8.989083260E0,-1.129531860E0,3.477539062E0,-6.372985840E-1
8.994118660E0,-1.151077271E0,3.515853882E0,-6.660308838E-1
8.999184578E0,-1.213333130E0,3.544586182E0,-6.181488037E-1
9.004219979E0,-1.483871460E0,3.738510132E0,-4.888610840E-1
9.009255379E0,-1.943557739E0,4.128768921E0,-5.032196045E-1
9.014290779E0,-2.446334839E0,4.650695801E0,-6.756134033E-1
9.019356697E0,-2.901245117E0,5.280380249E0,-1.037139893E0
9.024392098E0,-3.183761597E0,5.960327148E0,-1.420211792E0
9.029427498E0,-3.286712646E0,6.441558838E0,-1.580612183E0
9.034493416E0,-3.272338867E0,6.786331177E0,-1.508789062E0
9.039528816E0,-3.214874268E0,7.052078247E0,-1.231063843E0
9.044564217E0,-3.226852417E0,7.229263306E0,-1.056289673E0
9.049599617E0,-3.291488647E0,7.298690796E0,-1.089813232E0
9.054665535E0,-3.554855347E0,7.202926636E0,-1.302886963E0
9.059700936E0,-3.851745605E0,7.025741577E0,-1.357955933E0
9.064736336E0,-4.151016235E0,6.736053467E0,-1.235855103E0
9.069771736E0,-4.249176025E0,6.446350098E0,-9.772796631E-1
9.074837654E0,-4.028915405E0,6.125534058E0,-6.277313232E-1
9.079873055E0,-3.779907227E0,5.864562988E0,-3.045043945E-1
9.084908455E0,-3.456695557E0,5.641906738E0,1.152038574E-2
9.089943855E0,-3.128692627E0,5.457550049E0,2.700958252E-1
9.095009773E0,-2.776748657E0,5.280380249E0,4.472656250E-1
9.100045174E0,-2.319442749E0,5.153488159E0,6.627502441E-1
9.105080574E0,-1.876525879E0,5.096023560E0,7.609100342E-1
9.110115975E0,-1.390502930E0,5.052932739E0,8.135833740E-1
9.115181893E0,-8.757476807E-1,4.995468140E0,9.428710938E-1
9.120217293E0,-4.495849609E-1,4.835052490E0,1.053009033E0
9.125252693E0,-6.411743164E-2,4.535781860E0,9.380798340E-1
9.130288094E0,2.255859375E-1,4.552536011E0,6.148681641E-1
9.135354012E0,5.871124268E-1,4.547744751E0,1.096954346E-1
9.140389412E0,9.677886963E-1,4.404098511E0,-5.391387939E-1
9.145424813E0,1.207214355E0,4.353820801E0,-1.259796143E0
9.150460213E0,1.633377075E0,4.444793701E0,-2.035522461E0
9.155526131E0,2.181655884E0,4.605209351E0,-2.763351440E0
9.160561531E0,2.351638794E0,4.976318359E0,-3.333175659E0
9.165596932E0,2.243896484E0,5.419235229E0,-3.601318359E0
9.170662850E0,1.978149414E0,5.991455078E0,-3.546264648E0
9.175698250E0,1.688446045E0,6.623519897E0,-3.567810059E0
9.180733650E0,1.688446045E0,7.195739746E0,-3.579772949E0
9.185769051E0,2.164886475E0,7.619506836E0,-3.855102539E0
9.190834969E0,2.784988403E0,7.760772705E0,-4.027496338E0
9.195870369E0,3.038772583E0,8.402420044E0,-4.326766968E0
9.200905770E0,2.806533813E0,9.779083252E0,-4.120864868E0
9.205941170E0,2.143341064E0,1.144544983E1,-2.188751221E0
9.211007088E0,1.044403076E0,1.318124390E1,9.124755859E-3
9.216042488E0,2.064361572E-1,1.479254150E1,2.010681152E0
9.221077889E0,-1.526947021E-1,1.602795410E1,3.301162720E0
9.226113289E0,-3.562011719E-1,1.688986206E1,3.416076660E0
9.231179207E0,-5.357666016E-1,1.834074402E1,5.909271240E-1
9.236214607E0,-1.210937500E0,2.180036926E1,-3.397811890E0
9.241250008E0,-2.063262939E0,2.813302612E1,-6.735336304E0
9.246285408E0,-3.823013306E0,3.650315857E1,-3.404998779E0
9.251351326E0,-8.673660278E0,4.179434204E1,1.786030579E1
9.256386727E0,-1.296646118E1,3.474581909E1,1.421392822E1
9.261422127E0,-1.107504272E1,2.157771301E1,4.694580078E0
9.266488045E0,-1.312208557E1,1.294421387E1,-6.079315186E0
9.271523445E0,-1.756094360E1,7.566833496E0,-1.127233887E1
9.276558846E0,-1.011497498E1,2.905334473E0,-1.507673645E1
9.281594246E0,1.875198364E0,2.026657104E0,-1.061633301E1
9.286660164E0,2.775405884E0,4.303543091E0,1.608459473E0
9.291695564E0,-1.627517700E0,7.322631836E0,1.132173157E1
9.296730965E0,-4.634643555E0,9.623458862E0,1.066093445E1
9.301766365E0,-6.612258911E0,1.328898621E1,3.332290649E0
9.306832283E0,-7.481353760E0,1.696647644E1,-2.155227661E0
9.311867684E0,-6.097503662E0,1.869029236E1,-1.975662231E0
9.316903084E0,-3.030532837E0,1.842454529E1,2.700958252E-1
9.321938484E0,1.441802979E-1,1.851072693E1,3.128784180E0
9.327004402E0,1.243118286E0,1.905421448E1,5.709732056E0
9.332039803E0,2.179260254E0,1.736151123E1,7.548477173E0
9.337075203E0,7.116088867E-1,1.427778625E1,8.192520142E0
9.342110604E0,-1.893280029E0,1.173513794E1,8.103927612E0
9.347176522E0,-1.840606689E0,1.068408203E1,8.812606812E0
9.352211922E0,-1.050521851E0,1.162022400E1,1.083570862E1
9.357247322E0,3.883361816E-2,1.217327881E1,1.091950989E1
9.362282723E0,2.275024414E0,1.157951355E1,7.830993652E0
9.367348641E0,4.762603760E0,1.084210205E1,1.424102783E0
9.372384041E0,5.916610718E0,1.116772461E1,-5.799194336E0
9.377419441E0,5.164825439E0,1.235763550E1,-7.551757812E0
9.382454842E0,2.911880493E0,1.315730286E1,-4.499145508E0
9.387520760E0,1.360443115E0,1.327461243E1,-1.973266602E0
9.392556160E0,7.618865967E-1,1.259945679E1,-1.020370483E0
9.397591561E0,-1.000213623E-1,1.173753357E1,1.312408447E-1
9.402657479E0,-1.182205200E0,1.139994812E1,2.030639648E-1
9.407692879E0,-1.641891479E0,1.045423889E1,-1.606948853E0
9.412728279E0,-1.292343140E0,9.625854492E0,-4.475204468E0
9.417763680E0,-9.882659912E-1,9.125457764E0,-6.340286255E0
9.422829598E0,-1.359375000E0,9.070404053E0,-4.630828857E0
9.427864998E0,-1.783142090E0,9.166168213E0,-1.580612183E0
9.432900398E0,-1.835815430E0,8.878860474E0,-1.321258545E-1
9.437935799E0,-1.603576660E0,8.440719604E0,7.617187500E-2
9.443001717E0,-1.440780640E0,8.076797485E0,3.155975342E-1
9.448037117E0,-1.402465820E0,7.641052246E0,8.542785645E-1
9.453072518E0,-1.471908569E0,7.020965576E0,1.151168823E0
9.458107918E0,-1.704132080E0,6.441558838E0,1.203842163E0
9.463143318E0,-2.149459839E0,5.953140259E0,8.590698242E-1
9.468209236E0,-2.601959229E0,5.531768799E0,2.317962646E-1
9.473244637E0,-2.606750488E0,5.175033569E0,-4.290008545E-1
9.478280037E0,-2.211715698E0,4.902084351E0,-8.886871338E-1
9.483345955E0,-1.833419800E0,4.657882690E0,-1.247817993E0
9.488381355E0,-1.740051270E0,4.593246460E0,-1.381896973E0
9.493416756E0,-1.771179199E0,4.598022461E0,-1.310073853E0
9.498482674E0,-1.766387939E0,4.598022461E0,-1.343597412E0
9.503518074E0,-1.790328979E0,4.712951660E0,-1.630889893E0
9.508553475E0,-1.871734619E0,4.952377319E0,-1.846374512E0
9.513588875E0,-1.972290039E0,5.244461060E0,-1.590194702E0
9.518654793E0,-2.091995239E0,5.570068359E0,-1.046707153E0
9.523690193E0,-2.190155029E0,5.926803589E0,-5.104064941E-1
9.528725594E0,-2.336212158E0,6.197357178E0,-1.991577148E-1
9.533760994E0,-2.312271118E0,6.391281128E0,-1.321258545E-1
9.538826912E0,-2.264389038E0,6.446350098E0,-3.021087646E-1
9.543862313E0,-2.139877319E0,6.314666748E0,-5.319519043E-1
9.548897713E0,-1.965103149E0,6.135101318E0,-5.008392334E-1
9.553933113E0,-1.732864380E0,5.831039429E0,-3.907012939E-1
9.558999031E0,-1.498245239E0,5.567672729E0,-1.680450439E-1
9.564034432E0,-1.244445801E0,5.385726929E0,-1.321258545E-1
9.569069832E0,-9.739074707E-1,5.392898560E0,-2.542266846E-1
9.574105232E0,-8.039245605E-1,5.610778809E0,-1.321258545E-1
9.579171150E0,-7.943420410E-1,5.843017578E0,-1.242065430E-2
9.584206551E0,-7.991333008E-1,6.068069458E0,6.179809570E-2
9.589241951E0,-7.656097412E-1,6.214111328E0,2.174224854E-1
9.594277352E0,-8.446197510E-1,6.300308228E0,3.395385742E-1
9.599343270E0,-9.523620605E-1,6.458328247E0,3.922119141E-1
9.604378670E0,-1.031372070E0,6.582824707E0,4.137573242E-1
9.609414070E0,-1.163055420E0,6.685775757E0,3.586883545E-1
9.614449471E0,-1.333038330E0,6.716903687E0,2.820739746E-1
9.619515389E0,-1.352188110E0,6.779144287E0,2.078552246E-1
9.624550789E0,-1.464721680E0,6.922790527E0,2.246093750E-1
9.629586189E0,-1.785537720E0,7.008987427E0,3.179779053E-1
9.634652107E0,-2.269165039E0,7.059265137E0,1.958770752E-1
9.639687508E0,-2.956314087E0,7.020965576E0,-3.116912842E-1
9.644722908E0,-3.392044067E0,6.839004517E0,-1.173599243E0
9.649758309E0,-3.145446777E0,6.575637817E0,-1.927780151E0
9.654824227E0,-2.731246948E0,6.563674927E0,-2.186355591E0
9.659859627E0,-2.091995239E0,6.817459106E0,-1.585403442E0
9.664895027E0,-1.977081299E0,7.466278076E0,-6.396942139E-1
9.669930428E0,-2.245223999E0,8.546066284E0,-5.846252441E-1
9.674996346E0,-2.522949219E0,9.733596802E0,-1.973266602E0
9.680031746E0,-2.465499878E0,1.072958374E1,-3.347534180E0
9.685067147E0,-2.417617798E0,1.233609009E1,-3.079391479E0
9.690102547E0,-2.422393799E0,1.435679626E1,-2.904617310E0
9.695168465E0,-2.496612549E0,1.675099182E1,-2.406616211E0
9.700203865E0,-3.289108276E0,1.906379700E1,-7.402496338E-1
9.705239266E0,-4.565216064E0,2.038299561E1,8.087921143E-1
9.710274666E0,-4.953063965E0,1.966233826E1,1.438476562E0
9.715340584E0,-4.189315796E0,1.734475708E1,1.177505493E0
9.720375984E0,-3.325012207E0,1.573825073E1,-9.198150635E-1
9.725411385E0,-2.202133179E0,1.589147949E1,-3.299652100E0
9.730446785E0,-8.877105713E-1,1.748362732E1,-3.141632080E0
9.735512703E0,2.639007568E-1,2.004541016E1,-4.625244141E-1
9.740548104E0,7.475280762E-1,2.258087158E1,2.822326660E0
9.745583504E0,-1.622772217E-1,2.411555481E1,4.519805908E0
9.750618904E0,-1.835815430E0,2.357925415E1,3.605224609E0
9.755684822E0,-3.406417847E0,2.127125549E1,1.383407593E0
9.760720223E0,-3.811035156E0,1.841735840E1,-1.496826172E0
9.765755623E0,-2.946731567E0,1.575979614E1,-2.930953979E0
9.770821541E0,-2.633087158E0,1.392105103E1,-2.612518311E0
9.775856941E0,-3.370498657E0,1.294181824E1,-2.420989990E0
9.780892342E0,-4.134246826E0,1.217088318E1,-2.420989990E0
9.785927742E0,-4.490997314E0,1.146939087E1,-1.994812012E0
9.790993660E0,-4.526901245E0,1.090196228E1,-1.274154663E0
9.796029061E0,-4.364089966E0,1.050213623E1,-4.864654541E-1
9.801064461E0,-4.179748535E0,1.018130493E1,-7.466125488E-2
9.806099861E0,-4.208480835E0,1.001132202E1,-1.273345947E-1
9.811165779E0,-4.165374756E0,1.000413513E1,-1.584625244E-1
9.816201180E0,-4.218048096E0,9.920333862E0,-4.313964844E-1
9.821236580E0,-4.241989136E0,9.458251953E0,-1.247817993E0
9.826271980E0,-4.021728516E0,8.584381104E0,-2.150436401E0
9.831337898E0,-3.755966187E0,7.782318115E0,-2.744201660E0
9.836373299E0,-3.380081177E0,7.322631836E0,-2.971649170E0
9.841408699E0,-2.915603638E0,7.253204346E0,-3.266128540E0
9.846444100E0,-2.625900269E0,7.547683716E0,-3.924545288E0
9.851510018E0,-2.345779419E0,7.870895386E0,-4.240570068E0
9.856545418E0,-2.142272949E0,8.139053345E0,-3.967636108E0
9.861580818E0,-1.941162109E0,8.213272095E0,-3.402603149E0
9.866646736E0,-1.831039429E0,8.184539795E0,-2.909393311E0
9.871682137E0,-1.665832520E0,8.086380005E0,-2.509567261E0
9.876717537E0,-1.330642700E0,7.861328125E0,-2.018753052E0
9.881752938E0,-9.236297607E-1,7.478256226E0,-1.439361572E0
9.886818855E0,-6.602630615E-1,6.870132446E0,-1.003616333E0
9.891854256E0,-3.490142822E-1,6.204544067E0,-7.091217041E-1
9.896889656E0,3.883361816E-2,5.649078369E0,-5.080108643E-1
9.901925057E0,3.572692871E-1,5.210937500E0,-3.907012939E-1
9.906990975E0,5.966949463E-1,4.851806641E0,-2.949371338E-1
9.912026375E0,7.594909668E-1,4.530990601E0,-1.369171143E-1
9.917061775E0,8.289337158E-1,4.231719971E0,7.856750488E-2
9.922097176E0,7.499237061E-1,4.040176392E0,2.317962646E-1
9.927163094E0,6.541442871E-1,4.054550171E0,1.743316650E-1
9.932198494E0,4.889526367E-1,4.111999512E0,5.223083496E-2
9.937233895E0,3.045959473E-1,4.006668091E0,-1.369171143E-1
9.942269295E0,-1.167907715E-1,4.224533081E0,-6.269836426E-2
9.947335213E0,-5.956268311E-1,4.504653931E0,1.479949951E-1
9.952370613E0,-9.691162109E-1,4.873367310E0,1.910858154E-1
9.957406014E0,-1.306701660E0,5.280380249E0,1.479949951E-1
9.962441414E0,-1.744842529E0,5.711334229E0,-6.269836426E-2
9.967507332E0,-2.250015259E0,6.173416138E0,-2.446594238E-1
9.972542732E0,-2.807861328E0,6.554092407E0,-4.290008545E-1
9.977578133E0,-3.298675537E0,6.858154297E0,-5.008392334E-1
9.982613533E0,-3.767944336E0,6.932373047E0,-5.918121338E-1
9.987679451E0,-4.081588745E0,6.836608887E0,-4.290008545E-1
9.992714852E0,-4.304244995E0,6.659439087E0,-5.551147461E-2
9.997750252E0,-4.356918335E0,6.348190308E0,2.509460449E-1
1.000281617E1,-4.244384766E0,5.967514038E0,5.214843750E-1
1.000785157E1,-3.971450806E0,5.596405029E0,6.555633545E-1
1.001288697E1,-3.664993286E0,5.167846680E0,7.680969238E-1
1.001792237E1,-3.301071167E0,4.801528931E0,8.231658936E-1
1.002298829E1,-2.929977417E0,4.526199341E0,9.404754639E-1
1.002802369E1,-2.556472778E0,4.361007690E0,1.053009033E0
1.003305909E1,-2.075241089E0,4.250869751E0,9.356842041E-1
1.003809449E1,-1.601181030E0,4.191009521E0,7.848510742E-1
1.004316041E1,-1.335433960E0,4.202987671E0,4.472656250E-1
1.004819581E1,-8.781433105E-1,4.241287231E0,-2.374725342E-1
1.005323121E1,-4.136657715E-1,4.234115601E0,-9.868621826E-1
1.005826661E1,1.728820801E-2,4.265228271E0,-1.575836182E0
1.006333253E1,3.333282471E-1,4.332275391E0,-1.958908081E0
1.006836793E1,6.397857666E-1,4.559722900E0,-2.602935791E0
1.007340333E1,1.123413086E0,4.870971680E0,-3.316421509E0
1.007843873E1,2.023635864E0,5.096023560E0,-3.170364380E0
1.008350465E1,3.086654663E0,5.019409180E0,-3.175155640E0
1.008854005E1,3.577468872E0,5.546127319E0,-4.451263428E0
1.009357545E1,3.742675781E0,6.975463867E0,-6.414505005E0
1.009864136E1,2.931030273E0,8.809432983E0,-5.133605957E0
1.010367677E1,1.750686646E0,1.074873352E1,-4.468017578E0
1.010871217E1,1.216781616E0,1.309983826E1,-3.551040649E0
1.011374757E1,5.703582764E-1,1.595133972E1,1.266082764E0
1.011881348E1,-7.033691406E-1,1.785232544E1,6.313064575E0
1.012384889E1,-1.107986450E0,1.797682190E1,7.955490112E0
1.012888428E1,7.720947266E-3,1.651158142E1,6.916397095E0
1.013391969E1,9.941253662E-1,1.504153442E1,3.811126709E0
1.013898560E1,3.572692871E-1,1.674859619E1,-1.211914062E0
1.014402100E1,-1.833419800E0,2.170700073E1,-5.226989746E0
1.014905640E1,-5.539657593E0,2.773320007E1,-2.880676270E0
1.015409180E1,-1.008384705E1,3.209542847E1,6.925979614E0
1.015915772E1,-1.137431335E1,3.059426880E1,1.865756226E1
1.016419312E1,-1.150120544E1,2.438850403E1,1.194183350E1
1.016922852E1,-1.543489075E1,1.935350037E1,-6.079315186E0
1.017426392E1,-1.573895264E1,1.425624084E1,-1.378385925E1
1.017932984E1,-7.907516479E0,8.639434814E0,-1.401609802E1
1.018436524E1,-1.407318115E-1,6.305099487E0,-8.887725830E0
1.018940064E1,-5.142211914E-1,8.708877563E0,-4.888610840E-1
1.019446656E1,-3.257980347E0,1.292745972E1,4.730499268E0
1.019950196E1,-4.938705444E0,1.649960327E1,5.206939697E0
1.020453736E1,-5.395996094E0,1.903985596E1,3.413681030E0
1.020957276E1,-3.906799316E0,1.988021851E1,2.068145752E0
1.021460816E1,-1.359375000E0,1.855622864E1,1.917312622E0
1.021967408E1,-1.000213623E-1,1.701914978E1,1.811965942E0
1.022470948E1,-3.801422119E-1,1.639665222E1,2.075332642E0
1.022974488E1,-4.902801514E-1,1.563290405E1,3.401718140E0
1.023481080E1,-7.608032227E-2,1.374148560E1,4.790359497E0
1.023984620E1,-1.455078125E-1,1.228581238E1,5.635513306E0
1.024488160E1,-5.884399414E-1,1.207272339E1,6.303482056E0
1.024991700E1,-5.549163818E-1,1.205117798E1,6.669799805E0
1.025498292E1,3.189544678E-1,1.182612610E1,6.547698975E0
1.026001832E1,1.879974365E0,1.129699707E1,6.262786865E0
1.026505372E1,3.675628662E0,1.053804016E1,5.202148438E0
1.027008912E1,4.841613770E0,1.006639099E1,2.616424561E0
1.027515504E1,5.155242920E0,9.956253052E0,-1.116149902E0
1.028019044E1,4.183197021E0,1.025312805E1,-3.311630249E0
1.028522584E1,2.490509033E0,1.051170349E1,-3.165573120E0
1.029026124E1,1.709991455E0,1.030580139E1,-1.839187622E0
1.029532716E1,1.276641846E0,9.865264893E0,-1.202331543E0
1.030036256E1,9.318695068E-1,9.609085083E0,-1.003616333E0
1.030539796E1,4.745788574E-1,9.479812622E0,-4.313964844E-1
1.031043336E1,-7.608032227E-2,9.352905273E0,-1.943817139E-1
1.031549928E1,-6.243591309E-1,8.919555664E0,-4.864654541E-1
1.032053468E1,-9.571533203E-1,8.474243164E0,-1.082626343E0
1.032557008E1,-1.167831421E0,8.220458984E0,-2.995590210E0
1.033060548E1,-1.526962280E0,8.031311035E0,-5.009109497E0
1.033567140E1,-2.020172119E0,8.028915405E0,-4.642807007E0
1.034070680E1,-2.350570679E0,8.119903564E0,-2.368316650E0
1.034574220E1,-2.283538818E0,7.971466064E0,-6.061706543E-1
1.035080811E1,-2.271560669E0,7.600357056E0,1.025085449E-1
1.035584351E1,-2.412826538E0,7.152648926E0,2.270050049E-1
1.036087891E1,-2.599563599E0,6.721679688E0,3.969879150E-1
1.036591431E1,-2.812652588E0,6.197357178E0,5.526123047E-1
1.037098023E1,-2.934753418E0,5.701751709E0,5.669860840E-1
1.037601563E1,-3.116714478E0,5.273193359E0,6.076812744E-1
1.038105103E1,-3.111923218E0,5.043350220E0,7.489471436E-1
1.038608643E1,-2.683364868E0,4.777587891E0,7.250061035E-1
1.039115235E1,-2.443954468E0,4.619583130E0,2.892608643E-1
1.039618775E1,-2.479858398E0,4.617187500E0,-1.680450439E-1
1.040122315E1,-2.472671509E0,4.519012451E0,-1.656494141E-1
1.040625855E1,-2.350570679E0,4.454376221E0,-5.072021484E-2
1.041132447E1,-2.352966309E0,4.562118530E0,-4.592895508E-2
1.041635987E1,-2.211715698E0,4.813507080E0,-1.719665527E-2
1.042139527E1,-2.199737549E0,5.084045410E0,9.771728516E-2
1.042643067E1,-2.209320068E0,5.321075439E0,1.336364746E-1
1.043149659E1,-2.080032349E0,5.505432129E0,1.152038574E-2
1.043653199E1,-1.926803589E0,5.668243408E0,-7.226562500E-2
1.044156739E1,-1.850189209E0,5.828643799E0,8.573913574E-2
1.044660279E1,-1.787933350E0,6.089614868E0,4.472656250E-1
1.045166871E1,-1.778366089E0,6.317062378E0,6.436004639E-1
1.045670411E1,-1.888488770E0,6.477478027E0,5.813446045E-1
