"Time (s)","Gyroscope x (rad/s)","Gyroscope y (rad/s)","Gyroscope z (rad/s)"
1.200674280E-1,-2.825927734E-1,-2.425399780E0,-6.612548828E-1
1.250723110E-1,-2.154846191E-1,-2.800384521E0,-7.368927002E-1
1.301077110E-1,-2.005615234E-1,-2.964431763E0,-7.198486328E-1
1.351431120E-1,-1.941680908E-1,-3.042190552E0,-6.516571045E-1
1.401785120E-1,-1.707458496E-1,-3.086929321E0,-5.834808350E-1
1.452139130E-1,-1.409149170E-1,-3.161499023E0,-5.536651611E-1
1.502798310E-1,-9.829711914E-2,-3.278686523E0,-5.632476807E-1
1.553152310E-1,-4.397583008E-2,-3.348983765E0,-5.877532959E-1
1.603506310E-1,1.354980469E-2,-3.389465332E0,-6.282348633E-1
1.653860320E-1,6.575012207E-2,-3.450195312E0,-6.687011719E-1
1.704214320E-1,9.025573730E-2,-3.473632812E0,-6.996002197E-1
1.754873500E-1,6.893920898E-2,-3.354309082E0,-7.336883545E-1
1.805227500E-1,5.035400391E-3,-3.081604004E0,-8.146514893E-1
1.855581510E-1,-4.930114746E-2,-2.929275513E0,-9.137268066E-1
1.905935510E-1,-5.781555176E-2,-2.998519897E0,-9.605865479E-1
1.956594690E-1,-4.077148438E-2,-3.129547119E0,-9.531402588E-1
2.006948700E-1,-2.053833008E-2,-3.189193726E0,-9.328918457E-1
2.057302700E-1,7.629394531E-4,-3.179611206E0,-9.201049805E-1
2.107656700E-1,2.526855469E-2,-3.131683350E0,-9.222412109E-1
2.158315880E-1,3.912353516E-2,-3.057113647E0,-9.499359131E-1
2.208669890E-1,3.273010254E-2,-2.974014282E0,-1.015991211E0
2.259023890E-1,7.629394531E-4,-2.874954224E0,-1.116119385E0
2.309377900E-1,-4.716491699E-2,-2.762023926E0,-1.224777222E0
2.360037080E-1,-7.273864746E-2,-2.705566406E0,-1.283370972E0
2.410391080E-1,-8.551025391E-2,-2.596908569E0,-1.325973511E0
2.460745080E-1,-1.547546387E-1,-2.360427856E0,-1.431442261E0
2.511099090E-1,-2.367858887E-1,-2.122863770E0,-1.567794800E0
2.561758270E-1,-2.985687256E-1,-1.932189941E0,-1.689239502E0
2.612112270E-1,-3.518371582E-1,-1.772399902E0,-1.785110474E0
2.662466270E-1,-4.072265625E-1,-1.616867065E0,-1.781906128E0
2.712820280E-1,-4.317321777E-1,-1.544433594E0,-1.590164185E0
2.763479460E-1,-4.157562256E-1,-1.402755737E0,-1.204544067E0
2.813833460E-1,-3.848571777E-1,-1.255752563E0,-7.944030762E-1
2.864187470E-1,-3.582305908E-1,-1.180114746E0,-5.834808350E-1
2.914541470E-1,-3.497009277E-1,-1.076782227E0,-5.771026611E-1
2.965200650E-1,-3.603515625E-1,-9.340362549E-1,-6.473999023E-1
3.015554650E-1,-3.731384277E-1,-7.795715332E-1,-6.857452393E-1
3.065908660E-1,-3.720703125E-1,-6.315002441E-1,-6.633758545E-1
3.116262660E-1,-3.422393799E-1,-5.249786377E-1,-5.930786133E-1
3.166921840E-1,-2.975006104E-1,-4.610595703E-1,-5.003967285E-1
3.217275840E-1,-2.485046387E-1,-4.333648682E-1,-3.906707764E-1
3.267629850E-1,-2.165527344E-1,-4.227142334E-1,-2.809448242E-1
3.317983850E-1,-1.995086670E-1,-3.747711182E-1,-1.861419678E-1
3.368643030E-1,-1.888427734E-1,-2.810211182E-1,-1.147766113E-1
3.418997040E-1,-1.856536865E-1,-1.297607422E-1,-5.618286133E-2
3.469351040E-1,-1.824493408E-1,5.346679688E-2,-1.676940918E-2
3.519705040E-1,-1.920471191E-1,2.313690186E-1,-5.050659180E-3
3.570364220E-1,-2.112121582E-1,3.954162598E-1,-1.144409180E-2
3.620718230E-1,-2.357177734E-1,5.573272705E-1,-2.423095703E-2
3.671072230E-1,-2.602233887E-1,7.117919922E-1,-4.446411133E-2
3.721426240E-1,-2.900543213E-1,8.193969727E-1,-3.700256348E-2
3.772085420E-1,-3.358612061E-1,9.163360596E-1,-2.423095703E-2
3.822439420E-1,-3.869934082E-1,1.038833618E0,-4.978942871E-2
3.872793420E-1,-4.082946777E-1,1.052688599E0,-8.280944824E-2
3.923147430E-1,-4.040374756E-1,9.664001465E-1,-1.158294678E-1
3.973806610E-1,-3.997650146E-1,8.470916748E-1,-1.424713135E-1
4.024160610E-1,-4.029693604E-1,7.043457031E-1,-1.701660156E-1
4.074514610E-1,-4.168090820E-1,5.360260010E-1,-2.021179199E-1
4.124868620E-1,-4.413146973E-1,3.613281250E-1,-2.234344482E-1
4.175527800E-1,-4.849853516E-1,1.866149902E-1,-2.202301025E-1
4.225881800E-1,-5.489044189E-1,-4.058837891E-3,-1.946716309E-1
4.276235810E-1,-6.277313232E-1,-2.085876465E-1,-1.648406982E-1
4.326589810E-1,-7.044372559E-1,-4.046020508E-1,-1.488647461E-1
4.377248990E-1,-7.907257080E-1,-5.579986572E-1,-1.414031982E-1
4.427602990E-1,-8.716888428E-1,-6.773071289E-1,-1.392669678E-1
4.477957000E-1,-9.483795166E-1,-7.838287354E-1,-1.424713135E-1
4.528311000E-1,-1.031478882E0,-8.637237549E-1,-1.520538330E-1
4.578970180E-1,-1.108169556E0,-8.967590332E-1,-1.648406982E-1
4.629324180E-1,-1.160369873E0,-8.924865723E-1,-1.659088135E-1
4.679678190E-1,-1.193389893E0,-8.466796875E-1,-1.073150635E-1
4.730032190E-1,-1.282867432E0,-4.291076660E-1,2.903747559E-2
4.780691370E-1,-1.430953979E0,-2.990722656E-3,4.075622559E-2
4.831045380E-1,-1.540664673E0,5.026245117E-2,-1.275482178E-1
4.881399380E-1,-1.561981201E0,-2.117919922E-1,-3.001251221E-1
4.931753380E-1,-1.541732788E0,-5.430908203E-1,-4.450073242E-1
4.982412560E-1,-1.485275269E0,-8.040771484E-1,-5.685729980E-1
5.032766570E-1,-1.342529297E0,-1.058670044E0,-6.506042480E-1
5.083120570E-1,-1.125213623E0,-1.310073853E0,-6.868133545E-1
5.133474580E-1,-8.684844971E-1,-1.496490479E0,-7.294311523E-1
5.184133750E-1,-6.117553711E-1,-1.631790161E0,-8.082580566E-1
5.234487760E-1,-3.699493408E-1,-1.756423950E0,-9.243774414E-1
5.284841760E-1,-1.547546387E-1,-1.894897461E0,-1.045806885E0
5.335195770E-1,3.912353516E-2,-2.036590576E0,-1.152343750E0
5.385854950E-1,2.021026611E-1,-2.149505615E0,-1.234359741E0
5.436208950E-1,3.256683350E-1,-2.232589722E0,-1.294021606E0
5.486562950E-1,4.151611328E-1,-2.292251587E0,-1.330230713E0
5.536916960E-1,4.790649414E-1,-2.345504761E0,-1.346221924E0
5.587576140E-1,5.334014893E-1,-2.367874146E0,-1.340896606E0
5.637930140E-1,5.749511719E-1,-2.364685059E0,-1.306808472E0
5.688284150E-1,5.919952393E-1,-2.340179443E0,-1.249282837E0
5.738638150E-1,6.015777588E-1,-2.298645020E0,-1.178970337E0
5.789297330E-1,6.175537109E-1,-2.218750000E0,-1.091613770E0
5.839651330E-1,6.580352783E-1,-2.074935913E0,-9.893493652E-1
5.890005340E-1,7.187500000E-1,-1.844833374E0,-8.966827393E-1
5.940359340E-1,7.933197021E-1,-1.564666748E0,-8.210449219E-1
5.991018520E-1,8.519134521E-1,-1.284500122E0,-7.603149414E-1
6.041372520E-1,8.923950195E-1,-1.054412842E0,-7.177124023E-1
6.091726530E-1,9.339447021E-1,-8.914184570E-1,-6.878814697E-1
6.142385710E-1,9.893341064E-1,-7.678527832E-1,-6.665802002E-1
6.192739710E-1,1.064971924E0,-6.400299072E-1,-6.452789307E-1
6.243093720E-1,1.144866943E0,-4.823608398E-1,-5.941467285E-1
6.293447720E-1,1.197067261E0,-3.119201660E-1,-4.972076416E-1
6.343801720E-1,1.195999146E0,-1.915435791E-1,-3.533935547E-1
6.394460900E-1,1.124618530E0,-1.436157227E-1,-1.861419678E-1
6.444814910E-1,9.733581543E-1,-1.585235596E-1,-1.995849609E-2
6.495168910E-1,7.507171631E-1,-2.330932617E-1,1.291809082E-1
6.545522920E-1,4.939880371E-1,-3.577270508E-1,2.538146973E-1
6.596182090E-1,2.383270264E-1,-4.962158203E-1,3.443603516E-1
6.646536100E-1,-1.358032227E-3,-5.441436768E-1,4.167938232E-1
6.696890100E-1,-2.272033691E-1,-5.143280029E-1,4.753875732E-1
6.747244110E-1,-4.338531494E-1,-4.791717529E-1,5.233154297E-1
6.797903290E-1,-6.234741211E-1,-5.079345703E-1,5.457000732E-1
6.848257290E-1,-7.747497559E-1,-6.165924072E-1,5.403594971E-1
6.898611290E-1,-8.780670166E-1,-7.678527832E-1,4.966888428E-1
6.948965300E-1,-9.206848145E-1,-9.436187744E-1,4.199981689E-1
6.999624480E-1,-9.068298340E-1,-1.077850342E0,3.251800537E-1
7.049978480E-1,-8.514404297E-1,-1.165191650E0,2.058715820E-1
7.100332490E-1,-7.768707275E-1,-1.255752563E0,6.205749512E-2
7.150991670E-1,-6.799316406E-1,-1.329254150E0,-9.878540039E-2
7.201345670E-1,-5.606231689E-1,-1.418731689E0,-2.702941895E-1
7.251699670E-1,-4.317321777E-1,-1.534851074E0,-4.492645264E-1
7.302053680E-1,-2.921752930E-1,-1.632843018E0,-6.207733154E-1
7.352407680E-1,-1.941680908E-1,-1.757492065E0,-8.157196045E-1
7.403066860E-1,-2.112121582E-1,-1.898101807E0,-1.044754028E0
7.453420860E-1,-2.698059082E-1,-1.908752441E0,-1.189620972E0
7.503774870E-1,-3.422393799E-1,-1.811813354E0,-1.257797241E0
7.554128870E-1,-4.317321777E-1,-1.722335815E0,-1.282302856E0
7.604788050E-1,-5.201416016E-1,-1.672256470E0,-1.276977539E0
7.655142060E-1,-5.947113037E-1,-1.609420776E0,-1.272720337E0
7.705496060E-1,-6.394500732E-1,-1.558273315E0,-1.262054443E0
7.755850060E-1,-6.586303711E-1,-1.542297363E0,-1.226913452E0
7.806509240E-1,-6.447753906E-1,-1.530578613E0,-1.170440674E0
7.856863250E-1,-5.542297363E-1,-1.479446411E0,-1.089492798E0
7.907217250E-1,-4.050903320E-1,-1.371856689E0,-1.024505615E0
7.957876430E-1,-2.740631104E-1,-1.231246948E0,-1.003204346E0
8.008230430E-1,-1.760711670E-1,-1.079971313E0,-1.028762817E0
8.058584440E-1,-9.617614746E-2,-9.659881592E-1,-1.087356567E0
8.108938440E-1,-3.437805176E-2,-9.169921875E-1,-1.171508789E0
8.159597620E-1,-2.899169922E-4,-9.010162354E-1,-1.290817261E0
8.209951630E-1,-6.683349609E-3,-8.839721680E-1,-1.420791626E0
8.260305630E-1,-5.781555176E-2,-8.850402832E-1,-1.545425415E0
8.310659630E-1,-1.526336670E-1,-9.372253418E-1,-1.653015137E0
8.361013640E-1,-2.847290039E-1,-1.020324707E0,-1.745697021E0
8.411672820E-1,-4.317321777E-1,-1.140701294E0,-1.817062378E0
8.462026820E-1,-5.798034668E-1,-1.285568237E0,-1.863937378E0
8.512380830E-1,-7.289428711E-1,-1.449630737E0,-1.880981445E0
8.562734830E-1,-8.727416992E-1,-1.608352661E0,-1.873519897E0
8.613394010E-1,-1.008041382E0,-1.728729248E0,-1.846893311E0
8.663748010E-1,-1.118820190E0,-1.786254883E0,-1.794692993E0
8.714102020E-1,-1.198715210E0,-1.792633057E0,-1.717987061E0
8.764456020E-1,-1.253051758E0,-1.720199585E0,-1.627441406E0
8.815115200E-1,-1.293533325E0,-1.568939209E0,-1.532638550E0
8.865469200E-1,-1.312698364E0,-1.387832642E0,-1.421844482E0
8.915823210E-1,-1.297790527E0,-1.197158813E0,-1.299346924E0
8.966177210E-1,-1.263702393E0,-1.024581909E0,-1.177902222E0
9.016836390E-1,-1.240264893E0,-8.978118896E-1,-1.082031250E0
9.067190400E-1,-1.236007690E0,-8.168640137E-1,-1.014923096E0
9.117544400E-1,-1.245590210E0,-7.891540527E-1,-9.797668457E-1
9.168203580E-1,-1.257308960E0,-8.243103027E-1,-9.733734131E-1
9.218557580E-1,-1.271163940E0,-9.084625244E-1,-9.989471436E-1
9.268911590E-1,-1.288208008E0,-1.035232544E0,-1.044754028E0
9.319265590E-1,-1.308441162E0,-1.177978516E0,-1.109725952E0
9.369619590E-1,-1.335067749E0,-1.319656372E0,-1.174713135E0
9.420278770E-1,-1.363830566E0,-1.451751709E0,-1.238632202E0
9.470632780E-1,-1.393661499E0,-1.557220459E0,-1.301483154E0
9.520986780E-1,-1.422424316E0,-1.629653931E0,-1.363265991E0
9.571645960E-1,-1.457580566E0,-1.652023315E0,-1.418655396E0
9.621999970E-1,-1.484207153E0,-1.616867065E0,-1.476181030E0
9.672353970E-1,-1.479949951E0,-1.554016113E0,-1.536895752E0
9.722707970E-1,-1.457580566E0,-1.500762939E0,-1.608276367E0
9.773367150E-1,-1.428817749E0,-1.480514526E0,-1.687103271E0
9.823721160E-1,-1.405380249E0,-1.495437622E0,-1.777648926E0
9.874075160E-1,-1.384078979E0,-1.535903931E0,-1.885238647E0
9.924429170E-1,-1.357437134E0,-1.589172363E0,-2.007751465E0
9.975088340E-1,-1.332946777E0,-1.646697998E0,-2.151550293E0
1.002544235E0,-1.303115845E0,-1.711685181E0,-2.317733765E0
1.007579635E0,-1.263702393E0,-1.795837402E0,-2.506286621E0
1.012615036E0,-1.211502075E0,-1.899169922E0,-2.707626343E0
1.017680954E0,-1.151840210E0,-1.998229980E0,-2.905761719E0
1.022716354E0,-1.100708008E0,-2.070678711E0,-3.087921143E0
1.027751754E0,-1.058105469E0,-2.117538452E0,-3.237060547E0
1.032787155E0,-1.035736084E0,-2.146301270E0,-3.344650269E0
1.037822555E0,-1.027206421E0,-2.172943115E0,-3.402175903E0
1.042888473E0,-1.017623901E0,-2.181457520E0,-3.411758423E0
1.047923874E0,-1.017623901E0,-2.179336548E0,-3.364898682E0
1.052959274E0,-1.028274536E0,-2.171875000E0,-3.270080566E0
1.057994674E0,-1.032531738E0,-2.115417480E0,-3.148651123E0
1.063060592E0,-1.034667969E0,-2.053634644E0,-2.998443604E0
1.068113365E0,-1.031478882E0,-1.996109009E0,-2.839721680E0
1.073148765E0,-1.035736084E0,-1.932189941E0,-2.688446045E0
1.078214683E0,-1.034667969E0,-1.861877441E0,-2.558486938E0
1.083250083E0,-1.027206421E0,-1.813949585E0,-2.450897217E0
1.088285484E0,-1.012298584E0,-1.769195557E0,-2.385910034E0
1.093320884E0,-9.995117188E-1,-1.705291748E0,-2.359283447E0
1.098386802E0,-9.909973145E-1,-1.604080200E0,-2.371002197E0
1.103422203E0,-9.824676514E-1,-1.482650757E0,-2.412551880E0
1.108457603E0,-9.760742188E-1,-1.379318237E0,-2.467941284E0
1.113493003E0,-9.728851318E-1,-1.290893555E0,-2.529724121E0
1.118558921E0,-9.877929688E-1,-1.192901611E0,-2.600036621E0
1.123594322E0,-1.017623901E0,-1.088500977E0,-2.667144775E0
1.128629722E0,-1.050643921E0,-1.007537842E0,-2.726806641E0
1.133665122E0,-1.086868286E0,-9.670562744E-1,-2.771545410E0
1.138731040E0,-1.120956421E0,-9.606628418E-1,-2.798171997E0
1.143766441E0,-1.150787354E0,-9.947509766E-1,-2.812026978E0
1.148801841E0,-1.171020508E0,-1.057601929E0,-2.814147949E0
1.153837242E0,-1.175277710E0,-1.125778198E0,-2.806701660E0
1.158903160E0,-1.160369873E0,-1.179046631E0,-2.796035767E0
1.163938560E0,-1.117752075E0,-1.232315063E0,-2.794982910E0
1.168973960E0,-1.052780151E0,-1.261077881E0,-2.813079834E0
1.174009361E0,-9.707489014E-1,-1.234436035E0,-2.851440430E0
1.179075279E0,-8.716888428E-1,-1.183303833E0,-2.901504517E0
1.184110679E0,-7.651519775E-1,-1.127914429E0,-2.957962036E0
1.189146080E0,-6.522369385E-1,-1.086364746E0,-3.019744873E0
1.194181480E0,-5.435791016E-1,-1.037368774E0,-3.071945190E0
1.199247398E0,-4.466400146E-1,-9.873046875E-1,-3.108169556E0
1.204282798E0,-3.667449951E-1,-9.404296875E-1,-3.113494873E0
1.209318199E0,-3.038940430E-1,-8.956909180E-1,-3.101776123E0
1.214353599E0,-2.463684082E-1,-8.647918701E-1,-3.073013306E0
1.219419517E0,-1.952362061E-1,-8.200531006E-1,-3.034667969E0
1.224454917E0,-1.451721191E-1,-8.008728027E-1,-2.990982056E0
1.229490318E0,-1.057586670E-1,-8.381652832E-1,-2.937728882E0
1.234525718E0,-7.485961914E-2,-8.637237549E-1,-2.889785767E0
1.239591636E0,-4.290771484E-2,-8.477478027E-1,-2.849304199E0
1.244627037E0,-1.307678223E-2,-8.530731201E-1,-2.815216064E0
1.249662437E0,1.461791992E-2,-8.466796875E-1,-2.774734497E0
1.254697837E0,3.698730469E-2,-8.243103027E-1,-2.727859497E0
1.259763755E0,5.616760254E-2,-8.360290527E-1,-2.657562256E0
1.264799156E0,7.853698730E-2,-8.669281006E-1,-2.564880371E0
1.269834556E0,8.172607422E-2,-9.095306396E-1,-2.448760986E0
1.274869956E0,5.722045898E-2,-9.649353027E-1,-2.304962158E0
1.279935874E0,3.379821777E-2,-1.019256592E0,-2.139831543E0
1.284971275E0,1.831054688E-3,-1.063995361E0,-1.956619263E0
1.290006675E0,-4.077148438E-2,-1.104476929E0,-1.768066406E0
1.295042076E0,-8.338928223E-2,-1.100219727E0,-1.580581665E0
1.300107994E0,-1.291961670E-1,-1.069320679E0,-1.402679443E0
1.305143394E0,-1.803283691E-1,-1.001144409E0,-1.246078491E0
1.310178794E0,-2.346496582E-1,-9.244537354E-1,-1.115051270E0
1.315244712E0,-2.889862061E-1,-8.477478027E-1,-1.007461548E0
1.320280113E0,-3.411865234E-1,-7.998199463E-1,-9.201049805E-1
1.325315513E0,-3.827209473E-1,-8.051452637E-1,-8.466033936E-1
1.330350914E0,-4.104309082E-1,-8.381652832E-1,-7.837524414E-1
1.335386314E0,-4.285278320E-1,-8.829040527E-1,-7.304992676E-1
1.340452232E0,-4.434509277E-1,-9.414978027E-1,-6.878814697E-1
1.345487632E0,-4.615631104E-1,-9.606628418E-1,-6.473999023E-1
1.350523033E0,-4.722137451E-1,-9.841003418E-1,-6.058654785E-1
1.355558433E0,-4.700775146E-1,-1.036300659E0,-5.525970459E-1
1.360624351E0,-4.626159668E-1,-1.095962524E0,-4.865417480E-1
1.365659751E0,-4.519653320E-1,-1.139633179E0,-4.141082764E-1
1.370695152E0,-4.402465820E-1,-1.160934448E0,-3.427429199E-1
1.375730552E0,-4.264068604E-1,-1.160934448E0,-2.777557373E-1
1.380796470E0,-4.093627930E-1,-1.124725342E0,-2.298126221E-1
1.385831871E0,-3.923187256E-1,-1.058670044E0,-2.010650635E-1
1.390867271E0,-3.688812256E-1,-9.841003418E-1,-1.946716309E-1
1.395902671E0,-3.379821777E-1,-9.095306396E-1,-2.138366699E-1
1.400968589E0,-2.996368408E-1,-8.381652832E-1,-2.607116699E-1
1.406003990E0,-2.623443604E-1,-7.699890137E-1,-3.299560547E-1
1.411039390E0,-2.272033691E-1,-7.050018311E-1,-4.151763916E-1
1.416074790E0,-1.920471191E-1,-6.517333984E-1,-5.185089111E-1
1.421140708E0,-1.622161865E-1,-6.144561768E-1,-6.271667480E-1
1.426176109E0,-1.334533691E-1,-5.984802246E-1,-7.262268066E-1
1.431211509E0,-1.185455322E-1,-6.091308594E-1,-7.912139893E-1
1.436246910E0,-1.228027344E-1,-6.560058594E-1,-8.146514893E-1
1.441312828E0,-1.441040039E-1,-7.497406006E-1,-7.922821045E-1
1.446348228E0,-1.771240234E-1,-8.701171875E-1,-7.283630371E-1
1.451383628E0,-2.112121582E-1,-9.777069092E-1,-6.442108154E-1
1.456419029E0,-2.367858887E-1,-1.060806274E0,-5.493927002E-1
1.461484947E0,-2.516937256E-1,-1.116195679E0,-4.556579590E-1
1.466520347E0,-2.506408691E-1,-1.114059448E0,-3.640441895E-1
1.471555747E0,-2.314605713E-1,-1.070388794E0,-2.862854004E-1
1.476591148E0,-2.101593018E-1,-1.007537842E0,-2.223663330E-1
1.481657066E0,-1.973724365E-1,-9.212493896E-1,-1.808166504E-1
1.486692466E0,-1.941680908E-1,-8.317718506E-1,-1.595153809E-1
1.491727867E0,-2.005615234E-1,-7.635955811E-1,-1.467285156E-1
1.496763267E0,-2.154846191E-1,-7.199249268E-1,-1.477966309E-1
1.501829185E0,-2.389221191E-1,-6.943511963E-1,-1.776275635E-1
1.506864585E0,-2.612915039E-1,-6.634521484E-1,-2.383422852E-1
1.511899986E0,-2.836608887E-1,-6.325683594E-1,-3.214263916E-1
1.516935386E0,-3.007049561E-1,-5.899505615E-1,-4.162445068E-1
1.522001304E0,-3.038940430E-1,-5.398864746E-1,-5.174407959E-1
1.527036705E0,-3.081512451E-1,-5.015411377E-1,-6.271667480E-1
1.532072105E0,-3.092193604E-1,-4.472045898E-1,-7.422180176E-1
1.537107505E0,-2.868499756E-1,-3.811645508E-1,-8.732452393E-1
1.542173423E0,-2.431793213E-1,-3.406829834E-1,-1.005325317E0
1.547208824E0,-1.856536865E-1,-3.172454834E-1,-1.131027222E0
1.552244224E0,-1.228027344E-1,-2.767639160E-1,-1.246078491E0
1.557279624E0,-5.462646484E-2,-2.394866943E-1,-1.343017578E0
1.562345542E0,2.207946777E-2,-2.352294922E-1,-1.413330078E0
1.567380943E0,9.025573730E-2,-2.842254639E-1,-1.452743530E0
1.572416343E0,1.562957764E-1,-3.651885986E-1,-1.459136963E0
1.577451744E0,2.159576416E-1,-4.461517334E-1,-1.449554443E0
1.582517662E0,2.756042480E-1,-5.090026855E-1,-1.439956665E0
1.587553062E0,3.427124023E-1,-5.505371094E-1,-1.442092896E0
1.592588462E0,4.108886719E-1,-5.633239746E-1,-1.453811646E0
1.597623863E0,4.705505371E-1,-5.590667725E-1,-1.470855713E0
1.602689781E0,5.270080566E-1,-5.611877441E-1,-1.492156982E0
1.607725181E0,6.037139893E-1,-5.792999268E-1,-1.508132935E0
1.612760581E0,6.921234131E-1,-5.750427246E-1,-1.512405396E0
1.617826499E0,8.071746826E-1,-5.643920898E-1,-1.516662598E0
1.622861900E0,9.584350586E-1,-5.015411377E-1,-1.534774780E0
1.627897300E0,1.146987915E0,-3.737030029E-1,-1.577377319E0
1.632932701E0,1.369628906E0,-2.394866943E-1,-1.629577637E0
1.637968101E0,1.467636108E0,9.713745117E-2,-1.544357300E0
1.643034019E0,1.074554443E0,8.470916748E-1,-1.144882202E0
1.648069419E0,5.131683350E-1,1.160278320E0,-7.081298828E-1
1.653104820E0,2.585601807E-1,7.501525879E-1,-5.334167480E-1
1.658140220E0,2.979736328E-1,3.080596924E-1,-6.111907959E-1
1.663206138E0,4.172821045E-1,1.695709229E-1,-7.773590088E-1
1.668241539E0,5.291442871E-1,2.068634033E-1,-9.041290283E-1
1.673276939E0,6.441955566E-1,2.899475098E-1,-9.659118652E-1
1.678312339E0,7.709503174E-1,3.613281250E-1,-1.011718750E0
1.683378257E0,9.105072021E-1,3.751678467E-1,-1.083099365E0
1.688413658E0,1.036209106E0,3.101959229E-1,-1.169387817E0
1.693449058E0,1.124618530E0,1.930084229E-1,-1.248214722E0
1.698484458E0,1.197067261E0,8.648681641E-2,-1.317459106E0
1.703550376E0,1.283340454E0,2.577209473E-2,-1.371780396E0
1.708585777E0,1.384552002E0,2.363586426E-2,-1.416519165E0
1.713621177E0,1.488937378E0,4.067993164E-2,-1.463394165E0
1.718656578E0,1.580551147E0,2.896118164E-2,-1.510269165E0
1.723722496E0,1.641281128E0,-2.990722656E-3,-1.557144165E0
1.728757896E0,1.675369263E0,-5.200195312E-2,-1.611465454E0
1.733793296E0,1.692413330E0,-1.009979248E-1,-1.667922974E0
1.738828697E0,1.698806763E0,-1.414794922E-1,-1.730773926E0
1.743894615E0,1.707321167E0,-1.627807617E-1,-1.802154541E0
1.748930015E0,1.735015869E0,-1.808929443E-1,-1.885238647E0
1.753965415E0,1.774429321E0,-2.490692139E-1,-1.991760254E0
1.759000816E0,1.803192139E0,-2.341613770E-1,-2.111083984E0
1.764066734E0,1.852203369E0,-1.862182617E-1,-2.231445312E0
1.769102134E0,1.901199341E0,-1.585235596E-1,-2.350753784E0
1.774137535E0,1.937423706E0,-9.674072266E-2,-2.469009399E0
1.779203453E0,1.967239380E0,1.266479492E-3,-2.580856323E0
1.784238853E0,2.015182495E0,7.157897949E-2,-2.675659180E0
1.789274253E0,2.076965332E0,1.322937012E-1,-2.771545410E0
1.794309654E0,2.139816284E0,1.940765381E-1,-2.867416382E0
1.799345054E0,2.189880371E0,2.579956055E-1,-2.947311401E0
1.804410972E0,2.187759399E0,3.027343750E-1,-3.019744873E0
1.809446372E0,2.099334717E0,2.143249512E-1,-3.127334595E0
1.814481773E0,1.966186523E0,9.713745117E-2,-3.222152710E0
1.819547691E0,1.861785889E0,1.077880859E-1,-3.292449951E0
1.824583091E0,1.841552734E0,2.239074707E-1,-3.341461182E0
1.829618492E0,1.890548706E0,1.951446533E-1,-3.359573364E0
1.834653892E0,1.861785889E0,3.474731445E-1,-3.347854614E0
1.839689292E0,1.608245850E0,3.432159424E-1,-3.230667114E0
1.844755210E0,1.197067261E0,-1.137847900E-1,-3.069808960E0
1.849790611E0,9.360656738E-1,-1.638488770E-1,-2.952636719E0
1.854826011E0,7.475128174E-1,-9.353637695E-2,-2.822677612E0
1.859861412E0,6.495208740E-1,-1.137847900E-1,-2.698043823E0
1.864927330E0,7.251434326E-1,-7.756042480E-2,-2.612823486E0
1.869962730E0,9.147644043E-1,-2.075195312E-1,-2.479660034E0
1.874998130E0,1.044723511E0,-4.706420898E-1,-2.270858765E0
1.880033531E0,1.193862915E0,-4.812927246E-1,-2.079116821E0
1.885099449E0,1.327026367E0,-4.930114746E-1,-1.850082397E0
1.890134849E0,1.425033569E0,-7.380218506E-1,-1.463394165E0
1.895170249E0,1.449523926E0,-1.091690063E0,-1.073501587E0
1.900236167E0,1.466567993E0,-1.339904785E0,-7.549896240E-1
1.905271568E0,1.472961426E0,-1.342025757E0,-4.737701416E-1
1.910306968E0,1.438873291E0,-1.210998535E0,-1.914672852E-1
1.915372886E0,1.387741089E0,-1.038436890E0,1.068115234E-1
1.920408287E0,1.340866089E0,-9.340362549E-1,4.583435059E-1
1.925443687E0,1.318496704E0,-8.637237549E-1,8.173370361E-1
1.930479087E0,1.284408569E0,-9.883575439E-1,1.126266479E0
1.935514488E0,1.262039185E0,-1.121520996E0,1.362747192E0
1.940549888E0,1.279083252E0,-1.157745361E0,1.519348145E0
1.945615806E0,1.340866089E0,-1.139633179E0,1.599243164E0
1.950651206E0,1.442077637E0,-1.108734131E0,1.607757568E0
1.955686607E0,1.574157715E0,-1.024581909E0,1.581130981E0
1.960752525E0,1.704132080E0,-9.223175049E-1,1.543838501E0
1.965787925E0,1.819168091E0,-8.285675049E-1,1.507629395E0
1.970823326E0,1.908660889E0,-7.486724854E-1,1.463943481E0
1.975858726E0,2.009857178E0,-6.783752441E-1,1.382995605E0
1.980924644E0,2.146209717E0,-7.092590332E-1,1.299896240E0
1.985960044E0,2.325180054E0,-8.381652832E-1,1.211486816E0
1.990995445E0,2.490295410E0,-9.681243896E-1,1.119873047E0
1.996030845E0,2.676712036E0,-1.149215698E0,1.022933960E0
2.001096763E0,2.861007690E0,-1.324981689E0,9.472961426E-1
2.006132164E0,3.038909912E0,-1.453887939E0,8.855133057E-1
2.011167564E0,3.220001221E0,-1.590240479E0,8.397064209E-1
2.016202964E0,3.390441895E0,-1.809677124E0,7.693939209E-1
2.021268882E0,3.536376953E0,-1.930053711E0,6.372985840E-1
2.026304283E0,3.605621338E0,-2.025924683E0,4.338378906E-1
2.031339683E0,3.516143799E0,-2.295440674E0,2.538146973E-1
2.036375083E0,3.253021240E0,-2.460556030E0,1.323699951E-1
2.041441001E0,2.900421143E0,-2.257095337E0,1.121368408E-1
2.046476402E0,2.507339478E0,-1.855484009E0,1.451568604E-1
2.051511802E0,2.217590332E0,-1.336700439E0,1.685943604E-1
2.056547203E0,1.780822754E0,-6.197814941E-1,2.527465820E-1
2.061613121E0,8.039855957E-1,-4.454040527E-2,3.475494385E-1
2.066648521E0,2.244720459E-1,1.578674316E-1,3.358306885E-1
2.071683921E0,-9.510803223E-2,2.441406250E-1,2.602081299E-1
2.076719322E0,-2.516937256E-1,2.878265381E-1,1.440887451E-1
2.081785240E0,-3.837890625E-1,3.325653076E-1,2.264404297E-2
2.086820640E0,-4.615631104E-1,3.059387207E-1,-9.773254395E-2
2.091856040E0,-4.658203125E-1,1.642456055E-1,-2.042541504E-1
2.096891441E0,-6.032409668E-1,-2.203063965E-1,-3.075866699E-1
2.101957359E0,-1.048522949E0,-6.623992920E-1,-3.150482178E-1
2.106992759E0,-1.249847412E0,-6.453552246E-1,-2.553863525E-1
2.112028160E0,-1.031478882E0,-4.674530029E-1,-2.671051025E-1
2.117063560E0,-7.534332275E-1,-4.972839355E-1,-3.778839111E-1
2.122129478E0,-6.032409668E-1,-6.325683594E-1,-5.792236328E-1
2.127164878E0,-5.478363037E-1,-7.220458984E-1,-8.870849609E-1
2.132200279E0,-5.585021973E-1,-6.762390137E-1,-1.275909424E0
2.137235679E0,-5.872497559E-1,-5.196533203E-1,-1.645553589E0
2.142301597E0,-5.712738037E-1,-6.080627441E-1,-1.880981445E0
2.147336997E0,-5.180206299E-1,-7.241821289E-1,-1.964065552E0
2.152372398E0,-4.338531494E-1,-6.687774658E-1,-1.931045532E0
2.157407798E0,-3.337249756E-1,-5.707855225E-1,-1.791503906E0
2.162473716E0,-2.314605713E-1,-5.090026855E-1,-1.563537598E0
2.167509117E0,-1.600799561E-1,-5.057983398E-1,-1.270584106E0
2.172544517E0,-6.634521484E-2,-4.663848877E-1,-9.669799805E-1
2.177579917E0,4.870605469E-2,-3.833007812E-1,-6.516571045E-1
2.182645835E0,1.829223633E-1,-2.256317139E-1,-3.107757568E-1
2.187681236E0,2.851867676E-1,-8.609008789E-2,2.584838867E-2
2.192716636E0,3.160858154E-1,2.363586426E-2,3.635253906E-1
2.197752037E0,2.628173828E-1,7.583618164E-2,6.894989014E-1
2.202817955E0,6.893920898E-2,-2.003479004E-2,9.643402100E-1
2.207853355E0,-2.964477539E-1,-2.149810791E-1,1.180587769E0
2.212888755E0,-5.723419189E-1,-3.417510986E-1,1.372344971E0
2.217924156E0,-5.329284668E-1,-3.769073486E-1,1.520416260E0
2.222990074E0,-2.602233887E-1,-3.438720703E-1,1.591781616E0
2.228025474E0,-2.160644531E-2,-2.884826660E-1,1.539581299E0
2.233060874E0,1.669464111E-1,-2.458801270E-1,1.275405884E0
2.238096275E0,1.349945068E-1,-4.035339355E-1,7.683258057E-1
2.243162193E0,1.831054688E-3,-4.205780029E-1,3.699188232E-1
2.248197593E0,4.870605469E-2,-2.959442139E-1,1.313018799E-1
2.253232994E0,7.746887207E-2,-3.044586182E-1,-3.274536133E-2
2.258268394E0,-1.835174561E-1,-5.260467529E-1,1.036071777E-1
2.263334312E0,-1.792602539E-1,-5.952758789E-1,5.883026123E-1
2.268369712E0,-1.984405518E-1,-5.675811768E-1,6.863098145E-1
2.273405113E0,-1.813964844E-1,-5.516052246E-1,4.743194580E-1
2.278440513E0,-1.132202148E-1,-6.964874268E-1,3.166656494E-1
2.283506431E0,-1.750030518E-1,-7.359008789E-1,3.134613037E-1
2.288541831E0,-2.900543213E-1,-4.450836182E-1,5.883026123E-1
2.293577232E0,-4.295959473E-1,1.035308838E-1,1.658889771E0
2.298612632E0,-3.997650146E-1,-1.542663574E-1,2.918029785E0
2.303678550E0,-3.134918213E-1,-1.063995361E0,3.483688354E0
2.308713951E0,-3.134918213E-1,-1.346298218E0,2.772094727E0
2.313749351E0,-3.220062256E-1,-7.412261963E-1,1.581130981E0
2.318784751E0,-2.548980713E-1,1.322937012E-1,7.523498535E-1
2.323850669E0,-1.345214844E-1,5.424194336E-1,3.422241211E-1
2.328886070E0,-9.887695312E-3,2.963409424E-1,1.504821777E-1
2.333921470E0,1.211395264E-1,-6.477355957E-2,1.731872559E-2
2.338956871E0,2.436523438E-1,-2.884826660E-1,-1.083831787E-1
2.344022789E0,3.224792480E-1,-4.184417725E-1,-1.872100830E-1
2.349058189E0,3.523101807E-1,-4.717102051E-1,-2.244873047E-1
2.354093589E0,3.533782959E-1,-4.674530029E-1,-2.383422852E-1
2.359128990E0,3.437805176E-1,-4.227142334E-1,-2.255554199E-1
2.364194908E0,3.267364502E-1,-3.737030029E-1,-2.117156982E-1
2.369230308E0,2.851867676E-1,-2.842254639E-1,-1.872100830E-1
2.374265708E0,2.202148438E-1,-1.286926270E-1,-1.286163330E-1
2.379331626E0,1.509704590E-1,4.455566406E-3,-8.280944824E-2
2.384367027E0,7.214355469E-2,1.322937012E-1,-5.297851562E-2
2.389402427E0,-1.840209961E-2,3.027343750E-1,-1.144409180E-2
2.394437828E0,-1.270599365E-1,5.179138184E-1,7.270812988E-2
2.399473228E0,-2.570190430E-1,6.958160400E-1,1.622009277E-1
2.404539146E0,-4.168090820E-1,7.746429443E-1,2.463531494E-1
2.409574546E0,-5.244140625E-1,3.400268555E-1,3.283843994E-1
2.414609947E0,-1.206665039E-1,-9.446868896E-1,2.761840820E-1
2.419645347E0,3.256683350E-1,-1.549758911E0,-7.429504395E-2
2.424711265E0,2.756042480E-1,-1.132171631E0,-3.363494873E-1
2.429746665E0,4.977416992E-2,-6.741180420E-1,-3.022613525E-1
2.434782066E0,-8.657836914E-2,-3.460083008E-1,-1.616363525E-1
2.439817466E0,-8.551025391E-2,-1.191101074E-1,-5.192565918E-2
2.444883384E0,-4.504394531E-2,1.191711426E-2,1.625061035E-2
2.449918785E0,-1.307678223E-2,6.304931641E-2,5.673217773E-2
2.454954185E0,1.142883301E-2,5.772399902E-2,6.738281250E-2
2.459989585E0,2.420043945E-2,3.002929688E-2,5.993652344E-2
2.465055503E0,2.101135254E-2,1.983642578E-4,5.033874512E-2
2.470090904E0,8.224487305E-3,-1.577758789E-2,4.289245605E-2
2.475126304E0,-3.494262695E-3,-1.896667480E-2,3.436279297E-2
2.480161705E0,-5.630493164E-3,-1.896667480E-2,2.584838867E-2
2.485227622E0,5.035400391E-3,-1.896667480E-2,2.264404297E-2
2.490263023E0,1.036071777E-2,-2.110290527E-2,2.052307129E-2
2.495298423E0,1.461791992E-2,-1.364135742E-2,1.838684082E-2
2.500333824E0,1.887512207E-2,-1.922607422E-3,1.945495605E-2
2.505399742E0,2.207946777E-2,9.796142578E-3,2.157592773E-2
2.510435142E0,2.101135254E-2,2.044677734E-2,2.264404297E-2
2.515470542E0,1.568603516E-2,2.044677734E-2,2.157592773E-2
2.520505943E0,1.461791992E-2,1.831054688E-2,1.945495605E-2
2.525571861E0,1.036071777E-2,2.684020996E-2,1.945495605E-2
2.530607261E0,1.831054688E-3,2.363586426E-2,1.945495605E-2
2.535642662E0,-2.426147461E-3,1.191711426E-2,1.625061035E-2
2.540678062E0,-5.630493164E-3,3.402709961E-3,1.092529297E-2
2.545743980E0,-6.683349609E-3,-7.263183594E-3,5.599975586E-3
2.550779380E0,-5.630493164E-3,-1.364135742E-2,4.531860352E-3
2.555814781E0,-2.899169922E-4,-1.791381836E-2,3.479003906E-3
2.560850181E0,9.292602539E-3,-2.856445312E-2,2.410888672E-3
2.565916099E0,2.101135254E-2,-4.135131836E-2,2.410888672E-3
2.570951499E0,2.633666992E-2,-4.986572266E-2,8.804321289E-3
2.575986900E0,3.059387207E-2,-5.944824219E-2,9.872436523E-3
2.581022300E0,3.591918945E-2,-6.904602051E-2,1.092529297E-2
2.586088218E0,3.912353516E-2,-7.649230957E-2,1.092529297E-2
2.591123619E0,4.338073730E-2,-8.821105957E-2,7.736206055E-3
2.596159019E0,4.124450684E-2,-9.886169434E-2,7.736206055E-3
2.601194419E0,2.952575684E-2,-9.248352051E-2,9.872436523E-3
2.606260337E0,2.101135254E-2,-8.927917480E-2,9.872436523E-3
2.611295738E0,1.248168945E-2,-8.714294434E-2,7.736206055E-3
2.616331138E0,1.036071777E-2,-7.437133789E-2,2.410888672E-3
2.621397056E0,1.354980469E-2,-5.412292480E-2,1.342773438E-3
2.626432456E0,1.354980469E-2,-3.921508789E-2,-7.934570312E-4
2.631467857E0,1.887512207E-2,-6.158447266E-2,-8.239746094E-3
2.636503257E0,3.591918945E-2,-8.714294434E-2,-2.635192871E-2
2.641538658E0,7.214355469E-2,-1.382904053E-1,-6.150817871E-2
2.646604576E0,1.094207764E-1,-1.201782227E-1,-1.009216309E-1
2.651639976E0,1.009063721E-1,4.174804688E-2,-1.264953613E-1
2.656675376E0,7.960510254E-2,1.717071533E-1,-1.659088135E-1
2.661710777E0,8.493041992E-2,8.648681641E-2,-2.276916504E-1
2.666776695E0,1.040954590E-1,-1.105804443E-1,-2.223663330E-1
2.671812095E0,9.130859375E-2,-2.085876465E-1,-1.392669678E-1
2.676847496E0,4.763793945E-2,-1.936798096E-1,-3.060913086E-2
2.681882896E0,-8.819580078E-3,-1.063232422E-1,7.377624512E-2
2.686948814E0,-4.609680176E-2,1.191711426E-2,1.685943604E-1
2.691984214E0,-5.676269531E-2,6.625366211E-2,2.261199951E-1
2.697019615E0,-5.355834961E-2,6.518554688E-2,2.431640625E-1
2.702055015E0,-4.077148438E-2,6.625366211E-2,2.218475342E-1
2.707120933E0,-2.053833008E-2,3.002929688E-2,1.653900146E-1
2.712156333E0,9.292602539E-3,-3.388977051E-2,1.004180908E-1
2.717191734E0,3.059387207E-2,-7.437133789E-2,3.861999512E-2
2.722227134E0,4.338073730E-2,-1.042022705E-1,-1.463317871E-2
2.727293052E0,5.722045898E-2,-1.244354248E-1,-4.978942871E-2
2.732328453E0,6.575012207E-2,-1.116485596E-1,-6.364440918E-2
2.737363853E0,6.149291992E-2,-7.862854004E-2,-5.725097656E-2
2.742399253E0,4.763793945E-2,-4.240417480E-2,-4.127502441E-2
2.747465171E0,2.952575684E-2,-1.470947266E-2,-1.463317871E-2
2.752500572E0,1.036071777E-2,6.591796875E-3,2.410888672E-3
2.757535972E0,-2.426147461E-3,3.002929688E-2,2.478027344E-2
2.762571372E0,-1.628112793E-2,5.558776855E-2,4.821777344E-2
2.767637290E0,-2.586364746E-2,7.690429688E-2,6.951904297E-2
2.772672691E0,-3.332519531E-2,9.288024902E-2,8.975219727E-2
2.777708091E0,-3.544616699E-2,9.820556641E-2,1.025390625E-1
2.782774009E0,-3.544616699E-2,9.288024902E-2,1.089324951E-1
2.787809410E0,-3.758239746E-2,6.944274902E-2,1.036071777E-1
2.792844810E0,-3.758239746E-2,3.428649902E-2,9.295654297E-2
2.797880210E0,-3.758239746E-2,-1.922607422E-3,8.337402344E-2
2.802946128E0,-3.758239746E-2,-3.175354004E-2,7.165527344E-2
2.807981529E0,-3.865051270E-2,-4.879760742E-2,6.205749512E-2
2.813016929E0,-4.290771484E-2,-6.158447266E-2,5.673217773E-2
2.818052330E0,-4.504394531E-2,-5.839538574E-2,5.566406250E-2
2.823087730E0,-4.716491699E-2,-3.068542480E-2,5.780029297E-2
2.828153648E0,-4.716491699E-2,1.937866211E-2,5.780029297E-2
2.833189048E0,-3.971862793E-2,7.690429688E-2,5.354309082E-2
2.838224449E0,-2.799987793E-2,1.237792969E-1,5.033874512E-2
2.843259849E0,-1.947021484E-2,1.610565186E-1,4.608154297E-2
2.848325767E0,-1.200866699E-2,2.036743164E-1,4.608154297E-2
2.853361167E0,-7.751464844E-3,2.366943359E-1,4.289245605E-2
2.858396568E0,-5.630493164E-3,2.558593750E-1,4.289245605E-2
2.863431968E0,-5.630493164E-3,2.579956055E-1,3.756713867E-2
2.868497886E0,-6.683349609E-3,2.537384033E-1,3.117370605E-2
2.873533287E0,-7.751464844E-3,2.430877686E-1,2.371215820E-2
2.878568687E0,-1.095581055E-2,2.313690186E-1,1.519775391E-2
2.883634605E0,-1.200866699E-2,2.239074707E-1,1.092529297E-2
2.888670005E0,-1.200866699E-2,2.303009033E-1,6.668090820E-3
2.893705406E0,-9.887695312E-3,2.420196533E-1,2.410888672E-3
2.898740806E0,-3.494262695E-3,2.516021729E-1,3.479003906E-3
2.903806724E0,-2.899169922E-4,2.601318359E-1,6.668090820E-3
2.908842124E0,-1.358032227E-3,2.611846924E-1,2.264404297E-2
2.913877525E0,7.629394531E-4,2.484130859E-1,3.329467773E-2
2.918912925E0,7.629394531E-4,2.292327881E-1,3.649902344E-2
2.923978843E0,-2.426147461E-3,2.111206055E-1,4.501342773E-2
2.929014244E0,-2.426147461E-3,2.036743164E-1,5.033874512E-2
2.934049644E0,-4.562377930E-3,2.079315186E-1,5.033874512E-2
2.939085044E0,-5.630493164E-3,2.153778076E-1,5.461120605E-2
2.944150962E0,-3.494262695E-3,2.228393555E-1,5.673217773E-2
2.949186363E0,-6.683349609E-3,2.292327881E-1,5.780029297E-2
2.954221763E0,-1.840209961E-2,2.654571533E-1,6.312561035E-2
2.959257164E0,-3.012084961E-2,3.432159424E-1,7.377624512E-2
2.964323081E0,-2.160644531E-2,3.410797119E-1,6.738281250E-2
2.969358482E0,-1.358032227E-3,2.292327881E-1,4.396057129E-2
2.974393882E0,9.292602539E-3,1.056671143E-1,2.478027344E-2
2.979429283E0,1.831054688E-3,4.067993164E-2,2.157592773E-2
2.984495201E0,-1.307678223E-2,4.281616211E-2,3.010559082E-2
2.989530601E0,-2.693176270E-2,6.092834473E-2,3.968811035E-2
2.994566001E0,-3.332519531E-2,7.690429688E-2,4.608154297E-2
2.999601402E0,-4.077148438E-2,8.862304688E-2,4.714965820E-2
3.004667320E0,-4.930114746E-2,9.288024902E-2,4.501342773E-2
3.009702720E0,-4.930114746E-2,9.394836426E-2,4.714965820E-2
3.014738121E0,-5.036926270E-2,1.013946533E-1,5.354309082E-2
3.019773521E0,-4.930114746E-2,1.109924316E-1,5.993652344E-2
3.024839439E0,-4.397583008E-2,1.280364990E-1,6.419372559E-2
3.029874839E0,-3.758239746E-2,1.461486816E-1,6.632995605E-2
3.034910240E0,-3.437805176E-2,1.695709229E-1,6.632995605E-2
3.039945640E0,-3.225708008E-2,1.866149902E-1,6.526184082E-2
3.045011558E0,-2.693176270E-2,2.026062012E-1,6.205749512E-2
3.050046958E0,-2.586364746E-2,2.079315186E-1,5.566406250E-2
3.055082359E0,-2.372741699E-2,2.047271729E-1,5.033874512E-2
3.060117759E0,-2.160644531E-2,1.972808838E-1,4.289245605E-2
3.065183677E0,-2.799987793E-2,1.887512207E-1,3.543090820E-2
3.070219078E0,-3.118896484E-2,1.812896729E-1,3.543090820E-2
3.075254478E0,-3.758239746E-2,1.738433838E-1,3.543090820E-2
3.080289878E0,-4.609680176E-2,1.717071533E-1,3.649902344E-2
3.085355796E0,-5.462646484E-2,1.727752686E-1,3.756713867E-2
3.090391197E0,-5.781555176E-2,1.727752686E-1,4.396057129E-2
3.095426597E0,-6.420898438E-2,1.770324707E-1,4.821777344E-2
3.100461997E0,-6.953430176E-2,1.823577881E-1,5.247497559E-2
3.105527915E0,-7.273864746E-2,1.887512207E-1,5.354309082E-2
3.110563316E0,-7.485961914E-2,1.930084229E-1,5.673217773E-2
3.115598716E0,-7.913208008E-2,1.951446533E-1,5.673217773E-2
3.120634117E0,-7.913208008E-2,1.972808838E-1,5.780029297E-2
3.125700035E0,-8.018493652E-2,1.983337402E-1,5.780029297E-2
3.130735435E0,-8.551025391E-2,1.962127686E-1,5.780029297E-2
3.135770835E0,-8.871459961E-2,1.919555664E-1,5.461120605E-2
3.140806236E0,-9.297180176E-2,1.898193359E-1,5.566406250E-2
3.145872154E0,-9.829711914E-2,1.887512207E-1,5.566406250E-2
3.150907554E0,-1.025695801E-1,1.951446533E-1,5.461120605E-2
3.155942955E0,-1.046905518E-1,2.036743164E-1,5.673217773E-2
3.160978355E0,-1.068267822E-1,2.132568359E-1,5.993652344E-2
3.166044273E0,-1.057586670E-1,2.207183838E-1,6.205749512E-2
3.171079673E0,-1.089477539E-1,2.313690186E-1,6.738281250E-2
3.176115074E0,-1.121520996E-1,2.409515381E-1,7.591247559E-2
3.181150474E0,-1.174774170E-1,2.548065186E-1,8.337402344E-2
3.186216392E0,-1.228027344E-1,2.654571533E-1,8.975219727E-2
3.191251792E0,-1.281280518E-1,2.750396729E-1,9.721374512E-2
3.196287193E0,-1.313171387E-1,2.856903076E-1,1.046752930E-1
3.201322593E0,-1.334533691E-1,3.006134033E-1,1.078643799E-1
3.206388511E0,-1.355895996E-1,3.123168945E-1,1.142578125E-1
3.211423912E0,-1.409149170E-1,3.187103271E-1,1.195831299E-1
3.216459312E0,-1.409149170E-1,3.240356445E-1,1.227874756E-1
3.221494712E0,-1.462402344E-1,3.283081055E-1,1.270446777E-1
3.226560630E0,-1.537017822E-1,3.336334229E-1,1.281127930E-1
3.231596031E0,-1.579589844E-1,3.400268555E-1,1.291809082E-1
3.236631431E0,-1.600799561E-1,3.442840576E-1,1.323699951E-1
3.241666831E0,-1.590270996E-1,3.506774902E-1,1.334381104E-1
3.246732749E0,-1.600799561E-1,3.613281250E-1,1.345062256E-1
3.251768150E0,-1.611480713E-1,3.741149902E-1,1.355590820E-1
3.256803550E0,-1.611480713E-1,3.868865967E-1,1.376953125E-1
3.261838951E0,-1.632843018E-1,4.028778076E-1,1.430206299E-1
3.266904869E0,-1.707458496E-1,4.199218750E-1,1.430206299E-1
3.271940269E0,-1.750030518E-1,4.369659424E-1,1.472778320E-1
3.276975669E0,-1.781921387E-1,4.561309814E-1,1.494140625E-1
3.282011070E0,-1.824493408E-1,4.721069336E-1,1.472778320E-1
3.287076988E0,-1.867218018E-1,4.817047119E-1,1.494140625E-1
3.292112388E0,-1.920471191E-1,4.891510010E-1,1.526031494E-1
3.297147789E0,-1.952362061E-1,4.902191162E-1,1.547393799E-1
3.302183189E0,-1.952362061E-1,4.923553467E-1,1.526031494E-1
3.307249107E0,-1.963043213E-1,4.987487793E-1,1.547393799E-1
3.312284507E0,-2.037658691E-1,5.040740967E-1,1.568756104E-1
3.317319908E0,-2.090911865E-1,5.136566162E-1,1.611328125E-1
3.322355308E0,-2.144165039E-1,5.232391357E-1,1.611328125E-1
3.327421226E0,-2.176055908E-1,5.296325684E-1,1.622009277E-1
3.332456626E0,-2.208099365E-1,5.370941162E-1,1.696472168E-1
3.337492027E0,-2.250671387E-1,5.445556641E-1,1.707153320E-1
3.342527427E0,-2.272033691E-1,5.530700684E-1,1.749877930E-1
3.347593345E0,-2.293243408E-1,5.552062988E-1,1.771087646E-1
3.352628746E0,-2.261352539E-1,5.562744141E-1,1.803131104E-1
3.357664146E0,-2.261352539E-1,5.573272705E-1,1.792449951E-1
3.362699546E0,-2.250671387E-1,5.573272705E-1,1.781768799E-1
3.367765464E0,-2.261352539E-1,5.573272705E-1,1.771087646E-1
3.372800865E0,-2.272033691E-1,5.647888184E-1,1.717834473E-1
3.377836265E0,-2.282562256E-1,5.711822510E-1,1.685943604E-1
3.382871665E0,-2.293243408E-1,5.775756836E-1,1.717834473E-1
3.387937583E0,-2.325286865E-1,5.818328857E-1,1.760406494E-1
3.392972984E0,-2.314605713E-1,5.754394531E-1,1.898956299E-1
3.398008384E0,-2.325286865E-1,5.626678467E-1,2.058715820E-1
3.403043785E0,-2.325286865E-1,5.488128662E-1,2.133331299E-1
3.408109703E0,-2.293243408E-1,5.424194336E-1,2.111968994E-1
3.413145103E0,-2.250671387E-1,5.498809814E-1,2.016143799E-1
3.418180503E0,-2.186737061E-1,5.573272705E-1,1.920318604E-1
3.423246421E0,-2.090911865E-1,5.594635010E-1,1.813659668E-1
3.428281822E0,-1.973724365E-1,5.573272705E-1,1.717834473E-1
3.433317222E0,-1.877899170E-1,5.466766357E-1,1.632690430E-1
3.438352622E0,-1.824493408E-1,5.402832031E-1,1.547393799E-1
3.443418540E0,-1.845855713E-1,5.392303467E-1,1.440887451E-1
3.448453941E0,-1.877899170E-1,5.349578857E-1,1.387634277E-1
3.453489341E0,-1.909790039E-1,5.328369141E-1,1.323699951E-1
3.458524742E0,-1.963043213E-1,5.285797119E-1,1.259765625E-1
3.463560142E0,-2.026977539E-1,5.189819336E-1,1.259765625E-1
3.468626060E0,-2.069549561E-1,5.104675293E-1,1.281127930E-1
3.473661460E0,-2.133483887E-1,5.051422119E-1,1.270446777E-1
3.478696861E0,-2.122802734E-1,5.019378662E-1,1.281127930E-1
3.483732261E0,-2.069549561E-1,4.976806641E-1,1.270446777E-1
3.488798179E0,-1.984405518E-1,4.966125488E-1,1.227874756E-1
3.493833580E0,-1.899108887E-1,4.998168945E-1,1.217193604E-1
3.498868980E0,-1.792602539E-1,5.040740967E-1,1.195831299E-1
3.503904380E0,-1.696777344E-1,5.125885010E-1,1.185150146E-1
3.508970298E0,-1.632843018E-1,5.168609619E-1,1.174621582E-1
3.514005699E0,-1.568908691E-1,5.168609619E-1,1.185150146E-1
3.519041099E0,-1.558227539E-1,5.125885010E-1,1.163940430E-1
3.524076499E0,-1.568908691E-1,5.030059814E-1,1.195831299E-1
3.529142417E0,-1.600799561E-1,4.912872314E-1,1.195831299E-1
3.534177818E0,-1.643524170E-1,4.817047119E-1,1.195831299E-1
3.539213218E0,-1.707458496E-1,4.657287598E-1,1.249084473E-1
3.544248619E0,-1.792602539E-1,4.582672119E-1,1.270446777E-1
3.549314537E0,-1.888427734E-1,4.486846924E-1,1.302337646E-1
3.554349937E0,-1.995086670E-1,4.422912598E-1,1.270446777E-1
3.559385337E0,-2.048339844E-1,4.348297119E-1,1.281127930E-1
3.564420738E0,-2.165527344E-1,4.295043945E-1,1.291809082E-1
3.569486656E0,-2.261352539E-1,4.263000488E-1,1.302337646E-1
3.574522056E0,-2.314605713E-1,4.209747314E-1,1.376953125E-1
3.579557456E0,-2.389221191E-1,4.113922119E-1,1.387634277E-1
3.584623374E0,-2.516937256E-1,3.996734619E-1,1.366271973E-1
3.589658775E0,-2.580871582E-1,3.890228271E-1,1.323699951E-1
3.594694175E0,-2.612915039E-1,3.826293945E-1,1.323699951E-1
3.599729576E0,-2.666168213E-1,3.836975098E-1,1.281127930E-1
3.604795494E0,-2.644805908E-1,3.826293945E-1,1.323699951E-1
3.609830894E0,-2.623443604E-1,3.804931641E-1,1.323699951E-1
3.614866294E0,-2.634124756E-1,3.762359619E-1,1.323699951E-1
3.619901695E0,-2.623443604E-1,3.741149902E-1,1.334381104E-1
3.624967613E0,-2.591552734E-1,3.741149902E-1,1.376953125E-1
3.630003013E0,-2.538299561E-1,3.730468750E-1,1.419525146E-1
3.635038414E0,-2.485046387E-1,3.719787598E-1,1.430206299E-1
3.640073814E0,-2.389221191E-1,3.698425293E-1,1.419525146E-1
3.645139732E0,-2.314605713E-1,3.677215576E-1,1.430206299E-1
3.650175132E0,-2.261352539E-1,3.634490967E-1,1.440887451E-1
3.655210533E0,-2.261352539E-1,3.623962402E-1,1.366271973E-1
3.660245933E0,-2.293243408E-1,3.613281250E-1,1.281127930E-1
3.665311851E0,-2.378540039E-1,3.421478271E-1,1.227874756E-1
3.670347251E0,-2.474365234E-1,3.240356445E-1,1.185150146E-1
3.675382652E0,-2.495727539E-1,3.176574707E-1,1.131896973E-1
3.680418052E0,-2.431793213E-1,3.112640381E-1,1.046752930E-1
3.685453453E0,-2.282562256E-1,2.995452881E-1,1.004180908E-1
3.690519371E0,-2.048339844E-1,2.782287598E-1,8.869934082E-2
3.695554771E0,-1.792602539E-1,2.569274902E-1,8.230590820E-2
3.700590171E0,-1.579589844E-1,2.388153076E-1,7.270812988E-2
3.705656089E0,-1.345214844E-1,2.239074707E-1,6.205749512E-2
3.710691490E0,-1.153411865E-1,2.100524902E-1,5.461120605E-2
3.715726890E0,-1.046905518E-1,1.940765381E-1,4.608154297E-2
3.720762290E0,-9.510803223E-2,1.802368164E-1,3.861999512E-2
3.725797691E0,-8.445739746E-2,1.653137207E-1,3.436279297E-2
3.730863609E0,-7.592773438E-2,1.482696533E-1,2.903747559E-2
3.735899009E0,-6.634521484E-2,1.333618164E-1,2.264404297E-2
3.740934410E0,-5.249023438E-2,1.195068359E-1,2.052307129E-2
3.746000328E0,-3.865051270E-2,1.088562012E-1,1.412963867E-2
3.751035728E0,-3.118896484E-2,1.013946533E-1,9.872436523E-3
3.756071128E0,-2.053833008E-2,9.713745117E-2,7.736206055E-3
3.761106529E0,-1.628112793E-2,9.501647949E-2,7.736206055E-3
3.766172447E0,-1.733398438E-2,9.074401855E-2,7.736206055E-3
3.771207847E0,-1.628112793E-2,8.862304688E-2,6.668090820E-3
3.776243247E0,-1.414489746E-2,8.862304688E-2,4.531860352E-3
3.781278648E0,-1.628112793E-2,9.181213379E-2,3.479003906E-3
3.786344566E0,-1.414489746E-2,9.820556641E-2,3.479003906E-3
3.791379966E0,-1.521301270E-2,1.013946533E-1,6.668090820E-3
3.796415367E0,-1.521301270E-2,1.067352295E-1,6.668090820E-3
3.801450767E0,-1.733398438E-2,1.109924316E-1,5.599975586E-3
3.806516685E0,-2.053833008E-2,1.163177490E-1,6.668090820E-3
3.811552085E0,-2.479553223E-2,1.205749512E-1,1.092529297E-2
3.816587486E0,-2.693176270E-2,1.280364990E-1,9.872436523E-3
3.821622886E0,-3.012084961E-2,1.322937012E-1,1.199340820E-2
3.826688804E0,-3.544616699E-2,1.354827881E-1,1.306152344E-2
3.831724205E0,-3.865051270E-2,1.376190186E-1,1.306152344E-2
3.836759605E0,-3.758239746E-2,1.365509033E-1,1.625061035E-2
3.841795005E0,-3.865051270E-2,1.322937012E-1,1.838684082E-2
3.846860923E0,-3.544616699E-2,1.291046143E-1,1.625061035E-2
3.851896324E0,-3.225708008E-2,1.237792969E-1,1.838684082E-2
3.856931724E0,-3.012084961E-2,1.195068359E-1,2.157592773E-2
3.861967124E0,-2.905273438E-2,1.163177490E-1,2.264404297E-2
3.867033042E0,-2.693176270E-2,1.163177490E-1,2.478027344E-2
3.872068443E0,-2.586364746E-2,1.120605469E-1,2.691650391E-2
3.877103843E0,-1.947021484E-2,1.141815186E-1,2.264404297E-2
3.882139244E0,-1.628112793E-2,1.109924316E-1,2.157592773E-2
3.887205162E0,-2.053833008E-2,9.820556641E-2,2.478027344E-2
3.892240562E0,-2.160644531E-2,9.074401855E-2,2.264404297E-2
3.897275962E0,-1.840209961E-2,8.648681641E-2,2.478027344E-2
3.902311363E0,-1.628112793E-2,8.116149902E-2,2.157592773E-2
3.907377281E0,-1.521301270E-2,7.369995117E-2,2.052307129E-2
3.912412681E0,-1.414489746E-2,6.411743164E-2,1.731872559E-2
3.917448081E0,-9.887695312E-3,5.772399902E-2,1.731872559E-2
3.922483482E0,-9.887695312E-3,4.920959473E-2,1.945495605E-2
3.927549400E0,-5.630493164E-3,4.707336426E-2,1.838684082E-2
3.932584800E0,-3.494262695E-3,3.749084473E-2,1.519775391E-2
3.937620201E0,-2.899169922E-4,2.789306641E-2,1.625061035E-2
3.942655601E0,5.035400391E-3,1.831054688E-2,1.412963867E-2
3.947721519E0,1.036071777E-2,7.659912109E-3,8.804321289E-3
3.952756919E0,7.156372070E-3,-7.263183594E-3,7.736206055E-3
3.957792320E0,7.156372070E-3,-2.003479004E-2,7.736206055E-3
3.962827720E0,2.899169922E-3,-2.749633789E-2,7.736206055E-3
3.967893638E0,-2.899169922E-4,-3.707885742E-2,4.531860352E-3
3.972929039E0,-2.426147461E-3,-4.879760742E-2,5.599975586E-3
3.977964439E0,-4.562377930E-3,-5.625915527E-2,4.531860352E-3
3.982999839E0,-4.562377930E-3,-5.732727051E-2,7.736206055E-3
3.988065757E0,-6.683349609E-3,-6.051635742E-2,6.668090820E-3
3.993101158E0,-1.200866699E-2,-6.584167480E-2,9.872436523E-3
3.998136558E0,-9.887695312E-3,-6.797790527E-2,1.092529297E-2
4.003171958E0,-5.630493164E-3,-7.543945312E-2,1.519775391E-2
4.008237876E0,-3.494262695E-3,-8.395385742E-2,1.306152344E-2
4.013273277E0,-3.494262695E-3,-8.927917480E-2,1.199340820E-2
4.018308677E0,-1.358032227E-3,-9.353637695E-2,1.199340820E-2
4.023344078E0,3.967285156E-3,-9.567260742E-2,1.306152344E-2
4.028409996E0,6.088256836E-3,-9.992980957E-2,1.199340820E-2
4.033445396E0,5.035400391E-3,-1.031341553E-1,9.872436523E-3
4.038480796E0,7.156372070E-3,-1.073913574E-1,1.306152344E-2
4.043516197E0,9.292602539E-3,-1.073913574E-1,1.519775391E-2
4.048582115E0,8.224487305E-3,-1.073913574E-1,1.199340820E-2
4.053617515E0,1.142883301E-2,-1.084594727E-1,1.199340820E-2
4.058652915E0,1.354980469E-2,-1.095275879E-1,1.092529297E-2
4.063688316E0,1.142883301E-2,-1.159057617E-1,1.092529297E-2
4.068754234E0,1.142883301E-2,-1.212463379E-1,9.872436523E-3
4.073789634E0,1.461791992E-2,-1.276245117E-1,9.872436523E-3
4.078825035E0,1.354980469E-2,-1.350860596E-1,8.804321289E-3
4.083860435E0,1.461791992E-2,-1.457366943E-1,7.736206055E-3
4.088926353E0,1.780700684E-2,-1.617126465E-1,5.599975586E-3
4.093961753E0,2.313232422E-2,-1.744995117E-1,3.479003906E-3
4.098997154E0,2.740478516E-2,-1.798248291E-1,1.342773438E-3
4.104032554E0,2.847290039E-2,-1.830291748E-1,1.342773438E-3
4.109098472E0,3.379821777E-2,-1.883544922E-1,-7.934570312E-4
4.114133872E0,4.017639160E-2,-1.936798096E-1,1.342773438E-3
4.119169273E0,4.444885254E-2,-2.021942139E-1,2.746582031E-4
4.124204673E0,4.763793945E-2,-2.117919922E-1,2.746582031E-4
4.129270591E0,4.870605469E-2,-2.245635986E-1,1.342773438E-3
4.134305992E0,5.403137207E-2,-2.330932617E-1,1.342773438E-3
4.139341392E0,5.722045898E-2,-2.426757812E-1,5.599975586E-3
4.144376792E0,5.722045898E-2,-2.501373291E-1,9.872436523E-3
4.149442710E0,5.616760254E-2,-2.543945312E-1,1.199340820E-2
4.154478111E0,5.828857422E-2,-2.565307617E-1,1.412963867E-2
4.159513511E0,5.616760254E-2,-2.533264160E-1,1.838684082E-2
4.164548912E0,5.935668945E-2,-2.458801270E-1,1.731872559E-2
4.169614830E0,6.256103516E-2,-2.405548096E-1,2.052307129E-2
4.174650230E0,6.256103516E-2,-2.416076660E-1,2.478027344E-2
4.179685630E0,6.468200684E-2,-2.405548096E-1,2.478027344E-2
4.184721031E0,6.042480469E-2,-2.288360596E-1,2.584838867E-2
4.189786949E0,5.084228516E-2,-2.053985596E-1,3.010559082E-2
4.194822349E0,3.805541992E-2,-1.777038574E-1,3.543090820E-2
4.199857749E0,2.847290039E-2,-1.499938965E-1,3.649902344E-2
4.204893150E0,2.101135254E-2,-1.169738770E-1,3.649902344E-2
4.209959068E0,1.568603516E-2,-8.076477051E-2,3.968811035E-2
4.214994468E0,1.248168945E-2,-5.093383789E-2,4.182434082E-2
4.220029869E0,1.248168945E-2,-2.642822266E-2,3.968811035E-2
4.225065269E0,1.248168945E-2,-1.045227051E-2,3.861999512E-2
4.230131187E0,1.036071777E-2,2.334594727E-3,3.436279297E-2
4.235166587E0,5.035400391E-3,1.084899902E-2,3.117370605E-2
4.240201988E0,7.629394531E-4,1.512145996E-2,2.691650391E-2
4.245237388E0,-2.426147461E-3,1.405334473E-2,2.264404297E-2
4.250303306E0,-3.494262695E-3,1.084899902E-2,1.625061035E-2
4.255338706E0,-2.426147461E-3,1.084899902E-2,1.306152344E-2
4.260374107E0,-1.358032227E-3,1.405334473E-2,1.199340820E-2
4.265440025E0,-2.426147461E-3,1.831054688E-2,1.199340820E-2
4.270475425E0,-2.899169922E-4,2.363586426E-2,1.625061035E-2
4.275510826E0,7.156372070E-3,2.470397949E-2,1.838684082E-2
4.280546226E0,1.248168945E-2,2.470397949E-2,1.838684082E-2
4.285581626E0,1.354980469E-2,2.363586426E-2,2.157592773E-2
4.290647544E0,1.354980469E-2,3.002929688E-2,1.945495605E-2
4.295682945E0,8.224487305E-3,3.535461426E-2,2.052307129E-2
4.300718345E0,-2.426147461E-3,4.600524902E-2,2.264404297E-2
4.305753746E0,-1.414489746E-2,5.772399902E-2,2.584838867E-2
4.310819664E0,-2.372741699E-2,6.730651855E-2,3.010559082E-2
4.315855064E0,-3.118896484E-2,7.051086426E-2,3.756713867E-2
4.320890464E0,-3.437805176E-2,7.476806641E-2,3.649902344E-2
4.325925865E0,-3.437805176E-2,7.690429688E-2,4.289245605E-2
4.330991783E0,-3.651428223E-2,8.116149902E-2,4.608154297E-2
4.336027183E0,-4.183959961E-2,8.222961426E-2,4.714965820E-2
4.341062583E0,-4.290771484E-2,8.329772949E-2,5.033874512E-2
4.346097984E0,-4.609680176E-2,7.902526855E-2,4.396057129E-2
4.351163902E0,-4.716491699E-2,7.157897949E-2,4.396057129E-2
4.356199302E0,-4.930114746E-2,6.730651855E-2,3.968811035E-2
4.361234703E0,-5.249023438E-2,6.411743164E-2,3.543090820E-2
4.366300621E0,-5.676269531E-2,5.879211426E-2,3.329467773E-2
4.371336021E0,-5.569458008E-2,5.986022949E-2,2.796936035E-2
4.376371421E0,-5.249023438E-2,6.304931641E-2,2.264404297E-2
4.381406822E0,-5.249023438E-2,6.730651855E-2,1.945495605E-2
4.386472740E0,-5.142211914E-2,7.051086426E-2,1.625061035E-2
4.391508140E0,-4.609680176E-2,7.051086426E-2,1.199340820E-2
4.396543540E0,-3.971862793E-2,7.051086426E-2,8.804321289E-3
4.401578941E0,-3.225708008E-2,7.476806641E-2,6.668090820E-3
4.406644859E0,-2.693176270E-2,7.369995117E-2,2.410888672E-3
4.411680259E0,-1.840209961E-2,7.369995117E-2,-7.934570312E-4
4.416715660E0,-7.751464844E-3,6.730651855E-2,-5.050659180E-3
4.421751060E0,3.967285156E-3,5.879211426E-2,-1.037597656E-2
4.426816978E0,1.675415039E-2,5.558776855E-2,-1.676940918E-2
4.431852378E0,2.633666992E-2,4.388427734E-2,-2.102661133E-2
4.436887779E0,3.591918945E-2,3.321838379E-2,-2.316284180E-2
4.441923179E0,3.912353516E-2,2.577209473E-2,-2.742004395E-2
4.446989097E0,4.444885254E-2,1.405334473E-2,-3.060913086E-2
4.452024497E0,5.403137207E-2,1.983642578E-4,-3.807067871E-2
4.457059898E0,5.828857422E-2,-1.045227051E-2,-4.872131348E-2
4.462095298E0,5.828857422E-2,-1.045227051E-2,-5.831909180E-2
4.467161216E0,5.403137207E-2,-2.990722656E-3,-6.790161133E-2
4.472196617E0,4.551696777E-2,1.266479492E-3,-7.109069824E-2
4.477232017E0,3.805541992E-2,1.191711426E-2,-7.641601562E-2
4.482267417E0,3.912353516E-2,2.149963379E-2,-8.174133301E-2
4.487333335E0,4.231262207E-2,2.577209473E-2,-8.387756348E-2
4.492368736E0,4.444885254E-2,3.321838379E-2,-8.494567871E-2
4.497404136E0,4.444885254E-2,3.854370117E-2,-8.813476562E-2
4.502439537E0,4.551696777E-2,4.388427734E-2,-8.706665039E-2
4.507505455E0,4.551696777E-2,5.026245117E-2,-8.387756348E-2
4.512540855E0,4.656982422E-2,4.814147949E-2,-8.280944824E-2
4.517576255E0,4.338073730E-2,2.896118164E-2,-7.855224609E-2
4.522611656E0,4.017639160E-2,8.728027344E-3,-7.748413086E-2
4.527677574E0,3.485107422E-2,1.405334473E-2,-8.174133301E-2
4.532712974E0,2.633666992E-2,2.684020996E-2,-8.601379395E-2
4.537748374E0,1.887512207E-2,3.749084473E-2,-8.813476562E-2
4.542783775E0,1.568603516E-2,4.707336426E-2,-8.494567871E-2
4.547849693E0,1.675415039E-2,6.304931641E-2,-8.068847656E-2
4.552885093E0,1.887512207E-2,8.009338379E-2,-8.280944824E-2
4.557920494E0,1.887512207E-2,9.713745117E-2,-8.280944824E-2
4.562955894E0,2.101135254E-2,1.109924316E-1,-8.494567871E-2
4.568021812E0,2.952575684E-2,1.173858643E-1,-8.601379395E-2
4.573057212E0,3.591918945E-2,1.227111816E-1,-8.920288086E-2
4.578092613E0,3.698730469E-2,1.237792969E-1,-9.027099609E-2
4.583128013E0,3.805541992E-2,1.216430664E-1,-9.452819824E-2
4.588193931E0,3.485107422E-2,1.141815186E-1,-9.773254395E-2
4.593229331E0,3.273010254E-2,1.067352295E-1,-9.878540039E-2
4.598264732E0,3.166198730E-2,1.024627686E-1,-9.878540039E-2
4.603330650E0,2.740478516E-2,9.713745117E-2,-1.009216309E-1
4.608366050E0,2.101135254E-2,9.288024902E-2,-9.878540039E-2
4.613401451E0,1.675415039E-2,9.713745117E-2,-9.878540039E-2
4.618436851E0,1.461791992E-2,9.927368164E-2,-9.773254395E-2
4.623472251E0,1.354980469E-2,1.003417969E-1,-9.878540039E-2
4.628538169E0,1.248168945E-2,1.035308838E-1,-9.878540039E-2
4.633573570E0,8.224487305E-3,1.109924316E-1,-1.019897461E-1
4.638608970E0,6.088256836E-3,1.184387207E-1,-1.030578613E-1
4.643644371E0,3.967285156E-3,1.259002686E-1,-9.878540039E-2
4.648710289E0,3.967285156E-3,1.354827881E-1,-1.019897461E-1
4.653745689E0,2.899169922E-3,1.493377686E-1,-1.041259766E-1
4.658781089E0,-2.899169922E-4,1.663818359E-1,-1.030578613E-1
4.663816490E0,-2.899169922E-4,1.812896729E-1,-1.041259766E-1
4.668882408E0,-2.899169922E-4,1.972808838E-1,-1.019897461E-1
4.673917808E0,3.967285156E-3,2.111206055E-1,-1.019897461E-1
4.678953208E0,2.899169922E-3,2.239074707E-1,-1.041259766E-1
4.683988609E0,-1.358032227E-3,2.324218750E-1,-1.041259766E-1
4.689054527E0,-4.562377930E-3,2.452087402E-1,-1.051788330E-1
4.694089927E0,-5.630493164E-3,2.579956055E-1,-1.073150635E-1
4.699125328E0,-1.095581055E-2,2.643890381E-1,-1.094512939E-1
4.704160728E0,-1.414489746E-2,2.654571533E-1,-1.126403809E-1
4.709226646E0,-1.521301270E-2,2.697143555E-1,-1.126403809E-1
4.714262046E0,-1.947021484E-2,2.750396729E-1,-1.158294678E-1
4.719297447E0,-2.160644531E-2,2.782287598E-1,-1.179656982E-1
4.724332847E0,-2.372741699E-2,2.792968750E-1,-1.168975830E-1
4.729398765E0,-2.799987793E-2,2.835540771E-1,-1.201019287E-1
4.734434165E0,-3.332519531E-2,2.942199707E-1,-1.158294678E-1
4.739469566E0,-4.183959961E-2,3.048706055E-1,-1.115722656E-1
4.744504966E0,-4.823303223E-2,3.133850098E-1,-1.083831787E-1
4.749570884E0,-5.142211914E-2,3.165893555E-1,-1.019897461E-1
4.754606285E0,-5.036926270E-2,3.187103271E-1,-9.773254395E-2
4.759641685E0,-4.930114746E-2,3.229827881E-1,-9.027099609E-2
4.764677085E0,-4.716491699E-2,3.261718750E-1,-8.387756348E-2
4.769743003E0,-4.609680176E-2,3.304290771E-1,-8.174133301E-2
4.774778404E0,-4.930114746E-2,3.229827881E-1,-7.641601562E-2
4.779813804E0,-4.930114746E-2,3.219146729E-1,-7.322692871E-2
4.784849205E0,-4.823303223E-2,3.176574707E-1,-7.215881348E-2
4.789915122E0,-4.930114746E-2,3.069915771E-1,-7.109069824E-2
4.794950523E0,-4.823303223E-2,2.931518555E-1,-7.429504395E-2
4.799985923E0,-4.823303223E-2,2.792968750E-1,-8.068847656E-2
4.805021324E0,-5.036926270E-2,2.718505859E-1,-8.813476562E-2
4.810087242E0,-5.569458008E-2,2.675781250E-1,-9.133911133E-2
4.815122642E0,-6.208801270E-2,2.665100098E-1,-9.559631348E-2
4.820158042E0,-7.060241699E-2,2.601318359E-1,-9.878540039E-2
4.825193443E0,-7.592773438E-2,2.548065186E-1,-9.878540039E-2
4.830259361E0,-7.913208008E-2,2.548065186E-1,-9.559631348E-2
4.835294761E0,-8.018493652E-2,2.558593750E-1,-9.452819824E-2
4.840330162E0,-8.018493652E-2,2.537384033E-1,-9.240722656E-2
4.845365562E0,-8.125305176E-2,2.526702881E-1,-9.133911133E-2
4.850431480E0,-8.445739746E-2,2.537384033E-1,-8.813476562E-2
4.855466880E0,-8.232116699E-2,2.548065186E-1,-8.813476562E-2
4.860502281E0,-7.592773438E-2,2.526702881E-1,-8.706665039E-2
4.865537681E0,-6.953430176E-2,2.548065186E-1,-8.920288086E-2
4.870603599E0,-5.888366699E-2,2.537384033E-1,-9.133911133E-2
4.875638999E0,-4.823303223E-2,2.569274902E-1,-9.346008301E-2
4.880674400E0,-3.651428223E-2,2.611846924E-1,-9.027099609E-2
4.885709800E0,-3.332519531E-2,2.697143555E-1,-9.240722656E-2
4.890775718E0,-4.183959961E-2,2.867584229E-1,-8.601379395E-2
4.895811119E0,-4.823303223E-2,3.091278076E-1,-7.962036133E-2
4.900846519E0,-5.249023438E-2,3.304290771E-1,-7.215881348E-2
4.905881919E0,-5.142211914E-2,3.506774902E-1,-5.937194824E-2
4.910947837E0,-4.716491699E-2,3.655853271E-1,-4.660034180E-2
4.915983238E0,-4.077148438E-2,3.773040771E-1,-3.593444824E-2
4.921018638E0,-3.332519531E-2,3.890228271E-1,-2.316284180E-2
4.926054039E0,-3.012084961E-2,4.007415771E-1,-8.239746094E-3
4.931119956E0,-2.799987793E-2,4.103240967E-1,5.599975586E-3
4.936155357E0,-3.012084961E-2,4.231109619E-1,1.838684082E-2
4.941190757E0,-3.865051270E-2,4.476165771E-1,2.691650391E-2
4.946226158E0,-5.781555176E-2,4.657287598E-1,3.543090820E-2
4.951292076E0,-8.445739746E-2,4.710540771E-1,3.649902344E-2
4.956327476E0,-1.100158691E-1,4.689178467E-1,4.182434082E-2
4.961362876E0,-1.291961670E-1,4.454803467E-1,3.436279297E-2
4.966398277E0,-1.441040039E-1,3.879547119E-1,1.945495605E-2
4.971464195E0,-1.611480713E-1,3.496093750E-1,2.410888672E-3
4.976499595E0,-1.835174561E-1,3.208465576E-1,-1.463317871E-2
4.981534996E0,-2.069549561E-1,2.825012207E-1,-3.274536133E-2
4.986600914E0,-2.101593018E-1,2.132568359E-1,-4.660034180E-2
4.991636314E0,-2.016296387E-1,1.525268555E-1,-6.044006348E-2
4.996671714E0,-1.888427734E-1,1.227111816E-1,-7.429504395E-2
5.001707115E0,-1.590270996E-1,6.092834473E-2,-9.452819824E-2
5.006742515E0,-1.164093018E-1,-3.495788574E-2,-1.201019287E-1
5.011808433E0,-7.167053223E-2,-1.233673096E-1,-1.445922852E-1
5.016843833E0,-4.183959961E-2,-1.968688965E-1,-1.627044678E-1
5.021879234E0,-2.586364746E-2,-2.575988770E-1,-1.776275635E-1
5.026914634E0,-1.521301270E-2,-3.225708008E-1,-1.872100830E-1
5.031980552E0,-1.733398438E-2,-3.950042725E-1,-1.882781982E-1
5.037015953E0,-2.267456055E-2,-4.685211182E-1,-1.978607178E-1
5.042051353E0,-1.521301270E-2,-5.377502441E-1,-2.170410156E-1
5.047086753E0,-1.095581055E-2,-6.069946289E-1,-2.436676025E-1
5.052152671E0,-2.160644531E-2,-6.783752441E-1,-2.671051025E-1
5.057188072E0,-5.462646484E-2,-7.263031006E-1,-2.809448242E-1
5.062223472E0,-1.036224365E-1,-7.188568115E-1,-2.958679199E-1
5.067258872E0,-1.675415039E-1,-6.698455811E-1,-3.097076416E-1
5.072324790E0,-2.282562256E-1,-6.133880615E-1,-3.235626221E-1
5.077360191E0,-2.708740234E-1,-5.686492920E-1,-3.416748047E-1
5.082395591E0,-2.868499756E-1,-5.313720703E-1,-3.597869873E-1
5.087430992E0,-2.836608887E-1,-4.738464355E-1,-3.672332764E-1
5.092496910E0,-2.623443604E-1,-4.205780029E-1,-3.746948242E-1
5.097532310E0,-2.346496582E-1,-3.907470703E-1,-3.842773438E-1
5.102567710E0,-2.016296387E-1,-3.960723877E-1,-3.938751221E-1
5.107633628E0,-1.611480713E-1,-4.109954834E-1,-4.055938721E-1
5.112669029E0,-1.249389648E-1,-4.365539551E-1,-4.226379395E-1
5.117704429E0,-1.100158691E-1,-4.514770508E-1,-4.354095459E-1
5.122739830E0,-1.089477539E-1,-4.461517334E-1,-4.514007568E-1
5.127805747E0,-1.302642822E-1,-4.333648682E-1,-4.599151611E-1
5.132841148E0,-1.707458496E-1,-4.099273682E-1,-4.524536133E-1
5.137876548E0,-2.112121582E-1,-3.438720703E-1,-4.098510742E-1
5.142911949E0,-2.389221191E-1,-2.703704834E-1,-3.416748047E-1
5.147977867E0,-2.580871582E-1,-2.352294922E-1,-2.873382568E-1
5.153013267E0,-2.676849365E-1,-2.341613770E-1,-2.543182373E-1
5.158048667E0,-2.804565430E-1,-2.916870117E-1,-2.255554199E-1
5.163084068E0,-2.889862061E-1,-3.534698486E-1,-1.893463135E-1
5.168149986E0,-2.751312256E-1,-3.534698486E-1,-1.499176025E-1
5.173185386E0,-2.453002930E-1,-3.364257812E-1,-1.222229004E-1
5.178220787E0,-2.229309082E-1,-3.470764160E-1,-1.009216309E-1
5.183256187E0,-2.176055908E-1,-3.758392334E-1,-9.133911133E-2
5.188322105E0,-2.261352539E-1,-3.907470703E-1,-9.452819824E-2
5.193357505E0,-2.453002930E-1,-4.013977051E-1,-9.878540039E-2
5.198392906E0,-2.623443604E-1,-4.163208008E-1,-1.051788330E-1
5.203428306E0,-2.634124756E-1,-3.779602051E-1,-1.137084961E-1
5.208494224E0,-2.548980713E-1,-3.364257812E-1,-1.126403809E-1
5.213529624E0,-2.431793213E-1,-3.204498291E-1,-1.083831787E-1
5.218565025E0,-2.463684082E-1,-3.215026855E-1,-9.985351562E-2
5.223600425E0,-2.655487061E-1,-3.108520508E-1,-8.706665039E-2
5.228666343E0,-2.740631104E-1,-2.991333008E-1,-7.536315918E-2
5.233701744E0,-2.666168213E-1,-2.586517334E-1,-6.896972656E-2
5.238737144E0,-2.666168213E-1,-2.501373291E-1,-7.109069824E-2
5.243772544E0,-2.676849365E-1,-2.661132812E-1,-7.215881348E-2
5.248838462E0,-2.719421387E-1,-2.735748291E-1,-7.748413086E-2
5.253873863E0,-2.815246582E-1,-2.789001465E-1,-7.855224609E-2
5.258909263E0,-2.964477539E-1,-2.970123291E-1,-7.215881348E-2
5.263944664E0,-3.166809082E-1,-3.321685791E-1,-6.469726562E-2
5.269010581E0,-2.996368408E-1,-2.927398682E-1,-6.576538086E-2
5.274045982E0,-2.772674561E-1,-2.235107422E-1,-7.536315918E-2
5.279081382E0,-2.793884277E-1,-2.277679443E-1,-1.083831787E-1
5.284116783E0,-2.932434082E-1,-2.629241943E-1,-1.531219482E-1
5.289182701E0,-2.868499756E-1,-2.543945312E-1,-1.509857178E-1
5.294218101E0,-2.708740234E-1,-2.139129639E-1,-9.773254395E-2
5.299253501E0,-2.495727539E-1,-1.798248291E-1,-5.297851562E-2
5.304288902E0,-2.570190430E-1,-1.915435791E-1,-1.676940918E-2
5.309354820E0,-2.804565430E-1,-2.661132812E-1,1.945495605E-2
5.314390220E0,-2.421112061E-1,-2.533264160E-1,4.182434082E-2
5.319425621E0,-2.005615234E-1,-2.139129639E-1,5.140686035E-2
5.324461021E0,-2.016296387E-1,-2.437438965E-1,5.354309082E-2
5.329526939E0,-2.272033691E-1,-2.884826660E-1,5.780029297E-2
5.334562339E0,-2.570190430E-1,-3.183135986E-1,6.738281250E-2
5.339597740E0,-2.751312256E-1,-3.151245117E-1,7.698059082E-2
5.344633140E0,-2.804565430E-1,-2.810211182E-1,8.763122559E-2
5.349699058E0,-2.900543213E-1,-2.458801270E-1,1.078643799E-1
5.354734458E0,-3.220062256E-1,-2.703704834E-1,1.376953125E-1
5.359769859E0,-3.124237061E-1,-3.406829834E-1,1.408996582E-1
5.364805259E0,-2.527618408E-1,-3.087310791E-1,1.430206299E-1
5.369871177E0,-2.250671387E-1,-2.863616943E-1,1.526031494E-1
5.374906578E0,-2.335968018E-1,-3.151245117E-1,1.664581299E-1
5.379941978E0,-2.516937256E-1,-3.651885986E-1,1.781768799E-1
5.384977378E0,-2.612915039E-1,-3.758392334E-1,1.888275146E-1
5.390043296E0,-2.698059082E-1,-3.918151855E-1,1.930847168E-1
5.395078697E0,-2.698059082E-1,-3.928833008E-1,1.984100342E-1
5.400114097E0,-2.676849365E-1,-3.928833008E-1,2.122650146E-1
5.405149497E0,-2.751312256E-1,-4.184417725E-1,2.303771973E-1
5.410215415E0,-2.879180908E-1,-4.504089355E-1,2.463531494E-1
5.415250816E0,-3.017730713E-1,-4.738464355E-1,2.623291016E-1
5.420286216E0,-3.134918213E-1,-4.791717529E-1,2.751159668E-1
5.425321617E0,-3.188171387E-1,-4.695739746E-1,2.868347168E-1
5.430387535E0,-3.241424561E-1,-4.525299072E-1,2.953491211E-1
5.435422935E0,-3.294677734E-1,-4.376220703E-1,3.038787842E-1
5.440458335E0,-3.337249756E-1,-4.184417725E-1,3.177337646E-1
5.445493736E0,-3.390502930E-1,-4.003448486E-1,3.337097168E-1
5.450559654E0,-3.411865234E-1,-3.971405029E-1,3.464813232E-1
5.455595054E0,-3.411865234E-1,-3.779602051E-1,3.656616211E-1
5.460630455E0,-3.433074951E-1,-3.555908203E-1,3.859100342E-1
5.465665855E0,-3.411865234E-1,-3.225708008E-1,3.997497559E-1
5.470731773E0,-3.422393799E-1,-2.927398682E-1,4.104003906E-1
5.475767173E0,-3.443756104E-1,-2.682495117E-1,4.221191406E-1
5.480802574E0,-3.465118408E-1,-2.437438965E-1,4.349060059E-1
5.485837974E0,-3.518371582E-1,-2.213745117E-1,4.519500732E-1
5.490903892E0,-3.560943604E-1,-2.064666748E-1,4.668579102E-1
5.495939292E0,-3.592834473E-1,-2.000732422E-1,4.796447754E-1
5.500974693E0,-3.603515625E-1,-2.032623291E-1,4.977569580E-1
5.506010093E0,-3.688812256E-1,-2.117919922E-1,5.158691406E-1
5.511076011E0,-3.773956299E-1,-2.181854248E-1,5.361022949E-1
5.516111412E0,-3.827209473E-1,-2.235107422E-1,5.542144775E-1
5.521146812E0,-3.901824951E-1,-2.373504639E-1,5.755157471E-1
5.526182212E0,-3.976440430E-1,-2.565307617E-1,5.957641602E-1
5.531248130E0,-4.050903320E-1,-2.842254639E-1,6.085510254E-1
5.536283531E0,-4.082946777E-1,-3.108520508E-1,6.255950928E-1
5.541318931E0,-4.157562256E-1,-3.342895508E-1,6.383666992E-1
5.546354331E0,-4.317321777E-1,-4.152526855E-1,6.479644775E-1
5.551420249E0,-4.136199951E-1,-4.109954834E-1,6.479644775E-1
5.556455650E0,-3.379821777E-1,-2.575988770E-1,6.192016602E-1
5.561491050E0,-3.113555908E-1,-1.606597900E-1,5.883026123E-1
5.566526451E0,-3.049621582E-1,-5.200195312E-2,5.606079102E-1
5.571592369E0,-2.825927734E-1,9.927368164E-2,5.297088623E-1
5.576627769E0,-2.548980713E-1,2.505340576E-1,4.934997559E-1
5.581663169E0,-2.346496582E-1,3.826293945E-1,4.412994385E-1
5.586698570E0,-2.335968018E-1,4.561309814E-1,3.848419189E-1
5.591764488E0,-3.433074951E-1,3.048706055E-1,3.731231689E-1
5.596799888E0,-4.146881104E-1,2.036743164E-1,3.827056885E-1
5.601835289E0,-3.347930908E-1,2.878265381E-1,3.656616211E-1
5.606870689E0,-2.815246582E-1,2.835540771E-1,3.358306885E-1
5.611936607E0,-2.985687256E-1,2.047271729E-1,3.017425537E-1
5.616972007E0,-3.369140625E-1,1.823577881E-1,2.729797363E-1
5.622007408E0,-3.635559082E-1,2.132568359E-1,2.665863037E-1
5.627042808E0,-3.667449951E-1,2.707824707E-1,2.921600342E-1
5.632108726E0,-3.443756104E-1,3.581237793E-1,3.230590820E-1
5.637144126E0,-3.124237061E-1,4.358978271E-1,3.582000732E-1
5.642179527E0,-2.698059082E-1,5.125885010E-1,3.912353516E-1
5.647214927E0,-2.165527344E-1,5.850372314E-1,4.189300537E-1
5.652280845E0,-1.558227539E-1,6.510772705E-1,4.306488037E-1
5.657316246E0,-8.445739746E-2,7.011413574E-1,4.104003906E-1
5.662382164E0,-8.819580078E-3,7.395019531E-1,3.635253906E-1
5.667417564E0,6.361389160E-2,7.767791748E-1,3.038787842E-1
5.672452964E0,1.339263916E-1,8.076782227E-1,2.378387451E-1
5.677488365E0,2.106323242E-1,8.311004639E-1,1.675262451E-1
5.682523765E0,2.990417480E-1,8.438873291E-1,9.721374512E-2
5.687589683E0,4.023742676E-1,8.311004639E-1,2.371215820E-2
5.692625083E0,5.216827393E-1,7.884979248E-1,-5.404663086E-2
5.697660484E0,6.580352783E-1,7.341613770E-1,-1.254272461E-1
5.702695884E0,8.050384521E-1,6.755828857E-1,-1.967926025E-1
5.707731285E0,9.488525391E-1,6.191253662E-1,-2.671051025E-1
5.712797203E0,1.090530396E0,5.775756836E-1,-3.256988525E-1
5.717832603E0,1.217300415E0,5.583953857E-1,-3.885498047E-1
5.722868003E0,1.335540771E0,5.466766357E-1,-4.556579590E-1
5.727933921E0,1.450592041E0,5.360260010E-1,-5.238342285E-1
5.732969322E0,1.556060791E0,5.392303467E-1,-5.951995850E-1
5.738004722E0,1.655120850E0,5.498809814E-1,-6.697692871E-1
5.743040122E0,1.757385254E0,5.583953857E-1,-7.454071045E-1
5.748106040E0,1.858596802E0,5.743713379E-1,-8.221130371E-1
5.753141441E0,1.957656860E0,5.924835205E-1,-8.924102783E-1
5.758176841E0,2.053527832E0,6.138000488E-1,-9.659118652E-1
5.763212242E0,2.141952515E0,6.276397705E-1,-1.037292480E0
5.768278160E0,2.221847534E0,6.276397705E-1,-1.108657837E0
5.773313560E0,2.290023804E0,6.095275879E-1,-1.181106567E0
5.778348960E0,2.343292236E0,5.978088379E-1,-1.249282837E0
5.783384361E0,2.381637573E0,5.967559814E-1,-1.317459106E0
5.788450279E0,2.407196045E0,5.978088379E-1,-1.382431030E0
5.793485679E0,2.408264160E0,5.967559814E-1,-1.453811646E0
5.798521080E0,2.390151978E0,6.084747314E-1,-1.520919800E0
5.803556480E0,2.354995728E0,6.138000488E-1,-1.573120117E0
5.808622398E0,2.313461304E0,5.903625488E-1,-1.617858887E0
5.813657798E0,2.274047852E0,5.605316162E-1,-1.654083252E0
5.818693199E0,2.239959717E0,5.296325684E-1,-1.671127319E0
5.823728599E0,2.202667236E0,4.848937988E-1,-1.665802002E0
5.828794517E0,2.166458130E0,4.231109619E-1,-1.630645752E0
5.833829917E0,2.139816284E0,3.432159424E-1,-1.580581665E0
5.838865318E0,2.118515015E0,2.601318359E-1,-1.520919800E0
5.843900718E0,2.085494995E0,1.940765381E-1,-1.464462280E0
5.848966636E0,2.046081543E0,1.504058838E-1,-1.433563232E0
5.854002037E0,1.988555908E0,1.269683838E-1,-1.432510376E0
5.859037437E0,1.927825928E0,9.820556641E-2,-1.439956665E0
5.864072837E0,1.880966187E0,9.713745117E-2,-1.425048828E0
5.869138755E0,1.855392456E0,1.535949707E-1,-1.390960693E0
5.874174156E0,1.837280273E0,2.196502686E-1,-1.380310059E0
5.879209556E0,1.823440552E0,2.803649902E-1,-1.368591309E0
5.884244956E0,1.824508667E0,3.304290771E-1,-1.352615356E0
5.889310874E0,1.857528687E0,3.421478271E-1,-1.349411011E0
5.894346275E0,1.909729004E0,3.581237793E-1,-1.319580078E0
5.899381675E0,1.956588745E0,4.156494141E-1,-1.287628174E0
5.904417076E0,1.999206543E0,4.529418945E-1,-1.275909424E0
5.909482994E0,1.999206543E0,3.804931641E-1,-1.313186646E0
5.914518394E0,1.960861206E0,2.761077881E-1,-1.410125732E0
5.919553794E0,1.933151245E0,2.292327881E-1,-1.516662598E0
5.924589195E0,1.928894043E0,1.983337402E-1,-1.607208252E0
5.929655113E0,1.931030273E0,1.333618164E-1,-1.688171387E0
5.934690513E0,1.931030273E0,8.009338379E-2,-1.786178589E0
5.939725914E0,1.931030273E0,8.862304688E-2,-1.911865234E0
5.944761314E0,1.937423706E0,1.322937012E-1,-2.020523071E0
5.949827232E0,1.950195312E0,1.962127686E-1,-2.087646484E0
5.954862632E0,1.950195312E0,3.133850098E-1,-2.164337158E0
5.959898033E0,1.921447754E0,4.785003662E-1,-2.241043091E0
5.964933433E0,1.902267456E0,5.754394531E-1,-2.264480591E0
5.969999351E0,1.919311523E0,6.138000488E-1,-2.246368408E0
5.975034751E0,1.957656860E0,6.926269531E-1,-2.229324341E0
5.980070152E0,2.008789062E0,7.938232422E-1,-2.206954956E0
5.985105552E0,2.066314697E0,9.141998291E-1,-2.164337158E0
5.990171470E0,2.115325928E0,1.045227051E0,-2.110015869E0
5.995206871E0,2.147277832E0,1.174118042E0,-2.055679321E0
6.000242271E0,2.172836304E0,1.334976196E0,-2.020523071E0
6.005277671E0,2.193084717E0,1.524597168E0,-2.020523071E0
6.010343589E0,2.197341919E0,1.663085938E0,-2.039703369E0
6.015378990E0,2.185623169E0,1.755752563E0,-2.072723389E0
6.020414390E0,2.160064697E0,1.863342285E0,-2.088699341E0
6.025449790E0,2.130233765E0,1.976272583E0,-2.084442139E0
6.030515708E0,2.092941284E0,2.045501709E0,-2.087646484E0
6.035551109E0,2.063125610E0,2.139251709E0,-2.103622437E0
6.040586509E0,2.037551880E0,2.195709229E0,-2.092971802E0
6.045621910E0,2.024765015E0,2.203170776E0,-2.052490234E0
6.050687828E0,2.021575928E0,2.247909546E0,-1.994964600E0
6.055723228E0,2.023712158E0,2.336318970E0,-1.925720215E0
6.060758628E0,2.023712158E0,2.429000854E0,-1.847961426E0
6.065794029E0,2.002395630E0,2.513153076E0,-1.755279541E0
6.070859947E0,1.966186523E0,2.572814941E0,-1.654083252E0
6.075895347E0,1.912918091E0,2.613296509E0,-1.564590454E0
6.080930747E0,1.824508667E0,2.600509644E0,-1.468719482E0
6.085966148E0,1.714782715E0,2.546188354E0,-1.367523193E0
6.091032066E0,1.593338013E0,2.490783691E0,-1.272720337E0
6.096067466E0,1.452728271E0,2.417282104E0,-1.188552856E0
6.101102867E0,1.295059204E0,2.318222046E0,-1.103332520E0
6.106138267E0,1.134216309E0,2.222335815E0,-1.017044067E0
6.111204185E0,9.861450195E-1,2.133926392E0,-9.350280762E-1
6.116239585E0,8.412628174E-1,2.031661987E0,-8.647155762E-1
6.121274986E0,7.049102783E-1,1.924072266E0,-7.837524414E-1
6.126310386E0,5.823974609E-1,1.814346313E0,-7.049255371E-1
6.131376304E0,4.652252197E-1,1.701431274E0,-6.292877197E-1
6.136411705E0,3.512420654E-1,1.569335938E0,-5.557861328E-1
6.141447105E0,2.436523438E-1,1.417007446E0,-4.897460938E-1
6.146482505E0,1.371154785E-1,1.246566772E0,-4.290313721E-1
6.151548423E0,4.338073730E-2,1.059066772E0,-3.640441895E-1
6.156583824E0,-3.651428223E-2,8.758544922E-1,-2.937316895E-1
6.161619224E0,-1.185455322E-1,7.149963379E-1,-2.276916504E-1
6.166685142E0,-2.069549561E-1,5.754394531E-1,-1.563110352E-1
6.171720542E0,-3.028259277E-1,4.678497314E-1,-8.068847656E-2
6.176755943E0,-4.040374756E-1,3.741149902E-1,-1.463317871E-2
6.181791343E0,-5.052337646E-1,2.803649902E-1,4.821777344E-2
6.186826744E0,-6.074981689E-1,1.876831055E-1,9.828186035E-2
6.191892662E0,-6.980438232E-1,1.045989990E-1,1.366271973E-1
6.196928062E0,-7.821960449E-1,4.493713379E-2,1.643218994E-1
6.201963462E0,-8.514404297E-1,9.796142578E-3,1.920318604E-1
6.206998863E0,-9.078979492E-1,2.334594727E-3,2.271728516E-1
6.212064781E0,-9.643554688E-1,1.405334473E-2,2.655334473E-1
6.217100181E0,-1.037857056E0,2.684020996E-2,3.081359863E-1
6.222135581E0,-1.127349854E0,3.216552734E-2,3.550109863E-1
6.227170982E0,-1.224288940E0,2.149963379E-2,4.061431885E-1
6.232236900E0,-1.331878662E0,-1.045227051E-2,4.562072754E-1
6.237272300E0,-1.441604614E0,-7.437133789E-2,5.116119385E-1
6.242307701E0,-1.533218384E0,-1.862182617E-1,5.670013428E-1
6.247343101E0,-1.590744019E0,-3.481445312E-1,6.096038818E-1
6.252409019E0,-1.583282471E0,-5.633239746E-1,6.213226318E-1
6.257444419E0,-1.484207153E0,-8.136596680E-1,5.840454102E-1
6.262479820E0,-1.278610229E0,-1.100219727E0,4.924316406E-1
6.267545738E0,-9.835357666E-1,-1.418731689E0,3.528747559E-1
6.272581138E0,-6.618194580E-1,-1.664810181E0,1.803131104E-1
6.277616539E0,-3.880462646E-1,-1.665878296E0,2.796936035E-2
6.282651939E0,-1.920471191E-1,-1.463470459E0,-8.813476562E-2
6.287687339E0,-4.823303223E-2,-1.272796631E0,-1.115722656E-1
6.292753257E0,4.656982422E-2,-1.012863159E0,-5.511474609E-2
6.297788658E0,2.526855469E-2,-5.366973877E-1,-8.239746094E-3
6.302824058E0,-1.654052734E-1,-5.126953125E-3,1.838684082E-2
6.307889976E0,-4.690093994E-1,3.304290771E-1,1.185150146E-1
6.312925376E0,-7.619628906E-1,4.358978271E-1,3.283843994E-1
6.317960777E0,-9.366607666E-1,3.794403076E-1,5.861663818E-1
6.322996177E0,-9.707489014E-1,2.015380859E-1,8.855133057E-1
6.328062095E0,-9.835357666E-1,-3.282165527E-2,1.142242432E0
6.333097496E0,-1.102844238E0,-2.671813965E-1,1.277526855E0
6.338132896E0,-1.319091797E0,-4.535980225E-1,1.348907471E0
6.343168296E0,-1.518295288E0,-5.739746094E-1,1.359558105E0
6.348203697E0,-1.551315308E0,-6.890258789E-1,1.314819336E0
6.353269615E0,-1.313766479E0,-7.625274658E-1,1.232788086E0
6.358305015E0,-9.792785645E-1,-7.241821289E-1,1.130523682E0
6.363340415E0,-8.727416992E-1,-6.464080811E-1,1.078323364E0
6.368406333E0,-1.005905151E0,-5.952758789E-1,1.112411499E0
6.373441734E0,-1.132675171E0,-4.706420898E-1,1.139038086E0
6.378477134E0,-1.173156738E0,-3.076629639E-1,1.129455566E0
6.383512535E0,-1.179550171E0,-1.936798096E-1,1.132659912E0
6.388578453E0,-1.148651123E0,-1.627807617E-1,1.173126221E0
6.393613853E0,-1.084732056E0,-1.713104248E-1,1.238113403E0
6.398649253E0,-1.024017334E0,-1.499938965E-1,1.292449951E0
6.403684654E0,-9.813995361E-1,-8.927917480E-2,1.327590942E0
6.408750572E0,-9.590301514E-1,-8.697509766E-4,1.354232788E0
6.413785972E0,-9.473114014E-1,8.009338379E-2,1.373397827E0
6.418821372E0,-9.526367188E-1,1.322937012E-1,1.379791260E0
6.423856773E0,-9.824676514E-1,1.482696533E-1,1.375534058E0
6.428922691E0,-1.027206421E0,1.131134033E-1,1.364883423E0
6.433958091E0,-1.070892334E0,4.281616211E-2,1.343582153E0
6.438993492E0,-1.109237671E0,-3.921508789E-2,1.310546875E0
6.444028892E0,-1.146514893E0,-1.265716553E-1,1.261550903E0
6.449094810E0,-1.188064575E0,-2.192382812E-1,1.199768066E0
6.454130210E0,-1.231735229E0,-3.161773682E-1,1.126266479E0
6.459165611E0,-1.281814575E0,-3.928833008E-1,1.054885864E0
6.464201011E0,-1.329742432E0,-4.568023682E-1,9.813842773E-1
6.469266929E0,-1.372360229E0,-5.153808594E-1,9.142761230E-1
6.474302330E0,-1.420288086E0,-5.633239746E-1,8.610076904E-1
6.479337730E0,-1.471420288E0,-6.123199463E-1,8.237304688E-1
6.484373130E0,-1.516174316E0,-6.517333984E-1,8.077545166E-1
6.489439048E0,-1.535339355E0,-6.773071289E-1,8.088073730E-1
6.494474449E0,-1.530014038E0,-6.730499268E-1,8.311767578E-1
6.499509849E0,-1.510848999E0,-5.942230225E-1,8.652648926E-1
6.504545249E0,-1.483139038E0,-4.472045898E-1,9.110717773E-1
6.509611167E0,-1.455444336E0,-2.405548096E-1,9.494323730E-1
6.514646568E0,-1.436279297E0,-1.258850098E-2,9.664764404E-1
6.519681968E0,-1.413909912E0,1.759643555E-1,9.728698730E-1
6.524717369E0,-1.378753662E0,3.176574707E-1,9.675445557E-1
6.529783287E0,-1.331878662E0,4.199218750E-1,9.590148926E-1
6.534818687E0,-1.292465210E0,5.019378662E-1,9.579467773E-1
6.539854087E0,-1.269027710E0,6.233825684E-1,9.654083252E-1
6.544889488E0,-1.269027710E0,7.714538574E-1,9.664764404E-1
6.549955406E0,-1.273284912E0,8.694610596E-1,9.685974121E-1
6.554990806E0,-1.291397095E0,9.141998291E-1,9.611511230E-1
6.560026206E0,-1.322296143E0,9.248504639E-1,9.355773926E-1
6.565061607E0,-1.371292114E0,9.152679443E-1,8.919067383E-1
6.570127525E0,-1.439468384E0,8.747863770E-1,8.311767578E-1
6.575162925E0,-1.501251221E0,8.066101074E-1,7.651367188E-1
6.580198326E0,-1.538543701E0,7.352294922E-1,7.214660645E-1
6.585233726E0,-1.548126221E0,6.798400879E-1,7.022857666E-1
6.590299644E0,-1.550262451E0,6.351013184E-1,6.969604492E-1
6.595335044E0,-1.569427490E0,6.159210205E-1,6.916351318E-1
6.600370445E0,-1.599258423E0,6.223144531E-1,6.863098145E-1
6.605405845E0,-1.621627808E0,6.255187988E-1,6.958923340E-1
6.610471763E0,-1.649322510E0,6.042022705E-1,7.129364014E-1
6.615507164E0,-1.687683105E0,5.860900879E-1,7.097473145E-1
6.620542564E0,-1.726028442E0,5.466766357E-1,7.001495361E-1
6.625577964E0,-1.763305664E0,5.115356445E-1,6.799163818E-1
6.630643882E0,-1.818710327E0,5.445556641E-1,6.394348145E-1
6.635679283E0,-1.899658203E0,5.765075684E-1,5.893707275E-1
6.640714683E0,-1.995544434E0,5.754394531E-1,5.371704102E-1
6.645750083E0,-2.073303223E0,5.381622314E-1,4.860382080E-1
6.650816001E0,-2.103134155E0,4.444122314E-1,4.423675537E-1
6.655851402E0,-2.079696655E0,3.336334229E-1,4.199981689E-1
6.660886802E0,-2.021102905E0,2.611846924E-1,4.050750732E-1
6.665922203E0,-1.927352905E0,2.324218750E-1,3.997497559E-1
6.670988121E0,-1.805923462E0,2.292327881E-1,4.136047363E-1
6.676023521E0,-1.695129395E0,2.590637207E-1,4.285125732E-1
6.681058921E0,-1.608840942E0,2.846221924E-1,4.615325928E-1
6.686094322E0,-1.528945923E0,2.718505859E-1,5.265197754E-1
6.691160240E0,-1.465042114E0,2.558593750E-1,5.936279297E-1
6.696195640E0,-1.410705566E0,2.473449707E-1,6.458282471E-1
6.701231040E0,-1.338272095E0,2.164459229E-1,6.852416992E-1
6.706266441E0,-1.251983643E0,1.759643555E-1,7.086791992E-1
6.711332359E0,-1.165695190E0,1.589202881E-1,7.246551514E-1
6.716367759E0,-1.089004517E0,1.472015381E-1,7.310485840E-1
6.721403160E0,-1.025085449E0,1.184387207E-1,7.289123535E-1
6.726469078E0,-9.654235840E-1,1.045989990E-1,7.118682861E-1
6.731504478E0,-9.089660645E-1,1.354827881E-1,6.916351318E-1
6.736539878E0,-8.919219971E-1,1.408233643E-1,6.841735840E-1
6.741575279E0,-9.036407471E-1,1.365509033E-1,6.852416992E-1
6.746610679E0,-9.132232666E-1,1.567993164E-1,6.884307861E-1
6.751676597E0,-9.153594971E-1,1.812896729E-1,6.884307861E-1
6.756711997E0,-9.121704102E-1,1.940765381E-1,6.894989014E-1
6.761747398E0,-8.951263428E-1,2.121887207E-1,6.831054688E-1
6.766782798E0,-8.684844971E-1,2.270965576E-1,6.650085449E-1
6.771848716E0,-8.365325928E-1,2.239074707E-1,6.192016602E-1
6.776884117E0,-7.992401123E-1,2.270965576E-1,5.595397949E-1
6.781919517E0,-7.619628906E-1,2.356262207E-1,5.105438232E-1
6.786954917E0,-7.140197754E-1,2.409515381E-1,4.700622559E-1
6.792020835E0,-6.607666016E-1,2.334899902E-1,4.423675537E-1
6.797056236E0,-6.117553711E-1,2.324218750E-1,4.253234863E-1
6.802091636E0,-5.616912842E-1,2.356262207E-1,4.040069580E-1
6.807127037E0,-5.009765625E-1,2.558593750E-1,3.827056885E-1
6.812192955E0,-4.317321777E-1,2.963409424E-1,3.741912842E-1
6.817228355E0,-3.656768799E-1,3.549346924E-1,3.592681885E-1
6.822263755E0,-3.070983887E-1,4.103240967E-1,3.305053711E-1
6.827299156E0,-2.580871582E-1,4.497375488E-1,2.910919189E-1
6.832365074E0,-2.197418213E-1,4.689178467E-1,2.410278320E-1
6.837400474E0,-1.845855713E-1,4.710540771E-1,1.888275146E-1
6.842435874E0,-1.419830322E-1,4.731750488E-1,1.334381104E-1
6.847471275E0,-8.978271484E-2,4.625244141E-1,8.123779297E-2
6.852537193E0,-2.479553223E-2,4.231109619E-1,2.903747559E-2
6.857572593E0,4.977416992E-2,3.762359619E-1,-1.570129395E-2
6.862607994E0,1.307373047E-1,3.357543945E-1,-5.937194824E-2
6.867673912E0,2.212829590E-1,3.048706055E-1,-1.062469482E-1
6.872709312E0,3.054351807E-1,2.910156250E-1,-1.520538330E-1
6.877744712E0,3.661499023E-1,2.611846924E-1,-1.957244873E-1
6.882780113E0,4.258117676E-1,2.803649902E-1,-2.500610352E-1
6.887815513E0,4.822692871E-1,3.687896729E-1,-3.171691895E-1
6.892881431E0,5.067749023E-1,4.380187988E-1,-3.959960938E-1
6.897916831E0,5.035705566E-1,4.848937988E-1,-4.780273438E-1
6.902952232E0,4.950561523E-1,5.253753662E-1,-5.483398438E-1
6.908018150E0,4.833374023E-1,5.498809814E-1,-6.069183350E-1
6.913053550E0,4.673614502E-1,5.434875488E-1,-6.463317871E-1
6.918088951E0,4.513702393E-1,4.859619141E-1,-6.782989502E-1
6.923124351E0,4.503173828E-1,4.028778076E-1,-6.974639893E-1
6.928190269E0,4.673614502E-1,2.920837402E-1,-6.964111328E-1
6.933225669E0,5.142211914E-1,1.504058838E-1,-6.750946045E-1
6.938261070E0,6.090393066E-1,-4.058837891E-3,-6.303558350E-1
6.943296470E0,7.517852783E-1,-1.606597900E-1,-5.675048828E-1
6.948362388E0,9.392700195E-1,-3.076629639E-1,-4.886779785E-1
6.953397789E0,1.158706665E0,-4.365539551E-1,-4.151763916E-1
6.958433189E0,1.399459839E0,-5.345611572E-1,-3.672332764E-1
6.963468589E0,1.641281128E0,-6.016693115E-1,-3.597869873E-1
6.968534507E0,1.875640869E0,-6.283111572E-1,-3.928070068E-1
6.973569908E0,2.091888428E0,-5.825042725E-1,-4.631195068E-1
6.978605308E0,2.281494141E0,-4.578552246E-1,-5.547180176E-1
6.983640708E0,2.434890747E0,-2.789001465E-1,-6.633758545E-1
6.988706626E0,2.552078247E0,-8.076477051E-2,-7.837524414E-1
6.993742027E0,2.644760132E0,1.056671143E-1,-9.137268066E-1
6.998777427E0,2.729980469E0,2.611846924E-1,-1.049011230E0
7.003812828E0,2.815200806E0,3.677215576E-1,-1.191757202E0
7.008878746E0,2.897216797E0,4.156494141E-1,-1.329177856E0
7.013914146E0,2.979248047E0,3.900909424E-1,-1.449554443E0
7.018949546E0,3.079376221E0,2.750396729E-1,-1.561401367E0
7.023984947E0,3.206146240E0,8.329772949E-2,-1.674316406E0
7.029050865E0,3.326522827E0,-1.627807617E-1,-1.777648926E0
7.034086265E0,3.428787231E0,-3.705139160E-1,-1.871398926E0
7.039121665E0,3.490570068E0,-5.292358398E-1,-1.958740234E0
7.044157066E0,3.506561279E0,-7.263031006E-1,-2.035446167E0
7.049222984E0,3.473526001E0,-9.755859375E-1,-2.107879639E0
7.054258384E0,3.377655029E0,-1.190765381E0,-2.166473389E0
7.059293785E0,3.215744019E0,-1.306884766E0,-2.188842773E0
7.064329185E0,2.984573364E0,-1.295166016E0,-2.194168091E0
7.069395103E0,2.747024536E0,-1.174789429E0,-2.199493408E0
7.074430503E0,2.575515747E0,-9.734497070E-1,-2.178192139E0
7.079465904E0,2.458328247E0,-6.964874268E-1,-2.129180908E0
7.084501304E0,2.293212891E0,-2.810211182E-1,-2.054611206E0
7.089567222E0,2.048202515E0,2.026062012E-1,-1.956619263E0
7.094602622E0,1.788284302E0,5.797119141E-1,-1.849014282E0
7.099638023E0,1.560317993E0,8.140563965E-1,-1.696685791E0
7.104673423E0,1.431411743E0,9.109954834E-1,-1.496414185E0
7.109739341E0,1.381347656E0,9.536132812E-1,-1.315322876E0
7.114774742E0,1.300384521E0,1.073989868E0,-1.215194702E0
7.119810142E0,1.166168213E0,1.157073975E0,-1.217315674E0
7.124845542E0,1.014907837E0,1.021789551E0,-1.316390991E0
7.129911460E0,9.541778564E-1,5.339050293E-1,-1.469787598E0
7.134946861E0,1.069229126E0,-1.787567139E-1,-1.673248291E0
7.139982261E0,1.327026367E0,-6.304321289E-1,-1.883117676E0
7.145017662E0,1.645538330E0,-6.176452637E-1,-2.036514282E0
7.150083580E0,1.892684937E0,-4.088592529E-1,-2.072723389E0
7.155118980E0,1.986419678E0,-2.053985596E-1,-1.999221802E0
7.160154380E0,1.980026245E0,-5.839538574E-2,-1.871398926E0
7.165220298E0,1.961914062E0,1.045989990E-1,-1.719055176E0
7.170255699E0,1.957656860E0,3.048706055E-1,-1.581634521E0
7.175291099E0,1.955535889E0,4.561309814E-1,-1.468719482E0
7.180326499E0,1.933151245E0,5.061950684E-1,-1.380310059E0
7.185361900E0,1.903335571E0,5.211181641E-1,-1.338760376E0
7.190427818E0,1.889480591E0,6.010131836E-1,-1.340896606E0
7.195463218E0,1.910781860E0,7.458801270E-1,-1.376037598E0
7.200498619E0,1.965118408E0,8.662567139E-1,-1.423980713E0
7.205534019E0,2.017318726E0,9.642639160E-1,-1.471923828E0
7.210599937E0,2.064178467E0,1.103820801E0,-1.501739502E0
7.215635337E0,2.098281860E0,1.291305542E0,-1.496414185E0
7.220670738E0,2.108932495E0,1.496902466E0,-1.477249146E0
7.225706138E0,2.108932495E0,1.711013794E0,-1.460205078E0
7.230772056E0,2.105728149E0,1.866546631E0,-1.433563232E0
7.235807456E0,2.100402832E0,1.994369507E0,-1.384567261E0
7.240842857E0,2.082290649E0,2.077468872E0,-1.315322876E0
7.245878257E0,2.020507812E0,2.021011353E0,-1.207733154E0
7.250944175E0,1.917175293E0,1.900634766E0,-1.083099365E0
7.255979576E0,1.792541504E0,1.782394409E0,-9.573974609E-1
7.261014976E0,1.652999878E0,1.680130005E0,-8.423461914E-1
7.266050376E0,1.510253906E0,1.582122803E0,-7.283630371E-1
7.271116294E0,1.372833252E0,1.499023438E0,-6.229095459E-1
7.276151695E0,1.246063232E0,1.405288696E0,-5.238342285E-1
7.281187095E0,1.118225098E0,1.278518677E0,-4.386138916E-1
7.286222496E0,9.935913086E-1,1.107009888E0,-3.576507568E-1
7.291288414E0,8.732147217E-1,8.960876465E-1,-2.841491699E-1
7.296323814E0,7.602996826E-1,6.713104248E-1,-2.234344482E-1
7.301359214E0,6.569671631E-1,4.944763184E-1,-1.659088135E-1
7.306394615E0,5.493774414E-1,3.560028076E-1,-1.168975830E-1
7.311460533E0,4.268798828E-1,2.196502686E-1,-9.452819824E-2
7.316495933E0,2.979736328E-1,1.024627686E-1,-9.240722656E-2
7.321531333E0,1.818695068E-1,2.684020996E-2,-8.174133301E-2
7.326566734E0,1.354980469E-2,-9.353637695E-2,-6.896972656E-2
7.331632652E0,-1.952362061E-1,-2.629241943E-1,-7.536315918E-2
7.336668052E0,-3.443756104E-1,-3.854217529E-1,-9.027099609E-2
7.341703453E0,-4.349212646E-1,-4.759674072E-1,-8.706665039E-2
7.346738853E0,-4.988403320E-1,-5.579986572E-1,-7.536315918E-2
7.351804771E0,-5.499725342E-1,-6.219177246E-1,-5.085754395E-2
7.356840171E0,-6.053619385E-1,-6.389617920E-1,-1.570129395E-2
7.361875572E0,-6.799316406E-1,-6.016693115E-1,3.649902344E-2
7.366941490E0,-7.694244385E-1,-5.207061768E-1,9.828186035E-2
7.371976890E0,-8.674163818E-1,-4.418792725E-1,1.696472168E-1
7.377012290E0,-9.760742188E-1,-4.099273682E-1,2.474212646E-1
7.382047691E0,-1.086868286E0,-4.525299072E-1,3.273162842E-1
7.387083091E0,-1.206176758E0,-5.675811768E-1,4.072113037E-1
7.392149009E0,-1.353179932E0,-7.326965332E-1,4.934997559E-1
7.397184410E0,-1.524688721E0,-9.042053223E-1,5.893707275E-1
7.402219810E0,-1.717498779E0,-1.056533813E0,7.086791992E-1
7.407255210E0,-1.906051636E0,-1.192901611E0,8.471679688E-1
7.412321128E0,-2.030685425E0,-1.327117920E0,9.771270752E-1
7.417356529E0,-2.016845703E0,-1.442169189E0,1.088973999E0
7.422391929E0,-1.819763184E0,-1.506088257E0,1.131591797E0
7.427427330E0,-1.565170288E0,-1.478378296E0,1.076187134E0
7.432493247E0,-1.492736816E0,-1.363342285E0,9.685974121E-1
7.437528648E0,-1.538543701E0,-1.348419189E0,8.503570557E-1
7.442564048E0,-1.424560547E0,-1.689315796E0,7.193298340E-1
7.447599449E0,-1.308441162E0,-2.231521606E0,6.000213623E-1
7.452665367E0,-1.396865845E0,-2.548980713E0,5.637969971E-1
7.457700767E0,-1.470367432E0,-2.316741943E0,6.415710449E-1
7.462736167E0,-1.349990845E0,-1.671203613E0,7.928314209E-1
7.467802085E0,-1.173156738E0,-1.006469727E0,9.046936035E-1
7.472837486E0,-1.123092651E0,-3.481445312E-1,9.036254883E-1
7.477872886E0,-1.155044556E0,1.397552490E-1,8.354492188E-1
7.482908287E0,-1.232803345E0,3.474731445E-1,7.907104492E-1
7.487974205E0,-1.411773682E0,3.954162598E-1,7.970886230E-1
7.493009605E0,-1.570495605E0,3.197784424E-1,8.418426514E-1
7.498045005E0,-1.545989990E0,1.045989990E-1,9.153442383E-1
7.503080406E0,-1.405380249E0,-9.141540527E-2,9.952392578E-1
7.508146324E0,-1.302047729E0,-1.404113770E-1,1.063415527E0
7.513181724E0,-1.293533325E0,-1.404113770E-1,1.131591797E0
7.518217124E0,-1.322296143E0,-2.139129639E-1,1.217880249E0
7.523252525E0,-1.312698364E0,-2.725067139E-1,1.305221558E0
7.528318443E0,-1.277542114E0,-2.512054443E-1,1.379791260E0
7.533353843E0,-1.241333008E0,-1.638488770E-1,1.462890625E0
7.538389244E0,-1.198715210E0,-5.200195312E-2,1.557693481E0
7.543424644E0,-1.143325806E0,3.535461426E-2,1.651443481E0
7.548490562E0,-1.093261719E0,7.583618164E-2,1.749435425E0
7.553525962E0,-1.081542969E0,5.558776855E-2,1.833602905E0
7.558561363E0,-1.111373901E0,-6.195068359E-3,1.885803223E0
7.563596763E0,-1.161437988E0,-1.020660400E-1,1.899642944E0
7.568662681E0,-1.208312988E0,-2.085876465E-1,1.885803223E0
7.573698081E0,-1.250915527E0,-2.959442139E-1,1.843185425E0
7.578733482E0,-1.291397095E0,-3.630523682E-1,1.778198242E0
7.583768882E0,-1.331878662E0,-4.397583008E-1,1.690856934E0
7.588834800E0,-1.365966797E0,-5.334930420E-1,1.584320068E0
7.593870201E0,-1.394729614E0,-6.038055420E-1,1.473541260E0
7.598905601E0,-1.414962769E0,-6.538696289E-1,1.377670288E0
7.603941001E0,-1.432006836E0,-7.039337158E-1,1.302032471E0
7.609006919E0,-1.444793701E0,-7.540130615E-1,1.244506836E0
7.614042320E0,-1.460769653E0,-7.795715332E-1,1.210418701E0
7.619077720E0,-1.488464355E0,-7.529449463E-1,1.190170288E0
7.624113121E0,-1.525756836E0,-6.890258789E-1,1.171005249E0
7.629179039E0,-1.566238403E0,-6.783752441E-1,1.150756836E0
7.634214439E0,-1.610977173E0,-6.879577637E-1,1.144378662E0
7.639249839E0,-1.653579712E0,-6.560058594E-1,1.153961182E0
7.644285240E0,-1.697265625E0,-5.931549072E-1,1.167800903E0
7.649351158E0,-1.744140625E0,-5.228424072E-1,1.178466797E0
7.654386558E0,-1.787811279E0,-4.685211182E-1,1.195510864E0
7.659421958E0,-1.815505981E0,-4.046020508E-1,1.216812134E0
7.664457359E0,-1.826156616E0,-3.268280029E-1,1.231719971E0
7.669523277E0,-1.830413818E0,-2.639770508E-1,1.229598999E0
7.674558677E0,-1.840011597E0,-2.330932617E-1,1.218933105E0
7.679594078E0,-1.857055664E0,-2.085876465E-1,1.209350586E0
7.684629478E0,-1.877288818E0,-1.819610596E-1,1.198699951E0
7.689695396E0,-1.902862549E0,-1.585235596E-1,1.193374634E0
7.694730796E0,-1.930557251E0,-1.222991943E-1,1.190170288E0
7.699766197E0,-1.950790405E0,-7.862854004E-2,1.197631836E0
7.704801597E0,-1.955062866E0,-5.732727051E-2,1.216812134E0
7.709867515E0,-1.943344116E0,-7.543945312E-2,1.233856201E0
7.714902915E0,-1.931625366E0,-8.821105957E-2,1.225326538E0
7.719938316E0,-1.916702271E0,-1.276245117E-1,1.209350586E0
7.724973716E0,-1.911376953E0,-2.096557617E-1,1.200836182E0
7.730039634E0,-1.931625366E0,-1.851501465E-1,1.167800903E0
7.735075035E0,-1.963577271E0,-1.105804443E-1,1.107086182E0
7.740110435E0,-1.990203857E0,-9.780883789E-2,1.030395508E0
7.745145835E0,-2.020034790E0,-1.233673096E-1,9.483642578E-1
7.750211753E0,-2.069046021E0,-1.372222900E-1,8.706054688E-1
7.755247154E0,-2.114852905E0,-1.255035400E-1,8.088073730E-1
7.760282554E0,-2.113784790E0,-1.009979248E-1,7.768554688E-1
7.765317955E0,-2.040283203E0,-6.690979004E-2,7.608795166E-1
7.770383872E0,-1.915649414E0,-8.821105957E-2,7.470245361E-1
7.775419273E0,-1.806991577E0,-1.095275879E-1,7.225341797E-1
7.780454673E0,-1.740936279E0,-5.944824219E-2,6.980285645E-1
7.785490074E0,-1.686614990E0,1.617431641E-2,6.820526123E-1
7.790555992E0,-1.609909058E0,4.707336426E-2,6.831054688E-1
7.795591392E0,-1.502319336E0,1.405334473E-2,7.129364014E-1
7.800626792E0,-1.369155884E0,-5.839538574E-2,7.608795166E-1
7.805662193E0,-1.220031738E0,-2.043304443E-1,7.928314209E-1
7.810728111E0,-1.081542969E0,-3.833007812E-1,7.843170166E-1
7.815763511E0,-9.846038818E-1,-5.111236572E-1,7.438354492E-1
7.820798912E0,-9.377288818E-1,-5.654602051E-1,6.724548340E-1
7.825834312E0,-9.153594971E-1,-5.579986572E-1,5.797882080E-1
7.830900230E0,-8.951263428E-1,-5.217742920E-1,5.030822754E-1
7.835935630E0,-8.567657471E-1,-4.450836182E-1,4.604644775E-1
7.840971031E0,-7.821960449E-1,-3.460083008E-1,4.434204102E-1
7.846006431E0,-6.682128906E-1,-2.362823486E-1,4.338378906E-1
7.851072349E0,-5.393218994E-1,-1.233673096E-1,4.221191406E-1
7.856107749E0,-4.200134277E-1,-1.791381836E-2,4.072113037E-1
7.861143150E0,-3.273315430E-1,8.755493164E-2,3.912353516E-1
7.866178550E0,-2.751312256E-1,1.919555664E-1,3.635253906E-1
7.871244468E0,-2.559661865E-1,2.952728271E-1,3.198547363E-1
7.876279869E0,-2.548980713E-1,3.741149902E-1,2.719268799E-1
7.881315269E0,-2.516937256E-1,4.263000488E-1,2.367706299E-1
7.886381187E0,-2.218780518E-1,4.486846924E-1,2.197265625E-1
7.891416587E0,-1.686096191E-1,4.550628662E-1,2.154541016E-1
7.896451988E0,-1.153411865E-1,4.593353271E-1,2.133331299E-1
7.901487388E0,-6.420898438E-2,4.571990967E-1,1.994781494E-1
7.906553306E0,-2.053833008E-2,4.508056641E-1,1.749877930E-1
7.911588706E0,1.461791992E-2,4.582672119E-1,1.387634277E-1
7.916624107E0,4.231262207E-2,4.518737793E-1,1.121368408E-1
7.921659507E0,9.130859375E-2,4.859619141E-1,8.123779297E-2
7.926694908E0,1.509704590E-1,5.381622314E-1,4.608154297E-2
7.931760826E0,1.935882568E-1,5.530700684E-1,7.736206055E-3
7.936796226E0,2.180786133E-1,5.285797119E-1,-2.528381348E-2
7.941831626E0,2.340545654E-1,4.998168945E-1,-5.725097656E-2
7.946867027E0,2.457733154E-1,4.721069336E-1,-9.133911133E-2
7.951932945E0,2.596282959E-1,4.497375488E-1,-1.211700439E-1
7.956968345E0,2.883911133E-1,4.316406250E-1,-1.488647461E-1
7.962003746E0,3.427124023E-1,4.284362793E-1,-1.531219482E-1
7.967069664E0,4.322052002E-1,4.476165771E-1,-1.414031982E-1
7.972105064E0,5.610961914E-1,4.912872314E-1,-1.296844482E-1
7.977140464E0,7.123718262E-1,5.434875488E-1,-1.360778809E-1
7.982175865E0,8.433990479E-1,5.882263184E-1,-1.637725830E-1
7.987211265E0,9.435272217E-1,5.914154053E-1,-2.095794678E-1
7.992277183E0,1.017028809E0,6.063385010E-1,-2.820129395E-1
7.997312583E0,1.071365356E0,6.276397705E-1,-3.629760742E-1
8.002347984E0,1.108642578E0,6.265716553E-1,-4.290313721E-1
8.007413902E0,1.150192261E0,6.010131836E-1,-4.748229980E-1
8.012449302E0,1.222625732E0,5.445556641E-1,-5.057220459E-1
8.017484703E0,1.339813232E0,4.465484619E-1,-5.270233154E-1
8.022520103E0,1.487884521E0,3.197784424E-1,-5.579223633E-1
8.027586021E0,1.650863647E0,1.834259033E-1,-6.015930176E-1
8.032621421E0,1.820236206E0,3.642272949E-2,-6.537933350E-1
8.037656822E0,1.992813110E0,-1.052551270E-1,-7.241058350E-1
8.042692222E0,2.154739380E0,-2.181854248E-1,-8.178405762E-1
8.047727622E0,2.305999756E0,-2.991333008E-1,-9.233093262E-1
8.052793540E0,2.451934814E0,-3.598632812E-1,-1.024505615E0
8.057828941E0,2.600021362E0,-4.024658203E-1,-1.124649048E0
8.062864341E0,2.756607056E0,-4.269714355E-1,-1.214126587E0
8.067930259E0,2.919586182E0,-4.205780029E-1,-1.285491943E0
8.072965660E0,3.085769653E0,-3.811645508E-1,-1.343017578E0
8.078001060E0,3.234909058E0,-3.311004639E-1,-1.401611328E0
8.083036460E0,3.377655029E0,-3.151245117E-1,-1.466598511E0
8.088102378E0,3.518264771E0,-3.406829834E-1,-1.531570435E0
8.093137779E0,3.636520386E0,-3.843536377E-1,-1.595489502E0
8.098173179E0,3.699371338E0,-4.461517334E-1,-1.668991089E0
8.103208580E0,3.699371338E0,-5.686492920E-1,-1.766998291E0
8.108274497E0,3.603500366E0,-7.092590332E-1,-1.885238647E0
8.113309898E0,3.403228760E0,-7.923583984E-1,-1.997100830E0
8.118345298E0,3.132644653E0,-7.103271484E-1,-2.066329956E0
8.123380699E0,2.841827393E0,-4.557342529E-1,-2.108947754E0
8.128446617E0,2.558471680E0,-1.350860596E-1,-2.127059937E0
8.133482017E0,2.292160034E0,1.386871338E-1,-2.139831543E0
8.138517417E0,2.056732178E0,3.400268555E-1,-2.146224976E0
8.143552818E0,1.833023071E0,5.658569336E-1,-2.101486206E0
8.148618736E0,1.617843628E0,8.247222900E-1,-2.001358032E0
8.153654136E0,1.428222656E0,1.032440186E0,-1.894821167E0
8.158689537E0,1.241806030E0,1.260406494E0,-1.841567993E0
8.163724937E0,1.060699463E0,1.478790283E0,-1.828781128E0
8.168790855E0,9.041137695E-1,1.591705322E0,-1.823455811E0
8.173826255E0,8.007812500E-1,1.490509033E0,-1.813873291E0
8.178861656E0,8.061065674E-1,1.200759888E0,-1.838363647E0
8.183897056E0,9.328765869E-1,8.311004639E-1,-1.916137695E0
8.188962974E0,1.137405396E0,4.476165771E-1,-2.036514282E0
8.193998374E0,1.390945435E0,1.802368164E-1,-2.169662476E0
8.199033775E0,1.634887695E0,1.013946533E-1,-2.263412476E0
8.204069175E0,1.806396484E0,2.334899902E-1,-2.258087158E0
8.209135093E0,1.885223389E0,5.509490967E-1,-2.151550293E0
8.214170494E0,1.919311523E0,9.376373291E-1,-1.990707397E0
8.219205894E0,1.952331543E0,1.245498657E0,-1.834106445E0
8.224241294E0,1.956588745E0,1.348831177E0,-1.722259521E0
8.229307212E0,1.924636841E0,1.348831177E0,-1.624252319E0
8.234342613E0,1.896942139E0,1.374389648E0,-1.523056030E0
8.239378013E0,1.885223389E0,1.385040283E0,-1.450607300E0
8.244413414E0,1.882019043E0,1.342437744E0,-1.418655396E0
8.249479331E0,1.887359619E0,1.259338379E0,-1.422912598E0
8.254514732E0,1.906524658E0,1.182647705E0,-1.436767578E0
8.259550132E0,1.941680908E0,1.162399292E0,-1.448486328E0
8.264585533E0,1.977905273E0,1.213531494E0,-1.449554443E0
8.269651451E0,2.016250610E0,1.312606812E0,-1.445281982E0
8.274686851E0,2.057800293E0,1.439376831E0,-1.431442261E0
8.279722251E0,2.079101562E0,1.558685303E0,-1.413330078E0
8.284757652E0,2.074844360E0,1.672668457E0,-1.384567261E0
8.289823570E0,2.046081543E0,1.768539429E0,-1.337692261E0
8.294858970E0,1.999206543E0,1.824996948E0,-1.278045654E0
8.299894371E0,1.935287476E0,1.833526611E0,-1.201339722E0
8.304929771E0,1.853256226E0,1.828201294E0,-1.113983154E0
8.309995689E0,1.757385254E0,1.768539429E0,-1.019180298E0
8.315031089E0,1.656188965E0,1.701431274E0,-9.350280762E-1
8.320066490E0,1.556060791E0,1.639648438E0,-8.412780762E-1
8.325101890E0,1.454849243E0,1.586380005E0,-7.518005371E-1
8.330167808E0,1.365371704E0,1.556549072E0,-6.665802002E-1
8.335203208E0,1.270568848E0,1.517135620E0,-5.951995850E-1
8.340238609E0,1.166168213E0,1.432983398E0,-5.355529785E-1
8.345274009E0,1.055374146E0,1.308349609E0,-4.822845459E-1
8.350339927E0,9.456634521E-1,1.162399292E0,-4.364776611E-1
8.355375328E0,8.423309326E-1,1.004745483E0,-4.034576416E-1
8.360410728E0,7.507171631E-1,8.769073486E-1,-3.800201416E-1
8.365446128E0,6.580352783E-1,7.714538574E-1,-3.608398438E-1
8.370512046E0,5.557708740E-1,6.532135010E-1,-3.437957764E-1
8.375547447E0,4.332733154E-1,5.040740967E-1,-3.278198242E-1
8.380582847E0,3.192901611E-1,3.815612793E-1,-3.001251221E-1
8.385618247E0,2.244720459E-1,2.995452881E-1,-2.724304199E-1
8.390684165E0,7.321166992E-2,1.535949707E-1,-2.500610352E-1
8.395719566E0,-9.936523438E-2,1.084899902E-2,-2.362060547E-1
8.400754966E0,-2.208099365E-1,-4.667663574E-2,-2.212982178E-1
8.405790367E0,-3.081512451E-1,-9.034729004E-2,-2.021179199E-1
8.410856285E0,-3.944396973E-1,-1.468048096E-1,-1.754913330E-1
8.415891685E0,-4.945831299E-1,-2.075195312E-1,-1.499176025E-1
8.420927085E0,-6.117553711E-1,-2.661132812E-1,-1.254272461E-1
8.425962486E0,-7.363891602E-1,-3.257751465E-1,-1.041259766E-1
8.431028404E0,-8.620910645E-1,-4.056701660E-1,-7.748413086E-2
8.436063804E0,-9.824676514E-1,-5.143280029E-1,-4.660034180E-2
8.441099205E0,-1.094329834E0,-6.400299072E-1,-3.982543945E-3
8.446134605E0,-1.207244873E0,-7.710571289E-1,5.673217773E-2
8.451200523E0,-1.309509277E0,-9.063415527E-1,1.281127930E-1
8.456235923E0,-1.405380249E0,-1.051208496E0,2.154541016E-1
8.461271324E0,-1.502319336E0,-1.203552246E0,3.049468994E-1
8.466337242E0,-1.614166260E0,-1.367599487E0,3.997497559E-1
8.471372642E0,-1.744140625E0,-1.543365479E0,5.052185059E-1
8.476408042E0,-1.892211914E0,-1.692504883E0,6.255950928E-1
8.481443443E0,-2.030685425E0,-1.797958374E0,7.651367188E-1
8.486509361E0,-2.118041992E0,-1.886383057E0,9.014892578E-1
8.491544761E0,-2.096740723E0,-1.955627441E0,9.984283447E-1
8.496580162E0,-1.915649414E0,-1.944976807E0,1.016540527E0
8.501615562E0,-1.698333740E0,-1.750030518E0,9.526214600E-1
8.506650962E0,-1.656784058E0,-1.387832642E0,8.471679688E-1
8.511716880E0,-1.681289673E0,-1.185440063E0,7.427673340E-1
8.516752281E0,-1.509780884E0,-1.446426392E0,6.341094971E-1
8.521787681E0,-1.330810547E0,-1.943908691E0,5.190582275E-1
8.526853599E0,-1.391525269E0,-2.292251587E0,4.700622559E-1
8.531888999E0,-1.494857788E0,-2.089843750E0,4.966888428E-1
8.536924400E0,-1.432006836E0,-1.523132324E0,5.297088623E-1
8.541959800E0,-1.270095825E0,-9.457550049E-1,5.286560059E-1
8.547025718E0,-1.198715210E0,-3.609161377E-1,4.796447754E-1
8.552061119E0,-1.226409912E0,4.493713379E-2,4.146728516E-1
8.557096519E0,-1.312698364E0,1.557312012E-1,3.965606689E-1
8.562131919E0,-1.472488403E0,8.329772949E-2,4.295806885E-1
8.567197837E0,-1.681289673E0,-4.240417480E-2,4.988250732E-1
8.572233238E0,-1.810180664E0,-1.883544922E-1,6.085510254E-1
8.577268638E0,-1.778228760E0,-2.970123291E-1,7.374420166E-1
8.582304039E0,-1.638671875E0,-3.065948486E-1,8.599395752E-1
8.587369956E0,-1.534271240E0,-2.906188965E-1,9.781951904E-1
8.592405357E0,-1.504455566E0,-3.193817139E-1,1.098571777E0
8.597440757E0,-1.499130249E0,-3.918151855E-1,1.227462769E0
8.602476158E0,-1.461837769E0,-4.834289551E-1,1.342514038E0
8.607542076E0,-1.396865845E0,-5.409545898E-1,1.429855347E0
8.612577476E0,-1.324417114E0,-5.345611572E-1,1.505493164E0
8.617612876E0,-1.253051758E0,-4.663848877E-1,1.584320068E0
8.622648277E0,-1.178482056E0,-3.673095703E-1,1.659957886E0
8.627714195E0,-1.103912354E0,-2.533264160E-1,1.717483521E0
8.632749595E0,-1.044250488E0,-1.276245117E-1,1.753707886E0
8.637784996E0,-1.020812988E0,-2.110290527E-2,1.745178223E0
8.642820396E0,-1.043197632E0,3.109741211E-2,1.688720703E0
8.647886314E0,-1.093261719E0,-1.045227051E-2,1.605636597E0
8.652921714E0,-1.140136719E0,-1.265716553E-1,1.525741577E0
8.657957115E0,-1.177413940E0,-2.501373291E-1,1.445846558E0
8.662992515E0,-1.200851440E0,-3.641204834E-1,1.369140625E0
8.668058433E0,-1.212570190E0,-4.493408203E-1,1.299896240E0
8.673093833E0,-1.226409912E0,-4.866180420E-1,1.244506836E0
8.678129234E0,-1.251983643E0,-4.674530029E-1,1.200836182E0
8.683164634E0,-1.283935547E0,-4.216461182E-1,1.172073364E0
8.688230552E0,-1.322296143E0,-3.374938965E-1,1.155029297E0
8.693265953E0,-1.359573364E0,-2.543945312E-1,1.145431519E0
8.698301353E0,-1.389404297E0,-2.362823486E-1,1.136917114E0
8.703336753E0,-1.408569336E0,-2.927398682E-1,1.136917114E0
8.708402671E0,-1.426681519E0,-3.641204834E-1,1.130523682E0
8.713438072E0,-1.453323364E0,-4.024658203E-1,1.132659912E0
8.718473472E0,-1.478881836E0,-3.896789551E-1,1.145431519E0
8.723508872E0,-1.498062134E0,-3.417510986E-1,1.164611816E0
8.728574790E0,-1.512969971E0,-2.884826660E-1,1.182723999E0
8.733610191E0,-1.524688721E0,-2.256317139E-1,1.202957153E0
8.738645591E0,-1.538543701E0,-1.222991943E-1,1.221069336E0
8.743680992E0,-1.567306519E0,3.854370117E-2,1.218933105E0
8.748746910E0,-1.595001221E0,2.249755859E-1,1.201889038E0
8.753782310E0,-1.617370605E0,3.464050293E-1,1.171005249E0
8.758817710E0,-1.638671875E0,3.698425293E-1,1.146499634E0
8.763853111E0,-1.668502808E0,3.677215576E-1,1.131591797E0
8.768919029E0,-1.704727173E0,3.794403076E-1,1.114547729E0
8.773954429E0,-1.752655029E0,3.847656250E-1,1.085784912E0
8.778989830E0,-1.802719116E0,3.645172119E-1,1.050628662E0
8.784025230E0,-1.843200684E0,2.888946533E-1,1.016540527E0
8.789091148E0,-1.881561279E0,1.994018555E-1,9.792480469E-1
8.794126548E0,-1.916702271E0,1.450805664E-1,9.302520752E-1
8.799161949E0,-1.939071655E0,9.927368164E-2,8.769836426E-1
8.804197349E0,-1.942276001E0,5.558776855E-2,8.215942383E-1
8.809263267E0,-1.929489136E0,3.642272949E-2,7.608795166E-1
8.814298667E0,-1.902862549E0,3.109741211E-2,7.076110840E-1
8.819334068E0,-1.874099731E0,-6.195068359E-3,6.735229492E-1
8.824369468E0,-1.844268799E0,-1.201782227E-1,6.554107666E-1
8.829435386E0,-1.830413818E0,-1.990051270E-1,6.362457275E-1
8.834470787E0,-1.848526001E0,-2.064666748E-1,6.064147949E-1
8.839506187E0,-1.881561279E0,-2.245635986E-1,5.946960449E-1
8.844541587E0,-1.895401001E0,-2.213745117E-1,6.170654297E-1
8.849607505E0,-1.873031616E0,-2.362823486E-1,6.554107666E-1
8.854642906E0,-1.842132568E0,-3.097839355E-1,6.863098145E-1
8.859678306E0,-1.840011597E0,-3.449401855E-1,6.958923340E-1
8.864713706E0,-1.870895386E0,-2.991333008E-1,6.905670166E-1
8.869779624E0,-1.877288818E0,-2.213745117E-1,7.054901123E-1
8.874815025E0,-1.829360962E0,-1.830291748E-1,7.395782471E-1
8.879850425E0,-1.702590942E0,-2.767639160E-1,7.843170166E-1
8.884885826E0,-1.531082153E0,-4.695739746E-1,8.141326904E-1
8.889951744E0,-1.381942749E0,-6.144561768E-1,8.088073730E-1
8.894987144E0,-1.274353027E0,-6.911621094E-1,7.630004883E-1
8.900022544E0,-1.193389893E0,-6.932830811E-1,7.044219971E-1
8.905057945E0,-1.159301758E0,-6.240386963E-1,6.554107666E-1
8.910123863E0,-1.172088623E0,-5.121917725E-1,6.159973145E-1
8.915159263E0,-1.193389893E0,-3.939514160E-1,5.840454102E-1
8.920194664E0,-1.175277710E0,-2.820892334E-1,5.637969971E-1
8.925230064E0,-1.111373901E0,-1.755676270E-1,5.659332275E-1
8.930295982E0,-1.016555786E0,-6.158447266E-2,5.701904297E-1
8.935331382E0,-9.089660645E-1,3.642272949E-2,5.616760254E-1
8.940366783E0,-8.045654297E-1,1.056671143E-1,5.435638428E-1
8.945432701E0,-7.172241211E-1,1.386871338E-1,5.243835449E-1
8.950468101E0,-6.426544189E-1,1.525268555E-1,5.030822754E-1
8.955503501E0,-5.744781494E-1,1.695709229E-1,4.764556885E-1
8.960538902E0,-5.148162842E-1,1.887512207E-1,4.455566406E-1
8.965574302E0,-4.647521973E-1,2.068634033E-1,4.125366211E-1
8.970640220E0,-4.210815430E-1,2.068634033E-1,3.784484863E-1
8.975675621E0,-3.795318604E-1,1.844940186E-1,3.486175537E-1
8.980711021E0,-3.347930908E-1,1.621246338E-1,3.230590820E-1
8.985776939E0,-2.911071777E-1,1.781005859E-1,3.028106689E-1
8.990812339E0,-2.495727539E-1,2.153778076E-1,2.836303711E-1
8.995847740E0,-2.133483887E-1,2.462768555E-1,2.506103516E-1
9.000883140E0,-1.845855713E-1,2.718505859E-1,2.165222168E-1
9.005918540E0,-1.526336670E-1,2.952728271E-1,1.909637451E-1
9.010984458E0,-1.046905518E-1,3.101959229E-1,1.622009277E-1
9.016019859E0,-5.142211914E-2,3.176574707E-1,1.355590820E-1
9.021055259E0,-5.630493164E-3,3.336334229E-1,1.366271973E-1
9.026090660E0,3.591918945E-2,3.709106445E-1,1.643218994E-1
9.031156578E0,7.000732422E-2,4.316406250E-1,1.803131104E-1
9.036191978E0,9.664916992E-2,4.774322510E-1,1.856384277E-1
9.041227378E0,1.317901611E-1,4.987487793E-1,1.813659668E-1
9.046262779E0,1.669464111E-1,4.817047119E-1,1.675262451E-1
9.051328697E0,2.031707764E-1,4.241790771E-1,1.430206299E-1
9.056364097E0,2.447204590E-1,3.400268555E-1,1.068115234E-1
9.061399497E0,2.979736328E-1,2.590637207E-1,7.165527344E-2
9.066434898E0,3.629608154E-1,1.855621338E-1,4.501342773E-2
9.071500816E0,4.396514893E-1,1.077880859E-1,2.584838867E-2
9.076536216E0,5.270080566E-1,4.493713379E-2,1.731872559E-2
9.081571617E0,6.356658936E-1,7.476806641E-2,-9.307861328E-3
9.086637535E0,7.176971436E-1,1.812896729E-1,-5.404663086E-2
9.091672935E0,7.421875000E-1,2.995452881E-1,-1.137084961E-1
9.096708335E0,7.443237305E-1,3.666534424E-1,-1.872100830E-1
9.101743736E0,7.336730957E-1,4.465484619E-1,-2.596435547E-1
9.106809654E0,7.230224609E-1,5.317687988E-1,-3.278198242E-1
9.111845054E0,7.336730957E-1,6.010131836E-1,-3.874816895E-1
9.116880455E0,7.762756348E-1,6.329650879E-1,-4.364776611E-1
9.121915855E0,8.476562500E-1,6.287078857E-1,-4.833526611E-1
9.126981773E0,9.413909912E-1,5.839691162E-1,-5.185089111E-1
9.132017173E0,1.053253174E0,5.147247314E-1,-5.504608154E-1
9.137052574E0,1.173629761E0,4.401550293E-1,-5.792236328E-1
9.142087974E0,1.300384521E0,3.698425293E-1,-6.037292480E-1
9.147153892E0,1.437805176E0,3.048706055E-1,-6.271667480E-1
9.152189292E0,1.575225830E0,2.388153076E-1,-6.559295654E-1
9.157224693E0,1.706253052E0,1.642456055E-1,-6.889495850E-1
9.162260093E0,1.831954956E0,8.116149902E-2,-7.304992676E-1
9.167326011E0,1.959793091E0,-1.922607422E-3,-7.805633545E-1
9.172361412E0,2.090820312E0,-7.862854004E-2,-8.423461914E-1
9.177396812E0,2.228240967E0,-1.468048096E-1,-9.137268066E-1
9.182432212E0,2.370986938E0,-1.958007812E-1,-9.829559326E-1
9.187498130E0,2.519058228E0,-2.139129639E-1,-1.057525635E0
9.192533531E0,2.678848267E0,-2.011413574E-1,-1.131027222E0
9.197568931E0,2.854614258E0,-1.510620117E-1,-1.210922241E0
9.202604331E0,3.039962769E0,-1.063232422E-1,-1.297210693E0
9.207670249E0,3.224258423E0,-1.350860596E-1,-1.397354126E0
9.212705650E0,3.410675049E0,-2.565307617E-1,-1.521987915E0
9.217741050E0,3.586456299E0,-4.291076660E-1,-1.648757935E0
9.222776451E0,3.719604492E0,-6.133880615E-1,-1.778717041E0
9.227842369E0,3.774993896E0,-8.115234375E-1,-1.907608032E0
9.232877769E0,3.733459473E0,-1.024581909E0,-2.008804321E0
9.237913169E0,3.586456299E0,-1.189697266E0,-2.051422119E0
9.242948570E0,3.336105347E0,-1.207809448E0,-2.025848389E0
9.248014488E0,3.008010864E0,-1.110870361E0,-1.983245850E0
9.253049888E0,2.654342651E0,-9.958190918E-1,-1.949157715E0
9.258085289E0,2.328369141E0,-8.690490723E-1,-1.944900513E0
9.263120689E0,2.074844360E0,-6.911621094E-1,-1.968338013E0
9.268186607E0,1.896942139E0,-4.940795898E-1,-1.962997437E0
9.273222007E0,1.753128052E0,-2.629241943E-1,-1.914001465E0
9.278257408E0,1.663650513E0,-6.195068359E-3,-1.845825195E0
9.283292808E0,1.637008667E0,2.846221924E-1,-1.766998291E0
9.288358726E0,1.644470215E0,6.361694336E-1,-1.682846069E0
9.293394126E0,1.648727417E0,9.898376465E-1,-1.614669800E0
9.298429527E0,1.601867676E0,1.287033081E0,-1.578445435E0
9.303464927E0,1.476165771E0,1.480911255E0,-1.573120117E0
9.308530845E0,1.361114502E0,1.463867188E0,-1.610397339E0
9.313566246E0,1.358978271E0,1.122985840E0,-1.703079224E0
9.318601646E0,1.466567993E0,5.679931641E-1,-1.835174561E0
9.323637046E0,1.660446167E0,1.141815186E-1,-1.966201782E0
9.328702964E0,1.887359619E0,6.591796875E-3,-2.057815552E0
9.333738365E0,2.101470947E0,1.866149902E-1,-2.072723389E0
9.338773765E0,2.244216919E0,4.870300293E-1,-2.010940552E0
9.343809165E0,2.310256958E0,7.703857422E-1,-1.893768311E0
9.348875083E0,2.351806641E0,9.781188965E-1,-1.760604858E0
9.353910484E0,2.397613525E0,1.099548340E0,-1.641296387E0
9.358945884E0,2.396545410E0,1.104873657E0,-1.544357300E0
9.363981285E0,2.347549438E0,1.050552368E0,-1.458068848E0
9.369047203E0,2.285766602E0,9.908905029E-1,-1.393081665E0
9.374082603E0,2.227172852E0,9.418945312E-1,-1.372848511E0
9.379118003E0,2.186691284E0,9.078063965E-1,-1.371780396E0
9.384153404E0,2.170715332E0,8.992919922E-1,-1.386703491E0
9.389219322E0,2.192016602E0,9.312438965E-1,-1.394149780E0
9.394254722E0,2.233566284E0,1.018600464E0,-1.394149780E0
9.399290122E0,2.277236938E0,1.178390503E0,-1.396286011E0
9.404325523E0,2.294281006E0,1.340301514E0,-1.408004761E0
9.409391441E0,2.277236938E0,1.427658081E0,-1.422912598E0
9.414426841E0,2.232498169E0,1.471328735E0,-1.415466309E0
9.419462242E0,2.176040649E0,1.515014648E0,-1.385635376E0
9.424497642E0,2.121704102E0,1.564010620E0,-1.348342896E0
9.429563560E0,2.058853149E0,1.610885620E0,-1.297210693E0
9.434598960E0,1.982162476E0,1.622604370E0,-1.213058472E0
9.439634361E0,1.892684937E0,1.640701294E0,-1.124649048E0
9.444669761E0,1.797866821E0,1.613006592E0,-1.022369385E0
9.449735679E0,1.693481445E0,1.492630005E0,-8.977355957E-1
9.454771080E0,1.590148926E0,1.414871216E0,-7.976074219E-1
9.459806480E0,1.491073608E0,1.410614014E0,-7.166442871E-1
9.464841880E0,1.364303589E0,1.353088379E0,-6.623229980E-1
9.469907798E0,1.218368530E0,1.271057129E0,-6.111907959E-1
9.474943199E0,1.084136963E0,1.179443359E0,-5.600585938E-1
9.479978599E0,9.712219238E-1,1.050552368E0,-5.153045654E-1
9.485044517E0,8.647003174E-1,9.131317139E-1,-4.588470459E-1
9.490079917E0,7.475128174E-1,7.671966553E-1,-4.023895264E-1
9.495115318E0,6.250152588E-1,6.223144531E-1,-3.501892090E-1
9.500150718E0,4.950561523E-1,4.998168945E-1,-2.926635742E-1
9.505186119E0,3.544311523E-1,3.517456055E-1,-2.319488525E-1
9.510252037E0,2.053070068E-1,1.738433838E-1,-1.776275635E-1
9.515287437E0,5.828857422E-2,-3.495788574E-2,-1.307525635E-1
9.520322837E0,-7.699584961E-2,-2.309570312E-1,-7.748413086E-2
9.525358238E0,-2.090911865E-1,-3.886260986E-1,-2.316284180E-2
9.530424156E0,-3.411865234E-1,-5.047302246E-1,1.945495605E-2
9.535459556E0,-4.636840820E-1,-5.910186768E-1,5.033874512E-2
9.540494956E0,-5.765991211E-1,-6.496124268E-1,7.165527344E-2
9.545530357E0,-6.873931885E-1,-6.687774658E-1,9.614562988E-2
9.550596275E0,-8.067016602E-1,-6.794433594E-1,1.291809082E-1
9.555631675E0,-9.334716797E-1,-7.113952637E-1,1.760406494E-1
9.560667076E0,-1.071945190E0,-7.774353027E-1,2.293090820E-1
9.565702476E0,-1.208312988E0,-8.786468506E-1,2.879028320E-1
9.570768394E0,-1.326553345E0,-1.038436890E0,3.571472168E-1
9.575803794E0,-1.439468384E0,-1.250411987E0,4.412994385E-1
9.580839195E0,-1.587539673E0,-1.491165161E0,5.424957275E-1
9.585874595E0,-1.754791260E0,-1.727661133E0,6.618041992E-1
9.590940513E0,-1.889007568E0,-1.918334961E0,7.821807861E-1
9.595975914E0,-1.943344116E0,-2.012084961E0,8.695373535E-1
9.601011314E0,-1.871963501E0,-1.982254028E0,8.993682861E-1
9.606077232E0,-1.740936279E0,-1.754287720E0,8.759307861E-1
9.611112632E0,-1.727096558E0,-1.331375122E0,8.439636230E-1
9.616148033E0,-1.779281616E0,-1.029907227E0,8.599395752E-1
9.621183433E0,-1.641876221E0,-1.182235718E0,8.727264404E-1
9.626249351E0,-1.423492432E0,-1.697830200E0,8.215942383E-1
9.631284751E0,-1.334014893E0,-2.163345337E0,7.576751709E-1
9.636320152E0,-1.278610229E0,-2.267745972E0,7.683258057E-1
9.641355552E0,-1.172088623E0,-1.927932739E0,8.588867188E-1
9.646421470E0,-1.045318604E0,-1.391036987E0,1.001632690E0
9.651456871E0,-9.888610840E-1,-8.264465332E-1,1.099624634E0
9.656492271E0,-9.760742188E-1,-1.840820312E-1,1.037841797E0
9.661527671E0,-9.718170166E-1,2.931518555E-1,8.855133057E-1
9.666593589E0,-1.094329834E0,4.422912598E-1,7.928314209E-1
9.671628990E0,-1.327621460E0,3.069915771E-1,7.928314209E-1
9.676664390E0,-1.463973999E0,-8.697509766E-4,8.301239014E-1
9.681699790E0,-1.426681519E0,-2.778320312E-1,8.674011230E-1
9.686765708E0,-1.339340210E0,-4.109954834E-1,8.972320557E-1
9.691801109E0,-1.285003662E0,-4.418792725E-1,9.441070557E-1
9.696836509E0,-1.274353027E0,-4.610595703E-1,1.014404297E0
9.701871910E0,-1.283935547E0,-5.196533203E-1,1.098571777E0
9.706937828E0,-1.292465210E0,-5.750427246E-1,1.173126221E0
9.711973228E0,-1.290328979E0,-5.835571289E-1,1.241317749E0
9.717008628E0,-1.279678345E0,-5.334930420E-1,1.320144653E0
9.722044029E0,-1.255172729E0,-4.674530029E-1,1.408554077E0
9.727109947E0,-1.218963623E0,-4.259033203E-1,1.502304077E0
9.732145347E0,-1.185928345E0,-4.013977051E-1,1.599243164E0
9.737180747E0,-1.165695190E0,-3.939514160E-1,1.687652588E0
9.742216148E0,-1.171020508E0,-4.120635986E-1,1.746246338E0
9.747282066E0,-1.197647095E0,-4.514770508E-1,1.763290405E0
9.752317466E0,-1.244522095E0,-4.685211182E-1,1.729202271E0
9.757352867E0,-1.295654297E0,-4.685211182E-1,1.651443481E0
9.762388267E0,-1.325485229E0,-4.844970703E-1,1.556625366E0
9.767454185E0,-1.337203979E0,-5.068664551E-1,1.458618164E0
9.772489585E0,-1.336135864E0,-5.409545898E-1,1.363815308E0
9.777524986E0,-1.331878662E0,-6.091308594E-1,1.277526855E0
9.782560386E0,-1.326553345E0,-6.943511963E-1,1.208282471E0
9.787626304E0,-1.325485229E0,-7.497406006E-1,1.160354614E0
9.792661705E0,-1.340393066E0,-7.572021484E-1,1.140106201E0
9.797697105E0,-1.364898682E0,-7.050018311E-1,1.133712769E0
9.802732505E0,-1.390472412E0,-6.272430420E-1,1.132659912E0
9.807798423E0,-1.410705566E0,-5.718383789E-1,1.132659912E0
9.812833824E0,-1.426681519E0,-5.697174072E-1,1.130523682E0
9.817869224E0,-1.447998047E0,-6.048736572E-1,1.129455566E0
9.822904624E0,-1.474624634E0,-6.229858398E-1,1.135848999E0
9.827970542E0,-1.489532471E0,-5.931549072E-1,1.160354614E0
9.833005943E0,-1.500183105E0,-5.303039551E-1,1.183792114E0
9.838041343E0,-1.503387451E0,-4.812927246E-1,1.195510864E0
9.843076744E0,-1.504455566E0,-4.642486572E-1,1.194442749E0
9.848142662E0,-1.507644653E0,-4.727783203E-1,1.197631836E0
9.853178062E0,-1.518295288E0,-4.631958008E-1,1.211486816E0
9.858213462E0,-1.539596558E0,-3.790283203E-1,1.220001221E0
9.863248863E0,-1.576889038E0,-2.480010986E-1,1.215744019E0
9.868314781E0,-1.623764038E0,-1.563873291E-1,1.205093384E0
9.873350181E0,-1.667434692E0,-1.255035400E-1,1.180587769E0
9.878385581E0,-1.702590942E0,-9.780883789E-2,1.150756836E0
9.883420982E0,-1.729217529E0,-9.674072266E-2,1.130523682E0
9.888486900E0,-1.748397827E0,-1.308288574E-1,1.120941162E0
9.893522300E0,-1.771835327E0,-1.819610596E-1,1.116668701E0
9.898557701E0,-1.800598145E0,-2.320251465E-1,1.113479614E0
9.903593101E0,-1.816574097E0,-2.725067139E-1,1.123062134E0
9.908659019E0,-1.815505981E0,-3.108520508E-1,1.147567749E0
9.913694419E0,-1.824035645E0,-3.332214355E-1,1.152893066E0
9.918729820E0,-1.860244751E0,-3.438720703E-1,1.140106201E0
9.923765220E0,-1.902862549E0,-3.662567139E-1,1.124130249E0
9.928831138E0,-1.940139771E0,-4.163208008E-1,1.106018066E0
9.933866539E0,-1.960388184E0,-4.674530029E-1,1.096435547E0
9.938901939E0,-1.977432251E0,-4.621276855E-1,1.084716797E0
9.943937339E0,-2.013641357E0,-3.769073486E-1,1.064483643E0
9.949003257E0,-2.046676636E0,-2.597198486E-1,1.052764893E0
9.954038658E0,-2.042404175E0,-1.734313965E-1,1.062347412E0
9.959074058E0,-1.984878540E0,-9.674072266E-2,1.081527710E0
9.964109458E0,-1.902862549E0,-4.454040527E-2,1.086853027E0
9.969175376E0,-1.835754395E0,-5.305480957E-2,1.072998047E0
9.974210777E0,-1.802719116E0,-9.034729004E-2,1.038909912E0
9.979246177E0,-1.762237549E0,-1.031341553E-1,9.749908447E-1
9.984312095E0,-1.701522827E0,-9.034729004E-2,8.983001709E-1
9.989347496E0,-1.638671875E0,-1.382904053E-1,8.375701904E-1
9.994382896E0,-1.588607788E0,-2.288360596E-1,7.864379883E-1
9.999418296E0,-1.521499634E0,-3.992767334E-1,7.342376709E-1
1.000445370E1,-1.410705566E0,-6.251068115E-1,7.044219971E-1
1.000951962E1,-1.298858643E0,-7.380218506E-1,7.001495361E-1
1.001455502E1,-1.226409912E0,-7.113952637E-1,6.980285645E-1
1.001959042E1,-1.204040527E0,-6.006011963E-1,6.820526123E-1
1.002465633E1,-1.192321777E0,-4.876861572E-1,6.650085449E-1
1.002969173E1,-1.153976440E0,-4.035339355E-1,6.671295166E-1
1.003472713E1,-1.086868286E0,-3.374938965E-1,6.692657471E-1
1.003976254E1,-9.973907471E-1,-2.522735596E-1,6.596832275E-1
1.004482845E1,-9.047088623E-1,-1.606597900E-1,6.372985840E-1
1.004986385E1,-8.237457275E-1,-6.797790527E-2,6.085510254E-1
1.005489925E1,-7.459869385E-1,2.896118164E-2,5.755157471E-1
1.005993465E1,-6.639556885E-1,1.269683838E-1,5.361022949E-1
1.006497005E1,-5.776672363E-1,2.143249512E-1,4.966888428E-1
1.007003597E1,-4.892578125E-1,2.878265381E-1,4.700622559E-1
1.007507137E1,-4.029693604E-1,3.549346924E-1,4.423675537E-1
1.008010677E1,-3.198699951E-1,4.188537598E-1,4.061431885E-1
1.008517269E1,-2.442474365E-1,4.657287598E-1,3.624725342E-1
1.009020809E1,-1.760711670E-1,5.030059814E-1,3.166656494E-1
1.009524349E1,-1.238708496E-1,5.498809814E-1,2.761840820E-1
1.010027889E1,-8.657836914E-2,5.818328857E-1,2.452850342E-1
1.010534481E1,-6.208801270E-2,5.924835205E-1,2.186584473E-1
1.011038021E1,-4.930114746E-2,6.138000488E-1,1.856384277E-1
1.011541561E1,-4.504394531E-2,6.446838379E-1,1.632690430E-1
1.012045101E1,-5.569458008E-2,6.574707031E-1,1.611328125E-1
1.012551693E1,-7.060241699E-2,6.649322510E-1,1.643218994E-1
1.013055233E1,-7.380676270E-2,7.117919922E-1,1.632690430E-1
1.013558773E1,-7.913208008E-2,7.682495117E-1,1.653900146E-1
1.014062313E1,-8.445739746E-2,8.236541748E-1,1.728515625E-1
1.014568905E1,-8.764648438E-2,8.960876465E-1,1.760406494E-1
1.015072445E1,-8.871459961E-2,9.674682617E-1,1.611328125E-1
1.015575985E1,-8.551025391E-2,1.028182983E0,1.281127930E-1
1.016079525E1,-7.699584961E-2,1.064407349E0,8.016967773E-2
1.016586117E1,-5.569458008E-2,1.058013916E0,2.584838867E-2
1.017089657E1,-1.733398438E-2,9.908905029E-1,-2.848815918E-2
1.017593197E1,4.231262207E-2,8.673248291E-1,-7.641601562E-2
1.018096737E1,1.307373047E-1,7.235107422E-1,-1.126403809E-1
1.018603329E1,2.425842285E-1,5.967559814E-1,-1.350097656E-1
1.019106869E1,3.863983154E-1,5.030059814E-1,-1.424713135E-1
1.019610409E1,5.408630371E-1,4.390869141E-1,-1.424713135E-1
1.020113949E1,6.836090088E-1,4.028778076E-1,-1.509857178E-1
1.020620541E1,7.954559326E-1,4.049987793E-1,-1.754913330E-1
1.021124081E1,8.540496826E-1,4.337615967E-1,-2.298126221E-1
1.021627621E1,8.604431152E-1,4.593353271E-1,-2.916107178E-1
1.022131161E1,8.465881348E-1,4.976806641E-1,-3.437957764E-1
