"Time (s)","Acceleration x (m/s^2)","Acceleration y (m/s^2)","Acceleration z (m/s^2)"
1.172512500E-2,-1.824228168E0,4.764110088E0,7.273283482E0
1.417595800E-2,-1.800299883E0,4.812265396E0,7.254140854E0
1.662127000E-2,-1.788335800E0,4.836193562E0,7.230212688E0
1.906356200E-2,-1.773978829E0,4.864907742E0,7.201498985E0
2.150486400E-2,-1.781157374E0,4.893621445E0,7.206284523E0
2.394575000E-2,-1.805085540E0,4.922335148E0,7.167999268E0
2.636241600E-2,-1.812264085E0,4.948656559E0,7.167999268E0
2.877908300E-2,-1.855334878E0,4.936692238E0,7.151249409E0
3.121965600E-2,-1.855334878E0,4.936692238E0,7.151249409E0
3.363632300E-2,-1.867298961E0,4.927121162E0,7.129714012E0
3.601710400E-2,-1.867298961E0,4.927121162E0,7.129714012E0
3.842179100E-2,-1.888834357E0,4.893621445E0,7.124928474E0
4.086236400E-2,-1.888834357E0,4.893621445E0,7.124928474E0
4.330293700E-2,-1.891227245E0,4.840979099E0,7.112964630E0
4.574887500E-2,-1.900798440E0,4.814658165E0,7.124928474E0
4.819918700E-2,-1.903191328E0,4.788337231E0,7.139285564E0
5.065580200E-2,-1.898405671E0,4.752145767E0,7.156035423E0
5.311851000E-2,-1.884048700E0,4.749752998E0,7.196712971E0
5.557887500E-2,-1.888834357E0,4.730610371E0,7.211070061E0
5.803736400E-2,-1.862513304E0,4.728217602E0,7.230212688E0
6.049434300E-2,-1.840977907E0,4.706682205E0,7.273283482E0
6.295022900E-2,-1.821835399E0,4.668396950E0,7.275676250E0
6.540512500E-2,-1.797907114E0,4.632504463E0,7.342675209E0
6.785918700E-2,-1.747657895E0,4.610969067E0,7.385746002E0
7.030116600E-2,-1.706979871E0,4.582255363E0,7.414460182E0
7.271439500E-2,-1.630409479E0,4.555934429E0,7.428816795E0
7.511007300E-2,-1.594517231E0,4.508078098E0,7.541279793E0
7.750502000E-2,-1.546660781E0,4.462614059E0,7.639684677E0
7.989996800E-2,-1.486840129E0,4.409972191E0,7.716254711E0
8.229569800E-2,-1.422233939E0,4.354937077E0,7.814360619E0
8.469142700E-2,-1.364507079E0,4.307080746E0,7.881359577E0
8.708637500E-2,-1.319043517E0,4.218546391E0,7.936394691E0
8.948132300E-2,-1.225723386E0,4.156033993E0,8.017750740E0
9.187705200E-2,-1.189831018E0,4.091427803E0,8.099106789E0
9.427278100E-2,-1.158724308E0,3.983750582E0,8.156833649E0
9.666772900E-2,-1.115653515E0,3.892823458E0,8.211868286E0
9.906267700E-2,-1.077368379E0,3.804288864E0,8.250153542E0
1.014584060E-1,-1.063011408E0,3.699004650E0,8.274081230E0
1.038541350E-1,-1.065404296E0,3.617349625E0,8.326724052E0
1.062490830E-1,-1.051047325E0,3.547957659E0,8.374580383E0
1.086440310E-1,-1.067797065E0,3.500101328E0,8.412865639E0
1.110397600E-1,-1.022333503E0,3.445066452E0,8.455936432E0
1.134354890E-1,-1.034297585E0,3.366103172E0,8.503792763E0
1.158304370E-1,-1.034297585E0,3.339782238E0,8.532505989E0
1.182253850E-1,-1.024726272E0,3.282354355E0,8.568398476E0
1.206211140E-1,-1.017547846E0,3.253640652E0,8.604290962E0
1.230168430E-1,-1.007976532E0,3.200998545E0,8.642576218E0
1.254117910E-1,-9.768698215E-1,3.112463951E0,8.616254807E0
1.278067390E-1,-9.816554785E-1,3.054737091E0,8.587541580E0
1.302024680E-1,-9.314061999E-1,3.071486950E0,8.556434631E0
1.325981980E-1,-9.218349457E-1,3.090928555E0,8.534899712E0
1.349931450E-1,-9.625129104E-1,3.052344322E0,8.556434631E0
1.373880930E-1,-1.012762189E0,3.014059305E0,8.604290962E0
1.397838230E-1,-1.039083242E0,2.985345364E0,8.659325600E0
1.421795520E-1,-1.029511929E0,2.908775091E0,8.712266922E0
1.445745000E-1,-1.015154958E0,2.894418001E0,8.807980537E0
1.469694480E-1,-9.936196208E-1,2.834597588E0,8.894122124E0
1.493651770E-1,-9.744769931E-1,2.777169704E0,8.961120605E0
1.517609060E-1,-9.337990284E-1,2.691028118E0,9.037691116E0
1.541558540E-1,-9.122636318E-1,2.600100994E0,9.128618240E0
1.565508020E-1,-8.691928387E-1,2.504088879E0,9.217152596E0
1.589465310E-1,-8.210372925E-1,2.396411896E0,9.277272224E0
1.613422600E-1,-7.779664397E-1,2.322234392E0,9.380164146E0
1.637372080E-1,-7.707880139E-1,2.231307030E0,9.447162628E0
1.661321560E-1,-7.875377536E-1,2.181057930E0,9.576375008E0
1.685278850E-1,-8.668000102E-1,2.250449657E0,9.751050949E0
1.709236140E-1,-9.242277741E-1,2.142772675E0,9.638588905E0
1.733185620E-1,-9.026923180E-1,2.018345833E0,9.629017830E0
1.757135100E-1,-8.763712645E-1,1.900798440E0,9.626625061E0
1.781092390E-1,-8.306085467E-1,1.759621978E0,9.600303650E0
1.805049680E-1,-7.851449251E-1,1.637588024E0,9.502198219E0
1.828999160E-1,-7.348956466E-1,1.513161182E0,9.456734657E0
1.852948640E-1,-7.325028181E-1,1.427019596E0,9.377771378E0
1.876905930E-1,-7.157530785E-1,1.364507079E0,9.387342453E0
1.900863230E-1,-7.085745931E-1,1.295115232E0,9.372985840E0
1.924812700E-1,-7.205387354E-1,1.273579836E0,9.361021042E0
1.948762180E-1,-7.229315639E-1,1.242473125E0,9.370592117E0
1.972719480E-1,-7.420741320E-1,1.204187989E0,9.375378609E0
1.996676770E-1,-7.492526174E-1,1.175474167E0,9.356235504E0
2.020626250E-1,-7.205387354E-1,1.110867858E0,9.327521324E0
2.044575730E-1,-7.013961077E-1,1.046261668E0,9.303593636E0
2.068533020E-1,-6.631109715E-1,9.337990284E-1,9.286844254E0
2.092490310E-1,-5.841478109E-1,7.923234105E-1,9.262915611E0
2.116439790E-1,-5.243272781E-1,7.157530785E-1,9.219545364E0
2.140389270E-1,-4.884349108E-1,6.463612318E-1,9.221938133E0
2.164346560E-1,-4.357928336E-1,5.697908998E-1,9.181260109E0
2.188303850E-1,-4.070789516E-1,5.075774789E-1,9.205188751E0
2.212253330E-1,-3.520440459E-1,4.334000051E-1,9.236295700E0
2.236202810E-1,-3.424727321E-1,3.855435550E-1,9.265308380E0
2.260160100E-1,-3.257229924E-1,3.711866140E-1,9.329915047E0
2.284117390E-1,-3.305086195E-1,3.568296731E-1,9.380164146E0
2.308066870E-1,-2.584248483E-1,3.592225015E-1,9.418449402E0
2.332016350E-1,-1.986042857E-1,3.640081584E-1,9.471091270E0
2.355973640E-1,-1.411765367E-1,3.879363835E-1,9.518947601E0
2.379930930E-1,-8.374879509E-2,4.238287210E-1,9.528518677E0
2.403880410E-1,-5.503492057E-2,5.099703074E-1,9.497411728E0
2.427829890E-1,-2.153540403E-2,5.315057039E-1,9.473484039E0
2.451787180E-1,1.914258115E-2,5.123631358E-1,9.401699066E0
2.475744480E-1,3.110669367E-2,5.051847100E-1,9.370592117E0
2.499693950E-1,0.000000000E0,4.884349108E-1,9.358628273E0
2.523643430E-1,-1.914258115E-2,5.003990531E-1,9.358628273E0
2.547600730E-1,-6.221338734E-2,5.099703074E-1,9.370592117E0
2.571558020E-1,-8.614161611E-2,4.764707983E-1,9.380164146E0
2.595506980E-1,-1.363908947E-1,4.310071766E-1,9.408877373E0
2.619456980E-1,-1.746760458E-1,4.094717801E-1,9.418449402E0
2.643414270E-1,-2.225325108E-1,3.999004960E-1,9.430413246E0
2.667371560E-1,-2.608176768E-1,3.807578981E-1,9.418449402E0
2.691321040E-1,-2.656033039E-1,3.927220106E-1,9.408877373E0
2.715270520E-1,-2.970091105E-1,4.238287210E-1,9.428020477E0
2.739227810E-1,-3.496512175E-1,4.668995142E-1,9.437591553E0
2.763185100E-1,-3.831507266E-1,5.171487927E-1,9.461520195E0
2.787134580E-1,-4.429712892E-1,5.602195859E-1,9.526125908E0
2.811084060E-1,-4.668995142E-1,5.961119533E-1,9.585947037E0
2.835041350E-1,-5.027918816E-1,6.367899179E-1,9.655338287E0
2.858998640E-1,-5.434698462E-1,7.109674215E-1,9.748658180E0
2.882948120E-1,-6.104688644E-1,8.234301209E-1,9.818050385E0
2.906897600E-1,-6.391827464E-1,8.979067206E-1,9.854242325E0
2.930854890E-1,-6.224330068E-1,9.505487680E-1,9.897313118E0
2.954812180E-1,-6.176473498E-1,1.055832982E0,9.916455269E0
2.978761140E-1,-6.176473498E-1,1.177866936E0,9.899705887E0
3.002710620E-1,-5.745765567E-1,1.287936807E0,9.835099220E0
3.026668430E-1,-5.075774789E-1,1.350150228E0,9.755837440E0
3.050625730E-1,-4.357928336E-1,1.422233939E0,9.705587387E0
3.074574680E-1,-3.329014480E-1,1.448554993E0,9.640981674E0
3.098524160E-1,-2.057827413E-1,1.431805253E0,9.597910881E0
3.122481980E-1,-6.221338734E-2,1.374078393E0,9.562018394E0
3.146439270E-1,1.268195957E-1,1.249651670E0,9.509376526E0
3.170388230E-1,3.855435550E-1,1.077368379E0,9.528518677E0
3.194337700E-1,6.942176819E-1,8.644071817E-1,9.557232857E0
3.218295520E-1,1.005583763E0,6.200401783E-1,9.562018394E0
3.242252810E-1,1.304686546E0,3.616153300E-1,9.597910881E0
3.266201770E-1,1.616052628E0,8.853443712E-2,9.593125343E0
3.290151250E-1,1.941476464E0,-1.722832322E-1,9.626625061E0
3.314109060E-1,2.228914261E0,-4.070789516E-1,9.624231339E0
3.338066350E-1,2.463410854E0,-6.152545214E-1,9.667302132E0
3.362015310E-1,2.659921408E0,-7.564310431E-1,9.729516029E0
3.385964790E-1,2.781955481E0,-8.931210637E-1,9.772586823E0
3.409922600E-1,2.848954439E0,-9.577272534E-1,9.827920914E0
3.433879890E-1,2.827419043E0,-9.505487680E-1,9.851848602E0
3.457828850E-1,2.710170746E0,-9.337990284E-1,9.842277527E0
3.481778330E-1,2.506481647E0,-8.691928387E-1,9.866206169E0
3.505736140E-1,2.269592285E0,-7.707880139E-1,9.880562782E0
3.529693430E-1,1.970489502E0,-6.463612318E-1,9.859027863E0
3.553642390E-1,1.618445396E0,-5.195416212E-1,9.856635094E0
3.577591870E-1,1.259222865E0,-3.472583890E-1,9.798908234E0
3.601549680E-1,8.476574421E-1,-1.914258152E-1,9.751050949E0
3.625506980E-1,4.094717801E-1,-2.632104978E-2,9.722337723E0
3.649455930E-1,-1.435693540E-2,1.339980662E-1,9.662516594E0
3.673405410E-1,-4.692923427E-1,3.233301640E-1,9.631410599E0
3.697363230E-1,-8.739784956E-1,5.003990531E-1,9.590732574E0
3.721320520E-1,-1.261615753E0,6.655037999E-1,9.545269012E0
3.745269480E-1,-1.510768414E0,7.875377536E-1,9.466305733E0
3.769218950E-1,-1.642373681E0,8.476574421E-1,9.356235504E0
3.793176770E-1,-1.494018674E0,7.492526174E-1,9.150154114E0
3.817134060E-1,-1.431805253E0,6.152545214E-1,9.023334503E0
3.841083020E-1,-1.769193292E0,1.531406492E-1,9.178867340E0
3.865032500E-1,-2.066202402E0,-2.898306549E-1,9.265308380E0
3.888990310E-1,-2.238485575E0,-5.123631358E-1,9.375378609E0
3.912947600E-1,-2.362912416E0,-5.219344497E-1,9.540482521E0
3.936896560E-1,-2.545065880E0,-3.161516786E-1,9.851848602E0
3.960846040E-1,-2.772384167E0,-1.004985496E-1,1.015573788E1
3.984803850E-1,-2.932703257E0,7.896314561E-2,1.040728283E1
4.008761140E-1,-3.093321562E0,2.344966233E-1,1.054845905E1
4.032710100E-1,-3.179463148E0,3.807578981E-1,1.058435154E1
4.056659580E-1,-3.289532900E0,4.884349108E-1,1.062024403E1
4.080617390E-1,-3.425923824E0,6.296114326E-1,1.061306572E1
4.104574680E-1,-3.586242914E0,7.755736113E-1,1.055563831E1
4.128523640E-1,-3.708575964E0,8.979067206E-1,1.045992470E1
4.152473120E-1,-3.880859137E0,1.005583763E0,1.029212856E1
4.176430930E-1,-4.053142548E0,1.141974568E0,1.015813065E1
4.200388230E-1,-4.191926003E0,1.259222865E0,1.005045319E1
4.224337180E-1,-4.264009953E0,1.331007600E0,9.904491425E0
4.248286660E-1,-4.304687977E0,1.328614831E0,9.765408516E0
4.272244480E-1,-4.316651821E0,1.275972724E0,9.660123825E0
4.296201770E-1,-4.249652863E0,1.170688510E0,9.578767776E0
4.320150730E-1,-4.110570431E0,1.029511929E0,9.540482521E0
4.344100200E-1,-3.890430450E0,8.715856671E-1,9.547661781E0
4.368058020E-1,-3.660719633E0,7.348956466E-1,9.562018394E0
4.392015310E-1,-3.368496180E0,5.602195859E-1,9.564411163E0
4.415964270E-1,-3.093321562E0,4.668995142E-1,9.552447319E0
4.439913750E-1,-2.856132984E0,3.831507266E-1,9.523733139E0
4.463871560E-1,-2.600100994E0,3.233301640E-1,9.547661781E0
4.487828850E-1,-2.370090723E0,3.113660514E-1,9.593125343E0
4.511777810E-1,-2.164308071E0,3.017947674E-1,9.657731056E0
4.535727290E-1,-1.951047778E0,3.281157911E-1,9.715159416E0
4.559685100E-1,-1.742872238E0,3.305086195E-1,9.786943436E0
4.583642390E-1,-1.522732496E0,3.376871049E-1,9.911669731E0
4.607591350E-1,-1.283151150E0,3.472583890E-1,1.006480980E1
4.631540830E-1,-1.096511006E0,3.640081584E-1,1.020359421E1
4.655498640E-1,-9.002995491E-1,3.999004960E-1,1.033280659E1
4.679455930E-1,-7.683951855E-1,4.381856322E-1,1.050538826E1
4.703404890E-1,-6.343970895E-1,5.171487927E-1,1.066331482E1
4.727354370E-1,-5.482555032E-1,5.434698462E-1,1.082602692E1
4.751312180E-1,-4.836492836E-1,6.032904387E-1,1.099382401E1
4.775269480E-1,-4.716851711E-1,6.678966284E-1,1.113021469E1
4.799218430E-1,-4.908277392E-1,7.468597889E-1,1.121157074E1
4.823167910E-1,-5.338985324E-1,8.186444640E-1,1.130967617E1
4.847125200E-1,-5.793621540E-1,8.763712645E-1,1.140299606E1
4.871082500E-1,-6.296114326E-1,9.912267923E-1,1.148913765E1
4.895031980E-1,-7.492526174E-1,1.134796143E0,1.147238827E1
4.918981450E-1,-8.931210637E-1,1.266401410E0,1.145085239E1
4.942938750E-1,-1.019940615E0,1.335793257E0,1.144845963E1
4.966896040E-1,-1.122832060E0,1.441376567E0,1.136471081E1
4.990845520E-1,-1.187438250E0,1.537089467E0,1.126660538E1
5.014795000E-1,-1.230509043E0,1.637588024E0,1.119721317E1
5.038752290E-1,-1.256830096E0,1.692622900E0,1.108953667E1
5.062709580E-1,-1.285543919E0,1.742872238E0,1.099382401E1
5.086659060E-1,-1.232901812E0,1.759621978E0,1.090738297E1
5.110608540E-1,-1.141974568E0,1.735693693E0,1.078295612E1
5.134566350E-1,-1.029511929E0,1.709372640E0,1.065613651E1
5.158523640E-1,-8.931210637E-1,1.663909078E0,1.052692413E1
5.182472600E-1,-6.966105103E-1,1.611266971E0,1.042403316E1
5.206422080E-1,-4.836492836E-1,1.613659739E0,1.035194874E1
5.230379370E-1,-2.679961324E-1,1.546660781E0,1.019641590E1
5.254336660E-1,-1.435693540E-2,1.460519075E0,1.005763149E1
5.278286140E-1,2.344966233E-1,1.359721422E0,9.978668213E0
5.302235620E-1,4.645066857E-1,1.235294700E0,9.868598938E0
5.326193430E-1,6.535396576E-1,1.187438250E0,9.791728973E0
5.350150730E-1,8.377870321E-1,1.175474167E0,9.815657616E0
5.374099680E-1,1.007976532E0,1.201795220E0,9.823135376E0
5.398049160E-1,1.051047325E0,1.223330617E0,9.753444672E0
5.422006980E-1,9.409775138E-1,1.206580877E0,9.696016312E0
5.445964270E-1,7.348956466E-1,1.240080357E0,9.652945518E0
5.469913230E-1,4.980062246E-1,1.275972724E0,9.633803368E0
5.493862700E-1,3.664009571E-1,1.383649707E0,9.693623543E0
5.517820520E-1,2.703889608E-1,1.572981834E0,9.770194054E0
5.541777810E-1,2.727817893E-1,1.924726725E0,9.818050385E0
5.565726770E-1,3.448655605E-1,2.200200319E0,9.897313118E0
5.589676250E-1,3.855435550E-1,2.255235434E0,9.997811317E0
5.613633540E-1,4.118646085E-1,2.228914261E0,1.016291618E1
5.637590830E-1,4.381856322E-1,2.164308071E0,1.020120144E1
5.661540310E-1,4.836492836E-1,2.059023857E0,1.010309505E1
5.685489790E-1,4.668995142E-1,1.931905150E0,9.928419113E0
5.709447080E-1,4.716851711E-1,1.728515267E0,9.710372925E0
5.733404370E-1,4.310071766E-1,1.443769336E0,9.449555397E0
5.757353850E-1,4.070789516E-1,1.055832982E0,9.310771942E0
5.781303330E-1,3.759722710E-1,6.487540603E-1,9.272486687E0
5.805260620E-1,3.759722710E-1,2.703889608E-1,9.339486122E0
5.829217910E-1,5.889334679E-1,1.914258115E-2,9.466305733E0
5.853167390E-1,9.625129104E-1,-9.810572863E-2,9.597910881E0
5.877116870E-1,1.158724308E0,-2.368894368E-1,9.533304214E0
5.901074160E-1,1.053440213E0,-4.549354017E-1,9.372985840E0
5.925031450E-1,6.918248534E-1,-8.811569214E-1,9.274879456E0
5.948980930E-1,1.603191197E-1,-1.498804331E0,9.432806015E0
5.972930410E-1,-3.257229924E-1,-1.980060697E0,9.882955551E0
5.996887700E-1,-6.463612318E-1,-2.190629244E0,1.060110188E1
6.020845000E-1,-7.253243923E-1,-2.123630047E0,1.136949635E1
6.044794480E-1,-6.367899179E-1,-2.008774519E0,1.202782249E1
6.068743950E-1,-4.405784607E-1,-1.970489502E0,1.250668621E1
6.092701250E-1,-2.392822653E-1,-2.003988981E0,1.272951698E1
6.116658540E-1,-1.674975827E-2,-2.109273195E0,1.274626732E1
6.140608020E-1,1.363908947E-1,-2.245664120E0,1.267687511E1
6.164557500E-1,2.632105052E-1,-2.410768747E0,1.257847023E1
6.188514790E-1,3.975076675E-1,-2.583351135E0,1.247557926E1
6.212472080E-1,6.248258352E-1,-2.659921408E0,1.235354519E1
6.236421560E-1,9.888339639E-1,-2.674278498E0,1.232483101E1
6.260371040E-1,1.465304732E0,-2.580958366E0,1.236790180E1
6.284328330E-1,2.169093609E0,-2.260020971E0,1.249711418E1
6.308285620E-1,2.750848770E0,-2.037488461E0,1.256889915E1
6.332235100E-1,2.889632463E0,-2.097309113E0,1.261436272E1
6.356184580E-1,2.889632463E0,-2.157129526E0,1.287547970E1
6.380141870E-1,2.882453918E0,-2.212164640E0,1.318923855E1
6.404099160E-1,2.908775091E0,-2.212164640E0,1.335912895E1
6.428048640E-1,2.868097067E0,-2.161915302E0,1.333998585E1
6.451998120E-1,2.781955481E0,-2.078166485E0,1.330409431E1
6.475955410E-1,2.722134829E0,-1.968096614E0,1.321555901E1
6.499912700E-1,2.767598391E0,-1.776371717E0,1.311715508E1
6.523862180E-1,2.901596546E0,-1.608874083E0,1.301665592E1
6.547811660E-1,3.049951553E0,-1.419841170E0,1.294965744E1
6.571768950E-1,3.181855917E0,-1.252044439E0,1.292094326E1
6.595726250E-1,3.258426189E0,-1.158724308E0,1.287308693E1
6.619675730E-1,3.337389469E0,-1.067797065E0,1.282523060E1
6.643625200E-1,3.330210924E0,-1.036690354E0,1.275105286E1
6.667582500E-1,3.320639610E0,-1.003190875E0,1.260718441E1
6.691539790E-1,3.349353552E0,-9.888339639E-1,1.242054367E1
6.715489270E-1,3.366103172E0,-9.529415965E-1,1.224347496E1
6.739438750E-1,3.378067255E0,-9.242277741E-1,1.208315659E1
6.763396040E-1,3.430709362E0,-9.074779749E-1,1.186032486E1
6.787353330E-1,3.476173162E0,-8.668000102E-1,1.170718384E1
6.811302810E-1,3.500101328E0,-8.330013752E-1,1.157557869E1
6.835252290E-1,3.528815269E0,-7.995018363E-1,1.144128132E1
6.859209580E-1,3.531208038E0,-7.468597889E-1,1.130728340E1
6.883166870E-1,3.497708559E0,-7.013961077E-1,1.116371441E1
6.907116350E-1,3.447459221E0,-6.990033388E-1,1.100818062E1
6.931065830E-1,3.392424345E0,-6.559324861E-1,1.084756279E1
6.955023120E-1,3.342175007E0,-6.008976102E-1,1.067527866E1
6.978980410E-1,3.325425386E0,-5.482555032E-1,1.045992470E1
7.002929890E-1,3.287140131E0,-5.123631358E-1,1.026102161E1
7.026879370E-1,3.265604734E0,-4.956133962E-1,1.005045319E1
7.050836660E-1,3.222533941E0,-4.668995142E-1,9.760622978E0
7.074793950E-1,3.256033421E0,-4.286143482E-1,9.468698502E0
7.098743430E-1,3.306282759E0,-4.262215197E-1,9.111868858E0
7.122692910E-1,3.401995659E0,-4.166502357E-1,8.812766075E0
7.146650200E-1,3.480958700E0,-4.022932947E-1,8.532505989E0
7.170607500E-1,3.545564890E0,-3.879363835E-1,8.305188179E0
7.194556980E-1,3.550350666E0,-3.735794425E-1,8.137690544E0
7.218506450E-1,3.545564890E0,-2.874378264E-1,8.003393173E0
7.242463750E-1,3.500101328E0,-1.746760458E-1,7.926823139E0
7.266421040E-1,3.368496180E0,-1.674975902E-1,7.869395256E0
7.290370520E-1,3.232105255E0,-1.866401732E-1,7.788039684E0
7.314320000E-1,3.110071182E0,-1.339980662E-1,7.840681553E0
7.338277290E-1,3.052344322E0,-6.939185411E-2,7.809575081E0
7.362234580E-1,2.987738132E0,-7.178467698E-3,7.816753387E0
7.386184060E-1,2.963809967E0,7.896314561E-2,7.828717709E0
7.410133540E-1,2.925524712E0,1.770688742E-1,7.783253670E0
7.434090830E-1,2.906382322E0,2.560320199E-1,7.749754429E0
7.458048120E-1,2.887239695E0,2.994019389E-1,7.685148239E0
7.481997600E-1,2.925524712E0,3.352942765E-1,7.594220638E0
7.505947080E-1,2.966202736E0,3.759722710E-1,7.481459141E0
7.529904370E-1,3.028416157E0,4.118646085E-1,7.285247803E0
7.553861660E-1,3.085843801E0,4.405784607E-1,7.009773731E0
7.577811140E-1,3.148356438E0,4.716851711E-1,6.717849731E0
7.601760620E-1,3.205784082E0,4.836492836E-1,6.411269188E0
7.625717910E-1,3.291925669E0,5.003990531E-1,6.133701801E0
7.649675200E-1,3.358924866E0,5.051847100E-1,5.815157413E0
7.673624680E-1,3.476173162E0,5.099703074E-1,5.465805054E0
7.697574160E-1,3.574278831E0,5.243272781E-1,5.099404335E0
7.721531450E-1,3.677469254E0,5.171487927E-1,4.781158924E0
7.745488750E-1,3.789932013E0,5.075774789E-1,4.491328239E0
7.769438230E-1,3.955036640E0,4.621138871E-1,4.225724697E0
7.793387700E-1,4.184747696E0,3.687937856E-1,3.957429647E0
7.817345000E-1,4.388436794E0,3.017947674E-1,3.718147278E0
7.841302290E-1,4.613361835E0,2.009970993E-1,3.502494097E0
7.865251770E-1,4.833800793E0,1.459621787E-1,3.356531858E0
7.889201250E-1,5.015655518E0,1.316052526E-1,3.224926710E0
7.913158540E-1,5.120939732E0,1.244267747E-1,3.098107100E0
7.937115830E-1,5.154438972E0,1.555334777E-1,2.947060108E0
7.961065310E-1,5.135296345E0,2.249253243E-1,2.834597588E0
7.985014790E-1,5.008476734E0,2.946162820E-1,2.717349291E0
8.008972080E-1,4.740181446E0,3.616153300E-1,2.638386011E0
8.032929370E-1,4.407579422E0,4.166502357E-1,2.576172590E0
8.056878850E-1,3.995714664E0,4.621138871E-1,2.523231506E0
8.080828330E-1,3.495315790E0,4.788636267E-1,2.477767944E0
8.104785620E-1,2.968595505E0,5.027918816E-1,2.410768747E0
8.128742910E-1,2.451446772E0,5.147559643E-1,2.384447813E0
8.152692390E-1,1.903191328E0,4.884349108E-1,2.377269268E0
8.176641870E-1,1.304686546E0,5.482555032E-1,2.331805706E0
8.200599160E-1,7.755736113E-1,5.554339290E-1,2.240878344E0
8.224556450E-1,3.041875660E-1,5.985047817E-1,1.984846354E0
8.248505930E-1,-5.742774159E-2,6.320042610E-1,1.628016710E0
8.272455410E-1,-2.129612118E-1,4.740779996E-1,1.453340650E0
8.296412700E-1,-2.488535494E-1,1.818545163E-1,1.436590910E0
8.320370000E-1,-1.986042857E-1,-1.579262912E-1,1.453340650E0
8.344319480E-1,-1.459621787E-1,-4.692923427E-1,1.505982757E0
8.368268950E-1,-1.363908947E-1,-7.277171612E-1,1.575374603E0
8.392226250E-1,-1.268195957E-1,-8.859425783E-1,1.668694735E0
8.416183540E-1,-1.746760458E-1,-9.936196208E-1,1.687837243E0
8.440133020E-1,-2.177468538E-1,-1.051047325E0,1.723729610E0
8.464082500E-1,-2.826521695E-1,-1.058225870E0,1.697408557E0
8.488039790E-1,-3.664009571E-1,-1.034297585E0,1.659123421E0
8.511997080E-1,-4.190430641E-1,-9.816554785E-1,1.613659739E0
8.535946560E-1,-4.980062246E-1,-9.672985673E-1,1.529910922E0
8.559896040E-1,-6.056832075E-1,-9.146564603E-1,1.460519075E0
8.583853330E-1,-7.564310431E-1,-8.859425783E-1,1.415055513E0
8.607810620E-1,-8.907282352E-1,-8.596215248E-1,1.359721422E0
8.631760100E-1,-9.601200819E-1,-9.050851464E-1,1.321436286E0
8.655709580E-1,-8.401798606E-1,-9.840483069E-1,1.314257860E0
8.679666870E-1,-6.104688644E-1,-1.125224829E0,1.335793257E0
8.703624160E-1,-2.898306549E-1,-1.299900889E0,1.424626827E0
8.727573640E-1,1.435693540E-2,-1.496411443E0,1.572981834E0
8.751523120E-1,2.464607358E-1,-1.618445396E0,1.771586061E0
8.775480410E-1,3.879363835E-1,-1.683051586E0,2.003988981E0
8.799437700E-1,3.831507266E-1,-1.675873160E0,2.209771633E0
8.823387180E-1,2.727817893E-1,-1.654337764E0,2.403590441E0
8.847336660E-1,1.148554832E-1,-1.642373681E0,2.624029160E0
8.871293950E-1,-1.268195957E-1,-1.613659739E0,2.793919563E0
8.895251250E-1,-3.855435550E-1,-1.623231053E0,2.944667339E0
8.919200730E-1,-5.697908998E-1,-1.714158297E0,3.093321562E0
8.943150200E-1,-6.774678826E-1,-1.857727647E0,3.234498024E0
8.967107500E-1,-6.463612318E-1,-2.056631088E0,3.349353552E0
8.991064790E-1,-5.458626747E-1,-2.228914261E0,3.471387386E0
9.015014270E-1,-3.807578981E-1,-2.425125837E0,3.588635683E0
9.038963750E-1,-1.339980662E-1,-2.595315218E0,3.691826344E0
9.062921040E-1,1.148554832E-1,-2.717349291E0,3.806681633E0
9.086878330E-1,3.831507266E-1,-2.810669184E0,3.943072557E0
9.110827810E-1,6.415755749E-1,-2.882453918E0,4.069892406E0
9.134777290E-1,9.146564603E-1,-2.925524712E0,4.237689018E0
9.158734580E-1,1.175474167E0,-2.978166819E0,4.371686935E0
9.182691870E-1,1.443769336E0,-3.009273529E0,4.543970108E0
9.206641350E-1,1.692622900E0,-3.054737091E0,4.692325115E0
9.230590830E-1,1.965703845E0,-3.100499868E0,4.845765114E0
9.254548120E-1,2.226521492E0,-3.167499065E0,4.982155800E0
9.278505410E-1,2.499303341E0,-3.289532900E0,5.137689114E0
9.302454890E-1,2.834597588E0,-3.435495138E0,5.372485161E0
9.326404370E-1,3.184248686E0,-3.622135162E0,5.650052547E0
9.350361660E-1,3.574278831E0,-3.787539244E0,6.026024818E0
9.374318950E-1,3.962215185E0,-3.935894251E0,6.451947212E0
9.398268430E-1,4.283152580E0,-4.057928085E0,6.923632145E0
9.422217910E-1,4.563112736E0,-4.110570431E0,7.440781116E0
9.446175200E-1,4.793122768E0,-4.156033993E0,7.943572998E0
9.470132500E-1,4.953442097E0,-4.218546391E0,8.441578865E0
9.494081980E-1,5.087440014E0,-4.252045631E0,8.944371223E0
9.518031450E-1,5.214259624E0,-4.299902439E0,9.418449402E0
9.541988750E-1,5.305186749E0,-4.364508629E0,9.832706451E0
9.565946040E-1,5.437091351E0,-4.443471432E0,1.023230743E1
9.589895520E-1,5.595017433E0,-4.543970108E0,1.057956600E1
9.613845000E-1,5.772086620E0,-4.654039860E0,1.092891788E1
9.637802290E-1,5.954239845E0,-4.704289436E0,1.122592735E1
9.661759580E-1,6.104988098E0,-4.771587372E0,1.153250790E1
9.685709060E-1,6.298806667E0,-4.776372910E0,1.185075283E1
9.709658540E-1,6.593422890E0,-4.836193562E0,1.215254784E1
9.733615830E-1,6.916453838E0,-4.907978535E0,1.242772293E1
9.757573120E-1,7.256533623E0,-4.960620403E0,1.265055466E1
9.781522600E-1,7.606184959E0,-4.989334106E0,1.284197998E1
9.805472080E-1,7.972286701E0,-5.056333542E0,1.300708485E1
9.829429370E-1,8.357830048E0,-5.149653435E0,1.315304661E1
9.853386660E-1,8.726624489E0,-5.266901970E0,1.329691505E1
9.877336140E-1,9.042476654E0,-5.362913609E0,1.342134190E1
9.901285620E-1,9.368199348E0,-5.468197823E0,1.354098320E1
9.925242910E-1,9.722337723E0,-5.583053589E0,1.365105343E1
9.949200200E-1,1.009591675E1,-5.714658737E0,1.375663662E1
9.973149680E-1,1.046471119E1,-5.805585861E0,1.387867069E1
9.997099160E-1,1.080927753E1,-5.889334679E0,1.401506138E1
1.002105645E0,1.110150051E1,-5.963811398E0,1.412513161E1
1.004501375E0,1.137906837E1,-6.028417587E0,1.419213009E1
1.006896270E0,1.162582779E1,-6.047560215E0,1.423520088E1
1.009291270E0,1.187228870E1,-6.076273918E0,1.421605873E1
1.011687000E0,1.213340569E1,-6.071488380E0,1.418255901E1
1.014082729E0,1.242533016E1,-6.059524059E0,1.408923912E1
1.016477677E0,1.275105286E1,-6.035595894E0,1.395524120E1
1.018872625E0,1.314347553E1,-5.987739563E0,1.379013634E1
1.021268354E0,1.352423382E1,-5.923133373E0,1.356251907E1
1.023664083E0,1.391934872E1,-5.824728489E0,1.328734398E1
1.026058979E0,1.430967808E1,-5.707480431E0,1.295683575E1
1.028453979E0,1.465902996E1,-5.580660820E0,1.258804131E1
1.030849708E0,1.499432373E1,-5.434698582E0,1.217408371E1
1.033245437E0,1.528385544E1,-5.281258583E0,1.173350525E1
1.035640333E0,1.553779411E1,-5.120939732E0,1.126181984E1
1.038035333E0,1.577946854E1,-4.936692238E0,1.078295612E1
1.040431062E0,1.599990749E1,-4.756931305E0,1.031844902E1
1.042826791E0,1.620329857E1,-4.630111694E0,9.815657616E0
1.045221687E0,1.640668678E1,-4.505684853E0,9.344271660E0
1.047616687E0,1.658166313E1,-4.412364960E0,8.874979019E0
1.050012416E0,1.674437523E1,-4.340580463E0,8.467900276E0
1.052408145E0,1.685683823E1,-4.271188259E0,8.096714020E0
1.054803093E0,1.695972824E1,-4.228117466E0,7.800003529E0
1.057198041E0,1.701237106E1,-4.175176620E0,7.548458099E0
1.059593770E0,1.702194214E1,-4.136891365E0,7.368996620E0
1.061989500E0,1.701954842E1,-4.129712582E0,7.232605457E0
1.064384395E0,1.700758553E1,-4.136891365E0,7.187141895E0
1.066779343E0,1.695494270E1,-4.175176620E0,7.163213730E0
1.069175125E0,1.684487343E1,-4.235296249E0,7.196712971E0
1.071570854E0,1.664626884E1,-4.268795490E0,7.318747044E0
1.073965750E0,1.639472389E1,-4.314259052E0,7.471887589E0
1.076360750E0,1.613629913E1,-4.369294167E0,7.615756035E0
1.078756479E0,1.585603905E1,-4.438685894E0,7.761718273E0
1.081152208E0,1.557607937E1,-4.510470867E0,7.895716667E0
1.083547104E0,1.531974792E1,-4.596612453E0,8.003393173E0
1.085942052E0,1.507328701E1,-4.668396950E0,8.115856171E0
1.088337833E0,1.484088421E1,-4.759324074E0,8.207082748E0
1.090733562E0,1.459920883E1,-4.852943420E0,8.262117386E0
1.093128458E0,1.437189102E1,-4.929513931E0,8.295617104E0
1.095523406E0,1.419691563E1,-4.970191956E0,8.321938515E0
1.097919187E0,1.407009602E1,-5.051547527E0,8.290831566E0
1.100314916E0,1.403181076E1,-5.106582642E0,8.283653259E0
1.102709812E0,1.401506138E1,-5.154438972E0,8.254939079E0
1.105104760E0,1.404856110E1,-5.195116997E0,8.192725182E0
1.107500541E0,1.410359573E1,-5.183153152E0,8.123034477E0
1.109896270E0,1.413470268E1,-5.142475128E0,8.022536278E0
1.112291166E0,1.420409393E1,-5.106582642E0,7.914859295E0
1.114686114E0,1.430220032E1,-5.137689114E0,7.766504288E0
1.117081895E0,1.434317684E1,-5.228616714E0,7.579864025E0
1.119477625E0,1.437189102E1,-5.252544880E0,7.495816231E0
1.121872520E0,1.422802258E1,-5.171188831E0,7.495816231E0
1.124267468E0,1.399591827E1,-4.986941338E0,7.522137165E0
1.126663250E0,1.365823174E1,-4.819443703E0,7.502994537E0
1.129058979E0,1.320598793E1,-4.713860512E0,7.345067978E0
1.131453875E0,1.267687511E1,-4.680361271E0,6.973881721E0
1.133848823E0,1.211426258E1,-4.756931305E0,6.528816700E0
1.136244604E0,1.152772236E1,-4.884049892E0,6.009274960E0
1.138640333E0,1.090020466E1,-5.010869503E0,5.422734261E0
1.141035229E0,1.019162941E1,-5.056333542E0,4.747360229E0
1.143430177E0,9.463912964E0,-5.032404900E0,4.005286217E0
1.145825958E0,8.781659126E0,-5.020441055E0,3.181855917E0
1.148221687E0,8.235795975E0,-4.979763031E0,2.269592285E0
1.150616583E0,7.991429329E0,-4.974977493E0,1.407876968E0
1.153011531E0,7.991429329E0,-5.063511848E0,6.104688644E-1
1.155407312E0,8.137690544E0,-5.178367138E0,-8.853443712E-2
1.157803041E0,8.350651741E0,-5.271687508E0,-6.726822853E-1
1.160197937E0,8.575576782E0,-5.298008442E0,-1.108475089E0
1.162592885E0,8.714659691E0,-5.259723186E0,-1.482054472E0
1.164988666E0,8.807980537E0,-5.190331459E0,-1.817049742E0
1.167384395E0,8.855836868E0,-5.073082924E0,-2.094916344E0
1.169779291E0,8.913264275E0,-4.941477776E0,-2.365305185E0
1.172174239E0,9.020941734E0,-4.860121727E0,-2.580958366E0
1.174569968E0,9.121439934E0,-4.829015255E0,-2.724527597E0
1.176965698E0,9.226723671E0,-4.852943420E0,-2.779562712E0
1.179360645E0,9.294022560E0,-4.860121727E0,-2.765205622E0
1.181755593E0,9.346664429E0,-4.879264355E0,-2.602493763E0
1.184151375E0,9.313164711E0,-4.840979099E0,-2.379662037E0
1.186547104E0,9.245866776E0,-4.805087090E0,-2.142772675E0
1.188942000E0,9.154939651E0,-4.788337231E0,-1.891227245E0
1.191336948E0,9.152546883E0,-4.821836948E0,-1.690230131E0
1.193732677E0,9.255437851E0,-4.891228676E0,-1.496411443E0
1.196128406E0,9.521340370E0,-5.030012131E0,-1.321436286E0
1.198523354E0,9.875777245E0,-5.247759342E0,-1.170688510E0
1.200918302E0,1.015334511E1,-5.372485161E0,-9.864411354E-1
1.203314031E0,1.040728283E1,-5.329114914E0,-6.559324861E-1
1.205709760E0,1.053888798E1,-5.161617756E0,-1.172483116E-1
1.208104708E0,1.051974583E1,-4.893621445E0,4.214358926E-1
1.210499656E0,1.048385334E1,-4.663611412E0,8.715856671E-1
1.212895385E0,1.066570759E1,-4.713860512E0,1.010369420E0
1.215291114E0,1.104168034E1,-5.001298428E0,9.242277741E-1
1.217686062E0,1.140060329E1,-5.358128071E0,9.529415965E-1
1.220081010E0,1.141735363E1,-5.434698582E0,1.218544960E0
1.222476739E0,1.117807102E1,-5.223830700E0,1.740479350E0
1.224872468E0,1.069920731E1,-4.596612453E0,2.252842426E0
1.227267416E0,1.034477043E1,-3.938287020E0,2.779562712E0
1.229662364E0,9.521340370E0,-3.931108475E0,1.039083242E0
1.232058093E0,8.494221687E0,-4.127319813E0,-4.017250061E0
1.234453823E0,9.758230209E0,-4.654039860E0,-3.497708559E0
1.236848770E0,1.156600761E1,-4.982155800E0,-3.185445070E-1
1.239243718E0,1.181964684E1,-5.516054630E0,1.513161182E0
1.241639448E0,1.108235836E1,-5.911169052E0,1.508375525E0
1.244035177E0,1.026341438E1,-5.688337803E0,1.225723386E0
1.246430125E0,9.495018959E0,-5.477769375E0,3.998107433E0
1.248825073E0,8.908478737E0,-5.209474087E0,6.622136593E0
1.251220802E0,8.099106789E0,-5.116153717E0,8.060821533E0
1.253616531E0,7.270890713E0,-5.238187790E0,9.126225471E0
1.256011479E0,6.543173313E0,-5.494519234E0,9.911669731E0
1.258406427E0,5.848656654E0,-5.717051506E0,1.035434151E1
1.260802156E0,5.199902534E0,-5.800800323E0,1.053410244E1
1.263197885E0,4.610969067E0,-5.803193092E0,1.060588741E1
1.265592833E0,4.043570995E0,-5.776872158E0,1.070399284E1
1.267987781E0,3.531208038E0,-5.796014786E0,1.073270702E1
1.270383510E0,3.047558784E0,-5.827121258E0,1.060110188E1
1.272779239E0,2.597707987E0,-5.836692810E0,1.025623608E1
1.275174135E0,2.269592285E0,-5.822335720E0,9.856635094E0
1.277569083E0,1.917548299E0,-5.683551788E0,9.466305733E0
1.279964864E0,1.556231976E0,-5.484947681E0,9.008976936E0
1.282360593E0,1.254437327E0,-5.324329376E0,8.446364403E0
1.284755489E0,1.065404296E0,-5.164010525E0,7.814360619E0
1.287150437E0,9.960124493E-1,-5.068297386E0,7.213462830E0
1.289546218E0,9.672985673E-1,-4.982155800E0,6.727420807E0
1.291941948E0,1.053440213E0,-4.905585289E0,6.320342064E0
1.294336843E0,1.120439172E0,-4.768895626E0,5.894419670E0
1.296731791E0,1.189831018E0,-4.618147850E0,5.518447399E0
1.299127573E0,1.311864972E0,-4.407579422E0,5.199902534E0
1.301523302E0,1.443769336E0,-4.228117466E0,4.972584724E0
1.303918198E0,1.637588024E0,-4.067499161E0,4.781158924E0
1.306313145E0,1.802692771E0,-3.950251102E0,4.589433670E0
1.308708927E0,1.943869352E0,-3.880859137E0,4.453042984E0
1.311104656E0,2.068595171E0,-3.840181351E0,4.338187218E0
1.313499552E0,2.238485575E0,-3.801896095E0,4.285545349E0
1.315894500E0,2.372483730E0,-3.785146236E0,4.268795490E0
1.318290281E0,2.456232548E0,-3.823431492E0,4.240081787E0
1.320686010E0,2.525923491E0,-3.821038723E0,4.211368084E0
1.323080906E0,2.640778780E0,-3.830610037E0,4.213760853E0
1.325475854E0,2.705385208E0,-3.792324781E0,4.208974838E0
1.327871635E0,2.793919563E0,-3.746861219E0,4.223331928E0
1.330267364E0,2.798705101E0,-3.770789385E0,4.112963200E0
1.332662260E0,2.868097067E0,-3.754039526E0,3.928715706E0
1.335057208E0,2.911167860E0,-3.732504129E0,3.797110319E0
1.337452989E0,2.975774050E0,-3.696611881E0,3.547957659E0
1.339848718E0,3.093321562E0,-3.576671600E0,3.289532900E0
1.342243614E0,3.181855917E0,-3.485744476E0,3.006880760E0
1.344638562E0,3.239283562E0,-3.392424345E0,2.705385208E0
1.347034343E0,3.380460262E0,-3.208176851E0,2.427518606E0
1.349430073E0,3.638885021E0,-3.052344322E0,2.178664923E0
1.351824968E0,3.967000723E0,-2.954238653E0,1.912762642E0
1.354219916E0,4.283152580E0,-2.923131943E0,1.695015788E0
1.356615645E0,4.512863636E0,-2.975774050E0,1.477268934E0
1.359011375E0,4.725824833E0,-3.030808926E0,1.362114310E0
1.361406323E0,4.817050934E0,-3.033201694E0,1.369292736E0
1.363801270E0,4.682754040E0,-3.117249727E0,1.472483277E0
1.366197000E0,4.371686935E0,-3.241676569E0,1.618445396E0
1.368592729E0,3.964607954E0,-3.411566973E0,1.807478428E0
1.370987677E0,3.464209080E0,-3.622135162E0,2.068595171E0
1.373382625E0,2.906382322E0,-3.928715706E0,2.264806747E0
1.375778354E0,2.427518606E0,-4.208974838E0,2.303091764E0
1.378174083E0,2.130808592E0,-4.350151539E0,2.501696110E0
1.380569031E0,1.596910000E0,-4.565505505E0,2.612065077E0
1.382963979E0,5.793621540E-1,-4.953442097E0,2.047059774E0
1.385359708E0,3.424727321E-1,-5.288437366E0,1.283151150E0
1.387755437E0,1.556231976E0,-5.159224510E0,1.905584097E0
1.390150385E0,2.671885490E0,-4.888835907E0,2.667099953E0
1.392545333E0,2.954238653E0,-4.843372345E0,2.920739174E0
1.394941062E0,2.853740215E0,-4.759324074E0,3.366103172E0
1.397336791E0,2.700599432E0,-4.639683247E0,4.112963200E0
1.399731739E0,2.592922449E0,-4.622933388E0,4.756931305E0
1.402126687E0,2.554637194E0,-4.771587372E0,5.156831741E0
1.404522416E0,2.671885490E0,-5.022833824E0,5.290830135E0
1.406918145E0,2.949453115E0,-5.207081318E0,5.295615673E0
1.409313093E0,3.239283562E0,-5.355735302E0,5.228616714E0
1.411708041E0,3.579064369E0,-5.336592674E0,5.171188831E0
1.414103770E0,3.902394533E0,-5.247759342E0,5.240580559E0
1.416499500E0,4.266402721E0,-5.087440014E0,5.374877930E0
1.418894395E0,4.687539577E0,-4.941477776E0,5.528018475E0
1.421289395E0,5.099404335E0,-4.831408024E0,5.705087185E0
1.423685125E0,5.439484119E0,-4.718646049E0,5.879763603E0
1.426080854E0,5.731408596E0,-4.654039860E0,6.045167446E0
1.428475750E0,6.009274960E0,-4.615755081E0,6.200700760E0
1.430870750E0,6.250949860E0,-4.601397991E0,6.375376701E0
1.433266479E0,6.382555485E0,-4.661218643E0,6.473781586E0
1.435662208E0,6.439982891E0,-4.761716843E0,6.564708710E0
1.438057104E0,6.399304867E0,-4.900799751E0,6.631708145E0
1.440452052E0,6.274878502E0,-5.061119080E0,6.686742783E0
1.442847833E0,6.112166405E0,-5.257330418E0,6.686742783E0
1.445243562E0,6.004489422E0,-5.405984402E0,6.691528320E0
1.447638458E0,5.954239845E0,-5.556732178E0,6.626922131E0
1.450033406E0,6.016453266E0,-5.731408596E0,6.586244106E0
1.452429187E0,6.121737480E0,-5.899205208E0,6.588637352E0
1.454824916E0,6.310770512E0,-6.016453266E0,6.634100914E0
1.457219812E0,6.636493683E0,-6.052345753E0,6.727420807E0
1.459614760E0,7.086643219E0,-5.961418629E0,6.820741177E0
1.462010541E0,7.502994537E0,-5.839085579E0,6.952346325E0
1.464406270E0,7.902894974E0,-5.693123341E0,7.096214771E0
1.466801166E0,8.223832130E0,-5.580660820E0,7.213462830E0
1.469196114E0,8.503792763E0,-5.468197823E0,7.306783199E0
1.471591843E0,8.726624489E0,-5.374877930E0,7.354639530E0
1.473987573E0,8.894122124E0,-5.257330418E0,7.357032299E0
1.476382520E0,8.982656479E0,-5.164010525E0,7.321139812E0
1.478777468E0,9.056833267E0,-5.132903576E0,7.230212688E0
1.481173198E0,9.107083321E0,-5.097011566E0,7.122535706E0
1.483568927E0,9.090332985E0,-5.068297386E0,6.990631580E0
1.485963875E0,9.016156197E0,-5.075475693E0,6.923632145E0
1.488358823E0,8.927620888E0,-5.080261707E0,6.830312252E0
1.490754552E0,8.784051895E0,-5.070690155E0,6.794419765E0
1.493150281E0,8.613862038E0,-5.061119080E0,6.765706062E0
1.495545229E0,8.417651176E0,-5.030012131E0,6.698707104E0
1.497940177E0,8.274081230E0,-5.037190914E0,6.686742783E0
1.500335906E0,8.147261620E0,-5.044369221E0,6.650850773E0
1.502731635E0,8.067999840E0,-5.041976452E0,6.669992924E0
1.505126583E0,8.063214302E0,-5.044369221E0,6.672386169E0
1.507521531E0,8.161619186E0,-5.039583683E0,6.715456963E0
1.509917260E0,8.348258972E0,-5.025226593E0,6.815955162E0
1.512312989E0,1.045753193E1,-5.053940296E0,6.109773636E0
1.514707937E0,1.378295708E1,-4.919942379E0,4.445864677E0
1.517102885E0,1.627268982E1,-4.374079704E0,2.858525753E0
1.519498614E0,1.753430557E1,-3.509672642E0,1.862513304E0
1.521894343E0,1.793420601E1,-2.597707987E0,1.386042476E0
1.524289291E0,1.786242104E1,-1.824228168E0,1.230509043E0
1.526684239E0,1.760848236E1,-1.314257860E0,1.254437327E0
1.529079968E0,1.729980850E1,-1.063011408E0,1.316650629E0
1.531475698E0,1.703629875E1,-1.058225870E0,1.369292736E0
1.533870645E0,1.678026772E1,-1.235294700E0,1.386042476E0
1.536265541E0,1.648086548E1,-1.501197100E0,1.410269856E0
1.538661323E0,1.604058647E1,-1.793121457E0,1.458126307E0
1.541057052E0,1.528624821E1,-2.159522533E0,1.601695657E0
1.543451948E0,1.332802200E1,-2.688635349E0,1.680658817E0
1.545846895E0,1.082841969E1,-3.323032379E0,1.764407635E0
1.548242677E0,9.102297783E0,-3.981357813E0,2.114058733E0
1.550638406E0,8.113463402E0,-4.560719967E0,2.576172590E0
1.553033302E0,7.507780075E0,-5.034798145E0,3.083451033E0
1.555428250E0,7.053143978E0,-5.331807137E0,3.524029493E0
1.557824031E0,6.701099873E0,-5.523232937E0,3.974179268E0
1.560219760E0,6.401698112E0,-5.602196217E0,4.381258488E0
1.562614656E0,6.329913139E0,-5.532804012E0,4.807479858E0
1.565009604E0,6.246164322E0,-5.441876888E0,5.209474087E0
1.567405385E0,6.030810356E0,-5.319543839E0,5.630909920E0
1.569801114E0,5.788836002E0,-5.209474087E0,5.980561256E0
1.572196010E0,5.559125423E0,-5.135296345E0,6.224628925E0
1.574590958E0,5.396413326E0,-5.053940296E0,6.322734833E0
1.576986687E0,5.288437366E0,-4.960620403E0,6.260521412E0
1.579382416E0,5.262115955E0,-4.879264355E0,6.198307991E0
1.581777364E0,5.305186749E0,-4.742574692E0,6.071488380E0
1.584172312E0,5.350949764E0,-4.587040901E0,5.956633091E0
1.586568041E0,5.429912567E0,-4.443471432E0,5.767300606E0
1.588963770E0,5.532804012E0,-4.295116425E0,5.484947681E0
1.591358718E0,5.604588985E0,-4.160819530E0,5.221437931E0
1.593753666E0,5.662016392E0,-4.055535316E0,5.008476734E0
1.596149395E0,5.707480431E0,-3.983750582E0,4.805087090E0
1.598545125E0,5.700301647E0,-3.866502285E0,4.625326157E0
1.600940073E0,5.650052547E0,-3.809074640E0,4.472185612E0
1.603335020E0,5.542375565E0,-3.777967930E0,4.342973232E0
1.605730750E0,5.360520840E0,-3.756432533E0,4.271188259E0
1.608126479E0,5.202295303E0,-3.703790426E0,4.182354927E0
1.610521427E0,5.070690155E0,-3.677469254E0,4.079463482E0
1.612916375E0,4.991727352E0,-3.651148319E0,3.993321896E0
1.615312104E0,4.998905659E0,-3.665505171E0,3.900001764E0
1.617707833E0,5.101797104E0,-3.703790426E0,3.782753468E0
1.620102781E0,5.216652393E0,-3.722932816E0,3.670290947E0
1.622497677E0,5.358128071E0,-3.742075443E0,3.512065411E0
1.624893458E0,5.504090309E0,-3.780360699E0,3.366103172E0
1.627289187E0,5.614160061E0,-3.804288864E0,3.265604734E0
1.629684083E0,5.652445316E0,-3.825824261E0,3.145963669E0
1.632079031E0,5.690730572E0,-3.888037682E0,3.107678413E0
1.634474812E0,5.702694416E0,-3.947858334E0,3.061915636E0
1.636870541E0,5.652445316E0,-4.007678986E0,2.961417198E0
1.639265437E0,5.585446358E0,-4.096213341E0,2.813062191E0
1.641660385E0,5.542375565E0,-4.184747696E0,2.662314177E0
1.644056166E0,5.523232937E0,-4.256831646E0,2.477767944E0
1.646451895E0,5.463412285E0,-4.297509670E0,2.252842426E0
1.648846791E0,5.417948723E0,-4.307080746E0,2.116451740E0
1.651241739E0,5.403591633E0,-4.297509670E0,2.003988981E0
1.653637520E0,5.396413326E0,-4.290330887E0,1.917548299E0
1.656033250E0,5.396413326E0,-4.323830605E0,1.941476464E0
1.658428145E0,5.429912567E0,-4.362115860E0,2.025524378E0
1.660823093E0,5.532804012E0,-4.319045067E0,2.094916344E0
1.663218823E0,5.738586903E0,-4.302295208E0,2.137987137E0
1.665614552E0,6.102594852E0,-4.225724697E0,2.106880426E0
1.668009500E0,6.571887493E0,-4.165605068E0,2.207378864E0
1.670404448E0,7.019644260E0,-4.057928085E0,2.245664120E0
1.672800177E0,7.364210606E0,-3.626920938E0,1.809871197E0
1.675195906E0,8.017750740E0,-3.495315790E0,1.101296663E0
1.677590854E0,8.520542145E0,-3.559921980E0,1.354935765E0
1.679985802E0,8.652147293E0,-4.175176620E0,2.860918522E0
1.682381531E0,8.269295692E0,-4.915156841E0,4.191926003E0
1.684777260E0,7.838288784E0,-5.293222904E0,4.383651257E0
1.687172208E0,7.507780075E0,-5.185545921E0,3.397209883E0
1.689567156E0,7.483851910E0,-4.768895626E0,2.204986095E0
1.691962885E0,7.778468132E0,-4.400400639E0,1.316650629E0
1.694358614E0,8.039285660E0,-4.512863636E0,1.271187067E0
1.696753510E0,8.108677864E0,-4.963013172E0,1.922333837E0
1.699148510E0,8.008178711E0,-5.370092392E0,2.705385208E0
1.701544239E0,7.572386265E0,-5.216652393E0,2.832204819E0
1.703939968E0,6.717849731E0,-4.618147850E0,2.116451740E0
1.706334864E0,5.566303730E0,-3.504886866E0,1.244267747E-1
1.708729812E0,4.934299469E0,-2.396411896E0,-1.362114310E0
1.711125593E0,5.561518192E0,-2.501696110E0,-4.692923427E-1
1.713521323E0,6.423233509E0,-3.476173162E0,1.220937729E0
1.715916218E0,6.033203125E0,-3.576671600E0,1.311864972E0
1.718311166E0,3.885644913E0,-2.312663078E0,-5.291129351E-1
1.720706948E0,2.003988981E0,-1.086939692E0,-1.503589988E0
1.723102677E0,2.073380709E0,-1.680658817E0,-1.914258115E-2
1.725497573E0,2.520838737E0,-2.659921408E0,1.436590910E0
1.727892520E0,1.690230131E0,-2.535494804E0,1.888834357E0
1.730288250E0,1.860120535E0,-2.741277456E0,3.071486950E0
1.732683979E0,3.406781197E0,-3.507279873E0,5.144867897E0
1.735078927E0,4.228117466E0,-3.739682674E0,6.349055767E0
1.737473875E0,3.756432533E0,-3.574278831E0,6.686742783E0
1.739869604E0,3.483351469E0,-3.538386583E0,6.803991318E0
1.742265333E0,4.179962158E0,-3.806681633E0,6.655636311E0
1.744660281E0,4.469792843E0,-4.055535316E0,6.294020653E0
1.747055229E0,4.283152580E0,-4.321437836E0,5.855835438E0
1.749450958E0,4.000500202E0,-4.510470867E0,5.523232937E0
1.751846687E0,4.206283092E0,-4.752145767E0,5.525625706E0
1.754241635E0,5.288437366E0,-4.876871586E0,5.511268616E0
1.756636583E0,5.827121258E0,-4.764110088E0,4.845765114E0
1.759032312E0,5.676373482E0,-4.551148891E0,3.701397419E0
1.761428041E0,5.417948723E0,-4.536791801E0,2.566601276E0
1.763822989E0,5.645267010E0,-4.778766155E0,1.836192250E0
1.766217937E0,7.512565613E0,-5.848656654E0,2.676671267E0
1.768613666E0,8.898907661E0,-6.535995007E0,4.057928085E0
1.771009395E0,9.212367058E0,-6.598208427E0,4.311866283E0
1.773404291E0,8.913264275E0,-6.524031162E0,4.268795490E0
1.775799239E0,8.973084450E0,-6.906882763E0,4.445864677E0
1.778195020E0,9.703194618E0,-7.649255753E0,4.359723091E0
1.780590750E0,1.044317532E1,-8.446364403E0,4.158426762E0
1.782985645E0,1.034955597E1,-8.968298912E0,3.962215185E0
1.785380593E0,1.019402313E1,-9.349057198E0,3.864109516E0
1.787776375E0,9.897313118E0,-9.786943436E0,3.737289906E0
1.790172104E0,9.566803932E0,-1.028016472E1,3.476173162E0
1.792567000E0,9.803693771E0,-1.131685448E1,2.482553482E0
1.794961948E0,1.046949673E1,-1.282762337E1,1.427019596E0
1.797357729E0,1.085474110E1,-1.370608807E1,1.302293777E0
1.799753458E0,1.063460159E1,-1.373958778E1,1.683051586E0
1.802148354E0,1.023948669E1,-1.330648708E1,2.061416626E0
1.804543302E0,1.005523872E1,-1.286830139E1,2.114058733E0
1.806939031E0,1.005284595E1,-1.257368469E1,1.963011861E0
1.809334760E0,1.006720352E1,-1.250668621E1,1.496411443E0
1.811729708E0,1.010548782E1,-1.257368469E1,1.067797065E0
1.814124656E0,1.013420200E1,-1.258086300E1,6.918248534E-1
1.816520385E0,1.005523872E1,-1.248036480E1,3.544368446E-1
1.818916114E0,9.945169449E0,-1.232961655E1,-4.307080805E-2
1.821311062E0,9.823135376E0,-1.209512043E1,-5.267201066E-1
1.823706010E0,9.743872643E0,-1.182443237E1,-9.768698215E-1
1.826101739E0,9.705587387E0,-1.150349522E1,-1.359721422E0
1.828497468E0,9.640981674E0,-1.117328548E1,-1.651944876E0
1.830892416E0,9.612267494E0,-1.085952663E1,-1.857727647E0
1.833287364E0,9.535696983E0,-1.055085278E1,-1.970489502E0
1.835683093E0,9.404091835E0,-1.020837975E1,-2.047059774E0
1.838078823E0,9.255437851E0,-9.937990189E0,-2.027917147E0
1.840473718E0,9.083154678E0,-9.669695854E0,-1.805085540E0
1.842868666E0,8.884550095E0,-9.394520760E0,-1.534696579E0
1.845264448E0,8.465507507E0,-9.087940216E0,-1.247258782E0
1.847660177E0,7.955537319E0,-8.824729919E0,-9.960124493E-1
1.850055073E0,7.584649563E0,-8.654540062E0,-7.779664397E-1
1.852450020E0,7.218248844E0,-8.494221687E0,-4.549354017E-1
1.854845802E0,6.947560310E0,-8.331509590E0,-8.135596663E-2
1.857241531E0,6.684350014E0,-8.132605553E0,2.946162820E-1
1.859636427E0,6.439982891E0,-7.972286701E0,5.937191248E-1
1.862031375E0,6.380162239E0,-7.857431412E0,8.668000102E-1
1.864427104E0,6.382555485E0,-7.754539967E0,1.084546804E0
1.866822833E0,6.308377743E0,-7.618149281E0,1.266401410E0
1.869217781E0,6.195915222E0,-7.467102051E0,1.443769336E0
1.871612729E0,5.963811398E0,-7.270890713E0,1.546660781E0
1.874008458E0,5.130510807E0,-7.043572426E0,1.541875124E0
1.876404187E0,3.854538202E0,-6.923632145E0,1.410269856E0
1.878799135E0,3.931108475E0,-7.045965195E0,1.695015788E0
1.881194083E0,4.134498596E0,-7.081857681E0,2.059023857E0
1.883589812E0,3.978965044E0,-6.935596466E0,2.477767944E0
1.885985541E0,3.651148319E0,-6.739385128E0,2.911167860E0
1.888380489E0,3.334996462E0,-6.543173313E0,3.193820000E0
1.890775437E0,3.643670797E0,-6.353841305E0,3.646063566E0
1.893171166E0,3.325425386E0,-6.191129684E0,3.794717550E0
1.895566895E0,3.102892876E0,-6.100202084E0,3.813860178E0
1.897961791E0,3.586242914E0,-6.085845470E0,4.045963764E0
1.900356739E0,4.002892971E0,-5.978168488E0,4.386044025E0
1.902752520E0,3.900001764E0,-5.867799282E0,4.476971149E0
1.905148250E0,4.110570431E0,-5.781657696E0,4.582255363E0
1.907543145E0,5.841478348E0,-5.748157978E0,5.195116997E0
1.909938093E0,4.386044025E0,-5.566303730E0,4.673182487E0
1.912333875E0,3.509672642E0,-5.669195175E0,3.672683716E0
1.914729604E0,4.627718925E0,-5.851049423E0,3.418745279E0
1.917124500E0,5.911169052E0,-5.925526142E0,3.538386583E0
1.919519448E0,6.607779503E0,-5.886941910E0,3.473780155E0
1.921915177E0,6.971488953E0,-5.836692810E0,3.085843801E0
1.924310906E0,7.091429234E0,-5.834300041E0,2.640778780E0
1.926705854E0,6.971488953E0,-5.865406513E0,2.267199516E0
1.929100802E0,6.643671989E0,-6.093023777E0,1.903191328E0
1.931496531E0,6.485745907E0,-6.356234074E0,1.525125384E0
1.933892260E0,6.650850773E0,-6.595815659E0,1.350150228E0
1.936287208E0,7.172784805E0,-6.720242500E0,1.307079315E0
1.938682156E0,7.591827869E0,-6.717849731E0,1.254437327E0
1.941077885E0,8.190332413E0,-6.650850773E0,1.220937729E0
1.943473614E0,8.647361755E0,-6.646064758E0,1.144367456E0
1.945868562E0,8.798408508E0,-6.638886452E0,1.060618639E0
1.948263510E0,8.719446182E0,-6.717849731E0,1.034297585E0
1.950659239E0,8.056035995E0,-6.825526714E0,9.553344250E-1
1.953054968E0,7.591827869E0,-6.983452797E0,7.971090674E-1
1.955449864E0,7.301997185E0,-7.163213730E0,7.061817646E-1
1.957844812E0,6.899703979E0,-7.261319637E0,6.224330068E-1
1.960240593E0,6.660421848E0,-7.299604416E0,5.003990531E-1
1.962636323E0,6.746563435E0,-7.368996620E0,5.051847100E-1
1.965031218E0,7.290033340E0,-7.414460182E0,8.090731502E-1
1.967426166E0,7.843074322E0,-7.400103092E0,9.960124493E-1
1.969821948E0,8.008178711E0,-7.345067978E0,1.141974568E0
1.972217677E0,7.792825222E0,-7.290033340E0,1.285543919E0
1.974612573E0,7.613363266E0,-7.309175968E0,1.460519075E0
1.977007520E0,7.175177574E0,-7.361817837E0,1.470090389E0
1.979403250E0,6.665207386E0,-7.419245720E0,1.501197100E0
1.981798979E0,6.279664040E0,-7.500601768E0,1.534696579E0
1.984193927E0,5.863013744E0,-7.536494255E0,1.503589988E0
1.986588875E0,5.717051506E0,-7.522137165E0,1.453340650E0
1.988984604E0,5.456233978E0,-7.502994537E0,1.345364571E0
1.991380333E0,5.549553871E0,-7.455138206E0,1.316650629E0
1.993775281E0,5.831906796E0,-7.392924786E0,1.448554993E0
1.996170229E0,6.014060497E0,-7.311568737E0,1.582553029E0
1.998565958E0,6.207879066E0,-7.139285564E0,1.714158297E0
2.000961687E0,6.179165363E0,-6.993024349E0,1.819442511E0
2.003356583E0,5.973382473E0,-6.902096748E0,1.829013824E0
2.005751531E0,5.458626747E0,-6.863811970E0,1.797907114E0
2.008147312E0,4.677968502E0,-6.873383045E0,1.596910000E0
2.010543041E0,4.213760853E0,-6.933203697E0,1.572981834E0
2.012937937E0,4.129712582E0,-7.012166977E0,1.539482236E0
2.015332885E0,4.055535316E0,-7.024429798E0,1.642373681E0
2.017728666E0,4.179962158E0,-6.985845566E0,1.886441588E0
2.020124395E0,4.931906700E0,-6.937989235E0,2.094916344E0
2.022519291E0,5.657230854E0,-6.794419765E0,2.109273195E0
2.024914239E0,5.662016392E0,-6.555137634E0,1.994417667E0
2.027309968E0,4.498506546E0,-6.327520370E0,2.080559254E0
2.029705698E0,3.260818958E0,-6.272485256E0,2.063809633E0
2.032100645E0,2.358126640E0,-6.411269188E0,1.826620936E0
2.034495593E0,2.561815739E0,-6.648457527E0,1.647159338E0
2.036891323E0,3.567100286E0,-6.842276573E0,1.563410521E0
2.039287052E0,5.013262749E0,-6.911668301E0,1.522732496E0
2.041682000E0,5.935097694E0,-6.746563435E0,1.639980793E0
2.044076948E0,6.416054726E0,-6.514459610E0,1.931905150E0
2.046472677E0,6.722635269E0,-6.447161674E0,2.243271112E0
2.048868406E0,6.866204739E0,-6.564708710E0,2.379662037E0
2.051263302E0,7.148856640E0,-6.772884369E0,2.315055847E0
2.053658250E0,7.591827869E0,-6.937989235E0,2.049452543E0
2.056054031E0,8.173583031E0,-6.971488953E0,1.606481314E0
2.058449760E0,8.831908226E0,-6.894918442E0,1.422233939E0
2.060844656E0,8.743373871E0,-6.739385128E0,1.237687469E0
2.063239604E0,8.688039780E0,-6.672386169E0,1.134796143E0
2.065635385E0,8.601898193E0,-6.727420807E0,9.242277741E-1
2.068031114E0,8.800801277E0,-6.849454880E0,7.971090674E-1
2.070426010E0,9.114261627E0,-6.914061069E0,8.138588071E-1
2.072820958E0,9.490233421E0,-6.954739094E0,9.457631707E-1
2.075216687E0,9.332307816E0,-6.937989235E0,1.022333503E0
2.077612416E0,8.434400558E0,-7.002595425E0,8.596215248E-1
2.080007364E0,8.140083313E0,-7.191927433E0,8.715856671E-1
2.082402312E0,8.228617668E0,-7.421638489E0,1.036690354E0
2.084798041E0,7.855038643E0,-7.524529934E0,9.936196208E-1
2.087193770E0,7.761718273E0,-7.622934818E0,9.936196208E-1
2.089588718E0,7.783253670E0,-7.701898098E0,1.082154036E0
2.091983666E0,7.682755470E0,-7.754539967E0,1.110867858E0
2.094379395E0,7.747361660E0,-7.804789066E0,1.187438250E0
2.096775125E0,7.737790108E0,-7.809575081E0,1.180259824E0
2.099170073E0,7.491030216E0,-7.740182877E0,1.106082320E0
2.101564968E0,7.304390430E0,-7.668398380E0,1.022333503E0
2.103960750E0,7.502994537E0,-7.584649563E0,1.041476011E0
2.106356479E0,7.500601768E0,-7.438388348E0,9.960124493E-1
2.108751375E0,7.325925827E0,-7.297211647E0,9.625129104E-1
2.111146323E0,7.124928474E0,-7.208677292E0,8.114659786E-1
2.113542104E0,7.160820961E0,-7.218248844E0,8.548358679E-1
2.115937833E0,7.160820961E0,-7.263712406E0,8.258228898E-1
2.118332729E0,6.942774773E0,-7.309175968E0,7.492526174E-1
2.120727677E0,6.653243542E0,-7.373782158E0,6.750751138E-1
2.123123406E0,6.447161674E0,-7.464709282E0,6.320042610E-1
2.125519135E0,6.425626278E0,-7.587042332E0,6.320042610E-1
2.127914083E0,6.396912098E0,-7.699504852E0,5.889334679E-1
2.130309031E0,6.298806667E0,-7.795217991E0,6.104688644E-1
2.132704760E0,6.188736439E0,-7.910073280E0,5.913262963E-1
2.135100489E0,6.186343670E0,-8.044071198E0,6.008976102E-1
2.137495437E0,6.198307991E0,-8.137690544E0,6.511468887E-1
2.139890385E0,6.131309032E0,-8.197511673E0,6.966105103E-1
2.142286114E0,5.997310638E0,-8.274081230E0,7.564310431E-1
2.144681843E0,5.874977589E0,-8.362615585E0,7.923234105E-1
2.147076739E0,5.638088226E0,-8.467900276E0,8.620143533E-1
2.149471687E0,5.463412285E0,-8.640183449E0,8.787640929E-1
2.151867468E0,5.415555954E0,-8.810373306E0,8.668000102E-1
2.154263198E0,5.394020557E0,-8.958727837E0,8.572286963E-1
2.156658093E0,5.312365532E0,-9.104690552E0,8.377870321E-1
2.159053041E0,5.233402252E0,-9.229117393E0,7.516453862E-1
2.161448823E0,5.068297386E0,-9.384949684E0,6.846463680E-1
2.163844552E0,4.984548569E0,-9.600303650E0,5.745765567E-1
2.166239448E0,4.919942379E0,-9.774979591E0,5.697908998E-1
2.168634395E0,4.874478817E0,-9.966704369E0,5.961119533E-1
2.171030125E0,4.900799751E0,-1.022512913E1,5.865406394E-1
2.173425854E0,4.876871586E0,-1.045035362E1,6.224330068E-1
2.175820802E0,4.821836948E0,-1.066092205E1,6.272186637E-1
2.178215750E0,4.735395908E0,-1.084995556E1,5.913262963E-1
2.180611479E0,4.694717884E0,-1.100100231E1,5.315057039E-1
2.183007208E0,4.615755081E0,-1.107518005E1,4.453641176E-1
2.185402156E0,4.524827480E0,-1.107518005E1,3.879363835E-1
2.187797052E0,4.465006828E0,-1.103210926E1,3.448655605E-1
2.190192833E0,4.488935471E0,-1.098425198E1,3.592225015E-1
2.192588562E0,4.448257446E0,-1.084756279E1,3.903291821E-1
2.194983458E0,4.390829563E0,-1.068485069E1,3.735794425E-1
2.197378406E0,4.345366001E0,-1.048863888E1,3.903291821E-1
2.199774187E0,4.280759811E0,-1.032802105E1,4.118646085E-1
2.202169916E0,4.096213341E0,-1.020598698E1,4.645066857E-1
2.204564812E0,3.888037682E0,-1.009113121E1,5.003990531E-1
2.206959760E0,3.682255030E0,-1.000738239E1,6.080760360E-1
2.209355489E0,3.428316593E0,-9.969097137E0,7.109674215E-1
2.211751218E0,3.162713289E0,-1.000738239E1,8.353942037E-1
2.214146166E0,2.880061150E0,-1.000977516E1,9.457631707E-1
2.216541114E0,2.679064035E0,-1.005523872E1,1.019940615E0
2.218936843E0,2.472982168E0,-1.008634567E1,1.125224829E0
2.221332573E0,2.238485575E0,-1.011984539E1,1.240080357E0
2.223727520E0,1.910369754E0,-1.016052341E1,1.328614831E0
2.226122468E0,1.584945917E0,-1.020837975E1,1.388435364E0
2.228518198E0,1.386042476E0,-1.027298546E1,1.462911963E0
2.230913927E0,1.022333503E0,-1.032084274E1,1.529910922E0
2.233308875E0,8.066803217E-1,-1.041446114E1,1.601695657E0
2.235703770E0,5.889334679E-1,-1.047667503E1,1.639980793E0
2.238099552E0,3.496512175E-1,-1.054845905E1,1.683051586E0
2.240495281E0,1.052841991E-1,-1.054845905E1,1.848156333E0
2.242890177E0,-2.488535494E-1,-1.055324554E1,1.989632010E0
2.245285125E0,-6.056832075E-1,-1.059870911E1,2.193022013E0
2.247680906E0,-9.720842242E-1,-1.065613651E1,2.243271112E0
2.250076635E0,-1.527518153E0,-1.066331482E1,2.425125837E0
2.252471531E0,-1.730908036E0,-1.061545849E1,2.475374937E0
2.254866479E0,-1.170688510E0,-1.044317532E1,2.327019930E0
2.257262208E0,-5.937191248E-1,-1.000020409E1,2.118844509E0
2.259657937E0,-2.656033039E-1,-9.518947601E0,2.049452543E0
2.262052885E0,6.699903309E-2,-9.226723671E0,2.221735716E0
2.264447833E0,-2.081755698E-1,-8.965906143E0,2.269592285E0
2.266843562E0,-1.627119333E-1,-8.827122688E0,2.293520451E0
2.269239291E0,3.041875660E-1,-8.731410027E0,2.224128723E0
2.271634239E0,1.208973646E0,-8.441578865E0,2.116451740E0
2.274029187E0,1.671087503E0,-7.955537319E0,1.819442511E0
2.276424916E0,2.552244425E0,-7.526922703E0,1.235294700E0
2.278820645E0,3.234498024E0,-7.165606499E0,9.529415965E-1
2.281215541E0,3.931108475E0,-6.961917400E0,6.942176819E-1
2.283610489E0,4.328616142E0,-6.830312252E0,6.296114326E-1
2.286006270E0,4.922335148E0,-6.760920525E0,7.612167001E-1
2.288402000E0,6.049952984E0,-6.648457527E0,8.715856671E-1
2.290796895E0,7.225427151E0,-6.351448536E0,8.691928387E-1
2.293191843E0,9.420842171E0,-6.052345753E0,6.894320250E-1
2.295587573E0,9.171689034E0,-5.717051506E0,1.055832982E0
2.297983302E0,9.207581520E0,-5.697908878E0,1.232901812E0
2.300378250E0,9.523733139E0,-5.870192051E0,1.079761267E0
2.302773198E0,9.497411728E0,-5.978168488E0,8.668000102E-1
2.305168927E0,9.559625626E0,-6.002096653E0,6.080760360E-1
2.307564656E0,9.614660263E0,-5.911169052E0,2.679961324E-1
2.309959604E0,9.356235504E0,-5.786443233E0,4.067798331E-2
2.312354552E0,9.083154678E0,-5.781657696E0,-8.853443712E-2
2.314750281E0,8.879764557E0,-5.865406513E0,-7.417750359E-2
2.317146010E0,9.030512810E0,-5.999703884E0,-3.349951655E-2
2.319540906E0,9.226723671E0,-6.090631008E0,-8.135596663E-2
2.321935854E0,9.358628273E0,-6.083452702E0,-9.810572863E-2
2.324331635E0,9.243474007E0,-6.121737480E0,7.178467698E-3
2.326727364E0,9.114261627E0,-6.238986015E0,5.982056633E-2
2.329122260E0,8.784051895E0,-6.382555485E0,8.614161611E-2
2.331517208E0,8.381758690E0,-6.509674072E0,1.028913707E-1
2.333912989E0,7.924430370E0,-6.715456963E0,6.939185411E-2
2.336308718E0,7.333104134E0,-6.847062111E0,7.417750359E-2
2.338703614E0,6.619743824E0,-6.947560310E0,6.460621208E-2
2.341098562E0,5.994917870E0,-6.976274490E0,3.589234129E-2
2.343494291E0,5.513661385E0,-7.045965195E0,1.435693540E-2
2.345890020E0,5.358128071E0,-7.129714012E0,-2.392822690E-2
2.348284968E0,5.171188831E0,-7.072286606E0,-9.332008660E-2
2.350679916E0,4.869693279E0,-6.899703979E0,-1.842473447E-1
2.353075645E0,4.639683247E0,-6.693921566E0,-2.850449979E-1
2.355471375E0,4.543970108E0,-6.538387775E0,-3.472583890E-1
2.357866270E0,4.462614059E0,-6.447161674E0,-2.775674164E-1
2.360261218E0,4.295116425E0,-6.432804585E0,-1.316052526E-1
2.362657000E0,3.890430450E0,-6.447161674E0,2.632104978E-2
2.365052729E0,3.263211966E0,-6.451947212E0,4.785645287E-3
2.367447625E0,3.052344322E0,-6.538387775E0,6.460621208E-2
2.369842573E0,3.049951553E0,-6.744170666E0,1.148554832E-1
2.372238302E0,3.952643871E0,-7.309175968E0,3.520440459E-1
2.374634031E0,3.794717550E0,-7.447959423E0,4.764707983E-1
2.377028979E0,2.925524712E0,-7.218248844E0,4.118646085E-1
2.379423927E0,2.609672308E0,-7.313961506E0,3.161516786E-1
2.381819656E0,3.567100286E0,-7.948358536E0,5.650052428E-1
2.384215385E0,3.605385542E0,-8.180761337E0,6.583253145E-1
2.386610333E0,2.758027315E0,-7.948358536E0,4.262215197E-1
2.389005281E0,2.441875458E0,-7.869395256E0,1.818545163E-1
2.391401010E0,2.844168901E0,-8.164011955E0,1.148554832E-1
2.393796739E0,3.485744476E0,-8.621041298E0,2.344966233E-1
2.396191635E0,3.576671600E0,-8.944371223E0,1.555334777E-1
2.398586635E0,3.751646757E0,-9.353842735E0,-1.914258115E-2
2.400982364E0,3.900001764E0,-9.887741089E0,3.589234129E-2
2.403378093E0,4.055535316E0,-1.033998489E1,1.435693651E-1
2.405772989E0,4.132105827E0,-9.588339806E0,-2.946162820E-1
2.408167937E0,3.205784082E0,-9.152546883E0,-2.608176768E-1
2.410563718E0,3.409173965E0,-9.329915047E0,5.742774159E-2
2.412959448E0,3.413959742E0,-9.351449966E0,1.866401732E-1
2.415354343E0,3.251247883E0,-9.087940216E0,4.307080805E-2
2.417749291E0,3.461816072E0,-9.025727272E0,-5.264209956E-2
2.420145020E0,3.775574923E0,-9.212367058E0,-1.986042857E-1
2.422540750E0,3.847359657E0,-9.430413246E0,-3.400799036E-1
2.424935698E0,3.708575964E0,-9.521340370E0,-5.721837282E-1
2.427330645E0,3.291925669E0,-9.337093353E0,-6.798607111E-1
2.429726375E0,2.992523909E0,-9.111868858E0,-6.104688644E-1
2.432122104E0,2.643171787E0,-8.908478737E0,-6.008976102E-1
2.434517000E0,2.382055044E0,-8.750552177E0,-5.362913609E-1
2.436911948E0,2.200200319E0,-8.649754524E0,-5.123631358E-1
2.439307729E0,2.303091764E0,-8.848658562E0,-4.621138871E-1
2.441703458E0,2.228914261E0,-8.961120605E0,-3.687937856E-1
2.444098354E0,1.939083695E0,-8.819944382E0,-3.759722710E-1
2.446493302E0,1.829013824E0,-8.860622406E0,-4.070789516E-1
2.448889083E0,2.126022816E0,-9.294022560E0,-4.740779996E-1
2.451284812E0,1.898405671E0,-9.401699066E0,-4.142574072E-1
2.453679708E0,1.862513304E0,-9.597910881E0,-2.273181528E-1
2.456074656E0,2.059023857E0,-1.006241703E1,-1.339980662E-1
2.458470385E0,2.003988981E0,-1.039771175E1,-1.962114573E-1
2.460866114E0,2.020738840E0,-1.075902748E1,-2.273181528E-1
2.463261062E0,4.761716843E0,-1.277498055E1,-1.462911963E0
2.465656010E0,9.550054550E0,-1.492493248E1,-3.303889751E0
2.468051739E0,3.571886063E0,-1.237508011E1,-1.091725349E0
2.470447468E0,-4.304687977E0,-9.119047165E0,1.120439172E0
2.472842364E0,-5.927918911E0,-7.783253670E0,1.345364571E0
2.475237312E0,-1.685444474E0,-7.711469173E0,1.304686546E0
2.477633093E0,3.248854876E0,-8.262117386E0,5.745765567E-1
2.480028823E0,4.206283092E0,-7.957930088E0,1.722832322E-1
2.482423718E0,3.619742393E0,-7.524529934E0,-1.052841991E-1
2.484818666E0,3.679862022E0,-7.656434059E0,-1.890329868E-1
2.487214395E0,7.697112083E0,-8.621041298E0,-5.267201066E-1
2.489610125E0,5.403591633E0,-7.855038643E0,-4.453641176E-1
2.492005073E0,1.781157374E0,-7.091429234E0,-1.722832322E-1
2.494400020E0,-2.632104978E-2,-7.424031258E0,-2.775674164E-1
2.496795750E0,-1.244267747E-1,-7.984251022E0,-7.896314561E-2
2.499191479E0,7.971090674E-1,-8.932407379E0,2.129612118E-1
2.501586427E0,2.078166485E0,-1.065374374E1,2.105683982E-1
2.503981375E0,2.557030201E0,-1.133839035E1,4.429712892E-1
2.506377104E0,2.405983210E0,-1.121396351E1,8.138588071E-1
2.508772833E0,2.226521492E0,-1.084277630E1,6.415755749E-1
2.511167729E0,2.135594130E0,-1.049820995E1,5.123631358E-1
2.513562677E0,1.876870275E0,-9.928419113E0,4.597210586E-1
2.515958458E0,1.635195136E0,-9.389735222E0,4.668995142E-1
2.518354187E0,1.864906192E0,-9.430413246E0,3.783650696E-1
2.520749083E0,2.068595171E0,-9.961918831E0,2.632104978E-2
2.523144031E0,2.020738840E0,-1.008156013E1,-7.417750359E-2
2.525539760E0,2.049452543E0,-1.008634567E1,-1.674975902E-1
2.527935489E0,1.936690807E0,-9.935597420E0,-1.435693651E-1
2.530330437E0,1.953440547E0,-9.988240242E0,-2.153540403E-1
2.532725385E0,2.085345030E0,-1.028734303E1,-3.400799036E-1
2.535121114E0,2.535494804E0,-1.117089272E1,-3.233301640E-1
2.537516843E0,2.892025232E0,-1.173829079E1,-2.898306549E-1
2.539911739E0,2.899203777E0,-1.182203960E1,6.221338734E-2
2.542306687E0,2.932703257E0,-1.212383366E1,8.135596663E-2
2.544702468E0,2.753241539E0,-1.206640625E1,-1.196411327E-1
2.547098198E0,2.559422970E0,-1.184357452E1,2.392822644E-3
2.549493093E0,2.267199516E0,-1.146042442E1,9.571290761E-2
2.551888041E0,2.128415823E0,-1.098185921E1,2.703889608E-1
2.554283770E0,2.178664923E0,-1.069442177E1,2.153540403E-1
2.556679500E0,2.157129526E0,-1.045753193E1,2.057827413E-1
2.559074448E0,2.142772675E0,-1.016052341E1,1.627119333E-1
2.561469395E0,2.350948334E0,-1.015573788E1,1.052841991E-1
2.563865125E0,2.731706142E0,-1.057717323E1,-2.344966233E-1
2.566260854E0,2.932703257E0,-1.071595669E1,-1.100698411E-1
2.568655750E0,3.014059305E0,-1.065613651E1,5.024927482E-2
2.571050698E0,2.635993242E0,-1.025145054E1,-8.853443712E-2
2.573446479E0,2.085345030E0,-9.282057762E0,-6.966105103E-1
2.575842208E0,2.099701881E0,-8.252546310E0,-9.337990284E-1
2.578237104E0,2.178664923E0,-6.545566559E0,-1.170688510E0
2.580632052E0,2.520838737E0,-4.393222332E0,-1.082154036E0
2.583027781E0,3.081058264E0,-2.434697151E0,-1.794617027E-1
2.585423510E0,3.236890793E0,-1.678265929E0,2.145165443E0
2.587818458E0,4.426722050E0,-4.417150497E0,1.052841991E-1
2.590213406E0,5.374877930E0,-7.201498985E0,-3.224926710E0
2.592609135E0,4.555934429E0,-7.804789066E0,-3.339782238E0
2.595004864E0,3.588635683E0,-7.105785847E0,-1.714158297E0
2.597399812E0,2.949453115E0,-4.666004181E0,-2.177468538E-1
2.599794708E0,2.825026274E0,-1.259222865E0,2.741277456E0
2.602190489E0,3.299104214E0,2.161915302E0,1.127617645E1
2.604586218E0,3.919144392E0,-5.709873199E0,3.476173162E0
2.606981114E0,4.148855209E0,-1.473320675E1,-1.102253723E1
2.609376062E0,1.651944876E0,-1.275583839E1,-5.530411243E0
2.611771843E0,3.951148391E-1,-1.272951698E1,-1.929512382E0
2.614167573E0,1.411765367E-1,-1.366541004E1,-1.496411443E0
2.616562468E0,1.339980662E-1,-1.345484161E1,1.435693651E-1
2.618957416E0,7.348956466E-1,-1.345723438E1,1.206580877E0
2.621353145E0,1.675873160E0,-1.385474205E1,1.357328653E0
2.623748875E0,2.379662037E0,-1.472363567E1,7.181459069E-1
2.626143823E0,2.856132984E0,-1.556172180E1,3.329014480E-1
2.628538718E0,3.425923824E0,-1.541785336E1,5.745765567E-1
2.630934500E0,3.868895054E0,-1.510439396E1,7.181459069E-1
2.633330229E0,4.072285175E0,-1.505893040E1,5.123631358E-1
2.635725125E0,4.371686935E0,-1.474995708E1,-4.307080805E-2
2.638120073E0,4.874478817E0,-1.421366596E1,-5.742774159E-2
2.640515854E0,5.195116997E0,-1.400070477E1,-1.004985496E-1
2.642911583E0,5.286044121E0,-1.439581966E1,-8.210372925E-1
2.645306479E0,5.003691196E0,-1.518335724E1,-1.362114310E0
2.647701427E0,4.603790760E0,-1.561436462E1,-1.429412484E0
2.650097156E0,4.412364960E0,-1.556172180E1,-1.036690354E0
2.652492885E0,4.347758770E0,-1.533889008E1,-6.080760360E-1
2.654887833E0,4.335794449E0,-1.504696655E1,-2.464607358E-1
2.657282781E0,4.362115860E0,-1.486481285E1,1.411765367E-1
2.659678510E0,4.558327198E0,-1.462792301E1,2.225325108E-1
2.662074239E0,4.723432064E0,-1.416341591E1,1.363908947E-1
2.664469135E0,4.673182487E0,-1.365105343E1,8.135596663E-2
2.666864083E0,4.378865242E0,-1.329452229E1,2.057827413E-1
2.669259864E0,4.108177185E0,-1.308604813E1,1.866401732E-1
2.671655593E0,3.895216227E0,-1.289462185E1,1.459621787E-1
2.674050489E0,3.473780155E0,-1.258086300E1,1.244267747E-1
2.676445437E0,2.908775091E0,-1.214297676E1,2.297109663E-1
2.678841166E0,2.176272154E0,-1.156361485E1,4.668995142E-1
2.681236895E0,1.256830096E0,-1.082363415E1,5.817549825E-1
2.683631843E0,2.033899277E-1,-1.002173901E1,6.272186637E-1
2.686026791E0,-7.612167001E-1,-9.212367058E0,6.487540603E-1
2.688422520E0,-1.544267893E0,-8.501399994E0,6.128616929E-1
2.690818250E0,-3.679862022E0,-6.325127602E0,3.052344322E0
2.693213145E0,-4.153641224E0,-6.028417587E0,1.953440547E0
2.695608093E0,-3.272783279E0,-6.514459610E0,2.416750938E-1
2.698003875E0,-1.795514345E0,-7.110571384E0,-7.731808424E-1
2.700399604E0,-1.053440213E0,-8.688039780E0,-1.484447360E0
2.702794500E0,1.216152072E0,-9.765408516E0,-1.127617717E0
2.705189448E0,3.478565931E0,-1.003848934E1,-2.321037948E-1
2.707585177E0,4.666004181E0,-1.010309505E1,5.243272781E-1
2.709980906E0,5.094618320E0,-1.006002426E1,9.529415965E-1
2.712375854E0,5.226223946E0,-9.892526627E0,1.146760225E0
2.714770802E0,5.144867897E0,-9.684052467E0,1.182652593E0
2.717166531E0,4.824229717E0,-9.502198219E0,1.113260746E0
2.719562260E0,4.342973232E0,-9.332307816E0,9.601200819E-1
2.721957156E0,3.900001764E0,-9.217152596E0,7.348956466E-1
2.724352104E0,3.516851187E0,-9.123832703E0,4.238287210E-1
2.726747885E0,3.315854073E0,-9.095118523E0,-4.785645287E-3
2.729143614E0,3.277568817E0,-9.109476089E0,-3.855435550E-1
2.731538510E0,3.346960783E0,-9.138189316E0,-6.631109715E-1
2.733933458E0,3.399602890E0,-9.188439369E0,-8.524430394E-1
2.736329187E0,3.457030535E0,-9.212367058E0,-9.888339639E-1
2.738724916E0,3.430709362E0,-9.270093918E0,-9.696913958E-1
2.741119864E0,3.409173965E0,-9.303593636E0,-8.739784956E-1
2.743514760E0,3.579064369E0,-9.301200867E0,-7.899305820E-1
2.745910541E0,3.665505171E0,-9.286844254E0,-6.990033388E-1
2.748306270E0,3.660719633E0,-9.233902931E0,-6.367899179E-1
2.750701166E0,3.574278831E0,-9.236295700E0,-5.769693851E-1
2.753096114E0,3.428316593E0,-9.217152596E0,-4.956133962E-1
2.755491843E0,3.366103172E0,-9.162117958E0,-4.142574072E-1
2.757887573E0,3.270390272E0,-9.114261627E0,-3.616153300E-1
2.760282520E0,3.172284603E0,-9.102297783E0,-3.448655605E-1
2.762677468E0,3.073879719E0,-9.119047165E0,-3.472583890E-1
2.765073198E0,2.990130901E0,-9.150154114E0,-3.640081584E-1
2.767468927E0,2.892025232E0,-9.169296265E0,-3.400799036E-1
2.769863823E0,2.892025232E0,-9.142974854E0,-3.616153300E-1
2.772258770E0,2.949453115E0,-9.114261627E0,-3.783650696E-1
2.774654552E0,2.947060108E0,-9.044869423E0,-4.190430641E-1
2.777050281E0,3.023630619E0,-8.982656479E0,-4.621138871E-1
2.779445177E0,3.083451033E0,-8.922835350E0,-4.716851711E-1
2.781840125E0,3.504886866E0,-8.499007225E0,-5.410770178E-1
2.784235854E0,3.766003847E0,-8.379365921E0,-5.961119533E-1
2.786631583E0,3.595814228E0,-8.405686378E0,-5.793621540E-1
2.789026531E0,3.323032379E0,-8.463114738E0,-5.602195859E-1
2.791421479E0,3.073879719E0,-8.484649658E0,-5.410770178E-1
2.793817208E0,2.762812853E0,-8.597112656E0,-5.051847100E-1
2.796212937E0,2.516052961E0,-8.750552177E0,-4.597210586E-1
2.798607885E0,2.420340061E0,-8.906085968E0,-4.549354017E-1
2.801002781E0,2.382055044E0,-9.025727272E0,-4.381856322E-1
2.803398562E0,2.338984251E0,-9.169296265E0,-4.549354017E-1
2.805794291E0,2.286342144E0,-9.301200867E0,-4.645066857E-1
2.808189187E0,2.279163599E0,-9.392127991E0,-4.932205677E-1
2.810584135E0,2.329412937E0,-9.423234940E0,-5.410770178E-1
2.812979864E0,2.331805706E0,-9.485447884E0,-5.626124144E-1
2.815375593E0,2.248056889E0,-9.588339806E0,-5.626124144E-1
2.817770541E0,2.219342947E0,-9.621838570E0,-5.650052428E-1
2.820165489E0,2.243271112E0,-9.626625061E0,-5.697908998E-1
2.822561218E0,2.236092806E0,-9.648159981E0,-5.673980713E-1
2.824956948E0,2.197807550E0,-9.696016312E0,-5.697908998E-1
2.827351843E0,2.130808592E0,-9.753444672E0,-5.219344497E-1
2.829746791E0,2.121237278E0,-9.786943436E0,-5.195416212E-1
2.832142573E0,2.157129526E0,-9.758230209E0,-5.123631358E-1
2.834538302E0,2.202593327E0,-9.705587387E0,-4.764707983E-1
2.836933198E0,2.128415823E0,-9.727123260E0,-4.788636267E-1
2.839328145E0,2.142772675E0,-9.715159416E0,-4.788636267E-1
2.841723875E0,2.145165443E0,-9.717552185E0,-4.645066857E-1
2.844119604E0,2.142772675E0,-9.727123260E0,-4.597210586E-1
2.846514552E0,2.137987137E0,-9.770194054E0,-4.501497746E-1
2.848909500E0,2.128415823E0,-9.779765129E0,-4.381856322E-1
2.851305229E0,2.109273195E0,-9.784550667E0,-4.262215197E-1
2.853700958E0,2.111665964E0,-9.806086540E0,-4.142574072E-1
2.856095854E0,2.099701881E0,-9.832706451E0,-3.951148391E-1
2.858490802E0,2.080559254E0,-9.849455833E0,-3.951148391E-1
2.860886583E0,2.070987940E0,-9.856635094E0,-3.568296731E-1
2.863282312E0,2.059023857E0,-9.870991707E0,-3.664009571E-1
2.865677208E0,2.032702923E0,-9.873384476E0,-3.664009571E-1
2.868072156E0,2.011167526E0,-9.873384476E0,-3.687937856E-1
2.870467885E0,2.018345833E0,-9.882955551E0,-3.352942765E-1
2.872863614E0,2.015953064E0,-9.892526627E0,-3.376871049E-1
2.875258562E0,1.965703845E0,-9.904491425E0,-3.352942765E-1
2.877653458E0,1.958226204E0,-9.890133858E0,-3.329014480E-1
2.880049239E0,1.955833435E0,-9.906884193E0,-3.209373355E-1
2.882444968E0,1.924726725E0,-9.909276962E0,-3.305086195E-1
2.884839864E0,1.917548299E0,-9.923633575E0,-3.089732230E-1
2.887234812E0,1.919941068E0,-9.952347755E0,-3.424727321E-1
2.889630541E0,1.910369754E0,-1.006959629E1,-6.942176819E-1
2.892026270E0,2.106880426E0,-1.009591675E1,-6.798607111E-1
2.894421218E0,2.073380709E0,-1.002891827E1,-4.334000051E-1
2.896816166E0,1.872084618E0,-9.966704369E0,-1.962114573E-1
2.899211895E0,1.723729610E0,-9.935597420E0,-6.460621208E-2
2.901607625E0,1.723729610E0,-9.902098656E0,-2.632104978E-2
2.904002520E0,1.788335800E0,-9.882955551E0,-8.135596663E-2
2.906397468E0,1.867298961E0,-9.897313118E0,-1.746760458E-1
2.908793250E0,1.927119493E0,-9.885348320E0,-2.584248483E-1
2.911188979E0,1.946262121E0,-9.878170013E0,-3.209373355E-1
2.913583875E0,1.965703845E0,-9.868598938E0,-3.783650696E-1
2.915978823E0,1.960619092E0,-9.861420631E0,-4.022932947E-1
2.918374552E0,1.975275040E0,-9.830313683E0,-3.951148391E-1
2.920770281E0,1.994417667E0,-9.796515465E0,-3.999004960E-1
2.923165229E0,2.056631088E0,-9.736694336E0,-3.687937856E-1
2.925560125E0,2.102094650E0,-9.679266930E0,-3.544368446E-1
2.927955906E0,2.147558212E0,-9.629017830E0,-3.400799036E-1
2.930351635E0,2.236092806E0,-9.597910881E0,-3.640081584E-1
2.932746531E0,2.327019930E0,-9.528518677E0,-3.951148391E-1
2.935141479E0,2.379662037E0,-9.504590988E0,-4.190430641E-1
2.937537208E0,2.420340061E0,-9.485447884E0,-4.286143482E-1
2.939932937E0,2.446661234E0,-9.475876808E0,-3.927220106E-1
2.942327885E0,2.379662037E0,-9.447162628E0,-3.376871049E-1
2.944722833E0,2.355733871E0,-9.430413246E0,-2.608176768E-1
2.947118562E0,2.413161755E0,-9.416056633E0,-2.488535494E-1
2.949514291E0,2.542673111E0,-9.495018959E0,-3.544368446E-1
2.951909187E0,2.686242580E0,-9.617053032E0,-3.903291821E-1
2.954304135E0,2.712563515E0,-9.707980156E0,-4.022932947E-1
2.956699916E0,2.655135870E0,-9.777372360E0,-3.640081584E-1
2.959095645E0,2.583351135E0,-9.731908798E0,-3.305086195E-1
2.961490541E0,2.604886532E0,-9.540482521E0,-3.975076675E-1
2.963885489E0,2.609672308E0,-9.327521324E0,-4.190430641E-1
2.966281218E0,2.446661234E0,-8.599505424E0,-4.381856322E-1
2.968676948E0,2.695813894E0,-7.392924786E0,-5.099703074E-1
2.971071895E0,3.061915636E0,-5.427519798E0,-8.353942037E-1
2.973466791E0,3.339782238E0,-2.951845884E0,-1.220937729E0
2.975862573E0,3.174677372E0,-6.774678826E-1,-1.424626827E0
2.978258302E0,3.212962627E0,5.742774159E-2,-1.333400369E0
2.980653198E0,3.318246841E0,-1.060618639E0,-9.984052777E-1
2.983048145E0,3.233301640E-1,-1.919941068E0,-8.739784956E-1
2.985443875E0,-1.517946839E0,-4.503292084E0,-6.008976102E-1
2.987839604E0,-1.411765367E-1,-7.917252064E0,5.362913609E-1
2.990234552E0,1.498804331E0,-1.017248726E1,1.450947881E0
2.992629500E0,2.207378864E0,-1.111825085E1,1.850549221E0
2.995025229E0,2.511267424E0,-1.115174961E1,1.692622900E0
2.997420958E0,2.659921408E0,-1.075424194E1,1.316650629E0
2.999815854E0,2.719742060E0,-1.023230743E1,8.907282352E-1
3.002210802E0,2.683849812E0,-9.684052467E0,5.027918816E-1
3.004606583E0,2.571387053E0,-9.241081238E0,2.464607358E-1
3.007002312E0,2.420340061E0,-8.965906143E0,1.172483116E-1
3.009397208E0,2.264806747E0,-8.841479301E0,5.503492057E-2
3.011792156E0,2.097309113E0,-8.836693764E0,-2.297109663E-1
3.014187885E0,2.233700037E0,-8.867800713E0,-6.678966284E-1
3.016583614E0,2.489732027E0,-8.997013092E0,-6.990033388E-1
3.018978562E0,2.774776936E0,-9.200403214E0,-5.530411601E-1
3.021373510E0,2.992523909E0,-9.411270142E0,-4.094717801E-1
3.023769239E0,3.028416157E0,-9.497411728E0,-3.089732230E-1
3.026164968E0,3.018844843E0,-9.511769295E0,-1.627119333E-1
3.028559864E0,2.896811008E0,-9.466305733E0,-8.853443712E-2
3.030954812E0,2.801098108E0,-9.329915047E0,2.871387079E-2
3.033350593E0,2.729313374E0,-9.212367058E0,2.392822690E-2
3.035746323E0,2.626421928E0,-9.090332985E0,1.052841991E-1
3.038141218E0,2.506481647E0,-9.035298347E0,-2.392822644E-3
3.040536166E0,2.377269268E0,-8.980263710E0,-2.826521695E-1
3.042931895E0,2.365305185E0,-9.030512810E0,-4.668995142E-1
3.045327625E0,2.425125837E0,-9.119047165E0,-4.381856322E-1
3.047722520E0,2.439482689E0,-9.178867340E0,-4.214358926E-1
3.050117468E0,2.415554523E0,-9.267701149E0,-4.453641176E-1
3.052513250E0,2.348555326E0,-9.282057762E0,-2.850449979E-1
3.054908979E0,2.274377823E0,-9.174081802E0,-1.172483116E-1
3.057303875E0,2.181057930E0,-9.087940216E0,6.221338734E-2
3.059698823E0,1.992024899E0,-8.939585686E0,1.316052526E-1
3.062094552E0,1.829013824E0,-8.767302513E0,1.292124242E-1
3.064490281E0,1.718943954E0,-8.525327682E0,2.584248483E-1
3.066885229E0,1.651944876E0,-8.412865639E0,2.536391914E-1
3.069280125E0,1.565803289E0,-8.388936996E0,1.986042857E-1
3.071675906E0,1.587338686E0,-8.403293610E0,1.794617027E-1
3.074071635E0,1.587338686E0,-8.379365921E0,1.244267747E-1
3.076466531E0,1.549053550E0,-8.293224335E0,1.004985496E-1
3.078861479E0,1.580160260E0,-8.240582466E0,2.392822644E-3
3.081257208E0,1.651944876E0,-8.226224899E0,-4.546362907E-2
3.083652937E0,1.690230131E0,-8.240582466E0,-1.722832322E-1
3.086047885E0,1.762014747E0,-8.204689980E0,-1.698904037E-1
3.088442833E0,1.802692771E0,-8.171190262E0,-2.201396823E-1
3.090838562E0,1.840977907E0,-8.199904442E0,-3.017947674E-1
3.093234291E0,1.867298961E0,-8.168797493E0,-3.520440459E-1
3.095629187E0,1.809871197E0,-8.175975800E0,-3.951148391E-1
3.098024135E0,1.740479350E0,-8.247760773E0,-4.286143482E-1
3.100419916E0,1.635195136E0,-8.338687897E0,-4.238287210E-1
3.102815645E0,1.558624864E0,-8.408080101E0,-3.735794425E-1
3.105210541E0,1.467697620E0,-8.412865639E0,-2.632105052E-1
3.107605489E0,1.448554993E0,-8.403293610E0,-1.459621787E-1
3.110001218E0,1.395613790E0,-8.422436714E0,-1.674975827E-2
3.112396948E0,1.415055513E0,-8.398508072E0,6.460621208E-2
3.114791895E0,1.429412484E0,-8.417651176E0,1.316052526E-1
3.117186843E0,1.515554070E0,-8.386544228E0,1.674975902E-1
3.119582573E0,1.525125384E0,-8.398508072E0,1.028913707E-1
3.121978302E0,1.532303810E0,-8.427222252E0,8.853443712E-2
3.124373198E0,1.649552107E0,-8.453543663E0,7.178467698E-3
3.126768145E0,1.706979871E0,-8.508578300E0,-1.004985496E-1
3.129163875E0,1.740479350E0,-8.506185532E0,-1.962114573E-1
3.131559604E0,1.781157374E0,-8.532505989E0,-2.656033039E-1
3.133954552E0,1.797907114E0,-8.518149376E0,-3.687937856E-1
3.136349500E0,1.776371717E0,-8.642576218E0,-4.956133962E-1
3.138745229E0,1.778764486E0,-8.628219604E0,-5.027918816E-1
3.141140958E0,1.843370795E0,-8.729017258E0,-5.937191248E-1
3.143535854E0,1.929512382E0,-8.836693764E0,-6.702894568E-1
3.145930802E0,1.943869352E0,-8.884550095E0,-6.607181430E-1
3.148326583E0,1.836192250E0,-8.853444099E0,-6.942176819E-1
3.150722312E0,1.762014747E0,-8.791230202E0,-6.774678826E-1
3.153117208E0,1.623231053E0,-8.824729919E0,-5.482555032E-1
3.155512156E0,1.472483277E0,-8.760123253E0,-1.842473447E-1
3.157907885E0,1.345364571E0,-8.791230202E0,-1.196411327E-1
3.160303614E0,1.328614831E0,-8.738588333E0,1.292124242E-1
3.162698562E0,1.354935765E0,-8.700303078E0,2.129612118E-1
3.165093458E0,1.390828133E0,-8.745766640E0,3.233301640E-1
3.167489239E0,1.431805253E0,-8.824729919E0,4.429712892E-1
3.169884968E0,1.458126307E0,-8.858229637E0,5.841478109E-1
3.172279864E0,1.491625786E0,-8.853444099E0,6.631109715E-1
3.174674812E0,1.525125384E0,-8.807980537E0,6.296114326E-1
3.177070541E0,1.412662625E0,-8.736195564E0,7.516453862E-1
3.179466270E0,1.261615753E0,-8.772088051E0,7.109674215E-1
3.181861218E0,1.194616675E0,-8.661719322E0,6.367899179E-1
3.184256114E0,1.170688510E0,-8.649754524E0,5.195416212E-1
3.186651895E0,1.084546804E0,-8.709874153E0,4.334000051E-1
3.189047625E0,1.091725349E0,-8.709874153E0,4.621138871E-1
3.191442520E0,1.086939692E0,-8.685647011E0,5.386841893E-1
3.193837468E0,9.505487680E-1,-8.750552177E0,5.482555032E-1
3.196233198E0,7.492526174E-1,-8.949156761E0,4.812564552E-1
3.198628927E0,6.200401783E-1,-9.248259544E0,3.329014480E-1
3.201023875E0,5.506483316E-1,-9.463912964E0,-4.785645287E-3
3.203418823E0,5.243272781E-1,-9.602696419E0,-2.727817893E-1
3.205814552E0,7.253243923E-1,-9.463912964E0,-2.826521695E-1
3.208210281E0,9.242277741E-1,-9.404091835E0,-1.722832322E-1
3.210605177E0,1.036690354E0,-9.459127426E0,-2.416750938E-1
3.213000125E0,1.185045362E0,-9.447162628E0,-2.970091105E-1
3.215395854E0,1.144367456E0,-9.454340935E0,-3.520440459E-1
3.217791583E0,1.108475089E0,-9.559625626E0,-4.094717801E-1
3.220186531E0,1.108475089E0,-9.949954987E0,-4.166502357E-1
3.222581479E0,1.185045362E0,-1.024905777E1,-4.477569461E-1
3.224977208E0,1.237687469E0,-1.017248726E1,-3.376871049E-1
3.227372937E0,1.067797065E0,-9.827920914E0,-1.627119333E-1
3.229767885E0,7.444669604E-1,-9.475876808E0,-8.135596663E-2
3.232162781E0,4.908277392E-1,-9.349057198E0,-3.589234129E-2
3.234558562E0,4.740779996E-1,-9.578767776E0,1.914258115E-2
3.236954291E0,5.291129351E-1,-9.916455269E0,-2.392822644E-3
3.239349187E0,6.056832075E-1,-9.918848038E0,1.722832322E-1
3.241744135E0,7.444669604E-1,-9.823135376E0,4.094717801E-1
3.244139864E0,1.051047325E0,-9.854242325E0,5.721837282E-1
3.246535593E0,1.275972724E0,-9.796515465E0,1.024726272E0
3.248930541E0,1.561017632E0,-9.693623543E0,1.024726272E0
3.251325437E0,1.642373681E0,-9.636196136E0,8.596215248E-1
3.253721218E0,1.750050664E0,-9.626625061E0,6.296114326E-1
3.256116948E0,1.840977907E0,-9.571589470E0,5.913262963E-1
3.258511843E0,1.984846354E0,-9.550054550E0,6.415755749E-1
3.260906791E0,2.271985054E0,-9.583553314E0,7.157530785E-1
3.263302520E0,2.432304144E0,-9.660123825E0,7.301099896E-1
3.265698250E0,2.444268227E0,-9.748658180E0,7.157530785E-1
3.268093198E0,2.353341103E0,-9.743872643E0,8.234301209E-1
3.270488145E0,2.269592285E0,-9.569196701E0,9.361918569E-1
3.272883875E0,2.149951220E0,-9.372985840E0,9.649057388E-1
3.275279604E0,2.066202402E0,-9.337093353E0,8.835497499E-1
3.277674500E0,2.161915302E0,-9.475876808E0,7.085745931E-1
3.280069448E0,2.219342947E0,-9.404091835E0,6.846463680E-1
3.282465229E0,2.243271112E0,-9.456734657E0,3.999004960E-1
3.284860958E0,2.271985054E0,-9.755837440E0,4.501497746E-1
3.287255854E0,2.214557409E0,-1.005763149E1,4.597210586E-1
3.289650802E0,2.092523336E0,-9.947562218E0,1.603191197E-1
3.292046531E0,1.963011861E0,-9.935597420E0,-2.392822690E-2
3.294442260E0,1.898405671E0,-1.042164040E1,2.129612118E-1
3.296837156E0,1.781157374E0,-1.068006516E1,4.214358926E-1
3.299232104E0,1.592124343E0,-1.047428226E1,1.244267747E-1
3.301627885E0,1.388435364E0,-1.037827015E1,1.363908947E-1
3.304023614E0,1.275972724E0,-1.043121147E1,2.105683982E-1
3.306418510E0,1.165902853E0,-1.067767239E1,4.716851711E-1
3.308813458E0,7.995018363E-1,-1.061785126E1,2.850449979E-1
3.311209187E0,7.827520967E-1,-1.055563831E1,-1.435693540E-2
3.313604916E0,4.980062246E-1,-1.070638561E1,1.555334777E-1
3.315999812E0,2.344966233E-1,-1.082124138E1,4.884349108E-1
3.318394760E0,2.392822644E-3,-1.086431217E1,4.238287210E-1
3.320790541E0,-7.417750359E-2,-1.071595669E1,1.220339537E-1
3.323186270E0,-2.368894368E-1,-1.056042385E1,1.627119333E-1
3.325581166E0,-2.297109663E-1,-1.042403316E1,3.783650696E-1
3.327976114E0,-3.879363835E-1,-1.005284595E1,3.257229924E-1
3.330371843E0,-4.022932947E-1,-9.815657616E0,1.124626622E-1
3.332767573E0,-2.946162820E-1,-9.818050385E0,1.435693651E-1
3.335162520E0,-2.536391914E-1,-1.004327488E1,1.627119333E-1
3.337557468E0,-3.999004960E-1,-1.004806042E1,1.244267747E-1
3.339953198E0,-5.267201066E-1,-9.923633575E0,-6.699903309E-2
3.342348927E0,-5.745765567E-1,-9.777372360E0,-7.896314561E-2
3.344743823E0,-5.865406394E-1,-9.679266930E0,2.416750938E-1
3.347138770E0,-6.439684033E-1,-9.655338287E0,4.357928336E-1
3.349534500E0,-6.990033388E-1,-9.755837440E0,1.986042857E-1
3.351930229E0,-8.452646136E-1,-9.909276962E0,-4.067798331E-2
3.354325177E0,-9.170492887E-1,-1.008395290E1,4.785645381E-2
3.356720125E0,-1.007976532E0,-1.021795082E1,1.890329868E-1
3.359115854E0,-9.649057388E-1,-1.020359421E1,3.589234129E-2
3.361511583E0,-9.194421172E-1,-1.009113121E1,-1.794617027E-1
3.363906479E0,-8.500502706E-1,-1.019880867E1,-1.770688742E-1
3.366301427E0,-6.942176819E-1,-1.029930687E1,-1.316052526E-1
3.368697156E0,-6.726822853E-1,-1.012702370E1,-2.440679073E-1
3.371092885E0,-6.415755749E-1,-9.973882675E0,-4.118646085E-1
3.373487833E0,-6.415755749E-1,-9.981060982E0,-2.249253243E-1
3.375882781E0,-5.961119533E-1,-9.863813400E0,-7.657032460E-2
3.378278510E0,-5.530411601E-1,-9.866206169E0,-4.067798331E-2
3.380674239E0,-5.291129351E-1,-1.003848934E1,-6.699903309E-2
3.383069135E0,-5.267201066E-1,-1.024905777E1,8.614161611E-2
3.385464083E0,-5.315057039E-1,-1.026819992E1,2.560320199E-1
3.387859812E0,-5.027918816E-1,-1.018205833E1,3.664009571E-1
3.390255541E0,-4.405784607E-1,-1.011745262E1,3.352942765E-1
3.392650489E0,-3.879363835E-1,-1.000498962E1,5.147559643E-1
3.395045437E0,-3.759722710E-1,-1.002413273E1,5.506483316E-1
3.397441166E0,-3.879363835E-1,-1.008634567E1,5.506483316E-1
3.399836895E0,-4.118646085E-1,-1.002891827E1,6.798607111E-1
3.402231791E0,-3.879363835E-1,-9.875777245E0,7.947162390E-1
3.404626739E0,-3.400799036E-1,-9.810872078E0,8.476574421E-1
3.407022520E0,-1.890329868E-1,-9.193224907E0,1.010369420E0
3.409418250E0,1.316052526E-1,-8.463114738E0,1.510768414E0
3.411813145E0,6.939185411E-2,-8.506185532E0,9.194421172E-1
3.414208093E0,-1.698904037E-1,-8.625826836E0,1.866401732E-1
3.416603823E0,-3.664009571E-1,-9.049654961E0,-8.186444640E-1
3.418999552E0,-4.740779996E-1,-9.657731056E0,-1.762014747E0
3.421394448E0,-5.003990531E-1,-1.030409241E1,-2.236092806E0
3.423789395E0,-2.608176768E-1,-1.110867882E1,-2.147558212E0
3.426185177E0,2.871387079E-2,-1.195603752E1,-1.888834357E0
3.428580906E0,3.448655605E-1,-1.273908901E1,-1.400399446E0
3.430975802E0,7.444669604E-1,-1.324427319E1,-8.763712645E-1
3.433370750E0,1.086939692E0,-1.358166122E1,-3.424727321E-1
3.435766479E0,1.448554993E0,-1.381167126E1,9.810572863E-2
3.438162208E0,1.680658817E0,-1.419691563E1,4.046861231E-1
3.440557104E0,2.003988981E0,-1.471167183E1,5.171487927E-1
3.442952052E0,2.250449657E0,-1.501585960E1,5.961119533E-1
3.445347833E0,2.568994284E0,-1.507567978E1,6.535396576E-1
3.447743562E0,2.882453918E0,-1.502064514E1,7.564310431E-1
3.450138458E0,2.877668381E0,-1.559282875E1,-2.009970993E-1
3.452533406E0,3.282354355E0,-1.481695557E1,1.031904817E0
3.454929135E0,2.786741018E0,-1.494407463E1,6.607181430E-1
3.457324864E0,2.635993242E0,-1.489621830E1,6.224330068E-1
3.459719812E0,2.626421928E0,-1.499432373E1,5.291129351E-1
3.462114708E0,3.301496983E0,-1.512353611E1,6.774678826E-1
3.464510489E0,3.500101328E0,-1.518814278E1,3.975076675E-1
3.466906218E0,3.222533941E0,-1.505893040E1,3.828516230E-2
3.469301114E0,2.872882605E0,-1.492732525E1,-1.770688742E-1
3.471696062E0,2.465803623E0,-1.485763359E1,-2.560320199E-1
3.474091791E0,2.032702923E0,-1.477867126E1,-2.464607358E-1
3.476487520E0,1.711765528E0,-1.467817211E1,-2.344966233E-1
3.478882468E0,1.359721422E0,-1.455853081E1,-1.316052526E-1
3.481277364E0,1.048654556E0,-1.433599854E1,-1.914258115E-2
3.483673145E0,6.918248534E-1,-1.409641743E1,-9.571290575E-3
3.486068875E0,3.400799036E-1,-1.383320713E1,-4.785645287E-3
3.488463770E0,7.178467698E-3,-1.356012630E1,-6.939185411E-2
3.490858718E0,-2.392822653E-1,-1.326820183E1,-1.196411327E-1
3.493254448E0,-4.932205677E-1,-1.287787247E1,-1.124626622E-1
3.495650177E0,-7.683951855E-1,-1.240379429E1,-4.546362907E-2
3.498045125E0,-9.840483069E-1,-1.199432278E1,-6.460621208E-2
3.500440020E0,-1.144367456E0,-1.172871971E1,-1.292124242E-1
3.502835802E0,-1.256830096E0,-1.157557869E1,-1.746760458E-1
3.505231531E0,-1.340578914E0,-1.141974640E1,-1.770688742E-1
3.507626427E0,-1.429412484E0,-1.127378368E1,-8.853443712E-2
3.510021375E0,-1.482054472E0,-1.103210926E1,1.483550072E-1
3.512417104E0,-1.412662625E0,-1.107039356E1,-1.028913707E-1
3.514812833E0,-1.419841170E0,-1.105125141E1,-1.842473447E-1
3.517207781E0,-1.371685624E0,-1.087866879E1,-5.982056633E-2
3.519602677E0,-1.307079315E0,-1.084756279E1,-2.321037948E-1
3.521998458E0,-1.328614831E0,-1.083320522E1,-3.329014480E-1
3.524394187E0,-1.333400369E0,-1.080688477E1,-3.640081584E-1
3.526789083E0,-1.275972724E0,-1.073031425E1,-2.922234535E-1
3.529184031E0,-1.218544960E0,-1.063460159E1,-2.273181528E-1
3.531579760E0,-1.161117196E0,-1.055324554E1,-2.033899277E-1
3.533975489E0,-1.094118118E0,-1.049820995E1,-2.201396823E-1
3.536370437E0,-1.027119160E0,-1.046471119E1,-1.938186288E-1
3.538765333E0,-9.577272534E-1,-1.043599701E1,-1.579262912E-1
3.541161114E0,-8.931210637E-1,-1.040728283E1,-1.292124242E-1
3.543556843E0,-8.330013752E-1,-1.037587738E1,-1.004985496E-1
3.545951739E0,-7.468597889E-1,-1.035434151E1,-7.896314561E-2
3.548346687E0,-6.678966284E-1,-1.033041382E1,-3.828516230E-2
3.550742416E0,-6.080760360E-1,-1.028734303E1,2.392822690E-2
3.553138145E0,-5.362913609E-1,-1.024905777E1,7.657032460E-2
3.555533093E0,-4.812564552E-1,-1.022991467E1,1.100698411E-1
3.557927989E0,-4.238287210E-1,-1.020837975E1,1.531406492E-1
3.560323770E0,-3.735794425E-1,-1.022512913E1,1.603191197E-1
3.562719500E0,-3.472583890E-1,-1.022752190E1,1.938186288E-1
3.565114395E0,-3.352942765E-1,-1.023948669E1,2.297109663E-1
3.567509343E0,-3.759722710E-1,-1.024905777E1,2.464607358E-1
3.569905073E0,-3.592225015E-1,-1.025145054E1,2.826521695E-1
3.572300802E0,-3.592225015E-1,-1.022991467E1,3.185445070E-1
3.574695750E0,-3.807578981E-1,-1.022273636E1,2.994019389E-1
3.577090645E0,-3.879363835E-1,-1.021077251E1,3.041875660E-1
3.579486427E0,-3.735794425E-1,-1.021077251E1,3.041875660E-1
3.581882156E0,-3.711866140E-1,-1.020837975E1,3.137588799E-1
3.584277052E0,-3.735794425E-1,-1.021316528E1,3.137588799E-1
3.586672000E0,-3.807578981E-1,-1.023709393E1,3.592225015E-1
3.589067729E0,-3.831507266E-1,-1.022512913E1,3.448655605E-1
3.591463458E0,-3.879363835E-1,-1.020120144E1,3.592225015E-1
3.593858406E0,-3.903291821E-1,-1.017966557E1,3.783650696E-1
3.596253302E0,-3.424727321E-1,-1.011505985E1,3.735794425E-1
3.598649083E0,-2.850449979E-1,-1.008873844E1,3.951148391E-1
3.601044812E0,-2.608176768E-1,-1.005523872E1,4.118646085E-1
3.603439708E0,-2.057827413E-1,-9.935597420E0,4.645066857E-1
3.605834656E0,-1.268195957E-1,-9.894919395E0,4.788636267E-1
3.608230385E0,-7.417750359E-2,-9.823135376E0,4.908277392E-1
3.610626114E0,-4.785645287E-3,-9.753444672E0,5.362913609E-1
3.613021062E0,8.853443712E-2,-9.657731056E0,5.123631358E-1
3.615415958E0,1.459621787E-1,-9.562018394E0,5.003990531E-1
3.617811739E0,2.488535494E-1,-9.430413246E0,5.243272781E-1
3.620207468E0,3.400799036E-1,-9.286844254E0,6.272186637E-1
3.622602364E0,3.592225015E-1,-8.937192917E0,1.486840129E0
3.624997312E0,5.338985324E-1,-9.025727272E0,7.995018363E-1
3.627393041E0,7.013961077E-1,-9.121439934E0,3.687937856E-1
3.629788770E0,8.572286963E-1,-9.212367058E0,3.137588799E-1
3.632183718E0,9.433703423E-1,-9.308379173E0,4.429712892E-1
3.634578614E0,9.457631707E-1,-9.353842735E0,5.554339290E-1
3.636974395E0,9.266205430E-1,-9.392127991E0,6.439684033E-1
3.639370125E0,8.090731502E-1,-9.442377090E0,7.396813035E-1
3.641765020E0,9.074779749E-1,-9.461520195E0,8.548358679E-1
3.644159968E0,8.763712645E-1,-9.696016312E0,9.960124493E-1
3.646555698E0,5.961119533E-1,-9.854242325E0,8.715856671E-1
3.648951427E0,2.632105052E-1,-9.564411163E0,3.257229924E-1
3.651346323E0,9.810572863E-2,-9.202795982E0,1.746760458E-1
3.653741270E0,9.571290761E-2,-8.961120605E0,6.343970895E-1
3.656137052E0,2.727817893E-1,-8.805587769E0,9.529415965E-1
3.658532781E0,4.884349108E-1,-8.829515457E0,1.089332461E0
3.660927677E0,6.942176819E-1,-8.894122124E0,1.101296663E0
3.663322625E0,7.827520967E-1,-9.006584167E0,1.072582722E0
3.665718354E0,7.899305820E-1,-9.157332420E0,1.041476011E0
3.668114083E0,7.803592682E-1,-9.308379173E0,1.017547846E0
3.670508979E0,7.348956466E-1,-9.449555397E0,9.864411354E-1
3.672903927E0,6.798607111E-1,-9.552447319E0,9.792626500E-1
3.675299708E0,6.415755749E-1,-9.652945518E0,9.672985673E-1
3.677695437E0,5.985047817E-1,-9.739087105E0,9.720842242E-1
3.680090333E0,5.458626747E-1,-9.820742607E0,9.433703423E-1
3.682485281E0,4.956133962E-1,-9.882955551E0,9.242277741E-1
3.684881010E0,4.381856322E-1,-9.918848038E0,8.787640929E-1
3.687276739E0,3.855435550E-1,-9.964311600E0,8.428717852E-1
3.689671635E0,3.352942765E-1,-9.995418549E0,8.234301209E-1
3.692066583E0,2.751746178E-1,-1.001216793E1,8.042874932E-1
3.694462312E0,2.105683982E-1,-1.001695347E1,7.612167001E-1
3.696858041E0,1.435693651E-1,-1.003131104E1,7.348956466E-1
3.699252989E0,6.460621208E-2,-1.003848934E1,7.205387354E-1
3.701647937E0,3.589234129E-2,-1.003370380E1,6.942176819E-1
3.704043666E0,-1.435693540E-2,-1.002173901E1,6.798607111E-1
3.706439395E0,-7.178468257E-2,-9.997811317E0,6.702894568E-1
3.708834291E0,-1.028913707E-1,-1.000020409E1,6.559324861E-1
3.711229239E0,-1.124626622E-1,-9.969097137E0,6.320042610E-1
3.713624968E0,-1.459621787E-1,-9.945169449E0,6.152545214E-1
3.716020698E0,-1.842473447E-1,-9.918848038E0,5.889334679E-1
3.718415645E0,-1.938186288E-1,-9.909276962E0,5.769693851E-1
3.720810593E0,-1.962114573E-1,-9.866206169E0,5.673980713E-1
3.723206323E0,-2.153540403E-1,-9.844670296E0,5.386841893E-1
3.725602052E0,-2.344966233E-1,-9.854242325E0,5.123631358E-1
3.727996948E0,-2.273181528E-1,-9.820742607E0,4.980062246E-1
3.730391895E0,-2.368894368E-1,-9.808479309E0,4.788636267E-1
3.732787625E0,-2.201396823E-1,-9.815657616E0,4.621138871E-1
3.735183354E0,-2.009970993E-1,-9.810872078E0,4.525425732E-1
3.737578302E0,-2.033899277E-1,-9.815657616E0,4.453641176E-1
3.739973250E0,-1.818545163E-1,-9.808479309E0,4.405784607E-1
3.742368979E0,-1.651047617E-1,-9.820742607E0,4.118646085E-1
3.744764708E0,-1.387837082E-1,-9.825528145E0,4.094717801E-1
3.747159604E0,-9.092725813E-2,-9.847063065E0,4.286143482E-1
3.749554552E0,-8.614161611E-2,-9.847063065E0,4.262215197E-1
3.751950281E0,-5.024927482E-2,-9.856635094E0,4.190430641E-1
3.754346010E0,-3.589234129E-2,-9.875777245E0,4.142574072E-1
3.756740958E0,-2.632104978E-2,-9.904491425E0,4.214358926E-1
3.759135854E0,1.674975827E-2,-9.885348320E0,4.357928336E-1
3.761531635E0,3.589234129E-2,-9.897313118E0,4.190430641E-1
3.763927364E0,4.546362907E-2,-9.914062500E0,4.166502357E-1
3.766322260E0,7.178468257E-2,-9.921240807E0,4.405784607E-1
3.768717208E0,1.004985496E-1,-9.933204651E0,4.453641176E-1
3.771112937E0,1.292124242E-1,-9.937990189E0,4.381856322E-1
3.773508666E0,1.459621787E-1,-9.945169449E0,4.621138871E-1
3.775903614E0,1.603191197E-1,-9.954740524E0,4.788636267E-1
3.778298510E0,1.818545163E-1,-9.933204651E0,4.788636267E-1
3.780694291E0,2.057827413E-1,-9.952347755E0,4.908277392E-1
3.783090020E0,2.297109663E-1,-9.961918831E0,5.027918816E-1
3.785484916E0,2.368894368E-1,-9.983454704E0,5.195416212E-1
3.787879864E0,2.344966233E-1,-9.976275444E0,5.338985324E-1
3.790275593E0,2.679961324E-1,-9.966704369E0,5.051847100E-1
3.792671323E0,2.656033039E-1,-9.981060982E0,5.075774789E-1
3.795066218E0,2.799602449E-1,-9.990633011E0,5.171487927E-1
3.797461166E0,2.727817893E-1,-9.961918831E0,5.195416212E-1
3.799856948E0,2.799602449E-1,-9.942776680E0,5.195416212E-1
3.802252677E0,2.799602449E-1,-9.949954987E0,5.267201066E-1
3.804647573E0,2.970091105E-1,-9.937990189E0,5.171487927E-1
3.807042520E0,2.970091105E-1,-9.945169449E0,5.171487927E-1
3.809438250E0,2.994019389E-1,-9.937990189E0,5.051847100E-1
3.811833979E0,3.017947674E-1,-9.930811882E0,5.099703074E-1
3.814228875E0,2.826521695E-1,-9.914062500E0,5.147559643E-1
3.816623823E0,3.017947674E-1,-9.897313118E0,5.051847100E-1
3.819019552E0,3.161516786E-1,-9.911669731E0,5.027918816E-1
3.821415281E0,3.041875660E-1,-9.930811882E0,5.075774789E-1
3.823810229E0,3.017947674E-1,-9.923633575E0,4.956133962E-1
3.826205177E0,3.161516786E-1,-9.906884193E0,5.123631358E-1
3.828600906E0,3.257229924E-1,-9.914062500E0,5.099703074E-1
3.830996635E0,3.161516786E-1,-9.916455269E0,4.980062246E-1
3.833391531E0,2.922234535E-1,-9.921240807E0,4.932205677E-1
3.835786479E0,2.775674164E-1,-9.945169449E0,4.932205677E-1
3.838182208E0,2.703889608E-1,-9.952347755E0,4.788636267E-1
3.840577937E0,2.392822653E-1,-9.969097137E0,4.836492836E-1
3.842972885E0,2.536391914E-1,-9.959526062E0,4.764707983E-1
3.845367781E0,2.321037948E-1,-9.959526062E0,4.525425732E-1
3.847763562E0,2.368894368E-1,-9.952347755E0,4.549354017E-1
3.850159291E0,2.297109663E-1,-9.949954987E0,4.525425732E-1
3.852554187E0,2.129612118E-1,-9.966704369E0,4.357928336E-1
3.854949135E0,1.986042857E-1,-9.973882675E0,4.357928336E-1
3.857344864E0,1.914258152E-1,-9.990633011E0,4.405784607E-1
3.859740593E0,1.746760458E-1,-9.969097137E0,4.046861231E-1
3.862135541E0,1.938186288E-1,-9.957133293E0,3.783650696E-1
3.864530437E0,1.770688742E-1,-9.978668213E0,3.807578981E-1
3.866926218E0,1.698904037E-1,-9.969097137E0,3.496512175E-1
3.869321948E0,1.794617027E-1,-9.971489906E0,3.400799036E-1
3.871716843E0,1.818545163E-1,-9.966704369E0,3.257229924E-1
3.874111791E0,1.794617027E-1,-9.933204651E0,3.089732230E-1
3.876507520E0,2.033899277E-1,-9.942776680E0,2.970091105E-1
3.878903250E0,2.033899277E-1,-9.940383911E0,2.970091105E-1
3.881298198E0,2.153540403E-1,-9.952347755E0,2.826521695E-1
3.883693093E0,2.129612118E-1,-9.930811882E0,3.161516786E-1
3.886088875E0,2.105683982E-1,-9.928419113E0,3.113660514E-1
3.888484604E0,2.081755698E-1,-9.926026344E0,2.922234535E-1
3.890879500E0,2.153540403E-1,-9.937990189E0,2.946162820E-1
3.893274448E0,2.321037948E-1,-9.935597420E0,3.185445070E-1
3.895670177E0,2.249253243E-1,-9.916455269E0,3.137588799E-1
3.898065906E0,2.249253243E-1,-9.914062500E0,3.137588799E-1
3.900460802E0,2.177468538E-1,-9.914062500E0,3.424727321E-1
3.902855750E0,2.392822653E-1,-9.914062500E0,3.568296731E-1
3.905251479E0,2.153540403E-1,-9.933204651E0,3.592225015E-1
3.907647208E0,2.392822653E-1,-9.933204651E0,3.831507266E-1
3.910042156E0,2.488535494E-1,-9.930811882E0,3.927220106E-1
3.912437052E0,2.703889608E-1,-9.930811882E0,3.975076675E-1
3.914832833E0,3.017947674E-1,-9.923633575E0,4.310071766E-1
3.917228562E0,3.041875660E-1,-9.904491425E0,4.381856322E-1
3.919623458E0,2.874378264E-1,-9.933204651E0,4.501497746E-1
3.922018406E0,3.305086195E-1,-9.916455269E0,4.501497746E-1
3.924414135E0,3.352942765E-1,-9.923633575E0,4.692923427E-1
3.926809864E0,3.448655605E-1,-9.904491425E0,4.716851711E-1
3.929204812E0,3.424727321E-1,-9.909276962E0,4.740779996E-1
3.931599708E0,3.640081584E-1,-9.904491425E0,4.836492836E-1
3.933995489E0,3.687937856E-1,-9.897313118E0,5.027918816E-1
3.936391218E0,3.807578981E-1,-9.878170013E0,5.147559643E-1
3.938786114E0,3.999004960E-1,-9.887741089E0,5.338985324E-1
3.941181062E0,3.927220106E-1,-9.873384476E0,5.243272781E-1
3.943576791E0,3.999004960E-1,-9.863813400E0,5.243272781E-1
3.945972520E0,4.022932947E-1,-9.854242325E0,5.219344497E-1
3.948367468E0,3.855435550E-1,-9.849455833E0,5.362913609E-1
3.950762364E0,3.759722710E-1,-9.808479309E0,5.458626747E-1
3.953158093E0,3.951148391E-1,-9.830313683E0,5.386841893E-1
3.955553823E0,3.783650696E-1,-9.813264847E0,5.434698462E-1
3.957948770E0,3.879363835E-1,-9.798908234E0,5.602195859E-1
3.960343718E0,3.544368446E-1,-9.803693771E0,5.506483316E-1
3.962739448E0,3.448655605E-1,-9.810872078E0,5.626124144E-1
3.965135177E0,3.448655605E-1,-9.801301003E0,5.602195859E-1
3.967530073E0,3.329014480E-1,-9.789336205E0,5.315057039E-1
3.969925020E0,3.424727321E-1,-9.796515465E0,5.291129351E-1
3.972320750E0,3.209373355E-1,-9.801301003E0,5.195416212E-1
3.974716479E0,3.233301640E-1,-9.810872078E0,5.027918816E-1
3.977111427E0,3.376871049E-1,-9.808479309E0,4.812564552E-1
3.979506323E0,3.281157911E-1,-9.779765129E0,4.908277392E-1
3.981902104E0,3.185445070E-1,-9.789336205E0,4.716851711E-1
3.984297833E0,3.113660514E-1,-9.786943436E0,4.645066857E-1
3.986692729E0,2.970091105E-1,-9.777372360E0,4.621138871E-1
3.989087677E0,3.017947674E-1,-9.763015747E0,4.573282301E-1
3.991483406E0,3.017947674E-1,-9.782157898E0,4.334000051E-1
3.993879135E0,3.065803945E-1,-9.779765129E0,4.357928336E-1
3.996274083E0,3.017947674E-1,-9.777372360E0,4.142574072E-1
3.998668979E0,2.994019389E-1,-9.801301003E0,4.262215197E-1
4.001064708E0,2.946162820E-1,-9.798908234E0,4.429712892E-1
4.003460437E0,2.898306549E-1,-9.803693771E0,4.501497746E-1
4.005855385E0,2.826521695E-1,-9.808479309E0,4.453641176E-1
4.008250333E0,2.632105052E-1,-9.839884758E0,4.597210586E-1
4.010646062E0,2.560320199E-1,-9.815657616E0,4.429712892E-1
4.013041791E0,2.440679073E-1,-9.830313683E0,4.453641176E-1
4.015436687E0,2.344966233E-1,-9.835099220E0,4.645066857E-1
4.017831635E0,2.368894368E-1,-9.844670296E0,4.860421121E-1
4.020227364E0,2.153540403E-1,-9.844670296E0,4.716851711E-1
4.022623093E0,2.273181528E-1,-9.839884758E0,4.788636267E-1
4.025018041E0,2.368894368E-1,-9.844670296E0,4.908277392E-1
4.027412989E0,2.177468538E-1,-9.847063065E0,4.716851711E-1
4.029808718E0,2.297109663E-1,-9.873384476E0,4.908277392E-1
4.032204448E0,2.249253243E-1,-9.873384476E0,5.051847100E-1
4.034599343E0,2.201396823E-1,-9.882955551E0,5.243272781E-1
4.036994291E0,2.081755698E-1,-9.870991707E0,5.003990531E-1
4.039390020E0,2.177468538E-1,-9.887741089E0,5.315057039E-1
4.041785750E0,2.129612118E-1,-9.897313118E0,5.362913609E-1
4.044180698E0,2.057827413E-1,-9.880562782E0,5.291129351E-1
4.046575593E0,2.105683982E-1,-9.882955551E0,5.386841893E-1
4.048971375E0,2.033899277E-1,-9.882955551E0,5.243272781E-1
4.051367104E0,2.153540403E-1,-9.868598938E0,5.315057039E-1
4.053762000E0,2.177468538E-1,-9.875777245E0,5.123631358E-1
4.056156948E0,2.297109663E-1,-9.882955551E0,5.147559643E-1
4.058552677E0,2.440679073E-1,-9.875777245E0,5.219344497E-1
4.060948406E0,2.321037948E-1,-9.885348320E0,5.338985324E-1
4.063343302E0,2.584248483E-1,-9.880562782E0,5.291129351E-1
4.065738250E0,2.536391914E-1,-9.880562782E0,5.506483316E-1
4.068133979E0,2.608176768E-1,-9.847063065E0,5.099703074E-1
4.070529708E0,2.922234535E-1,-9.868598938E0,5.243272781E-1
4.072924656E0,2.703889608E-1,-9.863813400E0,4.956133962E-1
4.075319604E0,2.874378264E-1,-9.863813400E0,5.291129351E-1
4.077715333E0,2.994019389E-1,-9.882955551E0,4.932205677E-1
4.080111062E0,3.185445070E-1,-9.861420631E0,4.980062246E-1
4.082505958E0,3.161516786E-1,-9.854242325E0,4.980062246E-1
4.084900906E0,3.113660514E-1,-9.863813400E0,4.812564552E-1
4.087296635E0,3.257229924E-1,-9.854242325E0,4.716851711E-1
4.089692364E0,3.185445070E-1,-9.856635094E0,4.668995142E-1
4.092087312E0,3.305086195E-1,-9.875777245E0,4.740779996E-1
4.094482208E0,3.329014480E-1,-9.849455833E0,4.812564552E-1
4.096877989E0,3.281157911E-1,-9.851848602E0,4.621138871E-1
4.099273718E0,3.233301640E-1,-9.832706451E0,4.788636267E-1
4.101668614E0,3.281157911E-1,-9.835099220E0,4.597210586E-1
4.104063562E0,3.257229924E-1,-9.842277527E0,4.573282301E-1
4.106459291E0,3.233301640E-1,-9.830313683E0,4.453641176E-1
4.108855020E0,3.233301640E-1,-9.835099220E0,4.501497746E-1
4.111249916E0,3.305086195E-1,-9.815657616E0,4.381856322E-1
4.113644864E0,3.161516786E-1,-9.820742607E0,4.357928336E-1
4.116040593E0,3.089732230E-1,-9.842277527E0,4.453641176E-1
4.118436323E0,3.065803945E-1,-9.803693771E0,4.453641176E-1
4.120831270E0,3.041875660E-1,-9.830313683E0,4.381856322E-1
4.123226218E0,3.089732230E-1,-9.818050385E0,4.238287210E-1
4.125621948E0,3.041875660E-1,-9.827920914E0,4.190430641E-1
4.128017677E0,2.994019389E-1,-9.813264847E0,4.310071766E-1
4.130412573E0,3.017947674E-1,-9.842277527E0,4.286143482E-1
4.132807520E0,3.065803945E-1,-9.830313683E0,4.262215197E-1
4.135203250E0,2.994019389E-1,-9.844670296E0,4.405784607E-1
4.137598979E0,3.257229924E-1,-9.830313683E0,4.381856322E-1
4.139993927E0,3.041875660E-1,-9.837491989E0,4.238287210E-1
4.142388823E0,2.751746178E-1,-9.844670296E0,4.310071766E-1
4.144784604E0,2.799602449E-1,-9.808479309E0,4.334000051E-1
4.147180333E0,2.826521695E-1,-9.837491989E0,4.238287210E-1
4.149575229E0,2.922234535E-1,-9.851848602E0,3.951148391E-1
4.151970177E0,2.898306549E-1,-9.863813400E0,4.190430641E-1
4.154365906E0,3.017947674E-1,-9.847063065E0,4.046861231E-1
4.156761635E0,3.089732230E-1,-9.859027863E0,4.214358926E-1
4.159156531E0,3.113660514E-1,-9.868598938E0,3.999004960E-1
4.161551479E0,2.874378264E-1,-9.847063065E0,4.142574072E-1
4.163947208E0,2.946162820E-1,-9.873384476E0,4.238287210E-1
4.166342937E0,2.775674164E-1,-9.878170013E0,4.166502357E-1
4.168737885E0,2.994019389E-1,-9.870991707E0,4.142574072E-1
4.171132781E0,3.017947674E-1,-9.878170013E0,4.070789516E-1
4.173528562E0,2.898306549E-1,-9.875777245E0,4.070789516E-1
4.175924291E0,2.826521695E-1,-9.861420631E0,4.166502357E-1
4.178319187E0,2.727817893E-1,-9.887741089E0,4.214358926E-1
4.180714135E0,2.922234535E-1,-9.887741089E0,4.142574072E-1
4.183109864E0,2.799602449E-1,-9.897313118E0,4.070789516E-1
4.185505593E0,2.560320199E-1,-9.904491425E0,3.951148391E-1
4.187900541E0,2.751746178E-1,-9.923633575E0,4.070789516E-1
4.190295437E0,2.751746178E-1,-9.930811882E0,4.022932947E-1
4.192691166E0,2.703889608E-1,-9.933204651E0,3.975076675E-1
4.195086895E0,2.632105052E-1,-9.935597420E0,3.831507266E-1
4.197481843E0,2.703889608E-1,-9.937990189E0,3.735794425E-1
4.199876791E0,2.656033039E-1,-9.942776680E0,3.664009571E-1
4.202272520E0,2.703889608E-1,-9.954740524E0,3.831507266E-1
4.204668250E0,2.632105052E-1,-9.957133293E0,3.735794425E-1
4.207063145E0,2.608176768E-1,-9.971489906E0,3.448655605E-1
4.209458093E0,2.608176768E-1,-9.969097137E0,3.520440459E-1
4.211853823E0,2.727817893E-1,-9.988240242E0,3.616153300E-1
4.214249552E0,2.608176768E-1,-9.969097137E0,3.640081584E-1
4.216644500E0,2.751746178E-1,-9.954740524E0,3.735794425E-1
4.219039395E0,2.751746178E-1,-9.988240242E0,3.616153300E-1
4.221435177E0,2.826521695E-1,-9.964311600E0,3.472583890E-1
4.223830906E0,2.703889608E-1,-9.942776680E0,3.520440459E-1
4.226225802E0,3.017947674E-1,-9.926026344E0,3.496512175E-1
4.228620750E0,2.850449979E-1,-9.923633575E0,3.520440459E-1
4.231016479E0,2.970091105E-1,-9.921240807E0,3.664009571E-1
4.233412208E0,2.898306549E-1,-9.918848038E0,3.927220106E-1
4.235807104E0,2.775674164E-1,-9.923633575E0,3.783650696E-1
4.238202052E0,2.799602449E-1,-9.906884193E0,3.903291821E-1
4.240597781E0,2.922234535E-1,-9.897313118E0,3.951148391E-1
4.242993510E0,2.775674164E-1,-9.918848038E0,4.070789516E-1
4.245388458E0,2.799602449E-1,-9.926026344E0,3.879363835E-1
4.247783354E0,2.656033039E-1,-9.926026344E0,3.927220106E-1
4.250179135E0,2.656033039E-1,-9.902098656E0,3.975076675E-1
4.252574864E0,2.536391914E-1,-9.892526627E0,4.166502357E-1
4.254969760E0,2.536391914E-1,-9.892526627E0,4.142574072E-1
4.257364708E0,2.488535494E-1,-9.885348320E0,4.262215197E-1
4.259760437E0,2.584248483E-1,-9.887741089E0,4.190430641E-1
4.262156166E0,2.656033039E-1,-9.894919395E0,4.070789516E-1
4.264551062E0,2.440679073E-1,-9.887741089E0,4.118646085E-1
4.266946010E0,2.608176768E-1,-9.875777245E0,4.166502357E-1
4.269341791E0,2.488535494E-1,-9.870991707E0,4.166502357E-1
4.271737520E0,2.488535494E-1,-9.868598938E0,4.142574072E-1
4.274132416E0,2.703889608E-1,-9.849455833E0,3.855435550E-1
4.276527364E0,2.584248483E-1,-9.863813400E0,3.903291821E-1
4.278923093E0,2.512463629E-1,-9.863813400E0,3.927220106E-1
4.281318823E0,2.656033039E-1,-9.868598938E0,3.831507266E-1
4.283713718E0,2.970091105E-1,-9.861420631E0,3.592225015E-1
4.286108666E0,2.946162820E-1,-9.856635094E0,3.711866140E-1
4.288504395E0,3.065803945E-1,-9.847063065E0,3.472583890E-1
4.290900125E0,3.137588799E-1,-9.820742607E0,3.544368446E-1
4.293295073E0,3.233301640E-1,-9.825528145E0,3.735794425E-1
4.295689968E0,3.496512175E-1,-9.837491989E0,3.711866140E-1
4.298085750E0,3.687937856E-1,-9.825528145E0,3.496512175E-1
4.300481479E0,3.640081584E-1,-9.844670296E0,3.544368446E-1
4.302876375E0,3.735794425E-1,-9.835099220E0,3.735794425E-1
4.305271323E0,3.735794425E-1,-9.842277527E0,3.544368446E-1
4.307667052E0,3.975076675E-1,-9.861420631E0,3.592225015E-1
4.310062781E0,4.142574072E-1,-9.859027863E0,3.568296731E-1
4.312457677E0,4.142574072E-1,-9.887741089E0,3.400799036E-1
4.314852625E0,4.022932947E-1,-9.887741089E0,3.472583890E-1
4.317248354E0,4.262215197E-1,-9.894919395E0,3.568296731E-1
4.319644083E0,4.166502357E-1,-9.885348320E0,3.711866140E-1
4.322039031E0,4.238287210E-1,-9.892526627E0,3.592225015E-1
4.324433927E0,4.381856322E-1,-9.906884193E0,3.592225015E-1
4.326829708E0,4.381856322E-1,-9.916455269E0,3.520440459E-1
4.329225437E0,4.334000051E-1,-9.923633575E0,3.568296731E-1
4.331620333E0,4.381856322E-1,-9.911669731E0,3.640081584E-1
4.334015281E0,4.453641176E-1,-9.928419113E0,3.687937856E-1
4.336411010E0,4.549354017E-1,-9.930811882E0,3.544368446E-1
4.338806739E0,4.405784607E-1,-9.899705887E0,3.640081584E-1
4.341201635E0,4.381856322E-1,-9.918848038E0,3.831507266E-1
4.343596583E0,4.118646085E-1,-9.906884193E0,4.621138871E-1
4.345992312E0,4.214358926E-1,-9.892526627E0,6.559324861E-1
4.348388041E0,4.597210586E-1,-9.861420631E0,8.644071817E-1
4.350782989E0,6.272186637E-1,-1.001695347E1,2.632105052E-1
4.353177885E0,5.769693851E-1,-1.010309505E1,-2.679961324E-1
4.355573666E0,3.903291821E-1,-1.008156013E1,-2.273181528E-1
4.357969395E0,2.799602449E-1,-9.983454704E0,1.746760458E-1
4.360364291E0,2.608176768E-1,-9.909276962E0,5.315057039E-1
4.362759239E0,3.568296731E-1,-9.868598938E0,5.650052428E-1
4.365154968E0,3.999004960E-1,-9.899705887E0,4.740779996E-1
4.367550698E0,4.214358926E-1,-9.906884193E0,3.975076675E-1
4.369945593E0,3.999004960E-1,-9.894919395E0,3.687937856E-1
4.372340541E0,3.640081584E-1,-9.892526627E0,3.209373355E-1
4.374736270E0,3.352942765E-1,-9.873384476E0,2.799602449E-1
4.377132000E0,3.472583890E-1,-9.882955551E0,2.536391914E-1
4.379526948E0,3.735794425E-1,-9.878170013E0,2.512463629E-1
4.381921843E0,3.472583890E-1,-9.904491425E0,2.416750938E-1
4.384317625E0,3.568296731E-1,-9.878170013E0,2.392822653E-1
4.386713354E0,3.592225015E-1,-9.878170013E0,2.344966233E-1
4.389108250E0,3.855435550E-1,-9.882955551E0,2.297109663E-1
4.391503198E0,3.855435550E-1,-9.906884193E0,2.344966233E-1
4.393898927E0,3.759722710E-1,-9.882955551E0,2.273181528E-1
4.396294656E0,3.951148391E-1,-9.897313118E0,2.368894368E-1
4.398689552E0,3.640081584E-1,-9.885348320E0,2.344966233E-1
4.401084500E0,3.616153300E-1,-9.885348320E0,2.368894368E-1
4.403480229E0,3.807578981E-1,-9.897313118E0,2.344966233E-1
4.405875958E0,4.094717801E-1,-9.887741089E0,2.177468538E-1
4.408270906E0,4.070789516E-1,-9.890133858E0,2.392822653E-1
4.410665854E0,4.070789516E-1,-9.873384476E0,2.560320199E-1
4.413061583E0,4.070789516E-1,-9.854242325E0,2.488535494E-1
4.415457312E0,3.975076675E-1,-9.859027863E0,2.297109663E-1
4.417852208E0,3.999004960E-1,-9.849455833E0,2.464607358E-1
4.420247156E0,3.999004960E-1,-9.873384476E0,2.727817893E-1
4.422642885E0,3.903291821E-1,-9.870991707E0,2.416750938E-1
4.425038614E0,3.927220106E-1,-9.880562782E0,2.560320199E-1
4.427433510E0,3.927220106E-1,-9.894919395E0,2.608176768E-1
4.429828458E0,3.831507266E-1,-9.904491425E0,2.703889608E-1
4.432224187E0,3.783650696E-1,-9.921240807E0,2.703889608E-1
4.434619916E0,3.783650696E-1,-9.926026344E0,2.656033039E-1
4.437014864E0,3.831507266E-1,-9.902098656E0,2.751746178E-1
4.439409760E0,3.783650696E-1,-9.892526627E0,2.799602449E-1
4.441805541E0,3.592225015E-1,-9.921240807E0,2.898306549E-1
4.444201270E0,3.664009571E-1,-9.918848038E0,2.608176768E-1
4.446596166E0,3.616153300E-1,-9.947562218E0,2.874378264E-1
4.448991114E0,3.640081584E-1,-9.945169449E0,2.775674164E-1
4.451386843E0,3.568296731E-1,-9.937990189E0,2.922234535E-1
4.453782573E0,3.687937856E-1,-9.933204651E0,2.922234535E-1
4.456177468E0,3.568296731E-1,-9.935597420E0,2.970091105E-1
4.458572416E0,3.711866140E-1,-9.947562218E0,3.113660514E-1
4.460968145E0,3.807578981E-1,-9.937990189E0,3.137588799E-1
4.463363875E0,4.022932947E-1,-9.945169449E0,2.994019389E-1
4.465758823E0,4.046861231E-1,-9.928419113E0,2.874378264E-1
4.468153770E0,4.094717801E-1,-9.942776680E0,2.826521695E-1
4.470549500E0,3.879363835E-1,-9.914062500E0,2.898306549E-1
4.472945229E0,4.094717801E-1,-9.916455269E0,3.065803945E-1
4.475340125E0,4.046861231E-1,-9.921240807E0,3.017947674E-1
4.477735073E0,3.999004960E-1,-9.916455269E0,2.826521695E-1
4.480130802E0,3.855435550E-1,-9.921240807E0,2.922234535E-1
4.482526531E0,3.903291821E-1,-9.930811882E0,3.017947674E-1
4.484921427E0,3.951148391E-1,-9.902098656E0,2.922234535E-1
4.487316375E0,3.927220106E-1,-9.892526627E0,3.089732230E-1
4.489712104E0,3.735794425E-1,-9.885348320E0,2.994019389E-1
4.492107833E0,4.046861231E-1,-9.897313118E0,2.898306549E-1
4.494502781E0,4.022932947E-1,-9.890133858E0,2.946162820E-1
4.496897677E0,3.855435550E-1,-9.863813400E0,2.679961324E-1
4.499293458E0,3.879363835E-1,-9.861420631E0,2.608176768E-1
4.501689187E0,3.999004960E-1,-9.878170013E0,2.632105052E-1
4.504084083E0,3.927220106E-1,-9.868598938E0,2.656033039E-1
4.506479031E0,3.903291821E-1,-9.873384476E0,2.584248483E-1
4.508874760E0,3.879363835E-1,-9.882955551E0,2.727817893E-1
4.511270489E0,3.807578981E-1,-9.887741089E0,2.321037948E-1
4.513665385E0,3.927220106E-1,-9.892526627E0,2.321037948E-1
4.516060333E0,3.999004960E-1,-9.882955551E0,2.440679073E-1
4.518456062E0,3.903291821E-1,-9.885348320E0,2.392822653E-1
4.520851791E0,3.855435550E-1,-9.890133858E0,2.488535494E-1
4.523246739E0,3.831507266E-1,-9.902098656E0,2.297109663E-1
4.525641635E0,3.783650696E-1,-9.911669731E0,2.392822653E-1
4.528037416E0,3.903291821E-1,-9.945169449E0,2.584248483E-1
4.530433145E0,3.807578981E-1,-9.914062500E0,2.368894368E-1
4.532828041E0,3.903291821E-1,-9.923633575E0,2.297109663E-1
4.535222989E0,4.046861231E-1,-9.930811882E0,2.201396823E-1
4.537618718E0,3.999004960E-1,-9.921240807E0,2.105683982E-1
4.540014448E0,3.999004960E-1,-9.926026344E0,2.081755698E-1
4.542409343E0,4.046861231E-1,-9.906884193E0,2.321037948E-1
4.544804291E0,4.166502357E-1,-9.909276962E0,2.177468538E-1
4.547200020E0,4.262215197E-1,-9.914062500E0,2.129612118E-1
4.549595750E0,4.190430641E-1,-9.928419113E0,2.153540403E-1
4.551990698E0,4.118646085E-1,-9.921240807E0,2.177468538E-1
4.554385593E0,4.334000051E-1,-9.930811882E0,2.201396823E-1
4.556781375E0,4.262215197E-1,-9.940383911E0,2.177468538E-1
4.559177104E0,4.310071766E-1,-9.916455269E0,2.321037948E-1
4.561572000E0,4.429712892E-1,-9.921240807E0,2.392822653E-1
4.563966948E0,4.334000051E-1,-9.923633575E0,2.392822653E-1
4.566362677E0,4.405784607E-1,-9.928419113E0,2.153540403E-1
4.568758406E0,4.334000051E-1,-9.921240807E0,1.962114573E-1
4.571153302E0,4.429712892E-1,-9.928419113E0,2.368894368E-1
4.573548250E0,4.429712892E-1,-9.933204651E0,2.273181528E-1
4.575943979E0,4.381856322E-1,-9.926026344E0,2.321037948E-1
4.578339708E0,4.381856322E-1,-9.930811882E0,2.273181528E-1
4.580734656E0,4.405784607E-1,-9.926026344E0,2.297109663E-1
4.583129552E0,4.310071766E-1,-9.911669731E0,2.105683982E-1
4.585525333E0,4.262215197E-1,-9.940383911E0,2.368894368E-1
4.587921062E0,4.405784607E-1,-9.933204651E0,2.464607358E-1
4.590315958E0,4.549354017E-1,-9.926026344E0,2.464607358E-1
4.592710906E0,4.310071766E-1,-9.902098656E0,2.392822653E-1
4.595106635E0,4.501497746E-1,-9.923633575E0,2.656033039E-1
4.597502364E0,4.573282301E-1,-9.894919395E0,2.584248483E-1
4.599897260E0,4.429712892E-1,-9.899705887E0,2.775674164E-1
4.602292208E0,4.429712892E-1,-9.890133858E0,2.799602449E-1
4.604687937E0,4.286143482E-1,-9.890133858E0,3.041875660E-1
4.607083666E0,4.310071766E-1,-9.894919395E0,2.898306549E-1
4.609478562E0,4.286143482E-1,-9.899705887E0,2.970091105E-1
4.611873510E0,4.357928336E-1,-9.921240807E0,2.703889608E-1
4.614269239E0,4.142574072E-1,-9.914062500E0,2.826521695E-1
4.616664968E0,4.190430641E-1,-9.904491425E0,2.656033039E-1
4.619059916E0,4.238287210E-1,-9.904491425E0,2.679961324E-1
4.621454812E0,3.999004960E-1,-9.904491425E0,2.946162820E-1
4.623850593E0,4.070789516E-1,-9.918848038E0,2.850449979E-1
4.626246323E0,3.879363835E-1,-9.923633575E0,2.826521695E-1
4.628641218E0,3.879363835E-1,-9.902098656E0,2.922234535E-1
4.631036166E0,3.951148391E-1,-9.885348320E0,2.727817893E-1
4.633431895E0,3.903291821E-1,-9.904491425E0,2.898306549E-1
4.635827625E0,3.903291821E-1,-9.902098656E0,2.826521695E-1
4.638222520E0,3.879363835E-1,-9.902098656E0,2.679961324E-1
4.640617468E0,3.879363835E-1,-9.878170013E0,2.679961324E-1
4.643013198E0,3.951148391E-1,-9.880562782E0,2.727817893E-1
4.645408927E0,3.807578981E-1,-9.880562782E0,2.775674164E-1
4.647803875E0,3.735794425E-1,-9.866206169E0,2.775674164E-1
4.650198770E0,3.783650696E-1,-9.856635094E0,2.775674164E-1
4.652594552E0,3.807578981E-1,-9.851848602E0,2.632105052E-1
4.654990281E0,3.903291821E-1,-9.839884758E0,2.703889608E-1
4.657385177E0,3.903291821E-1,-9.859027863E0,2.727817893E-1
4.659780125E0,3.879363835E-1,-9.851848602E0,2.679961324E-1
4.662175854E0,4.070789516E-1,-9.859027863E0,2.727817893E-1
4.664571583E0,3.879363835E-1,-9.870991707E0,2.826521695E-1
4.666966479E0,4.046861231E-1,-9.839884758E0,2.727817893E-1
4.669361427E0,4.214358926E-1,-9.861420631E0,2.608176768E-1
4.671757156E0,4.405784607E-1,-9.866206169E0,2.850449979E-1
4.674152885E0,4.429712892E-1,-9.849455833E0,2.703889608E-1
4.676547833E0,4.334000051E-1,-9.870991707E0,2.727817893E-1
4.678942729E0,4.381856322E-1,-9.887741089E0,2.632105052E-1
4.681338458E0,4.405784607E-1,-9.916455269E0,2.727817893E-1
4.683734187E0,4.310071766E-1,-9.909276962E0,2.608176768E-1
4.686129135E0,4.597210586E-1,-9.909276962E0,2.632105052E-1
4.688524083E0,4.525425732E-1,-9.902098656E0,2.440679073E-1
4.690919812E0,4.405784607E-1,-9.906884193E0,2.440679073E-1
4.693315541E0,4.477569461E-1,-9.918848038E0,2.464607358E-1
4.695710437E0,4.453641176E-1,-9.906884193E0,2.488535494E-1
4.698105385E0,4.381856322E-1,-9.930811882E0,2.512463629E-1
4.700501114E0,4.477569461E-1,-9.926026344E0,2.560320199E-1
4.702896843E0,4.429712892E-1,-9.906884193E0,2.656033039E-1
4.705291739E0,4.525425732E-1,-9.918848038E0,2.608176768E-1
4.707686687E0,4.405784607E-1,-9.933204651E0,2.608176768E-1
4.710082416E0,4.453641176E-1,-9.937990189E0,2.632105052E-1
4.712478145E0,4.429712892E-1,-9.935597420E0,2.703889608E-1
4.714873093E0,4.453641176E-1,-9.935597420E0,2.775674164E-1
4.717267989E0,4.621138871E-1,-9.933204651E0,2.536391914E-1
4.719663770E0,4.477569461E-1,-9.918848038E0,2.536391914E-1
4.722059500E0,4.501497746E-1,-9.916455269E0,2.656033039E-1
4.724454395E0,4.381856322E-1,-9.957133293E0,2.679961324E-1
4.726849343E0,4.429712892E-1,-9.937990189E0,2.656033039E-1
4.729245073E0,4.429712892E-1,-9.916455269E0,2.560320199E-1
4.731640802E0,4.334000051E-1,-9.918848038E0,2.679961324E-1
4.734035698E0,4.214358926E-1,-9.921240807E0,2.850449979E-1
4.736430645E0,4.166502357E-1,-9.916455269E0,2.584248483E-1
4.738826375E0,4.022932947E-1,-9.935597420E0,2.799602449E-1
4.741222104E0,4.142574072E-1,-9.923633575E0,2.440679073E-1
4.743617052E0,4.022932947E-1,-9.926026344E0,2.679961324E-1
4.746011948E0,4.094717801E-1,-9.940383911E0,2.632105052E-1
4.748407677E0,3.999004960E-1,-9.923633575E0,2.703889608E-1
4.750803406E0,3.999004960E-1,-9.940383911E0,2.416750938E-1
4.753198354E0,3.951148391E-1,-9.909276962E0,2.512463629E-1
4.755593302E0,3.999004960E-1,-9.921240807E0,2.826521695E-1
4.757989031E0,3.783650696E-1,-9.914062500E0,2.679961324E-1
4.760384760E0,3.855435550E-1,-9.894919395E0,2.584248483E-1
4.762779656E0,3.735794425E-1,-9.918848038E0,2.584248483E-1
4.765174604E0,3.831507266E-1,-9.914062500E0,2.512463629E-1
4.767570333E0,3.783650696E-1,-9.916455269E0,2.273181528E-1
4.769966062E0,3.807578981E-1,-9.899705887E0,2.536391914E-1
4.772360958E0,3.807578981E-1,-9.885348320E0,2.536391914E-1
4.774755906E0,3.735794425E-1,-9.899705887E0,2.249253243E-1
4.777151635E0,3.735794425E-1,-9.897313118E0,2.273181528E-1
4.779547364E0,3.759722710E-1,-9.916455269E0,2.368894368E-1
4.781942312E0,3.783650696E-1,-9.892526627E0,2.440679073E-1
4.784337208E0,3.472583890E-1,-9.878170013E0,2.560320199E-1
4.786732989E0,3.783650696E-1,-9.870991707E0,2.392822653E-1
4.789128718E0,3.807578981E-1,-9.878170013E0,2.249253243E-1
4.791523614E0,3.807578981E-1,-9.875777245E0,2.392822653E-1
4.793918562E0,3.927220106E-1,-9.885348320E0,2.440679073E-1
4.796314291E0,3.999004960E-1,-9.878170013E0,2.464607358E-1
4.798710020E0,3.927220106E-1,-9.868598938E0,2.440679073E-1
4.801104916E0,4.118646085E-1,-9.880562782E0,2.464607358E-1
4.803499864E0,4.190430641E-1,-9.890133858E0,2.440679073E-1
4.805895593E0,4.310071766E-1,-9.887741089E0,2.727817893E-1
4.808291323E0,4.286143482E-1,-9.873384476E0,2.826521695E-1
4.810686218E0,4.453641176E-1,-9.866206169E0,2.874378264E-1
4.813081166E0,4.453641176E-1,-9.899705887E0,2.826521695E-1
4.815476948E0,4.453641176E-1,-9.911669731E0,2.584248483E-1
4.817872677E0,4.477569461E-1,-9.906884193E0,2.703889608E-1
4.820267573E0,4.405784607E-1,-9.897313118E0,2.727817893E-1
4.822662468E0,4.262215197E-1,-9.887741089E0,2.703889608E-1
4.825058250E0,4.214358926E-1,-9.894919395E0,2.679961324E-1
4.827453979E0,4.262215197E-1,-9.892526627E0,2.775674164E-1
4.829848875E0,4.357928336E-1,-9.890133858E0,2.850449979E-1
4.832243823E0,4.262215197E-1,-9.911669731E0,2.874378264E-1
4.834639552E0,4.238287210E-1,-9.894919395E0,3.185445070E-1
4.837035281E0,4.310071766E-1,-9.897313118E0,3.065803945E-1
4.839430177E0,4.286143482E-1,-9.894919395E0,3.017947674E-1
4.841825125E0,4.142574072E-1,-9.904491425E0,3.113660514E-1
4.844220854E0,3.807578981E-1,-9.923633575E0,3.041875660E-1
4.846616583E0,3.927220106E-1,-9.921240807E0,2.898306549E-1
4.849011531E0,3.855435550E-1,-9.909276962E0,2.874378264E-1
4.851406427E0,3.927220106E-1,-9.906884193E0,2.850449979E-1
4.853802156E0,3.759722710E-1,-9.897313118E0,2.898306549E-1
4.856197885E0,3.616153300E-1,-9.902098656E0,2.826521695E-1
4.858592833E0,3.448655605E-1,-9.911669731E0,2.703889608E-1
4.860987729E0,3.352942765E-1,-9.902098656E0,2.656033039E-1
4.863383510E0,3.735794425E-1,-9.911669731E0,2.874378264E-1
4.865779239E0,3.783650696E-1,-9.914062500E0,3.017947674E-1
4.868174135E0,3.855435550E-1,-9.916455269E0,2.946162820E-1
4.870569083E0,3.616153300E-1,-9.921240807E0,2.922234535E-1
4.872964812E0,3.616153300E-1,-9.921240807E0,2.946162820E-1
4.875360541E0,3.616153300E-1,-9.921240807E0,3.017947674E-1
4.877755437E0,3.664009571E-1,-9.897313118E0,2.727817893E-1
4.880150385E0,3.735794425E-1,-9.899705887E0,2.703889608E-1
4.882546114E0,3.640081584E-1,-9.902098656E0,3.041875660E-1
4.884941843E0,3.951148391E-1,-9.918848038E0,3.065803945E-1
4.887336791E0,3.711866140E-1,-9.911669731E0,2.898306549E-1
4.889731687E0,3.520440459E-1,-9.918848038E0,2.898306549E-1
4.892127416E0,3.831507266E-1,-9.914062500E0,2.946162820E-1
4.894523145E0,3.783650696E-1,-9.894919395E0,2.946162820E-1
4.896918093E0,3.687937856E-1,-9.890133858E0,2.874378264E-1
4.899312989E0,3.687937856E-1,-9.887741089E0,3.041875660E-1
4.901708770E0,3.807578981E-1,-9.897313118E0,2.994019389E-1
4.904104500E0,3.687937856E-1,-9.892526627E0,2.898306549E-1
4.906499395E0,3.831507266E-1,-9.894919395E0,2.826521695E-1
4.908894343E0,3.879363835E-1,-9.880562782E0,2.874378264E-1
4.911290073E0,3.879363835E-1,-9.878170013E0,2.775674164E-1
4.913685802E0,3.592225015E-1,-9.878170013E0,2.703889608E-1
4.916080698E0,3.616153300E-1,-9.861420631E0,2.874378264E-1
4.918475645E0,3.759722710E-1,-9.904491425E0,2.751746178E-1
4.920871375E0,3.903291821E-1,-9.882955551E0,2.727817893E-1
