"Time (s)","Acceleration x (m/s^2)","Acceleration y (m/s^2)","Acceleration z (m/s^2)"
0.000000000E0,1.984601766E-1,2.833039761E0,8.326449394E0
1.184631000E-3,7.199843228E-2,2.921615839E0,8.129397392E0
3.184631000E-3,-3.458184749E-2,3.026223183E0,7.927498341E0
5.186193000E-3,-1.031039059E-1,3.112375975E0,7.782994270E0
7.184631000E-3,-1.243261024E-1,3.139056921E0,7.738232613E0
9.184631000E-3,-1.344200522E-1,3.151755810E0,7.716942787E0
1.118463100E-2,-2.303796709E-1,3.246030092E0,7.542587757E0
1.318463100E-2,-3.466516733E-1,3.356096268E0,7.333181381E0
1.518463100E-2,-4.430901110E-1,3.432413816E0,7.173641205E0
1.718463100E-2,-4.753160775E-1,3.469954729E0,7.095245838E0
1.918463100E-2,-4.974959791E-1,3.482347250E0,7.054620743E0
2.118463100E-2,-5.204706788E-1,3.499547005E0,7.000157356E0
2.318619300E-2,-5.345677733E-1,3.486264229E0,6.963966846E0
2.518463100E-2,-5.694465041E-1,3.472023487E0,6.869816780E0
2.718463100E-2,-5.805939436E-1,3.455666304E0,6.808678627E0
2.918463100E-2,-5.987610817E-1,3.440036774E0,6.762948990E0
3.118463100E-2,-6.103777885E-1,3.433792830E0,6.746428967E0
3.318463100E-2,-6.203184724E-1,3.425518513E0,6.755192280E0
3.518463100E-2,-5.873264074E-1,3.407140732E0,6.799101830E0
3.718463100E-2,-5.675694346E-1,3.380536079E0,6.830705643E0
3.918463100E-2,-5.446138382E-1,3.361296415E0,6.872776508E0
4.118463100E-2,-3.177967668E-1,3.237314939E0,7.205694675E0
4.318463100E-2,-2.270852327E-1,3.178206921E0,7.400975704E0
4.518463100E-2,-1.807526499E-1,3.147972822E0,7.498802662E0
4.718463100E-2,-1.565903574E-1,3.122977495E0,7.545566082E0
4.920494300E-2,-9.927317500E-2,3.077037573E0,7.645069122E0
5.118463100E-2,-7.671021670E-2,3.057893515E0,7.696486950E0
5.318463100E-2,-3.764642775E-2,3.008314371E0,7.802751541E0
5.518463100E-2,-2.017833106E-2,2.944034815E0,8.021466255E0
5.718463100E-2,-3.997359052E-2,2.873338938E0,8.322580338E0
5.918463100E-2,-8.530062437E-2,2.801828861E0,8.616167068E0
6.118463100E-2,-1.232630759E-1,2.735796928E0,8.919416428E0
6.318775600E-2,-1.560540646E-1,2.679178715E0,9.183899879E0
6.518463100E-2,-1.748150289E-1,2.627751112E0,9.438623428E0
6.718463100E-2,-1.633037180E-1,2.584799290E0,9.723302841E0
6.918463100E-2,-1.383082420E-1,2.560148716E0,9.899650574E0
7.118775600E-2,-9.104669839E-2,2.548991680E0,1.005848122E1
7.318463100E-2,-4.510675743E-2,2.538361311E0,1.019019127E1
7.518463100E-2,-2.157654613E-2,2.534262419E0,1.033153629E1
7.718463100E-2,8.216899820E-3,2.546233416E0,1.048672771E1
7.918463100E-2,-5.238513462E-3,2.560761452E0,1.058158588E1
8.118463100E-2,-1.436520979E-4,2.579512835E0,1.066110229E1
8.318463100E-2,-4.807556979E-3,2.586542130E0,1.071144772E1
8.518463100E-2,1.447055489E-2,2.575232267E0,1.075033855E1
8.718931800E-2,3.384443745E-2,2.564314365E0,1.073919106E1
8.918463100E-2,5.154237524E-2,2.539673328E0,1.070894814E1
9.118463100E-2,7.454586774E-2,2.520098448E0,1.065247345E1
9.318463100E-2,1.157931760E-1,2.496721506E0,1.057894325E1
9.518775600E-2,1.644433439E-1,2.483898163E0,1.047339725E1
9.718463100E-2,2.123656869E-1,2.491616964E0,1.033043480E1
9.918463100E-2,2.259168774E-1,2.504133701E0,1.020255566E1
1.011846310E-1,2.414121330E-1,2.521343470E0,1.007253170E1
1.031846310E-1,2.427720428E-1,2.530613661E0,9.919139862E0
1.051846310E-1,2.485277057E-1,2.559420586E0,9.753250122E0
1.071846310E-1,2.534693480E-1,2.572905064E0,9.512891769E0
1.091846310E-1,2.812803984E-1,2.592326641E0,9.348706245E0
1.111846310E-1,2.977716625E-1,2.601127625E0,9.189185143E0
1.131893180E-1,3.225085437E-1,2.609009504E0,9.033092499E0
1.151846310E-1,3.521679044E-1,2.598867655E0,8.912569046E0
1.171846310E-1,3.887417316E-1,2.583774567E0,8.752263069E0
1.191846310E-1,4.060853124E-1,2.564649582E0,8.665842056E0
1.211861930E-1,4.129519165E-1,2.552362442E0,8.586306572E0
1.231846310E-1,4.241376221E-1,2.551625252E0,8.538192749E0
1.251846310E-1,4.456279576E-1,2.563490868E0,8.502510071E0
1.271846310E-1,4.686506093E-1,2.577779531E0,8.498505592E0
1.292018180E-1,4.885416627E-1,2.593456745E0,8.500862122E0
1.311846310E-1,4.983099997E-1,2.621670008E0,8.510352135E0
1.331846310E-1,5.048509240E-1,2.652325392E0,8.540798187E0
1.351846310E-1,5.058469176E-1,2.675213814E0,8.587560654E0
1.371877560E-1,4.718875587E-1,2.714813948E0,8.662873268E0
1.391846310E-1,4.452449083E-1,2.750899315E0,8.722497940E0
1.411846310E-1,4.047733247E-1,2.764115572E0,8.798566818E0
1.431846310E-1,3.689656258E-1,2.767879248E0,8.881673813E0
1.451861930E-1,3.261573315E-1,2.770675421E0,8.983456612E0
1.471846310E-1,2.667619586E-1,2.766461611E0,9.078392029E0
1.491846310E-1,2.114942074E-1,2.759393930E0,9.225261688E0
1.511846310E-1,1.767495424E-1,2.749089241E0,9.361271858E0
1.531908810E-1,1.498387158E-1,2.743467808E0,9.495777130E0
1.552002560E-1,1.156399399E-1,2.727005482E0,9.640214920E0
1.572143180E-1,9.828676283E-2,2.687136889E0,9.850579262E0
1.591846310E-1,1.239909232E-1,2.648465872E0,1.002196598E1
1.611908810E-1,1.658511311E-1,2.603790045E0,1.019630146E1
1.631846310E-1,2.216647714E-1,2.556892633E0,1.036312962E1
1.651846310E-1,3.065823019E-1,2.495658398E0,1.054033852E1
1.671924430E-1,3.665522635E-1,2.432700396E0,1.063975620E1
1.691955680E-1,4.579150081E-1,2.351939201E0,1.071357441E1
1.711908810E-1,5.580788851E-1,2.290216684E0,1.074135685E1
1.732033810E-1,6.284970641E-1,2.248174667E0,1.075731182E1
1.751846310E-1,7.830092907E-1,2.198825121E0,1.077245235E1
1.771877560E-1,8.652453423E-1,2.182726622E0,1.076568127E1
1.791893180E-1,1.034476995E0,2.168323278E0,1.077521038E1
1.811846310E-1,1.137197852E0,2.189114571E0,1.078050613E1
1.831893180E-1,1.221253514E0,2.219386816E0,1.078170300E1
1.851924430E-1,1.290809989E0,2.260997772E0,1.076899529E1
1.871846310E-1,1.334891915E0,2.350205898E0,1.074067593E1
1.891846310E-1,1.342438459E0,2.406555653E0,1.070296288E1
1.911846310E-1,1.298270226E0,2.452840567E0,1.067317867E1
1.931940060E-1,1.238606691E0,2.495993614E0,1.063681507E1
1.951846310E-1,1.127352953E0,2.542431355E0,1.061305523E1
1.971846310E-1,1.026346445E0,2.571803570E0,1.060179329E1
1.991846310E-1,8.921753168E-1,2.587605238E0,1.059935188E1
2.011846310E-1,7.417237163E-1,2.610340595E0,1.061940575E1
2.031846310E-1,5.272032320E-2,2.763579130E0,1.069790649E1
2.051846310E-1,-2.417760640E-1,2.863790751E0,1.065730953E1
2.071846310E-1,-3.965181112E-1,2.928194761E0,1.060050964E1
2.091846310E-1,-5.410416722E-1,2.986460209E0,1.053073311E1
2.111846310E-1,-6.676087379E-1,3.034832478E0,1.036089802E1
2.131846310E-1,-7.214974761E-1,3.078493118E0,1.022563553E1
2.151846310E-1,-7.469909191E-1,3.113486767E0,1.007679272E1
2.171955680E-1,-7.505918145E-1,3.146162987E0,9.908518791E0
2.191940060E-1,-7.291685343E-1,3.176042795E0,9.737687111E0
2.211846310E-1,-6.804321408E-1,3.199544191E0,9.550777435E0
2.231986930E-1,-6.001114249E-1,3.228121281E0,9.372543335E0
2.251861930E-1,-5.193023682E-1,3.245886326E0,9.199029922E0
2.272002560E-1,-4.346337914E-1,3.248970032E0,9.043331146E0
2.292268180E-1,-3.478487730E-1,3.242936611E0,8.884901047E0
2.311846310E-1,-2.515922785E-1,3.230659246E0,8.743806839E0
2.331846310E-1,-1.604593992E-1,3.216638565E0,8.621424675E0
2.351846310E-1,-8.198704571E-2,3.205299854E0,8.510898590E0
2.371846310E-1,-1.020887587E-2,3.182124138E0,8.417189598E0
2.391846310E-1,5.304593220E-2,3.169846535E0,8.332147598E0
2.411924430E-1,1.104684696E-1,3.150807858E0,8.272283554E0
2.431986930E-1,1.516583115E-1,3.145454407E0,8.213328362E0
2.451940060E-1,1.817486435E-1,3.135542154E0,8.183198929E0
2.471846310E-1,2.179298103E-1,3.127842426E0,8.154813766E0
2.491846310E-1,2.514390647E-1,3.119596958E0,8.143599510E0
2.512049430E-1,2.723739743E-1,3.113362551E0,8.131484985E0
2.531877560E-1,2.878692448E-1,3.104858160E0,8.134913445E0
2.551846310E-1,2.878309190E-1,3.101592541E0,8.136857033E0
2.571986930E-1,3.061130643E-1,3.109550714E0,8.142651558E0
2.591940060E-1,3.030676246E-1,3.100146532E0,8.166018486E0
2.611846310E-1,2.826786339E-1,3.093452215E0,8.185804367E0
2.631940060E-1,2.748639286E-1,3.088012695E0,8.222560883E0
2.651861930E-1,2.725654840E-1,3.073273897E0,8.273231506E0
2.671893180E-1,2.747011483E-1,3.066062450E0,8.335978508E0
2.691924430E-1,2.847950757E-1,3.056648731E0,8.422361374E0
2.711861930E-1,2.984611690E-1,3.028636456E0,8.541716576E0
2.731846310E-1,3.036805391E-1,3.000461340E0,8.636939049E0
2.751846310E-1,3.110546768E-1,2.979315996E0,8.730256081E0
2.771908810E-1,3.131137192E-1,2.954215050E0,8.841671944E0
2.791955680E-1,3.103651404E-1,2.936603308E0,8.939642906E0
2.811846310E-1,3.061034977E-1,2.911128998E0,9.023296356E0
2.831924430E-1,3.132477701E-1,2.898937702E0,9.117637634E0
2.851955680E-1,3.069270849E-1,2.877974033E0,9.171832085E0
2.871893180E-1,3.029239774E-1,2.859969616E0,9.213299751E0
2.892361930E-1,2.957796752E-1,2.835165739E0,9.256078720E0
2.912096310E-1,2.972449362E-1,2.813302040E0,9.275128365E0
2.931955680E-1,3.017172813E-1,2.797471523E0,9.292442322E0
2.951846310E-1,3.125582635E-1,2.781995296E0,9.285623550E0
2.971861930E-1,3.166954219E-1,2.775128603E0,9.256874084E0
2.991846310E-1,3.260711133E-1,2.765552044E0,9.201568604E0
3.011846310E-1,3.340964913E-1,2.766595840E0,9.139462471E0
3.031955680E-1,3.422750831E-1,2.780865192E0,9.080039024E0
3.051846310E-1,3.395456970E-1,2.791830778E0,9.012905121E0
3.071846310E-1,3.304955959E-1,2.807000399E0,8.925018311E0
3.092049430E-1,3.058736324E-1,2.844847918E0,8.803393364E0
3.111955680E-1,2.510751486E-1,2.883164883E0,8.685991287E0
3.131846310E-1,2.027697265E-1,2.922027349E0,8.588460922E0
3.151846310E-1,1.526159942E-1,2.962336063E0,8.478164673E0
3.171846310E-1,7.859685272E-2,3.031863689E0,8.367534637E0
3.191846310E-1,1.842577569E-2,3.067690611E0,8.301233292E0
3.211861930E-1,-3.614286706E-2,3.089516163E0,8.237278938E0
3.231846310E-1,-8.532934636E-2,3.121684551E0,8.197229385E0
3.251924430E-1,-1.393425465E-1,3.159283161E0,8.178238869E0
3.271846310E-1,-1.884811372E-1,3.183196545E0,8.186235428E0
3.291861930E-1,-2.429252714E-1,3.222835064E0,8.200734138E0
3.311877560E-1,-2.897750139E-1,3.241385221E0,8.220548630E0
3.331846310E-1,-3.574543297E-1,3.262750864E0,8.252631187E0
3.351846310E-1,-4.006169736E-1,3.287507057E0,8.289942741E0
3.371861930E-1,-4.458865225E-1,3.315796852E0,8.356999397E0
3.391971310E-1,-4.809663892E-1,3.333399057E0,8.431353569E0
3.411846310E-1,-5.339931846E-1,3.345619202E0,8.556809425E0
3.431846310E-1,-5.615456700E-1,3.335496664E0,8.665114403E0
3.451846310E-1,-5.842810273E-1,3.324770451E0,8.774595261E0
3.471877560E-1,-5.870677829E-1,3.309380531E0,8.893568039E0
3.491846310E-1,-5.985025764E-1,3.296643257E0,9.029185295E0
3.511846310E-1,-5.794255137E-1,3.273649454E0,9.152477264E0
3.531846310E-1,-5.646772385E-1,3.247380257E0,9.286600113E0
3.551986930E-1,-5.585193634E-1,3.235121965E0,9.415044785E0
3.571955680E-1,-5.452171564E-1,3.226234674E0,9.539543152E0
3.591846310E-1,-5.586438775E-1,3.228293657E0,9.685570717E0
3.611877560E-1,-5.858611465E-1,3.236424208E0,9.777095795E0
3.632033810E-1,-6.419717073E-1,3.260988951E0,9.840398788E0
3.651940060E-1,-6.992601156E-1,3.292161465E0,9.860327721E0
3.672283810E-1,-7.726759315E-1,3.321581364E0,9.839249611E0
3.691955680E-1,-8.818994164E-1,3.372357607E0,9.749725342E0
3.711846310E-1,-1.152683616E0,3.456825018E0,9.215263367E0
3.731846310E-1,-1.246277690E0,3.436014652E0,8.881502151E0
3.751846310E-1,-1.269156694E0,3.410770178E0,8.629096031E0
3.771877560E-1,-1.267969251E0,3.406067848E0,8.458657265E0
3.791861930E-1,-1.228014827E0,3.391942024E0,8.307535172E0
3.811846310E-1,-1.179977536E0,3.383916855E0,8.181188583E0
3.831846310E-1,-1.141143560E0,3.373391867E0,8.053501129E0
3.851846310E-1,-1.111627817E0,3.383754015E0,7.945407391E0
3.871861930E-1,-1.074335814E0,3.413959265E0,7.842849255E0
3.891861930E-1,-1.058562756E0,3.443206787E0,7.770582676E0
3.911846310E-1,-1.060832500E0,3.489261627E0,7.709817886E0
3.931955680E-1,-1.074144244E0,3.547919750E0,7.657854080E0
3.951846310E-1,-1.110603094E0,3.607238293E0,7.642215252E0
3.971846310E-1,-1.144045234E0,3.644721985E0,7.645835400E0
3.991955680E-1,-1.175007224E0,3.690269232E0,7.680187225E0
4.011955680E-1,-1.204503655E0,3.712621689E0,7.733213902E0
4.031846310E-1,-1.253077269E0,3.736132622E0,7.808784485E0
4.051846310E-1,-1.306199789E0,3.762057066E0,7.898825645E0
4.071861930E-1,-1.359083056E0,3.774928331E0,8.011180878E0
4.091986930E-1,-1.427930713E0,3.794378757E0,8.127481461E0
4.111893180E-1,-1.487498403E0,3.821471453E0,8.249452591E0
4.131908810E-1,-1.548914433E0,3.858361244E0,8.363875389E0
4.151971310E-1,-1.630144954E0,3.894829750E0,8.452201843E0
4.171877560E-1,-1.708693862E0,3.935416222E0,8.520120621E0
4.191846310E-1,-1.776622176E0,3.959090233E0,8.557594299E0
4.211924430E-1,-1.883547187E0,3.986048937E0,8.549981117E0
4.231940060E-1,-1.961128950E0,4.005853653E0,8.520647049E0
4.251893180E-1,-2.030627728E0,4.020372391E0,8.448476791E0
4.271971310E-1,-2.079584360E0,4.025668144E0,8.364995956E0
4.292158810E-1,-2.132352591E0,4.027669907E0,8.257410049E0
4.311908810E-1,-2.195329905E0,4.001908302E0,8.109151840E0
4.331877560E-1,-2.226655483E0,3.995548964E0,7.983551979E0
4.351846310E-1,-2.245569468E0,3.964127779E0,7.868036270E0
4.371940060E-1,-2.254638910E0,3.939381123E0,7.762768269E0
4.392174430E-1,-2.254878521E0,3.926174879E0,7.679918766E0
4.411846310E-1,-2.256822586E0,3.908678055E0,7.620255470E0
4.431893180E-1,-2.260921478E0,3.873875618E0,7.591180325E0
4.451846310E-1,-2.252417088E0,3.842243671E0,7.570743561E0
4.471861930E-1,-2.248672724E0,3.822208881E0,7.575876236E0
4.492018180E-1,-2.252627611E0,3.800086498E0,7.594953537E0
4.511861930E-1,-2.250798702E0,3.787895203E0,7.640366554E0
4.531846310E-1,-2.259982586E0,3.786104441E0,7.693144321E0
4.551846310E-1,-2.280170679E0,3.792377234E0,7.773666382E0
4.571955680E-1,-2.310921907E0,3.802901983E0,7.841249943E0
4.591940060E-1,-2.353471518E0,3.812258482E0,7.933800220E0
4.611846310E-1,-2.385438919E0,3.823022842E0,8.009323120E0
4.631846310E-1,-2.431848049E0,3.846658468E0,8.118039131E0
4.652065060E-1,-2.496826649E0,3.858131647E0,8.235766411E0
4.671908810E-1,-2.548943758E0,3.887053490E0,8.348945618E0
4.691940060E-1,-2.595161438E0,3.909759998E0,8.489293098E0
4.712033810E-1,-2.654594898E0,3.909702539E0,8.625399590E0
4.731877560E-1,-2.709613800E0,3.920667887E0,8.752388000E0
4.751940060E-1,-2.779524326E0,3.908400059E0,8.913382530E0
4.771924430E-1,-2.856177330E0,3.895461798E0,9.014935493E0
4.792221310E-1,-2.933031321E0,3.891027927E0,9.108644485E0
4.812346310E-1,-3.003391743E0,3.875973225E0,9.177846909E0
4.832018180E-1,-3.057146549E0,3.884429455E0,9.214421272E0
4.851846310E-1,-3.126942396E0,3.865812302E0,9.188284874E0
4.871986930E-1,-3.147733688E0,3.867066622E0,9.154776573E0
4.892330680E-1,-3.156745434E0,3.855411530E0,9.127500534E0
4.911846310E-1,-3.147254705E0,3.843900442E0,9.068948746E0
4.931861930E-1,-3.349009275E0,3.772390366E0,8.914637566E0
4.951846310E-1,-3.749310255E0,3.617916584E0,8.633903503E0
4.971877560E-1,-4.249870777E0,3.493082762E0,8.239625931E0
4.991893180E-1,-4.706320763E0,3.423631907E0,7.905366898E0
5.011846310E-1,-4.876002312E0,3.443465233E0,7.803469658E0
5.031893180E-1,-4.566776752E0,3.567399025E0,8.085027695E0
5.051924430E-1,-4.187554836E0,3.660667419E0,8.456569672E0
5.071846310E-1,-3.918791056E0,3.743410826E0,8.800865173E0
5.091846310E-1,-3.851274729E0,3.805861235E0,9.050129890E0
5.111893180E-1,-3.948249340E0,3.819163561E0,9.196951866E0
5.131893180E-1,-4.076990128E0,3.811473370E0,9.252813339E0
5.151846310E-1,-4.156717300E0,3.785740376E0,9.259393692E0
5.171846310E-1,-4.134297848E0,3.773913145E0,9.253129959E0
5.192080680E-1,-3.991651297E0,3.764269352E0,9.261365891E0
5.212127560E-1,-3.778519630E0,3.764451265E0,9.269084930E0
5.231846310E-1,-3.566000700E0,3.758322001E0,9.315924644E0
5.251846310E-1,-3.393809557E0,3.766998529E0,9.391419411E0
5.271846310E-1,-3.307877064E0,3.763637304E0,9.507403374E0
5.291846310E-1,-3.315078497E0,3.759768009E0,9.668313026E0
5.311846310E-1,-3.703743935E0,3.793229580E0,1.012692738E1
5.331846310E-1,-3.838728905E0,3.843325615E0,1.012728119E1
5.351893180E-1,-3.890740395E0,3.882533312E0,1.006442833E1
5.371940060E-1,-3.918886662E0,3.940855980E0,9.963709831E0
5.391877560E-1,-3.939534426E0,4.016560555E0,9.803259850E0
5.411971310E-1,-3.974269629E0,4.096632481E0,9.599839211E0
5.431955680E-1,-4.009349346E0,4.154016495E0,9.375262260E0
5.451861930E-1,-4.065871716E0,4.206516743E0,9.149058342E0
5.471846310E-1,-4.124127388E0,4.246020794E0,8.912866592E0
5.491846310E-1,-4.181454182E0,4.276178360E0,8.655135155E0
5.511846310E-1,-4.218478203E0,4.284002304E0,8.394818306E0
5.531908810E-1,-4.250426292E0,4.290572166E0,8.060635567E0
5.551893180E-1,-4.226637840E0,4.266783714E0,7.802061558E0
5.571846310E-1,-4.207301617E0,4.281272888E0,7.547595978E0
5.591846310E-1,-4.200023651E0,4.341693401E0,7.322771549E0
5.611846310E-1,-4.214790821E0,4.427932739E0,7.116132259E0
5.631846310E-1,-4.238512516E0,4.546579361E0,6.929614544E0
5.651955680E-1,-4.270097256E0,4.687779903E0,6.784631252E0
5.671846310E-1,-4.314035416E0,4.830828667E0,6.653975010E0
5.691861930E-1,-4.345964432E0,4.962682247E0,6.542194366E0
5.711846310E-1,-4.365597248E0,5.108096123E0,6.416355133E0
5.731846310E-1,-4.358203411E0,5.216036797E0,6.308003426E0
5.751846310E-1,-4.331685543E0,5.300350666E0,6.198416233E0
5.772221310E-1,-4.309658527E0,5.336531639E0,6.099688530E0
5.792033810E-1,-4.285295486E0,5.331341267E0,6.006803036E0
5.811846310E-1,-4.258585930E0,5.311900616E0,5.914089680E0
5.831846310E-1,-4.260434151E0,5.267617226E0,5.830187321E0
5.851846310E-1,-4.291051388E0,5.190926075E0,5.720638752E0
5.871893180E-1,-4.333649158E0,5.129845142E0,5.655200005E0
5.892002560E-1,-4.368039131E0,5.053729057E0,5.602709293E0
5.911877560E-1,-4.408175468E0,4.970123768E0,5.544951916E0
5.931846310E-1,-4.498044491E0,4.796945572E0,5.445055962E0
5.952002560E-1,-4.748008251E0,4.411230564E0,5.307418346E0
5.971846310E-1,-4.826452255E0,4.254372120E0,5.289720535E0
5.991846310E-1,-4.761521339E0,4.241749287E0,5.332758904E0
6.011846310E-1,-4.633488655E0,4.286904335E0,5.372377872E0
6.031908810E-1,-4.453770638E0,4.338743687E0,5.353856564E0
6.051940060E-1,-4.216619968E0,4.405943871E0,5.289720535E0
6.071861930E-1,-4.063812733E0,4.470855236E0,5.228725433E0
6.091940060E-1,-3.929766178E0,4.526966095E0,5.187851906E0
6.111846310E-1,-3.766653776E0,4.591667175E0,5.152369976E0
6.131908810E-1,-3.611653328E0,4.628116131E0,5.161716938E0
6.151846310E-1,-3.504009962E0,4.618501663E0,5.219196796E0
6.171846310E-1,-3.412369490E0,4.592720509E0,5.338887691E0
6.191846310E-1,-3.361181498E0,4.527100086E0,5.494118214E0
6.211846310E-1,-3.380296946E0,4.434272289E0,5.700048447E0
6.231908810E-1,-3.429808855E0,4.346970081E0,5.903067112E0
6.251861930E-1,-3.517771721E0,4.256344795E0,6.093138218E0
6.272018180E-1,-3.637233019E0,4.185217857E0,6.259419918E0
6.292096310E-1,-3.769651413E0,4.126828194E0,6.406491280E0
6.311846310E-1,-3.910200596E0,4.076406002E0,6.530970097E0
6.331924430E-1,-4.065124989E0,4.054590225E0,6.641534805E0
6.352268180E-1,-4.205721855E0,4.066474915E0,6.757452011E0
6.371846310E-1,-4.333514690E0,4.110126019E0,6.861398697E0
6.391846310E-1,-4.447497845E0,4.153585434E0,6.959091663E0
6.411846310E-1,-4.539818287E0,4.205041885E0,7.068018436E0
6.431846310E-1,-4.620167255E0,4.253529072E0,7.170356274E0
6.451846310E-1,-4.687425613E0,4.314140797E0,7.265387058E0
6.471908810E-1,-4.738642216E0,4.356364727E0,7.355399609E0
6.491846310E-1,-4.776882172E0,4.388562202E0,7.414699078E0
6.511846310E-1,-4.835540295E0,4.437345982E0,7.495278358E0
6.531846310E-1,-4.868130207E0,4.486121178E0,7.547174931E0
6.551971310E-1,-4.899935246E0,4.532089710E0,7.592904091E0
6.571908810E-1,-4.984000206E0,4.578345776E0,7.619499207E0
6.592424430E-1,-5.047705173E0,4.600535393E0,7.614988327E0
6.611830680E-1,-5.124376774E0,4.609757900E0,7.600574970E0
6.631846310E-1,-5.203337669E0,4.608685017E0,7.553744793E0
6.651846310E-1,-5.318881989E0,4.605237484E0,7.513531685E0
6.672268180E-1,-5.380498886E0,4.580730438E0,7.490211964E0
6.691846310E-1,-5.435450554E0,4.561136246E0,7.505860806E0
6.711846310E-1,-5.520828247E0,4.536954403E0,7.547950745E0
6.731846310E-1,-5.618358612E0,4.522081852E0,7.606379032E0
6.751846310E-1,-5.766731262E0,4.524600506E0,7.690204620E0
6.771846310E-1,-5.859186172E0,4.575453758E0,7.761887074E0
6.791846310E-1,-5.904091835E0,4.627637863E0,7.805336952E0
6.811846310E-1,-5.921531200E0,4.688555717E0,7.863200188E0
6.831971310E-1,-5.904618740E0,4.721251011E0,7.910097599E0
6.851846310E-1,-5.835550785E0,4.725177288E0,7.941222191E0
6.871846310E-1,-5.794619083E0,4.731038094E0,7.942477226E0
6.891908810E-1,-5.745471001E0,4.747165680E0,7.923926830E0
6.911846310E-1,-5.719125271E0,4.754769325E0,7.878839016E0
6.931924430E-1,-5.707671165E0,4.763733387E0,7.847656727E0
6.952315060E-1,-5.712900162E0,4.784064770E0,7.830322742E0
6.971846310E-1,-5.703381062E0,4.796955585E0,7.787917137E0
6.992002560E-1,-5.695221901E0,4.819556713E0,7.754101276E0
7.011846310E-1,-5.676422596E0,4.841037750E0,7.703315258E0
7.031846310E-1,-5.555936337E0,4.853535175E0,7.185056686E0
7.051846310E-1,-5.449758530E0,4.800834179E0,6.829134941E0
7.071846310E-1,-5.397277832E0,4.767411232E0,6.587195873E0
7.091893180E-1,-5.352879524E0,4.739341259E0,6.347603321E0
7.111846310E-1,-5.288571358E0,4.709711075E0,6.023361206E0
7.131846310E-1,-5.235879898E0,4.690480232E0,5.794418335E0
7.151846310E-1,-5.195044518E0,4.682081699E0,5.592520237E0
7.171846310E-1,-5.159207821E0,4.663943291E0,5.425921917E0
7.191971310E-1,-5.138320923E0,4.648667812E0,5.293273449E0
7.211846310E-1,-5.133876801E0,4.647930622E0,5.209907055E0
7.231846310E-1,-5.114800453E0,4.646264553E0,5.158776760E0
7.251877560E-1,-5.121092319E0,4.650602341E0,5.126301765E0
7.271877560E-1,-5.104907036E0,4.655113220E0,5.138177395E0
7.291846310E-1,-5.080265999E0,4.664000511E0,5.160404682E0
7.311861930E-1,-5.081654549E0,4.650689125E0,5.205971241E0
7.331893180E-1,-5.116705894E0,4.638181686E0,5.290975094E0
7.352049430E-1,-5.193052292E0,4.630050659E0,5.417934418E0
7.371846310E-1,-5.325709820E0,4.629917145E0,5.627992630E0
7.392049430E-1,-5.454977989E0,4.639618397E0,5.792828560E0
7.412018180E-1,-5.588344574E0,4.638277531E0,5.964013577E0
7.432065060E-1,-5.727265835E0,4.652000904E0,6.129386425E0
7.452158810E-1,-5.870553493E0,4.659652710E0,6.286311626E0
7.472018180E-1,-6.050923347E0,4.666500092E0,6.527187347E0
7.492174430E-1,-6.173861027E0,4.685184479E0,6.705296993E0
7.511893180E-1,-6.268881798E0,4.712995529E0,6.864884853E0
7.531846310E-1,-6.336091995E0,4.733202457E0,7.012262344E0
7.551971310E-1,-6.378651142E0,4.765151024E0,7.140323639E0
7.571846310E-1,-6.392537594E0,4.776030064E0,7.208922386E0
7.591940060E-1,-6.414947033E0,4.788527966E0,7.316718578E0
7.611846310E-1,-6.414267540E0,4.804645538E0,7.416307926E0
7.631846310E-1,-6.404096603E0,4.815793037E0,7.522629261E0
7.651846310E-1,-6.375921726E0,4.815716267E0,7.622831345E0
7.671846310E-1,-6.359545231E0,4.800374508E0,7.683385849E0
7.691846310E-1,-6.331600666E0,4.756378651E0,7.708122730E0
7.711846310E-1,-6.314026833E0,4.686880112E0,7.691153049E0
7.731955680E-1,-6.282749176E0,4.600985527E0,7.607068539E0
7.751877560E-1,-6.250168800E0,4.530327797E0,7.512794495E0
7.771846310E-1,-6.196586609E0,4.455494404E0,7.384943962E0
7.791846310E-1,-6.122855186E0,4.410770893E0,7.259544849E0
7.811846310E-1,-6.055520535E0,4.379281998E0,7.148913860E0
7.831846310E-1,-5.965450287E0,4.361306667E0,7.041089058E0
7.851846310E-1,-5.888644695E0,4.370088577E0,6.946048260E0
7.871846310E-1,-5.812968254E0,4.408051014E0,6.875878811E0
7.892065060E-1,-5.778233528E0,4.461699963E0,6.807098866E0
7.911861930E-1,-5.744063377E0,4.539971828E0,6.766129017E0
7.931924430E-1,-5.737704754E0,4.621661663E0,6.715275764E0
7.951908810E-1,-5.719230652E0,4.711290836E0,6.683462143E0
7.971846310E-1,-5.672907829E0,4.803553581E0,6.675905704E0
7.992346310E-1,-5.639724255E0,4.886853218E0,6.662201881E0
8.011846310E-1,-5.615197659E0,4.958889484E0,6.664355755E0
8.031924430E-1,-5.597749233E0,5.010048866E0,6.713255405E0
8.051877560E-1,-5.595603466E0,5.070172310E0,6.771175861E0
8.072330680E-1,-5.603897572E0,5.116523743E0,6.840224743E0
8.091846310E-1,-5.618521214E0,5.149420261E0,6.946508408E0
8.111846310E-1,-5.628691196E0,5.137305737E0,7.086875439E0
8.131846310E-1,-5.654558659E0,5.089354515E0,7.250399590E0
8.151893180E-1,-5.709606171E0,5.012385845E0,7.421105862E0
8.171846310E-1,-5.775772095E0,4.931414127E0,7.581948280E0
8.191846310E-1,-5.900270462E0,4.856389046E0,7.722105026E0
8.211846310E-1,-6.032574177E0,4.773875713E0,7.825601578E0
8.231877560E-1,-6.177978992E0,4.693027973E0,7.886662960E0
8.252111930E-1,-6.332663536E0,4.616892815E0,7.919617176E0
8.271861930E-1,-6.476756573E0,4.544702530E0,7.935667992E0
8.292002560E-1,-6.614432335E0,4.501664162E0,7.948682785E0
8.312033810E-1,-6.727486134E0,4.455858231E0,7.935476303E0
8.332080680E-1,-6.818830013E0,4.417685032E0,7.926397324E0
8.351861930E-1,-6.839612007E0,4.396165848E0,7.928915977E0
8.371908810E-1,-6.801706314E0,4.368680477E0,7.943243027E0
8.392361930E-1,-6.735683918E0,4.339021683E0,7.964694977E0
8.411846310E-1,-6.622553349E0,4.299947739E0,7.999190807E0
8.432455680E-1,-6.426362991E0,4.244029045E0,8.040716171E0
8.452018180E-1,-6.293312550E0,4.208978176E0,8.071543694E0
8.471846310E-1,-6.073007107E0,4.157617569E0,8.132030487E0
8.491908810E-1,-5.872028828E0,4.128446102E0,8.205015182E0
8.511846310E-1,-5.718235016E0,4.097187996E0,8.282444000E0
8.531861930E-1,-5.619670391E0,4.066848278E0,8.351367950E0
8.552252560E-1,-5.591495037E0,4.048441887E0,8.441399574E0
8.571846310E-1,-5.606722355E0,4.083062172E0,8.513723373E0
8.591846310E-1,-5.623980045E0,4.141279221E0,8.501848221E0
8.611846310E-1,-5.638469696E0,4.210394859E0,8.497614861E0
8.631846310E-1,-5.496694565E0,4.525864601E0,8.404950142E0
8.651971310E-1,-5.438984394E0,4.615618706E0,8.376172066E0
8.671846310E-1,-5.448312283E0,4.659547329E0,8.392204285E0
8.692205680E-1,-5.429743290E0,4.690681458E0,8.449061394E0
8.711846310E-1,-5.380183220E0,4.730588436E0,8.522161484E0
8.731846310E-1,-5.300015450E0,4.771203518E0,8.570207596E0
8.751861930E-1,-5.217348576E0,4.812383652E0,8.582552910E0
8.771846310E-1,-5.162090302E0,4.843863010E0,8.563504219E0
8.792158810E-1,-5.105280876E0,4.865697861E0,8.523157120E0
8.811893180E-1,-5.079385281E0,4.863590717E0,8.412171364E0
8.831861930E-1,-5.057664871E0,4.845826149E0,8.336715698E0
8.851908810E-1,-5.042801857E0,4.831930161E0,8.253981590E0
8.871846310E-1,-5.050329208E0,4.823147774E0,8.189922333E0
8.891955680E-1,-5.068352699E0,4.811320782E0,8.138389587E0
8.911940060E-1,-5.137612343E0,4.786698818E0,8.079492569E0
8.931846310E-1,-5.226973057E0,4.747797966E0,8.046011925E0
8.951955680E-1,-5.309362411E0,4.702173710E0,8.043569565E0
8.971924430E-1,-5.395553589E0,4.639886379E0,8.110692978E0
8.991971310E-1,-5.499720573E0,4.550113201E0,8.210646629E0
9.011893180E-1,-5.557833195E0,4.437767506E0,8.325902939E0
9.031955680E-1,-5.616874218E0,4.335258007E0,8.464728355E0
9.052111930E-1,-5.631899834E0,4.258958817E0,8.614270210E0
9.072018180E-1,-5.631717682E0,4.134987354E0,8.774970055E0
9.092299430E-1,-5.612689018E0,3.993720055E0,8.934011459E0
9.111955680E-1,-5.602766991E0,3.875408173E0,9.066247940E0
9.132221310E-1,-5.590575695E0,3.796811342E0,9.168452263E0
9.151846310E-1,-5.571575642E0,3.723615646E0,9.212429047E0
9.171846310E-1,-5.539186478E0,3.635307789E0,9.224456787E0
9.191846310E-1,-5.501396656E0,3.543198347E0,9.177970886E0
9.211846310E-1,-5.452670097E0,3.461402893E0,9.117301941E0
9.231846310E-1,-5.364400387E0,3.416678905E0,9.078362465E0
9.251846310E-1,-5.283859253E0,3.416315079E0,9.039577484E0
9.272111930E-1,-5.194306850E0,3.391750813E0,9.027165413E0
9.292236930E-1,-5.104495525E0,3.367971420E0,9.045255661E0
9.311924430E-1,-5.043577671E0,3.380268097E0,9.062446594E0
9.331846310E-1,-4.987390041E0,3.438140631E0,9.049115181E0
9.351846310E-1,-4.970257282E0,3.525394917E0,9.027260780E0
9.372361930E-1,-5.004302502E0,3.608167171E0,8.982508659E0
9.392190060E-1,-5.065853119E0,3.694866180E0,8.933896065E0
9.412002560E-1,-5.136453152E0,3.755611897E0,8.877230644E0
9.431924430E-1,-5.211027622E0,3.809060097E0,8.818419456E0
9.452002560E-1,-5.264677048E0,3.857422829E0,8.769050598E0
9.471846310E-1,-5.316315651E0,3.914730549E0,8.656782150E0
9.491986930E-1,-5.297842026E0,3.952980280E0,8.572975159E0
9.511908810E-1,-5.246682167E0,4.001314640E0,8.481143951E0
9.531940060E-1,-5.155989647E0,4.055653095E0,8.382262230E0
9.551908810E-1,-4.992523670E0,4.104580879E0,8.252285957E0
9.571846310E-1,-4.786133766E0,4.133474350E0,8.091319084E0
9.591846310E-1,-4.544922829E0,4.119386673E0,7.931367874E0
9.611846310E-1,-4.276206970E0,4.060977936E0,7.781605244E0
9.631846310E-1,-3.994601011E0,3.951103210E0,7.652692318E0
9.651846310E-1,-3.727705002E0,3.809557915E0,7.542347908E0
9.671877560E-1,-3.463940620E0,3.677781105E0,7.481583595E0
9.691893180E-1,-2.996937275E0,3.527683735E0,7.385441780E0
9.711846310E-1,-2.230696678E0,3.377155542E0,7.256183624E0
9.732205680E-1,-1.721220374E0,3.301221132E0,7.168488979E0
9.751846310E-1,-8.776281476E-1,3.182018518E0,7.021656990E0
9.771955680E-1,-6.576392800E-2,3.083559275E0,6.887084007E0
9.791846310E-1,7.001603246E-1,3.044533968E0,6.758649349E0
9.811846310E-1,9.307411313E-1,3.081644058E0,6.730292320E0
9.831846310E-1,8.773791790E-1,3.151516438E0,6.765563965E0
9.851846310E-1,6.004179120E-1,3.233015060E0,6.845262051E0
9.871846310E-1,2.027793080E-1,3.329817295E0,6.925755501E0
9.892002560E-1,-2.207741290E-1,3.396290064E0,7.000339508E0
9.911846310E-1,-6.922882199E-1,3.435229301E0,7.090888023E0
9.932361930E-1,-9.368511438E-1,3.431331635E0,7.154880524E0
9.952033810E-1,-1.140214562E0,3.397611618E0,7.201586246E0
9.972252560E-1,-1.315527558E0,3.361583710E0,7.256595612E0
9.991846310E-1,-1.464638591E0,3.308259964E0,7.294538498E0
1.001184631E0,-1.622981429E0,3.263009548E0,7.337557793E0
1.003186193E0,-1.811654210E0,3.213497639E0,7.444023609E0
1.005184631E0,-1.976691246E0,3.134000540E0,7.532177925E0
1.007198693E0,-2.023071766E0,3.054790735E0,7.559653282E0
1.009190881E0,-2.010602713E0,2.942425966E0,7.576288700E0
1.011184631E0,-1.975187659E0,2.842559099E0,7.597232819E0
1.013184631E0,-1.941553950E0,2.748898029E0,7.663427830E0
1.015186193E0,-1.949090838E0,2.643495560E0,7.760996819E0
1.017184631E0,-1.975024939E0,2.504794598E0,7.874653816E0
1.019220568E0,-2.017565012E0,2.362732410E0,8.003892899E0
1.021184631E0,-2.141728163E0,2.163486719E0,8.177539825E0
1.023184631E0,-2.299745560E0,2.038250923E0,8.293753624E0
1.025186193E0,-2.466171503E0,1.939380050E0,8.375683784E0
1.027208068E0,-2.658990622E0,1.856722593E0,8.413617134E0
1.029184631E0,-2.852834940E0,1.773777843E0,8.380529404E0
1.031184631E0,-3.226301670E0,1.643399119E0,8.322771072E0
1.033184631E0,-3.376801252E0,1.568757534E0,8.361491203E0
1.035190881E0,-3.509056807E0,1.493560433E0,8.403800964E0
1.037184631E0,-3.674486637E0,1.406871200E0,8.439292908E0
1.039184631E0,-3.837972403E0,1.317260981E0,8.480358124E0
1.041192443E0,-3.997426271E0,1.216742873E0,8.513158798E0
1.043198693E0,-4.157100201E0,1.098670363E0,8.530914307E0
1.045184631E0,-4.278945923E0,9.613485932E-1,8.545834541E0
1.047184631E0,-4.328285694E0,7.888511419E-1,8.577159882E0
1.049184631E0,-4.320375443E0,6.720141172E-1,8.585243225E0
1.051194006E0,-4.224923134E0,4.653274417E-1,8.568178177E0
1.053184631E0,-4.020525455E0,2.130360752E-1,8.547002792E0
1.055190881E0,-3.683852673E0,-5.971139297E-2,8.519220352E0
1.057184631E0,-3.345207214E0,-3.618883789E-1,8.483279228E0
1.059184631E0,-2.941918373E0,-6.678290367E-1,8.428500175E0
1.061194006E0,-2.466324806E0,-9.422907829E-1,8.403303146E0
1.063184631E0,-2.035540581E0,-1.145414829E0,8.426173210E0
1.065184631E0,-1.735690951E0,-1.306927562E0,8.448658943E0
1.067184631E0,-1.484156013E0,-1.446385145E0,8.506474495E0
1.069184631E0,-1.391835690E0,-1.522875071E0,8.630005836E0
1.071186193E0,-1.518584728E0,-1.559142470E0,8.754733086E0
1.073184631E0,-1.555196762E0,-1.561546206E0,8.804274559E0
1.075184631E0,-1.770177007E0,-1.505071759E0,8.852944374E0
1.077209631E0,-2.048249006E0,-1.424559593E0,8.885227203E0
1.079184631E0,-2.831497908E0,-1.223398805E0,8.939594269E0
1.081184631E0,-4.181348801E0,-9.564740062E-1,8.948674202E0
1.083184631E0,-4.917316914E0,-8.034940958E-1,8.723024368E0
1.085189318E0,-4.014568806E0,-8.977969289E-1,8.031559944E0
1.087184631E0,-3.018638134E0,-9.676309824E-1,7.404097557E0
1.089184631E0,-2.613778830E0,-9.344186187E-1,7.058537483E0
1.091184631E0,-2.427193880E0,-8.038484454E-1,6.638173103E0
1.093186193E0,-2.452926874E0,-6.909953356E-1,6.304411888E0
1.095194006E0,-2.459352732E0,-6.908133626E-1,5.930245876E0
1.097186193E0,-2.413805485E0,-8.432378769E-1,5.478153706E0
1.099186193E0,-2.410884619E0,-1.025005579E0,5.253970146E0
1.101184631E0,-2.438178539E0,-1.234335423E0,5.150914192E0
1.103184631E0,-2.428658962E0,-1.479137778E0,5.156564236E0
1.105186193E0,-2.361889601E0,-1.722599387E0,5.193559647E0
1.107186193E0,-2.277460337E0,-1.960046768E0,5.224425793E0
1.109231506E0,-2.225065708E0,-2.104771376E0,5.240572453E0
1.111190881E0,-2.165153265E0,-2.274041414E0,5.239652634E0
1.113187756E0,-2.127018213E0,-2.418881178E0,5.179290295E0
1.115190881E0,-2.101936817E0,-2.477165461E0,5.090829372E0
1.117195568E0,-2.094686985E0,-2.504258394E0,4.983435154E0
1.119192443E0,-2.139142513E0,-2.491004229E0,4.861311436E0
1.121189318E0,-2.215737820E0,-2.457111835E0,4.742520809E0
1.123184631E0,-2.305664062E0,-2.411746264E0,4.633929729E0
1.125204943E0,-2.385170698E0,-2.381158113E0,4.590575218E0
1.127194006E0,-2.520462513E0,-2.328341961E0,4.537443161E0
1.129184631E0,-2.680490732E0,-2.268582821E0,4.521737099E0
1.131200256E0,-2.838623047E0,-2.217854500E0,4.530758858E0
1.133192443E0,-3.090330362E0,-2.152444839E0,4.591389179E0
1.135184631E0,-3.311267138E0,-2.089592218E0,4.710793018E0
1.137184631E0,-3.593026400E0,-2.008218050E0,4.855019569E0
1.139209631E0,-3.925178766E0,-1.900536537E0,5.068266392E0
1.141204943E0,-4.311018467E0,-1.753436804E0,5.332883358E0
1.143184631E0,-4.845749378E0,-1.493091226E0,5.749234676E0
1.145184631E0,-5.189566612E0,-1.266465664E0,6.107407093E0
1.147184631E0,-5.454556465E0,-1.017708182E0,6.453982353E0
1.149184631E0,-5.593094826E0,-7.958230376E-1,6.762997150E0
1.151184631E0,-5.630166531E0,-6.059054136E-1,7.020919800E0
1.153184631E0,-5.561366558E0,-4.543332756E-1,7.208337784E0
1.155209631E0,-5.396780014E0,-3.485383093E-1,7.330442429E0
1.157231506E0,-5.086481571E0,-2.350531518E-1,7.430539131E0
1.159184631E0,-4.792502403E0,-2.100097984E-1,7.460227013E0
1.161184631E0,-4.464094162E0,-2.280812413E-1,7.447106838E0
1.163184631E0,-4.159503937E0,-2.757833004E-1,7.413616657E0
1.165184631E0,-3.869460821E0,-3.529915214E-1,7.378871918E0
1.167184631E0,-3.547699451E0,-4.800661504E-1,7.335566044E0
1.169184631E0,-3.378956079E0,-5.718790293E-1,7.290717602E0
1.171208068E0,-3.269818544E0,-6.646208167E-1,7.238447189E0
1.173231506E0,-3.248156071E0,-7.514345646E-1,7.188580990E0
1.175195568E0,-3.344086885E0,-8.416768312E-1,7.088302135E0
1.177184631E0,-3.489625454E0,-8.808650970E-1,7.011275768E0
1.179184631E0,-3.677474499E0,-8.994728327E-1,6.914550304E0
1.181190881E0,-3.893259287E0,-8.999804258E-1,6.838500977E0
1.183194006E0,-4.128657341E0,-8.972797990E-1,6.759022713E0
1.185184631E0,-4.370031357E0,-8.952303529E-1,6.667392254E0
1.187186193E0,-4.691064835E0,-9.016755223E-1,6.533805370E0
1.189184631E0,-4.943825245E0,-9.339589477E-1,6.424121857E0
1.191190881E0,-5.177221775E0,-9.738367200E-1,6.330212116E0
1.193184631E0,-5.904254436E0,-1.389019966E0,5.971378326E0
1.195184631E0,-6.182020664E0,-1.646961808E0,5.775436878E0
1.197184631E0,-6.342077732E0,-1.790891647E0,5.618674278E0
1.199186193E0,-6.516892433E0,-1.926518321E0,5.441685200E0
1.201195568E0,-6.785684586E0,-2.076395273E0,5.176733494E0
1.203184631E0,-7.002235413E0,-2.153641939E0,4.957386017E0
1.205189318E0,-7.222588539E0,-2.215421915E0,4.748381615E0
1.207189318E0,-7.416690826E0,-2.264550686E0,4.532003403E0
1.209184631E0,-7.605584145E0,-2.302733660E0,4.328036785E0
1.211190881E0,-7.790416718E0,-2.354228020E0,4.133656025E0
1.213184631E0,-8.002179146E0,-2.431934357E0,3.942024469E0
1.215187756E0,-8.093914986E0,-2.468508005E0,3.860602379E0
1.217184631E0,-8.233200073E0,-2.536053419E0,3.730654716E0
1.219204943E0,-8.389502525E0,-2.593475819E0,3.641408443E0
1.221190881E0,-8.633357048E0,-2.663980484E0,3.545611620E0
1.223186193E0,-8.831893921E0,-2.692902327E0,3.514266491E0
1.225189318E0,-9.038848877E0,-2.711826086E0,3.502947092E0
1.227186193E0,-9.253550529E0,-2.713138103E0,3.507572412E0
1.229184631E0,-9.391630173E0,-2.692777872E0,3.528296709E0
1.231239318E0,-9.600461960E0,-2.647374153E0,3.594060898E0
1.233184631E0,-9.815288544E0,-2.586206913E0,3.689187050E0
1.235194006E0,-1.002968502E1,-2.510061979E0,3.796150446E0
1.237184631E0,-1.026375103E1,-2.408863783E0,3.932437897E0
1.239197131E0,-1.048755169E1,-2.289000511E0,4.081864834E0
1.241184631E0,-1.072989273E1,-2.160575390E0,4.248491764E0
1.243195568E0,-1.103211689E1,-1.945097327E0,4.543141365E0
1.245184631E0,-1.119698238E1,-1.827992201E0,4.699540138E0
1.247206506E0,-1.143907452E1,-1.646645784E0,4.940052032E0
1.249184631E0,-1.166487598E1,-1.448032379E0,5.196595669E0
1.251184631E0,-1.186673641E1,-1.280543566E0,5.444337845E0
1.253184631E0,-1.202676487E1,-1.119634032E0,5.684610367E0
1.255184631E0,-1.215958500E1,-9.893894792E-1,5.926539898E0
1.257187756E0,-1.224340153E1,-9.006412625E-1,6.163326263E0
1.259184631E0,-1.229249191E1,-8.421556354E-1,6.380949497E0
1.261184631E0,-1.230699158E1,-8.003816605E-1,6.608782291E0
1.263184631E0,-1.230249977E1,-7.757500410E-1,6.805987835E0
1.265184631E0,-1.227346325E1,-7.584256530E-1,6.980792999E0
1.267194006E0,-1.221640396E1,-7.444052100E-1,7.204258442E0
1.269184631E0,-1.218598843E1,-7.323575616E-1,7.369602203E0
1.271184631E0,-1.219873524E1,-7.066246867E-1,7.509222031E0
1.273187756E0,-1.224501038E1,-6.664212942E-1,7.627534389E0
1.275184631E0,-1.233915043E1,-6.285066605E-1,7.742120743E0
1.277184631E0,-1.245248222E1,-5.826146007E-1,7.831318855E0
1.279184631E0,-1.257058430E1,-4.954465330E-1,7.896287918E0
1.281184631E0,-1.265216923E1,-3.955412507E-1,7.968075752E0
1.283189318E0,-1.269740963E1,-2.925906181E-1,8.023707390E0
1.285184631E0,-1.271393871E1,-2.074432075E-1,8.057982445E0
1.287184631E0,-1.271513557E1,-1.419761628E-1,8.093847275E0
1.289237756E0,-1.271906281E1,-9.221507609E-2,8.121572495E0
1.291201818E0,-1.270748425E1,-5.556463078E-2,8.119973183E0
1.293190881E0,-1.270244598E1,-4.531745240E-2,8.116563797E0
1.295184631E0,-1.271091175E1,-5.903143808E-2,8.126964569E0
1.297184631E0,-1.273294926E1,-1.176798046E-1,8.131599426E0
1.299184631E0,-1.275172806E1,-1.812123358E-1,8.110894203E0
1.301184631E0,-1.275085735E1,-2.343253046E-1,8.079549789E0
1.303184631E0,-1.274254513E1,-3.114473224E-1,8.015423775E0
1.305184631E0,-1.272820759E1,-3.910018504E-1,7.915518284E0
1.307184631E0,-1.269042778E1,-4.768579304E-1,7.804149628E0
1.309184631E0,-1.265666962E1,-5.906782746E-1,7.666367531E0
1.311184631E0,-1.262613869E1,-7.168335319E-1,7.540892601E0
1.313187756E0,-1.260980034E1,-8.374151587E-1,7.433038712E0
1.315184631E0,-1.262294960E1,-9.832603335E-1,7.361729622E0
1.317184631E0,-1.270094299E1,-1.089275599E0,7.324111938E0
1.319184631E0,-1.288426304E1,-1.186422706E0,7.294605732E0
1.321186193E0,-1.308864021E1,-1.216235399E0,7.328507900E0
1.323186193E0,-1.335346889E1,-1.197033763E0,7.388822079E0
1.325184631E0,-1.367621708E1,-1.125868559E0,7.488325596E0
1.327184631E0,-1.404036522E1,-9.938714504E-1,7.604128361E0
1.329184631E0,-1.457313156E1,-7.322235107E-1,7.785857677E0
1.331184631E0,-1.492397881E1,-4.992772639E-1,7.918467999E0
1.333184631E0,-1.523891258E1,-2.567350566E-1,8.034174919E0
1.335184631E0,-1.549390411E1,-1.443224773E-2,8.141760826E0
1.337184631E0,-1.565805912E1,2.134574503E-1,8.250361443E0
1.339186193E0,-1.576388359E1,4.690336883E-1,8.403638840E0
1.341194006E0,-1.578013611E1,6.085103154E-1,8.523645401E0
1.343192443E0,-1.576706314E1,7.001891136E-1,8.640338898E0
1.345198693E0,-1.571815395E1,7.487913966E-1,8.741288185E0
1.347211193E0,-1.565752316E1,7.706360221E-1,8.838013649E0
1.349184631E0,-1.558430862E1,7.284502387E-1,8.942985535E0
1.351184631E0,-1.550808716E1,6.582809687E-1,8.993425369E0
1.353186193E0,-1.541034698E1,5.794830322E-1,9.018785477E0
1.355192443E0,-1.527488327E1,4.610083401E-1,9.021763802E0
1.357186193E0,-1.511391544E1,3.110259473E-1,9.010444641E0
1.359192443E0,-1.493447495E1,1.409706026E-1,8.980985641E0
1.361184631E0,-1.465220833E1,-7.824251056E-2,8.910605431E0
1.363190881E0,-1.441147518E1,-2.497918606E-1,8.798911095E0
1.365186193E0,-1.412948608E1,-4.162942171E-1,8.685120583E0
1.367184631E0,-1.379447079E1,-5.790616274E-1,8.551532745E0
1.369189318E0,-1.327843475E1,-7.782496214E-1,8.332683563E0
1.371187756E0,-1.282341099E1,-9.201874733E-1,8.187039375E0
1.373184631E0,-1.232694054E1,-1.057030559E0,8.053433418E0
1.375197131E0,-1.180612469E1,-1.185484171E0,7.941749096E0
1.377184631E0,-1.130287266E1,-1.294956684E0,7.841412544E0
1.379195568E0,-1.068294716E1,-1.400856972E0,7.689534187E0
1.381195568E0,-1.030722904E1,-1.450876713E0,7.574354172E0
1.383184631E0,-9.986550331E0,-1.479386806E0,7.407114029E0
1.385184631E0,-9.746095657E0,-1.473621607E0,7.207447052E0
1.387184631E0,-9.563313484E0,-1.446576715E0,6.980065346E0
1.389234631E0,-9.438441277E0,-1.408336401E0,6.729871273E0
1.391184631E0,-9.335988045E0,-1.347552538E0,6.410781860E0
1.393184631E0,-9.302047729E0,-1.316303372E0,6.180411816E0
1.395194006E0,-9.287836075E0,-1.309139848E0,5.992246151E0
1.397184631E0,-9.290642738E0,-1.331243157E0,5.844121933E0
1.399197131E0,-9.326890945E0,-1.384231687E0,5.734352589E0
1.401184631E0,-9.407230377E0,-1.470346332E0,5.614316940E0
1.403184631E0,-9.470083237E0,-1.563241363E0,5.534580231E0
1.405189318E0,-9.511483192E0,-1.658827424E0,5.471133709E0
1.407186193E0,-9.551658630E0,-1.776928544E0,5.442815304E0
1.409187756E0,-9.578444481E0,-1.905420661E0,5.418797016E0
1.411186193E0,-9.561924934E0,-2.074422598E0,5.441675663E0
1.413184631E0,-9.517008781E0,-2.190320969E0,5.466201782E0
1.415229943E0,-9.461378098E0,-2.311984777E0,5.503848076E0
1.417184631E0,-9.376948357E0,-2.414188385E0,5.521642208E0
1.419186193E0,-9.256711960E0,-2.526773453E0,5.570981979E0
1.421186193E0,-9.197785378E0,-2.558424711E0,5.598897934E0
1.423184631E0,-9.091674805E0,-2.581887960E0,5.663943768E0
1.425190881E0,-9.007292747E0,-2.535564899E0,5.717995167E0
1.427190881E0,-8.922117233E0,-2.448799133E0,5.778147697E0
1.429195568E0,-8.800578117E0,-2.294085741E0,5.876405239E0
1.431186193E0,-8.694610596E0,-2.163659096E0,5.962385654E0
1.433239318E0,-8.562891006E0,-2.034535170E0,6.068228722E0
1.435223693E0,-8.423385620E0,-1.898678541E0,6.215730667E0
1.437198693E0,-8.326171875E0,-1.759853125E0,6.387998104E0
1.439184631E0,-8.241253853E0,-1.523871064E0,6.646801949E0
1.441184631E0,-8.226170540E0,-1.299668431E0,6.871531487E0
1.443184631E0,-8.240947723E0,-1.009213448E0,7.077193260E0
1.445192443E0,-8.264602661E0,-6.632513404E-1,7.262734413E0
1.447184631E0,-8.286829948E0,-2.965937257E-1,7.414890766E0
1.449217443E0,-8.295180321E0,7.451713830E-2,7.542166710E0
1.451184631E0,-8.301884651E0,5.813504457E-1,7.664299488E0
1.453208068E0,-8.301061630E0,9.280787706E-1,7.742752552E0
1.455186193E0,-8.274293900E0,1.259397984E0,7.804340839E0
1.457184631E0,-8.232903481E0,1.541358232E0,7.854408741E0
1.459195568E0,-8.167148590E0,1.849568725E0,7.926282406E0
1.461195568E0,-8.109860420E0,2.027505636E0,7.978495121E0
1.463184631E0,-8.046452522E0,2.141651630E0,8.038034439E0
1.465184631E0,-7.963037968E0,2.207319736E0,8.106249809E0
1.467184631E0,-7.877957821E0,2.223370552E0,8.175040245E0
1.469192443E0,-7.793107510E0,2.185446501E0,8.252526283E0
1.471195568E0,-7.668235302E0,2.057873726E0,8.347996712E0
1.473244006E0,-7.585175991E0,1.924296498E0,8.410485268E0
1.475184631E0,-7.510323048E0,1.746502995E0,8.428958893E0
1.477186193E0,-7.430404663E0,1.542632103E0,8.410064697E0
1.479184631E0,-7.343696594E0,1.316504478E0,8.350200653E0
1.481197131E0,-7.242556095E0,1.083950877E0,8.245573044E0
1.483184631E0,-7.085419655E0,7.581478953E-1,8.024119377E0
1.485184631E0,-6.823101521E0,4.085274339E-1,7.578041077E0
1.487184631E0,-6.520924091E0,3.782838956E-2,6.854321957E0
1.489217443E0,-6.388199329E0,-2.607094049E-1,6.347880840E0
1.491184631E0,-6.382223606E0,-5.668703318E-1,5.980351925E0
1.493186193E0,-6.496465206E0,-7.228573561E-1,5.951659679E0
1.495186193E0,-6.633164406E0,-8.660593629E-1,5.938912868E0
1.497208068E0,-6.776883602E0,-1.016300321E0,5.872181892E0
1.499211193E0,-6.985667706E0,-1.141718149E0,5.794034958E0
1.501184631E0,-7.347718716E0,-1.268572569E0,5.591179371E0
1.503184631E0,-7.613915443E0,-1.358278513E0,5.343149185E0
1.505200256E0,-7.880390644E0,-1.450302005E0,5.008468628E0
1.507198693E0,-8.142498016E0,-1.530172586E0,4.676507950E0
1.509184631E0,-8.504165649E0,-1.681926608E0,4.226292610E0
1.511184631E0,-8.762873650E0,-1.802402973E0,3.911656141E0
1.513192443E0,-8.988101959E0,-1.941161275E0,3.656511068E0
1.515197131E0,-9.184262276E0,-2.085052729E0,3.450044632E0
1.517197131E0,-9.366959572E0,-2.244746208E0,3.285026550E0
1.519184631E0,-9.533624649E0,-2.405013800E0,3.182152510E0
1.521184631E0,-9.678157806E0,-2.575959921E0,3.111054420E0
1.523184631E0,-1.004469109E1,-3.149486065E0,2.989553452E0
1.525184631E0,-1.013687801E1,-3.327059269E0,2.936804533E0
1.527184631E0,-1.017311668E1,-3.430632591E0,2.875857592E0
1.529189318E0,-1.016580963E1,-3.493695736E0,2.823031902E0
1.531184631E0,-1.014663696E1,-3.535220623E0,2.785098076E0
1.533184631E0,-1.010833931E1,-3.556921959E0,2.770618200E0
1.535184631E0,-1.003274918E1,-3.583822966E0,2.749884367E0
1.537184631E0,-9.975451469E0,-3.600323915E0,2.753705502E0
1.539184631E0,-9.894077301E0,-3.602890491E0,2.769708157E0
1.541184631E0,-9.792016983E0,-3.596071720E0,2.797414064E0
1.543194006E0,-9.698690414E0,-3.586581230E0,2.823520184E0
1.545187756E0,-9.580389023E0,-3.568845034E0,2.853419304E0
1.547184631E0,-9.473128319E0,-3.553503036E0,2.893134356E0
1.549184631E0,-9.360218048E0,-3.524772406E0,2.934640169E0
1.551195568E0,-9.237902641E0,-3.474618673E0,3.026050806E0
1.553184631E0,-9.106317520E0,-3.413087606E0,3.134919882E0
1.555215881E0,-9.017081261E0,-3.340955257E0,3.246403217E0
1.557194006E0,-8.951728821E0,-3.259801388E0,3.375230789E0
1.559217443E0,-8.879730225E0,-3.169157028E0,3.500437737E0
1.561225256E0,-8.804638863E0,-3.086250544E0,3.613769770E0
1.563195568E0,-8.726596832E0,-2.991603136E0,3.719488144E0
1.565187756E0,-8.668992043E0,-2.915457726E0,3.810276031E0
1.567186193E0,-8.609942436E0,-2.838029385E0,3.893498898E0
1.569184631E0,-8.569881439E0,-2.773663521E0,3.950921059E0
1.571184631E0,-8.533404350E0,-2.737760067E0,3.986776829E0
1.573184631E0,-8.482044220E0,-2.702948570E0,4.028263569E0
1.575197131E0,-8.462841988E0,-2.707420588E0,4.060470104E0
1.577184631E0,-8.447643280E0,-2.741446972E0,4.105280399E0
1.579184631E0,-8.447088242E0,-2.790451765E0,4.167443275E0
1.581194006E0,-8.481746674E0,-2.846322775E0,4.228983879E0
1.583197131E0,-8.533748627E0,-2.902960062E0,4.279961109E0
1.585184631E0,-8.618436813E0,-2.985521793E0,4.310913563E0
1.587184631E0,-8.682946205E0,-3.057730675E0,4.295944691E0
1.589184631E0,-8.737821579E0,-3.135044336E0,4.246691227E0
1.591184631E0,-8.812845230E0,-3.209369898E0,4.222231865E0
1.593184631E0,-8.964676857E0,-3.284911871E0,4.262751579E0
1.595184631E0,-9.110464096E0,-3.383275032E0,4.277087688E0
1.597184631E0,-9.203301430E0,-3.454488277E0,4.256852627E0
1.599217443E0,-9.330807686E0,-3.570942163E0,4.187516212E0
1.601187756E0,-9.435041428E0,-3.660983324E0,4.086050034E0
1.603184631E0,-9.526049614E0,-3.753284693E0,3.945194244E0
1.605231506E0,-9.616206169E0,-3.860717297E0,3.709490061E0
1.607203381E0,-9.659521103E0,-3.932141066E0,3.535632610E0
1.609197131E0,-9.691909790E0,-3.986297846E0,3.385468245E0
1.611184631E0,-9.700549126E0,-4.035886765E0,3.252743244E0
1.613195568E0,-9.687274933E0,-4.053526878E0,3.190494061E0
1.615184631E0,-9.654158592E0,-4.073676586E0,3.143931627E0
1.617184631E0,-9.619519234E0,-4.090244770E0,3.103220701E0
1.619184631E0,-9.593029976E0,-4.086988449E0,3.066091299E0
1.621186193E0,-9.550996780E0,-4.103997231E0,3.046736479E0
1.623184631E0,-9.502471924E0,-4.111217976E0,3.056974173E0
1.625184631E0,-9.446063995E0,-4.122489929E0,3.083607197E0
1.627184631E0,-9.385730743E0,-4.128551960E0,3.095175982E0
1.629186193E0,-9.306414604E0,-4.138128281E0,3.118237019E0
1.631184631E0,-9.259766579E0,-4.133100510E0,3.129154444E0
1.633184631E0,-9.189960480E0,-4.124644756E0,3.122106075E0
1.635184631E0,-9.131484985E0,-4.122709751E0,3.106208563E0
1.637200256E0,-9.074799538E0,-4.106486797E0,3.060469627E0
1.639192443E0,-9.015941620E0,-4.083454609E0,2.998919725E0
1.641194006E0,-8.973448753E0,-4.034239292E0,2.927189112E0
1.643184631E0,-8.925258636E0,-3.985503197E0,2.872036457E0
1.645190881E0,-8.869358063E0,-3.937935114E0,2.818511724E0
1.647187756E0,-8.800415039E0,-3.892703772E0,2.780702353E0
1.649206506E0,-8.729958534E0,-3.847501278E0,2.754251242E0
1.651184631E0,-8.625370026E0,-3.792683601E0,2.733986855E0
1.653187756E0,-8.576997757E0,-3.774181128E0,2.714229822E0
1.655208068E0,-8.510889053E0,-3.731009007E0,2.692002296E0
1.657211193E0,-8.439876556E0,-3.634656668E0,2.638055801E0
1.659186193E0,-8.399998665E0,-3.441387177E0,2.542977333E0
1.661184631E0,-8.408120155E0,-3.220172644E0,2.373783827E0
1.663184631E0,-8.202371597E0,-2.979583979E0,2.279098034E0
1.665231506E0,-8.117502213E0,-2.907250404E0,2.397314310E0
1.667184631E0,-8.253521919E0,-2.934506178E0,2.640373468E0
1.669184631E0,-8.500594139E0,-2.999274015E0,2.843239069E0
1.671184631E0,-8.682141304E0,-3.087495327E0,2.932332039E0
1.673186193E0,-8.794669151E0,-3.183752060E0,2.921385765E0
1.675184631E0,-8.870306969E0,-3.260624886E0,2.834399700E0
1.677212756E0,-8.963555336E0,-3.339585781E0,2.715522766E0
1.679184631E0,-9.017836571E0,-3.385908604E0,2.662563086E0
1.681187756E0,-9.260139465E0,-3.483074903E0,2.645353556E0
1.683184631E0,-9.376211166E0,-3.543131113E0,2.645363092E0
1.685184631E0,-9.496773720E0,-3.605016708E0,2.624389887E0
1.687184631E0,-9.592024803E0,-3.663827658E0,2.581073999E0
1.689197131E0,-9.640492439E0,-3.731545448E0,2.602210045E0
1.691194006E0,-9.670803070E0,-3.827907324E0,2.684685230E0
1.693187756E0,-9.660671234E0,-3.913552523E0,2.745507717E0
1.695184631E0,-9.642963409E0,-3.971827507E0,2.771834135E0
1.697187756E0,-9.577859879E0,-3.989946842E0,2.754471779E0
1.699184631E0,-9.492156982E0,-3.984191179E0,2.658033133E0
1.701190881E0,-9.384437561E0,-3.989898920E0,2.586216688E0
1.703184631E0,-9.268883705E0,-4.002109528E0,2.535670519E0
1.705194006E0,-9.152420044E0,-4.008065701E0,2.482499838E0
1.707198693E0,-9.075345993E0,-4.019453049E0,2.462244987E0
1.709197131E0,-8.962971687E0,-4.048556805E0,2.420499563E0
1.711184631E0,-8.847714424E0,-4.033358574E0,2.386291265E0
1.713184631E0,-8.738759995E0,-4.006093025E0,2.395772219E0
1.715189318E0,-8.629842758E0,-4.008219242E0,2.418450117E0
1.717195568E0,-8.520245552E0,-4.036355972E0,2.409323454E0
1.719184631E0,-8.427417755E0,-4.058832645E0,2.386837244E0
1.721184631E0,-8.317465782E0,-4.053211212E0,2.371178865E0
1.723187756E0,-8.209075928E0,-4.002808571E0,2.347016811E0
1.725184631E0,-8.108040810E0,-4.032285690E0,2.286386013E0
1.727204943E0,-7.995876789E0,-4.068687439E0,2.215996504E0
1.729186193E0,-7.888913631E0,-4.039918423E0,2.160048723E0
1.731231506E0,-7.813419819E0,-3.975638866E0,2.100193739E0
1.733195568E0,-7.759856701E0,-3.899599075E0,2.056188345E0
1.735206506E0,-7.654626846E0,-3.930082083E0,1.956876874E0
1.737184631E0,-7.557537079E0,-3.926356792E0,1.883144975E0
1.739244006E0,-7.571959972E0,-3.846562862E0,1.846686006E0
1.741208068E0,-7.606148720E0,-3.768741608E0,1.817132115E0
1.743187756E0,-7.625886917E0,-3.740700722E0,1.795861959E0
1.745184631E0,-7.602701187E0,-3.771834850E0,1.752459884E0
1.747192443E0,-7.540461540E0,-3.776901007E0,1.714277148E0
1.749225256E0,-7.508216381E0,-3.788747549E0,1.717791915E0
1.751184631E0,-7.466346741E0,-3.840433598E0,1.755562782E0
1.753184631E0,-7.401588440E0,-3.927525043E0,1.773088336E0
1.755189318E0,-7.332539558E0,-3.958477259E0,1.768587112E0
1.757184631E0,-7.277032375E0,-3.933634996E0,1.775578260E0
1.759186193E0,-7.196280956E0,-3.933865070E0,1.814057827E0
1.761184631E0,-7.068018436E0,-3.948967457E0,1.774687648E0
1.763194006E0,-6.917088032E0,-3.996554613E0,1.670712233E0
1.765190881E0,-6.854676247E0,-3.988998652E0,1.599001050E0
1.767184631E0,-6.865689278E0,-3.930302143E0,1.529981136E0
1.769211193E0,-6.856141090E0,-3.884276152E0,1.465816498E0
1.771194006E0,-6.777286053E0,-3.916090250E0,1.346968293E0
1.773184631E0,-6.630415916E0,-4.086585999E0,1.219778657E0
1.775184631E0,-6.502508163E0,-4.207982063E0,1.144687057E0
1.777184631E0,-6.445430279E0,-4.231416702E0,1.107404470E0
1.779184631E0,-6.401070595E0,-4.266821861E0,1.046381116E0
1.781187756E0,-6.347076893E0,-4.360100269E0,1.023875594E0
1.783184631E0,-6.346616745E0,-4.397937775E0,1.028903484E0
1.785184631E0,-6.328947544E0,-4.395026207E0,1.003927112E0
1.787192443E0,-6.265923023E0,-4.387891769E0,9.732334018E-1
1.789184631E0,-6.255512714E0,-4.383036137E0,9.540319443E-1
1.791184631E0,-6.246817112E0,-4.430537224E0,8.869176507E-1
1.793187756E0,-6.220767975E0,-4.502851486E0,8.156087399E-1
1.795225256E0,-6.543468475E0,-4.599539280E0,6.507152915E-1
1.797184631E0,-7.857013226E0,-4.850605011E0,2.233215570E-1
1.799184631E0,-8.537732124E0,-4.993691921E0,-1.775252670E-1
1.801184631E0,-9.097842216E0,-5.098672867E0,-3.923043311E-1
1.803186193E0,-9.979980469E0,-5.239863873E0,-6.398456693E-1
1.805184631E0,-1.077448273E1,-5.364687920E0,-8.434581161E-1
1.807184631E0,-1.095454502E1,-5.395227909E0,-1.432364702E0
1.809184631E0,-1.118424511E1,-5.451903820E0,-1.627520919E0
1.811184631E0,-1.169816494E1,-5.520942688E0,-1.543426871E0
1.813200256E0,-1.195496750E1,-5.584370136E0,-1.449842453E0
1.815194006E0,-1.175977230E1,-5.618262291E0,-1.540678382E0
1.817189318E0,-1.138248539E1,-5.668463707E0,-1.596386552E0
1.819231506E0,-1.143840408E1,-5.725972652E0,-1.329308748E0
1.821215881E0,-1.148560810E1,-5.781939507E0,-1.018263578E0
1.823195568E0,-1.143136501E1,-5.820821285E0,-6.885915399E-1
1.825198693E0,-1.081617928E1,-5.853325367E0,-6.860345602E-1
1.827184631E0,-1.037736988E1,-5.935580730E0,-4.966340363E-1
1.829189318E0,-1.048782921E1,-6.140791893E0,1.601720899E-1
1.831184631E0,-1.046832085E1,-6.313318253E0,5.509632826E-1
1.833186193E0,-1.006454372E1,-6.469391823E0,6.959944367E-1
1.835184631E0,-9.360610008E0,-6.571700573E0,7.055712342E-1
1.837190881E0,-9.108999252E0,-6.713734150E0,9.995121360E-1
1.839184631E0,-9.221651077E0,-6.915804863E0,1.564601183E0
1.841192443E0,-9.101011276E0,-7.082738400E0,1.822083235E0
1.843200256E0,-8.902619362E0,-7.377397537E0,1.904711962E0
1.845231506E0,-8.768361092E0,-7.701112747E0,1.924947739E0
1.847190881E0,-8.713534355E0,-8.066208839E0,2.025341511E0
1.849184631E0,-8.643020630E0,-8.243112564E0,2.113457441E0
1.851184631E0,-8.486190796E0,-8.314401627E0,2.186873198E0
1.853184631E0,-7.522553444E0,-7.664625168E0,2.284547329E0
1.855184631E0,-7.157954693E0,-7.298312187E0,2.266485453E0
1.857184631E0,-7.079635143E0,-7.117415905E0,2.276311398E0
1.859186193E0,-6.960844517E0,-6.952483654E0,2.192581415E0
1.861184631E0,-6.916159153E0,-6.772717953E0,2.139056444E0
1.863184631E0,-7.019693851E0,-6.592242718E0,2.135091543E0
1.865184631E0,-6.702548504E0,-6.411058903E0,1.858963490E0
1.867184631E0,-5.977861881E0,-6.201633930E0,1.325650215E0
1.869215881E0,-5.728405476E0,-5.948853970E0,1.080809712E0
1.871184631E0,-5.779707909E0,-5.749253750E0,9.969934821E-1
1.873228381E0,-6.100205421E0,-5.575942516E0,1.031067729E0
1.875194006E0,-6.390564919E0,-5.452516556E0,1.028357506E0
1.877206506E0,-6.717794895E0,-5.355714321E0,1.028539419E0
1.879203381E0,-7.146423817E0,-5.277749538E0,1.068551421E0
1.881189318E0,-7.171495914E0,-5.228859901E0,9.963039756E-1
1.883184631E0,-6.412084103E0,-5.192247391E0,4.935407341E-1
1.885200256E0,-5.977249146E0,-5.111045837E0,2.131509930E-1
1.887204943E0,-5.810172081E0,-5.047935009E0,1.257530451E-1
1.889192443E0,-5.932104111E0,-5.038386822E0,3.083348572E-1
1.891203381E0,-6.234951019E0,-5.079481125E0,5.502737164E-1
1.893184631E0,-6.499529839E0,-5.119684219E0,7.197065949E-1
1.895184631E0,-6.878886223E0,-5.196097851E0,1.008811235E0
1.897198693E0,-7.085563660E0,-5.269417286E0,1.240866780E0
1.899200256E0,-7.020843029E0,-5.357620239E0,1.219568014E0
1.901220568E0,-6.907415390E0,-5.433564186E0,1.163955569E0
1.903190881E0,-6.467552662E0,-5.503992081E0,8.457469344E-1
1.905236193E0,-6.205110073E0,-5.554327488E0,6.225020289E-1
1.907184631E0,-6.186904430E0,-5.650708675E0,5.155961514E-1
1.909184631E0,-6.406921864E0,-5.762910843E0,5.551004410E-1
1.911186193E0,-6.705440998E0,-5.893576622E0,6.116323471E-1
1.913184631E0,-6.940886497E0,-6.020565033E0,6.074855924E-1
1.915184631E0,-7.058307648E0,-6.140715122E0,5.433976054E-1
1.917190881E0,-6.769768238E0,-6.284874916E0,2.056810707E-1
1.919184631E0,-6.829154015E0,-7.710047722E0,1.894484013E-1
1.921195568E0,-7.281313419E0,-9.452701569E0,6.361776590E-1
1.923184631E0,-7.852368832E0,-1.094061089E1,9.479123354E-1
1.925215881E0,-8.253598213E0,-1.188216400E1,9.811916947E-1
1.927203381E0,-8.333574295E0,-1.223958969E1,7.041538954E-1
1.929190881E0,-8.167426109E0,-1.220717239E1,3.187927604E-1
1.931184631E0,-7.804197311E0,-1.180197716E1,-3.911167979E-1
1.933184631E0,-6.996019840E0,-1.108638000E1,-1.167221189E0
1.935198693E0,-6.069062233E0,-1.014978695E1,-1.864249945E0
1.937184631E0,-4.930350780E0,-9.146013260E0,-2.635374546E0
1.939184631E0,-3.881067753E0,-8.109966278E0,-3.230458021E0
1.941184631E0,-3.168812275E0,-7.077739239E0,-3.615915060E0
1.943184631E0,-2.995558023E0,-6.154602051E0,-3.725186348E0
1.945184631E0,-3.394326925E0,-5.132948399E0,-3.455072403E0
1.947194006E0,-4.020851135E0,-4.541178226E0,-3.094113111E0
1.949184631E0,-4.638794422E0,-4.154562473E0,-2.867075682E0
1.951234631E0,-5.029135704E0,-3.987945080E0,-2.766806602E0
1.953184631E0,-5.875102997E0,-3.898468971E0,-2.444087505E0
1.955184631E0,-6.366172791E0,-4.128245831E0,-1.978309751E0
1.957197131E0,-6.767814636E0,-4.510120392E0,-1.317337632E0
1.959187756E0,-7.100608349E0,-5.033809185E0,-4.215518832E-1
1.961184631E0,-7.080842018E0,-5.364898205E0,4.588248208E-2
1.963184631E0,-6.856457710E0,-5.590173721E0,2.633143067E-1
1.965192443E0,-6.672975063E0,-5.621231556E0,3.224798143E-1
1.967195568E0,-6.823398590E0,-5.285027981E0,2.204676718E-1
1.969184631E0,-7.150033951E0,-5.052158356E0,4.816463292E-1
1.971184631E0,-7.169053555E0,-5.055222511E0,6.483976841E-1
1.973184631E0,-7.041423798E0,-5.181301117E0,7.740358114E-1
1.975187756E0,-7.004122257E0,-5.334492207E0,9.183104038E-1
1.977184631E0,-7.380251408E0,-5.483919144E0,1.279327273E0
1.979184631E0,-7.766474247E0,-5.720897198E0,1.551998138E0
1.981198693E0,-7.853240013E0,-5.847301483E0,1.586378932E0
1.983192443E0,-7.735627651E0,-6.124751091E0,1.381655574E0
1.985186193E0,-7.519105434E0,-6.313414097E0,1.183501840E0
1.987186193E0,-7.317437172E0,-6.504107475E0,1.042416215E0
1.989229943E0,-7.322474003E0,-6.710037708E0,9.725534916E-1
1.991190881E0,-7.376343727E0,-7.011908054E0,9.920518398E-1
1.993187756E0,-7.258913040E0,-7.249192715E0,9.030354023E-1
1.995186193E0,-6.997552395E0,-7.505745411E0,7.557728887E-1
1.997184631E0,-6.783242702E0,-7.795712471E0,6.379973292E-1
1.999184631E0,-6.502680779E0,-8.164054871E0,6.246376634E-1
2.001190881E0,-6.394366741E0,-8.343352318E0,6.095829010E-1
2.003184631E0,-6.365694046E0,-8.693470955E0,7.871943116E-1
2.005184631E0,-6.255886078E0,-8.955760956E0,8.805969954E-1
2.007184631E0,-6.218967915E0,-9.246751785E0,9.854151011E-1
2.009194006E0,-6.243771553E0,-9.625351906E0,1.183453798E0
2.011184631E0,-6.875859737E0,-1.052708530E1,1.377183080E0
2.013184631E0,-7.015595436E0,-1.075562572E1,9.899927974E-1
2.015184631E0,-7.142373085E0,-1.082872581E1,6.869730949E-1
2.017184631E0,-7.295802593E0,-1.081488705E1,2.616287768E-1
2.019184631E0,-7.360714436E0,-1.073492050E1,-8.911219239E-2
2.021186193E0,-7.470608234E0,-1.063359737E1,-4.242046475E-1
2.023186193E0,-7.569460392E0,-1.048011017E1,-7.130890489E-1
2.025184631E0,-7.629525661E0,-1.035733604E1,-8.947802186E-1
2.027184631E0,-7.712748528E0,-1.007955074E1,-1.175524235E0
2.029219006E0,-7.751458168E0,-9.830592155E0,-1.328992724E0
2.031184631E0,-7.777247906E0,-9.575781822E0,-1.411065936E0
2.033197131E0,-7.768705368E0,-9.327062607E0,-1.474703789E0
2.035184631E0,-7.743786812E0,-9.108961105E0,-1.525001049E0
2.037184631E0,-7.728445053E0,-8.927289009E0,-1.560425758E0
2.039209631E0,-7.631441593E0,-8.708688736E0,-1.482930183E0
2.041198693E0,-7.535203934E0,-8.571481705E0,-1.379768968E0
2.043194006E0,-7.478835106E0,-8.481047630E0,-1.314512491E0
2.045236193E0,-7.361011028E0,-8.341380119E0,-1.247024775E0
2.047184631E0,-7.189538479E0,-8.193244934E0,-1.126788020E0
2.049186193E0,-6.972882748E0,-8.023956299E0,-9.568474889E-1
2.051184631E0,-6.748191357E0,-7.861687183E0,-7.866772413E-1
2.053184631E0,-6.511912823E0,-7.689984322E0,-6.181637049E-1
2.055184631E0,-6.268987179E0,-7.505391598E0,-4.376409352E-1
2.057231506E0,-6.019999981E0,-7.352602959E0,-2.790106833E-1
2.059215881E0,-5.830570698E0,-7.199488640E0,-1.237993836E-1
2.061242443E0,-5.719489098E0,-7.090610504E0,-2.817496471E-2
2.063208068E0,-5.564690113E0,-6.928523064E0,1.386913210E-1
2.065184631E0,-5.436255455E0,-6.786652088E0,3.026175201E-1
2.067184631E0,-5.306164265E0,-6.631823540E0,4.444117248E-1
2.069184631E0,-5.183226585E0,-6.473758698E0,5.441158414E-1
2.071184631E0,-5.097839832E0,-6.357323647E0,6.227797270E-1
2.073184631E0,-5.040111065E0,-6.254957676E0,6.979385614E-1
2.075190881E0,-4.979297638E0,-6.113785744E0,7.922126055E-1
2.077187756E0,-4.954139709E0,-5.953680515E0,8.614721298E-1
2.079184631E0,-4.965698719E0,-5.836996555E0,8.905376792E-1
2.081184631E0,-4.952779770E0,-5.790184975E0,8.917826414E-1
2.083195568E0,-4.930044651E0,-5.748985767E0,8.640769720E-1
2.085206506E0,-4.935177803E0,-5.764873505E0,8.305964470E-1
2.087186193E0,-4.902846336E0,-5.797118664E0,8.323202729E-1
2.089195568E0,-4.996698856E0,-5.874374866E0,8.850118518E-1
2.091194006E0,-5.041231155E0,-5.912672997E0,8.761245608E-1
2.093194006E0,-5.100329399E0,-5.990254402E0,8.467525244E-1
2.095184631E0,-5.083158016E0,-6.060423851E0,8.332013488E-1
2.097186193E0,-4.995099545E0,-6.167377472E0,7.904791832E-1
2.099184631E0,-4.981203556E0,-6.293111324E0,7.225126624E-1
2.101184631E0,-5.017863750E0,-6.395717144E0,7.668436170E-1
2.103184631E0,-5.012941360E0,-6.446608543E0,7.798681259E-1
2.105184631E0,-5.019300461E0,-6.554539204E0,7.429016232E-1
2.107198693E0,-5.005681992E0,-6.641429424E0,6.907750964E-1
2.109184631E0,-5.032669544E0,-6.754225254E0,6.106842756E-1
2.111186193E0,-5.175057411E0,-6.895205021E0,5.852961540E-1
2.113184631E0,-5.304852009E0,-6.984441757E0,5.603677034E-1
2.115184631E0,-5.426525593E0,-7.204679489E0,4.123198688E-1
2.117184631E0,-5.420175552E0,-7.420253277E0,3.403501213E-1
2.119184631E0,-5.382098198E0,-7.511913300E0,3.559890687E-1
2.121186193E0,-5.369945526E0,-7.623482704E0,4.279874861E-1
2.123192443E0,-5.359027863E0,-7.631604195E0,4.464228451E-1
2.125184631E0,-5.390822887E0,-7.640089512E0,4.350647628E-1
2.127198693E0,-5.534340858E0,-7.624565125E0,4.308701158E-1
2.129187756E0,-5.648974895E0,-7.597108364E0,4.638909400E-1
2.131189318E0,-5.695987701E0,-7.578970432E0,4.869423211E-1
2.133184631E0,-5.729554653E0,-7.542970657E0,4.869135618E-1
2.135184631E0,-5.751753330E0,-7.592511654E0,4.805737436E-1
2.137184631E0,-5.570780754E0,-7.721999645E0,4.934928715E-1
2.139184631E0,-5.337911129E0,-7.849476337E0,5.517294407E-1
2.141186193E0,-5.246969700E0,-7.936453342E0,6.195236444E-1
2.143184631E0,-5.207503319E0,-8.006478310E0,6.671395302E-1
2.145184631E0,-5.202973843E0,-7.955012798E0,6.471910477E-1
2.147189318E0,-5.290074825E0,-7.901229382E0,5.182393193E-1
2.149184631E0,-5.418825150E0,-7.862634659E0,4.310712218E-1
2.151184631E0,-5.561596870E0,-7.891240597E0,3.468336463E-1
2.153184631E0,-5.692137718E0,-7.950894833E0,1.901953816E-1
2.155214318E0,-5.665687084E0,-8.067521095E0,4.873637110E-2
2.157197131E0,-5.360904694E0,-8.243964195E0,1.562743336E-1
2.159186193E0,-5.143310070E0,-8.246703148E0,2.114558816E-1
2.161187756E0,-5.016273975E0,-8.205924988E0,2.283972651E-1
2.163184631E0,-4.851438046E0,-8.178631783E0,2.663501501E-1
2.165211193E0,-4.848019123E0,-8.185670853E0,2.474359572E-1
2.167195568E0,-4.824872017E0,-8.305371284E0,2.854750454E-1
2.169184631E0,-4.887283802E0,-8.295688629E0,3.743956983E-1
2.171192443E0,-4.978253841E0,-8.370827675E0,4.284471869E-1
2.173189318E0,-5.048902512E0,-8.459414482E0,5.771558285E-1
2.175186193E0,-5.034776211E0,-8.553965569E0,7.298484445E-1
2.177184631E0,-4.914041519E0,-8.653439522E0,1.105527520E0
2.179184631E0,-4.892168045E0,-8.680599213E0,1.295167327E0
2.181186193E0,-5.104026318E0,-8.329120636E0,1.444306970E0
2.183184631E0,-5.146193027E0,-8.451407433E0,1.596137643E0
2.185184631E0,-5.238503933E0,-8.473012924E0,1.586972713E0
2.187186193E0,-5.265854836E0,-8.498161316E0,1.548157811E0
2.189186193E0,-5.289959908E0,-8.559299469E0,1.476753116E0
2.191194006E0,-5.361326218E0,-8.618828773E0,1.356324792E0
2.193184631E0,-5.407122612E0,-8.710660934E0,1.178263307E0
2.195184631E0,-5.360933781E0,-8.850492477E0,7.212101221E-1
2.197217443E0,-5.235247612E0,-9.043522835E0,8.996452391E-2
2.199226818E0,-5.140427589E0,-9.183323860E0,-4.205750525E-1
2.201204943E0,-4.920285702E0,-9.357574463E0,-1.154953361E0
2.203184631E0,-4.634150028E0,-9.489303589E0,-1.865504503E0
2.205186193E0,-4.007941723E0,-9.171199799E0,-2.668021679E0
2.207184631E0,-3.149447680E0,-8.719567299E0,-3.411440372E0
2.209184631E0,-2.549853563E0,-8.569614410E0,-4.057127953E0
2.211184631E0,-2.201076031E0,-8.526939392E0,-4.655237675E0
2.213190881E0,-1.939274669E0,-8.421805382E0,-5.142199039E0
2.215184631E0,-1.769104362E0,-8.289971352E0,-5.493821144E0
2.217186193E0,-1.724227428E0,-8.216412544E0,-5.722007751E0
2.219184631E0,-1.683133364E0,-8.140448570E0,-5.740175247E0
2.221208068E0,-1.779533625E0,-8.091731071E0,-5.685003281E0
2.223184631E0,-1.890480876E0,-8.004639626E0,-5.477742195E0
2.225184631E0,-2.074020147E0,-7.956506729E0,-5.188560486E0
2.227184631E0,-2.317692518E0,-7.955923080E0,-4.736669540E0
2.229208068E0,-2.617207289E0,-7.986989975E0,-4.168036938E0
2.231194006E0,-2.859222651E0,-8.040246964E0,-3.479713678E0
2.233184631E0,-3.029527187E0,-8.045791626E0,-2.753197908E0
2.235184631E0,-3.187075138E0,-7.996930599E0,-2.125342607E0
2.237184631E0,-3.405397415E0,-8.004419327E0,-1.425613046E0
2.239184631E0,-3.624064684E0,-8.047697067E0,-7.542118430E-1
2.241184631E0,-3.764834166E0,-8.181657791E0,-4.576756060E-2
2.243184631E0,-3.850757360E0,-8.354336739E0,4.471890032E-1
2.245203381E0,-3.791429281E0,-8.532131195E0,9.883168936E-1
2.247197131E0,-3.648408890E0,-8.566693306E0,1.564764023E0
2.249184631E0,-3.568864107E0,-8.575762749E0,2.135800362E0
2.251184631E0,-3.647145033E0,-8.569911003E0,2.637203693E0
2.253186193E0,-3.708273649E0,-8.562575340E0,2.907643080E0
2.255184631E0,-3.895298958E0,-8.553629875E0,3.011149168E0
2.257194006E0,-3.931384563E0,-8.271085739E0,3.114521265E0
2.259184631E0,-4.092303753E0,-7.977997303E0,3.171962976E0
2.261204943E0,-4.228160381E0,-7.859665871E0,3.160480261E0
2.263184631E0,-4.251249790E0,-7.643814564E0,3.145971537E0
2.265184631E0,-4.082717419E0,-7.495584965E0,3.209159136E0
2.267184631E0,-3.982907772E0,-7.722200871E0,3.227307320E0
2.269228381E0,-3.793689251E0,-7.578356743E0,3.049628735E0
2.271186193E0,-3.649184704E0,-7.334847450E0,2.751713276E0
2.273204943E0,-3.348894596E0,-7.323565960E0,2.495121956E0
2.275184631E0,-2.954272509E0,-7.408684731E0,2.011981726E0
2.277190881E0,-2.848228455E0,-7.482129574E0,1.699471474E0
2.279189318E0,-2.676937819E0,-7.889900208E0,1.161302686E0
2.281203381E0,-2.523057699E0,-8.022663116E0,8.891012073E-1
2.283215881E0,-2.417684078E0,-8.017434120E0,4.993155599E-1
2.285184631E0,-2.329280615E0,-8.090629578E0,1.691934466E-1
2.287184631E0,-2.162241936E0,-8.233314514E0,-1.159751266E-1
2.289201818E0,-2.078712940E0,-8.332798958E0,-1.166455075E-1
2.291187756E0,-2.025312662E0,-8.408502579E0,-9.579680115E-2
2.293184631E0,-1.933260322E0,-8.537503242E0,-4.587290343E-3
2.295212756E0,-1.909232140E0,-8.704044342E0,5.432922393E-2
2.297197131E0,-1.859595537E0,-8.902954102E0,2.084296197E-1
2.299200256E0,-1.715694427E0,-8.937468529E0,4.638239145E-1
2.301184631E0,-1.555934191E0,-8.857875824E0,6.860249639E-1
2.303190881E0,-1.645802975E0,-8.708075523E0,7.681269646E-1
2.305184631E0,-1.810859203E0,-8.521461487E0,8.065969944E-1
2.307184631E0,-1.813061833E0,-8.475991249E0,8.586181402E-1
2.309184631E0,-1.677942753E0,-8.427828789E0,9.110608101E-1
2.311195568E0,-1.615540266E0,-8.401895523E0,8.411788344E-1
2.313195568E0,-1.655427575E0,-8.385653496E0,7.859302163E-1
2.315184631E0,-1.606835008E0,-8.348082542E0,7.270615697E-1
2.317234631E0,-1.476619124E0,-8.306606293E0,6.632705331E-1
2.319184631E0,-1.508806705E0,-8.294596672E0,6.017395258E-1
2.321194006E0,-1.475642323E0,-8.325970650E0,6.436284781E-1
2.323186193E0,-1.378475904E0,-8.364478111E0,6.972873211E-1
2.325184631E0,-1.250644803E0,-8.389752388E0,6.618914008E-1
2.327200256E0,-1.178071737E0,-8.409432411E0,5.700115561E-1
2.329184631E0,-9.636566043E-1,-8.351914406E0,3.847098947E-1
2.331184631E0,-7.728770375E-1,-8.344511032E0,2.428295165E-1
2.333184631E0,-7.927489281E-1,-8.372830391E0,1.764622331E-1
2.335197131E0,-8.138466477E-1,-8.440566063E0,2.259360254E-1
2.337184631E0,-1.006876707E0,-8.596956253E0,2.634962797E-1
2.339184631E0,-1.009242177E0,-8.669701576E0,2.034784108E-1
2.341184631E0,-8.345420957E-1,-8.711877823E0,1.077965423E-1
2.343184631E0,-8.895129561E-1,-8.921207428E0,4.100597203E-1
2.345204943E0,-1.297015667E0,-9.081274033E0,8.229349852E-1
2.347184631E0,-1.457867622E0,-9.148081779E0,1.005143285E0
2.349184631E0,-1.517933488E0,-9.171592712E0,1.098660946E0
2.351206506E0,-1.545323133E0,-9.194146156E0,1.040749907E0
2.353201818E0,-1.547583222E0,-9.244290352E0,8.814780116E-1
2.355186193E0,-1.574254632E0,-9.472563744E0,7.333056927E-1
2.357189318E0,-1.613078952E0,-9.700118065E0,7.034739256E-1
2.359189318E0,-1.633104086E0,-9.885964394E0,7.329034209E-1
2.361186193E0,-1.620347738E0,-9.985803604E0,6.684323549E-1
2.363184631E0,-1.568077683E0,-1.001416016E1,5.224435329E-1
2.365184631E0,-1.407627821E0,-9.998913765E0,1.441213638E-1
2.367194006E0,-1.210575461E0,-9.955722809E0,-1.230428144E-1
2.369187756E0,-9.638864994E-1,-9.873620987E0,-3.628939390E-1
2.371187756E0,-7.761714458E-1,-9.764426231E0,-5.394998193E-1
2.373184631E0,-6.708744764E-1,-9.683004379E0,-5.067758560E-1
2.375184631E0,-6.573233008E-1,-9.685743332E0,-3.323535025E-1
2.377190881E0,-7.049008608E-1,-9.566099167E0,-2.246718854E-1
2.379184631E0,-7.786997557E-1,-9.432512283E0,-1.227076277E-1
2.381184631E0,-1.009519935E0,-9.438612938E0,3.549164534E-2
2.383212756E0,-1.363746881E0,-9.557097435E0,1.563796848E-1
2.385206506E0,-1.765800357E0,-9.820278168E0,9.910079837E-2
2.387184631E0,-2.111571074E0,-1.010852051E1,1.786074415E-2
2.389195568E0,-2.295244694E0,-1.040335274E1,-8.349060267E-2
2.391184631E0,-2.248911858E0,-1.077906895E1,-1.565137506E-1
2.393229943E0,-2.132113218E0,-1.105263042E1,-1.267873496E-1
2.395225256E0,-1.964959621E0,-1.135949135E1,9.700348228E-2
2.397186193E0,-2.219367504E0,-1.200433636E1,1.814613342E-1
2.399211193E0,-2.852404118E0,-1.291970634E1,4.031835590E-3
2.401225256E0,-3.568873882E0,-1.403381443E1,-2.338464707E-1
2.403184631E0,-3.886497974E0,-1.470290756E1,-1.313746274E-1
2.405223693E0,-3.844743252E0,-1.521252728E1,1.414398700E-1
2.407197131E0,-3.379358053E0,-1.545647717E1,5.040752292E-1
2.409186193E0,-2.475547075E0,-1.541774940E1,7.731260657E-1
2.411184631E0,-1.313593149E0,-1.526401234E1,8.997218609E-1
2.413192443E0,-4.575798288E-2,-1.505186749E1,8.880668879E-1
2.415192443E0,1.219137073E0,-1.480858803E1,8.340345621E-1
2.417190881E0,2.336032152E0,-1.462423420E1,7.835168242E-1
2.419198693E0,3.155155420E0,-1.434450531E1,7.140562534E-1
2.421186193E0,3.684513569E0,-1.421414566E1,6.604357362E-1
2.423184631E0,4.021339417E0,-1.427457523E1,6.091902256E-1
2.425184631E0,4.229290009E0,-1.448169327E1,6.759693623E-1
2.427184631E0,4.215106964E0,-1.483839035E1,7.522198558E-1
2.429194006E0,4.068993568E0,-1.506397247E1,7.186722755E-1
2.431187756E0,3.780118942E0,-1.535817146E1,6.539714336E-1
2.433192443E0,3.467915058E0,-1.556877518E1,6.331610084E-1
2.435184631E0,3.091115475E0,-1.574863815E1,6.339367032E-1
2.437184631E0,2.678153992E0,-1.577495384E1,6.457545161E-1
2.439184631E0,2.149677038E0,-1.576782894E1,6.361681223E-1
2.441195568E0,1.670271754E0,-1.573853397E1,5.906591415E-1
2.443189318E0,1.261705875E0,-1.566729164E1,5.476592779E-1
2.445194006E0,6.742838025E-1,-1.546720409E1,5.033856630E-1
2.447184631E0,2.726995945E-1,-1.525760555E1,5.325566530E-1
2.449197131E0,-1.408365220E-1,-1.497034931E1,5.745892525E-1
2.451184631E0,-5.066514015E-1,-1.473310375E1,5.851524472E-1
2.453184631E0,-9.407489300E-1,-1.445075989E1,5.692549348E-1
2.455192443E0,-1.171818137E0,-1.420653248E1,5.286492705E-1
2.457184631E0,-1.353470922E0,-1.391447735E1,5.000817180E-1
2.459194006E0,-1.450828791E0,-1.368828297E1,5.442116261E-1
2.461195568E0,-1.571936965E0,-1.343842411E1,5.674066544E-1
2.463184631E0,-1.711471200E0,-1.322037983E1,5.741199851E-1
2.465184631E0,-1.739646077E0,-1.292233944E1,5.532712936E-1
2.467194006E0,-1.803015828E0,-1.261597729E1,5.041326880E-1
2.469184631E0,-2.054617643E0,-1.231486320E1,3.326886892E-1
2.471184631E0,-2.253738880E0,-1.227056122E1,2.349382192E-1
2.473184631E0,-2.582213640E0,-1.229741478E1,8.559749275E-2
2.475192443E0,-2.636188507E0,-1.230281639E1,4.679227993E-2
2.477197131E0,-2.440237284E0,-1.229224300E1,1.651424617E-1
2.479184631E0,-1.827599525E0,-1.215178967E1,4.171082377E-1
2.481186193E0,-1.236787081E0,-1.195876980E1,5.343188047E-1
2.483211193E0,-7.228669524E-1,-1.179518795E1,5.806896687E-1
2.485192443E0,-3.251421750E-1,-1.162289143E1,5.872114897E-1
2.487198693E0,-6.049668789E-2,-1.144816303E1,5.361383557E-1
2.489184631E0,8.789593726E-2,-1.116097355E1,4.513740540E-1
2.491184631E0,7.750509679E-2,-1.092609310E1,3.832063675E-1
2.493184631E0,-1.771709183E-3,-1.067649174E1,3.290494978E-1
2.495184631E0,-1.137724668E-1,-1.040514374E1,2.695679665E-1
2.497190881E0,-2.279280126E-1,-1.014507484E1,2.178053111E-1
2.499184631E0,-3.310318887E-1,-9.845598221E0,1.602965891E-1
2.501184631E0,-3.709480166E-1,-9.684814453E0,1.337018013E-1
2.503189318E0,-3.769335449E-1,-9.572411537E0,1.156399399E-1
2.505184631E0,-3.434051573E-1,-9.496323586E0,1.155441776E-1
2.507206506E0,-2.778231502E-1,-9.460151672E0,1.200931519E-1
2.509194006E0,-1.925991625E-1,-9.452404022E0,1.307712942E-1
2.511184631E0,6.818686612E-3,-9.556331635E0,2.242983878E-1
2.513184631E0,6.786125153E-2,-9.627477646E0,2.492268234E-1
2.515187756E0,1.068867445E-1,-9.660097122E0,2.687826455E-1
2.517194006E0,1.513805836E-1,-9.680744171E0,2.836841643E-1
2.519184631E0,1.746043414E-1,-9.698758125E0,2.877542973E-1
2.521184631E0,1.939399093E-1,-9.713525772E0,2.936632037E-1
2.523189318E0,2.207837105E-1,-9.732047081E0,2.896888554E-1
2.525184631E0,2.457504421E-1,-9.731472969E0,2.861933112E-1
2.527186193E0,2.721441090E-1,-9.738127708E0,2.907710075E-1
2.529195568E0,2.878309190E-1,-9.754294395E0,2.744712830E-1
2.531206506E0,2.880607545E-1,-9.760595322E0,2.654307783E-1
2.533192443E0,2.865859270E-1,-9.768132210E0,2.587174475E-1
2.535186193E0,2.887407243E-1,-9.786567688E0,2.463442087E-1
2.537183068E0,2.748064697E-1,-9.803040504E0,2.319694161E-1
2.539201818E0,2.581428289E-1,-9.819186211E0,2.204485238E-1
2.541234631E0,2.460664660E-1,-9.831569672E0,2.099810690E-1
2.543194006E0,2.355319858E-1,-9.846518517E0,2.012278587E-1
2.545184631E0,2.063514590E-1,-9.825688362E0,2.043882161E-1
2.547187756E0,1.858475208E-1,-9.833713531E0,2.215594202E-1
2.549184631E0,1.501260251E-1,-9.822825432E0,2.318066061E-1
2.551184631E0,1.199782342E-1,-9.808958054E0,2.424272895E-1
2.553184631E0,9.117120504E-2,-9.808469772E0,2.564668953E-1
2.555184631E0,6.532340497E-2,-9.810997963E0,2.896792591E-1
2.557228381E0,3.649721295E-2,-9.826943398E0,3.281397223E-1
2.559184631E0,1.848323736E-3,-9.821887016E0,3.518710434E-1
2.561184631E0,-9.145850316E-3,-9.802398682E0,3.735529184E-1
2.563184631E0,-3.101927787E-2,-9.785369873E0,3.857825100E-1
2.565186193E0,-6.642472744E-2,-9.809973717E0,4.001285732E-1
2.567184631E0,-9.350794554E-2,-9.823266029E0,4.242525399E-1
2.569184631E0,-1.187428311E-1,-9.808239937E0,4.364151061E-1
2.571184631E0,-1.756769419E-1,-9.810978889E0,4.483669400E-1
2.573184631E0,-2.367673963E-1,-9.854113579E0,4.643793702E-1
2.575184631E0,-2.780530155E-1,-9.878045082E0,4.711884856E-1
2.577184631E0,-3.039199412E-1,-9.910242081E0,4.764748514E-1
2.579229943E0,-3.627981544E-1,-9.957398415E0,5.016714334E-1
2.581186193E0,-4.060278833E-1,-1.001085663E1,5.242248774E-1
2.583198693E0,-4.626076519E-1,-1.007229233E1,5.398158431E-1
2.585184631E0,-5.302103162E-1,-1.013136101E1,5.364448428E-1
2.587186193E0,-5.586438775E-1,-1.015413475E1,5.438668728E-1
2.589234631E0,-5.354584455E-1,-1.007709026E1,5.347210169E-1
2.591184631E0,-4.907922149E-1,-9.978936195E0,5.159409046E-1
2.593184631E0,-4.467580318E-1,-9.865921021E0,5.051957369E-1
2.595184631E0,-4.063822329E-1,-9.743903160E0,5.031941533E-1
2.597186193E0,-3.933098614E-1,-9.691441536E0,5.027057528E-1
2.599184631E0,-3.869796097E-1,-9.642925262E0,4.854483306E-1
2.601186193E0,-3.837234676E-1,-9.609521866E0,4.575031996E-1
2.603186193E0,-3.764930069E-1,-9.642177582E0,4.336761236E-1
2.605184631E0,-3.069270849E-1,-9.599475861E0,3.818081319E-1
2.607187756E0,-1.971864402E-1,-9.500670433E0,3.559316099E-1
2.609201818E0,-1.019355282E-1,-9.450431824E0,3.386646211E-1
2.611237756E0,-9.701305069E-3,-9.425081253E0,2.911061943E-1
2.613187756E0,1.524723321E-1,-9.261586189E0,2.507207990E-1
2.615187756E0,2.496194690E-1,-9.106729507E0,2.147503197E-1
2.617184631E0,3.455886543E-1,-8.973841667E0,1.752747148E-1
2.619186193E0,3.761961460E-1,-8.881549835E0,1.741446555E-1
2.621186193E0,4.400351346E-1,-8.785379410E0,1.725644767E-1
2.623184631E0,5.198099613E-1,-8.584036827E0,1.165018529E-1
2.625186193E0,5.656732321E-1,-8.327895164E0,-6.167463958E-3
2.627186193E0,5.979375243E-1,-8.116678238E0,-1.234929189E-1
2.629209631E0,6.060011387E-1,-7.960404873E0,-2.646646500E-1
2.631184631E0,6.063363552E-1,-7.816340923E0,-4.116973579E-1
2.633184631E0,6.133944988E-1,-7.745567799E0,-4.609412849E-1
2.635184631E0,6.328161955E-1,-7.684362888E0,-4.894897342E-1
2.637198693E0,6.672927141E-1,-7.631230354E0,-5.060384870E-1
2.639184631E0,7.101585269E-1,-7.618091106E0,-5.463472009E-1
2.641184631E0,7.251271009E-1,-7.607518673E0,-5.780943632E-1
2.643184631E0,7.250217199E-1,-7.571691513E0,-5.760736465E-1
2.645184631E0,7.370502353E-1,-7.572257042E0,-5.651465654E-1
2.647186193E0,7.512717843E-1,-7.610937595E0,-5.291377306E-1
2.649192443E0,7.842351198E-1,-7.679459572E0,-4.924393892E-1
2.651190881E0,7.904121876E-1,-7.689199448E0,-4.143405557E-1
2.653186193E0,7.758458257E-1,-7.695596218E0,-3.279673159E-1
2.655237756E0,7.380462289E-1,-7.736431599E0,-2.154781520E-1
2.657184631E0,6.354977489E-1,-7.868582249E0,-1.398213790E-3
2.659186193E0,4.809472263E-1,-7.994392395E0,1.871691197E-1
2.661215881E0,1.211753413E-1,-8.135200500E0,4.151162803E-1
2.663184631E0,-5.008766055E-1,-8.314506531E0,6.970191598E-1
2.665197131E0,-8.608878851E-1,-8.428068161E0,6.551014185E-1
2.667184631E0,-1.000383615E0,-8.434542656E0,2.626439333E-1
2.669184631E0,-9.285384417E-1,-8.329216957E0,-3.165517449E-1
2.671192443E0,2.757641673E-1,-6.890972137E0,-1.888498425E0
2.673184631E0,9.563208222E-1,-5.834037781E0,-1.966520667E0
2.675184631E0,1.206055164E0,-5.271390438E0,-1.723815680E0
2.677184631E0,1.348395228E0,-4.790175438E0,-1.418554902E0
2.679187756E0,1.552716374E0,-4.369896889E0,-8.989652991E-1
2.681184631E0,1.843640566E0,-4.166217327E0,-5.164867640E-1
2.683186193E0,2.275037527E0,-3.989889145E0,-1.987762004E-1
2.685194006E0,2.382795572E0,-4.286530972E0,2.279184312E-1
2.687184631E0,1.964356303E0,-4.736841679E0,8.586373329E-1
2.689186193E0,1.683631301E0,-5.517973900E0,8.283172250E-1
2.691184631E0,1.741523147E0,-6.642070770E0,1.863838136E-1
2.693195568E0,1.473152399E0,-7.979300022E0,1.392659247E-1
2.695204943E0,9.679566026E-1,-9.015003204E0,2.166082114E-1
2.697208068E0,5.966542363E-1,-9.857225418E0,7.368395478E-2
2.699184631E0,3.367779851E-1,-1.053262997E1,-7.920976728E-2
2.701184631E0,2.369780838E-1,-1.102145863E1,2.596272342E-2
2.703184631E0,2.679686248E-1,-1.146333218E1,2.498205900E-1
2.705184631E0,3.490075767E-1,-1.185011101E1,3.237726688E-1
2.707195568E0,3.693104088E-1,-1.205266953E1,3.745872080E-1
2.709184631E0,4.351892471E-1,-1.232647038E1,4.817612469E-1
2.711184631E0,4.582310617E-1,-1.256672478E1,6.048232317E-1
2.713195568E0,4.874881804E-1,-1.273758411E1,6.829125285E-1
2.715184631E0,5.122920871E-1,-1.289257526E1,7.161152959E-1
2.717184631E0,4.489606917E-1,-1.295287991E1,7.700327039E-1
2.719184631E0,3.905421793E-1,-1.309039402E1,7.715937495E-1
2.721189318E0,2.974843383E-1,-1.316335964E1,7.786231041E-1
2.723184631E0,1.651616096E-1,-1.323271465E1,7.816398144E-1
2.725184631E0,5.058469251E-2,-1.333544540E1,7.623329759E-1
2.727200256E0,-6.327396631E-2,-1.343533134E1,7.652347684E-1
2.729200256E0,-1.858666688E-1,-1.354104042E1,7.460715175E-1
2.731184631E0,-3.196355104E-1,-1.362312317E1,7.473644614E-1
2.733184631E0,-4.421228766E-1,-1.362805462E1,7.718427777E-1
2.735229943E0,-6.239768863E-1,-1.364592457E1,8.330385089E-1
2.737220568E0,-7.666234374E-1,-1.365024376E1,8.968392611E-1
2.739194006E0,-8.818132281E-1,-1.364577103E1,9.860950708E-1
2.741184631E0,-1.016434431E0,-1.359348202E1,1.022247553E0
2.743192443E0,-1.110181808E0,-1.356635189E1,1.025455713E0
2.745184631E0,-1.162423253E0,-1.354583836E1,1.051743984E0
2.747184631E0,-1.198403358E0,-1.350246525E1,1.053266883E0
2.749184631E0,-1.204264283E0,-1.343714046E1,1.032858610E0
2.751184631E0,-1.203239679E0,-1.339384460E1,9.553918242E-1
2.753194006E0,-1.189046741E0,-1.330359268E1,8.841978312E-1
2.755194006E0,-1.147809029E0,-1.316907597E1,8.066161275E-1
2.757186193E0,-1.079775333E0,-1.305505466E1,7.331811786E-1
2.759192443E0,-1.028031826E0,-1.292550945E1,6.454384923E-1
2.761184631E0,-9.864685535E-1,-1.284323502E1,5.372875929E-1
2.763195568E0,-9.118077755E-1,-1.268631935E1,4.072824419E-1
2.765184631E0,-8.510429263E-1,-1.256065273E1,2.906752229E-1
2.767184631E0,-7.506301403E-1,-1.244151688E1,2.156888396E-1
2.769184631E0,-6.370012760E-1,-1.232607841E1,1.317481399E-1
2.771184631E0,-5.418174267E-1,-1.218542385E1,5.260540172E-2
2.773184631E0,-4.871625900E-1,-1.195993710E1,-1.522712177E-3
2.775184631E0,-4.401212931E-1,-1.178849411E1,-6.040092185E-2
2.777195568E0,-3.837618232E-1,-1.165870857E1,-1.010544673E-1
2.779206506E0,-2.878309190E-1,-1.155147743E1,-1.501260251E-1
2.781190881E0,-1.948688626E-1,-1.142887497E1,-1.643763185E-1
2.783187756E0,-1.066760495E-1,-1.130095768E1,-2.172594517E-1
2.785223693E0,-3.373908997E-2,-1.120280457E1,-2.401767373E-1
2.787195568E0,2.110728249E-2,-1.108892632E1,-2.761951089E-1
2.789190881E0,6.828263402E-2,-1.101415157E1,-3.268085420E-1
2.791184631E0,1.116942987E-1,-1.092348862E1,-3.543705642E-1
2.793186193E0,1.522999555E-1,-1.082796860E1,-3.666672111E-1
2.795204943E0,1.824764758E-1,-1.074310875E1,-3.667055070E-1
2.797208068E0,1.853974015E-1,-1.068679714E1,-3.734858930E-1
2.799186193E0,1.859336942E-1,-1.060814285E1,-3.627311289E-1
2.801195568E0,1.653818786E-1,-1.056189632E1,-3.650583029E-1
2.803206506E0,1.410472095E-1,-1.050273991E1,-3.487298191E-1
2.805186193E0,1.048564613E-1,-1.043876743E1,-3.582683504E-1
2.807184631E0,6.064033881E-2,-1.039064312E1,-3.388752937E-1
2.809228381E0,1.299572643E-2,-1.035107231E1,-3.305913806E-1
2.811204943E0,-4.685931280E-2,-1.029474163E1,-2.931077480E-1
2.813198693E0,-1.010927707E-1,-1.027958202E1,-2.693476975E-1
2.815184631E0,-1.578640938E-1,-1.025579262E1,-2.500312626E-1
2.817190881E0,-2.108621299E-1,-1.023132420E1,-2.269511670E-1
2.819184631E0,-2.656893730E-1,-1.020465279E1,-2.118868530E-1
2.821184631E0,-3.049638271E-1,-1.017918777E1,-1.721909791E-1
2.823184631E0,-3.658052981E-1,-1.015009403E1,-1.601625234E-1
2.825194006E0,-4.201632440E-1,-1.010563755E1,-1.109568849E-1
2.827184631E0,-4.820006788E-1,-1.006846046E1,-7.573339343E-2
2.829184631E0,-5.663819313E-1,-1.003643608E1,-3.821146116E-2
2.831184631E0,-6.172156334E-1,-1.003023052E1,-4.271255806E-3
2.833187756E0,-6.557048559E-1,-1.002333450E1,2.211284637E-2
2.835190881E0,-7.112789750E-1,-1.000264931E1,6.404968351E-2
2.837184631E0,-7.859780788E-1,-9.998617172E0,1.126902848E-1
2.839184631E0,-8.253962398E-1,-1.000704479E1,1.638878882E-1
2.841184631E0,-8.841882944E-1,-1.001269531E1,2.101151496E-1
2.843187756E0,-1.017200589E0,-1.000750446E1,3.056150377E-1
2.845222131E0,-1.066923380E0,-1.003471184E1,3.476476669E-1
2.847184631E0,-1.101390243E0,-1.005221844E1,3.892492950E-1
2.849217443E0,-1.121673942E0,-1.005882645E1,4.115249515E-1
2.851189318E0,-1.148670912E0,-1.005374146E1,4.337144196E-1
2.853184631E0,-1.157759309E0,-1.006997395E1,4.462121725E-1
2.855189318E0,-1.147512078E0,-1.006846046E1,4.685548544E-1
2.857225256E0,-1.137083054E0,-1.006487846E1,4.750574827E-1
2.859228381E0,-1.126902819E0,-1.006920815E1,4.976874888E-1
2.861198693E0,-1.118446589E0,-1.008264446E1,5.175210834E-1
2.863184631E0,-1.100413442E0,-1.008756638E1,5.122633576E-1
2.865184631E0,-1.058399916E0,-1.008279800E1,5.237364173E-1
2.867186193E0,-1.025101423E0,-1.008308506E1,5.106928349E-1
2.869184631E0,-9.761543870E-1,-1.008952045E1,4.833605886E-1
2.871189318E0,-9.191532135E-1,-1.008401394E1,4.575223625E-1
2.873197131E0,-8.513493538E-1,-1.008637905E1,4.437509179E-1
2.875214318E0,-7.940896749E-1,-1.008884048E1,4.441148341E-1
2.877212756E0,-7.395018935E-1,-1.010221004E1,4.353999197E-1
2.879234631E0,-6.726749539E-1,-1.012264633E1,4.253538847E-1
2.881194006E0,-6.281906366E-1,-1.013198376E1,4.162654579E-1
2.883187756E0,-5.802395344E-1,-1.012304878E1,4.166581333E-1
2.885184631E0,-5.262455344E-1,-1.010951614E1,4.088817835E-1
2.887184631E0,-4.748659730E-1,-1.009496021E1,3.999753296E-1
2.889184631E0,-4.220786095E-1,-1.008426285E1,3.762823045E-1
2.891184631E0,-3.565541208E-1,-1.009500790E1,3.705554008E-1
2.893184631E0,-2.950039804E-1,-1.009579277E1,3.495247066E-1
2.895184631E0,-2.561604381E-1,-1.009296799E1,3.340964913E-1
2.897192443E0,-2.291921377E-1,-1.010294724E1,3.177584410E-1
2.899187756E0,-2.003659457E-1,-1.009131145E1,3.143299520E-1
2.901184631E0,-1.754470915E-1,-1.008247185E1,3.050979078E-1
2.903197131E0,-1.593772173E-1,-1.006289673E1,2.888652384E-1
2.905184631E0,-1.422251612E-1,-1.003649330E1,2.831191421E-1
2.907184631E0,-1.192887053E-1,-1.003039360E1,2.662160695E-1
2.909194006E0,-9.836337715E-2,-1.003443432E1,2.421495616E-1
2.911192443E0,-7.961199433E-2,-1.003396511E1,2.402054816E-1
2.913184631E0,-6.091806665E-2,-1.004310131E1,2.250453830E-1
2.915187756E0,-5.102522671E-2,-1.003470325E1,2.191939503E-1
2.917184631E0,-3.492661193E-2,-1.003341007E1,2.122794986E-1
2.919197131E0,-3.273352608E-2,-1.002763462E1,2.018503547E-1
2.921194006E0,-3.600879386E-2,-1.003157139E1,1.970428079E-1
2.923186193E0,-4.419696331E-2,-1.002248287E1,1.889887154E-1
2.925184631E0,-3.606625274E-2,-1.001835537E1,1.886726618E-1
2.927184631E0,-3.403597325E-2,-1.000664234E1,1.713290662E-1
2.929184631E0,-3.087562509E-2,-9.991003990E0,1.629972607E-1
2.931184631E0,-3.649721295E-2,-9.966323853E0,1.568872482E-1
2.933189318E0,-4.115153849E-2,-9.967684746E0,1.526926160E-1
2.935184631E0,-4.224329442E-2,-9.958701134E0,1.421581209E-1
2.937184631E0,-5.812164024E-2,-9.958605766E0,1.216733307E-1
2.939189318E0,-8.631575853E-2,-9.949986458E0,8.832688630E-2
2.941186193E0,-1.146247983E-1,-9.935563087E0,9.089346975E-2
2.943184631E0,-1.350712925E-1,-9.930047035E0,9.255983680E-2
2.945186193E0,-1.588026136E-1,-9.914093018E0,8.728302270E-2
2.947184631E0,-1.734647006E-1,-9.910721779E0,1.035731658E-1
2.949239318E0,-1.908178777E-1,-9.912530899E0,1.031039059E-1
2.951190881E0,-1.995710731E-1,-9.917798996E0,1.057087928E-1
2.953194006E0,-1.874659956E-1,-9.932690620E0,8.509950340E-2
2.955184631E0,-1.903773546E-1,-9.943828583E0,7.722736895E-2
2.957204943E0,-2.029325366E-1,-9.957485199E0,8.011956513E-2
2.959184631E0,-1.976653039E-1,-9.974637032E0,8.019617945E-2
2.961184631E0,-2.058917731E-1,-9.985084534E0,8.327033371E-2
2.963187756E0,-2.041487843E-1,-9.966889381E0,8.761820197E-2
2.965184631E0,-1.982590556E-1,-9.966897964E0,9.408254921E-2
2.967184631E0,-1.756290644E-1,-9.973861694E0,1.025484502E-1
2.969184631E0,-1.597315669E-1,-9.985927582E0,1.242303401E-1
2.971184631E0,-1.632941216E-1,-9.983839989E0,1.237419173E-1
2.973189318E0,-1.592910290E-1,-9.995638847E0,1.320354342E-1
2.975184631E0,-1.520318091E-1,-9.996204376E0,1.484883875E-1
2.977195568E0,-1.322557032E-1,-9.974732399E0,1.653627157E-1
2.979195568E0,-1.005181670E-1,-9.979185104E0,1.753034443E-1
2.981184631E0,-7.943961024E-2,-9.968392372E0,1.750065684E-1
2.983189318E0,-6.192363426E-2,-9.947860718E0,1.862114221E-1
2.985184631E0,-5.912720412E-2,-9.938015938E0,1.954721957E-1
2.987184631E0,-4.295197502E-2,-9.935237885E0,2.064759582E-1
2.989211193E0,-3.191949800E-2,-9.935736656E0,2.174318284E-1
2.991184631E0,-1.929726638E-2,-9.931847572E0,2.333580405E-1
2.993184631E0,-1.782243699E-2,-9.942142487E0,2.373994589E-1
2.995184631E0,2.480393043E-3,-9.947314262E0,2.249304652E-1
2.997186193E0,2.997540496E-2,-9.934126854E0,2.171828300E-1
2.999184631E0,5.347689241E-2,-9.929961205E0,2.095118016E-1
3.001184631E0,5.632119998E-2,-9.916093826E0,2.078071237E-1
3.003184631E0,7.561846823E-2,-9.922760010E0,1.879831403E-1
3.005214318E0,9.664913267E-2,-9.921839714E0,1.779658049E-1
3.007184631E0,9.422620386E-2,-9.894278526E0,1.583141983E-1
3.009184631E0,9.201396257E-2,-9.882584572E0,1.357799619E-1
3.011184631E0,9.788454324E-2,-9.866409302E0,1.357991248E-1
3.013184631E0,9.594045579E-2,-9.845512390E0,1.326292008E-1
3.015195568E0,8.166143298E-2,-9.829644203E0,1.161953956E-1
3.017187756E0,7.022672147E-2,-9.822011948E0,9.485826641E-2
3.019184631E0,5.206909776E-2,-9.824578285E0,8.178592473E-2
3.021186193E0,4.584417492E-2,-9.819282532E0,7.207505405E-2
3.023184631E0,3.300167620E-2,-9.814129829E0,3.635355830E-2
3.025206506E0,2.539769188E-2,-9.828666687E0,1.964203082E-2
3.027184631E0,2.443043329E-2,-9.848913193E0,-1.406832878E-2
3.029200256E0,1.634760946E-2,-9.865020752E0,-5.267243460E-2
3.031192443E0,1.867477316E-3,-9.882240295E0,-8.622957021E-2
3.033186193E0,-1.599326730E-3,-9.884001732E0,-1.174020767E-1
3.035206506E0,5.841852166E-3,-9.882987022E0,-1.388445497E-1
3.037195568E0,5.276820622E-3,-9.874789238E0,-1.687624902E-1
3.039187756E0,4.261679016E-3,-9.870162964E0,-1.808388382E-1
3.041208068E0,8.906430448E-4,-9.859782219E0,-1.906550825E-1
3.043186193E0,-1.072602347E-3,-9.842744827E0,-2.012087107E-1
3.045184631E0,-3.256114433E-4,-9.806545258E0,-2.055182755E-1
3.047184631E0,4.405330983E-4,-9.816571236E0,-2.146353871E-1
3.049239318E0,-1.146343816E-2,-9.818794250E0,-2.250166535E-1
3.051184631E0,-2.387497947E-2,-9.824204445E0,-2.291825563E-1
3.053184631E0,-3.265691176E-2,-9.817586899E0,-2.207358181E-1
3.055184631E0,-3.762727231E-2,-9.815231323E0,-2.030474544E-1
3.057192443E0,-6.019023061E-2,-9.838809013E0,-1.864700019E-1
3.059194006E0,-6.568731368E-2,-9.854237556E0,-1.840853691E-1
3.061201818E0,-6.637685001E-2,-9.887574196E0,-1.729858518E-1
3.063201818E0,-7.225700468E-2,-9.919531822E0,-1.608712077E-1
3.065189318E0,-6.039134040E-2,-9.950197220E0,-1.458356231E-1
3.067184631E0,-4.569094628E-2,-9.971381187E0,-1.326675117E-1
3.069184631E0,-4.795107245E-2,-9.996290207E0,-1.117517576E-1
3.071209631E0,-5.747999623E-2,-1.001438046E1,-8.341398835E-2
3.073195568E0,-6.267062575E-2,-1.003788185E1,-5.837063491E-2
3.075195568E0,-7.228573412E-2,-1.003422356E1,-2.991794422E-2
3.077215881E0,-8.751286566E-2,-1.005374146E1,6.014234386E-3
3.079198693E0,-1.054119095E-1,-1.007155514E1,1.844492927E-2
3.081184631E0,-1.258871257E-1,-1.008805466E1,5.301720276E-2
3.083192443E0,-1.492928416E-1,-1.010379028E1,8.146989346E-2
3.085184631E0,-1.626524776E-1,-1.009081364E1,1.038221568E-1
3.087184631E0,-1.639357805E-1,-1.007799911E1,1.310873330E-1
3.089225256E0,-1.807622164E-1,-1.007374668E1,1.380975544E-1
3.091184631E0,-2.183799297E-1,-1.008807468E1,1.535353661E-1
3.093184631E0,-2.332048118E-1,-1.008446407E1,1.580747664E-1
3.095192443E0,-2.594069541E-1,-1.008472252E1,1.746139228E-1
3.097184631E0,-2.915275991E-1,-1.010178852E1,1.781477630E-1
3.099184631E0,-3.187448680E-1,-1.010378075E1,1.949742138E-1
3.101184631E0,-3.378218710E-1,-1.010571480E1,1.896686554E-1
3.103184631E0,-3.535278440E-1,-1.009985352E1,1.898218840E-1
3.105186193E0,-3.488734961E-1,-1.010166359E1,1.879448444E-1
3.107187756E0,-3.516699076E-1,-1.010553360E1,1.660426855E-1
3.109237756E0,-3.412311971E-1,-1.011151886E1,1.563413739E-1
3.111184631E0,-3.442287147E-1,-1.010406780E1,1.453663409E-1
3.113184631E0,-3.454928994E-1,-1.010075378E1,1.345445514E-1
3.115184631E0,-3.387124836E-1,-1.009215450E1,1.227842420E-1
3.117184631E0,-3.151918650E-1,-1.008347797E1,1.262606233E-1
3.119184631E0,-2.862220109E-1,-1.007929230E1,1.174307987E-1
3.121184631E0,-2.891812325E-1,-1.007207108E1,8.644983917E-2
3.123184631E0,-2.801503241E-1,-1.008244324E1,5.968265980E-2
3.125197131E0,-2.684474885E-1,-1.009861851E1,4.474284127E-2
3.127184631E0,-2.587844729E-1,-1.010211468E1,2.388455532E-2
3.129192443E0,-2.502228022E-1,-1.009620476E1,-4.146757070E-3
3.131186193E0,-2.360108346E-1,-1.008593845E1,-2.002510242E-2
3.133197131E0,-2.400618196E-1,-1.008677101E1,-2.891238034E-2
3.135184631E0,-2.520424128E-1,-1.008329487E1,-4.403415695E-2
3.137184631E0,-2.368152738E-1,-1.008875370E1,-4.418738559E-2
3.139198693E0,-2.106610239E-1,-1.007352734E1,-5.306508765E-2
3.141197131E0,-1.981441379E-1,-1.006099129E1,-6.191405654E-2
3.143184631E0,-2.037274241E-1,-1.005278301E1,-1.023185998E-1
3.145194006E0,-2.233885974E-1,-1.006099129E1,-1.233109683E-1
3.147184631E0,-2.149418443E-1,-1.005835724E1,-1.381933242E-1
3.149184631E0,-2.097799480E-1,-1.004471016E1,-1.439298242E-1
3.151184631E0,-2.203814834E-1,-1.002972221E1,-1.670290828E-1
3.153184631E0,-2.187055349E-1,-1.002227116E1,-1.777838469E-1
3.155225256E0,-2.339326590E-1,-1.001864243E1,-1.963724196E-1
3.157198693E0,-2.508261502E-1,-1.001435184E1,-2.126721442E-1
3.159184631E0,-2.632089555E-1,-1.001530933E1,-2.300540507E-1
3.161195568E0,-2.819124758E-1,-1.000495720E1,-2.396212816E-1
3.163189318E0,-2.971683145E-1,-9.982624054E0,-2.552027404E-1
3.165184631E0,-2.947932780E-1,-9.952887535E0,-2.640900314E-1
3.167184631E0,-2.860592008E-1,-9.925527573E0,-2.850728035E-1
3.169184631E0,-2.967948318E-1,-9.904065132E0,-2.970055342E-1
3.171184631E0,-3.070994616E-1,-9.880698204E0,-3.097618222E-1
3.173184631E0,-3.265595436E-1,-9.867548943E0,-3.586418331E-1
3.175194006E0,-3.275842667E-1,-9.850856781E0,-3.840012252E-1
3.177195568E0,-3.297677636E-1,-9.852408409E0,-3.741562366E-1
3.179184631E0,-3.298252225E-1,-9.852101326E0,-3.793373108E-1
3.181184631E0,-3.410109282E-1,-9.874645233E0,-3.867881000E-1
3.183184631E0,-3.578565419E-1,-9.886377335E0,-3.904559910E-1
3.185184631E0,-3.629035056E-1,-9.890552521E0,-4.013735354E-1
3.187190881E0,-3.689560592E-1,-9.914581299E0,-4.063822329E-1
3.189192443E0,-3.746063709E-1,-9.934126854E0,-4.074643850E-1
3.191194006E0,-3.808504641E-1,-9.924732208E0,-3.956179023E-1
3.193184631E0,-3.810802996E-1,-9.920738220E0,-3.751714230E-1
3.195184631E0,-3.896036744E-1,-9.931915283E0,-3.556155562E-1
3.197184631E0,-4.104810655E-1,-9.946337700E0,-3.289058506E-1
3.199234631E0,-4.145608246E-1,-9.961392403E0,-3.163889647E-1
3.201217443E0,-4.068419337E-1,-9.963719368E0,-3.098863363E-1
3.203186193E0,-4.143980145E-1,-9.962771416E0,-3.031633794E-1
3.205192443E0,-4.149630368E-1,-9.939107895E0,-2.980876863E-1
3.207184631E0,-4.290696681E-1,-9.915691376E0,-2.793171406E-1
3.209184631E0,-4.365299940E-1,-9.857837677E0,-2.618777752E-1
3.211184631E0,-4.472943544E-1,-9.858574867E0,-2.661298811E-1
3.213184631E0,-4.429368973E-1,-9.864886284E0,-2.351106107E-1
3.215184631E0,-4.364534020E-1,-9.885476112E0,-2.197781354E-1
3.217184631E0,-4.272788167E-1,-9.914676666E0,-2.177382857E-1
3.219228381E0,-4.275661111E-1,-9.932077408E0,-2.325057238E-1
3.221186193E0,-4.249708056E-1,-9.935544014E0,-2.290101796E-1
3.223220568E0,-4.184968770E-1,-9.945150375E0,-2.095213830E-1
3.225203381E0,-4.118984640E-1,-9.954870224E0,-2.007202953E-1
3.227190881E0,-4.225766063E-1,-9.948003769E0,-2.020993531E-1
3.229223693E0,-4.212454259E-1,-9.953835487E0,-1.921586245E-1
3.231187756E0,-4.231895208E-1,-9.953586578E0,-1.839608699E-1
3.233186193E0,-4.322491884E-1,-9.970375061E0,-1.681304127E-1
3.235184631E0,-4.158632457E-1,-9.976801872E0,-1.617522687E-1
3.237184631E0,-3.976864815E-1,-9.974321365E0,-1.621449143E-1
3.239184631E0,-3.994103074E-1,-9.964331627E0,-1.645103842E-1
3.241184631E0,-4.028005004E-1,-9.947247505E0,-1.605838984E-1
3.243194006E0,-4.063822329E-1,-9.957427979E0,-1.381262839E-1
3.245184631E0,-3.960392773E-1,-9.970145226E0,-1.434701383E-1
3.247184631E0,-4.033271968E-1,-9.985066414E0,-1.300530434E-1
3.249184631E0,-4.044189751E-1,-9.991922379E0,-1.249102950E-1
3.251190881E0,-4.032697380E-1,-1.000714016E1,-1.180341393E-1
3.253201818E0,-3.863666952E-1,-1.001711082E1,-9.878475964E-2
3.255214318E0,-3.779678345E-1,-1.002089214E1,-9.111373872E-2
3.257187756E0,-3.707086146E-1,-1.002603626E1,-8.141243458E-2
3.259231506E0,-3.712640703E-1,-1.001232147E1,-6.681738049E-2
3.261201818E0,-3.836085796E-1,-1.002303791E1,-5.389827117E-2
3.263194006E0,-3.960584104E-1,-1.002638054E1,-3.800076991E-2
3.265190881E0,-4.062768817E-1,-1.004124355E1,-2.248634212E-2
3.267184631E0,-4.333983660E-1,-1.007195568E1,-3.256114200E-3
3.269184631E0,-4.276331365E-1,-1.004653072E1,-4.788403457E-4
3.271184631E0,-4.227106571E-1,-1.002924442E1,-1.244984916E-3
3.273184631E0,-4.350743294E-1,-1.002243423E1,1.555273402E-2
3.275184631E0,-4.439424574E-1,-1.002281761E1,3.525222465E-2
3.277184631E0,-4.617074132E-1,-1.003832245E1,2.782062255E-2
3.279228381E0,-4.929374158E-1,-1.002806664E1,4.663905129E-3
3.281190881E0,-5.175785422E-1,-1.001989651E1,-3.658340313E-3
3.283184631E0,-5.233246088E-1,-1.001766491E1,-7.603984792E-3
3.285229943E0,-5.512410402E-1,-1.001664066E1,-1.675941236E-2
3.287187756E0,-5.794925690E-1,-1.002758694E1,-1.403002162E-2
3.289184631E0,-6.102820635E-1,-1.004306316E1,-3.511814773E-2
3.291190881E0,-6.320405006E-1,-1.005260181E1,-5.237555876E-2
3.293192443E0,-6.681833863E-1,-1.006204510E1,-7.044699043E-2
3.295184631E0,-6.818016171E-1,-1.005550385E1,-7.147171348E-2
3.297190881E0,-7.016638517E-1,-1.004791927E1,-8.700528741E-2
3.299184631E0,-7.249929905E-1,-1.004103279E1,-1.157069802E-1
3.301194006E0,-7.368586659E-1,-1.004633904E1,-1.047032326E-1
3.303184631E0,-7.555334568E-1,-1.005069637E1,-1.023664847E-1
3.305184631E0,-7.533307672E-1,-1.004089832E1,-9.521261603E-2
3.307226818E0,-7.519421577E-1,-1.001949501E1,-8.991663903E-2
3.309198693E0,-6.724929214E-1,-9.886510849E0,-8.527188748E-2
3.311195568E0,-6.895779967E-1,-9.848127365E0,-7.696879655E-2
3.313184631E0,-7.396646738E-1,-9.848548889E0,-1.003840864E-1
3.315197131E0,-7.752137780E-1,-9.870134354E0,-1.019451097E-1
3.317197131E0,-8.069608808E-1,-9.914465904E0,-1.147109941E-1
3.319184631E0,-8.366681337E-1,-9.944747925E0,-1.198441610E-1
3.321184631E0,-8.336514235E-1,-9.954803467E0,-1.427710354E-1
3.323184631E0,-8.227051497E-1,-9.965443611E0,-1.648647338E-1
3.325184631E0,-8.172463775E-1,-9.949651718E0,-1.683123708E-1
3.327194006E0,-7.993569374E-1,-9.929396629E0,-1.649604887E-1
3.329226818E0,-7.657902241E-1,-9.914445877E0,-1.536885947E-1
3.331184631E0,-7.110108733E-1,-9.884078979E0,-1.602104008E-1
3.333184631E0,-6.920391917E-1,-9.891481400E0,-1.485075355E-1
3.335184631E0,-6.704818010E-1,-9.869636536E0,-1.336539090E-1
3.337184631E0,-6.527934670E-1,-9.862129211E0,-1.221809015E-1
3.339197131E0,-6.406213641E-1,-9.865921021E0,-1.121060997E-1
3.341184631E0,-6.238140464E-1,-9.872261047E0,-9.679278731E-2
3.343184631E0,-5.968074203E-1,-9.881971359E0,-6.326438487E-2
3.345184631E0,-5.871348977E-1,-9.886510849E0,-6.147352234E-2
3.347187756E0,-5.861867666E-1,-9.885209084E0,-7.103117555E-2
3.349229943E0,-5.817239881E-1,-9.863632202E0,-7.429686934E-2
3.351189318E0,-6.001880765E-1,-9.859130859E0,-6.240247190E-2
3.353184631E0,-6.107225418E-1,-9.848252296E0,-5.649358407E-2
3.355187756E0,-5.969511271E-1,-9.863124847E0,-4.426399991E-2
3.357217443E0,-5.876902938E-1,-9.882708549E0,-2.896984108E-2
3.359198693E0,-5.706819296E-1,-9.877901077E0,-3.013820946E-2
3.361187756E0,-5.602623224E-1,-9.882230759E0,-3.762727231E-2
3.363204943E0,-5.537692904E-1,-9.901192665E0,-2.879745886E-2
3.365200256E0,-5.575042367E-1,-9.931110382E0,-1.642422378E-2
3.367197131E0,-5.766099691E-1,-9.949631691E0,-2.204580791E-2
3.369194006E0,-5.945856571E-1,-9.989710808E0,-1.897165552E-2
3.371184631E0,-5.814366341E-1,-9.993034363E0,-1.722867601E-2
3.373200256E0,-5.680195689E-1,-9.999076843E0,-2.385582589E-2
3.375184631E0,-5.801438093E-1,-9.996500969E0,-2.668098360E-2
3.377184631E0,-5.748382807E-1,-9.998951912E0,-2.017833106E-2
3.379197131E0,-5.873072743E-1,-1.001659298E1,-1.361821964E-2
3.381184631E0,-6.065949798E-1,-1.002472401E1,-1.671152934E-2
3.383184631E0,-5.904580355E-1,-1.003254795E1,-2.684378996E-2
3.385186193E0,-6.103682518E-1,-1.003617764E1,-1.713290811E-2
3.387200256E0,-6.188532710E-1,-1.002935886E1,-1.413536631E-2
3.389184631E0,-6.209985018E-1,-1.002647686E1,-2.329079434E-2
3.391197131E0,-6.259688139E-1,-1.002889919E1,-1.764047891E-2
3.393184631E0,-6.224541664E-1,-1.003977871E1,-1.025675982E-2
3.395184631E0,-6.270797253E-1,-1.005688286E1,-4.922478460E-3
3.397184631E0,-6.308051348E-1,-1.006123066E1,-2.704490349E-2
3.399184631E0,-6.271659136E-1,-1.005305195E1,-4.691677541E-2
3.401184631E0,-6.241492033E-1,-1.004241180E1,-4.663905129E-2
3.403197131E0,-6.324139833E-1,-1.004316902E1,-4.600698128E-2
3.405211193E0,-6.362925768E-1,-1.005085850E1,-4.363192990E-2
3.407186193E0,-6.379973292E-1,-1.004144478E1,-4.840118065E-2
3.409198693E0,-6.539714336E-1,-1.003071880E1,-4.806599393E-2
3.411184631E0,-6.828742027E-1,-1.004400158E1,-3.785711527E-2
3.413184631E0,-7.132039666E-1,-1.006086636E1,-4.784572497E-2
3.415184631E0,-7.352784872E-1,-1.007393837E1,-3.944686800E-2
3.417184631E0,-7.693144679E-1,-1.007980919E1,-4.066311941E-2
3.419184631E0,-7.948749661E-1,-1.009017181E1,-2.197877131E-2
3.421194006E0,-8.087804914E-1,-1.009286213E1,-4.865017720E-3
3.423184631E0,-8.042027354E-1,-1.009723949E1,-3.055001143E-3
3.425184631E0,-8.162025213E-1,-1.010763931E1,1.269884594E-2
3.427184631E0,-8.244960308E-1,-1.011122131E1,2.497631311E-2
3.429184631E0,-8.333067298E-1,-1.011893082E1,1.916319132E-2
3.431186193E0,-8.620658517E-1,-1.011225605E1,6.167463958E-3
3.433184631E0,-8.675820827E-1,-1.010388565E1,-7.824251428E-3
3.435192443E0,-8.851363659E-1,-1.009909630E1,-1.425986551E-2
3.437200256E0,-8.927211761E-1,-1.010123253E1,-2.882618830E-2
3.439184631E0,-9.089443088E-1,-1.008297920E1,-3.865199164E-2
3.441184631E0,-9.391974211E-1,-1.007694626E1,-4.096000269E-2
3.443183068E0,-9.554396868E-1,-1.007911968E1,-3.771346807E-2
3.445190881E0,-9.723427892E-1,-1.007857418E1,-4.678269848E-2
3.447184631E0,-9.909888506E-1,-1.008489418E1,-3.815399855E-2
3.449184631E0,-9.908738732E-1,-1.008273983E1,-2.997540496E-2
3.451214318E0,-9.876943827E-1,-1.007531834E1,-2.898899466E-2
3.453195568E0,-9.795062542E-1,-1.006461143E1,-4.432146251E-2
3.455184631E0,-9.937278032E-1,-1.006241798E1,-4.435019195E-2
3.457184631E0,-1.001551986E0,-1.006512833E1,-4.550898820E-2
3.459195568E0,-9.927700758E-1,-1.006164265E1,-5.802587047E-2
3.461186193E0,-9.739229679E-1,-1.005876923E1,-6.526593864E-2
3.463184631E0,-9.499138594E-1,-1.006794357E1,-7.438305765E-2
3.465194006E0,-9.550374746E-1,-1.008087254E1,-8.042602241E-2
3.467261193E0,-9.599311948E-1,-1.008205986E1,-9.316317737E-2
3.469184631E0,-9.471940994E-1,-1.008975983E1,-1.078923047E-1
3.471184631E0,-9.405477643E-1,-1.008718395E1,-1.129967421E-1
3.473184631E0,-9.367074370E-1,-1.009383011E1,-1.106025428E-1
3.475184631E0,-9.290172458E-1,-1.010267830E1,-9.031886607E-2
3.477190881E0,-9.278298020E-1,-1.010480499E1,-8.630618453E-2
3.479184631E0,-9.303197861E-1,-1.008239555E1,-8.024406433E-2
3.481184631E0,-9.251386523E-1,-1.005426884E1,-7.553227246E-2
3.483184631E0,-9.294673800E-1,-1.005628872E1,-8.717767149E-2
3.485184631E0,-9.282990098E-1,-1.005026436E1,-9.751104563E-2
3.487184631E0,-9.069810510E-1,-1.003636932E1,-9.538499266E-2
3.489184631E0,-8.714223504E-1,-1.002373695E1,-9.440816194E-2
3.491184631E0,-8.658678532E-1,-1.001919842E1,-9.861238301E-2
3.493184631E0,-8.718533516E-1,-1.001900578E1,-8.583692461E-2
3.495184631E0,-8.700146079E-1,-1.000739002E1,-8.790551126E-2
3.497184631E0,-8.639141917E-1,-1.000993729E1,-9.049125016E-2
3.499184631E0,-8.714798689E-1,-1.000007343E1,-1.073081195E-1
3.501184631E0,-8.561952710E-1,-9.963020325E0,-1.584003866E-1
3.503184631E0,-8.388899565E-1,-9.963365555E0,-1.804078817E-1
3.505231506E0,-8.169399500E-1,-9.964715958E0,-1.816720217E-1
3.507184631E0,-8.067119122E-1,-9.964695930E0,-2.009214014E-1
3.509195568E0,-7.988206148E-1,-9.962273598E0,-2.051447779E-1
3.511195568E0,-7.998836040E-1,-9.960109711E0,-2.094160318E-1
3.513190881E0,-7.735282779E-1,-9.963010788E0,-2.016971260E-1
3.515184631E0,-7.488487959E-1,-9.956919670E0,-1.907604188E-1
3.517186193E0,-7.392815948E-1,-9.971696854E0,-1.833383888E-1
3.519198693E0,-7.240640521E-1,-9.994958878E0,-1.647210717E-1
3.521184631E0,-7.182700634E-1,-1.000883579E1,-1.738477796E-1
3.523200256E0,-7.086549401E-1,-1.000658512E1,-1.672780961E-1
3.525197131E0,-6.879882216E-1,-9.988541603E0,-1.770081222E-1
3.527187756E0,-6.839276552E-1,-9.986608505E0,-1.957690865E-1
3.529184631E0,-6.711522341E-1,-9.995763779E0,-2.016971260E-1
3.531190881E0,-6.526402831E-1,-9.996136665E0,-1.991975904E-1
3.533186193E0,-6.423547268E-1,-9.999038696E0,-2.036124915E-1
3.535198693E0,-6.224828362E-1,-9.993963242E0,-1.972630620E-1
3.537184631E0,-6.128869057E-1,-1.000012112E1,-1.964394748E-1
3.539194006E0,-6.327300668E-1,-1.000124168E1,-1.934993714E-1
3.541186193E0,-6.503609419E-1,-1.003260517E1,-1.944762170E-1
3.543184631E0,-6.333525181E-1,-1.004692268E1,-1.982494742E-1
3.545184631E0,-6.156258583E-1,-1.004046822E1,-2.119060010E-1
3.547253381E0,-5.889353156E-1,-1.004740143E1,-2.031049132E-1
3.549184631E0,-5.713906288E-1,-1.004726791E1,-1.865178794E-1
3.551184631E0,-5.599654317E-1,-1.004828262E1,-1.830414981E-1
3.553184631E0,-5.529169440E-1,-1.002127647E1,-1.971672922E-1
3.555184631E0,-5.728462338E-1,-9.992650986E0,-2.107280642E-1
3.557184631E0,-5.914157033E-1,-9.987843513E0,-2.113122344E-1
3.559187756E0,-6.023141146E-1,-9.987910271E0,-1.867285818E-1
3.561184631E0,-5.928139091E-1,-9.986071587E0,-1.747575700E-1
3.563190881E0,-5.797895193E-1,-1.000441074E1,-1.651041508E-1
3.565184631E0,-5.674161911E-1,-1.002065372E1,-1.620108336E-1
3.567209631E0,-5.430528522E-1,-1.002593899E1,-1.841045320E-1
3.569184631E0,-5.537980199E-1,-1.001945591E1,-1.845259070E-1
3.571184631E0,-5.701647997E-1,-1.002479076E1,-1.781286001E-1
3.573184631E0,-5.740146637E-1,-1.002729988E1,-1.764430851E-1
3.575187756E0,-5.840989947E-1,-1.003489494E1,-1.563796848E-1
3.577184631E0,-5.792723298E-1,-1.004027653E1,-1.469082236E-1
3.579184631E0,-5.616413951E-1,-1.003522968E1,-1.346786320E-1
3.581187756E0,-5.619862080E-1,-1.002796936E1,-1.149887145E-1
3.583184631E0,-5.693603158E-1,-1.002078724E1,-9.395805001E-2
3.585184631E0,-5.604634285E-1,-1.000516796E1,-9.879434109E-2
3.587184631E0,-5.676652193E-1,-1.001062679E1,-9.064447880E-2
3.589184631E0,-5.564220548E-1,-1.002929211E1,-7.983226329E-2
3.591194006E0,-5.344911218E-1,-1.004227829E1,-7.117483020E-2
3.593204943E0,-5.220029950E-1,-1.003187752E1,-7.858727872E-2
3.595184631E0,-5.192831755E-1,-1.003295040E1,-7.891288400E-2
3.597184631E0,-4.963467419E-1,-1.002564240E1,-5.631162226E-2
3.599184631E0,-4.846247137E-1,-1.002004147E1,-3.484999761E-2
3.601184631E0,-4.943068922E-1,-1.000607681E1,-4.264551774E-2
3.603184631E0,-4.864538908E-1,-1.001048374E1,-2.731305361E-2
3.605184631E0,-4.763695300E-1,-9.988991737E0,-3.483084589E-2
3.607195568E0,-4.688996375E-1,-9.966362000E0,-3.428496793E-2
3.609184631E0,-4.716577530E-1,-9.951508522E0,-3.467761725E-2
3.611187756E0,-4.875456691E-1,-9.934960365E0,-3.217807040E-2
3.613187756E0,-5.001295805E-1,-9.922701836E0,-4.352658987E-2
3.615187756E0,-5.133551359E-1,-9.905416489E0,-5.647442862E-2
3.617184631E0,-5.261880755E-1,-9.878945351E0,-7.225700468E-2
3.619197131E0,-5.348072052E-1,-9.871638298E0,-8.766609430E-2
3.621186193E0,-5.567093492E-1,-9.897859573E0,-9.156385064E-2
3.623184631E0,-5.511931181E-1,-9.921495438E0,-1.059099063E-1
3.625184631E0,-5.425069332E-1,-9.920259476E0,-1.414207071E-1
3.627186193E0,-5.547269583E-1,-9.899784088E0,-1.523574293E-1
3.629184631E0,-5.445180535E-1,-9.883782387E0,-1.574905813E-1
3.631189318E0,-5.411565900E-1,-9.873984337E0,-1.648360044E-1
3.633183068E0,-5.422962904E-1,-9.889623642E0,-1.555369198E-1
3.635228381E0,-5.668511987E-1,-9.910759926E0,-1.570596248E-1
3.637189318E0,-5.732484460E-1,-9.931617737E0,-1.618863344E-1
3.639184631E0,-5.704520941E-1,-9.931359291E0,-1.689348817E-1
3.641184631E0,-5.555122495E-1,-9.908173561E0,-1.879256815E-1
3.643231506E0,-5.464909077E-1,-9.889231682E0,-2.046850920E-1
3.645186193E0,-5.435508490E-1,-9.874176025E0,-2.041583657E-1
3.647184631E0,-5.319533348E-1,-9.888876915E0,-1.977227479E-1
3.649187756E0,-5.191395283E-1,-9.895388603E0,-2.036795169E-1
3.651197131E0,-5.155673623E-1,-9.874329567E0,-2.019365579E-1
3.653189318E0,-4.839256406E-1,-9.858642578E0,-1.942080706E-1
3.655197131E0,-4.691869318E-1,-9.855702400E0,-1.675653905E-1
3.657184631E0,-4.698956013E-1,-9.852226257E0,-1.398405284E-1
3.659184631E0,-4.792042673E-1,-9.852676392E0,-1.169328094E-1
3.661184631E0,-4.906294048E-1,-9.856698036E0,-1.164922789E-1
3.663184631E0,-5.191012621E-1,-9.905971527E0,-7.516835630E-2
3.665184631E0,-5.015852451E-1,-9.870059013E0,-6.555324793E-2
3.667184631E0,-4.860900044E-1,-9.840236664E0,-7.064810395E-2
3.669184631E0,-4.833414257E-1,-9.834088326E0,-5.279693753E-2
3.671184631E0,-4.737167358E-1,-9.837306023E0,-3.055001423E-2
3.673186193E0,-4.720886946E-1,-9.852456093E0,-2.164358273E-2
3.675194006E0,-4.782848954E-1,-9.881109238E0,-8.283937350E-3
3.677184631E0,-4.854962230E-1,-9.883695602E0,-2.499546623E-3
3.679189318E0,-5.013266802E-1,-9.904477119E0,-9.069235995E-3
3.681184631E0,-5.167070031E-1,-9.896327019E0,-3.969586641E-2
3.683184631E0,-5.263509154E-1,-9.905367851E0,-5.882074684E-2
3.685184631E0,-5.134221911E-1,-9.911075592E0,-7.925765216E-2
3.687184631E0,-4.960402846E-1,-9.912425995E0,-1.045021117E-1
3.689184631E0,-4.959636927E-1,-9.887344360E0,-1.501068771E-1
3.691184631E0,-5.035485029E-1,-9.861276627E0,-1.692125946E-1
3.693184631E0,-5.010297894E-1,-9.867558479E0,-1.746139228E-1
3.695184631E0,-4.958774745E-1,-9.854888916E0,-1.932982653E-1
3.697190881E0,-4.926979542E-1,-9.854476929E0,-2.024058104E-1
3.699194006E0,-5.050520897E-1,-9.859849930E0,-2.033156157E-1
3.701184631E0,-5.255751610E-1,-9.873534203E0,-1.916127503E-1
3.703197131E0,-5.347784162E-1,-9.872816086E0,-1.812889576E-1
3.705184631E0,-5.501204729E-1,-9.878409386E0,-1.649030298E-1
3.707184631E0,-5.597451925E-1,-9.906325340E0,-1.502696723E-1
3.709184631E0,-5.585193634E-1,-9.945342064E0,-1.289038211E-1
3.711194006E0,-5.650315881E-1,-9.973506927E0,-1.156399399E-1
3.713184631E0,-5.838692188E-1,-9.951546669E0,-1.154675633E-1
3.715184631E0,-6.340804100E-1,-9.919493675E0,-8.690952510E-2
3.717184631E0,-6.118429899E-1,-9.921773911E0,-5.854301900E-2
3.719187756E0,-5.892992616E-1,-9.946461678E0,-7.015968114E-2
3.721184631E0,-5.730378628E-1,-1.001296329E1,-7.991845161E-2
3.723195568E0,-5.376418829E-1,-1.006643105E1,-7.648037374E-2
3.725228381E0,-5.249335170E-1,-1.010163498E1,-7.228573412E-2
3.727194006E0,-5.257954001E-1,-1.014517117E1,-7.482359558E-2
3.729184631E0,-5.302965045E-1,-1.017282867E1,-8.192957938E-2
3.731184631E0,-5.646485090E-1,-1.019995022E1,-8.224561065E-2
3.733194006E0,-5.685654283E-1,-1.021818447E1,-7.903738320E-2
3.735187756E0,-5.623021722E-1,-1.024229908E1,-8.350975811E-2
3.737184631E0,-5.448340774E-1,-1.026860619E1,-9.232999384E-2
3.739189318E0,-5.280651450E-1,-1.029356384E1,-8.827900887E-2
3.741198693E0,-5.020257831E-1,-1.029456902E1,-8.608591557E-2
3.743215881E0,-4.978024364E-1,-1.031561947E1,-8.186253905E-2
3.745195568E0,-4.876892865E-1,-1.033389187E1,-6.931692362E-2
3.747183068E0,-4.777294397E-1,-1.037651730E1,-7.433517277E-2
3.749184631E0,-4.714087546E-1,-1.039739513E1,-8.738835901E-2
3.751186193E0,-4.382250905E-1,-1.040001011E1,-8.001422137E-2
3.753197131E0,-4.126933217E-1,-1.041711426E1,-7.523539662E-2
3.755187756E0,-3.792223930E-1,-1.044593048E1,-7.465120405E-2
3.757184631E0,-3.649050593E-1,-1.045257759E1,-8.567410707E-2
3.759184631E0,-3.350924551E-1,-1.042587662E1,-1.053927615E-1
3.761184631E0,-3.282163143E-1,-1.040544033E1,-1.291624010E-1
3.763197131E0,-3.221541941E-1,-1.037990856E1,-1.442841589E-1
3.765184631E0,-3.010564744E-1,-1.037739944E1,-1.437957585E-1
3.767184631E0,-2.818454206E-1,-1.036029530E1,-1.503079832E-1
3.769186193E0,-2.530479729E-1,-1.032887268E1,-1.590228677E-1
3.771184631E0,-2.171732485E-1,-1.031651020E1,-1.616277546E-1
3.773184631E0,-1.957403570E-1,-1.030055428E1,-1.687241793E-1
3.775184631E0,-1.801301539E-1,-1.028929329E1,-1.876096427E-1
3.777184631E0,-1.775635630E-1,-1.026851082E1,-1.884428263E-1
3.779242443E0,-1.894196570E-1,-1.022962856E1,-1.854835898E-1
3.781194006E0,-1.785882860E-1,-1.016995621E1,-1.800726950E-1
3.783184631E0,-1.627003700E-1,-1.015933514E1,-1.875904799E-1
3.785184631E0,-1.415068954E-1,-1.018546104E1,-1.787702441E-1
3.787184631E0,-1.415547729E-1,-1.019540119E1,-1.982877851E-1
3.789184631E0,-1.396968812E-1,-1.021285057E1,-2.212721258E-1
3.791225256E0,-1.270267665E-1,-1.022824955E1,-2.252177596E-1
3.793236193E0,-1.223915964E-1,-1.023831558E1,-2.391999066E-1
3.795231506E0,-9.896671772E-2,-1.023223305E1,-2.568499446E-1
3.797197131E0,-9.820057452E-2,-1.021577168E1,-2.425805181E-1
3.799184631E0,-1.020217240E-1,-1.020860767E1,-2.402150482E-1
3.801184631E0,-9.413043410E-2,-1.019346714E1,-2.547717988E-1
3.803184631E0,-1.110239178E-1,-1.017949390E1,-2.630940378E-1
3.805184631E0,-1.296125054E-1,-1.016834641E1,-2.557677627E-1
3.807184631E0,-1.294305474E-1,-1.015775490E1,-2.431934327E-1
3.809195568E0,-1.474923939E-1,-1.016965961E1,-2.190886140E-1
3.811184631E0,-1.781190336E-1,-1.017927456E1,-2.053458840E-1
3.813184631E0,-1.909327954E-1,-1.018962669E1,-2.114080042E-1
3.815184631E0,-1.973013729E-1,-1.019185829E1,-2.167805880E-1
3.817237756E0,-2.137351632E-1,-1.018517399E1,-2.134574503E-1
3.819184631E0,-2.460951954E-1,-1.018995190E1,-2.090616971E-1
3.821192443E0,-2.650668621E-1,-1.020621395E1,-2.128253728E-1
3.823197131E0,-2.868062258E-1,-1.020569611E1,-2.135436386E-1
3.825184631E0,-3.174136877E-1,-1.021001530E1,-2.098852992E-1
3.827204943E0,-3.359352350E-1,-1.021437263E1,-2.075581402E-1
3.829184631E0,-3.442095816E-1,-1.019586086E1,-2.066579163E-1
3.831184631E0,-4.418355823E-1,-1.014786243E1,-2.053650469E-1
3.833184631E0,-4.809472263E-1,-1.013077736E1,-2.068686038E-1
3.835184631E0,-4.936748147E-1,-1.012866116E1,-2.017545998E-1
3.837184631E0,-5.058947802E-1,-1.013241482E1,-1.892472804E-1
3.839184631E0,-5.238130689E-1,-1.014198208E1,-1.828499734E-1
3.841195568E0,-5.242726803E-1,-1.014684677E1,-1.722963303E-1
3.843190881E0,-5.414630771E-1,-1.015177917E1,-1.719611287E-1
3.845190881E0,-5.339835882E-1,-1.014781475E1,-1.841140985E-1
3.847189318E0,-5.472761989E-1,-1.015536976E1,-1.853016317E-1
3.849194006E0,-5.404000282E-1,-1.015462303E1,-1.825243682E-1
3.851192443E0,-5.347976089E-1,-1.014637756E1,-1.719036847E-1
3.853184631E0,-5.413289666E-1,-1.014394569E1,-1.695765257E-1
3.855184631E0,-5.365501642E-1,-1.014113998E1,-1.672110409E-1
3.857192443E0,-5.349412560E-1,-1.013818932E1,-1.716163754E-1
3.859187756E0,-5.363873839E-1,-1.014932728E1,-1.725070179E-1
3.861184631E0,-5.356212258E-1,-1.015215206E1,-1.718749553E-1
3.863236193E0,-5.243110061E-1,-1.015639591E1,-1.584770083E-1
3.865184631E0,-5.131827593E-1,-1.015107059E1,-1.567435861E-1
3.867184631E0,-5.174157023E-1,-1.013432980E1,-1.504037529E-1
3.869184631E0,-5.066035390E-1,-1.013065243E1,-1.406354010E-1
3.871184631E0,-4.924202561E-1,-1.011596203E1,-1.397735029E-1
3.873184631E0,-4.825082719E-1,-1.010336781E1,-1.371015608E-1
3.875187756E0,-4.775379002E-1,-1.008116055E1,-1.371973306E-1
3.877184631E0,-4.852663875E-1,-1.005982208E1,-1.345828772E-1
3.879184631E0,-5.090456009E-1,-1.003406048E1,-1.328207403E-1
3.881184631E0,-5.168793797E-1,-1.001540565E1,-1.375612468E-1
3.883184631E0,-5.068812370E-1,-1.001286697E1,-1.493503004E-1
3.885186193E0,-4.903420806E-1,-1.002163029E1,-1.581992656E-1
3.887189318E0,-4.708628654E-1,-1.002182198E1,-1.766920984E-1
3.889200256E0,-4.706330299E-1,-1.001397896E1,-1.865370423E-1
3.891190881E0,-4.764174223E-1,-1.000645161E1,-1.719132513E-1
3.893184631E0,-4.738891423E-1,-9.997515678E0,-1.680059135E-1
3.895194006E0,-4.706234336E-1,-1.001144028E1,-1.683698446E-1
3.897212756E0,-4.870380759E-1,-1.002140045E1,-1.591282189E-1
3.899201818E0,-4.847588241E-1,-1.001455307E1,-1.521850377E-1
3.901190881E0,-4.813398719E-1,-1.002143860E1,-1.391701549E-1
3.903187756E0,-4.725483656E-1,-1.001162243E1,-1.367280781E-1
3.905201818E0,-4.724909067E-1,-1.000680542E1,-1.262223125E-1
3.907184631E0,-4.639867246E-1,-1.001340389E1,-1.124604419E-1
3.909204943E0,-4.634791613E-1,-1.000631714E1,-1.031996682E-1
3.911189318E0,-4.644655585E-1,-1.000844383E1,-9.759723395E-2
3.913184631E0,-4.792329967E-1,-1.000824261E1,-9.522219002E-2
3.915184631E0,-4.878329337E-1,-1.000025463E1,-9.560526162E-2
3.917184631E0,-5.073409081E-1,-1.001547241E1,-9.639056027E-2
3.919189318E0,-5.262359381E-1,-1.002293301E1,-8.254249394E-2
3.921184631E0,-5.305359364E-1,-1.000839520E1,-8.606676757E-2
3.923194006E0,-5.297411084E-1,-1.002268314E1,-7.534073293E-2
3.925197131E0,-5.328535438E-1,-1.002938747E1,-8.605717868E-2
3.927184631E0,-5.385517478E-1,-1.003425312E1,-7.520666718E-2
3.929184631E0,-5.440009236E-1,-1.003456879E1,-7.244853675E-2
3.931189318E0,-5.418461561E-1,-1.005165291E1,-6.371449679E-2
3.933197131E0,-5.390401483E-1,-1.006523323E1,-6.071695313E-2
3.935197131E0,-5.550717115E-1,-1.007884216E1,-5.638823658E-2
3.937184631E0,-5.821836591E-1,-1.009381008E1,-4.203260317E-2
3.939204943E0,-5.928905010E-1,-1.010349274E1,-5.102522671E-2
3.941184631E0,-6.189777851E-1,-1.009321690E1,-5.636908486E-2
3.943184631E0,-6.308625340E-1,-1.009516144E1,-5.730761215E-2
3.945184631E0,-6.356126666E-1,-1.008989334E1,-5.967308581E-2
3.947189318E0,-6.097457409E-1,-1.012130547E1,-6.391561031E-2
3.949184631E0,-5.850375295E-1,-1.013939667E1,-7.849150896E-2
3.951186193E0,-5.794830322E-1,-1.014974880E1,-7.710287720E-2
3.953184631E0,-5.857366323E-1,-1.016019726E1,-8.095274866E-2
3.955184631E0,-5.779123902E-1,-1.015998650E1,-8.870995790E-2
3.957190881E0,-5.728558302E-1,-1.015106010E1,-8.629661053E-2
3.959214318E0,-5.751159787E-1,-1.013915730E1,-9.787496179E-2
3.961184631E0,-5.864932537E-1,-1.013494301E1,-1.175648794E-1
3.963189318E0,-5.874509215E-1,-1.013429165E1,-1.288655102E-1
3.965190881E0,-5.935513377E-1,-1.012667847E1,-1.311256438E-1
3.967195568E0,-5.827965736E-1,-1.011654568E1,-1.436712444E-1
3.969197131E0,-5.993356705E-1,-1.010415363E1,-1.533725560E-1
3.971187756E0,-6.241875887E-1,-1.008183002E1,-1.618193090E-1
3.973184631E0,-6.291195750E-1,-1.007266521E1,-1.723825186E-1
3.975189318E0,-6.469420195E-1,-1.005619335E1,-1.777167916E-1
3.977184631E0,-6.723971367E-1,-1.002667809E1,-1.676228493E-1
3.979195568E0,-7.039815187E-1,-9.972185135E0,-1.558625400E-1
3.981190881E0,-6.864559054E-1,-9.971457481E0,-1.629876643E-1
3.983184631E0,-6.638546586E-1,-9.994585037E0,-1.735891998E-1
3.985190881E0,-6.258251667E-1,-1.002430248E1,-1.739243865E-1
3.987197131E0,-5.968457460E-1,-1.004607964E1,-1.877724528E-1
3.989184631E0,-5.795882940E-1,-1.006240845E1,-1.868434995E-1
3.991184631E0,-5.801150799E-1,-1.004985332E1,-1.965735257E-1
3.993184631E0,-5.987610817E-1,-1.006044579E1,-1.772379577E-1
3.995183068E0,-5.972863436E-1,-1.005269718E1,-1.850526482E-1
3.997190881E0,-5.935896635E-1,-1.004542828E1,-1.914116293E-1
3.999184631E0,-5.849417448E-1,-1.003291225E1,-1.978089511E-1
4.001198693E0,-5.826146007E-1,-1.002535534E1,-1.953572780E-1
4.003204943E0,-5.891460180E-1,-1.001068401E1,-1.852729023E-1
4.005186193E0,-5.929480195E-1,-9.997190475E0,-1.833958477E-1
4.007184631E0,-6.022853851E-1,-9.987105370E0,-1.719419807E-1
4.009197131E0,-6.189394593E-1,-9.974981308E0,-1.680346578E-1
4.011184631E0,-6.204813123E-1,-9.966726303E0,-1.616564989E-1
4.013184631E0,-6.158940196E-1,-9.955626488E0,-1.560157686E-1
4.015184631E0,-6.268307567E-1,-9.960606575E0,-1.394478977E-1
4.017184631E0,-6.337835193E-1,-9.966285706E0,-1.320545971E-1
4.019184631E0,-6.314850450E-1,-9.961468697E0,-1.232056171E-1
4.021200256E0,-6.289663911E-1,-9.962205887E0,-1.232918054E-1
4.023184631E0,-6.207782030E-1,-9.958423615E0,-1.148067638E-1
4.025184631E0,-6.247333884E-1,-9.966448784E0,-1.134755835E-1
4.027184631E0,-6.024385691E-1,-9.959850311E0,-1.009108126E-1
4.029212756E0,-6.018352509E-1,-9.962809563E0,-8.629661053E-2
4.031184631E0,-6.000156999E-1,-9.973957062E0,-8.911219239E-2
4.033184631E0,-6.048040986E-1,-9.979625702E0,-1.027591377E-1
4.035184631E0,-6.007339358E-1,-9.990582466E0,-1.031613648E-1
4.037184631E0,-5.858036876E-1,-1.000273514E1,-9.584467858E-2
4.039194006E0,-5.831700563E-1,-1.000809860E1,-9.072109312E-2
4.041184631E0,-5.813600421E-1,-1.002165890E1,-1.042339653E-1
4.043195568E0,-5.913199186E-1,-1.004324532E1,-1.178713366E-1
4.045190881E0,-5.883224010E-1,-1.005890369E1,-1.324089319E-1
4.047189318E0,-5.903526545E-1,-1.006834602E1,-1.385859698E-1
4.049184631E0,-5.759013295E-1,-1.006904507E1,-1.428955346E-1
