"Time (s)","Acceleration x (m/s^2)","Acceleration y (m/s^2)","Acceleration z (m/s^2)"
4.079724650E-1,-3.813963413E0,4.740519524E0,6.352116585E0
4.119494650E-1,-3.813963413E0,4.740519524E0,6.352116585E0
4.159485650E-1,8.427590132E-1,3.229778051E0,8.526051521E0
4.199479450E-1,7.278373241E-1,3.390189648E0,9.474155426E0
4.239474720E-1,6.153098345E-1,3.375824451E0,1.037916374E1
4.279469080E-1,5.482721925E-1,3.308786631E0,9.818920135E0
4.319441000E-1,5.602431893E-1,3.268085241E0,9.641749382E0
4.359435470E-1,7.517793179E-1,3.186682463E0,9.268254280E0
4.399430610E-1,1.043871999E0,3.172317266E0,9.136572838E0
4.439424110E-1,1.024718285E0,3.062183857E0,1.028578949E1
4.479418250E-1,9.768342972E-1,2.973598480E0,1.184202099E1
4.519401090E-1,9.888052940E-1,2.973598480E0,1.135839176E1
4.559396190E-1,7.278373241E-1,2.853888512E0,9.981725693E0
4.599390140E-1,2.657563984E-1,2.700659513E0,9.186851501E0
4.639384520E-1,-2.920926213E-1,2.451662540E0,8.830115318E0
4.679379180E-1,-7.062895298E-1,2.286462545E0,8.957007408E0
4.719383840E-1,-7.278373241E-1,2.286462545E0,8.985737801E0
4.759378500E-1,-5.267243981E-1,2.293645144E0,8.882787704E0
4.799375160E-1,-9.097966552E-2,2.334346771E0,8.602665901E0
4.839369820E-1,5.746084079E-2,2.401384354E0,8.607454300E0
4.879365150E-1,-2.873042040E-2,2.489969730E0,9.007286072E0
4.919359140E-1,-1.580173075E-1,2.525882721E0,9.246706009E0
4.959353800E-1,-3.974374831E-1,2.655169725E0,9.567529678E0
4.999348460E-1,-4.644751251E-1,2.803610086E0,9.615413666E0
5.039344460E-1,-3.303998411E-1,2.944868088E0,9.529222488E0
5.079339120E-1,3.974374831E-1,3.105279684E0,9.332897186E0
5.119333780E-1,4.165911078E-1,3.124433279E0,9.296984673E0
5.159328440E-1,5.003881454E-1,3.241749048E0,9.122207642E0
5.199324440E-1,8.978256583E-1,3.727771997E0,8.758289337E0
5.239319100E-1,8.020575643E-1,3.792415380E0,8.403946877E0
5.279313760E-1,7.757213712E-1,4.122815132E0,7.798214436E0
5.319316090E-1,7.398083210E-1,4.122815132E0,7.714416981E0
5.359311420E-1,9.457096457E-1,4.137180328E0,7.561188221E0
5.399304080E-1,1.391031146E0,4.098873138E0,7.486968040E0
5.439298740E-1,1.745373011E0,4.017470360E0,7.415142059E0
5.479293400E-1,2.315192938E0,3.813963413E0,7.407959461E0
5.519290060E-1,2.504334927E0,3.770867586E0,7.434295654E0
5.559284720E-1,2.662352324E0,3.612850428E0,7.570765018E0
5.599275050E-1,2.382230759E0,3.378218651E0,8.406341553E0
5.639269710E-1,2.130839586E0,3.162740469E0,9.110237122E0
5.679265040E-1,2.434903145E0,2.904166698E0,9.593865395E0
5.719259370E-1,2.528276920E0,2.875436306E0,9.692028046E0
5.759254030E-1,2.755726099E0,2.746149302E0,9.969755173E0
5.799248690E-1,2.920926094E0,2.501940727E0,1.027142429E1
5.839239690E-1,2.853888512E0,2.047042370E0,1.059943008E1
5.879234350E-1,2.451662540E0,1.448492050E0,1.088434029E1
5.919221340E-1,2.360682964E0,1.338358760E0,1.090588760E1
5.959216670E-1,2.161964178E0,1.024718285E0,1.087476349E1
5.999212000E-1,1.891419291E0,8.810662031E-1,1.075265884E1
6.039197660E-1,1.668758631E0,8.116343617E-1,1.072153473E1
6.079192320E-1,1.379060149E0,8.307880163E-1,1.104954052E1
6.119187980E-1,1.340752959E0,8.451532125E-1,1.103517532E1
6.159183300E-1,1.130063176E0,9.217676520E-1,1.092982960E1
6.179185300E-1,1.053448796E0,9.385270476E-1,1.090109921E1
6.219180620E-1,6.320692301E-1,9.816226959E-1,1.089152241E1
6.259175940E-1,3.160346150E-1,1.084573388E0,1.081251431E1
6.299171930E-1,-2.059013397E-1,1.125274777E0,1.061140156E1
6.339165250E-1,-4.812345505E-1,1.206677675E0,1.041747093E1
6.379160570E-1,-6.799532771E-1,1.300051570E0,1.018044472E1
6.419155890E-1,-8.140285611E-1,1.398213744E0,9.941024780E0
6.439158550E-1,-8.547300100E-1,1.448492050E0,9.778219223E0
6.479153870E-1,-8.116343617E-1,1.458068848E0,9.354445457E0
6.519149190E-1,-7.781155705E-1,1.446097851E0,9.263465881E0
6.559144510E-1,-6.679822803E-1,1.417367458E0,8.997709274E0
6.599140500E-1,-5.099649429E-1,1.400607944E0,8.856451035E0
6.639144820E-1,-3.112462163E-1,1.374271750E0,8.820538521E0
6.679140140E-1,2.274491638E-1,1.455674648E0,9.091083527E0
6.719134460E-1,3.495534360E-1,1.493981838E0,9.179668427E0
6.759130460E-1,9.888052940E-1,1.630451322E0,9.450213432E0
6.799125120E-1,1.716642618E0,1.692700624E0,9.620202065E0
6.839119780E-1,2.164358377E0,1.699883223E0,9.708786964E0
6.879111440E-1,2.140416384E0,1.302445769E0,9.512462616E0
6.919119440E-1,2.094926596E0,1.206677675E0,9.342473984E0
6.959114100E-1,1.891419291E0,9.121908545E-1,8.973767281E0
6.999108760E-1,1.525106430E0,6.344634295E-1,8.830115318E0
7.039103420E-1,1.252167463E0,6.440402865E-1,8.660126686E0
7.079098750E-1,1.838746905E0,1.323993564E0,8.842085838E0
7.119093410E-1,1.975216389E0,1.323993564E0,8.842085838E0
7.159088070E-1,1.628057122E0,1.060631394E0,9.433453560E0
7.199082730E-1,1.731007814E0,1.221042871E0,9.534010887E0
7.239078060E-1,1.867477298E0,1.434126854E0,9.924264908E0
7.279072720E-1,2.703053713E0,1.733402014E0,1.049169159E1
7.319067380E-1,2.877830505E0,1.783680320E0,1.054675770E1
7.359062040E-1,3.268085241E0,1.824381709E0,1.077660084E1
7.399057370E-1,3.143586874E0,1.362300754E0,1.082687950E1
7.439052030E-1,3.292027235E0,1.297657371E0,1.104235744E1
7.479049690E-1,3.201047659E0,1.254561663E0,1.140627575E1
7.519034680E-1,3.093308687E0,1.130063176E0,1.137754536E1
7.559030010E-1,2.930502892E0,8.978256583E-1,1.130811405E1
7.599024670E-1,2.789244890E0,7.829039693E-1,1.120037460E1
7.639019330E-1,2.700659513E0,6.344634295E-1,1.106390572E1
7.679014660E-1,2.796427488E0,7.134721279E-1,1.073111153E1
7.719016320E-1,2.796427488E0,7.134721279E-1,1.073111153E1
7.759010980E-1,2.858676910E0,7.996633649E-1,1.049408531E1
7.799005640E-1,3.007117271E0,8.786720037E-1,1.036001015E1
7.839000970E-1,3.248931646E0,1.031900883E0,1.027860737E1
7.878995630E-1,3.732560396E0,1.316810966E0,1.033127975E1
7.918990290E-1,3.792415380E0,1.355118155E0,1.036001015E1
7.958984950E-1,3.971980572E0,1.426944256E0,1.041986465E1
7.998980280E-1,4.101267338E0,1.482010841E0,1.039113426E1
8.038974940E-1,4.074931145E0,1.620874524E0,1.036001015E1
8.078969600E-1,3.725377798E0,1.666364431E0,1.032888508E1
8.118964260E-1,3.663128614E0,1.644816518E0,1.030494308E1
8.158959590E-1,3.488351822E0,1.640028119E0,1.017565632E1
8.198954250E-1,3.203441858E0,1.383848548E0,9.871592522E0
8.238948910E-1,3.059789658E0,1.130063176E0,9.490914345E0
8.278943570E-1,2.470816135E0,4.740519226E-1,8.171710014E0
8.318923230E-1,2.470816135E0,4.740519226E-1,8.171710014E0
8.358917890E-1,2.104503393E0,4.118026793E-1,8.267477989E0
8.398912550E-1,2.047042370E0,5.003881454E-1,8.202834129E0
8.438907210E-1,2.070984364E0,6.655880809E-1,8.095095634E0
8.478903210E-1,2.087743998E0,9.145850539E-1,7.922712803E0
8.518897870E-1,2.085349798E0,9.385270476E-1,7.917924404E0
8.558892530E-1,2.097320795E0,9.864110947E-1,7.920318604E0
8.598887190E-1,2.190694571E0,1.003170490E0,8.028057098E0
8.638882520E-1,2.300827742E0,1.036689281E0,8.310573578E0
8.678879510E-1,2.580949545E0,1.007958889E0,8.514080048E0
8.718869840E-1,2.636016130E0,1.007958889E0,8.545205116E0
8.758864500E-1,2.794033289E0,9.935936928E-1,8.652944565E0
8.798859830E-1,2.999934673E0,1.074996591E0,8.765471458E0
8.838854490E-1,3.177105665E0,1.125274777E0,8.868422508E0
8.878845480E-1,3.394978046E0,1.321599364E0,8.964190483E0
8.918855810E-1,3.394978046E0,1.321599364E0,8.964190483E0
8.958847470E-1,3.277662039E0,1.764526606E0,8.866027832E0
8.998842130E-1,3.292027235E0,1.699883223E0,8.901941299E0
9.038836790E-1,3.165134668E0,1.254561663E0,8.765471458E0
9.078831450E-1,3.215412855E0,9.002198577E-1,8.770259857E0
9.118826780E-1,3.244143248E0,8.619126081E-1,8.777442932E0
9.158821440E-1,3.208230257E0,6.967126727E-1,8.729558945E0
9.198816100E-1,3.148375273E0,5.482721925E-1,8.662521362E0
9.238811430E-1,3.390189648E0,3.615244627E-1,8.600272179E0
9.278804420E-1,3.538630009E0,4.860229492E-1,8.475772858E0
9.318803410E-1,3.457227230E0,6.153098345E-1,8.451830864E0
9.358798070E-1,3.134010077E0,1.051054597E0,8.403946877E0
9.398789070E-1,2.985569477E0,1.225831270E0,8.365639687E0
9.438784400E-1,3.052607059E0,1.022324085E0,8.305785179E0
9.458785400E-1,3.059789658E0,8.020575643E-1,8.253112793E0
9.498780060E-1,2.971204281E0,5.075707436E-1,8.164526939E0
9.538776390E-1,2.901772499E0,4.261679053E-1,8.107066154E0
9.558778050E-1,2.817975283E0,3.806780577E-1,8.044816971E0
9.598772710E-1,2.717418909E0,3.567360640E-1,7.937077999E0
9.638767370E-1,2.633621931E0,3.040636182E-1,7.803002834E0
9.678762030E-1,2.339135170E0,-4.788403399E-3,7.621043205E0
9.718757360E-1,2.281674147E0,-4.070143029E-2,7.628225803E0
9.758752020E-1,2.161964178E0,-1.628057212E-1,7.769483566E0
9.798746680E-1,2.229001760E0,-2.178723514E-1,7.965808392E0
9.838741340E-1,2.554613113E0,-1.987187415E-1,8.284236908E0
9.878736670E-1,2.164358377E0,-3.112462163E-2,8.564358711E0
9.918729330E-1,2.398990154E0,-9.576806799E-3,8.605060577E0
9.958723990E-1,3.442862034E0,1.723825186E-1,8.581118584E0
9.978725650E-1,4.288015366E0,3.950432837E-1,8.518868446E0
1.001872031E0,5.308244228E0,1.046266198E0,8.284236908E0
1.005871363E0,6.519710541E0,1.558625340E0,7.793426037E0
1.009870895E0,7.486968040E0,1.580173135E0,7.087136269E0
1.013869627E0,7.762300968E0,1.510741234E0,6.637026310E0
1.017869226E0,7.647379398E0,1.319205165E0,6.050446987E0
1.021868825E0,6.383241177E0,1.055842996E0,5.559635639E0
1.025868357E0,5.399224281E0,8.714894056E-1,5.277119637E0
1.029867889E0,4.642356873E0,4.836287498E-1,5.042488098E0
1.033867222E0,4.493916512E0,1.867477298E-1,4.941931725E0
1.037866388E0,4.515464306E0,-4.453215301E-1,4.582501888E0
1.041865920E0,4.687847137E0,-8.547300100E-1,4.362235546E0
1.045865452E0,4.944325924E0,-1.173158884E0,4.194641590E0
1.049865051E0,5.095160484E0,-1.549048543E0,4.120420933E0
1.053864650E0,5.083189487E0,-1.707065821E0,4.055777550E0
1.057864182E0,5.061641693E0,-1.850717902E0,4.084507942E0
1.061863714E0,5.047276497E0,-1.987187386E0,4.218583584E0
1.063863714E0,5.028122902E0,-2.042253971E0,4.343081951E0
1.067863247E0,5.037699699E0,-2.063801765E0,4.525041103E0
1.071862713E0,5.037699699E0,-2.097320795E0,4.525041103E0
1.075862179E0,5.011363506E0,-2.197877169E0,4.422090530E0
1.079861645E0,4.867412090E0,-2.236184359E0,4.177882195E0
1.083861178E0,4.685452938E0,-2.279279947E0,3.811569214E0
1.087860644E0,4.400542736E0,-2.468421936E0,3.294421434E0
1.091860377E0,4.369418144E0,-2.509123325E0,3.241749048E0
1.095860276E0,4.278438568E0,-2.557007313E0,3.129221678E0
1.099859809E0,4.390965939E0,-2.513911724E0,3.038241863E0
1.103859275E0,5.052064896E0,-2.624045134E0,2.722207308E0
1.107858574E0,5.923554420E0,-2.724601507E0,2.133233786E0
1.111857307E0,6.036081791E0,-2.724601507E0,2.003946781E0
1.115856773E0,6.191704750E0,-2.784456491E0,1.692700624E0
1.119856239E0,6.079177380E0,-2.844311714E0,1.431732655E0
1.123855705E0,5.873276234E0,-2.908955097E0,1.395819545E0
1.127854871E0,5.384859085E0,-3.155557871E0,1.522712231E0
1.131855104E0,5.286696434E0,-3.186682463E0,1.582567334E0
1.135854570E0,5.107131481E0,-3.392583847E0,1.757344007E0
1.139854036E0,5.035305500E0,-3.737348795E0,1.831564307E0
1.143853569E0,4.925172329E0,-4.012681961E0,1.927332401E0
1.147853035E0,4.398148537E0,-4.410119534E0,1.999158382E0
1.151852034E0,4.288015366E0,-4.484339714E0,2.011129379E0
1.155851500E0,3.979163170E0,-4.699818134E0,2.066195965E0
1.159851033E0,3.732560396E0,-4.975450516E0,2.154781580E0
1.163850499E0,3.330334663E0,-5.293879032E0,2.375048161E0
1.167850365E0,2.841917515E0,-5.703287601E0,2.659958124E0
1.171850964E0,2.777273893E0,-5.772719383E0,2.719813108E0
1.175850564E0,2.638410330E0,-5.976226807E0,2.928108692E0
1.179850030E0,2.525882721E0,-6.134243965E0,3.153163671E0
1.183849496E0,2.446874142E0,-6.182127953E0,3.330334663E0
1.185849596E0,2.466027737E0,-6.191704750E0,3.459621429E0
1.189849129E0,2.758120298E0,-6.421548367E0,3.677493811E0
1.193847895E0,2.973598480E0,-6.498162746E0,3.720589399E0
1.197847361E0,3.287238836E0,-6.538864136E0,3.742137194E0
1.201846827E0,3.339911461E0,-7.180510044E0,3.770867586E0
1.205846360E0,3.938461781E0,-6.763918877E0,4.103661537E0
1.209845793E0,4.572925091E0,-6.074388981E0,4.446032524E0
1.211846126E0,4.702212334E0,-5.933131218E0,4.510675907E0
1.215845592E0,4.982633114E0,-5.684134007E0,4.656722069E0
1.219845058E0,5.317821026E0,-5.710470200E0,4.896441936E0
1.223844591E0,5.801449776E0,-5.981015205E0,5.439925671E0
1.227843824E0,6.062417984E0,-6.261136532E0,6.280290127E0
1.231843090E0,6.064812183E0,-6.275501728E0,6.457461357E0
1.235842556E0,6.021716595E0,-6.325780392E0,7.017704487E0
1.239842122E0,5.830180645E0,-6.471826553E0,7.747935772E0
1.243841654E0,5.624279022E0,-6.699275494E0,8.277054787E0
1.247841186E0,5.061641693E0,-7.170933247E0,9.198822021E0
1.251840685E0,4.963479519E0,-7.245153427E0,9.352050781E0
1.255840384E0,4.613626480E0,-7.463026047E0,9.814131737E0
1.259840116E0,4.288015366E0,-7.549217224E0,1.036719227E1
1.263839848E0,4.412513733E0,-7.850886822E0,1.055872917E1
1.267839647E0,4.024652958E0,-8.238747597E0,1.118600941E1
1.271839413E0,3.967192173E0,-8.291419983E0,1.127220058E1
1.275839279E0,3.857059002E0,-8.344092369E0,1.154514027E1
1.279839145E0,3.801992416E0,-8.372822762E0,1.186835670E1
1.283839078E0,3.957615376E0,-8.827720642E0,1.215805531E1
1.287839010E0,4.915595531E0,-8.011298180E0,1.283082581E1
1.291838576E0,4.915595531E0,-7.841310024E0,1.295293045E1
1.295838508E0,5.427954674E0,-7.455843449E0,1.326417637E1
1.299838474E0,5.808632374E0,-7.230788231E0,1.355148125E1
1.303838406E0,6.165368557E0,-7.135020256E0,1.397764874E1
1.307838338E0,6.340145588E0,-6.888417721E0,1.488774490E1
1.309838338E0,6.340145588E0,-6.888417721E0,1.488774490E1
1.313838270E0,6.768707275E0,-6.785466671E0,1.517744350E1
1.317838103E0,7.063194275E0,-6.854898930E0,1.534264278E1
1.321837903E0,7.072771072E0,-6.850110531E0,1.557727528E1
1.325837703E0,7.111078262E0,-6.804620743E0,1.593161678E1
1.329837503E0,7.067982674E0,-6.531681538E0,1.649664879E1
1.333837303E0,7.240365028E0,-6.419154167E0,1.664269447E1
1.337837103E0,7.257124424E0,-6.414365768E0,1.672170258E1
1.341836903E0,7.338527679E0,-6.490980148E0,1.676000977E1
1.345836736E0,7.458237648E0,-6.174945354E0,1.674325180E1
1.349836535E0,7.642591000E0,-5.516540051E0,1.637215042E1
1.351836968E0,7.642591000E0,-5.516540051E0,1.637215042E1
1.355836700E0,7.767089367E0,-5.059247494E0,1.597231770E1
1.359836432E0,7.965808392E0,-4.843470097E0,1.568501377E1
1.363836165E0,8.097489357E0,-4.807557106E0,1.547671795E1
1.367835831E0,8.408735275E0,-4.738125324E0,1.541207504E1
1.371835497E0,8.468590736E0,-4.707000732E0,1.540249825E1
1.375834730E0,8.636184692E0,-4.560954094E0,1.539770985E1
1.379834396E0,8.791808128E0,-4.376600742E0,1.532827759E1
1.383833996E0,8.873210907E0,-4.137180328E0,1.535221958E1
1.387833596E0,9.033622742E0,-3.768473387E0,1.533067226E1
1.391833196E0,9.071929932E0,-3.756502390E0,1.530194187E1
1.395832729E0,9.215581894E0,-3.701435804E0,1.516786671E1
1.399832195E0,9.395146370E0,-3.512293816E0,1.511998272E1
1.403831661E0,9.620202065E0,-3.378218651E0,1.518941402E1
1.407831127E0,9.881169319E0,-3.186682463E0,1.544559383E1
1.411830493E0,9.921871185E0,-3.172317266E0,1.551981354E1
1.415829959E0,1.004397583E1,-3.110068083E0,1.591006851E1
1.419829425E0,1.011340714E1,-3.148375273E0,1.630990028E1
1.423829224E0,1.025705910E1,-3.129221678E0,1.666424179E1
1.427828757E0,1.078378391E1,-2.949656487E0,1.720054436E1
1.431828223E0,1.087955189E1,-2.889801502E0,1.718617821E1
1.433828389E0,1.095377159E1,-2.839523315E0,1.715266037E1
1.437826922E0,1.094898319E1,-2.674323320E0,1.680789375E1
1.441826522E0,1.092264748E1,-2.454056740E0,1.636017799E1
1.445825988E0,1.087236881E1,-2.284068346E0,1.573289776E1
1.449825454E0,1.078138924E1,-2.169146776E0,1.492844582E1
1.453824520E0,1.078617764E1,-2.097320795E0,1.432959652E1
1.457824053E0,1.075026512E1,-2.027888775E0,1.388666916E1
1.461823519E0,1.060900688E1,-1.905784607E0,1.348683739E1
1.465822985E0,1.044141293E1,-1.819593310E0,1.312052441E1
1.469822484E0,1.031930828E1,-1.745373011E0,1.264407825E1
1.473822483E0,1.025705910E1,-1.735796213E0,1.250042629E1
1.477821949E0,1.016847420E1,-1.695094824E0,1.237113953E1
1.481821415E0,1.004876423E1,-1.644816518E0,1.226818848E1
1.485820614E0,9.912294388E0,-1.575384736E0,1.227297688E1
1.489820147E0,9.735123634E0,-1.450886250E0,1.211974812E1
1.491820547E0,9.684844971E0,-1.414973259E0,1.206707573E1
1.495820946E0,9.557952881E0,-1.355118155E0,1.180131912E1
1.499820412E0,9.414299965E0,-1.323993564E0,1.140148735E1
1.503819945E0,9.258677483E0,-1.328781962E0,1.074068832E1
1.507819411E0,9.016862869E0,-1.347935557E0,9.881169319E0
1.511819244E0,8.990526199E0,-1.343147159E0,9.715970039E0
1.513819377E0,8.935460091E0,-1.319205165E0,9.445425034E0
1.517818910E0,8.849268913E0,-1.304839969E0,9.064746857E0
1.521818443E0,8.755894661E0,-1.381454349E0,8.664915085E0
1.525817909E0,8.602665901E0,-1.414973259E0,8.353669167E0
1.529817375E0,8.324938774E0,-1.498770237E0,7.944260597E0
1.533816374E0,8.241141319E0,-1.510741234E0,7.831733227E0
1.537815840E0,8.205228806E0,-1.541865945E0,7.534852028E0
1.541815306E0,8.435071945E0,-1.273715258E0,6.445490360E0
1.545816039E0,8.803778648E0,-1.103726983E0,5.712864399E0
1.549815572E0,1.042225933E1,-4.381389022E-1,1.800439715E0
1.553815138E0,1.116446209E1,1.125274822E-1,-4.979939461E-1
1.557814604E0,1.077181244E1,1.029506683E0,-8.379705995E-2
1.561814070E0,1.052999878E1,1.115697980E0,1.458068848E0
1.565813603E0,1.024508858E1,4.884171486E-1,2.715024710E0
1.569813069E0,1.010622501E1,-9.385270476E-1,3.260902643E0
1.573812002E0,1.019480991E1,-1.240196466E0,3.162740469E0
1.577811468E0,9.696816444E0,-1.771709204E0,3.375824451E0
1.581811001E0,9.577106476E0,-2.087743998E0,3.639186621E0
1.585810467E0,9.354445457E0,-2.389413357E0,3.888183594E0
1.589810800E0,9.237129211E0,-2.559401512E0,3.931279182E0
1.593810266E0,8.966584206E0,-2.849100113E0,3.986345768E0
1.597809866E0,8.528446198E0,-3.141192675E0,4.242525578E0
1.601808899E0,8.224382401E0,-3.581725836E0,4.472368717E0
1.605807098E0,7.870040417E0,-3.895366192E0,4.702212334E0
1.609806564E0,7.479785442E0,-4.122815132E0,4.910807133E0
1.613805397E0,7.123049259E0,-4.199429989E0,4.929960728E0
1.617804863E0,6.984185696E0,-4.261679173E0,4.891354084E0
1.621804329E0,6.560411930E0,-4.295197964E0,4.843470097E0
1.625803795E0,6.045658588E0,-4.319139957E0,4.814739704E0
1.629803328E0,5.296273232E0,-4.390965939E0,4.809951305E0
1.633802961E0,4.762067318E0,-4.505887508E0,5.004180908E0
1.637802027E0,4.553771496E0,-4.726154327E0,5.420772076E0
1.641801693E0,4.474762917E0,-5.059247494E0,5.734412193E0
1.645801226E0,3.912125587E0,-5.303455830E0,6.354510784E0
1.649799825E0,3.615244627E0,-5.585971832E0,6.979397297E0
1.653799291E0,3.830722809E0,-5.667374611E0,7.331345081E0
1.657799857E0,3.737348795E0,-5.796661377E0,7.862857819E0
1.661799857E0,3.835511208E0,-5.844545841E0,8.801384926E0
1.665799389E0,4.103661537E0,-5.933131218E0,9.126996040E0
1.669798921E0,3.732560396E0,-6.071994781E0,9.380781174E0
1.673797520E0,3.931279182E0,-6.081571579E0,9.349657059E0
1.677797119E0,4.513070107E0,-5.906795025E0,8.894758224E0
1.681796651E0,3.512293816E0,-6.330568790E0,8.942642212E0
1.685796183E0,4.216189384E0,-5.600337029E0,8.571541786E0
1.689795782E0,4.436455727E0,-4.707000732E0,7.700051785E0
1.693795381E0,4.728548527E0,-4.378994942E0,6.457461357E0
1.697795047E0,5.126285076E0,-3.998316765E0,5.806238174E0
1.701794379E0,4.937143326E0,-3.830722809E0,5.399224281E0
1.705793978E0,4.733336926E0,-3.485957623E0,5.466261864E0
1.709793510E0,4.486733913E0,-3.201047659E0,5.370493889E0
1.713793076E0,4.529829502E0,-3.102885485E0,5.396830082E0
1.717791508E0,4.963479519E0,-3.062183857E0,5.356128693E0
1.721791074E0,5.530905247E0,-2.892195702E0,5.612308025E0
1.725790540E0,5.461473465E0,-2.997540474E0,5.990592003E0
1.729790006E0,5.918766022E0,-3.102885485E0,6.318597794E0
1.731791306E0,5.985803604E0,-3.076549292E0,6.464643955E0
1.735790772E0,6.416759968E0,-2.882618904E0,6.938695908E0
1.739790305E0,6.747159481E0,-2.882618904E0,7.149385452E0
1.743790304E0,6.684910297E0,-2.858676910E0,7.498939037E0
1.747789637E0,6.359299183E0,-3.232172251E0,7.568370819E0
1.751789103E0,6.414365768E0,-3.282450438E0,7.599495411E0
1.755788636E0,6.285078526E0,-3.380612850E0,8.006509781E0
1.757788636E0,6.268319130E0,-3.423708439E0,8.221987724E0
1.761788102E0,6.510133743E0,-3.545812607E0,8.226776123E0
1.765787568E0,6.567594528E0,-3.711012602E0,8.391976357E0
1.769787168E0,6.641814709E0,-3.902548790E0,7.688080788E0
1.773786367E0,6.704063892E0,-3.948038578E0,7.429507256E0
1.777785833E0,6.869264126E0,-4.103661537E0,7.192481041E0
1.781785299E0,7.161356449E0,-4.446032524E0,6.639420509E0
1.785784832E0,7.039252281E0,-4.702212334E0,6.493374348E0
1.789784298E0,7.417536259E0,-4.838681698E0,6.493374348E0
1.793783697E0,7.412747860E0,-4.977844715E0,6.469432354E0
1.797783163E0,7.515698433E0,-5.188534260E0,6.577171326E0
1.801782696E0,7.498939037E0,-5.518934250E0,6.567594528E0
1.805781762E0,7.513304234E0,-5.794267178E0,6.596324921E0
1.809781228E0,7.752724171E0,-7.266701221E0,6.265924931E0
1.813780428E0,8.205228806E0,-6.790255070E0,6.694487095E0
1.817779961E0,7.704840183E0,-6.364087582E0,6.306626320E0
1.821779427E0,7.436689854E0,-6.112696171E0,6.234800339E0
1.825779026E0,7.302614689E0,-6.364087582E0,6.000168800E0
1.829778459E0,7.407959461E0,-6.696881294E0,5.937919617E0
1.831778492E0,7.348104477E0,-6.945878506E0,5.892429829E0
1.835777958E0,7.254730225E0,-7.192481041E0,5.918766022E0
1.839777424E0,7.190086842E0,-7.223605633E0,5.925948620E0
1.843776890E0,7.230788231E0,-7.295432091E0,5.822998047E0
1.847776056E0,7.245153427E0,-6.972214699E0,6.007351398E0
1.851774955E0,7.276278019E0,-6.871658325E0,6.091148376E0
1.855774421E0,7.393594265E0,-6.696881294E0,6.299443722E0
1.859773887E0,7.290643215E0,-6.469432354E0,6.543652534E0
1.863773487E0,6.845322132E0,-4.752490520E0,7.412747860E0
1.867772953E0,6.356904984E0,-3.892971992E0,6.093542576E0
1.871771686E0,6.356904984E0,-3.892971992E0,6.093542576E0
1.875771285E0,7.065588474E0,-6.021716595E0,5.250783443E0
1.879770818E0,7.463026047E0,-6.390423775E0,5.612308025E0
1.883770151E0,7.484573841E0,-6.385635376E0,5.978621006E0
1.887769617E0,7.518092632E0,-6.440701962E0,5.516540051E0
1.889770217E0,7.518092632E0,-6.440701962E0,5.516540051E0
1.893769750E0,7.510910034E0,-6.481403351E0,5.296273232E0
1.897769216E0,7.496544838E0,-6.572382927E0,5.365705490E0
1.901768682E0,7.321768284E0,-6.435913563E0,5.782296181E0
1.905768148E0,7.305008888E0,-6.361693382E0,6.045658588E0
1.907768314E0,7.223605633E0,-6.447884560E0,6.251559734E0
1.911767847E0,7.190086842E0,-6.486191750E0,6.304232121E0
1.915767313E0,7.154173851E0,-6.548440933E0,6.404788971E0
1.919766779E0,7.199663639E0,-6.297049522E0,6.476614952E0
1.923766245E0,6.996156693E0,-6.294655323E0,6.505345345E0
1.927765778E0,6.569988728E0,-6.026504993E0,7.032069683E0
1.931766677E0,6.505345345E0,-5.995380402E0,6.924330711E0
1.935766143E0,6.335357189E0,-6.289866924E0,6.613084316E0
1.939765676E0,6.347328186E0,-6.481403351E0,6.701669693E0
1.943765209E0,6.246771336E0,-6.450278759E0,6.878840923E0
1.947764675E0,6.301837921E0,-5.911583424E0,7.633014202E0
1.951763375E0,6.239588737E0,-5.691316605E0,7.640196800E0
1.955763074E0,5.983409405E0,-4.726154327E0,7.609072208E0
1.959762607E0,5.988197803E0,-3.924096584E0,7.154173851E0
1.963762073E0,5.992986202E0,-3.303998232E0,6.122272968E0
1.967761539E0,5.437531471E0,-2.722207308E0,4.613626480E0
1.971761672E0,5.296273232E0,-2.803610086E0,4.469974518E0
1.975761138E0,5.281908035E0,-3.134010077E0,4.050989151E0
1.979760604E0,5.387253284E0,-3.232172251E0,3.933673382E0
1.983760070E0,5.533299446E0,-2.870647907E0,4.623203278E0
1.987759603E0,5.621884823E0,-3.220201254E0,4.865017891E0
1.991758502E0,5.583577633E0,-3.263296843E0,4.917989731E0
1.995757968E0,5.528511047E0,-3.203441858E0,5.147832870E0
1.999757434E0,5.449502468E0,-3.488351822E0,5.346551895E0
2.003756967E0,5.468656063E0,-3.938461781E0,5.535693645E0
2.007756433E0,5.459079266E0,-4.419696331E0,5.789478779E0
2.011755832E0,5.430348873E0,-4.489128113E0,5.777507782E0
2.015755131E0,5.298667431E0,-4.625597477E0,5.712864399E0
2.019754664E0,5.178957462E0,-4.716577530E0,5.612308025E0
2.023754130E0,5.059247494E0,-4.704606533E0,5.638644218E0
2.027753596E0,4.819528103E0,-5.226841450E0,5.837363243E0
2.031751729E0,4.860229492E0,-5.344157696E0,5.940313816E0
2.035751262E0,4.941931725E0,-5.822998047E0,6.277895927E0
2.039750728E0,5.195716858E0,-6.289866924E0,6.574777126E0
2.043750194E0,5.406406879E0,-6.660968304E0,6.747159481E0
2.047749660E0,5.545270443E0,-6.838139534E0,6.725611687E0
2.051749193E0,5.657797813E0,-6.778284073E0,6.696881294E0
2.055748226E0,6.153397560E0,-6.287472725E0,6.309020519E0
2.059747692E0,6.543652534E0,-5.952284813E0,5.861305237E0
2.063747691E0,6.852504730E0,-5.801449776E0,5.301061630E0
2.067747257E0,6.610690117E0,-5.128679276E0,5.322609425E0
2.071746789E0,6.651391506E0,-5.044882298E0,5.322609425E0
2.075746055E0,6.646603107E0,-4.790797710E0,5.143044472E0
2.079745587E0,6.888417721E0,-4.922778130E0,5.188534260E0
2.083745186E0,6.754342079E0,-5.104737282E0,5.219658852E0
2.087744718E0,7.067982674E0,-6.079177380E0,5.284302235E0
2.091745684E0,7.173327446E0,-6.201281548E0,5.253177643E0
2.095745283E0,7.156568050E0,-6.486191750E0,5.226841450E0
2.099744882E0,7.130231857E0,-6.795043468E0,5.143044472E0
2.101745415E0,7.111078262E0,-6.921936512E0,5.147832870E0
2.105744947E0,7.065588474E0,-6.840533733E0,4.915595531E0
2.109744479E0,6.754342079E0,-5.904400826E0,4.762067318E0
2.113743878E0,6.742371082E0,-5.954679012E0,4.939537525E0
2.115744078E0,6.802226067E0,-5.988197803E0,5.037699699E0
2.119743610E0,6.878840923E0,-6.009745598E0,5.104737282E0
2.123742609E0,7.082347870E0,-5.770325184E0,5.186140060E0
2.127742175E0,7.237970829E0,-5.166986465E0,5.387253284E0
2.131741641E0,7.139808655E0,-5.317821026E0,5.528511047E0
2.135741374E0,6.936301708E0,-5.763142586E0,6.165368557E0
2.139740840E0,6.775889874E0,-5.590760231E0,6.220435143E0
2.143740373E0,6.711246490E0,-5.425560474E0,6.318597794E0
2.147739839E0,6.411971569E0,-5.952284813E0,6.646603107E0
2.151737672E0,6.416759968E0,-6.076783180E0,6.689698696E0
2.155737138E0,6.368875980E0,-6.067206383E0,6.663362503E0
2.159736671E0,5.334580898E0,-7.070376873E0,7.522881031E0
2.163735370E0,5.351340294E0,-6.845322132E0,7.664138794E0
2.167734836E0,4.721365929E0,-6.560411930E0,7.558794022E0
2.171734569E0,3.713406801E0,-7.283460617E0,8.753500938E0
2.175734102E0,-4.862623692E0,-1.281167221E1,2.777363777E1
2.179733568E0,-8.674491882E0,-1.155232239E1,3.228431320E1
2.183733034E0,3.361459255E0,-8.724770546E0,7.786243439E0
2.187732500E0,1.664269447E1,-4.472368717E0,-8.875604630E0
2.191732100E0,1.599386597E1,-2.712630510E0,-8.324938774E0
2.195731566E0,1.128656578E1,1.374271750E0,-5.432743073E0
2.199731032E0,8.473379135E0,2.473210335E0,-2.226607561E0
2.203730498E0,6.239588737E0,-1.000776291E0,6.272808313E-1
2.207730031E0,4.944325924E0,-5.528511047E0,3.871424198E0
2.211730430E0,4.881777287E0,-5.607519627E0,4.362235546E0
2.215729896E0,5.351340294E0,-5.071218491E0,5.732017994E0
2.219729362E0,7.056011677E0,-3.517082214E0,5.827786446E0
2.223728895E0,8.466196060E0,-3.126827478E0,5.966650009E0
2.227728361E0,8.152556419E0,-3.639186621E0,6.467038155E0
2.231727760E0,7.747935772E0,-3.732560396E0,6.495768547E0
2.235727226E0,6.615478516E0,-3.842693806E0,6.292261124E0
2.239726759E0,6.306626320E0,-3.768473387E0,6.064812183E0
2.243726058E0,6.239588737E0,-3.074155092E0,5.854122639E0
2.247725524E0,6.064812183E0,-2.185906172E0,6.091148376E0
2.251724923E0,5.985803604E0,-2.209848166E0,6.153397560E0
2.255724456E0,5.837363243E0,-2.138022184E0,6.215646744E0
2.259723922E0,5.693710804E0,-2.286462545E0,6.373664379E0
2.263723388E0,5.638644218E0,-2.420537949E0,6.538864136E0
2.267722921E0,5.734412193E0,-1.865083098E0,6.062417984E0
2.271723187E0,5.693710804E0,-1.747767210E0,5.969044209E0
2.275722820E0,5.530905247E0,-1.493981838E0,5.732017994E0
2.279722286E0,5.363311291E0,-1.249773264E0,5.535693645E0
2.283721819E0,3.852270603E0,-7.900865376E-2,5.473444462E0
2.287721285E0,6.313809395E0,-1.910573006E0,5.727229595E0
2.291720651E0,5.913977623E0,-2.432508945E0,5.672163010E0
2.295719184E0,4.477157116E0,-2.817975283E0,5.423166275E0
2.299718717E0,4.455609322E0,-2.329558372E0,5.425560474E0
2.303718350E0,4.462791920E0,-1.989581585E0,5.480627060E0
2.307718883E0,3.988739967E0,-2.401384354E0,5.358522892E0
2.311718616E0,3.900154591E0,-2.525882721E0,5.368099689E0
2.315718149E0,3.488351822E0,-3.035847664E0,5.497386456E0
2.319717615E0,3.129221678E0,-4.455609322E0,5.959467411E0
2.323717081E0,5.078401089E0,-3.574543238E0,5.353734493E0
2.327716547E0,5.037699699E0,-2.817975283E0,5.401618481E0
2.331715313E0,4.867412090E0,-2.748543501E0,5.372888088E0
2.335714679E0,4.599261284E0,-2.671929121E0,5.669768810E0
2.339714211E0,4.584896088E0,-3.268085241E0,6.500556946E0
2.343713743E0,4.367023945E0,-3.799597979E0,7.012916088E0
2.347713409E0,4.386177540E0,-4.402936935E0,7.654561996E0
2.351713241E0,4.465186119E0,-4.606443882E0,7.685686588E0
2.353714041E0,4.699818134E0,-4.723760128E0,7.728782177E0
2.355714041E0,4.965873718E0,-4.968267918E0,7.783848763E0
2.359713773E0,5.272331238E0,-5.387253284E0,7.934683800E0
2.361713906E0,5.490203857E0,-5.607519627E0,7.867646217E0
2.365713772E0,5.648221016E0,-5.851728439E0,7.463026047E0
2.369712571E0,5.466261864E0,-5.827786446E0,6.720823288E0
2.373711304E0,3.421314240E0,-1.004397583E1,-1.323993564E0
2.377711237E0,4.374206543E0,-9.624990463E0,5.475838661E0
2.379711803E0,5.808632374E0,-8.566753387E0,6.874052525E0
2.383711735E0,6.196493149E0,-5.449502468E0,6.572382927E0
2.387711667E0,3.833117008E0,-5.554847240E0,4.891354084E0
2.391711633E0,4.182670593E0,-5.521328449E0,4.560954094E0
2.393711633E0,4.855441093E0,-5.210082054E0,4.520252705E0
2.397711565E0,5.411195278E0,-4.917989731E0,4.568136692E0
2.401712764E0,5.155015469E0,-4.778826714E0,4.283226967E0
2.405712696E0,5.004180908E0,-4.465186119E0,3.294421434E0
2.409712595E0,5.353734493E0,-4.338293552E0,2.762908697E0
2.411712595E0,5.351340294E0,-4.328716755E0,2.700659513E0
2.415712328E0,5.348946095E0,-4.407725334E0,2.659958124E0
2.419712194E0,5.439925671E0,-4.587290287E0,2.796427488E0
2.423711860E0,5.487809658E0,-5.040093899E0,3.014299870E0
2.427711659E0,5.325003624E0,-5.935525417E0,3.842693806E0
2.431712325E0,5.358522892E0,-6.148609161E0,3.871424198E0
2.435712057E0,5.238812447E0,-6.534075737E0,4.311957359E0
2.439711223E0,5.377676487E0,-6.862081528E0,4.572925091E0
2.443710956E0,5.720046997E0,-6.991368294E0,5.104737282E0
2.447710555E0,6.036081791E0,-6.737582684E0,1.119079781E1
2.451710221E0,5.942708015E0,-6.675333500E0,1.208622932E1
2.455709920E0,6.048052788E0,-6.517316341E0,1.210298920E1
2.459709520E0,7.070376873E0,-7.008127689E0,8.810961723E0
2.463707853E0,7.700051785E0,-6.909965515E0,7.616254807E0
2.467707453E0,7.434295654E0,-6.598719120E0,7.257124424E0
2.471706719E0,7.379229069E0,-6.632237911E0,6.986579895E0
2.475706185E0,7.079953671E0,-6.874052525E0,5.727229595E0
2.479705651E0,6.811803341E0,-6.749553680E0,4.750096321E0
2.483705117E0,6.411971569E0,-6.699275494E0,4.220977783E0
2.487704216E0,5.202899456E0,-8.324938774E0,2.260126352E0
2.491703415E0,5.186140060E0,-8.564358711E0,2.020706177E0
2.495702881E0,5.672163010E0,-7.992144585E0,2.432508945E0
2.499702347E0,5.978621006E0,-7.312191486E0,2.906560898E0
2.503701880E0,5.913977623E0,-6.711246490E0,2.638410330E0
2.507701413E0,6.593930721E0,-5.794267178E0,3.145981073E0
2.511700913E0,6.627449512E0,-5.712864399E0,3.035847664E0
2.515701746E0,6.601113319E0,-5.609913826E0,2.372653961E0
2.519701346E0,7.154173851E0,-5.660192013E0,2.444479942E0
2.523700812E0,7.637802601E0,-5.547664642E0,2.468421936E0
2.527700278E0,7.436689854E0,-5.303455830E0,3.260902643E0
2.531700511E0,7.285854816E0,-5.313032627E0,3.385401249E0
2.535699644E0,6.735188484E0,-5.427954674E0,3.600879431E0
2.539699110E0,6.136638165E0,-5.447108269E0,3.926490784E0
2.543698576E0,5.858911037E0,-5.430348873E0,4.726154327E0
2.547698475E0,5.023334503E0,-6.086359978E0,5.655403614E0
2.551698275E0,4.996998310E0,-6.273107529E0,5.813420773E0
2.555697741E0,4.661510944E0,-6.711246490E0,6.383241177E0
2.559697207E0,4.400542736E0,-7.328950882E0,7.089530468E0
2.563696673E0,4.168305397E0,-8.389581680E0,7.340921879E0
2.567696206E0,5.107131481E0,-9.110237122E0,7.812579632E0
2.571694672E0,5.107131481E0,-9.110237122E0,7.812579632E0
2.575692771E0,5.602731228E0,-9.289801598E0,7.621043205E0
2.579692237E0,6.490980148E0,-8.959402084E0,6.780678272E0
2.583691770E0,7.063194275E0,-8.540416718E0,6.799831867E0
2.587691236E0,7.441478252E0,-6.996156693E0,6.270713329E0
2.591690602E0,7.044040680E0,-6.845322132E0,6.062417984E0
2.595690901E0,6.433519363E0,-6.807014942E0,5.478232861E0
2.599690434E0,6.189310551E0,-6.761524677E0,4.814739704E0
2.603689900E0,6.280290127E0,-6.665756702E0,4.601655483E0
2.607689366E0,6.445490360E0,-6.555623531E0,3.596091032E0
2.611689065E0,6.390423775E0,-6.538864136E0,3.454833031E0
2.615688598E0,6.115090370E0,-6.340145588E0,3.035847664E0
2.619688064E0,5.863699436E0,-6.055235386E0,3.093308687E0
2.623687530E0,5.150227070E0,-5.492598057E0,2.935291290E0
2.627687063E0,5.035305500E0,-4.261679173E0,3.157952070E0
2.631688029E0,5.035305500E0,-4.261679173E0,3.157952070E0
2.635687962E0,5.739200592E0,-4.120420933E0,3.114856482E0
2.639687428E0,6.122272968E0,-4.156333923E0,3.095702887E0
2.643686527E0,7.237970829E0,-5.068824291E0,1.884236693E0
2.647685993E0,9.421483040E0,-5.897218227E0,3.177105665E0
2.651685126E0,9.294589996E0,-6.040870190E0,3.632004023E0
2.655684225E0,9.086295128E0,-6.395212173E0,4.149151325E0
2.659683758E0,8.899546623E0,-6.335357189E0,4.223371983E0
2.663683224E0,8.727164268E0,-6.534075737E0,3.603273630E0
2.667682690E0,6.716034889E0,-9.732728958E0,4.345476151E0
2.671681656E0,6.713640690E0,-9.900322914E0,4.431667328E0
2.675681189E0,6.965032101E0,-1.006791782E1,4.242525578E0
2.679680655E0,7.379229069E0,-9.756670952E0,3.265691042E0
2.683680121E0,6.991368294E0,-9.950601578E0,2.602497339E0
2.687679587E0,5.590760231E0,-1.064492035E1,3.679888010E0
2.691679120E0,5.590760231E0,-1.064492035E1,3.679888010E0
2.695678119E0,5.535693645E0,-1.040310574E1,3.794809580E0
2.699677585E0,5.676951408E0,-1.015889740E1,3.031059265E0
2.703677451E0,5.528511047E0,-9.636960983E0,1.874659896E0
2.707676984E0,5.499780655E0,-6.996156693E0,6.560112834E-1
2.711676450E0,5.511751652E0,-6.476614952E0,7.517793179E-1
2.715675916E0,5.363311291E0,-5.114314079E0,1.812410712E0
2.719675382E0,5.562029839E0,-3.904942989E0,2.707842112E0
2.723674915E0,5.973832607E0,-2.846705914E0,2.949656487E0
2.727674381E0,6.364087582E0,-1.376665950E0,2.875436306E0
2.731674047E0,6.380846977E0,-1.211466074E0,2.722207308E0
2.735673913E0,6.064812183E0,-9.792284966E-1,2.662352324E0
2.739673446E0,5.921160221E0,-8.140285611E-1,2.114080191E0
2.743672912E0,5.157409668E0,-1.041477680E0,2.149993181E0
2.747672378E0,4.043806553E0,-1.642422318E0,1.070208192E0
2.751671377E0,3.825934410E0,-1.642422318E0,1.070208192E0
2.755670910E0,2.432508945E0,-2.149993181E0,1.130063176E0
2.759670376E0,1.242590666E0,-2.837129116E0,2.037465572E0
2.763669875E0,2.705447972E-1,-3.478775024E0,3.574543238E0
2.767669408E0,-1.264138460E0,-4.278438568E0,1.041986465E1
2.771669441E0,-1.376665950E0,-4.304774761E0,1.118122101E1
2.775668907E0,-1.577778935E0,-4.611232281E0,1.287152767E1
2.779668373E0,-1.410184860E0,-4.888959885E0,1.339346313E1
2.783667906E0,-9.768342972E-1,-4.898836136E0,1.255788708E1
2.787667472E0,2.394201607E-2,-4.522646904E0,9.708786964E0
2.791667138E0,1.221042871E-1,-4.448426723E0,9.308955193E0
2.795665837E0,3.567360640E-1,-4.220977783E0,8.449437141E0
2.799665436E0,3.687070608E-1,-4.232948780E0,7.939472198E0
2.803664968E0,3.160346150E-1,-4.908412933E0,7.659350395E0
2.807664500E0,-4.788403213E-2,-8.037634850E0,5.564424038E0
2.811663599E0,-4.788403213E-2,-8.037634850E0,5.564424038E0
2.815663198E0,1.388636976E-1,-1.113094330E1,2.631227732E0
2.819662730E0,9.720458984E-1,-1.346289539E1,-1.410184860E0
2.823662262E0,2.003946781E0,-1.535700798E1,-6.158185959E0
2.827661794E0,2.039859772E0,-1.457859325E1,-7.929895401E0
2.831660893E0,1.845929503E0,-1.414763737E1,-7.453449249E0
2.835660425E0,1.307234168E0,-1.283322048E1,-6.213252544E0
2.839659491E0,1.142034173E0,-1.192821217E1,-5.341763496E0
2.843659023E0,1.276109457E0,-1.061858368E1,-4.484339714E0
2.847658589E0,1.165976286E0,-8.782231331E0,-1.802833915E0
2.851657588E0,1.070208192E0,-8.380004883E0,-1.383848548E0
2.853657754E0,8.906430602E-1,-7.597101212E0,-4.955997467E-1
2.857657220E0,8.858546019E-1,-6.797437668E0,5.602431893E-1
2.861656753E0,9.959878922E-1,-6.098330975E0,1.125274777E0
2.865656286E0,1.074996591E0,-5.655403614E0,1.618480325E0
2.869655752E0,1.017535686E0,-4.985027313E0,2.547430515E0
2.871656518E0,1.017535686E0,-4.985027313E0,2.547430515E0
2.875655984E0,1.000776291E0,-4.510675907E0,3.138798475E0
2.879655517E0,1.101332784E0,-5.176563263E0,6.763918877E0
2.883654983E0,1.625662923E0,-7.005733490E0,1.214847851E1
2.887654449E0,1.886630893E0,-6.119878769E0,9.952995300E0
2.891653915E0,1.874659896E0,-5.973832607E0,9.172486305E0
2.895653448E0,1.802833915E0,-5.574000835E0,6.373664379E0
2.899653147E0,1.723825216E0,-5.494992256E0,4.127603531E0
2.903652680E0,1.872265697E0,-5.837363243E0,2.037465572E0
2.907651646E0,1.723825216E0,-6.033687592E0,-1.120486379E0
2.911651646E0,1.697489023E0,-6.095936775E0,-1.391031146E0
2.915650679E0,1.793257117E0,-6.553229332E0,-1.721431017E0
2.919650145E0,2.047042370E0,-9.289801598E0,-2.442085743E-1
2.923649611E0,-2.442085743E-1,-1.848862457E1,2.796427488E0
2.927649144E0,-3.682282209E0,-3.745608902E1,4.728548527E0
2.931648010E0,-3.682282209E0,-3.745608902E1,4.728548527E0
2.935647476E0,-1.355118155E0,-4.460068512E1,4.271255970E0
2.939647009E0,4.381389141E0,-4.520402527E1,4.745307922E0
2.943646542E0,1.201440334E1,-4.058531189E1,4.376600742E0
2.947646008E0,1.664987755E1,-2.615036964E1,5.746083856E-1
2.951645174E0,1.529475880E1,-2.395698166E1,7.900865376E-2
2.955644707E0,1.092504120E1,-1.859157562E1,-3.806780577E-1
2.959644406E0,7.644985199E0,-1.466957283E1,-2.226607651E-1
2.963643805E0,4.309563160E0,-1.072392845E1,-4.118026793E-1
2.965644038E0,3.665522814E0,-9.885957718E0,-4.285621047E-1
2.969643504E0,1.915361404E0,-6.926724911E0,4.548983276E-1
2.973642870E0,1.235408068E0,-5.624279022E0,1.692700624E0
2.975643036E0,1.060631394E0,-5.413589478E0,2.023100376E0
2.979642502E0,5.123591423E-1,-5.198111057E0,2.947262287E0
2.983641968E0,2.729389966E-1,-5.346551895E0,3.416525841E0
2.987641501E0,8.475474119E-1,-6.067206383E0,4.268861771E0
2.991640967E0,8.475474119E-1,-6.067206383E0,4.268861771E0
2.995640433E0,9.911994934E-1,-6.615478516E0,4.730942726E0
2.999639899E0,1.091755986E0,-6.962637901E0,4.809951305E0
3.003639432E0,1.237802267E0,-7.314585686E0,4.448426723E0
3.007638898E0,1.510741234E0,-8.104672432E0,2.607285738E0
3.011638431E0,1.520318031E0,-8.257901192E0,2.240972757E0
3.015637897E0,1.551442742E0,-8.691251755E0,1.115697980E0
3.019637297E0,1.532289028E0,-9.033622742E0,6.703764945E-2
3.023636763E0,1.448492050E0,-9.280224800E0,-9.265560508E-1
3.027636229E0,1.754949808E0,-9.359233856E0,-1.151610970E0
3.031635362E0,1.817199111E0,-9.330503464E0,-1.067813993E0
3.035634962E0,1.927332401E0,-9.222764015E0,-6.440402865E-1
3.039634428E0,1.862688899E0,-9.083900452E0,8.858546615E-2
3.043633894E0,1.776497602E0,-9.038411140E0,6.033388376E-1
3.047633360E0,1.731007814E0,-9.232340813E0,1.367089152E0
3.051632893E0,1.731007814E0,-9.232340813E0,1.367089152E0
3.055632359E0,1.776497602E0,-9.462183952E0,1.659181833E0
3.059631825E0,1.819593310E0,-9.636960983E0,1.754949808E0
3.063631291E0,1.843535304E0,-9.818920135E0,1.829170108E0
3.067630824E0,1.869871497E0,-1.008946514E1,1.879448295E0
3.071630523E0,1.884236693E0,-1.012298393E1,1.893813491E0
3.075629589E0,1.905784607E0,-1.018283939E1,1.970427990E0
3.079629255E0,1.960851192E0,-1.016847420E1,2.044648170E0
3.083628788E0,2.006340981E0,-1.011340714E1,2.114080191E0
3.087628254E0,2.087743998E0,-1.001045704E1,2.221819162E0
3.091628220E0,2.106897593E0,-9.991303444E0,2.250549555E0
3.095627686E0,2.183511972E0,-9.905111313E0,2.319981337E0
3.099626285E0,2.200271368E0,-9.830891609E0,2.394201756E0
3.103625751E0,2.209848166E0,-9.811738014E0,2.403778553E0
3.107625217E0,2.114080191E0,-9.720758438E0,2.370259762E0
3.111623816E0,2.114080191E0,-9.720758438E0,2.370259762E0
3.115623349E0,2.039859772E0,-9.694421768E0,2.296039343E0
3.119622815E0,1.977610588E0,-9.708786964E0,2.236184359E0
3.123621914E0,1.965639591E0,-9.687239647E0,2.157175779E0
3.127621447E0,1.798045516E0,-9.696816444E0,2.008735180E0
3.131620913E0,1.764526606E0,-9.687239647E0,1.975216389E0
3.135620779E0,1.695094824E0,-9.653720856E0,1.838746905E0
3.139620245E0,1.651999116E0,-9.680056572E0,1.659181833E0
3.143619778E0,1.651999116E0,-9.689633369E0,1.460463047E0
3.147619244E0,1.707065821E0,-9.670479774E0,1.273715258E0
3.151618710E0,1.728613615E0,-9.675268173E0,1.249773264E0
3.155618176E0,1.735796213E0,-9.622595787E0,1.170764685E0
3.157618842E0,1.742978811E0,-9.569923401E0,1.115697980E0
3.161618375E0,1.716642618E0,-9.531616211E0,1.053448796E0
3.165617974E0,1.692700624E0,-9.419088364E0,1.005564690E0
3.169617440E0,1.795651317E0,-9.170091629E0,1.053448796E0
3.173616906E0,1.857900500E0,-8.959402084E0,1.192312479E0
3.177616439E0,1.900996208E0,-8.743924141E0,1.482010841E0
3.181616272E0,1.900996208E0,-8.887576103E0,1.747767210E0
3.185615738E0,1.893813491E0,-9.110237122E0,1.831564307E0
3.189615271E0,1.965639591E0,-9.344868660E0,1.903390408E0
3.191615437E0,1.989581585E0,-9.383175850E0,1.912967205E0
3.195614903E0,2.061407566E0,-9.490914345E0,1.862688899E0
3.199614369E0,2.118868589E0,-9.529222488E0,1.774103403E0
3.203613835E0,2.202665567E0,-9.399934769E0,1.810016513E0
3.207613401E0,2.114080191E0,-9.387964249E0,1.989581585E0
3.211612933E0,2.075772762E0,-9.344868660E0,2.030282974E0
3.215612465E0,1.989581585E0,-9.304166794E0,2.121262789E0
3.219611997E0,1.771709204E0,-9.304166794E0,2.123656988E0
3.223611596E0,1.742978811E0,-9.397541046E0,2.353500366E0
3.227610562E0,1.692700624E0,-9.792584419E0,2.609679937E0
3.231610561E0,1.673547029E0,-9.845256805E0,2.652775526E0
3.235610093E0,1.628057122E0,-9.952995300E0,2.700659513E0
3.239609692E0,1.570596337E0,-1.003200436E1,2.480392933E0
3.243609224E0,1.549048543E0,-1.013256073E1,2.351106167E0
3.247608756E0,1.726219416E0,-1.019720459E1,2.425326347E0
3.251607555E0,1.754949808E0,-1.013734913E1,2.341529369E0
3.255607154E0,1.805228114E0,-9.924264908E0,1.929726601E0
3.259606686E0,1.824381709E0,-9.663297653E0,1.328781962E0
3.263606218E0,1.860294700E0,-9.375992775E0,6.224924326E-1
3.267605784E0,1.793257117E0,-9.476549149E0,-3.591302633E-1
3.271604384E0,1.793257117E0,-9.476549149E0,-3.591302633E-1
3.275603850E0,1.723825216E0,-9.613018990E0,-1.247379065E0
3.279603316E0,1.862688899E0,-9.794978142E0,-1.630451322E0
3.283602849E0,1.912967205E0,-9.840468407E0,-1.601720929E0
3.287602815E0,1.489193439E0,-9.773430824E0,-9.385270476E-1
3.291602481E0,1.474828243E0,-9.761459351E0,-7.493851185E-1
3.295601947E0,1.505952835E0,-9.778219223E0,-6.464344263E-2
3.299601480E0,1.467645645E0,-9.692028046E0,6.105214357E-1
3.303600946E0,1.453280449E0,-9.565135002E0,1.173158884E0
3.307600412E0,1.474828243E0,-9.617807388E0,2.080561161E0
3.311600245E0,1.503558636E0,-9.632172585E0,2.185906172E0
3.315599778E0,1.618480325E0,-9.715970039E0,2.437297344E0
3.319599244E0,1.795651317E0,-9.823708534E0,2.576161146E0
3.323598710E0,2.030282974E0,-9.974543571E0,2.566584110E0
3.327598176E0,2.229001760E0,-1.019480991E1,2.334346771E0
3.331598409E0,2.238578558E0,-1.023072338E1,2.274491549E0
3.335597442E0,2.217030764E0,-1.032409668E1,2.073378563E0
3.339596541E0,2.209848166E0,-1.035522175E1,1.944091797E0
3.343103193E0,2.209848166E0,-1.031930828E1,1.893813491E0
3.347102726E0,2.255337954E0,-1.009664822E1,1.929726601E0
3.351102459E0,2.262520552E0,-1.004876423E1,1.934514999E0
3.355101925E0,2.269703150E0,-9.897929192E0,1.924938202E0
3.359101391E0,2.284068346E0,-9.773430824E0,1.872265697E0
3.363100991E0,2.308010340E0,-9.699210167E0,1.793257117E0
3.367100457E0,2.324769735E0,-9.565135002E0,1.501164436E0
3.371099923E0,2.331952572E0,-9.545981407E0,1.472434044E0
3.375099389E0,2.367865562E0,-9.536404610E0,1.355118155E0
3.379098922E0,2.410961151E0,-9.507674217E0,1.266532660E0
3.383098388E0,2.523488522E0,-9.469367027E0,1.209071875E0
3.387097854E0,2.633621931E0,-9.431059837E0,1.197100878E0
3.391097620E0,2.647987127E0,-9.435848236E0,1.199495077E0
3.395097586E0,2.707842112E0,-9.423876762E0,1.240196466E0
3.399097419E0,2.750937700E0,-9.426271439E0,1.309628367E0
3.403096885E0,2.794033289E0,-9.419088364E0,1.388636947E0
3.407096351E0,2.794033289E0,-9.431059837E0,1.470039845E0
3.411095884E0,2.798821688E0,-9.433453560E0,1.486799240E0
3.415095350E0,2.808398485E0,-9.457395554E0,1.529894829E0
3.419094816E0,2.829946518E0,-9.457395554E0,1.580173135E0
3.423094282E0,2.774879694E0,-9.471760750E0,1.613691926E0
3.427093848E0,2.726995707E0,-9.452607155E0,1.726219416E0
3.431093380E0,2.719813108E0,-9.466972351E0,1.740584612E0
3.435092912E0,2.695871115E0,-9.469367027E0,1.790862918E0
3.439092078E0,2.664746523E0,-9.455001831E0,1.838746905E0
3.443091711E0,2.638410330E0,-9.443030357E0,1.855506301E0
3.447091311E0,2.669534922E0,-9.361627579E0,1.805228114E0
3.451090844E0,2.712630510E0,-9.361627579E0,1.781286120E0
3.455090510E0,2.949656487E0,-9.256282806E0,1.774103403E0
3.459090242E0,3.119644880E0,-9.239523888E0,1.881842494E0
3.463089974E0,3.040636063E0,-9.210793495E0,2.013523579E0
3.467089706E0,2.327163935E0,-9.038411140E0,2.245761156E0
3.471090272E0,2.226607561E0,-9.009679794E0,2.286462545E0
3.475090004E0,1.917755604E0,-8.945036888E0,2.372653961E0
3.479089736E0,1.608903527E0,-8.846874237E0,2.442085743E0
3.483089468E0,1.312022567E0,-8.844480515E0,2.430114746E0
3.487089234E0,1.000776291E0,-8.990526199E0,2.025494576E0
3.491089067E0,1.017535686E0,-9.026439667E0,1.958456993E0
3.495089233E0,1.063025594E0,-9.143755913E0,1.836352706E0
3.499089332E0,1.209071875E0,-9.289801598E0,1.786074519E0
3.503089031E0,1.323993564E0,-9.318531990E0,1.817199111E0
3.507088631E0,1.532289028E0,-9.359233856E0,1.900996208E0
3.511088231E0,1.570596337E0,-9.366415977E0,1.908178806E0
3.515087831E0,1.702277422E0,-9.385569572E0,1.948880196E0
3.519087431E0,1.838746905E0,-9.352050781E0,1.936909199E0
3.523086897E0,1.956062794E0,-9.347262383E0,1.972822189E0
3.527086363E0,2.097320795E0,-9.354445457E0,1.965639591E0
3.531085062E0,2.128445387E0,-9.359233856E0,1.972822189E0
3.535084828E0,2.217030764E0,-9.409511566E0,1.972822189E0
3.539084294E0,2.252943754E0,-9.502885818E0,1.953668594E0
3.543083760E0,2.224213362E0,-9.562741280E0,1.948880196E0
3.547083226E0,2.011129379E0,-9.589076996E0,1.934514999E0
3.551082592E0,1.970427990E0,-9.591471672E0,1.922544003E0
3.555081558E0,1.838746905E0,-9.569923401E0,1.946485996E0
3.559081024E0,1.618480325E0,-9.531616211E0,1.941697598E0
3.563080490E0,1.484405041E0,-9.512462616E0,1.905784607E0
3.567080023E0,1.300051570E0,-9.493309021E0,1.860294700E0
3.571080056E0,1.266532660E0,-9.486125946E0,1.850717902E0
3.575079522E0,1.199495077E0,-9.452607155E0,1.776497602E0
3.579078988E0,1.144428372E0,-9.457395554E0,1.719036818E0
3.583078521E0,1.108515382E0,-9.488520622E0,1.659181833E0
3.585078687E0,1.098938584E0,-9.500492096E0,1.623268723E0
3.589078153E0,1.108515382E0,-9.567529678E0,1.539471745E0
3.593076719E0,1.156399369E0,-9.586683273E0,1.527500629E0
3.597076085E0,1.271321058E0,-9.672874451E0,1.513135433E0
3.601075551E0,1.331176162E0,-9.727940559E0,1.532289028E0
3.605075017E0,1.403002143E0,-9.780612946E0,1.551442742E0
3.609074483E0,1.388636947E0,-9.747094154E0,1.592144132E0
3.613074083E0,1.446097851E0,-9.718363762E0,1.608903527E0
3.617073549E0,1.551442742E0,-9.668086052E0,1.584961534E0
3.621073015E0,1.723825216E0,-9.622595787E0,1.572990537E0
3.625073614E0,1.989581585E0,-9.567529678E0,1.532289028E0
3.629073147E0,2.202665567E0,-9.519645691E0,1.486799240E0
3.633072046E0,2.286462545E0,-9.502885818E0,1.482010841E0
3.637071512E0,2.439691544E0,-9.469367027E0,1.441309452E0
3.641070978E0,2.612074137E0,-9.469367027E0,1.398213744E0
3.645070078E0,2.741360903E0,-9.469367027E0,1.352723956E0
3.649069544E0,2.887407303E0,-9.450213432E0,1.369483352E0
3.651070810E0,2.899378300E0,-9.447818756E0,1.376665950E0
3.655070276E0,2.849100113E0,-9.455001831E0,1.388636947E0
3.659069809E0,2.691082716E0,-9.471760750E0,1.381454349E0
3.663069275E0,2.485181332E0,-9.426271439E0,1.302445769E0
3.667068741E0,2.308010340E0,-9.426271439E0,1.177947283E0
3.671068007E0,2.267308950E0,-9.428665161E0,1.151610970E0
3.675067540E0,2.087743998E0,-9.383175850E0,1.077390790E0
3.679067006E0,1.987187386E0,-9.335291862E0,9.624691010E-1
3.683066472E0,1.944091797E0,-9.390357971E0,9.097966552E-1
3.687064805E0,2.039859772E0,-9.543587685E0,8.355764151E-1
3.691064405E0,2.061407566E0,-9.569923401E0,8.331822157E-1
3.695063871E0,2.133233786E0,-9.641749382E0,8.331822157E-1
3.699063337E0,2.138022184E0,-9.665691376E0,8.930372596E-1
3.703062803E0,2.097320795E0,-9.713575363E0,9.409212470E-1
3.707062403E0,2.152387381E0,-9.883563995E0,1.132457376E0
3.711061869E0,2.173935175E0,-9.912294388E0,1.163581967E0
3.715061335E0,2.161964178E0,-9.972148895E0,1.319205165E0
3.719060801E0,1.970427990E0,-1.009664822E1,1.424550056E0
3.723060334E0,2.190694571E0,-1.030733776E1,1.355118155E0
3.727059800E0,2.446874142E0,-1.036001015E1,1.470039845E0
3.731059466E0,2.461239338E0,-1.034564495E1,1.508347034E0
3.735058932E0,2.415749550E0,-1.034325027E1,1.608903527E0
3.739058465E0,2.286462545E0,-1.024269390E1,1.661576033E0
3.743057931E0,2.207453966E0,-1.003918743E1,1.711854219E0
3.747057397E0,2.078166962E0,-9.622595787E0,1.728613615E0
3.751056863E0,2.063801765E0,-9.622595787E0,1.745373011E0
3.755056396E0,2.145204782E0,-9.507674217E0,1.783680320E0
3.759055862E0,2.578555346E0,-9.627384186E0,1.845929503E0
3.763055328E0,2.825158119E0,-9.850045204E0,1.987187386E0
3.767054794E0,2.035071373E0,-9.960178375E0,1.635239720E0
3.771054394E0,1.936909199E0,-9.902717590E0,1.522712231E0
3.775053860E0,1.819593310E0,-9.703998566E0,1.307234168E0
3.779053326E0,1.769315004E0,-9.490914345E0,1.249773264E0
3.783052859E0,1.486799240E0,-9.081506729E0,1.235408068E0
3.787052392E0,1.556231141E0,-8.854057312E0,1.206677675E0
3.791051725E0,1.570596337E0,-8.839692116E0,1.182735682E0
3.795051191E0,1.714248419E0,-8.894758224E0,1.089361787E0
3.799050724E0,2.128445387E0,-9.261071205E0,1.034295082E0
3.803050190E0,2.161964178E0,-9.536404610E0,1.053448796E0
3.807049656E0,2.149993181E0,-9.778219223E0,1.137245774E0
3.811048922E0,2.149993181E0,-9.790189743E0,1.180341482E0
3.815048455E0,2.250549555E0,-9.783007622E0,1.357512355E0
3.819047921E0,2.269703150E0,-9.723152161E0,1.549048543E0
3.823047387E0,2.128445387E0,-9.651326180E0,1.790862918E0
3.827046853E0,1.953668594E0,-9.967360497E0,2.032677174E0
3.831045686E0,2.003946781E0,-1.006073475E1,2.013523579E0
3.835045218E0,2.248155355E0,-1.033367348E1,1.929726601E0
3.839044750E0,2.451662540E0,-1.049647999E1,1.896207690E0
3.843044282E0,2.444479942E0,-1.048929691E1,1.874659896E0
3.847043881E0,2.169146776E0,-1.011340714E1,1.814804912E0
3.851043547E0,2.121262789E0,-1.001285076E1,1.802833915E0
3.855043079E0,2.128445387E0,-9.708786964E0,1.821987510E0
3.859042611E0,2.042253971E0,-9.289801598E0,2.025494576E0
3.863042277E0,1.168370485E0,-9.079112053E0,2.221819162E0
3.865042910E0,1.146822572E0,-8.992920876E0,2.217030764E0
3.869042442E0,1.687912226E0,-8.928277016E0,2.298433542E0
3.873042174E0,1.637633920E0,-8.909123421E0,2.363077164E0
3.877041773E0,1.580173135E0,-8.889969826E0,2.418143749E0
3.881041305E0,1.556231141E0,-8.901941299E0,2.573766708E0
3.885040837E0,1.592144132E0,-8.949825287E0,2.712630510E0
3.889040369E0,1.802833915E0,-9.040804863E0,2.786850691E0
3.893039935E0,1.939303398E0,-9.129390717E0,2.782062292E0
3.897039401E0,2.138022184E0,-9.213187218E0,2.729389906E0
3.901038867E0,2.212242365E0,-9.285013199E0,2.655169725E0
3.905038166E0,2.209848166E0,-9.330503464E0,2.573766708E0
3.909037699E0,2.178723574E0,-9.395146370E0,2.470816135E0
3.913036232E0,2.080561161E0,-9.385569572E0,2.434903145E0
3.917035698E0,2.039859772E0,-9.323320389E0,2.319981337E0
3.921035164E0,1.996764183E0,-9.308955193E0,2.224213362E0
3.925033830E0,1.855506301E0,-9.316138268E0,2.102109194E0
3.929033296E0,1.948880196E0,-9.229947090E0,1.972822189E0
3.933032795E0,2.075772762E0,-9.208398819E0,1.963245392E0
3.937032261E0,2.281674147E0,-9.148544312E0,1.970427990E0
3.941031861E0,2.525882721E0,-9.052776337E0,2.068590164E0
3.945031327E0,2.791639090E0,-8.933065414E0,2.183511972E0
3.949030793E0,3.196259260E0,-8.765471458E0,2.420537949E0
3.953030259E0,3.519476414E0,-8.655338287E0,2.640804529E0
3.957029859E0,3.694253206E0,-8.590695381E0,2.803610086E0
3.961029325E0,3.914519787E0,-8.588300705E0,2.887407303E0
3.965028958E0,4.096478939E0,-8.619425774E0,3.047818661E0
3.969028424E0,4.378994942E0,-8.638579369E0,3.397372246E0
3.971029424E0,4.378994942E0,-8.638579369E0,3.397372246E0
3.975028890E0,4.486733913E0,-8.571541786E0,3.718195200E0
3.979028356E0,4.185064793E0,-8.796596527E0,3.828328609E0
3.983027822E0,4.407725334E0,-8.916306496E0,3.682282209E0
3.987027355E0,5.301061630E0,-8.803778648E0,3.581725836E0
3.991026788E0,5.382464886E0,-8.801384926E0,3.610456228E0
3.995026254E0,5.454290867E0,-8.928277016E0,3.672705412E0
3.999025720E0,5.219658852E0,-9.112630844E0,3.627215624E0
4.003024953E0,4.711789131E0,-9.323320389E0,3.481169224E0
4.007024419E0,3.615244627E0,-9.828496933E0,2.966415882E0
4.011024052E0,3.445256233E0,-9.919476509E0,2.873042107E0
4.015023518E0,2.964021683E0,-1.018762779E1,2.588132143E0
4.019023051E0,2.509123325E0,-1.042465305E1,2.255337954E0
4.023022050E0,2.138022184E0,-1.065449715E1,1.836352706E0
4.027021516E0,1.944091797E0,-1.082687950E1,1.453280449E0
4.031020715E0,1.912967205E0,-1.086518669E1,1.407790542E0
4.035020315E0,1.848323703E0,-1.097053146E1,1.259350061E0
4.039019448E0,1.841141105E0,-1.097771454E1,1.223437071E0
4.043018914E0,1.893813491E0,-1.092025280E1,1.252167463E0
4.047018380E0,2.015917778E0,-1.081251431E1,1.400607944E0
4.051017913E0,2.025494576E0,-1.077660084E1,1.441309452E0
4.055017379E0,2.054224968E0,-1.064013195E1,1.592144132E0
4.059016845E0,2.085349798E0,-1.051802731E1,1.793257117E0
4.063016611E0,2.140416384E0,-1.036001015E1,1.980004787E0
4.067016144E0,2.312798738E0,-1.003200436E1,2.300827742E0
4.071014510E0,2.319981337E0,-1.000327396E1,2.367865562E0
4.075013976E0,2.298433542E0,-9.900322914E0,2.528276920E0
4.079013442E0,2.284068346E0,-9.732728958E0,2.806004286E0
4.083013442E0,2.104503393E0,-9.613018990E0,3.026270866E0
4.087012908E0,1.843535304E0,-9.514857292E0,3.418920040E0
4.091012374E0,1.790862918E0,-9.512462616E0,3.533841610E0
4.095011840E0,1.582567334E0,-9.450213432E0,3.945644379E0
4.097011973E0,1.510741234E0,-9.428665161E0,4.053383350E0
4.101011439E0,1.343147159E0,-9.392752647E0,4.376600742E0
4.105010905E0,1.132457376E0,-9.342473984E0,4.848258495E0
4.109010371E0,1.012747288E0,-9.275436401E0,5.253177643E0
4.113009971E0,1.019929886E0,-9.268254280E0,5.451896667E0
4.117009437E0,9.816226959E-1,-9.213187218E0,5.674557209E0
4.121008903E0,9.696516991E-1,-9.095871925E0,5.937919617E0
4.125008369E0,1.070208192E0,-8.980949402E0,6.304232121E0
4.129007902E0,1.541865945E0,-8.818143845E0,6.524498940E0
4.131009102E0,1.541865945E0,-8.818143845E0,6.524498940E0
4.135008568E0,1.867477298E0,-8.753500938E0,6.479009151E0
4.139008034E0,2.195482969E0,-8.815750122E0,6.397606373E0
4.143007567E0,2.410961151E0,-8.892364502E0,6.328174591E0
4.147006733E0,2.260126352E0,-9.174880028E0,6.071994781E0
4.151006199E0,2.190694571E0,-9.244312286E0,6.026504993E0
4.155005665E0,2.413355350E0,-9.344868660E0,5.693710804E0
4.159005198E0,2.784456491E0,-9.344868660E0,5.411195278E0
4.163004664E0,3.014299870E0,-9.253889084E0,5.147832870E0
4.167004130E0,2.995146275E0,-9.074323654E0,4.544194698E0
4.171004063E0,2.956839085E0,-9.033622742E0,4.441244125E0
4.175003596E0,2.851494312E0,-8.964190483E0,4.185064793E0
4.179003062E0,2.928108692E0,-8.806173325E0,3.866635799E0
4.183002528E0,3.062183857E0,-8.602665901E0,3.531447411E0
4.187001994E0,3.270479441E0,-8.358457565E0,2.810792685E0
4.191001494E0,3.287238836E0,-8.324938774E0,2.715024710E0
4.195000960E0,3.363853455E0,-8.238747597E0,2.480392933E0
4.199000426E0,3.442862034E0,-8.162133217E0,2.229001760E0
4.202999892E0,3.500322819E0,-8.073547363E0,2.145204782E0
4.204999992E0,3.521870613E0,-8.020874977E0,2.094926596E0
4.208999525E0,3.725377798E0,-7.757512569E0,1.996764183E0
4.212998991E0,3.722983599E0,-7.647379398E0,1.980004787E0
4.216998457E0,3.615244627E0,-7.496544838E0,1.953668594E0
4.220997990E0,3.359065056E0,-7.302614689E0,2.001552582E0
4.224998022E0,3.268085241E0,-7.142202854E0,2.078166962E0
4.228997521E0,3.167528868E0,-6.842927933E0,2.248155355E0
4.232996587E0,3.088520288E0,-6.665756702E0,2.312798738E0
4.236996186E0,2.904166698E0,-6.373664379E0,2.545036316E0
4.240995718E0,2.726995707E0,-6.139032364E0,2.695871115E0
4.244995250E0,2.501940727E0,-5.957073212E0,2.813186884E0
4.248994782E0,2.183511972E0,-5.751171589E0,3.028665066E0
4.252994848E0,2.102109194E0,-5.712864399E0,3.126827478E0
4.256994380E0,2.087743998E0,-5.605125427E0,3.234566450E0
4.260993912E0,2.094926596E0,-5.540482044E0,3.366247654E0
4.264993444E0,2.059013367E0,-5.502174854E0,3.541024208E0
4.268993043E0,2.106897593E0,-5.514145851E0,3.914519787E0
4.272992275E0,2.130839586E0,-5.550058842E0,4.084507942E0
4.276991807E0,2.195482969E0,-5.626673222E0,4.295197964E0
4.280991339E0,2.190694571E0,-5.696105003E0,4.608838081E0
4.284990439E0,2.109291792E0,-5.710470200E0,4.841075897E0
4.288989938E0,2.078166962E0,-5.576395035E0,5.178957462E0
4.292989404E0,2.087743998E0,-5.535693645E0,5.308244228E0
4.296988870E0,2.140416384E0,-5.542876244E0,5.466261864E0
4.300988403E0,2.331952572E0,-5.727229595E0,5.341763496E0
4.304987869E0,2.626439333E0,-5.959467411E0,5.222053051E0
4.308987335E0,2.789244890E0,-6.373664379E0,5.178957462E0
4.312985901E0,2.822763920E0,-6.505345345E0,5.174169064E0
4.316985434E0,2.892195702E0,-6.689698696E0,5.214870453E0
4.320984900E0,2.966415882E0,-6.838139534E0,5.267542839E0
4.324984366E0,3.064578056E0,-7.024887085E0,5.425560474E0
4.328983832E0,3.203441858E0,-7.240365028E0,5.633855820E0
4.330983932E0,3.203441858E0,-7.240365028E0,5.633855820E0
4.334983398E0,3.430891037E0,-7.484573841E0,5.779901981E0
4.338982864E0,3.622427225E0,-7.690474987E0,5.856516838E0
4.342982330E0,3.778050184E0,-7.917924404E0,5.897218227E0
4.346981863E0,4.149151325E0,-8.506897926E0,5.811026573E0
4.350981363E0,4.209006786E0,-8.609848976E0,5.765536785E0
4.354980829E0,4.400542736E0,-8.940248489E0,5.612308025E0
4.358980295E0,4.606443882E0,-9.244312286E0,5.411195278E0
4.362979895E0,4.766855717E0,-9.622595787E0,5.035305500E0
4.366979361E0,4.970662117E0,-1.004876423E1,4.465186119E0
4.370979327E0,5.008969307E0,-1.011580181E1,4.355052948E0
4.374978793E0,5.071218491E0,-1.026424217E1,4.024652958E0
4.378978326E0,4.992209911E0,-1.038634586E1,3.766079187E0
4.382977792E0,4.874594688E0,-1.039352894E1,3.670311213E0
4.386977258E0,4.560954094E0,-1.038634586E1,3.646369219E0
4.390976524E0,4.498704910E0,-1.035761547E1,3.675099611E0
4.394976057E0,4.230554581E0,-1.012298393E1,3.883395195E0
4.398975756E0,3.979163170E0,-9.902717590E0,3.988739967E0
4.402975222E0,3.713406801E0,-9.692028046E0,4.096478939E0
4.406974688E0,3.215412855E0,-9.313743591E0,4.295197964E0
4.410974187E0,3.136404276E0,-9.251494408E0,4.328716755E0
4.414973653E0,2.932897091E0,-9.100660324E0,4.434061527E0
4.418973119E0,2.827552319E0,-9.028834343E0,4.582501888E0
4.422972585E0,2.755726099E0,-9.021651268E0,4.956296921E0
4.426972118E0,2.825158119E0,-9.237129211E0,5.669768810E0
4.430971084E0,2.810792685E0,-9.320926666E0,5.820603371E0
4.434970550E0,2.758120298E0,-9.639355659E0,6.213252544E0
4.438970083E0,2.612074137E0,-1.021875191E1,6.431125164E0
4.442969616E0,2.446874142E0,-1.076941872E1,6.325780392E0
4.446969082E0,2.336740971E0,-1.176540661E1,5.717652798E0
4.450968948E0,2.339135170E0,-1.190427017E1,5.533299446E0
4.454968481E0,2.477998734E0,-1.226100636E1,4.745307922E0
4.458967781E0,2.683900118E0,-1.248606110E1,4.163516521E0
4.462967247E0,2.925714493E0,-1.260816574E1,3.620033026E0
4.466966280E0,3.493140221E0,-1.253155136E1,2.549824715E0
4.470965813E0,3.557783842E0,-1.250760937E1,2.396595955E0
4.474965345E0,3.663128614E0,-1.255070496E1,1.963245392E0
4.478964877E0,3.691859007E0,-1.263928986E1,1.630451322E0
4.482963976E0,3.610456228E0,-1.282603741E1,1.551442742E0
4.486963575E0,3.447650433E0,-1.275181770E1,2.410961151E0
4.490963307E0,3.368641853E0,-1.269196224E1,2.693476915E0
4.494963039E0,3.021482468E0,-1.252436829E1,3.632004023E0
4.498962705E0,2.358288765E0,-1.223466969E1,4.357447147E0
4.502962504E0,1.826775908E0,-1.187314510E1,4.244919777E0
4.506962370E0,7.613561153E-1,-1.080293751E1,2.075772762E0
4.510962036E0,7.613561153E-1,-1.060421848E1,1.513135433E0
4.514961902E0,2.489969730E-1,-9.905111313E0,-9.337386489E-2
4.518961835E0,-8.858546615E-2,-9.091083527E0,-1.266532660E0
4.522961767E0,-5.267243981E-1,-8.233959198E0,-1.738190413E0
4.526962133E0,-1.367089152E0,-6.718429089E0,-5.099649429E-1
4.530962065E0,-1.539471745E0,-6.550835133E0,-1.197100878E-1
4.532962065E0,-1.735796213E0,-6.246771336E0,2.920926213E-1
4.534962065E0,-2.157175779E0,-6.112696171E0,1.187524080E0
4.538961564E0,-2.913743496E0,-5.791872978E0,2.597708941E0
4.542961930E0,-3.725377798E0,-5.461473465E0,4.627991676E0
4.546961862E0,-3.270479441E0,-5.018546104E0,6.795043468E0
4.550960828E0,-3.201047659E0,-4.989815712E0,7.046434879E0
4.554960694E0,-3.081337690E0,-5.061641693E0,7.443872452E0
4.558960627E0,-2.741360903E0,-5.406406879E0,7.592312813E0
4.562960493E0,-2.643198729E0,-5.820603371E0,7.360075474E0
4.566961426E0,-2.736572504E0,-6.981791496E0,6.323386192E0
4.570961158E0,-2.810792685E0,-7.175721645E0,6.088754177E0
4.574960890E0,-3.229778051E0,-7.814973831E0,5.140650272E0
4.578960622E0,-3.792415380E0,-8.425495148E0,4.053383350E0
4.582959922E0,-4.462791920E0,-9.059958458E0,2.937685490E0
4.586959588E0,-5.222053051E0,-1.030254936E1,1.149216771E0
4.590959254E0,-5.133467674E0,-1.050126839E1,8.595184088E-1
4.594958920E0,-4.625597477E0,-1.102320385E1,1.125274822E-1
4.596958953E0,-4.220977783E0,-1.135599804E1,-3.830722570E-1
4.600957619E0,-3.509899616E0,-1.179892540E1,-9.959878922E-1
4.604957219E0,-2.789244890E0,-1.214369011E1,-1.601720929E0
4.608956819E0,-1.647210717E0,-1.269914532E1,-2.183511972E0
4.610957952E0,-1.647210717E0,-1.269914532E1,-2.183511972E0
4.614957485E0,-1.029506683E0,-1.307982349E1,-2.588132143E0
4.618956518E0,-5.554547906E-1,-1.330487823E1,-2.559401512E0
4.622955984E0,-7.254431248E-1,-1.342937660E1,-1.766920805E0
4.626954383E0,-3.639186621E-1,-1.300081444E1,5.865794420E-1
4.630953683E0,-1.436520964E-1,-1.285955620E1,8.427590132E-1
4.634953182E0,-1.173158810E-1,-1.252197456E1,1.618480325E0
4.638952648E0,-1.532289088E-1,-1.217002678E1,2.609679937E0
4.642952614E0,-1.412578970E-1,-1.183962631E1,3.299209833E0
4.646952080E0,2.394201607E-2,-1.113812542E1,3.766079187E0
4.650951546E0,5.985504389E-2,-1.103996372E1,3.794809580E0
4.654950512E0,1.364694983E-1,-1.077660084E1,3.792415380E0
4.656950512E0,1.675941199E-1,-1.059943008E1,3.744531393E0
4.660950978E0,1.795651317E-1,-1.043422985E1,3.711012602E0
4.664950444E0,3.351882473E-2,-1.042944145E1,3.892971992E0
4.668949910E0,-3.303998411E-1,-1.040789413E1,4.546588898E0
4.672948009E0,-3.878606856E-1,-1.034325027E1,4.771644115E0
4.676947542E0,-2.729389966E-1,-1.012537861E1,4.742913723E0
4.680947008E0,-7.900865674E-1,-1.018283939E1,4.836287498E0
4.684946041E0,-2.111685991E0,-1.039831734E1,5.940313816E0
4.688945507E0,-3.414131641E0,-1.050366211E1,6.804620743E0
4.690945540E0,-3.734954596E0,-1.052521038E1,6.907571316E0
4.694944973E0,-4.604049683E0,-1.051802731E1,7.151779652E0
4.698944039E0,-5.313032627E0,-1.030494308E1,7.017704487E0
4.702943505E0,-6.304232121E0,-1.037916374E1,7.024887085E0
4.706943105E0,-8.921094894E0,-1.141106415E1,8.322544098E0
4.710942571E0,-9.201216698E0,-1.162893677E1,8.530839920E0
4.714942537E0,-9.648932457E0,-1.234959126E1,9.026439667E0
4.718941070E0,-9.828496933E0,-1.335036755E1,9.263465881E0
4.722940036E0,-9.148544312E0,-1.440142250E1,8.466196060E0
4.726939602E0,-6.033687592E0,-1.489013863E1,6.488585949E0
4.730940535E0,-6.033687592E0,-1.489013863E1,6.488585949E0
4.734939567E0,-3.713406801E0,-1.490929222E1,5.336975098E0
4.736939800E0,-3.227383852E0,-1.492365742E1,5.090372086E0
4.740939266E0,-2.109291792E0,-1.496196461E1,4.529829502E0
4.744938032E0,-1.189918280E0,-1.441099930E1,4.041412354E0
4.748937465E0,3.591302633E-1,-1.184920311E1,3.995922565E0
4.752936998E0,6.679822803E-1,-1.048929691E1,3.708618402E0
4.756936231E0,4.309563041E-1,-7.738358974E0,1.735796213E0
4.758936364E0,1.987187415E-1,-7.336133480E0,9.289502501E-1
4.762935830E0,-2.274491638E-1,-6.268319130E0,-1.005564690E0
4.766934363E0,5.410895944E-1,-3.790021181E0,-2.643198729E0
4.770933896E0,7.781155705E-1,-3.564966440E0,-2.604891539E0
4.774933362E0,1.455674648E0,-3.110068083E0,-2.085349798E0
4.778933761E0,2.121262789E0,-3.299209833E0,-9.983820915E-1
4.780934061E0,2.343923569E0,-3.502717018E0,-6.320692301E-1
4.784933427E0,2.535459518E0,-4.331110954E0,5.889736414E-1
4.788932793E0,2.609679937E0,-5.198111057E0,2.102109194E0
4.792932459E0,2.157175779E0,-5.751171589E0,2.547430515E0
4.796931992E0,1.383848548E0,-6.601113319E0,2.841917515E0
4.800931091E0,7.972691655E-1,-7.568370819E0,2.806004286E0
4.802931757E0,3.758896589E-1,-7.733570576E0,2.738966703E0
4.806931423E0,-4.525041282E-1,-8.061576843E0,2.291250944E0
4.810930689E0,-5.410895944E-1,-8.080730438E0,2.164358377E0
4.814930455E0,-6.464344859E-1,-8.188468933E0,1.709460020E0
4.818930154E0,-8.331822157E-1,-8.289025307E0,1.271321058E0
4.822929620E0,-9.792284966E-1,-8.413523674E0,9.911994934E-1
4.826930019E0,-1.285686255E0,-8.564358711E0,8.164227605E-1
4.830929518E0,-1.352723956E0,-8.583512306E0,7.565677166E-1
4.834928684E0,-1.577778935E0,-8.626607895E0,6.344634295E-1
4.838928150E0,-1.814804912E0,-8.700828552E0,4.979939461E-1
4.842927849E0,-2.154781580E0,-8.815750122E0,4.141969085E-1
4.846927382E0,-2.401384354E0,-9.076718330E0,2.873042040E-2
4.850925648E0,-2.401384354E0,-9.076718330E0,2.873042040E-2
4.854925114E0,-2.358288765E0,-9.289801598E0,-2.394201756E-1
4.858925013E0,-2.293645144E0,-9.435848236E0,-4.309563041E-1
4.862924179E0,-2.164358377E0,-9.648932457E0,-6.320692301E-1
4.866923645E0,-1.977610588E0,-1.004158115E1,-8.427590132E-1
4.870923344E0,-1.970427990E0,-1.008707142E1,-8.403648138E-1
4.874922810E0,-1.999158382E0,-1.019480991E1,-7.805097699E-1
4.878922176E0,-1.982398987E0,-1.024030018E1,-7.110779285E-1
4.882921642E0,-2.063801765E0,-1.016847420E1,-5.482721925E-1
4.886921108E0,-2.207453966E0,-9.998485565E0,-4.453215301E-1
4.890920207E0,-2.240972757E0,-9.962572098E0,-4.213795066E-1
4.892920307E0,-2.291250944E0,-9.873987198E0,-3.615244627E-1
4.896919773E0,-2.463633537E0,-9.761459351E0,-2.801215947E-1
4.900919239E0,-2.614468336E0,-9.660902977E0,-1.891419291E-1
4.904918705E0,-2.734178305E0,-9.598653793E0,-9.337386489E-2
4.908918238E0,-3.014299870E0,-9.526827812E0,1.699883193E-1
4.910918804E0,-3.014299870E0,-9.526827812E0,1.699883193E-1
4.914918270E0,-3.342305660E0,-9.512462616E0,4.668693244E-1
4.918917736E0,-3.303998232E0,-9.433453560E0,6.416460276E-1
4.922917635E0,-3.495534420E0,-9.390357971E0,8.523358107E-1
4.926917168E0,-3.624821424E0,-9.172486305E0,1.242590666E0
4.930916634E0,-3.620033026E0,-9.122207642E0,1.309628367E0
4.934916100E0,-3.742137194E0,-9.000102997E0,1.561019540E0
4.938915566E0,-3.890577793E0,-8.810961723E0,1.836352706E0
4.942915099E0,-3.785232782E0,-8.552388191E0,2.322375536E0
4.946914565E0,-3.809175014E0,-8.248324394E0,2.978386879E0
4.950914098E0,-3.703830004E0,-8.198045731E0,3.069366693E0
4.954913631E0,-3.708618402E0,-8.092700958E0,3.512293816E0
4.958913197E0,-3.430891037E0,-7.944260597E0,4.031835556E0
4.962912729E0,-3.122039080E0,-7.812579632E0,4.467580318E0
4.966912261E0,-2.521094322E0,-7.616254807E0,5.325003624E0
4.970911827E0,-2.521094322E0,-7.616254807E0,5.325003624E0
4.974911359E0,-2.025494576E0,-7.405565262E0,5.923554420E0
4.978910891E0,-1.563413739E0,-7.266701221E0,6.043264389E0
4.982910223E0,-1.443703651E0,-7.302614689E0,6.189310551E0
4.986909822E0,-1.017535686E0,-7.008127689E0,6.016928196E0
4.990909354E0,-9.385270476E-1,-6.988974094E0,5.808632374E0
4.994908886E0,-8.451532125E-1,-7.077559471E0,5.478232861E0
4.998908418E0,-1.036689281E0,-7.144597054E0,5.451896667E0
5.002908017E0,-1.340752959E0,-7.237970829E0,5.281908035E0
5.006907549E0,-1.616086125E0,-7.393594265E0,4.826710701E0
5.010907715E0,-1.628057122E0,-7.463026047E0,4.675876141E0
5.014907247E0,-1.599326730E0,-7.673715591E0,4.204218388E0
5.018906580E0,-1.719036818E0,-8.080730438E0,3.378218651E0
5.022906046E0,-1.862688899E0,-8.447042465E0,2.762908697E0
5.026905512E0,-2.331952572E0,-9.134179115E0,2.011129379E0
5.030905211E0,-2.331952572E0,-9.134179115E0,2.011129379E0
5.034904811E0,-2.597708941E0,-9.411906242E0,1.070208192E0
5.038904277E0,-2.961627483E0,-9.359233856E0,1.209071875E0
5.042903943E0,-3.327940464E0,-9.591471672E0,1.616086125E0
5.046903409E0,-3.605667830E0,-1.025466537E1,2.183511972E0
5.050902942E0,-3.581725836E0,-1.033606815E1,2.252943754E0
5.054902408E0,-3.385401249E0,-1.051802731E1,2.413355350E0
5.058901874E0,-3.071760893E0,-1.064252567E1,2.552218914E0
5.062901340E0,-2.583343744E0,-1.087955189E1,2.669534922E0
5.066900873E0,-1.256955862E0,-1.130093098E1,2.454056740E0
5.070899106E0,-9.983820915E-1,-1.142782402E1,2.322375536E0
5.074898572E0,-5.027823448E-1,-1.170555115E1,2.183511972E0
5.078898271E0,6.703764945E-2,-1.171752262E1,2.303221941E0
5.082898004E0,5.674257874E-1,-1.158823586E1,2.530671120E0
5.086897470E0,1.304839969E0,-1.091307068E1,3.253720045E0
5.090897203E0,1.304839969E0,-1.075744724E1,3.366247654E0
5.094896669E0,2.020706177E0,-1.018762779E1,3.660734415E0
5.098896202E0,2.343923569E0,-9.557952881E0,4.180276394E0
5.100896268E0,2.434903145E0,-9.143755913E0,4.465186119E0
5.104895734E0,2.504334927E0,-8.571541786E0,4.651933670E0
5.108895200E0,2.537853718E0,-7.982567787E0,4.754884720E0
5.112894800E0,2.494758129E0,-7.714416981E0,4.843470097E0
5.116893833E0,2.353500366E0,-7.352892876E0,4.788403511E0
5.120893299E0,2.082955360E0,-7.278672218E0,4.668693542E0
5.124892765E0,1.719036818E0,-7.398382664E0,4.594472885E0
5.128892365E0,1.431732655E0,-7.740753174E0,4.331110954E0
5.130893031E0,1.395819545E0,-7.853281021E0,4.209006786E0
5.132893064E0,1.328781962E0,-8.087912560E0,3.974374771E0
5.136892530E0,1.290474772E0,-8.415918350E0,3.581725836E0
5.140891996E0,1.170764685E0,-8.822932243E0,3.145981073E0
5.144891329E0,7.422025204E-1,-9.359233856E0,2.715024710E0
5.148890795E0,2.106897533E-1,-9.845256805E0,2.262520552E0
5.152890461E0,-1.268926859E-1,-1.006312943E1,2.011129379E0
5.156889927E0,-5.578489900E-1,-1.035522175E1,1.470039845E0
5.160889127E0,-8.427590132E-1,-1.062816048E1,6.631938815E-1
5.164888593E0,-9.002198577E-1,-1.065449715E1,2.633621916E-2
5.168888059E0,-8.762778044E-1,-1.064013195E1,-9.840168953E-1
5.172887525E0,-9.145850539E-1,-1.064492035E1,-1.501164436E0
5.176887491E0,-1.386242747E0,-1.065449715E1,-2.047042370E0
5.180886957E0,-1.980004787E0,-1.069280434E1,-2.106897593E0
5.182887223E0,-2.377442360E0,-1.066886234E1,-1.941697598E0
5.186886689E0,-3.083731890E0,-1.066886234E1,-1.048660398E0
5.190886222E0,-3.157952070E0,-1.068083286E1,-8.212111592E-1
5.194885388E0,-3.193865061E0,-1.069280434E1,-7.900865376E-2
5.198884854E0,-2.940079689E0,-1.066646767E1,1.098938584E0
5.202884320E0,-2.691082716E0,-1.077420712E1,1.934514999E0
5.206883920E0,-2.121262789E0,-1.115488529E1,3.076549292E0
5.210883819E0,-2.006340981E0,-1.125783539E1,3.172317266E0
5.214883285E0,-1.877054095E0,-1.184441471E1,3.442862034E0
5.218882751E0,-1.951274395E0,-1.252197456E1,3.684676409E0
5.222881851E0,-2.195482969E0,-1.315883160E1,3.854664803E0
5.226882084E0,-2.808398485E0,-1.439902782E1,3.955221176E0
5.230881550E0,-2.892195702E0,-1.461929512E1,3.931279182E0
5.234881016E0,-3.011905670E0,-1.522532749E1,3.691859007E0
5.238880549E0,-3.205836058E0,-1.602020264E1,3.181894064E0
5.242879482E0,-3.861847401E0,-1.722687912E1,1.836352706E0
5.246878948E0,-4.951508522E0,-1.951573753E1,2.968810201E-1
5.250877547E0,-5.128679276E0,-2.002330780E1,3.734954596E-1
5.254877080E0,-5.451896667E0,-2.190993881E1,1.891419291E-1
5.258876546E0,-5.641038418E0,-2.298732948E1,8.116343617E-1
5.262876012E0,-5.262754440E0,-2.326026726E1,1.036689281E0
5.266875478E0,-4.079719543E0,-2.198176384E1,6.584054828E-1
5.270874744E0,-3.881000996E0,-2.154841423E1,7.015010715E-1
5.274874210E0,-3.301604033E0,-1.996105766E1,1.242590666E0
5.278873676E0,-2.152387381E0,-1.811752319E1,2.066195965E0
5.282874309E0,-7.805097699E-1,-1.637693787E1,2.298433542E0
5.286873075E0,1.108515382E0,-1.369513321E1,1.910573006E0
5.290872974E0,1.307234168E0,-1.333600235E1,1.747767210E0
5.294872440E0,1.520318031E0,-1.250282097E1,1.321599364E0
5.298871973E0,1.213860273E0,-1.184202099E1,9.816226959E-1
5.302871106E0,7.230489254E-1,-1.160260105E1,3.639186621E-1
5.306870572E0,4.716577232E-1,-1.129374886E1,-5.817909837E-1
5.310870905E0,4.620809257E-1,-1.122910500E1,-7.685387731E-1
5.314870438E0,5.075707436E-1,-1.085560989E1,-1.534683347E0
5.318869904E0,7.350199223E-1,-1.052999878E1,-1.807622313E0
5.322869370E0,1.070208192E0,-1.027142429E1,-1.877054095E0
5.326868836E0,1.831564307E0,-9.658509254E0,-1.515529633E0
5.330867535E0,2.015917778E0,-9.550769806E0,-1.300051570E0
5.334867001E0,2.501940727E0,-9.316138268E0,-1.134851575E0
5.338866467E0,2.561795712E0,-9.150938034E0,-1.515529633E0
5.342865266E0,2.262520552E0,-9.141361237E0,-1.970427990E0
5.346864799E0,2.315192938E0,-8.822932243E0,-3.519476414E0
5.350863832E0,2.305616140E0,-8.753500938E0,-3.787626982E0
5.352864098E0,2.255337954E0,-8.612242699E0,-4.388571739E0
5.356863231E0,2.013523579E0,-8.454225540E0,-5.181351662E0
5.360863097E0,1.580173135E0,-8.212410927E0,-5.597942829E0
5.364862663E0,1.132457376E0,-7.949048996E0,-5.511751652E0
5.368861895E0,7.350199223E-1,-7.613860607E0,-4.752490520E0
5.372861427E0,6.033388376E-1,-7.508515835E0,-4.355052948E0
5.376861026E0,3.926490843E-1,-7.352892876E0,-3.634398222E0
5.380860625E0,3.040636182E-1,-7.151779652E0,-2.683900118E0
5.384860157E0,2.298433632E-1,-6.979397297E0,-1.137245774E0
5.388859689E0,-1.963245422E-1,-7.010521889E0,2.681505978E-1
5.392859288E0,-5.075707436E-1,-7.089530468E0,7.852981687E-1
5.396858820E0,-9.481038451E-1,-7.170933247E0,1.520318031E0
5.400858352E0,-1.541865945E0,-7.108684063E0,1.946485996E0
5.404857884E0,-2.109291792E0,-7.094318867E0,2.387019157E0
5.408857483E0,-3.172317266E0,-7.010521889E0,2.940079689E0
5.410857583E0,-3.483563423E0,-6.979397297E0,3.095702887E0
5.414856149E0,-4.247313976E0,-6.787860870E0,3.639186621E0
5.416856415E0,-4.541800499E0,-6.663362503E0,3.993528366E0
5.420855947E0,-4.747702122E0,-6.565200329E0,4.340687752E0
5.424855147E0,-4.958691120E0,-6.538864136E0,4.788403511E0
5.426855180E0,-5.686528206E0,-6.574777126E0,5.878064632E0
5.430854646E0,-5.885247231E0,-6.591536522E0,6.129455566E0
5.434854112E0,-6.390423775E0,-6.584353924E0,6.857293129E0
5.438853578E0,-6.512527943E0,-6.500556946E0,7.079953671E0
5.442853111E0,-6.340145588E0,-6.380846977E0,7.063194275E0
5.446852577E0,-5.676951408E0,-6.227617741E0,6.656179905E0
5.450852043E0,-5.554847240E0,-6.230011940E0,6.522104740E0
5.454851576E0,-5.143044472E0,-6.280290127E0,6.014533997E0
5.458851109E0,-4.707000732E0,-6.277895927E0,5.248389244E0
5.462850575E0,-4.426878929E0,-6.342539787E0,4.455609322E0
5.466850041E0,-4.024652958E0,-6.426336765E0,2.901772499E0
5.470849240E0,-3.983951569E0,-6.426336765E0,2.662352324E0
5.474849139E0,-3.938461781E0,-6.493374348E0,2.066195965E0
5.478848438E0,-3.852270603E0,-6.548440933E0,1.431732655E0
5.482848271E0,-3.737348795E0,-6.596324921E0,1.005564690E0
5.484848537E0,-3.711012602E0,-6.601113319E0,8.906430602E-1
5.488847603E0,-3.311181068E0,-6.584353924E0,3.280056417E-1
5.492846669E0,-3.035847664E0,-6.593930721E0,1.508347094E-1
5.496846135E0,-2.686294317E0,-6.605901718E0,-8.858546615E-2
5.500845168E0,-2.351106167E0,-6.601113319E0,-3.663128614E-1
5.504844701E0,-2.075772762E0,-6.565200329E0,-4.692635238E-1
5.508844167E0,-1.493981838E0,-6.452672958E0,-4.405331016E-1
5.512842733E0,-1.115697980E0,-6.388029575E0,-3.854664862E-1
5.516842199E0,-6.248866320E-1,-6.244377136E0,-1.173158810E-1
5.520841732E0,-2.322375625E-1,-6.095936775E0,1.987187415E-1
5.524841198E0,4.285621047E-1,-5.933131218E0,5.554547906E-1
5.528840664E0,1.453280449E0,-5.811026573E0,1.142034173E0
5.532839763E0,2.212242365E0,-5.789478779E0,1.838746905E0
5.536839296E0,2.923320293E0,-5.803843975E0,2.731784105E0
5.540838762E0,3.711012602E0,-5.880458832E0,3.727771997E0
5.544837695E0,4.438849926E0,-5.983409405E0,4.774038315E0
5.546837895E0,5.382464886E0,-6.098330975E0,6.086359978E0
5.550837661E0,5.614702225E0,-6.115090370E0,6.395212173E0
5.554837127E0,6.775889874E0,-6.172551155E0,7.556399822E0
5.558836593E0,8.037634850E0,-6.232406139E0,8.320150375E0
5.560836759E0,9.167697906E0,-6.318597794E0,8.789413452E0
5.564836292E0,1.065689087E1,-6.481403351E0,9.483732224E0
5.568835591E0,1.251479149E1,-6.737582684E0,1.048450851E1
5.572835190E0,1.349880886E1,-6.759130478E0,1.095137787E1
5.574835290E0,1.432241344E1,-6.948272705E0,1.146613121E1
5.578834822E0,1.526602840E1,-7.474997044E0,1.211256599E1
5.582834455E0,1.607766342E1,-8.135796547E0,1.267999172E1
5.584835388E0,1.634820747E1,-8.317755699E0,1.277336502E1
5.588834988E0,1.618300819E1,-8.966584206E0,1.283082581E1
5.592835021E0,1.564431286E1,-9.385569572E0,1.255788708E1
5.596834687E0,1.435114384E1,-1.007270622E1,1.211735439E1
5.600834419E0,1.252915668E1,-1.087476349E1,1.166485023E1
5.604833718E0,1.064970875E1,-1.170315742E1,1.099926186E1
5.608833450E0,7.680898190E0,-1.277575970E1,9.277831078E0
5.610833550E0,7.680898190E0,-1.277575970E1,9.277831078E0
5.614833349E0,5.992986202E0,-1.340064621E1,6.244377136E0
5.618832648E0,5.164592266E0,-1.378132439E1,4.036623955E0
5.622832380E0,4.503493309E0,-1.401356220E1,2.394201756E0
5.626832346E0,3.043030262E0,-1.371428680E1,5.506663769E-2
5.630833279E0,2.782062292E0,-1.361612415E1,-2.154781520E-1
5.634832178E0,1.936909199E0,-1.328572464E1,-7.134721279E-1
5.638831844E0,1.086967587E0,-1.294095993E1,-6.823474765E-1
5.642831543E0,-7.182605099E-3,-1.241423512E1,9.576806426E-2
5.646830009E0,-1.216254473E0,-1.161457157E1,1.788468719E0
5.650829909E0,-1.460463047E0,-1.145415974E1,2.126051188E0
5.654829509E0,-2.051830769E0,-1.099926186E1,2.815581083E0
5.658828909E0,-2.614468336E0,-1.054196930E1,3.299209833E0
5.662828375E0,-3.069366693E0,-1.031691456E1,3.490746021E0
5.664828541E0,-3.320757866E0,-1.024508858E1,3.438073635E0
5.666829074E0,-3.490746021E0,-1.020199299E1,3.217807055E0
5.670828540E0,-3.524264812E0,-1.022354031E1,3.095702887E0
5.674828073E0,-3.383007050E0,-1.053957558E1,2.463633537E0
5.676828239E0,-3.251325846E0,-1.067365074E1,2.324769735E0
5.680827705E0,-2.291250944E0,-1.144937134E1,2.047042370E0
5.684826971E0,-1.134851575E0,-1.229213047E1,2.142810583E0
5.688826437E0,7.398083210E-1,-1.390582275E1,2.636016130E0
5.692826036E0,1.635239720E0,-1.492605209E1,2.839523315E0
5.694826202E0,2.580949545E0,-1.609442329E1,2.985569477E0
5.698825668E0,3.857059002E0,-1.790922737E1,3.088520288E0
5.702825134E0,4.953902721E0,-2.024836159E1,3.483563423E0
5.706824734E0,5.329792023E0,-2.190275574E1,3.754108191E0
5.710823900E0,5.183745861E0,-2.196739960E1,3.691859007E0
5.714823366E0,4.417302132E0,-2.129941750E1,3.296815634E0
5.718823032E0,2.791639090E0,-1.828751183E1,2.509123325E0
5.722822565E0,9.217676520E-1,-1.526602840E1,2.214636564E0
5.726821231E0,-1.802833915E0,-1.089870548E1,2.801215887E0
5.730820597E0,-2.248155355E0,-9.593865395E0,3.138798475E0
5.734820063E0,-3.727771997E0,-8.025663376E0,4.800374508E0
5.738819596E0,-4.613626480E0,-6.828562737E0,5.832574844E0
5.742819062E0,-5.143044472E0,-5.818209171E0,6.349722385E0
5.746818728E0,-6.177339554E0,-4.548983097E0,5.004180908E0
5.750817794E0,-6.627449512E0,-4.505887508E0,4.568136692E0
5.754817327E0,-7.901165009E0,-4.546588898E0,3.385401249E0
5.758816793E0,-8.609848976E0,-4.537012100E0,2.724601507E0
5.762816259E0,-8.755894661E0,-4.450820923E0,2.406172752E0
5.766815725E0,-7.791031837E0,-4.496310711E0,2.561795712E0
5.770815258E0,-7.544428825E0,-4.493916512E0,2.707842112E0
5.774814724E0,-7.044040680E0,-4.522646904E0,3.062183857E0
5.778814190E0,-7.173327446E0,-4.647145271E0,3.620033026E0
5.782813723E0,-7.513304234E0,-4.718971729E0,4.141968727E0
5.786813256E0,-7.989750385E0,-5.083189487E0,4.764461517E0
5.790811889E0,-7.989750385E0,-5.083189487E0,4.764461517E0
5.794811355E0,-8.700828552E0,-6.009745598E0,4.357447147E0
5.798810888E0,-9.268254280E0,-7.072771072E0,3.596091032E0
5.802810421E0,-9.572318077E0,-8.128614426E0,2.578555346E0
5.806809887E0,-8.763077736E0,-1.047493172E1,-6.943184882E-2
5.810809353E0,-8.327332497E0,-1.086279202E1,-5.003881454E-1
5.814808886E0,-6.826168537E0,-1.210538292E1,-1.678335428E0
5.818808319E0,-5.346551895E0,-1.339585781E1,-2.432508945E0
5.822807785E0,-3.593696833E0,-1.494759941E1,-2.930502892E0
5.824808351E0,-3.232172251E0,-1.535461426E1,-3.004723072E0
5.828807817E0,-1.987187386E0,-1.687972069E1,-2.803610086E0
5.832807350E0,-1.170764685E0,-1.772008514E1,-2.336740971E0
5.836806816E0,-5.793967843E-1,-1.834497261E1,-1.539471745E0
5.840806282E0,-4.189853072E-1,-1.890042686E1,-4.716577232E-1
5.844805881E0,-5.027823523E-2,-1.918533707E1,1.754949808E0
5.848805414E0,6.631938815E-1,-1.858678627E1,3.430891037E0
5.850806080E0,8.427590132E-1,-1.834736633E1,3.754108191E0
5.854804713E0,1.204283476E0,-1.735377312E1,4.359841347E0
5.858804179E0,1.620874524E0,-1.596513557E1,4.055777550E0
5.862803712E0,1.335964561E0,-1.443494129E1,2.219424963E0
5.866803178E0,-9.193734527E-1,-1.164090824E1,3.335123062E0
5.870801711E0,-8.547300100E-1,-1.113812542E1,3.962403774E0
5.874800710E0,-1.015141487E0,-9.871592522E0,5.779901981E0
5.878800343E0,-1.101332784E0,-8.861239433E0,7.577947617E0
5.882799809E0,-9.217676520E-1,-7.731176376E0,1.013734913E1
5.886798642E0,-1.254561663E0,-6.869264126E0,1.316362000E1
5.890798141E0,-1.343147159E0,-6.778284073E0,1.361612415E1
5.894797774E0,-1.604115129E0,-6.684910297E0,1.444930649E1
5.898797240E0,-1.970427990E0,-6.670545101E0,1.504336739E1
5.902796706E0,-2.863465309E0,-6.675333500E0,1.621173859E1
5.906796039E0,-4.534617901E0,-6.835745335E0,1.648707199E1
5.910795772E0,-4.903624535E0,-6.912359715E0,1.531151867E1
5.912796338E0,-5.030517101E0,-6.926724911E0,1.443494129E1
5.916795804E0,-5.837363243E0,-7.094318867E0,1.153556347E1
5.920795270E0,-8.549993515E0,-8.267477989E0,8.523657799E0
5.924794803E0,-9.883563995E0,-9.914688110E0,5.937919617E0
5.928794269E0,-7.269095421E0,-1.052760410E1,6.036081791E0
5.930794935E0,-6.723217487E0,-1.079814911E1,5.961861610E0
5.934793968E0,-8.643367767E0,-1.295532513E1,1.740584612E0
5.938793434E0,-8.415918350E0,-1.409975338E1,-2.147598982E0
5.942792967E0,-6.115090370E0,-1.382920837E1,-2.576161146E0
5.946792233E0,-2.803610086E0,-1.088194561E1,-5.554547906E-1
5.950791366E0,-2.284068346E0,-1.025227070E1,-3.830722570E-1
5.954790799E0,-1.477222443E0,-8.813355446E0,-9.744400978E-1
5.958790332E0,-2.056619167E0,-8.090307236E0,-1.757344007E0
5.962788865E0,-1.874659896E0,-7.451055050E0,-1.879448295E0
5.966788331E0,5.147533417E-1,-6.502951145E0,-6.919242740E-1
5.970787797E0,8.858546019E-1,-6.464643955E0,-5.937620401E-1
5.974787263E0,1.446097851E0,-6.294655323E0,1.651999205E-1
5.978786729E0,1.467645645E0,-6.007351398E0,1.120486379E0
5.982786195E0,8.810662031E-1,-5.937919617E0,1.920149803E0
5.986785428E0,3.351882398E-1,-6.258742332E0,2.482787132E0
5.990784960E0,2.106897533E-1,-6.344933987E0,2.430114746E0
5.994785392E0,-2.226607651E-1,-6.665756702E0,2.319981337E0
5.998784924E0,-6.847416759E-1,-7.056011677E0,2.358288765E0
6.002784090E0,-1.316810966E0,-7.575553417E0,2.542642117E0
6.006783622E0,-1.771709204E0,-8.063970566E0,2.557007313E0
6.010783454E0,-1.872265697E0,-8.102277756E0,2.525882721E0
6.014782986E0,-2.015917778E0,-8.183680534E0,2.226607561E0
6.016783552E0,-2.001552582E0,-8.202834129E0,2.082955360E0
6.020784085E0,-1.905784607E0,-8.226776123E0,1.613691926E0
6.024783617E0,-1.929726601E0,-8.138191223E0,1.115697980E0
6.028783149E0,-1.589749932E0,-7.932289600E0,7.829039693E-1
6.032782615E0,-1.410184860E0,-7.798214436E0,6.200982332E-1
6.034782748E0,-1.197100878E0,-7.656956196E0,5.722141862E-1
6.038782280E0,-9.265560508E-1,-7.182904243E0,3.327940404E-1
6.042781812E0,-8.906430602E-1,-6.945878506E0,6.703764945E-2
6.044781878E0,-8.619126081E-1,-6.866869926E0,-5.746084079E-2
6.048781444E0,-1.249773264E0,-6.953061104E0,-1.077390760E-1
6.050781710E0,-1.249773264E0,-6.953061104E0,-1.077390760E-1
6.054780743E0,-9.385270476E-1,-7.094318867E0,5.985504389E-2
6.058780209E0,-1.101332754E-1,-7.367258072E0,3.399766386E-1
6.060780375E0,1.580173075E-1,-7.680898190E0,5.171475410E-1
6.064779908E0,1.460463107E-1,-8.140584946E0,7.445967197E-1
6.068779374E0,-2.633621991E-1,-8.571541786E0,8.978256583E-1
6.072778407E0,-4.094084799E-1,-8.679280281E0,8.643068075E-1
6.076776640E0,-6.296750307E-1,-8.844480515E0,7.541735172E-1
6.080776173E0,-7.829039693E-1,-8.978555679E0,4.812345505E-1
6.084775639E0,-1.077390790E0,-9.184456825E0,6.224924326E-2
6.088775105E0,-1.606509328E0,-9.344868660E0,-1.651999205E-1
6.092774571E0,-1.891419291E0,-9.378387451E0,-2.442085743E-1
6.096773804E0,-2.413355350E0,-9.299378395E0,-3.447650373E-1
6.100772903E0,-2.803610086E0,-9.198822021E0,-4.333505034E-1
6.102773136E0,-2.966415882E0,-9.158121109E0,-4.285621047E-1
6.106772602E0,-3.845088005E0,-8.949825287E0,-2.274491638E-1
6.110772101E0,-3.916913986E0,-8.913911819E0,-1.963245422E-1
6.112772334E0,-4.036623955E0,-8.892364502E0,-1.053448766E-1
6.116771800E0,-4.146757126E0,-8.913911819E0,1.221042871E-1
6.120771266E0,-4.273650169E0,-8.947430611E0,4.477157295E-1
6.124770732E0,-4.194641590E0,-8.957007408E0,7.541735172E-1
6.128770332E0,-3.976768970E0,-9.026439667E0,1.326387763E0
6.132770331E0,-4.070142746E0,-9.050381660E0,1.651999116E0
6.136770230E0,-4.216189384E0,-9.036016464E0,2.221819162E0
6.140769696E0,-4.220977783E0,-9.009679794E0,2.851494312E0
6.144769229E0,-4.309563160E0,-8.997709274E0,3.576937437E0
6.148768695E0,-4.302380562E0,-8.863634109E0,4.228160381E0
6.152767228E0,-4.359841347E0,-8.842085838E0,4.505887508E0
6.156766694E0,-4.297592163E0,-8.708010674E0,5.147832870E0
6.160766594E0,-4.091690540E0,-8.521263123E0,5.617096424E0
6.164765560E0,-3.955221176E0,-8.205228806E0,5.983409405E0
6.168765026E0,-3.179499865E0,-7.587524414E0,6.309020519E0
6.172763059E0,-2.683900118E0,-7.345710278E0,6.435913563E0
6.176762592E0,-2.056619167E0,-7.024887085E0,6.368875980E0
6.180762058E0,-1.403002143E0,-6.696881294E0,6.148609161E0
6.184761091E0,-7.852981687E-1,-6.404788971E0,5.851728439E0
6.188760524E0,-4.022258818E-1,-5.997774601E0,5.650615215E0
6.192760190E0,-3.950432837E-1,-5.894824028E0,5.490203857E0
6.196759656E0,-3.208230138E-1,-5.827786446E0,5.236418247E0
6.200759122E0,-4.333505034E-1,-5.837363243E0,4.826710701E0
6.204758655E0,-8.858546019E-1,-6.033687592E0,4.376600742E0
6.208758188E0,-1.302445769E0,-6.476614952E0,3.629609823E0
6.212758354E0,-1.520318031E0,-6.785466671E0,3.021482468E0
6.216757820E0,-2.525882721E0,-7.489362240E0,1.728613615E0
6.218758053E0,-2.849100113E0,-7.700051785E0,1.601720929E0
6.222757586E0,-3.857059002E0,-8.708010674E0,1.489193439E0
6.226757052E0,-5.523722649E0,-1.000088024E1,1.841141105E0
6.230757451E0,-5.720046997E0,-1.019720459E1,1.932120800E0
6.234756917E0,-6.151003361E0,-1.065210247E1,2.090138197E0
6.238756450E0,-6.356904984E0,-1.080293751E1,2.540247917E0
6.242755916E0,-5.767930984E0,-1.087715721E1,2.755726099E0
6.244756082E0,-5.545270443E0,-1.085800362E1,2.808398485E0
6.248755548E0,-4.577713490E0,-1.057548809E1,3.208230257E0
6.252754848E0,-3.938461781E0,-1.059464169E1,3.564966440E0
6.256754314E0,-3.138798475E0,-1.059943008E1,3.423708439E0
6.260753780E0,-2.090138197E0,-1.052042198E1,3.708618402E0
6.264752813E0,-1.690306425E0,-1.044859505E1,3.971980572E0
6.268752346E0,-1.321599364E0,-1.012298393E1,4.213795185E0
6.272752045E0,-1.156399369E0,-9.912294388E0,4.326322556E0
6.276751511E0,-8.762778044E-1,-9.455001831E0,4.651933670E0
6.280750477E0,-6.081272364E-1,-9.167697906E0,4.855441093E0
6.284750077E0,-1.436520964E-1,-8.904335022E0,4.893748283E0
6.288749543E0,8.930372596E-1,-8.480561256E0,4.898836136E0
6.292748076E0,1.273715258E0,-8.308178902E0,4.891354084E0
6.296747542E0,1.802833915E0,-8.085518837E0,4.817133904E0
6.300747142E0,2.257732153E0,-7.877223015E0,4.709394932E0
6.304746608E0,2.504334927E0,-7.544428825E0,4.874594688E0
6.308746107E0,2.748543501E0,-7.374440670E0,4.668693542E0
6.312745140E0,2.827552319E0,-7.309797287E0,4.570530891E0
6.316744673E0,3.059789658E0,-7.209240437E0,4.390965939E0
6.320744139E0,3.469198227E0,-7.132626057E0,3.991134167E0
6.324744038E0,3.586514235E0,-7.156568050E0,3.648763418E0
6.328743504E0,3.380612850E0,-7.307403088E0,3.232172251E0
6.332743037E0,3.153163671E0,-7.436689854E0,3.014299870E0
6.336742136E0,2.511517525E0,-7.702445984E0,2.547430515E0
6.340741602E0,1.872265697E0,-7.920318604E0,2.226607561E0
6.344741068E0,9.744400978E-1,-8.159738541E0,1.881842494E0
6.348740601E0,-7.182605267E-1,-8.755894661E0,1.213860273E0
6.350741267E0,-7.182605267E-1,-8.755894661E0,1.213860273E0
6.354740300E0,-1.673547029E0,-9.088688850E0,7.517793179E-1
6.358739766E0,-2.935291290E0,-9.706393242E0,-2.873041928E-1
6.362739299E0,-3.928884983E0,-1.028578949E1,-1.192312479E0
6.366738765E0,-5.691316605E0,-1.158823586E1,-2.075772762E0
6.370738464E0,-6.081571579E0,-1.183723259E1,-2.118868589E0
6.374737930E0,-7.525275230E0,-1.264886665E1,-1.905784607E0
6.378737530E0,-8.269871712E0,-1.346529007E1,-1.328781962E0
6.382737062E0,-8.538022995E0,-1.425298214E1,-3.423708379E-1
6.386736094E0,-7.723993778E0,-1.564670658E1,1.594538331E0
6.390735626E0,-7.508515835E0,-1.582387733E1,1.798045516E0
6.394735592E0,-7.012916088E0,-1.631947708E1,2.166752577E0
6.398735124E0,-6.742371082E0,-1.682465363E1,2.274491549E0
6.402734656E0,-6.474220753E0,-1.752136612E1,2.197877169E0
6.406734188E0,-6.206069946E0,-1.791401482E1,2.195482969E0
6.410733788E0,-6.117484570E0,-1.789725685E1,2.169146776E0
6.412733988E0,-5.909189224E0,-1.782782364E1,2.104503393E0
6.416733520E0,-5.729623795E0,-1.772487450E1,2.149993181E0
6.420733052E0,-5.461473465E0,-1.759079933E1,2.219424963E0
6.424732651E0,-4.898836136E0,-1.734898376E1,2.149993181E0
6.428732183E0,-4.323928356E0,-1.727236938E1,2.042253971E0
6.432731915E0,-3.924096584E0,-1.730109978E1,1.807622313E0
6.436731447E0,-3.653551817E0,-1.750939560E1,1.505952835E0
6.440730547E0,-3.725377798E0,-1.803372574E1,3.399766386E-1
6.444730513E0,-3.706224203E0,-1.880226517E1,-9.864110947E-1
6.448729979E0,-4.036623955E0,-2.008076859E1,-1.170764685E0
6.452729012E0,-4.592078686E0,-2.070804977E1,-3.734954596E-1
6.456728612E0,-4.570530891E0,-2.133293533E1,-4.908113480E-1
6.460728078E0,-4.659116745E0,-2.147898293E1,-1.108515382E0
6.464727544E0,-4.510675907E0,-2.094268036E1,-1.613691926E0
6.468727043E0,-2.772485495E0,-1.821568489E1,-1.453280449E0
6.472725609E0,-1.927332401E0,-1.698027611E1,-8.451532125E-1
6.476725075E0,-7.062895298E-1,-1.523011589E1,-1.675941236E-2
6.480724541E0,3.519476354E-1,-1.372386360E1,6.943184882E-2
6.484724307E0,9.744400978E-1,-1.233522606E1,-5.195417404E-1
6.488723840E0,7.278373241E-1,-1.146134281E1,-7.685387731E-1
6.492723306E0,6.512228847E-1,-1.104235744E1,-7.589619160E-1
6.496722772E0,5.602431893E-1,-1.052281570E1,-8.810662031E-1
6.498722972E0,4.620809257E-1,-1.027381897E1,-1.082179189E0
6.500723305E0,3.663128614E-1,-1.008946514E1,-1.316810966E0
6.504722838E0,4.908113480E-1,-9.895534515E0,-1.908178806E0
6.508722304E0,1.130063176E0,-9.775824547E0,-2.937685490E0
6.510722470E0,1.283292055E0,-9.759065628E0,-3.203441858E0
6.514721936E0,1.510741234E0,-9.699210167E0,-3.952826977E0
6.518721035E0,1.539471745E0,-9.648932457E0,-4.474762917E0
6.522720501E0,1.331176162E0,-9.593865395E0,-4.718971729E0
6.526719967E0,1.477222443E0,-9.172486305E0,-4.980238914E0
6.530719433E0,1.355118155E0,-9.129390717E0,-4.879383087E0
6.534719033E0,9.504981041E-1,-9.083900452E0,-4.333505154E0
6.538718499E0,3.998316824E-1,-9.136572838E0,-3.488351822E0
6.542717865E0,4.285621047E-1,-8.889969826E0,-3.215412855E0
6.546717531E0,3.064578176E-1,-8.341697693E0,-2.499546528E0
6.550717464E0,1.173158810E-1,-8.119037628E0,-2.114080191E0
6.554716930E0,-1.915361285E-1,-7.853281021E0,-1.644816518E0
6.558716396E0,-2.011129409E-1,-7.228394032E0,-1.319205165E0
6.562715262E0,-1.364694983E-1,-6.577171326E0,-4.070142806E-1
6.566714795E0,-8.882488012E-1,-6.450278759E0,-1.034295082E0
6.570714261E0,-1.086967587E0,-6.502951145E0,-1.455674648E0
6.574713727E0,-1.479616642E0,-6.711246490E0,-2.415749550E0
6.578713626E0,-1.668758631E0,-6.816591740E0,-2.947262287E0
6.582713159E0,-2.236184359E0,-6.842927933E0,-2.935291290E0
6.586712258E0,-2.817975283E0,-6.629843712E0,-2.149993181E0
6.590711724E0,-2.937685490E0,-6.589142323E0,-1.939303398E0
6.594711190E0,-3.462015629E0,-6.577171326E0,-1.154005170E0
6.598710723E0,-4.098873138E0,-6.483797550E0,4.309562966E-2
6.602710289E0,-4.446032524E0,-6.457461357E0,1.120486379E0
6.606709255E0,-4.819528103E0,-6.253953934E0,3.301604033E0
6.610708354E0,-5.054459095E0,-6.210858345E0,4.261679173E0
6.614707920E0,-5.387253284E0,-6.155791759E0,5.633855820E0
6.618707452E0,-5.633855820E0,-5.995380402E0,6.771101475E0
6.622706984E0,-5.748777390E0,-5.770325184E0,7.613860607E0
6.626706583E0,-5.664980412E0,-5.095160484E0,8.214805603E0
6.630706249E0,-5.638644218E0,-4.975450516E0,8.157344818E0
6.634706681E0,-5.574000835E0,-4.690241337E0,7.800608635E0
6.636707381E0,-5.499780655E0,-4.580107689E0,7.419930458E0
6.640707113E0,-5.339369297E0,-4.556165695E0,6.694487095E0
6.644707346E0,-5.145438671E0,-4.704606533E0,5.885247231E0
6.648706779E0,-4.896441936E0,-5.001786709E0,4.496310711E0
6.650707812E0,-4.896441936E0,-5.001786709E0,4.496310711E0
6.654707678E0,-4.807557106E0,-5.174169064E0,3.538630009E0
6.658707611E0,-4.738125324E0,-5.351340294E0,2.846705914E0
6.662707543E0,-4.608838081E0,-5.547664642E0,2.157175779E0
6.666707475E0,-4.015076160E0,-5.789478779E0,1.268926859E0
6.670707408E0,-3.892971992E0,-5.818209171E0,1.175553083E0
6.674707374E0,-3.502717018E0,-5.834969044E0,9.624691010E-1
6.678707306E0,-3.064578056E0,-5.782296181E0,8.619126081E-1
6.682707238E0,-2.573766708E0,-5.715258598E0,8.068459630E-1
6.686707170E0,-1.551442742E0,-5.794267178E0,6.488286853E-1
6.688707170E0,-1.386242747E0,-5.803843975E0,6.560112834E-1
6.692706070E0,-1.113303781E0,-5.844545841E0,7.134721279E-1
6.696704336E0,-7.158663273E-1,-5.909189224E0,9.217676520E-1
6.700704136E0,-3.663128614E-1,-5.997774601E0,1.244984865E0
6.704703002E0,-9.337386489E-2,-6.038475990E0,1.616086125E0
6.706703335E0,2.154781520E-1,-5.942708015E0,2.066195965E0
6.710702801E0,3.399766386E-1,-5.942708015E0,2.154781580E0
6.714702601E0,1.149216771E0,-5.791872978E0,2.545036316E0
6.718702401E0,2.073378563E0,-5.837363243E0,3.011905670E0
6.722701834E0,3.318363667E0,-6.033687592E0,3.833117008E0
6.726701566E0,5.743988991E0,-6.500556946E0,6.045658588E0
6.730700399E0,6.620266914E0,-6.620266914E0,7.158962250E0
6.734700131E0,7.915530205E0,-6.845322132E0,8.746317863E0
6.738699864E0,9.170091629E0,-7.077559471E0,1.009425354E1
6.742699530E0,1.084363842E1,-7.350498676E0,1.105672264E1
6.746699196E0,1.411172390E1,-8.229170799E0,1.226579475E1
6.750699762E0,1.545517063E1,-8.705616951E0,1.244775391E1
6.754699428E0,1.739686775E1,-9.560346603E0,1.251957989E1
6.758699028E0,1.909196281E1,-1.109502983E1,1.239268684E1
6.762699561E0,2.078945160E1,-1.243338871E1,1.224664116E1
6.766699161E0,2.043750381E1,-1.442775917E1,1.206707573E1
6.770698861E0,1.989641380E1,-1.466957283E1,1.198088455E1
6.774698327E0,1.629792976E1,-1.520856762E1,1.127698898E1
6.778697793E0,1.300560284E1,-1.521335602E1,1.050605679E1
6.782697692E0,1.009425354E1,-1.518223190E1,9.529222488E0
6.786697225E0,6.706458092E0,-1.494520569E1,7.372046471E0
6.790697624E0,5.760748386E0,-1.486380291E1,6.112696171E0
6.794697090E0,4.795586109E0,-1.470578575E1,4.156333923E0
6.798696623E0,3.854664803E0,-1.449240208E1,2.358288765E0
6.802696156E0,2.671929121E0,-1.422904015E1,1.283292055E0
6.806695622E0,-2.035071403E-1,-1.364246082E1,1.244984865E0
6.810695088E0,-6.272808313E-1,-1.351796246E1,1.391031146E0
6.814694621E0,-1.786074519E0,-1.306306362E1,2.037465572E0
6.818694087E0,-3.059789658E0,-1.219396877E1,2.540247917E0
6.822693386E0,-3.919308186E0,-1.149725628E1,2.655169725E0
6.826692852E0,-5.351340294E0,-1.045098972E1,2.233790159E0
6.830692385E0,-5.569212437E0,-1.023790550E1,1.980004787E0
6.834691851E0,-6.146214962E0,-9.529222488E0,7.996633649E-1
6.838691317E0,-6.421548367E0,-9.301773071E0,1.221042871E-1
6.842690583E0,-6.488585949E0,-9.318531990E0,-1.963245422E-1
6.846689649E0,-6.186916351E0,-9.653720856E0,-2.298433632E-1
6.850689115E0,-5.928342819E0,-9.828496933E0,-1.915361285E-1
6.854688581E0,-5.432743073E0,-1.011340714E1,-7.900865376E-2
6.858688047E0,-4.757278919E0,-1.045098972E1,-9.576806799E-3
6.862687580E0,-3.866635799E0,-1.122910500E1,4.788403399E-3
6.866687046E0,-1.450886250E0,-1.284758568E1,5.075707436E-1
6.870686345E0,-1.019929886E0,-1.324981117E1,7.517793179E-1
6.874685811E0,1.604115069E-1,-1.464563084E1,1.661576033E0
6.878685411E0,1.673547029E0,-1.676719284E1,3.083731890E0
6.882685044E0,2.334346771E0,-1.830426979E1,4.110844135E0
6.886684510E0,2.190694571E0,-1.930265236E1,5.176563263E0
6.890683976E0,2.085349798E0,-1.912308693E1,5.262754440E0
6.894683509E0,1.379060149E0,-1.689887428E1,5.377676487E0
6.898682975E0,6.679822803E-1,-1.405426311E1,5.562029839E0
6.902682641E0,-2.322375625E-1,-1.140388203E1,6.057629585E0
6.904682841E0,-7.469909191E-1,-9.921871185E0,6.457461357E0
6.908682374E0,-1.862688899E0,-7.750329971E0,6.878840923E0
6.912681507E0,-2.439691544E0,-6.926724911E0,6.759130478E0
6.916680973E0,-4.005499363E0,-5.928342819E0,5.590760231E0
6.920680006E0,-5.794267178E0,-5.585971832E0,3.854664803E0
6.924679539E0,-7.635408401E0,-5.473444462E0,1.944091797E0
6.928679005E0,-9.330503464E0,-5.468656063E0,-4.548983276E-2
6.932678671E0,-9.689633369E0,-5.516540051E0,-8.116343617E-1
6.936678137E0,-9.318531990E0,-5.578789234E0,-1.175553083E0
6.940677670E0,-8.267477989E0,-5.468656063E0,-9.241618514E-1
6.944677136E0,-6.984185696E0,-5.380070686E0,1.197100878E-1
6.948676602E0,-6.385635376E0,-5.542876244E0,2.796427488E0
6.950676635E0,-6.385635376E0,-5.542876244E0,2.796427488E0
6.954676135E0,-7.046434879E0,-5.782296181E0,3.828328609E0
6.958675668E0,-7.458237648E0,-5.995380402E0,4.024652958E0
6.962675134E0,-7.975385189E0,-6.400000572E0,3.641580820E0
6.966674600E0,-8.583512306E0,-7.336133480E0,2.655169725E0
6.970674033E0,-8.547599792E0,-7.654561996E0,2.370259762E0
6.974673566E0,-8.363245964E0,-8.212410927E0,2.159569979E0
6.978673465E0,-7.908347607E0,-8.803778648E0,2.015917778E0
6.982672931E0,-6.933907509E0,-9.622595787E0,1.525106430E0
6.986672464E0,-5.655403614E0,-1.108066463E1,8.259995580E-1
6.990671930E0,-5.420772076E0,-1.139430523E1,8.499416113E-1
6.994671396E0,-4.675876141E0,-1.243338871E1,1.091755986E0
6.998670529E0,-3.526659012E0,-1.369752693E1,1.115697980E0
7.002670062E0,-2.827552319E0,-1.459056473E1,9.097966552E-1
7.006669528E0,-2.023100376E0,-1.604174995E1,6.703764796E-1
7.010668694E0,-1.879448295E0,-1.627159309E1,5.195417404E-1
7.014668193E0,-1.640028119E0,-1.700182533E1,3.615244627E-1
7.018667726E0,-1.501164436E0,-1.706407356E1,4.333505034E-1
7.022667192E0,-1.604115129E0,-1.670015526E1,2.394201700E-3
7.026666658E0,-2.975992680E0,-1.575444603E1,9.313444495E-1
7.030665791E0,-2.930502892E0,-1.492844582E1,2.398990154E0
7.034665324E0,-2.841917515E0,-1.381723690E1,4.455609322E0
7.038664790E0,-2.791639090E0,-1.288828659E1,6.380846977E0
7.042663823E0,-2.382230759E0,-1.173428154E1,8.813355446E0
7.046663289E0,-1.821987510E0,-1.060182476E1,1.119079781E1
7.050662889E0,-1.711854219E0,-1.041747093E1,1.160978317E1
7.054662421E0,-1.328781962E0,-9.926659584E0,1.279012489E1
7.056662521E0,-1.151610970E0,-9.651326180E0,1.353950977E1
7.060662053E0,-9.241618514E-1,-9.167697906E0,1.462647724E1
7.064661652E0,-1.939303398E0,-8.696040154E0,1.522532749E1
7.068661184E0,-3.921702385E0,-8.928277016E0,1.264647293E1
7.072660716E0,-4.726154327E0,-9.093477249E0,1.053478718E1
7.076660248E0,-6.141426563E0,-9.330503464E0,8.004115105E0
7.080659847E0,-7.340921879E0,-9.579500198E0,6.888417721E0
7.084659379E0,-8.348880768E0,-9.924264908E0,7.372046471E0
7.088658911E0,-1.013495541E1,-1.109263611E1,8.760683060E0
7.090659444E0,-1.037198067E1,-1.140627575E1,9.031228065E0
7.094658976E0,-1.014213753E1,-1.226579475E1,8.763077736E0
7.098658575E0,-8.935460091E0,-1.313249588E1,6.076783180E0
7.102658541E0,-5.811026573E0,-1.300320911E1,4.118026733E0
7.106658073E0,-3.141192675E0,-1.132966137E1,4.510675907E0
7.110657605E0,-2.420537949E0,-1.043901825E1,4.565742493E0
7.114657138E0,-2.681505978E-1,-7.084742069E0,2.075772762E0
7.118656604E0,-1.704671621E0,-6.364087582E0,-3.895366192E0
7.122656070E0,-3.078943491E0,-6.565200329E0,-5.066430092E0
7.126655169E0,-2.485181332E0,-6.447884560E0,-2.779668093E0
7.130654702E0,-1.623268723E0,-6.431125164E0,-1.582567334E0
7.134654168E0,-5.554547906E-1,-6.708852291E0,-1.101332754E-1
7.138653634E0,-3.830722719E-2,-7.012916088E0,9.840168953E-1
7.142653167E0,1.915361360E-2,-7.216423035E0,1.814804912E0
7.146652633E0,-4.548983276E-2,-7.364863873E0,2.202665567E0
7.150652099E0,-3.663128614E-1,-7.621043205E0,2.394201756E0
7.154651565E0,-9.433154464E-1,-7.860463619E0,2.600103140E0
7.158651098E0,-1.570596337E0,-8.006509781E0,2.755726099E0
7.162650564E0,-2.518700123E0,-8.382399559E0,2.571372509E0
7.166650030E0,-2.712630510E0,-7.975385189E0,1.936909199E0
7.170649463E0,-2.516305923E0,-7.879617214E0,1.771709204E0
7.174648996E0,-1.989581585E0,-7.563582420E0,1.333570361E0
7.178648462E0,-1.606509328E0,-7.273883820E0,7.038952708E-1
7.182647928E0,-1.223437071E0,-7.161356449E0,3.208230138E-1
7.186647527E0,-7.326257229E-1,-7.044040680E0,9.337386489E-2
7.190647460E0,-4.908113480E-1,-7.024887085E0,2.154781483E-2
7.194646926E0,-2.130839527E-1,-6.981791496E0,-1.436520964E-1
7.198646392E0,7.182604820E-2,-6.984185696E0,-2.513911724E-1
7.202645425E0,1.460463107E-1,-7.108684063E0,-2.466027737E-1
7.206645025E0,3.040636182E-1,-7.340921879E0,-3.758896589E-1
7.210644491E0,4.261679053E-1,-7.479785442E0,-3.160346150E-1
7.214643957E0,5.027823448E-1,-7.714416981E0,-2.322375625E-1
7.218643423E0,5.123591423E-1,-8.030451775E0,-2.106897533E-1
7.222643023E0,4.022258818E-1,-8.406341553E0,-5.746084079E-2
7.226642156E0,3.687070608E-1,-8.674491882E0,1.580173075E-1
7.230641655E0,2.777273953E-1,-8.698433876E0,1.843535304E-1
7.234641121E0,1.244984865E-1,-8.815750122E0,1.939303428E-1
7.238639720E0,-2.609679997E-1,-8.921094894E0,1.364694983E-1
7.242639186E0,-6.009446383E-1,-8.961795807E0,2.394201700E-3
7.246638952E0,-1.192312479E0,-8.923488617E0,-1.388636976E-1
7.250638018E0,-1.474828243E0,-8.863634109E0,-1.484405100E-1
7.254637184E0,-1.845929503E0,-8.755894661E0,-2.418143749E-1
7.258636650E0,-2.200271368E0,-8.667309761E0,-3.280056417E-1
7.262636549E0,-2.583343744E0,-8.511686325E0,-3.040636182E-1
7.266636015E0,-3.430891037E0,-8.114249229E0,-2.298433632E-1
7.270635548E0,-3.725377798E0,-8.085518837E0,-2.298433632E-1
7.274635014E0,-4.079719543E0,-8.054393768E0,-2.466027737E-1
7.278634480E0,-4.362235546E0,-8.001721382E0,-8.858546615E-2
7.282633946E0,-4.661510944E0,-8.066365242E0,2.537853718E-1
7.286633812E0,-4.896441936E0,-8.245929718E0,1.031900883E0
7.290633278E0,-4.886565685E0,-8.289025307E0,1.237802267E0
7.294632744E0,-4.805162907E0,-8.449437141E0,1.824381709E0
7.296633410E0,-4.774038315E0,-8.485349655E0,2.262520552E0
7.300633010E0,-4.906018734E0,-8.526051521E0,3.057395458E0
7.304632476E0,-4.740519524E0,-8.516474724E0,3.955221176E0
7.308631942E0,-4.405331135E0,-8.485349655E0,4.934749126E0
7.312631775E0,-4.654327869E0,-8.518868446E0,5.387253284E0
7.316631308E0,-4.429273129E0,-8.530839920E0,5.782296181E0
7.320630774E0,-3.830722809E0,-8.459013939E0,6.318597794E0
7.324630240E0,-3.830722809E0,-8.356062889E0,6.672939301E0
7.328629706E0,-3.555389643E0,-8.059182167E0,6.972214699E0
7.332629239E0,-2.987963676E0,-7.745541573E0,6.972214699E0
7.336628705E0,-2.856282711E0,-7.312191486E0,6.996156693E0
7.340628171E0,-2.111685991E0,-6.866869926E0,6.840533733E0
7.344627637E0,-1.594538331E0,-6.443096161E0,6.716034889E0
7.348627170E0,-1.113303781E0,-5.940313816E0,6.550835133E0
7.352626636E0,-1.067813993E0,-5.609913826E0,6.428730965E0
7.356626102E0,-1.230619669E0,-5.327397823E0,6.143820763E0
7.360625768E0,-7.900865674E-1,-5.169380665E0,5.564424038E0
7.364625301E0,-7.637503147E-1,-5.408801079E0,4.479551315E0
7.368624767E0,-1.283292055E0,-6.423942566E0,3.105279684E0
7.372624233E0,-1.848323703E0,-7.135020256E0,1.259350061E0
7.376623766E0,-2.324769735E0,-7.015310287E0,2.394201756E0
7.380623299E0,-2.049436569E0,-7.637802601E0,1.118092179E0
7.384622765E0,-3.339911461E0,-8.753500938E0,2.466027737E-1
7.388622231E0,-4.879383087E0,-1.015410900E1,7.398083210E-1
7.392621764E0,-5.995380402E0,-1.115488529E1,1.331176162E0
7.396621230E0,-6.862081528E0,-1.197130775E1,1.613691926E0
7.400620696E0,-7.671321392E0,-1.251479149E1,1.654393315E0
7.404620162E0,-7.458237648E0,-1.275899982E1,1.697489023E0
7.408619695E0,-6.383241177E0,-1.273505783E1,1.912967205E0
7.412619161E0,-5.545270443E0,-1.260098267E1,2.075772762E0
7.416618627E0,-4.235342979E0,-1.247648430E1,2.188300371E0
7.420617893E0,-3.292027235E0,-1.240465832E1,2.384624958E0
7.424617426E0,-2.444479942E0,-1.242860031E1,2.530671120E0
7.428616892E0,-1.764526606E0,-1.233522606E1,2.612074137E0
7.432616358E0,-1.783680320E0,-1.222748756E1,2.832340717E0
7.436615824E0,-1.678335428E0,-1.187075138E1,3.227383852E0
7.440615357E0,-1.261744261E0,-1.154514027E1,3.445256233E0
7.444614823E0,-6.775590777E-1,-1.112615490E1,3.670311213E0
7.448614289E0,7.182605099E-3,-1.039592266E1,3.957615376E0
7.452613755E0,2.537853718E-1,-9.708786964E0,4.225766182E0
7.456613355E0,4.333505034E-1,-9.024045944E0,4.429273129E0
7.460612887E0,7.278373241E-1,-8.418312073E0,4.491522312E0
7.464612419E0,1.271321058E0,-7.807791233E0,4.458003521E0
7.468611951E0,1.704671621E0,-7.060800076E0,4.513070107E0
7.470612217E0,1.759738207E0,-6.900388718E0,4.501099110E0
7.474611816E0,1.910573006E0,-6.457461357E0,4.352658749E0
7.478611348E0,1.984793186E0,-6.337751389E0,4.280832767E0
7.482610880E0,1.893813491E0,-6.373664379E0,4.338293552E0
7.486610479E0,1.642422318E0,-6.706458092E0,4.374206543E0
7.490610011E0,1.606509328E0,-6.773495674E0,4.278438568E0
7.494609543E0,1.589749932E0,-7.003339291E0,4.086902142E0
7.498609075E0,1.465251446E0,-7.321768284E0,3.809175014E0
7.502608674E0,1.264138460E0,-7.688080788E0,3.416525841E0
7.506608206E0,6.607996821E-1,-8.212410927E0,2.456450939E0
7.510607738E0,5.051765442E-1,-8.277054787E0,2.279279947E0
7.514606837E0,-1.604115069E-1,-8.480561256E0,1.781286120E0
7.518606403E0,-1.362300754E0,-8.767866135E0,1.125274777E0
7.522605869E0,-2.164358377E0,-9.002497673E0,6.584054828E-1
7.526604935E0,-3.074155092E0,-9.423876762E0,-7.661445439E-2
7.530603968E0,-3.205836058E0,-9.538799286E0,-2.394201756E-1
7.534603501E0,-3.629609823E0,-1.003679276E1,-1.154005170E0
7.538602967E0,-3.988739967E0,-1.043183613E1,-1.771709204E0
7.542602433E0,-4.390965939E0,-1.088912868E1,-2.082955360E0
7.546601899E0,-4.965873718E0,-1.185638618E1,-1.558625340E0
7.550601865E0,-5.013757706E0,-1.200482655E1,-1.438915253E0
7.554601331E0,-5.061641693E0,-1.244775391E1,-1.015141487E0
7.558600797E0,-4.963479519E0,-1.283800888E1,-2.825157940E-1
7.562600263E0,-4.714183331E0,-1.322108078E1,4.644751251E-1
7.566599796E0,-4.220977783E0,-1.353232765E1,1.798045516E0
7.570599262E0,-4.125209332E0,-1.359218216E1,1.903390408E0
7.572599428E0,-3.926490784E0,-1.375738239E1,1.836352706E0
7.576598894E0,-3.696647406E0,-1.401835060E1,1.616086125E0
7.580598427E0,-3.691859007E0,-1.422904015E1,1.338358760E0
7.584598293E0,-3.562572241E0,-1.413566589E1,8.188169599E-1
7.588597759E0,-3.550601006E0,-1.429847145E1,-3.303998411E-1
7.592597225E0,-4.170699596E0,-1.434875011E1,2.442085743E-1
7.596596758E0,-4.529829502E0,-1.440860558E1,1.649604917E0
7.600596224E0,-4.786009312E0,-1.466957283E1,2.578555346E0
7.604595690E0,-4.637568474E0,-1.526842308E1,2.545036316E0
7.608595156E0,-5.126285076E0,-1.675282860E1,2.370259762E0
7.612594222E0,-5.593154430E0,-1.746629906E1,2.640804529E0
7.616593688E0,-6.579565525E0,-1.858917999E1,2.975992680E0
7.620593154E0,-7.072771072E0,-1.971445465E1,2.499546528E0
7.624592620E0,-7.185298443E0,-2.100014114E1,1.503558636E0
7.628592220E0,-7.613860607E0,-2.230498123E1,1.379060149E0
7.632591619E0,-7.453449249E0,-2.242229652E1,9.983820915E-1
7.636591085E0,-7.127837658E0,-2.231695175E1,1.017535686E0
7.640590551E0,-6.529287338E0,-2.174952698E1,1.374271750E0
7.644590084E0,-4.551377296E0,-1.913984680E1,3.471592367E-1
7.648589550E0,-1.831564307E0,-1.684620094E1,-5.698199868E-1
7.652589016E0,-9.816227108E-2,-1.500745487E1,-1.486799240E0
7.656588482E0,7.278373241E-1,-1.371668053E1,-2.135627985E0
7.660588015E0,1.256955862E0,-1.238789845E1,-2.219424963E0
7.664587481E0,1.460463047E0,-1.162654305E1,-2.044648170E0
7.668586947E0,1.357512355E0,-1.087476349E1,-1.821987510E0
7.672586513E0,1.350329757E0,-1.064013195E1,-1.826775908E0
7.676586046E0,1.733402014E0,-1.030733776E1,-1.910573006E0
7.680585512E0,2.130839586E0,-1.018523312E1,-2.054224968E0
7.684584978E0,2.363077164E0,-1.011340714E1,-2.229001760E0
7.688584444E0,2.468421936E0,-1.010383034E1,-2.688688517E0
7.692584043E0,2.257732153E0,-1.012059021E1,-2.997540474E0
7.696583509E0,1.891419291E0,-1.010622501E1,-3.282450438E0
7.700582975E0,1.613691926E0,-1.002482224E1,-3.696647406E0
7.704582508E0,1.352723956E0,-9.895534515E0,-4.223371983E0
7.708582074E0,1.170764685E0,-9.799766541E0,-4.699818134E0
7.712581606E0,8.619126081E-1,-9.675268173E0,-5.030517101E0
7.716581138E0,5.386953950E-1,-9.507674217E0,-5.131073475E0
7.720580737E0,1.508347094E-1,-9.093477249E0,-4.901230335E0
7.724580436E0,-2.992752194E-1,-8.696040154E0,-4.558559895E0
7.728580168E0,-8.499416113E-1,-8.157344818E0,-3.940855980E0
7.732579900E0,-1.015141487E0,-7.886799812E0,-3.557783842E0
7.736579699E0,-1.312022567E0,-7.319374084E0,-2.741360903E0
7.740579565E0,-1.446097851E0,-7.024887085E0,-2.070984364E0
7.744579164E0,-1.659181833E0,-6.718429089E0,-1.414973259E0
7.748579030E0,-2.181117773E0,-6.368875980E0,-3.830722570E-1
7.752578963E0,-2.557007313E0,-6.153397560E0,2.657563984E-1
7.756578895E0,-2.916137695E0,-6.071994781E0,9.193734527E-1
7.760578394E0,-3.265691042E0,-6.009745598E0,1.462857246E0
7.764578326E0,-3.830722809E0,-6.007351398E0,1.989581585E0
7.768578292E0,-4.493916512E0,-6.062417984E0,2.494758129E0
7.772578224E0,-4.824316502E0,-6.055235386E0,2.755726099E0
7.776578156E0,-5.238812447E0,-6.024110794E0,3.105279684E0
7.780578088E0,-5.724835396E0,-6.004957199E0,3.485957623E0
7.784577987E0,-6.182127953E0,-6.038475990E0,3.936067581E0
7.788577853E0,-6.670545101E0,-6.031293392E0,4.800374508E0
7.790578186E0,-6.773495674E0,-6.007351398E0,5.037699699E0
7.794578052E0,-6.965032101E0,-5.918766022E0,5.736806393E0
7.798577918E0,-7.012916088E0,-5.727229595E0,6.232406139E0
7.802577984E0,-6.890811920E0,-5.339369297E0,6.493374348E0
7.806577716E0,-6.481403351E0,-4.888959885E0,6.335357189E0
7.810577448E0,-6.385635376E0,-4.797980309E0,6.251559734E0
7.814577214E0,-6.050446987E0,-4.548983097E0,5.882853031E0
7.818577313E0,-5.511751652E0,-4.323928356E0,5.327397823E0
7.822576979E0,-5.166986465E0,-4.343081951E0,4.980238914E0
7.826576612E0,-4.944325924E0,-4.580107689E0,4.364629745E0
7.830576311E0,-4.881777287E0,-4.410119534E0,4.316745758E0
7.834575911E0,-3.469198227E0,-4.146757126E0,5.837363243E0
7.838575511E0,-3.066972494E0,-4.654327869E0,5.111919880E0
7.842575111E0,-3.069366693E0,-5.178957462E0,3.105279684E0
7.846574711E0,-2.894589901E0,-5.547664642E0,1.680729628E0
7.850573777E0,-2.741360903E0,-5.574000835E0,1.675941229E0
7.854573243E0,-2.281674147E0,-5.743988991E0,1.493981838E0
7.858572709E0,-1.671152830E0,-5.911583424E0,1.194706678E0
7.862572242E0,-1.175553083E0,-5.976226807E0,9.409212470E-1
7.866571708E0,-7.948749661E-1,-5.954679012E0,6.320692301E-1
7.870571174E0,-7.015010715E-1,-5.952284813E0,5.913678408E-1
7.874570640E0,-3.088520169E-1,-6.004957199E0,5.530605912E-1
7.878570240E0,3.830722570E-1,-6.198887348E0,4.548983276E-1
7.882569706E0,8.762778044E-1,-6.411971569E0,1.005564705E-1
7.886568839E0,1.513135433E0,-6.716034889E0,-3.854664862E-1
7.890568305E0,1.833958507E0,-6.728005886E0,-4.141969085E-1
7.894567905E0,2.410961151E0,-6.751947880E0,-2.729389966E-1
7.898567371E0,3.263296843E0,-6.862081528E0,9.816227108E-2
7.902566837E0,4.474762917E0,-7.012916088E0,9.361328483E-1
7.906566303E0,7.214028835E0,-7.264307022E0,4.204218388E0
7.910566303E0,7.637802601E0,-7.297826290E0,4.867412090E0
7.914565769E0,9.028834343E0,-7.410353661E0,6.823774338E0
7.918565368E0,1.028578949E1,-7.599495411E0,8.679280281E0
7.922564834E0,1.178934860E1,-8.207622528E0,1.078617764E1
7.926564267E0,1.468393803E1,-9.170091629E0,1.298405552E1
7.930563733E0,1.529236507E1,-9.421483040E0,1.330008984E1
7.934563199E0,1.734180069E1,-1.049647999E1,1.405905151E1
7.938562665E0,1.961868668E1,-1.137754536E1,1.516307831E1
7.942562198E0,2.077269173E1,-1.214608479E1,1.574726295E1
7.944562298E0,2.085409546E1,-1.274942303E1,1.550784302E1
7.948561331E0,1.932419968E1,-1.374780560E1,1.399680233E1
7.952560797E0,1.772247887E1,-1.411172390E1,1.322826385E1
7.956560330E0,1.466239071E1,-1.448521996E1,1.189469337E1
7.960559796E0,1.055154610E1,-1.466957283E1,1.016129112E1
7.964559262E0,8.169315338E0,-1.459056473E1,8.820538521E0
7.968558728E0,5.772719383E0,-1.438466263E1,6.213252544E0
7.972557861E0,4.515464306E0,-1.423382854E1,3.993528366E0
7.976557194E0,3.275267839E0,-1.399201393E1,2.039859772E0
7.980556660E0,1.790862918E0,-1.383399677E1,8.523358107E-1
7.984556226E0,3.567360640E-1,-1.355626965E1,1.747767180E-1
7.988555759E0,-1.453280449E0,-1.343895340E1,2.298433632E-1
7.992555225E0,-2.456450939E0,-1.324741745E1,4.740519226E-1
7.996554691E0,-3.172317266E0,-1.282364368E1,3.711012602E-1
8.000554157E0,-3.849876404E0,-1.233283234E1,2.035071403E-1
8.004553690E0,-4.616020679E0,-1.162893677E1,1.460463107E-1
8.006553856E0,-5.257966042E0,-1.116925049E1,-2.154781483E-2
8.010553322E0,-5.736806393E0,-1.098729134E1,-1.771709323E-1
8.014552788E0,-6.309020519E0,-1.087715721E1,-4.908113480E-1
8.018552321E0,-6.637026310E0,-1.099447346E1,-7.134721279E-1
8.022551787E0,-6.706458092E0,-1.127459526E1,-7.374141216E-1
8.026551253E0,-5.686528206E0,-1.212453651E1,-1.340752989E-1
8.030551219E0,-5.368099689E0,-1.227776527E1,2.154781483E-2
8.034550319E0,-4.259284973E0,-1.278054810E1,4.189853072E-1
8.038549785E0,-2.899378300E0,-1.340064621E1,7.757213712E-1
8.042549251E0,-8.164227605E-1,-1.442057610E1,1.625662923E0
8.046548717E0,1.381454349E0,-1.618779564E1,3.493140221E0
8.050548017E0,1.733402014E0,-1.664748383E1,3.909731388E0
8.054547483E0,3.129221678E0,-1.839285660E1,5.092766285E0
8.058547616E0,3.845088005E0,-1.923322105E1,5.471050262E0
8.062547082E0,3.873818398E0,-1.941996765E1,5.590760231E0
8.066546615E0,2.760514498E0,-1.748305893E1,4.824316502E0
8.070546081E0,2.094926596E0,-1.583345413E1,4.429273129E0
8.074545114E0,7.900865674E-1,-1.298644924E1,4.192247391E0
8.078544580E0,-9.289502501E-1,-1.049408531E1,4.527435303E0
8.082544113E0,-2.619256735E0,-8.444648743E0,5.052064896E0
8.086543579E0,-4.896441936E0,-5.739200592E0,5.315426826E0
8.090542545E0,-5.214870453E0,-5.502174854E0,5.147832870E0
8.092542711E0,-5.945102215E0,-5.159803867E0,4.627991676E0
8.096542244E0,-7.319374084E0,-4.850652695E0,3.529053211E0
8.100541710E0,-9.033622742E0,-4.797980309E0,2.343923569E0
8.104541176E0,-1.038874054E1,-4.961085320E0,1.426944256E0
8.108540642E0,-1.087476349E1,-5.102343082E0,6.512228847E-1
8.110540675E0,-1.083406162E1,-5.166986465E0,4.884171486E-1
8.114540208E0,-1.016607952E1,-5.387253284E0,3.830722719E-2
8.118539007E0,-9.186851501E0,-5.463867664E0,2.178723514E-1
8.122538473E0,-7.891588211E0,-5.365705490E0,1.194706678E0
8.124539073E0,-7.223605633E0,-5.250783443E0,2.336740971E0
8.128538673E0,-6.754342079E0,-5.047276497E0,4.486733913E0
8.132538105E0,-6.828562737E0,-5.054459095E0,5.097554684E0
8.136537571E0,-7.599495411E0,-5.377676487E0,4.968267918E0
8.140537037E0,-8.463802338E0,-5.698499203E0,4.879383087E0
8.144536637E0,-9.141361237E0,-6.091148376E0,4.565742493E0
8.148536103E0,-8.801384926E0,-7.087136269E0,2.837129116E0
8.150536336E0,-8.660126686E0,-7.343316078E0,2.475604534E0
8.154535802E0,-8.037634850E0,-8.020874977E0,1.685518026E0
8.158535335E0,-6.720823288E0,-8.885181427E0,8.403648138E-1
8.162534867E0,-6.071994781E0,-9.778219223E0,3.758896589E-1
8.166534399E0,-4.575319290E0,-1.156429386E1,4.165911078E-1
8.170533931E0,-4.242525578E0,-1.192821217E1,6.177040339E-1
8.174533530E0,-3.177105665E0,-1.351556778E1,1.786074519E0
8.178533062E0,-2.777273893E0,-1.475366974E1,2.571372509E0
8.182532594E0,-2.209848166E0,-1.583824253E1,2.667140722E0
8.186531260E0,-1.185129881E0,-1.704970932E1,2.236184359E0
8.190531326E0,-6.033388376E-1,-1.723645592E1,2.142810583E0
8.194530492E0,-2.106897533E-1,-1.727236938E1,2.054224968E0
8.198530024E0,-5.985504389E-1,-1.705449677E1,2.044648170E0
8.202529556E0,-1.118092179E0,-1.633144760E1,2.147598982E0
8.206529155E0,-1.793257117E0,-1.440621090E1,3.189076662E0
8.210528587E0,-1.857900500E0,-1.407581139E1,3.526659012E0
8.214528119E0,-1.929726601E0,-1.314925480E1,4.618414879E0
8.218527651E0,-1.683123827E0,-1.197609615E1,6.076783180E0
8.222527251E0,-1.429338455E0,-1.121713448E1,7.022492886E0
8.226526717E0,-7.134721279E-1,-1.008946514E1,8.767866135E0
8.230526183E0,-5.650315881E-1,-9.881169319E0,9.143755913E0
8.234525682E0,-6.009446383E-1,-9.316138268E0,1.091546440E1
8.238525215E0,-1.168370485E0,-9.076718330E0,1.255549335E1
8.242524681E0,-2.413355350E0,-9.141361237E0,1.364246082E1
8.246524147E0,-4.199429989E0,-9.311349869E0,1.422904015E1
8.250523613E0,-4.594472885E0,-9.323320389E0,1.382920837E1
8.252523779E0,-4.685452938E0,-9.273042679E0,1.343177128E1
8.256523245E0,-4.973056316E0,-8.420706749E0,1.142542934E1
8.260522711E0,-6.110301971E0,-8.470984459E0,1.022593498E1
8.264522177E0,-7.609072208E0,-9.555558205E0,7.743147373E0
8.268521710E0,-8.099884033E0,-1.097771454E1,6.356904984E0
8.272520476E0,-9.972148895E0,-1.267520332E1,3.181894064E0
8.276519942E0,-1.000327396E1,-1.348444366E1,1.738190413E0
8.280519408E0,-7.972990990E0,-1.373104572E1,1.821987510E0
8.284518941E0,-5.281908035E0,-1.307982349E1,2.092532396E0
8.288518407E0,-2.269703150E0,-1.176061821E1,-7.422025204E-1
8.290518573E0,-2.085349798E0,-1.144937134E1,-1.575384736E0
8.294518006E0,-1.537077546E0,-9.596260071E0,-2.602497339E0
8.298517539E0,-5.530605912E-1,-7.376834869E0,-1.956062794E0
8.302517072E0,5.458779931E-1,-5.679345608E0,-1.668758631E0
8.306516538E0,1.687912226E0,-4.922778130E0,-3.567360640E-1
8.310516004E0,1.719036818E0,-4.961085320E0,-1.292868853E-1
8.314515537E0,1.541865945E0,-5.207687855E0,3.758896589E-1
8.318515003E0,8.738836050E-1,-5.727229595E0,1.012747288E0
8.322514469E0,4.788403213E-2,-6.778284073E0,1.580173135E0
8.326513935E0,-1.010353088E0,-8.159738541E0,1.668758631E0
8.330513768E0,-1.276109457E0,-8.382399559E0,1.740584612E0
8.334513234E0,-1.960851192E0,-8.846874237E0,1.936909199E0
8.338512700E0,-2.719813108E0,-9.007286072E0,2.296039343E0
8.342512166E0,-3.138798475E0,-8.980949402E0,2.403778553E0
8.346511699E0,-2.920926094E0,-8.640973091E0,1.994369984E0
8.350510732E0,-2.820369720E0,-8.554781914E0,1.788468719E0
8.354510198E0,-2.686294317E0,-8.681674957E0,1.003170490E0
8.358509664E0,-2.365471363E0,-8.360851288E0,7.733271718E-1
8.362509197E0,-1.915361404E0,-7.970596790E0,4.548983276E-1
8.366508663E0,-1.187524080E0,-6.941090107E0,-2.250549644E-1
8.370508129E0,-1.130063176E0,-6.735188484E0,-4.309563041E-1
8.374507595E0,-1.098938584E0,-6.596324921E0,-6.416460276E-1
8.378507195E0,-1.010353088E0,-6.622661114E0,-6.967126727E-1
8.382506661E0,-8.858546019E-1,-6.902782917E0,-6.224924326E-1
8.386506127E0,-6.967126727E-1,-7.321768284E0,-4.165911078E-1
8.390505593E0,-5.961562395E-1,-7.395988464E0,-3.926490843E-1
8.394505193E0,-3.758896589E-1,-7.678503990E0,-3.016694188E-1
8.398504659E0,-7.182605099E-3,-8.018480301E0,-4.381389022E-1
8.402504125E0,2.154781483E-2,-8.262689590E0,-5.386953950E-1
8.406503591E0,2.801215947E-1,-8.693645477E0,-7.110779285E-1
8.410503124E0,2.944868207E-1,-8.770259857E0,-7.062895298E-1
8.414502590E0,1.125274822E-1,-9.028834343E0,-5.961562395E-1
8.418502056E0,-6.943184882E-2,-9.071929932E0,-4.477157295E-1
8.422501522E0,-1.843535304E-1,-9.083900452E0,-3.615244627E-1
8.426501055E0,-5.315127969E-1,-8.976161003E0,-2.849099934E-1
8.430500521E0,-7.158663273E-1,-8.897152901E0,-2.777273953E-1
8.434499987E0,-1.098938584E0,-8.710405350E0,-2.896983922E-1
8.438499453E0,-1.450886250E0,-8.530839920E0,-3.088520169E-1
8.442498986E0,-1.889025092E0,-8.308178902E0,-3.160346150E-1
8.446498452E0,-2.427720547E0,-8.128614426E0,-2.106897533E-1
8.450497918E0,-2.497152328E0,-8.114249229E0,-1.939303428E-1
8.454497384E0,-2.710236311E0,-8.083124161E0,-1.268926859E-1
8.458496917E0,-3.138798475E0,-8.138191223E0,2.992752194E-1
8.462496383E0,-3.473986626E0,-8.226776123E0,6.440402865E-1
8.466495849E0,-3.689464808E0,-8.638579369E0,1.206677675E0
8.470495382E0,-3.780444384E0,-8.719982147E0,1.393425345E0
8.474494915E0,-4.127603531E0,-8.935460091E0,2.298433542E0
8.478494381E0,-4.180276394E0,-9.086295128E0,3.081337690E0
