"Time (s)","Acceleration x (m/s^2)","Acceleration y (m/s^2)","Acceleration z (m/s^2)"
2.072793600E-2,4.157529473E-1,-8.806185722E0,2.193620205E0
3.075304100E-2,-5.862415582E-2,-9.314062119E0,2.073979139E0
3.326840500E-2,-1.208375469E-1,-9.543772697E0,2.002194405E0
3.578371800E-2,-1.543370634E-1,-9.625128746E0,1.939382792E0
3.829903000E-2,-2.165504545E-1,-9.740582466E0,1.929811478E0
4.081205100E-2,-2.835494876E-1,-9.865009308E0,1.992623091E0
4.332736300E-2,-3.463610709E-1,-9.965508461E0,1.997408748E0
4.584267600E-2,-3.846462369E-1,-9.979865074E0,2.035693884E0
4.835798800E-2,-2.883351147E-1,-9.960722923E0,2.073979139E0
5.087330100E-2,-2.931207716E-1,-9.960722923E0,2.069193363E0
5.338866600E-2,-2.883351147E-1,-9.869794846E0,2.069193363E0
5.590397800E-2,-2.452643216E-1,-9.783653259E0,2.155334949E0
5.841934300E-2,-2.213360965E-1,-9.726225853E0,2.174477577E0
6.093465500E-2,-7.298108935E-2,-9.683155060E0,2.236690998E0
6.344996800E-2,5.623133108E-2,-9.664012909E0,2.318047047E0
6.596528000E-2,1.136590764E-1,-9.620343208E0,2.394617319E0
6.862449900E-2,1.615155339E-1,-9.567701340E0,2.475973129E0
7.113981100E-2,2.338984162E-1,-9.605986595E0,2.567498684E0
7.365517600E-2,3.056831062E-1,-9.558130264E0,2.624926329E0
7.617048800E-2,4.157529473E-1,-9.524630547E0,2.672782898E0
7.868580100E-2,5.258227587E-1,-9.515059471E0,2.720639229E0
8.120111300E-2,5.306084156E-1,-9.529416084E0,2.744567633E0
8.371647800E-2,5.832505226E-1,-9.538987160E0,2.773281336E0
8.623179100E-2,6.693921089E-1,-9.534201622E0,2.806781054E0
8.874710300E-2,7.124629617E-1,-9.586843491E0,2.792423964E0
9.126246800E-2,7.704889178E-1,-9.577272415E0,2.797209740E0
9.377778000E-2,8.709874153E-1,-9.567701340E0,2.734996319E0
9.629309300E-2,9.236295223E-1,-9.553344727E0,2.730210543E0
9.885298800E-2,9.762716293E-1,-9.586843491E0,2.706282377E0
1.013683010E-1,1.009771109E0,-9.553344727E0,2.586641312E0
1.038836660E-1,1.019342422E0,-9.567701340E0,2.538784742E0
1.063989780E-1,1.071984529E0,-9.601201057E0,2.432902336E0
1.089142910E-1,1.201196909E0,-9.668798447E0,2.432902336E0
1.114296550E-1,1.263410330E0,-9.726225853E0,2.380260229E0
1.139449680E-1,1.359721422E0,-9.812367439E0,2.313261271E0
1.164602800E-1,1.445863128E0,-9.941579819E0,2.265404940E0
1.189755930E-1,1.551147223E0,-1.010429192E1,2.270190477E0
1.214909570E-1,1.603789330E0,-1.027238750E1,2.332403898E0
1.240062700E-1,1.685145378E0,-1.044945621E1,2.351546526E0
1.265215820E-1,1.790429592E0,-1.065045357E1,2.375474691E0
1.290787700E-1,1.862812400E0,-1.086640549E1,2.452044964E0
1.315940820E-1,1.853241086E0,-1.101954651E1,2.548356056E0
1.341094470E-1,1.886740685E0,-1.121097183E1,2.667997360E0
1.366247590E-1,1.901097536E0,-1.142213917E1,2.811566591E0
1.391400720E-1,1.858026743E0,-1.160399342E1,2.940778971E0
1.416554360E-1,1.824527264E0,-1.171884918E1,3.037090063E0
1.441707490E-1,1.776072621E0,-1.184865952E1,3.089732170E0
1.466860610E-1,1.780858278E0,-1.190130138E1,3.190230846E0
1.492013740E-1,1.704287887E0,-1.199701500E1,3.190230846E0
1.517167380E-1,1.484148264E0,-1.205444241E1,3.276372433E0
1.542320510E-1,8.183453679E-1,-1.223629665E1,3.233301640E0
1.567473630E-1,9.714859724E-1,-1.192044449E1,3.343371391E0
1.593044990E-1,1.172483087E0,-1.173799133E1,3.419941664E0
1.618198110E-1,1.249053478E0,-1.159920788E1,3.439084291E0
1.643351760E-1,1.215553880E0,-1.148435211E1,3.434298754E0
1.668504880E-1,1.081555843E0,-1.134078312E1,3.381656647E0
1.693658010E-1,8.614161611E-1,-1.117268753E1,3.305086374E0
1.718811660E-1,7.028916478E-1,-1.093340492E1,3.223730326E0
1.743964780E-1,5.880361795E-1,-1.072762203E1,3.123231649E0
1.769117910E-1,4.109672904E-1,-1.043509960E1,3.032304525E0
1.794271030E-1,1.758724600E-1,-1.026281643E1,2.902493954E0
1.819424680E-1,1.794617064E-2,-1.011864853E1,2.782852650E0
1.844577800E-1,-1.782652885E-1,-9.970293999E0,2.663211584E0
1.869730930E-1,-2.979064286E-1,-9.793225288E0,2.432902336E0
1.895303320E-1,-4.899304509E-1,-9.596415520E0,2.169692039E0
1.920456450E-1,-6.095715761E-1,-9.515059471E0,1.992623091E0
1.945610090E-1,-7.531409264E-1,-9.452845573E0,1.858026743E0
1.970763220E-1,-8.733802438E-1,-9.452845573E0,1.652244091E0
1.995916340E-1,-8.733802438E-1,-9.438488960E0,1.523031592E0
2.021069990E-1,-8.297112584E-1,-9.452845573E0,1.383649707E0
2.046223110E-1,-7.004988194E-1,-9.491130829E0,1.331007600E0
2.071376240E-1,-6.143572330E-1,-9.577272415E0,1.432104349E0
2.096529360E-1,-4.851447940E-1,-9.707083702E0,1.561316729E0
2.121683010E-1,-2.596212626E-1,-9.807581902E0,1.733600020E0
2.146836130E-1,-9.690931439E-2,-9.955936432E0,1.910668850E0
2.171989260E-1,8.015955985E-2,-1.007079220E1,2.107478619E0
2.197561130E-1,2.386840582E-1,-1.022931671E1,2.308475733E0
2.222714260E-1,4.540380836E-1,-1.035374355E1,2.437688112E0
2.247867910E-1,6.311069727E-1,-1.045902824E1,2.581855536E0
2.273021030E-1,7.896314859E-1,-1.053559780E1,2.691925526E0
2.298174160E-1,9.044869542E-1,-1.057866859E1,2.768495798E0
2.323327800E-1,1.076770186E0,-1.059302616E1,2.739781857E0
2.348480930E-1,1.234696507E0,-1.061216831E1,2.744567633E0
2.373634050E-1,1.407577872E0,-1.064088249E1,2.667997360E0
2.398787180E-1,1.503290772E0,-1.057866859E1,2.624926329E0
2.423940820E-1,1.579861164E0,-1.050688457E1,2.495713949E0
2.449093950E-1,1.637288928E0,-1.045902824E1,2.365903378E0
2.474247070E-1,1.733001828E0,-1.039202881E1,2.212762833E0
2.499819470E-1,1.733001828E0,-1.032981491E1,1.959123492E0
2.524972590E-1,1.709073544E0,-1.028674412E1,1.781456470E0
2.550126240E-1,1.723430514E0,-1.024367332E1,1.570888042E0
2.575279360E-1,1.713859200E0,-1.018146038E1,1.340578914E0
2.600432490E-1,1.670788407E0,-1.010907745E1,1.144367456E0
2.625586130E-1,1.546361685E0,-9.999007225E0,8.566305041E-1
2.650739260E-1,1.450648785E0,-9.903294563E0,6.795616150E-1
2.675892380E-1,1.340578914E0,-9.812367439E0,5.886343718E-1
2.701045510E-1,1.167697430E0,-9.764511108E0,4.259224236E-1
2.726199160E-1,1.062413216E0,-9.687940598E0,3.732803464E-1
2.751352280E-1,8.853443861E-1,-9.635298729E0,3.008974493E-1
2.776505410E-1,6.885347366E-1,-9.558130264E0,1.860419661E-1
2.802077280E-1,5.018945336E-1,-9.515059471E0,1.573280841E-1
2.827230410E-1,-7.776673883E-2,-9.586843491E0,6.161518395E-2
2.852384050E-1,-3.511467278E-1,-9.510273933E0,3.290131316E-2
2.877537180E-1,-2.644068897E-1,-9.285347939E0,8.075776696E-2
2.902690300E-1,-2.883351147E-1,-9.237491608E0,9.990034252E-2
2.927843430E-1,-3.846462369E-1,-9.251849174E0,1.238285750E-1
2.952996550E-1,-4.037888348E-1,-9.294919968E0,1.381855011E-1
2.978150200E-1,-5.856433511E-1,-9.328418732E0,1.477568001E-1
3.003303320E-1,-7.435696125E-1,-9.385847092E0,8.554340899E-2
3.028456450E-1,-8.536394835E-1,-9.457631111E0,2.333002165E-2
3.053610090E-1,-1.083948612E0,-9.414560318E0,-5.982056609E-4
3.078763220E-1,-1.246660590E0,-9.462417603E0,-2.931207791E-2
3.103942380E-1,-1.347159147E0,-9.577272415E0,-9.152546525E-2
3.129095510E-1,-1.385444283E0,-9.625128746E0,-1.489532143E-1
3.154249160E-1,-1.414756417E0,-9.610772133E0,-1.680957973E-1
3.179402280E-1,-1.529611826E0,-9.692726135E0,-1.872383654E-1
3.204555410E-1,-1.553540111E0,-9.740582466E0,-2.404786795E-1
3.229709050E-1,-1.496112347E0,-9.721440315E0,-2.931207716E-1
3.254862180E-1,-1.515254974E0,-9.783653259E0,-3.361915946E-1
3.280015300E-1,-1.467398524E0,-9.860223770E0,-3.649054468E-1
3.305168430E-1,-1.380658627E0,-9.898509026E0,-4.031906128E-1
3.330322070E-1,-1.270588875E0,-9.955936432E0,-4.079762697E-1
3.355475200E-1,-1.203589797E0,-1.000379372E1,-3.457628787E-1
3.380628320E-1,-1.122233868E0,-1.006600666E1,-3.792623878E-1
3.406200200E-1,-9.834501147E-1,-1.007557774E1,-3.696911037E-1
3.431353320E-1,-8.105686903E-1,-1.012821960E1,-3.505485058E-1
3.456506970E-1,-6.478567123E-1,-1.016650486E1,-2.356930375E-1
3.481660090E-1,-4.755735099E-1,-1.015214825E1,-1.250249892E-1
3.506813220E-1,-2.548356056E-1,-1.023888779E1,-1.489532143E-1
3.531966860E-1,-1.076770201E-2,-1.029153061E1,-5.324030295E-2
3.557119990E-1,9.930214286E-2,-1.026760197E1,1.854437590E-2
3.582273110E-1,1.854437590E-1,-1.023410225E1,1.094716340E-1
3.607426240E-1,3.678964674E-1,-1.031067276E1,2.482553422E-1
3.632579880E-1,4.971089065E-1,-1.029153061E1,3.343969584E-1
3.657733010E-1,6.550351977E-1,-1.032981491E1,4.833501875E-1
3.682886130E-1,7.220342159E-1,-1.036331463E1,6.029912829E-1
3.708458530E-1,8.853443861E-1,-1.036331463E1,7.130611539E-1
3.733611660E-1,1.004985452E0,-1.040638542E1,8.231309652E-1
3.758765300E-1,1.062413216E0,-1.041117096E1,9.050851464E-1
3.783918430E-1,1.162911773E0,-1.039681435E1,1.039083242E0
3.809071550E-1,1.239482164E0,-1.042074299E1,1.096511006E0
3.834225200E-1,1.278365493E0,-1.037288570E1,1.153938770E0
3.859378320E-1,1.273579836E0,-1.037767220E1,1.144367456E0
3.884531450E-1,1.302293777E0,-1.036810017E1,1.173081279E0
3.909684570E-1,1.321436286E0,-1.036331463E1,1.182652593E0
3.934838220E-1,1.234696507E0,-1.038724327E1,1.125224829E0
3.959991340E-1,1.172483087E0,-1.039681435E1,1.034297585E0
3.985144470E-1,1.062413216E0,-1.033938694E1,9.816554785E-1
4.010716860E-1,9.906286001E-1,-1.036331463E1,9.481559992E-1
4.035869990E-1,8.757730722E-1,-1.038245773E1,8.757730722E-1
4.061023630E-1,7.657032609E-1,-1.037288570E1,7.752745152E-1
4.086176760E-1,6.406782866E-1,-1.029153061E1,6.604190469E-1
4.111329880E-1,4.588237405E-1,-1.032024384E1,5.216353536E-1
4.136483530E-1,3.439682424E-1,-1.032502937E1,4.307080805E-1
4.161636660E-1,2.147558331E-1,-1.031545830E1,3.296113312E-1
4.186789780E-1,1.471585929E-1,-1.030110168E1,2.434697002E-1
4.211942910E-1,3.708875179E-2,-1.025324535E1,1.190429255E-1
4.237096550E-1,-1.495514214E-1,-1.021496010E1,8.973085321E-3
4.262249680E-1,-2.979064286E-1,-1.019103146E1,-1.058823988E-1
4.287402800E-1,-3.990031779E-1,-1.014257717E1,-1.872383654E-1
4.312975200E-1,-5.186443329E-1,-1.011386299E1,-3.218346536E-1
4.338128320E-1,-6.526423693E-1,-1.007557774E1,-4.319044948E-1
4.363281970E-1,-7.435696125E-1,-1.008514881E1,-5.228317380E-1
4.388435090E-1,-7.818548083E-1,-1.005643559E1,-6.424728632E-1
4.413588220E-1,-8.632107973E-1,-1.005643559E1,-6.807580590E-1
4.438741860E-1,-9.403793216E-1,-1.005165005E1,-7.531409264E-1
4.463894990E-1,-9.643075466E-1,-1.002293587E1,-8.297112584E-1
4.489048110E-1,-9.930213690E-1,-9.979865074E0,-8.823533654E-1
4.514201240E-1,-1.012163997E0,-1.002772141E1,-9.780662656E-1
4.539354880E-1,-9.451649189E-1,-1.001336479E1,-1.021137118E0
4.564508010E-1,-9.355936646E-1,-1.005165005E1,-1.025922656E0
4.589661130E-1,-9.499505758E-1,-1.008514881E1,-1.092921734E0
4.615233530E-1,-8.392825127E-1,-1.004686451E1,-1.102493048E0
4.640386660E-1,-7.866404653E-1,-1.008514881E1,-1.135992527E0
4.665540300E-1,-6.957131624E-1,-1.013779163E1,-1.150349498E0
4.690693430E-1,-5.808576941E-1,-1.013779163E1,-1.131206870E0
4.715846550E-1,-4.707878530E-1,-1.020538902E1,-1.092921734E0
4.741000200E-1,-3.559323549E-1,-1.022931671E1,-1.131206870E0
4.766153320E-1,-2.835494876E-1,-1.024845982E1,-1.083350420E0
4.791306450E-1,-1.112662554E-1,-1.027717304E1,-1.064207911E0
4.816459570E-1,-1.555334684E-2,-1.033460140E1,-1.001994491E0
4.841613220E-1,7.058826834E-2,-1.031545830E1,-9.254241586E-1
4.866766340E-1,1.423729509E-1,-1.034417248E1,-9.828519225E-1
4.891919470E-1,2.338984162E-1,-1.033460140E1,-9.206385016E-1
4.917492380E-1,3.200400174E-1,-1.032502937E1,-9.254241586E-1
4.942645510E-1,4.301098585E-1,-1.029631615E1,-8.679963946E-1
4.967799160E-1,5.162515044E-1,-1.032024384E1,-8.632107973E-1
4.992952280E-1,5.497509837E-1,-1.030588722E1,-8.344969153E-1
5.018105410E-1,6.741777658E-1,-1.031545830E1,-7.674978375E-1
5.043259050E-1,6.933203340E-1,-1.026281643E1,-8.009973764E-1
5.068412180E-1,7.513462901E-1,-1.025803089E1,-7.914260626E-1
5.093565300E-1,8.183453679E-1,-1.027238750E1,-7.435696125E-1
5.118718430E-1,8.374879360E-1,-1.029153061E1,-7.292127013E-1
5.143872070E-1,8.709874153E-1,-1.027238750E1,-6.616154313E-1
5.169025200E-1,9.140582681E-1,-1.029153061E1,-6.281159520E-1
5.194178320E-1,9.810572863E-1,-1.023888779E1,-5.850451589E-1
5.219750720E-1,9.810572863E-1,-1.027238750E1,-5.994020700E-1
5.244903840E-1,1.004985452E0,-1.031545830E1,-5.419743061E-1
5.270057490E-1,1.052842021E0,-1.030110168E1,-5.419743061E-1
5.295210610E-1,1.028913736E0,-1.027238750E1,-5.850451589E-1
5.320363740E-1,1.062413216E0,-1.027717304E1,-6.233302951E-1
5.345517380E-1,1.062413216E0,-1.028195858E1,-6.664010882E-1
5.370670510E-1,1.071984529E0,-1.028674412E1,-6.329016089E-1
5.395823630E-1,1.091127157E0,-1.029153061E1,-6.472585201E-1
5.420976760E-1,1.057627559E0,-1.029153061E1,-6.903293133E-1
5.446130410E-1,1.024128079E0,-1.028195858E1,-7.387840152E-1
5.471283530E-1,1.057627559E0,-1.026760197E1,-7.244270444E-1
5.496436660E-1,1.033699393E0,-1.027717304E1,-7.435696125E-1
5.522008010E-1,1.009771109E0,-1.025803089E1,-7.531409264E-1
5.547168950E-1,1.009771109E0,-1.023888779E1,-7.722834945E-1
5.572329880E-1,1.004985452E0,-1.021974564E1,-7.914260626E-1
5.597490820E-1,9.810572863E-1,-1.021974564E1,-8.488538265E-1
5.622651760E-1,1.019342422E0,-1.022453117E1,-8.488538265E-1
5.647812700E-1,9.906286001E-1,-1.020538902E1,-8.823533654E-1
5.672973630E-1,9.332008362E-1,-1.021017456E1,-9.302098155E-1
5.698134570E-1,9.188438654E-1,-1.019103146E1,-9.780662656E-1
5.723295510E-1,9.284151793E-1,-1.018146038E1,-1.059422255E0
5.748456450E-1,9.379864931E-1,-1.020538902E1,-1.088136077E0
5.773617380E-1,9.140582681E-1,-1.018624592E1,-1.097707391E0
5.798778320E-1,8.805587292E-1,-1.018624592E1,-1.092921734E0
5.824266340E-1,9.044869542E-1,-1.019103146E1,-1.064207911E0
5.849427280E-1,8.949156404E-1,-1.018624592E1,-1.083350420E0
5.874588220E-1,8.422735929E-1,-1.021496010E1,-1.083350420E0
5.899749160E-1,8.662018180E-1,-1.023410225E1,-1.045065284E0
5.924910090E-1,8.853443861E-1,-1.021974564E1,-1.030708313E0
5.950071030E-1,9.284151793E-1,-1.020060253E1,-1.021137118E0
5.975231970E-1,9.284151793E-1,-1.021496010E1,-9.589236975E-1
6.000392910E-1,9.284151793E-1,-1.020060253E1,-9.206385016E-1
6.025553840E-1,9.332008362E-1,-1.024367332E1,-9.110672474E-1
6.050714780E-1,9.332008362E-1,-1.022931671E1,-8.823533654E-1
6.075875720E-1,9.236295223E-1,-1.019581699E1,-8.727820516E-1
6.101036660E-1,9.236295223E-1,-1.020060253E1,-8.057830334E-1
6.126525200E-1,9.571290612E-1,-1.022931671E1,-7.722834945E-1
6.151686130E-1,9.571290612E-1,-1.024845982E1,-7.292127013E-1
6.176847070E-1,9.332008362E-1,-1.024367332E1,-7.292127013E-1
6.202008010E-1,9.236295223E-1,-1.021974564E1,-7.483552694E-1
6.227168950E-1,9.427721500E-1,-1.022453117E1,-7.531409264E-1
6.252329880E-1,9.858429432E-1,-1.025324535E1,-7.094719410E-1
6.277490820E-1,9.667003751E-1,-1.021974564E1,-6.711867452E-1
6.302651760E-1,9.619147182E-1,-1.028674412E1,-6.376872063E-1
6.327812700E-1,9.427721500E-1,-1.027238750E1,-6.711867452E-1
6.352973630E-1,9.810572863E-1,-1.029153061E1,-6.472585201E-1
6.378134570E-1,9.236295223E-1,-1.028195858E1,-6.568298340E-1
6.403295510E-1,9.332008362E-1,-1.026760197E1,-6.472585201E-1
6.428783530E-1,9.188438654E-1,-1.030110168E1,-6.137589812E-1
6.453944470E-1,9.332008362E-1,-1.025324535E1,-5.994020700E-1
6.479105410E-1,9.284151793E-1,-1.023888779E1,-6.089733839E-1
6.504266340E-1,8.757730722E-1,-1.026760197E1,-6.089733839E-1
6.529427280E-1,8.566305041E-1,-1.023410225E1,-6.281159520E-1
6.554588220E-1,8.709874153E-1,-1.026760197E1,-5.946164131E-1
6.579749160E-1,8.614161611E-1,-1.023410225E1,-6.233302951E-1
6.604910090E-1,8.662018180E-1,-1.020538902E1,-5.659025311E-1
6.630070510E-1,8.566305041E-1,-1.018146038E1,-5.659025311E-1
6.655231970E-1,8.231309652E-1,-1.015693378E1,-5.706881881E-1
6.680392910E-1,7.896314859E-1,-1.019103146E1,-5.611169338E-1
6.705553840E-1,7.848458290E-1,-1.022931671E1,-5.563312769E-1
6.731042380E-1,7.704889178E-1,-1.021496010E1,-5.659025311E-1
6.756203320E-1,7.561319470E-1,-1.017188931E1,-5.946164131E-1
6.781364260E-1,7.316055298E-1,-1.016650486E1,-6.137589812E-1
6.806525200E-1,7.417750359E-1,-1.016650486E1,-5.994020700E-1
6.831686130E-1,7.417750359E-1,-1.013300610E1,-6.185446382E-1
6.856847070E-1,7.657032609E-1,-1.012821960E1,-6.472585201E-1
6.882008010E-1,7.752745152E-1,-1.011386299E1,-6.424728632E-1
6.907168950E-1,7.561319470E-1,-1.010429192E1,-6.711867452E-1
6.932329880E-1,7.268198729E-1,-1.008036327E1,-6.807580590E-1
6.957490820E-1,7.657032609E-1,-1.008514881E1,-6.903293133E-1
6.982651760E-1,8.279166222E-1,-1.007557774E1,-6.376872063E-1
7.007812700E-1,7.800601721E-1,-1.005643559E1,-6.376872063E-1
7.033301240E-1,8.327022791E-1,-1.008036327E1,-6.281159520E-1
7.058462180E-1,8.327022791E-1,-1.010907745E1,-6.137589812E-1
7.083623110E-1,8.614161611E-1,-1.007079220E1,-5.659025311E-1
7.108784050E-1,8.662018180E-1,-1.008514881E1,-6.233302951E-1
7.133944990E-1,9.092726111E-1,-1.013779163E1,-6.137589812E-1
7.159105930E-1,8.901300430E-1,-1.014257717E1,-6.281159520E-1
7.184266860E-1,9.044869542E-1,-1.014736271E1,-6.376872063E-1
7.209427800E-1,9.427721500E-1,-1.014257717E1,-6.233302951E-1
7.234588740E-1,9.092726111E-1,-1.012821960E1,-6.664010882E-1
7.259749680E-1,9.954141974E-1,-1.018624592E1,-7.190431952E-1
7.284910610E-1,9.762716293E-1,-1.021496010E1,-7.292127013E-1
7.310071550E-1,9.906286001E-1,-1.013779163E1,-7.770691514E-1
7.335559570E-1,1.004985452E0,-1.018624592E1,-7.722834945E-1
7.360720510E-1,1.043270707E0,-1.020538902E1,-7.722834945E-1
7.385881450E-1,1.062413216E0,-1.020538902E1,-8.249256015E-1
7.411042380E-1,1.009771109E0,-1.017667484E1,-8.679963946E-1
7.436203320E-1,1.028913736E0,-1.018624592E1,-8.344969153E-1
7.461364260E-1,9.954141974E-1,-1.019103146E1,-8.679963946E-1
7.486525200E-1,9.954141974E-1,-1.019103146E1,-8.871390224E-1
7.511686130E-1,1.019342422E0,-1.016171932E1,-8.823533654E-1
7.536847070E-1,1.038485050E0,-1.017188931E1,-9.014959335E-1
7.562008010E-1,9.906286001E-1,-1.020060253E1,-8.632107973E-1
7.587168950E-1,9.475577474E-1,-1.020538902E1,-8.344969153E-1
7.612329880E-1,9.332008362E-1,-1.018146038E1,-8.344969153E-1
7.637817910E-1,9.379864931E-1,-1.021017456E1,-8.584251404E-1
7.662978840E-1,9.427721500E-1,-1.022453117E1,-8.009973764E-1
7.688139780E-1,9.523434043E-1,-1.022931671E1,-8.249256015E-1
7.713300720E-1,9.236295223E-1,-1.025803089E1,-7.914260626E-1
7.738461660E-1,9.044869542E-1,-1.030588722E1,-7.818548083E-1
7.763622590E-1,9.236295223E-1,-1.027238750E1,-7.722834945E-1
7.788783530E-1,8.949156404E-1,-1.030588722E1,-7.483552694E-1
7.813944470E-1,8.949156404E-1,-1.029631615E1,-7.579265833E-1
7.839105410E-1,8.805587292E-1,-1.028195858E1,-7.866404653E-1
7.864266340E-1,8.566305041E-1,-1.030588722E1,-7.818548083E-1
7.889427280E-1,8.662018180E-1,-1.030110168E1,-7.531409264E-1
7.914588220E-1,8.566305041E-1,-1.027238750E1,-7.818548083E-1
7.940076760E-1,8.470591903E-1,-1.024845982E1,-7.674978375E-1
7.965237700E-1,8.183453679E-1,-1.024367332E1,-7.627122402E-1
7.990398630E-1,8.279166222E-1,-1.027717304E1,-7.722834945E-1
8.015559570E-1,8.709874153E-1,-1.027238750E1,-7.435696125E-1
8.040720510E-1,8.566305041E-1,-1.023888779E1,-7.244270444E-1
8.065881450E-1,8.518448472E-1,-1.025324535E1,-7.292127013E-1
8.091042380E-1,8.374879360E-1,-1.021017456E1,-7.579265833E-1
8.116203320E-1,8.374879360E-1,-1.023410225E1,-7.339983582E-1
8.141364260E-1,8.805587292E-1,-1.025324535E1,-7.818548083E-1
8.166525200E-1,8.614161611E-1,-1.023410225E1,-8.009973764E-1
8.191686130E-1,8.757730722E-1,-1.024367332E1,-7.244270444E-1
8.216847070E-1,8.566305041E-1,-1.023888779E1,-7.244270444E-1
8.242335610E-1,8.614161611E-1,-1.023888779E1,-7.339983582E-1
8.267496550E-1,8.853443861E-1,-1.022931671E1,-6.903293133E-1
8.292657490E-1,9.475577474E-1,-1.020538902E1,-6.711867452E-1
8.317818430E-1,9.332008362E-1,-1.021017456E1,-6.664010882E-1
8.342979360E-1,9.571290612E-1,-1.019103146E1,-5.994020700E-1
8.368140300E-1,9.571290612E-1,-1.017667484E1,-6.041877270E-1
8.393301240E-1,9.762716293E-1,-1.020060253E1,-5.419743061E-1
8.418462180E-1,1.004985452E0,-1.019103146E1,-5.180460811E-1
8.443623110E-1,1.024128079E0,-1.015693378E1,-4.989035130E-1
8.468784050E-1,1.048056364E0,-1.017667484E1,-5.036891699E-1
8.493944990E-1,1.071984529E0,-1.017667484E1,-4.510470629E-1
8.519105930E-1,1.105484009E0,-1.018146038E1,-4.701896608E-1
8.544594470E-1,1.091127157E0,-1.016171932E1,-4.462614357E-1
8.569755410E-1,1.100698471E0,-1.016171932E1,-4.271188378E-1
8.594916340E-1,1.119840980E0,-1.015693378E1,-4.845465720E-1
8.620077280E-1,1.086341500E0,-1.007557774E1,-4.127618968E-1
8.645238220E-1,1.110269666E0,-1.011864853E1,-4.510470629E-1
8.670399160E-1,1.105484009E0,-1.012343407E1,-4.271188378E-1
8.695560090E-1,1.110269666E0,-1.011386299E1,-4.366901219E-1
8.720721030E-1,1.105484009E0,-1.011864853E1,-4.366901219E-1
8.745881970E-1,1.057627559E0,-1.008993530E1,-4.510470629E-1
8.771042910E-1,1.076770186E0,-1.012343407E1,-4.462614357E-1
8.796203840E-1,1.081555843E0,-1.012343407E1,-4.223332107E-1
8.821364780E-1,1.067198873E0,-1.010429192E1,-3.888336718E-1
8.846853320E-1,1.038485050E0,-1.010429192E1,-4.319044948E-1
8.872014260E-1,1.000199914E0,-1.014736271E1,-4.558327198E-1
8.897175200E-1,1.000199914E0,-1.012821960E1,-4.366901219E-1
8.922336130E-1,9.810572863E-1,-1.014736271E1,-4.223332107E-1
8.947497070E-1,9.619147182E-1,-1.016650486E1,-4.462614357E-1
8.972658010E-1,9.523434043E-1,-1.015693378E1,-4.797609448E-1
8.997818950E-1,9.379864931E-1,-1.020060253E1,-4.366901219E-1
9.022979880E-1,9.523434043E-1,-1.019581699E1,-4.654040039E-1
9.048140820E-1,9.284151793E-1,-1.018146038E1,-4.941178858E-1
9.073301760E-1,9.810572863E-1,-1.011864853E1,-4.558327198E-1
9.098462700E-1,9.475577474E-1,-1.016171932E1,-4.558327198E-1
9.123623630E-1,9.092726111E-1,-1.015214825E1,-4.558327198E-1
9.149111660E-1,9.140582681E-1,-1.016171932E1,-4.127618968E-1
9.174272590E-1,8.614161611E-1,-1.014736271E1,-4.175475538E-1
9.199433530E-1,8.757730722E-1,-1.013779163E1,-4.271188378E-1
9.224594470E-1,8.374879360E-1,-1.013779163E1,-4.701896608E-1
9.249755410E-1,8.135597110E-1,-1.016650486E1,-4.701896608E-1
9.274916340E-1,8.135597110E-1,-1.016171932E1,-4.462614357E-1
9.300077280E-1,8.039883971E-1,-1.013779163E1,-4.558327198E-1
9.325238220E-1,7.944171429E-1,-1.012821960E1,-4.558327198E-1
9.350399160E-1,8.135597110E-1,-1.015693378E1,-4.845465720E-1
9.375560090E-1,8.231309652E-1,-1.014736271E1,-4.845465720E-1
9.400721030E-1,7.992027402E-1,-1.015214825E1,-4.893322289E-1
9.425881970E-1,7.800601721E-1,-1.013300610E1,-4.558327198E-1
9.451371030E-1,7.800601721E-1,-1.012343407E1,-4.319044948E-1
9.476531970E-1,7.657032609E-1,-1.014257717E1,-4.271188378E-1
9.501692910E-1,7.465606928E-1,-1.010429192E1,-4.414757788E-1
9.526853840E-1,7.513462901E-1,-1.010907745E1,-4.606183469E-1
9.552014780E-1,7.704889178E-1,-1.009472084E1,-4.031906128E-1
9.577175720E-1,7.704889178E-1,-1.010907745E1,-4.606183469E-1
9.602336660E-1,7.657032609E-1,-1.010907745E1,-4.462614357E-1
9.627497590E-1,7.561319470E-1,-1.009472084E1,-4.510470629E-1
9.652658530E-1,7.848458290E-1,-1.011386299E1,-4.558327198E-1
9.677819470E-1,8.183453679E-1,-1.014257717E1,-4.797609448E-1
9.702980410E-1,7.944171429E-1,-1.016650486E1,-4.414757788E-1
9.728141340E-1,8.135597110E-1,-1.019581699E1,-4.558327198E-1
9.753629360E-1,8.279166222E-1,-1.015214825E1,-4.749752879E-1
9.778790300E-1,8.231309652E-1,-1.016650486E1,-4.845465720E-1
9.803951240E-1,8.518448472E-1,-1.018146038E1,-4.797609448E-1
9.829112180E-1,8.566305041E-1,-1.021017456E1,-4.462614357E-1
9.854273110E-1,8.279166222E-1,-1.021017456E1,-4.414757788E-1
9.879434050E-1,8.470591903E-1,-1.021974564E1,-4.701896608E-1
9.904594990E-1,8.231309652E-1,-1.020538902E1,-4.366901219E-1
9.929755930E-1,8.709874153E-1,-1.022453117E1,-4.223332107E-1
9.954916860E-1,8.949156404E-1,-1.022453117E1,-4.271188378E-1
9.980077800E-1,8.949156404E-1,-1.020538902E1,-4.127618968E-1
1.000523874E0,8.470591903E-1,-1.022931671E1,-4.031906128E-1
1.003039968E0,8.853443861E-1,-1.021017456E1,-4.079762697E-1
1.005588874E0,8.901300430E-1,-1.020538902E1,-4.223332107E-1
1.008104968E0,8.662018180E-1,-1.021017456E1,-3.984049559E-1
1.010621061E0,8.470591903E-1,-1.022453117E1,-3.840480447E-1
1.013137155E0,8.709874153E-1,-1.019581699E1,-3.649054468E-1
1.015653249E0,8.757730722E-1,-1.021017456E1,-4.079762697E-1
1.018169343E0,8.518448472E-1,-1.017667484E1,-4.127618968E-1
1.020685436E0,8.709874153E-1,-1.019103146E1,-4.079762697E-1
1.023201530E0,9.044869542E-1,-1.016650486E1,-4.127618968E-1
1.025717624E0,8.135597110E-1,-1.016650486E1,-4.319044948E-1
1.028233718E0,8.231309652E-1,-1.018146038E1,-4.223332107E-1
1.030749811E0,8.327022791E-1,-1.019581699E1,-4.414757788E-1
1.033265905E0,8.039883971E-1,-1.016650486E1,-4.558327198E-1
1.035814707E0,8.327022791E-1,-1.015693378E1,-4.749752879E-1
1.038330801E0,8.709874153E-1,-1.015214825E1,-4.462614357E-1
1.040846895E0,7.944171429E-1,-1.014736271E1,-4.701896608E-1
1.043362988E0,7.944171429E-1,-1.018146038E1,-5.036891699E-1
1.045879082E0,8.183453679E-1,-1.013300610E1,-5.036891699E-1
1.048395176E0,8.183453679E-1,-1.014257717E1,-4.749752879E-1
1.050911270E0,8.183453679E-1,-1.014736271E1,-5.036891699E-1
1.053427363E0,8.374879360E-1,-1.014257717E1,-4.701896608E-1
1.055943457E0,8.518448472E-1,-1.011386299E1,-4.701896608E-1
1.058459551E0,8.422735929E-1,-1.012821960E1,-4.462614357E-1
1.060975645E0,8.087740541E-1,-1.016650486E1,-4.414757788E-1
1.063491738E0,7.944171429E-1,-1.016171932E1,-4.845465720E-1
1.066040541E0,8.135597110E-1,-1.018146038E1,-4.606183469E-1
1.068557207E0,8.183453679E-1,-1.014736271E1,-4.319044948E-1
1.071073822E0,8.135597110E-1,-1.018146038E1,-4.606183469E-1
1.073590488E0,8.039883971E-1,-1.014736271E1,-4.606183469E-1
1.076107103E0,8.135597110E-1,-1.018146038E1,-4.701896608E-1
1.078623770E0,7.944171429E-1,-1.021017456E1,-4.606183469E-1
1.081140384E0,8.135597110E-1,-1.017188931E1,-4.606183469E-1
1.083656999E0,7.992027402E-1,-1.018146038E1,-4.366901219E-1
1.086173666E0,7.896314859E-1,-1.017188931E1,-4.319044948E-1
1.088690280E0,7.752745152E-1,-1.016171932E1,-4.366901219E-1
1.091206947E0,7.369893789E-1,-1.019581699E1,-4.127618968E-1
1.093723561E0,7.316055298E-1,-1.021974564E1,-4.175475538E-1
1.096266426E0,7.513462901E-1,-1.017188931E1,-3.888336718E-1
1.098783093E0,7.369893789E-1,-1.018624592E1,-3.840480447E-1
1.101299707E0,7.172485590E-1,-1.017667484E1,-3.840480447E-1
1.103816374E0,7.657032609E-1,-1.017667484E1,-3.266202807E-1
1.106332988E0,7.800601721E-1,-1.016650486E1,-3.505485058E-1
1.108849655E0,7.513462901E-1,-1.016171932E1,-3.361915946E-1
1.111366270E0,7.220342159E-1,-1.014257717E1,-3.218346536E-1
1.113882884E0,7.172485590E-1,-1.012821960E1,-3.553341627E-1
1.116399551E0,7.316055298E-1,-1.011864853E1,-3.457628787E-1
1.118916166E0,7.172485590E-1,-1.012343407E1,-3.314059377E-1
1.121432832E0,7.220342159E-1,-1.008514881E1,-3.649054468E-1
1.123949447E0,7.172485590E-1,-1.008993530E1,-3.744767308E-1
1.126492311E0,7.369893789E-1,-1.009950638E1,-3.649054468E-1
1.129008978E0,7.268198729E-1,-1.013779163E1,-3.696911037E-1
1.131525593E0,7.220342159E-1,-1.014257717E1,-3.696911037E-1
1.134042259E0,7.752745152E-1,-1.007557774E1,-3.457628787E-1
1.136558874E0,7.417750359E-1,-1.009472084E1,-3.744767308E-1
1.139075541E0,7.220342159E-1,-1.013300610E1,-3.840480447E-1
1.141592155E0,7.220342159E-1,-1.014257717E1,-3.744767308E-1
1.144108770E0,7.124629617E-1,-1.016171932E1,-3.984049559E-1
1.146625436E0,7.220342159E-1,-1.013300610E1,-3.936193287E-1
1.149142051E0,7.417750359E-1,-1.019103146E1,-3.696911037E-1
1.151658718E0,7.561319470E-1,-1.017667484E1,-3.744767308E-1
1.154175332E0,7.609176040E-1,-1.019581699E1,-3.792623878E-1
1.156718145E0,7.220342159E-1,-1.017667484E1,-4.031906128E-1
1.159234811E0,7.268198729E-1,-1.015693378E1,-3.744767308E-1
1.161751426E0,7.316055298E-1,-1.017667484E1,-3.840480447E-1
1.164268093E0,7.076773047E-1,-1.018146038E1,-3.984049559E-1
1.166784707E0,6.981059909E-1,-1.017188931E1,-3.840480447E-1
1.169301374E0,7.028916478E-1,-1.017667484E1,-3.984049559E-1
1.171817988E0,7.028916478E-1,-1.017188931E1,-4.079762697E-1
1.174334603E0,6.693921089E-1,-1.017667484E1,-3.792623878E-1
1.176851270E0,6.837490797E-1,-1.018624592E1,-4.127618968E-1
1.179367884E0,6.693921089E-1,-1.020538902E1,-4.223332107E-1
1.181884551E0,6.263213158E-1,-1.018146038E1,-4.175475538E-1
1.184401166E0,6.119644046E-1,-1.017667484E1,-4.223332107E-1
1.186944082E0,6.071787477E-1,-1.020538902E1,-4.127618968E-1
1.189460749E0,5.880361795E-1,-1.019103146E1,-3.361915946E-1
1.191977363E0,5.832505226E-1,-1.019103146E1,-3.696911037E-1
1.194494030E0,5.832505226E-1,-1.015214825E1,-3.314059377E-1
1.197010645E0,5.641079545E-1,-1.017188931E1,-3.457628787E-1
1.199527311E0,5.353940725E-1,-1.019103146E1,-3.457628787E-1
1.202043926E0,5.162515044E-1,-1.020538902E1,-3.649054468E-1
1.204560541E0,5.258227587E-1,-1.019581699E1,-3.457628787E-1
1.207077207E0,5.018945336E-1,-1.018146038E1,-4.031906128E-1
1.209593822E0,4.923232496E-1,-1.017667484E1,-3.984049559E-1
1.212110488E0,4.779663086E-1,-1.017667484E1,-4.319044948E-1
1.214627103E0,4.779663086E-1,-1.019581699E1,-4.031906128E-1
1.217169968E0,4.444667995E-1,-1.019103146E1,-3.984049559E-1
1.219686634E0,4.731806815E-1,-1.016650486E1,-3.553341627E-1
1.222203249E0,4.923232496E-1,-1.012343407E1,-3.553341627E-1
1.224719916E0,4.731806815E-1,-1.013779163E1,-3.936193287E-1
1.227236530E0,4.875376225E-1,-1.016650486E1,-4.079762697E-1
1.229753197E0,5.018945336E-1,-1.019103146E1,-4.031906128E-1
1.232269811E0,5.066801906E-1,-1.016171932E1,-3.936193287E-1
1.234786426E0,5.066801906E-1,-1.013779163E1,-4.175475538E-1
1.237303093E0,5.162515044E-1,-1.014257717E1,-4.319044948E-1
1.239819707E0,5.114658475E-1,-1.015214825E1,-4.271188378E-1
1.242336374E0,5.258227587E-1,-1.017188931E1,-4.223332107E-1
1.244852988E0,5.497509837E-1,-1.016171932E1,-4.319044948E-1
1.247395853E0,5.736792088E-1,-1.012821960E1,-4.079762697E-1
1.249912520E0,5.401797295E-1,-1.017667484E1,-3.792623878E-1
1.252429134E0,5.736792088E-1,-1.016171932E1,-4.031906128E-1
1.254945801E0,5.880361795E-1,-1.012821960E1,-3.744767308E-1
1.257462416E0,6.119644046E-1,-1.016650486E1,-3.792623878E-1
1.259979082E0,6.215356588E-1,-1.016650486E1,-3.553341627E-1
1.262495697E0,6.071787477E-1,-1.018624592E1,-4.031906128E-1
1.265012311E0,5.928218365E-1,-1.017188931E1,-3.936193287E-1
1.267528978E0,5.832505226E-1,-1.016171932E1,-3.888336718E-1
1.270045593E0,6.406782866E-1,-1.016650486E1,-3.888336718E-1
1.272562259E0,6.167500615E-1,-1.016171932E1,-3.984049559E-1
1.275078874E0,6.119644046E-1,-1.019581699E1,-3.840480447E-1
1.277621738E0,6.406782866E-1,-1.018146038E1,-3.840480447E-1
1.280138405E0,5.880361795E-1,-1.018624592E1,-3.888336718E-1
1.282655020E0,6.119644046E-1,-1.016171932E1,-3.840480447E-1
1.285171686E0,6.311069727E-1,-1.016171932E1,-3.840480447E-1
1.287688301E0,6.406782866E-1,-1.016650486E1,-3.984049559E-1
1.290204968E0,6.071787477E-1,-1.014736271E1,-4.127618968E-1
1.292721582E0,6.119644046E-1,-1.017667484E1,-4.654040039E-1
1.295238197E0,6.311069727E-1,-1.020538902E1,-4.558327198E-1
1.297754863E0,6.167500615E-1,-1.016171932E1,-4.893322289E-1
1.300271478E0,6.023930907E-1,-1.017188931E1,-4.941178858E-1
1.302788145E0,6.119644046E-1,-1.020060253E1,-4.749752879E-1
1.305304759E0,6.023930907E-1,-1.020538902E1,-5.419743061E-1
1.307847624E0,6.215356588E-1,-1.021496010E1,-5.419743061E-1
1.310364291E0,6.454638839E-1,-1.019581699E1,-5.228317380E-1
1.312880905E0,6.119644046E-1,-1.016650486E1,-5.228317380E-1
1.315397572E0,6.550351977E-1,-1.017188931E1,-5.419743061E-1
1.317914186E0,6.693921089E-1,-1.017667484E1,-5.084748268E-1
1.320430853E0,6.693921089E-1,-1.020060253E1,-5.276173949E-1
1.322947468E0,6.933203340E-1,-1.018624592E1,-4.893322289E-1
1.325464082E0,6.885347366E-1,-1.018624592E1,-5.324030519E-1
1.327980749E0,7.172485590E-1,-1.017667484E1,-4.941178858E-1
1.330497363E0,7.848458290E-1,-1.016171932E1,-4.749752879E-1
1.333014030E0,7.513462901E-1,-1.020060253E1,-4.989035130E-1
1.335530645E0,7.561319470E-1,-1.016650486E1,-4.701896608E-1
1.338073561E0,7.800601721E-1,-1.017188931E1,-4.701896608E-1
1.340590228E0,8.039883971E-1,-1.018624592E1,-4.558327198E-1
1.343106843E0,8.087740541E-1,-1.019103146E1,-4.127618968E-1
1.345623509E0,8.374879360E-1,-1.019103146E1,-4.558327198E-1
1.348140124E0,8.614161611E-1,-1.021496010E1,-4.175475538E-1
1.350656791E0,8.374879360E-1,-1.022453117E1,-4.510470629E-1
1.353173405E0,8.709874153E-1,-1.017667484E1,-4.606183469E-1
1.355690020E0,8.805587292E-1,-1.016650486E1,-4.558327198E-1
1.358206686E0,8.757730722E-1,-1.020538902E1,-4.510470629E-1
1.360723301E0,8.805587292E-1,-1.022453117E1,-4.845465720E-1
1.363239968E0,9.092726111E-1,-1.019581699E1,-4.558327198E-1
1.365756582E0,9.475577474E-1,-1.018146038E1,-4.366901219E-1
1.368299447E0,9.427721500E-1,-1.018624592E1,-4.510470629E-1
1.370816113E0,9.236295223E-1,-1.018624592E1,-4.462614357E-1
1.373332728E0,9.571290612E-1,-1.018146038E1,-4.845465720E-1
1.375849395E0,9.954141974E-1,-1.019103146E1,-4.845465720E-1
1.378366009E0,9.762716293E-1,-1.021496010E1,-4.414757788E-1
1.380882676E0,1.009771109E0,-1.020538902E1,-4.606183469E-1
1.383399291E0,9.954141974E-1,-1.017667484E1,-4.749752879E-1
1.385915905E0,9.954141974E-1,-1.021017456E1,-4.414757788E-1
1.388432572E0,1.004985452E0,-1.019103146E1,-4.271188378E-1
1.390949186E0,1.033699393E0,-1.019103146E1,-4.558327198E-1
1.393465853E0,1.095912814E0,-1.021017456E1,-4.462614357E-1
1.395982468E0,1.086341500E0,-1.020060253E1,-4.462614357E-1
1.398525332E0,1.057627559E0,-1.016650486E1,-4.845465720E-1
1.401041999E0,1.086341500E0,-1.021017456E1,-5.324030519E-1
1.403558613E0,1.105484009E0,-1.019581699E1,-5.132604837E-1
1.406075280E0,1.095912814E0,-1.020538902E1,-5.467599630E-1
1.408591895E0,1.124626637E0,-1.021017456E1,-5.898307562E-1
1.411108561E0,1.129412293E0,-1.018146038E1,-5.515456200E-1
1.413625176E0,1.105484009E0,-1.018146038E1,-6.185446382E-1
1.416141791E0,1.110269666E0,-1.018624592E1,-6.520441771E-1
1.418658457E0,1.081555843E0,-1.019103146E1,-6.903293133E-1
1.421175072E0,1.086341500E0,-1.022931671E1,-7.244270444E-1
1.423691738E0,1.095912814E0,-1.020538902E1,-7.046862841E-1
1.426208353E0,1.110269666E0,-1.019581699E1,-7.579265833E-1
1.428751218E0,1.086341500E0,-1.013300610E1,-6.951149702E-1
1.431267884E0,1.067198873E0,-1.011386299E1,-7.190431952E-1
1.433784499E0,1.100698471E0,-1.016650486E1,-7.579265833E-1
1.436301166E0,1.138983607E0,-1.017667484E1,-7.142575383E-1
1.438817780E0,1.071984529E0,-1.014736271E1,-6.999006271E-1
1.441334447E0,1.043270707E0,-1.012821960E1,-7.046862841E-1
1.443851061E0,1.086341500E0,-1.011864853E1,-7.722834945E-1
1.446367676E0,1.052842021E0,-1.012821960E1,-7.579265833E-1
1.448884343E0,1.052842021E0,-1.012821960E1,-7.387840152E-1
1.451400957E0,1.081555843E0,-1.009472084E1,-7.579265833E-1
1.453917624E0,1.048056364E0,-1.008036327E1,-7.483552694E-1
1.456434238E0,1.009771109E0,-1.015214825E1,-7.142575383E-1
1.458977155E0,1.062413216E0,-1.014257717E1,-6.855437160E-1
1.461493822E0,1.052842021E0,-1.016171932E1,-7.142575383E-1
1.464010436E0,1.009771109E0,-1.015214825E1,-6.807580590E-1
1.466527103E0,1.004985452E0,-1.013300610E1,-6.568298340E-1
1.469043718E0,1.009771109E0,-1.009950638E1,-6.759724021E-1
1.471560384E0,9.762716293E-1,-1.010429192E1,-6.951149702E-1
1.474076999E0,9.714859724E-1,-1.014736271E1,-7.339983582E-1
1.476593613E0,9.858429432E-1,-1.008036327E1,-7.435696125E-1
1.479110280E0,9.571290612E-1,-1.012821960E1,-7.579265833E-1
1.481626895E0,9.714859724E-1,-1.013779163E1,-7.292127013E-1
1.484143561E0,9.284151793E-1,-1.014257717E1,-6.903293133E-1
1.486660176E0,9.427721500E-1,-1.010907745E1,-7.142575383E-1
1.489203041E0,9.092726111E-1,-1.008036327E1,-6.711867452E-1
1.491719707E0,8.949156404E-1,-1.012821960E1,-6.664010882E-1
1.494236322E0,8.949156404E-1,-1.012343407E1,-6.616154313E-1
1.496752988E0,8.470591903E-1,-1.008036327E1,-6.616154313E-1
1.499269603E0,8.662018180E-1,-1.003729248E1,-6.616154313E-1
1.501786270E0,8.518448472E-1,-1.008036327E1,-6.424728632E-1
1.504302884E0,8.231309652E-1,-1.006122112E1,-6.137589812E-1
1.506819499E0,8.374879360E-1,-1.007079220E1,-5.515456200E-1
1.509336166E0,8.279166222E-1,-1.007557774E1,-5.276173949E-1
1.511852780E0,8.183453679E-1,-1.005643559E1,-5.515456200E-1
1.514369447E0,8.183453679E-1,-1.007557774E1,-5.228317380E-1
1.516886061E0,8.566305041E-1,-1.008514881E1,-4.701896608E-1
1.519428926E0,8.327022791E-1,-1.008993530E1,-4.749752879E-1
1.521945593E0,8.470591903E-1,-1.009472084E1,-4.271188378E-1
1.524462207E0,8.470591903E-1,-1.008036327E1,-4.223332107E-1
1.526978874E0,8.757730722E-1,-1.008514881E1,-4.031906128E-1
1.529495488E0,8.327022791E-1,-1.008514881E1,-3.744767308E-1
1.532012155E0,8.566305041E-1,-1.010429192E1,-3.553341627E-1
1.534528770E0,8.709874153E-1,-1.008514881E1,-3.792623878E-1
1.537045384E0,8.662018180E-1,-1.012343407E1,-3.649054468E-1
1.539562051E0,8.614161611E-1,-1.011864853E1,-3.696911037E-1
1.542078666E0,8.518448472E-1,-1.009950638E1,-3.696911037E-1
1.544595332E0,8.183453679E-1,-1.006600666E1,-3.696911037E-1
1.547111947E0,8.231309652E-1,-1.012343407E1,-4.031906128E-1
1.549654863E0,7.944171429E-1,-1.013779163E1,-4.366901219E-1
1.552171530E0,7.513462901E-1,-1.011864853E1,-3.792623878E-1
1.554688145E0,7.369893789E-1,-1.011864853E1,-4.031906128E-1
1.557204811E0,7.465606928E-1,-1.011386299E1,-3.840480447E-1
1.559721426E0,7.268198729E-1,-1.009472084E1,-3.266202807E-1
1.562238093E0,7.076773047E-1,-1.009950638E1,-3.649054468E-1
1.564754707E0,7.076773047E-1,-1.009950638E1,-3.888336718E-1
1.567271322E0,7.028916478E-1,-1.011864853E1,-3.696911037E-1
1.569787988E0,6.837490797E-1,-1.014257717E1,-3.026920557E-1
1.572304603E0,6.693921089E-1,-1.014257717E1,-3.026920557E-1
1.574821270E0,6.550351977E-1,-1.011386299E1,-3.218346536E-1
1.577337884E0,6.550351977E-1,-1.014736271E1,-3.122633696E-1
1.579880697E0,6.598208547E-1,-1.018146038E1,-2.739782035E-1
1.582397728E0,6.693921089E-1,-1.018624592E1,-2.787638307E-1
1.584914811E0,6.646065116E-1,-1.020538902E1,-2.835494876E-1
1.587431895E0,6.646065116E-1,-1.018624592E1,-2.596212626E-1
1.589948978E0,6.550351977E-1,-1.021017456E1,-2.644068897E-1
1.592466061E0,6.981059909E-1,-1.024367332E1,-2.596212626E-1
1.594983145E0,6.741777658E-1,-1.021974564E1,-2.548356056E-1
1.597500176E0,6.311069727E-1,-1.017667484E1,-2.117647976E-1
1.600017259E0,6.311069727E-1,-1.020060253E1,-2.548356056E-1
1.602534343E0,6.502495408E-1,-1.016650486E1,-2.787638307E-1
1.605051426E0,6.598208547E-1,-1.019103146E1,-2.931207716E-1
1.607568509E0,6.406782866E-1,-1.018624592E1,-3.026920557E-1
1.610106634E0,6.023930907E-1,-1.017667484E1,-3.074777126E-1
1.612623666E0,5.832505226E-1,-1.017667484E1,-3.361915946E-1
1.615140749E0,5.928218365E-1,-1.017188931E1,-3.840480447E-1
1.617657832E0,5.593222976E-1,-1.017188931E1,-3.457628787E-1
1.620174916E0,5.401797295E-1,-1.018146038E1,-3.696911037E-1
1.622691999E0,5.928218365E-1,-1.016171932E1,-3.744767308E-1
1.625209082E0,5.449653864E-1,-1.012821960E1,-3.553341627E-1
1.627726113E0,5.258227587E-1,-1.018146038E1,-3.696911037E-1
1.630243197E0,5.306084156E-1,-1.019103146E1,-4.079762697E-1
1.632760280E0,5.545366406E-1,-1.017667484E1,-4.414757788E-1
1.635277363E0,5.353940725E-1,-1.017188931E1,-4.558327198E-1
1.637794447E0,5.114658475E-1,-1.018624592E1,-4.127618968E-1
1.640332520E0,4.923232496E-1,-1.020538902E1,-4.366901219E-1
1.642849551E0,4.971089065E-1,-1.020060253E1,-4.271188378E-1
1.645366634E0,4.827519655E-1,-1.017667484E1,-4.510470629E-1
1.647883718E0,4.731806815E-1,-1.021974564E1,-4.558327198E-1
1.650400801E0,5.258227587E-1,-1.016650486E1,-4.510470629E-1
1.652917884E0,5.114658475E-1,-1.016171932E1,-4.414757788E-1
1.655434968E0,5.306084156E-1,-1.019103146E1,-4.797609448E-1
1.657951999E0,5.784648657E-1,-1.017667484E1,-4.941178858E-1
1.660469082E0,5.688936114E-1,-1.015214825E1,-4.654040039E-1
1.662986166E0,5.688936114E-1,-1.013300610E1,-4.701896608E-1
1.665503249E0,5.545366406E-1,-1.011864853E1,-5.036891699E-1
1.668020332E0,5.880361795E-1,-1.011864853E1,-5.419743061E-1
1.670558457E0,5.641079545E-1,-1.011864853E1,-5.467599630E-1
1.673075488E0,5.162515044E-1,-1.008993530E1,-5.563312769E-1
1.675592572E0,5.162515044E-1,-1.008993530E1,-5.324030519E-1
1.678109655E0,5.162515044E-1,-1.007557774E1,-5.324030519E-1
1.680626738E0,5.114658475E-1,-1.008514881E1,-5.850451589E-1
1.683143822E0,5.210371017E-1,-1.012343407E1,-5.994020700E-1
1.685660905E0,5.018945336E-1,-1.015214825E1,-5.276173949E-1
1.688177936E0,4.971089065E-1,-1.015214825E1,-5.754738450E-1
1.690695020E0,4.875376225E-1,-1.017667484E1,-6.041877270E-1
1.693212103E0,4.827519655E-1,-1.023410225E1,-6.137589812E-1
1.695729186E0,5.066801906E-1,-1.025803089E1,-6.520441771E-1
1.698246270E0,4.636093974E-1,-1.027238750E1,-6.185446382E-1
1.700784343E0,4.923232496E-1,-1.027238750E1,-6.233302951E-1
1.703301374E0,4.301098585E-1,-1.025324535E1,-6.329016089E-1
1.705818457E0,4.396811724E-1,-1.024845982E1,-5.946164131E-1
1.708335541E0,4.253242314E-1,-1.026760197E1,-5.898307562E-1
1.710852624E0,3.774677813E-1,-1.029153061E1,-5.611169338E-1
1.713369707E0,3.343969584E-1,-1.024845982E1,-5.898307562E-1
1.715886791E0,3.056831062E-1,-1.025803089E1,-5.802595019E-1
1.718403822E0,2.913261652E-1,-1.027238750E1,-5.850451589E-1
1.720920905E0,2.243271172E-1,-1.025324535E1,-5.994020700E-1
1.723437988E0,1.998006850E-1,-1.025324535E1,-6.185446382E-1
1.725955072E0,1.950150430E-1,-1.025324535E1,-5.946164131E-1
1.728472155E0,1.854437590E-1,-1.022453117E1,-6.472585201E-1
1.731010280E0,1.663011760E-1,-1.020538902E1,-6.424728632E-1
1.733527311E0,1.375873089E-1,-1.023888779E1,-6.329016089E-1
1.736044395E0,1.280160099E-1,-1.020060253E1,-6.759724021E-1
1.738561478E0,1.423729509E-1,-1.018146038E1,-6.903293133E-1
1.741078561E0,1.088734269E-1,-1.021974564E1,-6.664010882E-1
1.743595645E0,1.232303679E-1,-1.023410225E1,-6.329016089E-1
1.746112728E0,1.136590764E-1,-1.021017456E1,-6.041877270E-1
1.748629759E0,8.973085135E-2,-1.020538902E1,-5.802595019E-1
1.751146843E0,8.494520187E-2,-1.023888779E1,-5.563312769E-1
1.753663926E0,9.451649338E-2,-1.021974564E1,-5.802595019E-1
1.756181009E0,1.088734269E-1,-1.018624592E1,-5.706881881E-1
1.758698093E0,1.040877849E-1,-1.022931671E1,-5.515456200E-1
1.761236166E0,1.328016520E-1,-1.027717304E1,-5.611169338E-1
1.763753197E0,1.328016520E-1,-1.025803089E1,-5.228317380E-1
1.766270280E0,1.232303679E-1,-1.022931671E1,-5.324030519E-1
1.768787363E0,1.232303679E-1,-1.024367332E1,-5.371887088E-1
1.771304447E0,1.519442350E-1,-1.028195858E1,-5.324030519E-1
1.773821530E0,1.423729509E-1,-1.026281643E1,-5.754738450E-1
1.776338613E0,1.471585929E-1,-1.024845982E1,-5.659025311E-1
1.778855645E0,1.375873089E-1,-1.024367332E1,-5.850451589E-1
1.781372728E0,1.471585929E-1,-1.027238750E1,-5.324030519E-1
1.783889811E0,1.423729509E-1,-1.028195858E1,-5.563312769E-1
1.786406895E0,1.998006850E-1,-1.027717304E1,-5.659025311E-1
1.788923978E0,1.710868180E-1,-1.021974564E1,-5.659025311E-1
1.791462103E0,1.998006850E-1,-1.022453117E1,-5.467599630E-1
1.793979134E0,2.147558331E-1,-1.022453117E1,-5.276173949E-1
1.796496218E0,1.806581169E-1,-1.022453117E1,-5.611169338E-1
1.799013301E0,2.147558331E-1,-1.021496010E1,-5.467599630E-1
1.801530384E0,2.051845491E-1,-1.020060253E1,-5.324030519E-1
1.804047468E0,1.998006850E-1,-1.019103146E1,-5.324030519E-1
1.806564551E0,2.051845491E-1,-1.016171932E1,-5.706881881E-1
1.809081582E0,2.386840582E-1,-1.018146038E1,-6.233302951E-1
1.811598666E0,2.147558331E-1,-1.019103146E1,-6.281159520E-1
1.814115749E0,1.950150430E-1,-1.019103146E1,-6.424728632E-1
1.816632832E0,2.147558331E-1,-1.015693378E1,-6.137589812E-1
1.819149916E0,1.902294010E-1,-1.015214825E1,-6.185446382E-1
1.821687988E0,1.615155339E-1,-1.018146038E1,-6.999006271E-1
1.824205020E0,1.710868180E-1,-1.014736271E1,-7.244270444E-1
1.826722103E0,1.328016520E-1,-1.013779163E1,-7.292127013E-1
1.829239186E0,1.567298770E-1,-1.015693378E1,-7.339983582E-1
1.831756270E0,1.710868180E-1,-1.017188931E1,-7.292127013E-1
1.834273353E0,1.710868180E-1,-1.011386299E1,-7.435696125E-1
1.836790436E0,1.710868180E-1,-1.014257717E1,-7.627122402E-1
1.839307468E0,1.519442350E-1,-1.012821960E1,-7.674978375E-1
1.841824551E0,1.710868180E-1,-1.012343407E1,-7.627122402E-1
1.844341634E0,1.998006850E-1,-1.010907745E1,-7.914260626E-1
1.846858718E0,1.950150430E-1,-1.014257717E1,-7.627122402E-1
1.849375801E0,2.195414752E-1,-1.012821960E1,-7.244270444E-1
1.851913926E0,2.147558331E-1,-1.010907745E1,-7.094719410E-1
1.854430957E0,2.147558331E-1,-1.015693378E1,-6.951149702E-1
1.856948041E0,2.338984162E-1,-1.020060253E1,-6.568298340E-1
1.859465124E0,2.195414752E-1,-1.014257717E1,-6.376872063E-1
1.861982207E0,2.338984162E-1,-1.010907745E1,-6.376872063E-1
1.864499291E0,2.338984162E-1,-1.009472084E1,-6.855437160E-1
1.867016374E0,2.291127741E-1,-1.010429192E1,-6.233302951E-1
1.869533405E0,2.865405083E-1,-1.016171932E1,-6.568298340E-1
1.872050488E0,2.817548811E-1,-1.011864853E1,-6.520441771E-1
1.874567572E0,2.769692242E-1,-1.013300610E1,-5.898307562E-1
1.877084655E0,3.152543902E-1,-1.012821960E1,-6.041877270E-1
1.879601738E0,3.535395563E-1,-1.012821960E1,-6.233302951E-1
1.882139811E0,3.535395563E-1,-1.015214825E1,-6.089733839E-1
1.884656843E0,3.631108403E-1,-1.016171932E1,-5.898307562E-1
1.887173926E0,4.253242314E-1,-1.012821960E1,-5.371887088E-1
1.889691009E0,5.018945336E-1,-1.013300610E1,-4.749752879E-1
1.892208093E0,4.827519655E-1,-1.019103146E1,-4.654040039E-1
1.894725176E0,4.396811724E-1,-1.014736271E1,-4.558327198E-1
1.897242259E0,4.731806815E-1,-1.015693378E1,-5.132604837E-1
1.899759291E0,4.731806815E-1,-1.014257717E1,-5.228317380E-1
1.902276374E0,4.971089065E-1,-1.018624592E1,-5.371887088E-1
1.904793457E0,4.827519655E-1,-1.018146038E1,-5.659025311E-1
1.907310541E0,4.923232496E-1,-1.019103146E1,-5.419743061E-1
1.909827624E0,4.923232496E-1,-1.021974564E1,-5.228317380E-1
1.912365697E0,5.545366406E-1,-1.017667484E1,-5.084748268E-1
1.914882728E0,5.258227587E-1,-1.021017456E1,-5.419743061E-1
1.917399811E0,5.497509837E-1,-1.021017456E1,-5.467599630E-1
1.919916895E0,5.784648657E-1,-1.020538902E1,-5.180460811E-1
1.922433978E0,5.593222976E-1,-1.021017456E1,-5.371887088E-1
1.924951061E0,5.306084156E-1,-1.022931671E1,-5.228317380E-1
1.927468145E0,5.497509837E-1,-1.023888779E1,-5.036891699E-1
1.929985176E0,5.210371017E-1,-1.021974564E1,-4.893322289E-1
1.932502259E0,5.353940725E-1,-1.017188931E1,-5.467599630E-1
1.935019343E0,4.683950245E-1,-1.015214825E1,-6.137589812E-1
1.937536426E0,5.210371017E-1,-1.016171932E1,-6.281159520E-1
1.940053509E0,4.923232496E-1,-1.018146038E1,-5.611169338E-1
1.942591634E0,4.396811724E-1,-1.017188931E1,-6.089733839E-1
1.945108666E0,4.636093974E-1,-1.020060253E1,-6.616154313E-1
1.947625749E0,4.875376225E-1,-1.021974564E1,-6.999006271E-1
1.950142832E0,4.683950245E-1,-1.022453117E1,-6.711867452E-1
1.952659916E0,4.540380836E-1,-1.026281643E1,-6.616154313E-1
1.955176999E0,4.971089065E-1,-1.022931671E1,-7.244270444E-1
1.957694082E0,5.258227587E-1,-1.018146038E1,-7.339983582E-1
1.960211113E0,5.258227587E-1,-1.018624592E1,-7.142575383E-1
1.962728197E0,5.018945336E-1,-1.015214825E1,-7.483552694E-1
1.965245280E0,4.971089065E-1,-1.020538902E1,-7.531409264E-1
1.967762363E0,4.971089065E-1,-1.019103146E1,-7.483552694E-1
1.970279447E0,4.683950245E-1,-1.017667484E1,-7.674978375E-1
1.972817520E0,4.492524564E-1,-1.013779163E1,-7.579265833E-1
1.975334551E0,4.444667995E-1,-1.014257717E1,-8.440681696E-1
1.977851634E0,4.301098585E-1,-1.014736271E1,-8.344969153E-1
1.980368718E0,4.013960063E-1,-1.012821960E1,-8.536394835E-1
1.982885801E0,3.966103494E-1,-1.012821960E1,-8.249256015E-1
1.985402884E0,4.013960063E-1,-1.014736271E1,-7.962117195E-1
1.987919968E0,4.157529473E-1,-1.013779163E1,-8.392825127E-1
1.990436999E0,3.774677813E-1,-1.014257717E1,-7.914260626E-1
1.992954082E0,4.061816335E-1,-1.014257717E1,-7.435696125E-1
1.995471166E0,3.870390654E-1,-1.017667484E1,-7.914260626E-1
1.997988249E0,3.583251834E-1,-1.015693378E1,-7.435696125E-1
2.000505332E0,3.439682424E-1,-1.015214825E1,-6.807580590E-1
2.003043457E0,3.487538993E-1,-1.016650486E1,-6.903293133E-1
2.005560488E0,3.056831062E-1,-1.017667484E1,-6.759724021E-1
2.008077572E0,3.008974493E-1,-1.021017456E1,-6.329016089E-1
2.010594655E0,2.865405083E-1,-1.018624592E1,-6.424728632E-1
2.013111738E0,2.673979402E-1,-1.018624592E1,-6.472585201E-1
2.015628822E0,2.482553422E-1,-1.019581699E1,-6.568298340E-1
2.018145905E0,2.147558331E-1,-1.020538902E1,-6.329016089E-1
2.020662936E0,1.854437590E-1,-1.024367332E1,-6.089733839E-1
2.023180020E0,2.099701911E-1,-1.023410225E1,-5.898307562E-1
2.025697103E0,2.338984162E-1,-1.020538902E1,-5.754738450E-1
2.028214186E0,2.243271172E-1,-1.021974564E1,-5.706881881E-1
2.030731270E0,2.434697002E-1,-1.020060253E1,-4.941178858E-1
2.033269343E0,1.998006850E-1,-1.019103146E1,-4.701896608E-1
2.035786374E0,1.902294010E-1,-1.022931671E1,-4.462614357E-1
2.038303457E0,1.998006850E-1,-1.015693378E1,-4.175475538E-1
2.040820541E0,2.243271172E-1,-1.019103146E1,-4.510470629E-1
2.043337624E0,1.950150430E-1,-1.020060253E1,-4.319044948E-1
2.045854707E0,1.806581169E-1,-1.021496010E1,-4.510470629E-1
2.048371791E0,2.051845491E-1,-1.021496010E1,-4.175475538E-1
2.050888822E0,1.902294010E-1,-1.021974564E1,-3.936193287E-1
2.053405905E0,1.950150430E-1,-1.020060253E1,-4.510470629E-1
2.055922988E0,2.051845491E-1,-1.019581699E1,-4.414757788E-1
2.058440072E0,2.147558331E-1,-1.021017456E1,-4.366901219E-1
2.060957155E0,1.758724600E-1,-1.021496010E1,-4.175475538E-1
2.063495228E0,1.663011760E-1,-1.024367332E1,-4.175475538E-1
2.066012259E0,1.567298770E-1,-1.029153061E1,-4.510470629E-1
2.068529343E0,1.519442350E-1,-1.025324535E1,-4.366901219E-1
2.071046426E0,1.375873089E-1,-1.028674412E1,-4.510470629E-1
2.073563509E0,1.136590764E-1,-1.026760197E1,-4.749752879E-1
2.076080593E0,8.973085135E-2,-1.030588722E1,-5.036891699E-1
2.078597676E0,6.101697683E-2,-1.024845982E1,-5.132604837E-1
2.081114707E0,3.708875179E-2,-1.026281643E1,-5.132604837E-1
2.083631791E0,-2.512463741E-2,-1.023888779E1,-5.276173949E-1
2.086148874E0,-3.948157281E-2,-1.021017456E1,-5.276173949E-1
2.088665957E0,-6.819544733E-2,-1.019103146E1,-5.563312769E-1
2.091183041E0,-6.340979785E-2,-1.021017456E1,-5.467599630E-1
2.093721113E0,-8.733802289E-2,-1.017667484E1,-5.563312769E-1
2.096238509E0,-1.016949639E-1,-1.021017456E1,-5.228317380E-1
2.098755957E0,-1.016949639E-1,-1.021974564E1,-5.324030519E-1
2.101273353E0,-1.112662554E-1,-1.018624592E1,-5.228317380E-1
2.103790801E0,-1.112662554E-1,-1.019581699E1,-5.228317380E-1
2.106308249E0,-9.690931439E-2,-1.017667484E1,-5.276173949E-1
2.108825645E0,-7.776673883E-2,-1.018146038E1,-4.558327198E-1
2.111343093E0,-2.512463741E-2,-1.019103146E1,-4.701896608E-1
2.113860488E0,-7.298108935E-2,-1.017188931E1,-4.223332107E-1
2.116377936E0,-6.340979785E-2,-1.020538902E1,-4.031906128E-1
2.118895332E0,1.316052489E-2,-1.018624592E1,-3.649054468E-1
2.121412780E0,3.230310604E-2,-1.015214825E1,-3.744767308E-1
2.123946999E0,5.144568533E-2,-1.016650486E1,-4.127618968E-1
2.126464395E0,1.040877849E-1,-1.013779163E1,-4.271188378E-1
2.128981843E0,9.930214286E-2,-1.012343407E1,-4.031906128E-1
2.131499238E0,1.328016520E-1,-1.011864853E1,-4.414757788E-1
2.134016686E0,1.615155339E-1,-1.009950638E1,-4.031906128E-1
2.136534134E0,1.758724600E-1,-1.011864853E1,-4.223332107E-1
2.139051530E0,1.998006850E-1,-1.009950638E1,-4.319044948E-1
2.141568978E0,2.243271172E-1,-1.012343407E1,-4.701896608E-1
2.144086374E0,2.386840582E-1,-1.008036327E1,-4.845465720E-1
2.146603822E0,2.673979402E-1,-1.014257717E1,-4.845465720E-1
2.149121218E0,2.865405083E-1,-1.013300610E1,-5.276173949E-1
2.151638666E0,3.008974493E-1,-1.014736271E1,-6.041877270E-1
2.154172936E0,3.008974493E-1,-1.016171932E1,-5.706881881E-1
2.156690332E0,2.626122832E-1,-1.011864853E1,-5.754738450E-1
2.159207780E0,2.769692242E-1,-1.016171932E1,-5.276173949E-1
2.161725176E0,3.152543902E-1,-1.019103146E1,-5.467599630E-1
2.164242624E0,3.200400174E-1,-1.018146038E1,-5.563312769E-1
2.166760072E0,3.056831062E-1,-1.020060253E1,-5.419743061E-1
2.169277468E0,2.961117923E-1,-1.021017456E1,-5.371887088E-1
2.171794916E0,2.721835673E-1,-1.018146038E1,-5.324030519E-1
2.174312311E0,2.721835673E-1,-1.025324535E1,-5.084748268E-1
2.176829759E0,2.817548811E-1,-1.021974564E1,-5.515456200E-1
2.179347155E0,2.434697002E-1,-1.020060253E1,-5.802595019E-1
2.181864603E0,2.338984162E-1,-1.018146038E1,-5.946164131E-1
2.184398822E0,2.338984162E-1,-1.018624592E1,-5.754738450E-1
2.186916218E0,1.950150430E-1,-1.017667484E1,-5.898307562E-1
2.189433666E0,1.854437590E-1,-1.019103146E1,-5.898307562E-1
2.191951061E0,1.758724600E-1,-1.020060253E1,-6.041877270E-1
2.194468509E0,1.710868180E-1,-1.017188931E1,-5.659025311E-1
2.196985957E0,1.710868180E-1,-1.020538902E1,-6.041877270E-1
2.199503353E0,1.615155339E-1,-1.017667484E1,-6.233302951E-1
2.202020801E0,1.232303679E-1,-1.015693378E1,-6.376872063E-1
2.204538197E0,7.537391037E-2,-1.019581699E1,-6.520441771E-1
2.207055645E0,8.973085135E-2,-1.022453117E1,-6.616154313E-1
2.209573041E0,1.088734269E-1,-1.023410225E1,-6.903293133E-1
2.212090488E0,8.015955985E-2,-1.021496010E1,-7.094719410E-1
2.214624759E0,4.187439755E-2,-1.019581699E1,-6.855437160E-1
2.217142155E0,6.101697683E-2,-1.021496010E1,-7.190431952E-1
2.219659603E0,2.273181453E-2,-1.025324535E1,-7.483552694E-1
2.222176999E0,1.794617064E-2,-1.022931671E1,-8.009973764E-1
2.224694447E0,2.751746029E-2,-1.023410225E1,-7.483552694E-1
2.227211895E0,3.708875179E-2,-1.024367332E1,-7.483552694E-1
2.229729291E0,3.230310604E-2,-1.022931671E1,-7.435696125E-1
2.232246738E0,1.316052489E-2,-1.022453117E1,-7.190431952E-1
2.234764134E0,-1.196411322E-3,-1.022931671E1,-7.339983582E-1
2.237281582E0,-5.982056726E-3,-1.023410225E1,-7.292127013E-1
2.239798978E0,-5.982056726E-3,-1.023888779E1,-6.999006271E-1
2.242316426E0,-1.555334684E-2,-1.020538902E1,-7.244270444E-1
2.244850645E0,-3.469592705E-2,-1.021496010E1,-7.387840152E-1
2.247368041E0,-5.383851007E-2,-1.020060253E1,-6.855437160E-1
2.249885488E0,-8.255238086E-2,-1.020538902E1,-6.759724021E-1
2.252402884E0,-9.212367237E-2,-1.020538902E1,-6.999006271E-1
2.254920332E0,-7.776673883E-2,-1.024367332E1,-7.094719410E-1
2.257437780E0,-4.426721856E-2,-1.024367332E1,-7.435696125E-1
2.259955176E0,-1.112662554E-1,-1.020060253E1,-6.855437160E-1
2.262472624E0,-1.112662554E-1,-1.019103146E1,-7.046862841E-1
2.264990020E0,-1.399801224E-1,-1.018146038E1,-7.046862841E-1
2.267507468E0,-1.399801224E-1,-1.020060253E1,-7.046862841E-1
2.270024863E0,-1.447657645E-1,-1.021017456E1,-6.951149702E-1
2.272542311E0,-2.021935135E-1,-1.020538902E1,-6.664010882E-1
2.275076582E0,-2.739782035E-1,-1.020538902E1,-6.759724021E-1
2.277593978E0,-3.074777126E-1,-1.019103146E1,-6.329016089E-1
2.280111426E0,-2.548356056E-1,-1.022453117E1,-6.041877270E-1
2.282628822E0,-2.787638307E-1,-1.023410225E1,-5.659025311E-1
2.285146270E0,-3.026920557E-1,-1.016650486E1,-5.994020700E-1
2.287663718E0,-3.463610709E-1,-1.020538902E1,-5.563312769E-1
2.290181113E0,-3.511467278E-1,-1.022931671E1,-5.371887088E-1
2.292698561E0,-3.218346536E-1,-1.019581699E1,-5.467599630E-1
2.295215957E0,-3.511467278E-1,-1.021017456E1,-5.084748268E-1
2.297733405E0,-3.170489967E-1,-1.019581699E1,-4.797609448E-1
2.300250801E0,-3.026920557E-1,-1.022453117E1,-4.893322289E-1
2.302768249E0,-3.367897868E-1,-1.021017456E1,-4.797609448E-1
2.305302468E0,-3.367897868E-1,-1.022453117E1,-4.797609448E-1
2.307819863E0,-2.931207716E-1,-1.022453117E1,-4.366901219E-1
2.310337311E0,-3.122633696E-1,-1.022931671E1,-4.606183469E-1
2.312854707E0,-2.931207716E-1,-1.020060253E1,-4.606183469E-1
2.315372155E0,-2.835494876E-1,-1.019581699E1,-4.749752879E-1
2.317889603E0,-2.739782035E-1,-1.018146038E1,-4.797609448E-1
2.320406999E0,-2.644068897E-1,-1.017667484E1,-4.606183469E-1
2.322924447E0,-2.452643216E-1,-1.013779163E1,-4.701896608E-1
2.325441843E0,-1.830509305E-1,-1.016171932E1,-4.749752879E-1
2.327959291E0,-1.686939895E-1,-1.015214825E1,-4.510470629E-1
2.330476686E0,-1.399801224E-1,-1.012821960E1,-4.749752879E-1
2.332994134E0,-1.112662554E-1,-1.012821960E1,-4.701896608E-1
2.335528405E0,-1.016949639E-1,-1.008036327E1,-4.414757788E-1
2.338045801E0,-5.383851007E-2,-1.015214825E1,-4.319044948E-1
2.340563249E0,-5.862415582E-2,-1.016171932E1,-4.223332107E-1
2.343080645E0,-7.298108935E-2,-1.015214825E1,-4.414757788E-1
2.345598093E0,-3.948157281E-2,-1.016650486E1,-4.127618968E-1
2.348115541E0,-2.512463741E-2,-1.016171932E1,-4.031906128E-1
2.350632936E0,-5.383851007E-2,-1.021017456E1,-3.888336718E-1
2.353150384E0,-9.690931439E-2,-1.014736271E1,-4.031906128E-1
2.355667780E0,-7.776673883E-2,-1.018146038E1,-4.414757788E-1
2.358185228E0,-8.255238086E-2,-1.020060253E1,-4.558327198E-1
2.360702624E0,-8.733802289E-2,-1.020060253E1,-4.749752879E-1
2.363220072E0,-7.776673883E-2,-1.020538902E1,-4.654040039E-1
2.365754291E0,-5.862415582E-2,-1.019103146E1,-4.558327198E-1
2.368271686E0,-3.948157281E-2,-1.017667484E1,-4.558327198E-1
2.370789134E0,-6.340979785E-2,-1.022931671E1,-4.510470629E-1
2.373306530E0,3.589233849E-3,-1.018146038E1,-4.510470629E-1
2.375823978E0,2.751746029E-2,-1.016650486E1,-4.079762697E-1
2.378341426E0,3.230310604E-2,-1.015214825E1,-4.319044948E-1
2.380858822E0,8.494520187E-2,-1.012343407E1,-3.840480447E-1
2.383376270E0,1.232303679E-1,-1.015214825E1,-4.127618968E-1
2.385893666E0,9.451649338E-2,-1.017188931E1,-3.936193287E-1
2.388411113E0,1.519442350E-1,-1.014257717E1,-4.031906128E-1
2.390928509E0,1.710868180E-1,-1.010907745E1,-4.223332107E-1
2.393445957E0,2.147558331E-1,-1.008514881E1,-4.127618968E-1
2.395980228E0,2.578266263E-1,-1.009472084E1,-4.127618968E-1
2.398497624E0,2.291127741E-1,-1.012343407E1,-4.462614357E-1
2.401015072E0,2.865405083E-1,-1.011864853E1,-3.984049559E-1
2.403532468E0,3.152543902E-1,-1.013779163E1,-4.127618968E-1
2.406049916E0,3.774677813E-1,-1.009472084E1,-4.797609448E-1
2.408567363E0,3.439682424E-1,-1.013300610E1,-4.319044948E-1
2.411084759E0,3.918247223E-1,-1.018146038E1,-3.984049559E-1
2.413602207E0,4.013960063E-1,-1.020060253E1,-4.127618968E-1
2.416119603E0,4.157529473E-1,-1.017188931E1,-4.366901219E-1
2.418637051E0,4.301098585E-1,-1.018146038E1,-4.319044948E-1
2.421154447E0,4.588237405E-1,-1.024845982E1,-4.701896608E-1
2.423671895E0,4.731806815E-1,-1.021496010E1,-5.228317380E-1
2.426206113E0,4.875376225E-1,-1.017667484E1,-5.371887088E-1
2.428723509E0,4.827519655E-1,-1.024367332E1,-5.611169338E-1
2.431240957E0,5.497509837E-1,-1.026281643E1,-5.324030519E-1
2.433758353E0,5.114658475E-1,-1.027717304E1,-5.994020700E-1
2.436275801E0,4.971089065E-1,-1.025324535E1,-6.089733839E-1
2.438793249E0,4.827519655E-1,-1.020060253E1,-6.233302951E-1
2.441310645E0,5.210371017E-1,-1.018146038E1,-6.424728632E-1
2.443828093E0,4.971089065E-1,-1.018146038E1,-6.233302951E-1
2.446345488E0,4.971089065E-1,-1.016171932E1,-6.568298340E-1
2.448862936E0,5.210371017E-1,-1.018146038E1,-6.041877270E-1
2.451380332E0,4.779663086E-1,-1.019581699E1,-6.329016089E-1
2.453897780E0,4.971089065E-1,-1.014736271E1,-6.520441771E-1
2.456432051E0,4.875376225E-1,-1.012343407E1,-6.616154313E-1
2.458949447E0,5.401797295E-1,-1.016650486E1,-6.281159520E-1
2.461466895E0,5.928218365E-1,-1.026760197E1,-5.754738450E-1
2.463984291E0,6.311069727E-1,-1.015693378E1,-5.994020700E-1
2.466501738E0,6.071787477E-1,-1.009472084E1,-5.754738450E-1
2.469019186E0,5.784648657E-1,-1.012821960E1,-5.371887088E-1
2.471536582E0,5.976074338E-1,-1.018146038E1,-5.228317380E-1
2.474054030E0,5.497509837E-1,-1.018146038E1,-4.797609448E-1
2.476571426E0,5.688936114E-1,-1.024367332E1,-4.893322289E-1
2.479088874E0,5.832505226E-1,-1.021974564E1,-4.654040039E-1
2.481606270E0,5.593222976E-1,-1.025324535E1,-4.893322289E-1
2.484123718E0,5.688936114E-1,-1.020538902E1,-4.606183469E-1
2.486657936E0,5.353940725E-1,-1.023888779E1,-4.271188378E-1
2.489175332E0,5.162515044E-1,-1.025324535E1,-3.936193287E-1
2.491692780E0,4.827519655E-1,-1.018146038E1,-3.936193287E-1
2.494210176E0,4.731806815E-1,-1.014257717E1,-3.792623878E-1
2.496727624E0,4.540380836E-1,-1.016650486E1,-3.936193287E-1
2.499245072E0,4.540380836E-1,-1.018624592E1,-3.888336718E-1
2.501762468E0,4.827519655E-1,-1.012343407E1,-3.553341627E-1
2.504279916E0,4.731806815E-1,-1.014736271E1,-4.079762697E-1
2.506797311E0,4.444667995E-1,-1.019581699E1,-4.079762697E-1
2.509314759E0,4.540380836E-1,-1.017188931E1,-4.031906128E-1
2.511832155E0,4.061816335E-1,-1.019103146E1,-4.175475538E-1
2.514349603E0,3.631108403E-1,-1.016171932E1,-4.606183469E-1
2.516883822E0,3.726821244E-1,-1.016650486E1,-4.414757788E-1
2.519401218E0,3.774677813E-1,-1.017667484E1,-4.462614357E-1
2.521918666E0,3.535395563E-1,-1.021496010E1,-4.031906128E-1
2.524436061E0,2.817548811E-1,-1.022931671E1,-3.457628787E-1
2.526953509E0,2.626122832E-1,-1.018146038E1,-3.266202807E-1
2.529470957E0,2.434697002E-1,-1.017188931E1,-3.266202807E-1
2.531988353E0,2.578266263E-1,-1.019103146E1,-3.170489967E-1
2.534505801E0,2.482553422E-1,-1.017667484E1,-3.505485058E-1
2.537023197E0,2.291127741E-1,-1.013779163E1,-3.457628787E-1
2.539540645E0,2.291127741E-1,-1.015693378E1,-3.457628787E-1
2.542058041E0,2.673979402E-1,-1.016171932E1,-3.314059377E-1
2.544575488E0,2.961117923E-1,-1.016650486E1,-3.314059377E-1
2.547109759E0,2.913261652E-1,-1.019103146E1,-3.170489967E-1
2.549627155E0,3.391826153E-1,-1.011864853E1,-3.122633696E-1
2.552144603E0,3.152543902E-1,-1.015214825E1,-3.218346536E-1
2.554661999E0,3.200400174E-1,-1.020538902E1,-3.314059377E-1
2.557179447E0,3.487538993E-1,-1.016650486E1,-3.792623878E-1
2.559696895E0,3.439682424E-1,-1.017667484E1,-3.744767308E-1
2.562214291E0,3.343969584E-1,-1.022453117E1,-3.744767308E-1
2.564731738E0,3.104687333E-1,-1.024845982E1,-3.361915946E-1
2.567249134E0,3.008974493E-1,-1.026281643E1,-3.601198196E-1
2.569766582E0,2.961117923E-1,-1.024845982E1,-2.931207716E-1
2.572283978E0,3.104687333E-1,-1.025803089E1,-2.644068897E-1
2.574801426E0,3.008974493E-1,-1.032502937E1,-2.452643216E-1
2.577335645E0,2.673979402E-1,-1.032502937E1,-2.404786795E-1
2.579853041E0,2.482553422E-1,-1.032024384E1,-2.787638307E-1
2.582370488E0,2.530409992E-1,-1.028674412E1,-2.931207716E-1
2.584887884E0,2.482553422E-1,-1.030110168E1,-3.409772217E-1
2.587405332E0,2.051845491E-1,-1.029631615E1,-3.984049559E-1
2.589922780E0,1.567298770E-1,-1.026760197E1,-4.366901219E-1
2.592440176E0,1.423729509E-1,-1.025324535E1,-4.749752879E-1
2.594957624E0,1.375873089E-1,-1.022931671E1,-5.084748268E-1
2.597475020E0,9.930214286E-2,-1.020538902E1,-5.754738450E-1
2.599992468E0,7.058826834E-2,-1.020538902E1,-5.706881881E-1
2.602509863E0,3.708875179E-2,-1.020538902E1,-6.185446382E-1
2.605027311E0,2.751746029E-2,-1.021017456E1,-6.711867452E-1
2.607561530E0,1.794617064E-2,-1.020060253E1,-6.903293133E-1
2.610079238E0,-1.076770201E-2,-1.018624592E1,-7.292127013E-1
2.612596947E0,1.794617064E-2,-1.022453117E1,-6.855437160E-1
2.615114655E0,3.589233849E-3,-1.017667484E1,-6.759724021E-1
2.617632363E0,-2.991028316E-2,-1.019103146E1,-6.376872063E-1
2.620150072E0,-1.555334684E-2,-1.019581699E1,-6.568298340E-1
2.622667728E0,-2.512463741E-2,-1.018146038E1,-5.898307562E-1
2.625185436E0,-3.469592705E-2,-1.019103146E1,-5.850451589E-1
2.627703145E0,-1.076770201E-2,-1.016171932E1,-5.419743061E-1
2.630220853E0,1.794617064E-2,-1.017667484E1,-5.036891699E-1
2.632738561E0,2.751746029E-2,-1.018146038E1,-4.845465720E-1
2.635256270E0,6.580262631E-2,-1.028195858E1,-4.319044948E-1
2.637787416E0,7.537391037E-2,-1.023888779E1,-4.031906128E-1
2.640305124E0,6.580262631E-2,-1.019581699E1,-4.701896608E-1
2.642822832E0,7.058826834E-2,-1.022931671E1,-5.467599630E-1
2.645340541E0,8.973085135E-2,-1.014736271E1,-5.467599630E-1
2.647858249E0,1.375873089E-1,-1.014736271E1,-5.419743061E-1
2.650375957E0,1.854437590E-1,-1.014257717E1,-5.515456200E-1
2.652893613E0,1.615155339E-1,-1.010907745E1,-5.228317380E-1
2.655411322E0,2.865405083E-1,-1.007079220E1,-4.941178858E-1
2.657929030E0,3.104687333E-1,-1.012343407E1,-3.888336718E-1
2.660446738E0,3.439682424E-1,-1.015693378E1,-3.505485058E-1
2.662964447E0,3.870390654E-1,-1.012821960E1,-3.218346536E-1
2.665482155E0,4.444667995E-1,-1.009472084E1,-3.074777126E-1
2.668013353E0,5.114658475E-1,-1.012821960E1,-2.931207716E-1
2.670531061E0,4.971089065E-1,-1.012343407E1,-2.931207716E-1
2.673048770E0,5.401797295E-1,-1.010907745E1,-3.409772217E-1
2.675566478E0,5.401797295E-1,-1.014736271E1,-3.170489967E-1
2.678084186E0,5.784648657E-1,-1.012343407E1,-3.266202807E-1
2.680601895E0,6.215356588E-1,-1.013300610E1,-3.266202807E-1
2.683119551E0,5.928218365E-1,-1.010429192E1,-3.314059377E-1
2.685637259E0,6.502495408E-1,-1.015214825E1,-3.696911037E-1
2.688154968E0,6.502495408E-1,-1.018146038E1,-4.079762697E-1
2.690672676E0,6.502495408E-1,-1.018624592E1,-3.601198196E-1
2.693190384E0,6.741777658E-1,-1.020538902E1,-3.696911037E-1
2.695708093E0,6.741777658E-1,-1.020060253E1,-3.074777126E-1
2.698239238E0,6.502495408E-1,-1.021017456E1,-2.931207716E-1
2.700756947E0,6.598208547E-1,-1.024367332E1,-2.883351147E-1
2.703274655E0,7.028916478E-1,-1.019103146E1,-2.835494876E-1
2.705792363E0,7.028916478E-1,-1.022931671E1,-2.691925466E-1
2.708310072E0,7.369893789E-1,-1.021017456E1,-2.596212626E-1
2.710827780E0,7.417750359E-1,-1.020538902E1,-2.165504545E-1
2.713345436E0,7.513462901E-1,-1.022453117E1,-2.165504545E-1
2.715863145E0,7.704889178E-1,-1.018146038E1,-2.261217386E-1
2.718380853E0,7.561319470E-1,-1.016171932E1,-2.069791555E-1
2.720898561E0,7.704889178E-1,-1.019581699E1,-2.404786795E-1
2.723416270E0,7.465606928E-1,-1.020538902E1,-2.835494876E-1
2.725933978E0,7.465606928E-1,-1.017188931E1,-2.691925466E-1
2.728465176E0,7.657032609E-1,-1.017667484E1,-3.314059377E-1
2.730982884E0,7.124629617E-1,-1.018624592E1,-3.457628787E-1
2.733500593E0,6.981059909E-1,-1.019581699E1,-3.361915946E-1
2.736018301E0,6.885347366E-1,-1.021974564E1,-3.792623878E-1
2.738536009E0,6.550351977E-1,-1.022453117E1,-3.696911037E-1
2.741053718E0,6.263213158E-1,-1.021496010E1,-3.649054468E-1
2.743571374E0,6.023930907E-1,-1.021974564E1,-3.936193287E-1
2.746089082E0,5.736792088E-1,-1.020060253E1,-4.271188378E-1
2.748606791E0,5.784648657E-1,-1.017188931E1,-4.366901219E-1
2.751124499E0,4.923232496E-1,-1.014736271E1,-4.558327198E-1
2.753642207E0,5.066801906E-1,-1.022453117E1,-4.989035130E-1
2.756159916E0,4.779663086E-1,-1.021017456E1,-4.797609448E-1
2.758691061E0,4.731806815E-1,-1.019581699E1,-4.989035130E-1
2.761208770E0,4.253242314E-1,-1.016171932E1,-4.462614357E-1
2.763726478E0,4.348955154E-1,-1.021017456E1,-4.749752879E-1
2.766244186E0,4.444667995E-1,-1.026760197E1,-4.749752879E-1
2.768761895E0,4.396811724E-1,-1.023410225E1,-4.606183469E-1
2.771279603E0,4.061816335E-1,-1.018624592E1,-4.414757788E-1
2.773797259E0,4.157529473E-1,-1.026281643E1,-4.175475538E-1
2.776314968E0,4.396811724E-1,-1.020538902E1,-3.792623878E-1
2.778832676E0,4.540380836E-1,-1.021017456E1,-3.888336718E-1
2.781350384E0,4.588237405E-1,-1.021974564E1,-3.649054468E-1
2.783868093E0,4.444667995E-1,-1.023888779E1,-4.079762697E-1
2.786385801E0,4.875376225E-1,-1.022931671E1,-3.457628787E-1
2.788916999E0,4.444667995E-1,-1.026281643E1,-3.026920557E-1
2.791434707E0,3.966103494E-1,-1.022931671E1,-2.883351147E-1
2.793952416E0,4.588237405E-1,-1.022931671E1,-2.835494876E-1
2.796470124E0,4.540380836E-1,-1.024845982E1,-2.787638307E-1
2.798987832E0,4.731806815E-1,-1.026281643E1,-2.404786795E-1
2.801505541E0,4.971089065E-1,-1.024845982E1,-2.356930375E-1
2.804023197E0,5.066801906E-1,-1.022453117E1,-2.644068897E-1
2.806540905E0,4.779663086E-1,-1.024845982E1,-2.644068897E-1
2.809058613E0,4.779663086E-1,-1.020060253E1,-2.644068897E-1
2.811576322E0,4.875376225E-1,-1.016650486E1,-2.309073806E-1
2.814094030E0,5.066801906E-1,-1.020060253E1,-2.069791555E-1
2.816611738E0,5.162515044E-1,-1.018146038E1,-2.021935135E-1
2.819142884E0,5.114658475E-1,-1.017667484E1,-2.309073806E-1
2.821660593E0,5.306084156E-1,-1.014736271E1,-2.644068897E-1
2.824178301E0,4.827519655E-1,-1.016650486E1,-2.931207716E-1
2.826696009E0,4.875376225E-1,-1.013300610E1,-3.026920557E-1
2.829213718E0,4.827519655E-1,-1.019103146E1,-3.505485058E-1
2.831731426E0,4.636093974E-1,-1.018624592E1,-3.601198196E-1
2.834249082E0,4.636093974E-1,-1.019103146E1,-3.792623878E-1
2.836766791E0,4.492524564E-1,-1.016650486E1,-3.936193287E-1
2.839284499E0,4.683950245E-1,-1.014736271E1,-4.989035130E-1
2.841802207E0,4.971089065E-1,-1.017667484E1,-4.845465720E-1
2.844319916E0,5.066801906E-1,-1.018624592E1,-4.749752879E-1
2.846837624E0,5.401797295E-1,-1.019581699E1,-4.414757788E-1
2.849368822E0,4.923232496E-1,-1.018146038E1,-3.840480447E-1
2.851886530E0,4.875376225E-1,-1.017667484E1,-3.505485058E-1
2.854404238E0,4.971089065E-1,-1.015693378E1,-3.218346536E-1
2.856921947E0,5.018945336E-1,-1.019581699E1,-2.691925466E-1
2.859439655E0,5.162515044E-1,-1.021496010E1,-2.548356056E-1
2.861957363E0,5.162515044E-1,-1.015214825E1,-2.404786795E-1
2.864475020E0,5.306084156E-1,-1.014736271E1,-2.309073806E-1
2.866992728E0,5.449653864E-1,-1.015214825E1,-2.835494876E-1
2.869510436E0,5.497509837E-1,-1.015214825E1,-2.883351147E-1
2.872028145E0,5.545366406E-1,-1.014257717E1,-2.931207716E-1
2.874545853E0,5.545366406E-1,-1.008993530E1,-3.649054468E-1
2.877063561E0,5.736792088E-1,-1.016650486E1,-3.984049559E-1
2.879594707E0,5.832505226E-1,-1.025803089E1,-3.601198196E-1
2.882112416E0,5.688936114E-1,-1.028674412E1,-3.792623878E-1
2.884630124E0,5.210371017E-1,-1.025324535E1,-3.888336718E-1
2.887147832E0,4.923232496E-1,-1.016650486E1,-4.414757788E-1
2.889665541E0,4.588237405E-1,-1.013779163E1,-5.036891699E-1
2.892183249E0,4.588237405E-1,-1.008993530E1,-6.376872063E-1
2.894700905E0,5.018945336E-1,-1.014736271E1,-6.759724021E-1
2.897218613E0,5.497509837E-1,-1.015214825E1,-8.153542876E-1
2.899736322E0,5.976074338E-1,-1.016650486E1,-9.014959335E-1
2.902254030E0,5.832505226E-1,-1.022453117E1,-6.424728632E-1
2.904771738E0,5.976074338E-1,-1.023410225E1,-5.276173949E-1
2.907289447E0,5.880361795E-1,-1.020538902E1,-4.654040039E-1
2.909820645E0,5.928218365E-1,-1.020060253E1,-4.654040039E-1
2.912338353E0,6.071787477E-1,-1.017188931E1,-5.228317380E-1
2.914856061E0,6.406782866E-1,-1.016171932E1,-5.611169338E-1
2.917373770E0,6.981059909E-1,-1.014736271E1,-5.371887088E-1
2.919891478E0,7.268198729E-1,-1.012821960E1,-5.036891699E-1
2.922409186E0,7.369893789E-1,-1.014257717E1,-5.276173949E-1
2.924926843E0,8.087740541E-1,-1.012821960E1,-4.558327198E-1
2.927444551E0,7.752745152E-1,-1.013300610E1,-4.797609448E-1
2.929962259E0,7.657032609E-1,-1.018146038E1,-4.606183469E-1
2.932479968E0,8.327022791E-1,-1.014736271E1,-4.654040039E-1
2.934997676E0,7.992027402E-1,-1.015214825E1,-3.936193287E-1
2.937515384E0,8.183453679E-1,-1.017667484E1,-4.127618968E-1
2.940046530E0,8.374879360E-1,-1.017667484E1,-3.792623878E-1
2.942564238E0,9.092726111E-1,-1.008514881E1,-4.558327198E-1
2.945081947E0,9.475577474E-1,-1.017188931E1,-3.409772217E-1
2.947599655E0,8.422735929E-1,-1.027238750E1,-2.452643216E-2
2.950117363E0,7.561319470E-1,-1.019103146E1,-3.888336942E-2
2.952635072E0,7.316055298E-1,-1.022453117E1,-6.281159073E-2
2.955152728E0,7.268198729E-1,-1.020060253E1,-1.776670814E-1
2.957670436E0,7.268198729E-1,-1.011864853E1,-3.266202807E-1
2.960188145E0,7.316055298E-1,-1.014736271E1,-3.553341627E-1
2.962705853E0,7.465606928E-1,-1.016171932E1,-3.457628787E-1
2.965223561E0,7.944171429E-1,-1.015693378E1,-3.409772217E-1
2.967741270E0,8.087740541E-1,-1.014736271E1,-3.409772217E-1
2.970272416E0,7.944171429E-1,-1.016171932E1,-2.739782035E-1
2.972790124E0,7.896314859E-1,-1.018146038E1,-2.596212626E-1
2.975307832E0,7.657032609E-1,-1.016650486E1,-2.644068897E-1
2.977825541E0,7.896314859E-1,-1.014257717E1,-3.074777126E-1
2.980343249E0,8.087740541E-1,-1.014736271E1,-3.026920557E-1
2.982860957E0,8.231309652E-1,-1.008993530E1,-3.266202807E-1
2.985378613E0,8.231309652E-1,-1.008514881E1,-3.218346536E-1
2.987896322E0,8.422735929E-1,-1.009472084E1,-3.601198196E-1
2.990414030E0,8.757730722E-1,-1.009950638E1,-3.696911037E-1
2.992931738E0,8.901300430E-1,-1.008514881E1,-3.553341627E-1
2.995449447E0,9.140582681E-1,-1.009472084E1,-3.266202807E-1
2.997967155E0,9.188438654E-1,-1.010429192E1,-2.835494876E-1
3.000498353E0,9.284151793E-1,-1.009950638E1,-2.500499785E-1
3.003016061E0,9.044869542E-1,-1.009950638E1,-1.872383654E-1
3.005533770E0,8.805587292E-1,-1.010907745E1,-1.680957973E-1
3.008051478E0,8.662018180E-1,-1.015214825E1,-1.633101404E-1
3.010569186E0,8.949156404E-1,-1.019103146E1,-1.393819153E-1
3.013086895E0,8.422735929E-1,-1.015214825E1,-1.489532143E-1
3.015604551E0,7.609176040E-1,-1.017188931E1,-2.452643216E-1
3.018122259E0,7.657032609E-1,-1.020060253E1,-2.596212626E-1
3.020639968E0,7.609176040E-1,-1.020060253E1,-1.824527234E-1
3.023157676E0,7.369893789E-1,-1.022453117E1,-2.404786795E-1
3.025675384E0,7.369893789E-1,-1.021974564E1,-2.644068897E-1
3.028193093E0,7.561319470E-1,-1.021017456E1,-2.261217386E-1
3.030724238E0,7.561319470E-1,-1.022931671E1,-2.165504545E-1
3.033241947E0,7.220342159E-1,-1.021017456E1,-2.117647976E-1
3.035759655E0,7.369893789E-1,-1.019103146E1,-2.069791555E-1
3.038277363E0,7.220342159E-1,-1.021974564E1,-2.069791555E-1
3.040795072E0,7.417750359E-1,-1.021974564E1,-1.585244983E-1
3.043312780E0,7.896314859E-1,-1.021496010E1,-1.926222295E-1
3.045830436E0,7.944171429E-1,-1.021496010E1,-1.441675574E-1
3.048348145E0,7.561319470E-1,-1.020060253E1,-1.058823988E-1
3.050865853E0,7.561319470E-1,-1.020060253E1,-1.345962733E-1
3.053383561E0,7.561319470E-1,-1.023410225E1,-1.393819153E-1
3.055901270E0,7.465606928E-1,-1.021017456E1,-1.393819153E-1
3.058418978E0,7.800601721E-1,-1.022453117E1,-1.441675574E-1
3.060950176E0,7.369893789E-1,-1.021974564E1,-1.202393398E-1
3.063467884E0,7.465606928E-1,-1.017188931E1,-1.441675574E-1
3.065985593E0,6.981059909E-1,-1.015214825E1,-1.393819153E-1
3.068503301E0,6.789634228E-1,-1.017667484E1,-1.154536903E-1
3.071021009E0,6.789634228E-1,-1.021974564E1,-1.298106313E-1
3.073538718E0,6.741777658E-1,-1.019581699E1,-1.585244983E-1
3.076056374E0,6.215356588E-1,-1.020060253E1,-1.728814393E-1
3.078574082E0,6.071787477E-1,-1.023410225E1,-1.728814393E-1
3.081091791E0,5.545366406E-1,-1.022453117E1,-1.872383654E-1
3.083609499E0,5.353940725E-1,-1.022931671E1,-1.776670814E-1
3.086127207E0,5.066801906E-1,-1.021496010E1,-2.309073806E-1
3.088644916E0,4.827519655E-1,-1.020538902E1,-2.404786795E-1
3.091176061E0,4.875376225E-1,-1.021496010E1,-2.691925466E-1
3.093693770E0,4.588237405E-1,-1.021974564E1,-2.691925466E-1
3.096211478E0,4.827519655E-1,-1.024367332E1,-2.596212626E-1
3.098729186E0,4.301098585E-1,-1.022453117E1,-2.835494876E-1
3.101246895E0,4.348955154E-1,-1.023410225E1,-2.835494876E-1
3.103764603E0,3.966103494E-1,-1.023888779E1,-2.644068897E-1
3.106282259E0,4.157529473E-1,-1.023888779E1,-2.500499785E-1
3.108799968E0,4.301098585E-1,-1.022453117E1,-2.691925466E-1
3.111317676E0,4.492524564E-1,-1.023410225E1,-2.452643216E-1
3.113835384E0,4.636093974E-1,-1.024367332E1,-2.452643216E-1
3.116353093E0,4.636093974E-1,-1.022931671E1,-2.548356056E-1
3.118870801E0,4.444667995E-1,-1.021017456E1,-2.261217386E-1
3.121401895E0,4.636093974E-1,-1.022453117E1,-2.404786795E-1
3.123919811E0,4.731806815E-1,-1.019103146E1,-2.021935135E-1
3.126437728E0,4.875376225E-1,-1.022931671E1,-1.680957973E-1
3.128955697E0,4.827519655E-1,-1.025324535E1,-1.824527234E-1
3.131473613E0,4.827519655E-1,-1.019581699E1,-2.213360965E-1
3.133991530E0,4.971089065E-1,-1.021017456E1,-1.974078715E-1
3.136509447E0,5.210371017E-1,-1.018146038E1,-1.872383654E-1
3.139027416E0,5.162515044E-1,-1.017667484E1,-2.500499785E-1
3.141545332E0,5.593222976E-1,-1.018624592E1,-2.596212626E-1
3.144063249E0,5.832505226E-1,-1.016650486E1,-2.739782035E-1
3.146581166E0,5.784648657E-1,-1.016171932E1,-3.696911037E-1
3.149099134E0,6.071787477E-1,-1.017667484E1,-3.888336718E-1
3.151627832E0,6.406782866E-1,-1.015693378E1,-3.792623878E-1
3.154145749E0,6.550351977E-1,-1.009472084E1,-4.127618968E-1
3.156663666E0,6.693921089E-1,-1.014257717E1,-4.414757788E-1
3.159181634E0,6.837490797E-1,-1.016650486E1,-4.654040039E-1
3.161699551E0,6.693921089E-1,-1.015214825E1,-4.510470629E-1
3.164217468E0,7.220342159E-1,-1.014257717E1,-4.414757788E-1
3.166735384E0,7.465606928E-1,-1.015693378E1,-5.036891699E-1
3.169253353E0,7.417750359E-1,-1.016171932E1,-5.084748268E-1
3.171771270E0,7.848458290E-1,-1.018146038E1,-4.989035130E-1
3.174289186E0,7.944171429E-1,-1.014736271E1,-4.558327198E-1
3.176807103E0,8.231309652E-1,-1.014257717E1,-4.319044948E-1
3.179325072E0,8.662018180E-1,-1.013779163E1,-4.893322289E-1
3.181853718E0,9.092726111E-1,-1.009950638E1,-4.079762697E-1
3.184371634E0,9.284151793E-1,-1.008993530E1,-3.601198196E-1
3.186889551E0,9.810572863E-1,-1.010429192E1,-3.888336718E-1
3.189407520E0,1.024128079E0,-1.003250694E1,-3.266202807E-1
3.191925436E0,1.024128079E0,-1.006600666E1,-2.644068897E-1
3.194443353E0,1.048056364E0,-1.007557774E1,-2.739782035E-1
3.196961270E0,1.019342422E0,-1.006600666E1,-2.500499785E-1
3.199479238E0,1.028913736E0,-1.009472084E1,-2.931207716E-1
3.201997155E0,9.858429432E-1,-1.012343407E1,-2.739782035E-1
3.204515072E0,9.954141974E-1,-1.011864853E1,-2.644068897E-1
3.207032988E0,1.000199914E0,-1.012343407E1,-3.026920557E-1
3.209550957E0,1.024128079E0,-1.009472084E1,-3.361915946E-1
3.212079603E0,1.019342422E0,-1.016171932E1,-3.266202807E-1
3.214597520E0,9.714859724E-1,-1.009950638E1,-3.361915946E-1
3.217115436E0,9.810572863E-1,-1.008993530E1,-3.601198196E-1
3.219633405E0,9.858429432E-1,-1.011864853E1,-3.409772217E-1
3.222151322E0,9.619147182E-1,-1.009950638E1,-3.314059377E-1
3.224669238E0,9.284151793E-1,-1.012821960E1,-3.457628787E-1
3.227187155E0,9.284151793E-1,-1.008514881E1,-3.457628787E-1
3.229705124E0,9.092726111E-1,-1.009950638E1,-3.601198196E-1
3.232223041E0,8.997012973E-1,-1.002772141E1,-3.409772217E-1
3.234740957E0,9.140582681E-1,-1.003729248E1,-4.366901219E-1
3.237258874E0,9.475577474E-1,-1.004686451E1,-4.749752879E-1
3.239776843E0,1.028913736E0,-1.000857925E1,-4.749752879E-1
3.242305541E0,1.052842021E0,-1.000857925E1,-4.127618968E-1
3.244823457E0,1.033699393E0,-1.010429192E1,-3.649054468E-1
3.247341374E0,1.062413216E0,-1.016171932E1,-2.548356056E-1
3.249859343E0,9.810572863E-1,-1.019103146E1,-2.835494876E-1
3.252377259E0,9.236295223E-1,-1.015693378E1,-3.170489967E-1
3.254895176E0,9.236295223E-1,-1.013779163E1,-3.792623878E-1
3.257413093E0,9.571290612E-1,-1.012821960E1,-4.414757788E-1
3.259931061E0,9.523434043E-1,-1.008993530E1,-4.701896608E-1
3.262448978E0,9.714859724E-1,-1.009950638E1,-4.606183469E-1
3.264966895E0,1.048056364E0,-1.007557774E1,-4.175475538E-1
3.267484811E0,1.086341500E0,-1.012821960E1,-3.840480447E-1
3.270002780E0,1.110269666E0,-1.015214825E1,-3.888336718E-1
3.272531426E0,1.220339537E0,-1.015214825E1,-2.979064286E-1
3.275049343E0,1.249053478E0,-1.017188931E1,-2.548356056E-1
3.277567259E0,1.278365493E0,-1.014257717E1,-2.500499785E-1
3.280085228E0,1.321436286E0,-1.015693378E1,-2.261217386E-1
3.282603145E0,1.374078393E0,-1.018624592E1,-1.974078715E-1
3.285121061E0,1.441077471E0,-1.019103146E1,-1.728814393E-1
3.287638978E0,1.445863128E0,-1.022931671E1,-1.926222295E-1
3.290156947E0,1.479362607E0,-1.022453117E1,-1.926222295E-1
3.292674863E0,1.484148264E0,-1.021974564E1,-1.926222295E-1
3.295192780E0,1.517647743E0,-1.024367332E1,-2.404786795E-1
3.297710697E0,1.474576950E0,-1.022453117E1,-2.883351147E-1
3.300228666E0,1.508076429E0,-1.017188931E1,-3.696911037E-1
3.302757311E0,1.589432478E0,-1.017188931E1,-4.175475538E-1
3.305275228E0,1.685145378E0,-1.015214825E1,-4.414757788E-1
3.307793145E0,1.761715651E0,-1.011386299E1,-4.462614357E-1
3.310311113E0,1.834098577E0,-1.008514881E1,-3.936193287E-1
3.312829030E0,1.925025821E0,-1.005643559E1,-3.840480447E-1
3.315346947E0,1.953739643E0,-1.005643559E1,-3.361915946E-1
3.317864863E0,1.944168448E0,-1.007079220E1,-3.266202807E-1
3.320382832E0,1.920240164E0,-1.002772141E1,-3.409772217E-1
3.322900749E0,1.934597135E0,-1.004686451E1,-3.361915946E-1
3.325418666E0,1.915454507E0,-1.008036327E1,-3.744767308E-1
3.327936582E0,1.896311998E0,-1.012343407E1,-3.744767308E-1
3.330454551E0,1.810170293E0,-1.009472084E1,-4.271188378E-1
3.332983249E0,1.776072621E0,-1.009950638E1,-4.558327198E-1
3.335501166E0,1.718644857E0,-1.013300610E1,-4.941178858E-1
3.338019082E0,1.637288928E0,-1.008514881E1,-5.706881881E-1
3.340537051E0,1.579861164E0,-1.011864853E1,-5.084748268E-1
3.343054968E0,1.484148264E0,-1.016650486E1,-5.706881881E-1
3.345572884E0,1.455434322E0,-1.012821960E1,-5.946164131E-1
3.348090801E0,1.359721422E0,-1.011864853E1,-6.281159520E-1
3.350608770E0,1.292722464E0,-1.012343407E1,-5.754738450E-1
3.353126686E0,1.186840057E0,-1.010907745E1,-5.850451589E-1
3.355644603E0,1.124626637E0,-1.006122112E1,-6.089733839E-1
3.358162520E0,1.062413216E0,-1.008514881E1,-6.089733839E-1
3.360680488E0,1.014556766E0,-1.009472084E1,-6.376872063E-1
3.363209134E0,1.028913736E0,-1.008993530E1,-6.041877270E-1
3.365727051E0,9.667003751E-1,-1.009472084E1,-5.802595019E-1
3.368244968E0,9.427721500E-1,-1.008036327E1,-6.041877270E-1
3.370762936E0,9.236295223E-1,-1.006122112E1,-5.706881881E-1
3.373280853E0,9.188438654E-1,-1.006122112E1,-5.850451589E-1
3.375798770E0,8.757730722E-1,-1.006122112E1,-5.563312769E-1
3.378316686E0,8.566305041E-1,-1.011386299E1,-4.893322289E-1
3.380834655E0,8.039883971E-1,-1.008514881E1,-5.036891699E-1
3.383352572E0,7.561319470E-1,-1.010429192E1,-4.989035130E-1
3.385870488E0,7.800601721E-1,-1.008993530E1,-4.749752879E-1
3.388388405E0,7.369893789E-1,-1.010429192E1,-4.893322289E-1
3.390906374E0,7.124629617E-1,-1.012343407E1,-5.228317380E-1
3.393435020E0,7.028916478E-1,-1.014736271E1,-4.845465720E-1
3.395952936E0,6.550351977E-1,-1.016650486E1,-4.893322289E-1
3.398470853E0,6.358926296E-1,-1.015693378E1,-4.701896608E-1
3.400988822E0,6.071787477E-1,-1.018146038E1,-4.941178858E-1
3.403506738E0,5.497509837E-1,-1.021017456E1,-5.228317380E-1
3.406024655E0,5.018945336E-1,-1.021974564E1,-5.324030519E-1
3.408542572E0,4.923232496E-1,-1.024367332E1,-5.419743061E-1
3.411060541E0,4.444667995E-1,-1.022453117E1,-5.084748268E-1
3.413578457E0,4.492524564E-1,-1.020538902E1,-5.132604837E-1
3.416096374E0,3.583251834E-1,-1.020538902E1,-5.132604837E-1
3.418614291E0,3.583251834E-1,-1.023888779E1,-4.941178858E-1
3.421132259E0,3.487538993E-1,-1.023888779E1,-5.084748268E-1
3.423660905E0,3.296113312E-1,-1.024845982E1,-4.462614357E-1
3.426178822E0,2.865405083E-1,-1.023888779E1,-4.223332107E-1
3.428696738E0,3.104687333E-1,-1.026760197E1,-4.462614357E-1
3.431214707E0,3.152543902E-1,-1.028674412E1,-4.175475538E-1
3.433732624E0,2.865405083E-1,-1.032502937E1,-3.649054468E-1
3.436250541E0,2.291127741E-1,-1.030110168E1,-3.505485058E-1
3.438768457E0,2.051845491E-1,-1.031545830E1,-3.314059377E-1
3.441286426E0,2.195414752E-1,-1.032502937E1,-3.553341627E-1
3.443804343E0,1.710868180E-1,-1.030110168E1,-3.505485058E-1
3.446322259E0,1.375873089E-1,-1.031545830E1,-3.744767308E-1
3.448840176E0,1.232303679E-1,-1.031067276E1,-4.366901219E-1
3.451358145E0,9.930214286E-2,-1.030588722E1,-4.366901219E-1
3.453886843E0,9.451649338E-2,-1.029153061E1,-4.366901219E-1
3.456404759E0,1.040877849E-1,-1.026281643E1,-4.319044948E-1
3.458922676E0,8.973085135E-2,-1.026281643E1,-4.223332107E-1
3.461440645E0,6.101697683E-2,-1.026281643E1,-4.462614357E-1
3.463958561E0,9.451649338E-2,-1.022931671E1,-4.414757788E-1
3.466476478E0,1.136590764E-1,-1.022453117E1,-4.701896608E-1
3.468994395E0,1.328016520E-1,-1.021017456E1,-4.175475538E-1
3.471512363E0,1.519442350E-1,-1.019103146E1,-3.840480447E-1
3.474030280E0,1.663011760E-1,-1.021017456E1,-3.840480447E-1
3.476548197E0,1.950150430E-1,-1.021974564E1,-3.649054468E-1
3.479066113E0,2.099701911E-1,-1.016650486E1,-2.835494876E-1
3.481584082E0,2.626122832E-1,-1.011864853E1,-2.739782035E-1
3.484112728E0,3.104687333E-1,-1.011864853E1,-2.883351147E-1
3.486630645E0,3.200400174E-1,-1.017188931E1,-2.931207716E-1
3.489148561E0,3.439682424E-1,-1.012821960E1,-2.979064286E-1
3.491666530E0,3.439682424E-1,-1.014257717E1,-2.691925466E-1
3.494184447E0,3.966103494E-1,-1.012343407E1,-2.787638307E-1
3.496702363E0,4.157529473E-1,-1.013300610E1,-3.218346536E-1
3.499220280E0,4.492524564E-1,-1.008514881E1,-3.170489967E-1
3.501738249E0,4.971089065E-1,-1.004686451E1,-3.361915946E-1
3.504256166E0,6.023930907E-1,-1.004686451E1,-3.888336718E-1
3.506774082E0,6.454638839E-1,-1.005165005E1,-3.218346536E-1
3.509291999E0,6.981059909E-1,-1.001336479E1,-2.644068897E-1
3.511809968E0,7.316055298E-1,-1.005643559E1,-2.069791555E-1
3.514338666E0,7.657032609E-1,-1.010907745E1,-1.926222295E-1
3.516856582E0,7.704889178E-1,-1.011386299E1,-1.585244983E-1
3.519374499E0,7.220342159E-1,-1.012343407E1,-1.537388563E-1
3.521892468E0,6.933203340E-1,-1.011864853E1,-1.872383654E-1
3.524410384E0,7.316055298E-1,-1.013779163E1,-2.213360965E-1
3.526928301E0,7.609176040E-1,-1.013779163E1,-2.165504545E-1
3.529446218E0,7.561319470E-1,-1.012343407E1,-2.165504545E-1
3.531964186E0,7.369893789E-1,-1.009472084E1,-2.404786795E-1
3.534482103E0,7.465606928E-1,-1.008993530E1,-2.500499785E-1
3.537000020E0,7.800601721E-1,-1.011386299E1,-2.404786795E-1
3.539517936E0,7.848458290E-1,-1.014257717E1,-2.213360965E-1
3.542035905E0,7.992027402E-1,-1.010429192E1,-1.633101404E-1
3.544564499E0,8.183453679E-1,-1.011386299E1,-1.824527234E-1
3.547082416E0,8.039883971E-1,-1.009472084E1,-1.633101404E-1
3.549600332E0,8.039883971E-1,-1.011864853E1,-1.441675574E-1
3.552118301E0,8.135597110E-1,-1.015693378E1,-1.441675574E-1
3.554636218E0,8.566305041E-1,-1.016171932E1,-1.680957973E-1
3.557154134E0,8.805587292E-1,-1.017667484E1,-1.585244983E-1
3.559672051E0,8.805587292E-1,-1.023410225E1,-1.537388563E-1
3.562190020E0,9.092726111E-1,-1.019581699E1,-1.633101404E-1
3.564707936E0,9.188438654E-1,-1.021496010E1,-1.202393398E-1
3.567225853E0,9.332008362E-1,-1.023888779E1,-1.537388563E-1
3.569743770E0,9.332008362E-1,-1.024367332E1,-1.393819153E-1
3.572261738E0,9.188438654E-1,-1.027238750E1,-1.537388563E-1
3.574790436E0,9.523434043E-1,-1.027717304E1,-1.489532143E-1
3.577308353E0,9.667003751E-1,-1.026281643E1,-1.776670814E-1
3.579826270E0,9.523434043E-1,-1.026281643E1,-2.117647976E-1
3.582344238E0,9.619147182E-1,-1.025803089E1,-1.680957973E-1
3.584862155E0,9.475577474E-1,-1.024367332E1,-1.680957973E-1
3.587380072E0,9.379864931E-1,-1.016650486E1,-1.728814393E-1
3.589897988E0,9.379864931E-1,-1.018624592E1,-1.824527234E-1
3.592415957E0,9.379864931E-1,-1.023888779E1,-1.728814393E-1
3.594933874E0,9.475577474E-1,-1.021496010E1,-2.213360965E-1
3.597451791E0,9.188438654E-1,-1.019581699E1,-2.261217386E-1
3.599969707E0,9.810572863E-1,-1.018624592E1,-2.213360965E-1
3.602487676E0,9.906286001E-1,-1.019581699E1,-2.739782035E-1
3.605016322E0,9.571290612E-1,-1.017667484E1,-2.883351147E-1
3.607534238E0,9.284151793E-1,-1.017188931E1,-3.074777126E-1
3.610052155E0,9.188438654E-1,-1.014257717E1,-3.026920557E-1
3.612570124E0,9.188438654E-1,-1.013300610E1,-3.170489967E-1
3.615088041E0,9.379864931E-1,-1.016171932E1,-3.122633696E-1
3.617605957E0,8.853443861E-1,-1.014736271E1,-3.266202807E-1
3.620123874E0,8.566305041E-1,-1.011864853E1,-3.314059377E-1
3.622641843E0,8.757730722E-1,-1.012343407E1,-3.696911037E-1
3.625159759E0,8.997012973E-1,-1.016650486E1,-3.457628787E-1
3.627677676E0,8.757730722E-1,-1.015693378E1,-3.457628787E-1
3.630195593E0,8.853443861E-1,-1.015214825E1,-3.792623878E-1
3.632713561E0,9.475577474E-1,-1.014736271E1,-4.079762697E-1
3.635242207E0,9.044869542E-1,-1.015693378E1,-3.361915946E-1
3.637760332E0,8.709874153E-1,-1.013779163E1,-3.505485058E-1
3.640278405E0,8.709874153E-1,-1.015693378E1,-3.840480447E-1
3.642796530E0,8.662018180E-1,-1.017188931E1,-3.888336718E-1
3.645314655E0,8.949156404E-1,-1.016171932E1,-4.558327198E-1
3.647832728E0,9.236295223E-1,-1.015693378E1,-4.654040039E-1
3.650350853E0,8.901300430E-1,-1.021496010E1,-4.845465720E-1
3.652868978E0,8.470591903E-1,-1.018624592E1,-5.180460811E-1
3.655387051E0,8.853443861E-1,-1.016171932E1,-5.084748268E-1
3.657905176E0,8.662018180E-1,-1.016171932E1,-5.180460811E-1
3.660423301E0,8.757730722E-1,-1.016650486E1,-5.419743061E-1
3.662941374E0,9.140582681E-1,-1.018146038E1,-5.467599630E-1
3.665468093E0,8.901300430E-1,-1.014736271E1,-5.084748268E-1
3.667986218E0,8.949156404E-1,-1.012343407E1,-5.132604837E-1
3.670504291E0,9.427721500E-1,-1.015693378E1,-5.611169338E-1
3.673022416E0,9.475577474E-1,-1.017188931E1,-5.754738450E-1
3.675540541E0,9.332008362E-1,-1.015693378E1,-5.659025311E-1
3.678058613E0,8.997012973E-1,-1.014736271E1,-6.041877270E-1
3.680576738E0,9.332008362E-1,-1.017188931E1,-6.089733839E-1
3.683094863E0,9.284151793E-1,-1.019103146E1,-6.520441771E-1
3.685612936E0,9.236295223E-1,-1.016650486E1,-6.233302951E-1
3.688131061E0,9.092726111E-1,-1.014736271E1,-5.515456200E-1
3.690649186E0,9.284151793E-1,-1.011386299E1,-6.089733839E-1
3.693167259E0,9.236295223E-1,-1.012343407E1,-6.089733839E-1
3.695694030E0,9.284151793E-1,-1.012821960E1,-6.137589812E-1
3.698212155E0,9.284151793E-1,-1.013300610E1,-6.711867452E-1
3.700730228E0,9.379864931E-1,-1.013300610E1,-6.376872063E-1
3.703248353E0,9.236295223E-1,-1.015693378E1,-6.089733839E-1
3.705766478E0,8.997012973E-1,-1.012821960E1,-6.041877270E-1
3.708284551E0,8.853443861E-1,-1.013779163E1,-5.754738450E-1
3.710802676E0,9.092726111E-1,-1.012343407E1,-6.089733839E-1
3.713320801E0,9.092726111E-1,-1.012821960E1,-6.185446382E-1
3.715838874E0,9.284151793E-1,-1.019103146E1,-5.898307562E-1
3.718356999E0,9.427721500E-1,-1.017188931E1,-5.611169338E-1
3.720875124E0,9.188438654E-1,-1.013779163E1,-5.946164131E-1
3.723393197E0,8.853443861E-1,-1.005643559E1,-5.898307562E-1
3.725919863E0,9.092726111E-1,-1.010429192E1,-5.754738450E-1
3.728437988E0,9.475577474E-1,-1.011864853E1,-5.946164131E-1
3.730956061E0,9.332008362E-1,-1.008514881E1,-5.946164131E-1
3.733474186E0,9.188438654E-1,-1.006122112E1,-6.089733839E-1
3.735992311E0,8.662018180E-1,-1.008514881E1,-5.467599630E-1
3.738510384E0,8.709874153E-1,-1.009950638E1,-5.898307562E-1
3.741028509E0,8.709874153E-1,-1.014736271E1,-6.424728632E-1
3.743546634E0,8.949156404E-1,-1.011864853E1,-6.520441771E-1
3.746064707E0,8.757730722E-1,-1.005643559E1,-7.770691514E-1
3.748582832E0,9.571290612E-1,-1.004686451E1,-8.392825127E-1
3.751100957E0,1.004985452E0,-1.007079220E1,-7.866404653E-1
3.753619030E0,1.004985452E0,-1.013300610E1,-7.142575383E-1
3.756145801E0,1.024128079E0,-1.009950638E1,-6.999006271E-1
3.758663926E0,1.009771109E0,-1.006600666E1,-6.711867452E-1
3.761181999E0,1.019342422E0,-1.008993530E1,-6.711867452E-1
3.763700124E0,1.091127157E0,-1.013779163E1,-5.994020700E-1
3.766218249E0,1.119840980E0,-1.012821960E1,-5.802595019E-1
3.768736322E0,1.038485050E0,-1.011864853E1,-5.898307562E-1
3.771254447E0,1.052842021E0,-1.011386299E1,-5.659025311E-1
3.773772572E0,1.081555843E0,-1.010429192E1,-5.946164131E-1
3.776290645E0,1.086341500E0,-1.009950638E1,-6.759724021E-1
3.778808770E0,1.134197950E0,-1.017188931E1,-6.376872063E-1
3.781326895E0,1.225125194E0,-1.013779163E1,-6.185446382E-1
3.783844968E0,1.244267821E0,-1.014736271E1,-5.324030519E-1
3.786371686E0,1.253839016E0,-1.012343407E1,-4.701896608E-1
3.788889811E0,1.220339537E0,-1.009950638E1,-4.510470629E-1
3.791407884E0,1.153340459E0,-1.010429192E1,-3.696911037E-1
3.793926009E0,1.134197950E0,-1.008514881E1,-3.218346536E-1
3.796444134E0,1.081555843E0,-1.009472084E1,-3.409772217E-1
3.798962207E0,1.057627559E0,-1.010907745E1,-3.649054468E-1
3.801480332E0,1.100698471E0,-1.010429192E1,-3.936193287E-1
3.803998457E0,1.043270707E0,-1.017188931E1,-3.888336718E-1
3.806516530E0,9.954141974E-1,-1.018146038E1,-3.840480447E-1
3.809034655E0,9.906286001E-1,-1.016171932E1,-3.744767308E-1
3.811552780E0,9.523434043E-1,-1.017667484E1,-3.601198196E-1
3.814070853E0,9.188438654E-1,-1.017188931E1,-4.175475538E-1
3.816597624E0,9.092726111E-1,-1.019103146E1,-3.696911037E-1
3.819115749E0,8.997012973E-1,-1.018146038E1,-3.792623878E-1
3.821633822E0,8.853443861E-1,-1.016650486E1,-3.936193287E-1
3.824151947E0,8.805587292E-1,-1.020538902E1,-4.223332107E-1
3.826670072E0,8.662018180E-1,-1.024367332E1,-3.840480447E-1
3.829188145E0,8.470591903E-1,-1.023410225E1,-4.319044948E-1
3.831706270E0,8.327022791E-1,-1.022931671E1,-4.271188378E-1
3.834224395E0,8.087740541E-1,-1.024367332E1,-4.366901219E-1
3.836742468E0,8.470591903E-1,-1.021974564E1,-4.414757788E-1
3.839260593E0,8.422735929E-1,-1.022453117E1,-4.845465720E-1
3.841778718E0,8.518448472E-1,-1.021974564E1,-5.611169338E-1
3.844296791E0,8.709874153E-1,-1.022453117E1,-5.611169338E-1
3.846823509E0,8.853443861E-1,-1.023410225E1,-5.132604837E-1
3.849341634E0,8.662018180E-1,-1.022931671E1,-5.228317380E-1
3.851859707E0,8.805587292E-1,-1.022453117E1,-5.132604837E-1
3.854377832E0,8.470591903E-1,-1.018624592E1,-5.036891699E-1
3.856895957E0,8.422735929E-1,-1.020538902E1,-4.701896608E-1
3.859416947E0,8.518448472E-1,-1.018624592E1,-5.180460811E-1
3.861935020E0,8.422735929E-1,-1.020538902E1,-5.419743061E-1
3.864453145E0,8.087740541E-1,-1.019581699E1,-5.371887088E-1
3.866971270E0,7.848458290E-1,-1.021017456E1,-5.659025311E-1
3.869492259E0,7.848458290E-1,-1.021974564E1,-5.898307562E-1
3.872010332E0,7.657032609E-1,-1.019581699E1,-5.898307562E-1
3.874528457E0,7.561319470E-1,-1.018146038E1,-5.994020700E-1
3.877046582E0,7.800601721E-1,-1.013779163E1,-6.424728632E-1
3.879564655E0,8.087740541E-1,-1.019581699E1,-7.244270444E-1
3.882082780E0,8.518448472E-1,-1.023888779E1,-6.951149702E-1
3.884600905E0,8.566305041E-1,-1.023410225E1,-5.228317380E-1
3.887118978E0,8.470591903E-1,-1.027238750E1,-4.319044948E-1
3.889637103E0,7.657032609E-1,-1.022931671E1,-4.175475538E-1
3.892155228E0,7.417750359E-1,-1.017667484E1,-4.893322289E-1
3.894673301E0,7.220342159E-1,-1.017667484E1,-5.180460811E-1
3.897200072E0,7.417750359E-1,-1.015693378E1,-6.233302951E-1
3.899718197E0,7.609176040E-1,-1.012821960E1,-7.339983582E-1
3.902236270E0,8.566305041E-1,-1.008514881E1,-7.722834945E-1
3.904754395E0,9.044869542E-1,-1.008514881E1,-7.579265833E-1
3.907272520E0,9.236295223E-1,-1.013779163E1,-6.520441771E-1
3.909790593E0,9.810572863E-1,-1.009950638E1,-5.994020700E-1
3.912308718E0,9.954141974E-1,-1.012343407E1,-5.276173949E-1
3.914826843E0,9.523434043E-1,-1.013300610E1,-4.797609448E-1
3.917344916E0,8.853443861E-1,-1.009472084E1,-4.606183469E-1
3.919863041E0,8.470591903E-1,-1.005643559E1,-5.371887088E-1
3.922381166E0,8.135597110E-1,-1.005165005E1,-5.850451589E-1
3.924899238E0,8.231309652E-1,-9.994221687E0,-5.850451589E-1
3.927425957E0,7.704889178E-1,-1.001815033E1,-6.616154313E-1
3.929944082E0,8.039883971E-1,-1.006600666E1,-6.664010882E-1
3.932462155E0,7.657032609E-1,-1.005165005E1,-6.233302951E-1
3.934980280E0,7.268198729E-1,-1.009950638E1,-6.089733839E-1
3.937498405E0,6.837490797E-1,-1.006600666E1,-6.185446382E-1
3.940016478E0,7.028916478E-1,-1.006600666E1,-6.568298340E-1
3.942534603E0,6.741777658E-1,-1.009472084E1,-6.089733839E-1
3.945052728E0,6.693921089E-1,-1.010907745E1,-5.563312769E-1
3.947570801E0,6.837490797E-1,-1.013300610E1,-5.371887088E-1
3.950088926E0,6.933203340E-1,-1.016650486E1,-5.467599630E-1
3.952607051E0,6.454638839E-1,-1.015214825E1,-5.419743061E-1
3.955125124E0,6.598208547E-1,-1.013300610E1,-5.132604837E-1
3.957651843E0,6.693921089E-1,-1.018146038E1,-5.036891699E-1
3.960169968E0,6.311069727E-1,-1.015693378E1,-5.324030519E-1
3.962688041E0,6.311069727E-1,-1.011864853E1,-5.084748268E-1
3.965206166E0,6.358926296E-1,-1.013779163E1,-5.132604837E-1
3.967724291E0,6.550351977E-1,-1.015693378E1,-5.228317380E-1
3.970242363E0,6.885347366E-1,-1.009950638E1,-5.276173949E-1
3.972760488E0,7.124629617E-1,-1.014257717E1,-5.467599630E-1
3.975278613E0,7.657032609E-1,-1.024845982E1,-5.994020700E-1
3.977796686E0,8.374879360E-1,-1.022453117E1,-5.467599630E-1
3.980314811E0,8.566305041E-1,-1.021974564E1,-5.036891699E-1
3.982832936E0,8.901300430E-1,-1.025324535E1,-5.084748268E-1
3.985351009E0,9.092726111E-1,-1.025324535E1,-4.175475538E-1
3.987877780E0,9.092726111E-1,-1.024845982E1,-4.031906128E-1
3.990395905E0,8.709874153E-1,-1.022453117E1,-4.271188378E-1
3.992913978E0,8.470591903E-1,-1.020538902E1,-4.462614357E-1
3.995432103E0,8.518448472E-1,-1.022931671E1,-4.271188378E-1
3.997950228E0,8.279166222E-1,-1.021496010E1,-4.414757788E-1
4.000468301E0,8.135597110E-1,-1.016171932E1,-4.845465720E-1
4.002986426E0,8.327022791E-1,-1.018624592E1,-5.084748268E-1
4.005504551E0,8.566305041E-1,-1.020060253E1,-5.276173949E-1
4.008022624E0,8.470591903E-1,-1.019581699E1,-5.180460811E-1
4.010540749E0,8.757730722E-1,-1.017667484E1,-4.845465720E-1
4.013058874E0,8.949156404E-1,-1.020538902E1,-4.510470629E-1
4.015576947E0,9.092726111E-1,-1.022931671E1,-4.845465720E-1
4.018103666E0,8.997012973E-1,-1.019103146E1,-4.654040039E-1
4.020621791E0,9.044869542E-1,-1.015693378E1,-4.175475538E-1
4.023139863E0,9.140582681E-1,-1.018624592E1,-3.936193287E-1
4.025657988E0,9.188438654E-1,-1.020538902E1,-4.175475538E-1
4.028176113E0,9.140582681E-1,-1.016650486E1,-3.840480447E-1
4.030694186E0,9.236295223E-1,-1.019581699E1,-4.127618968E-1
4.033212311E0,9.475577474E-1,-1.012343407E1,-4.319044948E-1
4.035730436E0,9.188438654E-1,-1.013300610E1,-3.744767308E-1
4.038248509E0,9.236295223E-1,-1.017188931E1,-3.361915946E-1
4.040766634E0,8.949156404E-1,-1.015214825E1,-3.122633696E-1
4.043284759E0,8.853443861E-1,-1.016650486E1,-3.266202807E-1
4.045802832E0,8.470591903E-1,-1.014736271E1,-3.314059377E-1
4.048329551E0,8.374879360E-1,-1.014257717E1,-3.170489967E-1
4.050847676E0,8.614161611E-1,-1.018624592E1,-2.931207716E-1
4.053365749E0,8.566305041E-1,-1.020060253E1,-3.074777126E-1
4.055883874E0,8.327022791E-1,-1.011864853E1,-2.979064286E-1
4.058401999E0,8.374879360E-1,-1.011386299E1,-3.074777126E-1
4.060920072E0,7.944171429E-1,-1.012343407E1,-2.979064286E-1
4.063438197E0,7.848458290E-1,-1.011386299E1,-3.218346536E-1
4.065956322E0,7.800601721E-1,-1.015693378E1,-2.787638307E-1
4.068474395E0,7.657032609E-1,-1.014257717E1,-2.596212626E-1
4.070992520E0,7.369893789E-1,-1.011864853E1,-3.266202807E-1
4.073510645E0,7.609176040E-1,-1.013300610E1,-2.691925466E-1
4.076028718E0,7.609176040E-1,-1.011864853E1,-2.979064286E-1
4.078555488E0,7.561319470E-1,-1.015214825E1,-3.026920557E-1
4.081073613E0,7.609176040E-1,-1.011386299E1,-2.835494876E-1
4.083591686E0,7.896314859E-1,-1.013300610E1,-2.404786795E-1
4.086109811E0,7.704889178E-1,-1.017188931E1,-2.404786795E-1
4.088627936E0,7.896314859E-1,-1.015693378E1,-2.644068897E-1
4.091146009E0,7.944171429E-1,-1.017188931E1,-2.356930375E-1
4.093664134E0,7.704889178E-1,-1.017188931E1,-2.596212626E-1
4.096182259E0,7.417750359E-1,-1.018146038E1,-2.596212626E-1
4.098700332E0,7.752745152E-1,-1.018624592E1,-1.872383654E-1
4.101218457E0,7.848458290E-1,-1.015693378E1,-2.213360965E-1
4.103736582E0,7.657032609E-1,-1.017188931E1,-1.926222295E-1
4.106254707E0,7.609176040E-1,-1.015214825E1,-1.537388563E-1
4.108781426E0,7.704889178E-1,-1.018624592E1,-1.728814393E-1
4.111299551E0,7.076773047E-1,-1.018624592E1,-1.441675574E-1
4.113817624E0,7.369893789E-1,-1.018624592E1,-1.250249892E-1
4.116335749E0,6.885347366E-1,-1.019581699E1,-1.298106313E-1
4.118853874E0,6.263213158E-1,-1.020538902E1,-1.585244983E-1
4.121371947E0,5.976074338E-1,-1.017667484E1,-1.633101404E-1
4.123890072E0,5.736792088E-1,-1.019581699E1,-2.069791555E-1
4.126408197E0,5.928218365E-1,-1.021017456E1,-1.680957973E-1
4.128926270E0,5.066801906E-1,-1.019103146E1,-2.596212626E-1
4.131444395E0,4.731806815E-1,-1.020538902E1,-2.835494876E-1
4.133962520E0,3.966103494E-1,-1.019103146E1,-2.979064286E-1
4.136480593E0,3.391826153E-1,-1.021496010E1,-3.026920557E-1
4.139007311E0,2.769692242E-1,-1.026281643E1,-3.936193287E-1
4.141525436E0,1.806581169E-1,-1.021496010E1,-4.462614357E-1
4.144043509E0,1.328016520E-1,-1.019581699E1,-4.989035130E-1
4.146561634E0,1.040877849E-1,-1.021017456E1,-5.276173949E-1
4.149079759E0,7.058826834E-2,-1.019103146E1,-5.467599630E-1
4.151597832E0,4.187439755E-2,-1.021496010E1,-5.611169338E-1
4.154115957E0,2.751746029E-2,-1.021496010E1,-6.089733839E-1
4.156634082E0,-2.512463741E-2,-1.017667484E1,-6.903293133E-1
4.159152155E0,-2.512463741E-2,-1.012343407E1,-6.424728632E-1
4.161670280E0,-5.982056726E-3,-1.016171932E1,-5.228317380E-1
4.164188405E0,-1.555334684E-2,-1.023888779E1,-4.510470629E-1
4.166706478E0,-5.982056726E-3,-1.032024384E1,-5.180460811E-1
4.169233249E0,5.623133108E-2,-1.036331463E1,-6.616154313E-1
4.171751374E0,1.567298770E-1,-1.031067276E1,-7.244270444E-1
4.174269447E0,1.758724600E-1,-1.039202881E1,-5.132604837E-1
4.176787572E0,1.854437590E-1,-1.033938694E1,-4.127618968E-1
4.179305697E0,1.998006850E-1,-1.029153061E1,-4.366901219E-1
4.181823770E0,2.099701911E-1,-1.022453117E1,-4.797609448E-1
4.184341895E0,2.865405083E-1,-1.021496010E1,-4.414757788E-1
4.186860020E0,3.439682424E-1,-1.023410225E1,-3.696911037E-1
4.189378093E0,3.870390654E-1,-1.029153061E1,-3.314059377E-1
4.191896218E0,4.492524564E-1,-1.025803089E1,-3.218346536E-1
4.194414343E0,5.066801906E-1,-1.025803089E1,-3.218346536E-1
4.196932416E0,5.497509837E-1,-1.027238750E1,-3.218346536E-1
4.199459134E0,5.401797295E-1,-1.025803089E1,-2.931207716E-1
4.201977259E0,5.784648657E-1,-1.021017456E1,-2.931207716E-1
4.204495332E0,5.928218365E-1,-1.020538902E1,-3.074777126E-1
4.207013457E0,6.502495408E-1,-1.019103146E1,-3.170489967E-1
4.209531582E0,6.646065116E-1,-1.018624592E1,-3.457628787E-1
4.212049655E0,6.885347366E-1,-1.019581699E1,-3.314059377E-1
4.214567780E0,6.933203340E-1,-1.013779163E1,-3.984049559E-1
4.217085905E0,7.561319470E-1,-1.013779163E1,-4.654040039E-1
4.219603978E0,7.992027402E-1,-1.007079220E1,-5.228317380E-1
4.222122103E0,8.470591903E-1,-1.002772141E1,-5.228317380E-1
4.224640228E0,8.901300430E-1,-1.000857925E1,-5.132604837E-1
4.227158301E0,9.475577474E-1,-1.008036327E1,-3.792623878E-1
4.229685072E0,9.140582681E-1,-1.008036327E1,-2.548356056E-1
4.232203197E0,8.135597110E-1,-1.017188931E1,-4.271188378E-1
4.234721270E0,8.231309652E-1,-1.028674412E1,-4.941178858E-1
4.237239395E0,7.417750359E-1,-1.024367332E1,-5.324030519E-1
4.239757520E0,6.789634228E-1,-1.014257717E1,-6.281159520E-1
4.242275593E0,6.933203340E-1,-1.015693378E1,-7.339983582E-1
4.244793718E0,7.657032609E-1,-1.017667484E1,-8.488538265E-1
4.247311843E0,7.944171429E-1,-1.017188931E1,-8.392825127E-1
4.249829916E0,8.135597110E-1,-1.021017456E1,-7.962117195E-1
4.252348041E0,8.327022791E-1,-1.021974564E1,-7.627122402E-1
4.254866166E0,9.092726111E-1,-1.021496010E1,-7.962117195E-1
4.257384238E0,8.853443861E-1,-1.014736271E1,-8.105686903E-1
4.259910957E0,8.901300430E-1,-1.008036327E1,-7.722834945E-1
4.262429082E0,8.997012973E-1,-1.008993530E1,-7.339983582E-1
4.264947155E0,8.662018180E-1,-1.009472084E1,-7.046862841E-1
4.267465280E0,8.614161611E-1,-1.013779163E1,-6.951149702E-1
4.269983405E0,9.044869542E-1,-1.014736271E1,-7.674978375E-1
4.272501478E0,8.757730722E-1,-1.009950638E1,-7.914260626E-1
4.275019603E0,9.427721500E-1,-1.009950638E1,-8.105686903E-1
4.277537728E0,9.762716293E-1,-1.013300610E1,-8.679963946E-1
4.280055801E0,9.954141974E-1,-1.012343407E1,-8.823533654E-1
4.282573926E0,9.667003751E-1,-1.008036327E1,-9.014959335E-1
4.285092051E0,1.004985452E0,-1.009472084E1,-9.110672474E-1
4.287610124E0,1.009771109E0,-1.006122112E1,-9.349954724E-1
4.290136895E0,1.048056364E0,-1.004207802E1,-9.541380405E-1
4.292655020E0,1.043270707E0,-1.007557774E1,-9.302098155E-1
4.295173093E0,1.095912814E0,-1.009950638E1,-9.445667267E-1
4.297691218E0,1.129412293E0,-1.006122112E1,-9.158528447E-1
4.300209343E0,1.129412293E0,-1.005165005E1,-8.967102766E-1
4.302727416E0,1.086341500E0,-1.007557774E1,-8.632107973E-1
4.305245541E0,1.124626637E0,-1.006600666E1,-9.254241586E-1
4.307763666E0,1.095912814E0,-1.001815033E1,-9.014959335E-1
4.310281738E0,1.124626637E0,-1.000379372E1,-8.871390224E-1
4.312799863E0,1.119840980E0,-1.001815033E1,-9.014959335E-1
4.315317988E0,1.100698471E0,-1.003729248E1,-9.014959335E-1
4.317836061E0,1.071984529E0,-1.003729248E1,-8.919246197E-1
4.320362780E0,1.091127157E0,-1.002293587E1,-8.871390224E-1
4.322880905E0,1.028913736E0,-1.000379372E1,-8.249256015E-1
4.325398978E0,1.009771109E0,-1.004207802E1,-7.579265833E-1
4.327917103E0,1.033699393E0,-1.006600666E1,-6.999006271E-1
4.330435228E0,1.014556766E0,-1.008036327E1,-7.094719410E-1
4.332953301E0,9.906286001E-1,-1.003729248E1,-6.664010882E-1
4.335471426E0,1.000199914E0,-1.006600666E1,-6.616154313E-1
4.337989551E0,1.000199914E0,-1.013300610E1,-6.233302951E-1
4.340507624E0,9.667003751E-1,-1.007557774E1,-5.659025311E-1
4.343025749E0,9.810572863E-1,-1.014736271E1,-4.941178858E-1
4.345543874E0,9.667003751E-1,-1.019581699E1,-4.654040039E-1
4.348061947E0,9.571290612E-1,-1.021017456E1,-4.510470629E-1
4.350588718E0,9.714859724E-1,-1.024845982E1,-4.079762697E-1
4.353106843E0,9.379864931E-1,-1.027717304E1,-4.510470629E-1
4.355624916E0,8.949156404E-1,-1.029631615E1,-4.845465720E-1
4.358143041E0,9.140582681E-1,-1.035374355E1,-5.371887088E-1
4.360661166E0,9.044869542E-1,-1.041117096E1,-5.419743061E-1
4.363179238E0,8.757730722E-1,-1.041595650E1,-5.706881881E-1
4.365697363E0,8.662018180E-1,-1.045424175E1,-5.802595019E-1
4.368215488E0,8.566305041E-1,-1.043509960E1,-6.472585201E-1
4.370733561E0,8.422735929E-1,-1.041595650E1,-6.664010882E-1
4.373251686E0,8.135597110E-1,-1.041595650E1,-6.807580590E-1
4.375769811E0,8.087740541E-1,-1.035374355E1,-6.568298340E-1
4.378287884E0,8.087740541E-1,-1.037288570E1,-6.568298340E-1
4.380814603E0,7.800601721E-1,-1.034895802E1,-6.999006271E-1
4.383332832E0,7.609176040E-1,-1.031545830E1,-7.292127013E-1
4.385851113E0,7.268198729E-1,-1.027238750E1,-6.951149702E-1
4.388369343E0,6.981059909E-1,-1.023410225E1,-7.190431952E-1
4.390887624E0,7.028916478E-1,-1.024845982E1,-6.951149702E-1
4.393405853E0,6.981059909E-1,-1.026281643E1,-7.190431952E-1
4.395924134E0,6.741777658E-1,-1.023410225E1,-6.903293133E-1
4.398442363E0,6.406782866E-1,-1.021017456E1,-7.435696125E-1
4.400960593E0,6.358926296E-1,-1.021974564E1,-7.627122402E-1
4.403478874E0,6.263213158E-1,-1.016171932E1,-7.866404653E-1
4.405997103E0,6.167500615E-1,-1.017667484E1,-7.531409264E-1
4.408515384E0,6.502495408E-1,-1.021017456E1,-7.722834945E-1
4.411040541E0,5.880361795E-1,-1.023410225E1,-7.244270444E-1
4.413558770E0,5.784648657E-1,-1.017188931E1,-6.951149702E-1
4.416077051E0,5.976074338E-1,-1.017188931E1,-7.046862841E-1
4.418595280E0,5.497509837E-1,-1.020060253E1,-6.616154313E-1
4.421113561E0,5.258227587E-1,-1.021974564E1,-6.376872063E-1
4.423631791E0,5.162515044E-1,-1.014736271E1,-6.137589812E-1
4.426150072E0,5.162515044E-1,-1.021496010E1,-6.233302951E-1
4.428668301E0,5.162515044E-1,-1.019103146E1,-5.659025311E-1
4.431186530E0,4.779663086E-1,-1.017188931E1,-5.371887088E-1
4.433704811E0,4.540380836E-1,-1.023888779E1,-5.706881881E-1
4.436223041E0,4.061816335E-1,-1.020060253E1,-5.563312769E-1
4.438741322E0,4.348955154E-1,-1.019581699E1,-5.419743061E-1
4.441266478E0,4.444667995E-1,-1.023410225E1,-4.845465720E-1
4.443784707E0,4.301098585E-1,-1.021017456E1,-4.893322289E-1
4.446302988E0,4.348955154E-1,-1.021974564E1,-4.558327198E-1
4.448821218E0,4.396811724E-1,-1.021017456E1,-4.079762697E-1
4.451339499E0,4.253242314E-1,-1.019103146E1,-3.744767308E-1
4.453857728E0,3.966103494E-1,-1.018146038E1,-3.553341627E-1
4.456376009E0,4.013960063E-1,-1.018146038E1,-2.979064286E-1
4.458894238E0,3.774677813E-1,-1.018624592E1,-2.931207716E-1
4.461412468E0,3.631108403E-1,-1.021017456E1,-2.883351147E-1
4.463930749E0,3.535395563E-1,-1.019103146E1,-2.500499785E-1
4.466448978E0,3.918247223E-1,-1.017188931E1,-2.931207716E-1
4.468967259E0,4.205385745E-1,-1.020538902E1,-2.596212626E-1
4.471492363E0,3.870390654E-1,-1.024367332E1,-2.644068897E-1
4.474010593E0,3.774677813E-1,-1.025803089E1,-2.787638307E-1
4.476528874E0,4.013960063E-1,-1.022931671E1,-2.596212626E-1
4.479047103E0,4.253242314E-1,-1.020538902E1,-2.835494876E-1
4.481565384E0,4.157529473E-1,-1.024367332E1,-2.261217386E-1
4.484083613E0,4.636093974E-1,-1.022931671E1,-2.213360965E-1
4.486601895E0,4.636093974E-1,-1.022453117E1,-2.500499785E-1
4.489120124E0,4.683950245E-1,-1.021496010E1,-2.165504545E-1
4.491638353E0,4.875376225E-1,-1.022453117E1,-1.974078715E-1
4.494156634E0,5.066801906E-1,-1.023410225E1,-2.356930375E-1
4.496674863E0,4.827519655E-1,-1.018146038E1,-2.452643216E-1
4.499193145E0,5.018945336E-1,-1.020060253E1,-2.691925466E-1
4.501718301E0,4.875376225E-1,-1.019581699E1,-2.452643216E-1
4.504236530E0,4.923232496E-1,-1.017188931E1,-2.356930375E-1
4.506754811E0,4.923232496E-1,-1.016650486E1,-2.500499785E-1
4.509273041E0,4.827519655E-1,-1.022931671E1,-2.452643216E-1
4.511791322E0,4.827519655E-1,-1.019103146E1,-2.165504545E-1
4.514309551E0,4.875376225E-1,-1.019103146E1,-2.739782035E-1
4.516827832E0,4.875376225E-1,-1.020538902E1,-2.213360965E-1
4.519346061E0,5.210371017E-1,-1.020060253E1,-1.680957973E-1
4.521864291E0,4.875376225E-1,-1.016650486E1,-2.213360965E-1
4.524382572E0,4.923232496E-1,-1.021974564E1,-1.824527234E-1
4.526900801E0,5.306084156E-1,-1.019581699E1,-1.824527234E-1
4.529419082E0,5.258227587E-1,-1.018624592E1,-1.728814393E-1
4.531944186E0,5.162515044E-1,-1.022453117E1,-1.680957973E-1
4.534462416E0,4.827519655E-1,-1.019103146E1,-1.202393398E-1
4.536980697E0,5.162515044E-1,-1.021974564E1,-1.298106313E-1
4.539498926E0,4.779663086E-1,-1.024367332E1,-1.824527234E-1
4.542017207E0,5.066801906E-1,-1.019103146E1,-1.441675574E-1
4.544535436E0,5.162515044E-1,-1.017667484E1,-1.680957973E-1
4.547053718E0,4.779663086E-1,-1.018624592E1,-2.309073806E-1
4.549571947E0,4.875376225E-1,-1.015693378E1,-1.974078715E-1
4.552090176E0,4.779663086E-1,-1.020060253E1,-1.872383654E-1
4.554608457E0,4.588237405E-1,-1.019103146E1,-2.117647976E-1
4.557126686E0,4.683950245E-1,-1.018624592E1,-2.309073806E-1
4.559644968E0,4.396811724E-1,-1.013779163E1,-2.500499785E-1
4.562170072E0,4.253242314E-1,-1.013300610E1,-2.739782035E-1
4.564688301E0,4.205385745E-1,-1.014736271E1,-3.026920557E-1
4.567206582E0,4.348955154E-1,-1.014257717E1,-3.170489967E-1
4.569724811E0,4.013960063E-1,-1.014257717E1,-3.122633696E-1
4.572243093E0,4.013960063E-1,-1.015214825E1,-3.266202807E-1
4.574761322E0,3.583251834E-1,-1.020060253E1,-3.218346536E-1
4.577279603E0,3.966103494E-1,-1.021017456E1,-3.170489967E-1
4.579797832E0,3.822534084E-1,-1.014257717E1,-3.361915946E-1
4.582316061E0,3.726821244E-1,-1.019103146E1,-3.649054468E-1
4.584834343E0,3.487538993E-1,-1.022453117E1,-3.266202807E-1
4.587352572E0,3.391826153E-1,-1.020538902E1,-3.696911037E-1
4.589870853E0,3.631108403E-1,-1.019581699E1,-3.457628787E-1
4.592396061E0,3.487538993E-1,-1.018624592E1,-3.457628787E-1
4.594914291E0,3.439682424E-1,-1.023410225E1,-3.601198196E-1
4.597432572E0,3.631108403E-1,-1.021974564E1,-3.601198196E-1
4.599950801E0,3.391826153E-1,-1.019103146E1,-3.409772217E-1
4.602469082E0,3.152543902E-1,-1.018146038E1,-3.553341627E-1
4.604987311E0,3.200400174E-1,-1.021017456E1,-3.744767308E-1
4.607505593E0,3.343969584E-1,-1.022931671E1,-3.984049559E-1
4.610023822E0,3.056831062E-1,-1.020538902E1,-4.079762697E-1
4.612542051E0,2.817548811E-1,-1.018146038E1,-4.127618968E-1
4.615060332E0,2.721835673E-1,-1.020060253E1,-3.984049559E-1
4.617578561E0,2.817548811E-1,-1.018624592E1,-4.079762697E-1
4.620096843E0,2.434697002E-1,-1.017667484E1,-4.079762697E-1
4.622621947E0,2.243271172E-1,-1.016171932E1,-4.510470629E-1
4.625140176E0,2.338984162E-1,-1.017188931E1,-4.606183469E-1
4.627658457E0,2.913261652E-1,-1.021496010E1,-4.031906128E-1
4.630176686E0,2.530409992E-1,-1.019581699E1,-3.888336718E-1
4.632694968E0,2.291127741E-1,-1.015693378E1,-4.319044948E-1
4.635213197E0,1.998006850E-1,-1.016650486E1,-4.319044948E-1
4.637731478E0,1.950150430E-1,-1.019581699E1,-3.840480447E-1
4.640249707E0,2.147558331E-1,-1.018624592E1,-3.696911037E-1
4.642767936E0,2.578266263E-1,-1.020538902E1,-3.888336718E-1
4.645286218E0,2.482553422E-1,-1.019103146E1,-3.170489967E-1
4.647804447E0,2.147558331E-1,-1.026281643E1,-3.457628787E-1
4.650322728E0,2.482553422E-1,-1.024845982E1,-3.457628787E-1
4.652847884E0,2.721835673E-1,-1.018624592E1,-3.266202807E-1
4.655366113E0,2.673979402E-1,-1.019103146E1,-3.218346536E-1
4.657884395E0,2.961117923E-1,-1.022931671E1,-2.739782035E-1
4.660402624E0,3.248256743E-1,-1.017667484E1,-2.835494876E-1
4.662920905E0,3.152543902E-1,-1.017188931E1,-2.931207716E-1
4.665439134E0,3.487538993E-1,-1.017188931E1,-2.739782035E-1
4.667957416E0,4.061816335E-1,-1.019581699E1,-2.979064286E-1
4.670475645E0,3.966103494E-1,-1.017667484E1,-2.979064286E-1
4.672993874E0,4.061816335E-1,-1.018146038E1,-2.596212626E-1
4.675512155E0,3.966103494E-1,-1.020060253E1,-2.452643216E-1
4.678030384E0,4.540380836E-1,-1.014257717E1,-2.644068897E-1
4.680548666E0,4.923232496E-1,-1.017667484E1,-2.644068897E-1
4.683073770E0,4.683950245E-1,-1.016171932E1,-3.074777126E-1
4.685591999E0,4.827519655E-1,-1.017667484E1,-2.931207716E-1
4.688110280E0,4.827519655E-1,-1.014736271E1,-2.931207716E-1
4.690628509E0,5.114658475E-1,-1.014736271E1,-3.074777126E-1
4.693146791E0,5.258227587E-1,-1.016171932E1,-2.787638307E-1
4.695665020E0,5.353940725E-1,-1.016650486E1,-3.026920557E-1
4.698183301E0,4.827519655E-1,-1.017667484E1,-3.122633696E-1
4.700701530E0,4.731806815E-1,-1.010907745E1,-2.883351147E-1
4.703219759E0,5.162515044E-1,-1.014257717E1,-3.218346536E-1
4.705738041E0,5.306084156E-1,-1.016171932E1,-2.931207716E-1
4.708256270E0,5.258227587E-1,-1.017667484E1,-2.931207716E-1
4.710774551E0,5.306084156E-1,-1.017188931E1,-3.457628787E-1
4.713299707E0,5.545366406E-1,-1.013779163E1,-3.266202807E-1
4.715817936E0,5.210371017E-1,-1.014736271E1,-3.457628787E-1
4.718336218E0,5.066801906E-1,-1.016650486E1,-2.931207716E-1
4.720854447E0,5.401797295E-1,-1.013779163E1,-3.170489967E-1
4.723372728E0,5.306084156E-1,-1.013779163E1,-3.409772217E-1
4.725890957E0,5.306084156E-1,-1.009950638E1,-3.218346536E-1
4.728409238E0,5.066801906E-1,-1.016650486E1,-2.787638307E-1
4.730927468E0,5.401797295E-1,-1.014736271E1,-2.739782035E-1
4.733445697E0,5.497509837E-1,-1.011386299E1,-3.218346536E-1
4.735963978E0,5.306084156E-1,-1.014736271E1,-2.979064286E-1
4.738482207E0,5.306084156E-1,-1.010429192E1,-2.548356056E-1
4.741000488E0,5.497509837E-1,-1.009950638E1,-2.691925466E-1
4.743525645E0,5.593222976E-1,-1.010429192E1,-2.787638307E-1
4.746043874E0,5.593222976E-1,-1.011386299E1,-2.691925466E-1
4.748562155E0,5.832505226E-1,-1.009472084E1,-2.739782035E-1
4.751080384E0,6.358926296E-1,-1.007557774E1,-3.026920557E-1
4.753598666E0,6.358926296E-1,-1.010429192E1,-3.074777126E-1
4.756116895E0,6.215356588E-1,-1.014257717E1,-2.883351147E-1
4.758635176E0,6.023930907E-1,-1.014257717E1,-2.883351147E-1
4.761153405E0,6.071787477E-1,-1.011864853E1,-3.122633696E-1
4.763671634E0,6.406782866E-1,-1.008514881E1,-3.026920557E-1
4.766189916E0,6.837490797E-1,-1.014257717E1,-2.739782035E-1
4.768708145E0,6.837490797E-1,-1.014257717E1,-2.787638307E-1
4.771226426E0,6.981059909E-1,-1.013779163E1,-2.596212626E-1
4.773751530E0,7.076773047E-1,-1.015214825E1,-2.979064286E-1
4.776269759E0,7.220342159E-1,-1.015693378E1,-2.931207716E-1
4.778788041E0,7.896314859E-1,-1.013779163E1,-2.739782035E-1
4.781306270E0,8.087740541E-1,-1.013300610E1,-3.122633696E-1
4.783824551E0,8.374879360E-1,-1.015214825E1,-3.074777126E-1
4.786342780E0,8.470591903E-1,-1.015214825E1,-3.553341627E-1
4.788861061E0,8.757730722E-1,-1.012821960E1,-3.170489967E-1
4.791379291E0,8.757730722E-1,-1.011864853E1,-3.122633696E-1
4.793897520E0,9.427721500E-1,-1.010907745E1,-3.361915946E-1
4.796415801E0,9.523434043E-1,-1.015693378E1,-2.931207716E-1
4.798934030E0,9.810572863E-1,-1.012821960E1,-2.691925466E-1
4.801452311E0,1.043270707E0,-1.015693378E1,-2.548356056E-1
4.803977468E0,1.067198873E0,-1.010429192E1,-2.691925466E-1
4.806495697E0,1.081555843E0,-1.009950638E1,-2.500499785E-1
4.809013978E0,1.138983607E0,-1.013779163E1,-2.117647976E-1
4.811532207E0,1.196411371E0,-1.012343407E1,-2.213360965E-1
4.814050488E0,1.215553880E0,-1.010907745E1,-2.165504545E-1
4.816568718E0,1.220339537E0,-1.013300610E1,-2.117647976E-1
4.819086999E0,1.249053478E0,-1.013300610E1,-2.309073806E-1
4.821605228E0,1.239482164E0,-1.015693378E1,-2.596212626E-1
4.824123457E0,1.225125194E0,-1.009472084E1,-2.261217386E-1
4.826641738E0,1.239482164E0,-1.010907745E1,-2.309073806E-1
4.829159968E0,1.215553880E0,-1.007079220E1,-2.835494876E-1
4.831678249E0,1.258624673E0,-1.010429192E1,-2.691925466E-1
4.834203353E0,1.268195987E0,-1.007557774E1,-2.452643216E-1
4.836721582E0,1.253839016E0,-1.009472084E1,-2.165504545E-1
4.839239863E0,1.263410330E0,-1.009472084E1,-2.117647976E-1
4.841758093E0,1.258624673E0,-1.011386299E1,-2.165504545E-1
4.844276374E0,1.220339537E0,-1.013779163E1,-2.452643216E-1
4.846794603E0,1.158126116E0,-1.016171932E1,-2.548356056E-1
4.849312884E0,1.153340459E0,-1.016171932E1,-2.500499785E-1
4.851831113E0,1.196411371E0,-1.012821960E1,-2.548356056E-1
4.854349343E0,1.196411371E0,-1.013779163E1,-3.122633696E-1
4.856867624E0,1.196411371E0,-1.014736271E1,-2.931207716E-1
4.859385853E0,1.158126116E0,-1.016650486E1,-2.739782035E-1
4.861904134E0,1.186840057E0,-1.013779163E1,-3.170489967E-1
4.864429291E0,1.172483087E0,-1.013779163E1,-3.696911037E-1
4.866947520E0,1.177268744E0,-1.017667484E1,-3.314059377E-1
4.869465801E0,1.172483087E0,-1.015693378E1,-3.505485058E-1
4.871984030E0,1.186840057E0,-1.015214825E1,-3.649054468E-1
4.874502311E0,1.205982566E0,-1.013779163E1,-3.888336718E-1
4.877020541E0,1.215553880E0,-1.013779163E1,-3.744767308E-1
4.879538822E0,1.201196909E0,-1.010907745E1,-4.031906128E-1
4.882057051E0,1.196411371E0,-1.009472084E1,-3.840480447E-1
4.884575280E0,1.205982566E0,-1.014736271E1,-3.744767308E-1
4.887093561E0,1.220339537E0,-1.012343407E1,-4.127618968E-1
4.889611791E0,1.244267821E0,-1.013779163E1,-4.079762697E-1
4.892130072E0,1.239482164E0,-1.011386299E1,-4.366901219E-1
4.894655176E0,1.244267821E0,-1.014736271E1,-4.271188378E-1
4.897173561E0,1.244267821E0,-1.011864853E1,-3.984049559E-1
4.899691895E0,1.215553880E0,-1.014257717E1,-4.175475538E-1
4.902210280E0,1.239482164E0,-1.010429192E1,-4.031906128E-1
4.904728666E0,1.229910851E0,-1.010907745E1,-3.649054468E-1
4.907246999E0,1.215553880E0,-1.009950638E1,-3.840480447E-1
4.909765384E0,1.225125194E0,-1.011864853E1,-3.649054468E-1
4.912283770E0,1.196411371E0,-1.012343407E1,-3.122633696E-1
4.914802103E0,1.172483087E0,-1.014257717E1,-2.883351147E-1
4.917320488E0,1.115055323E0,-1.014257717E1,-3.170489967E-1
4.919838822E0,1.110269666E0,-1.015214825E1,-3.026920557E-1
4.922357207E0,1.081555843E0,-1.016650486E1,-2.883351147E-1
4.924881061E0,1.067198873E0,-1.017188931E1,-3.122633696E-1
4.927399447E0,1.038485050E0,-1.017667484E1,-3.553341627E-1
4.929917780E0,1.014556766E0,-1.020060253E1,-3.361915946E-1
4.932436166E0,9.810572863E-1,-1.018146038E1,-3.409772217E-1
4.934954551E0,9.092726111E-1,-1.020538902E1,-2.979064286E-1
4.937472884E0,9.044869542E-1,-1.018146038E1,-3.122633696E-1
4.939991270E0,9.140582681E-1,-1.015693378E1,-3.218346536E-1
4.942509655E0,8.518448472E-1,-1.018624592E1,-2.644068897E-1
4.945027988E0,8.709874153E-1,-1.016171932E1,-2.596212626E-1
4.947546374E0,8.518448472E-1,-1.017188931E1,-2.500499785E-1
4.950064707E0,8.614161611E-1,-1.019581699E1,-2.500499785E-1
4.952583093E0,8.135597110E-1,-1.020060253E1,-2.021935135E-1
4.955106999E0,8.183453679E-1,-1.015214825E1,-1.974078715E-1
4.957625384E0,8.327022791E-1,-1.014257717E1,-2.165504545E-1
4.960143718E0,8.518448472E-1,-1.017188931E1,-2.117647976E-1
4.962662103E0,8.374879360E-1,-1.020060253E1,-2.021935135E-1
4.965180488E0,8.327022791E-1,-1.014257717E1,-1.776670814E-1
4.967698822E0,8.135597110E-1,-1.013300610E1,-1.441675574E-1
4.970217207E0,8.135597110E-1,-1.016171932E1,-1.393819153E-1
4.972735593E0,8.087740541E-1,-1.014257717E1,-1.106680483E-1
4.975253926E0,7.752745152E-1,-1.016171932E1,-8.673982322E-2
4.977772311E0,7.657032609E-1,-1.019581699E1,-1.154536903E-1
4.980290645E0,7.896314859E-1,-1.018146038E1,-8.195417374E-2
4.982809030E0,7.848458290E-1,-1.017188931E1,-1.010967568E-1
4.985332884E0,7.609176040E-1,-1.017188931E1,-6.759724021E-2
4.987851270E0,7.268198729E-1,-1.017188931E1,-2.452643216E-2
4.990369603E0,7.561319470E-1,-1.017667484E1,-3.409772366E-2
4.992887988E0,7.268198729E-1,-1.015693378E1,-4.366901144E-2
4.995406374E0,7.028916478E-1,-1.017188931E1,-5.802594870E-2
4.997924707E0,6.598208547E-1,-1.016171932E1,-1.016949583E-2
5.000443093E0,6.502495408E-1,-1.014257717E1,1.375873014E-2
5.002961478E0,6.502495408E-1,-1.015214825E1,-5.383851007E-3
5.005479811E0,6.358926296E-1,-1.017188931E1,8.973085321E-3
5.007998197E0,5.976074338E-1,-1.012343407E1,2.333002165E-2
5.010516530E0,5.641079545E-1,-1.010907745E1,2.811566554E-2
5.013034916E0,5.449653864E-1,-1.012821960E1,5.204389244E-2
5.015558822E0,5.066801906E-1,-1.014736271E1,7.597211748E-2
5.018077207E0,4.348955154E-1,-1.011864853E1,8.554340899E-2
5.020595541E0,4.540380836E-1,-1.014736271E1,1.238285750E-1
5.023113926E0,4.205385745E-1,-1.019103146E1,1.238285750E-1
5.025632311E0,3.918247223E-1,-1.017188931E1,1.238285750E-1
5.028150645E0,3.391826153E-1,-1.018624592E1,1.333998591E-1
5.030669030E0,3.008974493E-1,-1.019581699E1,1.908276081E-1
5.033187416E0,2.961117923E-1,-1.024367332E1,2.291127741E-1
5.035705749E0,2.530409992E-1,-1.028674412E1,2.338984162E-1
5.038224134E0,1.902294010E-1,-1.030110168E1,2.530409992E-1
5.040742468E0,1.663011760E-1,-1.025324535E1,2.626122832E-1
5.043260853E0,1.375873089E-1,-1.028674412E1,2.147558331E-1
5.045784759E0,1.280160099E-1,-1.032981491E1,2.147558331E-1
5.048303145E0,8.494520187E-2,-1.035852909E1,2.338984162E-1
5.050821478E0,8.015955985E-2,-1.038245773E1,2.099701911E-1
5.053339863E0,3.708875179E-2,-1.036810017E1,1.956132501E-1
5.055858249E0,3.708875179E-2,-1.033938694E1,1.860419661E-1
5.058376582E0,-1.076770201E-2,-1.036331463E1,1.812563092E-1
5.060894968E0,-2.991028316E-2,-1.031545830E1,1.668993831E-1
