"Time (s)","Acceleration x (m/s^2)","Acceleration y (m/s^2)","Acceleration z (m/s^2)"
2.061020000E-4,5.767401695E0,3.556768656E0,7.958144665E0
4.196727000E-3,5.486725330E0,3.677216053E0,8.276324272E0
6.196727000E-3,5.329483509E0,3.770206690E0,8.430319786E0
8.196727000E-3,5.175574780E0,3.870418787E0,8.595691681E0
1.019672700E-2,5.005452156E0,3.958822012E0,8.800912857E0
1.219672700E-2,4.783863544E0,4.038079739E0,9.032997131E0
1.419672700E-2,4.645613194E0,4.076482773E0,9.169342995E0
1.619672700E-2,4.420701504E0,4.164752007E0,9.453371048E0
1.820141400E-2,4.183953762E0,4.225258350E0,9.676540375E0
2.219672700E-2,3.741007090E0,4.258461475E0,9.983907700E0
2.419672700E-2,3.530911207E0,4.228696346E0,1.007879353E1
2.619672700E-2,3.354228735E0,4.188196182E0,1.013259697E1
2.819672700E-2,3.198011637E0,4.097781658E0,1.012029934E1
3.019672700E-2,3.062748909E0,3.980800867E0,1.005703640E1
3.219672700E-2,2.971577883E0,3.851887465E0,9.932374001E0
3.419672700E-2,2.943603992E0,3.695488453E0,9.759905815E0
3.619672700E-2,2.979890347E0,3.550984144E0,9.572353363E0
3.819672700E-2,3.083482981E0,3.403261900E0,9.368127823E0
4.019672700E-2,3.249439240E0,3.273199320E0,9.135478973E0
4.219985200E-2,3.496425152E0,3.156429529E0,8.897130966E0
4.619672700E-2,4.100740910E0,2.908390045E0,8.368156433E0
4.819672700E-2,4.476974964E0,2.840538263E0,8.106134415E0
5.020141400E-2,4.886211395E0,2.794694185E0,8.001795769E0
5.419672700E-2,5.753094196E0,2.707066298E0,8.039489746E0
5.619672700E-2,6.156000137E0,2.640047789E0,8.051221848E0
5.820610200E-2,6.558791161E0,2.582682848E0,8.032479286E0
6.219672700E-2,7.247143269E0,2.485717773E0,7.871091366E0
6.419672700E-2,7.549904346E0,2.431809902E0,7.746717453E0
6.619672700E-2,7.822862148E0,2.411219835E0,7.606196880E0
6.819672700E-2,8.084194183E0,2.386569023E0,7.462726593E0
7.019672700E-2,8.313588142E0,2.357168198E0,7.329992294E0
7.219672700E-2,8.483078003E0,2.343099833E0,7.201969147E0
7.419672700E-2,8.608083725E0,2.326388359E0,7.090917110E0
7.619672700E-2,8.684659958E0,2.314359903E0,7.007598400E0
7.819672700E-2,8.689535141E0,2.297016382E0,6.944707394E0
8.019672700E-2,8.658505440E0,2.285093307E0,6.871665478E0
8.219672700E-2,8.590481758E0,2.283580065E0,6.795922279E0
8.420610200E-2,8.497921944E0,2.244132996E0,6.729114532E0
8.819672700E-2,8.127443314E0,1.954473019E0,6.538152695E0
9.019672700E-2,7.904447079E0,1.839580059E0,6.434532166E0
9.219672700E-2,7.700758457E0,1.745851874E0,6.340104580E0
9.419672700E-2,7.518051624E0,1.695774794E0,6.272952080E0
9.619672700E-2,7.327272415E0,1.682683229E0,6.263097763E0
9.819672700E-2,7.119446278E0,1.710197330E0,6.440546513E0
1.001998520E-1,6.770907879E0,1.699710846E0,6.463875294E0
1.041967270E-1,5.806437016E0,1.504832387E0,5.583890915E0
1.061967270E-1,5.434282303E0,1.400263190E0,5.065527439E0
1.081967270E-1,5.264457226E0,1.401220918E0,4.573624611E0
1.102061020E-1,5.383534431E0,1.637442350E0,4.354794502E0
1.141967270E-1,5.432338238E0,2.041679382E0,3.995012999E0
1.161967270E-1,5.362475395E0,2.094725370E0,3.934985399E0
1.181967270E-1,5.182316303E0,2.127784491E0,3.876001835E0
1.201967270E-1,4.995674133E0,2.072181702E0,3.882514238E0
1.221967270E-1,4.820093155E0,1.961665154E0,3.934429884E0
1.241967270E-1,4.708972931E0,1.873759747E0,4.051267147E0
1.261967270E-1,4.675426006E0,1.887109756E0,4.378401279E0
1.281967270E-1,4.626564980E0,2.059885025E0,5.028235435E0
1.301967270E-1,4.591044426E0,2.134028673E0,5.199650764E0
1.321967270E-1,4.485010147E0,2.284920692E0,5.458846569E0
1.341967270E-1,4.374598980E0,2.444499016E0,5.582694530E0
1.361967270E-1,4.271734715E0,2.624887943E0,5.611328602E0
1.381967270E-1,4.208565712E0,2.788373470E0,5.671633720E0
1.401967270E-1,4.183992386E0,2.956254959E0,5.821539402E0
1.422014140E-1,4.187631130E0,3.125898361E0,6.069540501E0
1.461967270E-1,4.225766182E0,3.443589926E0,6.787887096E0
1.481967270E-1,4.229194164E0,3.574840069E0,7.148952007E0
1.501967270E-1,4.217501163E0,3.706856251E0,7.436563015E0
1.521998520E-1,4.166878223E0,3.815093279E0,7.679229259E0
1.561967270E-1,3.997503042E0,3.965008736E0,8.139184952E0
1.581967270E-1,3.907969236E0,3.999485016E0,8.402718544E0
1.602029770E-1,3.818722963E0,4.024959564E0,8.699389458E0
1.641967270E-1,3.649357080E0,4.026214123E0,9.331363678E0
1.661967270E-1,3.544337988E0,4.015334606E0,9.590262413E0
1.681967270E-1,3.436062574E0,3.983080149E0,9.772289276E0
1.701967270E-1,3.357274055E0,3.934410810E0,9.890045166E0
1.721967270E-1,3.298127651E0,3.863168955E0,9.961679459E0
1.741967270E-1,3.267912865E0,3.774669647E0,1.004217243E1
1.761967270E-1,3.253107071E0,3.683737755E0,1.015561867E1
1.781967270E-1,3.258431911E0,3.568921566E0,1.029210854E1
1.801967270E-1,3.265834808E0,3.446501255E0,1.040662766E1
1.821967270E-1,3.259226799E0,3.318306208E0,1.047101307E1
1.842029770E-1,3.249640465E0,3.189249039E0,1.044084549E1
1.881967270E-1,3.229950428E0,2.907623768E0,1.010849190E1
1.901967270E-1,3.238741875E0,2.768788815E0,9.830620766E0
1.921967270E-1,3.282651663E0,2.621804237E0,9.512852669E0
1.941967270E-1,3.361622095E0,2.483505487E0,9.189932823E0
1.961967270E-1,3.493906498E0,2.357934237E0,8.877642632E0
1.981967270E-1,3.657392025E0,2.238789320E0,8.600843430E0
2.001967270E-1,3.819259167E0,2.144170523E0,8.334896088E0
2.021967270E-1,3.979871750E0,2.030531883E0,8.086665154E0
2.041967270E-1,4.124328613E0,1.916261554E0,7.878302574E0
2.061967270E-1,4.235400200E0,1.815274119E0,7.715678692E0
2.081998520E-1,4.330747128E0,1.743390679E0,7.596189022E0
2.101998520E-1,4.386876583E0,1.675050497E0,7.518492699E0
2.141967270E-1,4.386579514E0,1.556662083E0,7.524659634E0
2.161967270E-1,4.340007782E0,1.491989851E0,7.561904430E0
2.181967270E-1,4.264810562E0,1.415480852E0,7.591362476E0
2.201967270E-1,4.160710812E0,1.329509735E0,7.614260674E0
2.221967270E-1,4.054178238E0,1.239631414E0,7.606685162E0
2.241967270E-1,3.979393005E0,1.201831818E0,7.611865997E0
2.261967270E-1,3.966885805E0,1.216388583E0,7.615592003E0
2.281967270E-1,4.005738735E0,1.256831408E0,7.618943214E0
2.301967270E-1,4.100261688E0,1.337190390E0,7.633557796E0
2.321967270E-1,4.227365017E0,1.433877826E0,7.660535812E0
2.342123520E-1,4.381379604E0,1.541616917E0,7.713265419E0
2.381967270E-1,4.669085979E0,1.806137800E0,7.845703125E0
2.401967270E-1,4.799972057E0,1.953323841E0,7.910528660E0
2.421967270E-1,4.887197971E0,2.142035007E0,7.951478958E0
2.441967270E-1,4.986327171E0,2.479167223E0,8.084922791E0
2.461967270E-1,5.213871956E0,2.749702454E0,8.501331329E0
2.481967270E-1,5.610677719E0,2.894360065E0,9.500000954E0
2.501967270E-1,5.827774525E0,2.960267544E0,1.060290432E1
2.521967270E-1,5.627408028E0,2.980034113E0,1.092144871E1
2.542014140E-1,5.240198612E0,3.020457745E0,1.061158085E1
2.581967270E-1,4.581496716E0,3.100012541E0,9.647081375E0
2.601998520E-1,4.304573536E0,3.096794367E0,9.356675148E0
2.641967270E-1,3.991565228E0,3.023014784E0,9.352220535E0
2.661967270E-1,3.939074755E0,2.931384087E0,9.643212318E0
2.681967270E-1,3.866683483E0,2.803610086E0,1.009861851E1
2.701967270E-1,3.729534149E0,2.643955231E0,1.054752159E1
2.721967270E-1,3.542230844E0,2.469053984E0,1.084272671E1
2.741967270E-1,3.350895882E0,2.318056345E0,1.096771431E1
2.762092270E-1,3.201737404E0,2.191020250E0,1.099025726E1
2.802201640E-1,2.985674858E0,1.975225925E0,1.090733242E1
2.841967270E-1,2.972985506E0,1.841370940E0,1.078402996E1
2.861967270E-1,3.024767399E0,1.792308927E0,1.069954395E1
2.881967270E-1,3.068763256E0,1.765426874E0,1.059920788E1
2.901967270E-1,3.118428469E0,1.786783218E0,1.046146393E1
2.922092270E-1,3.138913393E0,1.856971502E0,1.028033829E1
2.942201640E-1,3.117901802E0,1.967631578E0,1.005791664E1
2.981967270E-1,2.958907604E0,2.299065590E0,9.582782745E0
3.001967270E-1,2.811424732E0,2.483419180E0,9.370072365E0
3.022014140E-1,2.615943193E0,2.669822216E0,9.201050758E0
3.062389140E-1,2.254073858E0,3.036355257E0,8.964217186E0
3.101998520E-1,2.072200775E0,3.538496017E0,8.753689766E0
3.122279770E-1,1.951044559E0,3.695469379E0,8.679296494E0
3.161967270E-1,1.736734748E0,3.852011919E0,8.577505112E0
3.181998520E-1,1.656155467E0,3.895385265E0,8.521212578E0
3.221967270E-1,1.520471334E0,3.970093966E0,8.281629562E0
3.242092270E-1,1.481982231E0,4.023887157E0,8.129598618E0
3.282123520E-1,1.444728374E0,4.148816586E0,7.802033424E0
3.321967270E-1,1.484261394E0,4.203777790E0,7.452383995E0
3.342154770E-1,1.549201727E0,4.227394104E0,7.340402126E0
3.381967270E-1,1.751368165E0,4.227576256E0,7.228114128E0
3.401967270E-1,1.881430745E0,4.187602520E0,7.212216854E0
3.421967270E-1,2.054186821E0,4.136692047E0,7.235133648E0
3.441967270E-1,2.277048588E0,4.098403931E0,7.264697075E0
3.461967270E-1,2.503339052E0,4.044122696E0,7.324169636E0
3.481967270E-1,2.737836599E0,3.963629723E0,7.421718597E0
3.501967270E-1,2.967737436E0,3.857145071E0,7.554730892E0
3.522029770E-1,3.204313517E0,3.740767717E0,7.714683056E0
3.561967270E-1,3.618826151E0,3.526333570E0,8.076456070E0
3.581967270E-1,3.774334431E0,3.391836882E0,8.294137001E0
3.602029770E-1,3.930034161E0,3.238588810E0,8.535701752E0
3.641967270E-1,4.207168102E0,2.920514107E0,9.062177658E0
3.661967270E-1,4.330756187E0,2.760811567E0,9.282358170E0
3.681967270E-1,4.417914867E0,2.572004557E0,9.342222214E0
3.701967270E-1,4.490900040E0,2.350636721E0,9.136915207E0
3.721967270E-1,4.592806816E0,2.126798153E0,8.676893234E0
3.741967270E-1,4.753821850E0,1.918473840E0,8.237719536E0
3.761967270E-1,4.993931293E0,1.719075084E0,8.127720833E0
3.781967270E-1,5.269723892E0,1.534242749E0,8.283363342E0
3.801967270E-1,5.472254276E0,1.363727689E0,8.436975479E0
3.822014140E-1,5.578240871E0,1.203498125E0,8.523052216E0
3.842045390E-1,5.616414070E0,1.035779595E0,8.586977005E0
3.881967270E-1,5.526066303E0,8.123622537E-1,8.629057884E0
3.902139140E-1,5.431954861E0,8.181465864E-1,8.524995804E0
3.941967270E-1,5.052886009E0,9.613869190E-1,8.250868797E0
3.961967270E-1,4.795720100E0,1.078463435E0,8.145303726E0
3.981967270E-1,4.531438351E0,1.203756690E0,8.110607147E0
4.001967270E-1,4.284251690E0,1.355223536E0,8.130019188E0
4.021998520E-1,4.064837456E0,1.503951311E0,8.194059372E0
4.061967270E-1,3.650966167E0,1.797537923E0,8.384235382E0
4.081967270E-1,3.462235928E0,1.946169972E0,8.484829903E0
4.102029770E-1,3.268047094E0,2.084650517E0,8.569479942E0
4.141967270E-1,3.078196287E0,2.262702703E0,8.621845245E0
4.161967270E-1,3.111131191E0,2.327978134E0,8.655623436E0
4.181967270E-1,3.148394346E0,2.374846935E0,8.675485611E0
4.201967270E-1,3.158210754E0,2.413048744E0,8.642062187E0
4.221967270E-1,3.086796284E0,2.435161591E0,8.538863182E0
4.241967270E-1,3.033712149E0,2.437019587E0,8.481488228E0
4.261967270E-1,2.897051096E0,2.439327717E0,8.345602989E0
4.281967270E-1,2.723088264E0,2.464763641E0,8.161153793E0
4.301967270E-1,2.502132416E0,2.483486414E0,7.937036991E0
4.321967270E-1,2.263861418E0,2.519734383E0,7.689332962E0
4.341982890E-1,2.030254364E0,2.577233553E0,7.434973240E0
4.362014140E-1,1.801895380E0,2.661135912E0,7.207859516E0
4.401967270E-1,1.342074633E0,2.800909519E0,6.813696861E0
4.421967270E-1,1.119231820E0,2.880713224E0,6.663925171E0
4.441967270E-1,9.109650254E-1,2.973493099E0,6.561415195E0
4.461967270E-1,7.244279981E-1,3.052166700E0,6.492998600E0
4.481967270E-1,5.430337191E-1,3.133626938E0,6.469113827E0
4.501967270E-1,3.844034374E-1,3.203978300E0,6.465167999E0
4.521967270E-1,2.587366104E-1,3.276225567E0,6.473634243E0
4.541967270E-1,1.749107987E-1,3.350436211E0,6.521690369E0
4.562029770E-1,1.559487134E-1,3.379204988E0,6.643507481E0
4.582436020E-1,1.585919261E-1,3.398751259E0,6.779564857E0
4.621967270E-1,1.030943245E-1,3.387594223E0,6.917758465E0
4.641967270E-1,1.063025557E-3,3.397917986E0,6.977355003E0
4.661967270E-1,-1.311064959E-1,3.386291742E0,7.015690804E0
4.681967270E-1,-3.075112700E-1,3.357810259E0,7.016495705E0
4.701967270E-1,-4.778251946E-1,3.311880112E0,6.990925312E0
4.721967270E-1,-6.200407743E-1,3.261094332E0,6.987851143E0
4.742045390E-1,-6.928340793E-1,3.207042694E0,7.002867699E0
4.781967270E-1,-6.006764770E-1,2.998842955E0,7.072462559E0
4.801967270E-1,-5.273277164E-1,2.942703724E0,7.080152512E0
4.821967270E-1,-3.402543664E-1,2.823721409E0,7.079855442E0
4.841967270E-1,-1.357799619E-1,2.694041967E0,7.047265530E0
4.861967270E-1,7.043741643E-2,2.565348864E0,6.976282120E0
4.881967270E-1,3.098959029E-1,2.431838512E0,6.883185863E0
4.901967270E-1,6.804033518E-1,2.290092230E0,6.799437046E0
4.921967270E-1,1.038221717E0,2.165881157E0,6.807826042E0
4.942170390E-1,1.349142194E0,2.050997496E0,6.958440781E0
4.981967270E-1,2.434290171E0,1.757420659E0,7.481535435E0
5.001967270E-1,3.487221956E0,1.562858224E0,8.037755966E0
5.021982890E-1,4.837187290E0,1.364484310E0,8.787859917E0
5.061967270E-1,6.799130440E0,1.096036911E0,9.851105690E0
5.081967270E-1,7.235210419E0,1.107998252E0,1.022846985E1
5.102029770E-1,7.462994576E0,1.277632236E0,1.105082130E1
5.141967270E-1,6.930284977E0,1.697661400E0,1.340837193E1
5.161967270E-1,6.198521137E0,1.802086949E0,1.405276680E1
5.181967270E-1,5.311804771E0,1.782416105E0,1.381636333E1
5.201967270E-1,4.281139374E0,1.651826739E0,1.305023861E1
5.221967270E-1,3.077324867E0,1.462636948E0,1.242436504E1
5.242217270E-1,1.752660990E0,1.204676151E0,1.227604866E1
5.281967270E-1,-7.159621119E-1,4.452353120E-1,1.258445072E1
5.302029770E-1,-1.666929483E0,4.930140451E-2,1.251598644E1
5.342092270E-1,-2.934793234E0,-6.154726744E-1,1.191944695E1
5.382467270E-1,-3.482414246E0,-9.619519711E-1,1.123135376E1
5.422061020E-1,-3.365529299E0,-5.992782712E-1,1.071180153E1
5.442232890E-1,-3.076673508E0,-1.842098832E-1,1.039987564E1
5.481967270E-1,-2.298203945E0,7.775887847E-1,9.648135185E0
5.501967270E-1,-1.991812944E0,1.146104336E0,9.243897438E0
5.521998520E-1,-1.790336132E0,1.399209857E0,8.821789742E0
5.562014140E-1,-1.558357120E0,1.611632943E0,7.927862644E0
5.582029770E-1,-1.423812628E0,1.630843997E0,7.471786022E0
5.602045390E-1,-1.236241221E0,1.604910016E0,7.022710800E0
5.641967270E-1,-5.630683303E-1,1.592057943E0,6.237201691E0
5.661967270E-1,-1.347169280E-1,1.617168307E0,5.980524540E0
5.681967270E-1,2.801886201E-1,1.631342053E0,5.817699432E0
5.702186020E-1,6.302975416E-1,1.622205734E0,5.718110561E0
5.741967270E-1,1.066252947E0,1.530258775E0,5.578192711E0
5.761967270E-1,1.243826032E0,1.432058215E0,5.536763668E0
5.781967270E-1,1.289976716E0,1.392860293E0,5.536715984E0
5.802014140E-1,1.380496740E0,1.270583749E0,5.570521832E0
5.841967270E-1,1.519915938E0,9.852715135E-1,5.698812962E0
5.861967270E-1,1.551222444E0,8.386601210E-1,5.771395683E0
5.882029770E-1,1.581207395E0,6.884191632E-1,5.862892628E0
5.921967270E-1,1.653694272E0,3.748075068E-1,6.089977741E0
5.941967270E-1,1.714401603E0,2.593590617E-1,6.217359066E0
5.961967270E-1,1.778164029E0,1.716738492E-1,6.370204449E0
5.981998520E-1,1.883729100E0,9.261730313E-2,6.521623611E0
6.021967270E-1,2.176951885E0,-8.523358405E-2,6.799130440E0
6.042389140E-1,2.372797489E0,-1.695286334E-1,6.926521301E0
6.081982890E-1,2.820637703E0,-2.747585773E-1,7.170863628E0
6.121967270E-1,2.948689222E0,-5.902281404E-1,7.432895184E0
6.141998520E-1,2.971415043E0,-7.995197177E-1,7.484878063E0
6.181967270E-1,3.029134512E0,-1.187437892E0,7.522945881E0
6.201967270E-1,3.034363270E0,-1.378744125E0,7.558686733E0
6.221967270E-1,3.057635069E0,-1.569456697E0,7.611042500E0
6.241967270E-1,3.137773752E0,-1.806655049E0,7.654942989E0
6.261967270E-1,3.165670872E0,-2.043738365E0,7.687398434E0
6.281982890E-1,3.237247944E0,-2.267232418E0,7.740147591E0
6.321967270E-1,3.504479170E0,-2.354103565E0,7.903949261E0
6.341967270E-1,3.664948225E0,-2.330219030E0,8.017482758E0
6.361967270E-1,3.564477921E0,-2.408116817E0,8.187470436E0
6.381967270E-1,3.348540068E0,-2.523277760E0,8.334694862E0
6.401967270E-1,3.099284410E0,-2.677589178E0,8.425436020E0
6.422029770E-1,2.828270435E0,-2.849224567E0,8.454021454E0
6.461967270E-1,2.242188931E0,-3.148250818E0,8.332406044E0
6.481982890E-1,1.940921903E0,-3.269014120E0,8.196157455E0
6.521967270E-1,1.328714967E0,-3.423105001E0,7.822373867E0
6.541967270E-1,9.808086753E-1,-3.453300714E0,7.606311321E0
6.562279770E-1,6.166697145E-1,-3.444710493E0,7.365320683E0
6.601967270E-1,-2.032389939E-1,-3.322414637E0,6.815727234E0
6.621967270E-1,-5.673779249E-1,-3.214838266E0,6.488363266E0
6.641967270E-1,-9.151596427E-1,-3.095367670E0,6.135534763E0
6.661967270E-1,-1.223896742E0,-2.971903324E0,5.760372639E0
6.681982890E-1,-1.481608629E0,-2.853361845E0,5.400964737E0
6.721967270E-1,-1.923779368E0,-2.597842932E0,4.715092659E0
6.741967270E-1,-2.128483534E0,-2.483582020E0,4.423986912E0
6.761967270E-1,-2.296403408E0,-2.367693186E0,4.148011684E0
6.781967270E-1,-2.441233397E0,-2.272825241E0,3.908313990E0
6.801967270E-1,-2.595640182E0,-2.194898605E0,3.703839540E0
6.821967270E-1,-2.727819443E0,-2.130504370E0,3.524360657E0
6.841967270E-1,-2.844301939E0,-2.083865166E0,3.393570423E0
6.861967270E-1,-2.928051233E0,-2.059712648E0,3.282163382E0
6.881967270E-1,-2.985301256E0,-2.044542789E0,3.209858418E0
6.901967270E-1,-3.009320021E0,-2.054225206E0,3.175420284E0
6.921967270E-1,-3.021520853E0,-2.107376337E0,3.168151379E0
6.941967270E-1,-3.041431189E0,-2.189564466E0,3.207789898E0
6.961967270E-1,-3.035560608E0,-2.279720545E0,3.299851656E0
6.981967270E-1,-3.018475294E0,-2.376455784E0,3.422252655E0
7.001967270E-1,-2.997550011E0,-2.493417501E0,3.584464550E0
7.021967270E-1,-2.997760773E0,-2.612552881E0,3.787521839E0
7.041967270E-1,-3.009837151E0,-2.742270708E0,4.026664257E0
7.061967270E-1,-3.051170588E0,-2.875608683E0,4.273372173E0
7.082107890E-1,-3.108296394E0,-3.015295982E0,4.528507710E0
7.121967270E-1,-3.346375704E0,-3.259437561E0,4.986049175E0
7.141967270E-1,-3.639196157E0,-3.438916445E0,5.394730091E0
7.162029770E-1,-4.234509945E0,-3.756033182E0,6.129050732E0
7.201967270E-1,-4.901199341E0,-4.055164814E0,6.882755280E0
7.221967270E-1,-5.258586407E0,-4.239345551E0,7.227673531E0
7.241967270E-1,-5.474074364E0,-4.428755760E0,7.348973274E0
7.261967270E-1,-5.585844517E0,-4.609776974E0,7.275950432E0
7.281982890E-1,-5.679458141E0,-4.780818462E0,7.071265221E0
7.302029770E-1,-5.880235672E0,-5.000922203E0,6.666079998E0
7.342123520E-1,-6.246768951E0,-5.227289200E0,6.344701767E0
7.382076640E-1,-6.888156891E0,-5.550420284E0,6.185305119E0
7.402092270E-1,-7.266823769E0,-5.802644730E0,6.143215179E0
7.441967270E-1,-7.451626778E0,-6.094382763E0,6.054916859E0
7.462045390E-1,-7.454509735E0,-6.373326778E0,5.873733521E0
7.501967270E-1,-7.351922989E0,-6.557229996E0,5.630262375E0
7.522092270E-1,-7.249432087E0,-6.618942738E0,5.433679104E0
7.561967270E-1,-6.957760811E0,-6.672496796E0,4.876710892E0
7.581967270E-1,-6.846478462E0,-6.679908752E0,4.624754906E0
7.601967270E-1,-6.799274445E0,-6.677955151E0,4.492249966E0
7.621967270E-1,-6.724508286E0,-6.636726856E0,4.062826157E0
7.641967270E-1,-6.728894711E0,-6.603705883E0,3.918589830E0
7.661967270E-1,-6.756695747E0,-6.516585827E0,3.638152361E0
7.681967270E-1,-6.831854343E0,-6.424380302E0,3.376418114E0
7.701967270E-1,-6.968276501E0,-6.298656464E0,3.140953064E0
7.721967270E-1,-7.117885113E0,-6.156354427E0,2.935147762E0
7.742045390E-1,-7.297344685E0,-5.993050575E0,2.754069328E0
7.762061020E-1,-7.616405964E0,-5.751906872E0,2.564199686E0
7.801967270E-1,-7.980583191E0,-5.531650066E0,2.437718868E0
7.821967270E-1,-8.228239059E0,-5.438266277E0,2.358997345E0
7.841967270E-1,-8.481296539E0,-5.407994270E0,2.273284912E0
7.861967270E-1,-8.755221367E0,-5.445966244E0,2.195808649E0
7.881967270E-1,-9.036550522E0,-5.525798321E0,2.112117052E0
7.901967270E-1,-9.308243752E0,-5.620244503E0,2.044025660E0
7.921967270E-1,-9.575485229E0,-5.720944881E0,2.005115271E0
7.942045390E-1,-9.837821960E0,-5.800547600E0,1.975120664E0
7.981967270E-1,-1.040484715E1,-5.923781872E0,2.030120134E0
8.002561020E-1,-1.069212246E1,-5.995761395E0,2.095692635E0
8.041967270E-1,-1.129097843E1,-6.282145977E0,2.254351616E0
8.061967270E-1,-1.160840225E1,-6.450582504E0,2.328265429E0
8.081982890E-1,-1.190896034E1,-6.616385937E0,2.380209923E0
8.121967270E-1,-1.240775871E1,-6.913908482E0,2.462331057E0
8.141967270E-1,-1.260675526E1,-7.067923069E0,2.510416269E0
8.161967270E-1,-1.278465462E1,-7.208424091E0,2.575529099E0
8.181967270E-1,-1.294554424E1,-7.304738045E0,2.671373606E0
8.202373520E-1,-1.305342674E1,-7.354230881E0,2.792175531E0
8.241967270E-1,-1.319401455E1,-7.366805077E0,3.096919060E0
8.261967270E-1,-1.322618294E1,-7.372302055E0,3.260328054E0
8.281967270E-1,-1.322360706E1,-7.368002415E0,3.436733007E0
8.302029770E-1,-1.313922596E1,-7.331476688E0,3.614995718E0
8.341982890E-1,-1.281338501E1,-7.240142345E0,3.981605291E0
8.381967270E-1,-1.254967785E1,-7.312457085E0,4.274147987E0
8.401967270E-1,-1.244083691E1,-7.415015221E0,4.344039440E0
8.422061020E-1,-1.236201096E1,-7.548094273E0,4.358002663E0
8.461967270E-1,-1.218120956E1,-7.811169624E0,4.276436806E0
8.481967270E-1,-1.208848763E1,-7.915030003E0,4.203452110E0
8.502045390E-1,-1.200527477E1,-8.014877319E0,4.137755394E0
8.541967270E-1,-1.185122204E1,-8.081331253E0,4.052061558E0
8.561967270E-1,-1.183747005E1,-8.096194267E0,4.022192001E0
8.581967270E-1,-1.193096733E1,-8.154929161E0,3.963361502E0
8.601967270E-1,-1.203485775E1,-8.196042061E0,3.861272812E0
8.621967270E-1,-1.213568211E1,-8.221879959E0,3.711386204E0
8.641967270E-1,-1.221549511E1,-8.213539124E0,3.531706095E0
8.661967270E-1,-1.226204777E1,-8.192603111E0,3.339901924E0
8.681967270E-1,-1.227835751E1,-8.154210091E0,3.104839087E0
8.701967270E-1,-1.225587082E1,-8.111412048E0,2.851973057E0
8.721967270E-1,-1.222795391E1,-8.051144600E0,2.590392113E0
8.741967270E-1,-1.222076130E1,-7.978839874E0,2.321427584E0
8.761967270E-1,-1.223786640E1,-7.891758442E0,2.045261145E0
8.781967270E-1,-1.222354889E1,-7.806457520E0,1.799003124E0
8.801967270E-1,-1.220784283E1,-7.730954170E0,1.571640134E0
8.821967270E-1,-1.220757484E1,-7.650547028E0,1.369157672E0
8.841967270E-1,-1.224352646E1,-7.564729691E0,1.166186929E0
8.861967270E-1,-1.229960728E1,-7.480960846E0,1.005823255E0
8.881967270E-1,-1.238840389E1,-7.410293579E0,8.885169625E-1
8.901967270E-1,-1.249230289E1,-7.305082798E0,7.976043820E-1
8.921967270E-1,-1.260608482E1,-7.212350368E0,7.224551439E-1
8.941967270E-1,-1.269309998E1,-7.148932934E0,6.806715727E-1
8.961967270E-1,-1.275990677E1,-7.116362095E0,6.508206129E-1
8.981967270E-1,-1.278220177E1,-7.113431454E0,6.423547268E-1
9.001967270E-1,-1.280487156E1,-7.150484562E0,6.270893216E-1
9.021967270E-1,-1.285153770E1,-7.226821423E0,6.435901523E-1
9.041967270E-1,-1.291447735E1,-7.315588951E0,7.158949971E-1
9.061967270E-1,-1.300934505E1,-7.414229870E0,8.510620594E-1
9.081967270E-1,-1.312480259E1,-7.512066364E0,1.036392450E0
9.101967270E-1,-1.323478317E1,-7.622554302E0,1.266255021E0
9.121967270E-1,-1.333497524E1,-7.740167141E0,1.486952543E0
9.141967270E-1,-1.344319344E1,-7.845540524E0,1.744913340E0
9.161967270E-1,-1.356799793E1,-7.931463242E0,2.062135458E0
9.181967270E-1,-1.371121979E1,-7.983647346E0,2.426379919E0
9.201967270E-1,-1.385639477E1,-8.016227722E0,2.803035736E0
9.221967270E-1,-1.400812054E1,-8.043024063E0,3.157808304E0
9.241967270E-1,-1.414108372E1,-8.079942703E0,3.490918398E0
9.261967270E-1,-1.426281548E1,-8.117588997E0,3.787492990E0
9.281967270E-1,-1.437126255E1,-8.146577835E0,4.041383743E0
9.301967270E-1,-1.444637394E1,-8.201079369E0,4.234816074E0
9.322029770E-1,-1.447759342E1,-8.288286209E0,4.380010128E0
9.361967270E-1,-1.438320541E1,-8.414632797E0,4.554624081E0
9.381967270E-1,-1.431510448E1,-8.460103989E0,4.577167988E0
9.401967270E-1,-1.425884056E1,-8.525168419E0,4.545602322E0
9.422061020E-1,-1.418677521E1,-8.589859009E0,4.483889580E0
9.461967270E-1,-1.400118637E1,-8.646736145E0,4.342535973E0
9.481967270E-1,-1.390066814E1,-8.669643402E0,4.228926182E0
9.501967270E-1,-1.383084393E1,-8.716675758E0,4.075812340E0
9.521967270E-1,-1.372520256E1,-8.767327309E0,3.888806105E0
9.541967270E-1,-1.358225918E1,-8.816437721E0,3.684446573E0
9.562139140E-1,-1.339997387E1,-8.855817795E0,3.467052937E0
9.602029770E-1,-1.289864635E1,-8.887831688E0,3.016253710E0
9.622514140E-1,-1.259386539E1,-8.882545471E0,2.784791708E0
9.661982890E-1,-1.196056938E1,-8.826540947E0,2.337324858E0
9.701967270E-1,-1.137088776E1,-8.760211945E0,1.946687102E0
9.721967270E-1,-1.111637402E1,-8.722862244E0,1.755131841E0
9.741967270E-1,-1.092435932E1,-8.681672096E0,1.588006973E0
9.761967270E-1,-1.079982185E1,-8.641717911E0,1.461372852E0
9.781967270E-1,-1.072698116E1,-8.597932816E0,1.373419404E0
9.801967270E-1,-1.068242931E1,-8.561263084E0,1.338128924E0
9.821967270E-1,-1.074828053E1,-8.530128479E0,1.367204070E0
9.841967270E-1,-1.087738514E1,-8.497509956E0,1.449315667E0
9.861967270E-1,-1.096509838E1,-8.456032753E0,1.458212495E0
9.881982890E-1,-1.074365425E1,-8.427302361E0,1.247455716E0
9.921967270E-1,-1.039483929E1,-8.386113167E0,8.726673722E-1
9.941967270E-1,-1.038868999E1,-8.288553238E0,7.906324267E-1
9.961967270E-1,-1.039109421E1,-8.109189987E0,7.398370504E-1
9.981967270E-1,-1.037834740E1,-7.883397579E0,7.218997478E-1
1.000196727E0,-1.035928917E1,-7.647424698E0,6.939545870E-1
1.002196727E0,-1.026686287E1,-7.444061756E0,6.532914639E-1
1.004209227E0,-1.011065578E1,-7.327176571E0,5.456864834E-1
1.008198289E0,-9.950197220E0,-7.407344341E0,-9.376651794E-2
1.012196727E0,-9.870086670E0,-7.383152962E0,-2.447352856E-1
1.014199852E0,-9.606849670E0,-7.040925980E0,-4.635174572E-2
1.018198289E0,-8.122597694E0,-5.781317234E0,6.863027215E-1
1.022196727E0,-8.730849266E0,-5.973303318E0,1.289909720E0
1.024196727E0,-8.959897041E0,-6.526210785E0,1.576380730E0
1.026196727E0,-8.914158821E0,-6.707135677E0,1.643753529E0
1.028196727E0,-8.662978172E0,-7.002599716E0,1.671123981E0
1.030196727E0,-8.440461159E0,-7.444262505E0,1.128540516E0
1.032196727E0,-8.295333862E0,-7.953777313E0,2.520615608E-2
1.034196727E0,-8.256002426E0,-8.328642845E0,-9.158396125E-1
1.036196727E0,-8.297346115E0,-8.566157341E0,-1.532068849E0
1.038196727E0,-8.365178108E0,-8.699254990E0,-1.929851055E0
1.040198289E0,-8.423461914E0,-8.734794617E0,-2.209781170E0
1.044196727E0,-8.568388939E0,-8.535491943E0,-2.200367212E0
1.046196727E0,-8.561702728E0,-8.370675087E0,-2.008562803E0
1.048196727E0,-8.427474976E0,-8.232433319E0,-1.841706157E0
1.050196727E0,-8.212513924E0,-8.135382652E0,-1.736265540E0
1.052196727E0,-7.897293568E0,-8.008480072E0,-1.679082394E0
1.054196727E0,-7.425664425E0,-7.841700077E0,-1.638064981E0
1.056196727E0,-6.822909832E0,-7.653544426E0,-1.621908784E0
1.058196727E0,-6.175076962E0,-7.458953381E0,-1.661058784E0
1.060196727E0,-5.638258934E0,-7.304172993E0,-1.724284887E0
1.062196727E0,-5.209007263E0,-7.205675602E0,-1.712581992E0
1.064196727E0,-4.782389164E0,-7.139691353E0,-1.614295244E0
1.066196727E0,-4.327806473E0,-7.130258083E0,-1.490649223E0
1.068196727E0,-3.832705021E0,-7.179674625E0,-1.358297586E0
1.070196727E0,-3.360817671E0,-7.282625675E0,-1.211159587E0
1.072198289E0,-2.985789776E0,-7.373892307E0,-1.058074355E0
1.076196727E0,-2.696637154E0,-7.353522301E0,-8.348581791E-1
1.078196727E0,-2.891697645E0,-7.216181278E0,-7.257016897E-1
1.080196727E0,-3.472435236E0,-7.008651733E0,-5.267818570E-1
1.082196727E0,-4.336061954E0,-6.676374912E0,-2.643294334E-1
1.084196727E0,-5.185697079E0,-6.264783382E0,6.876147352E-3
1.086196727E0,-5.844639301E0,-5.914751053E0,3.261573315E-1
1.088220164E0,-6.250868320E0,-5.675962925E0,6.833434701E-1
1.092196727E0,-6.897216320E0,-5.387154579E0,1.312913179E0
1.094196727E0,-7.378469944E0,-5.303903580E0,1.579014301E0
1.096196727E0,-7.965039730E0,-5.238149643E0,1.807746768E0
1.098196727E0,-8.590702057E0,-5.169129372E0,2.018225908E0
1.100196727E0,-9.222952843E0,-5.100472927E0,2.201813221E0
1.102196727E0,-9.788444519E0,-5.052991390E0,2.369081736E0
1.104196727E0,-1.024182987E1,-5.035293579E0,2.513423443E0
1.106196727E0,-1.051806355E1,-5.047724247E0,2.597823620E0
1.108218602E0,-1.056161785E1,-5.104141235E0,2.577817917E0
1.112196727E0,-1.024681950E1,-5.349183083E0,2.282382727E0
1.114196727E0,-1.013943481E1,-5.496368885E0,2.056829929E0
1.116196727E0,-1.006530094E1,-5.641658783E0,1.812822461E0
1.118201414E0,-1.002897549E1,-5.753438950E0,1.577999115E0
1.122196727E0,-1.002740574E1,-5.903201103E0,1.206466913E0
1.124196727E0,-1.002474308E1,-5.954973698E0,1.073339701E0
1.126196727E0,-1.003890705E1,-6.013420582E0,9.759148955E-1
1.128199852E0,-1.008699226E1,-6.086577415E0,9.423290491E-1
1.132196727E0,-1.031640434E1,-6.295783043E0,1.206639409E0
1.134213914E0,-1.036991024E1,-6.410025120E0,1.446528792E0
1.138196727E0,-1.035091019E1,-6.619373798E0,2.046266794E0
1.140196727E0,-1.031295681E1,-6.707681656E0,2.356124163E0
1.142196727E0,-1.028626633E1,-6.817134857E0,2.682951927E0
1.144196727E0,-1.025658798E1,-6.913860798E0,2.942828178E0
1.146196727E0,-1.017437077E1,-6.954954624E0,3.107989788E0
1.148198289E0,-1.006168079E1,-6.961897850E0,3.213420868E0
1.152196727E0,-9.893617630E0,-6.917624474E0,3.227661610E0
1.154196727E0,-9.847868919E0,-6.874366283E0,3.192524433E0
1.156196727E0,-9.878954887E0,-6.824585915E0,3.164732456E0
1.158196727E0,-9.978045464E0,-6.733232498E0,3.107769489E0
1.160196727E0,-1.005979347E1,-6.635434151E0,3.041871548E0
1.162196727E0,-1.006872940E1,-6.498437881E0,3.024116278E0
1.164196727E0,-1.013715553E1,-6.354086876E0,3.115182161E0
1.166196727E0,-1.046304512E1,-6.207753181E0,3.291912317E0
1.168198289E0,-1.091605663E1,-6.040206909E0,3.459554434E0
1.172224852E0,-1.167795753E1,-5.652231216E0,3.748218536E0
1.176196727E0,-1.176278019E1,-4.988587379E0,3.795872688E0
1.178196727E0,-1.185008240E1,-4.721231461E0,3.576046705E0
1.180196727E0,-1.200747681E1,-4.560216904E0,3.120746136E0
1.182196727E0,-1.224879265E1,-4.460847855E0,2.654346228E0
1.184196727E0,-1.244909191E1,-4.434348583E0,2.149217367E0
1.186196727E0,-1.238449669E1,-4.434597492E0,1.509266496E0
1.188198289E0,-1.228141212E1,-4.461288452E0,8.548161983E-1
1.192196727E0,-1.235884094E1,-4.565416813E0,8.880573511E-2
1.194196727E0,-1.205439377E1,-4.494586945E0,-6.815813482E-2
1.196196727E0,-1.196581745E1,-4.428209782E0,5.673300102E-2
1.198201414E0,-1.221346474E1,-4.350082397E0,6.290141940E-1
1.202196727E0,-1.186103821E1,-3.885013580E0,1.928194284E0
1.204201414E0,-1.138923645E1,-3.639790058E0,2.399497509E0
1.208210789E0,-9.653535843E0,-3.255683422E0,2.757383108E0
1.212196727E0,-6.963334560E0,-3.281148195E0,2.055498838E0
1.214196727E0,-5.964301109E0,-3.512657642E0,1.695027709E0
1.216196727E0,-5.149563789E0,-3.767582655E0,1.485803246E0
1.218196727E0,-4.319915295E0,-3.968178749E0,1.424913883E0
1.220196727E0,-3.580959797E0,-4.086069107E0,1.446883202E0
1.222196727E0,-2.930215597E0,-4.129126549E0,1.521007538E0
1.224196727E0,-2.440132141E0,-4.105749607E0,1.595275760E0
1.226196727E0,-2.141958237E0,-4.068524361E0,1.723988056E0
1.228196727E0,-1.928184748E0,-3.993241310E0,1.916663766E0
1.230196727E0,-1.761605740E0,-3.908544064E0,2.154800892E0
1.232196727E0,-1.600906849E0,-3.823176384E0,2.411210299E0
1.234198289E0,-1.429989576E0,-3.713608027E0,2.653053284E0
1.236235789E0,-1.276013851E0,-3.603627920E0,2.866376400E0
1.240196727E0,-9.866984487E-1,-3.407331944E0,3.160231113E0
1.242196727E0,-8.899343014E-1,-3.340849876E0,3.243712425E0
1.244196727E0,-8.668350577E-1,-3.272078753E0,3.279893637E0
1.246196727E0,-9.314211011E-1,-3.227652073E0,3.236692667E0
1.248196727E0,-1.123895764E0,-3.187362194E0,3.078962564E0
1.250196727E0,-1.444326162E0,-3.130475998E0,2.847108126E0
1.252196727E0,-1.838392615E0,-3.026797533E0,2.569495678E0
1.254196727E0,-2.258345127E0,-2.916961193E0,2.280429125E0
1.256213914E0,-2.663990021E0,-2.774860620E0,2.007988214E0
1.260196727E0,-3.540564775E0,-2.496721506E0,1.493503094E0
1.262196727E0,-3.941277266E0,-2.364475250E0,1.252445221E0
1.264196727E0,-4.330794811E0,-2.256602049E0,1.048143148E0
1.266196727E0,-4.727619648E0,-2.176970959E0,8.655804992E-1
1.268198289E0,-5.082105160E0,-2.116378307E0,7.257400155E-1
1.272196727E0,-5.654721260E0,-2.069356441E0,5.481764078E-1
1.274196727E0,-5.887380600E0,-2.143308640E0,4.639101028E-1
1.276209227E0,-6.042352200E0,-2.267490864E0,4.125592709E-1
1.280209227E0,-6.337069035E0,-2.629120827E0,3.351978064E-1
1.284196727E0,-6.576048374E0,-2.955134630E0,3.983472884E-1
1.286196727E0,-6.682724476E0,-3.085781336E0,4.690815806E-1
1.288198289E0,-6.776280403E0,-3.205663681E0,5.264083147E-1
1.292196727E0,-7.026627541E0,-3.541177511E0,6.241587996E-1
1.294196727E0,-7.177203655E0,-3.792032480E0,6.894630790E-1
1.296196727E0,-7.410657883E0,-4.048719406E0,8.454884291E-1
1.298198289E0,-7.636833191E0,-4.300656796E0,1.073521733E0
1.302196727E0,-7.914320946E0,-4.741045952E0,1.610435843E0
1.304196727E0,-8.049267769E0,-4.940636158E0,1.928759336E0
1.306196727E0,-8.145007133E0,-5.147380352E0,2.167068720E0
1.308196727E0,-8.289789200E0,-5.306862831E0,2.434548855E0
1.310196727E0,-8.506320953E0,-5.448944569E0,2.673643351E0
1.312196727E0,-8.758075714E0,-5.536217690E0,2.733776093E0
1.314196727E0,-9.287289619E0,-5.713992119E0,2.836774588E0
1.316196727E0,-9.152449608E0,-5.758744717E0,3.064300537E0
1.318220164E0,-8.701974869E0,-5.717909336E0,3.153029442E0
1.322196727E0,-8.442128181E0,-5.621566296E0,3.267472506E0
1.324196727E0,-8.247555733E0,-5.533325672E0,3.271341562E0
1.326196727E0,-8.017549515E0,-5.433889866E0,3.186854839E0
1.328196727E0,-7.837591648E0,-5.351356983E0,3.025351524E0
1.330196727E0,-7.627955437E0,-5.302400589E0,2.747786760E0
1.332196727E0,-7.477101326E0,-5.269838810E0,2.446203947E0
1.334210789E0,-7.473740101E0,-5.251183510E0,2.229336977E0
1.338196727E0,-7.428709984E0,-5.214341164E0,1.748035431E0
1.340196727E0,-7.198167324E0,-5.184174538E0,1.413910151E0
1.342196727E0,-6.869175434E0,-5.142946243E0,1.046323657E0
1.344196727E0,-6.383305550E0,-5.098165035E0,5.816186666E-1
1.346196727E0,-5.859588146E0,-5.014827728E0,6.844543666E-2
1.348198289E0,-5.465052605E0,-4.871635437E0,-2.636303306E-1
1.352196727E0,-4.733623981E0,-4.469534397E0,-6.863409877E-1
1.354196727E0,-4.021061897E0,-4.209552288E0,-1.000182509E0
1.356196727E0,-2.995720863E0,-3.912681103E0,-1.450100899E0
1.358199852E0,-1.856464028E0,-3.549422979E0,-1.679561257E0
1.362196727E0,-2.941995114E-2,-3.227948904E0,-9.317562580E-1
1.364196727E0,-2.070505619E-1,-3.719258308E0,-4.604720175E-1
1.366196727E0,-7.092008591E-1,-4.369657516E0,-1.390839666E-1
1.368196727E0,-1.849444270E0,-5.166572094E0,4.951783717E-1
1.370212352E0,-3.468374729E0,-6.193637371E0,1.408537626E0
1.374199852E0,-6.992869854E0,-8.251491547E0,2.116627455E0
1.376243602E0,-9.250045776E0,-9.200793266E0,2.511134624E0
1.380196727E0,-1.078880978E1,-9.514557838E0,3.026941299E0
1.382196727E0,-1.101986885E1,-9.096463203E0,4.021808624E0
1.384196727E0,-1.088679886E1,-8.456349373E0,5.058478832E0
1.386196727E0,-1.060032845E1,-7.840483665E0,6.025688648E0
1.388202977E0,-1.044353580E1,-7.367676735E0,6.712364674E0
1.390202977E0,-1.031730461E1,-6.940110683E0,7.129108906E0
1.394196727E0,-1.032654572E1,-6.965575695E0,7.150695324E0
1.396212352E0,-1.022879601E1,-7.212034702E0,6.901774883E0
1.400198289E0,-9.716599464E0,-8.120759010E0,5.703007698E0
1.404212352E0,-9.864962578E0,-8.565322876E0,4.064530849E0
1.408199852E0,-9.103904724E0,-8.390958786E0,3.154829979E0
1.412196727E0,-8.369210243E0,-7.789621353E0,2.067450762E0
1.414196727E0,-8.133534431E0,-7.512066364E0,1.921605468E0
1.416196727E0,-8.091567993E0,-7.303895473E0,1.834293723E0
1.418199852E0,-8.333344460E0,-7.187565804E0,1.682242632E0
1.420210789E0,-8.594839096E0,-7.165452957E0,1.628373146E0
1.424196727E0,-8.896939278E0,-7.300898075E0,1.722091794E0
1.426196727E0,-8.597942352E0,-7.234157085E0,1.603933215E0
1.428199852E0,-7.856323719E0,-7.005463123E0,1.490237355E0
1.432196727E0,-5.571661472E0,-6.136970997E0,1.140138030E0
1.434210789E0,-4.601292133E0,-5.779238701E0,1.045672417E0
1.438199852E0,-5.098069191E0,-6.365818501E0,8.348677158E-1
1.442196727E0,-6.198482990E0,-7.267484188E0,1.485362742E-2
1.444196727E0,-6.083302498E0,-7.298187733E0,-4.007702172E-1
1.446196727E0,-5.527589321E0,-6.965815067E0,-6.397211552E-1
1.448196727E0,-4.715887547E0,-6.471115112E0,-4.679993987E-1
1.450196727E0,-4.208891392E0,-6.180478573E0,3.919786960E-2
1.452196727E0,-4.419486046E0,-6.312006474E0,6.923744082E-1
1.454196727E0,-5.050731659E0,-6.835474491E0,1.144169807E0
1.456196727E0,-5.733997822E0,-7.527245522E0,1.382143974E0
1.458202977E0,-6.361020565E0,-8.274035454E0,1.298059583E0
1.462206102E0,-6.424917221E0,-8.796374321E0,6.835063100E-1
1.466196727E0,-6.402545452E0,-8.632179260E0,5.769164562E-1
1.468196727E0,-6.313299179E0,-8.333364487E0,3.889620006E-1
1.470196727E0,-5.811618328E0,-7.719155312E0,1.907604188E-1
1.472196727E0,-5.078819752E0,-6.971943855E0,9.812396020E-2
1.474196727E0,-4.675243855E0,-6.464478493E0,3.533841670E-2
1.476196727E0,-4.708436966E0,-6.284176350E0,-1.829648912E-1
1.478198289E0,-5.262177944E0,-6.490221024E0,-5.208058953E-1
1.482196727E0,-7.566462994E0,-7.712231636E0,-1.357387781E0
1.484196727E0,-7.817001343E0,-7.914512634E0,-1.572071195E0
1.486196727E0,-7.289156914E0,-7.649599075E0,-1.535449505E0
1.488198289E0,-6.685980320E0,-7.273374081E0,-1.345359325E0
1.492196727E0,-6.569172382E0,-7.052609444E0,-8.917443752E-1
1.494196727E0,-6.832505703E0,-7.239931583E0,-8.046816587E-1
1.496196727E0,-7.005836487E0,-7.480539322E0,-7.730110884E-1
1.498196727E0,-7.005826473E0,-7.715305328E0,-9.108692408E-1
1.500196727E0,-7.059016705E0,-7.937094688E0,-1.314589143E0
1.502196727E0,-7.252898693E0,-8.147650719E0,-1.759565949E0
1.504196727E0,-7.164485931E0,-8.211872101E0,-2.075064182E0
1.506196727E0,-6.935839176E0,-8.135899544E0,-2.224174976E0
1.508196727E0,-6.759166718E0,-7.994852543E0,-2.237438917E0
1.510196727E0,-6.840425968E0,-7.865833282E0,-2.142312527E0
1.512196727E0,-7.134922504E0,-7.860221863E0,-1.980579495E0
1.514196727E0,-7.488210678E0,-7.897379875E0,-1.729887366E0
1.516196727E0,-7.778914452E0,-7.943760395E0,-1.419761539E0
1.518196727E0,-8.041453362E0,-8.038522720E0,-1.154062629E0
1.520196727E0,-8.187145233E0,-8.061372757E0,-8.396273851E-1
1.522196727E0,-8.269687653E0,-8.146615982E0,-5.881021023E-1
1.524196727E0,-8.300525665E0,-8.357373238E0,-5.211315155E-1
1.526196727E0,-8.415331841E0,-8.776721954E0,-5.875753760E-1
1.528196727E0,-8.523223877E0,-9.328623772E0,-6.092956066E-1
1.530217039E0,-8.235795021E0,-9.550844193E0,-6.204621792E-1
1.534198289E0,-7.259200096E0,-9.371891975E0,-5.039603114E-1
1.538196727E0,-6.777084827E0,-9.020968437E0,-5.317138433E-1
1.540196727E0,-6.742598534E0,-8.944105148E0,-6.037985086E-1
1.542196727E0,-6.811657429E0,-8.933619499E0,-7.112885714E-1
1.544196727E0,-6.855748653E0,-8.951182365E0,-8.042123318E-1
1.546196727E0,-6.834717751E0,-8.961497307E0,-9.018862247E-1
1.548198289E0,-6.829766750E0,-8.980516434E0,-1.022486925E0
1.552196727E0,-6.842542648E0,-9.108194351E0,-1.303345919E0
1.554196727E0,-6.667583466E0,-9.019330978E0,-1.439834595E0
1.556196727E0,-6.372886181E0,-8.838626862E0,-1.559669137E0
1.558196727E0,-6.034633160E0,-8.697818756E0,-1.720540404E0
1.560196727E0,-5.718167305E0,-8.620725632E0,-1.960496783E0
1.562196727E0,-5.440650940E0,-8.505496979E0,-2.121751308E0
1.564196727E0,-5.113698959E0,-8.358359337E0,-2.231807947E0
1.566196727E0,-4.824498653E0,-8.250266075E0,-2.312904358E0
1.568196727E0,-4.664967537E0,-8.214506149E0,-2.274424553E0
1.570196727E0,-4.635184288E0,-8.248665810E0,-2.174059629E0
1.572212352E0,-4.666787624E0,-8.323097229E0,-2.084430456E0
1.576196727E0,-4.738259315E0,-8.544666290E0,-1.821364999E0
1.578196727E0,-4.753974438E0,-8.595079422E0,-1.657917619E0
1.580196727E0,-4.734658241E0,-8.644217491E0,-1.490649223E0
1.582196727E0,-4.736181259E0,-8.696937561E0,-1.367999077E0
1.584196727E0,-4.716778278E0,-8.750031471E0,-1.286356688E0
1.586196727E0,-4.709490776E0,-8.794889450E0,-1.277009726E0
1.588196727E0,-4.729295254E0,-8.867232323E0,-1.266542196E0
1.590196727E0,-4.807844162E0,-8.960395813E0,-1.235666633E0
1.592196727E0,-4.921089649E0,-9.048483849E0,-1.153354049E0
1.594196727E0,-5.081874847E0,-9.100006104E0,-1.009213448E0
1.596196727E0,-5.299125195E0,-9.070327759E0,-9.162226319E-1
1.598201414E0,-5.325116158E0,-9.078975677E0,-8.672756553E-1
1.602196727E0,-5.266372204E0,-8.987766266E0,-8.576126099E-1
1.604196727E0,-5.365990162E0,-8.905386925E0,-8.305485845E-1
1.606196727E0,-5.629467487E0,-8.724001884E0,-7.551982403E-1
1.608198289E0,-5.797626495E0,-8.555555344E0,-7.538574934E-1
1.612196727E0,-5.603130817E0,-8.168288231E0,-9.403753877E-1
1.614196727E0,-5.445199966E0,-8.091540337E0,-9.286533594E-1
1.616196727E0,-5.263336658E0,-8.022423744E0,-8.940619230E-1
1.618198289E0,-5.288887024E0,-8.034835815E0,-9.225816727E-1
1.622196727E0,-5.780599117E0,-8.210004807E0,-9.882019758E-1
1.624196727E0,-5.993557930E0,-8.350037575E0,-1.012709022E0
1.626201414E0,-5.685702324E0,-8.592664719E0,-1.031872153E0
1.630196727E0,-5.255138874E0,-8.857742310E0,-6.193033457E-1
1.632196727E0,-5.265615940E0,-8.999210358E0,-3.601837158E-2
1.634210789E0,-5.261133671E0,-9.063326836E0,2.422932088E-1
1.638198289E0,-5.071713924E0,-9.047995567E0,-3.538630009E-1
1.642196727E0,-5.133915424E0,-8.721186638E0,-1.611144543E0
1.644196727E0,-5.240715981E0,-8.542473793E0,-2.083539486E0
1.646196727E0,-5.339701653E0,-8.461175919E0,-2.342400551E0
1.648199852E0,-5.469400406E0,-8.439149857E0,-2.461938381E0
1.652196727E0,-5.316267490E0,-8.532217026E0,-2.201420546E0
1.654196727E0,-5.073677063E0,-8.688587189E0,-1.896677017E0
1.656196727E0,-4.867096424E0,-8.862874985E0,-1.579818726E0
1.658198289E0,-4.702825069E0,-9.039739609E0,-1.318601847E0
1.662229539E0,-4.472933769E0,-9.138831139E0,-1.193825603E0
1.666196727E0,-4.399920464E0,-9.013508797E0,-1.411688328E0
1.668196727E0,-4.385325432E0,-8.993578911E0,-1.429213881E0
1.670196727E0,-4.465301037E0,-8.997974396E0,-1.376934052E0
1.672196727E0,-4.523748398E0,-9.023717880E0,-1.294745922E0
1.674196727E0,-4.564909458E0,-9.100657463E0,-1.138960123E0
1.676196727E0,-4.541522980E0,-9.216795921E0,-9.832890630E-1
1.678198289E0,-4.471286774E0,-9.343764305E0,-8.415140510E-1
1.682196727E0,-4.304362774E0,-9.530273438E0,-7.941471338E-1
1.684196727E0,-4.217855453E0,-9.610584259E0,-8.564921021E-1
1.686196727E0,-4.169224739E0,-9.670200348E0,-9.217676520E-1
1.688201414E0,-4.131654739E0,-9.709752083E0,-9.927318096E-1
1.692196727E0,-4.186568260E0,-9.810097694E0,-1.084841609E0
1.694196727E0,-4.229932308E0,-9.901058197E0,-1.006790519E0
1.696196727E0,-4.183341026E0,-9.963451385E0,-9.490136504E-1
1.698196727E0,-4.125975609E0,-1.000402832E1,-9.427025914E-1
1.700196727E0,-4.110671997E0,-1.005850124E1,-9.340738654E-1
1.702196727E0,-4.108076572E0,-1.011592388E1,-9.434878826E-1
1.704196727E0,-4.112482071E0,-1.018713665E1,-9.344952106E-1
1.706196727E0,-4.161496162E0,-1.025525665E1,-8.729929924E-1
1.708215477E0,-4.225766182E0,-1.034253025E1,-7.656177878E-1
1.710220164E0,-4.230535030E0,-1.036836815E1,-7.112503052E-1
1.714196727E0,-4.123073578E0,-1.034317207E1,-7.497490048E-1
1.716196727E0,-4.113037586E0,-1.033806705E1,-7.322713733E-1
1.718202977E0,-4.121809483E0,-1.031689262E1,-7.734324932E-1
1.722196727E0,-3.930723667E0,-1.020099449E1,-8.820143342E-1
1.724196727E0,-3.770781517E0,-1.009315872E1,-9.038111567E-1
1.726196727E0,-3.594213963E0,-9.946490288E0,-9.299175143E-1
1.728196727E0,-3.463289261E0,-9.814694405E0,-9.467630982E-1
1.730196727E0,-3.357599735E0,-9.726396561E0,-9.143072963E-1
1.732196727E0,-3.314628601E0,-9.638682365E0,-8.736633062E-1
1.734210789E0,-3.312368393E0,-9.549799919E0,-8.548161983E-1
1.738196727E0,-3.389231920E0,-9.405429840E0,-8.447126746E-1
1.740196727E0,-3.482950449E0,-9.393047333E0,-8.269189596E-1
1.742196727E0,-3.535967827E0,-9.375138283E0,-7.744955420E-1
1.744196727E0,-3.531619787E0,-9.325922966E0,-7.001219988E-1
1.746196727E0,-3.508807898E0,-9.259373665E0,-6.516346335E-1
1.748198289E0,-3.439519882E0,-9.181907654E0,-6.181254387E-1
1.752196727E0,-3.353721142E0,-9.152065277E0,-6.287077665E-1
1.754196727E0,-3.323381901E0,-9.158127785E0,-6.448639035E-1
1.756196727E0,-3.277173758E0,-9.145017624E0,-6.906889081E-1
1.758196727E0,-3.237554550E0,-9.164716721E0,-7.726663351E-1
1.760196727E0,-3.196632862E0,-9.195649147E0,-8.253675103E-1
1.762196727E0,-3.205261469E0,-9.154392242E0,-8.905185461E-1
1.764196727E0,-3.301699877E0,-9.038446426E0,-9.861908555E-1
1.766204539E0,-3.471343517E0,-8.876809120E0,-1.057968974E0
1.770196727E0,-3.778462172E0,-8.646506310E0,-8.505449295E-1
1.772220164E0,-3.829860926E0,-8.645003319E0,-5.924500227E-1
1.774229539E0,-3.801139832E0,-8.692006111E0,-3.604422808E-1
1.778196727E0,-3.574332476E0,-8.937191010E0,-1.821987480E-1
1.780217039E0,-3.374569893E0,-9.075393677E0,-3.062854409E-1
1.784202977E0,-3.126023054E0,-9.265646935E0,-4.541704655E-1
1.788198289E0,-3.693305254E0,-9.230356216E0,-7.338515520E-1
1.792196727E0,-4.010852814E0,-9.380251884E0,-4.200004339E-1
1.794196727E0,-4.230832100E0,-9.483749390E0,-1.862305850E-1
1.796196727E0,-4.453023434E0,-9.653411865E0,-1.369483396E-2
1.798221727E0,-4.408223152E0,-9.866705894E0,1.714248359E-1
1.800243602E0,-4.362743378E0,-1.004960442E1,3.243281245E-1
1.804196727E0,-4.137247562E0,-1.028006077E1,2.695488036E-1
1.806196727E0,-4.125372410E0,-1.035984516E1,1.217116416E-1
1.808196727E0,-4.000174999E0,-1.044829559E1,9.446562082E-2
1.810215477E0,-3.874431133E0,-1.048477459E1,6.997773051E-2
1.814196727E0,-3.726574898E0,-1.046856022E1,-4.104619101E-2
1.816196727E0,-3.576601982E0,-1.043950462E1,-7.627926767E-2
1.818198289E0,-3.410549879E0,-1.040100574E1,-7.192181796E-2
1.822196727E0,-3.623451948E0,-1.037108803E1,-2.881086469E-1
1.824196727E0,-3.816232920E0,-1.037313747E1,-5.318096280E-1
1.826196727E0,-3.959052086E0,-1.046337032E1,-6.846842170E-1
1.828196727E0,-4.071483612E0,-1.061750889E1,-7.268700600E-1
1.830196727E0,-4.064214706E0,-1.076140976E1,-7.725131512E-1
1.832196727E0,-3.972316027E0,-1.087163830E1,-7.565773129E-1
1.834199852E0,-3.909884453E0,-1.097118092E1,-7.239969969E-1
1.838198289E0,-3.684561491E0,-1.109257603E1,-6.586161256E-1
1.842196727E0,-3.339968681E0,-1.107503128E1,-5.168985724E-1
1.844196727E0,-3.342880011E0,-1.107626629E1,-5.557900071E-1
1.846196727E0,-3.411766052E0,-1.108318996E1,-6.170241237E-1
1.848196727E0,-3.499968529E0,-1.108749008E1,-6.421536207E-1
1.850196727E0,-3.501672983E0,-1.106505203E1,-6.045455337E-1
1.852196727E0,-3.427089214E0,-1.095219898E1,-5.609231591E-1
1.854196727E0,-3.336501837E0,-1.075862312E1,-5.924308300E-1
1.856196727E0,-3.236405373E0,-1.055421543E1,-6.767450571E-1
1.858202977E0,-3.229413986E0,-1.039124680E1,-7.716895342E-1
1.860209227E0,-3.224654436E0,-1.027107716E1,-8.759043217E-1
1.864196727E0,-3.124615192E0,-1.010971737E1,-1.002672553E0
1.866196727E0,-3.081165314E0,-1.004291058E1,-1.038049221E0
1.868196727E0,-2.986019611E0,-9.960012436E0,-1.082169533E0
1.870196727E0,-2.823759794E0,-9.876542091E0,-1.145510674E0
1.872196727E0,-2.738440037E0,-9.822882652E0,-1.194112897E0
1.874196727E0,-2.715340853E0,-9.773562431E0,-1.224337339E0
1.876196727E0,-2.631141424E0,-9.711150169E0,-1.248307943E0
1.878196727E0,-2.641608953E0,-9.622966766E0,-1.294918299E0
1.880199852E0,-2.645458698E0,-9.511062622E0,-1.258421183E0
1.882235789E0,-2.499048471E0,-9.328441620E0,-1.156677127E0
1.886202977E0,-6.479188800E-1,-6.965997219E0,-1.701223850E-1
1.890196727E0,-6.726174355E-1,-6.340257645E0,1.474157870E-1
1.892224852E0,-1.694998980E0,-6.900022507E0,-1.368621588E-1
1.894224852E0,-2.526447773E0,-7.575455189E0,-4.596771598E-1
1.898196727E0,-3.195272923E0,-8.589917183E0,-7.559069395E-1
1.900196727E0,-3.193932056E0,-8.771512985E0,-7.955166101E-1
1.902196727E0,-2.945021152E0,-9.147727966E0,-7.824251056E-1
1.904196727E0,-2.718826771E0,-9.227282524E0,-5.496799946E-1
1.906196727E0,-2.376848698E0,-9.233057022E0,-3.027803302E-1
1.908196727E0,-2.171176910E0,-9.230538368E0,-2.088701576E-1
1.910196727E0,-1.620874524E0,-9.002657890E0,8.556877077E-2
1.912196727E0,-1.026614547E0,-8.603515625E0,4.158249497E-1
1.914196727E0,-5.631545186E-1,-8.214832306E0,5.714288950E-1
1.916196727E0,-2.633430362E-1,-7.912156582E0,6.477081776E-1
1.918196727E0,-2.263765633E-1,-7.737274647E0,6.627820730E-1
1.920196727E0,-5.482243299E-1,-7.667421341E0,5.848460197E-1
1.922196727E0,-7.027652860E-1,-7.669672012E0,5.301624537E-1
1.924196727E0,-1.017612338E0,-7.756246090E0,3.450810909E-1
1.926196727E0,-1.228321314E0,-7.876866341E0,1.250347942E-1
1.928196727E0,-1.273609996E0,-8.065299034E0,-1.110334992E-1
1.930196727E0,-1.297188163E0,-8.311203003E0,-3.184479773E-1
1.932196727E0,-1.440006971E0,-8.531039238E0,-3.750373125E-1
1.934198289E0,-1.654460430E0,-8.701237679E0,-3.162069917E-1
1.938196727E0,-1.828786969E0,-8.838884354E0,-1.316044778E-1
1.940196727E0,-1.634243727E0,-8.854331970E0,-3.946602345E-2
1.942196727E0,-1.307167172E0,-8.863095284E0,-2.005000263E-1
1.944196727E0,-9.916113019E-1,-8.835390091E0,-4.710448384E-1
1.946196727E0,-7.257112265E-1,-8.782726288E0,-7.010988593E-1
1.948196727E0,-5.495842099E-1,-8.697521210E0,-8.554387093E-1
1.950196727E0,-4.315787852E-1,-8.585702896E0,-9.374448657E-1
1.952196727E0,-3.888758123E-1,-8.482542038E0,-9.693835378E-1
1.954196727E0,-4.303816855E-1,-8.382023811E0,-9.436697960E-1
1.956196727E0,-4.438179731E-1,-8.245832443E0,-9.491764307E-1
1.958196727E0,-4.244536459E-1,-8.093071938E0,-1.027801991E0
1.960196727E0,-4.170699418E-1,-8.019158363E0,-1.086105704E0
1.962196727E0,-4.048116207E-1,-8.028074265E0,-1.032446742E0
1.964196727E0,-3.929363787E-1,-8.095619202E0,-9.284427166E-1
1.966196727E0,-4.848258495E-1,-8.161211014E0,-9.746220708E-1
1.968196727E0,-6.243407726E-1,-8.165146828E0,-1.359571457E0
1.970196727E0,-5.022556186E-1,-8.181341171E0,-1.667283773E0
1.972196727E0,-2.936153114E-1,-8.280528069E0,-1.417357802E0
1.974196727E0,-1.948305517E-1,-8.468914032E0,-8.226860166E-1
1.976196727E0,-1.816049814E-1,-8.711533546E0,-2.494949698E-1
1.978196727E0,-2.777561247E-1,-8.933063507E0,1.787510961E-1
1.980196727E0,-3.627886176E-1,-9.139979362E0,4.360511899E-1
1.982196727E0,-3.498790562E-1,-9.345824242E0,4.701637626E-1
1.984196727E0,-2.218658924E-1,-9.576443672E0,4.917402864E-1
1.986196727E0,-4.407246411E-2,-9.815834045E0,5.403904915E-1
1.988196727E0,1.363162696E-1,-1.003062344E1,5.091030598E-1
1.990196727E0,3.364811242E-1,-1.025516987E1,3.719248772E-1
1.992196727E0,5.736794472E-1,-1.052079296E1,2.599815726E-1
1.994196727E0,8.309124708E-1,-1.088680840E1,2.369302064E-1
1.996196727E0,1.049282789E0,-1.135660839E1,2.696350217E-1
1.998204539E0,1.182592034E0,-1.185889244E1,2.304850221E-1
2.002196727E0,1.346949100E0,-1.291922760E1,-1.954626292E-2
2.004196727E0,1.274050593E0,-1.344737911E1,-2.297284454E-1
2.006196727E0,9.637427926E-1,-1.397616196E1,-4.538640082E-1
2.008196727E0,4.687368274E-1,-1.449309826E1,-6.936959624E-1
2.010196727E0,-1.168944985E-1,-1.493054771E1,-9.173910618E-1
2.012196727E0,-2.701329887E-1,-1.494180107E1,-1.002749205E0
2.014210789E0,2.278801054E-1,-1.443000698E1,-1.011061788E0
2.018196727E0,1.731371760E0,-1.236789036E1,-9.324745536E-1
2.020196727E0,2.214425802E0,-1.121602058E1,-7.604750991E-1
2.022196727E0,2.402112007E0,-1.017502213E1,-5.911762714E-1
2.024196727E0,2.352935314E0,-9.380434990E0,-4.881202579E-1
2.026196727E0,2.154992104E0,-8.750079155E0,-2.695296705E-1
2.028196727E0,1.905142903E0,-8.245094299E0,-1.962096244E-1
2.030196727E0,1.632663608E0,-7.934174061E0,-3.179978728E-1
2.032196727E0,1.389019966E0,-7.758094788E0,-5.154524446E-1
2.034198289E0,1.285322428E0,-7.655076504E0,-7.260081172E-1
2.038196727E0,1.195855856E0,-7.680254459E0,-1.227622151E0
2.040196727E0,1.197033763E0,-7.800797462E0,-1.510750890E0
2.042196727E0,1.184287071E0,-8.002973557E0,-1.763185859E0
2.044196727E0,1.141612768E0,-8.264899254E0,-1.970590830E0
2.046196727E0,1.111532092E0,-8.512689590E0,-2.057414055E0
2.048202977E0,1.059951425E0,-8.730246544E0,-2.086173296E0
2.052196727E0,8.951441050E-1,-9.050944328E0,-1.878979087E0
2.054196727E0,8.166239262E-1,-9.134511948E0,-1.660848141E0
2.056196727E0,7.878264189E-1,-9.179703712E0,-1.404687762E0
2.058196727E0,8.354519010E-1,-9.169734955E0,-1.222469807E0
2.060196727E0,9.597588778E-1,-9.117550850E0,-1.116809011E0
2.062196727E0,1.148422003E0,-9.100868225E0,-1.145750046E0
2.064196727E0,1.352829337E0,-9.133190155E0,-1.317816496E0
2.066202977E0,1.515884042E0,-9.222407341E0,-1.539270639E0
2.068210789E0,1.596367598E0,-9.373309135E0,-1.760025501E0
2.070221727E0,1.560655594E0,-9.555152893E0,-1.959702015E0
2.074196727E0,1.215804338E0,-9.959715843E0,-2.147369146E0
2.076196727E0,1.061742306E0,-1.008451176E1,-2.099015951E0
2.078198289E0,9.046060443E-1,-1.013016415E1,-2.048009872E0
2.082196727E0,6.450458169E-1,-1.008862019E1,-1.876019955E0
2.084196727E0,4.996411800E-1,-1.006730175E1,-1.741906285E0
2.086196727E0,4.010766745E-1,-1.002528954E1,-1.689454079E0
2.088198289E0,4.059704244E-1,-9.932221413E0,-1.627233505E0
2.092196727E0,4.410406947E-1,-9.701104164E0,-1.574312091E0
2.094196727E0,4.471411109E-1,-9.571319580E0,-1.577510715E0
2.096196727E0,4.827189445E-1,-9.438728333E0,-1.589395642E0
2.098196727E0,4.812536836E-1,-9.309575081E0,-1.569945097E0
2.100202977E0,4.760343432E-1,-9.161259651E0,-1.507944822E0
2.104213914E0,5.296644568E-1,-8.963039398E0,-1.408547163E0
2.108196727E0,3.779007792E-1,-8.761734009E0,-1.447677970E0
2.110196727E0,2.065812945E-1,-8.736892700E0,-1.453222990E0
2.112196727E0,-9.317275137E-2,-8.847991943E0,-1.474062085E0
2.114196727E0,-6.970478892E-1,-9.323451996E0,-1.573153377E0
2.116196727E0,-1.359389424E0,-9.900608063E0,-1.659478664E0
2.118198289E0,-1.918330193E0,-1.047236252E1,-1.685594559E0
2.122196727E0,-2.634387970E0,-1.161164856E1,-1.471256137E0
2.124196727E0,-2.758197069E0,-1.215242195E1,-1.320134044E0
2.126196727E0,-2.714373589E0,-1.259000587E1,-1.175601006E0
2.128196727E0,-2.562293768E0,-1.293106461E1,-1.029573679E0
2.130196727E0,-2.309140444E0,-1.318540573E1,-8.850023150E-1
2.132196727E0,-1.931469560E0,-1.320781422E1,-6.695050001E-1
2.134196727E0,-1.535736680E0,-1.288981724E1,-3.441138268E-1
2.136196727E0,-1.229508758E0,-1.230638885E1,-3.268564120E-2
2.138196727E0,-9.524230361E-1,-1.158179760E1,1.233205423E-1
2.140196727E0,-7.437252402E-1,-1.086852646E1,9.575849026E-2
2.142204539E0,-5.689772367E-1,-1.021121311E1,-6.518932432E-2
2.146196727E0,-4.589684606E-1,-9.421796799E0,-6.236224771E-1
2.148196727E0,-7.831434011E-1,-9.431928635E0,-1.021519661E0
2.150196727E0,-1.006780982E0,-9.590635300E0,-1.240483761E0
2.152196727E0,-1.002787471E0,-9.614855766E0,-1.138912201E0
2.154196727E0,-9.409212470E-1,-9.548420906E0,-1.061972022E0
2.156196727E0,-8.364670277E-1,-9.465534210E0,-1.039160132E0
2.158226414E0,-7.653496861E-1,-9.403150558E0,-1.063293695E0
2.160229539E0,-7.321181893E-1,-9.315494537E0,-1.149149776E0
2.164227977E0,-8.248216510E-1,-9.166891098E0,-1.281309724E0
2.168198289E0,-8.424716592E-1,-8.985362053E0,-1.184833050E0
2.172196727E0,-7.977288961E-1,-8.770362854E0,-1.018005013E0
2.174196727E0,-7.976235151E-1,-8.644016266E0,-9.846106768E-1
2.176196727E0,-8.427302837E-1,-8.555507660E0,-9.522315264E-1
2.178196727E0,-9.247939587E-1,-8.475435257E0,-9.179081917E-1
2.180196727E0,-1.024852395E0,-8.410686493E0,-8.872911334E-1
2.182196727E0,-1.104655862E0,-8.331275940E0,-8.458235264E-1
2.184196727E0,-1.332967043E0,-8.419536591E0,-8.624968529E-1
2.186196727E0,-1.867965698E0,-8.939383507E0,-1.088672280E0
2.188198289E0,-2.423640966E0,-9.637782097E0,-1.323045373E0
2.190217039E0,-2.773854971E0,-1.022525215E1,-1.315537214E0
2.192217039E0,-2.883049726E0,-1.052234364E1,-1.016099215E0
2.196196727E0,-2.395283937E0,-1.101445770E1,-8.497022390E-1
2.198196727E0,-2.356200933E0,-1.111963940E1,-9.103617072E-1
2.200210789E0,-2.228513479E0,-1.134907150E1,-9.455851316E-1
2.204196727E0,-2.109033108E0,-1.153192234E1,-8.003433347E-1
2.206196727E0,-2.037839174E0,-1.162615681E1,-6.816100478E-1
2.208207664E0,-1.729571342E0,-1.165612316E1,-6.174550056E-1
2.212196727E0,-5.617084503E-1,-1.122879696E1,-8.802905083E-1
2.214246727E0,-3.720589280E-1,-1.106425667E1,-1.092081547E0
2.218196727E0,9.788454324E-2,-1.077927017E1,-1.226262212E0
2.220196727E0,5.269925594E-1,-1.053080940E1,-1.344890118E0
2.222231102E0,8.642397523E-1,-1.033476257E1,-1.606423140E0
2.226196727E0,9.695463181E-1,-1.012235928E1,-2.210690975E0
2.228196727E0,6.678386331E-1,-1.009527683E1,-2.461229801E0
2.230196727E0,3.224127889E-1,-1.004276657E1,-2.622120142E0
2.232196727E0,3.348051757E-2,-9.972692490E0,-2.691523075E0
2.234215477E0,-1.850143224E-1,-9.916428566E0,-2.685575962E0
2.238198289E0,-4.249516726E-1,-9.935256958E0,-2.183081150E0
2.242196727E0,-4.947474003E-1,-9.703459740E0,-1.129306674E0
2.244196727E0,-4.056160748E-1,-9.614261627E0,-7.470196486E-1
2.246202977E0,-2.857336104E-1,-9.506092072E0,-5.865506530E-1
2.250196727E0,1.011789590E-1,-9.243380547E0,-6.574860811E-1
2.252196727E0,2.727091312E-1,-9.177463531E0,-7.925573587E-1
2.254196727E0,3.971884847E-1,-9.212725639E0,-9.245736599E-1
2.256196727E0,4.857643843E-1,-9.326948166E0,-1.005095482E0
2.258196727E0,6.149076223E-1,-9.476613998E0,-1.013886929E0
2.260196727E0,8.119312525E-1,-9.636106491E0,-9.268242121E-1
2.262196727E0,1.068235397E0,-9.804198265E0,-7.586267591E-1
2.264196727E0,1.343798399E0,-9.959284782E0,-5.866081715E-1
2.266196727E0,1.696684599E0,-1.005823231E1,-3.878223598E-1
2.268196727E0,2.035952568E0,-1.012032890E1,-1.916797906E-1
2.270196727E0,2.286750078E0,-1.020120525E1,-1.707544737E-2
2.272196727E0,2.380794287E0,-1.029689693E1,8.135497570E-2
2.274196727E0,2.277651787E0,-1.039733791E1,5.576574802E-2
2.276196727E0,2.025657415E0,-1.044542313E1,-4.699338973E-2
2.278196727E0,1.752124667E0,-1.045771027E1,-3.904464096E-2
2.280196727E0,1.392036796E0,-1.047662449E1,-7.710287720E-2
2.282196727E0,1.045902252E0,-1.050233746E1,-2.041104883E-1
2.284196727E0,7.170155048E-1,-1.052731419E1,-3.699999452E-1
2.286196727E0,4.844427705E-1,-1.051061249E1,-5.233246088E-1
2.288196727E0,4.388093054E-1,-1.048260021E1,-6.291579008E-1
2.290196727E0,4.246739149E-1,-1.044025230E1,-7.448744774E-1
2.292196727E0,4.144554734E-1,-1.038137341E1,-8.684918880E-1
2.294196727E0,4.181329608E-1,-1.031670094E1,-9.452787042E-1
2.296196727E0,4.107300937E-1,-1.023707962E1,-9.997994900E-1
2.298196727E0,4.232373834E-1,-1.013730812E1,-1.079564691E0
2.300196727E0,4.801140428E-1,-1.006896877E1,-1.145788312E0
2.302196727E0,5.272606611E-1,-1.004735374E1,-1.141153216E0
2.304196727E0,5.168507099E-1,-1.009494972E1,-1.078788996E0
2.306196727E0,4.803534746E-1,-1.022346210E1,-9.411606789E-1
2.308198289E0,4.423526824E-1,-1.038986778E1,-7.678109407E-1
2.312196727E0,4.459152818E-1,-1.066299915E1,-5.605879426E-1
2.314202977E0,4.537012279E-1,-1.074522591E1,-5.113823414E-1
2.316206102E0,5.221466422E-1,-1.075617218E1,-5.057128668E-1
2.320196727E0,7.007924318E-1,-1.064634514E1,-5.247802734E-1
2.322196727E0,7.989737988E-1,-1.054232121E1,-5.698965788E-1
2.324196727E0,8.398668170E-1,-1.044186020E1,-5.868188739E-1
2.326196727E0,8.385547996E-1,-1.033779907E1,-6.369726062E-1
2.328196727E0,8.312572837E-1,-1.023194599E1,-7.255005240E-1
2.330196727E0,8.938416839E-1,-1.009811974E1,-8.278191686E-1
2.332196727E0,9.000378847E-1,-1.005852890E1,-8.545767665E-1
2.334198289E0,8.622573614E-1,-9.981043816E0,-9.114438295E-1
2.338196727E0,7.538670897E-1,-9.907426834E0,-1.014854193E0
2.340196727E0,6.458023787E-1,-9.969140053E0,-1.046457648E0
2.342196727E0,6.328833103E-1,-1.000313759E1,-1.130618691E0
2.344196727E0,6.956784129E-1,-1.001172733E1,-1.174691200E0
2.346196727E0,7.363032103E-1,-1.002519321E1,-1.181730151E0
2.348196727E0,7.110300064E-1,-1.005635548E1,-1.158630848E0
2.350196727E0,7.347900867E-1,-1.002914810E1,-1.118820071E0
2.352196727E0,7.280097008E-1,-1.000013065E1,-1.039907098E0
2.354196727E0,6.527168751E-1,-9.967463493E0,-9.981714487E-1
2.356196727E0,5.206717849E-1,-9.929712296E0,-9.075365067E-1
2.358198289E0,4.597058594E-1,-9.870431900E0,-7.868687510E-1
2.362196727E0,4.443829954E-1,-9.573225021E0,-5.689772367E-1
2.364196727E0,4.640824795E-1,-9.391102791E0,-5.529073477E-1
2.366198289E0,5.783912539E-1,-9.191665649E0,-5.741295815E-1
2.370196727E0,7.234032750E-1,-9.094269753E0,-8.028523922E-1
2.372196727E0,6.992313862E-1,-9.147344589E0,-9.095380902E-1
2.374196727E0,6.284012794E-1,-9.274927139E0,-9.367362261E-1
2.376196727E0,5.844150186E-1,-9.355544090E0,-1.049704194E0
2.378196727E0,5.470654964E-1,-9.396206856E0,-1.169988871E0
2.380196727E0,5.023801327E-1,-9.437445641E0,-1.233119249E0
2.382196727E0,4.418930113E-1,-9.457038879E0,-1.250750065E0
2.384196727E0,3.632674217E-1,-9.460975647E0,-1.242169261E0
2.386196727E0,3.528861701E-1,-9.462268829E0,-1.217652678E0
2.388196727E0,3.826796412E-1,-9.445843697E0,-1.179536939E0
2.390196727E0,4.638909400E-1,-9.406205177E0,-1.159569383E0
2.392196727E0,5.402851701E-1,-9.370963097E0,-1.117076993E0
2.394196727E0,6.034824848E-1,-9.316394806E0,-1.034726024E0
2.396196727E0,6.858717799E-1,-9.242202759E0,-9.464470744E-1
2.398196727E0,6.423930526E-1,-9.170749664E0,-7.033590078E-1
2.400196727E0,6.363213658E-1,-9.062809944E0,-4.910412133E-1
2.402196727E0,7.818409204E-1,-8.968861580E0,-5.030792356E-1
2.404196727E0,8.470398784E-1,-8.966754913E0,-6.273670793E-1
2.406196727E0,8.166526556E-1,-9.025795937E0,-8.044709563E-1
2.408196727E0,7.663648129E-1,-9.114285469E0,-9.554205537E-1
2.410196727E0,6.352391839E-1,-9.251952171E0,-1.099015117E0
2.412196727E0,5.126751661E-1,-9.401043892E0,-1.216943979E0
2.414196727E0,4.687655270E-1,-9.512595177E0,-1.237687349E0
2.416196727E0,4.871625900E-1,-9.593815804E0,-1.195951700E0
2.418196727E0,5.184500217E-1,-9.650365829E0,-1.099168420E0
2.420196727E0,5.209016800E-1,-9.671300888E0,-9.641641974E-1
2.422207664E0,5.521603823E-1,-9.662365913E0,-8.302325606E-1
2.426220164E0,5.757863522E-1,-9.639525414E0,-4.951783717E-1
2.430196727E0,6.441360712E-1,-9.536545753E0,-3.196929693E-1
2.432196727E0,6.624469161E-1,-9.467084885E0,-4.385124147E-1
2.434226414E0,6.466451287E-1,-9.418320656E0,-6.142851114E-1
2.438196727E0,6.301538944E-1,-9.419671059E0,-8.275510073E-1
2.440196727E0,5.899408460E-1,-9.472754478E0,-8.327991366E-1
2.442196727E0,5.662957430E-1,-9.547559738E0,-8.062139153E-1
2.444196727E0,5.685941577E-1,-9.609463692E0,-8.038388491E-1
2.446196727E0,6.062884927E-1,-9.644783020E0,-8.305389881E-1
2.448196727E0,6.450074911E-1,-9.666618347E0,-8.499894738E-1
2.450196727E0,6.410905719E-1,-9.669826508E0,-8.923668861E-1
2.452196727E0,6.129922271E-1,-9.652559280E0,-9.386898875E-1
2.454217039E0,5.561156273E-1,-9.642024040E0,-9.558227658E-1
2.458196727E0,4.536820650E-1,-9.576835632E0,-9.400880933E-1
2.460196727E0,3.833787143E-1,-9.504626274E0,-9.294578433E-1
2.462196727E0,2.728719413E-1,-9.383440971E0,-9.601227641E-1
2.464196727E0,3.136691451E-1,-9.342433929E0,-9.555546045E-1
2.466196727E0,3.321236670E-1,-9.309987068E0,-9.879146814E-1
2.468196727E0,3.345082700E-1,-9.257842064E0,-1.003084302E0
2.470196727E0,3.524264693E-1,-9.172589302E0,-1.017650604E0
2.472196727E0,3.588621020E-1,-9.020174026E0,-1.048277259E0
2.474196727E0,3.103747368E-1,-8.820239067E0,-1.131040096E0
2.476196727E0,1.781286001E-1,-8.593824387E0,-1.260575891E0
2.478198289E0,-1.242111903E-2,-8.324419022E0,-1.426685691E0
2.482196727E0,-4.851706326E-1,-7.733252525E0,-1.669352293E0
2.484196727E0,-7.442327738E-1,-7.482569695E0,-1.756568313E0
2.486196727E0,-9.807128906E-1,-7.269897461E0,-1.843889594E0
2.488196727E0,-1.165813446E0,-7.061535358E0,-1.967899799E0
2.490196727E0,-1.290321589E0,-6.777343273E0,-2.142025232E0
2.492196727E0,-1.204350471E0,-6.389578819E0,-2.385094166E0
2.494196727E0,-6.122452617E-1,-5.626469612E0,-2.767362118E0
2.496196727E0,-4.283896983E-1,-5.213508129E0,-2.862670422E0
2.498215477E0,-3.364906907E-1,-4.526975632E0,-2.875397921E0
2.500220164E0,-3.379942179E-1,-3.868302107E0,-2.578382730E0
2.504196727E0,-1.486416161E-1,-3.688593149E0,-2.372337818E0
2.506209227E0,4.172614589E-2,-3.861129045E0,-2.344383001E0
2.510207664E0,1.661671698E-1,-4.637012959E0,-2.336223602E0
2.514196727E0,1.689348817E-1,-5.009350300E0,-2.273486137E0
2.516206102E0,2.613223195E-1,-5.139240265E0,-2.264914751E0
2.520196727E0,5.557516217E-1,-4.960450649E0,-1.896677017E0
2.522196727E0,8.040782213E-1,-4.867009640E0,-1.521515131E0
2.524196727E0,1.053017855E0,-4.924528122E0,-1.216599226E0
2.526196727E0,1.258468986E0,-5.114876747E0,-9.854246974E-1
2.528209227E0,1.293108344E0,-5.295715809E0,-1.031153917E0
2.530210789E0,1.225074649E0,-5.266678810E0,-8.735197186E-1
2.534209227E0,1.107749224E0,-5.354565144E0,-6.592673659E-1
2.538202977E0,1.095912337E0,-6.399289608E0,-1.667590261E0
2.542196727E0,1.206083894E0,-7.248742580E0,-2.783259630E0
2.544235789E0,1.339143991E0,-7.402670383E0,-2.695449591E0
2.548196727E0,1.369023681E0,-7.345008850E0,-2.761644602E0
2.550196727E0,1.320948124E0,-7.299729347E0,-2.722121000E0
2.552196727E0,1.185321450E0,-6.955759048E0,-2.555073023E0
2.554196727E0,1.156887770E0,-6.450448513E0,-1.982264876E0
2.556196727E0,1.258497834E0,-6.317120075E0,-1.921117067E0
2.558196727E0,1.282621741E0,-6.705852509E0,-2.264388084E0
2.560196727E0,1.255308747E0,-7.761887074E0,-3.008975267E0
2.562196727E0,1.325018287E0,-8.433547020E0,-3.517848492E0
2.564196727E0,1.402916074E0,-8.292987823E0,-2.985014200E0
2.566196727E0,1.337065935E0,-8.577793121E0,-2.957930803E0
2.568198289E0,1.393837214E0,-8.278095245E0,-2.583516121E0
2.572196727E0,3.885051966E0,-1.276186109E0,6.610840797E0
2.574196727E0,3.142427921E0,-6.579074860E-1,4.140695095E0
2.576196727E0,1.883662105E0,-9.222943783E-1,7.349241525E-2
2.578215477E0,5.584523082E-1,-2.580796242E0,-2.990147114E0
2.582196727E0,-4.998326898E-1,-4.773559570E0,-4.542270184E0
2.584196727E0,-5.988281369E-1,-5.286090851E0,-3.350254297E0
2.586196727E0,-2.609201074E-1,-5.319724560E0,-1.722752571E0
2.588198289E0,1.734838635E-1,-5.223209381E0,-4.578671157E-1
2.592196727E0,3.130945563E-1,-5.347621918E0,5.105395988E-2
2.594196727E0,-3.651636466E-2,-6.313960075E0,-1.347150326E0
2.596196727E0,1.285782009E-1,-6.423068523E0,-1.082600594E0
2.598201414E0,5.292431116E-1,-6.037410736E0,-1.480095536E-1
2.602196727E0,6.146873236E-1,-6.157772064E0,-3.359831274E-1
2.604196727E0,5.685941577E-1,-6.561520576E0,-7.352497578E-1
2.606196727E0,5.567668676E-1,-6.968103886E0,-1.276234031E0
2.608196727E0,6.346837282E-1,-7.034307957E0,-1.079516888E0
2.610196727E0,6.666511297E-1,-6.854934692E0,-3.300646245E-1
2.612196727E0,6.124942899E-1,-6.817029953E0,2.017545998E-1
2.614196727E0,4.111801982E-1,-7.145504475E0,-3.370173872E-1
2.616196727E0,2.645114064E-1,-7.480616093E0,-9.252248406E-1
2.618198289E0,1.768548936E-1,-7.703564644E0,-1.127783895E0
2.622196727E0,8.599972352E-3,-8.083476067E0,-1.577127695E0
2.624206102E0,-1.743936390E-1,-8.429773331E0,-1.953113198E0
2.628196727E0,-5.658072829E-1,-9.193255424E0,-2.324252605E0
2.630204539E0,-7.506492734E-1,-9.884404182E0,-2.639808655E0
2.634240477E0,-8.073630929E-1,-1.187322903E1,-2.744080782E0
2.638196727E0,-5.412523746E-1,-1.369344521E1,-2.274319410E0
2.640196727E0,-4.212549925E-1,-1.433755302E1,-1.977629781E0
2.642196727E0,-3.269617558E-1,-1.485285187E1,-1.693150759E0
2.644196727E0,-2.713779509E-1,-1.524999237E1,-1.530086398E0
2.646196727E0,-2.193567604E-1,-1.547557449E1,-1.422998548E0
2.648196727E0,-2.006628215E-1,-1.556096077E1,-1.429644942E0
2.650196727E0,-2.187151164E-1,-1.555395031E1,-1.438541770E0
2.652196727E0,-2.788670361E-1,-1.533768749E1,-1.241163731E0
2.654243602E0,-3.601549566E-1,-1.506775475E1,-1.061158061E0
2.658198289E0,-4.061523676E-1,-1.392051029E1,-6.712479591E-1
2.660199852E0,-2.359342128E-1,-1.308560562E1,-6.181062460E-1
2.664196727E0,4.879382998E-2,-1.109033489E1,-5.069674253E-1
2.666196727E0,2.068111449E-1,-9.953166008E0,-6.930447817E-1
2.668196727E0,4.015076160E-1,-8.581182480E0,-9.445509315E-1
2.670196727E0,5.541139841E-1,-6.955308914E0,-1.162432909E0
2.672196727E0,6.073706746E-1,-5.265835762E0,-1.538207531E0
2.674196727E0,5.982056856E-1,-3.507668257E0,-1.810619831E0
2.676196727E0,3.643496037E-1,-2.027572870E0,-2.280448437E0
2.678196727E0,-1.694328636E-1,-1.190100193E0,-2.870456219E0
2.680196727E0,-1.037043691E0,-1.225524783E0,-3.767372131E0
2.682196727E0,-1.917899132E0,-1.834226727E0,-4.370107651E0
2.684196727E0,-2.239076614E0,-2.442746639E0,-4.664373875E0
2.686196727E0,-2.080264330E0,-2.885099173E0,-4.532185555E0
2.688196727E0,-1.478611112E0,-3.154437304E0,-4.101478100E0
2.690213914E0,-6.779612899E-1,-3.320230961E0,-3.543083191E0
2.694196727E0,2.758311629E-1,-4.233666897E0,-2.819852591E0
2.696218602E0,3.060460091E-1,-5.154438496E0,-2.600265980E0
2.700196727E0,-2.128062248E-1,-7.408665657E0,-2.293252707E0
2.702196727E0,-5.875467062E-1,-8.489245415E0,-2.142494440E0
2.704196727E0,-1.013906121E0,-9.393966675E0,-2.025762796E0
2.706196727E0,-1.479626179E0,-1.023734760E1,-1.940835714E0
2.708196727E0,-1.963274121E0,-1.095855808E1,-1.811270952E0
2.710196727E0,-2.269885302E0,-1.154716778E1,-1.715158224E0
2.712196727E0,-2.251966953E0,-1.220382977E1,-1.714497447E0
2.714199852E0,-2.067469835E0,-1.298206997E1,-1.666833639E0
2.718196727E0,-2.028875351E0,-1.489824581E1,-1.321810007E0
2.720196727E0,-2.043738365E0,-1.576847076E1,-1.036842585E0
2.722196727E0,-2.082687140E0,-1.625172615E1,-9.134549499E-1
2.724196727E0,-2.048632383E0,-1.644181633E1,-1.116416216E0
2.726196727E0,-1.854788065E0,-1.647238541E1,-1.448980451E0
2.728196727E0,-1.685709476E0,-1.642543030E1,-1.694079757E0
2.730196727E0,-1.519935012E0,-1.645500374E1,-1.957566381E0
2.732199852E0,-1.402255297E0,-1.649250603E1,-2.183205605E0
2.734199852E0,-1.393818021E0,-1.640738678E1,-2.432738781E0
2.738196727E0,-1.537259340E0,-1.676111794E1,-2.684407711E0
2.740220164E0,-1.627080321E0,-1.684181976E1,-1.846925497E0
2.744202977E0,-2.318822861E0,-1.562020302E1,-2.407073021E0
2.748196727E0,-2.529186726E0,-1.504049015E1,-1.596271753E0
2.750196727E0,-2.434740305E0,-1.478484631E1,-5.477167368E-1
2.752196727E0,-2.396528721E0,-1.453812885E1,2.799779475E-1
2.754196727E0,-2.380679131E0,-1.433781052E1,6.912634969E-1
2.756207664E0,-2.270239592E0,-1.413703346E1,6.773196459E-1
2.760196727E0,-1.828432798E0,-1.401557064E1,8.575934172E-1
2.762196727E0,-1.627281547E0,-1.370909405E1,7.993952036E-1
2.764196727E0,-1.493617892E0,-1.325005722E1,2.866338193E-1
2.766196727E0,-1.447275758E0,-1.283904076E1,-4.397286773E-1
2.768196727E0,-1.465270638E0,-1.260382557E1,-1.090721726E0
2.770196727E0,-1.506977558E0,-1.259171009E1,-1.566775203E0
2.772196727E0,-1.531235576E0,-1.275418091E1,-1.782368302E0
2.774245164E0,-1.497918010E0,-1.297390175E1,-1.840154648E0
2.778217039E0,-1.282056808E0,-1.321044827E1,-1.765331030E0
2.782201414E0,-1.094983339E0,-1.296066570E1,-1.880042076E0
2.786196727E0,-9.006699324E-1,-1.257993031E1,-2.158411026E0
2.788196727E0,-8.238351941E-1,-1.231232643E1,-2.233301640E0
2.790196727E0,-7.434570789E-1,-1.208641911E1,-2.291433096E0
2.792196727E0,-7.274063826E-1,-1.199843693E1,-2.315748453E0
2.794293602E0,-7.379025221E-1,-1.183823490E1,-2.366582394E0
2.798223289E0,-8.562335968E-1,-1.158378029E1,-2.596224308E0
2.802198289E0,-9.844861627E-1,-1.136087036E1,-2.742059946E0
2.806196727E0,-1.087025046E0,-1.118185043E1,-2.739857435E0
2.808196727E0,-1.131298542E0,-1.106001472E1,-2.682683945E0
2.810196727E0,-1.151237607E0,-1.095556068E1,-2.564879656E0
2.812196727E0,-1.136584997E0,-1.088799572E1,-2.312444687E0
2.814196727E0,-1.133175611E0,-1.092327690E1,-2.014442921E0
2.816196727E0,-1.144361377E0,-1.105253506E1,-1.856894851E0
2.818196727E0,-1.109453917E0,-1.105225754E1,-1.968694568E0
2.820196727E0,-1.063351154E0,-1.097835350E1,-2.078483105E0
2.822196727E0,-9.263262153E-1,-1.072183895E1,-2.229988337E0
2.824196727E0,-7.488775849E-1,-1.043253326E1,-2.121320009E0
2.826196727E0,-6.354785562E-1,-1.031227684E1,-2.059511423E0
2.828198289E0,-5.824709535E-1,-1.028392029E1,-1.954894423E0
2.832206102E0,-6.772047281E-1,-1.021133709E1,-1.660216093E0
2.836196727E0,-8.022586703E-1,-8.914350510E0,6.280469894E-1
2.838202977E0,-7.515686750E-1,-8.209468842E0,2.989946127E0
2.842196727E0,-6.512228251E-1,-8.669059753E0,2.556279659E0
2.844209227E0,-7.058585286E-1,-9.436238289E0,1.035779595E0
2.848199852E0,-7.167665362E-1,-1.054745388E1,-1.442085147E0
2.852196727E0,-6.134328246E-1,-1.028644848E1,-3.091383457E0
2.854209227E0,-6.077441573E-1,-9.910433769E0,-3.554680824E0
2.856220164E0,-6.288418770E-1,-9.478874207E0,-3.772227526E0
2.860202977E0,-6.906697154E-1,-9.286111832E0,-4.502325058E0
2.862212352E0,-1.031910539E0,-9.779538155E0,-4.712047577E0
2.866196727E0,-2.203718901E0,-1.010327244E1,-4.291472435E0
2.868196727E0,-2.608951807E0,-9.969149590E0,-4.045070648E0
2.870196727E0,-2.772581339E0,-9.753288269E0,-3.792712450E0
2.872196727E0,-2.764527321E0,-9.666819572E0,-3.541857481E0
2.874196727E0,-2.666633129E0,-9.678339958E0,-3.313709259E0
2.876202977E0,-2.484194994E0,-9.710920334E0,-3.035819054E0
2.878204539E0,-2.279385328E0,-9.668983459E0,-2.827762842E0
2.882223289E0,-1.799644828E0,-9.494225502E0,-2.601826906E0
2.886196727E0,-1.424626589E0,-9.415102959E0,-2.562466383E0
2.888196727E0,-1.286768436E0,-9.430425644E0,-2.591081858E0
2.890202977E0,-7.530338764E-1,-9.826799393E0,-2.619160891E0
2.894196727E0,-5.277395248E-1,-9.455306053E0,-2.874516964E0
2.896196727E0,-3.019279838E-1,-9.494522095E0,-2.875915051E0
2.898198289E0,1.078827307E-1,-9.736978531E0,-2.825368643E0
2.902196727E0,3.078943491E-1,-1.010160637E1,-2.828299284E0
2.904196727E0,2.866434157E-1,-1.038302040E1,-2.804510593E0
2.906201414E0,3.503770530E-1,-1.073034286E1,-2.717208147E0
2.910196727E0,8.132241368E-1,-1.159540653E1,-2.518575668E0
2.912196727E0,1.009385824E0,-1.200056267E1,-2.390639067E0
2.914196727E0,1.169979334E0,-1.240747166E1,-2.319761276E0
2.916196727E0,1.271579742E0,-1.276272297E1,-2.308479786E0
2.918202977E0,1.309005857E0,-1.300730610E1,-2.360979795E0
2.922209227E0,1.280495763E0,-1.321130085E1,-2.625481606E0
2.924209227E0,1.207031965E0,-1.324521160E1,-2.679858685E0
2.928196727E0,8.166430593E-1,-1.318359470E1,-2.719027758E0
2.930196727E0,4.737646505E-2,-1.346139908E1,-3.076961040E0
2.932201414E0,-1.395340711E-1,-1.319685936E1,-3.117164373E0
2.934227977E0,-3.780157268E-1,-1.302398872E1,-3.173351526E0
2.938196727E0,-7.889947891E-1,-1.300963306E1,-3.183177233E0
2.940201414E0,-8.746402264E-1,-1.297450447E1,-3.176933289E0
2.944209227E0,-8.832593560E-1,-1.291733074E1,-3.114913702E0
2.948201414E0,-7.899525166E-1,-1.286306953E1,-3.062825680E0
2.952196727E0,-6.923839450E-1,-1.284966087E1,-3.073015451E0
2.954196727E0,-6.456874609E-1,-1.284424973E1,-3.113687992E0
2.956199852E0,-5.797224045E-1,-1.285896015E1,-3.190110922E0
2.960196727E0,-4.442393482E-1,-1.282576752E1,-3.351384163E0
2.962196727E0,-3.902931809E-1,-1.283851337E1,-3.447995186E0
2.964196727E0,-3.368641734E-1,-1.288547897E1,-3.562351704E0
2.966198289E0,-2.880224586E-1,-1.295506382E1,-3.686649084E0
2.968204539E0,-2.402054816E-1,-1.299504662E1,-3.796935797E0
2.972196727E0,-1.005277410E-1,-1.297963810E1,-3.929794788E0
2.974218602E0,2.671929076E-3,-1.297603703E1,-3.985359430E0
2.978196727E0,2.491789460E-1,-1.305989170E1,-4.092418671E0
2.980196727E0,3.836468756E-1,-1.311471844E1,-4.134316921E0
2.982220164E0,5.107119679E-1,-1.316853046E1,-4.192888737E0
2.986196727E0,6.821367741E-1,-1.320333290E1,-4.226781368E0
2.988199852E0,7.336887121E-1,-1.320432949E1,-4.225880623E0
2.992196727E0,8.047869802E-1,-1.309506702E1,-4.253691673E0
2.994196727E0,8.132337332E-1,-1.301110744E1,-4.281234741E0
2.996196727E0,8.129559755E-1,-1.289819622E1,-4.296912193E0
2.998202977E0,7.964072227E-1,-1.275661373E1,-4.317291737E0
3.002196727E0,7.319936752E-1,-1.246698189E1,-4.358577251E0
3.004196727E0,7.184424400E-1,-1.227893162E1,-4.378477573E0
3.006196727E0,6.392805576E-1,-1.211949730E1,-4.382490158E0
3.008206102E0,5.375748873E-1,-1.196429539E1,-4.373861790E0
3.010220164E0,4.891641140E-1,-1.173676014E1,-4.365520477E0
3.014196727E0,5.942791700E-1,-1.105191326E1,-4.376370907E0
3.016198289E0,6.604070663E-1,-1.066250134E1,-4.399182796E0
3.020196727E0,7.806342840E-1,-9.941999435E0,-4.503579617E0
3.022196727E0,8.169686198E-1,-9.590598106E0,-4.578901291E0
3.024199852E0,8.144882917E-1,-9.300678253E0,-4.641313076E0
3.028198289E0,6.930256486E-1,-8.967473030E0,-4.737771034E0
3.032196727E0,5.078963637E-1,-8.797101974E0,-4.720705032E0
3.034229539E0,4.125305116E-1,-8.771904945E0,-4.641437531E0
3.038196727E0,2.084487826E-1,-8.762538910E0,-4.445055485E0
3.040196727E0,1.349372119E-1,-8.743031502E0,-4.331991673E0
3.042196727E0,9.324936569E-2,-8.731174469E0,-4.225114822E0
3.044196727E0,4.647624120E-2,-8.713916779E0,-4.133972168E0
3.046196727E0,1.224873587E-2,-8.695587158E0,-4.072192192E0
3.048198289E0,1.340752933E-4,-8.659789085E0,-4.025208473E0
3.052196727E0,5.918466486E-3,-8.539533615E0,-3.987169504E0
3.054196727E0,3.646847978E-2,-8.479879379E0,-4.003555298E0
3.056196727E0,7.778282464E-2,-8.425674438E0,-4.063506126E0
3.058196727E0,1.191737801E-1,-8.381812096E0,-4.158651829E0
3.060196727E0,1.493215859E-1,-8.378211975E0,-4.293799877E0
3.062196727E0,1.684560180E-1,-8.385375023E0,-4.443934917E0
3.064196727E0,1.877724528E-1,-8.386438370E0,-4.629342079E0
3.066207664E0,1.964107305E-1,-8.401513100E0,-4.808936119E0
3.070201414E0,1.105642319E-1,-8.483547211E0,-5.176063061E0
3.074196727E0,-4.189852998E-2,-8.619643211E0,-5.482003212E0
3.076196727E0,-1.657074839E-1,-8.693710327E0,-5.584044456E0
3.078204539E0,-2.176233530E-1,-8.757769585E0,-5.682934761E0
3.082201414E0,-4.365108609E-1,-8.842687607E0,-5.721960068E0
3.086196727E0,-6.442126632E-1,-8.896317482E0,-5.565149307E0
3.088196727E0,-6.794361472E-1,-8.906076431E0,-5.485681057E0
3.090196727E0,-7.519133687E-1,-8.936558723E0,-5.301241398E0
3.092196727E0,-8.844659925E-1,-8.995820045E0,-4.995568752E0
3.094196727E0,-9.258760810E-1,-9.019963264E0,-4.868915558E0
3.096201414E0,-9.818333983E-1,-9.100140572E0,-4.414227962E0
3.100202977E0,-9.375214577E-1,-9.176035881E0,-3.880838156E0
3.104196727E0,-7.417141199E-1,-9.262543678E0,-3.014577627E0
3.106196727E0,-6.100330353E-1,-9.295440674E0,-2.575519323E0
3.108202977E0,-4.493150413E-1,-9.284245491E0,-2.141833782E0
3.112198289E0,-5.416642129E-2,-9.272130013E0,-1.274567604E0
3.116212352E0,4.029058516E-1,-9.271958351E0,-5.802874565E-1
3.120196727E0,8.406329155E-1,-9.306894302E0,-1.471189111E-1
3.122206102E0,1.050661922E0,-9.345986366E0,-1.986229792E-2
3.124218602E0,1.377997160E0,-9.381995201E0,6.994900107E-2
3.128196727E0,1.796158791E0,-9.376507759E0,4.025131837E-2
3.130196727E0,1.879371762E0,-9.383662224E0,-1.618480310E-3
3.132204539E0,2.018101215E0,-9.413436890E0,-1.454525441E-1
3.134234227E0,2.115918875E0,-9.461779594E0,-3.358011544E-1
3.138196727E0,2.220047474E0,-9.561885834E0,-8.539255261E-1
3.140196727E0,2.309945107E0,-9.573570251E0,-1.115832090E0
3.142196727E0,2.353940964E0,-9.596985817E0,-1.319502115E0
3.144196727E0,2.436090469E0,-9.608343124E0,-1.441472173E0
3.146196727E0,2.496759653E0,-9.624939919E0,-1.495542884E0
3.148196727E0,2.465836287E0,-9.647445679E0,-1.573881149E0
3.150196727E0,2.444805622E0,-9.658411026E0,-1.666508079E0
3.152196727E0,2.474168062E0,-9.622747421E0,-1.749625087E0
3.154196727E0,2.421821356E0,-9.670353889E0,-1.859011531E0
3.156196727E0,2.328428268E0,-9.727430344E0,-1.951561689E0
3.158196727E0,2.243721485E0,-9.769223213E0,-2.031077862E0
3.160196727E0,2.174557686E0,-9.809638023E0,-2.105001211E0
3.162196727E0,2.135781288E0,-9.854754448E0,-2.170468330E0
3.164196727E0,2.133932829E0,-9.899267197E0,-2.201765299E0
3.166196727E0,2.097952604E0,-9.941482544E0,-2.261141539E0
3.168196727E0,2.054320812E0,-9.972319603E0,-2.325497866E0
3.170196727E0,2.040731430E0,-1.000390339E1,-2.351872206E0
3.172196727E0,2.037034750E0,-1.005275536E1,-2.356153011E0
3.174198289E0,2.034477711E0,-1.008826542E1,-2.351881742E0
3.178198289E0,2.156084061E0,-1.001107693E1,-2.277383804E0
3.182196727E0,2.039984465E0,-1.007993317E1,-2.152119160E0
3.184196727E0,1.954348564E0,-1.008597660E1,-2.091986418E0
3.186196727E0,1.867774129E0,-1.006917000E1,-2.037015438E0
3.188196727E0,1.771757245E0,-1.004963303E1,-1.984247327E0
3.190196727E0,1.644184470E0,-1.002350807E1,-1.935472608E0
3.192209227E0,1.504535556E0,-9.983648300E0,-1.887282133E0
3.196196727E0,1.234316230E0,-9.867893219E0,-1.758148551E0
3.198196727E0,1.144706130E0,-9.802330971E0,-1.653205752E0
3.200196727E0,1.078233480E0,-9.737236977E0,-1.549106002E0
3.202196727E0,1.027035832E0,-9.701515198E0,-1.429175615E0
3.204196727E0,9.674298763E-1,-9.654034615E0,-1.314579606E0
3.206217039E0,9.230030775E-1,-9.599571228E0,-1.219424486E0
3.210209227E0,9.431526661E-1,-9.501246452E0,-1.024450183E0
3.214198289E0,1.008121729E0,-9.407422066E0,-8.739601970E-1
3.218196727E0,1.142206550E0,-9.317466736E0,-7.855854630E-1
3.220196727E0,1.205911517E0,-9.254125595E0,-7.696688175E-1
3.222196727E0,1.265881419E0,-9.221899986E0,-7.971733809E-1
3.224196727E0,1.304753780E0,-9.220232964E0,-8.442721367E-1
3.226196727E0,1.325343847E0,-9.203857422E0,-9.031695127E-1
3.228196727E0,1.354620099E0,-9.185401917E0,-9.741336107E-1
3.230196727E0,1.399458766E0,-9.162331581E0,-1.079488039E0
3.232196727E0,1.435917735E0,-9.145821571E0,-1.201228380E0
3.234196727E0,1.470863461E0,-9.146406174E0,-1.327632666E0
3.236196727E0,1.502945781E0,-9.152602196E0,-1.441309452E0
3.238196727E0,1.537019968E0,-9.178709030E0,-1.559822440E0
3.240196727E0,1.552888751E0,-9.202238083E0,-1.685000896E0
3.242196727E0,1.552515268E0,-9.219773293E0,-1.806607127E0
3.244196727E0,1.557993293E0,-9.247766495E0,-1.917113900E0
3.246196727E0,1.537690401E0,-9.284388542E0,-2.022305489E0
3.248196727E0,1.521572590E0,-9.316681862E0,-2.115622044E0
3.250196727E0,1.480555177E0,-9.345469475E0,-2.211026192E0
3.252196727E0,1.467195511E0,-9.376575470E0,-2.292093754E0
3.254196727E0,1.451125622E0,-9.409768105E0,-2.359055042E0
3.256196727E0,1.428409457E0,-9.443602562E0,-2.421217680E0
3.258196727E0,1.394976854E0,-9.465169907E0,-2.479818344E0
3.260196727E0,1.357646465E0,-9.493450165E0,-2.529186726E0
3.262237352E0,1.320536256E0,-9.524066925E0,-2.580288649E0
3.266196727E0,1.262778521E0,-9.566722870E0,-2.617762804E0
3.268206102E0,1.250127673E0,-9.570199013E0,-2.620932579E0
3.272196727E0,1.236308336E0,-9.607395172E0,-2.583353281E0
3.274196727E0,1.230313182E0,-9.611914635E0,-2.537327051E0
3.276196727E0,1.242734432E0,-9.591411591E0,-2.483055353E0
3.278196727E0,1.265335560E0,-9.565343857E0,-2.431474686E0
3.280196727E0,1.281731129E0,-9.556455612E0,-2.389461279E0
3.282196727E0,1.287898540E0,-9.532294273E0,-2.344296932E0
3.284196727E0,1.285312891E0,-9.503975868E0,-2.304026365E0
3.286196727E0,1.287046313E0,-9.462660789E0,-2.264713526E0
3.288196727E0,1.279279470E0,-9.416116714E0,-2.226205349E0
3.290196727E0,1.299237490E0,-9.365342140E0,-2.200845957E0
3.292196727E0,1.309800625E0,-9.329409599E0,-2.173552036E0
3.294196727E0,1.301746607E0,-9.281199455E0,-2.149418354E0
3.296196727E0,1.293309450E0,-9.216862679E0,-2.122593880E0
3.298196727E0,1.269760132E0,-9.149154663E0,-2.112088203E0
3.300196727E0,1.260566354E0,-9.082318306E0,-2.107797623E0
3.302196727E0,1.270880580E0,-9.020259857E0,-2.118897200E0
3.304196727E0,1.289880991E0,-8.974071503E0,-2.121636152E0
3.306196727E0,1.275534868E0,-8.924271584E0,-2.118772745E0
3.308209227E0,1.268074632E0,-8.876770973E0,-2.105882406E0
3.310243602E0,1.269807935E0,-8.835399628E0,-2.074250221E0
3.314196727E0,1.279940128E0,-8.751659393E0,-2.066722870E0
3.316196727E0,1.291422844E0,-8.705939293E0,-2.074077845E0
3.318196727E0,1.304629326E0,-8.674116135E0,-2.083367109E0
3.320202977E0,1.315384030E0,-8.653285980E0,-2.087791681E0
3.324196727E0,1.300137639E0,-8.620677948E0,-2.102070808E0
3.326196727E0,1.277220488E0,-8.613417625E0,-2.107979774E0
3.328196727E0,1.268668294E0,-8.606561661E0,-2.120123148E0
3.330196727E0,1.263391495E0,-8.613542557E0,-2.142504215E0
3.332196727E0,1.275391221E0,-8.633606911E0,-2.166359901E0
3.334242039E0,1.289076567E0,-8.622909546E0,-2.204006433E0
3.338196727E0,1.304351568E0,-8.602529526E0,-2.226157427E0
3.340196727E0,1.331702828E0,-8.598210335E0,-2.241279364E0
3.342196727E0,1.327584863E0,-8.604043007E0,-2.271848440E0
3.344196727E0,1.320172310E0,-8.592339516E0,-2.281166792E0
3.346196727E0,1.337688327E0,-8.570868492E0,-2.295541525E0
3.348196727E0,1.364139557E0,-8.551082611E0,-2.313239336E0
3.350196727E0,1.368880033E0,-8.531469345E0,-2.311879396E0
3.352196727E0,1.375267863E0,-8.512047768E0,-2.311237812E0
3.354196727E0,1.372969389E0,-8.496552467E0,-2.327451468E0
3.356196727E0,1.367079616E0,-8.470637321E0,-2.331588507E0
3.358196727E0,1.383341074E0,-8.452863693E0,-2.322950125E0
3.360196727E0,1.391682386E0,-8.437693596E0,-2.285083532E0
3.362196727E0,1.412061930E0,-8.417515755E0,-2.265604258E0
3.364196727E0,1.476877689E0,-8.398370743E0,-2.249879122E0
3.366196727E0,1.532806277E0,-8.404107094E0,-2.255462408E0
3.368196727E0,1.577060699E0,-8.395603180E0,-2.281683922E0
3.370196727E0,1.621860981E0,-8.392347336E0,-2.298759222E0
3.372196727E0,1.657955885E0,-8.395603180E0,-2.307043314E0
3.374196727E0,1.672867060E0,-8.415292740E0,-2.338301659E0
3.376196727E0,1.678335428E0,-8.428920746E0,-2.387814045E0
3.378196727E0,1.694989443E0,-8.442721367E0,-2.439777851E0
3.380196727E0,1.713089585E0,-8.468492508E0,-2.473296642E0
3.382196727E0,1.711566925E0,-8.492253304E0,-2.508692265E0
3.384201414E0,1.703302145E0,-8.509327888E0,-2.529905081E0
3.386206102E0,1.717743874E0,-8.509261131E0,-2.533247232E0
3.390196727E0,1.782540679E0,-8.532589912E0,-2.520107985E0
3.392196727E0,1.802077293E0,-8.529151917E0,-2.506269455E0
3.394196727E0,1.837396622E0,-8.519258499E0,-2.487882137E0
3.396196727E0,1.858906150E0,-8.498774529E0,-2.483994007E0
3.398196727E0,1.853504777E0,-8.493392944E0,-2.483649254E0
3.400196727E0,1.850334883E0,-8.496801376E0,-2.472290993E0
3.402196727E0,1.875531316E0,-8.479534149E0,-2.473832846E0
3.404202977E0,1.898707271E0,-8.451560974E0,-2.492153406E0
3.408196727E0,1.892472744E0,-8.417007446E0,-2.510847092E0
3.410196727E0,1.873759747E0,-8.380624771E0,-2.526409388E0
3.412196727E0,1.837837100E0,-8.363453865E0,-2.559976339E0
3.414196727E0,1.795067191E0,-8.328929901E0,-2.595975399E0
3.416196727E0,1.764210582E0,-8.273355484E0,-2.643734932E0
3.418196727E0,1.748744011E0,-8.227560043E0,-2.710217237E0
3.420196727E0,1.756597042E0,-8.190908432E0,-2.764757156E0
3.422196727E0,1.775377154E0,-8.158002853E0,-2.816337585E0
3.424196727E0,1.794329762E0,-8.107072830E0,-2.849052191E0
3.426196727E0,1.811299801E0,-8.065423965E0,-2.885989904E0
3.428196727E0,1.840930462E0,-8.017999649E0,-2.919087410E0
3.430196727E0,1.875742078E0,-7.957225323E0,-2.938566685E0
3.432215477E0,1.901637793E0,-7.902091503E0,-2.931853294E0
3.434231102E0,1.913522601E0,-7.839286804E0,-2.911062002E0
3.438196727E0,1.939226866E0,-7.786834240E0,-2.868272781E0
3.440242039E0,1.932963490E0,-7.749532700E0,-2.846859217E0
3.444196727E0,1.967258096E0,-7.684755325E0,-2.770790577E0
3.446196727E0,1.976480603E0,-7.656877518E0,-2.731027603E0
3.448204539E0,1.978233099E0,-7.628319263E0,-2.682099581E0
3.452196727E0,1.920369983E0,-7.581354618E0,-2.586494446E0
3.454196727E0,1.911319971E0,-7.545968056E0,-2.556174278E0
3.456196727E0,1.893937945E0,-7.501235008E0,-2.529043198E0
3.458196727E0,1.833383918E0,-7.484504223E0,-2.494059086E0
3.460209227E0,1.766231298E0,-7.480252266E0,-2.443924665E0
3.464196727E0,1.684905052E0,-7.430998325E0,-2.362511873E0
3.466196727E0,1.606490254E0,-7.404317856E0,-2.360443354E0
3.468196727E0,1.539873958E0,-7.368893147E0,-2.379012823E0
3.470196727E0,1.469388723E0,-7.350112915E0,-2.390792131E0
3.472196727E0,1.399401426E0,-7.323920250E0,-2.415088654E0
3.474231102E0,1.292122006E0,-7.297383308E0,-2.459994316E0
3.478196727E0,1.132371187E0,-7.277789116E0,-2.591024160E0
3.480196727E0,1.042540789E0,-7.280949116E0,-2.668510199E0
3.482196727E0,9.914293289E-1,-7.292221069E0,-2.753619194E0
3.484196727E0,9.500096440E-1,-7.313481808E0,-2.852020979E0
3.486196727E0,9.127462506E-1,-7.366766930E0,-2.964261293E0
3.488202977E0,8.900588155E-1,-7.439934254E0,-3.062940359E0
3.492196727E0,8.801564574E-1,-7.615869522E0,-3.244756222E0
3.494196727E0,8.826272488E-1,-7.734870434E0,-3.352255821E0
3.496196727E0,9.039260745E-1,-7.868400574E0,-3.468183041E0
3.498196727E0,9.493775368E-1,-8.006162643E0,-3.593466759E0
3.500196727E0,9.954803586E-1,-8.160205841E0,-3.701464653E0
3.502196727E0,1.049206138E0,-8.345890999E0,-3.790883303E0
3.504196727E0,1.108908057E0,-8.561224937E0,-3.884841204E0
3.506196727E0,1.140061378E0,-8.789909363E0,-4.003689289E0
3.508202977E0,1.181921601E0,-9.011392593E0,-4.126435757E0
3.512196727E0,1.266695499E0,-9.477313042E0,-4.355579376E0
3.514196727E0,1.327498674E0,-9.724011421E0,-4.485699654E0
3.516243602E0,1.410845637E0,-9.960989952E0,-4.618232727E0
3.520196727E0,1.551567316E0,-1.044716644E1,-4.875063896E0
3.522196727E0,1.615578651E0,-1.069248581E1,-4.988137245E0
3.524196727E0,1.680212379E0,-1.092558479E1,-5.082679749E0
3.526196727E0,1.747958779E0,-1.116725540E1,-5.176570415E0
3.528196727E0,1.807670116E0,-1.139274216E1,-5.266468048E0
3.530196727E0,1.851330757E0,-1.160349941E1,-5.360387802E0
3.532196727E0,1.897912502E0,-1.180463123E1,-5.449605465E0
3.534199852E0,1.959280610E0,-1.197941685E1,-5.527512550E0
3.536202977E0,2.006120682E0,-1.213384247E1,-5.602240086E0
3.538209227E0,2.033539295E0,-1.225056553E1,-5.655017853E0
3.542196727E0,2.064654350E0,-1.240420628E1,-5.710496426E0
3.544234227E0,2.080637932E0,-1.243706322E1,-5.711980820E0
3.548198289E0,2.152818441E0,-1.240327644E1,-5.670024872E0
3.552196727E0,2.225132704E0,-1.221894264E1,-5.596522808E0
3.554196727E0,2.183684349E0,-1.207206249E1,-5.528958321E0
3.556196727E0,2.151094437E0,-1.191129684E1,-5.433573723E0
3.558202977E0,2.151975632E0,-1.174506283E1,-5.321323872E0
3.560206102E0,2.148460865E0,-1.155812359E1,-5.209763527E0
3.564196727E0,2.159081459E0,-1.109717274E1,-4.975505352E0
3.566196727E0,2.175735712E0,-1.088240337E1,-4.839371204E0
3.568198289E0,2.220593214E0,-1.068136692E1,-4.676680088E0
3.570243602E0,2.236395121E0,-1.050619698E1,-4.526583195E0
3.574206102E0,2.184115171E0,-1.011879730E1,-4.245427132E0
3.578198289E0,2.161169291E0,-9.694534302E0,-3.974729300E0
3.582196727E0,2.132908106E0,-9.323117256E0,-3.695804596E0
3.584196727E0,2.085838079E0,-9.161728859E0,-3.568174601E0
3.586196727E0,2.008620262E0,-9.003941536E0,-3.460176945E0
3.588198289E0,1.940567493E0,-8.870900154E0,-3.345312834E0
3.592196727E0,1.786428809E0,-8.640042305E0,-3.039917946E0
3.594196727E0,1.697843432E0,-8.562431335E0,-2.866089344E0
3.596196727E0,1.595821619E0,-8.490816116E0,-2.672657013E0
3.598196727E0,1.481043577E0,-8.414546013E0,-2.488677025E0
3.600196727E0,1.377614141E0,-8.347996712E0,-2.321887255E0
3.602196727E0,1.278503656E0,-8.309019089E0,-2.181749821E0
3.604196727E0,1.166905165E0,-8.287625313E0,-2.065382004E0
3.606196727E0,1.042943001E0,-8.299930573E0,-1.957393885E0
3.608198289E0,9.362478256E-1,-8.334809303E0,-1.845460176E0
3.612196727E0,6.537798643E-1,-8.469985962E0,-1.670453787E0
3.614196727E0,5.170518160E-1,-8.562852859E0,-1.617034316E0
3.616196727E0,3.743956983E-1,-8.710804939E0,-1.598742604E0
3.618201414E0,2.169242501E-1,-8.887525558E0,-1.631054640E0
3.622196727E0,-2.068781704E-1,-9.314344406E0,-1.817352295E0
3.624196727E0,-4.967010915E-1,-9.573196411E0,-1.962776065E0
3.626196727E0,-7.834977508E-1,-9.848471642E0,-2.143203020E0
3.628206102E0,-1.098411918E0,-1.016877842E1,-2.374559641E0
3.632196727E0,-1.719678521E0,-1.091896820E1,-2.979382753E0
3.634209227E0,-2.017737389E0,-1.132871056E1,-3.336473465E0
3.638198289E0,-2.604881763E0,-1.220449162E1,-4.059474468E0
3.642196727E0,-3.016292095E0,-1.306052303E1,-4.751570702E0
3.644196727E0,-3.135235786E0,-1.347417450E1,-5.070631981E0
3.646235789E0,-3.196479559E0,-1.385318661E1,-5.359334469E0
3.650196727E0,-3.136289358E0,-1.447210598E1,-5.830130577E0
3.652196727E0,-3.047751665E0,-1.470694923E1,-6.028073311E0
3.654202977E0,-2.944025278E0,-1.491367340E1,-6.225499153E0
3.658196727E0,-2.441089869E0,-1.521267223E1,-6.391771317E0
3.660196727E0,-1.811960578E0,-1.529926491E1,-6.415636539E0
3.662196727E0,-1.174030304E0,-1.537565899E1,-6.416115761E0
3.664196727E0,-7.175326347E-1,-1.535616970E1,-6.465350151E0
3.666196727E0,-2.584013939E-1,-1.529624844E1,-6.519526482E0
3.668198289E0,2.020802051E-1,-1.521281528E1,-6.573855400E0
3.672201414E0,1.105163455E0,-1.487230206E1,-6.684266567E0
3.676196727E0,1.790058494E0,-1.435513592E1,-6.815631390E0
3.678198289E0,2.004291534E0,-1.402382660E1,-6.963956833E0
3.682196727E0,2.285495281E0,-1.335478020E1,-7.064676285E0
3.684207664E0,2.512743473E0,-1.252304363E1,-6.865947723E0
3.688196727E0,2.644932032E0,-1.154214001E1,-6.211966991E0
3.690196727E0,2.687098980E0,-1.082177258E1,-5.491475105E0
3.692196727E0,2.618002176E0,-1.005210304E1,-4.412858486E0
3.694196727E0,2.422893763E0,-9.246799469E0,-2.987791300E0
3.696196727E0,2.033634901E0,-8.415886879E0,-1.322853923E0
3.698198289E0,1.276722431E0,-7.150896549E0,1.531772017E0
3.702196727E0,3.718769848E-1,-5.887858868E0,4.410511971E0
3.704196727E0,-3.025887609E-1,-5.077641964E0,6.145714760E0
3.706196727E0,-1.018426418E0,-4.328208923E0,7.581115246E0
3.708209227E0,-2.162854671E0,-3.299411058E0,9.233458519E0
3.710210789E0,-2.999532461E0,-2.720952988E0,1.009397316E1
3.714196727E0,-4.324646473E0,-2.016751051E0,1.104937458E1
3.716196727E0,-5.200464725E0,-1.682530046E0,1.148102093E1
3.718196727E0,-6.078590870E0,-1.483217478E0,1.168175125E1
3.720196727E0,-6.917202950E0,-1.421389699E0,1.159022427E1
3.722196727E0,-7.664969921E0,-1.469139695E0,1.121551323E1
3.724196727E0,-8.274456978E0,-1.611786127E0,1.057052517E1
3.726196727E0,-8.693173409E0,-1.833766937E0,9.715412140E0
3.728196727E0,-8.946767807E0,-2.130571365E0,8.691077232E0
3.730196727E0,-8.993062973E0,-2.470040560E0,7.543756008E0
3.732196727E0,-8.809627533E0,-2.836133003E0,6.325289726E0
3.734198289E0,-8.405658722E0,-3.204476118E0,4.995090008E0
3.736209227E0,-7.794361591E0,-3.571430683E0,3.659431934E0
3.740196727E0,-6.161621571E0,-4.374197006E0,1.191201568E0
3.742196727E0,-5.190849781E0,-4.833692074E0,1.013800725E-1
3.744196727E0,-4.243521690E0,-5.355110645E0,-9.421470761E-1
3.746196727E0,-3.277135611E0,-5.915133953E0,-1.812123418E0
3.748196727E0,-2.329941511E0,-6.510658264E0,-2.421543360E0
3.750196727E0,-1.426015258E0,-7.126465797E0,-2.746226072E0
3.752196727E0,-6.116898060E-1,-7.759626865E0,-2.939801931E0
3.754209227E0,1.129775941E-1,-8.418099403E0,-2.986019611E0
3.758196727E0,1.236633897E0,-9.733856201E0,-2.686083555E0
3.760196727E0,1.701664567E0,-1.039321995E1,-2.433236837E0
3.762196727E0,2.071118593E0,-1.105475712E1,-2.163448572E0
3.764196727E0,2.354640007E0,-1.172008705E1,-1.907125354E0
3.766196727E0,2.522119045E0,-1.237447929E1,-1.637212515E0
3.768223289E0,2.623872519E0,-1.299828434E1,-1.346125484E0
3.772209227E0,2.588936567E0,-1.415723991E1,-8.582734466E-1
3.776199852E0,2.432671547E0,-1.511548615E1,-3.706415594E-1
3.780196727E0,2.284432411E0,-1.574183750E1,2.745095789E-1
3.782196727E0,2.230907440E0,-1.594705009E1,6.622458100E-1
3.784196727E0,2.215603828E0,-1.607329178E1,1.087044239E0
3.786196727E0,2.215498447E0,-1.609875679E1,1.488705039E0
3.788196727E0,2.246670961E0,-1.603469658E1,1.897663474E0
3.790246727E0,2.325038195E0,-1.587494659E1,2.319943190E0
3.794196727E0,2.447132826E0,-1.534448624E1,3.155452490E0
3.796196727E0,2.480373859E0,-1.500105286E1,3.507476807E0
3.798196727E0,2.507275105E0,-1.459092617E1,3.805152655E0
3.800209227E0,2.543570995E0,-1.415473175E1,4.013390541E0
3.804196727E0,2.665321112E0,-1.322699738E1,4.130610943E0
3.806196727E0,2.720224857E0,-1.272404194E1,4.059263706E0
3.808196727E0,2.774008274E0,-1.223567295E1,3.914855003E0
3.810196727E0,2.811022758E0,-1.177202129E1,3.692222834E0
3.812196727E0,2.854214191E0,-1.131689358E1,3.398291588E0
3.814196727E0,2.887426615E0,-1.088679886E1,3.121531487E0
3.816196727E0,2.921615839E0,-1.047391415E1,2.818109274E0
3.818198289E0,2.942741871E0,-1.007042408E1,2.520270824E0
3.822196727E0,3.031193256E0,-9.330692291E0,1.798639297E0
3.824196727E0,3.078550816E0,-9.024464607E0,1.389795780E0
3.826224852E0,3.097139359E0,-8.772738457E0,9.690387845E-1
3.830196727E0,3.100903034E0,-8.379657745E0,2.521190047E-1
3.832196727E0,3.104944229E0,-8.272665977E0,-2.528277040E-2
3.834198289E0,3.088472366E0,-8.215051651E0,-2.695200741E-1
3.838215477E0,2.993518353E0,-8.219323158E0,-5.856025815E-1
3.842196727E0,2.723577023E0,-8.454270363E0,-4.876318276E-1
3.844196727E0,2.555656910E0,-8.652884483E0,-3.127306104E-1
3.846196727E0,2.355051756E0,-8.874759674E0,-5.372588709E-2
3.848196727E0,2.118284464E0,-9.118317604E0,2.592345774E-1
3.850196727E0,1.863388062E0,-9.373730659E0,5.854972601E-1
3.852221727E0,1.611872315E0,-9.627841949E0,9.294482470E-1
3.854248289E0,1.328963876E0,-9.891232491E0,1.290331006E0
3.858196727E0,7.348283529E-1,-1.042038918E1,1.991429925E0
3.860196727E0,4.422090352E-1,-1.064523315E1,2.311668634E0
3.862196727E0,1.809346229E-1,-1.085642147E1,2.597977161E0
3.864196727E0,-5.514325202E-2,-1.107071209E1,2.858753443E0
3.866196727E0,-2.798247039E-1,-1.124906063E1,3.083214521E0
3.868212352E0,-5.063065886E-1,-1.140583324E1,3.248883724E0
3.872196727E0,-9.651314020E-1,-1.166149616E1,3.342247963E0
3.874196727E0,-1.221004486E0,-1.173256588E1,3.307666302E0
3.876196727E0,-1.472711802E0,-1.177839947E1,3.252044201E0
3.878196727E0,-1.696081161E0,-1.179197979E1,3.168390751E0
3.880196727E0,-1.877035022E0,-1.177739429E1,3.056399584E0
3.882196727E0,-2.006800652E0,-1.173832130E1,2.929286718E0
3.884196727E0,-2.088117361E0,-1.166894627E1,2.775617123E0
3.886196727E0,-2.156151056E0,-1.157488251E1,2.601194859E0
3.888196727E0,-2.194276333E0,-1.146985435E1,2.431168318E0
3.890196727E0,-2.242026091E0,-1.135389805E1,2.268544436E0
3.892196727E0,-2.260404110E0,-1.123993492E1,2.104790449E0
3.894196727E0,-2.223897457E0,-1.111508083E1,1.974019289E0
3.896196727E0,-2.206802845E0,-1.097796059E1,1.901158929E0
3.898196727E0,-2.153632402E0,-1.083141613E1,1.899463892E0
3.900196727E0,-2.054157972E0,-1.067874336E1,1.934783101E0
3.902196727E0,-1.922860026E0,-1.053054237E1,1.997204661E0
3.904196727E0,-1.779734612E0,-1.040200233E1,2.062575817E0
3.906196727E0,-1.605542064E0,-1.027792454E1,2.140923738E0
3.908210789E0,-1.411027551E0,-1.017912102E1,2.228101492E0
3.912196727E0,-1.019393563E0,-1.001572132E1,2.339872599E0
3.914196727E0,-8.376641273E-1,-9.950780869E0,2.355147362E0
3.916198289E0,-6.558676362E-1,-9.871302605E0,2.370211840E0
3.920231102E0,-2.477519959E-1,-9.732305527E0,2.437029362E0
3.924202977E0,6.643430889E-2,-9.632926941E0,2.454468489E0
3.928196727E0,5.677130818E-2,-9.544667244E0,2.384270430E0
3.930196727E0,6.258442998E-2,-9.537512779E0,2.343080759E0
3.932196727E0,1.077965423E-1,-9.567603111E0,2.298050642E0
3.934196727E0,8.590395004E-2,-9.608802795E0,2.232640982E0
3.936212352E0,6.205771118E-3,-9.647618294E0,2.152358532E0
3.940196727E0,-2.126721442E-1,-9.684862137E0,1.964136004E0
3.942196727E0,-2.837128937E-1,-9.684775352E0,1.825291514E0
3.944196727E0,-2.965553999E-1,-9.693250656E0,1.638074517E0
3.946196727E0,-2.591100633E-1,-9.718821526E0,1.405492187E0
3.948196727E0,-2.087648213E-1,-9.757818222E0,1.148402810E0
3.950196727E0,-1.463431865E-1,-9.799870491E0,8.791604638E-1
3.952196727E0,-8.200619370E-2,-9.844516754E0,6.292440891E-1
3.954199852E0,-3.881479800E-2,-9.913268089E0,4.665341377E-1
3.958196727E0,-5.465483293E-2,-1.009256554E1,4.879861772E-1
3.960196727E0,-7.349241525E-2,-1.017717648E1,6.221668124E-1
3.962196727E0,-1.031805202E-1,-1.024169540E1,7.949420214E-1
3.964196727E0,-1.361821890E-1,-1.029561329E1,9.702646136E-1
3.966196727E0,-1.630355567E-1,-1.030952835E1,1.115247965E0
3.968196727E0,-1.995136142E-1,-1.028314495E1,1.188136935E0
3.970196727E0,-2.120400816E-1,-1.024494267E1,1.193911791E0
3.972196727E0,-2.009692788E-1,-1.018046188E1,1.145070076E0
3.974196727E0,-1.850526482E-1,-1.010215187E1,1.071271181E0
3.976196727E0,-1.534683257E-1,-1.004445171E1,9.696708322E-1
3.978196727E0,-1.175074130E-1,-9.981350899E0,8.779537082E-1
3.980196727E0,-9.405381978E-2,-9.944499016E0,8.371087313E-1
3.982196727E0,-4.464707151E-2,-9.882489204E0,7.614423037E-1
3.984196727E0,9.385270998E-3,-9.812329292E0,7.275882959E-1
3.986196727E0,5.522944778E-2,-9.760671616E0,7.153970599E-1
3.988196727E0,8.961975574E-2,-9.714242935E0,7.178774476E-1
3.990196727E0,9.648633003E-2,-9.670745850E0,7.339664698E-1
3.992213914E0,4.596867412E-2,-9.606312752E0,7.548630238E-1
3.994245164E0,-2.803131379E-2,-9.603372574E0,7.344165444E-1
3.998196727E0,-1.928290129E-1,-9.569958687E0,6.235937476E-1
4.000196727E0,-2.434615791E-1,-9.559932709E0,6.021417379E-1
4.002196727E0,-3.305051923E-1,-9.534161568E0,5.902281404E-1
4.004196727E0,-3.967192173E-1,-9.506580353E0,5.909655690E-1
4.006196727E0,-5.204706788E-1,-9.485482216E0,5.800863504E-1
4.008196727E0,-7.040677071E-1,-9.467056274E0,5.615648031E-1
4.010196727E0,-8.573253155E-1,-9.471509933E0,5.331313014E-1
4.012196727E0,-9.647387862E-1,-9.470676422E0,5.154237747E-1
4.014196727E0,-1.025790930E0,-9.450488091E0,5.113440156E-1
4.016245164E0,-1.009491205E0,-9.414776802E0,4.840405583E-1
4.020215477E0,-8.475474119E-1,-9.382407188E0,3.486149311E-1
4.024196727E0,-7.407659888E-1,-9.373998642E0,1.979813278E-1
4.026196727E0,-6.624564528E-1,-9.352288246E0,1.124508679E-1
4.028196727E0,-6.149554849E-1,-9.318644524E0,4.161122441E-2
4.030246727E0,-5.650028586E-1,-9.293294907E0,-1.267969236E-2
4.034196727E0,-4.942494333E-1,-9.226496696E0,-1.150270253E-1
4.036196727E0,-4.824316502E-1,-9.228306770E0,-1.268639565E-1
4.038196727E0,-4.631152451E-1,-9.252957344E0,-1.432403028E-1
4.040196727E0,-4.506366551E-1,-9.271938324E0,-1.735891998E-1
4.042196727E0,-4.613434970E-1,-9.274916649E0,-2.254092991E-1
4.044196727E0,-5.017863512E-1,-9.265789986E0,-2.997827828E-1
4.046196727E0,-5.713523030E-1,-9.263693810E0,-4.143884182E-1
4.048196727E0,-6.454288960E-1,-9.235325813E0,-5.227404237E-1
4.050196727E0,-7.365139127E-1,-9.181245804E0,-5.918657780E-1
4.052217039E0,-8.601887822E-1,-9.131973267E0,-6.270031333E-1
4.056196727E0,-1.024948120E0,-9.029587746E0,-5.490383506E-1
4.058196727E0,-1.067766070E0,-8.979281425E0,-4.585087895E-1
4.060196727E0,-1.089170337E0,-8.928907394E0,-3.519667983E-1
4.062196727E0,-1.142560959E0,-8.894956589E0,-2.312798798E-1
4.064196727E0,-1.192532659E0,-8.867999077E0,-7.956410944E-2
4.066196727E0,-1.228359461E0,-8.821895599E0,8.463981748E-2
4.068196727E0,-1.262318850E0,-8.764837265E0,2.672024965E-1
4.070249852E0,-1.277220488E0,-8.715880394E0,4.416727722E-1
4.074196727E0,-1.252780437E0,-8.656657219E0,7.509461641E-1
4.076196727E0,-1.218294263E0,-8.619787216E0,9.126696587E-1
4.078196727E0,-1.193528652E0,-8.592176437E0,1.071012616E0
4.080196727E0,-1.169481277E0,-8.581670761E0,1.217173815E0
4.082196727E0,-1.111053228E0,-8.569843292E0,1.361601710E0
4.084196727E0,-1.040596724E0,-8.550086975E0,1.508605599E0
4.086196727E0,-9.702933431E-1,-8.524680138E0,1.627358079E0
4.088196727E0,-9.027577043E-1,-8.510496140E0,1.743313909E0
4.090196727E0,-8.438507915E-1,-8.505353928E0,1.869574666E0
4.092196727E0,-7.691324949E-1,-8.509069443E0,2.003468037E0
4.094196727E0,-7.075728178E-1,-8.527706146E0,2.133271933E0
4.096196727E0,-6.391465068E-1,-8.526020050E0,2.262807846E0
4.098196727E0,-5.665447116E-1,-8.525531769E0,2.373678684E0
4.100196727E0,-4.987026453E-1,-8.547002792E0,2.472578287E0
4.102196727E0,-4.422090352E-1,-8.589859009E0,2.551510334E0
4.104196727E0,-3.913657963E-1,-8.618877411E0,2.601884365E0
4.106199852E0,-3.482893109E-1,-8.648422241E0,2.665014744E0
4.110226414E0,-2.118006647E-1,-8.772211075E0,2.727522373E0
4.114209227E0,-9.585425258E-2,-8.970738411E0,2.729093075E0
4.118196727E0,-2.770570107E-2,-9.069590569E0,2.680452347E0
4.120196727E0,1.775540039E-2,-9.114860535E0,2.644778728E0
4.122196727E0,3.448608145E-2,-9.151558876E0,2.605590582E0
4.124196727E0,5.632119998E-2,-9.191990852E0,2.550878286E0
4.126196727E0,8.790551126E-2,-9.242059708E0,2.477347612E0
4.128196727E0,1.208401471E-1,-9.297498703E0,2.390600920E0
4.130196727E0,1.700457782E-1,-9.369966507E0,2.267299414E0
4.132196727E0,2.098469883E-1,-9.436688423E0,2.115229130E0
4.134196727E0,2.339709699E-1,-9.508140564E0,1.959673166E0
4.136196727E0,2.460856289E-1,-9.603851318E0,1.779112220E0
4.138196727E0,2.433562279E-1,-9.711457253E0,1.585603118E0
4.140196727E0,2.416132689E-1,-9.819099426E0,1.378092885E0
4.142196727E0,2.287324518E-1,-9.909831047E0,1.162404060E0
4.144196727E0,2.217318118E-1,-9.999862671E0,9.764032960E-1
4.146196727E0,2.337219715E-1,-1.009391594E1,8.054764867E-1
4.148196727E0,2.644156516E-1,-1.020580196E1,6.452851892E-1
4.150196727E0,3.286664486E-1,-1.030219269E1,5.047647953E-1
4.152196727E0,3.752671778E-1,-1.040714455E1,3.714939356E-1
4.154196727E0,3.955604136E-1,-1.051885796E1,2.505962849E-1
4.156196727E0,3.829956651E-1,-1.060804653E1,1.541195512E-1
4.158196727E0,3.689273298E-1,-1.069056988E1,8.175720274E-2
4.160196727E0,3.560369611E-1,-1.076375580E1,2.896026336E-2
4.162196727E0,3.808791935E-1,-1.082185841E1,-1.651041396E-2
4.164196727E0,4.123964608E-1,-1.086361313E1,-6.568731368E-2
4.166196727E0,4.329482615E-1,-1.088638783E1,-1.118187979E-1
4.168196727E0,4.389433563E-1,-1.089640427E1,-1.763377339E-1
4.170196727E0,4.421324432E-1,-1.088980675E1,-2.495236993E-1
4.172196727E0,4.633067548E-1,-1.085518551E1,-3.171646595E-1
4.174196727E0,5.040752292E-1,-1.079491901E1,-3.952060938E-1
4.176196727E0,5.503790975E-1,-1.072486496E1,-4.967489541E-1
4.178196727E0,5.660563111E-1,-1.066208839E1,-5.908793807E-1
4.180196727E0,5.918562412E-1,-1.059596062E1,-6.645250320E-1
4.182196727E0,5.958306193E-1,-1.052243042E1,-7.157418132E-1
4.184196727E0,6.029653549E-1,-1.044244480E1,-7.614040375E-1
4.186196727E0,6.090945005E-1,-1.037014008E1,-8.011573553E-1
4.188196727E0,6.154534817E-1,-1.031655788E1,-8.282501101E-1
4.190201414E0,6.168420911E-1,-1.028761578E1,-8.691143990E-1
4.194196727E0,6.940599084E-1,-1.024085236E1,-9.446945190E-1
4.196196727E0,7.722928524E-1,-1.023905277E1,-9.794678688E-1
4.198198289E0,8.049593568E-1,-1.022767544E1,-9.868899584E-1
4.202196727E0,8.800414801E-1,-1.017830658E1,-8.922136426E-1
4.204196727E0,9.550087452E-1,-1.013539314E1,-7.834785581E-1
4.206196727E0,1.071280718E0,-1.008839035E1,-6.412150860E-1
4.208198289E0,1.195836663E0,-1.004214382E1,-4.521689415E-1
4.212196727E0,1.459400058E0,-9.961009026E0,1.036593542E-1
4.214196727E0,1.594806552E0,-9.912311554E0,4.417397678E-1
4.216196727E0,1.742787361E0,-9.898242950E0,7.758841515E-1
4.218217039E0,1.896217227E0,-9.906057358E0,1.051035404E0
4.222235789E0,2.253710032E0,-1.003938580E1,1.287141919E0
4.226202977E0,2.521640301E0,-1.024933815E1,1.099704742E0
4.230196727E0,2.942885637E0,-1.057535172E1,6.633183360E-1
4.232196727E0,3.279721260E0,-1.077720261E1,5.248951912E-1
4.234196727E0,3.561738968E0,-1.096672726E1,4.914051294E-1
4.236202977E0,3.711079597E0,-1.117220688E1,4.652795792E-1
4.240196727E0,3.612859964E0,-1.163553333E1,4.766281247E-1
4.242196727E0,3.418010235E0,-1.187354469E1,4.263977408E-1
4.244196727E0,3.167806625E0,-1.210802364E1,2.914605439E-1
4.246196727E0,2.873444319E0,-1.231722927E1,8.902599663E-2
4.248198289E0,2.569773197E0,-1.247568703E1,-1.474540979E-1
4.252196727E0,2.012058258E0,-1.268937397E1,-6.408511996E-1
4.254196727E0,1.756530046E0,-1.272691536E1,-8.143445849E-1
4.256196727E0,1.497898817E0,-1.272631264E1,-9.515419602E-1
4.258237352E0,1.251793981E0,-1.268799496E1,-1.011176705E0
4.262196727E0,8.120366335E-1,-1.249583721E1,-1.014107227E0
4.264196727E0,6.386964321E-1,-1.235098743E1,-9.477399588E-1
4.266196727E0,5.164005756E-1,-1.219206047E1,-8.581872582E-1
4.268198289E0,3.817410767E-1,-1.200494862E1,-7.447690964E-1
4.272196727E0,1.817103326E-1,-1.162881947E1,-5.467877984E-1
4.274196727E0,1.535640955E-1,-1.154092407E1,-5.157684684E-1
4.276196727E0,1.235408112E-1,-1.137338638E1,-4.785530269E-1
4.278201414E0,1.129680127E-1,-1.122524357E1,-4.548887312E-1
4.282196727E0,1.509304792E-1,-1.104059315E1,-4.570435286E-1
4.284196727E0,2.291825563E-1,-1.100652790E1,-4.776240885E-1
4.286202977E0,4.241855145E-1,-1.101631546E1,-5.364160538E-1
4.290196727E0,7.281628847E-1,-1.106555939E1,-5.834382176E-1
4.292196727E0,9.886425138E-1,-1.113651466E1,-5.739858747E-1
4.294196727E0,1.262682915E0,-1.121280289E1,-5.128762722E-1
4.296196727E0,1.563480735E0,-1.129091072E1,-3.910210133E-1
4.298198289E0,1.911607265E0,-1.139133358E1,-2.554804683E-1
4.302196727E0,2.631582022E0,-1.162043953E1,4.024174064E-2
4.304196727E0,3.000375271E0,-1.173119545E1,1.670099348E-1
4.306196727E0,3.379990339E0,-1.184484386E1,2.593686581E-1
4.308196727E0,3.762114525E0,-1.193689537E1,2.954444885E-1
4.310196727E0,4.140867710E0,-1.200235367E1,2.747490108E-1
4.312196727E0,4.516441345E0,-1.204003811E1,2.179777026E-1
4.314196727E0,4.875724792E0,-1.205414486E1,1.266436875E-1
4.316196727E0,5.217319965E0,-1.205084038E1,6.914454512E-3
4.318198289E0,5.542672634E0,-1.201079941E1,-1.260595024E-1
4.322196727E0,6.251250744E0,-1.186416054E1,-5.372205973E-1
4.324207664E0,6.500765324E0,-1.178558159E1,-7.172358036E-1
4.328202977E0,6.816857338E0,-1.165981102E1,-1.015754461E0
4.332196727E0,7.128419399E0,-1.150034714E1,-1.375564694E0
4.334210789E0,7.262063980E0,-1.144075966E1,-1.556939840E0
4.338201414E0,7.376592636E0,-1.138825035E1,-1.919010162E0
4.342196727E0,7.310944080E0,-1.140703011E1,-2.247073174E0
4.344196727E0,7.240056038E0,-1.146866703E1,-2.339163780E0
4.346196727E0,7.117798805E0,-1.154688072E1,-2.380114317E0
4.348209227E0,6.943021774E0,-1.165030956E1,-2.397323847E0
4.352196727E0,6.359555244E0,-1.188336086E1,-2.363900661E0
4.354196727E0,5.878416538E0,-1.200936317E1,-2.350119591E0
4.356196727E0,5.325806141E0,-1.215220261E1,-2.324568748E0
4.358198289E0,4.743019104E0,-1.228697681E1,-2.248892784E0
4.362196727E0,3.402265787E0,-1.252460575E1,-2.112624407E0
4.364196727E0,2.664957285E0,-1.263230705E1,-2.070103407E0
4.366196727E0,1.973425508E0,-1.270608616E1,-1.946581841E0
4.368196727E0,1.170793295E0,-1.278606129E1,-1.830597043E0
4.370196727E0,3.561135530E-1,-1.281647778E1,-1.766729355E0
4.372196727E0,-3.838192821E-1,-1.280946732E1,-1.733622313E0
4.374196727E0,-1.125207782E0,-1.277240562E1,-1.712773561E0
4.376196727E0,-1.852987647E0,-1.268907738E1,-1.692288876E0
4.378198289E0,-2.503932953E0,-1.257303524E1,-1.672033787E0
4.382196727E0,-3.304821968E0,-1.232157707E1,-1.504765391E0
4.384196727E0,-3.416190624E0,-1.219579506E1,-1.348347425E0
4.386196727E0,-3.361037731E0,-1.206070518E1,-1.177880287E0
4.388196727E0,-3.169281483E0,-1.194767952E1,-9.815269113E-1
4.390196727E0,-2.913791180E0,-1.183934689E1,-7.556483746E-1
4.392196727E0,-2.657046556E0,-1.174819469E1,-5.188522339E-1
4.394196727E0,-2.422683001E0,-1.167247105E1,-2.845173776E-1
4.396196727E0,-2.212510586E0,-1.160710907E1,-5.728846043E-2
4.398196727E0,-2.013686419E0,-1.153639317E1,1.504899412E-1
4.400223289E0,-1.827206850E0,-1.149380589E1,3.294804692E-1
4.404196727E0,-1.444651723E0,-1.145530701E1,5.958306193E-1
4.406196727E0,-1.250376582E0,-1.146356297E1,6.711713076E-1
4.408196727E0,-1.057499766E0,-1.147334957E1,8.202152252E-1
4.410196727E0,-8.569614291E-1,-1.148432541E1,1.068264008E0
4.412196727E0,-6.990782022E-1,-1.149701405E1,1.372519135E0
4.414196727E0,-5.867326856E-1,-1.150627422E1,1.702325344E0
4.416196727E0,-5.129241943E-1,-1.151961517E1,2.058927298E0
4.418196727E0,-5.058565140E-1,-1.156264400E1,2.397563219E0
4.420196727E0,-5.329301357E-1,-1.162912560E1,2.691398621E0
4.422196727E0,-6.058671474E-1,-1.171263599E1,2.917986155E0
4.424196727E0,-7.258836627E-1,-1.183200073E1,3.096172094E0
4.426196727E0,-8.937363029E-1,-1.197059631E1,3.211610794E0
4.428198289E0,-1.129593968E0,-1.214738464E1,3.244018793E0
4.432220164E0,-1.784254909E0,-1.256158066E1,3.127421141E0
4.434237352E0,-2.182765007E0,-1.279176998E1,2.987695456E0
4.438196727E0,-2.981834412E0,-1.330787277E1,2.584904432E0
4.440196727E0,-3.403491735E0,-1.357904148E1,2.359179258E0
4.442196727E0,-3.839686632E0,-1.383769989E1,2.119040728E0
4.444196727E0,-4.236855984E0,-1.410307407E1,1.880243182E0
4.446196727E0,-4.598179340E0,-1.433548355E1,1.634368300E0
4.448198289E0,-4.923110962E0,-1.453908730E1,1.384902000E0
4.452196727E0,-5.430538177E0,-1.493569183E1,9.096530080E-1
4.454196727E0,-5.626163006E0,-1.509447479E1,6.979385614E-1
4.456196727E0,-5.772506237E0,-1.523073387E1,4.873828292E-1
4.458196727E0,-5.860144138E0,-1.530528927E1,2.917287052E-1
4.460196727E0,-5.910613537E0,-1.537450027E1,1.062642485E-1
4.462196727E0,-5.915976524E0,-1.541341114E1,-7.596323639E-2
4.464196727E0,-5.879671097E0,-1.542646408E1,-2.335017025E-1
4.466196727E0,-5.800901890E0,-1.542305470E1,-3.880617917E-1
4.468196727E0,-5.702509880E0,-1.539826107E1,-5.149927735E-1
4.470206102E0,-5.587789059E0,-1.539952469E1,-6.262561083E-1
4.472218602E0,-5.471622467E0,-1.537342739E1,-7.207409143E-1
4.476196727E0,-5.144670486E0,-1.527604103E1,-8.603420258E-1
4.478198289E0,-4.978886127E0,-1.523650742E1,-9.045964479E-1
4.482196727E0,-4.661893368E0,-1.516584110E1,-8.875018358E-1
4.484199852E0,-4.502784729E0,-1.511961365E1,-8.443965912E-1
4.488198289E0,-4.294556141E0,-1.501011276E1,-7.255963087E-1
4.492196727E0,-4.100175858E0,-1.487051201E1,-5.358127356E-1
4.494196727E0,-4.051592350E0,-1.478954887E1,-4.111993313E-1
4.496209227E0,-4.007903099E0,-1.471364403E1,-2.785701454E-1
4.500196727E0,-3.975772858E0,-1.454345417E1,-5.592855159E-3
4.502196727E0,-3.978856802E0,-1.442804432E1,1.578449309E-1
4.504196727E0,-3.955537319E0,-1.430609322E1,3.505685925E-1
4.506196727E0,-3.887561083E0,-1.417237186E1,5.573988557E-1
4.508198289E0,-3.785855532E0,-1.402602863E1,7.172358036E-1
4.512196727E0,-3.353443384E0,-1.367602444E1,9.815461040E-1
4.514196727E0,-3.043643236E0,-1.348559952E1,1.177813053E0
4.516217039E0,-2.690067530E0,-1.330196476E1,1.409255862E0
4.520196727E0,-2.206735611E0,-1.292579651E1,1.696416378E0
4.522196727E0,-2.085138798E0,-1.275416088E1,1.704805613E0
4.524196727E0,-1.983385324E0,-1.259696770E1,1.614218593E0
4.526196727E0,-1.840183496E0,-1.243504333E1,1.474071622E0
4.528196727E0,-1.688984752E0,-1.226426983E1,1.300961256E0
4.530196727E0,-1.534309864E0,-1.210430717E1,1.145165801E0
4.532196727E0,-1.340944409E0,-1.195435429E1,1.007681251E0
4.534209227E0,-1.181595922E0,-1.183251858E1,8.590682745E-1
4.538196727E0,-9.348591566E-1,-1.164458275E1,5.520071387E-1
4.540196727E0,-7.974990010E-1,-1.153047562E1,3.894887269E-1
4.542196727E0,-7.119781375E-1,-1.140653229E1,2.426379770E-1
4.544196727E0,-7.028322816E-1,-1.125960541E1,7.223785669E-2
4.546196727E0,-7.309306264E-1,-1.113062477E1,-1.233875826E-1
4.548198289E0,-7.972499728E-1,-1.101705265E1,-2.994571924E-1
4.552196727E0,-8.061468601E-1,-1.082971191E1,-5.160749555E-1
4.554196727E0,-7.381515503E-1,-1.074513912E1,-5.705670118E-1
4.556196727E0,-6.697443724E-1,-1.068148136E1,-5.660179853E-1
4.558199852E0,-5.754703283E-1,-1.062740135E1,-4.934066832E-1
4.562196727E0,-3.950624466E-1,-1.049142933E1,-1.507389396E-1
4.564196727E0,-3.225468397E-1,-1.041151142E1,6.117664278E-2
4.566235789E0,-2.850345075E-1,-1.032223606E1,2.468230426E-1
4.570196727E0,-2.616766691E-1,-1.016675663E1,4.437126219E-1
4.572196727E0,-2.462580055E-1,-1.006321335E1,5.196662545E-1
4.574196727E0,-2.253135443E-1,-9.964982986E0,5.957157016E-1
4.576196727E0,-2.152578831E-1,-9.882278442E0,6.636727452E-1
4.578202977E0,-1.811548769E-1,-9.820890427E0,7.753765583E-1
4.580242039E0,-1.204091981E-1,-9.724242210E0,1.014384985E0
4.584196727E0,-1.464293804E-2,-9.606964111E0,1.262175322E0
4.586196727E0,3.371993452E-2,-9.546984673E0,1.439892054E0
4.588198289E0,1.215296704E-2,-9.503228188E0,1.622607946E0
4.592196727E0,-1.350808591E-1,-9.372236252E0,1.942999959E0
4.594234227E0,-3.056820929E-1,-9.247652054E0,2.101074696E0
4.598196727E0,-3.630280197E-1,-9.064246178E0,2.228273869E0
4.600196727E0,-4.097819924E-1,-8.933178902E0,2.304744720E0
4.602196727E0,-5.034910440E-1,-8.807376862E0,2.395657539E0
4.604199852E0,-6.058862209E-1,-8.676327705E0,2.486876488E0
4.606206102E0,-7.367724776E-1,-8.447633743E0,2.599097490E0
4.610209227E0,-8.055914044E-1,-8.210387230E0,2.682051659E0
4.614198289E0,-9.787688255E-1,-7.902215958E0,2.786956072E0
4.616204539E0,-1.128234029E0,-7.662547112E0,2.794646263E0
4.620196727E0,-1.303690672E0,-7.416346073E0,2.768003702E0
4.622196727E0,-1.411544681E0,-7.255264282E0,2.720770836E0
4.624196727E0,-1.536091089E0,-7.116524696E0,2.673221827E0
4.626196727E0,-1.681869268E0,-6.973169804E0,2.607448578E0
4.628196727E0,-1.813215137E0,-6.842073441E0,2.534952164E0
4.630196727E0,-1.918876052E0,-6.707959652E0,2.449785471E0
4.632196727E0,-2.043920517E0,-6.577207088E0,2.359926224E0
4.634198289E0,-2.145654678E0,-6.465139866E0,2.243635178E0
4.638196727E0,-2.406316519E0,-6.256872654E0,2.078779936E0
4.640196727E0,-2.497564316E0,-6.159399986E0,2.043518305E0
4.642196727E0,-2.562753439E0,-6.066648483E0,2.000805616E0
4.644196727E0,-2.589070559E0,-5.980725765E0,1.945825219E0
4.646196727E0,-2.593245983E0,-5.913266659E0,1.888153672E0
4.648196727E0,-2.596013784E0,-5.853535652E0,1.847931027E0
4.650196727E0,-2.596482992E0,-5.787915707E0,1.830941796E0
4.652196727E0,-2.579828739E0,-5.757164478E0,1.834006310E0
4.654196727E0,-2.549432039E0,-5.716472626E0,1.816614866E0
4.656196727E0,-2.515453577E0,-5.690481186E0,1.785739303E0
4.658196727E0,-2.487585306E0,-5.670302868E0,1.763655186E0
4.660196727E0,-2.464189053E0,-5.657699585E0,1.741350889E0
4.662196727E0,-2.427078962E0,-5.660773754E0,1.728115559E0
4.664210789E0,-2.398156881E0,-5.675608635E0,1.694424391E0
4.668196727E0,-2.337976217E0,-5.688038826E0,1.679331422E0
4.670209227E0,-2.331540823E0,-5.691850662E0,1.661049247E0
4.674196727E0,-2.369120121E0,-5.690931320E0,1.642077684E0
4.676196727E0,-2.410597086E0,-5.694914818E0,1.629225612E0
4.678196727E0,-2.448339462E0,-5.684619904E0,1.612015963E0
4.680196727E0,-2.488906622E0,-5.641524315E0,1.585469127E0
4.682235789E0,-2.529426336E0,-5.588650703E0,1.568020105E0
4.686198289E0,-2.623939753E0,-5.481132507E0,1.506594539E0
4.688199852E0,-2.670339346E0,-5.406346798E0,1.456393003E0
4.692196727E0,-2.720560074E0,-5.240926743E0,1.350473404E0
4.694196727E0,-2.750391960E0,-5.165700912E0,1.297168970E0
4.696209227E0,-2.772370577E0,-5.088502407E0,1.234977126E0
4.700235789E0,-2.782512426E0,-4.945817471E0,1.206304193E0
4.704196727E0,-2.737185478E0,-4.828339100E0,1.201429605E0
4.706196727E0,-2.713616848E0,-4.773425102E0,1.241096735E0
4.708213914E0,-2.669602156E0,-4.709902287E0,1.296603918E0
4.712196727E0,-2.552707434E0,-4.577742100E0,1.416476846E0
4.714196727E0,-2.477864742E0,-4.548351288E0,1.460079908E0
4.716196727E0,-2.390045404E0,-4.512371063E0,1.471332788E0
4.718196727E0,-2.327872753E0,-4.474226475E0,1.461372852E0
4.720207664E0,-2.270306587E0,-4.456097603E0,1.451020241E0
4.724196727E0,-2.195367813E0,-4.403636456E0,1.399544954E0
4.726196727E0,-2.142820120E0,-4.377673149E0,1.355711937E0
4.728198289E0,-2.062384605E0,-4.343742847E0,1.323351979E0
4.732196727E0,-1.899607539E0,-4.270662308E0,1.250568151E0
4.734198289E0,-1.824745655E0,-4.227355957E0,1.191067457E0
4.738196727E0,-1.729705334E0,-4.126588345E0,1.076107383E0
4.740196727E0,-1.653253794E0,-4.085140228E0,1.022362471E0
4.742196727E0,-1.578698277E0,-4.033473492E0,9.464374781E-1
4.744196727E0,-1.485812902E0,-3.999217033E0,8.371565342E-1
4.746201414E0,-1.379960418E0,-3.973656416E0,7.190553546E-1
4.750196727E0,-1.245291352E0,-3.966799498E0,5.106545091E-1
4.752196727E0,-1.154704332E0,-3.966789961E0,3.952156603E-1
4.754196727E0,-1.048784733E0,-3.984258175E0,2.693572640E-1
4.756196727E0,-9.563590884E-1,-4.015966892E0,1.504516304E-1
4.758201414E0,-8.772259355E-1,-4.054340839E0,3.916914016E-2
4.762196727E0,-7.225892544E-1,-4.157923698E0,-1.852824837E-1
4.764196727E0,-6.543161869E-1,-4.217673779E0,-3.100012541E-1
4.766201414E0,-6.034728885E-1,-4.274042606E0,-4.308222234E-1
4.768234227E0,-5.118228793E-1,-4.344269753E0,-5.444127321E-1
4.772196727E0,-3.532979786E-1,-4.531438351E0,-8.314775229E-1
4.774196727E0,-2.444958836E-1,-4.677465916E0,-1.001877666E0
4.776196727E0,-1.241632998E-1,-4.842454910E0,-1.184411645E0
4.778196727E0,2.046563476E-2,-5.035494804E0,-1.418631554E0
4.780218602E0,1.497046500E-1,-5.232623577E0,-1.680020928E0
4.784196727E0,3.867114484E-1,-5.688288212E0,-2.257473707E0
4.786196727E0,4.685356915E-1,-5.940397263E0,-2.597775936E0
4.788259227E0,5.335143209E-1,-6.224186897E0,-2.966846943E0
4.792196727E0,6.230861545E-1,-6.885618687E0,-3.796916485E0
4.794196727E0,6.592578292E-1,-7.231849194E0,-4.241107941E0
4.796196727E0,7.277128100E-1,-7.590835571E0,-4.715006828E0
4.798198289E0,8.201098442E-1,-7.975554943E0,-5.263643265E0
4.802196727E0,1.010487199E0,-8.803700447E0,-6.623625755E0
4.804196727E0,1.160747290E0,-9.255821228E0,-7.524008751E0
4.806196727E0,1.334901452E0,-9.726079941E0,-8.508408546E0
4.808196727E0,1.542919278E0,-1.021153831E1,-9.533088684E0
4.810196727E0,1.819373012E0,-1.073177910E1,-1.055807495E1
4.812196727E0,2.177459478E0,-1.128431320E1,-1.155403423E1
4.814196727E0,2.631294727E0,-1.186105728E1,-1.246888733E1
4.816196727E0,3.135935068E0,-1.245110321E1,-1.322928619E1
4.818196727E0,3.666940212E0,-1.307019615E1,-1.375850010E1
4.820196727E0,4.198194504E0,-1.371318245E1,-1.401914215E1
4.822196727E0,4.706301212E0,-1.437229729E1,-1.405289173E1
4.824196727E0,5.229175568E0,-1.505045891E1,-1.392095184E1
4.826196727E0,5.805824280E0,-1.573846722E1,-1.373933697E1
4.828198289E0,6.345448494E0,-1.639621162E1,-1.358516026E1
4.832196727E0,7.115365982E0,-1.761240768E1,-1.366911983E1
4.834196727E0,7.395114422E0,-1.815054893E1,-1.390127182E1
4.836196727E0,7.638595104E0,-1.862421608E1,-1.418769455E1
4.838199852E0,7.831567764E0,-1.903252602E1,-1.447280598E1
4.842196727E0,7.974587917E0,-1.960991096E1,-1.471794319E1
4.844196727E0,7.972844601E0,-1.978409386E1,-1.460328960E1
4.846196727E0,7.894276619E0,-1.987825203E1,-1.434334660E1
4.848196727E0,7.747981548E0,-1.991204834E1,-1.395367622E1
4.850196727E0,7.547960281E0,-1.989701462E1,-1.346363068E1
4.852196727E0,7.295189857E0,-1.983291626E1,-1.287745285E1
4.854196727E0,6.989479065E0,-1.970518875E1,-1.221638584E1
4.856196727E0,6.649608135E0,-1.952402496E1,-1.148905563E1
4.858199852E0,6.314151287E0,-1.931163979E1,-1.075657368E1
4.860209227E0,5.907414913E0,-1.898008156E1,-1.003138828E1
4.864196727E0,4.958439350E0,-1.798112488E1,-8.744677544E0
4.866196727E0,4.495535374E0,-1.738766098E1,-8.188696861E0
