"Time (s)","Gyroscope x (rad/s)","Gyroscope y (rad/s)","Gyroscope z (rad/s)"
9.708922200E-2,7.223481685E-2,6.675229669E-1,-1.210276723E0
9.934300600E-2,7.605272532E-2,6.675229669E-1,-1.220050573E0
1.015926400E-1,7.483099401E-2,6.675229669E-1,-1.228602767E0
1.038361100E-1,7.238753140E-2,6.663012505E-1,-1.234711409E0
1.061021610E-1,6.979135424E-2,6.675229669E-1,-1.235933065E0
1.083559460E-1,6.994406879E-2,6.614143252E-1,-1.237154841E0
1.106093020E-1,6.994406879E-2,6.528622508E-1,-1.234711409E0
1.128484380E-1,6.383541971E-2,6.430884004E-1,-1.231198907E0
1.151123560E-1,6.261368841E-2,6.357579827E-1,-1.228755474E0
1.173705960E-1,5.513058975E-2,6.247624159E-1,-1.221425056E0
1.196260890E-1,5.024366826E-2,6.101016402E-1,-1.217912555E0
1.218769430E-1,4.902193695E-2,5.978843570E-1,-1.213025689E0
1.241290790E-1,4.535674304E-2,5.842925906E-1,-1.205847979E0
1.263828030E-1,4.306599870E-2,5.635231733E-1,-1.198517561E0
1.286329250E-1,3.817907721E-2,5.439754725E-1,-1.191339970E0
1.308763330E-1,3.451388702E-2,5.244278312E-1,-1.181718826E0
1.331435450E-1,2.962696366E-2,5.048801303E-1,-1.171944976E0
1.353971450E-1,2.596177347E-2,4.876231849E-1,-1.157436967E0
1.376526380E-1,1.603521220E-2,4.802927971E-1,-1.141707182E0
1.399024550E-1,8.552113548E-3,4.815145433E-1,-1.109942198E0
1.421559950E-1,-2.596177394E-3,4.705189466E-1,-1.077108145E0
1.444097190E-1,-7.483099122E-3,4.300491214E-1,-1.041830659E0
1.466636250E-1,-2.214386500E-2,3.848451078E-1,-1.020144939E0
1.489181430E-1,-3.313944116E-2,3.468187451E-1,-1.004415154E0
1.511696690E-1,-4.046982154E-2,3.211624026E-1,-9.947940707E-1
1.534240020E-1,-4.169155285E-2,3.174972236E-1,-9.899071455E-1
1.556757720E-1,-3.436116874E-2,3.260493279E-1,-9.801332951E-1
1.579297400E-1,-2.336559631E-2,3.358231783E-1,-9.604328871E-1
1.601827910E-1,-6.261368748E-3,3.565925956E-1,-9.358455539E-1
1.624363300E-1,7.177666761E-3,3.883575797E-1,-9.112582207E-1
1.646876730E-1,1.817324013E-2,4.286746979E-1,-8.940013051E-1
1.669339500E-1,2.657263726E-2,4.702135324E-1,-8.816312551E-1
1.691963410E-1,3.512475267E-2,5.033529401E-1,-8.765916228E-1
1.714508580E-1,4.245513305E-2,5.241223574E-1,-8.727737069E-1
1.737054350E-1,4.367686436E-2,5.302310586E-1,-8.727737069E-1
1.759569610E-1,4.489859566E-2,5.314527750E-1,-8.691084981E-1
1.782098290E-1,4.352414981E-2,5.338962078E-1,-8.691084981E-1
1.804628820E-1,3.863722831E-2,5.461135507E-1,-8.666650653E-1
1.827164830E-1,2.871066704E-2,5.607742667E-1,-8.629998565E-1
1.849697790E-1,1.756237634E-2,5.803219676E-1,-8.617781401E-1
1.872232580E-1,1.007927675E-2,5.949827433E-1,-8.605564237E-1
1.894772250E-1,5.192354787E-3,6.084218025E-1,-8.593347073E-1
1.917246010E-1,-5.955935922E-3,6.218608022E-1,-8.544477820E-1
1.939708170E-1,-1.099557430E-2,6.291912198E-1,-8.471173644E-1
1.962365020E-1,-2.076941915E-2,6.328563690E-1,-8.397870064E-1
1.984905310E-1,-3.191770986E-2,6.388123035E-1,-8.301658630E-1
2.007471840E-1,-4.062253982E-2,6.498079300E-1,-8.228355050E-1
2.030004800E-1,-4.932736978E-2,6.583600044E-1,-8.118399382E-1
2.052554240E-1,-6.169738993E-2,6.669121385E-1,-7.996225953E-1
2.075046920E-1,-7.284568250E-2,6.730207801E-1,-7.851145267E-1
2.097564610E-1,-8.643743396E-2,6.779077053E-1,-7.716755271E-1
2.120088420E-1,-9.636399150E-2,6.791294217E-1,-7.547240257E-1
2.142626870E-1,-1.123992056E-1,6.765332818E-1,-7.328855991E-1
2.165170210E-1,-1.223257631E-1,6.789767146E-1,-7.096726894E-1
2.187702570E-1,-1.333213449E-1,6.765332818E-1,-6.853908300E-1
2.210238580E-1,-1.432479024E-1,6.740897894E-1,-6.585127115E-1
2.232773370E-1,-1.594358236E-1,6.727153659E-1,-6.293439269E-1
2.255314860E-1,-1.730275750E-1,6.690501571E-1,-6.001750827E-1
2.277835000E-1,-1.878410578E-1,6.543893814E-1,-5.722280145E-1
2.300334400E-1,-2.000583708E-1,6.407976151E-1,-5.455026627E-1
2.322784960E-1,-2.160935849E-1,6.249151230E-1,-5.175555944E-1
2.345436940E-1,-2.333505303E-1,6.076582074E-1,-4.920519590E-1
2.367972950E-1,-2.493857294E-1,5.881105065E-1,-4.667010605E-1
2.390534590E-1,-2.629774809E-1,5.722280145E-1,-4.436408877E-1
2.413042530E-1,-2.790127099E-1,5.537493229E-1,-4.230241776E-1
2.435583430E-1,-2.924517393E-1,5.415320396E-1,-4.024074674E-1
2.458105400E-1,-3.048217595E-1,5.293147564E-1,-3.842342496E-1
2.480638360E-1,-3.184134960E-1,5.206099153E-1,-3.646865487E-1
2.503166430E-1,-3.320052624E-1,5.145012736E-1,-3.465133011E-1
2.525675600E-1,-3.430008292E-1,5.096143484E-1,-3.332269788E-1
2.548110290E-1,-3.565925956E-1,5.047274232E-1,-3.210096955E-1
2.570770810E-1,-3.665191531E-1,5.021312237E-1,-3.065016270E-1
2.593293400E-1,-3.764457107E-1,5.033529401E-1,-2.906191349E-1
2.615884330E-1,-3.874412775E-1,5.021312237E-1,-2.785545588E-1
2.638372120E-1,-3.961461186E-1,4.996877611E-1,-2.675589919E-1
2.660903260E-1,-4.036292136E-1,5.070181489E-1,-2.554943860E-1
2.683431940E-1,-4.109596014E-1,5.119050741E-1,-2.420553565E-1
2.705974060E-1,-4.184426963E-1,5.167919993E-1,-2.298380435E-1
2.728500300E-1,-4.245513380E-1,5.141957998E-1,-2.153300047E-1
2.751007630E-1,-4.295909703E-1,5.032002330E-1,-2.006692290E-1
2.773589420E-1,-4.332561791E-1,4.922046661E-1,-1.886046380E-1
2.796120550E-1,-4.393648207E-1,4.848742783E-1,-1.751656085E-1
2.818619320E-1,-4.405865669E-1,4.726569951E-1,-1.653917581E-1
2.841040580E-1,-4.405865669E-1,4.604396820E-1,-1.533271819E-1
2.863700490E-1,-4.430300295E-1,4.444044530E-1,-1.435533315E-1
2.886242630E-1,-4.405865669E-1,4.321871698E-1,-1.374446750E-1
2.908809770E-1,-4.367686510E-1,4.175263941E-1,-1.302670091E-1
2.931312210E-1,-4.318817258E-1,4.004221559E-1,-1.241583601E-1
2.953845770E-1,-4.280638099E-1,3.772092760E-1,-1.217148975E-1
2.976387880E-1,-4.243986309E-1,3.552181423E-1,-1.145372316E-1
2.998875680E-1,-4.144720733E-1,3.442225754E-1,-1.082758680E-1
3.021307320E-1,-4.008803070E-1,3.258966208E-1,-1.082758680E-1
3.043910470E-1,-3.824016452E-1,3.112358451E-1,-1.070541367E-1
3.066512400E-1,-3.625485301E-1,2.941316068E-1,-1.070541367E-1
3.089075870E-1,-3.452915847E-1,2.806925774E-1,-1.081231460E-1
3.111594180E-1,-3.280346394E-1,2.648100853E-1,-1.117883399E-1
3.134096020E-1,-3.081815243E-1,2.415972054E-1,-1.177442744E-1
3.156603950E-1,-2.909245789E-1,2.220495194E-1,-1.262963861E-1
3.179179030E-1,-2.747366428E-1,2.038762718E-1,-1.348485053E-1
3.201712600E-1,-2.587014437E-1,1.916589737E-1,-1.493565589E-1
3.224255330E-1,-2.426662147E-1,1.831068546E-1,-1.615738571E-1
3.246777300E-1,-2.302961946E-1,1.782199293E-1,-1.797471046E-1
3.269313920E-1,-2.191479057E-1,1.733330190E-1,-2.029599845E-1
3.291812700E-1,-2.067778856E-1,1.698205322E-1,-2.296853364E-1
3.314249840E-1,-1.944078654E-1,1.698205322E-1,-2.553416789E-1
3.336918900E-1,-1.808161139E-1,1.710422635E-1,-2.832887471E-1
3.359448200E-1,-1.745547503E-1,1.734857261E-1,-3.113885522E-1
3.382011670E-1,-1.658499092E-1,1.834122837E-1,-3.430008292E-1
3.404507400E-1,-1.547016203E-1,1.907426715E-1,-3.721696436E-1
3.427045860E-1,-1.411098689E-1,1.944078654E-1,-4.001167417E-1
3.449582480E-1,-1.299615800E-1,1.982257664E-1,-4.269948006E-1
3.472116660E-1,-1.200350225E-1,1.970040351E-1,-4.512766898E-1
3.494656330E-1,-1.127046347E-1,1.982257664E-1,-4.708243906E-1
3.517158770E-1,-1.064432710E-1,1.970040351E-1,-4.902193546E-1
3.539582480E-1,-1.052215397E-1,2.018909603E-1,-5.109887719E-1
3.562246660E-1,-1.039998084E-1,2.057088763E-1,-5.280929804E-1
3.584744840E-1,-1.038470939E-1,2.057088763E-1,-5.403103232E-1
3.607218600E-1,-1.050688252E-1,2.032654136E-1,-5.500841737E-1
3.629839450E-1,-1.075122803E-1,1.959350258E-1,-5.610797405E-1
3.652335790E-1,-1.111774743E-1,1.898263693E-1,-5.671883821E-1
3.674946260E-1,-1.148426682E-1,1.800525337E-1,-5.685628057E-1
3.697455410E-1,-1.148426682E-1,1.751656085E-1,-5.685628057E-1
3.719994470E-1,-1.148426682E-1,1.690569520E-1,-5.612324476E-1
3.742518280E-1,-1.185078546E-1,1.701259762E-1,-5.477933884E-1
3.765050010E-1,-1.198823079E-1,1.676825136E-1,-5.331326723E-1
3.787585420E-1,-1.198823079E-1,1.725694388E-1,-5.160284042E-1
3.810116550E-1,-1.211040318E-1,1.750128865E-1,-4.940372705E-1
3.832647060E-1,-1.200350225E-1,1.811215430E-1,-4.696026444E-1
3.855180630E-1,-1.175915599E-1,1.872301996E-1,-4.451680481E-1
3.877729460E-1,-1.201877370E-1,1.957823038E-1,-4.134030640E-1
3.900251430E-1,-1.215621829E-1,1.980730593E-1,-3.769038618E-1
3.922785010E-1,-1.240056455E-1,2.054034323E-1,-3.402519524E-1
3.945316750E-1,-1.266018152E-1,2.102903575E-1,-2.999348342E-1
3.967851530E-1,-1.279762685E-1,2.139555514E-1,-2.571742535E-1
3.990386330E-1,-1.305724531E-1,2.101376504E-1,-2.170098722E-1
4.012886940E-1,-1.330159009E-1,2.052507252E-1,-1.742493063E-1
4.035324080E-1,-1.380555481E-1,1.979203373E-1,-1.316414624E-1
4.057993140E-1,-1.418734491E-1,1.928807050E-1,-9.132435173E-2
4.080520000E-1,-1.430951804E-1,1.855503172E-1,-5.238169432E-2
4.103085910E-1,-1.481348276E-1,1.733330190E-1,-1.328631863E-2
4.125581650E-1,-1.518000066E-1,1.634064466E-1,2.076941915E-2
4.148120100E-1,-1.568396538E-1,1.572978050E-1,5.619960278E-2
4.170654280E-1,-1.643227488E-1,1.463022232E-1,8.781187981E-2
4.193192120E-1,-1.716531366E-1,1.339322031E-1,1.169806942E-1
4.215735450E-1,-1.791362315E-1,1.192714423E-1,1.437060535E-1
4.238266580E-1,-1.901318133E-1,1.033889428E-1,1.644754708E-1
4.260788560E-1,-1.988366395E-1,8.735372871E-2,1.777617931E-1
4.283287340E-1,-2.110539377E-1,7.147123665E-2,1.922698319E-1
4.305720810E-1,-2.283108830E-1,5.803219974E-2,2.006692290E-1
4.328374010E-1,-2.429716438E-1,4.703662544E-2,2.041817009E-1
4.350883780E-1,-2.590068579E-1,3.970624134E-2,2.040289938E-1
4.373489970E-1,-2.750420868E-1,3.833179548E-2,1.966986060E-1
4.395995470E-1,-2.910772860E-1,4.566217586E-2,1.831068546E-1
4.418544910E-1,-3.069597781E-1,5.543602258E-2,1.672243625E-1
4.441056510E-1,-3.193297982E-1,6.658431143E-2,1.488984078E-1
4.463597400E-1,-3.329215646E-1,8.124507964E-2,1.232420653E-1
4.486156600E-1,-3.477350473E-1,1.020144969E-1,9.880745411E-2
4.508657220E-1,-3.587306142E-1,1.227839142E-1,7.559457421E-2
4.531192010E-1,-3.662137091E-1,1.447750628E-1,4.993823543E-2
4.553716420E-1,-3.723223805E-1,1.631010175E-1,2.550362423E-2
4.576259150E-1,-3.735440969E-1,1.766927689E-1,7.330383174E-3
4.598798200E-1,-3.747658134E-1,1.889100820E-1,-6.108652335E-3
4.621323230E-1,-3.735440969E-1,1.974621862E-1,-2.199114859E-2
4.643826290E-1,-3.686571717E-1,2.084577680E-1,-2.550362423E-2
4.666254270E-1,-3.625485301E-1,2.206750661E-1,-2.794708498E-2
4.688921510E-1,-3.538436890E-1,2.243402600E-1,-3.145955876E-2
4.711459350E-1,-3.452915847E-1,2.316706479E-1,-2.901609987E-2
4.734025260E-1,-3.342960179E-1,2.390010208E-1,-2.153299935E-2
4.756530150E-1,-3.231477141E-1,2.390010208E-1,-1.420261711E-2
4.779072270E-1,-3.121521473E-1,2.464841306E-1,-3.054326167E-3
4.801594240E-1,-2.987131178E-1,2.489275932E-1,7.941247895E-3
4.824110110E-1,-2.851213515E-1,2.550362349E-1,1.908953860E-2
4.846593010E-1,-2.692388594E-1,2.648100853E-1,3.512475267E-2
4.869191290E-1,-2.570215464E-1,3.039054573E-1,5.115996301E-2
4.891726070E-1,-2.484694421E-1,3.210096955E-1,6.475171447E-2
4.914279170E-1,-2.386955917E-1,3.124575615E-1,7.330382615E-2
4.936810300E-1,-2.360994220E-1,2.929098904E-1,7.803803682E-2
4.959340820E-1,-2.373211533E-1,2.696970105E-1,7.803803682E-2
4.981859750E-1,-2.359467000E-1,2.489275932E-1,7.422012836E-2
5.004361580E-1,-2.396118939E-1,2.318233550E-1,6.566801667E-2
5.026814580E-1,-2.396118939E-1,2.183843255E-1,5.711590126E-2
5.049458020E-1,-2.431243658E-1,2.025018334E-1,4.718934000E-2
5.071995250E-1,-2.406809032E-1,1.866193265E-1,3.375030309E-2
5.094556280E-1,-2.393064648E-1,1.744020283E-1,1.908953860E-2
5.117065440E-1,-2.367102802E-1,1.621847153E-1,1.985311974E-3
5.139570930E-1,-2.367102802E-1,1.463022232E-1,-1.511891466E-2
5.162004410E-1,-2.353358418E-1,1.340849251E-1,-3.466660157E-2
5.184629530E-1,-2.328923792E-1,1.279762685E-1,-5.421429127E-2
5.207061160E-1,-2.339613885E-1,1.157589629E-1,-7.391469181E-2
5.229748540E-1,-2.376265824E-1,1.084285825E-1,-8.124507964E-2
5.252217420E-1,-2.437352389E-1,8.399397135E-2,-9.239336848E-2
5.274829110E-1,-2.509129047E-1,4.489859566E-2,-1.108720452E-1
5.297284560E-1,-2.545780838E-1,1.924225502E-2,-1.304197311E-1
5.319755260E-1,-2.507601976E-1,2.138028387E-3,-1.548543423E-1
5.342396860E-1,-2.457205504E-1,-1.374446787E-2,-1.731802970E-1
5.364935320E-1,-2.394591719E-1,-3.084869497E-2,-1.915062517E-1
5.387493300E-1,-2.283108830E-1,-3.695734590E-2,-2.098322064E-1
5.409997580E-1,-2.171625942E-1,-3.451388702E-2,-2.255619913E-1
5.432531760E-1,-1.789835095E-1,-3.313944116E-2,-2.290744632E-1
5.455066550E-1,-9.040805697E-2,-3.191770986E-2,-2.125810981E-1
5.477601950E-1,-1.282817032E-2,-2.443460980E-3,-2.096794993E-1
5.500139180E-1,1.832595794E-3,5.146539584E-2,-2.313652188E-1
5.522665420E-1,6.108652451E-4,8.323039114E-2,-2.678644061E-1
5.545197770E-1,1.298088674E-2,7.467827946E-2,-3.080287874E-1
5.567732560E-1,3.527746722E-2,4.184427112E-2,-3.446807265E-1
5.590266740E-1,5.146539584E-2,2.962696366E-2,-3.726277947E-1
5.612802760E-1,5.513058975E-2,4.917465150E-2,-3.982841372E-1
5.635332650E-1,4.520402849E-2,8.475755155E-2,-4.213443100E-1
5.657872340E-1,3.772092983E-2,1.043052375E-1,-4.311181605E-1
5.680405290E-1,3.161227703E-2,1.018617824E-1,-4.372268021E-1
5.702937650E-1,2.916881628E-2,9.819658846E-2,-4.360050559E-1
5.725468170E-1,2.550362423E-2,9.804387391E-2,-4.227187634E-1
5.748001740E-1,2.290744707E-2,1.017090604E-1,-4.080579877E-1
5.770534090E-1,1.679879427E-2,1.090394482E-1,-3.885102868E-1
5.793068880E-1,6.872233935E-3,1.114829108E-1,-3.640756905E-1
5.815601840E-1,-6.719517522E-3,1.078177169E-1,-3.361285925E-1
5.838134190E-1,-1.298088674E-2,1.039998084E-1,-3.057380617E-1
5.860676300E-1,-2.412917651E-2,9.300423414E-2,-2.729040384E-1
5.883203160E-1,-3.772092983E-2,8.445212245E-2,-2.435825169E-1
5.905738560E-1,-5.253441259E-2,8.552113175E-2,-2.131919712E-1
5.928264190E-1,-7.605272532E-2,1.026253626E-1,-1.815796942E-1
5.950781270E-1,-9.590584040E-2,1.050688252E-1,-1.511891484E-1
5.973337420E-1,-1.204931661E-1,8.292495459E-2,-1.256855279E-1
5.995869780E-1,-1.513418704E-1,6.582073122E-2,-9.911288321E-2
6.018374060E-1,-1.771509200E-1,4.489859566E-2,-7.864890248E-2
6.040817910E-1,-2.054034323E-1,2.412917651E-2,-5.818491429E-2
6.063471110E-1,-2.338086665E-1,5.650503561E-3,-3.756821156E-2
6.086005290E-1,-2.571742535E-1,-1.267545391E-2,-1.954768784E-2
6.108568760E-1,-2.866485119E-1,-2.993239649E-2,-1.374446787E-3
6.131066940E-1,-3.100140989E-1,-4.092797264E-2,1.664607786E-2
6.153606610E-1,-3.323107064E-1,-5.192354694E-2,3.115412779E-2
6.176138950E-1,-3.556762934E-1,-5.940664560E-2,4.810563847E-2
6.198673740E-1,-3.778201640E-1,-6.795875728E-2,6.750060618E-2
6.221218300E-1,-3.950771093E-1,-7.651086897E-2,8.200865984E-2
6.243739660E-1,-4.159992337E-1,-9.376781434E-2,9.651670605E-2
6.266284820E-1,-4.308127165E-1,-1.145372316E-1,1.134682223E-1
6.288819010E-1,-4.442517459E-1,-1.377501190E-1,1.278235465E-1
6.311207920E-1,-4.566217661E-1,-1.611157060E-1,1.398881376E-1
6.333859910E-1,-4.676173329E-1,-1.867720485E-1,1.543961912E-1
6.356348310E-1,-4.712825418E-1,-2.124283910E-1,1.629483104E-1
6.378988700E-1,-4.711298347E-1,-2.246456891E-1,1.701259762E-1
6.401487480E-1,-4.723515511E-1,-2.344195396E-1,1.725694388E-1
6.424021040E-1,-4.686863720E-1,-2.503020465E-1,1.689042449E-1
6.446537520E-1,-4.624249935E-1,-2.564106882E-1,1.615738571E-1
6.469070480E-1,-4.512766898E-1,-2.588541508E-1,1.469130963E-1
6.491603440E-1,-4.378376603E-1,-2.441933751E-1,1.262963861E-1
6.514140680E-1,-4.193589985E-1,-2.281581759E-1,1.009454802E-1
6.536674860E-1,-3.909537494E-1,-2.086104751E-1,7.055493444E-2
6.559212700E-1,-3.588833213E-1,-1.962404549E-1,3.298672289E-2
6.581752360E-1,-3.182607889E-1,-1.742493063E-1,-7.024950348E-3
6.604272500E-1,-2.751947939E-1,-1.386664063E-1,-5.054909736E-2
6.626809120E-1,-2.258674204E-1,-1.067487001E-1,-9.285151958E-2
6.649308520E-1,-1.716531366E-1,-8.216137439E-2,-1.412625909E-1
6.671747490E-1,-1.101084575E-1,-5.513058975E-2,-1.908953935E-1
6.694404360E-1,-4.230241850E-2,-2.565634064E-2,-2.391537428E-1
6.716943420E-1,3.649919853E-2,1.527163113E-4,-2.898555696E-1
6.739512390E-1,1.091921628E-1,3.084869497E-2,-3.381139040E-1
6.761990420E-1,1.670716405E-1,7.620543987E-2,-3.767511547E-1
6.784381160E-1,2.200642079E-1,1.130100712E-1,-4.105014503E-1
6.806918390E-1,2.767219543E-1,1.302670091E-1,-4.356996417E-1
6.829488580E-1,3.346014321E-1,1.314887404E-1,-4.547891617E-1
6.852134460E-1,3.912591934E-1,1.316414624E-1,-4.618141353E-1
6.874710750E-1,4.355469346E-1,1.426370293E-1,-4.627304375E-1
6.897239430E-1,4.786129296E-1,1.537853181E-1,-4.514294267E-1
6.919759570E-1,5.155702829E-1,1.574505121E-1,-4.292855561E-1
6.942290090E-1,5.462662578E-1,1.635591686E-1,-3.985895813E-1
6.964812680E-1,5.757405162E-1,1.684460938E-1,-3.593414724E-1
6.987348690E-1,5.989533663E-1,1.782199293E-1,-3.164281845E-1
7.009848690E-1,6.148358583E-1,1.831068546E-1,-2.722931802E-1
7.032297430E-1,6.183483601E-1,1.928807050E-1,-2.258674204E-1
7.054945750E-1,6.108652353E-1,2.049452960E-1,-1.843285859E-1
7.077483590E-1,5.960517526E-1,2.061670274E-1,-1.453859210E-1
7.100057440E-1,5.700899959E-1,2.035708427E-1,-1.017090604E-1
7.122553780E-1,5.404630303E-1,1.962404549E-1,-6.643159688E-2
7.145080640E-1,5.035057068E-1,1.777617931E-1,-3.375030309E-2
7.167611760E-1,4.641048610E-1,1.594358236E-1,1.527163113E-4
7.190147780E-1,4.208861589E-1,1.385136992E-1,2.901609987E-2
7.212683790E-1,3.790418804E-1,1.175915599E-1,5.681046844E-2
7.235216740E-1,3.420845270E-1,9.804387391E-2,8.582656831E-2
7.257746030E-1,3.002402782E-1,8.200865984E-2,1.136209369E-1
7.280250920E-1,2.620611787E-1,6.368270516E-2,1.426370293E-1
7.302695980E-1,2.275473028E-1,5.009094998E-2,1.740965992E-1
7.325344920E-1,1.905899495E-1,3.161227703E-2,2.031126916E-1
7.347883980E-1,1.511891484E-1,1.084285788E-2,2.296853364E-1
7.370446850E-1,1.154535338E-1,-1.130100712E-2,2.623666227E-1
7.392951130E-1,7.605272532E-2,-3.466660157E-2,2.912299931E-1
7.415485920E-1,4.153883830E-2,-5.910121277E-2,3.190243840E-1
7.438017660E-1,1.069014147E-2,-6.414084882E-2,3.494149148E-1
7.460553670E-1,-1.649336144E-2,-7.269296050E-2,3.735440969E-1
7.483090290E-1,-3.481931984E-2,-9.605856240E-2,3.941608071E-1
7.505617760E-1,-4.214970022E-2,-1.192714423E-1,4.098905921E-1
7.528156210E-1,-4.841107130E-2,-1.339322031E-1,4.231768847E-1
7.550701370E-1,-5.085453019E-2,-1.424843222E-1,4.353941977E-1
7.573217840E-1,-4.963280261E-2,-1.498146951E-1,4.353941977E-1
7.595752020E-1,-4.703662544E-2,-1.522581577E-1,4.329507351E-1
7.618281930E-1,-4.337143153E-2,-1.534798890E-1,4.231768847E-1
7.640800860E-1,-3.726277873E-2,-1.498146951E-1,4.086688459E-1
7.663273400E-1,-3.344487399E-2,-1.498146951E-1,3.842342496E-1
7.685883870E-1,-2.840523422E-2,-1.459967941E-1,3.524692357E-1
7.708420490E-1,-2.229658142E-2,-1.435533315E-1,3.196352422E-1
7.730974210E-1,-1.725694351E-2,-1.386664063E-1,2.854267955E-1
7.753487030E-1,-1.466076635E-2,-1.350012124E-1,2.489275932E-1
7.776019380E-1,-4.734205548E-3,-1.348485053E-1,2.073887438E-1
7.798552340E-1,5.192354787E-3,-1.360702366E-1,1.660026312E-1
7.821068810E-1,2.244929783E-2,-1.395827085E-1,1.307251602E-1
7.843501070E-1,4.108068720E-2,-1.408044398E-1,9.300423414E-2
7.866156100E-1,6.582073122E-2,-1.444696337E-1,6.017022580E-2
7.888686000E-1,8.933904022E-2,-1.492038369E-1,2.977968007E-2
7.911250690E-1,1.189660057E-1,-1.516472995E-1,-6.108652451E-4
7.933754960E-1,1.498146951E-1,-1.551597714E-1,-2.855795063E-2
7.956288530E-1,1.818851233E-1,-1.588249654E-1,-5.513058975E-2
7.978820890E-1,2.115120888E-1,-1.649336219E-1,-7.574728876E-2
8.001324550E-1,2.448042482E-1,-1.733330190E-1,-9.147707373E-2
8.023765960E-1,2.744311988E-1,-1.867720485E-1,-1.059851199E-1
8.046418550E-1,3.065016270E-1,-1.928807050E-1,-1.094975919E-1
8.068955790E-1,3.324634135E-1,-2.075414658E-1,-1.105666086E-1
8.091522310E-1,3.558290005E-1,-2.234239578E-1,-1.067487001E-1
8.114024760E-1,3.755294085E-1,-2.293798923E-1,-1.018617824E-1
8.136557720E-1,3.940080702E-1,-2.379320115E-1,-9.315694869E-2
8.159088850E-1,4.051563740E-1,-2.464841306E-1,-8.093964309E-2
8.181625470E-1,4.088215530E-1,-2.415972054E-1,-6.872233748E-2
8.204164520E-1,4.050036669E-1,-2.354885489E-1,-5.894849449E-2
8.226690160E-1,3.950771093E-1,-2.258674204E-1,-4.917465150E-2
8.249226170E-1,3.778201640E-1,-2.234239578E-1,-3.711006418E-2
8.271754850E-1,3.605632186E-1,-2.283108830E-1,-2.748893574E-2
8.294286600E-1,3.396410644E-1,-2.405281961E-1,-1.542434748E-2
8.316821380E-1,3.138320148E-1,-2.528982162E-1,-3.359758761E-3
8.339360450E-1,2.855795026E-1,-2.663372457E-1,6.108652335E-3
8.361896460E-1,2.547308207E-1,-2.809980214E-1,1.328631863E-2
8.384439190E-1,2.215913683E-1,-2.897028327E-1,1.664607786E-2
8.406957500E-1,1.895209402E-1,-2.970332205E-1,1.404990070E-2
8.429482530E-1,1.588249654E-1,-3.068070710E-1,1.374446787E-2
8.451984360E-1,1.291979998E-1,-3.142901659E-1,1.114829071E-2
8.474560660E-1,1.021672115E-1,-3.240640163E-1,6.108652335E-3
8.497093010E-1,7.391469181E-2,-3.375030458E-1,3.359758761E-3
8.519641220E-1,4.566217586E-2,-3.572034538E-1,-1.679879380E-3
8.542173570E-1,2.107485011E-2,-3.706424832E-1,-1.038470957E-2
8.564707740E-1,6.414085161E-3,-3.816380501E-1,-1.908953860E-2
8.587228490E-1,-9.621127509E-3,-3.950771093E-1,-3.023782931E-2
8.609758400E-1,-1.939497143E-2,-4.036292136E-1,-4.138612002E-2
8.632287090E-1,-2.183843218E-2,-4.170682430E-1,-5.482515693E-2
8.654808460E-1,-1.069014147E-2,-4.182899892E-1,-6.444628537E-2
8.677358510E-1,4.581489484E-4,-4.121813178E-1,-7.177666575E-2
8.699895130E-1,1.267545391E-2,-4.048509300E-1,-7.284568250E-2
8.722436630E-1,3.359758854E-2,-3.900374472E-1,-7.269296050E-2
8.744974480E-1,4.703662544E-2,-3.717114925E-1,-7.009678334E-2
8.767497680E-1,6.551529467E-2,-3.509420753E-1,-6.505715102E-2
8.790029420E-1,8.261952549E-2,-3.277291954E-1,-5.513058975E-2
8.812548340E-1,9.483683109E-2,-3.020728528E-1,-4.520402849E-2
8.835045280E-1,1.046106741E-1,-2.774855494E-1,-3.649919853E-2
8.857627070E-1,1.044579595E-1,-2.518292069E-1,-2.901609987E-2
8.880163080E-1,1.044579595E-1,-2.261728644E-1,-1.679879427E-2
8.902710680E-1,9.453139454E-2,-2.054034323E-1,-5.803219974E-3
8.925242430E-1,7.956519723E-2,-1.846340150E-1,7.635815535E-3
8.947763780E-1,5.482515693E-2,-1.603521258E-1,2.336559631E-2
8.970298580E-1,3.130684420E-2,-1.371392459E-1,4.046982154E-2
8.992827870E-1,4.581489484E-4,-1.090394482E-1,6.352998316E-2
9.015351680E-1,-3.298672289E-2,-7.360926270E-2,9.025534242E-2
9.037868770E-1,-6.643159688E-2,-4.444044828E-2,1.206458881E-1
9.060432250E-1,-1.059851199E-1,-1.389718428E-2,1.534798890E-1
9.082970700E-1,-1.455386430E-1,1.038470957E-2,1.936442852E-1
9.105516480E-1,-1.876883507E-1,3.481931984E-2,2.325869352E-1
9.128027470E-1,-2.260201424E-1,4.932736978E-2,2.725986242E-1
9.150566540E-1,-2.643519342E-1,6.643159688E-2,3.103195429E-1
9.173098280E-1,-2.952006161E-1,7.849618047E-2,3.480404615E-1
9.195636120E-1,-3.236058652E-1,9.071348608E-2,3.845396638E-1
9.218133670E-1,-3.471241891E-1,1.017090604E-1,4.198171496E-1
9.240571420E-1,-3.681990206E-1,1.162171140E-1,4.526511431E-1
9.263231940E-1,-3.856086731E-1,1.308778822E-1,4.831944108E-1
9.285717900E-1,-4.004221559E-1,1.467603743E-1,5.111414790E-1
9.308332640E-1,-4.103487432E-1,1.601994038E-1,5.343543887E-1
9.330827150E-1,-4.178318381E-1,1.663080603E-1,5.514585972E-1
9.353379030E-1,-4.240931869E-1,1.759291887E-1,5.624541640E-1
9.375899790E-1,-4.289801121E-1,1.795943826E-1,5.623014569E-1
9.398431530E-1,-4.338670373E-1,1.747074574E-1,5.525276065E-1
9.420969980E-1,-4.314235747E-1,1.698205322E-1,5.390886068E-1
9.443506600E-1,-4.324925840E-1,1.687515229E-1,5.146539807E-1
9.466047490E-1,-4.262312353E-1,1.614211351E-1,4.769330323E-1
9.488564590E-1,-4.201225638E-1,1.650863290E-1,4.329507351E-1
9.511103660E-1,-4.051563740E-1,1.701259762E-1,3.817907870E-1
9.533621970E-1,-3.915646076E-1,1.762346178E-1,3.233004212E-1
9.556119520E-1,-3.765984178E-1,1.873829067E-1,2.611449063E-1
9.578703740E-1,-3.581197560E-1,2.009746730E-1,1.966986060E-1
9.601237920E-1,-3.382666409E-1,2.205223590E-1,1.308778822E-1
9.623787370E-1,-3.184134960E-1,2.377792895E-1,5.787948146E-2
9.646281270E-1,-2.985603809E-1,2.464841306E-1,-1.404990070E-2
9.668706810E-1,-2.774855494E-1,2.489275932E-1,-9.071348608E-2
9.691364280E-1,-2.576324046E-1,2.380847335E-1,-1.626428664E-1
9.713901500E-1,-2.376265824E-1,2.211332172E-1,-2.321287990E-1
9.736470470E-1,-2.153300047E-1,2.052507252E-1,-2.956587672E-1
9.758974140E-1,-1.954768747E-1,1.895209402E-1,-3.529273868E-1
9.781505260E-1,-1.756237596E-1,1.736384481E-1,-4.089742899E-1
9.804036400E-1,-1.569923609E-1,1.650863290E-1,-4.613559842E-1
9.826583390E-1,-1.383609772E-1,1.652390510E-1,-5.088507533E-1
9.849101710E-1,-1.197295859E-1,1.689042449E-1,-5.551238060E-1
9.871642610E-1,-1.061378345E-1,1.861611903E-1,-5.989533663E-1
9.894171900E-1,-9.636399150E-2,2.020436823E-1,-6.366742849E-1
9.916707910E-1,-9.132435173E-2,2.241875380E-1,-6.719517708E-1
9.939240860E-1,-8.521570265E-2,2.474004179E-1,-7.011205554E-1
9.961777490E-1,-8.521570265E-2,2.693915665E-1,-7.267768979E-1
9.984321440E-1,-8.399397135E-2,2.903137207E-1,-7.449501753E-1
1.000685013E0,-8.277224004E-2,3.086396754E-1,-7.594582438E-1
1.002934341E0,-8.292495459E-2,3.294090927E-1,-7.667886019E-1
1.005178969E0,-8.536841720E-2,3.526219726E-1,-7.690793276E-1
1.007444045E0,-8.796459436E-2,3.758348525E-1,-7.690793276E-1
1.009694107E0,-9.544769675E-2,4.002694488E-1,-7.593054771E-1
1.011940932E0,-1.029307917E-1,4.271475375E-1,-7.446447611E-1
1.014204301E0,-1.091921628E-1,4.662429094E-1,-7.273877859E-1
1.016457841E0,-1.070541367E-1,5.261076689E-1,-7.064656615E-1
1.018715165E0,-9.987647086E-2,6.032294035E-1,-6.780604124E-1
1.020964310E0,-9.040805697E-2,6.814202070E-1,-6.435465217E-1
1.023217544E0,-7.971791178E-2,7.620543838E-1,-6.065891981E-1
1.025470718E0,-7.131851465E-2,8.402451277E-1,-5.647448897E-1
1.027724319E0,-6.062837690E-2,9.308059216E-1,-5.229006410E-1
1.029977616E0,-4.993823543E-2,1.016327024E0,-4.847215712E-1
1.032231217E0,-4.169155285E-2,1.099404693E0,-4.428772926E-1
1.034484696E0,-3.833179548E-2,1.172708511E0,-4.048509300E-1
1.036739091E0,-3.481931984E-2,1.238682032E0,-3.678936064E-1
1.038991166E0,-3.268129006E-2,1.295034289E0,-3.323107064E-1
1.041244462E0,-2.672535367E-2,1.337794900E0,-2.967278063E-1
1.043497574E0,-2.076941915E-2,1.364672899E0,-2.649627924E-1
1.045750320E0,-1.099557430E-2,1.382998943E0,-2.342668176E-1
1.048003922E0,0.000000000E0,1.395063519E0,-2.060143054E-1
1.050257769E0,1.343903504E-2,1.417207360E0,-1.803579628E-1
1.052511675E0,3.176499158E-2,1.444085479E0,-1.568396538E-1
1.054765825E0,4.642575979E-2,1.466076612E0,-1.348485053E-1
1.057018082E0,6.352998316E-2,1.486845970E0,-1.211040318E-1
1.059271256E0,7.834346592E-2,1.502728462E0,-1.101084575E-1
1.061524430E0,9.666942805E-2,1.511280656E0,-1.001819000E-1
1.063777971E0,1.151480973E-1,1.508837104E0,-9.392052889E-2
1.066031023E0,1.348485053E-1,1.503950238E0,-9.132435173E-2
1.068284990E0,1.510364264E-1,1.483180761E0,-9.254608303E-2
1.070539568E0,1.695151031E-1,1.458898902E0,-9.621127695E-2
1.072792559E0,1.857030392E-1,1.423316002E0,-9.743300825E-2
1.075044695E0,2.054034323E-1,1.386664152E0,-9.743300825E-2
1.077297746E0,2.252565622E-1,1.383151650E0,-9.728029370E-2
1.079547685E0,2.486221492E-1,1.394147158E0,-9.957103431E-2
1.081788713E0,2.695443034E-1,1.399034142E0,-1.006400511E-1
1.084046893E0,2.892446816E-1,1.389260292E0,-1.043052375E-1
1.086311602E0,3.089450896E-1,1.370934367E0,-1.114829108E-1
1.088568560E0,3.312416673E-1,1.355051875E0,-1.139263660E-1
1.090822161E0,3.546072841E-1,1.341765523E0,-1.137736514E-1
1.093071550E0,3.817907870E-1,1.319774389E0,-1.113301888E-1
1.095324908E0,4.101960063E-1,1.285565853E0,-1.050688252E-1
1.097577776E0,4.373795092E-1,1.246470571E0,-8.796459436E-2
1.099831317E0,4.659374654E-1,1.200044751E0,-7.086037099E-2
1.102084979E0,4.931209683E-1,1.138805509E0,-4.535674304E-2
1.104338458E0,5.203045011E-1,1.072832108E0,-1.847867295E-2
1.106592181E0,5.413793325E-1,1.004415154E0,4.581489135E-3
1.108846209E0,5.650503635E-1,9.370672703E-1,2.657263726E-2
1.111098407E0,5.861251950E-1,8.845328689E-1,4.230241850E-2
1.113351825E0,6.070473194E-1,8.637634516E-1,5.329799280E-2
1.115604510E0,6.230825782E-1,8.564330935E-1,5.833763257E-2
1.117853413E0,6.377432942E-1,8.686503768E-1,6.093380973E-2
1.120098590E0,6.525567770E-1,8.859072924E-1,6.230825558E-2
1.122364947E0,6.698137522E-1,8.993463516E-1,6.001751125E-2
1.124619159E0,6.832527518E-1,9.042332768E-1,4.535674304E-2
1.126876239E0,7.018841505E-1,9.127854109E-1,2.107485011E-2
1.129124775E0,7.141014934E-1,9.263771176E-1,-4.428773187E-3
1.131378498E0,7.252497673E-1,9.422596693E-1,-3.604105115E-2
1.133631793E0,7.400632501E-1,9.595165849E-1,-7.254024595E-2
1.135885395E0,7.536550164E-1,9.802860022E-1,-1.211040318E-1
1.138138630E0,7.586946487E-1,9.999864101E-1,-1.783726513E-1
1.140391865E0,7.623597980E-1,1.018312335E0,-2.405281961E-1
1.142646808E0,7.637342811E-1,1.030682325E0,-3.101668358E-1
1.144896625E0,7.638869882E-1,1.029460669E0,-3.845396638E-1
1.147138934E0,7.617489696E-1,1.021061301E0,-4.639521539E-1
1.149404742E0,7.533495426E-1,1.002735257E0,-5.470298529E-1
1.151658404E0,7.486153841E-1,9.821186066E-1,-6.325509548E-1
1.153915424E0,7.440338731E-1,9.503536224E-1,-7.218900323E-1
1.156165669E0,7.368562222E-1,9.137017131E-1,-8.037459254E-1
1.158419026E0,7.310529947E-1,8.698720932E-1,-8.820894361E-1
1.160672688E0,7.264714837E-1,8.185594082E-1,-9.531024694E-1
1.162925801E0,7.243334651E-1,7.770205736E-1,-1.016785145E0
1.165171834E0,7.220427394E-1,7.452555895E-1,-1.079093456E0
1.167419393E0,7.221954465E-1,7.244861722E-1,-1.130406141E0
1.169685261E0,7.284567952E-1,7.270823717E-1,-1.184162259E0
1.171939961E0,7.347181439E-1,7.331910133E-1,-1.236544013E0
1.174192525E0,7.470881939E-1,7.431175709E-1,-1.284038782E0
1.176433370E0,7.669413090E-1,7.553348541E-1,-1.324203134E0
1.178699300E0,7.829765081E-1,7.603744864E-1,-1.359480619E0
1.180950337E0,7.990117669E-1,7.628179789E-1,-1.394758105E0
1.183195637E0,8.139779568E-1,7.640396953E-1,-1.425148606E0
1.185458759E0,8.225300312E-1,7.605272532E-1,-1.454470158E0
1.187712117E0,8.287914395E-1,7.544185519E-1,-1.478752017E0
1.189969136E0,8.362745047E-1,7.495316267E-1,-1.504408360E0
1.192219320E0,8.352054954E-1,7.422012687E-1,-1.522734284E0
1.194472433E0,8.315402865E-1,7.324274182E-1,-1.542281985E0
1.196726095E0,8.254316449E-1,7.226535678E-1,-1.558317184E0
1.198980063E0,8.156577945E-1,7.128797174E-1,-1.568091035E0
1.201228659E0,7.996225953E-1,6.994407177E-1,-1.575574160E0
1.203474569E0,7.812966704E-1,6.750060916E-1,-1.576948643E0
1.205746602E0,7.567093372E-1,6.528622508E-1,-1.574810624E0
1.207992880E0,7.260133624E-1,6.272059083E-1,-1.569007397E0
1.210249411E0,6.853908300E-1,5.989533663E-1,-1.561982393E0
1.212497641E0,6.398813725E-1,5.671883821E-1,-1.552666783E0
1.214753988E0,5.858197808E-1,5.267185569E-1,-1.544572830E0
1.217004049E0,5.244278312E-1,4.789183438E-1,-1.535257101E0
1.219246297E0,4.579962194E-1,4.286746979E-1,-1.528537512E0
1.221512228E0,3.854559660E-1,3.637702465E-1,-1.518152833E0
1.223765829E0,3.142901659E-1,2.878702581E-1,-1.509142637E0
1.226019553E0,2.455678284E-1,2.021963894E-1,-1.497536182E0
1.228259849E0,1.879937798E-1,1.128573567E-1,-1.484860659E0
1.230526145E0,1.327104717E-1,2.229658142E-2,-1.472032547E0
1.232779868E0,8.491026610E-2,-6.459899992E-2,-1.461647868E0
1.235037436E0,3.955352306E-2,-1.307251602E-1,-1.453553796E0
1.237286155E0,-3.359758761E-3,-1.661553532E-1,-1.449125051E0
1.239539573E0,-4.031710699E-2,-1.773036420E-1,-1.450499535E0
1.241792563E0,-6.994406879E-2,-1.663080603E-1,-1.456760883E0
1.244046287E0,-9.957103431E-2,-1.247692257E-1,-1.468978167E0
1.246300924E0,-1.255328059E-1,-6.734789163E-2,-1.479973793E0
1.248552512E0,-1.417207420E-1,3.665191587E-3,-1.499368787E0
1.250806785E0,-1.518000066E-1,8.185594529E-2,-1.522428870E0
1.253060508E0,-1.643227488E-1,1.626428664E-1,-1.546558142E0
1.255313377E0,-1.744020283E-1,2.506074607E-1,-1.573283434E0
1.257566306E0,-1.745547503E-1,3.399465084E-1,-1.603368521E0
1.259819114E0,-1.785253733E-1,4.231768847E-1,-1.636202574E0
1.262073814E0,-1.762346178E-1,5.050328374E-1,-1.672549009E0
1.264328881E0,-1.800525337E-1,5.845980644E-1,-1.715004206E0
1.266579918E0,-1.850921661E-1,6.554583907E-1,-1.752572417E0
1.268833275E0,-1.925752759E-1,7.179193497E-1,-1.796401978E0
1.271087059E0,-2.049452960E-1,7.704538107E-1,-1.839009762E0
1.273338585E0,-2.160935849E-1,8.097018600E-1,-1.879174232E0
1.275588219E0,-2.260201424E-1,8.329147696E-1,-1.912160993E0
1.277846397E0,-2.345722616E-1,8.402451277E-1,-1.945147634E0
1.280096642E0,-2.394591719E-1,8.378016949E-1,-1.975690961E0
1.282341514E0,-2.454151064E-1,8.194757104E-1,-1.996613026E0
1.284606468E0,-2.466368377E-1,7.925976515E-1,-2.005165100E0
1.286861412E0,-2.513710558E-1,7.657195926E-1,-2.013870001E0
1.289117759E0,-2.550362349E-1,7.388415337E-1,-2.017687798E0
1.291366845E0,-2.635883391E-1,7.156286240E-1,-2.016466141E0
1.293619896E0,-2.709187269E-1,6.948592067E-1,-2.017840624E0
1.295873253E0,-2.794708610E-1,6.777549982E-1,-2.019215107E0
1.298126672E0,-2.868012190E-1,6.580545902E-1,-2.016924381E0
1.300379846E0,-2.904664278E-1,6.433938146E-1,-2.013259172E0
1.302633264E0,-2.953533530E-1,6.275113225E-1,-2.003638029E0
1.304887048E0,-2.977968156E-1,6.128505468E-1,-1.995085835E0
1.307141443E0,-3.002402782E-1,6.055201888E-1,-1.982868552E0
1.309393579E0,-2.965750694E-1,5.896376967E-1,-1.973247409E0
1.311646753E0,-2.915354371E-1,5.699372888E-1,-1.959808469E0
1.313899865E0,-2.803871334E-1,5.540547967E-1,-1.946369410E0
1.316152307E0,-2.643519342E-1,5.369505286E-1,-1.930486917E0
1.318401757E0,-2.521346211E-1,5.222898126E-1,-1.915826082E0
1.320659752E0,-2.360994220E-1,5.088507533E-1,-1.901012659E0
1.322913170E0,-2.139555514E-1,5.088507533E-1,-1.868025899E0
1.325162560E0,-1.785253733E-1,5.271766782E-1,-1.804190516E0
1.327405176E0,-1.392772794E-1,5.564982295E-1,-1.738064289E0
1.329657740E0,-8.781187981E-2,6.029239893E-1,-1.660637140E0
1.331915308E0,-2.428189293E-2,6.653849483E-1,-1.563662291E0
1.334183740E0,6.505715102E-2,7.802276611E-1,-1.425912142E0
1.336437097E0,2.374738604E-1,1.005178809E0,-1.197143197E0
1.338690393E0,5.812382698E-1,1.482111812E0,-7.991644740E-1
1.340940638E0,1.179580808E0,2.346791506E0,-2.495384514E-1
1.343194665E0,1.888031721E0,3.425579548E0,2.857322097E-1
1.345446374E0,2.275931120E0,4.072638512E0,5.514585972E-1
1.347700037E0,2.269669771E0,4.097073078E0,5.319108963E-1
1.349953882E0,2.097253084E0,3.805995941E0,3.822489381E-1
1.352207483E0,1.884824753E0,3.353497505E0,2.000583708E-1
1.354460901E0,1.682475567E0,2.786003590E0,2.229658142E-2
1.356714319E0,1.497688890E0,2.144136906E0,-1.395827085E-1
1.358968531E0,1.337489486E0,1.469130874E0,-2.892446816E-1
1.361219569E0,1.208138704E0,8.087855577E-1,-4.216497242E-1
1.363465480E0,1.103069901E0,2.255619913E-1,-5.317581892E-1
1.365726832E0,1.018465042E0,-2.415972054E-1,-6.192646623E-1
1.367980494E0,9.531024694E-1,-5.630650520E-1,-6.878342628E-1
1.370236293E0,9.132435322E-1,-7.525860071E-1,-7.374670506E-1
1.372487636E0,8.827002645E-1,-8.333728909E-1,-7.843509912E-1
1.374740749E0,8.533787727E-1,-8.443684578E-1,-8.272642493E-1
1.376994472E0,8.445212245E-1,-7.709119320E-1,-8.710938692E-1
1.379248560E0,8.417723179E-1,-6.278167367E-1,-9.059131742E-1
1.381497401E0,8.510879874E-1,-4.382958114E-1,-9.346238375E-1
1.383743616E0,8.923214078E-1,-2.046398520E-1,-9.604328871E-1
1.386007044E0,9.457721114E-1,4.367686436E-2,-9.812023044E-1
1.388261195E0,1.001666307E0,2.687807083E-1,-9.996809959E-1
1.390516810E0,1.059087634E0,4.521929920E-1,-1.017090678E0
1.392767665E0,1.110400319E0,5.904012322E-1,-1.029613376E0
1.395021328E0,1.143387079E0,6.711881757E-1,-1.041372538E0
1.397275662E0,1.175457478E0,6.982190013E-1,-1.054506183E0
1.399527554E0,1.190270901E0,6.811147332E-1,-1.063058257E0
1.401779995E0,1.199128509E0,6.186537743E-1,-1.070541382E0
1.404030910E0,1.198212147E0,5.270239711E-1,-1.073290229E0
1.406287686E0,1.189812779E0,4.218024611E-1,-1.078635335E0
1.408541348E0,1.182940602E0,2.935207486E-1,-1.087645531E0
1.410795254E0,1.174693823E0,1.553124934E-1,-1.100321054E0
1.413048184E0,1.159116745E0,1.343903504E-2,-1.115592599E0
1.415298916E0,1.151022792E0,-1.258382350E-1,-1.131933331E0
1.417541164E0,1.146594048E0,-2.579378486E-1,-1.145830512E0
1.419807399E0,1.146899462E0,-3.790418804E-1,-1.158353209E0
1.422061000E0,1.149801135E0,-4.865541756E-1,-1.172250390E0
1.424317775E0,1.152549982E0,-5.867360830E-1,-1.185994864E0
1.426567837E0,1.159116745E0,-6.772968173E-1,-1.199586630E0
1.428820828E0,1.165530920E0,-7.615962625E-1,-1.213331103E0
1.431076078E0,1.175610185E0,-8.361217976E-1,-1.223257661E0
1.433329374E0,1.200502872E0,-8.984300494E-1,-1.229366302E0
1.435581510E0,1.227686405E0,-9.485210180E-1,-1.236696720E0
1.437834500E0,1.258687854E0,-9.802860022E-1,-1.239140153E0
1.440087796E0,1.291980028E0,-1.001055479E0,-1.242652655E0
1.442341398E0,1.320385218E0,-1.009607553E0,-1.242499948E0
1.444591825E0,1.354746342E0,-1.009454846E0,-1.241125464E0
1.446835354E0,1.385595083E0,-9.984592199E-1,-1.238376617E0
1.449101407E0,1.416291118E0,-9.703594446E-1,-1.229519010E0
1.451355985E0,1.445612550E0,-9.347765446E-1,-1.220661521E0
1.453611600E0,1.466534734E0,-9.103419185E-1,-1.208291411E0
1.455861661E0,1.486082435E0,-8.834638596E-1,-1.198364854E0
1.458114407E0,1.503186703E0,-8.614727259E-1,-1.177442789E0
1.460367886E0,1.496925235E0,-8.468119502E-1,-1.155451655E0
1.462621488E0,1.477224827E0,-8.407033086E-1,-1.134834886E0
1.464874602E0,1.447597861E0,-8.335255980E-1,-1.115439892E0
1.467128813E0,1.411862254E0,-8.213083148E-1,-1.099710107E0
1.469382842E0,1.363756657E0,-8.127561808E-1,-1.086576581E0
1.471635100E0,1.303280950E0,-7.982481718E-1,-1.064890862E0
1.473888152E0,1.231657028E0,-7.776314616E-1,-1.045648575E0
1.476141325E0,1.160185814E0,-7.458664775E-1,-1.029002547E0
1.478395049E0,1.078635335E0,-6.971499324E-1,-1.010982037E0
1.480645232E0,9.946413636E-1,-6.311765313E-1,-9.905179739E-1
1.482887785E0,9.082038999E-1,-5.531384945E-1,-9.651671052E-1
1.485151701E0,8.203920126E-1,-4.602869749E-1,-9.555459619E-1
1.487406523E0,7.228062749E-1,-3.539963961E-1,-9.534079432E-1
1.489652494E0,6.262896061E-1,-2.527455091E-1,-9.523389339E-1
1.491916227E0,5.386304259E-1,-1.513418704E-1,-9.502009153E-1
1.494168180E0,4.583016634E-1,-6.704246253E-2,-9.552405477E-1
1.496425016E0,3.743076921E-1,-1.069014193E-3,-9.775370955E-1
1.498674896E0,2.843577862E-1,4.276056588E-2,-1.012050986E0
1.500928314E0,1.896736622E-1,4.886921868E-2,-1.054200649E0
1.503183380E0,1.036943719E-1,1.572977938E-2,-1.102306366E0
1.505436370E0,3.252857551E-2,-6.612616032E-2,-1.155604362E0
1.507688934E0,-1.863138936E-2,-1.762346178E-1,-1.212414742E0
1.509941863E0,-5.635231733E-2,-2.851213515E-1,-1.269072533E0
1.512195099E0,-1.015563458E-1,-3.669773042E-1,-1.325883031E0
1.514448761E0,-1.505782902E-1,-4.268420935E-1,-1.383762479E0
1.516701995E0,-1.983784884E-1,-4.685336351E-1,-1.441489220E0
1.518954741E0,-2.338086665E-1,-4.990769029E-1,-1.497994304E0
1.521205169E0,-2.632829249E-1,-5.222898126E-1,-1.542129278E0
1.523448394E0,-2.962696552E-1,-5.455026627E-1,-1.572978020E0
1.525707671E0,-3.245221674E-1,-5.821545720E-1,-1.586722493E0
1.527958160E0,-3.390302062E-1,-6.470590234E-1,-1.583362699E0
1.530225310E0,-3.425426781E-1,-7.472409010E-1,-1.575116038E0
1.532476897E0,-3.420845270E-1,-8.707883954E-1,-1.564578652E0
1.534731476E0,-3.404046595E-1,-1.013883591E0,-1.557706356E0
1.536982209E0,-3.474296033E-1,-1.160643935E0,-1.560608029E0
1.539235871E0,-3.579670191E-1,-1.308473349E0,-1.574657917E0
1.541490021E0,-3.759875596E-1,-1.446681619E0,-1.599703312E0
1.543738923E0,-4.062253833E-1,-1.580002904E0,-1.628414035E0
1.545982330E0,-4.378376603E-1,-1.714546084E0,-1.659568191E0
1.548248321E0,-4.755585790E-1,-1.846492887E0,-1.691944003E0
1.550502471E0,-5.132794976E-1,-1.974927306E0,-1.723098159E0
1.552758941E0,-5.424483418E-1,-2.083814144E0,-1.749212623E0
1.555009186E0,-5.580254197E-1,-2.169335127E0,-1.771661878E0
1.557262726E0,-5.652030706E-1,-2.229199886E0,-1.784031987E0
1.559516938E0,-5.676465034E-1,-2.253787279E0,-1.786628127E0
1.561766144E0,-5.639813542E-1,-2.235308647E0,-1.786475420E0
1.564009736E0,-5.655084848E-1,-2.175443888E0,-1.778992295E0
1.566275421E0,-5.719226003E-1,-2.064266443E0,-1.768913031E0
1.568529268E0,-5.861251950E-1,-1.899180055E0,-1.755015850E0
1.570785676E0,-6.126978397E-1,-1.679115891E0,-1.743409395E0
1.573036226E0,-6.467535496E-1,-1.430951834E0,-1.728137732E0
1.575290559E0,-6.782131195E-1,-1.198823094E0,-1.702023268E0
1.577543671E0,-6.948592067E-1,-1.030071497E0,-1.663691521E0
1.579792329E0,-6.867652535E-1,-9.188940525E-1,-1.624137998E0
1.582035554E0,-6.722571850E-1,-8.565858006E-1,-1.584889889E0
1.584301972E0,-6.441574097E-1,-8.075638413E-1,-1.544267297E0
1.586556001E0,-6.136141419E-1,-7.501425147E-1,-1.513265967E0
1.588812714E0,-5.781839490E-1,-6.646214128E-1,-1.481042743E0
1.591062898E0,-5.355761051E-1,-5.386304259E-1,-1.445001721E0
1.593315217E0,-4.954117239E-1,-3.918700516E-1,-1.406364560E0
1.595565523E0,-4.442517459E-1,-2.499966025E-1,-1.364062071E0
1.597823030E0,-4.040873647E-1,-1.313360333E-1,-1.323286891E0
1.600076082E0,-3.675881624E-1,-4.214970022E-2,-1.283580542E0
1.602330050E0,-3.370448947E-1,1.160643995E-2,-1.245401502E0
1.604582492E0,-3.174972236E-1,4.214970022E-2,-1.206153393E0
1.606836154E0,-2.990185320E-1,4.703662544E-2,-1.170570493E0
1.609089511E0,-2.831360400E-1,4.092797264E-2,-1.136362076E0
1.611343417E0,-2.609921694E-1,2.993239649E-2,-1.104597092E0
1.613597444E0,-2.376265824E-1,3.115412779E-2,-1.073901057E0
1.615847139E0,-2.069306076E-1,4.214970022E-2,-1.044426799E0
1.618092684E0,-1.750128865E-1,6.307183951E-2,-1.020908594E0
1.620355684E0,-1.406517178E-1,8.872817457E-2,-9.998337030E-1
1.622609652E0,-1.125519201E-1,1.107193232E-1,-9.850202203E-1
1.624865633E0,-8.170322329E-2,1.217148975E-1,-9.786061049E-1
1.627116488E0,-4.978551716E-2,1.230893433E-1,-9.784533978E-1
1.629369723E0,-1.404990070E-2,1.157589629E-1,-9.795224071E-1
1.631624301E0,2.306016348E-2,9.621127695E-2,-9.842566252E-1
1.633876498E0,6.505715102E-2,6.933320314E-2,-9.937250614E-1
1.636130038E0,1.094975919E-1,3.283400834E-2,-1.003346205E0
1.638383029E0,1.687515229E-1,-8.704829961E-3,-1.014189005E0
1.640633213E0,2.292271852E-1,-3.924809024E-2,-1.023657441E0
1.642875766E0,2.933680415E-1,-6.963863969E-2,-1.031904101E0
1.645137118E0,3.526219726E-1,-8.918632567E-2,-1.036485553E0
1.647384555E0,4.092797041E-1,-9.880745411E-2,-1.038623691E0
1.649638279E0,4.634940028E-1,-9.636399150E-2,-1.039539933E0
1.651891330E0,5.163338780E-1,-7.788532227E-2,-1.042899728E0
1.654158847E0,5.681046844E-1,-5.222897977E-2,-1.052215338E0
1.656413119E0,6.148358583E-1,-1.542434748E-2,-1.063974500E0
1.658666598E0,6.553056836E-1,2.504547499E-2,-1.073442936E0
1.660916843E0,6.908885837E-1,6.169738993E-2,-1.086423874E0
1.663170017E0,7.203628421E-1,9.483683109E-2,-1.099557400E0
1.665423130E0,7.499898076E-1,1.278235465E-1,-1.120021462E0
1.667677768E0,7.756461501E-1,1.646281779E-1,-1.136820197E0
1.669930149E0,7.916813493E-1,2.110539377E-1,-1.151328325E0
1.672183507E0,7.915286422E-1,2.564106882E-1,-1.164614558E0
1.674436620E0,7.877107263E-1,3.077233732E-1,-1.180344343E0
1.676690465E0,7.715228200E-1,3.565925956E-1,-1.198517561E0
1.678943455E0,7.542658448E-1,4.056145251E-1,-1.216690898E0
1.681195957E0,7.283040881E-1,4.520402849E-1,-1.233795047E0
1.683449925E0,7.023423314E-1,4.948008358E-1,-1.250899315E0
1.685704563E0,6.751587987E-1,5.314527750E-1,-1.263269305E0
1.687957005E0,6.516404748E-1,5.595525503E-1,-1.273043156E0
1.690210362E0,6.307183504E-1,5.791002512E-1,-1.284038782E0
1.692463413E0,6.084218025E-1,5.839871764E-1,-1.286634922E0
1.694717076E0,5.937610269E-1,5.791002512E-1,-1.286787629E0
1.696970311E0,5.765040517E-1,5.752823353E-1,-1.283122420E0
1.699223790E0,5.580254197E-1,5.618433356E-1,-1.278388262E0
1.701476842E0,5.383250117E-1,5.471825600E-1,-1.267698050E0
1.703731480E0,5.210680366E-1,5.335907936E-1,-1.258077025E0
1.705983618E0,5.100724697E-1,5.311473012E-1,-1.245859623E0
1.708237219E0,4.940372705E-1,5.250386596E-1,-1.233795047E0
1.710490271E0,4.902193546E-1,5.238169432E-1,-1.224021196E0
1.712743932E0,4.877758920E-1,5.299255848E-1,-1.211803913E0
1.714993810E0,4.877758920E-1,5.323690772E-1,-1.197143197E0
1.717234289E0,4.926628172E-1,5.287038684E-1,-1.177595496E0
1.719491979E0,5.024366379E-1,5.348125100E-1,-1.154382586E0
1.721758398E0,5.146539807E-1,5.409211516E-1,-1.129948020E0
1.724014073E0,5.256495476E-1,5.421429276E-1,-1.096808553E0
1.726266820E0,5.317581892E-1,5.505422950E-1,-1.061378360E0
1.728516332E0,5.451972485E-1,5.639813542E-1,-1.020908594E0
1.730770544E0,5.499314666E-1,5.835290551E-1,-9.818131924E-1
1.733024206E0,5.522221923E-1,5.981897712E-1,-9.402743578E-1
1.735277563E0,5.496259928E-1,6.152940392E-1,-8.999572396E-1
1.737531042E0,5.568036437E-1,6.470590234E-1,-8.607091308E-1
1.739784948E0,5.554292202E-1,6.776022911E-1,-8.240572214E-1
1.742037635E0,5.502368808E-1,7.191411257E-1,-7.896960378E-1
1.744287452E0,5.389358401E-1,7.741189599E-1,-7.554876208E-1
1.746530432E0,5.189300179E-1,8.326093554E-1,-7.174612284E-1
1.748796911E0,4.915938079E-1,8.851437569E-1,-6.795876026E-1
1.751051061E0,4.630358517E-1,9.450085163E-1,-6.430884004E-1
1.753307592E0,4.369213581E-1,1.018312335E0,-6.038402915E-1
1.755558081E0,4.106541574E-1,1.092837930E0,-5.586362481E-1
1.757811988E0,3.906483352E-1,1.161254883E0,-5.120577812E-1
1.760064246E0,3.779728711E-1,1.238223910E0,-4.667010605E-1
1.762317481E0,3.677408695E-1,1.307862520E0,-4.227187634E-1
1.764570105E0,3.625485301E-1,1.361618638E0,-3.798054755E-1
1.766824500E0,3.575088978E-1,1.401782990E0,-3.368921876E-1
1.769074378E0,3.559817076E-1,1.427439332E0,-2.892446816E-1
1.771318030E0,3.620903790E-1,1.439656615E0,-2.415972054E-1
1.773584510E0,3.743076921E-1,1.444543600E0,-1.939497143E-1
1.775838905E0,3.938553631E-1,1.446987033E0,-1.302670091E-1
1.778091164E0,4.121813178E-1,1.443169117E0,-6.551529467E-2
1.780328346E0,4.292855561E-1,1.438282251E0,-7.635815418E-4
1.782581215E0,4.451680481E-1,1.432173610E0,6.154467165E-2
1.784838111E0,4.523457289E-1,1.433242559E0,1.262963861E-1
1.787107459E0,4.682282209E-1,1.440572977E0,1.912008226E-1
1.789361244E0,4.841107130E-1,1.465007544E0,2.487748712E-1
1.791615944E0,4.937318265E-1,1.490663886E0,3.049744666E-1
1.793866066E0,4.897612035E-1,1.507615447E0,3.575088978E-1
1.796118019E0,4.737260044E-1,1.518610954E0,4.074471295E-1
1.798370948E0,4.502076805E-1,1.525941372E0,4.524984360E-1
1.800623695E0,4.277583957E-1,1.555110216E0,5.038111210E-1
1.802877052E0,3.978259861E-1,1.614974976E0,5.636758804E-1
1.805127663E0,3.518583775E-1,1.702939630E0,6.221662760E-1
1.807384682E0,3.020728528E-1,1.837177277E0,6.821837425E-1
1.809638284E0,2.693915665E-1,2.016924381E0,7.460191846E-1
1.811893471E0,2.292271852E-1,2.201405525E0,8.220719099E-1
1.814144630E0,1.853975952E-1,2.360230684E0,9.091202021E-1
1.816394936E0,1.514945775E-1,2.490803003E0,1.007011414E0
1.818637795E0,1.870774776E-1,2.485916138E0,1.085202098E0
1.820904397E0,2.936734557E-1,2.224313021E0,1.129031658E0
1.823158181E0,3.576616049E-1,1.853976011E0,1.172097683E0
1.825411599E0,3.611740768E-1,1.447903395E0,1.204931736E0
1.827652749E0,3.168863356E-1,1.033431292E0,1.213025689E0
1.829919229E0,2.382374406E-1,6.310238242E-1,1.197754025E0
1.832171670E0,1.285871267E-1,2.666426897E-1,1.165378213E0
1.834427956E0,7.635815535E-3,-3.924809024E-2,1.128268123E0
1.836678017E0,-1.072068512E-1,-2.802344263E-1,1.081536889E0
1.838931680E0,-2.014328092E-1,-4.318817258E-1,1.021824837E0
1.841185098E0,-2.811507285E-1,-5.114469528E-1,9.625709057E-1
1.843435952E0,-3.610213697E-1,-5.432119370E-1,9.094256163E-1
1.845682535E0,-4.396702647E-1,-5.529857874E-1,8.613200188E-1
1.847945535E0,-5.196936131E-1,-5.580254197E-1,8.107708693E-1
1.850198281E0,-5.885686874E-1,-5.531384945E-1,7.567093372E-1
1.852454019E0,-6.438519955E-1,-5.470298529E-1,7.014260292E-1
1.854704995E0,-6.879869699E-1,-5.433646441E-1,6.511823535E-1
1.856958597E0,-7.212791443E-1,-5.384777188E-1,6.107125282E-1
1.859211954E0,-7.458664775E-1,-5.287038684E-1,5.849034786E-1
1.861463907E0,-7.556403279E-1,-5.177083015E-1,5.714644194E-1
1.863713907E0,-7.570147514E-1,-4.920519590E-1,5.667302608E-1
1.865972940E0,-7.423539758E-1,-4.528038502E-1,5.558874011E-1
1.868225382E0,-7.240280509E-1,-3.966042697E-1,5.439754725E-1
1.870479776E0,-6.969972253E-1,-3.316998184E-1,5.309945941E-1
1.872731669E0,-6.690501571E-1,-2.510656118E-1,5.229006410E-1
1.874985148E0,-6.371324658E-1,-1.641700417E-1,5.148066878E-1
1.877238809E0,-6.065891981E-1,-8.704829961E-2,5.079344511E-1
1.879492289E0,-5.723807216E-1,-1.359175146E-2,5.022839308E-1
1.881743632E0,-5.367978215E-1,4.627304152E-2,4.966334403E-1
1.883986551E0,-4.999932051E-1,1.038470939E-1,4.920519590E-1
1.886251994E0,-4.644103050E-1,1.577559561E-1,4.790710807E-1
1.888505106E0,-4.300491214E-1,2.029599845E-1,4.720461071E-1
1.890761820E0,-3.895792961E-1,2.483167201E-1,4.602869749E-1
1.893012065E0,-3.539963961E-1,2.849686444E-1,4.520402849E-1
1.895265666E0,-3.170390725E-1,3.156646192E-1,4.463897645E-1
1.897518718E0,-2.802344263E-1,3.254384696E-1,4.428772926E-1
1.899772014E0,-2.432770878E-1,3.217732608E-1,4.456261992E-1
1.902026347E0,-2.075414658E-1,3.170390725E-1,4.457789063E-1
1.904278850E0,-1.876883507E-1,3.182607889E-1,4.422664344E-1
1.906532390E0,-1.718058437E-1,3.255911767E-1,4.363104999E-1
1.908785441E0,-1.569923609E-1,3.255911767E-1,4.265366495E-1
1.911038858E0,-1.421788931E-1,3.147483170E-1,4.120286107E-1
1.913290995E0,-1.334740520E-1,3.013092875E-1,3.949243724E-1
1.915539043E0,-1.221730486E-1,2.805398703E-1,3.790418804E-1
1.917792522E0,-1.061378345E-1,2.695443034E-1,3.570507467E-1
1.920047100E0,-9.987647086E-2,2.658790946E-1,3.388774991E-1
1.922290753E0,-9.498954564E-2,2.805398703E-1,3.217732608E-1
1.924544109E0,-8.888089657E-2,3.051272035E-1,3.036000133E-1
1.926799480E0,-8.032877743E-2,3.295617998E-1,2.866485119E-1
1.929068462E0,-7.040221989E-2,3.539963961E-1,2.696970105E-1
1.931322368E0,-5.207626149E-2,3.724750876E-1,2.588541508E-1
1.933575909E0,-3.115412779E-2,3.895792961E-1,2.554943860E-1
1.935827373E0,-1.679879380E-3,4.030183554E-1,2.568688393E-1
1.938080302E0,3.527746722E-2,4.166100919E-1,2.632829249E-1
1.940332378E0,7.086037099E-2,4.312708676E-1,2.695443034E-1
1.942585491E0,1.139263660E-1,4.483750761E-1,2.747366428E-1
1.944837932E0,1.644754708E-1,4.570799172E-1,2.739730477E-1
1.947091900E0,2.087631971E-1,4.644103050E-1,2.730567753E-1
1.949345989E0,2.493857294E-1,4.804455042E-1,2.696970105E-1
1.951599591E0,2.849686444E-1,5.012149215E-1,2.698497176E-1
1.953853009E0,3.207042515E-1,5.293147564E-1,2.750420868E-1
1.956106916E0,3.488040566E-1,5.722280145E-1,2.814561725E-1
1.958359113E0,3.781255782E-1,6.443101168E-1,2.904664278E-1
1.960612592E0,4.074471295E-1,7.202101350E-1,3.019201458E-1
1.962864789E0,4.453207552E-1,7.936666608E-1,3.170390725E-1
1.965115583E0,4.882340431E-1,8.584184051E-1,3.321579695E-1
1.967372846E0,5.287038684E-1,9.086620808E-1,3.497203588E-1
1.969626020E0,5.616905689E-1,9.575312734E-1,3.659082949E-1
1.971880658E0,5.887213945E-1,9.990701079E-1,3.808744848E-1
1.974133832E0,6.058256030E-1,1.039539933E0,3.932445049E-1
1.976386273E0,6.130032539E-1,1.074970126E0,4.007275999E-1
1.978639263E0,6.166684628E-1,1.104291677E0,4.045455158E-1
1.980891095E0,6.177374721E-1,1.115287185E0,4.106541574E-1
1.983143048E0,6.055201888E-1,1.117730737E0,4.118759036E-1
1.985399458E0,5.907067060E-1,1.112843752E0,4.141666293E-1
1.987653059E0,5.722280145E-1,1.088409185E0,4.140139222E-1
1.989907331E0,5.502368808E-1,1.051604509E0,4.137084782E-1
1.992160750E0,5.183191895E-1,1.016174316E0,4.085161388E-1
1.994413130E0,4.876231849E-1,9.793697000E-1,3.984368443E-1
1.996666243E0,4.532620013E-1,9.512699246E-1,3.908010423E-1
1.998919111E0,4.176791012E-1,9.256135821E-1,3.843869567E-1
2.001169295E0,3.882048726E-1,9.120218158E-1,3.817907870E-1
2.003413130E0,3.611740768E-1,9.071348906E-1,3.743076921E-1
2.005680037E0,3.451388776E-1,8.985827565E-1,3.717114925E-1
2.007934492E0,3.315471113E-1,8.961393237E-1,3.666718602E-1
2.010190839E0,3.229950070E-1,8.900306821E-1,3.630066812E-1
2.012439740E0,3.193297982E-1,8.875871897E-1,3.581197560E-1
2.014689985E0,3.130684495E-1,8.985827565E-1,3.556762934E-1
2.016934431E0,3.057380617E-1,9.181304574E-1,3.446807265E-1
2.019199325E0,3.006984293E-1,9.474520087E-1,3.349068761E-1
2.021453414E0,2.883284092E-1,9.865473509E-1,3.203988075E-1
2.023709517E0,2.784018219E-1,1.030682325E0,3.058907688E-1
2.025960250E0,2.671008408E-1,1.070999503E0,2.936734557E-1
2.028213607E0,2.535090744E-1,1.097877502E0,2.814561725E-1
2.030466598E0,2.411390543E-1,1.119868755E0,2.655736506E-1
2.032720016E0,2.277000248E-1,1.133307695E0,2.570215464E-1
2.034973373E0,2.228130996E-1,1.117425203E0,2.545780838E-1
2.037226852E0,2.203696370E-1,1.077108145E0,2.641992271E-1
2.039480026E0,2.205223590E-1,1.023199320E0,2.797762752E-1
2.041733443E0,2.243402600E-1,9.669997096E-1,2.955060601E-1
2.043984968E0,2.244929820E-1,9.094256163E-1,3.100140989E-1
2.046232649E0,2.209804952E-1,8.483390808E-1,3.207042515E-1
2.048493208E0,2.186897546E-1,7.958046794E-1,3.339905739E-1
2.050746810E0,2.163990140E-1,7.418958545E-1,3.411682248E-1
2.053002304E0,2.116648108E-1,6.856962442E-1,3.445279896E-1
2.055255234E0,2.043344229E-1,6.343835592E-1,3.443752825E-1
2.057506760E0,1.934915632E-1,5.890268087E-1,3.440698385E-1
2.059759873E0,1.849394590E-1,5.364924073E-1,3.488040566E-1
2.062013412E0,1.753183305E-1,4.876231849E-1,3.509420753E-1
2.064267380E0,1.606575549E-1,4.398229718E-1,3.471241891E-1
2.066517319E0,1.447750628E-1,4.007275999E-1,3.492622077E-1
2.068761277E0,1.313360333E-1,3.677408695E-1,3.527746797E-1
2.071027024E0,1.153008118E-1,3.382666409E-1,3.562871516E-1
2.073280319E0,1.006400511E-1,3.248275816E-1,3.597996235E-1
2.075536849E0,8.704829961E-2,3.199406862E-1,3.669773042E-1
2.077787399E0,7.223481685E-2,3.089450896E-1,3.753767014E-1
2.080038559E0,5.757404864E-2,3.039054573E-1,3.778201640E-1
2.082281662E0,4.886921868E-2,3.002402782E-1,3.801108897E-1
2.084546677E0,4.031710699E-2,2.904664278E-1,3.897320330E-1
2.086800278E0,3.054326214E-2,2.635883391E-1,4.005748928E-1
2.089056748E0,1.328631863E-2,2.365575731E-1,4.150829315E-1
2.091307298E0,2.290744567E-3,2.194533348E-1,4.308127165E-1
2.093560533E0,-5.192354787E-3,2.047925740E-1,4.453207552E-1
2.095813768E0,-1.618792862E-2,1.937969923E-1,4.612032473E-1
2.098067308E0,-2.489275858E-2,1.887573600E-1,4.744895697E-1
2.100321092E0,-3.344487399E-2,1.912008226E-1,4.903720617E-1
2.102574022E0,-4.581489414E-2,1.973094791E-1,4.999932051E-1
2.104827195E0,-5.696318299E-2,2.083050460E-1,5.109887719E-1
2.107080429E0,-6.200282276E-2,2.302961946E-1,5.244278312E-1
2.109333725E0,-6.215553731E-2,2.669481039E-1,5.343543887E-1
2.111587265E0,-5.619960278E-2,3.231477141E-1,5.430592299E-1
2.113840867E0,-5.268712714E-2,3.439171314E-1,5.615378618E-1
2.116091111E0,-5.390885845E-2,3.500257730E-1,5.823072791E-1
2.118335374E0,-5.146539584E-2,3.512475193E-1,5.981897712E-1
2.120600084E0,-4.535674304E-2,3.549126983E-1,6.128505468E-1
2.122853136E0,-3.069597855E-2,3.634648323E-1,6.288857460E-1
2.125103991E0,-1.832595654E-2,3.573561609E-1,6.459900141E-1
2.127349840E0,1.527163113E-4,3.475823104E-1,6.632469296E-1
2.129614306E0,1.740965992E-2,3.219259977E-1,6.803511381E-1
2.131868395E0,4.077525437E-2,2.877175212E-1,6.998988390E-1
2.134123949E0,6.185010448E-2,2.522873580E-1,7.170031071E-1
2.136375230E0,8.292495459E-2,2.144137025E-1,7.363980412E-1
2.138627488E0,9.651670605E-2,1.789835095E-1,7.522805333E-1
2.140880906E0,1.015563458E-1,1.482875347E-1,7.681630254E-1
2.143130846E0,1.052215397E-1,1.214094684E-1,7.838928103E-1
2.145374682E0,1.076650023E-1,1.128573567E-1,7.912232280E-1
2.147640429E0,1.003346145E-1,1.104138941E-1,7.985535860E-1
2.149894640E0,9.040805697E-2,1.116356254E-1,7.984008789E-1
2.152152514E0,7.559457421E-2,1.116356254E-1,7.996225953E-1
2.154402514E0,5.589416996E-2,1.153008118E-1,7.921395302E-1
2.156654346E0,4.245513305E-2,1.275181174E-1,7.823656797E-1
2.158907458E0,2.519819140E-2,1.336267740E-1,7.712173462E-1
2.161159717E0,5.497787148E-3,1.409571618E-1,7.614435554E-1
2.163408618E0,-1.802052557E-2,1.568396538E-1,7.490735054E-1
2.165662403E0,-4.505131021E-2,1.800525337E-1,7.344127297E-1
2.167921192E0,-7.223481685E-2,2.006692290E-1,7.171558142E-1
2.170175952E0,-1.043052375E-1,2.214386463E-1,6.998988390E-1
2.172430102E0,-1.351539344E-1,2.422080636E-1,6.852380633E-1
2.174681200E0,-1.696678251E-1,2.617557645E-1,6.716463566E-1
2.176934557E0,-2.017382532E-1,2.874121070E-1,6.580545902E-1
2.179187182E0,-2.374738604E-1,3.106249869E-1,6.432411075E-1
2.181439624E0,-2.756529450E-1,3.350595832E-1,6.322455406E-1
2.183694141E0,-3.126102984E-1,3.484986126E-1,6.197227836E-1
2.185948047E0,-3.532328308E-1,3.619376719E-1,6.012440920E-1
2.188201831E0,-3.853032589E-1,3.680463135E-1,5.900958180E-1
2.190455738E0,-4.210388660E-1,3.666718602E-1,5.740606189E-1
2.192707997E0,-4.492913783E-1,3.593414724E-1,5.568036437E-1
2.194961232E0,-4.787656367E-1,3.483459055E-1,5.406157374E-1
2.197214406E0,-5.007568002E-1,3.287982047E-1,5.209153295E-1
2.199468068E0,-5.192354321E-1,3.055853248E-1,4.987714589E-1
2.201719593E0,-5.424483418E-1,2.736676335E-1,4.801400900E-1
2.203963856E0,-5.607742667E-1,2.443460971E-1,4.579962194E-1
2.206215382E0,-5.754350424E-1,2.186897546E-1,4.334088862E-1
2.208479420E0,-5.900958180E-1,1.930334121E-1,4.149302244E-1
2.210724659E0,-6.010913849E-1,1.747074574E-1,4.086688459E-1
2.212990894E0,-6.096435189E-1,1.661553532E-1,4.025602043E-1
2.215238636E0,-6.169738770E-1,1.624901593E-1,3.903428912E-1
2.217498096E0,-6.157521605E-1,1.588249654E-1,3.707951903E-1
2.219747792E0,-6.094908118E-1,1.514945775E-1,3.500257730E-1
2.222002491E0,-6.056728959E-1,1.417207420E-1,3.353650272E-1
2.224256398E0,-5.933028460E-1,1.160643995E-1,3.280346394E-1
2.226509573E0,-5.845980644E-1,8.429940045E-2,3.207042515E-1
2.228761282E0,-5.732970238E-1,4.642575979E-2,3.156646192E-1
2.231014638E0,-5.621487498E-1,1.343903504E-2,3.083342314E-1
2.233266775E0,-5.558874011E-1,-2.443460934E-2,3.020728528E-1
2.235516775E0,-5.532912016E-1,-6.352998316E-2,2.935207486E-1
2.237775197E0,-5.482515693E-1,-9.651670605E-2,2.848159075E-1
2.240028370E0,-5.468770862E-1,-1.295034289E-1,2.738203406E-1
2.242283192E0,-5.442809463E-1,-1.661553532E-1,2.651155293E-1
2.244535512E0,-5.441282392E-1,-2.089159191E-1,2.503020465E-1
2.246787893E0,-5.401576161E-1,-2.652682364E-1,2.367102802E-1
2.249041799E0,-5.400048494E-1,-3.336851299E-1,2.206750661E-1
2.251295094E0,-5.360342264E-1,-4.094324410E-1,1.971567571E-1
2.253548818E0,-5.357288122E-1,-4.766276181E-1,1.676825136E-1
2.255802053E0,-5.293147564E-1,-5.267185569E-1,1.369865239E-1
2.258055166E0,-5.180137157E-1,-5.535966158E-1,1.125519201E-1
2.260308646E0,-5.068654418E-1,-5.719226003E-1,9.193521738E-2
2.262562856E0,-4.993823469E-1,-5.743660331E-1,7.483099401E-2
2.264814749E0,-4.908302128E-1,-5.707008839E-1,6.261368841E-2
2.267068717E0,-4.784601927E-1,-5.619960427E-1,5.177082866E-2
2.269321830E0,-4.625777006E-1,-5.485569835E-1,5.070181563E-2
2.271575675E0,-4.428772926E-1,-5.277875662E-1,5.207626149E-2
2.273828909E0,-4.233296216E-1,-5.094616413E-1,5.726861581E-2
2.276082082E0,-3.937026560E-1,-4.934264123E-1,6.841690838E-2
2.278336416E0,-3.617849350E-1,-4.775438905E-1,7.971791178E-2
2.280589162E0,-3.347541690E-1,-4.726569951E-1,9.208793938E-2
2.282827688E0,-2.990185320E-1,-4.714352489E-1,1.069014147E-1
2.285091605E0,-2.707660198E-1,-4.714352489E-1,1.253800988E-1
2.287348013E0,-2.425135076E-1,-4.665483236E-1,1.401935667E-1
2.289605704E0,-2.179261744E-1,-4.492913783E-1,1.598939747E-1
2.291856497E0,-1.971567571E-1,-4.224133193E-1,1.736384481E-1
2.294109184E0,-1.739438772E-1,-3.796527386E-1,1.872301996E-1
2.296363578E0,-1.470658034E-1,-3.330742717E-1,2.021963894E-1
2.298616629E0,-1.212567538E-1,-2.829833329E-1,2.124283910E-1
2.300868461E0,-9.071348608E-2,-2.316706479E-1,2.200642079E-1
2.303122062E0,-5.390885845E-2,-1.802052408E-1,2.277000248E-1
2.305375235E0,-1.588249579E-2,-1.299615800E-1,2.367102802E-1
2.307629081E0,2.214386500E-2,-8.842274547E-2,2.443460971E-1
2.309882315E0,6.505715102E-2,-5.054909736E-2,2.594650090E-1
2.312135612E0,1.006400511E-1,-1.985312067E-2,2.671008408E-1
2.314389030E0,1.363756657E-1,2.138028387E-3,2.710714638E-1
2.316641533E0,1.707368344E-1,2.061670274E-2,2.736676335E-1
2.318895317E0,2.014328092E-1,3.527746722E-2,2.727513313E-1
2.321148918E0,2.272418737E-1,4.505131021E-2,2.729040384E-1
2.323402519E0,2.457205504E-1,5.238169432E-2,2.681698501E-1
2.325655509E0,2.666426897E-1,5.986479297E-2,2.634356320E-1
2.327908561E0,2.814561725E-1,6.597344577E-2,2.587014437E-1
2.330162652E0,2.962696552E-1,6.597344577E-2,2.501493096E-1
2.332416131E0,3.110831380E-1,6.108652428E-2,2.417499274E-1
2.334670403E0,3.197879493E-1,5.009094998E-2,2.258674204E-1
2.336922906E0,3.260493279E-1,3.665191308E-2,2.050980031E-1
2.339173821E0,3.310889602E-1,2.703078650E-2,1.782199293E-1
2.341416069E0,3.359758854E-1,2.458732575E-2,1.551597714E-1
2.343683708E0,3.446807265E-1,2.825251780E-2,1.307251602E-1
2.345939934E0,3.570507467E-1,4.169155285E-2,1.064432710E-1
2.348192558E0,3.680463135E-1,6.139195710E-2,8.338310570E-2
2.350443169E0,3.791945875E-1,8.582656831E-2,6.398813426E-2
2.352695977E0,3.901901841E-1,1.114829108E-1,4.337143153E-2
2.354949273E0,3.999640048E-1,1.385136992E-1,2.168571576E-2
2.357202630E0,4.060726762E-1,1.666134894E-1,9.162978968E-4
2.359455864E0,4.121813178E-1,1.898263693E-1,-1.481348183E-2
2.361709465E0,4.172209501E-1,2.009746730E-1,-3.543018550E-2
2.363962457E0,4.208861589E-1,1.960877478E-1,-5.131268129E-2
2.366216364E0,4.234823287E-1,1.777617931E-1,-6.719517708E-2
2.368470819E0,4.248567820E-1,1.545489132E-1,-8.078692853E-2
2.370724237E0,4.298964143E-1,1.411098689E-1,-9.666942805E-2
2.372974908E0,4.335615933E-1,1.325577646E-1,-1.125519201E-1
2.375224419E0,4.311181605E-1,1.252273768E-1,-1.247692257E-1
2.377482537E0,4.213443100E-1,1.288925707E-1,-1.345430762E-1
2.379732721E0,4.138612151E-1,1.545489132E-1,-1.467603743E-1
2.381977960E0,4.075998366E-1,1.973094791E-1,-1.539380401E-1
2.384242487E0,4.013384581E-1,2.597704530E-1,-1.598939747E-1
2.386496759E0,3.874412775E-1,3.294090927E-1,-1.572978050E-1
2.388753961E0,3.724750876E-1,3.990477324E-1,-1.522581577E-1
2.391003168E0,3.536909819E-1,4.735732675E-1,-1.423316002E-1
2.393256647E0,3.423899710E-1,5.432119370E-1,-1.299615800E-1
2.395509515E0,3.225368559E-1,6.081163287E-1,-1.175915599E-1
2.397762872E0,3.025310040E-1,6.643159389E-1,-1.041525230E-1
2.400015863E0,2.802344263E-1,7.156286240E-1,-8.582656831E-2
2.402269769E0,2.616030276E-1,7.582364678E-1,-6.872233748E-2
2.404523310E0,2.490803003E-1,7.924449444E-1,-5.650503561E-2
2.406777766E0,2.354885489E-1,8.156577945E-1,-4.795292020E-2
2.409029841E0,2.292271852E-1,8.132143617E-1,-3.084869497E-2
2.411283259E0,2.206750661E-1,7.900014520E-1,-9.010262787E-3
2.413536127E0,2.133446932E-1,7.495316267E-1,1.160643995E-2
2.415786616E0,2.086104751E-1,7.031059265E-1,3.084869497E-2
2.418030208E0,1.988366395E-1,6.530149579E-1,3.924809024E-2
2.420296260E0,1.853975952E-1,6.076582074E-1,3.894266114E-2
2.422550410E0,1.658499092E-1,5.881105065E-1,2.412917651E-2
2.424805658E0,1.424843222E-1,6.027712822E-1,-3.970623948E-3
2.427048457E0,1.165225431E-1,6.566801667E-1,-3.940080851E-2
2.429309810E0,9.056077152E-2,7.238753438E-1,-7.834346592E-2
2.431559810E0,6.811147183E-2,8.032878041E-1,-1.136209369E-1
2.433806086E0,4.703662544E-2,8.767443299E-1,-1.391245574E-1
2.436070123E0,4.077525437E-2,9.207266569E-1,-1.574505121E-1
2.438323603E0,4.321871698E-2,9.329439402E-1,-1.682933718E-1
2.440581416E0,5.696318299E-2,8.816312551E-1,-1.721112877E-1
2.442828364E0,8.567385375E-2,7.716755271E-1,-1.747074574E-1
2.445071528E0,1.194241568E-1,6.163630486E-1,-1.737911552E-1
2.447336176E0,1.531744599E-1,4.477642179E-1,-1.655444801E-1
2.449589838E0,1.831068546E-1,2.887865305E-1,-1.537853181E-1
2.451846552E0,2.168571651E-1,1.566869318E-1,-1.380555481E-1
2.454097102E0,2.527455091E-1,7.116580009E-2,-1.186605766E-1
2.456350398E0,2.823724449E-1,2.107485011E-2,-8.689557761E-2
2.458603816E0,3.057380617E-1,6.414085161E-3,-5.513058975E-2
2.460857905E0,3.216205537E-1,2.107485011E-2,-2.199114859E-2
2.463110591E0,3.387247920E-1,5.528330430E-2,2.214386500E-2
2.465363093E0,3.532328308E-1,1.029307917E-1,7.864890248E-2
2.467606989E0,3.714060783E-1,1.591303945E-1,1.411098689E-1
2.469870416E0,3.894265890E-1,2.263255715E-1,2.147191316E-1
2.472123102E0,4.025602043E-1,2.886338234E-1,2.942843437E-1
2.474379450E0,4.158465266E-1,3.472768962E-1,3.715587854E-1
2.476630671E0,4.277583957E-1,4.046982229E-1,4.437935948E-1
2.478885432E0,4.373795092E-1,4.511239827E-1,5.123631954E-1
2.481136896E0,4.506658316E-1,4.839579761E-1,5.772676468E-1
2.483378901E0,4.602869749E-1,5.096143484E-1,6.323982477E-1
2.485638483E0,4.637994468E-1,5.267185569E-1,6.824892163E-1
2.487896662E0,4.636467099E-1,5.474879742E-1,7.252497673E-1
2.490153010E0,4.586070776E-1,5.597052574E-1,7.545713186E-1
2.492405146E0,4.511239827E-1,5.644394755E-1,7.716755271E-1
2.494657526E0,4.425718784E-1,5.766568184E-1,7.800748944E-1
2.496911737E0,4.302018583E-1,5.791002512E-1,7.861835957E-1
2.499163995E0,4.166100919E-1,5.742133260E-1,7.884743214E-1
2.501416802E0,4.031710625E-1,5.632177591E-1,7.872526050E-1
2.503670464E0,3.859141171E-1,5.510004759E-1,7.809911966E-1
2.505924126E0,3.798054755E-1,5.351179838E-1,7.686212063E-1
2.508177667E0,3.787364662E-1,5.216789246E-1,7.515169382E-1
2.510430963E0,3.799581826E-1,5.057964325E-1,7.344127297E-1
2.512685419E0,3.788891733E-1,4.850270152E-1,7.159340382E-1
2.514936456E0,3.839288056E-1,4.618141353E-1,7.049384713E-1
2.517181574E0,3.938553631E-1,4.324925840E-1,6.927211881E-1
2.519443353E0,4.088215530E-1,3.995058835E-1,6.792821288E-1
2.521695184E0,4.335615933E-1,3.591887653E-1,6.633996367E-1
2.523945917E0,4.572326243E-1,3.200933933E-1,6.352998614E-1
2.526204156E0,4.856378734E-1,2.883284092E-1,6.012440920E-1
2.528457147E0,5.054910183E-1,2.628247738E-1,5.682573915E-1
2.530713068E0,5.167919993E-1,2.444988191E-1,5.317581892E-1
2.532964410E0,5.193881989E-1,2.383901626E-1,4.951062799E-1
2.535213800E0,5.206099153E-1,2.322815061E-1,4.608978331E-1
2.537470879E0,5.219843388E-1,2.275473028E-1,4.279111028E-1
2.539723687E0,5.196936131E-1,2.079996169E-1,3.998112977E-1
2.541977716E0,5.149593949E-1,1.750128865E-1,3.740022480E-1
2.544223383E0,5.088507533E-1,1.505782902E-1,3.518583775E-1
2.546471613E0,5.002986193E-1,1.298088580E-1,3.358231783E-1
2.548738031E0,4.992296100E-1,1.053742543E-1,3.187189400E-1
2.550993096E0,4.882340431E-1,7.101308554E-2,3.075706363E-1
2.553246393E0,4.699080884E-1,2.214386500E-2,2.962696552E-1
2.555492670E0,4.479169548E-1,-2.916881628E-2,2.959642112E-1
2.557750788E0,4.295909703E-1,-6.841690838E-2,3.031418920E-1
2.560004449E0,4.086688459E-1,-1.062905490E-1,3.187189400E-1
2.562259026E0,3.903428912E-1,-1.284344196E-1,3.391829133E-1
2.564510795E0,3.706424832E-1,-1.430951804E-1,3.585779071E-1
2.566764702E0,3.507893682E-1,-1.443169117E-1,3.889684379E-1
2.569018852E0,3.323107064E-1,-1.346957833E-1,4.146247804E-1
2.571271355E0,3.124575615E-1,-1.359175146E-1,4.535674453E-1
2.573524468E0,2.990185320E-1,-1.812742651E-1,4.862487316E-1
2.575777641E0,2.780964077E-1,-2.167044431E-1,5.189300179E-1
2.578027947E0,2.582432926E-1,-2.021963894E-1,5.542075038E-1
2.580267998E0,2.518292069E-1,-1.533271819E-1,5.934556127E-1
2.582524956E0,2.307543457E-1,-1.105666086E-1,6.264423132E-1
2.584792595E0,2.083050460E-1,-6.902777404E-2,6.569855809E-1
2.587049310E0,1.898263693E-1,-6.047565863E-2,6.812674403E-1
2.589298150E0,1.823432744E-1,-8.139779419E-2,7.043276429E-1
2.591537896E0,1.776090711E-1,-1.217148975E-1,7.212791443E-1
2.593804436E0,1.689042449E-1,-1.437060535E-1,7.357872128E-1
2.596058098E0,1.579086632E-1,-1.475239545E-1,7.441865802E-1
2.598314567E0,1.493565589E-1,-1.585195363E-1,7.478517890E-1
2.600564506E0,1.467603743E-1,-1.401935667E-1,7.515169382E-1
2.602819572E0,1.331686229E-1,-9.728029370E-2,7.406741381E-1
2.605077203E0,1.256855279E-1,-7.528914511E-2,7.162395120E-1
2.607324822E0,1.246165112E-1,-8.750644326E-2,6.856962442E-1
2.609578179E0,1.246165112E-1,-8.384125680E-2,6.563746929E-1
2.611830132E0,1.172861308E-1,-5.940664560E-2,6.162103415E-1
2.614083367E0,1.098030284E-1,-1.771509275E-2,5.722280145E-1
2.616332452E0,1.036943719E-1,4.276056774E-3,5.222898126E-1
2.618591119E0,9.651670605E-2,-2.138028294E-2,4.683809280E-1
2.620845330E0,1.004873365E-1,-5.910121277E-2,4.085161388E-1
2.623100821E0,1.156062484E-1,-1.177442744E-1,3.413209617E-1
2.625351615E0,1.394299865E-1,-2.020436823E-1,2.666426897E-1
2.627604545E0,1.705841124E-1,-2.678644061E-1,1.982257664E-1
2.629858207E0,2.041817009E-1,-3.252857327E-1,1.311833113E-1
2.632111868E0,2.425135076E-1,-3.593414724E-1,6.658431143E-2
2.634365165E0,2.822197378E-1,-3.752239645E-1,-3.054326226E-4
2.636618460E0,3.193297982E-1,-3.811798990E-1,-6.979135424E-2
2.638872123E0,3.576616049E-1,-3.700316250E-1,-1.328631938E-1
2.641126213E0,3.921754956E-1,-3.442225754E-1,-1.936442852E-1
2.643377616E0,4.230241776E-1,-3.208569586E-1,-2.519819140E-1
2.645629326E0,4.463897645E-1,-2.988658249E-1,-3.017674387E-1
2.647884574E0,4.625777006E-1,-2.816088796E-1,-3.480404615E-1
2.650138786E0,4.773911834E-1,-2.742784917E-1,-3.918700516E-1
2.652392509E0,4.934264123E-1,-2.606867552E-1,-4.308127165E-1
2.654645744E0,5.056437254E-1,-2.264782935E-1,-4.550946057E-1
2.656900199E0,5.094616413E-1,-2.191479057E-1,-4.696026444E-1
2.659153129E0,5.044219494E-1,-1.959350258E-1,-4.757113159E-1
2.661405204E0,4.931209683E-1,-1.531744599E-1,-4.547891617E-1
2.663657950E0,4.694499373E-1,-8.842274547E-2,-4.169155359E-1
2.665911856E0,4.508185387E-1,-5.177082866E-2,-3.680463135E-1
2.668165335E0,4.283692539E-1,-7.788531948E-3,-3.107776940E-1
2.670418876E0,4.010330439E-1,1.527163107E-2,-2.692388594E-1
2.672672172E0,3.750712574E-1,1.282817032E-2,-2.304489166E-1
2.674925895E0,3.468187451E-1,-3.207042580E-3,-2.073887438E-1
2.677179924E0,3.184134960E-1,-2.153299935E-2,-1.942551434E-1
2.679431755E0,2.901609838E-1,-3.145955876E-2,-1.797471046E-1
2.681684685E0,2.568688393E-1,-5.711590126E-2,-1.641700417E-1
2.683937919E0,2.162462920E-1,-6.948592514E-2,-1.388191283E-1
2.686191947E0,1.670716405E-1,-9.147707373E-2,-1.123992056E-1
2.688445548E0,1.165225431E-1,-1.050688252E-1,-7.254024595E-2
2.690699149E0,6.108652428E-2,-1.186605766E-1,-3.741549700E-2
2.692951651E0,5.497787148E-3,-1.200350225E-1,-6.108652335E-3
2.695203237E0,-4.993823543E-2,-1.237002090E-1,2.046398632E-2
2.697458913E0,-1.017090604E-1,-1.238529310E-1,3.237585723E-2
2.699711965E0,-1.484402567E-1,-1.311833113E-1,4.062253982E-2
2.701966238E0,-1.890627891E-1,-1.411098689E-1,4.153883830E-2
2.704219046E0,-2.235766798E-1,-1.594358236E-1,4.001167417E-2
2.706472525E0,-2.518292069E-1,-1.728748679E-1,4.352414981E-2
2.708725638E0,-2.715296149E-1,-1.852448881E-1,4.337143153E-2
2.710979300E0,-2.875648141E-1,-1.950187236E-1,4.688390717E-2
2.713233451E0,-3.010038435E-1,-2.023491114E-1,4.917465150E-2
2.715485831E0,-3.109304011E-1,-2.035708427E-1,5.406157300E-2
2.717736380E0,-3.133738637E-1,-2.035708427E-1,5.894849449E-2
2.719982473E0,-3.109304011E-1,-2.047925740E-1,6.017022580E-2
2.722245779E0,-3.133738637E-1,-2.035708427E-1,6.856962293E-2
2.724498769E0,-3.133738637E-1,-2.121229619E-1,6.856962293E-2
2.726754690E0,-3.121521473E-1,-2.206750661E-1,7.223481685E-2
2.729007132E0,-3.071125150E-1,-2.328923792E-1,7.223481685E-2
2.731260367E0,-3.022255898E-1,-2.524400651E-1,6.856962293E-2
2.733512686E0,-2.910772860E-1,-2.683225572E-1,6.246097013E-2
2.735765920E0,-2.835941911E-1,-2.805398703E-1,5.390885845E-2
2.738018972E0,-2.797762752E-1,-2.976440787E-1,4.780020565E-2
2.740272269E0,-2.773328125E-1,-3.159700334E-1,4.291328415E-2
2.742525870E0,-2.710714638E-1,-3.342960179E-1,3.909537569E-2
2.744776358E0,-2.771801054E-1,-3.501785100E-1,3.543018550E-2
2.747021170E0,-2.869539559E-1,-3.674354553E-1,3.894266114E-2
2.749287160E0,-2.930625975E-1,-3.759875596E-1,4.382958263E-2
2.751539358E0,-3.017674387E-1,-3.796527386E-1,4.734205827E-2
2.753795766E0,-3.090978265E-1,-3.747658134E-1,5.222897977E-2
2.756045888E0,-3.165809214E-1,-3.686571717E-1,5.833763257E-2
2.758296620E0,-3.190243840E-1,-3.601050675E-1,6.078109145E-2
2.760539540E0,-3.214678466E-1,-3.564398587E-1,6.322455406E-2
2.762797108E0,-3.190243840E-1,-3.552181423E-1,5.955936015E-2
2.765059682E0,-3.129157126E-1,-3.588833213E-1,5.222897977E-2
2.767316762E0,-3.042109013E-1,-3.588833213E-1,3.894266114E-2
2.769568471E0,-2.857322097E-1,-3.698789179E-1,2.550362423E-2
2.771819631E0,-2.622139156E-1,-3.929390609E-1,3.665191587E-3
2.774072499E0,-2.374738604E-1,-3.990477324E-1,-1.450804994E-2
2.776323049E0,-2.214386463E-1,-3.880521357E-1,-3.756821156E-2
2.778563711E0,-2.054034323E-1,-3.646865487E-1,-5.940664560E-2
2.780816884E0,-1.882992089E-1,-3.353650272E-1,-7.513642311E-2
2.783070363E0,-1.661553532E-1,-3.097086847E-1,-8.338310570E-2
2.785327870E0,-1.366810948E-1,-2.985603809E-1,-8.811730891E-2
2.787580129E0,-1.082758680E-1,-3.010038435E-1,-8.674286306E-2
2.789833608E0,-7.987063378E-2,-3.119994104E-1,-8.659014851E-2
2.792089955E0,-5.528330430E-2,-3.266601861E-1,-8.643743396E-2
2.794356435E0,-3.680463135E-2,-3.437644243E-1,-7.666359097E-2
2.796609059E0,-1.572977938E-2,-3.596469164E-1,-6.429356337E-2
2.798862661E0,5.192354787E-3,-3.596469164E-1,-4.841107130E-2
2.801114431E0,2.840523422E-2,-3.460551500E-1,-3.481931984E-2
2.803366079E0,4.199698567E-2,-3.313944042E-1,-2.122756653E-2
2.805614980E0,5.299255997E-2,-3.216205537E-1,-7.635815535E-3
2.807873097E0,5.650503561E-2,-2.996293902E-1,8.246680722E-3
2.810126576E0,5.772676691E-2,-2.703078687E-1,2.061670274E-2
2.812381215E0,6.001751125E-2,-2.385428846E-1,2.932153270E-2
2.814633167E0,5.864306539E-2,-2.092213482E-1,3.665191308E-2
2.816885975E0,5.864306539E-2,-1.811215430E-1,3.924809024E-2
2.819140187E0,4.993823543E-2,-1.579086632E-1,3.924809024E-2
2.821394275E0,4.367686436E-2,-1.383609772E-1,3.680463135E-2
2.823646656E0,3.741549700E-2,-1.200350225E-1,3.313944116E-2
2.825899951E0,2.748893574E-2,-1.041525230E-1,2.825251780E-2
2.828153125E0,1.527163107E-2,-8.582656831E-2,1.970040426E-2
2.830406666E0,2.901609987E-3,-6.872233748E-2,1.481348183E-2
2.832659107E0,-1.069014147E-2,-5.528330430E-2,1.359175146E-2
2.834911915E0,-2.672535367E-2,-4.550946131E-2,1.237002108E-2
2.837167103E0,-4.276056588E-2,-3.207042441E-2,1.099557430E-2
2.839421559E0,-5.757404864E-2,-2.107485011E-2,9.773843922E-3
2.841670521E0,-6.872233748E-2,-6.414085161E-3,3.665191587E-3
2.843910694E0,-7.620543987E-2,-2.748893574E-3,-0.000000000E0
2.846167225E0,-7.864890248E-2,-5.192354787E-3,-6.108652335E-3
2.848433644E0,-8.231408894E-2,-1.374446787E-2,-1.114829071E-2
2.850690053E0,-8.338310570E-2,-1.740965992E-2,-1.970040426E-2
2.852942433E0,-8.216137439E-2,-2.229658142E-2,-2.825251780E-2
2.855189991E0,-8.216137439E-2,-1.863138936E-2,-3.802636266E-2
2.857447925E0,-7.727445662E-2,-1.618792862E-2,-5.131268129E-2
2.859696522E0,-6.979135424E-2,-1.725694351E-2,-5.986479297E-2
2.861941578E0,-6.246097013E-2,-1.847867295E-2,-6.719517708E-2
2.864206287E0,-5.375614017E-2,-2.336559631E-2,-7.192938030E-2
2.866460377E0,-3.894266114E-2,-2.580905706E-2,-7.559457421E-2
2.868716907E0,-2.412917651E-2,-3.313944116E-2,-7.910704613E-2
2.870967396E0,-1.175915636E-2,-4.291328415E-2,-7.788532227E-2
2.873220264E0,1.832595794E-3,-5.879577994E-2,-7.910704613E-2
2.875469777E0,1.908953860E-2,-6.734789163E-2,-8.261952549E-2
2.877726916E0,3.390302137E-2,-6.856962293E-2,-8.261952549E-2
2.879979602E0,4.734205827E-2,-6.979135424E-2,-8.246681094E-2
2.882234851E0,5.482515693E-2,-6.963863969E-2,-7.880161703E-2
2.884486865E0,5.971207842E-2,-7.208210230E-2,-7.513642311E-2
2.886740711E0,6.704246253E-2,-7.330382615E-2,-7.391469181E-2
2.888993884E0,7.941248268E-2,-7.452555746E-2,-7.254024595E-2
2.891247485E0,9.300423414E-2,-7.452555746E-2,-7.376197726E-2
2.893501757E0,1.101084575E-1,-5.864306539E-2,-7.238753140E-2
2.895750659E0,1.273654103E-1,-4.764748737E-2,-6.734789163E-2
2.897994129E0,1.434006095E-1,-3.909537569E-2,-6.108652428E-2
2.900259997E0,1.605048478E-1,-2.672535367E-2,-5.849034712E-2
2.902513965E0,1.753183305E-1,-1.695151068E-2,-4.978551716E-2
2.904770678E0,1.863138974E-1,-1.084285788E-2,-3.756821156E-2
2.907020923E0,1.960877478E-1,-2.290744567E-3,-2.886338346E-2
2.909274524E0,2.009746730E-1,1.237002108E-2,-1.786780916E-2
2.911528614E0,2.046398520E-1,2.703078650E-2,-8.093964309E-3
2.913780627E0,2.107485086E-1,4.413501546E-2,-1.832595794E-3
2.916033435E0,2.154827118E-1,6.979135424E-2,5.650503561E-3
2.918287097E0,2.179261744E-1,1.039998084E-1,9.468411095E-3
2.920540821E0,2.214386463E-1,1.369865239E-1,1.191187184E-2
2.922794300E0,2.200642079E-1,1.701259762E-1,1.206458826E-2
2.925047167E0,2.200642079E-1,1.982257664E-1,1.588249579E-2
2.927301074E0,2.162462920E-1,2.177734673E-1,1.954768784E-2
2.929555224E0,2.162462920E-1,2.312124968E-1,2.443460934E-2
2.931805468E0,2.199114859E-1,2.360994220E-1,2.687807009E-2
2.934051685E0,2.235766798E-1,2.299907655E-1,3.420845419E-2
2.936313525E0,2.322815061E-1,2.128865421E-1,3.787364438E-2
2.938567676E0,2.397646159E-1,1.798998117E-1,4.031710699E-2
2.940822374E0,2.484694421E-1,1.492038369E-1,4.153883830E-2
2.943070727E0,2.559525371E-1,1.174388453E-1,4.382958263E-2
2.945328905E0,2.622139156E-1,8.323039114E-2,4.138612002E-2
2.947582018E0,2.696970105E-1,6.612616032E-2,4.016438872E-2
2.949835253E0,2.745839357E-1,6.734789163E-2,3.894266114E-2
2.952087451E0,2.733621895E-1,7.712173462E-2,3.894266114E-2
2.954340869E0,2.721404731E-1,7.956519723E-2,3.405573592E-2
2.956594591E0,2.733621895E-1,8.445212245E-2,3.283400834E-2
2.958847276E0,2.770273983E-1,8.445212245E-2,3.772092983E-2
2.961098314E0,2.819143236E-1,8.811730891E-2,4.153883830E-2
2.963354235E0,2.880229652E-1,8.567385375E-2,5.131268129E-2
2.965608691E0,2.916881442E-1,7.590000331E-2,6.352998316E-2
2.967858751E0,3.052799106E-1,6.123924255E-2,7.819075137E-2
2.970101488E0,3.176499307E-1,4.291328415E-2,9.162978828E-2
2.972367784E0,3.300199509E-1,2.214386500E-2,1.038470939E-1
2.974621325E0,3.423899710E-1,3.817907767E-3,1.148426682E-1
2.976877856E0,3.497203588E-1,-2.183843218E-2,1.305724531E-1
2.979127855E0,3.608686328E-1,-4.993823543E-2,1.452332139E-1
2.981381151E0,3.758348525E-1,-8.659014851E-2,1.586722434E-1
2.983635851E0,3.894265890E-1,-1.368338168E-1,1.707368344E-1
2.985888232E0,3.995058835E-1,-1.966986060E-1,1.852448881E-1
2.988141528E0,4.082106948E-1,-2.651155293E-1,2.034181207E-1
2.990394517E0,4.134030640E-1,-3.275764883E-1,2.179261744E-1
2.992647935E0,4.159992337E-1,-3.862195611E-1,2.310597748E-1
2.994898607E0,4.123340547E-1,-4.389066696E-1,2.443460971E-1
2.997143420E0,4.112650156E-1,-4.792237878E-1,2.551889420E-1
2.999407824E0,4.088215530E-1,-5.122104883E-1,2.635883391E-1
3.001662646E0,4.002694488E-1,-5.366451144E-1,2.695443034E-1
3.003915453E0,3.955352604E-1,-5.598580241E-1,2.732094824E-1
3.006159593E0,3.918700516E-1,-5.832235813E-1,2.791654170E-1
3.008421128E0,3.857614100E-1,-6.101016402E-1,2.826778889E-1
3.010674852E0,3.871358633E-1,-6.369797587E-1,2.849686444E-1
3.012929490E0,3.834706545E-1,-6.675229669E-1,2.886338234E-1
3.015178025E0,3.798054755E-1,-6.870706677E-1,2.933680415E-1
3.017435960E0,3.724750876E-1,-6.982190013E-1,2.993239760E-1
3.019688767E0,3.588833213E-1,-6.994407177E-1,3.005456924E-1
3.021942673E0,3.428481221E-1,-6.933320761E-1,3.016147017E-1
3.024194870E0,3.243694305E-1,-6.737843752E-1,3.003929853E-1
3.026448227E0,2.996293902E-1,-6.603453159E-1,2.916881442E-1
3.028701951E0,2.738203406E-1,-6.395758986E-1,2.819143236E-1
3.030951829E0,2.441933751E-1,-6.139195561E-1,2.744311988E-1
3.033195238E0,2.182316035E-1,-5.919284225E-1,2.646573782E-1
3.035461473E0,1.934915632E-1,-5.699372888E-1,2.608394623E-1
3.037716295E0,1.713477075E-1,-5.467243791E-1,2.547308207E-1
3.039971604E0,1.478293836E-1,-5.345070958E-1,2.545780838E-1
3.042222032E0,1.244637966E-1,-5.259549618E-1,2.570215464E-1
3.044474595E0,1.047633886E-1,-5.199990273E-1,2.617557645E-1
3.046728624E0,8.735372871E-2,-5.126686692E-1,2.664899528E-1
3.048981920E0,6.643159688E-2,-5.041165352E-1,2.725986242E-1
3.051235215E0,5.039638281E-2,-5.028948188E-1,2.724458873E-1
3.053488816E0,3.940080851E-2,-5.175555944E-1,2.637410760E-1
3.055742905E0,2.703078650E-2,-5.102251768E-1,2.588541508E-1
3.057994980E0,1.343903504E-2,-4.857905805E-1,2.588541508E-1
3.060244554E0,-2.596177394E-3,-4.686863720E-1,2.576324046E-1
3.062488572E0,-1.863138936E-2,-4.650211632E-1,2.587014437E-1
3.064755418E0,-3.084869497E-2,-4.712825418E-1,2.550362349E-1
3.067008775E0,-4.321871698E-2,-4.932736754E-1,2.536617815E-1
3.069265304E0,-5.421429127E-2,-5.238169432E-1,2.547308207E-1
3.071515671E0,-5.650503561E-2,-5.616905689E-1,2.594650090E-1
3.073769821E0,-6.017022580E-2,-5.971207619E-1,2.629774809E-1
3.076022019E0,-6.368270516E-2,-6.327036619E-1,2.652682364E-1
3.078275314E0,-6.734789163E-2,-6.583600044E-1,2.651155293E-1
3.080528122E0,-7.467827946E-2,-6.681338549E-1,2.651155293E-1
3.082782334E0,-8.567385375E-2,-6.681338549E-1,2.625193298E-1
3.085035690E0,-9.560041130E-2,-6.595817208E-1,2.588541508E-1
3.087289230E0,-1.018617824E-1,-6.449210048E-1,2.539672256E-1
3.089543503E0,-1.067487001E-1,-6.375905871E-1,2.539672256E-1
3.091796615E0,-1.104138941E-1,-6.363688707E-1,2.527455091E-1
3.094048752E0,-1.154535338E-1,-6.339253783E-1,2.515237629E-1
3.096298569E0,-1.140790880E-1,-6.339253783E-1,2.466368377E-1
3.098540329E0,-1.142318025E-1,-6.278167367E-1,2.454151064E-1
3.100796433E0,-1.117883399E-1,-6.180428863E-1,2.429716438E-1
3.103062363E0,-1.081231460E-1,-6.033821702E-1,2.382374406E-1
3.105318466E0,-1.044579595E-1,-5.936083198E-1,2.321287990E-1
3.107572555E0,-9.819658846E-2,-5.787948370E-1,2.298380435E-1
3.109823532E0,-9.590584040E-2,-5.653557777E-1,2.249511331E-1
3.112075791E0,-8.964447677E-2,-5.616905689E-1,2.226603776E-1
3.114328964E0,-7.987063378E-2,-5.531384945E-1,2.177734673E-1
3.116581527E0,-7.116580009E-2,-5.531384945E-1,2.118175179E-1
3.118835738E0,-6.750060618E-2,-5.568036437E-1,2.044871449E-1
3.121085861E0,-6.750060618E-2,-5.616905689E-1,2.008219510E-1
3.123328293E0,-6.994406879E-2,-5.714644194E-1,1.884519309E-1
3.125591110E0,-7.345654815E-2,-5.800165534E-1,1.762346178E-1
3.127850083E0,-8.093964309E-2,-5.812382698E-1,1.676825136E-1
3.130102279E0,-8.582656831E-2,-5.800165534E-1,1.566869318E-1
3.132343672E0,-9.437867999E-2,-5.726861954E-1,1.505782902E-1
3.134608443E0,-9.819658846E-2,-5.543602109E-1,1.395827085E-1
3.136862655E0,-9.941831976E-2,-5.360342264E-1,1.285871267E-1
3.139119308E0,-9.941831976E-2,-5.212207437E-1,1.189660057E-1
3.141369185E0,-9.697485715E-2,-5.126686692E-1,1.177442744E-1
3.143622420E0,-9.330966324E-2,-5.053382516E-1,1.177442744E-1
3.145877242E0,-8.842274547E-2,-5.004513264E-1,1.178969890E-1
3.148129439E0,-7.605272532E-2,-5.004513264E-1,1.166752651E-1
3.150382735E0,-6.001751125E-2,-4.980078936E-1,1.192714423E-1
3.152635725E0,-4.291328415E-2,-4.943426847E-1,1.157589629E-1
3.154889448E0,-2.443460934E-2,-4.906775057E-1,1.182024255E-1
3.157142867E0,-5.955935922E-3,-4.880813360E-1,1.195768714E-1
3.159393050E0,1.130100712E-2,-4.917465150E-1,1.246165112E-1
3.161637618E0,2.855795063E-2,-4.893030524E-1,1.307251602E-1
3.163903304E0,5.192354694E-2,-4.929682612E-1,1.369865239E-1
3.166156051E0,7.162395120E-2,-4.905247986E-1,1.444696337E-1
3.168412459E0,9.010262042E-2,-4.880813360E-1,1.556179225E-1
3.170662765E0,1.122464910E-1,-4.941899776E-1,1.666134894E-1
3.172915389E0,1.380555481E-1,-5.064072609E-1,1.826487035E-1
3.175165817E0,1.664607823E-1,-5.308418870E-1,1.889100820E-1
3.177422713E0,1.861611903E-1,-5.503895879E-1,1.950187236E-1
3.179675826E0,2.035708427E-1,-5.662720799E-1,1.950187236E-1
3.181931685E0,2.183843255E-1,-5.736024380E-1,1.988366395E-1
3.184183150E0,2.356412709E-1,-5.722280145E-1,1.939497143E-1
3.186436507E0,2.577851415E-1,-5.612324476E-1,1.832595766E-1
3.188689436E0,2.860376537E-1,-5.465716720E-1,1.687515229E-1
3.190942854E0,3.181080818E-1,-5.354233980E-1,1.543961912E-1
3.193195052E0,3.488040566E-1,-5.183191895E-1,1.411098689E-1
3.195441328E0,3.784310222E-1,-4.986187518E-1,1.279762685E-1
3.197690168E0,3.967569768E-1,-4.754058719E-1,1.183551401E-1
3.199957075E0,4.201225638E-1,-4.570799172E-1,1.039998084E-1
3.202210981E0,4.373795092E-1,-4.190535545E-1,8.460483700E-2
3.204466231E0,4.396702647E-1,-3.762930036E-1,7.864890248E-2
3.206716414E0,4.346306324E-1,-3.445279896E-1,9.834930301E-2
3.208969771E0,4.295909703E-1,-3.139847219E-1,1.117883399E-1
3.211223250E0,4.221078753E-1,-2.858849466E-1,1.107193232E-1
3.213476423E0,4.121813178E-1,-2.492330223E-1,1.082758680E-1
3.215729597E0,4.083634019E-1,-2.186897546E-1,1.119410545E-1
3.217984296E0,4.069889784E-1,-1.818851233E-1,1.182024255E-1
3.220232954E0,4.068362415E-1,-1.452332139E-1,1.256855279E-1
3.222477522E0,4.153883755E-1,-1.195768714E-1,1.319468915E-1
3.224743146E0,4.288274050E-1,-8.903361112E-2,1.443169117E-1
3.226996748E0,4.384485185E-1,-4.016438872E-2,1.530217379E-1
3.229253217E0,4.407392740E-1,1.618792862E-2,1.618792862E-1
3.231500349E0,4.430300295E-1,6.139195710E-2,1.742493063E-1
3.233744612E0,4.515821338E-1,8.949175477E-2,1.853975952E-1
3.236010786E0,4.662429094E-1,1.041525230E-1,2.037235647E-1
3.238263472E0,4.809036553E-1,1.151480973E-1,2.209804952E-1
3.240519819E0,4.943426847E-1,1.310305893E-1,2.382374406E-1
3.242769269E0,4.931209683E-1,1.566869318E-1,2.504547536E-1
3.245022993E0,4.830417037E-1,2.006692290E-1,2.554943860E-1
3.247276838E0,4.644103050E-1,2.629774809E-1,2.530509233E-1
3.249530195E0,4.395175576E-1,3.498730659E-1,2.470949888E-1
3.251783857E0,4.182899892E-1,4.463897645E-1,2.412917763E-1
3.254037885E0,4.069889784E-1,5.357288122E-1,2.365575731E-1
3.256290327E0,4.030183554E-1,5.992587805E-1,2.379320115E-1
3.258540205E0,4.077525437E-1,6.432411075E-1,2.406809032E-1
3.260783367E0,4.163046777E-1,6.566801667E-1,2.443460971E-1
3.263046552E0,4.274529517E-1,6.469063163E-1,2.528982162E-1
3.265287335E0,4.410447180E-1,6.126978397E-1,2.590068579E-1
3.267547284E0,4.610505402E-1,5.540547967E-1,2.663372457E-1
3.269810712E0,4.758640230E-1,4.929682612E-1,2.747366428E-1
3.272067975E0,4.834998548E-1,4.317290187E-1,2.831360400E-1
3.274320173E0,4.860960245E-1,3.779728711E-1,2.878702581E-1
3.276570233E0,4.813618064E-1,3.388774991E-1,2.889392674E-1
3.278823041E0,4.740314186E-1,3.095559776E-1,2.875648141E-1
3.281077130E0,4.703662395E-1,2.678644061E-1,2.935207486E-1
3.283330059E0,4.731151462E-1,2.214386463E-1,2.958115041E-1
3.285583661E0,4.793764949E-1,1.701259762E-1,3.029891551E-1
3.287837445E0,4.720461071E-1,1.174388453E-1,3.185662329E-1
3.290091718E0,4.673119187E-1,7.223481685E-2,3.367394805E-1
3.292344037E0,4.624249935E-1,2.336559631E-2,3.536909819E-1
3.294593671E0,4.576907754E-1,-4.276056588E-2,3.656028509E-1
3.296837017E0,4.492913783E-1,-1.026253626E-1,3.799581826E-1
3.299103254E0,4.358523488E-1,-1.504255682E-1,3.930917978E-1
3.301357343E0,4.173736870E-1,-1.773036420E-1,3.966042697E-1
3.303614423E0,3.940080702E-1,-1.785253733E-1,3.976732790E-1
3.305865460E0,3.643811047E-1,-1.479821056E-1,3.976732790E-1
3.308118451E0,3.346014321E-1,-9.666942805E-2,3.988949955E-1
3.310370526E0,3.072652221E-1,-3.802636266E-2,4.037819207E-1
3.312624066E0,2.713768780E-1,2.916881628E-2,4.123340547E-1
3.314879132E0,2.330450863E-1,9.269879758E-2,4.233296216E-1
3.317130718E0,2.032654136E-1,1.524108797E-1,4.343251884E-1
3.319384381E0,1.734857261E-1,1.902845204E-1,4.488332272E-1
3.321636944E0,1.438587606E-1,2.098322064E-1,4.682282209E-1
3.323890911E0,1.166752651E-1,2.012801021E-1,4.900666475E-1
3.326145001E0,9.330966324E-2,1.754710376E-1,5.117523670E-1
3.328397442E0,6.887505949E-2,1.327104717E-1,5.309945941E-1
3.330647381E0,4.673119262E-2,7.147123665E-2,5.514585972E-1
3.332889751E0,1.740965992E-2,2.367102914E-2,5.621487498E-1
3.335153790E0,-1.832595654E-2,-1.175915636E-2,5.642867684E-1
3.337410625E0,-5.635231733E-2,-3.268129006E-2,5.652030706E-1
3.339667156E0,-9.086620808E-2,-5.345070735E-2,5.710062981E-1
3.341918560E0,-1.166752651E-1,-7.422012836E-2,5.792529583E-1
3.344171489E0,-1.288925707E-1,-1.183551401E-1,5.925393105E-1
3.346421367E0,-1.472185254E-1,-1.672243625E-1,6.068946123E-1
3.348665324E0,-1.667662114E-1,-2.199114859E-1,6.200281978E-1
3.350930827E0,-1.887573600E-1,-2.614503205E-1,6.282749176E-1
3.353184368E0,-2.232712507E-1,-2.725986242E-1,6.267477274E-1
3.355440898E0,-2.664899528E-1,-2.493857294E-1,6.119342446E-1
3.357691021E0,-3.145956099E-1,-2.090686262E-1,6.007859707E-1
3.359943768E0,-3.565925956E-1,-1.650863290E-1,5.873469114E-1
3.362198162E0,-3.984368443E-1,-1.272126883E-1,5.749769211E-1
3.364450665E0,-4.318817258E-1,-1.052215397E-1,5.723807216E-1
3.366704571E0,-4.601342380E-1,-9.911288321E-2,5.697845817E-1
3.368957684E0,-4.859432876E-1,-1.127046347E-1,5.684100986E-1
3.371211285E0,-5.044219494E-1,-1.359175146E-1,5.707008839E-1
3.373464398E0,-5.215262175E-1,-1.615738571E-1,5.728389025E-1
3.375718060E0,-5.374087095E-1,-1.922698319E-1,5.726861954E-1
3.377972332E0,-5.522221923E-1,-2.240348309E-1,5.713117123E-1
3.380225139E0,-5.668829679E-1,-2.533563673E-1,5.661193728E-1
3.382477824E0,-5.852088928E-1,-2.729040384E-1,5.549710989E-1
3.384730998E0,-6.047565937E-1,-3.036000133E-1,5.487096906E-1
3.386984476E0,-6.293439269E-1,-3.475823104E-1,5.374087095E-1
3.389237895E0,-6.389650702E-1,-3.634648323E-1,5.105306506E-1
3.391491496E0,-6.525567770E-1,-3.597996235E-1,4.883867502E-1
3.393744487E0,-6.598871946E-1,-3.426954150E-1,4.700607955E-1
3.395997539E0,-6.624833345E-1,-3.181080818E-1,4.482223690E-1
3.398248637E0,-6.637051105E-1,-2.851213515E-1,4.276056588E-1
3.400491312E0,-6.600399017E-1,-2.582432926E-1,4.118759036E-1
3.402757425E0,-6.551529765E-1,-2.338086665E-1,4.021020532E-1
3.405010905E0,-6.502660513E-1,-2.189951837E-1,3.973678350E-1
3.407268229E0,-6.429356933E-1,-2.104430795E-1,3.912591934E-1
3.409518229E0,-6.380487680E-1,-2.043344229E-1,3.865249753E-1
3.411771403E0,-6.317873597E-1,-2.104430795E-1,3.804163337E-1
3.414025004E0,-6.281222105E-1,-2.153300047E-1,3.767511547E-1
3.416278606E0,-6.232352853E-1,-2.141082734E-1,3.730859458E-1
3.418531596E0,-6.181956530E-1,-2.092213482E-1,3.707951903E-1
3.420784892E0,-6.133087277E-1,-2.006692290E-1,3.671300113E-1
3.423038065E0,-6.120869517E-1,-1.896736622E-1,3.659082949E-1
3.425291728E0,-6.097962260E-1,-1.762346178E-1,3.636175394E-1
3.427544719E0,-6.085745096E-1,-1.640173197E-1,3.636175394E-1
3.429798258E0,-6.085745096E-1,-1.481348276E-1,3.623957932E-1
3.432051127E0,-6.085745096E-1,-1.369865239E-1,3.637702465E-1
3.434305522E0,-6.061310172E-1,-1.320996135E-1,3.613267839E-1
3.436558330E0,-6.036875844E-1,-1.272126883E-1,3.649919927E-1
3.438811687E0,-6.062837839E-1,-1.211040318E-1,3.662137091E-1
3.441061747E0,-6.024658680E-1,-1.235474944E-1,3.674354553E-1
3.443304667E0,-5.975789428E-1,-1.211040318E-1,3.662137091E-1
3.445566690E0,-5.939137340E-1,-1.137736514E-1,3.627012372E-1
3.447825297E0,-5.914703012E-1,-9.911288321E-2,3.651446998E-1
3.450082987E0,-5.853615999E-1,-8.323039114E-2,3.640756905E-1
3.452334024E0,-5.755877495E-1,-6.123924255E-2,3.568980098E-1
3.454585001E0,-5.633704662E-1,-4.642575979E-2,3.495676219E-1
3.456834817E0,-5.461135507E-1,-4.031710699E-2,3.423899710E-1
3.459075112E0,-5.238169432E-1,-4.398229718E-2,3.327688277E-1
3.461332010E0,-5.016731024E-1,-5.497787148E-2,3.255911767E-1
3.463598185E0,-4.683809280E-1,-6.719517708E-2,3.196352422E-1
3.465855143E0,-4.349360466E-1,-8.781187981E-2,3.173444867E-1
3.468108805E0,-3.967569768E-1,-1.110247597E-1,3.101668358E-1
3.470359719E0,-3.547599912E-1,-1.305724531E-1,3.054326177E-1
3.472609292E0,-3.153591752E-1,-1.476766765E-1,2.982549667E-1
3.474855020E0,-2.782491148E-1,-1.707368344E-1,2.898555696E-1
3.477118264E0,-2.437352389E-1,-1.841758788E-1,2.826778889E-1
3.479368143E0,-2.141082734E-1,-1.951714456E-1,2.742784917E-1
3.481614847E0,-1.795943826E-1,-1.986839175E-1,2.648100853E-1
3.483878458E0,-1.475239545E-1,-1.950187236E-1,2.527455091E-1
3.486132547E0,-1.204931661E-1,-1.901318133E-1,2.504547536E-1
3.488389749E0,-9.453139454E-2,-1.889100820E-1,2.457205504E-1
3.490638773E0,-6.872233748E-2,-1.765400618E-1,2.362521291E-1
3.492891092E0,-4.657847434E-2,-1.569923609E-1,2.266310006E-1
3.495137857E0,-2.443460934E-2,-1.360702366E-1,2.208277881E-1
3.497385659E0,-1.069014193E-3,-1.275181174E-1,1.965458989E-1
3.499651651E0,2.229658142E-2,-1.250746548E-1,1.954768747E-1
3.501906595E0,4.688390717E-2,-1.116356254E-1,2.041817009E-1
3.504162516E0,6.536258012E-2,-9.560041130E-2,1.957823038E-1
3.506413553E0,8.628471941E-2,-9.071348608E-2,1.886046380E-1
3.508665811E0,1.072068512E-1,-9.682214260E-2,1.753183305E-1
3.510918984E0,1.246165112E-1,-1.065959856E-1,1.557706445E-1
3.513170694E0,1.418734491E-1,-1.015563458E-1,1.302670091E-1
3.515419899E0,1.579086632E-1,-8.445212245E-2,1.110247597E-1
3.517678994E0,1.701259762E-1,-5.635231733E-2,1.014036313E-1
3.519932656E0,1.762346178E-1,-2.443460934E-2,9.178250283E-2
3.522188454E0,1.811215430E-1,4.886921961E-3,8.460483700E-2
3.524436684E0,1.821905524E-1,3.176499158E-2,8.216137439E-2
3.526676186E0,1.785253733E-1,5.131268129E-2,8.216137439E-2
3.528933327E0,1.747074574E-1,6.841690838E-2,7.742717117E-2
3.531195535E0,1.673770845E-1,7.208210230E-2,7.498370856E-2
3.533442665E0,1.598939747E-1,7.330382615E-2,7.360926270E-2
3.535708412E0,1.513418704E-1,7.696902007E-2,7.238753140E-2
3.537959206E0,1.463022232E-1,8.063421398E-2,6.872233748E-2
3.540214821E0,1.401935667E-1,7.574728876E-2,6.505715102E-2
3.542463479E0,1.377501190E-1,6.475171447E-2,5.635231733E-2
3.544719032E0,1.379028261E-1,4.520402849E-2,4.902193695E-2
3.546972756E0,1.417207420E-1,1.221730467E-2,3.787364438E-2
3.549226479E0,1.504255682E-1,-2.565634064E-2,2.321287990E-2
3.551479348E0,1.580613852E-1,-6.719517708E-2,7.177666761E-3
3.553732705E0,1.667662114E-1,-9.896016866E-2,-7.483099122E-3
3.555986123E0,1.766927689E-1,-1.233947799E-1,-1.847867295E-2
3.558236306E0,1.817324162E-1,-1.404990107E-1,-2.458732575E-2
3.560480630E0,1.892155111E-1,-1.551597714E-1,-4.169155285E-2
3.562745523E0,1.930334121E-1,-1.747074574E-1,-5.390885845E-2
3.564999063E0,1.980730593E-1,-1.991420686E-1,-6.368270516E-2
3.567255715E0,2.067778856E-1,-2.321287990E-1,-7.727445662E-2
3.569506265E0,2.118175179E-1,-2.565633953E-1,-9.682214260E-2
3.571759621E0,2.180788964E-1,-2.663372457E-1,-1.188132912E-1
3.574012733E0,2.193006277E-1,-2.675589919E-1,-1.395827085E-1
3.576266335E0,2.156354338E-1,-2.541199327E-1,-1.577559561E-1
3.578520301E0,2.107485086E-1,-2.429716438E-1,-1.785253733E-1
3.580769752E0,1.997529417E-1,-2.319760770E-1,-2.054034323E-1
3.583013222E0,1.910481006E-1,-2.160935849E-1,-2.273945808E-1
3.585279395E0,1.886046380E-1,-1.953241676E-1,-2.432770878E-1
3.587532997E0,1.837177277E-1,-1.818851233E-1,-2.614503205E-1
3.589789649E0,1.786780804E-1,-1.769981980E-1,-2.773328125E-1
3.592039833E0,1.750128865E-1,-1.757764816E-1,-2.909245789E-1
3.594294227E0,1.737911552E-1,-1.757764816E-1,-3.029891551E-1
3.596547217E0,1.664607823E-1,-1.843285859E-1,-3.116939962E-1
3.598795875E0,1.627955884E-1,-1.892155111E-1,-3.214678466E-1
3.601037757E0,1.580613852E-1,-2.026545405E-1,-3.326161206E-1
3.603297890E0,1.543961912E-1,-2.173153162E-1,-3.387247920E-1
3.605559975E0,1.507309973E-1,-2.295326144E-1,-3.448334336E-1
3.607816260E0,1.482875347E-1,-2.588541508E-1,-3.486513495E-1
3.610068458E0,1.435533315E-1,-2.955060601E-1,-3.500257730E-1
3.612319740E0,1.374446750E-1,-3.321579695E-1,-3.514002264E-1
3.614573769E0,1.302670091E-1,-3.714060783E-1,-3.503312171E-1
3.616826454E0,1.217148975E-1,-4.019493461E-1,-3.468187451E-1
3.619079872E0,1.119410545E-1,-4.324925840E-1,-3.371976018E-1
3.621332862E0,1.046106741E-1,-4.569272101E-1,-3.287982047E-1
3.623586464E0,9.605856240E-2,-4.802927971E-1,-3.191770911E-1
3.625839882E0,8.506298810E-2,-5.035057068E-1,-3.083342314E-1
3.628093300E0,7.024950534E-2,-5.279402733E-1,-2.999348342E-1
3.630343422E0,5.681046844E-2,-5.389358401E-1,-2.927571833E-1
3.632587562E0,4.199698567E-2,-5.403103232E-1,-2.855795026E-1
3.634852821E0,2.718350291E-2,-5.366451144E-1,-2.794708610E-1
3.637106789E0,1.725694351E-2,-5.293147564E-1,-2.784018219E-1
3.639363197E0,8.552113548E-3,-4.926628172E-1,-2.721404731E-1
3.641613501E0,-3.970623948E-3,-4.425718784E-1,-2.696970105E-1
3.643866979E0,-1.634064503E-2,-4.034765065E-1,-2.646573782E-1
3.646120092E0,-1.649336144E-2,-3.863722682E-1,-2.561052442E-1
3.648373572E0,7.024950348E-3,-4.218024611E-1,-2.402227521E-1
3.650627662E0,1.069014147E-2,-4.230241776E-1,-2.414444834E-1
3.652879126E0,9.315694682E-3,-3.935499489E-1,-2.449569702E-1
3.655129432E0,5.497787148E-3,-3.422372639E-1,-2.362521291E-1
3.657386450E0,1.023199316E-2,-2.787072659E-1,-2.251038402E-1
3.659639746E0,1.237002108E-2,-1.956295967E-1,-2.223549485E-1
3.661893835E0,1.588249579E-2,-1.172861308E-1,-2.183843255E-1
3.664147071E0,2.428189293E-2,-4.031710699E-2,-2.131919712E-1
3.666401709E0,4.505131021E-2,-1.069014193E-3,-2.043344229E-1
3.668654700E0,7.452555746E-2,1.114829071E-2,-1.992947906E-1
3.670906774E0,1.078177169E-1,-8.399397135E-3,-1.905899495E-1
3.673159887E0,1.386664063E-1,-4.749477282E-2,-1.881465018E-1
3.675413305E0,1.609629989E-1,-8.903361112E-2,-1.942551434E-1
3.677666663E0,1.783726513E-1,-1.207986027E-1,-2.064724565E-1
3.679919715E0,1.858557463E-1,-1.305724531E-1,-2.222022265E-1
3.682173560E0,1.895209402E-1,-1.171334088E-1,-2.417499274E-1
3.684427100E0,1.931861341E-1,-9.010262042E-2,-2.623666227E-1
3.686681556E0,2.066251636E-1,-5.589416996E-2,-2.793181241E-1
3.688933631E0,2.251038402E-1,-1.908953860E-2,-2.948952019E-1
3.691187110E0,2.460259795E-1,-3.207042580E-3,-3.081815243E-1
3.693436865E0,2.706133127E-1,4.123340361E-3,-3.153591752E-1
3.695680334E0,2.890919745E-1,4.123340361E-3,-3.188716471E-1
3.697946447E0,3.087923825E-1,-5.497787148E-3,-3.187189400E-1
3.700199988E0,3.199406862E-1,-7.941247895E-3,-3.126102984E-1
3.702457496E0,3.236058652E-1,-7.941247895E-3,-3.003929853E-1
3.704708410E0,3.248275816E-1,6.108652451E-4,-2.869539559E-1
3.706960607E0,3.210096955E-1,1.145372353E-2,-2.674062550E-1
3.709213902E0,3.196352422E-1,2.733621933E-2,-2.393064648E-1
3.711467076E0,3.219259977E-1,4.810563847E-2,-2.134974003E-1
3.713720678E0,3.168863356E-1,6.643159688E-2,-1.829541475E-1
3.715973669E0,3.118467033E-1,9.208793938E-2,-1.524108797E-1
3.718227270E0,3.080287874E-1,1.165225431E-1,-1.206458881E-1
3.720480749E0,3.090978265E-1,1.311833113E-1,-8.888089657E-2
3.722735144E0,3.164281845E-1,1.348485053E-1,-5.574145541E-2
3.724983862E0,3.200933933E-1,1.346957833E-1,-2.168571576E-2
3.727227819E0,3.225368559E-1,1.139263660E-1,8.857546374E-3
3.729493444E0,3.262020350E-1,8.460483700E-2,3.924809024E-2
3.731747838E0,3.287982047E-1,5.024366826E-2,7.452555746E-2
3.734008641E0,3.263547719E-1,1.481348183E-2,1.049161032E-1
3.736254491E0,3.214678466E-1,-1.939497143E-2,1.340849251E-1
3.738509069E0,3.054326177E-1,-4.520402849E-2,1.473712474E-1
3.740760656E0,2.808452845E-1,-4.764748737E-2,1.545489132E-1
3.743013464E0,2.412917763E-1,-2.321287990E-2,1.519527286E-1
3.745267369E0,2.005165219E-1,3.054326214E-2,1.493565589E-1
3.747520726E0,1.609629989E-1,8.918632567E-2,1.444696337E-1
3.749774328E0,1.299615800E-1,1.514945775E-1,1.432479024E-1
3.752027319E0,1.052215397E-1,2.015855312E-1,1.409571618E-1
3.754280737E0,7.803803682E-2,2.357939780E-1,1.469130963E-1
3.756531164E0,5.681046844E-2,2.736676335E-1,1.603521258E-1
3.758775488E0,2.962696366E-2,3.054326177E-1,1.725694388E-1
3.761040929E0,1.114829071E-2,2.918408811E-1,1.797471046E-1
3.763292394E0,-2.290744567E-3,2.612976134E-1,1.855503172E-1
3.765545262E0,-1.206458826E-2,2.246456891E-1,1.890627891E-1
3.767800755E0,-2.290744707E-2,1.878410578E-1,1.864666194E-1
3.770054356E0,-2.031126991E-2,1.450804919E-1,1.924225539E-1
3.772308933E0,-2.031126991E-2,1.291979998E-1,1.899790913E-1
3.774561131E0,-1.298088674E-2,1.194241568E-1,1.875356287E-1
3.776815343E0,-6.719517522E-3,1.230893433E-1,1.850921661E-1
3.779067174E0,-6.108652451E-4,1.218676195E-1,1.826487035E-1
3.781321080E0,1.175915636E-2,1.096503139E-1,1.779145002E-1
3.783573948E0,2.290744707E-2,9.498954564E-2,1.669189334E-1
3.785827794E0,4.276056588E-2,7.315111160E-2,1.644754708E-1
3.788081090E0,6.123924255E-2,4.871650413E-2,1.608102769E-1
3.790334569E0,7.987063378E-2,2.916881628E-2,1.548543423E-1
3.792589451E0,9.834930301E-2,7.177666761E-3,1.524108797E-1
3.794844273E0,1.070541367E-1,-7.483099122E-3,1.499674171E-1
3.797082676E0,1.145372316E-1,-1.847867295E-2,1.475239545E-1
3.799347385E0,1.194241568E-1,-2.580905706E-2,1.426370293E-1
3.801597446E0,1.145372316E-1,-1.847867295E-2,1.377501190E-1
3.803848911E0,1.120937690E-1,-1.237002108E-2,1.316414624E-1
3.806108006E0,1.033889428E-1,-5.039638374E-3,1.304197311E-1
3.808361424E0,9.850201756E-2,-3.817907767E-3,1.279762685E-1
3.810618199E0,9.483683109E-2,-1.114829071E-2,1.279762685E-1
3.812868199E0,9.239336848E-2,-1.847867295E-2,1.253800988E-1
3.815117528E0,8.246681094E-2,-2.458732575E-2,1.278235465E-1
3.817374424E0,7.513642311E-2,-4.062253982E-2,1.374446750E-1
3.819627415E0,6.780604273E-2,-5.528330430E-2,1.360702366E-1
3.821882359E0,5.665775016E-2,-3.573561832E-2,1.287398487E-1
3.824134801E0,4.062253982E-2,9.162978968E-4,1.252273768E-1
3.826388280E0,1.954768784E-2,4.001167417E-2,1.264491081E-1
3.828641698E0,3.359758761E-3,7.422012836E-2,1.215621829E-1
3.830892979E0,-1.511891466E-2,9.987647086E-2,1.154535338E-1
3.833134616E0,-3.252857551E-2,1.366810948E-1,1.130100712E-1
3.835396029E0,-5.115996301E-2,1.843285859E-1,1.117883399E-1
3.837654513E0,-7.086037099E-2,2.197587788E-1,1.117883399E-1
3.839907931E0,-8.949175477E-2,2.490803003E-1,1.105666086E-1
3.842149569E0,-1.079704314E-1,2.747366428E-1,1.069014147E-1
3.844414829E0,-1.180497110E-1,3.016147017E-1,1.105666086E-1
3.846668491E0,-1.278235465E-1,3.162754774E-1,1.081231460E-1
3.848925999E0,-1.389718503E-1,3.187189400E-1,1.020144969E-1
3.851171848E0,-1.463022232E-1,3.187189400E-1,9.941831976E-2
3.853415317E0,-1.475239545E-1,3.150537610E-1,1.018617824E-1
3.855681430E0,-1.487456858E-1,3.112358451E-1,1.067487001E-1
3.857935886E0,-1.414152980E-1,3.014619946E-1,1.091921628E-1
3.860194796E0,-1.314887404E-1,2.806925774E-1,1.043052375E-1
3.862441195E0,-1.203404516E-1,2.722931802E-1,1.018617824E-1
3.864695346E0,-1.104138941E-1,2.649627924E-1,1.020144969E-1
3.866948642E0,-9.437867999E-2,2.551889420E-1,1.044579595E-1
3.869201816E0,-7.834346592E-2,2.490803003E-1,1.081231460E-1
3.871455112E0,-5.986479297E-2,2.417499274E-1,9.850201756E-2
3.873708224E0,-3.512475267E-2,2.209804952E-1,6.566801667E-2
3.875961582E0,-1.282817032E-2,1.855503172E-1,7.666359097E-2
3.878214634E0,1.985311974E-3,1.513418704E-1,1.047633886E-1
3.880468845E0,1.557706390E-2,1.305724531E-1,1.047633886E-1
3.882723423E0,3.298672289E-2,9.392052889E-2,1.070541367E-1
3.884976230E0,4.413501546E-2,5.115996301E-2,1.180497110E-1
3.887228489E0,4.917465150E-2,2.061670274E-2,1.252273768E-1
3.889481418E0,4.917465150E-2,-3.054326226E-4,1.362229437E-1
3.891735203E0,5.161811411E-2,-1.863138936E-2,1.411098689E-1
3.893988498E0,5.299255997E-2,-4.184427112E-2,1.543961912E-1
3.896240694E0,5.177082866E-2,-6.994406879E-2,1.640173197E-1
3.898494844E0,5.054909736E-2,-1.017090604E-1,1.797471046E-1
3.900748812E0,5.192354694E-2,-1.360702366E-1,1.870774776E-1
3.903004549E0,5.085453019E-2,-1.690569520E-1,1.795943826E-1
3.905259677E0,4.108068720E-2,-1.959350258E-1,1.660026312E-1
3.907508822E0,3.375030309E-2,-2.215913683E-1,1.572978050E-1
3.909761690E0,1.908953860E-2,-2.521346211E-1,1.620320082E-1
3.912014315E0,5.650503561E-3,-2.755002379E-1,1.545489132E-1
3.914268527E0,-9.010262787E-3,-2.864958048E-1,1.311833113E-1
3.916522006E0,-3.237585723E-2,-2.962696552E-1,1.090394482E-1
3.918775668E0,-5.207626149E-2,-3.036000133E-1,1.064432710E-1
3.921028292E0,-8.536841720E-2,-3.109304011E-1,1.136209369E-1
3.923275973E0,-1.160643995E-1,-3.121521473E-1,1.122464910E-1
3.925535677E0,-1.456913650E-1,-3.135266006E-1,1.072068512E-1
3.927788606E0,-1.789835095E-1,-3.013092875E-1,1.093448773E-1
3.930040804E0,-2.110539377E-1,-2.793181241E-1,1.142318025E-1
3.932283296E0,-2.431243658E-1,-2.499966025E-1,1.153008118E-1
3.934548434E0,-2.654209435E-1,-2.231185287E-1,1.165225431E-1
3.936802767E0,-2.851213515E-1,-1.999056488E-1,1.212567538E-1
3.939059725E0,-3.000875413E-1,-1.815796942E-1,1.224784851E-1
3.941309176E0,-3.161227703E-1,-1.670716405E-1,1.273654103E-1
3.943561984E0,-3.222314119E-1,-1.634064466E-1,1.298088580E-1
3.945815462E0,-3.236058652E-1,-1.634064466E-1,1.420261711E-1
3.948069064E0,-3.199406862E-1,-1.646281779E-1,1.566869318E-1
3.950322360E0,-3.126102984E-1,-1.621847153E-1,1.798998117E-1
3.952576022E0,-3.052799106E-1,-1.585195363E-1,2.141082734E-1
3.954830660E0,-2.955060601E-1,-1.548543423E-1,2.544253767E-1
3.957083650E0,-2.832887471E-1,-1.560760736E-1,2.984076738E-1
3.959335115E0,-2.648100853E-1,-1.621847153E-1,3.364340365E-1
3.961588349E0,-2.426662147E-1,-1.745547503E-1,3.706424832E-1
3.963842133E0,-2.180788964E-1,-1.843285859E-1,4.111123085E-1
3.966095674E0,-1.924225539E-1,-1.904372424E-1,4.612032473E-1
3.968349519E0,-1.728748679E-1,-1.806633919E-1,5.126686692E-1
3.970602571E0,-1.533271819E-1,-1.488984078E-1,5.616905689E-1
3.972855378E0,-1.412625909E-1,-9.880745411E-2,6.168211699E-1
3.975106477E0,-1.218676195E-1,-3.772092983E-2,6.794348955E-1
3.977362703E0,-9.636399150E-2,1.114829071E-2,7.469354868E-1
3.979615511E0,-6.566801667E-2,2.825251780E-2,8.032878041E-1
3.981870088E0,-3.390302137E-2,5.024366826E-2,8.706356883E-1
3.984122530E0,1.527163084E-3,6.490442902E-2,9.356928468E-1
3.986376131E0,3.344487399E-2,7.834346592E-2,1.003040791E0
3.988629365E0,6.017022580E-2,1.174388453E-1,1.077871680E0
3.990882905E0,9.453139454E-2,1.333213449E-1,1.128115416E0
3.993137055E0,1.252273768E-1,1.540907621E-1,1.174693823E0
3.995388581E0,1.533271819E-1,1.809688359E-1,1.229977131E0
3.997642427E0,1.950187236E-1,2.127338201E-1,1.252273798E0
3.999896027E0,2.480112910E-1,2.202169150E-1,1.231809735E0
4.002147065E0,3.110831380E-1,1.518000066E-1,1.233184218E0
4.004391756E0,3.914119005E-1,5.650503561E-2,1.239445567E0
4.006656221E0,4.830417037E-1,-8.765916526E-2,1.226159215E0
4.008909700E0,5.685628057E-1,-2.538145185E-1,1.222494125E0
4.011166902E0,6.230825782E-1,-3.772092760E-1,1.223563075E0
4.013416170E0,5.590944290E-1,-3.576616049E-1,1.180497050E0
4.015669222E0,4.876231849E-1,-3.307835162E-1,1.159422278E0
4.017922456E0,5.322163701E-1,-4.408919811E-1,1.182482362E0
4.020175813E0,6.869179606E-1,-6.571382880E-1,1.182787776E0
4.022429780E0,8.625417352E-1,-9.381362796E-1,1.201113820E0
4.024683197E0,1.011440158E0,-1.281442523E0,1.225395679E0
4.026937897E0,1.124602914E0,-1.613906026E0,1.199281216E0
4.029187409E0,1.151175499E0,-1.803426862E0,1.184162259E0
4.031429902E0,1.129184365E0,-1.881617665E0,1.213025689E0
4.033695770E0,1.095586777E0,-1.839009762E0,1.283733368E0
4.035949493E0,1.061683774E0,-1.693623900E0,1.362229466E0
4.038206451E0,1.046259403E0,-1.511586070E0,1.418887258E0
4.040456513E0,1.067639709E0,-1.304960847E0,1.459967971E0
4.042709260E0,1.110094905E0,-1.137431145E0,1.491274834E0
4.044963410E0,1.139263630E0,-9.772316813E-1,1.499368787E0
4.047214264E0,1.160949349E0,-8.304712772E-1,1.501201391E0
4.049456940E0,1.161713004E0,-7.203628421E-1,1.501506805E0
4.051723176E0,1.139416456E0,-6.323982477E-1,1.491885662E0
4.053976288E0,1.097419381E0,-5.638286471E-1,1.445612550E0
4.056233001E0,1.045495868E0,-4.844161272E-1,1.408807993E0
4.058479889E0,9.912815690E-1,-4.416555762E-1,1.344056249E0
4.060723297E0,9.433286786E-1,-3.964515328E-1,1.285260439E0
4.062988800E0,8.877398968E-1,-3.549126983E-1,1.250899315E0
4.065240326E0,8.361217976E-1,-3.194825351E-1,1.178664446E0
4.067500152E0,7.892379165E-1,-2.594650090E-1,1.117577910E0
4.069750153E0,7.434229851E-1,-1.788308024E-1,1.090699911E0
4.072004242E0,6.976081133E-1,-9.330966324E-2,1.073595643E0
4.074256806E0,6.507241726E-1,-2.977968007E-2,1.044274092E0
4.076509857E0,6.186537743E-1,8.093964309E-3,1.005178809E0
4.078762726E0,6.101016402E-1,3.390302137E-2,9.624181986E-1
4.081017121E0,5.806274414E-1,3.878994286E-2,9.329439402E-1
4.083269928E0,5.400048494E-1,8.093964309E-3,9.130908251E-1
4.085518280E0,5.070181489E-1,-2.000583708E-2,8.773552179E-1
4.087776886E0,4.726569951E-1,-2.733621933E-2,8.478809595E-1
4.090029998E0,4.198171496E-1,-6.032294407E-2,8.364272118E-1
4.092284758E0,3.767511547E-1,-7.757988572E-2,8.043568134E-1
4.094536650E0,3.373503387E-1,-6.291911751E-2,7.748825550E-1
4.096790435E0,2.784018219E-1,-9.224065393E-2,7.597636580E-1
4.099044525E0,2.194533348E-1,-1.339322031E-1,7.360926270E-1
4.101298187E0,1.887573600E-1,-1.437060535E-1,6.980662346E-1
4.103547088E0,1.444696337E-1,-1.473712474E-1,6.794348955E-1
4.105790740E0,7.925976813E-2,-1.597412676E-1,6.789767146E-1
4.108057097E0,1.130100712E-2,-9.987647086E-2,6.751587987E-1
4.110310333E0,-5.421429127E-2,-2.168571576E-2,6.505714655E-1
4.112566863E0,-9.850201756E-2,3.940080851E-2,6.004805565E-1
4.114816619E0,-1.194241568E-1,7.131851465E-2,5.540547967E-1
4.117070892E0,-1.427897513E-1,6.383541971E-2,5.282457471E-1
4.119324981E0,-1.550070494E-1,5.910121277E-2,4.891503453E-1
4.121577301E0,-1.611157060E-1,5.910121277E-2,4.390594065E-1
4.123830473E0,-1.780672222E-1,2.901609987E-3,3.875939846E-1
4.126083220E0,-1.899790913E-1,-9.605856240E-2,3.284927905E-1
4.128338286E0,-1.808161139E-1,-1.986839175E-1,2.660318017E-1
4.130594940E0,-1.742493063E-1,-3.002402782E-1,2.180788964E-1
4.132842864E0,-1.737911552E-1,-4.040873647E-1,1.750128865E-1
4.135093536E0,-1.921171248E-1,-4.529565871E-1,1.380555481E-1
4.137350311E0,-2.041817009E-1,-4.944954216E-1,9.636399150E-2
4.139601837E0,-2.026545405E-1,-5.384777188E-1,5.360342562E-2
4.141852324E0,-2.073887438E-1,-5.787948370E-1,1.435533352E-2
4.144110381E0,-2.096794993E-1,-6.020076871E-1,-1.511891466E-2
4.146364227E0,-2.084577680E-1,-6.105598211E-1,-3.588833287E-2
4.148618927E0,-2.109012306E-1,-6.007859707E-1,-5.161811411E-2
4.150870635E0,-2.145664245E-1,-5.700899959E-1,-6.383541971E-2
4.153123015E0,-2.208277881E-1,-5.297728777E-1,-7.467827946E-2
4.155373258E0,-2.234239578E-1,-4.894557893E-1,-7.941248268E-2
4.157627409E0,-2.260201424E-1,-4.503603876E-1,-8.552113175E-2
4.159870939E0,-2.212859392E-1,-4.149302244E-1,-9.392052889E-2
4.162137663E0,-2.139555514E-1,-3.915646076E-1,-1.035416573E-1
4.164390410E0,-2.003637999E-1,-3.769038618E-1,-1.168279797E-1
4.166647306E0,-1.879937798E-1,-3.671300113E-1,-1.313360333E-1
4.168897917E0,-1.731802970E-1,-3.523165286E-1,-1.495092660E-1
4.171152251E0,-1.621847153E-1,-3.242167234E-1,-1.652390510E-1
4.173405303E0,-1.536326110E-1,-2.875648141E-1,-1.711949855E-1
4.175657377E0,-1.415680200E-1,-2.348776907E-1,-1.757764816E-1
4.177910184E0,-1.269072592E-1,-1.847867370E-1,-1.779145002E-1
4.180164030E0,-1.085812971E-1,-1.542434692E-1,-1.777617931E-1
4.182417510E0,-8.032877743E-2,-1.235474944E-1,-1.762346178E-1
4.184671050E0,-4.825835302E-2,-1.101084575E-1,-1.736384481E-1
4.186924344E0,-1.511891466E-2,-1.174388453E-1,-1.684460938E-1
4.189178068E0,2.321287990E-2,-1.369865239E-1,-1.658499092E-1
4.191432157E0,6.398813426E-2,-1.698205322E-1,-1.634064466E-1
4.193680998E0,1.072068512E-1,-2.138028294E-1,-1.620320082E-1
4.195924162E0,1.528690308E-1,-2.614503205E-1,-1.582140923E-1
4.198190153E0,1.960877478E-1,-3.078760803E-1,-1.507309973E-1
4.200444365E0,2.417499274E-1,-3.530801237E-1,-1.470658034E-1
4.202701079E0,2.887865305E-1,-3.982841372E-1,-1.456913650E-1
4.204951140E0,3.381139040E-1,-4.459316432E-1,-1.430951804E-1
4.207204924E0,3.900374472E-1,-5.007568002E-1,-1.404990107E-1
4.209459013E0,4.382958114E-1,-5.520694852E-1,-1.440114826E-1
4.211711088E0,4.925101101E-1,-5.459607840E-1,-1.473712474E-1
4.213963835E0,5.427537560E-1,-5.091561675E-1,-1.444696337E-1
4.216217496E0,5.894849896E-1,-4.798346460E-1,-1.380555481E-1
4.218471218E0,6.276640296E-1,-4.564690590E-1,-1.340849251E-1
4.220724820E0,6.606507897E-1,-3.917173445E-1,-1.262963861E-1
4.222976956E0,6.826419234E-1,-3.182607889E-1,-1.186605766E-1
4.225227140E0,7.032586336E-1,-2.351831198E-1,-1.133155003E-1
4.227485868E0,7.250970602E-1,-1.446223408E-1,-1.140790880E-1
4.229737882E0,7.544185519E-1,-5.528330430E-2,-1.209513173E-1
4.231991483E0,7.811439037E-1,4.749477282E-2,-1.229366288E-1
4.234242886E0,7.980954647E-1,1.562287807E-1,-1.249219403E-1
4.236498014E0,8.148942590E-1,2.883284092E-1,-1.328631938E-1
4.238751371E0,8.318457603E-1,4.277583957E-1,-1.456913650E-1
4.241005216E0,8.437576294E-1,5.635231733E-1,-1.623374373E-1
4.243259000E0,8.642216325E-1,7.041749358E-1,-1.886046380E-1
4.245512235E0,8.923214078E-1,8.265006542E-1,-2.185370475E-1
4.247764676E0,9.265298843E-1,9.451612234E-1,-2.495384514E-1
4.250017910E0,9.668469429E-1,1.045495868E0,-2.806925774E-1
4.252271328E0,1.008538485E0,1.129948020E0,-3.168863356E-1
4.254524929E0,1.051604509E0,1.193630695E0,-3.651446998E-1
4.256778104E0,1.097113967E0,1.237765670E0,-4.086688459E-1
4.259031461E0,1.145219564E0,1.267239928E0,-4.511239827E-1
4.261284940E0,1.192103505E0,1.275944829E0,-5.019785166E-1
4.263539335E0,1.244027019E0,1.255328059E0,-5.566509366E-1
4.265791532E0,1.293507099E0,1.211345792E0,-6.249151230E-1
4.268044950E0,1.338100314E0,1.174846530E0,-7.028004527E-1
4.270297818E0,1.366658211E0,1.171334147E0,-7.881689072E-1
4.272551481E0,1.369254470E0,1.228908181E0,-8.843801618E-1
4.274804716E0,1.350470304E0,1.369559884E0,-9.865473509E-1
4.277058255E0,1.316872716E0,1.577559471E0,-1.093448758E0
4.279311367E0,1.279304504E0,1.818393111E0,-1.197906733E0
4.281563747E0,1.251815557E0,2.047162056E0,-1.296103358E0
4.283808376E0,1.238987446E0,2.244013548E0,-1.382235289E0
4.286071926E0,1.248608589E0,2.378709316E0,-1.456150055E0
4.288324672E0,1.273195863E0,2.463161469E0,-1.514334917E0
4.290580898E0,1.307557106E0,2.491261244E0,-1.556790113E0
4.292831203E0,1.342223644E0,2.468200922E0,-1.582293749E0
4.295082791E0,1.373225093E0,2.397340536E0,-1.593289256E0
4.297338589E0,1.392009139E0,2.290897369E0,-1.580155730E0
4.299592556E0,1.402241111E0,2.140471935E0,-1.542740226E0
4.301845791E0,1.417512774E0,1.982715845E0,-1.496772528E0
4.304098416E0,1.424079657E0,1.818851233E0,-1.449735999E0
4.306348416E0,1.418276429E0,1.656208396E0,-1.391703725E0
4.308589687E0,1.401324868E0,1.519221902E0,-1.332449794E0
4.310845181E0,1.372003317E0,1.389412999E0,-1.278082848E0
4.313100125E0,1.343903542E0,1.292743564E0,-1.226159215E0
4.315369717E0,1.318247199E0,1.210734963E0,-1.186300278E0
4.317622280E0,1.283886075E0,1.150870085E0,-1.164614558E0
4.319875148E0,1.240820050E0,1.100626469E0,-1.163851023E0
4.322125209E0,1.205389857E0,1.061531067E0,-1.202030063E0
4.324378200E0,1.180955291E0,1.071304917E0,-1.319316268E0
4.326632046E0,1.160185814E0,1.088561893E0,-1.441489220E0
4.328885037E0,1.167821646E0,1.109483957E0,-1.550070524E0
4.331138028E0,1.162781954E0,1.118036151E0,-1.535409808E0
4.333392361E0,1.236238599E0,1.162018418E0,-1.405448198E0
4.335646572E0,1.357953429E0,1.166905284E0,-1.303280950E0
4.337899075E0,1.390329242E0,1.029918790E0,-1.252273798E0
4.340151883E0,1.394605398E0,8.674286604E-1,-1.249219418E0
4.342405238E0,1.376737595E0,6.950119138E-1,-1.299921274E0
4.344655421E0,1.318399906E0,5.042692423E-1,-1.380249977E0
4.346895961E0,1.248914003E0,3.342960179E-1,-1.475239515E0
4.349152186E0,1.170723200E0,1.999056488E-1,-1.600619674E0
4.351418544E0,1.076650023E0,9.468411654E-2,-1.740813255E0
4.353676600E0,9.735664725E-1,4.092797264E-2,-1.872149229E0
4.355925563E0,8.788823485E-1,4.703662544E-2,-1.970345855E0
4.358165981E0,7.730499506E-1,8.353582025E-2,-2.022116661E0
4.360432154E0,6.754642725E-1,1.421788931E-1,-2.009135723E0
4.362685817E0,5.989533663E-1,1.847867370E-1,-1.981341481E0
4.364942286E0,5.337435007E-1,1.774563491E-1,-1.980577826E0
4.367192409E0,4.798346460E-1,1.149953827E-1,-2.022574902E0
4.369446071E0,4.297437072E-1,1.970040426E-2,-2.086715698E0
4.371700282E0,3.820962012E-1,-7.574728876E-2,-2.145816803E0
4.373949306E0,3.466660380E-1,-1.233947799E-1,-2.192700863E0
4.376192225E0,3.344487250E-1,-1.160643995E-1,-2.228131056E0
4.378458216E0,3.330742717E-1,-6.841690838E-2,-2.257299900E0
4.380712305E0,3.255911767E-1,-2.183843218E-2,-2.290133715E0
4.382967982E0,3.145956099E-1,-5.955935922E-3,-2.319455385E0
4.385215724E0,2.875648141E-1,-5.955935922E-3,-2.329381943E0
4.387473781E0,2.579378486E-1,-1.450804994E-2,-2.319760799E0
4.389727382E0,2.209804952E-1,-3.909537569E-2,-2.289522886E0
4.391980128E0,1.840231568E-1,-5.024366826E-2,-2.237293959E0
4.394232020E0,1.542434692E-1,-5.650503561E-2,-2.158186913E0
4.396485743E0,1.207986027E-1,-6.154467165E-2,-2.057088614E0
4.398739284E0,8.491026610E-2,-7.513642311E-2,-1.941329718E0
4.400992763E0,3.283400834E-2,-8.994990587E-2,-1.818393111E0
4.403244533E0,-2.535090782E-2,-8.888089657E-2,-1.691791296E0
4.405494410E0,-9.208793938E-2,-8.552113175E-2,-1.558011770E0
4.407753625E0,-1.577559561E-1,-5.513058975E-2,-1.417970896E0
4.410002649E0,-2.223549485E-1,-1.023199316E-2,-1.276555657E0
4.412247583E0,-2.855795026E-1,5.681046844E-2,-1.129031658E0
4.414512231E0,-3.452915847E-1,1.311833113E-1,-9.801332951E-1
4.416766199E0,-4.001167417E-1,2.275473028E-1,-8.361217976E-1
4.419022851E0,-4.573853612E-1,3.190243840E-1,-6.872233748E-1
4.421273035E0,-5.122104883E-1,4.019493461E-1,-5.531384945E-1
4.423526392E0,-5.583308339E-1,4.824308157E-1,-4.260784984E-1
4.425780543E0,-6.006332636E-1,5.496259928E-1,-3.016147017E-1
4.428033411E0,-6.343835592E-1,6.154467463E-1,-1.893682331E-1
4.430288111E0,-6.693555713E-1,6.837109327E-1,-8.307767659E-2
4.432539331E0,-6.992880106E-1,7.362453341E-1,4.734205548E-3
4.434792933E0,-7.191411257E-1,7.666358948E-1,8.170322329E-2
4.437045679E0,-7.379252315E-1,7.898487449E-1,1.463022232E-1
4.439299586E0,-7.541131377E-1,7.958046794E-1,1.999056488E-1
4.441550745E0,-7.640396953E-1,8.068002462E-1,2.463314086E-1
4.443794153E0,-7.666358948E-1,8.043568134E-1,2.840523422E-1
4.446044824E0,-7.629706860E-1,8.066475391E-1,3.121521473E-1
4.448302332E0,-7.506006956E-1,8.005388975E-1,3.306308091E-1
4.450551966E0,-7.321220040E-1,7.663304210E-1,3.379611969E-1
4.452811182E0,-7.035640478E-1,7.186829448E-1,3.342960179E-1
4.455079981E0,-6.751587987E-1,6.649268270E-1,3.294090927E-1
4.457329919E0,-6.453791261E-1,6.148358583E-1,3.269656301E-1
4.459583887E0,-6.206390858E-1,5.757405162E-1,3.171917796E-1
4.461832972E0,-5.871942043E-1,5.258022547E-1,2.988658249E-1
4.464086451E0,-5.499314666E-1,4.586070776E-1,2.719877362E-1
4.466339747E0,-5.077817440E-1,3.938553631E-1,2.452623993E-1
4.468592981E0,-4.680754840E-1,3.168863356E-1,2.196060568E-1
4.470846460E0,-4.247040749E-1,2.545780838E-1,1.902845204E-1
4.473098413E0,-3.837760985E-1,2.046398520E-1,1.598939747E-1
4.475347252E0,-3.454442918E-1,1.704314053E-1,1.233947799E-1
4.477606225E0,-3.046690524E-1,1.533271819E-1,8.827003092E-2
4.479860863E0,-2.590068579E-1,1.461495161E-1,5.054909736E-2
4.482111474E0,-2.121229619E-1,1.353066564E-1,2.031126991E-2
4.484353662E0,-1.701259762E-1,1.096503139E-1,-2.748893574E-3
4.486619652E0,-1.194241568E-1,7.910704613E-2,-1.832595654E-2
4.488873315E0,-6.765332818E-2,6.826419383E-2,-2.535090782E-2
4.491129967E0,-1.099557430E-2,6.337726861E-2,-2.504547499E-2
4.493379846E0,3.955352306E-2,5.864306539E-2,-1.863138936E-2
4.495633325E0,8.124507964E-2,6.719517708E-2,-3.817907767E-3
4.497887597E0,1.107193232E-1,9.162978828E-2,2.214386500E-2
4.500139673E0,1.327104717E-1,1.295034289E-1,5.421429127E-2
4.502393396E0,1.521054506E-1,1.820378453E-1,9.101892263E-2
4.504646509E0,1.728748679E-1,2.298380435E-1,1.182024255E-1
4.506900293E0,1.924225539E-1,2.677116990E-1,1.525636017E-1
4.509150354E0,2.032654136E-1,3.080287874E-1,1.918116808E-1
4.511393639E0,2.104430795E-1,3.397938013E-1,2.286163121E-1
4.513659692E0,2.102903575E-1,3.617849350E-1,2.616030276E-1
4.515914513E0,2.052507252E-1,3.801108897E-1,2.849686444E-1
4.518170006E0,2.052507252E-1,4.082106948E-1,2.922990322E-1
4.520420373E0,1.965458989E-1,4.240931869E-1,3.118467033E-1
4.522673302E0,1.705841124E-1,4.178318381E-1,3.666718602E-1
4.524926782E0,1.296561509E-1,3.981314301E-1,4.590652287E-1
4.527180200E0,7.528914511E-2,4.199698567E-1,5.528330207E-1
4.529433740E0,2.061670274E-2,4.857905805E-1,6.453791261E-1
4.531687829E0,-2.779436857E-2,5.664247870E-1,7.345654368E-1
4.533941429E0,-8.246681094E-2,6.579018831E-1,8.235990405E-1
4.536193627E0,-1.249219403E-1,7.434229851E-1,9.127854109E-1
4.538446923E0,-1.609629989E-1,7.945829630E-1,9.993755221E-1
4.540700219E0,-1.905899495E-1,7.797694802E-1,1.068708777E0
4.542952904E0,-2.238821089E-1,7.515169382E-1,1.125824690E0
4.545202964E0,-2.620611787E-1,6.902777553E-1,1.179122686E0
4.547459556E0,-2.779437006E-1,6.155994534E-1,1.242194533E0
4.549713402E0,-2.509129047E-1,5.703954101E-1,1.314276576E0
4.551969261E0,-2.090686262E-1,5.386304259E-1,1.372919679E0
4.554220665E0,-1.857030392E-1,5.276348591E-1,1.421941519E0
4.556473900E0,-1.797471046E-1,5.655084848E-1,1.451415777E0
4.558726280E0,-2.067778856E-1,5.592471361E-1,1.477988482E0
4.560980492E0,-2.780964077E-1,4.967861474E-1,1.503033876E0
4.563233849E0,-4.097378552E-1,4.292855561E-1,1.534951687E0
4.565487206E0,-5.648976564E-1,3.741549551E-1,1.564425945E0
4.567740807E0,-7.038694620E-1,3.310889602E-1,1.563356876E0
4.569995078E0,-7.348709106E-1,4.106541574E-1,1.521970749E0
4.572243858E0,-6.563746929E-1,5.746715069E-1,1.442405581E0
4.574484459E0,-5.013676286E-1,7.363980412E-1,1.329089999E0
4.576737999E0,-3.581197560E-1,7.391469479E-1,1.157895088E0
4.578994713E0,-2.277000248E-1,5.303837657E-1,9.553932548E-1
4.581263999E0,-1.145372316E-1,2.825251818E-1,7.721336484E-1
4.583517051E0,-5.787948146E-2,-3.359758761E-3,6.397286057E-1
