"Time (s)","Gyroscope x (rad/s)","Gyroscope y (rad/s)","Gyroscope z (rad/s)"
2.432504500E-2,-2.099116333E-2,-9.998703748E-2,1.122776419E-1
2.629804500E-2,-2.099116333E-2,-9.998703748E-2,1.122776419E-1
2.828454500E-2,-2.099116333E-2,-9.998703748E-2,1.122776419E-1
3.027821100E-2,-2.099116333E-2,-9.998703748E-2,1.122776419E-1
3.227346100E-2,-2.506765127E-1,5.692653358E-3,-5.632116273E-2
3.426966100E-2,-2.848849595E-1,-7.746382151E-3,-5.937549099E-2
3.626649400E-2,-3.038217723E-1,-1.690936089E-2,-6.120808795E-2
3.826377900E-2,-3.416953981E-1,-3.279186040E-2,-6.426241249E-2
4.026140400E-2,-3.740713000E-1,-4.439829662E-2,-6.670587510E-2
4.225929200E-2,-3.905646503E-1,-5.844819546E-2,-6.792760640E-2
4.425739200E-2,-4.198861718E-1,-7.188723236E-2,-6.731674075E-2
4.625566400E-2,-4.314926267E-1,-7.371982932E-2,-6.670587510E-2
4.825408000E-2,-4.540946484E-1,-8.960232884E-2,-6.914933771E-2
5.025261800E-2,-4.766966105E-1,-1.085391492E-1,-6.914933771E-2
5.225126000E-2,-4.858596325E-1,-1.122043356E-1,-7.159279287E-2
5.424999300E-2,-4.968551993E-1,-1.354172230E-1,-7.159279287E-2
5.624880500E-2,-5.041855574E-1,-1.421367377E-1,-6.365154684E-2
5.824768700E-2,-5.127376914E-1,-1.549649090E-1,-5.509943515E-2
6.024663100E-2,-5.219006538E-1,-1.574083716E-1,-4.715818912E-2
6.224552500E-2,-5.267875791E-1,-1.561866254E-1,-4.593645409E-2
6.424447500E-2,-5.353397131E-1,-1.500779837E-1,-3.982780501E-2
6.624342700E-2,-5.383940339E-1,-1.421367377E-1,-3.738434240E-2
6.824247200E-2,-5.420591831E-1,-1.311411560E-1,-3.433001786E-2
7.024155800E-2,-5.451135039E-1,-1.158695295E-1,-3.433001786E-2
7.224068300E-2,-5.445026755E-1,-1.048739552E-1,-3.188655525E-2
7.423984300E-2,-5.402266383E-1,-8.471540362E-2,-3.677347675E-2
7.623895800E-2,-5.347288251E-1,-7.555241883E-2,-3.738434240E-2
7.823810600E-2,-5.249550343E-1,-4.623089358E-2,-4.166040197E-2
8.023728400E-2,-5.133485794E-1,-1.690936089E-2,-4.776905105E-2
8.223649000E-2,-5.084616542E-1,3.249192145E-3,-4.715818912E-2
8.423572300E-2,-4.919682741E-1,3.623591736E-2,-5.387770385E-2
8.623585600E-2,-4.834161699E-1,5.334014073E-2,-5.509943515E-2
8.823598900E-2,-4.632576108E-1,8.999206126E-2,-6.059722230E-2
9.023585500E-2,-4.406555891E-1,1.199244559E-1,-6.853846461E-2
9.223565500E-2,-4.308817387E-1,1.321417540E-1,-6.914933771E-2
9.423545500E-2,-4.027819633E-1,1.559655070E-1,-7.220365852E-2
9.623525500E-2,-3.887320161E-1,1.675719470E-1,-7.220365852E-2
9.823505500E-2,-3.581887782E-1,1.901739538E-1,-6.914933771E-2
1.002348550E-1,-3.294781148E-1,2.103324980E-1,-7.342538983E-2
1.022346550E-1,-3.154282272E-1,2.158302963E-1,-7.342538983E-2
1.042344550E-1,-2.842740715E-1,2.201063484E-1,-7.098193467E-2
1.062342550E-1,-2.671698630E-1,2.274367362E-1,-7.281453162E-2
1.082339880E-1,-2.396809161E-1,2.268258631E-1,-7.220365852E-2
1.102337210E-1,-2.066942006E-1,2.231606692E-1,-7.220365852E-2
1.122334540E-1,-1.938660294E-1,2.280476093E-1,-7.709058374E-2
1.142331870E-1,-1.675988138E-1,2.225498259E-1,-7.586885244E-2
1.162329200E-1,-1.578249782E-1,2.152194381E-1,-7.831231505E-2
1.182326530E-1,-1.315577626E-1,2.072781771E-1,-8.564270288E-2
1.202323860E-1,-1.120100841E-1,1.999478042E-1,-9.663826972E-2
1.222321860E-1,-1.022362337E-1,1.956717372E-1,-1.003034562E-1
1.242319520E-1,-8.513201028E-2,1.828435659E-1,-1.100773066E-1
1.262317520E-1,-7.841249555E-2,1.810109764E-1,-1.167968214E-1
1.282315180E-1,-6.558432430E-2,1.657393426E-1,-1.320684552E-1
1.302312840E-1,-5.519961566E-2,1.443590671E-1,-1.461183578E-1
1.322310500E-1,-5.031269416E-2,1.339743435E-1,-1.552813351E-1
1.342308160E-1,-4.909096658E-2,1.052636877E-1,-1.711638272E-1
1.362306490E-1,-4.909096658E-2,8.938119560E-2,-1.778833419E-1
1.382304820E-1,-4.664750397E-2,5.639446899E-2,-1.962093115E-1
1.402303150E-1,-5.336701870E-2,1.913168840E-2,-2.084266096E-1
1.422301480E-1,-5.397788435E-2,-2.248595003E-3,-2.157569826E-1
1.442299810E-1,-6.130826846E-2,-4.073310643E-2,-2.310286313E-1
1.462298140E-1,-6.619518995E-2,-5.905906111E-2,-2.359155416E-1
1.482296470E-1,-8.024509251E-2,-9.693270922E-2,-2.469111234E-1
1.502294800E-1,-8.940806985E-2,-1.323629022E-1,-2.579067051E-1
1.522293800E-1,-9.612758458E-2,-1.470236480E-1,-2.615719140E-1
1.542292460E-1,-1.120100841E-1,-1.781777740E-1,-2.737891972E-1
1.562291120E-1,-1.187295988E-1,-1.916168183E-1,-2.780652344E-1
1.582289780E-1,-1.358338296E-1,-2.166622877E-1,-2.841738760E-1
1.602288440E-1,-1.486620009E-1,-2.343773991E-1,-2.927260101E-1
1.622287100E-1,-1.590467095E-1,-2.429295033E-1,-2.963912189E-1
1.642285760E-1,-1.743183434E-1,-2.588120103E-1,-3.000563979E-1
1.662284420E-1,-1.816487312E-1,-2.661423981E-1,-3.031107187E-1
1.682283750E-1,-1.981420964E-1,-2.753053606E-1,-3.086085320E-1
1.702283080E-1,-2.152463049E-1,-2.856900692E-1,-3.073867857E-1
1.722282410E-1,-2.244092822E-1,-2.856900692E-1,-3.092193902E-1
1.742281740E-1,-2.421243787E-1,-2.942421734E-1,-3.086085320E-1
1.762281070E-1,-2.518982291E-1,-2.924095690E-1,-3.098302186E-1
1.782280400E-1,-2.677807212E-1,-2.972964942E-1,-3.061650395E-1
1.802279730E-1,-2.848849595E-1,-2.930204570E-1,-3.049433231E-1
1.822279060E-1,-2.952696681E-1,-2.905769944E-1,-3.055542111E-1
1.842278720E-1,-3.129847348E-1,-2.844683528E-1,-3.031107187E-1
1.862277720E-1,-3.215368688E-1,-2.814140022E-1,-2.994455397E-1
1.882276720E-1,-3.404736817E-1,-2.801922858E-1,-2.921151519E-1
1.902275720E-1,-3.581887782E-1,-2.710292935E-1,-2.884499431E-1
1.922274720E-1,-3.667409122E-1,-2.655315101E-1,-2.835630476E-1
1.942273720E-1,-3.887320161E-1,-2.630880475E-1,-2.762326598E-1
1.962272720E-1,-3.966732919E-1,-2.545359433E-1,-2.750109136E-1
1.982271720E-1,-4.143883586E-1,-2.404860407E-1,-2.646262348E-1
2.002270720E-1,-4.333252013E-1,-2.258252650E-1,-2.572958469E-1
2.022269050E-1,-4.394338727E-1,-2.166622877E-1,-2.511871755E-1
2.042267380E-1,-4.547054768E-1,-1.922276914E-1,-2.463002652E-1
2.062265710E-1,-4.638684690E-1,-1.793995202E-1,-2.426350713E-1
2.082264040E-1,-4.754749238E-1,-1.488562524E-1,-2.365264148E-1
2.102262370E-1,-4.883030653E-1,-1.195347235E-1,-2.334720939E-1
2.122260700E-1,-4.901356697E-1,-9.937616438E-2,-2.316394895E-1
2.142259360E-1,-4.980769157E-1,-6.883291155E-2,-2.298069000E-1
2.162258020E-1,-5.035747290E-1,-5.478300527E-2,-2.304177582E-1
2.182256020E-1,-5.054072738E-1,-2.423974499E-2,-2.267525643E-1
2.202254020E-1,-5.054072738E-1,6.303518079E-3,-2.273634374E-1
2.222252020E-1,-5.054072738E-1,2.707293630E-2,-2.304177582E-1
2.242250020E-1,-5.035747290E-1,4.600975662E-2,-2.298069000E-1
2.262248020E-1,-4.999095201E-1,5.944879353E-2,-2.304177582E-1
2.282246020E-1,-4.986877739E-1,8.205081522E-2,-2.285851538E-1
2.302244020E-1,-4.901356697E-1,9.915503860E-2,-2.322503477E-1
2.322242020E-1,-4.852487445E-1,1.083180159E-1,-2.316394895E-1
2.342239350E-1,-4.791401029E-1,1.235896423E-1,-2.304177582E-1
2.362236680E-1,-4.718097150E-1,1.315308958E-1,-2.304177582E-1
2.382234010E-1,-4.602032900E-1,1.358069479E-1,-2.334720939E-1
2.402231340E-1,-4.528729022E-1,1.406938732E-1,-2.328612208E-1
2.422228670E-1,-4.492076933E-1,1.443590671E-1,-2.346938103E-1
2.442226000E-1,-4.357686639E-1,1.394721419E-1,-2.365264148E-1
2.462223660E-1,-4.302708805E-1,1.388612837E-1,-2.365264148E-1
2.482220990E-1,-4.180535674E-1,1.266439706E-1,-2.408024818E-1
2.502218320E-1,-4.107231796E-1,1.162592620E-1,-2.456893921E-1
2.522215650E-1,-4.046145380E-1,1.070962846E-1,-2.493545860E-1
2.542212980E-1,-3.948406875E-1,9.121379256E-2,-2.572958469E-1
2.562210310E-1,-3.905646503E-1,7.838562131E-2,-2.548523843E-1
2.582207640E-1,-3.844559789E-1,5.944879353E-2,-2.646262348E-1
2.602204970E-1,-3.789581954E-1,3.501418605E-2,-2.664588094E-1
2.622202970E-1,-3.783473074E-1,3.379245475E-2,-2.701239884E-1
2.642200300E-1,-3.771256208E-1,8.746979758E-3,-2.707348764E-1
2.662197630E-1,-3.801799417E-1,-4.159992386E-4,-2.750109136E-1
2.682194960E-1,-3.820125163E-1,-1.874195598E-2,-2.762326598E-1
2.702192290E-1,-3.899537623E-1,-3.890050948E-2,-2.817304432E-1
2.722189620E-1,-3.966732919E-1,-5.417214334E-2,-2.780652344E-1
2.742186950E-1,-4.040036500E-1,-7.249809802E-2,-2.768435180E-1
2.762184280E-1,-4.137775302E-1,-8.349367231E-2,-2.744000554E-1
2.782182280E-1,-4.339360595E-1,-1.030413583E-1,-2.682914138E-1
2.802179610E-1,-4.559272230E-1,-1.189238578E-1,-2.615719140E-1
2.822176940E-1,-4.699771106E-1,-1.262542456E-1,-2.591284215E-1
2.842174270E-1,-4.999095201E-1,-1.433584541E-1,-2.469111234E-1
2.862171600E-1,-5.151811242E-1,-1.543540359E-1,-2.432459295E-1
2.882168930E-1,-5.548874140E-1,-1.580192298E-1,-2.304177582E-1
2.902166260E-1,-5.970371366E-1,-1.586301029E-1,-2.151461393E-1
2.922163590E-1,-6.202499270E-1,-1.580192298E-1,-2.102591991E-1
2.942161590E-1,-6.678974628E-1,-1.409150064E-1,-1.943767071E-1
2.962158920E-1,-6.886668801E-1,-1.293085665E-1,-1.852137297E-1
2.982156250E-1,-7.473099232E-1,-1.060956866E-1,-1.736072898E-1
3.002153580E-1,-7.992334366E-1,-5.905906111E-2,-1.595573872E-1
3.022150910E-1,-8.255006671E-1,-3.034839593E-2,-1.522269994E-1
3.042148240E-1,-8.786460161E-1,2.646207251E-2,-1.436748952E-1
3.062145900E-1,-9.098001122E-1,5.883792788E-2,-1.381771117E-1
3.082143900E-1,-9.586693048E-1,1.327526271E-1,-1.284032613E-1
3.102141900E-1,-1.004484177E0,2.139976919E-1,-1.180185527E-1
3.122139230E-1,-1.028308034E0,2.585908473E-1,-1.149642244E-1
3.142136560E-1,-1.065570712E0,3.496097624E-1,-1.125207692E-1
3.162133890E-1,-1.083896756E0,3.984790146E-1,-1.100773066E-1
3.182131220E-1,-1.115050793E0,4.956065714E-1,-1.112990305E-1
3.202128550E-1,-1.138263702E0,5.951775908E-1,-1.149642244E-1
3.222125880E-1,-1.147426605E0,6.434359550E-1,-1.155750975E-1
3.242123880E-1,-1.159643888E0,7.375091910E-1,-1.210728809E-1
3.262121210E-1,-1.163309216E0,7.882110476E-1,-1.259597987E-1
3.282118540E-1,-1.174304724E0,8.718996048E-1,-1.308467239E-1
3.302115870E-1,-1.177359104E0,9.629185200E-1,-1.448966265E-1
3.322113200E-1,-1.176748157E0,9.934617281E-1,-1.436748952E-1
3.342110530E-1,-1.175526500E0,1.069208980E0,-1.613899767E-1
3.362107860E-1,-1.168807030E0,1.104639292E0,-1.687203646E-1
3.382105190E-1,-1.160254836E0,1.170001864E0,-1.815485358E-1
3.402103190E-1,-1.146204948E0,1.226812243E0,-1.894897968E-1
3.422100520E-1,-1.137652874E0,1.264075041E0,-1.894897968E-1
3.442097850E-1,-1.119937778E0,1.326383352E0,-1.913223863E-1
3.462095180E-1,-1.108331323E0,1.356926680E0,-1.907115132E-1
3.482092510E-1,-1.076566339E0,1.423510909E0,-1.931549907E-1
3.502089840E-1,-1.046023130E0,1.490706086E0,-1.955984384E-1
3.522087170E-1,-1.031973124E0,1.513918996E0,-1.894897968E-1
3.542084500E-1,-9.910451770E-1,1.576227188E0,-1.858246028E-1
3.562082500E-1,-9.714974761E-1,1.597607374E0,-1.772724688E-1
3.582079830E-1,-9.348455667E-1,1.643422365E0,-1.748290211E-1
3.602077160E-1,-8.939176202E-1,1.682517648E0,-1.662769020E-1
3.622074490E-1,-8.707047105E-1,1.696567655E0,-1.595573872E-1
3.642071820E-1,-8.267223835E-1,1.725278378E0,-1.491726786E-1
3.662069150E-1,-8.010661006E-1,1.741160750E0,-1.436748952E-1
3.682066480E-1,-7.564728856E-1,1.761319280E0,-1.290141344E-1
3.702063810E-1,-7.076036930E-1,1.780867100E0,-1.155750975E-1
3.722061810E-1,-6.856125593E-1,1.791251659E0,-1.112990305E-1
3.742059140E-1,-6.361324191E-1,1.802858114E0,-1.021360531E-1
3.762056470E-1,-6.129195690E-1,1.802858114E0,-9.541653842E-2
3.782053800E-1,-5.616069436E-1,1.804080009E0,-8.686442673E-2
3.802051130E-1,-5.170137286E-1,1.802858114E0,-8.442096412E-2
3.822048460E-1,-4.962443113E-1,1.801025629E0,-8.258837461E-2
3.842045790E-1,-4.504294395E-1,1.780867100E0,-8.381010592E-2
3.862043790E-1,-4.314926267E-1,1.769260645E0,-8.319923282E-2
3.882041790E-1,-3.911755085E-1,1.742993355E0,-9.236221015E-2
3.902039120E-1,-3.642974198E-1,1.703287125E0,-1.003034562E-1
3.922036450E-1,-3.514692783E-1,1.686182976E0,-1.051903814E-1
3.942033780E-1,-3.276455104E-1,1.636092067E0,-1.100773066E-1
3.962031110E-1,-3.203151226E-1,1.607992172E0,-1.161859557E-1
3.982028440E-1,-3.099304140E-1,1.553625226E0,-1.229054779E-1
4.002025770E-1,-3.056543469E-1,1.503534198E0,-1.302358508E-1
4.022023770E-1,-3.050434887E-1,1.483375788E0,-1.381771117E-1
4.042021100E-1,-3.148173392E-1,1.447334647E0,-1.485618204E-1
4.062018430E-1,-3.276455104E-1,1.435117364E0,-1.558921933E-1
4.082015760E-1,-3.465823233E-1,1.414958715E0,-1.699420959E-1
4.102013090E-1,-3.789581954E-1,1.406406641E0,-1.882680506E-1
4.122010420E-1,-4.003384709E-1,1.400297999E0,-1.949875802E-1
4.142007750E-1,-4.473750889E-1,1.412515283E0,-2.139243931E-1
4.162005080E-1,-4.724206030E-1,1.412515283E0,-2.261417061E-1
4.182003080E-1,-5.286201835E-1,1.438782454E0,-2.493545860E-1
4.202000410E-1,-5.897067189E-1,1.462606311E0,-2.756218016E-1
4.221997740E-1,-6.245260239E-1,1.480932236E0,-2.902825475E-1
4.241995070E-1,-6.892777681E-1,1.512697220E0,-3.183823526E-1
4.261992070E-1,-7.247079611E-1,1.538964510E0,-3.342648745E-1
4.281989400E-1,-7.949573994E-1,1.578059793E0,-3.654189706E-1
4.301986730E-1,-8.639852405E-1,1.628150702E0,-3.965731263E-1
4.321984060E-1,-8.981936574E-1,1.645865798E0,-4.142882228E-1
4.341982060E-1,-9.641671181E-1,1.694735050E0,-4.509401321E-1
4.361979390E-1,-9.940994978E-1,1.713671923E0,-4.686551988E-1
4.381976720E-1,-1.054575205E0,1.754599810E0,-5.059180260E-1
4.401974050E-1,-1.108942151E0,1.802247286E0,-5.431807637E-1
4.421971380E-1,-1.130322337E0,1.818129897E0,-5.608958602E-1
4.441968710E-1,-1.171250343E0,1.863944650E0,-5.999912024E-1
4.461966040E-1,-1.191408992E0,1.890822768E0,-6.183171868E-1
4.481963370E-1,-1.225006580E0,1.942135453E0,-6.586343050E-1
4.501961370E-1,-1.252495527E0,1.995891571E0,-6.983405352E-1
4.521958700E-1,-1.264101982E0,2.030100107E0,-7.209425569E-1
4.541956030E-1,-1.277541041E0,2.086910725E0,-7.612596154E-1
4.561953360E-1,-1.282427907E0,2.130892754E0,-7.826399803E-1
4.581950690E-1,-1.285482168E0,2.233518362E0,-8.272330761E-1
4.601948020E-1,-1.286093116E0,2.368519545E0,-8.669393063E-1
4.621945350E-1,-1.280595303E0,2.449764490E0,-8.852652907E-1
4.641943350E-1,-1.261658430E0,2.652571678E0,-9.316910505E-1
4.661941350E-1,-1.250051975E0,2.763749361E0,-9.530713558E-1
4.681938680E-1,-1.212789297E0,2.962891340E0,-1.000718832E0
4.701936010E-1,-1.151702762E0,2.990380049E0,-1.040425062E0
4.721933340E-1,-1.102222681E0,2.892641783E0,-1.053864121E0
4.741930670E-1,-9.366781712E-1,2.327591658E0,-1.075244427E0
4.761928000E-1,-8.352745175E-1,1.897542357E0,-1.084407330E0
4.781925330E-1,-6.233043075E-1,1.016674638E0,-1.110674620E0
4.801923330E-1,-4.296599925E-1,3.398359418E-1,-1.130222321E0
4.821921330E-1,-3.380302191E-1,6.067052484E-2,-1.131443977E0
4.841918660E-1,-1.614901721E-1,-4.237456024E-1,-1.130222321E0
4.861916320E-1,-7.963422686E-2,-6.125029922E-1,-1.120448351E0
4.881913650E-1,6.025391445E-2,-8.690664172E-1,-1.094792128E0
4.901910980E-1,1.555488855E-1,-9.246550798E-1,-1.061805248E0
4.921908310E-1,1.873138845E-1,-8.818945289E-1,-1.045312047E0
4.941905640E-1,1.964768618E-1,-6.992458701E-1,-1.003162265E0
4.961903640E-1,1.793726385E-1,-5.789054036E-1,-9.823929071E-1
4.981900970E-1,1.182861105E-1,-3.339484334E-1,-9.432975054E-1
5.001898300E-1,1.688248292E-2,-9.632184356E-2,-9.115325212E-1
5.021895630E-1,-4.053884745E-2,3.860057564E-3,-8.956500292E-1
5.041893290E-1,-1.669879556E-1,1.541329026E-1,-8.730479479E-1
5.061890620E-1,-2.347939909E-1,2.054455876E-1,-8.632741570E-1
5.081887950E-1,-3.740713000E-1,2.610343397E-1,-8.547220230E-1
5.101885280E-1,-5.078507662E-1,2.543148100E-1,-8.602198362E-1
5.121883280E-1,-5.707699060E-1,2.353779972E-1,-8.675502539E-1
5.141880610E-1,-6.984407306E-1,1.694045365E-1,-8.895413876E-1
5.161877940E-1,-7.613598704E-1,1.296983063E-1,-9.029803872E-1
5.181875270E-1,-8.749807477E-1,5.150754377E-2,-9.280259013E-1
5.201872600E-1,-9.831039310E-1,-1.385503449E-2,-9.591799974E-1
5.221869930E-1,-1.036860108E0,-4.500916228E-2,-9.726189971E-1
5.241867260E-1,-1.135820150E0,-7.921761274E-2,-1.001940608E0
5.261864590E-1,-1.179191709E0,-8.654799312E-2,-1.017823100E0
5.281862590E-1,-1.258604169E0,-8.776973188E-2,-1.046533704E0
5.301859920E-1,-1.326410174E0,-5.905906111E-2,-1.075244427E0
5.321857250E-1,-1.352066517E0,-3.462445363E-2,-1.094792128E0
5.341854580E-1,-1.403379321E0,8.746979758E-3,-1.125946164E0
5.361851910E-1,-1.419261694E0,3.562504798E-2,-1.143661261E0
5.381849240E-1,-1.448583245E0,8.510513604E-2,-1.180313230E0
5.401846570E-1,-1.460800529E0,1.290874332E-1,-1.209023952E0
5.421843900E-1,-1.464465737E0,1.461916715E-1,-1.224295497E0
5.441841900E-1,-1.451637626E0,1.767349243E-1,-1.249951959E0
5.461840560E-1,-1.445528984E0,1.804001182E-1,-1.260947347E0
5.481838220E-1,-1.414374709E0,1.834544390E-1,-1.278662443E0
5.501835880E-1,-1.373446822E0,1.913956851E-1,-1.290879846E0
5.521833540E-1,-1.345957875E0,1.895630956E-1,-1.289658070E0
5.541831200E-1,-1.287925601E0,1.858979017E-1,-1.292101622E0
5.561828860E-1,-1.255549788E0,1.791783720E-1,-1.289047241E0
5.581827190E-1,-1.186522126E0,1.657393426E-1,-1.276829958E0
5.601825520E-1,-1.104055285E0,1.406938732E-1,-1.260947347E0
5.621823180E-1,-1.063127279E0,1.199244559E-1,-1.243232250E0
5.641820510E-1,-9.733300805E-1,4.967495054E-2,-1.178480625E0
5.661818170E-1,-9.269043207E-1,6.914383732E-3,-1.147937417E0
5.681815830E-1,-8.120616674E-1,-1.164803952E-1,-1.026986122E0
5.701813490E-1,-6.953864098E-1,-1.995580792E-1,-9.139759541E-1
5.721811150E-1,-6.373541951E-1,-2.410969138E-1,-8.657175899E-1
5.741809480E-1,-5.280093551E-1,-3.351701796E-1,-7.832508087E-1
5.761807140E-1,-4.797509909E-1,-3.773198426E-1,-7.508749366E-1
5.781804800E-1,-3.923972249E-1,-4.414606988E-1,-6.989514232E-1
5.801802460E-1,-3.209259808E-1,-4.616192579E-1,-6.561908722E-1
5.821800120E-1,-2.861066759E-1,-4.573431909E-1,-6.409192085E-1
5.841797780E-1,-2.378483266E-1,-4.170261025E-1,-6.006020904E-1
5.861795440E-1,-2.195223719E-1,-3.852611184E-1,-5.834978819E-1
5.881793100E-1,-1.773726642E-1,-2.960747778E-1,-5.499002934E-1
5.901791430E-1,-1.462185383E-1,-1.891733557E-1,-5.150809884E-1
5.921789090E-1,-1.309469044E-1,-1.305302978E-1,-4.991984665E-1
5.941786750E-1,-9.796018153E-2,5.081788171E-3,-4.619356990E-1
5.961784410E-1,-9.001893550E-2,6.922264397E-2,-4.472749233E-1
5.981782070E-1,-6.008653715E-2,2.030021250E-1,-4.240620434E-1
6.001779730E-1,-3.992798552E-2,3.288403749E-1,-4.155099094E-1
6.021777390E-1,-3.198673576E-2,3.874834180E-1,-4.136773348E-1
6.041775050E-1,-1.304991450E-2,5.004935265E-1,-4.252837896E-1
6.061771710E-1,-4.497800954E-3,5.542496443E-1,-4.313924313E-1
6.081769040E-1,1.627161726E-2,6.428251266E-1,-4.588813484E-1
6.101766370E-1,3.520843759E-2,7.087985277E-1,-5.004202127E-1
6.121763700E-1,4.498228431E-2,7.320114374E-1,-5.242439508E-1
6.141761030E-1,6.575170159E-2,7.876001596E-1,-5.865522027E-1
6.161758360E-1,8.346679807E-2,8.108130693E-1,-6.189280152E-1
6.181755690E-1,1.103448644E-1,8.706778288E-1,-6.916210055E-1
6.201753020E-1,1.469967812E-1,9.201579094E-1,-7.710335255E-1
6.221751020E-1,1.628792733E-1,9.500903487E-1,-8.131832480E-1
6.241748350E-1,2.154136747E-1,1.000181317E0,-8.852652907E-1
6.261745680E-1,2.386265695E-1,1.022783279E0,-9.194737673E-1
6.281743010E-1,2.911609709E-1,1.050883055E0,-9.811711311E-1
6.301740340E-1,3.418627977E-1,1.071041584E0,-1.033094764E0
6.321737670E-1,3.656865358E-1,1.072263479E0,-1.055696607E0
6.341735000E-1,3.980624080E-1,1.054548383E0,-1.093570352E0
6.361733000E-1,3.986732364E-1,1.028281093E0,-1.107009411E0
6.381731000E-1,3.779038489E-1,9.586424828E-1,-1.135720134E0
6.401728330E-1,3.491931856E-1,9.085515141E-1,-1.169928432E0
6.421725660E-1,3.357541561E-1,9.018319845E-1,-1.187032700E0
6.441722990E-1,3.076543212E-1,8.981667757E-1,-1.222462893E0
6.461720320E-1,2.917718589E-1,8.951124549E-1,-1.239567161E0
6.481717650E-1,2.563416362E-1,8.975558877E-1,-1.276829958E0
6.501714980E-1,2.215223461E-1,9.042754769E-1,-1.311649323E0
6.521712980E-1,2.062506974E-1,9.067188501E-1,-1.328142524E0
6.541710310E-1,1.873138845E-1,9.232122898E-1,-1.366016269E0
6.561707640E-1,1.860921681E-1,9.378730655E-1,-1.377622724E0
6.581704970E-1,1.805943698E-1,9.739140868E-1,-1.414885521E0
6.601702300E-1,1.738748401E-1,1.016063809E0,-1.448482990E0
6.621699630E-1,1.714313924E-1,1.041109204E0,-1.460700274E0
6.641696960E-1,1.549380273E-1,1.109526157E0,-1.496130466E0
6.661694620E-1,1.439424604E-1,1.151064992E0,-1.512013078E0
6.681692620E-1,1.152317896E-1,1.253079414E0,-1.539501905E0
6.701689950E-1,7.552554458E-2,1.367922068E0,-1.570656180E0
6.721687280E-1,5.048007146E-2,1.429619551E0,-1.584095120E0
6.741684610E-1,-8.773856796E-3,1.548127413E0,-1.621968746E0
6.761681940E-1,-4.176058248E-2,1.604937911E0,-1.640905619E0
6.781679270E-1,-1.156752780E-1,1.705119729E0,-1.677557468E0
6.801676600E-1,-2.103593946E-1,1.767427921E0,-1.708100796E0
6.821673930E-1,-2.635046840E-1,1.794916987E0,-1.722150683E0
6.841671930E-1,-3.832342625E-1,1.835234046E0,-1.747807026E0
6.861669260E-1,-4.473750889E-1,1.863333821E0,-1.766743898E0
6.881666590E-1,-5.878740549E-1,1.918922663E0,-1.798508763E0
6.901663920E-1,-7.363144159E-1,1.983674288E0,-1.835771561E0
6.921661250E-1,-8.169485331E-1,2.019104481E0,-1.855930209E0
6.941658580E-1,-9.690540433E-1,2.060643196E0,-1.908464551E0
6.961655910E-1,-1.047244787E0,2.064919472E0,-1.937175274E0
6.981653240E-1,-1.184689403E0,2.095462561E0,-2.001926899E0
7.001651240E-1,-1.315414667E0,2.121118784E0,-2.058737516E0
7.021648570E-1,-1.382609725E0,2.129671097E0,-2.091113329E0
7.041645900E-1,-1.509058952E0,2.135779858E0,-2.154032469E0
7.061643230E-1,-1.568923712E0,2.136390686E0,-2.180299520E0
7.081640560E-1,-1.697205424E0,2.142499208E0,-2.232834101E0
7.101637890E-1,-1.820600271E0,2.154105663E0,-2.282314301E0
7.121635220E-1,-1.880464911E0,2.168766499E0,-2.301250935E0
7.141633220E-1,-2.000805378E0,2.201142311E0,-2.336681128E0
7.161631220E-1,-2.057005167E0,2.212137938E0,-2.347065926E0
7.181628550E-1,-2.160851955E0,2.256731272E0,-2.367835283E0
7.201625880E-1,-2.263477564E0,2.286663532E0,-2.383106947E0
7.221623210E-1,-2.309903383E0,2.301934958E0,-2.387993813E0
7.241620540E-1,-2.400311232E0,2.305600405E0,-2.376387358E0
7.261617870E-1,-2.441239357E0,2.306822062E0,-2.370278835E0
7.281615200E-1,-2.518819094E0,2.303767920E0,-2.358061552E0
7.301613200E-1,-2.589679480E0,2.297658920E0,-2.354396343E0
7.321611200E-1,-2.625109673E0,2.284219980E0,-2.347065926E0
7.341608530E-1,-2.682531118E0,2.260396242E0,-2.350120068E0
7.361605860E-1,-2.703911304E0,2.242681265E0,-2.357450485E0
7.381603190E-1,-2.741784811E0,2.188925028E0,-2.378830910E0
7.401600520E-1,-2.767441511E0,2.141277552E0,-2.402043819E0
7.421597850E-1,-2.774160862E0,2.110123634E0,-2.413039207E0
7.441595180E-1,-2.780880451E0,2.072249651E0,-2.428310871E0
7.461593180E-1,-2.783323765E0,2.057589054E0,-2.435030460E0
7.481590510E-1,-2.773550034E0,2.041095734E0,-2.439917326E0
7.501587840E-1,-2.755835056E0,2.037430525E0,-2.413650036E0
7.521585170E-1,-2.739952326E0,2.040484667E0,-2.405709028E0
7.541582500E-1,-2.715517759E0,2.022158861E0,-2.385550261E0
7.561579830E-1,-2.700856924E0,1.997113347E0,-2.371500492E0
7.581577160E-1,-2.667259455E0,1.932361722E0,-2.345844030E0
7.601574490E-1,-2.631829023E0,1.863333821E0,-2.317133427E0
7.621572490E-1,-2.610449076E0,1.830347180E0,-2.306748867E0
7.641569820E-1,-2.568299294E0,1.760708451E0,-2.279259682E0
7.661567150E-1,-2.547529697E0,1.726500034E0,-2.263377190E0
7.681564480E-1,-2.498660564E0,1.660526633E0,-2.233444929E0
7.701561810E-1,-2.447958708E0,1.580503345E0,-2.197403908E0
7.721559140E-1,-2.422913313E0,1.543851376E0,-2.179077864E0
7.741556470E-1,-2.368546486E0,1.461995363E0,-2.146702051E0
7.761553800E-1,-2.335559607E0,1.422289133E0,-2.132652044E0
7.781551800E-1,-2.276305676E0,1.345931053E0,-2.106384993E0
7.801549130E-1,-2.214608192E0,1.264685869E0,-2.086226225E0
7.821546460E-1,-2.187730312E0,1.224979758E0,-2.079506874E0
7.841543790E-1,-2.124810934E0,1.135793328E0,-2.063624382E0
7.861540790E-1,-2.098543882E0,1.084480762E0,-2.054461479E0
7.881538120E-1,-2.047231197E0,1.000181317E0,-2.037967920E0
7.901535450E-1,-2.008135796E0,9.207687974E-1,-2.022085667E0
7.921532780E-1,-1.995307565E0,8.798407912E-1,-2.011090040E0
7.941530780E-1,-1.981257677E0,8.089804649E-1,-1.990320563E0
7.961528110E-1,-1.976370811E0,7.735502720E-1,-1.974437952E0
7.981525440E-1,-1.981868625E0,7.057442069E-1,-1.945116401E0
8.001522770E-1,-2.003248930E0,6.324403882E-1,-1.915184140E0
8.021520100E-1,-2.015466213E0,5.951775908E-1,-1.895636439E0
8.041517430E-1,-2.050285339E0,5.249280930E-1,-1.857762814E0
8.061514760E-1,-2.073498249E0,4.571220577E-1,-1.841269374E0
8.081512760E-1,-2.123589277E0,4.216918945E-1,-1.791789293E0
8.101510760E-1,-2.187119484E0,3.435011208E-1,-1.741698384E0
8.121508090E-1,-2.216440916E0,3.111252785E-1,-1.710544229E0
8.141505420E-1,-2.284246922E0,2.390431762E-1,-1.650068641E0
8.161502750E-1,-2.361826658E0,1.626850218E-1,-1.617692709E0
8.181500080E-1,-2.397867918E0,1.193135902E-1,-1.548664927E0
8.201497410E-1,-2.473615170E0,3.134899214E-2,-1.477193713E0
8.221494740E-1,-2.512710333E0,-1.568763144E-2,-1.441763520E0
8.241492740E-1,-2.587846994E0,-1.158695295E-1,-1.369681358E0
8.261490070E-1,-2.656263828E0,-2.221600860E-1,-1.303097129E0
8.281487400E-1,-2.690472126E0,-2.740836143E-1,-1.271942973E0
8.301484730E-1,-2.753391266E0,-3.974784017E-1,-1.207802176E0
8.321482060E-1,-2.779047966E0,-4.573431909E-1,-1.180924058E0
8.341479390E-1,-2.832193136E0,-5.917335749E-1,-1.128389597E0
8.361476720E-1,-2.870066643E0,-7.316216826E-1,-1.078909516E0
8.381474050E-1,-2.889003515E0,-8.061472774E-1,-1.056918502E0
8.401472050E-1,-2.906107664E0,-9.417593479E-1,-1.012325287E0
8.421469380E-1,-2.915881634E0,-1.016284943E0,-9.927775860E-1
8.441466710E-1,-2.921379328E0,-1.163503408E0,-9.573473930E-1
8.461464370E-1,-2.912216425E0,-1.311943769E0,-9.225280881E-1
8.481461700E-1,-2.901220798E0,-1.380971432E0,-9.078673124E-1
8.501459030E-1,-2.873121023E0,-1.520248771E0,-8.852652907E-1
8.521456360E-1,-2.852351665E0,-1.589887381E0,-8.742697239E-1
8.541453690E-1,-2.795541048E0,-1.732829809E0,-8.638849854E-1
8.561451690E-1,-2.723459005E0,-1.867220163E0,-8.535003066E-1
8.581449020E-1,-2.680087566E0,-1.938080549E0,-8.486133814E-1
8.601446350E-1,-2.581738234E0,-2.062086105E0,-8.492242694E-1
8.621443680E-1,-2.529814720E0,-2.121340036E0,-8.443373442E-1
8.641441010E-1,-2.425356627E0,-2.212359190E0,-8.425047398E-1
8.661438340E-1,-2.312957525E0,-2.279554129E0,-8.376178145E-1
8.681435670E-1,-2.256757975E0,-2.302767038E0,-8.339526653E-1
8.701433000E-1,-2.154743433E0,-2.323536634E0,-8.211244345E-1
8.721431000E-1,-2.104041815E0,-2.317427874E0,-8.125723004E-1
8.741428330E-1,-2.013022661E0,-2.279554129E0,-7.954681516E-1
8.761425660E-1,-1.935442924E0,-2.204417706E0,-7.704225779E-1
8.781422990E-1,-1.900012732E0,-2.155548573E0,-7.606487870E-1
8.801420320E-1,-1.837704301E0,-2.022380114E0,-7.374359369E-1
8.821417650E-1,-1.811437249E0,-1.952130437E0,-7.239968777E-1
8.841414980E-1,-1.768065810E0,-1.792694569E0,-7.032274604E-1
8.861412980E-1,-1.735078931E0,-1.612489343E0,-6.842906475E-1
8.881410980E-1,-1.720418334E0,-1.512918353E0,-6.745167971E-1
8.901408310E-1,-1.706979275E0,-1.322328329E0,-6.537473798E-1
8.921405640E-1,-1.705146551E0,-1.227644324E0,-6.470278502E-1
8.941402970E-1,-1.716142178E0,-1.026058674E0,-6.445844173E-1
8.961400300E-1,-1.736911654E0,-8.232514858E-1,-6.519147754E-1
8.981397630E-1,-1.750961542E0,-7.236804366E-1,-6.592451930E-1
9.001394960E-1,-1.787002563E0,-5.312578678E-1,-6.763493419E-1
9.021392960E-1,-1.812048078E0,-4.396281242E-1,-6.940644383E-1
9.041390290E-1,-1.861528158E0,-2.759162188E-1,-7.270511985E-1
9.061387620E-1,-1.923225641E0,-1.128152013E-1,-7.746986747E-1
9.081384950E-1,-1.956823111E0,-4.500916228E-2,-8.040202260E-1
9.101382280E-1,-2.025239944E0,8.510513604E-2,-8.693827987E-1
9.121379610E-1,-2.063113689E0,1.498568505E-1,-9.011478424E-1
9.141376940E-1,-2.140082836E0,2.408757806E-1,-9.744516015E-1
9.161374270E-1,-2.215830088E0,3.123470247E-1,-1.058140159E0
9.181372270E-1,-2.255536079E0,3.294512331E-1,-1.097846389E0
9.201369600E-1,-2.329450846E0,3.569401503E-1,-1.178480625E0
9.221366930E-1,-2.363659382E0,3.661031425E-1,-1.219408512E0
9.241364260E-1,-2.424745798E0,3.654922843E-1,-1.297599316E0
9.261361590E-1,-2.474836826E0,3.599945009E-1,-1.372124910E0
9.281358920E-1,-2.496217012E0,3.526641130E-1,-1.404500723E0
9.301356250E-1,-2.526149511E0,3.422793746E-1,-1.464365602E0
9.321353580E-1,-2.538977861E0,3.294512331E-1,-1.485134959E0
9.341351580E-1,-2.550584316E0,3.013514280E-1,-1.528506398E0
9.361348910E-1,-2.549362421E0,2.720299065E-1,-1.551108360E0
9.381346240E-1,-2.539588690E0,2.512604892E-1,-1.554162741E0
9.401343570E-1,-2.515764952E0,2.066673189E-1,-1.558438897E0
9.421340900E-1,-2.500493050E0,1.834544390E-1,-1.556606174E0
9.441338230E-1,-2.459565163E0,1.382504106E-1,-1.551108360E0
9.461335560E-1,-2.411306858E0,8.999206126E-2,-1.534615159E0
9.481332890E-1,-2.379541874E0,7.777474821E-2,-1.523008704E0
9.501330890E-1,-2.318455219E0,4.356629774E-2,-1.500406623E0
9.521328550E-1,-2.285468578E0,3.195985779E-2,-1.488189340E0
9.541326210E-1,-2.215830088E0,2.340774611E-2,-1.458256960E0
9.561323870E-1,-2.152910948E0,2.707293630E-2,-1.428324461E0
9.581321530E-1,-2.115648270E0,3.318159282E-2,-1.410609365E0
9.601319190E-1,-2.061891794E0,6.128139049E-2,-1.373957515E0
9.621316850E-1,-2.031959534E0,7.716389000E-2,-1.357464075E0
9.641315180E-1,-1.984923005E0,1.235896423E-1,-1.326310039E0
9.661313510E-1,-1.931166768E0,1.797892451E-1,-1.295155883E0
9.681311170E-1,-1.914673448E0,2.103324980E-1,-1.286603808E0
9.701308830E-1,-1.871302009E0,2.793602943E-1,-1.259725690E0
9.721306490E-1,-1.859084725E0,3.251751661E-1,-1.254227877E0
9.741304150E-1,-1.835260987E0,4.216918945E-1,-1.240177989E0
9.761301810E-1,-1.818156719E0,5.237063766E-1,-1.227349877E0
9.781299470E-1,-1.813269734E0,5.799059868E-1,-1.220630407E0
9.801297800E-1,-1.807161093E0,6.892508268E-1,-1.208413005E0
9.821296130E-1,-1.802885175E0,7.491156459E-1,-1.205969572E0
9.841293790E-1,-1.808382869E0,8.529627919E-1,-1.198028326E0
9.861291450E-1,-1.816324115E0,9.543663859E-1,-1.196195722E0
9.881289110E-1,-1.823043585E0,9.940726161E-1,-1.196806550E0
9.901286770E-1,-1.837093472E0,1.076539397E0,-1.199249983E0
9.921284430E-1,-1.846256495E0,1.110747933E0,-1.199249983E0
9.941282090E-1,-1.859695554E0,1.169391036E0,-1.196195722E0
9.961280420E-1,-1.873745441E0,1.210929751E0,-1.195584893E0
9.981278080E-1,-1.880464911E0,1.224979758E0,-1.191919684E0
1.000127574E0,-1.889017105E0,1.235975266E0,-1.181534886E0
1.002127340E0,-1.893904090E0,1.235364437E0,-1.179702401E0
1.004127106E0,-1.906121373E0,1.216427565E0,-1.164430618E0
1.006126872E0,-1.904899478E0,1.184051752E0,-1.144883037E0
1.008126638E0,-1.901845217E0,1.170612693E0,-1.132054806E0
1.010126404E0,-1.898180008E0,1.126630425E0,-1.103955030E0
1.012126204E0,-1.891460538E0,1.103417516E0,-1.086239934E0
1.014125937E0,-1.876188993E0,1.055159211E0,-1.048366308E0
1.016125670E0,-1.856030345E0,1.004457355E0,-1.005605817E0
1.018125403E0,-1.846867442E0,9.702488780E-1,-9.799494147E-1
1.020125136E0,-1.819378376E0,9.201579094E-1,-9.298584461E-1
1.022124869E0,-1.805328488E0,8.932798505E-1,-9.017586708E-1
1.024124602E0,-1.776006937E0,8.401345611E-1,-8.522785902E-1
1.026124368E0,-1.741187692E0,7.827132344E-1,-7.997441292E-1
1.028124168E0,-1.722861648E0,7.649981976E-1,-7.753095627E-1
1.030123901E0,-1.684988022E0,7.185723782E-1,-7.221643329E-1
1.032123634E0,-1.670938253E0,7.008572817E-1,-7.001731396E-1
1.034123367E0,-1.631842732E0,6.752009988E-1,-6.519147754E-1
1.036123100E0,-1.592747450E0,6.745901108E-1,-5.987695456E-1
1.038122833E0,-1.572588921E0,6.733683348E-1,-5.737239718E-1
1.040122566E0,-1.528606534E0,7.002464533E-1,-5.193569660E-1
1.042122299E0,-1.511502266E0,7.216266990E-1,-4.955332577E-1
1.044122099E0,-1.462022185E0,7.704958916E-1,-4.491075277E-1
1.046121832E0,-1.415596604E0,8.309715986E-1,-4.026817679E-1
1.048121565E0,-1.392994523E0,8.657909036E-1,-3.843558133E-1
1.050121298E0,-1.345957875E0,9.366512895E-1,-3.464821577E-1
1.052121031E0,-1.321523309E0,9.775792956E-1,-3.281562030E-1
1.054120764E0,-1.270210624E0,1.058824301E0,-2.976129353E-1
1.056120497E0,-1.217676163E0,1.149843216E0,-2.756218016E-1
1.058120297E0,-1.196295857E0,1.186495066E0,-2.640153468E-1
1.060120097E0,-1.144372344E0,1.267129421E0,-2.444676608E-1
1.062119830E0,-1.118105054E0,1.312333345E0,-2.365264148E-1
1.064119563E0,-1.071068525E0,1.391745806E0,-2.206439227E-1
1.066119296E0,-1.028308034E0,1.463217139E0,-2.023179680E-1
1.068119029E0,-1.008149385E0,1.496203899E0,-1.943767071E-1
1.070118762E0,-9.714974761E-1,1.559733868E0,-1.778833419E-1
1.072118495E0,-9.556149840E-1,1.594553113E0,-1.711638272E-1
1.074118295E0,-9.201847911E-1,1.645865798E0,-1.540596038E-1
1.076118028E0,-8.926958442E-1,1.688015461E0,-1.430640221E-1
1.078117761E0,-8.823111653E-1,1.702065468E0,-1.375662386E-1
1.080117494E0,-8.597091436E-1,1.725278378E0,-1.247380748E-1
1.082117227E0,-8.511570692E-1,1.727721810E0,-1.204620153E-1
1.084116960E0,-8.358854055E-1,1.728332639E0,-1.082447097E-1
1.086116660E0,-8.255006671E-1,1.714282751E0,-9.602740407E-2
1.088116393E0,-8.224463463E-1,1.708174109E0,-9.236221015E-2
1.090116193E0,-8.187811971E-1,1.683739543E0,-7.281453162E-2
1.092115926E0,-8.163377047E-1,1.672743917E0,-6.242981553E-2
1.094115659E0,-8.157268763E-1,1.640367985E0,-4.410385713E-2
1.096115392E0,-8.175594211E-1,1.599440098E0,-2.516703866E-2
1.098115125E0,-8.187811971E-1,1.583557606E0,-1.844752021E-2
1.100114858E0,-8.193920255E-1,1.545683980E0,5.376224872E-3
1.102114591E0,-8.181703091E-1,1.527968884E0,1.942612603E-2
1.104114324E0,-8.138942122E-1,1.491316915E0,4.080640897E-2
1.106114124E0,-8.071747422E-1,1.458940983E0,6.890621036E-2
1.108113857E0,-8.047312498E-1,1.438782454E0,8.295610547E-2
1.110113590E0,-7.931247950E-1,1.405795813E0,1.055581272E-1
1.112113323E0,-7.864053249E-1,1.390524149E0,1.183862984E-1
1.114113056E0,-7.650250196E-1,1.349596143E0,1.397665888E-1
1.116112789E0,-7.479207516E-1,1.300116062E0,1.562599391E-1
1.118112522E0,-7.308166027E-1,1.270183682E0,1.678663790E-1
1.120112255E0,-7.063819766E-1,1.231088400E0,1.770293564E-1
1.122112055E0,-6.874451041E-1,1.206653714E0,1.886357963E-1
1.124111788E0,-6.544584632E-1,1.170612693E0,2.100160867E-1
1.126111521E0,-6.171956062E-1,1.153508425E0,2.307855040E-1
1.128111254E0,-5.970371366E-1,1.142512798E0,2.430028021E-1
1.130110987E0,-5.542765260E-1,1.122354388E0,2.662157118E-1
1.132110720E0,-5.304527879E-1,1.106471777E0,2.784329951E-1
1.134110453E0,-4.766966105E-1,1.076539397E0,3.047001958E-1
1.136110253E0,-4.180535674E-1,1.047217846E0,3.187500834E-1
1.138110053E0,-3.856776953E-1,1.028281093E0,3.297456801E-1
1.140109786E0,-3.197042644E-1,9.769684076E-1,3.486824930E-1
1.142109519E0,-2.867175341E-1,9.519228935E-1,3.517368138E-1
1.144109252E0,-2.256310135E-1,9.018319845E-1,3.633432686E-1
1.146108985E0,-1.669879556E-1,8.535736203E-1,3.676193357E-1
1.148108718E0,-1.413316131E-1,8.285281658E-1,3.682301939E-1
1.150108451E0,-9.124066681E-2,7.973740101E-1,3.700627685E-1
1.152108251E0,-7.108211517E-2,7.845458388E-1,3.694519103E-1
1.154107984E0,-3.198673576E-2,7.668307424E-1,3.590672016E-1
1.156107717E0,2.221716801E-3,7.704958916E-1,3.566237390E-1
1.158107450E0,1.627161726E-2,7.759937048E-1,3.480716348E-1
1.160107183E0,4.253882170E-2,7.937088013E-1,3.120305836E-1
1.162106916E0,5.231266841E-2,8.169217110E-1,2.851524949E-1
1.164106649E0,7.919073850E-2,8.828951120E-1,1.959661841E-1
1.166106382E0,1.225621700E-1,9.952943921E-1,8.234524727E-2
1.168106182E0,1.543271691E-1,1.061878681E0,2.858910337E-2
1.170105915E0,2.245766670E-1,1.190771222E0,-5.387770385E-2
1.172105648E0,2.612285912E-1,1.266518593E0,-1.045795232E-1
1.174105381E0,3.369758725E-1,1.421067357E0,-2.029288113E-1
1.176105114E0,3.888994157E-1,1.586001158E0,-2.756218016E-1
1.178104847E0,4.115014374E-1,1.658694029E0,-3.037215769E-1
1.180104580E0,4.499859214E-1,1.787586570E0,-3.532016575E-1
1.182104313E0,4.652575552E-1,1.841953635E0,-3.709167838E-1
1.184104113E0,4.945791066E-1,1.942746282E0,-3.965731263E-1
1.186103879E0,5.208463073E-1,2.015439272E0,-4.173425436E-1
1.188103645E0,5.318418741E-1,2.039263010E0,-4.307815433E-1
1.190103411E0,5.581090450E-1,2.080801964E0,-4.509401321E-1
1.192103177E0,5.672720671E-1,2.097295284E0,-4.552161694E-1
1.194102943E0,5.849871635E-1,2.127838612E0,-4.552161694E-1
1.196102709E0,6.014805436E-1,2.157160044E0,-4.521618485E-1
1.198102475E0,6.094217300E-1,2.160825253E0,-4.405553937E-1
1.200102308E0,6.167521477E-1,2.163268805E0,-4.216185808E-1
1.202102174E0,6.161413193E-1,2.154105663E0,-4.094012678E-1
1.204102040E0,6.228607893E-1,2.129060268E0,-3.825231791E-1
1.206101906E0,6.216390729E-1,2.081412792E0,-3.458712697E-1
1.208101772E0,6.191956401E-1,2.051480532E0,-3.281562030E-1
1.210101638E0,6.112543941E-1,1.983674288E0,-2.817304432E-1
1.212101504E0,6.075891852E-1,1.947022438E0,-2.603501678E-1
1.214101437E0,5.972044468E-1,1.866999030E0,-2.114809453E-1
1.216101370E0,5.849871635E-1,1.775369287E0,-1.595573872E-1
1.218101303E0,5.733807087E-1,1.725889206E0,-1.339010447E-1
1.220101236E0,5.513895750E-1,1.630594254E0,-9.052962065E-2
1.222101169E0,5.385614038E-1,1.586001158E0,-7.281453162E-2
1.224101102E0,5.092398524E-1,1.496814728E0,-3.860606998E-2
1.226101035E0,4.805292189E-1,1.411904454E0,-6.230214611E-3
1.228100968E0,4.591489136E-1,1.373419881E0,6.597955711E-3
1.230100968E0,4.292165339E-1,1.293396592E0,2.981083468E-2
1.232100968E0,4.169992208E-1,1.263464212E0,3.714121506E-2
1.234100934E0,3.870668411E-1,1.190160394E0,5.241284892E-2
1.236100900E0,3.589670062E-1,1.146178126E0,5.668890476E-2
1.238100866E0,3.449171185E-1,1.114413142E0,6.035409495E-2
1.240100832E0,3.168173134E-1,1.076539397E0,6.279756129E-2
1.242100798E0,3.027674258E-1,1.064322114E0,6.218669191E-2
1.244100764E0,2.716132700E-1,1.038665771E0,6.585188210E-2
1.246100764E0,2.471786737E-1,1.025837660E0,6.646275520E-2
1.248100730E0,2.361831069E-1,1.028891921E0,6.401928514E-2
1.250100696E0,2.135810852E-1,1.040498376E0,6.707361341E-2
1.252100662E0,2.068615705E-1,1.048439622E0,6.707361341E-2
1.254100628E0,1.958660036E-1,1.077150226E0,6.463015825E-2
1.256100594E0,1.885356158E-1,1.107693553E0,6.035409495E-2
1.258100560E0,1.909790784E-1,1.128463030E0,5.791063607E-2
1.260100526E0,1.940333992E-1,1.159617066E0,5.607804283E-2
1.262100459E0,1.970877200E-1,1.179164767E0,5.485630780E-2
1.264100392E0,2.019746602E-1,1.207264662E0,4.752592742E-2
1.266100325E0,2.062506974E-1,1.249414325E0,4.630419612E-2
1.268100258E0,2.080833018E-1,1.268962026E0,5.119112134E-2
1.270100191E0,2.062506974E-1,1.297061801E0,5.668890476E-2
1.272100124E0,2.007529140E-1,1.311111689E0,6.035409495E-2
1.274100057E0,1.830378324E-1,1.334935427E0,7.073880732E-2
1.276099990E0,1.543271691E-1,1.363035321E0,7.684745640E-2
1.278099923E0,1.372229308E-1,1.363646150E0,8.234524727E-2
1.280099789E0,1.036253497E-1,1.369754791E0,9.150822461E-2
1.282099655E0,8.285592496E-2,1.369143963E0,9.700601548E-2
1.284099521E0,4.253882170E-2,1.348374486E0,1.037255302E-1
1.286099387E0,-1.443474554E-3,1.313555121E0,1.159428358E-1
1.288099253E0,-2.709981613E-2,1.286066175E0,1.196080223E-1
1.290099119E0,-9.001893550E-2,1.235364437E0,1.330470592E-1
1.292098985E0,-1.242273897E-1,1.198712468E0,1.403774470E-1
1.294098885E0,-1.993638128E-1,1.118078232E0,1.562599391E-1
1.296098718E0,-2.775545716E-1,1.027059317E0,1.709206998E-1
1.298098551E0,-3.209259808E-1,9.671944976E-1,1.794728190E-1
1.300098384E0,-3.948406875E-1,8.541844487E-1,1.965770423E-1
1.302098217E0,-4.357686639E-1,7.943196893E-1,2.106269598E-1
1.304098050E0,-5.011312366E-1,6.770335436E-1,2.301746309E-1
1.306097883E0,-5.603851676E-1,5.542496443E-1,2.515549064E-1
1.308097749E0,-5.860415101E-1,4.870544672E-1,2.607178986E-1
1.310097615E0,-6.294129491E-1,3.599945009E-1,2.808764577E-1
1.312097415E0,-6.520149708E-1,2.934101820E-1,2.918720543E-1
1.314097215E0,-6.874451041E-1,1.816218346E-1,3.059219420E-1
1.316097015E0,-7.137123346E-1,7.716389000E-2,3.205826879E-1
1.318096815E0,-7.277622819E-1,2.707293630E-2,3.285239339E-1
1.320096615E0,-7.405903935E-1,-3.890050948E-2,3.413521051E-1
1.322096415E0,-7.485316992E-1,-6.150252372E-2,3.407412469E-1
1.324096215E0,-7.473099232E-1,-1.030413583E-1,3.346326053E-1
1.326095915E0,-7.326491475E-1,-1.005979031E-1,3.095871210E-1
1.328095648E0,-7.112688422E-1,-8.593713492E-2,2.949263752E-1
1.330095381E0,-6.373541951E-1,-4.867435619E-2,2.686591446E-1
1.332095114E0,-5.909284353E-1,-2.912666462E-2,2.539983690E-1
1.334094847E0,-4.986877739E-1,4.051196948E-2,2.204007804E-1
1.336094580E0,-4.174427092E-1,1.119832098E-1,1.770293564E-1
1.338094313E0,-3.820125163E-1,1.455807984E-1,1.544273347E-1
1.340094113E0,-3.087086678E-1,2.139976919E-1,1.141102389E-1
1.342093846E0,-2.775545716E-1,2.500387430E-1,9.395167977E-2
1.344093579E0,-2.176897675E-1,3.416685462E-1,4.691506177E-2
1.346093312E0,-1.694314182E-1,4.430721700E-1,2.003699169E-2
1.348093045E0,-1.462185383E-1,4.931631088E-1,8.430551738E-3
1.350092778E0,-1.193404719E-1,5.994536877E-1,-9.895405732E-3
1.352092511E0,-1.046797037E-1,6.507663727E-1,-1.600405946E-2
1.354092244E0,-8.268855512E-2,7.472831011E-1,-1.294973306E-2
1.356092044E0,-7.047124207E-2,8.450214863E-1,-8.673675358E-3
1.358091777E0,-6.314086169E-2,8.743430376E-1,1.711033634E-3
1.360091510E0,-5.886480585E-2,9.415382147E-1,1.698266342E-2
1.362091243E0,-5.825394019E-2,9.714705944E-1,3.103256598E-2
1.364090976E0,-5.703221262E-2,1.027670145E0,5.729977041E-2
1.366090709E0,-5.825394019E-2,1.068598151E0,9.395167977E-2
1.368090442E0,-5.703221262E-2,1.084480762E0,1.134993732E-1
1.370090175E0,-5.764307827E-2,1.105250120E0,1.495404243E-1
1.372089975E0,-6.252999604E-2,1.116245747E0,1.660337895E-1
1.374089708E0,-6.436259300E-2,1.122354388E0,2.045182884E-1
1.376089441E0,-6.497345865E-2,1.124186873E0,2.381158918E-1
1.378089174E0,-6.436259300E-2,1.124186873E0,2.558309734E-1
1.380088907E0,-7.474730909E-2,1.118689060E0,2.924828827E-1
1.382088640E0,-7.902336121E-2,1.115023971E0,3.101979792E-1
1.384088373E0,-9.246239811E-2,1.096087217E0,3.413521051E-1
1.386088206E0,-1.040688306E-1,1.079593778E0,3.663975894E-1
1.388088006E0,-1.132318079E-1,1.065543771E0,3.749496937E-1
1.390087739E0,-1.315577626E-1,1.045996189E0,3.877778649E-1
1.392087472E0,-1.364446878E-1,1.033167958E0,3.987734318E-1
1.394087205E0,-1.529380530E-1,9.977377653E-1,4.091581404E-1
1.396086938E0,-1.700422764E-1,9.629185200E-1,4.177102745E-1
1.398086671E0,-1.810378581E-1,9.415382147E-1,4.170993865E-1
1.400086404E0,-1.993638128E-1,9.018319845E-1,4.158776402E-1
1.402086204E0,-2.073050737E-1,8.761755824E-1,4.140450656E-1
1.404086004E0,-2.268527597E-1,8.358585238E-1,4.097689986E-1
1.406085737E0,-2.439569682E-1,7.851566672E-1,3.987734318E-1
1.408085470E0,-2.512873411E-1,7.595003843E-1,3.902213573E-1
1.410085203E0,-2.647264004E-1,7.069659233E-1,3.743388355E-1
1.412084936E0,-2.708350420E-1,6.745901108E-1,3.663975894E-1
1.414084669E0,-2.787763178E-1,6.055623293E-1,3.401303589E-1
1.416084402E0,-2.854958177E-1,5.414214730E-1,3.169175088E-1
1.418084202E0,-2.818306386E-1,5.004935265E-1,3.028675914E-1
1.420083935E0,-2.757219970E-1,4.479590654E-1,2.790438533E-1
1.422083668E0,-2.720567882E-1,4.241353571E-1,2.692700326E-1
1.424083401E0,-2.549525499E-1,4.015333354E-1,2.283420414E-1
1.426083134E0,-2.372374535E-1,3.990898728E-1,1.990205050E-1
1.428082867E0,-2.280744761E-1,3.929812312E-1,1.892466545E-1
1.430082600E0,-1.993638128E-1,3.740443885E-1,1.684772521E-1
1.432082333E0,-1.865356416E-1,3.661031425E-1,1.580925286E-1
1.434082133E0,-1.590467095E-1,3.343381584E-1,1.483186930E-1
1.436081866E0,-1.266708523E-1,3.001297116E-1,1.440426260E-1
1.438081599E0,-1.113992184E-1,2.818037271E-1,1.409883052E-1
1.440081332E0,-7.413643599E-2,2.500387430E-1,1.306036115E-1
1.442081065E0,-5.825394019E-2,2.451518178E-1,1.214406192E-1
1.444080798E0,-1.610423997E-2,2.573691308E-1,1.031146646E-1
1.446080531E0,1.749334671E-2,2.701973021E-1,9.334082156E-2
1.448080264E0,3.276497871E-2,2.701973021E-1,8.539957553E-2
1.450080064E0,5.719958991E-2,2.744733691E-1,8.173438162E-2
1.452079797E0,6.575170159E-2,2.708081603E-1,8.478870243E-2
1.454079530E0,7.857987285E-2,2.738624811E-1,8.295610547E-2
1.456079263E0,9.018631279E-2,2.756950855E-1,8.601043373E-2
1.458078996E0,9.018631279E-2,2.750842273E-1,8.478870243E-2
1.460078729E0,8.957544714E-2,2.836363614E-1,8.417784423E-2
1.462078462E0,9.262977540E-2,2.824146152E-1,8.356697857E-2
1.464078195E0,8.529939502E-2,2.836363614E-1,8.356697857E-2
1.466077995E0,7.674727589E-2,2.763059735E-1,8.539957553E-2
1.468077728E0,7.002775371E-2,2.720299065E-1,9.272995591E-2
1.470077461E0,5.781045556E-2,2.720299065E-1,9.334082156E-2
1.472077194E0,4.986920580E-2,2.738624811E-1,9.883860499E-2
1.474076927E0,3.704103455E-2,2.659212351E-1,1.012820676E-1
1.476076660E0,2.726719342E-2,2.811928689E-1,1.073907241E-1
1.478076393E0,2.299113385E-2,2.787494063E-1,1.122776419E-1
1.480076193E0,1.138469577E-2,2.946319282E-1,1.238840818E-1
1.482075993E0,4.665177781E-3,2.927993238E-1,1.312144697E-1
1.484075726E0,-6.330396514E-3,2.940210700E-1,1.422100365E-1
1.486075459E0,-1.915856823E-2,2.842471898E-1,1.513730139E-1
1.488075192E0,-2.771067992E-2,2.842471898E-1,1.562599391E-1
1.490074925E0,-3.687365726E-2,2.708081603E-1,1.648120582E-1
1.492074658E0,-3.992798552E-2,2.677538395E-1,1.733641624E-1
1.494074391E0,-5.153442547E-2,2.592017353E-1,1.849706173E-1
1.496074191E0,-6.375172734E-2,2.451518178E-1,1.965770423E-1
1.498073924E0,-7.108211517E-2,2.365997136E-1,2.026856989E-1
1.500073657E0,-8.452115208E-2,2.207172215E-1,2.155138701E-1
1.502073390E0,-9.307326376E-2,2.146085650E-1,2.191790640E-1
1.504073123E0,-1.059014276E-1,1.883413494E-1,2.283420414E-1
1.506072823E0,-1.175078750E-1,1.712371409E-1,2.350615561E-1
1.508072556E0,-1.223947927E-1,1.553546488E-1,2.393376231E-1
1.510072289E0,-1.266708523E-1,1.400830150E-1,2.472788692E-1
1.512072089E0,-1.297251731E-1,1.290874332E-1,2.503331900E-1
1.514071822E0,-1.321686357E-1,1.058745533E-1,2.588853240E-1
1.516071555E0,-1.346120983E-1,8.388340473E-2,2.643830776E-1
1.518071288E0,-1.327794939E-1,6.494657695E-2,2.686591446E-1
1.520071021E0,-1.340012401E-1,3.501418605E-2,2.686591446E-1
1.522070754E0,-1.321686357E-1,1.913168840E-2,2.711026073E-1
1.524070487E0,-1.285034418E-1,-1.629849710E-2,2.711026073E-1
1.526070220E0,-1.242273897E-1,-6.700031459E-2,2.704917192E-1
1.528070020E0,-1.236165240E-1,-8.838059008E-2,2.674373984E-1
1.530069753E0,-1.193404719E-1,-1.427476108E-1,2.625505030E-1
1.532069486E0,-1.217839271E-1,-1.671822071E-1,2.607178986E-1
1.534069219E0,-1.144535467E-1,-2.184948921E-1,2.582744360E-1
1.536068952E0,-1.059014276E-1,-2.716401815E-1,2.472788692E-1
1.538068685E0,-1.040688306E-1,-3.009617031E-1,2.466679960E-1
1.540068418E0,-9.673845023E-2,-3.528852463E-1,2.393376231E-1
1.542068151E0,-9.490585327E-2,-3.791524768E-1,2.368941456E-1
1.544067951E0,-8.696460724E-2,-4.206912816E-1,2.350615561E-1
1.546067684E0,-7.780162990E-2,-4.548997581E-1,2.265094519E-1
1.548067417E0,-7.474730909E-2,-4.726148248E-1,2.234551311E-1
1.550067150E0,-6.375172734E-2,-4.964385629E-1,2.179573327E-1
1.552066883E0,-6.008653715E-2,-5.074341297E-1,2.155138701E-1
1.554066616E0,-5.153442547E-2,-5.220949054E-1,2.075726092E-1
1.556066349E0,-4.481490701E-2,-5.263709426E-1,1.965770423E-1
1.558066149E0,-4.359317943E-2,-5.349230766E-1,1.935227215E-1
1.560065949E0,-4.359317943E-2,-5.483621359E-1,1.886357963E-1
1.562065682E0,-4.298231006E-2,-5.495838523E-1,1.861923337E-1
1.564065415E0,-4.664750397E-2,-5.709640980E-1,1.806945503E-1
1.566065181E0,-5.153442547E-2,-5.923444033E-1,1.788619608E-1
1.568064914E0,-5.214529112E-2,-6.039508581E-1,1.758076251E-1
1.570064647E0,-6.069740281E-2,-6.289963126E-1,1.678663790E-1
1.572064380E0,-6.741692126E-2,-6.418245435E-1,1.672555059E-1
1.574064180E0,-7.719076425E-2,-6.625939608E-1,1.727532893E-1
1.576063913E0,-9.551672637E-2,-6.754221320E-1,1.800836772E-1
1.578063646E0,-9.979277849E-2,-6.900829077E-1,1.947444528E-1
1.580063379E0,-1.181187332E-1,-7.035219073E-1,2.277311683E-1
1.582063112E0,-1.254491210E-1,-7.016893029E-1,2.442245334E-1
1.584062845E0,-1.413316131E-1,-7.047436237E-1,2.851524949E-1
1.586062578E0,-1.523271948E-1,-7.108522654E-1,3.285239339E-1
1.588062311E0,-1.584358364E-1,-7.120740414E-1,3.480716348E-1
1.590062111E0,-1.639336199E-1,-7.120740414E-1,3.792257607E-1
1.592061844E0,-1.621010303E-1,-7.090196609E-1,3.926647902E-1
1.594061577E0,-1.578249782E-1,-6.998566985E-1,4.054929614E-1
1.596061310E0,-1.449968070E-1,-6.778655648E-1,4.097689986E-1
1.598061043E0,-1.358338296E-1,-6.650373936E-1,4.097689986E-1
1.600060776E0,-1.138426811E-1,-6.222767830E-1,4.048820734E-1
1.602060509E0,-1.052905619E-1,-6.027291417E-1,3.999951780E-1
1.604060242E0,-8.268855512E-2,-5.459186435E-1,3.871670067E-1
1.606060042E0,-6.130826846E-2,-4.842212796E-1,3.743388355E-1
1.608059775E0,-5.153442547E-2,-4.530671239E-1,3.688410223E-1
1.610059508E0,-2.771067992E-2,-3.938131928E-1,3.505150676E-1
1.612059241E0,-1.549337525E-2,-3.620482087E-1,3.395195007E-1
1.614058974E0,5.276042968E-3,-2.960747778E-1,3.175283372E-1
1.616058707E0,2.787805721E-2,-2.325447947E-1,2.949263752E-1
1.618058440E0,3.948449716E-2,-2.081101835E-1,2.833199203E-1
1.620058173E0,5.903218314E-2,-1.415258646E-1,2.570526898E-1
1.622057973E0,7.247122377E-2,-1.048739552E-1,2.411702126E-1
1.624057706E0,9.507323802E-2,-3.157012910E-2,2.191790640E-1
1.626057439E0,1.170643866E-1,5.456187576E-2,1.953553110E-1
1.628057172E0,1.305034161E-1,8.877032250E-2,1.855814606E-1
1.630056905E0,1.500511020E-1,1.645176262E-1,1.745858938E-1
1.632056638E0,1.586032212E-1,1.944500059E-1,1.666446477E-1
1.634056371E0,1.647118628E-1,3.245643079E-1,1.666446477E-1
1.636056171E0,1.518836915E-1,4.772806168E-1,1.745858938E-1
1.638055971E0,1.421098560E-1,5.316476226E-1,1.739750355E-1
1.640055704E0,1.024036184E-1,5.841820836E-1,1.794728190E-1
1.642055437E0,7.674727589E-2,5.939558744E-1,1.751967669E-1
1.644055170E0,1.627161726E-2,5.982319117E-1,1.660337895E-1
1.646054903E0,-4.053884745E-2,6.031188369E-1,1.611468643E-1
1.648054636E0,-6.986038387E-2,5.976210833E-1,1.599251181E-1
1.650054369E0,-1.248382553E-1,5.866255164E-1,1.446534991E-1
1.652054169E0,-1.486620009E-1,5.933450460E-1,1.348796487E-1
1.654053969E0,-1.871465147E-1,5.878472328E-1,1.177754253E-1
1.656053702E0,-2.189114988E-1,5.915124416E-1,9.639514983E-2
1.658053435E0,-2.292962074E-1,5.927341580E-1,8.356697857E-2
1.660053168E0,-2.439569682E-1,5.890689492E-1,5.729977041E-2
1.662052901E0,-2.482330352E-1,5.866255164E-1,4.019554704E-2
1.664052634E0,-2.464004308E-1,5.756299496E-1,1.392833795E-2
1.666052367E0,-2.305179387E-1,5.621908903E-1,-1.600405946E-2
1.668052167E0,-2.189114988E-1,5.566931367E-1,-2.883222885E-2
1.670051933E0,-1.865356416E-1,5.267606974E-1,-4.899078235E-2
1.672051699E0,-1.706531495E-1,5.224846601E-1,-6.242981553E-2
1.674051465E0,-1.266708523E-1,4.870544672E-1,-8.197750896E-2
1.676051231E0,-8.513201028E-2,4.430721700E-1,-9.847086668E-2
1.678050997E0,-5.947567523E-2,4.216918945E-1,-1.070229784E-1
1.680050763E0,-1.060645282E-2,3.825964928E-1,-1.161859557E-1
1.682050529E0,1.382815652E-2,3.636597097E-1,-1.186294183E-1
1.684050362E0,6.269737333E-2,3.337273002E-1,-1.204620153E-1
1.686050128E0,1.060688123E-1,3.056274951E-1,-1.161859557E-1
1.688049894E0,1.262273639E-1,2.964645028E-1,-1.125207692E-1
1.690049660E0,1.622684151E-1,2.701973021E-1,-1.058012471E-1
1.692049426E0,1.824269742E-1,2.677538395E-1,-9.969259799E-2
1.694049192E0,2.099158913E-1,2.506496012E-1,-8.808615804E-2
1.696048958E0,2.319070399E-1,2.475952953E-1,-7.647971809E-2
1.698048724E0,2.380156964E-1,2.396540344E-1,-7.159279287E-2
1.700048557E0,2.484004050E-1,2.280476093E-1,-5.998635665E-2
1.702048323E0,2.502329946E-1,2.225498259E-1,-5.998635665E-2
1.704048089E0,2.532873452E-1,2.060564607E-1,-5.082337558E-2
1.706047855E0,2.453460842E-1,1.968934834E-1,-5.143424124E-2
1.708047621E0,2.398483008E-1,1.895630956E-1,-5.265597254E-2
1.710047387E0,2.288527191E-1,1.822327077E-1,-5.265597254E-2
1.712047153E0,2.190788686E-1,1.816218346E-1,-5.815375969E-2
1.714046919E0,2.050289810E-1,1.810109764E-1,-5.998635665E-2
1.716046752E0,1.885356158E-1,1.797892451E-1,-6.487327814E-2
1.718046518E0,1.732639968E-1,1.791783720E-1,-6.731674075E-2
1.720046284E0,1.561597586E-1,1.858979017E-1,-7.403625548E-2
1.722046050E0,1.500511020E-1,1.871196330E-1,-7.464712858E-2
1.724045816E0,1.335577369E-1,1.913956851E-1,-8.014491200E-2
1.726045582E0,1.243947670E-1,1.993369311E-1,-8.869702369E-2
1.728045348E0,1.182861105E-1,2.030021250E-1,-9.175135195E-2
1.730045148E0,1.079014018E-1,1.987260729E-1,-1.009143293E-1
1.732044948E0,1.085122675E-1,1.999478042E-1,-1.033577845E-1
1.734044681E0,1.036253497E-1,1.981151998E-1,-1.100773066E-1
1.736044414E0,1.060688123E-1,1.846761554E-1,-1.125207692E-1
1.738044147E0,1.048470736E-1,1.785675138E-1,-1.119099036E-1
1.740043880E0,1.030144840E-1,1.700154096E-1,-1.143533662E-1
1.742043613E0,1.085122675E-1,1.663502157E-1,-1.088555753E-1
1.744043346E0,1.140100583E-1,1.486351192E-1,-1.082447097E-1
1.746043146E0,1.201187074E-1,1.272548437E-1,-1.064121202E-1
1.748042879E0,1.243947670E-1,1.101506129E-1,-1.070229784E-1
1.750042612E0,1.347794831E-1,8.754859865E-2,-1.100773066E-1
1.752042345E0,1.414989978E-1,8.143994212E-2,-1.076338440E-1
1.754042078E0,1.494402438E-1,6.189225242E-2,-9.175135195E-2
1.756041811E0,1.598249525E-1,4.784235358E-2,-7.281453162E-2
1.758041544E0,1.622684151E-1,3.623591736E-2,-5.815375969E-2
1.760041277E0,1.793726385E-1,2.096428536E-2,-3.066482395E-2
1.762041077E0,1.854812950E-1,7.525248919E-3,-1.539319288E-2
1.764040810E0,2.031963766E-1,-1.263330504E-2,8.430551738E-3
1.766040543E0,2.227440625E-1,-3.951137513E-2,3.164343163E-2
1.768040276E0,2.337396443E-1,-5.905906111E-2,4.080640897E-2
1.770040009E0,2.484004050E-1,-9.632184356E-2,5.241284892E-2
1.772039742E0,2.575633824E-1,-1.140369326E-1,5.607804283E-2
1.774039475E0,2.679480910E-1,-1.323629022E-1,5.668890476E-2
1.776039208E0,2.807762623E-1,-1.427476108E-1,5.302371457E-2
1.778039008E0,2.881066501E-1,-1.519105881E-1,5.546717346E-2
1.780038741E0,2.972696126E-1,-1.488562524E-1,4.508246481E-2
1.782038474E0,3.021565676E-1,-1.421367377E-1,4.141727462E-2
1.784038207E0,3.131521344E-1,-1.366389394E-1,2.858910337E-2
1.786037940E0,3.174282014E-1,-1.372498125E-1,1.515006926E-2
1.788037673E0,3.192607760E-1,-1.378606707E-1,8.430551738E-3
1.790037406E0,3.168173134E-1,-1.384715438E-1,-1.233886741E-2
1.792037139E0,3.143738806E-1,-1.329737604E-1,-1.966924965E-2
1.794036939E0,3.119303882E-1,-1.262542456E-1,-3.677347675E-2
1.796036672E0,3.113195300E-1,-1.140369326E-1,-5.265597254E-2
1.798036405E0,3.088760674E-1,-1.042630896E-1,-6.365154684E-2
1.800036138E0,3.058217466E-1,-8.715886623E-2,-7.892318070E-2
1.802035871E0,2.978805006E-1,-6.883291155E-2,-9.175135195E-2
1.804035604E0,2.936044335E-1,-5.356127396E-2,-1.003034562E-1
1.806035337E0,2.838305831E-1,-3.584618494E-2,-1.106881723E-1
1.808035137E0,2.813871503E-1,-2.607234009E-2,-1.143533662E-1
1.810034937E0,2.740567625E-1,2.027461771E-3,-1.216837466E-1
1.812034670E0,2.648937702E-1,2.890553325E-2,-1.351227909E-1
1.814034403E0,2.581742406E-1,4.051196948E-2,-1.400097013E-1
1.816034136E0,2.538982034E-1,6.250312179E-2,-1.485618204E-1
1.818033869E0,2.496221513E-1,7.288783044E-2,-1.546704769E-1
1.820033602E0,2.447352111E-1,7.533129305E-2,-1.626117229E-1
1.822033335E0,2.441243529E-1,8.754859865E-2,-1.729964316E-1
1.824033135E0,2.404591739E-1,9.304638952E-2,-1.803268194E-1
1.826032868E0,2.471786737E-1,9.854417294E-2,-1.968201697E-1
1.828032601E0,2.502329946E-1,1.046528220E-1,-2.059831470E-1
1.830032334E0,2.557307780E-1,1.217570528E-1,-2.279743105E-1
1.832032067E0,2.673372328E-1,1.345852166E-1,-2.487437129E-1
1.834031800E0,2.752784789E-1,1.437481940E-1,-2.646262348E-1
1.836031533E0,2.819979787E-1,1.559655070E-1,-2.884499431E-1
1.838031266E0,2.856631875E-1,1.541329026E-1,-3.024998605E-1
1.840031066E0,2.923827171E-1,1.584089696E-1,-3.342648745E-1
1.842030799E0,2.917718589E-1,1.571872383E-1,-3.623646498E-1
1.844030532E0,2.942152917E-1,1.584089696E-1,-3.776362836E-1
1.846030265E0,2.899392247E-1,1.645176262E-1,-4.051252007E-1
1.848029998E0,2.868849039E-1,1.681828201E-1,-4.142882228E-1
1.850029731E0,2.740567625E-1,1.846761554E-1,-4.350576103E-1
1.852029464E0,2.600068450E-1,2.066673189E-1,-4.497183859E-1
1.854029197E0,2.459569573E-1,2.127759755E-1,-4.509401321E-1
1.856028997E0,2.251875252E-1,2.304910570E-1,-4.521618485E-1
1.858028730E0,2.135810852E-1,2.335453928E-1,-4.539944530E-1
1.860028463E0,1.897573620E-1,2.463735640E-1,-4.460532069E-1
1.862028196E0,1.695988029E-1,2.671429813E-1,-4.350576103E-1
1.864027929E0,1.598249525E-1,2.756950855E-1,-4.258946180E-1
1.866027629E0,1.427207142E-1,2.970753908E-1,-4.094012678E-1
1.868027362E0,1.408881247E-1,2.989079654E-1,-3.953513801E-1
1.870027095E0,1.292816997E-1,3.160122037E-1,-3.745819628E-1
1.872026895E0,1.225621700E-1,3.294512331E-1,-3.538125157E-1
1.874026628E0,1.195078418E-1,3.294512331E-1,-3.464821577E-1
1.876026361E0,1.182861105E-1,3.435011208E-1,-3.299888074E-1
1.878026094E0,1.207295731E-1,3.373924792E-1,-3.214366734E-1
1.880025827E0,1.225621700E-1,3.398359418E-1,-3.104411066E-1
1.882025560E0,1.219513044E-1,3.373924792E-1,-2.957803309E-1
1.884025293E0,1.237838939E-1,3.251751661E-1,-2.908934355E-1
1.886025093E0,1.317251474E-1,3.111252785E-1,-2.750109136E-1
1.888024893E0,1.311142892E-1,2.989079654E-1,-2.640153468E-1
1.890024626E0,1.390555203E-1,2.769168019E-1,-2.493545860E-1
1.892024359E0,1.427207142E-1,2.518713474E-1,-2.371372879E-1
1.894024092E0,1.469967812E-1,2.323236614E-1,-2.334720939E-1
1.896023825E0,1.573814899E-1,2.066673189E-1,-2.304177582E-1
1.898023558E0,1.628792733E-1,1.846761554E-1,-2.243091166E-1
1.900023291E0,1.732639968E-1,1.437481940E-1,-2.175895870E-1
1.902023091E0,1.818161011E-1,1.150375307E-1,-2.059831470E-1
1.904022891E0,1.824269742E-1,9.304638952E-2,-1.962093115E-1
1.906022624E0,1.909790784E-1,6.189225242E-2,-1.821594089E-1
1.908022357E0,1.940333992E-1,4.417716339E-2,-1.711638272E-1
1.910022090E0,1.995311826E-1,9.968710132E-3,-1.461183578E-1
1.912021823E0,1.952551305E-1,-2.362887748E-2,-1.302358508E-1
1.914021556E0,1.964768618E-1,-4.134397209E-2,-1.210728809E-1
1.916021289E0,1.922008097E-1,-6.883291155E-2,-1.015251949E-1
1.918021089E0,1.885356158E-1,-9.082406014E-2,-9.236221015E-2
1.920020822E0,1.799835116E-1,-1.213673204E-1,-7.159279287E-2
1.922020555E0,1.738748401E-1,-1.525214314E-1,-5.326683819E-2
1.924020288E0,1.720422506E-1,-1.647387594E-1,-4.227126390E-2
1.926020054E0,1.628792733E-1,-1.916168183E-1,-2.211271040E-2
1.928019787E0,1.628792733E-1,-2.093319148E-1,-1.294973306E-2
1.930019520E0,1.543271691E-1,-2.331556529E-1,-3.786753630E-3
1.932019253E0,1.518836915E-1,-2.527033389E-1,9.041416459E-3
1.934019053E0,1.488293707E-1,-2.582011521E-1,9.652282111E-3
1.936018786E0,1.463859081E-1,-2.740836143E-1,2.125872299E-2
1.938018519E0,1.494402438E-1,-2.838574946E-1,2.492391132E-2
1.940018252E0,1.476076543E-1,-2.887443900E-1,2.981083468E-2
1.942017985E0,1.506619751E-1,-2.856900692E-1,4.019554704E-2
1.944017718E0,1.524945647E-1,-2.850791812E-1,4.202814028E-2
1.946017451E0,1.488293707E-1,-2.746945024E-1,4.508246481E-2
1.948017184E0,1.476076543E-1,-2.716401815E-1,4.569333419E-2
1.950016984E0,1.414989978E-1,-2.508707345E-1,5.058025196E-2
1.952016717E0,1.372229308E-1,-1.897842288E-1,7.440400124E-2
1.954016450E0,1.353903413E-1,-1.519105881E-1,9.028649330E-2
1.956016183E0,1.164535135E-1,-9.998703748E-2,1.098341793E-1
1.958015916E0,1.060688123E-1,-7.616329193E-2,1.122776419E-1
1.960015649E0,8.224506676E-2,-4.928521812E-2,1.238840818E-1
1.962015382E0,5.109093338E-2,-1.690936089E-2,1.318253279E-1
1.964015115E0,4.314968735E-2,1.363390125E-2,1.379339844E-1
1.966014915E0,3.398671001E-2,6.372485310E-2,1.483186930E-1
1.968014648E0,2.909978665E-2,8.571600169E-2,1.532056183E-1
1.970014381E0,1.749334671E-2,1.052636877E-1,1.550382078E-1
1.972014114E0,6.497773807E-3,1.070962846E-1,1.587034017E-1
1.974013847E0,4.054312594E-3,1.125940681E-1,1.617577225E-1
1.976013580E0,-5.108666141E-3,9.793330729E-2,1.593142748E-1
1.978013313E0,-1.182818413E-2,9.426811337E-2,1.660337895E-1
1.980013113E0,-1.854770072E-2,9.976589680E-2,1.745858938E-1
1.982012913E0,-2.343462408E-2,8.877032250E-2,1.855814606E-1
1.984012646E0,-2.648894861E-2,8.754859865E-2,1.880249381E-1
1.986012379E0,-3.320846707E-2,7.960734516E-2,1.990205050E-1
1.988012112E0,-3.137587011E-2,7.777474821E-2,2.069617659E-1
1.990011845E0,-3.320846707E-2,8.632686734E-2,2.191790640E-1
1.992011578E0,-3.381933272E-2,8.327253908E-2,2.301746309E-1
1.994011311E0,-3.626279533E-2,8.082907647E-2,2.381158918E-1
1.996011111E0,-4.664750397E-2,7.899647951E-2,2.570526898E-1
1.998010844E0,-4.481490701E-2,8.021821827E-2,2.698808908E-1
2.000010577E0,-4.970182851E-2,7.838562131E-2,2.918720543E-1
2.002010310E0,-4.786923155E-2,7.899647951E-2,3.126414418E-1
2.004010043E0,-4.725836962E-2,8.510513604E-2,3.218044043E-1
2.006009776E0,-5.581048131E-2,7.288783044E-2,3.364651799E-1
2.008009509E0,-5.275615677E-2,6.861177087E-2,3.444064260E-1
2.010009242E0,-5.703221262E-2,5.883792788E-2,3.554020226E-1
2.012009042E0,-5.581048131E-2,5.517273769E-2,3.645650148E-1
2.014008775E0,-5.947567523E-2,4.662062600E-2,3.670084476E-1
2.016008508E0,-7.047124207E-2,4.234456643E-2,3.755605817E-1
2.018008241E0,-6.863865256E-2,3.440332040E-2,3.780040145E-1
2.020007974E0,-7.657990605E-2,3.745764494E-2,3.767822981E-1
2.022007707E0,-8.085595816E-2,4.723149166E-2,3.749496937E-1
2.024007440E0,-8.085595816E-2,5.150754377E-2,3.731170893E-1
2.026007173E0,-8.207768947E-2,6.372485310E-2,3.694519103E-1
2.028006973E0,-8.268855512E-2,7.288783044E-2,3.688410223E-1
2.030006706E0,-8.268855512E-2,8.143994212E-2,3.676193357E-1
2.032006439E0,-8.268855512E-2,9.487897903E-2,3.663975894E-1
2.034006172E0,-8.391028643E-2,1.022093594E-1,3.633432686E-1
2.036005905E0,-8.452115208E-2,1.125940681E-1,3.554020226E-1
2.038005638E0,-8.635374159E-2,1.187027171E-1,3.505150676E-1
2.040005371E0,-9.490585327E-2,1.290874332E-1,3.419629931E-1
2.042005104E0,-1.010145098E-1,1.370286793E-1,3.340217173E-1
2.044004904E0,-1.059014276E-1,1.394721419E-1,3.309673965E-1
2.046004604E0,-1.144535467E-1,1.468025148E-1,3.242478967E-1
2.048004337E0,-1.187295988E-1,1.529111713E-1,3.224152923E-1
2.050004070E0,-1.291143000E-1,1.535220444E-1,3.156957626E-1
2.052003803E0,-1.443859339E-1,1.565763652E-1,3.065327704E-1
2.054003536E0,-1.486620009E-1,1.559655070E-1,3.065327704E-1
2.056003269E0,-1.602684259E-1,1.687936634E-1,2.992024124E-1
2.058003069E0,-1.663770974E-1,1.675719470E-1,2.973698080E-1
2.060002869E0,-1.755400747E-1,1.742914617E-1,2.918720543E-1
2.062002602E0,-1.847030520E-1,1.889522225E-1,2.827090323E-1
2.064002335E0,-1.871465147E-1,1.950608790E-1,2.747677863E-1
2.066002068E0,-1.908117086E-1,2.121651024E-1,2.656048238E-1
2.068001801E0,-1.920334250E-1,2.133868337E-1,2.601070106E-1
2.070001534E0,-1.926442981E-1,2.176628858E-1,2.497223169E-1
2.072001267E0,-1.883682460E-1,2.262150049E-1,2.301746309E-1
2.074001067E0,-1.853139251E-1,2.262150049E-1,2.258985788E-1
2.076000833E0,-1.785943955E-1,2.396540344E-1,2.075726092E-1
2.078000599E0,-1.761509329E-1,2.402649075E-1,2.008531094E-1
2.080000365E0,-1.639336199E-1,2.427083701E-1,1.861923337E-1
2.082000131E0,-1.449968070E-1,2.420974970E-1,1.715315729E-1
2.083999897E0,-1.388881505E-1,2.469844222E-1,1.593142748E-1
2.085999663E0,-1.199513301E-1,2.610343397E-1,1.403774470E-1
2.087999429E0,-1.113992184E-1,2.683647275E-1,1.312144697E-1
2.089999262E0,-1.016253754E-1,2.781385481E-1,1.122776419E-1
2.091999028E0,-8.696460724E-2,2.824146152E-1,1.055581272E-1
2.093998794E0,-7.719076425E-2,2.799711525E-1,1.061689928E-1
2.095998560E0,-6.130826846E-2,2.799711525E-1,1.061689928E-1
2.097998326E0,-5.275615677E-2,2.744733691E-1,1.055581272E-1
2.099998092E0,-3.748452291E-2,2.738624811E-1,1.049472615E-1
2.101997858E0,-2.404548787E-2,2.787494063E-1,9.517341852E-2
2.103997624E0,-2.099116333E-2,2.799711525E-1,8.967562765E-2
2.105997490E0,-6.941261701E-3,2.701973021E-1,8.173438162E-2
2.107997256E0,3.443447407E-3,2.671429813E-1,7.868005335E-2
2.109997022E0,5.886908621E-3,2.726407647E-1,7.868005335E-2
2.111996788E0,7.719503716E-3,2.726407647E-1,7.562572509E-2
2.113996554E0,5.886908621E-3,2.750842273E-1,7.257140428E-2
2.115996320E0,-8.326093666E-4,2.677538395E-1,7.562572509E-2
2.117996086E0,-2.665204927E-3,2.598125935E-1,7.745832205E-2
2.119995852E0,-1.304991450E-2,2.549256682E-1,7.806918770E-2
2.121995685E0,-1.915856823E-2,2.494278848E-1,7.806918770E-2
2.123995451E0,-1.976943202E-2,2.359888405E-1,7.868005335E-2
2.125995217E0,-3.015414067E-2,2.274367362E-1,7.684745640E-2
2.127994983E0,-3.259760141E-2,2.207172215E-1,7.806918770E-2
2.129994749E0,-4.298231006E-2,2.133868337E-1,8.723217249E-2
2.131994515E0,-5.397788435E-2,1.895630956E-1,9.456255287E-2
2.133994281E0,-6.069740281E-2,1.791783720E-1,9.028649330E-2
2.135994081E0,-7.169298083E-2,1.406938732E-1,8.539957553E-2
2.137993881E0,-8.085595816E-2,1.193135902E-1,8.234524727E-2
2.139993614E0,-8.085595816E-2,7.105523348E-2,7.623659819E-2
2.141993347E0,-6.619518995E-2,3.745764494E-2,5.974323303E-2
2.143993080E0,-5.458875373E-2,2.157514915E-2,4.996938631E-2
2.145992813E0,-2.465635352E-2,4.470922984E-3,3.103256598E-2
2.147992546E0,-1.060645282E-2,-4.081190564E-3,2.125872299E-2
2.149992279E0,2.543459646E-2,-1.446589921E-2,5.376224872E-3
2.151992079E0,5.109093338E-2,-2.607234009E-2,-5.008484237E-3
2.153991879E0,6.269737333E-2,-3.706791252E-2,-7.451945450E-3
2.155991612E0,7.796900719E-2,-5.050694942E-2,-1.233886741E-2
2.157991345E0,8.285592496E-2,-6.455684453E-2,-9.284541011E-3
2.159991078E0,8.774285018E-2,-7.860674709E-2,1.100168331E-3
2.161990811E0,7.980160415E-2,-9.204578400E-2,2.003699169E-2
2.163990544E0,7.063862681E-2,-9.204578400E-2,3.042170033E-2
2.165990277E0,5.475612730E-2,-1.067065522E-1,5.363458022E-2
2.167990077E0,4.437141865E-2,-1.158695295E-1,7.012793422E-2
2.169989810E0,2.238027006E-2,-1.219781786E-1,9.456255287E-2
2.171989543E0,4.054312594E-3,-1.274759620E-1,1.208297610E-1
2.173989276E0,-7.552126888E-3,-1.286977082E-1,1.342688054E-1
2.175989009E0,-1.915856823E-2,-1.158695295E-1,1.538164765E-1
2.177988742E0,-2.709981613E-2,-1.103717387E-1,1.648120582E-1
2.179988475E0,-2.954327501E-2,-9.326751530E-2,1.831380129E-1
2.181988208E0,-3.198673576E-2,-6.455684453E-2,1.935227215E-1
2.183988008E0,-3.137587011E-2,-4.867435619E-2,1.990205050E-1
2.185987741E0,-3.015414067E-2,-1.752022468E-2,2.057400197E-1
2.187987474E0,-2.648894861E-2,-1.637729816E-3,2.112378031E-1
2.189987207E0,-2.465635352E-2,3.195985779E-2,2.124595493E-1
2.191986940E0,-2.404548787E-2,5.822706595E-2,2.155138701E-1
2.193986673E0,-1.549337525E-2,7.166609913E-2,2.149029970E-1
2.195986406E0,-1.732597128E-2,9.610071033E-2,2.124595493E-1
2.197986139E0,-1.243904885E-2,1.064854190E-1,2.149029970E-1
2.199985939E0,-1.610423997E-2,1.345852166E-1,2.197899371E-1
2.201985672E0,-1.610423997E-2,1.626850218E-1,2.252877206E-1
2.203985405E0,-2.282375842E-2,1.797892451E-1,2.283420414E-1
2.205985138E0,-3.259760141E-2,2.078890502E-1,2.393376231E-1
2.207984871E0,-3.626279533E-2,2.213280797E-1,2.442245334E-1
2.209984604E0,-4.725836962E-2,2.451518178E-1,2.558309734E-1
2.211984337E0,-6.130826846E-2,2.622560561E-1,2.717134655E-1
2.213984070E0,-6.497345865E-2,2.732516229E-1,2.814873159E-1
2.215983870E0,-8.146681637E-2,2.787494063E-1,2.992024124E-1
2.217983603E0,-8.635374159E-2,2.842471898E-1,3.071436584E-1
2.219983336E0,-1.034579724E-1,2.836363614E-1,3.248587251E-1
2.221983069E0,-1.217839271E-1,2.830254734E-1,3.431846797E-1
2.223982802E0,-1.266708523E-1,2.818037271E-1,3.535694182E-1
2.225982502E0,-1.468294114E-1,2.744733691E-1,3.835017979E-1
2.227982235E0,-1.566032469E-1,2.634777725E-1,3.999951780E-1
2.229982035E0,-1.810378581E-1,2.561474144E-1,4.305384159E-1
2.231981835E0,-2.079159170E-1,2.390431762E-1,4.818511009E-1
2.233981568E0,-2.262418866E-1,2.408757806E-1,5.105617642E-1
2.235981301E0,-2.622829378E-1,2.256041467E-1,5.783677697E-1
2.237981034E0,-2.867175341E-1,2.194954902E-1,6.150197387E-1
2.239980767E0,-3.410845697E-1,2.030021250E-1,7.103146911E-1
2.241980500E0,-4.046145380E-1,1.645176262E-1,8.111074567E-1
2.243980233E0,-4.284383059E-1,1.290874332E-1,8.428725004E-1
2.245980033E0,-4.455425143E-1,6.311398745E-2,8.508137465E-1
2.247979766E0,-4.333252013E-1,4.478802904E-2,8.465376496E-1
2.249979499E0,-3.893429041E-1,3.195985779E-2,8.269900084E-1
2.251979232E0,-3.227586150E-1,2.096428536E-2,7.762881517E-1
2.253978965E0,-2.787763178E-1,2.585120499E-2,7.506318092E-1
2.255978698E0,-1.737074703E-1,4.662062600E-2,6.999300122E-1
2.257978431E0,-1.230056584E-1,5.395100638E-2,6.809931397E-1
2.259978164E0,-2.038029581E-2,8.632686734E-2,6.467847228E-1
2.261977964E0,6.025391445E-2,1.205353141E-1,6.309022307E-1
2.263977697E0,8.407765627E-2,1.303091645E-1,6.296804547E-1
2.265977430E0,1.164535135E-1,1.602415591E-1,6.321239471E-1
2.267977163E0,1.225621700E-1,1.761240512E-1,6.412869096E-1
2.269976896E0,1.170643866E-1,1.987260729E-1,6.651107073E-1
2.271976629E0,8.957544714E-2,2.146085650E-1,6.919887662E-1
2.273976362E0,7.308208197E-2,2.225498259E-1,7.097038627E-1
2.275976095E0,2.848892286E-2,2.274367362E-1,7.414688468E-1
2.277975895E0,4.665177781E-3,2.262150049E-1,7.646816969E-1
2.279975661E0,-3.931711987E-2,2.286584675E-1,8.056097031E-1
2.281975427E0,-7.963422686E-2,2.280476093E-1,8.508137465E-1
2.283975193E0,-9.185153246E-2,2.262150049E-1,8.734157085E-1
2.285974993E0,-1.150644049E-1,2.176628858E-1,9.143437147E-1
2.287974759E0,-1.187295988E-1,2.066673189E-1,9.369457364E-1
2.289974525E0,-1.187295988E-1,1.956717372E-1,9.784845710E-1
2.291974291E0,-1.120100841E-1,1.785675138E-1,1.001697421E0
2.293974124E0,-1.010145098E-1,1.761240512E-1,1.015136480E0
2.295973924E0,-8.513201028E-2,1.639067531E-1,1.034684181E0
2.297973724E0,-7.474730909E-2,1.645176262E-1,1.043236375E0
2.299973524E0,-5.458875373E-2,1.639067531E-1,1.057897091E0
2.301973324E0,-3.992798552E-2,1.639067531E-1,1.067060113E0
2.303973124E0,-2.832154557E-2,1.675719470E-1,1.073168755E0
2.305972924E0,-1.427164488E-2,1.669610739E-1,1.073168755E0
2.307972790E0,-7.552126888E-3,1.645176262E-1,1.070725203E0
2.309972656E0,5.276042968E-3,1.584089696E-1,1.057897091E0
2.311972522E0,1.382815652E-2,1.480242610E-1,1.046290636E0
2.313972388E0,1.688248292E-2,1.400830150E-1,1.037738562E0
2.315972254E0,2.482373081E-2,1.168701276E-1,1.018190742E0
2.317972120E0,2.299113385E-2,1.058745533E-1,1.008416891E0
2.319971986E0,2.482373081E-2,8.327253908E-2,9.864257574E-1
2.321971852E0,1.871507801E-2,5.700533465E-2,9.656563997E-1
2.323971785E0,2.115853876E-2,4.845321923E-2,9.613803029E-1
2.325971718E0,1.749334671E-2,1.852082275E-2,9.448869824E-1
2.327971584E0,1.321729086E-2,1.119044051E-2,9.369457364E-1
2.329971450E0,1.138469577E-2,-1.385503449E-2,9.198414683E-1
2.331971316E0,1.077383012E-2,-3.462445363E-2,8.966286182E-1
2.333971182E0,9.552099742E-3,-4.562002420E-2,8.880764842E-1
2.335971048E0,1.077383012E-2,-6.333512068E-2,8.703613877E-1
2.337970914E0,1.382815652E-2,-7.799588889E-2,8.636419177E-1
2.339970814E0,1.566075161E-2,-9.876530617E-2,8.483702540E-1
2.341970647E0,1.749334671E-2,-1.195347235E-1,8.367637992E-1
2.343970480E0,1.993680932E-2,-1.360280812E-1,8.343203664E-1
2.345970313E0,2.176940627E-2,-1.427476108E-1,8.300443292E-1
2.347970146E0,2.604546212E-2,-1.458019316E-1,8.324878216E-1
2.349969979E0,2.238027006E-2,-1.470236480E-1,8.282117248E-1
2.351969812E0,1.993680932E-2,-1.396932751E-1,8.037770987E-1
2.353969645E0,2.054767497E-2,-1.286977082E-1,7.946141362E-1
2.355969511E0,7.719503716E-3,-1.115934774E-1,7.634600401E-1
2.357969311E0,2.832582220E-3,-9.632184356E-2,7.390254140E-1
2.359969111E0,-2.054339973E-3,-6.700031459E-2,7.127581835E-1
2.361968911E0,-6.941261701E-3,-2.668320388E-2,6.852692366E-1
2.363968711E0,-6.941261701E-3,-4.692056216E-3,6.742736697E-1
2.365968511E0,-1.060645282E-2,3.806851059E-2,6.638889909E-1
2.367968311E0,-1.427164488E-2,5.883792788E-2,6.504499316E-1
2.369968111E0,-1.915856823E-2,9.121379256E-2,6.229609847E-1
2.371967911E0,-3.015414067E-2,1.217570528E-1,5.966938138E-1
2.373967644E0,-3.504106030E-2,1.443590671E-1,5.838655829E-1
2.375967377E0,-4.664750397E-2,1.865087599E-1,5.563766360E-1
2.377967110E0,-4.725836962E-2,2.146085650E-1,5.514897704E-1
2.379966843E0,-4.053884745E-2,3.263969123E-1,5.979155302E-1
2.381966576E0,-2.465635352E-2,4.271896780E-1,6.816040874E-1
2.383966309E0,-1.854770072E-2,4.705610871E-1,7.213103175E-1
2.385966042E0,-1.443474554E-3,5.310367346E-1,7.933924198E-1
2.387965842E0,8.330369368E-3,5.695213079E-1,8.318768740E-1
2.389965575E0,1.504988689E-2,5.841820836E-1,8.813570142E-1
2.391965308E0,2.832582220E-3,5.505844951E-1,9.045698643E-1
2.393965041E0,-8.773856796E-3,5.182086229E-1,9.070132971E-1
2.395964774E0,-3.992798552E-2,4.479590654E-1,8.911308646E-1
2.397964507E0,-5.642134324E-2,4.216918945E-1,8.819678426E-1
2.399964240E0,-8.879720420E-2,3.673248887E-1,8.587549329E-1
2.401964040E0,-1.217839271E-1,2.921884358E-1,8.245465159E-1
2.403963840E0,-1.394990236E-1,2.585908473E-1,8.111074567E-1
2.405964273E0,-1.394990236E-1,2.585908473E-1,8.111074567E-1
2.407964006E0,-1.895899624E-1,1.920065433E-1,7.652925849E-1
2.409963739E0,-2.237984240E-1,1.785675138E-1,7.316949964E-1
2.411963472E0,-2.384591848E-1,1.700154096E-1,7.005409002E-1
2.413963205E0,-2.433461100E-1,1.608524323E-1,6.846584082E-1
2.415962938E0,-2.402917743E-1,1.577980965E-1,6.559476852E-1
2.417962738E0,-2.378483266E-1,1.492459923E-1,6.498390436E-1
2.419962471E0,-2.396809161E-1,1.510785818E-1,6.327347755E-1
2.421962204E0,-2.341831326E-1,1.620741636E-1,6.199066639E-1
2.423961937E0,-2.347939909E-1,1.755131930E-1,6.150197387E-1
2.425961670E0,-2.219658345E-1,2.005586773E-1,6.144088507E-1
2.427961403E0,-2.146354467E-1,2.097216547E-1,6.119654179E-1
2.429961136E0,-2.091376632E-1,2.298801988E-1,6.113545299E-1
2.431960869E0,-2.091376632E-1,2.549256682E-1,6.125763059E-1
2.433960669E0,-2.079159170E-1,2.769168019E-1,6.150197387E-1
2.435960402E0,-2.134137154E-1,3.215099871E-1,6.186849475E-1
2.437960135E0,-2.152463049E-1,3.483880758E-1,6.156306267E-1
2.439959868E0,-2.195223719E-1,4.009224474E-1,6.125763059E-1
2.441959601E0,-2.073050737E-1,4.711719751E-1,6.113545299E-1
2.443959334E0,-2.030290067E-1,5.114890933E-1,6.076893210E-1
2.445959067E0,-1.908117086E-1,5.933450460E-1,6.064676642E-1
2.447958800E0,-1.834813207E-1,6.306077838E-1,5.991372466E-1
2.449958600E0,-1.682096869E-1,7.173506618E-1,5.802004337E-1
2.451958333E0,-1.504946053E-1,8.040934801E-1,5.600418448E-1
2.453958066E0,-1.425533444E-1,8.517410159E-1,5.423268080E-1
2.455957799E0,-1.144535467E-1,9.372621179E-1,5.154487491E-1
2.457957532E0,-9.734931588E-2,9.708597660E-1,5.044531226E-1
2.459957265E0,-4.970182851E-2,1.007511616E0,4.916249812E-1
2.461956998E0,-8.773856796E-3,1.021561623E0,4.910140932E-1
2.463956731E0,9.999864269E-4,1.023394108E0,4.849054515E-1
2.465955931E0,-1.443474554E-3,1.011176825E0,4.256515205E-1
2.467955664E0,-1.443474554E-3,9.928508997E-1,4.048820734E-1
2.469955397E0,3.443447407E-3,9.904074073E-1,3.987734318E-1
2.471955130E0,7.719503716E-3,1.013620257E0,4.238189161E-1
2.473954863E0,2.832582220E-3,1.029502749E0,4.543621838E-1
2.475954596E0,-1.854770072E-2,1.066765666E0,5.356072187E-1
2.477954329E0,-4.114971682E-2,1.080204606E0,5.521006584E-1
2.479954129E0,-7.963422686E-2,1.102195859E0,6.131871343E-1
2.481953929E0,-1.278925836E-1,1.115634799E0,7.011517286E-1
2.483953662E0,-1.480511278E-1,1.104639292E0,7.426905632E-1
2.485953395E0,-2.134137154E-1,1.063100338E0,8.233247399E-1
2.487953128E0,-2.518982291E-1,1.033778787E0,8.660853505E-1
2.489952861E0,-3.441388905E-1,9.531446695E-1,9.418326616E-1
2.491952594E0,-4.510402977E-1,8.841168880E-1,1.009638667E0
2.493952327E0,-5.127376914E-1,8.492975235E-1,1.044458032E0
2.495952127E0,-6.648431420E-1,8.095912933E-1,1.091494679E0
2.497951860E0,-7.552511692E-1,8.016501069E-1,1.117761850E0
2.499951593E0,-9.317912459E-1,7.772154808E-1,1.176404953E0
2.501951326E0,-1.143150687E0,7.717176676E-1,1.244210958E0
2.503951059E0,-1.259825945E0,7.613329291E-1,1.274754167E0
2.505950792E0,-1.499895930E0,7.307896614E-1,1.321790814E0
2.507950525E0,-1.632453680E0,7.185723782E-1,1.353555799E0
2.509950258E0,-1.926890731E0,7.265136838E-1,1.403646708E0
2.511950058E0,-2.261034012E0,7.619438767E-1,1.442742229E0
2.513949791E0,-2.449180365E0,7.888218760E-1,1.449461699E0
2.515949524E0,-2.842577696E0,8.554061651E-1,1.436633587E0
2.517949257E0,-3.042330503E0,8.773973584E-1,1.423805356E0
2.519948990E0,-3.469325542E0,9.830770493E-1,1.375547051E0
2.521948723E0,-3.918311596E0,1.089978456E0,1.266202092E0
2.523948456E0,-4.067973614E0,1.029502749E0,1.186178684E0
2.525948222E0,-4.265893459E0,9.067188501E-1,9.943670630E-1
2.527948022E0,-4.281776428E0,8.211977482E-1,8.935742974E-1
2.529947755E0,-4.114398956E0,5.371454358E-1,7.035952210E-1
2.531947488E0,-3.710617304E0,1.773457974E-1,5.307203531E-1
2.533947221E0,-3.463827610E0,-5.913786590E-3,4.561947584E-1
2.535946954E0,-2.906107664E0,-3.687677383E-1,3.279130757E-1
2.537946687E0,-2.613503218E0,-5.294252634E-1,2.790438533E-1
2.539946420E0,-2.005081415E0,-7.872104645E-1,2.118486762E-1
2.541946153E0,-1.413153052E0,-9.368724227E-1,1.977987885E-1
2.543945953E0,-1.132155061E0,-9.814655781E-1,1.996313781E-1
2.545945686E0,-6.581236124E-1,-1.015673995E0,1.861923337E-1
2.547945419E0,-4.742531776E-1,-9.802438617E-1,1.813054234E-1
2.549945152E0,-2.268527597E-1,-7.597215176E-1,1.477078199E-1
2.551944885E0,-2.648894861E-2,-4.707822204E-1,5.974323303E-2
2.553944618E0,8.835371584E-2,-3.669351637E-1,-3.786753630E-3
2.555944351E0,3.204825222E-1,-2.325447947E-1,-1.247380748E-1
2.557944151E0,4.121122956E-1,-2.410969138E-1,-1.913223863E-1
2.559943951E0,5.006877184E-1,-3.290614784E-1,-3.251018822E-1
2.561943684E0,4.945791066E-1,-4.671170413E-1,-4.436097443E-1
2.563943417E0,4.707553685E-1,-5.355339646E-1,-4.955332577E-1
2.565943150E0,3.962298036E-1,-6.308289170E-1,-5.737239718E-1
2.567942883E0,3.345324099E-1,-6.351049542E-1,-6.024346948E-1
2.569942616E0,1.989203244E-1,-5.813488960E-1,-6.390866041E-1
2.571942349E0,6.514083594E-2,-4.652844667E-1,-6.586343050E-1
2.573942149E0,9.552099742E-3,-3.980892599E-1,-6.622995138E-1
2.575941949E0,-7.230383903E-2,-2.759162188E-1,-6.549690962E-1
2.577941682E0,-9.857104719E-2,-2.264361382E-1,-6.445844173E-1
2.579941415E0,-1.352229565E-1,-1.476345211E-1,-6.256476045E-1
2.581941148E0,-1.437750757E-1,-1.005979031E-1,-6.097650528E-1
2.583940881E0,-1.382772774E-1,-8.227194101E-2,-6.012129784E-1
2.585940514E0,-1.065123007E-1,-6.089165807E-2,-5.877739191E-1
2.587940247E0,-8.085595816E-2,-5.111781135E-2,-5.767783523E-1
2.589940047E0,-9.995588101E-3,-3.157012910E-2,-5.578415394E-1
2.591939780E0,6.147564575E-2,-2.248595003E-3,-5.437916517E-1
2.593939513E0,1.042362154E-1,1.790995710E-2,-5.376830101E-1
2.595939246E0,1.793726385E-1,5.944879353E-2,-5.334069133E-1
2.597938979E0,2.117484957E-1,7.349869609E-2,-5.376830101E-1
2.599938712E0,2.728350163E-1,1.083180159E-1,-5.547872186E-1
2.601938445E0,3.223150969E-1,1.486351192E-1,-5.908282399E-1
2.603938178E0,3.406410515E-1,1.681828201E-1,-6.140411496E-1
2.605937978E0,3.662973940E-1,2.005586773E-1,-6.769602895E-1
2.607937711E0,3.730168939E-1,2.225498259E-1,-7.197208405E-1
2.609937444E0,3.876776695E-1,2.604234517E-1,-8.302873969E-1
2.611937177E0,4.011167288E-1,2.537039518E-1,-9.628452063E-1
2.613936910E0,4.041710496E-1,2.744733691E-1,-1.030040383E0
2.615936643E0,4.005058706E-1,2.909667492E-1,-1.140606880E0
2.617936376E0,3.907320201E-1,2.897450030E-1,-1.204747796E0
2.619936109E0,3.742386401E-1,2.695864141E-1,-1.335473061E0
2.621935909E0,3.748495281E-1,2.414866388E-1,-1.469252467E0
2.623935642E0,3.779038489E-1,2.243824154E-1,-1.537058473E0
2.625935375E0,3.943972290E-1,1.767349243E-1,-1.663507581E0
2.627935108E0,4.023384452E-1,1.523003131E-1,-1.727648497E0
2.629934841E0,4.328817129E-1,9.671157598E-2,-1.851043224E0
2.631934574E0,4.738096893E-1,6.861177087E-2,-1.959166408E0
2.633934307E0,4.982442856E-1,6.433571875E-2,-2.009257317E0
2.635934040E0,5.526113510E-1,7.349869609E-2,-2.082561255E0
2.637933840E0,5.807111263E-1,8.449427038E-2,-2.113104582E0
2.639933573E0,6.356889606E-1,1.168701276E-1,-2.150978088E0
2.641933306E0,6.845581532E-1,1.358069479E-1,-2.161973715E0
2.643933039E0,7.157123685E-1,1.327526271E-1,-2.174801826E0
2.645932739E0,7.835183740E-1,1.217570528E-1,-2.190073490E0
2.647932472E0,8.195593953E-1,1.125940681E-1,-2.198625565E0
2.649932205E0,8.806459308E-1,1.058745533E-1,-2.232834101E0
2.651932005E0,9.111891985E-1,1.242005080E-1,-2.264599085E0
2.653931805E0,9.087457061E-1,1.565763652E-1,-2.270707846E0
2.655931538E0,8.702612519E-1,3.031840324E-1,-2.188851833E0
2.657931271E0,8.409397006E-1,3.795421720E-1,-2.121656418E0
2.659931004E0,7.902378440E-1,4.705610871E-1,-1.957944751E0
2.661930737E0,7.474772930E-1,4.656741917E-1,-1.797287107E0
2.663930470E0,7.352600098E-1,4.394069910E-1,-1.716042042E0
2.665930203E0,7.175449133E-1,3.343381584E-1,-1.606697202E0
2.667930003E0,7.242644429E-1,2.744733691E-1,-1.565769196E0
2.669929736E0,7.364817262E-1,1.657393426E-1,-1.480248094E0
2.671929469E0,7.450338602E-1,6.067052484E-2,-1.402668238E0
2.673929202E0,7.432012558E-1,3.249192145E-3,-1.359907627E0
2.675928935E0,7.468664646E-1,-1.109826043E-1,-1.282327771E0
2.677928668E0,7.523642778E-1,-1.726799905E-1,-1.238956332E0
2.679928401E0,7.767988443E-1,-2.777488232E-1,-1.158321977E0
2.681928134E0,8.012334704E-1,-4.029761851E-1,-1.097846389E0
2.683927934E0,8.165050745E-1,-4.610083997E-1,-1.072800875E0
2.685927667E0,8.244463205E-1,-5.624120235E-1,-1.022709966E0
2.687927400E0,8.262789249E-1,-6.008965373E-1,-1.003773093E0
2.689927133E0,8.329984546E-1,-6.870285869E-1,-1.001940608E0
2.691926866E0,8.488809466E-1,-7.511693835E-1,-1.013546944E0
2.693926599E0,8.586547971E-1,-7.798800468E-1,-1.017823100E0
2.695926332E0,8.855328560E-1,-8.348578811E-1,-1.037981510E0
2.697926065E0,8.971393108E-1,-8.611251116E-1,-1.048977137E0
2.699925865E0,9.197413325E-1,-8.983879685E-1,-1.072190046E0
2.701925631E0,9.264608026E-1,-9.044966102E-1,-1.102122426E0
2.703925397E0,9.289042950E-1,-9.106052518E-1,-1.116172314E0
2.705925230E0,9.234064817E-1,-9.063291550E-1,-1.144272208E0
2.707924996E0,9.203521609E-1,-9.167138934E-1,-1.149769902E0
2.709924762E0,9.142435193E-1,-9.368724227E-1,-1.152824163E0
2.711924528E0,9.050805569E-1,-9.661939740E-1,-1.151602507E0
2.713924294E0,9.026370645E-1,-9.863525033E-1,-1.144272208E0
2.715924127E0,9.008045197E-1,-1.019950032E0,-1.136330962E0
2.717923893E0,8.995827436E-1,-1.045606494E0,-1.122280955E0
2.719923659E0,9.160761237E-1,-1.077982306E0,-1.098457217E0
2.721923425E0,9.405107498E-1,-1.118299484E0,-1.079520464E0
2.723923191E0,9.570040703E-1,-1.126240611E0,-1.075855255E0
2.725922957E0,9.844930172E-1,-1.151286125E0,-1.073411703E0
2.727922723E0,1.004651666E0,-1.160449147E0,-1.077077031E0
2.729922556E0,1.039470911E0,-1.162892580E0,-1.083185673E0
2.731922389E0,1.074901104E0,-1.159227371E0,-1.084407330E0
2.733922155E0,1.095059633E0,-1.153729558E0,-1.084407330E0
2.735921921E0,1.131100655E0,-1.143344879E0,-1.081353068E0
2.737921687E0,1.145150661E0,-1.139068842E0,-1.077077031E0
2.739921453E0,1.171417832E0,-1.134181857E0,-1.067303061E0
2.741921219E0,1.179358959E0,-1.120742798E0,-1.059972763E0
2.743920985E0,1.177526474E0,-1.112190843E0,-1.059972763E0
2.745920818E0,1.169585228E0,-1.081036568E0,-1.052031517E0
2.747920584E0,1.162865758E0,-1.060878038E0,-1.047755480E0
2.749920350E0,1.139652848E0,-9.991806746E-1,-1.036149025E0
2.751920116E0,1.109109521E0,-9.448136687E-1,-1.016601324E0
2.753919882E0,1.087729216E0,-9.270985723E-1,-1.000718832E0
2.755919648E0,1.032751322E0,-9.032748342E-1,-9.591799974E-1
2.757919414E0,1.007094979E0,-8.953335285E-1,-9.408540726E-1
2.759919180E0,9.502846003E-1,-8.818945289E-1,-8.938174248E-1
2.761918980E0,8.916415572E-1,-8.757858872E-1,-8.473916650E-1
2.763918713E0,8.684286475E-1,-8.745641708E-1,-8.260113597E-1
2.765918346E0,8.207811117E-1,-8.647903204E-1,-7.856943011E-1
2.767918079E0,8.000116944E-1,-8.507404327E-1,-7.710335255E-1
2.769917812E0,7.578619719E-1,-8.189753890E-1,-7.429336905E-1
2.771917545E0,7.181557417E-1,-7.920973301E-1,-7.184990644E-1
2.773917278E0,6.998298168E-1,-7.835452557E-1,-7.056708932E-1
2.775917011E0,6.656213999E-1,-7.725496888E-1,-6.836797595E-1
2.777916811E0,6.454628110E-1,-7.884321809E-1,-6.702407002E-1
2.779916544E0,6.045348644E-1,-8.134776354E-1,-6.519147754E-1
2.781916277E0,5.623851418E-1,-8.507404327E-1,-6.305344701E-1
2.783916010E0,5.422266126E-1,-8.654012084E-1,-6.225932837E-1
2.785915743E0,5.074073076E-1,-8.904466629E-1,-6.067107320E-1
2.787915476E0,4.872487187E-1,-8.953335285E-1,-5.987695456E-1
2.789915209E0,4.481533468E-1,-9.020531178E-1,-5.908282399E-1
2.791914942E0,4.084471166E-1,-9.380941987E-1,-5.804435611E-1
2.793914742E0,3.895102739E-1,-9.973480701E-1,-5.712805986E-1
2.795914475E0,3.381975889E-1,-1.028502226E0,-5.596741438E-1
2.797914208E0,2.960479259E-1,-1.030945659E0,-5.541763306E-1
2.799913941E0,2.789436579E-1,-9.991806746E-1,-5.480676889E-1
2.801913674E0,2.435134947E-1,-9.356507063E-1,-5.395155549E-1
2.803913407E0,2.300744504E-1,-9.008313417E-1,-5.352395177E-1
2.805913140E0,1.976985931E-1,-8.330253363E-1,-5.315743685E-1
2.807912940E0,1.659336090E-1,-7.792691588E-1,-5.370720625E-1
2.809912740E0,1.476076543E-1,-7.597215176E-1,-5.437916517E-1
2.811912473E0,1.042362154E-1,-7.175717950E-1,-5.547872186E-1
2.813912206E0,8.529939502E-2,-7.065762281E-1,-5.566198230E-1
2.815911939E0,4.498228431E-2,-6.803089976E-1,-5.694479942E-1
2.817911672E0,2.221716801E-3,-6.509875059E-1,-5.767783523E-1
2.819911405E0,-1.976943202E-2,-6.326615214E-1,-5.822761059E-1
2.821911138E0,-5.092355981E-2,-6.070051789E-1,-5.944934487E-1
2.823910938E0,-6.619518995E-2,-5.941770077E-1,-6.030455232E-1
2.825910771E0,-9.124066681E-2,-5.660772324E-1,-6.225932837E-1
2.827910504E0,-1.187295988E-1,-5.587468147E-1,-6.396974325E-1
2.829910237E0,-1.266708523E-1,-5.477513075E-1,-6.500821710E-1
2.831909970E0,-1.529380530E-1,-5.159862638E-1,-6.702407002E-1
2.833909703E0,-1.663770974E-1,-5.117102265E-1,-6.830689311E-1
2.835909436E0,-1.895899624E-1,-4.952168465E-1,-7.203316689E-1
2.837909169E0,-2.097485214E-1,-4.964385629E-1,-7.502641082E-1
2.839908969E0,-2.225766927E-1,-4.976603091E-1,-7.704225779E-1
2.841908702E0,-2.439569682E-1,-5.031580925E-1,-8.089071512E-1
2.843908435E0,-2.561742961E-1,-5.062124133E-1,-8.327308893E-1
2.845908168E0,-2.763328254E-1,-5.251492262E-1,-8.681610823E-1
2.847907901E0,-2.977131009E-1,-5.269818306E-1,-8.901522160E-1
2.849907634E0,-3.117630184E-1,-5.318687558E-1,-8.864870667E-1
2.851907367E0,-3.313106894E-1,-5.306470394E-1,-8.767132163E-1
2.853907100E0,-3.435280025E-1,-5.165970922E-1,-8.803783655E-1
2.855906900E0,-3.691843450E-1,-4.811669588E-1,-8.870978951E-1
2.857906633E0,-3.905646503E-1,-3.944240808E-1,-8.987043500E-1
2.859906366E0,-4.015602171E-1,-3.376136124E-1,-9.066455960E-1
2.861906099E0,-4.308817387E-1,-2.728618979E-1,-9.219172597E-1
2.863905832E0,-4.424881935E-1,-2.545359433E-1,-9.176411629E-1
2.865905565E0,-4.614250064E-1,-2.325447947E-1,-9.213063121E-1
2.867905298E0,-4.748640358E-1,-1.952820122E-1,-9.329127669E-1
2.869905031E0,-4.742531776E-1,-1.800103784E-1,-9.377997518E-1
2.871904831E0,-4.705879688E-1,-1.268651038E-1,-9.549039602E-1
2.873904564E0,-4.718097150E-1,-9.571097791E-2,-9.701756239E-1
2.875904297E0,-4.620358646E-1,-3.951137513E-2,-9.939993024E-1
2.877904030E0,-4.510402977E-1,-2.248595003E-3,-1.017823100E0
2.879903763E0,-4.424881935E-1,1.546649728E-2,-1.032483935E0
2.881903496E0,-4.339360595E-1,5.395100638E-2,-1.059972763E0
2.883903229E0,-4.308817387E-1,7.655302435E-2,-1.074633598E0
2.885902962E0,-4.235513508E-1,1.235896423E-1,-1.100289941E0
2.887902762E0,-4.088906050E-1,1.419156045E-1,-1.118615866E0
2.889902495E0,-3.991167545E-1,1.461916715E-1,-1.123502851E0
2.891902228E0,-3.759038746E-1,1.413047314E-1,-1.132054806E0
2.893901961E0,-3.649083078E-1,1.339743435E-1,-1.133276582E0
2.895901694E0,-3.416953981E-1,1.174809933E-1,-1.129000545E0
2.897901427E0,-3.203151226E-1,1.028202251E-1,-1.124724507E0
2.899901160E0,-3.154282272E-1,1.052636877E-1,-1.124113679E0
2.901900960E0,-3.038217723E-1,9.915503860E-2,-1.118615866E0
2.903900760E0,-3.007674515E-1,1.022093594E-1,-1.119837523E0
2.905900493E0,-3.166499436E-1,1.394721419E-1,-1.149159074E0
2.907900226E0,-3.429171443E-1,1.804001182E-1,-1.182145715E0
2.909899959E0,-3.533018529E-1,1.950608790E-1,-1.199860930E0
2.911899692E0,-3.722386658E-1,2.066673189E-1,-1.237123609E0
2.913899425E0,-3.838451207E-1,2.359888405E-1,-1.259114861E0
2.915899158E0,-4.131666422E-1,2.720299065E-1,-1.300042868E0
2.917898958E0,-4.345469475E-1,3.037948906E-1,-1.323255777E0
2.919898691E0,-4.443207681E-1,3.270077705E-1,-1.330586076E0
2.921898424E0,-4.736422896E-1,3.819856644E-1,-1.350744605E0
2.923898157E0,-4.883030653E-1,4.278005362E-1,-1.361129284E0
2.925897890E0,-5.127376914E-1,4.907196760E-1,-1.377011895E0
2.927897623E0,-5.341179967E-1,5.530278683E-1,-1.402057290E0
2.929897356E0,-5.335071087E-1,5.872364044E-1,-1.399613857E0
2.931897089E0,-5.225115418E-1,6.251099706E-1,-1.358074903E0
2.933896889E0,-5.200680494E-1,6.416034102E-1,-1.327531695E0
2.935896622E0,-5.145702362E-1,6.379381418E-1,-1.268277884E0
2.937896355E0,-5.102941990E-1,6.000645161E-1,-1.199860930E0
2.939896088E0,-5.084616542E-1,5.890689492E-1,-1.172982812E0
2.941895821E0,-5.066290498E-1,5.487518311E-1,-1.118005037E0
2.943895554E0,-4.974660575E-1,5.023261309E-1,-1.122891903E0
2.945895254E0,-4.718097150E-1,4.320766032E-1,-1.168706775E0
2.947894987E0,-4.589815438E-1,3.386141956E-1,-1.260947347E0
2.949894787E0,-4.571489692E-1,3.190665245E-1,-1.337305546E0
2.951894520E0,-4.400447011E-1,2.763059735E-1,-1.443596244E0
2.953894253E0,-4.424881935E-1,2.695864141E-1,-1.489410996E0
2.955893986E0,-4.455425143E-1,2.726407647E-1,-1.526062965E0
2.957893719E0,-4.504294395E-1,3.031840324E-1,-1.506515265E0
2.959893452E0,-4.547054768E-1,3.380033672E-1,-1.486356735E0
2.961893185E0,-4.699771106E-1,4.021441936E-1,-1.431378841E0
2.963892918E0,-4.858596325E-1,4.449047446E-1,-1.395337820E0
2.965892718E0,-5.102941990E-1,5.347019434E-1,-1.317757964E0
2.967892451E0,-5.457244515E-1,6.642053723E-1,-1.249340892E0
2.969892217E0,-5.719916224E-1,7.344548702E-1,-1.222462893E0
2.971891950E0,-6.074218154E-1,8.731212616E-1,-1.188254476E0
2.973891683E0,-6.116978526E-1,9.329860806E-1,-1.179702401E0
2.975891416E0,-6.190282702E-1,1.021561623E0,-1.166263342E0
2.977891149E0,-5.897067189E-1,1.072263479E0,-1.130222321E0
2.979890949E0,-5.719916224E-1,1.113802195E0,-1.114339709E0
2.981890749E0,-5.304527879E-1,1.210318923E0,-1.081353068E0
2.983890482E0,-5.133485794E-1,1.251857758E0,-1.056307673E0
2.985890215E0,-4.760857821E-1,1.330048442E0,-1.016601324E0
2.987889948E0,-4.748640358E-1,1.371587276E0,-9.976645112E-1
2.989889681E0,-4.760857821E-1,1.384415507E0,-1.000108004E0
2.991889414E0,-4.919682741E-1,1.377085090E0,-1.020266533E0
2.993889147E0,-4.999095201E-1,1.385637164E0,-1.045312047E0
2.995888947E0,-5.164029002E-1,1.406406641E0,-1.111896396E0
2.997888680E0,-5.390048623E-1,1.475434422E0,-1.191308856E0
2.999888413E0,-5.383940339E-1,1.502312541E0,-1.236512780E0
3.001888146E0,-5.628286004E-1,1.583557606E0,-1.332418680E0
3.003887879E0,-5.658829212E-1,1.617155194E0,-1.377011895E0
3.005887645E0,-5.854306817E-1,1.715504527E0,-1.477804542E0
3.007887378E0,-6.074218154E-1,1.869442463E0,-1.579819083E0
3.009887111E0,-6.086435318E-1,1.928696394E0,-1.606697202E0
3.011886911E0,-6.074218154E-1,2.031321764E0,-1.622579694E0
3.013886644E0,-5.878740549E-1,2.069195509E0,-1.619525313E0
3.015886377E0,-5.622177720E-1,2.106458187E0,-1.584095120E0
3.017886110E0,-5.286201835E-1,2.107679844E0,-1.515678167E0
3.019885843E0,-5.335071087E-1,2.099738836E0,-1.479637265E0
3.021885576E0,-5.078507662E-1,2.047815084E0,-1.385563970E0
3.023885309E0,-4.986877739E-1,2.004443645E0,-1.335473061E0
3.025885042E0,-4.534837604E-1,1.904261827E0,-1.213910818E0
3.027884842E0,-4.088906050E-1,1.780256271E0,-1.086239934E0
3.029884542E0,-3.844559789E-1,1.703898072E0,-1.028207779E0
3.031884275E0,-3.380302191E-1,1.545073152E0,-9.200845957E-1
3.033884008E0,-3.154282272E-1,1.461995363E0,-8.706045747E-1
3.035883741E0,-2.525090873E-1,1.210318923E0,-7.148339152E-1
3.037883474E0,-1.706531495E-1,8.987776637E-1,-5.065288544E-1
3.039883207E0,-1.364446878E-1,7.601112127E-1,-4.155099094E-1
3.041882940E0,-1.016253754E-1,5.218737721E-1,-2.860065103E-1
3.043882740E0,-1.004036441E-1,4.284113944E-1,-2.487437129E-1
3.045882473E0,-1.144535467E-1,2.897450030E-1,-2.243091166E-1
3.047882206E0,-1.456076652E-1,2.176628858E-1,-2.566849589E-1
3.049881939E0,-1.627119035E-1,1.950608790E-1,-2.866173685E-1
3.051881672E0,-1.981420964E-1,1.553546488E-1,-3.562560081E-1
3.053881405E0,-2.079159170E-1,1.394721419E-1,-3.886318803E-1
3.055881138E0,-2.207440883E-1,1.217570528E-1,-4.564378858E-1
3.057880938E0,-2.225766927E-1,1.180918589E-1,-5.193569660E-1
3.059880738E0,-2.237984240E-1,1.260330975E-1,-5.492894053E-1
3.061880471E0,-2.219658345E-1,1.419156045E-1,-6.109868288E-1
3.063880204E0,-2.231875658E-1,1.510785818E-1,-6.421409249E-1
3.065880137E0,-2.292962074E-1,1.632958800E-1,-7.099469900E-1
3.067879870E0,-2.347939909E-1,1.938391477E-1,-7.820290327E-1
3.069879603E0,-2.384591848E-1,2.054455876E-1,-8.156266212E-1
3.071879336E0,-2.506765127E-1,2.347671241E-1,-8.736588955E-1
3.073879136E0,-2.622829378E-1,2.469844222E-1,-9.029803872E-1
3.075878936E0,-2.873283923E-1,2.598125935E-1,-9.567365050E-1
3.077878669E0,-3.172608018E-1,2.781385481E-1,-1.004994869E0
3.079878402E0,-3.270346522E-1,2.934101820E-1,-1.030040383E0
3.081878135E0,-3.502475321E-1,3.239534497E-1,-1.076466084E0
3.083877868E0,-3.612430990E-1,3.373924792E-1,-1.099068165E0
3.085877601E0,-3.795690536E-1,3.648813963E-1,-1.143050432E0
3.087877334E0,-4.009493291E-1,3.838182390E-1,-1.187643528E0
3.089877134E0,-4.088906050E-1,3.887051642E-1,-1.208413005E0
3.091876867E0,-4.259948134E-1,4.015333354E-1,-1.253006220E0
3.093876600E0,-4.363795221E-1,4.064202607E-1,-1.278051615E0
3.095876333E0,-4.565380812E-1,4.186375737E-1,-1.316536188E0
3.097876066E0,-4.785292447E-1,4.235244691E-1,-1.339748979E0
3.099875799E0,-4.852487445E-1,4.253570735E-1,-1.353798985E0
3.101875532E0,-5.041855574E-1,4.320766032E-1,-1.386174798E0
3.103875265E0,-5.145702362E-1,4.320766032E-1,-1.401446462E0
3.105875065E0,-5.249550343E-1,4.369635284E-1,-1.418550611E0
3.107874831E0,-5.365614295E-1,4.192484021E-1,-1.420383334E0
3.109874597E0,-5.402266383E-1,3.966464102E-1,-1.413052797E0
3.111874363E0,-5.432809591E-1,3.520532548E-1,-1.403279066E0
3.113874129E0,-5.469461679E-1,3.282294869E-1,-1.402057290E0
3.115873895E0,-5.561091304E-1,3.037948906E-1,-1.390450835E0
3.117873661E0,-5.646612644E-1,2.732516229E-1,-1.374568343E0
3.119873427E0,-5.689373016E-1,2.616451979E-1,-1.378233552E0
3.121873260E0,-5.890958309E-1,2.524822056E-1,-1.397170424E0
3.123873026E0,-5.964261889E-1,2.475952953E-1,-1.409387708E0
3.125872559E0,-6.055891514E-1,2.537039518E-1,-1.428324461E0
3.127872325E0,-6.104761362E-1,2.555365562E-1,-1.437487483E0
3.129872091E0,-6.074218154E-1,2.530930638E-1,-1.443596244E0
3.131871857E0,-6.080326438E-1,2.561474144E-1,-1.460700274E0
3.133871623E0,-6.037566066E-1,2.494278848E-1,-1.460700274E0
3.135871389E0,-5.952044725E-1,2.408757806E-1,-1.471695900E0
3.137871222E0,-5.860415101E-1,2.439301014E-1,-1.461311221E0
3.139870988E0,-5.799328685E-1,2.500387430E-1,-1.455202579E0
3.141870754E0,-5.732133389E-1,2.518713474E-1,-1.449093819E0
3.143870520E0,-5.683264136E-1,2.408757806E-1,-1.438098431E0
3.145870286E0,-5.622177720E-1,2.152194381E-1,-1.441763520E0
3.147870052E0,-5.518330932E-1,1.858979017E-1,-1.428935409E0
3.149869818E0,-5.463352799E-1,1.718480140E-1,-1.416107178E0
3.151869651E0,-5.445026755E-1,1.309200227E-1,-1.379455328E0
3.153869484E0,-5.408374667E-1,1.009876356E-1,-1.360518456E0
3.155869250E0,-5.542765260E-1,4.295543209E-2,-1.335473061E0
3.157869016E0,-5.518330932E-1,-2.851580083E-2,-1.321423054E0
3.159868782E0,-5.561091304E-1,-6.822203845E-2,-1.318979621E0
3.161868548E0,-5.445026755E-1,-1.476345211E-1,-1.312870979E0
3.163868314E0,-5.402266383E-1,-1.800103784E-1,-1.300042868E0
3.165868080E0,-5.206789374E-1,-2.368208468E-1,-1.279273391E0
3.167867880E0,-5.047964454E-1,-2.783596814E-1,-1.258503914E0
3.169867613E0,-4.938008785E-1,-3.070703447E-1,-1.258503914E0
3.171867346E0,-4.602032900E-1,-3.791524768E-1,-1.250562787E0
3.173867079E0,-4.314926267E-1,-4.200804234E-1,-1.240788817E0
3.175866812E0,-3.746821284E-1,-4.939951301E-1,-1.240177989E0
3.177866545E0,-3.190934062E-1,-5.343121886E-1,-1.227960706E0
3.179866278E0,-2.891609967E-1,-5.391991735E-1,-1.215743423E0
3.181866011E0,-2.079159170E-1,-5.563033223E-1,-1.187032700E0
3.183865811E0,-1.810378581E-1,-5.422534943E-1,-1.174204588E0
3.185865577E0,-1.120100841E-1,-5.092667341E-1,-1.138163567E0
3.187865310E0,-5.642134324E-2,-4.695605040E-1,-1.107009411E0
3.189865043E0,-4.298231006E-2,-4.555106163E-1,-1.090515971E0
3.191864776E0,1.993680932E-2,-4.707822204E-1,-1.058140159E0
3.193864509E0,5.475612730E-2,-4.573431909E-1,-1.044701219E0
3.195864242E0,8.407765627E-2,-4.084739685E-1,-1.036149025E0
3.197863975E0,9.629496932E-2,-3.473874629E-1,-1.044701219E0
3.199863775E0,1.219513044E-1,-3.174550533E-1,-1.046533704E0
3.201863508E0,1.708205193E-1,-2.869118154E-1,-1.048366308E0
3.203863241E0,2.080833018E-1,-2.893552482E-1,-1.050809860E0
3.205862974E0,2.044181079E-1,-2.417077571E-1,-1.054474950E0
3.207862707E0,3.320889473E-1,-3.205094039E-1,-1.023320913E0
3.209862440E0,3.278129101E-1,-3.308941126E-1,-1.014768720E0
3.211862206E0,3.943972290E-1,-3.785415888E-1,-9.738407731E-1
3.213861939E0,4.426555336E-1,-4.225238860E-1,-9.542930722E-1
3.215861739E0,4.542619884E-1,-4.603975117E-1,-9.200845957E-1
3.217861472E0,5.526113510E-1,-5.324796438E-1,-8.626632690E-1
3.219861205E0,5.953719020E-1,-5.618011355E-1,-8.339526653E-1
3.221860938E0,5.880414844E-1,-5.563033223E-1,-8.046311140E-1
3.223860671E0,6.491280198E-1,-5.960096717E-1,-7.722552419E-1
3.225860404E0,6.821147203E-1,-6.241094470E-1,-7.337707281E-1
3.227860137E0,7.047167420E-1,-6.632047892E-1,-6.983405352E-1
3.229859937E0,7.175449133E-1,-6.839742064E-1,-6.836797595E-1
3.231859737E0,6.833364964E-1,-6.894719601E-1,-6.800146103E-1
3.233859470E0,6.998298168E-1,-7.114631534E-1,-6.794036627E-1
3.235859203E0,7.047167420E-1,-7.157391906E-1,-6.958971024E-1
3.237858936E0,7.267078757E-1,-7.493367791E-1,-7.246077061E-1
3.239858669E0,7.273187637E-1,-7.542237043E-1,-7.520966530E-1
3.241858402E0,7.731336951E-1,-7.817126513E-1,-7.838616967E-1
3.243858135E0,8.299441338E-1,-8.024820685E-1,-7.911920547E-1
3.245857901E0,8.800351024E-1,-8.299710155E-1,-8.302873969E-1
3.247857634E0,9.203521609E-1,-8.464643359E-1,-8.681610823E-1
3.249857367E0,9.026370645E-1,-8.495186567E-1,-8.962608576E-1
3.251857100E0,9.350129366E-1,-8.592925668E-1,-9.439083934E-1
3.253856833E0,9.533389211E-1,-8.550164700E-1,-9.671212435E-1
3.255856566E0,9.838821292E-1,-8.342470527E-1,-1.005605817E0
3.257856299E0,1.010149360E0,-7.847669721E-1,-1.027596951E0
3.259856032E0,1.011981964E0,-7.621649504E-1,-1.036759853E0
3.261855832E0,1.004651666E0,-7.126848698E-1,-1.053864121E0
3.263855565E0,9.997646213E-1,-6.943589449E-1,-1.050199032E0
3.265855298E0,9.820495844E-1,-6.393810511E-1,-1.016601324E0
3.267855031E0,9.588366747E-1,-5.844032168E-1,-9.860580564E-1
3.269854764E0,9.710540175E-1,-5.599685907E-1,-9.487952590E-1
3.271854464E0,9.557823539E-1,-4.988820553E-1,-8.675502539E-1
3.273854197E0,9.368455410E-1,-4.109174609E-1,-8.113505840E-1
3.275853930E0,9.380672574E-1,-2.936313152E-1,-6.616886258E-1
3.277853730E0,9.252390862E-1,-3.571613133E-1,-4.955332577E-1
3.279853463E0,9.056913853E-1,-3.913697600E-1,-4.277272224E-1
3.281853196E0,9.484519362E-1,-5.312578678E-1,-2.725674808E-1
3.283852929E0,9.802169800E-1,-6.461005807E-1,-1.858246028E-1
3.285852662E0,1.014425397E0,-8.922792077E-1,8.430551738E-3
3.287852395E0,9.588366747E-1,-1.125629783E0,2.002422363E-1
3.289852128E0,9.478411078E-1,-1.283233047E0,2.772112787E-1
3.291851861E0,7.786314487E-1,-1.386469245E0,3.382977843E-1
3.293851661E0,6.613453627E-1,-1.352871656E0,3.578454554E-1
3.295851394E0,4.060036242E-1,-1.186716318E0,3.437955678E-1
3.297851127E0,2.545090616E-1,-9.643613100E-1,2.265094519E-1
3.299850860E0,1.897573620E-1,-8.678446412E-1,1.513730139E-1
3.301850593E0,1.970877200E-1,-7.817126513E-1,3.164343163E-2
3.303850326E0,1.622684151E-1,-6.949697733E-1,-3.799520805E-2
3.305850126E0,2.593959868E-1,-5.911226869E-1,-1.412314326E-1
3.307849926E0,3.644648194E-1,-5.520273447E-1,-2.389698774E-1
3.309849726E0,3.925645947E-1,-5.269818306E-1,-2.908934355E-1
3.311849459E0,5.000768900E-1,-5.489729643E-1,-3.715276122E-1
3.313849192E0,5.513895750E-1,-5.685206652E-1,-4.045143425E-1
3.315848925E0,5.886523724E-1,-5.190405846E-1,-4.765964746E-1
3.317848658E0,6.051456928E-1,-4.610083997E-1,-4.900355041E-1
3.319848391E0,6.301911473E-1,-4.353520572E-1,-4.833159745E-1
3.321848124E0,6.393541694E-1,-2.997399569E-1,-4.442205727E-1
3.323847924E0,6.442410946E-1,-2.288796008E-1,-4.197859764E-1
3.325847724E0,6.308020353E-1,-1.219781786E-1,-3.623646498E-1
3.327847490E0,6.027022600E-1,-4.623089358E-2,-3.079976439E-1
3.329847256E0,5.929284096E-1,-1.202243939E-2,-2.835630476E-1
3.331847022E0,5.489460826E-1,4.234456643E-2,-2.316394895E-1
3.333846788E0,5.312310457E-1,6.677917391E-2,-2.041505575E-1
3.335846554E0,4.896921813E-1,1.015984938E-1,-1.497835517E-1
3.337846320E0,4.603706300E-1,8.877032250E-2,-7.281453162E-2
3.339846153E0,4.396012127E-1,7.899647951E-2,-4.104953259E-2
3.341846019E0,3.913428783E-1,6.189225242E-2,1.942612603E-2
3.343845885E0,3.662973940E-1,3.257072344E-2,4.874765873E-2
3.345845751E0,3.094869256E-1,-2.546147257E-2,1.092233211E-1
3.347845617E0,2.551199198E-1,-5.600473657E-2,1.470969617E-1
3.349845483E0,2.245766670E-1,-7.310896367E-2,1.611468643E-1
3.351845349E0,1.598249525E-1,-1.262542456E-1,1.923009902E-1
3.353845215E0,1.268382221E-1,-1.586301029E-1,2.045182884E-1
3.355845148E0,6.758429855E-2,-2.294904590E-1,2.344506979E-1
3.357845081E0,3.443447407E-3,-2.850791812E-1,2.539983690E-1
3.359845014E0,-2.587808482E-2,-3.040160239E-1,2.558309734E-1
3.361844947E0,-8.574288338E-2,-3.333375454E-1,2.491114438E-1
3.363844880E0,-1.187295988E-1,-3.308941126E-1,2.442245334E-1
3.365844946E0,-1.718748808E-1,-3.162333369E-1,2.411702126E-1
3.367844879E0,-2.256310135E-1,-2.887443900E-1,2.350615561E-1
3.369844812E0,-2.525090873E-1,-2.759162188E-1,2.338398248E-1
3.371844812E0,-2.964913845E-1,-2.478164285E-1,2.350615561E-1
3.373844778E0,-3.172608018E-1,-2.319339365E-1,2.344506979E-1
3.375844744E0,-3.551344573E-1,-2.074993104E-1,2.411702126E-1
3.377844710E0,-3.905646503E-1,-2.081101835E-1,2.717134655E-1
3.379844676E0,-4.052253962E-1,-2.117753774E-1,2.943154871E-1
3.381844642E0,-4.339360595E-1,-2.459838241E-1,3.395195007E-1
3.383844608E0,-4.461533725E-1,-2.600337267E-1,3.682301939E-1
3.385844574E0,-4.663119316E-1,-2.960747778E-1,4.170993865E-1
3.387844574E0,-4.821944237E-1,-3.296723664E-1,4.604708254E-1
3.389844540E0,-4.919682741E-1,-3.449440002E-1,4.818511009E-1
3.391844506E0,-5.011312366E-1,-3.651025295E-1,5.185030699E-1
3.393844472E0,-5.102941990E-1,-3.687677383E-1,5.319420695E-1
3.395844438E0,-5.237332582E-1,-3.773198426E-1,5.563766360E-1
3.397844404E0,-5.237332582E-1,-3.620482087E-1,5.795895457E-1
3.399844370E0,-5.170137286E-1,-3.333375454E-1,5.991372466E-1
3.401844303E0,-4.938008785E-1,-2.734727859E-1,6.156306267E-1
3.403844236E0,-4.766966105E-1,-2.453729510E-1,6.137980223E-1
3.405844136E0,-4.430990517E-1,-2.081101835E-1,6.034133434E-1
3.407844036E0,-3.856776953E-1,-1.726799905E-1,5.924177170E-1
3.409843936E0,-3.416953981E-1,-1.451910585E-1,5.899742246E-1
3.411843836E0,-2.433461100E-1,-9.265665710E-2,5.795895457E-1
3.413843736E0,-1.871465147E-1,-6.822203845E-2,5.771461129E-1
3.415843636E0,-6.130826846E-2,-4.867435619E-2,5.887525678E-1
3.417843536E0,8.346679807E-2,-3.951137513E-2,6.083002090E-1
3.419843436E0,1.543271691E-1,-4.989608377E-2,6.266261339E-1
3.421843336E0,2.948261797E-1,-8.349367231E-2,6.663324237E-1
3.423843236E0,3.644648194E-1,-9.204578400E-2,6.889344454E-1
3.425842969E0,5.263441205E-1,-1.005979031E-1,7.231428623E-1
3.427842869E0,6.491280198E-1,-1.238107756E-1,7.469666004E-1
3.429842769E0,7.169340849E-1,-1.409150064E-1,7.591839433E-1
3.431842669E0,8.501026630E-1,-1.549649090E-1,7.811751366E-1
3.433842602E0,9.172978401E-1,-1.519105881E-1,7.903380990E-1
3.435842468E0,1.020534039E0,-1.574083716E-1,8.074423075E-1
3.437842334E0,1.113385677E0,-1.555757821E-1,8.324878216E-1
3.439842200E0,1.135376692E0,-9.021318704E-2,7.964467406E-1
3.441842066E0,1.190965414E0,-8.105020970E-2,7.359710932E-1
3.443841932E0,1.230671763E0,-8.471540362E-2,6.980974078E-1
3.445841798E0,1.265491128E0,-8.410453796E-2,6.247935891E-1
3.447841664E0,1.289925694E0,-5.844819546E-2,5.545440912E-1
3.449841564E0,1.293590784E0,-2.973753214E-2,5.258334279E-1
3.451841397E0,1.278930068E0,6.372485310E-2,4.696338177E-1
3.453841230E0,1.257549763E0,1.272548437E-1,4.409231544E-1
3.455841063E0,1.191576242E0,2.298801988E-1,3.767822981E-1
3.457840896E0,1.091394424E0,2.701973021E-1,3.175283372E-1
3.459840729E0,1.032751322E0,2.646995187E-1,2.998132706E-1
3.461840562E0,8.904197812E-1,1.950608790E-1,2.576635778E-1
3.463840395E0,8.091746569E-1,1.303091645E-1,2.368941456E-1
3.465840261E0,6.546257734E-1,-1.080070902E-2,1.984096318E-1
3.467840061E0,4.970225394E-1,-1.378606707E-1,1.446534991E-1
3.469839861E0,4.224970043E-1,-1.861190349E-1,1.171645671E-1
3.471839661E0,2.691698372E-1,-2.478164285E-1,5.302371457E-2
3.473839461E0,1.940333992E-1,-2.606445849E-1,1.942612603E-2
3.475839261E0,5.231266841E-2,-2.636989057E-1,-3.005395830E-2
3.477839061E0,-6.497345865E-2,-2.337665260E-1,-5.571030080E-2
3.479838861E0,-1.113992184E-1,-2.105536461E-1,-6.731674075E-2
3.481838661E0,-1.810378581E-1,-1.806212515E-1,-7.770144939E-2
3.483838394E0,-2.109702677E-1,-1.604626924E-1,-8.503182977E-2
3.485839060E0,-2.109702677E-1,-1.604626924E-1,-8.503182977E-2
3.487838793E0,-2.671698630E-1,-1.115934774E-1,-8.014491200E-2
3.489838526E0,-2.726676464E-1,-9.204578400E-2,-7.709058374E-2
3.491838259E0,-2.769436836E-1,-5.966993049E-2,-7.098193467E-2
3.493837992E0,-2.714459300E-1,-4.500916228E-2,-7.220365852E-2
3.495837792E0,-2.604503334E-1,-1.935282163E-2,-9.419480711E-2
3.497837592E0,-2.464004308E-1,-2.859460190E-3,-1.345119178E-1
3.499837325E0,-2.347939909E-1,6.914383732E-3,-1.595573872E-1
3.501837058E0,-2.134137154E-1,8.746979758E-3,-2.133135349E-1
3.503836791E0,-1.999746859E-1,5.692653358E-3,-2.456893921E-1
3.505836524E0,-1.810378581E-1,7.525248919E-3,-3.031107187E-1
3.507836257E0,-1.614901721E-1,1.852082275E-2,-3.556451499E-1
3.509835990E0,-1.547706425E-1,2.157514915E-2,-3.696950376E-1
3.511835790E0,-1.358338296E-1,3.867937624E-2,-3.971839547E-1
3.513835523E0,-1.266708523E-1,5.517273769E-2,-4.045143425E-1
3.515835256E0,-1.016253754E-1,9.060291946E-2,-3.990165591E-1
3.517834989E0,-7.780162990E-2,1.290874332E-1,-3.867992461E-1
3.519834722E0,-6.375172734E-2,1.480242610E-1,-3.715276122E-1
3.521834455E0,-4.053884745E-2,1.791783720E-1,-3.397626281E-1
3.523834188E0,-3.443019837E-2,1.938391477E-1,-3.183823526E-1
3.525833921E0,-1.732597128E-2,2.133868337E-1,-2.621827424E-1
3.527833721E0,-5.719530862E-3,2.164411694E-1,-1.949875802E-1
3.529833454E0,9.999864269E-4,2.121651024E-1,-1.552813351E-1
3.531833187E0,7.719503716E-3,1.920065433E-1,-8.258837461E-2
3.533832920E0,1.321729086E-2,1.797892451E-1,-4.776905105E-2
3.535832653E0,1.749334671E-2,1.406938732E-1,2.125872299E-2
3.537832386E0,2.360200137E-2,9.243551642E-2,8.417784423E-2
3.539832119E0,2.421286516E-2,6.677917391E-2,1.110559180E-1
3.541831852E0,2.848892286E-2,1.057957578E-2,1.556490809E-1
3.543831652E0,3.581930697E-2,-1.080070902E-2,1.733641624E-1
3.545830452E0,5.658872053E-2,-2.546147257E-2,1.819162816E-1
3.547830185E0,7.796900719E-2,-1.629849710E-2,1.868032068E-1
3.549829918E0,9.201890230E-2,-5.913786590E-3,1.764184833E-1
3.551829651E0,1.219513044E-1,-1.026864513E-3,1.660337895E-1
3.553829384E0,1.402772665E-1,1.948660210E-4,1.611468643E-1
3.555829117E0,1.738748401E-1,-4.159992386E-4,1.483186930E-1
3.557828850E0,2.129702270E-1,3.249192145E-3,1.397665888E-1
3.559828650E0,2.300744504E-1,5.692653358E-3,1.361013949E-1
3.561828383E0,2.703915834E-1,2.340774611E-2,1.373231262E-1
3.563828116E0,2.881066501E-1,2.768380195E-2,1.409883052E-1
3.565827849E0,3.186498880E-1,5.639446899E-2,1.446534991E-1
3.567827582E0,3.522475064E-1,6.861177087E-2,1.538164765E-1
3.569827315E0,3.650756776E-1,7.533129305E-2,1.568707973E-1
3.571827048E0,3.888994157E-1,8.143994212E-2,1.593142748E-1
3.573826848E0,4.023384452E-1,8.632686734E-2,1.580925286E-1
3.575826648E0,4.243295789E-1,8.754859865E-2,1.489295512E-1
3.577826381E0,4.450990260E-1,7.716389000E-2,1.428209096E-1
3.579826114E0,4.579271972E-1,7.349869609E-2,1.330470592E-1
3.581825847E0,4.817509353E-1,5.272927880E-2,1.196080223E-1
3.583825580E0,4.927465320E-1,4.478802904E-2,1.104450449E-1
3.585825313E0,5.129050612E-1,2.401860990E-2,9.272995591E-2
3.587825046E0,5.361179113E-1,-1.026864513E-3,7.501485944E-2
3.589824846E0,5.458917618E-1,-1.629849710E-2,6.524102390E-2
3.591824579E0,5.599417090E-1,-3.890050948E-2,4.935852438E-2
3.593824312E0,5.654394627E-1,-5.600473657E-2,4.202814028E-2
3.595824045E0,5.739915967E-1,-7.738501579E-2,2.492391132E-2
3.597823778E0,5.764350295E-1,-1.018196344E-1,1.209574286E-2
3.599823511E0,5.758241415E-1,-1.085391492E-1,4.154494964E-3
3.601823244E0,5.715481043E-1,-1.256433725E-1,-1.539319288E-2
3.603822977E0,5.684937835E-1,-1.317520291E-1,-2.394530736E-2
3.605822777E0,5.471135378E-1,-1.427476108E-1,-4.715818912E-2
3.607822510E0,5.226789117E-1,-1.512997150E-1,-7.159279287E-2
3.609822243E0,5.080181360E-1,-1.592409611E-1,-8.381010592E-2
3.611821976E0,4.817509353E-1,-1.641278863E-1,-1.198511496E-1
3.613821709E0,4.683118761E-1,-1.592409611E-1,-1.339010447E-1
3.615821442E0,4.432664216E-1,-1.476345211E-1,-1.656660438E-1
3.617821175E0,4.237187505E-1,-1.195347235E-1,-1.998744905E-1
3.619820908E0,4.182209373E-1,-9.571097791E-2,-2.175895870E-1
3.621820708E0,4.060036242E-1,-5.111781135E-2,-2.499654591E-1
3.623820441E0,3.992841244E-1,-3.095926158E-2,-2.676805556E-1
3.625820174E0,3.852342367E-1,8.746979758E-3,-2.994455397E-1
3.627819907E0,3.656865358E-1,5.211841315E-2,-3.299888074E-1
3.629819640E0,3.589670062E-1,8.266167343E-2,-3.464821577E-1
3.631819373E0,3.369758725E-1,1.272548437E-1,-3.721385002E-1
3.633819106E0,3.278129101E-1,1.461916715E-1,-3.825231791E-1
3.635818839E0,3.107086718E-1,1.956717372E-1,-4.051252007E-1
3.637818639E0,2.929935753E-1,2.390431762E-1,-4.197859764E-1
3.639818372E0,2.874957919E-1,2.677538395E-1,-4.240620434E-1
3.641818105E0,2.716132700E-1,3.105143905E-1,-4.350576103E-1
3.643817838E0,2.679480910E-1,3.373924792E-1,-4.387228191E-1
3.645817571E0,2.569525242E-1,3.728226721E-1,-4.417771399E-1
3.647817304E0,2.355722338E-1,3.661031425E-1,-4.515509605E-1
3.649817037E0,2.257983983E-1,3.630488217E-1,-4.552161694E-1
3.651816837E0,2.209114730E-1,3.795421720E-1,-4.539944530E-1
3.653816637E0,2.160245478E-1,3.850399852E-1,-4.484966397E-1
3.655816370E0,2.172462791E-1,3.752661049E-1,-4.326141775E-1
3.657816103E0,2.154136747E-1,3.300620914E-1,-3.947405219E-1
3.659815836E0,2.129702270E-1,2.995188236E-1,-3.745819628E-1
3.661815569E0,2.025855035E-1,2.219389528E-1,-3.141062856E-1
3.663815302E0,2.038072497E-1,1.981151998E-1,-2.652370930E-1
3.665815002E0,2.080833018E-1,1.785675138E-1,-1.528378725E-1
3.667814802E0,2.221332043E-1,1.632958800E-1,-2.028011531E-2
3.669814535E0,2.331287861E-1,1.504677087E-1,4.569333419E-2
3.671814268E0,2.496221513E-1,1.571872383E-1,1.477078199E-1
3.673814001E0,2.624503076E-1,1.498568505E-1,2.008531094E-1
3.675813734E0,2.722241580E-1,9.854417294E-2,3.028675914E-1
3.677813467E0,2.667263746E-1,3.257072344E-2,3.804474771E-1
3.679813200E0,2.642829120E-1,-1.263330504E-2,4.195428491E-1
3.681812933E0,2.490112782E-1,-9.510011226E-2,4.720772803E-1
3.683812733E0,2.404591739E-1,-1.195347235E-1,4.891814888E-1
3.685812466E0,2.184680104E-1,-1.971146017E-1,5.215573907E-1
3.687812199E0,1.946442723E-1,-2.850791812E-1,5.411050320E-1
3.689811932E0,1.671553403E-1,-3.186767995E-1,5.514897704E-1
3.691811665E0,1.463859081E-1,-3.901480436E-1,5.759243965E-1
3.693811398E0,1.390555203E-1,-4.194695354E-1,5.814222097E-1
3.695811131E0,1.188969836E-1,-4.475693703E-1,6.015806794E-1
3.697810864E0,9.934929013E-2,-4.854429960E-1,6.327347755E-1
3.699810664E0,1.036253497E-1,-5.062124133E-1,6.443412304E-1
3.701810397E0,8.163420111E-2,-4.933842421E-1,6.559476852E-1
3.703810130E0,8.102332801E-2,-4.970494509E-1,6.644998193E-1
3.705809863E0,6.330824643E-2,-4.707822204E-1,6.779388189E-1
3.707809596E0,7.308208197E-2,-4.487910867E-1,6.864909530E-1
3.709809329E0,6.636256725E-2,-4.439041615E-1,6.779388189E-1
3.711809062E0,4.986920580E-2,-4.310759902E-1,6.638889909E-1
3.713808795E0,6.086478010E-2,-4.487910867E-1,6.693867445E-1
3.715808595E0,4.498228431E-2,-4.341303110E-1,6.516716480E-1
3.717808328E0,3.459757566E-2,-4.237456024E-1,6.516716480E-1
3.719808061E0,3.093238175E-2,-4.151934981E-1,6.467847228E-1
3.721807794E0,2.543459646E-2,-4.096957147E-1,6.351782680E-1
3.723807527E0,9.552099742E-3,-3.974784017E-1,6.339565516E-1
3.725807293E0,-1.121731848E-2,-3.938131928E-1,6.235718131E-1
3.727807026E0,-2.221289277E-2,-3.840393722E-1,5.973046422E-1
3.729806826E0,-3.076500632E-2,-3.834284842E-1,5.856981874E-1
3.731806626E0,-3.504106030E-2,-3.962566853E-1,5.704265833E-1
3.733806359E0,-5.275615677E-2,-3.938131928E-1,5.747026205E-1
3.735806092E0,-7.657990605E-2,-3.870936930E-1,5.649287701E-1
3.737805825E0,-9.185153246E-2,-3.883154392E-1,5.685939789E-1
3.739805558E0,-8.940806985E-2,-3.870936930E-1,5.759243965E-1
3.741805291E0,-1.040688306E-1,-3.541069627E-1,5.502679944E-1
3.743805024E0,-1.040688306E-1,-3.596047759E-1,5.343855023E-1
3.745804824E0,-1.107883528E-1,-3.602156341E-1,5.191138983E-1
3.747804624E0,-1.083448976E-1,-3.651025295E-1,4.867380261E-1
3.749804357E0,-9.796018153E-2,-3.461657465E-1,4.678012133E-1
3.751804090E0,-9.857104719E-2,-3.345592916E-1,4.152668118E-1
3.753803823E0,-7.902336121E-2,-3.351701796E-1,3.932756782E-1
3.755803556E0,-4.848009720E-2,-3.321158290E-1,3.651758432E-1
3.757803289E0,-4.603663459E-2,-3.431113958E-1,3.560128808E-1
3.759803022E0,-3.259760141E-2,-3.901480436E-1,3.602889478E-1
3.761802822E0,-2.282375842E-2,-4.011435807E-1,3.566237390E-1
3.763802588E0,-1.671510562E-2,-3.932023644E-1,3.608998060E-1
3.765802354E0,-6.330396514E-3,-3.919806182E-1,3.761714101E-1
3.767802120E0,3.891211818E-4,-3.614373505E-1,3.810583353E-1
3.769801886E0,-5.108666141E-3,-3.534961343E-1,3.737279773E-1
3.771801652E0,1.443902217E-2,-3.467765749E-1,3.584563434E-1
3.773801418E0,1.504988689E-2,-3.394461870E-1,3.431846797E-1
3.775801184E0,2.604546212E-2,-3.412788212E-1,3.138631582E-1
3.777801017E0,2.421286516E-2,-3.192876577E-1,2.820981741E-1
3.779800783E0,3.887363151E-2,-3.211202323E-1,2.766003907E-1
3.781800549E0,4.803660884E-2,-3.272289038E-1,2.613287568E-1
3.783800315E0,7.124949247E-2,-3.577721417E-1,2.649939656E-1
3.785800081E0,7.247122377E-2,-3.644917011E-1,2.552201152E-1
3.787799847E0,7.002775371E-2,-3.706003428E-1,2.362832874E-1
3.789799613E0,6.880602986E-2,-3.779307306E-1,2.301746309E-1
3.791799379E0,8.285592496E-2,-3.956458271E-1,2.204007804E-1
3.793799212E0,9.507323802E-2,-4.060305059E-1,2.087943554E-1
3.795798978E0,9.262977540E-2,-4.072522521E-1,1.984096318E-1
3.797798744E0,1.091231406E-1,-4.597866535E-1,1.806945503E-1
3.799798510E0,1.207295731E-1,-4.933842421E-1,1.758076251E-1
3.801798276E0,1.421098560E-1,-5.483621359E-1,1.238840818E-1
3.803798042E0,1.512728482E-1,-5.813488960E-1,7.990178466E-2
3.805797808E0,1.469967812E-1,-5.917335749E-1,6.829534471E-2
3.807797574E0,1.396663934E-1,-5.966205001E-1,5.668890476E-2
3.809797407E0,1.408881247E-1,-6.082269549E-1,6.218669191E-2
3.811797173E0,1.347794831E-1,-6.173899174E-1,6.279756129E-2
3.813796939E0,1.152317896E-1,-5.850140452E-1,4.141727462E-2
3.815796705E0,1.127883196E-1,-5.819597244E-1,2.248045243E-2
3.817796471E0,9.324064106E-2,-6.002856493E-1,-8.673675358E-3
3.819796237E0,7.124949247E-2,-5.960096717E-1,-2.272357605E-2
3.821796003E0,1.566075161E-2,-5.508056283E-1,-3.249742091E-2
3.823795803E0,1.382815652E-2,-5.544707775E-1,-5.082337558E-2
3.825795603E0,-1.732597128E-2,-5.361448526E-1,-6.365154684E-2
3.827795336E0,-5.214529112E-2,-5.300362110E-1,-8.625356108E-2
3.829795069E0,-4.603663459E-2,-5.465295315E-1,-9.663826972E-2
3.831794802E0,-8.146681637E-2,-5.660772324E-1,-1.094664410E-1
3.833794535E0,-1.010145098E-1,-5.709640980E-1,-1.326793283E-1
3.835794268E0,-9.673845023E-2,-5.801271200E-1,-1.467292160E-1
3.837794001E0,-9.490585327E-2,-5.734075904E-1,-1.674986482E-1
3.839793801E0,-9.368412942E-2,-5.984530449E-1,-1.717746854E-1
3.841793534E0,-7.657990605E-2,-6.118921041E-1,-1.815485358E-1
3.843793267E0,-3.992798552E-2,-6.118921041E-1,-1.998744905E-1
3.845792967E0,-3.381933272E-2,-6.143355966E-1,-1.949875802E-1
3.847792700E0,-1.443474554E-3,-6.051726341E-1,-1.980419010E-1
3.849792433E0,-2.665204927E-3,-5.782945156E-1,-1.955984384E-1
3.851792166E0,1.871507801E-2,-5.630229115E-1,-1.815485358E-1
3.853791899E0,4.559314996E-2,-5.269818306E-1,-1.705529690E-1
3.855791699E0,4.925834015E-2,-4.946059883E-1,-1.656660438E-1
3.857791432E0,6.147564575E-2,-4.689496458E-1,-1.387879848E-1
3.859791165E0,6.697343290E-2,-4.445150495E-1,-1.418423057E-1
3.861790898E0,6.697343290E-2,-3.706003428E-1,-1.833811402E-1
3.863790631E0,7.613641024E-2,-2.856900692E-1,-2.627936006E-1
3.865790364E0,9.629496932E-2,-2.820248604E-1,-2.994455397E-1
3.867790097E0,1.647118628E-1,-2.508707345E-1,-3.495364785E-1
3.869789830E0,1.860921681E-1,-2.172731608E-1,-3.751928210E-1
3.871789630E0,2.422917634E-1,-1.549649090E-1,-3.947405219E-1
3.873789363E0,2.991022468E-1,-1.189238578E-1,-3.886318803E-1
3.875789096E0,3.143738806E-1,-1.103717387E-1,-3.831340671E-1
3.877788829E0,3.559126854E-1,-1.036522314E-1,-3.611429036E-1
3.879788562E0,3.711843193E-1,-1.018196344E-1,-3.519799411E-1
3.881788295E0,3.882885575E-1,-1.018196344E-1,-3.330431283E-1
3.883788028E0,3.925645947E-1,-1.103717387E-1,-2.957803309E-1
3.885787761E0,3.943972290E-1,-1.201455817E-1,-2.829521894E-1
3.887787561E0,3.717952073E-1,-1.311411560E-1,-2.621827424E-1
3.889787294E0,3.528583646E-1,-1.366389394E-1,-2.517980635E-1
3.891787027E0,3.210933805E-1,-1.537431777E-1,-2.438568026E-1
3.893786760E0,2.801654041E-1,-1.622952819E-1,-2.401916087E-1
3.895786493E0,2.502329946E-1,-1.867299080E-1,-2.450785190E-1
3.897786226E0,1.793726385E-1,-2.484272867E-1,-2.597392797E-1
3.899785959E0,1.518836915E-1,-2.600337267E-1,-2.658479214E-1
3.901785759E0,1.103448644E-1,-2.649206519E-1,-2.603501678E-1
3.903785559E0,8.468852192E-2,-2.606445849E-1,-2.389698774E-1
3.905785325E0,7.430382073E-2,-2.514816225E-1,-2.224765122E-1
3.907785058E0,5.964305252E-2,-2.472055554E-1,-1.870463192E-1
3.909784791E0,5.475612730E-2,-2.478164285E-1,-1.729964316E-1
3.911784524E0,3.093238175E-2,-2.417077571E-1,-1.442857683E-1
3.913784257E0,1.016296446E-2,-2.453729510E-1,-1.222946122E-1
3.915783990E0,-7.552126888E-3,-2.459838241E-1,-1.112990305E-1
3.917783790E0,-2.282375842E-2,-2.496490180E-1,-8.686442673E-2
3.919783523E0,-2.893241122E-2,-2.496490180E-1,-7.709058374E-2
3.921783256E0,-3.931711987E-2,-2.465946972E-1,-5.021251366E-2
3.923782989E0,-4.664750397E-2,-2.380425781E-1,-2.761049755E-2
3.925782722E0,-5.092355981E-2,-2.368208468E-1,-1.600405946E-2
3.927782455E0,-5.886480585E-2,-2.203274816E-1,7.208820898E-3
3.929782188E0,-5.642134324E-2,-2.221600860E-1,1.637179963E-2
3.931781921E0,-6.314086169E-2,-2.068884522E-1,3.347602487E-2
3.933781721E0,-6.558432430E-2,-1.928385496E-1,4.386073723E-2
3.935781454E0,-6.863865256E-2,-1.812321097E-1,4.752592742E-2
3.937781187E0,-7.291471213E-2,-1.763451844E-1,6.340842694E-2
3.939780920E0,-7.169298083E-2,-1.659604758E-1,6.463015825E-2
3.941780653E0,-7.413643599E-2,-1.586301029E-1,7.257140428E-2
3.943780386E0,-7.474730909E-2,-1.543540359E-1,8.234524727E-2
3.945780119E0,-7.535816729E-2,-1.500779837E-1,8.539957553E-2
3.947779852E0,-7.535816729E-2,-1.567974985E-1,9.150822461E-2
3.949779652E0,-7.108211517E-2,-1.537431777E-1,9.395167977E-2
3.951779385E0,-6.375172734E-2,-1.537431777E-1,9.944947064E-2
3.953779118E0,-5.581048131E-2,-1.732908636E-1,1.269384027E-1
3.955778851E0,-4.603663459E-2,-1.965037435E-1,1.532056183E-1
3.957778584E0,-2.771067992E-2,-2.362099886E-1,1.819162816E-1
3.959778317E0,-2.221289277E-2,-2.588120103E-1,1.806945503E-1
3.961778050E0,-3.276070347E-3,-3.003508449E-1,1.886357963E-1
3.963777783E0,-3.276070347E-3,-2.917987108E-1,1.501512975E-1
3.965777583E0,-4.497800954E-3,-2.710292935E-1,1.232732162E-1
3.967777316E0,-1.366078015E-2,-2.252144217E-1,8.234524727E-2
3.969777049E0,-1.854770072E-2,-1.873407662E-1,7.196053118E-2
3.971776782E0,-2.282375842E-2,-1.372498125E-1,7.073880732E-2
3.973776515E0,-2.099116333E-2,-1.091500074E-1,7.257140428E-2
3.975776248E0,-2.160202712E-2,-9.815444052E-2,6.707361341E-2
3.977775981E0,-2.404548787E-2,-1.164803952E-1,6.646275520E-2
3.979775781E0,-1.915856823E-2,-1.256433725E-1,6.279756129E-2
3.981775581E0,-2.099116333E-2,-1.427476108E-1,5.913236737E-2
3.983775314E0,-2.771067992E-2,-1.629061550E-1,5.302371457E-2
3.985775047E0,-2.893241122E-2,-1.806212515E-1,5.424544588E-2
3.987774780E0,-2.526721917E-2,-1.971146017E-1,5.058025196E-2
3.989774513E0,-2.709981613E-2,-2.062775940E-1,5.119112134E-2
3.991774246E0,-3.381933272E-2,-2.209383547E-1,4.691506177E-2
3.993773979E0,-4.237144440E-2,-2.276578695E-1,4.447159916E-2
3.995773779E0,-4.359317943E-2,-2.264361382E-1,4.080640897E-2
3.997773579E0,-4.909096658E-2,-2.380425781E-1,2.797823958E-2
