"Time (s)","Gyroscope x (rad/s)","Gyroscope y (rad/s)","Gyroscope z (rad/s)"
1.381069700E-2,-2.198351324E-1,-2.347249687E-1,1.916589774E-2
1.583669700E-2,-2.198351324E-1,-2.347249687E-1,1.916589774E-2
1.783669700E-2,-2.198351324E-1,-2.347249687E-1,1.916589774E-2
1.983669700E-2,-2.198351324E-1,-2.347249687E-1,1.916589774E-2
2.182803000E-2,-1.019381359E-1,-2.530509233E-1,-3.764457256E-2
2.382803000E-2,-9.644035250E-2,-2.493857294E-1,-3.947716579E-2
2.582803000E-2,-9.216429293E-2,-2.420553565E-1,-4.008803144E-2
2.782803000E-2,-8.788824081E-2,-2.396118939E-1,-4.130976275E-2
2.982803000E-2,-8.605564386E-2,-2.261728644E-1,-4.192062840E-2
3.182803000E-2,-8.544477820E-2,-2.121229619E-1,-4.130976275E-2
3.382803000E-2,-8.727737516E-2,-2.066251636E-1,-4.130976275E-2
3.582803000E-2,-8.972083032E-2,-1.913535446E-1,-4.069889709E-2
3.782803000E-2,-9.644035250E-2,-1.785253733E-1,-3.642284125E-2
3.982803000E-2,-9.827294946E-2,-1.748601794E-1,-3.703370690E-2
4.182803000E-2,-1.037707329E-1,-1.663080603E-1,-3.459024429E-2
4.382803000E-2,-1.117119789E-1,-1.583668143E-1,-3.153591976E-2
4.582803000E-2,-1.172097698E-1,-1.473712474E-1,-2.603813075E-2
4.782803000E-2,-1.196532324E-1,-1.443169117E-1,-2.787072770E-2
4.982808800E-2,-1.245401502E-1,-1.339322031E-1,-2.603813075E-2
5.182814300E-2,-1.269836128E-1,-1.119410545E-1,-2.909245715E-2
5.382819500E-2,-1.282053441E-1,-1.015563458E-1,-2.787072770E-2
5.582824500E-2,-1.300379336E-1,-8.750644326E-2,-2.725986205E-2
5.782829200E-2,-1.306488067E-1,-7.712173462E-2,-3.092505224E-2
5.982833700E-2,-1.330922693E-1,-7.590000331E-2,-3.153591976E-2
6.182725000E-2,-1.361465901E-1,-6.185010448E-2,-4.253149405E-2
6.382620800E-2,-1.361465901E-1,-6.185010448E-2,-4.253149405E-2
6.582620800E-2,-1.361465901E-1,-5.207626149E-2,-4.925100878E-2
6.782620800E-2,-1.367574632E-1,-4.474587739E-2,-5.230533704E-2
6.982620800E-2,-1.367574632E-1,-3.375030309E-2,-5.902485549E-2
7.182620800E-2,-1.373683214E-1,-2.458732575E-2,-6.574437022E-2
7.382620800E-2,-1.349248588E-1,-2.092213556E-2,-6.879869848E-2
7.582620800E-2,-1.355357319E-1,-1.298088674E-2,-7.246389240E-2
7.782620800E-2,-1.337031275E-1,-6.872233935E-3,-7.735081017E-2
7.982620800E-2,-1.330922693E-1,-5.650503561E-3,-7.735081017E-2
8.182710800E-2,-1.324813962E-1,-1.374446787E-3,-8.162686974E-2
8.382714100E-2,-1.324813962E-1,2.901609987E-3,-8.712465316E-2
8.582717400E-2,-1.306488067E-1,4.734205548E-3,-8.712465316E-2
8.782720700E-2,-1.330922693E-1,5.955935922E-3,-9.140071273E-2
8.982724000E-2,-1.306488067E-1,7.177666761E-3,-9.262244403E-2
9.182727300E-2,-1.288162023E-1,5.345070735E-3,-9.262244403E-2
9.382730600E-2,-1.288162023E-1,5.955935922E-3,-9.262244403E-2
9.582733900E-2,-1.294270754E-1,1.679879380E-3,-9.078984708E-2
9.782733900E-2,-1.288162023E-1,-1.527163113E-4,-9.017898142E-2
9.982733900E-2,-1.269836128E-1,-2.596177394E-3,-8.895725012E-2
1.018264720E-1,-1.172097698E-1,-2.764165215E-2,-7.490734756E-2
1.038256050E-1,-1.172097698E-1,-2.764165215E-2,-7.490734756E-2
1.058247380E-1,-1.172097698E-1,-2.764165215E-2,-7.490734756E-2
1.078248380E-1,-1.172097698E-1,-2.764165215E-2,-7.490734756E-2
1.098248040E-1,-1.147663072E-1,-3.741549700E-2,-7.246389240E-2
1.118247700E-1,-1.092685238E-1,-4.780020565E-2,-6.330090761E-2
1.138247360E-1,-1.080467924E-1,-5.146539584E-2,-6.024658307E-2
1.158247020E-1,-1.019381359E-1,-6.429356337E-2,-5.474879593E-2
1.178246680E-1,-9.399688989E-2,-7.467827946E-2,-4.619668424E-2
1.198246340E-1,-9.277515858E-2,-7.773260027E-2,-4.497495294E-2
1.218254670E-1,-8.483391255E-2,-8.933904022E-2,-3.825543448E-2
1.238263000E-1,-7.994698733E-2,-9.972374886E-2,-3.459024429E-2
1.258263000E-1,-7.689265907E-2,-1.027780771E-1,-3.153591976E-2
1.278263330E-1,-6.895141304E-2,-1.143845171E-1,-2.664899640E-2
1.298263660E-1,-6.162103266E-2,-1.235474944E-1,-2.542726509E-2
1.318263990E-1,-5.490151420E-2,-1.333213449E-1,-2.237293869E-2
1.338264320E-1,-5.001459271E-2,-1.351539344E-1,-2.176207490E-2
1.358264650E-1,-4.634939879E-2,-1.418734491E-1,-1.809688285E-2
1.378264980E-1,-4.024074972E-2,-1.473712474E-1,-1.687515154E-2
1.398265310E-1,-3.596469015E-2,-1.473712474E-1,-1.687515154E-2
1.418256640E-1,-2.435825206E-2,-1.595885456E-1,-1.626428775E-2
1.438247640E-1,-2.435825206E-2,-1.595885456E-1,-1.626428775E-2
1.458238640E-1,-2.435825206E-2,-1.595885456E-1,-1.626428775E-2
1.478231970E-1,-2.435825206E-2,-1.595885456E-1,-1.626428775E-2
1.498231630E-1,-2.496911772E-2,-1.589776874E-1,-1.565342210E-2
1.518231290E-1,-2.435825206E-2,-1.583668143E-1,-1.870774850E-2
1.538230950E-1,-2.619084716E-2,-1.565342247E-1,-1.809688285E-2
1.558230610E-1,-2.802344225E-2,-1.547016203E-1,-2.237293869E-2
1.578230610E-1,-2.924517356E-2,-1.516472995E-1,-2.481640130E-2
1.598230940E-1,-3.291036561E-2,-1.504255682E-1,-2.603813075E-2
1.618239940E-1,-3.535382450E-2,-1.473712474E-1,-2.787072770E-2
1.638248940E-1,-3.657555580E-2,-1.467603743E-1,-2.909245715E-2
1.658257940E-1,-3.779728711E-2,-1.455386430E-1,-2.848159149E-2
1.678257270E-1,-4.146247730E-2,-1.424843222E-1,-3.031418845E-2
1.698257600E-1,-4.451680556E-2,-1.394299865E-1,-3.153591976E-2
1.718257930E-1,-4.696026444E-2,-1.369865239E-1,-3.275764734E-2
1.738258260E-1,-4.573853686E-2,-1.327104717E-1,-3.214678168E-2
1.758258260E-1,-4.879286140E-2,-1.320996135E-1,-3.397937864E-2
1.778258260E-1,-5.062545836E-2,-1.290452778E-1,-3.214678168E-2
1.798258260E-1,-5.001459271E-2,-1.302670091E-1,-3.397937864E-2
1.818249590E-1,-5.673411116E-2,-1.168279797E-1,-3.214678168E-2
1.838240920E-1,-5.673411116E-2,-1.168279797E-1,-3.214678168E-2
1.858232250E-1,-5.673411116E-2,-1.168279797E-1,-3.214678168E-2
1.878223250E-1,-5.856670439E-2,-1.162171140E-1,-2.909245715E-2
1.898213910E-1,-5.856670439E-2,-1.162171140E-1,-2.909245715E-2
1.918213570E-1,-6.101016700E-2,-1.149953827E-1,-2.848159149E-2
1.938213230E-1,-6.223189831E-2,-1.168279797E-1,-2.787072770E-2
1.958212890E-1,-6.284276396E-2,-1.137736514E-1,-2.420553565E-2
1.978212550E-1,-6.284276396E-2,-1.143845171E-1,-2.176207490E-2
1.998212210E-1,-6.650795043E-2,-1.131627858E-1,-1.992947794E-2
2.018220540E-1,-6.467536092E-2,-1.125519201E-1,-1.809688285E-2
2.038229200E-1,-6.711881608E-2,-1.113301888E-1,-1.565342210E-2
2.058237860E-1,-6.834054738E-2,-1.107193232E-1,-1.137736533E-2
2.078244520E-1,-6.711881608E-2,-1.076650023E-1,-7.712173741E-3
2.098244850E-1,-6.834054738E-2,-1.027780771E-1,-9.926559869E-4
2.118245180E-1,-6.956227869E-2,-1.027780771E-1,2.290744742E-4
2.138245510E-1,-7.139487565E-2,-9.972374886E-2,3.894265974E-3
2.158245840E-1,-7.444920391E-2,-9.789115191E-2,1.000291854E-2
2.178246170E-1,-7.261660695E-2,-9.544769675E-2,1.611157134E-2
2.198246170E-1,-7.322747260E-2,-9.300423414E-2,1.794416644E-2
2.218237170E-1,-7.567093521E-2,-8.994990587E-2,2.283108793E-2
2.238236830E-1,-7.994698733E-2,-8.933904022E-2,2.893974073E-2
2.258236490E-1,-8.116871864E-2,-8.750644326E-2,3.382666409E-2
2.278236150E-1,-7.994698733E-2,-8.811730891E-2,3.504839167E-2
2.298236150E-1,-8.116871864E-2,-8.506298810E-2,3.932445124E-2
2.318236150E-1,-7.994698733E-2,-8.506298810E-2,4.054617882E-2
2.338236150E-1,-8.177958429E-2,-8.078692853E-2,4.360050708E-2
2.358236480E-1,-8.116871864E-2,-7.712173462E-2,4.604396969E-2
2.378236810E-1,-7.872525603E-2,-7.712173462E-2,4.787656292E-2
2.398237140E-1,-7.811439037E-2,-7.406741381E-2,4.970915988E-2
2.418246140E-1,-7.628180087E-2,-7.040221989E-2,5.093089119E-2
2.438255140E-1,-7.444920391E-2,-6.795875728E-2,5.154175684E-2
2.458264140E-1,-7.444920391E-2,-6.551529467E-2,5.154175684E-2
2.478273140E-1,-7.261660695E-2,-6.307183951E-2,5.276348442E-2
2.498282470E-1,-7.078400999E-2,-6.062837690E-2,5.215261877E-2
2.518282800E-1,-6.895141304E-2,-6.307183951E-2,5.154175684E-2
2.538282800E-1,-6.650795043E-2,-6.001751125E-2,5.032002553E-2
2.558282800E-1,-6.467536092E-2,-6.001751125E-2,4.970915988E-2
2.578282800E-1,-6.467536092E-2,-5.940664560E-2,4.787656292E-2
2.598282800E-1,-6.467536092E-2,-5.818491429E-2,4.726569727E-2
2.618274130E-1,-6.345362961E-2,-6.062837690E-2,4.298964143E-2
2.638265130E-1,-6.345362961E-2,-6.062837690E-2,4.298964143E-2
2.658265130E-1,-6.223189831E-2,-5.940664560E-2,4.176791012E-2
2.678264790E-1,-6.039930135E-2,-6.185010448E-2,3.993531689E-2
2.698264450E-1,-6.223189831E-2,-6.123924255E-2,3.810271993E-2
2.718264110E-1,-6.223189831E-2,-6.185010448E-2,3.932445124E-2
2.738263770E-1,-6.162103266E-2,-6.307183951E-2,3.504839167E-2
2.758263430E-1,-6.345362961E-2,-6.368270516E-2,3.321579844E-2
2.778263090E-1,-5.978843570E-2,-6.612616032E-2,3.077233583E-2
2.798262750E-1,-6.223189831E-2,-6.429356337E-2,3.199406713E-2
2.818271410E-1,-6.039930135E-2,-6.673702598E-2,3.321579844E-2
2.838271410E-1,-6.345362961E-2,-6.856962293E-2,3.077233583E-2
2.858271740E-1,-6.345362961E-2,-7.101308554E-2,3.138320148E-2
2.878272070E-1,-6.223189831E-2,-7.223481685E-2,3.199406713E-2
2.898272070E-1,-6.345362961E-2,-7.284568250E-2,2.893974073E-2
2.918272070E-1,-6.345362961E-2,-7.406741381E-2,3.138320148E-2
2.938272070E-1,-6.467536092E-2,-7.712173462E-2,2.893974073E-2
2.958272070E-1,-6.650795043E-2,-7.651086897E-2,2.955060638E-2
2.978272070E-1,-6.956227869E-2,-8.017606288E-2,2.832887508E-2
2.998271730E-1,-7.078400999E-2,-8.078692853E-2,2.710714564E-2
3.018262730E-1,-8.177958429E-2,-8.994990587E-2,1.977676153E-2
3.038253730E-1,-8.177958429E-2,-8.994990587E-2,1.977676153E-2
3.058244730E-1,-8.177958429E-2,-8.994990587E-2,1.977676153E-2
3.078235390E-1,-8.177958429E-2,-8.994990587E-2,1.977676153E-2
3.098235050E-1,-8.483391255E-2,-9.178250283E-2,1.488984004E-2
3.118234710E-1,-8.361218125E-2,-9.483683109E-2,1.305724494E-2
3.138234710E-1,-9.155342728E-2,-9.300423414E-2,1.122464892E-2
3.158235040E-1,-8.788824081E-2,-9.483683109E-2,8.781188168E-3
3.178235370E-1,-8.849909902E-2,-9.422596544E-2,6.337726954E-3
3.198235700E-1,-9.033169597E-2,-9.544769675E-2,2.672535367E-3
3.218244700E-1,-9.155342728E-2,-9.544769675E-2,-3.817907709E-4
3.238254030E-1,-9.155342728E-2,-9.544769675E-2,-2.214386594E-3
3.258254360E-1,-9.338602424E-2,-9.361509979E-2,-3.436116967E-3
3.278254690E-1,-9.155342728E-2,-9.178250283E-2,-6.490443368E-3
3.298255020E-1,-9.216429293E-2,-9.056077152E-2,-7.101308554E-3
3.318255020E-1,-9.094256163E-2,-9.117163718E-2,-1.015563495E-2
3.338255020E-1,-9.094256163E-2,-9.117163718E-2,-1.015563495E-2
3.358255020E-1,-9.216429293E-2,-8.994990587E-2,-1.320996135E-2
3.378255020E-1,-9.155342728E-2,-8.750644326E-2,-1.382082608E-2
3.398255020E-1,-9.155342728E-2,-9.056077152E-2,-1.504255645E-2
3.418246350E-1,-9.338602424E-2,-8.750644326E-2,-1.870774850E-2
3.438237680E-1,-9.338602424E-2,-8.750644326E-2,-1.870774850E-2
3.458228680E-1,-9.338602424E-2,-8.750644326E-2,-1.870774850E-2
3.478226010E-1,-9.277515858E-2,-8.200865984E-2,-1.809688285E-2
3.498225670E-1,-9.460775554E-2,-8.200865984E-2,-1.809688285E-2
3.518225330E-1,-9.338602424E-2,-8.200865984E-2,-1.748601720E-2
3.538224990E-1,-9.338602424E-2,-8.200865984E-2,-1.809688285E-2
3.558224650E-1,-9.216429293E-2,-7.773260027E-2,-1.931861416E-2
3.578224310E-1,-9.216429293E-2,-7.834346592E-2,-1.809688285E-2
3.598224310E-1,-9.277515858E-2,-7.345654815E-2,-1.992947794E-2
3.618232970E-1,-9.033169597E-2,-6.979135424E-2,-2.115120925E-2
3.638241970E-1,-8.849909902E-2,-6.490442902E-2,-2.420553565E-2
3.658250970E-1,-8.788824081E-2,-6.368270516E-2,-2.542726509E-2
3.678260300E-1,-8.483391255E-2,-5.818491429E-2,-2.359467000E-2
3.698260630E-1,-8.483391255E-2,-5.268712714E-2,-2.664899640E-2
3.718260960E-1,-8.300131559E-2,-5.085453019E-2,-2.664899640E-2
3.738261290E-1,-8.116871864E-2,-4.963280261E-2,-2.664899640E-2
3.758261290E-1,-7.750352472E-2,-4.291328415E-2,-2.664899640E-2
3.778260950E-1,-7.750352472E-2,-4.046982154E-2,-2.603813075E-2
3.798260610E-1,-7.322747260E-2,-3.680463135E-2,-2.848159149E-2
3.818251610E-1,-6.528622657E-2,-2.764165215E-2,-2.298380435E-2
3.838242610E-1,-6.528622657E-2,-2.764165215E-2,-2.298380435E-2
3.858233610E-1,-6.406449527E-2,-2.764165215E-2,-2.298380435E-2
3.878224610E-1,-6.406449527E-2,-2.764165215E-2,-2.298380435E-2
3.898215270E-1,-6.406449527E-2,-2.764165215E-2,-2.298380435E-2
3.918215270E-1,-6.589708477E-2,-2.764165215E-2,-2.237293869E-2
3.938215600E-1,-6.284276396E-2,-2.947424725E-2,-2.115120925E-2
3.958215930E-1,-6.406449527E-2,-3.069597855E-2,-1.870774850E-2
3.978216260E-1,-6.528622657E-2,-3.191770986E-2,-2.115120925E-2
3.998216590E-1,-6.528622657E-2,-3.741549700E-2,-1.992947794E-2
4.018225590E-1,-6.589708477E-2,-4.230241850E-2,-1.992947794E-2
4.038234590E-1,-6.956227869E-2,-4.657847434E-2,-2.054034360E-2
4.058243590E-1,-6.956227869E-2,-5.024366826E-2,-1.931861416E-2
4.078251590E-1,-7.200574130E-2,-5.818491429E-2,-2.115120925E-2
4.098251590E-1,-7.933612168E-2,-6.551529467E-2,-2.176207490E-2
4.118251590E-1,-8.055785298E-2,-7.040221989E-2,-2.298380435E-2
4.138251590E-1,-8.605564386E-2,-7.834346592E-2,-2.237293869E-2
4.158251590E-1,-9.277515858E-2,-8.811730891E-2,-2.420553565E-2
4.178251590E-1,-9.521862119E-2,-9.422596544E-2,-2.542726509E-2
4.198251590E-1,-1.007164046E-1,-1.064432710E-1,-2.909245715E-2
4.218242920E-1,-1.068250611E-1,-1.149953827E-1,-3.092505224E-2
4.238242580E-1,-1.129337102E-1,-1.284344196E-1,-3.520110995E-2
4.258242240E-1,-1.147663072E-1,-1.339322031E-1,-3.825543448E-2
4.278241900E-1,-1.214858219E-1,-1.412625909E-1,-4.497495294E-2
4.298241560E-1,-1.245401502E-1,-1.516472995E-1,-5.108360574E-2
4.318241220E-1,-1.275944710E-1,-1.559233516E-1,-5.474879593E-2
4.338240880E-1,-1.330922693E-1,-1.608102769E-1,-5.963572115E-2
4.358240540E-1,-1.373683214E-1,-1.699732542E-1,-6.757696718E-2
4.378240540E-1,-1.410335153E-1,-1.736384481E-1,-7.124216110E-2
4.398240540E-1,-1.459204406E-1,-1.797471046E-1,-8.101600409E-2
4.418249540E-1,-1.501964927E-1,-1.870774776E-1,-9.017898142E-2
4.438258540E-1,-1.569160074E-1,-1.907426715E-1,-9.567677230E-2
4.458258540E-1,-1.593594700E-1,-1.950187236E-1,-1.017854214E-1
4.478267540E-1,-1.654681265E-1,-1.992947906E-1,-1.109483987E-1
4.498276870E-1,-1.709659100E-1,-2.029599845E-1,-1.195005104E-1
4.518277200E-1,-1.727984995E-1,-2.054034323E-1,-1.249983013E-1
4.538277200E-1,-1.752419621E-1,-2.121229619E-1,-1.329395473E-1
4.558277200E-1,-1.776854247E-1,-2.182316035E-1,-1.421025246E-1
4.578276860E-1,-1.789071560E-1,-2.206750661E-1,-1.469894499E-1
4.598276520E-1,-1.801288873E-1,-2.261728644E-1,-1.592067480E-1
4.618267520E-1,-1.795180291E-1,-2.328923792E-1,-1.726457924E-1
4.638258180E-1,-1.813506186E-1,-2.341141105E-1,-1.744783819E-1
4.658257840E-1,-1.801288873E-1,-2.371684313E-1,-1.805870384E-1
4.678252170E-1,-1.782962978E-1,-2.377792895E-1,-1.873065531E-1
4.698252170E-1,-1.764636934E-1,-2.402227521E-1,-1.958586723E-1
4.718252500E-1,-1.776854247E-1,-2.377792895E-1,-2.007455975E-1
4.738252830E-1,-1.758528352E-1,-2.377792895E-1,-2.086868435E-1
4.758253160E-1,-1.752419621E-1,-2.383901626E-1,-2.123520374E-1
4.778253490E-1,-1.764636934E-1,-2.396118939E-1,-2.172389477E-1
4.798253820E-1,-1.764636934E-1,-2.408336252E-1,-2.227367461E-1
4.818262820E-1,-1.758528352E-1,-2.530509233E-1,-2.251801938E-1
4.838262150E-1,-1.764636934E-1,-2.640464902E-1,-2.294562608E-1
4.858262480E-1,-1.782962978E-1,-2.683225572E-1,-2.300671190E-1
4.878262480E-1,-1.825723499E-1,-2.829833329E-1,-2.294562608E-1
4.898262480E-1,-1.844049394E-1,-2.958115041E-1,-2.294562608E-1
4.918262480E-1,-1.862375438E-1,-3.019201458E-1,-2.288453877E-1
4.938262480E-1,-1.892918646E-1,-3.141374588E-1,-2.264019251E-1
4.958262480E-1,-1.954005212E-1,-3.306308091E-1,-2.264019251E-1
4.978262480E-1,-1.966222525E-1,-3.361285925E-1,-2.294562608E-1
4.998262480E-1,-2.033417672E-1,-3.544545472E-1,-2.294562608E-1
5.018253480E-1,-2.302198410E-1,-4.045455158E-1,-2.465604842E-1
5.038244480E-1,-2.302198410E-1,-4.045455158E-1,-2.465604842E-1
5.058244480E-1,-2.302198410E-1,-4.045455158E-1,-2.465604842E-1
5.078246480E-1,-2.302198410E-1,-4.045455158E-1,-2.465604842E-1
5.098246140E-1,-2.375502288E-1,-4.234823287E-1,-2.538908720E-1
5.118245800E-1,-2.406045496E-1,-4.240931869E-1,-2.551125884E-1
5.138245460E-1,-2.473240644E-1,-4.356996417E-1,-2.630538344E-1
5.158245120E-1,-2.558761835E-1,-4.491386712E-1,-2.709950805E-1
5.178245120E-1,-2.558761835E-1,-4.552473128E-1,-2.752711475E-1
5.198245450E-1,-2.632065713E-1,-4.760167301E-1,-2.801580727E-1
5.218254450E-1,-2.668717504E-1,-4.931209683E-1,-2.880993187E-1
5.238271780E-1,-2.711478174E-1,-4.961752892E-1,-2.899319232E-1
5.258272110E-1,-2.754238546E-1,-5.065600276E-1,-2.923753858E-1
5.278272440E-1,-2.772564590E-1,-5.157229900E-1,-2.990948856E-1
5.298272770E-1,-2.815325260E-1,-5.151121020E-1,-3.076470196E-1
5.318272770E-1,-2.851977050E-1,-5.132794976E-1,-3.125339448E-1
5.338272770E-1,-2.864194512E-1,-5.077817440E-1,-3.247512281E-1
5.358272430E-1,-2.864194512E-1,-4.967861474E-1,-3.388011456E-1
5.378272090E-1,-2.858085632E-1,-4.918992519E-1,-3.479641080E-1
5.398271750E-1,-2.851977050E-1,-4.772384763E-1,-3.638466001E-1
5.418262750E-1,-2.796999216E-1,-4.473060668E-1,-4.163810313E-1
5.438254750E-1,-2.796999216E-1,-4.473060668E-1,-4.163810313E-1
5.458245750E-1,-2.796999216E-1,-4.473060668E-1,-4.163810313E-1
5.478238410E-1,-2.796999216E-1,-4.473060668E-1,-4.163810313E-1
5.498234410E-1,-2.796999216E-1,-4.436408877E-1,-4.334852397E-1
5.518234410E-1,-2.803107798E-1,-4.436408877E-1,-4.402047694E-1
5.538234410E-1,-2.821433842E-1,-4.436408877E-1,-4.560872614E-1
5.558234410E-1,-2.870303094E-1,-4.430300295E-1,-4.695262909E-1
5.578234410E-1,-2.876411676E-1,-4.430300295E-1,-4.786892831E-1
5.598234410E-1,-2.943606973E-1,-4.405865669E-1,-4.884631336E-1
5.618243070E-1,-3.010801971E-1,-4.393648207E-1,-4.994587004E-1
5.638251730E-1,-3.029128015E-1,-4.369213581E-1,-5.043455958E-1
5.658260730E-1,-3.132975101E-1,-4.332561791E-1,-5.128977299E-1
5.678258730E-1,-3.236822188E-1,-4.295909703E-1,-5.159520507E-1
5.698259060E-1,-3.371212482E-1,-4.381431043E-1,-5.183955431E-1
5.718259390E-1,-3.444516361E-1,-4.466952085E-1,-5.159520507E-1
5.738259720E-1,-3.597232699E-1,-4.735732675E-1,-5.104542971E-1
5.758260050E-1,-3.768275082E-1,-5.047274232E-1,-5.012912750E-1
5.778260380E-1,-3.859904706E-1,-5.169447064E-1,-4.933500290E-1
5.798260380E-1,-4.055381715E-1,-5.383250117E-1,-4.811327457E-1
5.818251380E-1,-4.531856477E-1,-5.676465034E-1,-4.212679565E-1
5.838234380E-1,-4.531856477E-1,-5.676465034E-1,-4.212679565E-1
5.858225380E-1,-4.531856477E-1,-5.676465034E-1,-4.212679565E-1
5.878218380E-1,-4.586834311E-1,-5.627595782E-1,-4.108832479E-1
5.898209040E-1,-4.586834311E-1,-5.627595782E-1,-4.108832479E-1
5.918211370E-1,-4.586834311E-1,-5.615378618E-1,-4.047745764E-1
5.938211030E-1,-4.586834311E-1,-5.578727126E-1,-3.870594800E-1
5.958211030E-1,-4.592943192E-1,-5.548183322E-1,-3.730095923E-1
5.978211360E-1,-4.599051774E-1,-5.535966158E-1,-3.650683463E-1
5.998211690E-1,-4.531856477E-1,-5.566509366E-1,-3.522401750E-1
6.018220690E-1,-4.495204687E-1,-5.572618246E-1,-3.436880708E-1
6.038229690E-1,-4.446335435E-1,-5.603161454E-1,-3.418554664E-1
6.058238690E-1,-4.428009391E-1,-5.609270334E-1,-3.381902575E-1
6.078246350E-1,-4.354705513E-1,-5.609270334E-1,-3.412446082E-1
6.098250680E-1,-4.360814393E-1,-5.584835410E-1,-3.418554664E-1
6.118251010E-1,-4.330270886E-1,-5.505422950E-1,-3.534618914E-1
6.138251010E-1,-4.318053722E-1,-5.413793325E-1,-3.669009507E-1
6.158251010E-1,-4.342488348E-1,-5.322163701E-1,-3.833943009E-1
6.178251010E-1,-4.366922975E-1,-5.254968405E-1,-3.943898678E-1
6.198251010E-1,-4.428009391E-1,-5.181664228E-1,-4.151592851E-1
6.218242340E-1,-4.513530433E-1,-5.090034604E-1,-4.383721650E-1
6.238242340E-1,-4.562399685E-1,-5.053382516E-1,-4.524220824E-1
6.258242000E-1,-4.678464234E-1,-5.022839308E-1,-4.756349623E-1
6.278241660E-1,-4.886158407E-1,-4.906775057E-1,-5.006804466E-1
6.298241320E-1,-4.971679449E-1,-4.882340431E-1,-5.147303343E-1
6.318231980E-1,-5.203808546E-1,-4.784601927E-1,-5.409975052E-1
6.338231640E-1,-5.460371971E-1,-4.717406929E-1,-5.703190565E-1
6.358231300E-1,-5.765804052E-1,-4.637994468E-1,-6.002514362E-1
6.378230960E-1,-5.918520689E-1,-4.613559842E-1,-6.136904955E-1
6.398230620E-1,-6.272822618E-1,-4.576907754E-1,-6.424011588E-1
6.418239280E-1,-6.614906788E-1,-4.595233798E-1,-6.735553145E-1
6.438248280E-1,-6.798166633E-1,-4.637994468E-1,-6.869943142E-1
6.458257280E-1,-7.176902890E-1,-4.747950137E-1,-7.163158655E-1
6.478264280E-1,-7.561748028E-1,-4.864014387E-1,-7.462482452E-1
6.498273610E-1,-7.757225037E-1,-4.925101101E-1,-7.615199089E-1
6.518271270E-1,-8.154287338E-1,-5.053382516E-1,-7.896196842E-1
6.538271600E-1,-8.551349640E-1,-5.175555944E-1,-8.189412355E-1
6.558271930E-1,-8.930086493E-1,-5.261076689E-1,-8.488736153E-1
6.578271930E-1,-9.162214994E-1,-5.297728777E-1,-8.629235029E-1
6.598271590E-1,-9.553169012E-1,-5.334380865E-1,-8.910233378E-1
6.618262590E-1,-1.017625093E0,-5.352706909E-1,-9.313403964E-1
6.638253250E-1,-1.036561966E0,-5.340489149E-1,-9.435577393E-1
6.658252910E-1,-1.057331324E0,-5.303837657E-1,-9.569967389E-1
6.678252570E-1,-1.097037673E0,-5.267185569E-1,-9.802096486E-1
6.698252230E-1,-1.117807031E0,-5.236642361E-1,-9.930378199E-1
6.718251890E-1,-1.158735037E0,-5.132794976E-1,-1.014418125E0
6.738251890E-1,-1.199052095E0,-5.035057068E-1,-1.037020087E0
6.758252220E-1,-1.239369273E0,-4.906775057E-1,-1.059011221E0
6.778252550E-1,-1.258916855E0,-4.857905805E-1,-1.070006847E0
6.798252880E-1,-1.297401428E0,-4.729624093E-1,-1.091387153E0
6.818261880E-1,-1.337107658E0,-4.558582008E-1,-1.112767458E0
6.838262210E-1,-1.356655359E0,-4.503603876E-1,-1.123152137E0
6.858262540E-1,-1.393918157E0,-4.350887835E-1,-1.145143270E0
6.878262870E-1,-1.430570006E0,-4.155410826E-1,-1.161636591E0
6.898263200E-1,-1.447063446E0,-4.082106948E-1,-1.172021389E0
6.918272200E-1,-1.481882691E0,-3.868304193E-1,-1.189736366E0
6.938272200E-1,-1.512426019E0,-3.678936064E-1,-1.205618978E0
6.958272200E-1,-1.541747570E0,-3.575088978E-1,-1.216614485E0
6.978272200E-1,-1.556408286E0,-3.550654352E-1,-1.223333955E0
6.998272200E-1,-1.575955987E0,-3.587306142E-1,-1.233107805E0
7.018263530E-1,-1.615662217E0,-4.454734921E-1,-1.241659999E0
7.038254530E-1,-1.618716598E0,-4.625777006E-1,-1.239216566E0
7.058245530E-1,-1.618716598E0,-4.625777006E-1,-1.239216566E0
7.078236860E-1,-1.618716598E0,-4.625777006E-1,-1.239216566E0
7.098236520E-1,-1.618105650E0,-4.802927971E-1,-1.237994790E0
7.118236180E-1,-1.615662217E0,-5.175555944E-1,-1.226999164E0
7.138235840E-1,-1.607720971E0,-5.633704662E-1,-1.221501470E0
7.158235500E-1,-1.591227651E0,-6.110179424E-1,-1.209284067E0
7.178235160E-1,-1.583286405E0,-6.385068893E-1,-1.204397202E0
7.198235160E-1,-1.561906099E0,-6.867652535E-1,-1.187903881E0
7.218244160E-1,-1.535027981E0,-7.325801253E-1,-1.171410441E0
7.238253490E-1,-1.515480280E0,-7.502952218E-1,-1.163469195E0
7.258253820E-1,-1.475163221E0,-7.759515643E-1,-1.139034629E0
7.278254150E-1,-1.418352723E0,-7.637342811E-1,-1.108491302E0
7.298254480E-1,-1.386587739E0,-7.545713186E-1,-1.091997981E0
7.318254810E-1,-1.316338301E0,-7.301366925E-1,-1.047404766E0
7.338255140E-1,-1.250364780E0,-7.325801253E-1,-9.429468513E-1
7.358246140E-1,-1.218599796E0,-7.319692969E-1,-8.904124498E-1
7.378245800E-1,-1.150793791E0,-7.527387142E-1,-7.829001546E-1
7.398245460E-1,-1.097648501E0,-8.297077417E-1,-6.778313518E-1
7.418236460E-1,-9.559277296E-1,-1.402088404E0,-4.151592851E-1
7.438227460E-1,-9.559277296E-1,-1.402088404E0,-4.151592851E-1
7.458218460E-1,-9.559277296E-1,-1.402088404E0,-4.151592851E-1
7.478209120E-1,-9.559277296E-1,-1.402088404E0,-4.151592851E-1
7.498208780E-1,-9.485973716E-1,-1.499826908E0,-3.901138306E-1
7.518208780E-1,-9.449321628E-1,-1.697136402E0,-3.510184288E-1
7.538209110E-1,-9.553169012E-1,-1.881617665E0,-3.241403699E-1
7.558209440E-1,-9.614255428E-1,-1.962862730E0,-3.131448030E-1
7.578209770E-1,-9.797514677E-1,-2.091755390E0,-2.997057736E-1
7.598210100E-1,-1.002964377E0,-2.180941582E0,-2.978731692E-1
7.618219100E-1,-1.025566339E0,-2.224313021E0,-3.039818108E-1
7.638228100E-1,-1.039616346E0,-2.235308647E0,-3.113121986E-1
7.658237100E-1,-1.063440084E0,-2.243249893E0,-3.333033621E-1
7.678245760E-1,-1.084209442E0,-2.238363028E0,-3.626248837E-1
7.698245760E-1,-1.092150688E0,-2.237752199E0,-3.809508383E-1
7.718245760E-1,-1.104367971E0,-2.229810953E0,-4.182136059E-1
7.738245760E-1,-1.107422352E0,-2.224313021E0,-4.597524405E-1
7.758245760E-1,-1.106200576E0,-2.224313021E0,-4.793001413E-1
7.778245760E-1,-1.093983293E0,-2.219426155E0,-5.232824683E-1
7.798245760E-1,-1.072602987E0,-2.213317394E0,-5.648213029E-1
7.818236760E-1,-8.636870980E-1,-2.182163477E0,-7.047094107E-1
7.838227760E-1,-8.636870980E-1,-2.182163477E0,-7.047094107E-1
7.858218760E-1,-8.239808679E-1,-2.174222231E0,-7.187592983E-1
7.878212760E-1,-8.239808679E-1,-2.174222231E0,-7.187592983E-1
7.898203420E-1,-8.239808679E-1,-2.174222231E0,-7.187592983E-1
7.918203080E-1,-7.830528617E-1,-2.163837433E0,-7.352526784E-1
7.938202740E-1,-6.969208717E-1,-2.140013695E0,-7.639633417E-1
7.958211400E-1,-6.511059999E-1,-2.127185583E0,-7.767915130E-1
7.978211400E-1,-5.588653684E-1,-2.095420599E0,-8.061130643E-1
7.998211730E-1,-4.654029608E-1,-2.066709757E0,-8.397106528E-1
8.018220730E-1,-3.774383664E-1,-2.036777496E0,-8.708647490E-1
8.038229730E-1,-3.352886736E-1,-2.025171041E0,-8.885798454E-1
8.058238730E-1,-2.577087879E-1,-2.009288549E0,-9.227883220E-1
8.078248060E-1,-1.917353272E-1,-2.003179789E0,-9.612728357E-1
8.098248390E-1,-1.624137908E-1,-2.005012512E0,-9.795987606E-1
8.118248720E-1,-1.172097698E-1,-2.006844997E0,-1.012585521E0
8.138248720E-1,-8.177958429E-2,-2.018451452E0,-1.043128729E0
8.158248380E-1,-6.895141304E-2,-2.026392698E0,-1.057789564E0
8.178248040E-1,-5.673411116E-2,-2.045329571E0,-1.081613302E0
8.198247700E-1,-5.551237985E-2,-2.078316212E0,-1.104215264E0
8.218238700E-1,-6.895141304E-2,-2.104583502E0,-1.119486928E0
8.238238360E-1,-8.177958429E-2,-2.116189957E0,-1.123762965E0
8.258238020E-1,-1.208749637E-1,-2.113746405E0,-1.120708704E0
8.278237680E-1,-1.691333205E-1,-2.094809532E0,-1.102382660E0
8.298237680E-1,-1.960113794E-1,-2.074651003E0,-1.088943601E0
8.318238010E-1,-2.497675270E-1,-2.009899378E0,-1.051069975E0
8.338238340E-1,-2.937498391E-1,-1.907274008E0,-9.973138571E-1
8.358238670E-1,-3.132975101E-1,-1.835802794E0,-9.637162685E-1
8.378239000E-1,-3.407864571E-1,-1.664149642E0,-8.855255246E-1
8.426007680E-1,-3.548363447E-1,-1.464396715E0,-7.914522886E-1
8.446016680E-1,-3.560580909E-1,-1.256091714E0,-6.888269186E-1
8.466025680E-1,-3.530037403E-1,-1.154688001E0,-6.362925172E-1
8.486034680E-1,-3.426190317E-1,-9.708175659E-1,-5.300019383E-1
8.506040340E-1,-3.255148232E-1,-8.266534209E-1,-4.273765981E-1
8.526049340E-1,-3.145192564E-1,-7.728972435E-1,-3.785073757E-1
8.546049340E-1,-2.919172347E-1,-6.898195744E-1,-2.850449979E-1
8.566049340E-1,-2.570978999E-1,-6.513350606E-1,-2.044107765E-1
8.586049340E-1,-2.369393557E-1,-6.433938146E-1,-1.653154045E-1
8.606049340E-1,-1.960113794E-1,-6.403394938E-1,-9.750936180E-2
8.626049000E-1,-1.544725448E-1,-6.476698518E-1,-3.947716579E-2
8.646040000E-1,-8.177958429E-2,-6.641632318E-1,3.199406713E-2
8.666030660E-1,-8.177958429E-2,-6.641632318E-1,3.199406713E-2
8.686030320E-1,-3.229949996E-2,-6.653849483E-1,6.803511828E-2
8.706029980E-1,1.595885493E-2,-6.537785530E-1,9.613491595E-2
8.726029640E-1,4.100432992E-2,-6.446155310E-1,1.077413559E-1
8.746029300E-1,8.559749275E-2,-6.201809645E-1,1.230129898E-1
8.766028960E-1,1.265254617E-1,-5.823072791E-1,1.346194297E-1
8.786028960E-1,1.460731477E-1,-5.633704662E-1,1.382846236E-1
8.806029290E-1,1.790598780E-1,-5.120577812E-1,1.462258697E-1
8.826029620E-1,2.102140039E-1,-4.485278130E-1,1.535562575E-1
8.846038620E-1,2.224313021E-1,-4.179845452E-1,1.553888470E-1
8.866038950E-1,2.450333238E-1,-3.440698385E-1,1.602757722E-1
8.886039280E-1,2.596940994E-1,-2.683225572E-1,1.657735556E-1
8.906039610E-1,2.713005245E-1,-1.870774776E-1,1.694387496E-1
8.926039940E-1,2.737439871E-1,-1.461495161E-1,1.718822122E-1
8.946039940E-1,2.774091661E-1,-6.734789163E-2,1.724930704E-1
8.966039600E-1,2.743548453E-1,9.010262787E-3,1.743256748E-1
8.986039260E-1,2.694679201E-1,4.382958263E-2,1.761582643E-1
9.006038920E-1,2.584723532E-1,1.128573567E-1,1.712713391E-1
9.026035250E-1,2.450333238E-1,1.715004146E-1,1.651626974E-1
9.046026250E-1,1.839468032E-1,3.211624026E-1,1.413389444E-1
9.066017250E-1,1.839468032E-1,3.211624026E-1,1.413389444E-1
9.086008250E-1,1.711186320E-1,3.431535661E-1,1.376737505E-1
9.105999250E-1,1.711186320E-1,3.431535661E-1,1.376737505E-1
9.125999580E-1,1.619556546E-1,3.614795208E-1,1.309542358E-1
9.145999910E-1,1.356884390E-1,3.999640048E-1,1.224021241E-1
9.166000240E-1,1.130864322E-1,4.305072725E-1,1.132391468E-1
9.186000570E-1,1.027017161E-1,4.482223690E-1,1.095739529E-1
9.205997230E-1,8.254316449E-2,4.787656367E-1,9.918924421E-2
9.225997560E-1,6.788240373E-2,4.983133376E-1,8.941540122E-2
9.246006560E-1,5.871942267E-2,5.093088746E-1,8.697193861E-2
9.266006890E-1,4.589125142E-2,5.288565755E-1,7.964155823E-2
9.286006890E-1,3.489567712E-2,5.453499556E-1,6.925684959E-2
9.306006890E-1,3.000875562E-2,5.630650520E-1,6.192646548E-2
9.326006890E-1,3.061962128E-2,5.716171265E-1,5.765040591E-2
9.346006890E-1,3.061962128E-2,5.881105065E-1,5.154175684E-2
9.366006890E-1,3.550654277E-2,6.064364910E-1,4.360050708E-2
9.386015890E-1,3.978259861E-2,6.162103415E-1,4.176791012E-2
9.406015550E-1,5.016730726E-2,6.333145499E-1,3.749185428E-2
9.426015210E-1,6.421720982E-2,6.522513628E-1,3.565925732E-2
9.446006210E-1,1.210276783E-1,7.151705027E-1,3.443752974E-2
9.465997210E-1,1.314123869E-1,7.237225771E-1,3.749185428E-2
9.485988210E-1,1.314123869E-1,7.237225771E-1,3.749185428E-2
9.505979210E-1,1.314123869E-1,7.237225771E-1,3.749185428E-2
9.525981540E-1,1.405753642E-1,7.322747111E-1,3.932445124E-2
9.545981200E-1,1.631773859E-1,7.481572032E-1,4.360050708E-2
9.565981200E-1,1.796707362E-1,7.640396953E-1,4.848742858E-2
9.585981200E-1,1.906663179E-1,7.707592249E-1,5.276348442E-2
9.605981530E-1,2.089922726E-1,7.835873961E-1,6.070473418E-2
9.625985190E-1,2.248747647E-1,7.909177542E-1,6.742425263E-2
9.645994190E-1,2.328160107E-1,7.915286422E-1,7.108944654E-2
9.666003190E-1,2.480876446E-1,7.945829630E-1,8.147415519E-2
9.686012190E-1,2.615266740E-1,7.927503586E-1,9.246972948E-2
9.706021520E-1,2.719113827E-1,7.884743214E-1,1.022435725E-1
9.726021520E-1,2.774091661E-1,7.817547917E-1,1.071304902E-1
9.746021180E-1,2.877938747E-1,7.664831877E-1,1.175151989E-1
9.766020840E-1,2.975677252E-1,7.481572032E-1,1.285107732E-1
9.786020500E-1,3.006220460E-1,7.365507483E-1,1.321759671E-1
9.806023830E-1,3.091741800E-1,7.096726894E-1,1.425606757E-1
9.826023490E-1,3.165045679E-1,6.803511381E-1,1.492801905E-1
9.846014490E-1,3.403283060E-1,5.355761051E-1,1.712713391E-1
9.866014490E-1,3.403283060E-1,5.355761051E-1,1.712713391E-1
9.886005820E-1,3.403283060E-1,5.355761051E-1,1.712713391E-1
9.905998820E-1,3.421608806E-1,5.141957998E-1,1.712713391E-1
9.926001150E-1,3.421608806E-1,5.141957998E-1,1.712713391E-1
9.946001480E-1,3.446043432E-1,4.958698750E-1,1.724930704E-1
9.966001810E-1,3.482695520E-1,4.555527568E-1,1.749365330E-1
9.985993140E-1,3.519347310E-1,4.353941977E-1,1.755474061E-1
1.000599347E0,3.568216562E-1,3.969096839E-1,1.798234582E-1
1.002599380E0,3.592651188E-1,3.578143120E-1,1.804343164E-1
1.004600280E0,3.610977232E-1,3.376557529E-1,1.834886521E-1
1.006601146E0,3.604868650E-1,3.016147017E-1,1.871538460E-1
1.008602012E0,3.629303277E-1,2.637410760E-1,1.883755773E-1
1.010602878E0,3.635411859E-1,2.448042482E-1,1.883755773E-1
1.012602611E0,3.635411859E-1,2.105957866E-1,1.944842190E-1
1.014602611E0,3.598759770E-1,1.806633919E-1,1.999820024E-1
1.016602611E0,3.555999398E-1,1.501201391E-1,2.018146068E-1
1.018602611E0,3.543781936E-1,1.366810948E-1,2.042580694E-1
1.020602577E0,3.513238728E-1,1.116356254E-1,2.091449946E-1
1.022602543E0,3.446043432E-1,8.475755155E-2,2.158645093E-1
1.024601643E0,3.378848433E-1,6.520986557E-2,2.201405615E-1
1.026601609E0,3.323870599E-1,5.849034712E-2,2.231948823E-1
1.028601575E0,3.244458139E-1,4.382958263E-2,2.280818075E-1
1.030601541E0,3.183371425E-1,3.955352306E-2,2.311361432E-1
1.032601507E0,3.097850382E-1,2.794708498E-2,2.378556579E-1
1.034601507E0,2.987894714E-1,2.489275858E-2,2.451860309E-1
1.036601507E0,2.890156209E-1,2.183843218E-2,2.531272769E-1
1.038601540E0,2.865721583E-1,2.122756653E-2,2.555707395E-1
1.040601573E0,2.774091661E-1,2.244929783E-2,2.604576647E-1
1.042601606E0,2.670244575E-1,2.550362423E-2,2.702315152E-1
1.044602506E0,2.621375620E-1,2.855795063E-2,2.720641196E-1
1.046603406E0,2.493093759E-1,3.649919853E-2,2.757292986E-1
1.048604306E0,2.352594733E-1,4.993823543E-2,2.806162238E-1
1.050605039E0,2.285399586E-1,5.543602258E-2,2.818379402E-1
1.052604805E0,2.096031308E-1,6.948592514E-2,2.836705446E-1
1.054604771E0,1.937206388E-1,8.536841720E-2,2.855031490E-1
1.056604737E0,1.760055423E-1,9.941831976E-2,2.861140072E-1
1.058604703E0,1.674534380E-1,1.079704314E-1,2.861140072E-1
1.060604669E0,1.479057521E-1,1.256855279E-1,2.861140072E-1
1.062604635E0,1.289689243E-1,1.434006095E-1,2.861140072E-1
1.064603735E0,1.014799923E-1,1.715004146E-1,2.861140072E-1
1.066602835E0,1.014799923E-1,1.715004146E-1,2.861140072E-1
1.068602868E0,8.437576145E-2,1.928807050E-1,2.885574698E-1
1.070602901E0,7.582364976E-2,2.020436823E-1,2.897791862E-1
1.072602934E0,6.116288155E-2,2.203696370E-1,2.940552533E-1
1.074602967E0,4.772384837E-2,2.429716438E-1,2.989421785E-1
1.076603000E0,3.611740842E-2,2.588541508E-1,3.074942827E-1
1.078603033E0,3.123048507E-2,2.686280012E-1,3.093268871E-1
1.080603066E0,2.390010282E-2,2.832887471E-1,3.191007376E-1
1.082603099E0,1.901318133E-2,2.985603809E-1,3.288745880E-1
1.084603965E0,1.840231568E-2,3.046690524E-1,3.349832296E-1
1.086603965E0,1.656972058E-2,3.138320148E-1,3.447570801E-1
1.088603965E0,1.779145002E-2,3.242167234E-1,3.588069677E-1
1.090603965E0,2.084577642E-2,3.278819323E-1,3.667482138E-1
1.092603965E0,2.451096848E-2,3.315471113E-1,3.820198476E-1
1.094603965E0,3.245221451E-2,3.321579695E-1,3.954588771E-1
1.096603965E0,4.283692688E-2,3.309362531E-1,4.107305110E-1
1.098603931E0,5.016730726E-2,3.272710443E-1,4.186717570E-1
1.100603897E0,6.299547851E-2,3.168863356E-1,4.351651371E-1
1.102603863E0,8.254316449E-2,3.028364480E-1,4.522693455E-1
1.104602963E0,1.460731477E-1,2.344195396E-1,5.005277395E-1
1.106602063E0,1.460731477E-1,2.344195396E-1,5.005277395E-1
1.108601163E0,1.595121920E-1,2.179261744E-1,5.072472095E-1
1.110600229E0,1.595121920E-1,2.179261744E-1,5.072472095E-1
1.112600229E0,1.729512215E-1,2.008219510E-1,5.157993436E-1
1.114600229E0,2.016618848E-1,1.672243625E-1,5.304601192E-1
1.116600262E0,2.303725630E-1,1.293507218E-1,5.438991189E-1
1.118600295E0,2.444224507E-1,1.098030284E-1,5.518403649E-1
1.120600328E0,2.755765915E-1,7.009678334E-2,5.634468198E-1
1.122600361E0,3.030655086E-1,3.039054573E-2,5.738315582E-1
1.124601261E0,3.183371425E-1,1.023199316E-2,5.762749910E-1
1.126602194E0,3.427717686E-1,-2.580905706E-2,5.848271251E-1
1.128602194E0,3.690389693E-1,-6.429356337E-2,5.921574831E-1
1.130602160E0,3.800345361E-1,-8.017606288E-2,5.921574831E-1
1.132602126E0,4.001930952E-1,-1.137736514E-1,5.952118039E-1
1.134602092E0,4.172973335E-1,-1.449277848E-1,5.939900875E-1
1.136602058E0,4.252385795E-1,-1.705841124E-1,5.915466547E-1
1.138602024E0,4.344015419E-1,-1.834122837E-1,5.878814459E-1
1.140601990E0,4.411210716E-1,-2.029599845E-1,5.811619163E-1
1.142601956E0,4.460079968E-1,-2.139555514E-1,5.762749910E-1
1.144601089E0,4.478405714E-1,-2.328923792E-1,5.573381782E-1
1.146600255E0,4.453971088E-1,-2.273945808E-1,5.585598946E-1
1.148599421E0,4.453971088E-1,-2.273945808E-1,5.585598946E-1
1.150599621E0,4.453971088E-1,-2.273945808E-1,5.585598946E-1
1.152599654E0,4.453971088E-1,-2.267837226E-1,5.585598946E-1
1.154599687E0,4.417319298E-1,-2.163990140E-1,5.555055737E-1
1.156599720E0,4.356232882E-1,-2.133446932E-1,5.548947453E-1
1.158599753E0,4.307363629E-1,-2.005165219E-1,5.542838573E-1
1.160599786E0,4.240168333E-1,-1.907426715E-1,5.542838573E-1
1.162599786E0,4.117995203E-1,-1.748601794E-1,5.561164618E-1
1.164600652E0,4.069126248E-1,-1.718058437E-1,5.567272902E-1
1.166601518E0,3.959170282E-1,-1.620320082E-1,5.591707826E-1
1.168602384E0,3.843106031E-1,-1.553124934E-1,5.646685362E-1
1.170603284E0,3.782019317E-1,-1.528690308E-1,5.640577078E-1
1.172603284E0,3.672063649E-1,-1.485929638E-1,5.683337450E-1
1.174603284E0,3.580434024E-1,-1.455386430E-1,5.732206702E-1
1.176603250E0,3.537673354E-1,-1.461495161E-1,5.738315582E-1
1.178603216E0,3.446043432E-1,-1.473712474E-1,5.793293118E-1
1.180603182E0,3.366630971E-1,-1.504255682E-1,5.836054087E-1
1.182603148E0,3.281109929E-1,-1.522581577E-1,5.866597295E-1
1.184602248E0,3.097850382E-1,-1.980730593E-1,6.000987291E-1
1.186601348E0,3.097850382E-1,-1.980730593E-1,6.000987291E-1
1.188600448E0,3.097850382E-1,-1.980730593E-1,6.000987291E-1
1.190599581E0,3.097850382E-1,-1.980730593E-1,6.000987291E-1
1.192599447E0,3.079524338E-1,-2.041817009E-1,6.031530499E-1
1.194599880E0,3.079524338E-1,-2.157881409E-1,6.043748260E-1
1.196599913E0,3.061198592E-1,-2.188424766E-1,6.037639380E-1
1.198600579E0,3.012329340E-1,-2.322815061E-1,6.013205051E-1
1.200600612E0,2.987894714E-1,-2.451096773E-1,6.000987291E-1
1.202600645E0,2.945134044E-1,-2.591595948E-1,5.933791995E-1
1.204601545E0,2.908482254E-1,-2.640464902E-1,5.915466547E-1
1.206602411E0,2.835178375E-1,-2.774855494E-1,5.848271251E-1
1.208603277E0,2.761874497E-1,-2.903137207E-1,5.768858790E-1
1.210603077E0,2.682462037E-1,-2.958115041E-1,5.719989538E-1
1.212603043E0,2.596940994E-1,-3.061962128E-1,5.640577078E-1
1.214603009E0,2.462550551E-1,-3.135266006E-1,5.555055737E-1
1.216602575E0,2.377029359E-1,-3.208569586E-1,5.506186485E-1
1.218602541E0,2.254856378E-1,-3.269656301E-1,5.426774025E-1
1.220602507E0,2.114357352E-1,-3.361285925E-1,5.377904773E-1
1.222601673E0,2.047162205E-1,-3.416263759E-1,5.347361565E-1
1.224600839E0,1.845576614E-1,-3.544545472E-1,5.231297016E-1
1.226600872E0,1.784490049E-1,-3.587306142E-1,5.249623060E-1
1.228600905E0,1.686751693E-1,-3.648392558E-1,5.200753808E-1
1.230600805E0,1.668425649E-1,-3.703370690E-1,5.176319480E-1
1.232600838E0,1.582904607E-1,-3.770565689E-1,5.151884556E-1
1.234600871E0,1.582904607E-1,-3.856086731E-1,5.151884556E-1
1.236600904E0,1.589013189E-1,-3.886630237E-1,5.164102316E-1
1.238600937E0,1.662317067E-1,-3.941608071E-1,5.176319480E-1
1.240600937E0,1.778381467E-1,-4.014911950E-1,5.182427764E-1
1.242600937E0,1.924989074E-1,-4.063780904E-1,5.231297016E-1
1.244601803E0,2.059379518E-1,-4.057672322E-1,5.261840224E-1
1.246602669E0,2.303725630E-1,-4.063780904E-1,5.335144401E-1
1.248602635E0,2.560288906E-1,-4.051563740E-1,5.384013653E-1
1.250603501E0,2.743548453E-1,-4.008803070E-1,5.426774025E-1
1.252603634E0,3.097850382E-1,-3.953825235E-1,5.481752157E-1
1.254604234E0,3.476586938E-1,-3.880521357E-1,5.524512529E-1
1.256604200E0,3.684281111E-1,-3.819434941E-1,5.585598946E-1
1.258603533E0,4.117995203E-1,-3.721696436E-1,5.628359914E-1
1.260603499E0,4.545601010E-1,-3.526219726E-1,5.701663494E-1
1.262603465E0,4.973206818E-1,-3.342960179E-1,5.744423866E-1
1.264602565E0,5.596289039E-1,-2.933680415E-1,5.787184834E-1
1.266601631E0,5.596289039E-1,-2.933680415E-1,5.787184834E-1
1.268601631E0,5.981134176E-1,-2.616030276E-1,5.811619163E-1
1.270601264E0,6.158285141E-1,-2.432770878E-1,5.793293118E-1
1.272601297E0,6.482043862E-1,-2.066251636E-1,5.793293118E-1
1.274601330E0,6.756933331E-1,-1.675297916E-1,5.774967074E-1
1.276601763E0,6.854671836E-1,-1.492038369E-1,5.756641626E-1
1.278601796E0,7.056257129E-1,-1.070541367E-1,5.689446330E-1
1.280601829E0,7.160104513E-1,-6.856962293E-2,5.603924990E-1
1.282602695E0,7.202864885E-1,-4.963280261E-2,5.536729693E-1
1.284603561E0,7.221190929E-1,-1.175915636E-2,5.390121937E-1
1.286603561E0,7.184538841E-1,2.611448988E-2,5.219079852E-1
1.288603527E0,7.068474293E-1,5.787948146E-2,5.029711723E-1
1.290604027E0,7.001278996E-1,7.498370856E-2,4.925864637E-1
1.292603993E0,6.824128628E-1,1.049161032E-1,4.718170464E-1
1.294603959E0,6.598108411E-1,1.311833113E-1,4.492150247E-1
1.296603925E0,6.494261026E-1,1.415680200E-1,4.345542490E-1
1.298603891E0,6.201046109E-1,1.647808999E-1,4.137848318E-1
1.300603891E0,5.889504552E-1,1.861611903E-1,3.862959146E-1
1.302603891E0,5.736788511E-1,1.959350258E-1,3.746894598E-1
1.304603024E0,4.466188550E-1,2.429716438E-1,2.879466116E-1
1.306602157E0,4.466188550E-1,2.429716438E-1,2.879466116E-1
1.308602190E0,4.466188550E-1,2.429716438E-1,2.879466116E-1
1.310601390E0,4.270711541E-1,2.441933751E-1,2.769510448E-1
1.312601256E0,4.105778039E-1,2.478585690E-1,2.635119855E-1
1.314600222E0,3.757584691E-1,2.423607856E-1,2.390773892E-1
1.316600222E0,3.610977232E-1,2.435825169E-1,2.274709493E-1
1.318600255E0,3.305544555E-1,2.368630022E-1,2.036471963E-1
1.320600288E0,3.018437922E-1,2.270891517E-1,1.816560477E-1
1.322600321E0,2.920699418E-1,2.222022265E-1,1.712713391E-1
1.324601221E0,2.713005245E-1,2.087631971E-1,1.474476010E-1
1.326602154E0,2.548071742E-1,1.941024363E-1,1.297325045E-1
1.328602154E0,2.407572716E-1,1.794416606E-1,1.052978933E-1
1.330602554E0,2.340377420E-1,1.727221459E-1,9.735664725E-2
1.332602554E0,2.285399586E-1,1.580613852E-1,7.964155823E-2
1.334602520E0,2.248747647E-1,1.464549452E-1,5.948300287E-2
1.336602486E0,2.242639065E-1,1.360702366E-1,5.093089119E-2
1.338602452E0,2.248747647E-1,1.214094684E-1,3.321579844E-2
1.340602418E0,2.297616899E-1,1.061378345E-1,1.855503209E-2
1.342602384E0,2.309834212E-1,9.514226019E-2,1.183551457E-2
1.344601484E0,2.651918828E-1,3.772092983E-2,-3.153591976E-2
1.346600584E0,2.713005245E-1,2.855795063E-2,-3.581197560E-2
1.348599717E0,2.713005245E-1,2.855795063E-2,-3.581197560E-2
1.350598450E0,2.713005245E-1,2.855795063E-2,-3.581197560E-2
1.352598483E0,2.780200541E-1,2.244929783E-2,-3.825543448E-2
1.354598616E0,2.890156209E-1,7.788531948E-3,-4.497495294E-2
1.356598649E0,2.981785834E-1,-1.527163113E-4,-4.436408728E-2
1.358598682E0,3.116176426E-1,-1.175915636E-2,-4.680754989E-2
1.360598715E0,3.281109929E-1,-1.970040426E-2,-4.864014685E-2
1.362598748E0,3.336087763E-1,-2.153299935E-2,-4.802928120E-2
1.364599648E0,3.494912684E-1,-2.703078650E-2,-4.619668424E-2
1.366600581E0,3.635411859E-1,-2.580905706E-2,-4.558581859E-2
1.368601447E0,3.763693571E-1,-2.336559631E-2,-4.130976275E-2
1.370602247E0,3.843106031E-1,-2.214386500E-2,-3.886630014E-2
1.372602380E0,3.953061700E-1,-1.664607786E-2,-3.581197560E-2
1.374602380E0,4.075234830E-1,-1.481348183E-2,-3.092505224E-2
1.376602380E0,4.124104083E-1,-1.175915636E-2,-2.848159149E-2
1.378602713E0,4.264602959E-1,-3.207042580E-3,-2.420553565E-2
1.380602679E0,4.319580793E-1,4.734205548E-3,-1.931861416E-2
1.382602645E0,4.417319298E-1,2.000583708E-2,-1.382082608E-2
1.384601745E0,4.563927054E-1,9.636399150E-2,-6.490443368E-3
1.386600845E0,4.551709592E-1,1.091921628E-1,-5.268712528E-3
1.388599945E0,4.551709592E-1,1.091921628E-1,-5.268712528E-3
1.390599045E0,4.551709592E-1,1.091921628E-1,-5.268712528E-3
1.392599111E0,4.551709592E-1,1.091921628E-1,-5.268712528E-3
1.394599111E0,4.557818174E-1,1.317941695E-1,-6.490443368E-3
1.396598744E0,4.557818174E-1,1.446223408E-1,-5.268712528E-3
1.398598777E0,4.521166384E-1,1.672243625E-1,-6.490443368E-3
1.400598810E0,4.478405714E-1,1.898263693E-1,-8.323038928E-3
1.402598843E0,4.429536462E-1,2.112066597E-1,-9.544769302E-3
1.404599743E0,4.423427880E-1,2.191479057E-1,-1.382082608E-2
1.406600643E0,4.331798255E-1,2.374738604E-1,-1.626428775E-2
1.408601543E0,4.289037585E-1,2.441933751E-1,-1.931861416E-2
1.410602443E0,4.197407961E-1,2.576324046E-1,-2.542726509E-2
1.412602409E0,4.117995203E-1,2.686280012E-1,-3.336851299E-2
1.414602275E0,4.001930952E-1,2.777909636E-1,-4.008803144E-2
1.416602241E0,3.971387744E-1,2.808452845E-1,-4.497495294E-2
1.418602207E0,3.867540658E-1,2.887865305E-1,-5.474879593E-2
1.420602173E0,3.775910735E-1,2.918408811E-1,-6.207918003E-2
1.422602139E0,3.708715737E-1,2.948952019E-1,-6.696610153E-2
1.424601205E0,3.549890518E-1,2.961169183E-1,-7.918340713E-2
1.426601138E0,3.513238728E-1,2.948952019E-1,-8.468119800E-2
1.428601171E0,3.452152312E-1,2.942843437E-1,-8.895725012E-2
1.430601204E0,3.366630971E-1,2.924517393E-1,-9.628763795E-2
1.432601237E0,3.262783885E-1,2.912299931E-1,-1.054506153E-1
1.434601270E0,3.140611053E-1,2.906191349E-1,-1.078940704E-1
1.436601303E0,3.103958964E-1,2.906191349E-1,-1.109483987E-1
1.438600969E0,2.987894714E-1,2.838996351E-1,-1.152244583E-1
1.440601002E0,2.896264791E-1,2.808452845E-1,-1.195005104E-1
1.442601035E0,2.835178375E-1,2.790127099E-1,-1.201113760E-1
1.444601901E0,2.761874497E-1,2.753475010E-1,-1.219439730E-1
1.446602767E0,2.651918828E-1,2.692388594E-1,-1.213331074E-1
1.448603633E0,2.615266740E-1,2.661845386E-1,-1.201113760E-1
1.450604499E0,2.541962862E-1,2.649627924E-1,-1.176679209E-1
1.452604399E0,2.468659133E-1,2.588541508E-1,-1.121701300E-1
1.454604399E0,2.413681298E-1,2.576324046E-1,-1.097266674E-1
1.456604765E0,2.389246672E-1,2.600758672E-1,-1.066723466E-1
1.458604731E0,2.346486151E-1,2.570215464E-1,-1.005636901E-1
1.460604697E0,2.322051525E-1,2.551889420E-1,-9.201157838E-2
1.462604663E0,2.315942794E-1,2.557998300E-1,-8.773551881E-2
1.464603763E0,2.279291004E-1,2.576324046E-1,-6.757696718E-2
1.466602829E0,2.279291004E-1,2.576324046E-1,-6.757696718E-2
1.468602795E0,2.260964960E-1,2.612976134E-1,-6.269004941E-2
1.470602761E0,2.267073691E-1,2.680171132E-1,-5.169447139E-2
1.472602761E0,2.279291004E-1,2.753475010E-1,-3.642284125E-2
1.474602794E0,2.279291004E-1,2.845104933E-1,-2.481640130E-2
1.476602827E0,2.267073691E-1,2.893974185E-1,-1.992947794E-2
1.478602860E0,2.260964960E-1,2.985603809E-1,-4.046982154E-3
1.480602893E0,2.236530334E-1,3.040581644E-1,1.122464892E-2
1.482602926E0,2.230421752E-1,3.071125150E-1,1.977676153E-2
1.484603859E0,2.181552500E-1,3.113885522E-1,3.016147204E-2
1.486603892E0,2.114357352E-1,3.119994104E-1,4.360050708E-2
1.488603892E0,2.096031308E-1,3.113885522E-1,5.093089119E-2
1.490603858E0,2.022727579E-1,3.089450896E-1,6.314819306E-2
1.492603824E0,1.906663179E-1,2.997821271E-1,7.658722997E-2
1.494603790E0,1.790598780E-1,2.893974185E-1,8.697193861E-2
1.496603756E0,1.747838110E-1,2.838996351E-1,8.941540122E-2
1.498603722E0,1.589013189E-1,2.680171132E-1,9.796751291E-2
1.500603688E0,1.436296850E-1,2.521346211E-1,1.028544381E-1
1.502603654E0,1.332449764E-1,2.429716438E-1,1.083522215E-1
1.504602787E0,6.360634416E-2,1.464549452E-1,1.101848185E-1
1.506601953E0,6.360634416E-2,1.464549452E-1,1.101848185E-1
1.508601119E0,4.894557595E-2,1.275181174E-1,1.101848185E-1
1.510600252E0,4.894557595E-2,1.275181174E-1,1.089630872E-1
1.512600285E0,3.367394581E-2,1.073595658E-1,1.071304902E-1
1.514600318E0,3.741549561E-3,6.093380973E-2,9.918924421E-2
1.516600351E0,-1.275181212E-2,3.588833287E-2,9.796751291E-2
1.518600384E0,-4.757113010E-2,-1.603521220E-2,8.941540122E-2
1.520600417E0,-8.544477820E-2,-7.712173462E-2,8.025242388E-2
1.522600417E0,-1.068250611E-1,-1.113301888E-1,7.475463301E-2
1.524601283E0,-1.501964927E-1,-1.840231568E-1,6.559165567E-2
1.526602183E0,-1.966222525E-1,-2.585487068E-1,5.703954399E-2
1.528602183E0,-2.198351324E-1,-2.964223623E-1,5.032002553E-2
1.530602183E0,-2.656500340E-1,-3.788891733E-1,4.604396969E-2
1.532603383E0,-3.139083683E-1,-4.601342380E-1,3.565925732E-2
1.534603349E0,-3.358995318E-1,-5.426010489E-1,3.443752974E-2
1.536603315E0,-3.829361498E-1,-5.829181671E-1,2.710714564E-2
1.538603281E0,-4.281401932E-1,-6.568328738E-1,2.527454868E-2
1.540603247E0,-4.672355652E-1,-7.252497673E-1,2.160935849E-2
1.542603213E0,-4.861723781E-1,-7.570147514E-1,2.038762718E-2
1.544602313E0,-5.857434273E-1,-8.749117255E-1,1.916589774E-2
1.546601413E0,-5.857434273E-1,-8.749117255E-1,1.916589774E-2
1.548600513E0,-5.857434273E-1,-8.749117255E-1,1.916589774E-2
1.550600579E0,-5.900194645E-1,-8.767443299E-1,1.794416644E-2
1.552600612E0,-5.949063897E-1,-8.761335015E-1,1.733330078E-2
1.554600645E0,-5.942955017E-1,-8.730791807E-1,2.038762718E-2
1.556600678E0,-5.955172777E-1,-8.541423082E-1,2.160935849E-2
1.558600711E0,-5.955172777E-1,-8.138252497E-1,2.893974073E-2
1.560600744E0,-5.930737853E-1,-7.637342811E-1,3.627012298E-2
1.562600777E0,-5.881868601E-1,-7.319692969E-1,4.176791012E-2
1.564601677E0,-5.851325393E-1,-6.721044779E-1,5.154175684E-2
1.566602543E0,-5.784130096E-1,-6.146831512E-1,6.681338698E-2
1.568603376E0,-5.753586888E-1,-5.878050923E-1,7.231117040E-2
1.570604242E0,-5.710826516E-1,-5.371032953E-1,8.697193861E-2
1.572604208E0,-5.674174428E-1,-4.943426847E-1,9.674578160E-2
1.574604174E0,-5.643631220E-1,-4.754058719E-1,1.016327068E-1
1.576604140E0,-5.594761968E-1,-4.350887835E-1,1.052978933E-1
1.578604106E0,-5.570327640E-1,-3.935499489E-1,1.034653038E-1
1.580604072E0,-5.521458387E-1,-3.507893682E-1,9.674578160E-2
1.582604072E0,-5.539784431E-1,-3.263547719E-1,9.369145334E-2
1.584603238E0,-5.765804052E-1,-1.577559561E-1,7.559457328E-3
1.586602404E0,-5.765804052E-1,-1.577559561E-1,7.559457328E-3
1.588601570E0,-5.857434273E-1,-1.382082552E-1,-7.101308554E-3
1.590600736E0,-5.857434273E-1,-1.382082552E-1,-7.101308554E-3
1.592598669E0,-5.857434273E-1,-1.382082552E-1,-7.101308554E-3
1.594598702E0,-5.930737853E-1,-1.198823079E-1,-2.176207490E-2
1.596598735E0,-6.181192994E-1,-8.872817457E-2,-5.535966158E-2
1.598598401E0,-6.474407911E-1,-6.551529467E-2,-9.140071273E-2
1.600598401E0,-6.804275513E-1,-4.841107130E-2,-1.225548387E-1
1.602598401E0,-6.956991553E-1,-4.291328415E-2,-1.384373307E-1
1.604598867E0,-7.384597063E-1,-3.924809024E-2,-1.757001132E-1
1.606599733E0,-7.842746377E-1,-3.375030309E-2,-2.111303061E-1
1.608600599E0,-8.080983758E-1,-3.741549700E-2,-2.264019251E-1
1.610600532E0,-8.612436652E-1,-3.863722831E-2,-2.618321180E-1
1.612600498E0,-9.162214994E-1,-4.535674304E-2,-2.942079604E-1
1.614600464E0,-9.443213344E-1,-4.963280261E-2,-3.100904822E-1
1.616600430E0,-1.002964377E0,-5.329799280E-2,-3.442989290E-1
1.618600396E0,-1.067105174E0,-5.696318299E-2,-3.778965175E-1
1.620600362E0,-1.128191710E0,-6.001751125E-2,-4.053854346E-1
1.622599428E0,-1.160567641E0,-6.001751125E-2,-4.212679565E-1
1.624598494E0,-1.223486781E0,-6.551529467E-2,-4.487568736E-1
1.626598460E0,-1.282740712E0,-6.856962293E-2,-4.738023579E-1
1.628598460E0,-1.309007883E0,-7.223481685E-2,-4.829653203E-1
1.630598493E0,-1.363374829E0,-7.528914511E-2,-5.049564838E-1
1.632598526E0,-1.407968044E0,-7.773260027E-2,-5.196172595E-1
1.634598559E0,-1.429348350E0,-7.590000331E-2,-5.251150131E-1
1.636598592E0,-1.461724162E0,-7.834346592E-2,-5.300019383E-1
1.638598625E0,-1.480661035E0,-7.956519723E-2,-5.306128263E-1
1.640598658E0,-1.491045713E0,-7.956519723E-2,-5.257259011E-1
1.642598691E0,-1.489823937E0,-7.773260027E-2,-5.190063715E-1
1.644599557E0,-1.481882691E0,-7.712173462E-2,-5.049564838E-1
1.646600390E0,-1.462945938E0,-6.979135424E-2,-4.835762084E-1
1.648601223E0,-1.449506879E0,-6.673702598E-2,-4.701371789E-1
1.650602056E0,-1.412854910E0,-5.696318299E-2,-4.426482320E-1
1.652602922E0,-1.364596605E0,-3.924809024E-2,-4.047745764E-1
1.654602888E0,-1.336496830E0,-2.947424725E-2,-3.864486217E-1
1.656602854E0,-1.276021123E0,-4.428773187E-3,-3.442989290E-1
1.658603187E0,-1.209436774E0,2.855795063E-2,-2.966514230E-1
1.660603187E0,-1.135522127E0,6.154467165E-2,-2.465604842E-1
1.662603220E0,-1.098259330E0,8.170322329E-2,-2.209041417E-1
1.664602753E0,-9.443213344E-1,1.635591686E-1,-1.152244583E-1
1.666601886E0,-9.443213344E-1,1.635591686E-1,-1.152244583E-1
1.668601919E0,-9.058368206E-1,1.818851233E-1,-8.712465316E-2
1.670601952E0,-8.270351887E-1,2.264782935E-1,-3.397937864E-2
1.672601985E0,-7.525096536E-1,2.704605758E-1,2.160935849E-2
1.674602018E0,-7.164685726E-1,2.912299931E-1,4.543310404E-2
1.676602451E0,-6.456081867E-1,3.370448947E-1,9.735664725E-2
1.678602451E0,-5.778021812E-1,3.761402667E-1,1.437824070E-1
1.680602451E0,-5.435937047E-1,3.932445049E-1,1.663844138E-1
1.682603384E0,-4.843397737E-1,4.335615933E-1,2.054798007E-1
1.684604284E0,-4.275293052E-1,4.659374654E-1,2.402991205E-1
1.686604284E0,-3.749949038E-1,4.922046661E-1,2.726749778E-1
1.688603384E0,-3.560580909E-1,5.056437254E-1,2.867248654E-1
1.690603350E0,-3.096323311E-1,5.276348591E-1,3.123812079E-1
1.692603316E0,-2.705369592E-1,5.410739183E-1,3.349832296E-1
1.694603282E0,-2.552653253E-1,5.471825600E-1,3.441462219E-1
1.696603248E0,-2.253329158E-1,5.593998432E-1,3.630830348E-1
1.698603214E0,-1.966222525E-1,5.642867684E-1,3.771329224E-1
1.700603180E0,-1.837940812E-1,5.685628057E-1,3.832415938E-1
1.702603146E0,-1.654681265E-1,5.740606189E-1,3.954588771E-1
1.704602246E0,-1.233184189E-1,5.936083198E-1,4.278347492E-1
1.706601379E0,-1.233184189E-1,5.936083198E-1,4.278347492E-1
1.708600512E0,-1.233184189E-1,5.936083198E-1,4.278347492E-1
1.710599645E0,-1.233184189E-1,5.936083198E-1,4.278347492E-1
1.712599478E0,-1.178206354E-1,5.771149397E-1,4.296673536E-1
1.714599511E0,-1.184315011E-1,5.667302608E-1,4.333325326E-1
1.716599544E0,-1.196532324E-1,5.404630303E-1,4.321108162E-1
1.718599577E0,-1.239292845E-1,5.038111210E-1,4.314999282E-1
1.720599610E0,-1.227075532E-1,4.830417037E-1,4.284456074E-1
1.722599610E0,-1.282053441E-1,4.360050559E-1,4.186717570E-1
1.724600476E0,-1.330922693E-1,3.865249753E-1,4.113413990E-1
1.726601342E0,-1.392009109E-1,3.315471113E-1,3.985132277E-1
1.728601308E0,-1.422552466E-1,3.022255898E-1,3.899610937E-1
1.730601274E0,-1.477530301E-1,2.441933751E-1,3.746894598E-1
1.732601240E0,-1.532508135E-1,1.873829067E-1,3.563635051E-1
1.734601206E0,-1.569160074E-1,1.568396538E-1,3.484222591E-1
1.736600772E0,-1.611920595E-1,1.000291854E-1,3.288745880E-1
1.738600772E0,-1.679115891E-1,4.627304152E-2,3.105486333E-1
1.740600805E0,-1.685224473E-1,2.122756653E-2,2.995530367E-1
1.742600805E0,-1.727984995E-1,-3.252857551E-2,2.812270820E-1
1.744599971E0,-1.935679317E-1,-2.047925740E-1,2.268600762E-1
1.746599137E0,-1.935679317E-1,-2.047925740E-1,2.268600762E-1
1.748599203E0,-1.935679317E-1,-2.047925740E-1,2.268600762E-1
1.750598669E0,-1.935679317E-1,-2.047925740E-1,2.268600762E-1
1.752598702E0,-2.008983046E-1,-2.524400651E-1,2.134210467E-1
1.754598735E0,-2.027309090E-1,-2.744311988E-1,2.073123902E-1
1.756598735E0,-2.125047445E-1,-3.190243840E-1,1.944842190E-1
1.758598735E0,-2.228894532E-1,-3.593414724E-1,1.865429729E-1
1.760598735E0,-2.277763784E-1,-3.801108897E-1,1.798234582E-1
1.762598735E0,-2.393828183E-1,-4.204280078E-1,1.688278764E-1
1.764599601E0,-2.534327209E-1,-4.619668424E-1,1.566105783E-1
1.766600467E0,-2.717586756E-1,-5.010622144E-1,1.474476010E-1
1.768601333E0,-2.803107798E-1,-5.206099153E-1,1.407280862E-1
1.770601799E0,-2.968041599E-1,-5.584835410E-1,1.285107732E-1
1.772601965E0,-3.145192564E-1,-5.939137340E-1,1.181260645E-1
1.774601931E0,-3.249039650E-1,-6.091853380E-1,1.126282811E-1
1.776601897E0,-3.420081735E-1,-6.415612102E-1,9.857837856E-2
1.778601863E0,-3.621667325E-1,-6.702718735E-1,8.880453557E-2
1.780601829E0,-3.725514412E-1,-6.794348955E-1,8.147415519E-2
1.782601795E0,-3.920991421E-1,-7.032586336E-1,6.864598393E-2
1.784600928E0,-4.751768112E-1,-7.680103183E-1,1.122464892E-2
1.786600061E0,-4.751768112E-1,-7.680103183E-1,1.122464892E-2
1.788599227E0,-4.831180573E-1,-7.777841687E-1,2.290744742E-4
1.790598393E0,-4.831180573E-1,-7.777841687E-1,2.290744742E-4
1.792597559E0,-4.831180573E-1,-7.777841687E-1,2.290744742E-4
1.794597592E0,-4.922810197E-1,-7.845036983E-1,-7.101308554E-3
1.796597625E0,-5.154939294E-1,-7.967209816E-1,-2.298380435E-2
1.798597191E0,-5.338198543E-1,-8.083274364E-1,-4.253149405E-2
1.800597191E0,-5.423719883E-1,-8.144360781E-1,-5.169447139E-2
1.802597157E0,-5.625305176E-1,-8.266534209E-1,-7.185302675E-2
1.804597990E0,-5.796347857E-1,-8.358163834E-1,-9.262244403E-2
1.806598823E0,-5.894085765E-1,-8.419250250E-1,-9.995282441E-2
1.808599656E0,-6.083454490E-1,-8.523097038E-1,-1.188896447E-1
1.810600189E0,-6.217844486E-1,-8.602510095E-1,-1.341612786E-1
1.812600155E0,-6.358343363E-1,-8.694139719E-1,-1.518763751E-1
1.814600121E0,-6.437755823E-1,-8.730791807E-1,-1.598176211E-1
1.816600121E0,-6.572146416E-1,-8.846855760E-1,-1.738675237E-1
1.818600154E0,-6.700428128E-1,-8.956811428E-1,-1.873065531E-1
1.820600187E0,-6.755406260E-1,-8.981246352E-1,-1.952477992E-1
1.822600220E0,-6.871470213E-1,-9.054549932E-1,-2.129628956E-1
1.824599386E0,-6.950882673E-1,-9.072875977E-1,-2.239584774E-1
1.826599419E0,-6.993643641E-1,-9.097310901E-1,-2.318997234E-1
1.828599452E0,-7.030295134E-1,-9.115636349E-1,-2.441170216E-1
1.830599885E0,-7.066947222E-1,-9.085093141E-1,-2.581669390E-1
1.832599918E0,-7.085273266E-1,-9.024006724E-1,-2.728276849E-1
1.834599918E0,-7.054730058E-1,-9.024006724E-1,-2.795472145E-1
1.836599918E0,-7.042512894E-1,-8.956811428E-1,-2.899319232E-1
1.838599918E0,-7.024186850E-1,-8.852964640E-1,-3.058144152E-1
1.840599918E0,-6.981425881E-1,-8.767443299E-1,-3.149773777E-1
1.842599918E0,-6.908122301E-1,-8.571966290E-1,-3.296381533E-1
1.844600784E0,-6.822600961E-1,-8.339837790E-1,-3.455206454E-1
1.846601650E0,-6.779840589E-1,-8.199338913E-1,-3.546836376E-1
1.848602483E0,-6.639341712E-1,-7.118107080E-1,-3.754530549E-1
1.850603316E0,-6.431647539E-1,-5.884159207E-1,-4.011093974E-1
1.852604149E0,-6.193410158E-1,-4.827362597E-1,-4.218788147E-1
1.854604115E0,-6.083454490E-1,-4.289801121E-1,-4.316526651E-1
1.856604081E0,-5.784130096E-1,-3.165809214E-1,-4.505894780E-1
1.858604514E0,-5.484806299E-1,-2.041817009E-1,-4.664719701E-1
1.860604480E0,-5.325981379E-1,-1.510364264E-1,-4.738023579E-1
1.862604480E0,-4.971679449E-1,-5.513058975E-2,-4.854087830E-1
1.864603613E0,-4.287510514E-1,1.287398487E-1,-4.878522456E-1
1.866602746E0,-4.287510514E-1,1.287398487E-1,-4.878522456E-1
1.868602779E0,-4.116468132E-1,1.727221459E-1,-4.866305292E-1
1.870602812E0,-3.743840456E-1,2.472477108E-1,-4.799109995E-1
1.872602845E0,-3.401755691E-1,3.217732608E-1,-4.664719701E-1
1.874602878E0,-3.224605024E-1,3.535382748E-1,-4.585307240E-1
1.876602911E0,-2.931389511E-1,4.189008474E-1,-4.365395904E-1
1.878602911E0,-2.644282877E-1,4.671591818E-1,-4.084397852E-1
1.880602877E0,-2.528218627E-1,4.885394871E-1,-3.937790096E-1
1.882602843E0,-2.302198410E-1,5.221370459E-1,-3.589596748E-1
1.884603676E0,-2.143373489E-1,5.416847467E-1,-3.168099821E-1
1.886603642E0,-2.094504237E-1,5.465716720E-1,-2.954297066E-1
1.888603608E0,-1.978439838E-1,5.587889552E-1,-2.514474094E-1
1.890603574E0,-1.911244690E-1,5.593998432E-1,-2.007455975E-1
1.892603540E0,-1.905135959E-1,5.545129180E-1,-1.512655020E-1
1.894603540E0,-1.935679317E-1,5.502368808E-1,-1.256091595E-1
1.896603573E0,-2.002874464E-1,5.331326723E-1,-7.612907887E-2
1.898603606E0,-2.131156176E-1,5.117523670E-1,-2.725986205E-2
1.900603639E0,-2.204459906E-1,4.977024496E-1,-5.879578181E-3
1.902603672E0,-2.448806018E-1,4.573853612E-1,3.993531689E-2
1.904602838E0,-3.646101952E-1,2.637410760E-1,1.792125851E-1
1.906602004E0,-3.646101952E-1,2.637410760E-1,1.792125851E-1
1.908601170E0,-3.646101952E-1,2.637410760E-1,1.792125851E-1
1.910601203E0,-3.646101952E-1,2.637410760E-1,1.792125851E-1
1.912601203E0,-4.079816341E-1,1.983784884E-1,2.140319049E-1
1.914601203E0,-4.269184470E-1,1.641700417E-1,2.280818075E-1
1.916601203E0,-4.709007442E-1,1.024726480E-1,2.604576647E-1
1.918601203E0,-5.142721534E-1,5.482515693E-2,2.867248654E-1
1.920601203E0,-5.344307423E-1,3.588833287E-2,3.026073575E-1
1.922601203E0,-5.753586888E-1,1.023199316E-2,3.294854462E-1
1.924602069E0,-6.083454490E-1,6.566801574E-3,3.551417887E-1
1.926602935E0,-6.223953366E-1,1.206458826E-2,3.667482138E-1
1.928602901E0,-6.474407911E-1,3.222314268E-2,3.954588771E-1
1.930602867E0,-6.675993800E-1,6.398813426E-2,4.192826450E-1
1.932602833E0,-6.761514544E-1,1.085812971E-1,4.321108162E-1
1.934602799E0,-6.859253049E-1,1.324050426E-1,4.565454125E-1
1.936602765E0,-6.981425881E-1,1.824959964E-1,4.791474342E-1
1.938602731E0,-7.018077970E-1,2.356412709E-1,4.986951053E-1
1.940602731E0,-7.024186850E-1,2.594650090E-1,5.090798140E-1
1.942602731E0,-7.030295134E-1,3.077233732E-1,5.298492312E-1
1.944601897E0,-6.963100433E-1,4.378376603E-1,5.982661247E-1
1.946601063E0,-6.963100433E-1,4.378376603E-1,5.982661247E-1
1.948600229E0,-6.963100433E-1,4.378376603E-1,5.982661247E-1
1.950599462E0,-6.920339465E-1,4.531092942E-1,6.074291468E-1
1.952599495E0,-6.920339465E-1,4.531092942E-1,6.074291468E-1
1.954599528E0,-6.889796257E-1,4.793764949E-1,6.251442432E-1
1.956599528E0,-6.816492677E-1,5.056437254E-1,6.410267353E-1
1.958599528E0,-6.767623425E-1,5.294674635E-1,6.575200558E-1
1.960599494E0,-6.761514544E-1,5.441282392E-1,6.660721898E-1
1.962599460E0,-6.694319248E-1,5.679519773E-1,6.807329655E-1
1.964600293E0,-6.639341712E-1,5.936083198E-1,6.966154575E-1
1.966601126E0,-6.602689624E-1,6.101016402E-1,7.051675916E-1
1.968601959E0,-6.553820372E-1,6.369797587E-1,7.186065912E-1
1.970601925E0,-6.541603208E-1,6.644686460E-1,7.326564789E-1
1.972601925E0,-6.492733955E-1,6.772968173E-1,7.375434041E-1
1.974601958E0,-6.474407911E-1,7.072292566E-1,7.515933514E-1
1.976601991E0,-6.431647539E-1,7.347181439E-1,7.650323510E-1
1.978602024E0,-6.401104331E-1,7.634288669E-1,7.803040147E-1
1.980602057E0,-6.370561123E-1,7.756461501E-1,7.864126563E-1
1.982602090E0,-6.327800155E-1,8.031350970E-1,7.986299396E-1
1.984601256E0,-6.004042029E-1,9.161451459E-1,8.493317366E-1
1.986600422E0,-6.004042029E-1,9.161451459E-1,8.493317366E-1
1.988599588E0,-6.004042029E-1,9.161451459E-1,8.493317366E-1
1.990598921E0,-5.936846733E-1,9.259189963E-1,8.554404378E-1
1.992599054E0,-5.936846733E-1,9.259189963E-1,8.554404378E-1
1.994599354E0,-5.869651437E-1,9.356928468E-1,8.621599078E-1
1.996599354E0,-5.735260844E-1,9.564622641E-1,8.743772507E-1
1.998599354E0,-5.576435924E-1,9.747881889E-1,8.847619295E-1
2.000599354E0,-5.472589135E-1,9.784533978E-1,8.908706307E-1
2.002599354E0,-5.289329290E-1,9.918924570E-1,9.030879140E-1
2.004600187E0,-5.032765865E-1,1.001666307E0,9.146943688E-1
2.006601020E0,-4.941136241E-1,1.008996725E0,9.226356149E-1
2.008601853E0,-4.702898860E-1,1.023046613E0,9.391289353E-1
2.010602619E0,-4.428009391E-1,1.040150762E0,9.586766362E-1
2.012602585E0,-4.299727678E-1,1.051146388E0,9.696722031E-1
2.014602551E0,-4.024838507E-1,1.071304917E0,9.934959412E-1
2.016602517E0,-3.780492246E-1,1.092685223E0,1.016708851E0
2.018602483E0,-3.505602777E-1,1.116508961E0,1.046641231E0
2.020602483E0,-3.389538527E-1,1.129337072E0,1.060691118E0
2.022602516E0,-3.151301146E-1,1.151939154E0,1.090623498E0
2.024601682E0,-2.894737720E-1,1.178206325E0,1.121166825E0
2.026601715E0,-2.778673172E-1,1.195310593E0,1.137049317E0
2.028601748E0,-2.570978999E-1,1.218523502E0,1.170036077E0
2.030601781E0,-2.363284975E-1,1.241125464E0,1.198746681E0
2.032601814E0,-2.265546471E-1,1.251510143E0,1.211574912E0
2.034601814E0,-2.088395506E-1,1.272279620E0,1.237231255E0
2.036601814E0,-1.954005212E-1,1.290605545E0,1.261665821E0
2.038601780E0,-1.795180291E-1,1.304655433E0,1.277548313E0
2.040601746E0,-1.721876413E-1,1.308931470E0,1.284267783E0
2.042601712E0,-1.599703431E-1,1.316261888E0,1.295874238E0
2.044602545E0,-1.471421719E-1,1.313818455E0,1.298928618E0
2.046603378E0,-1.434769779E-1,1.312596679E0,1.298317671E0
2.048604544E0,-1.300379336E-1,1.305877209E0,1.294041634E0
2.050605210E0,-1.178206354E-1,1.300990224E0,1.285489559E0
2.052605110E0,-1.111011133E-1,1.297325015E0,1.277548313E0
2.054604843E0,-1.001055390E-1,1.288772941E0,1.258611441E0
2.056604876E0,-8.666650951E-2,1.277166486E0,1.232344270E0
2.058604909E0,-7.261660695E-2,1.266781807E0,1.201801062E0
2.060604942E0,-6.589708477E-2,1.260673165E0,1.184696794E0
2.062604975E0,-5.062545836E-2,1.250288486E0,1.144379735E0
2.064604141E0,-2.741257846E-2,1.234405994E0,1.082071424E0
2.066603274E0,-2.741257846E-2,1.234405994E0,1.082071424E0
2.068603274E0,-1.030835137E-2,1.228297234E0,1.036867380E0
2.070602874E0,1.290452853E-2,1.216690898E0,9.879981875E-1
2.072602874E0,2.206750773E-2,1.211803913E0,9.647852778E-1
2.074602874E0,4.405865446E-2,1.197754025E0,9.128617644E-1
2.076602874E0,6.421720982E-2,1.185536742E0,8.633816838E-1
2.078602874E0,7.582364976E-2,1.175762892E0,8.352818489E-1
2.080602874E0,1.002582610E-1,1.158658624E0,7.827474475E-1
2.082602840E0,1.222494096E-1,1.143997908E0,7.338782549E-1
2.084603673E0,1.472948790E-1,1.125671983E0,6.843981743E-1
2.086603639E0,1.619556546E-1,1.116508961E0,6.599635482E-1
2.088603605E0,1.845576614E-1,1.094517827E0,6.147595048E-1
2.090603571E0,2.126574665E-1,1.060309291E0,5.683337450E-1
2.092603537E0,2.224313021E-1,1.046870351E0,5.487860441E-1
2.094603503E0,2.493093759E-1,1.018770456E0,5.054146051E-1
2.096603469E0,2.767983079E-1,9.876163602E-1,4.693735838E-1
2.098603469E0,2.908482254E-1,9.692904353E-1,4.498258829E-1
2.100602835E0,3.152828217E-1,9.350819588E-1,4.156174362E-1
2.102602868E0,3.433826268E-1,9.020952582E-1,3.838524520E-1
2.104602034E0,4.221842289E-1,8.092437387E-1,3.074942827E-1
2.106601200E0,4.221842289E-1,8.092437387E-1,3.074942827E-1
2.108600033E0,4.350124002E-1,7.982481718E-1,2.983313203E-1
2.110599166E0,4.350124002E-1,7.982481718E-1,2.983313203E-1
2.112599166E0,4.466188550E-1,7.835873961E-1,2.891683280E-1
2.114599166E0,4.692208767E-1,7.530441284E-1,2.751184404E-1
2.116599132E0,4.924337566E-1,7.261660695E-1,2.616794109E-1
2.118599098E0,5.034292936E-1,7.115052938E-1,2.592359483E-1
2.120599064E0,5.235878825E-1,6.809620261E-1,2.500729561E-1
2.122599030E0,5.394703746E-1,6.498079300E-1,2.445751727E-1
2.124599863E0,5.590180755E-1,6.192646623E-1,2.402991205E-1
2.126600729E0,5.687919259E-1,6.021603942E-1,2.402991205E-1
2.128600729E0,5.822309256E-1,5.697845817E-1,2.396882474E-1
2.130601162E0,5.999460220E-1,5.386304259E-1,2.366339266E-1
2.132601195E0,6.048329473E-1,5.245805383E-1,2.348013222E-1
2.134601228E0,6.158285141E-1,4.970915914E-1,2.360230535E-1
2.136601261E0,6.262132525E-1,4.714352489E-1,2.329687327E-1
2.138601294E0,6.311001778E-1,4.586070776E-1,2.335795909E-1
2.140601327E0,6.414848566E-1,4.366159439E-1,2.293035388E-1
2.142601360E0,6.445391774E-1,4.134030640E-1,2.262492180E-1
2.144600526E0,6.427065730E-1,3.199406862E-1,2.085341215E-1
2.146599659E0,6.408740282E-1,3.016147017E-1,2.067015320E-1
2.148598792E0,6.408740282E-1,3.016147017E-1,2.067015320E-1
2.150598858E0,6.408740282E-1,3.016147017E-1,2.067015320E-1
2.152598958E0,6.396522522E-1,2.838996351E-1,2.012037337E-1
2.154598958E0,6.353762150E-1,2.466368377E-1,1.926516294E-1
2.156598958E0,6.274349689E-1,2.124283910E-1,1.822669208E-1
2.158598958E0,6.262132525E-1,1.928807050E-1,1.737148017E-1
2.160599591E0,6.188828349E-1,1.611157060E-1,1.627192348E-1
2.162599557E0,6.133850813E-1,1.305724531E-1,1.474476010E-1
2.164600390E0,6.072764397E-1,1.012509167E-1,1.358411610E-1
2.166601223E0,6.072764397E-1,8.475755155E-2,1.285107732E-1
2.168602056E0,6.023895144E-1,5.360342562E-2,1.162934676E-1
2.170602922E0,5.993351340E-1,2.977968007E-2,9.980010986E-2
2.172602888E0,5.975025892E-1,1.695151068E-2,9.369145334E-2
2.174602854E0,5.968917012E-1,-1.298088674E-2,7.964155823E-2
2.176603120E0,5.981134176E-1,-3.313944116E-2,6.742425263E-2
2.178603153E0,5.987243056E-1,-4.169155285E-2,6.192646548E-2
2.180603186E0,6.023895144E-1,-6.185010448E-2,5.032002553E-2
2.182603219E0,6.054438353E-1,-7.834346592E-2,3.565925732E-2
2.184602385E0,6.268240809E-1,-1.082758680E-1,-8.933904581E-3
2.186601551E0,6.268240809E-1,-1.082758680E-1,-8.933904581E-3
2.188600717E0,6.268240809E-1,-1.082758680E-1,-8.933904581E-3
2.190599917E0,6.268240809E-1,-1.082758680E-1,-8.933904581E-3
2.192599017E0,6.268240809E-1,-1.082758680E-1,-1.198823005E-2
2.194438537E0,6.335436106E-1,-1.052215397E-1,-1.504255645E-2
2.196439103E0,6.365979314E-1,-1.058324054E-1,-1.870774850E-2
2.198439069E0,6.433174610E-1,-9.911288321E-2,-2.176207490E-2
2.200439035E0,6.512587070E-1,-8.750644326E-2,-2.420553565E-2
2.202439001E0,6.591999531E-1,-7.223481685E-2,-2.298380435E-2
2.204439834E0,6.634759903E-1,-6.185010448E-2,-2.054034360E-2
2.206440700E0,6.726390123E-1,-4.046982154E-2,-1.809688285E-2
2.208441500E0,6.799693704E-1,-2.214386500E-2,-1.382082608E-2
2.210441466E0,6.903541088E-1,1.679879380E-3,-7.712173741E-3
2.212441399E0,6.952410340E-1,1.084285788E-2,-7.101308554E-3
2.214441432E0,7.044039965E-1,3.161227703E-2,2.290744742E-4
2.216441465E0,7.135669589E-1,5.299255997E-2,6.337726954E-3
2.218441498E0,7.178429961E-1,6.398813426E-2,9.392052889E-3
2.220441531E0,7.270060182E-1,8.170322329E-2,1.611157134E-2
2.222441564E0,7.361689806E-1,9.453139454E-2,2.160935849E-2
2.224440697E0,7.459428310E-1,1.104138941E-1,2.710714564E-2
2.226440697E0,7.489971519E-1,1.171334088E-1,2.893974073E-2
2.228440697E0,7.575492859E-1,1.269072592E-1,3.565925732E-2
2.230440697E0,7.667122483E-1,1.354593635E-1,3.627012298E-2
2.232440697E0,7.728208899E-1,1.360702366E-1,3.749185428E-2
2.234440697E0,7.789295316E-1,1.397354305E-1,3.871358559E-2
2.236440430E0,7.832056284E-1,1.385136992E-1,3.871358559E-2
2.238440396E0,7.862599492E-1,1.366810948E-1,3.993531689E-2
2.240440362E0,7.911468744E-1,1.269072592E-1,3.871358559E-2
2.242440328E0,7.935903072E-1,1.171334088E-1,3.504839167E-2
2.244441161E0,7.942011952E-1,1.134682223E-1,3.504839167E-2
2.246441994E0,7.960337996E-1,9.697485715E-2,3.016147204E-2
2.248442827E0,7.935903072E-1,8.231408894E-2,2.405281924E-2
2.250443593E0,7.899250984E-1,6.276640296E-2,1.855503209E-2
2.252444459E0,7.874816656E-1,5.543602258E-2,1.550070569E-2
2.254444459E0,7.795404196E-1,3.527746722E-2,1.244637929E-2
2.256443892E0,7.740426064E-1,1.878410578E-2,4.505131394E-3
2.258443925E0,7.697665691E-1,6.566801574E-3,-3.817907709E-4
2.260443958E0,7.575492859E-1,-1.603521220E-2,-5.268712528E-3
2.262443991E0,7.441102266E-1,-3.680463135E-2,-1.626428775E-2
2.264443157E0,7.178429961E-1,-7.223481685E-2,-3.092505224E-2
2.266442290E0,7.178429961E-1,-7.223481685E-2,-3.092505224E-2
2.268442090E0,6.976844668E-1,-9.728029370E-2,-3.947716579E-2
2.270442090E0,6.763041615E-1,-1.204931661E-1,-5.230533704E-2
2.272442056E0,6.628651619E-1,-1.320996135E-1,-5.902485549E-2
2.274442022E0,6.359871030E-1,-1.540907621E-1,-6.879869848E-2
2.276441988E0,6.109415889E-1,-1.797471046E-1,-8.284860104E-2
2.278441954E0,5.944482684E-1,-1.864666194E-1,-8.834638447E-2
2.280441920E0,5.639050007E-1,-2.078468949E-1,-1.005636901E-1
2.282441886E0,5.339725614E-1,-2.298380435E-1,-1.133918613E-1
2.284442752E0,5.174792409E-1,-2.377792895E-1,-1.207222417E-1
2.286442752E0,4.832707644E-1,-2.585487068E-1,-1.347721517E-1
2.288442752E0,4.496731758E-1,-2.750420868E-1,-1.463785917E-1
2.290442752E0,4.130212665E-1,-2.921462953E-1,-1.567633003E-1
2.292442752E0,3.977496326E-1,-2.970332205E-1,-1.616502106E-1
2.294442752E0,3.623194396E-1,-3.123048544E-1,-1.702023298E-1
2.296442752E0,3.287218511E-1,-3.233004212E-1,-1.811978966E-1
2.298442885E0,3.128393590E-1,-3.318525553E-1,-1.836413592E-1
2.300442885E0,2.810743749E-1,-3.397938013E-1,-1.909717470E-1
2.302442918E0,2.468659133E-1,-3.495676219E-1,-1.983021349E-1
2.304442084E0,1.668425649E-1,-3.654501438E-1,-2.111303061E-1
2.306441250E0,1.668425649E-1,-3.654501438E-1,-2.111303061E-1
2.308440416E0,1.534035355E-1,-3.642283976E-1,-2.129628956E-1
2.310439549E0,1.534035355E-1,-3.642283976E-1,-2.129628956E-1
2.312439282E0,1.424079537E-1,-3.666718602E-1,-2.123520374E-1
2.314439315E0,1.216385439E-1,-3.642283976E-1,-2.154063582E-1
2.316439315E0,1.027017161E-1,-3.611740768E-1,-2.166280895E-1
2.318439281E0,9.353873879E-2,-3.611740768E-1,-2.172389477E-1
2.320439247E0,8.071056753E-2,-3.556762934E-1,-2.202932835E-1
2.322439213E0,7.093672454E-2,-3.489567637E-1,-2.221258730E-1
2.324440046E0,6.910412759E-2,-3.446807265E-1,-2.239584774E-1
2.326440912E0,6.177374721E-2,-3.324634135E-1,-2.251801938E-1
2.328441178E0,5.871942267E-2,-3.251330256E-1,-2.276236564E-1
2.330441144E0,5.994115397E-2,-3.135266006E-1,-2.294562608E-1
2.332441144E0,6.055201590E-2,-3.074179292E-1,-2.312888503E-1
2.334441177E0,6.604980677E-2,-2.927571833E-1,-2.355649173E-1
2.336441210E0,7.276932150E-2,-2.756529450E-1,-2.380083650E-1
2.338441243E0,7.521278411E-2,-2.658790946E-1,-2.404518276E-1
2.340441276E0,8.437576145E-2,-2.475531399E-1,-2.447278947E-1
2.342441509E0,9.598220140E-2,-2.286163121E-1,-2.514474094E-1
2.344440675E0,1.356884390E-1,-1.498146951E-1,-2.685516477E-1
2.346439841E0,1.356884390E-1,-1.498146951E-1,-2.685516477E-1
2.348439007E0,1.356884390E-1,-1.498146951E-1,-2.685516477E-1
2.350438140E0,1.356884390E-1,-1.498146951E-1,-2.685516477E-1
2.352438140E0,1.460731477E-1,-1.351539344E-1,-2.728276849E-1
2.354438140E0,1.546252668E-1,-1.094975919E-1,-2.764928937E-1
2.356438140E0,1.631773859E-1,-8.139779419E-2,-2.826015353E-1
2.358438006E0,1.680642962E-1,-6.856962293E-2,-2.844341397E-1
2.360438006E0,1.747838110E-1,-3.985895589E-2,-2.887101769E-1
2.362437972E0,1.808924675E-1,-1.481348183E-2,-2.923753858E-1
2.364438805E0,1.802816093E-1,1.679879380E-3,-2.942079604E-1
2.366439638E0,1.845576614E-1,2.794708498E-2,-2.960405648E-1
2.368440471E0,1.857793927E-1,5.787948146E-2,-3.003166318E-1
2.370441337E0,1.851685345E-1,7.192938030E-2,-2.997057736E-1
2.372441603E0,1.851685345E-1,9.697485715E-2,-3.015383482E-1
2.374441169E0,1.827250719E-1,1.207986027E-1,-3.021492362E-1
2.376441135E0,1.790598780E-1,1.427897513E-1,-3.033709526E-1
2.378441135E0,1.760055423E-1,1.537853181E-1,-3.015383482E-1
2.380441368E0,1.717294902E-1,1.733330190E-1,-2.990948856E-1
2.382441401E0,1.662317067E-1,1.879937798E-1,-2.954297066E-1
2.384440567E0,1.338558495E-1,2.331978083E-1,-2.648864388E-1
2.386439733E0,1.338558495E-1,2.331978083E-1,-2.648864388E-1
2.388438899E0,1.338558495E-1,2.331978083E-1,-2.648864388E-1
2.390438199E0,1.338558495E-1,2.331978083E-1,-2.648864388E-1
2.392437432E0,1.301906556E-1,2.362521291E-1,-2.593886554E-1
2.394437065E0,1.259146035E-1,2.393064648E-1,-2.538908720E-1
2.396437031E0,1.204168126E-1,2.454151064E-1,-2.422844321E-1
2.398436997E0,1.161407530E-1,2.466368377E-1,-2.349540442E-1
2.400436963E0,1.118647009E-1,2.478585690E-1,-2.209041417E-1
2.402436729E0,1.057560444E-1,2.496911734E-1,-2.062433809E-1
2.404437562E0,1.033125818E-1,2.490803003E-1,-1.995238662E-1
2.406438395E0,1.020908505E-1,2.417499274E-1,-1.866956949E-1
2.408439228E0,9.842566401E-2,2.331978083E-1,-1.744783819E-1
2.410440094E0,9.720393270E-2,2.289217561E-1,-1.683697402E-1
2.412440127E0,9.903652966E-2,2.203696370E-1,-1.549306959E-1
2.414440160E0,9.842566401E-2,2.057088763E-1,-1.451568604E-1
2.416440193E0,9.964739531E-2,1.879937798E-1,-1.372155994E-1
2.418440226E0,1.008691266E-1,1.800525337E-1,-1.317178160E-1
2.420440259E0,1.051451787E-1,1.611157060E-1,-1.268308908E-1
2.422440292E0,1.081995070E-1,1.452332139E-1,-1.188896447E-1
2.424439458E0,1.112538353E-1,1.256855279E-1,-1.164461896E-1
2.426439124E0,1.136972904E-1,1.153008118E-1,-1.140027270E-1
2.428439124E0,1.173624843E-1,9.758572280E-2,-1.078940704E-1
2.430439124E0,1.198059469E-1,8.597928286E-2,-1.048397496E-1
2.432439124E0,1.234711409E-1,6.704246253E-2,-1.054506153E-1
2.434439524E0,1.283580661E-1,4.810563847E-2,-1.017854214E-1
2.436439524E0,1.326341182E-1,2.855795063E-2,-9.506590664E-2
2.438439524E0,1.338558495E-1,2.122756653E-2,-9.262244403E-2
2.440439290E0,1.387427747E-1,1.679879380E-3,-8.590292186E-2
2.442439256E0,1.405753642E-1,-2.214386500E-2,-8.101600409E-2
2.444440089E0,1.436296850E-1,-3.252857551E-2,-7.979427278E-2
2.446440922E0,1.442405581E-1,-5.451972410E-2,-7.124216110E-2
2.448441755E0,1.454622895E-1,-7.345654815E-2,-6.574437022E-2
2.450442455E0,1.448514163E-1,-8.261952549E-2,-6.269004941E-2
2.452443221E0,1.466840208E-1,-9.972374886E-2,-5.841398984E-2
2.454443554E0,1.466840208E-1,-1.101084575E-1,-5.047274008E-2
2.456443554E0,1.485166103E-1,-1.156062484E-1,-4.253149405E-2
2.458443554E0,1.503492147E-1,-1.174388453E-1,-4.008803144E-2
2.460443587E0,1.497383416E-1,-1.186605766E-1,-3.336851299E-2
2.462443620E0,1.497383416E-1,-1.211040318E-1,-2.603813075E-2
2.464442786E0,1.472948790E-1,-1.241583601E-1,-1.809688285E-2
2.466441919E0,1.472948790E-1,-1.241583601E-1,-1.809688285E-2
2.468441952E0,1.430188268E-1,-1.247692257E-1,-1.137736533E-2
2.470441985E0,1.417970955E-1,-1.241583601E-1,-5.879578181E-3
2.472441985E0,1.381319016E-1,-1.180497110E-1,-1.603521290E-3
2.474441951E0,1.320232451E-1,-1.149953827E-1,6.337726954E-3
2.476441917E0,1.301906556E-1,-1.119410545E-1,6.948592141E-3
2.478441883E0,1.277471930E-1,-1.064432710E-1,1.122464892E-2
2.480441849E0,1.234711409E-1,-9.605856240E-2,1.916589774E-2
2.482441815E0,1.191950813E-1,-8.261952549E-2,2.649627998E-2
2.484442648E0,1.173624843E-1,-7.773260027E-2,3.199406713E-2
2.486442981E0,1.124755666E-1,-6.490442902E-2,4.054617882E-2
2.488442981E0,1.094212383E-1,-5.574145541E-2,4.909829423E-2
2.490443014E0,1.075886413E-1,-5.390885845E-2,5.337435007E-2
2.492443514E0,1.051451787E-1,-4.291328415E-2,6.070473418E-2
2.494443547E0,9.842566401E-2,-3.436116874E-2,6.986771524E-2
2.496443580E0,9.781479836E-2,-3.069597855E-2,7.414376736E-2
2.498444446E0,9.414960444E-2,-1.970040426E-2,8.330674469E-2
2.500444479E0,9.353873879E-2,-1.053742506E-2,9.246972948E-2
2.502444512E0,9.476047009E-2,-3.817907767E-3,9.857837856E-2
2.504443678E0,9.109527618E-2,1.206458826E-2,1.162934676E-1
2.506442811E0,9.109527618E-2,1.206458826E-2,1.162934676E-1
2.508441944E0,9.414960444E-2,1.084285788E-2,1.169043332E-1
2.510441277E0,9.414960444E-2,1.084285788E-2,1.169043332E-1
2.512441277E0,9.537133574E-2,1.328631863E-2,1.211803928E-1
2.514441277E0,9.659306705E-2,1.389718428E-2,1.242347211E-1
2.516441277E0,9.781479836E-2,1.450804994E-2,1.248455867E-1
2.518440577E0,9.903652966E-2,1.267545391E-2,1.278999150E-1
2.520440543E0,1.008691266E-1,1.206458826E-2,1.297325045E-1
2.522440509E0,1.063669100E-1,8.399397135E-3,1.297325045E-1
2.524441342E0,1.069777757E-1,8.399397135E-3,1.297325045E-1
2.526442208E0,1.100321040E-1,1.023199316E-2,1.315651089E-1
2.528442174E0,1.149190217E-1,9.010262787E-3,1.309542358E-1
2.530442140E0,1.161407530E-1,7.788531948E-3,1.297325045E-1
2.532442106E0,1.228602752E-1,9.010262787E-3,1.321759671E-1
2.534442106E0,1.265254617E-1,9.621127509E-3,1.291216463E-1
2.536442106E0,1.271363348E-1,7.788531948E-3,1.321759671E-1
2.538442139E0,1.301906556E-1,1.084285788E-2,1.297325045E-1
2.540442172E0,1.338558495E-1,1.023199316E-2,1.285107732E-1
2.542442205E0,1.356884390E-1,1.267545391E-2,1.254564524E-1
2.544441371E0,1.405753642E-1,1.756237634E-2,1.242347211E-1
2.546440537E0,1.417970955E-1,1.756237634E-2,1.242347211E-1
2.548439703E0,1.417970955E-1,1.756237634E-2,1.242347211E-1
2.550438803E0,1.417970955E-1,1.756237634E-2,1.242347211E-1
2.552438469E0,1.436296850E-1,1.939497143E-2,1.248455867E-1
2.554438435E0,1.424079537E-1,2.061670274E-2,1.242347211E-1
2.556438401E0,1.436296850E-1,2.183843218E-2,1.248455867E-1
2.558437534E0,1.430188268E-1,2.428189293E-2,1.236238554E-1
2.560437500E0,1.454622895E-1,2.733621933E-2,1.230129898E-1
2.562437466E0,1.460731477E-1,3.100141138E-2,1.230129898E-1
2.564438299E0,1.460731477E-1,3.405573592E-2,1.236238554E-1
2.566439165E0,1.479057521E-1,3.833179548E-2,1.236238554E-1
2.568440065E0,1.497383416E-1,4.138612002E-2,1.242347211E-1
2.570440765E0,1.503492147E-1,4.260785133E-2,1.230129898E-1
2.572440798E0,1.497383416E-1,4.505131021E-2,1.211803928E-1
2.574440831E0,1.546252668E-1,4.688390717E-2,1.211803928E-1
2.576440864E0,1.534035355E-1,4.810563847E-2,1.205695271E-1
2.578441597E0,1.558469981E-1,4.993823543E-2,1.199586615E-1
2.580441797E0,1.595121920E-1,5.177082866E-2,1.187369302E-1
2.582441830E0,1.595121920E-1,5.299255997E-2,1.150717437E-1
2.584440963E0,1.637882441E-1,5.360342562E-2,1.065196246E-1
2.586440096E0,1.637882441E-1,5.360342562E-2,1.065196246E-1
2.588439229E0,1.643991023E-1,5.115996301E-2,1.046870351E-1
2.590438362E0,1.643991023E-1,5.115996301E-2,1.046870351E-1
2.592437562E0,1.643991023E-1,5.115996301E-2,1.046870351E-1
2.594437562E0,1.631773859E-1,5.115996301E-2,1.028544381E-1
2.596437528E0,1.637882441E-1,4.871650413E-2,9.918924421E-2
2.598437494E0,1.650099754E-1,4.810563847E-2,9.430231899E-2
2.600437460E0,1.650099754E-1,4.688390717E-2,9.124799818E-2
2.602437426E0,1.625665128E-1,4.505131021E-2,8.819366992E-2
2.604438259E0,1.619556546E-1,3.894266114E-2,8.086328954E-2
2.606439092E0,1.613447815E-1,3.527746722E-2,7.475463301E-2
2.608439925E0,1.607339233E-1,2.855795063E-2,6.864598393E-2
2.610440791E0,1.570687294E-1,2.733621933E-2,6.742425263E-2
2.612440624E0,1.534035355E-1,2.306016348E-2,6.070473418E-2
2.614440624E0,1.479057521E-1,1.817324013E-2,5.520694703E-2
2.616440657E0,1.472948790E-1,1.572977938E-2,5.032002553E-2
2.618440690E0,1.424079537E-1,1.145372353E-2,4.482223839E-2
2.620440723E0,1.356884390E-1,7.788531948E-3,3.993531689E-2
2.622440756E0,1.338558495E-1,9.010262787E-3,3.627012298E-2
2.624439922E0,1.259146035E-1,7.177666761E-3,2.588541433E-2
2.626439955E0,1.234711409E-1,5.955935922E-3,2.466368489E-2
2.628439955E0,1.179733500E-1,7.177666761E-3,2.038762718E-2
2.630439921E0,1.149190217E-1,7.788531948E-3,1.794416644E-2
2.632439887E0,1.088103727E-1,7.788531948E-3,1.611157134E-2
2.634439853E0,1.063669100E-1,8.399397135E-3,1.122464892E-2
2.636439819E0,1.027017161E-1,1.084285788E-2,1.061378326E-2
2.638439785E0,9.842566401E-2,9.010262787E-3,8.170322515E-3
2.640439585E0,9.231700748E-2,1.145372353E-2,5.726861767E-3
2.642439551E0,8.865182102E-2,1.084285788E-2,5.115996581E-3
2.644440417E0,8.620835841E-2,1.267545391E-2,4.505131394E-3
2.646440883E0,8.132143319E-2,1.023199316E-2,2.061670180E-3
2.648441749E0,7.521278411E-2,1.206458826E-2,1.450804994E-3
2.650442615E0,7.215845585E-2,1.084285788E-2,2.061670180E-3
2.652443415E0,6.788240373E-2,1.328631863E-2,2.061670180E-3
2.654443415E0,6.604980677E-2,1.450804994E-2,-3.817907709E-4
2.656443448E0,6.238461286E-2,1.511891466E-2,1.450804994E-3
2.658442581E0,5.749769136E-2,1.817324013E-2,2.061670180E-3
2.660442581E0,5.444336683E-2,2.183843218E-2,3.283400787E-3
2.662442614E0,5.199990422E-2,2.489275858E-2,3.894265974E-3
2.664441780E0,4.711298272E-2,2.916881628E-2,3.283400787E-3
2.666440913E0,4.711298272E-2,2.916881628E-2,3.283400787E-3
2.668440946E0,4.650211707E-2,3.161227703E-2,3.894265974E-3
2.670440979E0,4.528038576E-2,3.222314268E-2,3.894265974E-3
2.672441012E0,4.589125142E-2,3.649919853E-2,6.948592141E-3
2.674441045E0,4.405865446E-2,3.588833287E-2,7.559457328E-3
2.676441045E0,4.161519557E-2,3.772092983E-2,8.170322515E-3
2.678441011E0,4.466952011E-2,3.894266114E-2,7.559457328E-3
2.680440977E0,4.405865446E-2,4.260785133E-2,9.392052889E-3
2.682440943E0,4.711298272E-2,4.199698567E-2,8.781188168E-3
2.684441776E0,4.589125142E-2,4.688390717E-2,8.781188168E-3
2.686441742E0,5.016730726E-2,5.054909736E-2,9.392052889E-3
2.688441708E0,5.077817291E-2,5.238169432E-2,9.392052889E-3
2.690441708E0,5.261076987E-2,5.299255997E-2,9.392052889E-3
2.692441708E0,5.383250117E-2,5.604688451E-2,8.170322515E-3
2.694441741E0,5.505422875E-2,5.726861581E-2,8.781188168E-3
2.696441774E0,5.627596006E-2,5.971207842E-2,8.781188168E-3
2.698441807E0,5.810855702E-2,5.787948146E-2,1.183551457E-2
2.700441840E0,5.933028832E-2,5.910121277E-2,1.122464892E-2
2.702441873E0,5.749769136E-2,6.093380973E-2,1.061378326E-2
2.704441039E0,6.360634416E-2,6.398813426E-2,1.733330078E-2
2.706440605E0,6.360634416E-2,6.398813426E-2,1.733330078E-2
2.708439771E0,6.360634416E-2,6.398813426E-2,1.733330078E-2
2.710438871E0,6.299547851E-2,6.398813426E-2,1.916589774E-2
2.712438571E0,6.482807547E-2,6.459899992E-2,1.916589774E-2
2.714438571E0,6.604980677E-2,6.276640296E-2,2.283108793E-2
2.716438571E0,6.604980677E-2,6.154467165E-2,2.405281924E-2
2.718439437E0,6.543894112E-2,6.276640296E-2,2.527454868E-2
2.720439437E0,6.604980677E-2,5.787948146E-2,2.771801129E-2
2.722439403E0,6.604980677E-2,5.849034712E-2,2.832887508E-2
2.724440269E0,6.482807547E-2,5.726861581E-2,3.077233583E-2
2.726441169E0,6.421720982E-2,5.360342562E-2,3.016147204E-2
2.728441169E0,6.238461286E-2,4.932736978E-2,3.199406713E-2
2.730441169E0,6.421720982E-2,5.177082866E-2,3.321579844E-2
2.732441169E0,6.055201590E-2,4.749477282E-2,3.627012298E-2
2.734441169E0,6.238461286E-2,4.382958263E-2,3.688098863E-2
2.736441169E0,6.055201590E-2,4.382958263E-2,3.749185428E-2
2.738441202E0,5.749769136E-2,4.077525437E-2,3.932445124E-2
2.740441202E0,5.749769136E-2,3.894266114E-2,3.993531689E-2
2.742441202E0,5.933028832E-2,3.649919853E-2,3.810271993E-2
2.744440335E0,5.444336683E-2,2.855795063E-2,4.115704447E-2
2.746439468E0,5.444336683E-2,2.855795063E-2,4.115704447E-2
2.748438601E0,5.383250117E-2,3.100141138E-2,3.932445124E-2
2.750437967E0,5.383250117E-2,3.100141138E-2,3.932445124E-2
2.752437533E0,5.199990422E-2,2.733621933E-2,4.115704447E-2
2.754437499E0,5.322163552E-2,2.244929783E-2,4.054617882E-2
2.756437199E0,4.894557595E-2,2.244929783E-2,4.176791012E-2
2.758437165E0,4.894557595E-2,1.939497143E-2,4.115704447E-2
2.760437131E0,4.711298272E-2,1.328631863E-2,4.054617882E-2
2.762437097E0,4.528038576E-2,1.328631863E-2,3.871358559E-2
2.764437930E0,4.589125142E-2,1.023199316E-2,3.504839167E-2
2.766438763E0,4.161519557E-2,9.621127509E-3,3.688098863E-2
2.768439596E0,3.917173296E-2,9.010262787E-3,3.627012298E-2
2.770440496E0,3.672827408E-2,9.621127509E-3,3.810271993E-2
2.772440829E0,3.550654277E-2,8.399397135E-3,3.627012298E-2
2.774440862E0,3.245221451E-2,8.399397135E-3,3.810271993E-2
2.776440895E0,3.123048507E-2,7.788531948E-3,3.565925732E-2
2.778440928E0,2.817615867E-2,8.399397135E-3,3.810271993E-2
2.780440961E0,2.573269792E-2,5.955935922E-3,3.932445124E-2
2.782440994E0,2.451096848E-2,4.734205548E-3,3.993531689E-2
2.784440127E0,1.229366288E-2,4.734205548E-3,4.726569727E-2
2.786439260E0,1.229366288E-2,5.955935922E-3,4.848742858E-2
2.788438360E0,1.229366288E-2,5.955935922E-3,4.848742858E-2
2.790437426E0,1.229366288E-2,5.955935922E-3,4.848742858E-2
2.792436526E0,1.229366288E-2,5.955935922E-3,4.848742858E-2
2.794436492E0,8.628471754E-3,6.566801574E-3,5.032002553E-2
2.796436458E0,6.795875728E-3,7.177666761E-3,5.276348442E-2
2.798436424E0,3.741549561E-3,7.788531948E-3,5.520694703E-2
2.800436424E0,3.130684374E-3,1.023199316E-2,5.642867833E-2
2.802436424E0,1.908953884E-3,1.084285788E-2,5.703954399E-2
2.804437290E0,7.635815564E-5,1.084285788E-2,5.887213722E-2
2.806438156E0,-5.345070967E-4,1.145372353E-2,6.070473418E-2
2.808439022E0,-1.145372284E-3,1.267545391E-2,6.253732741E-2
2.810439655E0,-3.588833380E-3,1.328631863E-2,6.375905871E-2
2.812440088E0,-4.810563754E-3,1.389718428E-2,6.436992437E-2
2.814440088E0,-8.475755341E-3,1.206458826E-2,6.498079002E-2
2.816440354E0,-9.697485715E-3,1.389718428E-2,6.436992437E-2
2.818440387E0,-1.336267684E-2,1.267545391E-2,6.498079002E-2
2.820440420E0,-1.519527286E-2,1.634064503E-2,6.498079002E-2
2.822440453E0,-1.519527286E-2,1.572977938E-2,6.375905871E-2
2.824439619E0,-1.824959926E-2,1.572977938E-2,6.498079002E-2
2.826439652E0,-2.069306001E-2,1.756237634E-2,6.253732741E-2
2.828439685E0,-2.130392566E-2,2.122756653E-2,6.314819306E-2
2.830439718E0,-2.313652076E-2,2.244929783E-2,6.192646548E-2
2.832439718E0,-2.619084716E-2,2.611448988E-2,6.070473418E-2
2.834439684E0,-2.924517356E-2,2.916881628E-2,5.826127157E-2
2.836439650E0,-3.046690486E-2,2.794708498E-2,5.765040591E-2
2.838439616E0,-3.291036561E-2,3.161227703E-2,5.581781268E-2
2.840439582E0,-3.352123126E-2,3.100141138E-2,5.520694703E-2
2.842439548E0,-3.596469015E-2,3.161227703E-2,5.398521572E-2
2.844440381E0,-3.840815276E-2,3.344487399E-2,5.154175684E-2
2.846441214E0,-4.024074972E-2,3.100141138E-2,4.848742858E-2
2.848442080E0,-4.207334295E-2,2.916881628E-2,4.726569727E-2
2.850443013E0,-4.512767121E-2,3.100141138E-2,4.726569727E-2
2.852443913E0,-4.757113010E-2,2.733621933E-2,4.604396969E-2
2.854444046E0,-4.879286140E-2,2.611448988E-2,4.482223839E-2
2.856444079E0,-5.123632401E-2,2.428189293E-2,4.421137273E-2
2.858444112E0,-5.490151420E-2,2.122756653E-2,4.237877578E-2
2.860444145E0,-5.795583874E-2,1.450804994E-2,3.993531689E-2
2.862444178E0,-6.039930135E-2,1.450804994E-2,3.932445124E-2
2.864443344E0,-6.528622657E-2,5.345070735E-3,3.565925732E-2
2.866442444E0,-6.528622657E-2,5.345070735E-3,3.565925732E-2
2.868442444E0,-6.650795043E-2,5.955935922E-3,3.627012298E-2
2.870442444E0,-7.200574130E-2,2.290744567E-3,3.565925732E-2
2.872442444E0,-7.567093521E-2,1.069014193E-3,3.688098863E-2
2.874442444E0,-7.689265907E-2,-1.985311974E-3,3.260493279E-2
2.876442444E0,-8.116871864E-2,-3.207042580E-3,3.504839167E-2
2.878442410E0,-8.544477820E-2,-4.428773187E-3,3.688098863E-2
2.880441976E0,-8.666650951E-2,-8.093964309E-3,3.749185428E-2
2.882441942E0,-8.788824081E-2,-1.114829071E-2,3.627012298E-2
2.884442775E0,-9.338602424E-2,-1.114829071E-2,3.871358559E-2
2.886442741E0,-9.460775554E-2,-1.237002108E-2,3.871358559E-2
2.888442707E0,-9.521862119E-2,-1.298088674E-2,4.115704447E-2
2.890442673E0,-9.399688989E-2,-1.237002108E-2,4.115704447E-2
2.892442639E0,-9.521862119E-2,-1.298088674E-2,4.054617882E-2
2.894442639E0,-9.582948685E-2,-1.237002108E-2,4.115704447E-2
2.896442672E0,-9.399688989E-2,-1.237002108E-2,4.176791012E-2
2.898442705E0,-9.399688989E-2,-1.298088674E-2,4.176791012E-2
2.900442738E0,-9.338602424E-2,-1.175915636E-2,4.482223839E-2
2.902442771E0,-9.155342728E-2,-1.420261711E-2,4.421137273E-2
2.904441937E0,-8.727737516E-2,-1.481348183E-2,4.726569727E-2
2.906441103E0,-8.727737516E-2,-1.481348183E-2,4.726569727E-2
2.908440269E0,-8.727737516E-2,-1.481348183E-2,4.726569727E-2
2.910440402E0,-8.727737516E-2,-1.481348183E-2,4.726569727E-2
2.912440835E0,-8.483391255E-2,-1.664607786E-2,5.032002553E-2
2.914440701E0,-8.300131559E-2,-1.298088674E-2,4.970915988E-2
2.916440667E0,-8.116871864E-2,-1.542434748E-2,5.093089119E-2
2.918440633E0,-7.933612168E-2,-1.237002108E-2,5.276348442E-2
2.920440599E0,-7.689265907E-2,-1.237002108E-2,5.459608138E-2
2.922440565E0,-7.628180087E-2,-1.298088674E-2,5.215261877E-2
2.924441398E0,-7.567093521E-2,-1.114829071E-2,5.337435007E-2
2.926442298E0,-7.383833826E-2,-8.704829961E-3,5.337435007E-2
2.928442331E0,-7.506006956E-2,-6.872233935E-3,5.276348442E-2
2.930442364E0,-7.567093521E-2,-5.039638374E-3,5.276348442E-2
2.932442397E0,-7.261660695E-2,-3.817907767E-3,5.215261877E-2
2.934442430E0,-7.383833826E-2,-7.635815418E-4,5.337435007E-2
2.936442463E0,-7.506006956E-2,4.581489484E-4,5.337435007E-2
2.938442496E0,-7.506006956E-2,4.734205548E-3,4.970915988E-2
2.940442929E0,-7.567093521E-2,9.010262787E-3,5.032002553E-2
2.942442962E0,-7.567093521E-2,1.023199316E-2,4.909829423E-2
2.944442095E0,-8.116871864E-2,2.672535367E-2,4.543310404E-2
2.946441228E0,-8.116871864E-2,2.672535367E-2,4.543310404E-2
2.948440361E0,-8.116871864E-2,2.855795063E-2,4.482223839E-2
2.950439461E0,-8.116871864E-2,2.855795063E-2,4.482223839E-2
2.952439461E0,-8.116871864E-2,3.100141138E-2,4.421137273E-2
2.954439461E0,-8.300131559E-2,3.161227703E-2,4.298964143E-2
2.956439427E0,-8.116871864E-2,3.588833287E-2,4.176791012E-2
2.958439393E0,-8.239044994E-2,4.077525437E-2,3.993531689E-2
2.960439359E0,-8.177958429E-2,4.260785133E-2,3.810271993E-2
2.962439325E0,-8.116871864E-2,4.810563847E-2,3.810271993E-2
2.964440158E0,-8.116871864E-2,5.299255997E-2,3.565925732E-2
2.966440991E0,-8.116871864E-2,5.910121277E-2,3.504839167E-2
2.968441824E0,-7.933612168E-2,6.276640296E-2,3.382666409E-2
2.970441657E0,-7.933612168E-2,7.070764899E-2,3.016147204E-2
2.972441190E0,-7.872525603E-2,7.559457421E-2,2.832887508E-2
2.974441223E0,-7.750352472E-2,8.231408894E-2,2.955060638E-2
2.976441256E0,-7.872525603E-2,8.903361112E-2,2.832887508E-2
2.978441289E0,-7.872525603E-2,9.514226019E-2,2.649627998E-2
2.980441322E0,-8.055785298E-2,9.758572280E-2,2.771801129E-2
2.982441355E0,-8.055785298E-2,9.941831976E-2,2.649627998E-2
2.984440521E0,-7.750352472E-2,1.177442744E-1,3.138320148E-2
2.986439687E0,-7.750352472E-2,1.177442744E-1,3.138320148E-2
2.988438820E0,-7.689265907E-2,1.195768714E-1,3.382666409E-2
2.990437986E0,-7.689265907E-2,1.195768714E-1,3.382666409E-2
2.992437152E0,-7.689265907E-2,1.195768714E-1,3.382666409E-2
2.994437118E0,-7.567093521E-2,1.177442744E-1,3.627012298E-2
2.996437084E0,-7.261660695E-2,1.183551401E-1,4.054617882E-2
2.998437050E0,-7.017314434E-2,1.146899462E-1,4.298964143E-2
3.000437016E0,-7.017314434E-2,1.171334088E-1,4.482223839E-2
3.002436982E0,-6.772968173E-2,1.128573567E-1,4.665483162E-2
3.004437848E0,-6.406449527E-2,1.067487001E-1,5.093089119E-2
3.006438748E0,-6.101016700E-2,1.024726480E-1,5.581781268E-2
3.008439648E0,-6.039930135E-2,1.018617824E-1,5.765040591E-2
3.010440581E0,-5.795583874E-2,9.636399150E-2,6.314819306E-2
3.012440614E0,-5.429064855E-2,8.903361112E-2,6.742425263E-2
3.014440647E0,-5.184718594E-2,8.475755155E-2,6.925684959E-2
3.016440680E0,-4.940372705E-2,7.559457421E-2,7.353290170E-2
3.018440713E0,-4.512767121E-2,6.643159688E-2,7.903069258E-2
3.020440746E0,-4.451680556E-2,5.971207842E-2,7.964155823E-2
3.022440746E0,-4.207334295E-2,4.871650413E-2,8.391761035E-2
3.024439879E0,-3.901901841E-2,3.894266114E-2,8.636107296E-2
3.026439879E0,-3.718642145E-2,3.100141138E-2,8.636107296E-2
3.028439279E0,-3.718642145E-2,2.550362423E-2,8.575020730E-2
3.030439279E0,-3.657555580E-2,1.450804994E-2,8.819366992E-2
3.032439279E0,-3.046690486E-2,9.621127509E-3,8.697193861E-2
3.034439512E0,-3.107776865E-2,4.734205548E-3,8.697193861E-2
3.036439478E0,-3.046690486E-2,-2.596177394E-3,8.452847600E-2
3.038439444E0,-2.863430791E-2,-6.872233935E-3,8.636107296E-2
3.040439410E0,-2.863430791E-2,-8.704829961E-3,8.391761035E-2
3.042439376E0,-3.046690486E-2,-8.093964309E-3,8.269587904E-2
3.044440209E0,-2.802344225E-2,-9.315694682E-3,8.330674469E-2
3.046441042E0,-2.619084716E-2,-1.053742506E-2,8.208502084E-2
3.048441875E0,-2.619084716E-2,-7.483099122E-3,8.086328954E-2
3.050442675E0,-2.863430791E-2,-9.926560335E-3,8.269587904E-2
3.052443508E0,-2.741257846E-2,-1.114829071E-2,8.086328954E-2
3.054443541E0,-3.168863431E-2,-8.093964309E-3,7.964155823E-2
3.056443574E0,-2.985603921E-2,-6.261368748E-3,7.719809562E-2
3.058443607E0,-3.352123126E-2,-1.985311974E-3,7.597636431E-2
3.060443640E0,-3.291036561E-2,-2.596177394E-3,7.536549866E-2
3.062443673E0,-3.474296257E-2,-1.374446787E-3,7.108944654E-2
3.064442839E0,-3.779728711E-2,3.512475174E-3,6.681338698E-2
3.066441939E0,-3.779728711E-2,3.512475174E-3,6.681338698E-2
3.068441572E0,-3.718642145E-2,4.734205548E-3,6.436992437E-2
3.070441538E0,-3.962988406E-2,9.010262787E-3,6.192646548E-2
3.072441504E0,-3.840815276E-2,1.267545391E-2,5.826127157E-2
3.074441470E0,-3.779728711E-2,1.389718428E-2,5.826127157E-2
3.076441436E0,-3.962988406E-2,1.756237634E-2,5.581781268E-2
3.078441402E0,-4.085161164E-2,2.244929783E-2,5.520694703E-2
3.080441368E0,-4.207334295E-2,2.244929783E-2,5.642867833E-2
3.082440968E0,-4.207334295E-2,2.611448988E-2,5.581781268E-2
3.084441868E0,-4.390593991E-2,2.794708498E-2,5.398521572E-2
3.086441901E0,-4.268420860E-2,2.977968007E-2,5.398521572E-2
3.088442534E0,-4.329507425E-2,3.039054573E-2,5.398521572E-2
3.090442567E0,-4.390593991E-2,2.855795063E-2,5.520694703E-2
3.092442600E0,-4.451680556E-2,2.855795063E-2,5.398521572E-2
3.094442366E0,-4.573853686E-2,2.977968007E-2,5.642867833E-2
3.096442399E0,-4.390593991E-2,2.611448988E-2,5.826127157E-2
3.098442432E0,-4.634939879E-2,2.428189293E-2,5.887213722E-2
3.100442432E0,-4.451680556E-2,1.878410578E-2,6.009386852E-2
3.102442432E0,-4.451680556E-2,1.389718428E-2,6.131559983E-2
3.104441565E0,-4.024074972E-2,9.621127509E-3,6.864598393E-2
3.106440698E0,-4.024074972E-2,9.621127509E-3,6.864598393E-2
3.108439831E0,-4.024074972E-2,9.621127509E-3,6.864598393E-2
3.110439197E0,-4.024074972E-2,9.621127509E-3,6.864598393E-2
3.112439030E0,-3.718642145E-2,7.177666761E-3,7.292203605E-2
3.114438996E0,-3.535382450E-2,2.901609987E-3,7.353290170E-2
3.116438962E0,-3.291036561E-2,4.123340361E-3,7.475463301E-2
3.118438928E0,-2.985603921E-2,4.123340361E-3,7.780896127E-2
3.120438894E0,-2.924517356E-2,4.581489484E-4,7.658722997E-2
3.122438860E0,-2.741257846E-2,-7.635815418E-4,8.025242388E-2
3.124439693E0,-2.313652076E-2,-7.635815418E-4,7.903069258E-2
3.126440559E0,-2.313652076E-2,-1.985311974E-3,7.780896127E-2
3.128440892E0,-2.008219436E-2,-1.985311974E-3,7.719809562E-2
3.130440925E0,-1.702786796E-2,-3.817907767E-3,7.719809562E-2
3.132440958E0,-1.458440814E-2,-1.374446787E-3,7.475463301E-2
3.134440991E0,-1.336267684E-2,-3.207042580E-3,7.475463301E-2
3.136441024E0,-9.086620063E-3,-1.374446787E-3,7.475463301E-2
3.138441057E0,-9.086620063E-3,-7.635815418E-4,7.292203605E-2
3.140441090E0,-7.864889689E-3,-1.527163113E-4,7.108944654E-2
3.142441523E0,-6.032294128E-3,1.069014193E-3,6.803511828E-2
3.144440656E0,-2.977967961E-3,9.010262787E-3,6.559165567E-2
3.146439756E0,-2.977967961E-3,9.010262787E-3,6.559165567E-2
3.148438856E0,-2.977967961E-3,9.010262787E-3,6.559165567E-2
3.150438256E0,-2.977967961E-3,8.399397135E-3,6.559165567E-2
3.152438222E0,-3.588833380E-3,1.084285788E-2,6.620252132E-2
3.154438188E0,-4.810563754E-3,1.267545391E-2,6.559165567E-2
3.156438154E0,-4.199698567E-3,1.634064503E-2,6.559165567E-2
3.158438120E0,-3.588833380E-3,1.695151068E-2,6.498079002E-2
3.160438120E0,-6.032294128E-3,1.817324013E-2,6.742425263E-2
3.162438153E0,-3.588833380E-3,2.183843218E-2,6.986771524E-2
3.164439053E0,-4.199698567E-3,2.428189293E-2,7.170030475E-2
3.166439953E0,-5.421428941E-3,2.672535367E-2,7.292203605E-2
3.168440853E0,-5.421428941E-3,2.733621933E-2,7.597636431E-2
3.170441519E0,-3.588833380E-3,3.100141138E-2,7.658722997E-2
3.172441685E0,-2.977967961E-3,3.161227703E-2,8.086328954E-2
3.174441718E0,-3.588833380E-3,3.039054573E-2,8.025242388E-2
3.176441751E0,-4.199698567E-3,3.039054573E-2,8.575020730E-2
3.178441751E0,-2.367102774E-3,2.916881628E-2,8.758280426E-2
3.180441751E0,-1.756237587E-3,2.672535367E-2,8.758280426E-2
3.182441751E0,-1.756237587E-3,2.489275858E-2,9.063713253E-2
3.184440884E0,1.298088697E-3,1.084285788E-2,9.857837856E-2
3.186440017E0,1.298088697E-3,1.084285788E-2,9.857837856E-2
3.188439150E0,1.908953884E-3,1.084285788E-2,1.010218412E-1
3.190438250E0,1.908953884E-3,1.084285788E-2,1.010218412E-1
3.192437483E0,1.908953884E-3,1.084285788E-2,1.010218412E-1
3.194437449E0,1.908953884E-3,6.566801574E-3,9.918924421E-2
3.196438082E0,1.908953884E-3,5.345070735E-3,1.034653038E-1
3.198438048E0,2.519819187E-3,2.901609987E-3,1.034653038E-1
3.200438014E0,4.352414981E-3,-2.596177394E-3,1.028544381E-1
3.202437980E0,4.352414981E-3,-2.596177394E-3,1.046870351E-1
3.204438813E0,6.795875728E-3,-8.704829961E-3,1.052978933E-1
3.206439679E0,7.406740915E-3,-8.704829961E-3,1.077413559E-1
3.208440545E0,9.239336476E-3,-1.175915636E-2,1.065196246E-1
3.210441145E0,1.046106778E-2,-1.847867295E-2,1.077413559E-1
3.212441178E0,1.290452853E-2,-1.908953860E-2,1.077413559E-1
3.214440811E0,1.290452853E-2,-1.908953860E-2,1.095739529E-1
3.216440844E0,1.534798928E-2,-2.336559631E-2,1.083522215E-1
3.218440877E0,1.840231568E-2,-2.703078650E-2,1.077413559E-1
3.220440910E0,1.901318133E-2,-2.580905706E-2,1.065196246E-1
3.222440910E0,1.962404512E-2,-2.886338346E-2,1.065196246E-1
3.224440010E0,2.084577642E-2,-2.397646010E-2,1.040761694E-1
3.226439976E0,2.206750773E-2,-2.397646010E-2,1.059087589E-1
3.228439942E0,2.390010282E-2,-2.336559631E-2,1.065196246E-1
3.230439908E0,2.390010282E-2,-1.970040426E-2,1.028544381E-1
3.232439874E0,2.512183413E-2,-1.603521220E-2,1.004109755E-1
3.234439840E0,2.573269792E-2,-1.725694351E-2,1.010218412E-1
3.236439806E0,2.817615867E-2,-1.114829071E-2,1.010218412E-1
3.238439806E0,2.939788997E-2,-8.704829961E-3,9.857837856E-2
3.240439839E0,3.000875562E-2,-6.261368748E-3,9.980010986E-2
3.242439872E0,3.123048507E-2,-4.428773187E-3,9.796751291E-2
3.244440772E0,3.245221451E-2,1.679879380E-3,9.674578160E-2
3.246441272E0,3.611740842E-2,1.679879380E-3,9.491318464E-2
3.248442172E0,3.672827408E-2,5.345070735E-3,9.430231899E-2
3.250443072E0,3.672827408E-2,1.145372353E-2,9.491318464E-2
3.252443838E0,3.672827408E-2,1.267545391E-2,9.430231899E-2
3.254443871E0,3.978259861E-2,1.511891466E-2,9.430231899E-2
3.256443204E0,4.039346427E-2,1.756237634E-2,9.185886383E-2
3.258443204E0,4.039346427E-2,1.939497143E-2,9.124799818E-2
3.260443204E0,4.039346427E-2,2.000583708E-2,9.246972948E-2
3.262443204E0,4.039346427E-2,2.122756653E-2,9.185886383E-2
3.264442337E0,4.039346427E-2,2.428189293E-2,9.246972948E-2
3.266441437E0,4.039346427E-2,2.428189293E-2,9.124799818E-2
3.268441437E0,4.100432992E-2,2.489275858E-2,9.308059514E-2
3.270441403E0,3.917173296E-2,2.733621933E-2,9.430231899E-2
3.272441369E0,4.039346427E-2,2.733621933E-2,9.308059514E-2
3.274441735E0,3.856086731E-2,3.100141138E-2,9.613491595E-2
3.276441701E0,3.856086731E-2,2.977968007E-2,9.491318464E-2
3.278441667E0,3.856086731E-2,3.161227703E-2,9.613491595E-2
3.280441633E0,3.672827408E-2,3.466660157E-2,9.735664725E-2
3.282441599E0,3.672827408E-2,3.711006418E-2,9.980010986E-2
3.284442465E0,3.550654277E-2,3.894266114E-2,9.980010986E-2
3.286442465E0,3.611740842E-2,4.016438872E-2,9.857837856E-2
3.288442498E0,3.672827408E-2,4.382958263E-2,1.004109755E-1
3.290442531E0,3.489567712E-2,4.505131021E-2,1.010218412E-1
3.292442564E0,3.489567712E-2,4.749477282E-2,1.004109755E-1
3.294442597E0,3.306308016E-2,5.054909736E-2,1.028544381E-1
3.296442630E0,3.306308016E-2,5.238169432E-2,1.040761694E-1
3.298442663E0,3.245221451E-2,5.543602258E-2,1.059087589E-1
3.300442663E0,3.245221451E-2,5.787948146E-2,1.071304902E-1
3.302442629E0,3.123048507E-2,5.543602258E-2,1.107956842E-1
3.304441729E0,3.367394581E-2,5.849034712E-2,1.162934676E-1
3.306441229E0,3.367394581E-2,5.849034712E-2,1.162934676E-1
3.308440329E0,3.367394581E-2,5.849034712E-2,1.162934676E-1
3.310439395E0,3.367394581E-2,5.849034712E-2,1.162934676E-1
3.312439361E0,3.367394581E-2,5.971207842E-2,1.181260645E-1
3.314439327E0,3.550654277E-2,5.665775016E-2,1.187369302E-1
3.316439327E0,3.672827408E-2,5.115996301E-2,1.181260645E-1
3.318439260E0,3.733913973E-2,4.810563847E-2,1.199586615E-1
3.320439293E0,3.550654277E-2,4.688390717E-2,1.217912585E-1
3.322439326E0,3.611740842E-2,4.444044828E-2,1.199586615E-1
3.324440226E0,3.795000166E-2,3.711006418E-2,1.175151989E-1
3.326440859E0,3.733913973E-2,3.466660157E-2,1.205695271E-1
3.328440892E0,3.856086731E-2,3.039054573E-2,1.205695271E-1
3.330440925E0,3.856086731E-2,2.367102914E-2,1.169043332E-1
3.332440958E0,3.856086731E-2,2.306016348E-2,1.175151989E-1
3.334440958E0,3.856086731E-2,1.695151068E-2,1.156826094E-1
3.336440958E0,3.672827408E-2,1.084285788E-2,1.132391468E-1
3.338440958E0,3.733913973E-2,9.010262787E-3,1.120174155E-1
3.340440958E0,3.795000166E-2,7.788531948E-3,1.095739529E-1
3.342440958E0,3.795000166E-2,2.290744567E-3,1.077413559E-1
3.344440091E0,3.550654277E-2,-1.985311974E-3,9.796751291E-2
3.346439224E0,3.550654277E-2,-1.985311974E-3,9.796751291E-2
3.348438324E0,3.550654277E-2,-1.985311974E-3,9.796751291E-2
3.350438224E0,3.550654277E-2,-1.985311974E-3,9.796751291E-2
3.352438524E0,3.550654277E-2,-4.428773187E-3,9.674578160E-2
3.354438490E0,3.489567712E-2,-5.039638374E-3,9.430231899E-2
3.356438456E0,3.550654277E-2,-4.428773187E-3,9.246972948E-2
3.358438422E0,3.489567712E-2,-5.039638374E-3,8.758280426E-2
3.360438388E0,3.550654277E-2,-6.261368748E-3,8.819366992E-2
3.362438388E0,3.367394581E-2,-4.428773187E-3,8.452847600E-2
3.364439254E0,3.367394581E-2,-1.985311974E-3,8.452847600E-2
3.366440154E0,3.367394581E-2,-3.207042580E-3,8.269587904E-2
3.368441054E0,3.123048507E-2,1.069014193E-3,8.147415519E-2
3.370441987E0,3.306308016E-2,4.734205548E-3,8.391761035E-2
3.372442020E0,3.245221451E-2,5.955935922E-3,8.025242388E-2
3.374442053E0,3.061962128E-2,7.788531948E-3,8.025242388E-2
3.376442086E0,3.061962128E-2,1.206458826E-2,8.208502084E-2
3.378442186E0,2.817615867E-2,1.328631863E-2,7.903069258E-2
3.380441752E0,3.000875562E-2,1.572977938E-2,8.086328954E-2
3.382441718E0,2.634356357E-2,1.389718428E-2,7.964155823E-2
3.384440818E0,2.390010282E-2,2.306016348E-2,8.086328954E-2
3.386440218E0,2.390010282E-2,2.306016348E-2,8.086328954E-2
3.388439318E0,2.390010282E-2,2.306016348E-2,8.086328954E-2
3.390438418E0,1.962404512E-2,2.306016348E-2,7.903069258E-2
3.392437484E0,1.962404512E-2,2.306016348E-2,7.903069258E-2
3.394437484E0,1.901318133E-2,2.489275858E-2,8.086328954E-2
3.396437484E0,1.656972058E-2,2.733621933E-2,7.903069258E-2
3.398437484E0,1.595885493E-2,2.672535367E-2,7.964155823E-2
3.400437484E0,1.534798928E-2,2.611448988E-2,7.780896127E-2
3.402437484E0,1.412625890E-2,2.855795063E-2,7.903069258E-2
3.404438350E0,1.107193250E-2,2.916881628E-2,7.903069258E-2
3.406439216E0,1.168279815E-2,2.916881628E-2,7.903069258E-2
3.408440082E0,1.046106778E-2,3.100141138E-2,7.658722997E-2
3.410440148E0,9.239336476E-3,2.916881628E-2,7.475463301E-2
3.412439848E0,6.795875728E-3,2.855795063E-2,7.597636431E-2
3.414439881E0,7.406740915E-3,2.855795063E-2,7.475463301E-2
3.416439914E0,4.963280167E-3,2.916881628E-2,7.414376736E-2
3.418439947E0,3.741549561E-3,2.794708498E-2,7.231117040E-2
3.420439980E0,3.130684374E-3,2.672535367E-2,7.292203605E-2
3.422440013E0,1.298088697E-3,2.428189293E-2,7.108944654E-2
3.424439179E0,6.872233935E-4,2.000583708E-2,6.864598393E-2
3.426439179E0,2.519819187E-3,1.817324013E-2,6.925684959E-2
3.428439145E0,1.298088697E-3,1.572977938E-2,6.864598393E-2
3.430439111E0,6.872233935E-4,1.267545391E-2,6.375905871E-2
3.432439077E0,2.519819187E-3,1.084285788E-2,6.498079002E-2
3.434439043E0,1.298088697E-3,7.788531948E-3,6.192646548E-2
3.436439009E0,3.741549561E-3,6.566801574E-3,5.887213722E-2
3.438438975E0,2.519819187E-3,5.955935922E-3,5.948300287E-2
3.440439375E0,3.130684374E-3,1.069014193E-3,5.765040591E-2
3.442439375E0,5.574145354E-3,4.581489484E-4,5.398521572E-2
3.444440275E0,4.963280167E-3,-7.635815418E-4,5.337435007E-2
3.446441175E0,7.406740915E-3,-1.985311974E-3,5.276348442E-2
3.448442075E0,8.628471754E-3,-1.985311974E-3,5.032002553E-2
3.450442975E0,1.168279815E-2,-2.596177394E-3,5.093089119E-2
3.452443908E0,1.168279815E-2,-3.207042580E-3,5.032002553E-2
3.454443941E0,1.229366288E-2,-1.985311974E-3,5.032002553E-2
3.456443974E0,1.595885493E-2,-1.985311974E-3,4.848742858E-2
3.458444007E0,1.595885493E-2,-2.596177394E-3,4.726569727E-2
3.460444007E0,1.779145002E-2,-5.650503561E-3,4.726569727E-2
3.462444007E0,2.084577642E-2,-5.650503561E-3,4.665483162E-2
3.464443140E0,2.084577642E-2,-5.650503561E-3,4.726569727E-2
3.466442240E0,2.084577642E-2,-5.650503561E-3,4.726569727E-2
3.468441940E0,2.267837152E-2,-6.872233935E-3,4.115704447E-2
3.470441940E0,2.084577642E-2,-7.483099122E-3,4.176791012E-2
3.472441906E0,2.084577642E-2,-9.315694682E-3,4.115704447E-2
3.474441872E0,1.901318133E-2,-1.053742506E-2,3.871358559E-2
3.476441838E0,1.779145002E-2,-6.872233935E-3,3.565925732E-2
3.478441804E0,2.145664208E-2,-5.650503561E-3,3.321579844E-2
3.480441770E0,1.840231568E-2,-6.872233935E-3,3.199406713E-2
3.482441403E0,1.779145002E-2,-8.093964309E-3,2.832887508E-2
3.484442236E0,1.534798928E-2,-3.207042580E-3,2.710714564E-2
3.486442202E0,1.351539325E-2,-1.985311974E-3,2.527454868E-2
3.488442202E0,1.412625890E-2,-2.596177394E-3,2.466368489E-2
3.490442235E0,1.168279815E-2,-1.374446787E-3,2.099849284E-2
3.492442268E0,9.239336476E-3,-1.374446787E-3,2.283108793E-2
3.494442301E0,6.185010541E-3,-1.527163113E-4,2.038762718E-2
3.496442334E0,3.741549561E-3,2.901609987E-3,1.855503209E-2
3.498442367E0,1.298088697E-3,3.512475174E-3,1.611157134E-2
3.500442400E0,-2.367102774E-3,3.512475174E-3,1.672243699E-2
3.502442433E0,-5.421428941E-3,6.566801574E-3,1.488984004E-2
3.504441566E0,-1.153008174E-2,1.206458826E-2,1.183551457E-2
3.506440666E0,-1.275181212E-2,1.389718428E-2,1.061378326E-2
3.508439766E0,-1.275181212E-2,1.389718428E-2,1.061378326E-2
3.510438832E0,-1.275181212E-2,1.389718428E-2,1.061378326E-2
3.512438798E0,-1.458440814E-2,1.572977938E-2,1.122464892E-2
3.514438764E0,-1.336267684E-2,1.634064503E-2,1.000291854E-2
3.516438730E0,-1.702786796E-2,1.695151068E-2,9.392052889E-3
3.518438363E0,-1.458440814E-2,1.634064503E-2,8.781188168E-3
3.520438363E0,-1.580613852E-2,1.939497143E-2,1.000291854E-2
3.522438396E0,-1.519527286E-2,2.183843218E-2,1.000291854E-2
3.524439296E0,-1.458440814E-2,2.244929783E-2,8.170322515E-3
3.526440229E0,-1.275181212E-2,2.000583708E-2,8.781188168E-3
3.528440562E0,-1.275181212E-2,2.061670274E-2,8.170322515E-3
3.530440595E0,-1.091921609E-2,2.000583708E-2,1.000291854E-2
3.532440261E0,-9.697485715E-3,2.061670274E-2,8.170322515E-3
3.534440294E0,-7.864889689E-3,2.183843218E-2,8.170322515E-3
3.536440327E0,-9.086620063E-3,2.183843218E-2,8.781188168E-3
3.538440327E0,-5.421428941E-3,1.511891466E-2,8.170322515E-3
3.540440327E0,-4.199698567E-3,1.695151068E-2,6.337726954E-3
3.542440660E0,-2.977967961E-3,1.756237634E-2,6.337726954E-3
3.544439793E0,1.298088697E-3,1.023199316E-2,6.337726954E-3
3.546438926E0,6.872233935E-4,9.010262787E-3,6.948592141E-3
3.548438059E0,6.872233935E-4,9.010262787E-3,6.948592141E-3
3.550437459E0,6.872233935E-4,9.010262787E-3,6.948592141E-3
3.552436992E0,3.130684374E-3,9.010262787E-3,5.115996581E-3
3.554436958E0,3.130684374E-3,5.345070735E-3,6.948592141E-3
3.556436924E0,3.741549561E-3,2.290744567E-3,8.170322515E-3
3.558436890E0,5.574145354E-3,1.069014193E-3,7.559457328E-3
3.560436856E0,5.574145354E-3,-2.596177394E-3,9.392052889E-3
3.562436822E0,6.185010541E-3,-8.093964309E-3,1.000291854E-2
3.564437655E0,5.574145354E-3,-9.315694682E-3,8.781188168E-3
3.566438521E0,5.574145354E-3,-1.542434748E-2,8.170322515E-3
3.568439421E0,7.406740915E-3,-1.908953860E-2,1.000291854E-2
3.570440354E0,4.963280167E-3,-2.092213556E-2,7.559457328E-3
3.572440387E0,5.574145354E-3,-2.214386500E-2,6.337726954E-3
3.574440420E0,4.352414981E-3,-2.580905706E-2,5.726861767E-3
3.576440453E0,4.352414981E-3,-2.703078650E-2,4.505131394E-3
3.578440819E0,3.741549561E-3,-2.764165215E-2,3.283400787E-3
3.580440852E0,2.519819187E-3,-2.641992271E-2,3.894265974E-3
3.582440852E0,1.908953884E-3,-2.580905706E-2,3.283400787E-3
3.584439952E0,-5.421428941E-3,-1.725694351E-2,3.283400787E-3
3.586439052E0,-5.421428941E-3,-1.725694351E-2,3.283400787E-3
3.588438152E0,-5.421428941E-3,-1.725694351E-2,3.283400787E-3
3.590437352E0,-5.421428941E-3,-1.725694351E-2,3.283400787E-3
3.592437152E0,-4.810563754E-3,-1.725694351E-2,2.061670180E-3
3.594437118E0,-4.199698567E-3,-1.603521220E-2,5.726861767E-3
3.596437084E0,-5.421428941E-3,-1.175915636E-2,3.283400787E-3
3.598436684E0,-4.199698567E-3,-1.175915636E-2,3.894265974E-3
3.600436717E0,-7.254024968E-3,-8.093964309E-3,2.290744742E-4
3.602436750E0,-5.421428941E-3,-7.483099122E-3,1.450804994E-3
3.604437650E0,-4.810563754E-3,-4.428773187E-3,-2.214386594E-3
3.606438550E0,-6.643159315E-3,-1.527163113E-4,-3.436116967E-3
3.608439450E0,-4.810563754E-3,5.345070735E-3,-5.268712528E-3
3.610440050E0,-4.810563754E-3,7.177666761E-3,-6.490443368E-3
3.612440516E0,-5.421428941E-3,9.010262787E-3,-6.490443368E-3
3.614440549E0,-4.199698567E-3,1.450804994E-2,-8.323038928E-3
3.616440549E0,-2.367102774E-3,1.572977938E-2,-1.504255645E-2
3.618440549E0,-6.032294128E-3,1.695151068E-2,-1.320996135E-2
3.620440549E0,-4.199698567E-3,1.572977938E-2,-1.748601720E-2
3.622440549E0,-7.254024968E-3,2.061670274E-2,-1.809688285E-2
3.624439682E0,-7.254024968E-3,1.939497143E-2,-1.931861416E-2
3.626439682E0,-8.475755341E-3,1.511891466E-2,-2.298380435E-2
3.628439648E0,-9.086620063E-3,1.389718428E-2,-2.237293869E-2
3.630439614E0,-1.275181212E-2,1.206458826E-2,-2.237293869E-2
3.632439580E0,-1.153008174E-2,9.010262787E-3,-2.237293869E-2
3.634439646E0,-1.275181212E-2,5.345070735E-3,-2.298380435E-2
3.636439612E0,-1.397354249E-2,-7.635815418E-4,-2.237293869E-2
3.638439578E0,-1.397354249E-2,-3.207042580E-3,-2.359467000E-2
3.640439544E0,-1.641700417E-2,-7.483099122E-3,-2.420553565E-2
3.642439510E0,-1.763873361E-2,-1.175915636E-2,-2.664899640E-2
3.644440376E0,-1.641700417E-2,-1.481348183E-2,-2.787072770E-2
3.646441276E0,-1.580613852E-2,-1.847867295E-2,-2.848159149E-2
3.648442176E0,-1.763873361E-2,-2.703078650E-2,-2.848159149E-2
3.650442976E0,-1.886046492E-2,-2.764165215E-2,-2.848159149E-2
3.652443542E0,-1.824959926E-2,-2.886338346E-2,-2.787072770E-2
3.654443575E0,-2.008219436E-2,-3.130684420E-2,-2.787072770E-2
3.656443608E0,-1.763873361E-2,-3.252857551E-2,-2.909245715E-2
3.658444041E0,-1.763873361E-2,-3.313944116E-2,-3.031418845E-2
3.660444041E0,-1.641700417E-2,-3.313944116E-2,-2.787072770E-2
3.662444007E0,-1.397354249E-2,-3.191770986E-2,-3.092505224E-2
3.664443107E0,-1.336267684E-2,-2.886338346E-2,-3.153591976E-2
3.666442173E0,-1.397354249E-2,-3.191770986E-2,-3.336851299E-2
3.668442139E0,-9.697485715E-3,-3.069597855E-2,-3.459024429E-2
3.670442105E0,-9.697485715E-3,-2.947424725E-2,-3.703370690E-2
3.672442071E0,-1.091921609E-2,-2.764165215E-2,-3.703370690E-2
3.674442037E0,-1.153008174E-2,-2.519819140E-2,-4.069889709E-2
3.676442037E0,-1.458440814E-2,-2.275473066E-2,-4.375322163E-2
3.678442070E0,-1.336267684E-2,-2.031126991E-2,-4.558581859E-2
3.680442103E0,-1.580613852E-2,-1.908953860E-2,-5.169447139E-2
3.682442136E0,-1.947133057E-2,-1.786780916E-2,-5.780312419E-2
3.684443036E0,-1.947133057E-2,-1.481348183E-2,-5.719225854E-2
3.686443069E0,-2.619084716E-2,-1.359175146E-2,-6.269004941E-2
3.688443102E0,-3.046690486E-2,-1.481348183E-2,-6.696610153E-2
3.690443135E0,-3.352123126E-2,-1.420261711E-2,-6.696610153E-2
3.692443168E0,-3.779728711E-2,-1.420261711E-2,-7.246389240E-2
3.694443068E0,-4.329507425E-2,-1.542434748E-2,-7.429648191E-2
3.696443068E0,-4.818199575E-2,-1.359175146E-2,-7.735081017E-2
3.698443068E0,-5.123632401E-2,-9.315694682E-3,-7.918340713E-2
3.700443068E0,-5.367978290E-2,-1.053742506E-2,-8.223773539E-2
3.702443068E0,-5.734497309E-2,-8.704829961E-3,-8.407033235E-2
3.704442201E0,-6.956227869E-2,-8.704829961E-3,-8.895725012E-2
3.706441301E0,-6.956227869E-2,-8.704829961E-3,-8.895725012E-2
3.708440401E0,-7.322747260E-2,-8.704829961E-3,-8.895725012E-2
3.710439467E0,-7.322747260E-2,-8.704829961E-3,-8.895725012E-2
3.712439333E0,-7.567093521E-2,-8.093964309E-3,-8.773551881E-2
3.714439299E0,-7.750352472E-2,-9.315694682E-3,-9.017898142E-2
3.716439265E0,-8.055785298E-2,-1.359175146E-2,-9.078984708E-2
3.718439231E0,-8.055785298E-2,-1.237002108E-2,-9.201157838E-2
3.720439197E0,-8.239044994E-2,-1.359175146E-2,-8.895725012E-2
3.722439197E0,-8.300131559E-2,-1.481348183E-2,-8.651378751E-2
3.724440097E0,-8.422304690E-2,-1.298088674E-2,-8.651378751E-2
3.726441030E0,-8.177958429E-2,-1.420261711E-2,-8.590292186E-2
3.728441063E0,-8.300131559E-2,-1.114829071E-2,-8.651378751E-2
3.730441096E0,-8.116871864E-2,-1.237002108E-2,-8.651378751E-2
3.732441129E0,-8.361218125E-2,-8.093964309E-3,-8.590292186E-2
3.734441162E0,-8.239044994E-2,-9.315694682E-3,-8.468119800E-2
3.736441195E0,-8.177958429E-2,-6.261368748E-3,-8.529205620E-2
3.738441195E0,-8.055785298E-2,-3.817907767E-3,-8.468119800E-2
3.740441161E0,-8.239044994E-2,1.069014193E-3,-8.651378751E-2
3.742441127E0,-8.116871864E-2,7.788531948E-3,-8.590292186E-2
3.744440227E0,-8.422304690E-2,2.122756653E-2,-8.590292186E-2
3.746439327E0,-8.422304690E-2,2.122756653E-2,-8.590292186E-2
3.748438427E0,-8.422304690E-2,2.428189293E-2,-8.529205620E-2
3.750437627E0,-8.422304690E-2,2.428189293E-2,-8.529205620E-2
3.752437593E0,-8.605564386E-2,2.672535367E-2,-8.345946670E-2
3.754437593E0,-8.605564386E-2,3.222314268E-2,-8.345946670E-2
3.756437626E0,-8.483391255E-2,3.527746722E-2,-8.101600409E-2
3.758437659E0,-8.666650951E-2,3.894266114E-2,-7.796167582E-2
3.760437692E0,-8.849909902E-2,3.955352306E-2,-7.429648191E-2
3.762437725E0,-8.605564386E-2,4.382958263E-2,-7.124216110E-2
3.764438625E0,-8.666650951E-2,4.566217586E-2,-7.185302675E-2
3.766439525E0,-8.605564386E-2,4.627304152E-2,-6.757696718E-2
3.768440425E0,-8.483391255E-2,4.688390717E-2,-6.330090761E-2
3.770441358E0,-8.483391255E-2,4.688390717E-2,-5.963572115E-2
3.772441458E0,-8.116871864E-2,4.566217586E-2,-5.597052723E-2
3.774441458E0,-7.872525603E-2,4.138612002E-2,-5.230533704E-2
3.776441458E0,-7.628180087E-2,4.016438872E-2,-4.741841555E-2
3.778441458E0,-7.383833826E-2,3.955352306E-2,-4.558581859E-2
3.780441458E0,-6.956227869E-2,3.466660157E-2,-4.192062840E-2
3.782441458E0,-6.345362961E-2,2.977968007E-2,-3.581197560E-2
3.784440558E0,-4.573853686E-2,1.145372353E-2,-1.443169173E-2
3.786439658E0,-4.573853686E-2,1.145372353E-2,-1.443169173E-2
3.788438758E0,-4.573853686E-2,1.145372353E-2,-1.443169173E-2
3.790437958E0,-4.573853686E-2,1.145372353E-2,-1.443169173E-2
3.792437391E0,-4.268420860E-2,1.023199316E-2,-1.382082608E-2
3.794437357E0,-4.207334295E-2,6.566801574E-3,-1.198823005E-2
3.796437323E0,-3.901901841E-2,2.290744567E-3,-9.544769302E-3
3.798437289E0,-3.535382450E-2,1.679879380E-3,-5.268712528E-3
3.800437289E0,-3.107776865E-2,-1.374446787E-3,8.399396902E-4
3.802437322E0,-2.802344225E-2,-3.207042580E-3,5.726861767E-3
3.804438222E0,-2.802344225E-2,-2.596177394E-3,8.781188168E-3
3.806439122E0,-2.374738641E-2,-6.872233935E-3,1.244637929E-2
3.808440022E0,-2.252565511E-2,-8.704829961E-3,1.672243699E-2
3.810440822E0,-2.069306001E-2,-9.926560335E-3,1.672243699E-2
3.812440855E0,-2.130392566E-2,-1.175915636E-2,2.038762718E-2
3.814440555E0,-2.130392566E-2,-1.114829071E-2,2.405281924E-2
3.816440555E0,-2.252565511E-2,-7.483099122E-3,2.405281924E-2
3.818440521E0,-2.313652076E-2,-7.483099122E-3,2.588541433E-2
3.820440487E0,-2.313652076E-2,-5.650503561E-3,2.649627998E-2
3.822440453E0,-2.374738641E-2,-7.483099122E-3,2.771801129E-2
3.824439553E0,-2.802344225E-2,-4.428773187E-3,2.588541433E-2
3.826439519E0,-2.741257846E-2,-4.428773187E-3,2.649627998E-2
3.828439485E0,-3.046690486E-2,2.290744567E-3,2.466368489E-2
3.830439451E0,-3.168863431E-2,3.512475174E-3,2.405281924E-2
3.832439451E0,-3.168863431E-2,4.123340361E-3,2.405281924E-2
3.834439484E0,-3.779728711E-2,7.177666761E-3,2.222022414E-2
3.836439517E0,-3.840815276E-2,7.177666761E-3,2.405281924E-2
3.838439550E0,-4.085161164E-2,1.267545391E-2,2.099849284E-2
3.840439583E0,-4.390593991E-2,1.511891466E-2,2.222022414E-2
3.842439616E0,-4.696026444E-2,1.817324013E-2,1.977676153E-2
3.844440516E0,-4.634939879E-2,1.817324013E-2,2.038762718E-2
3.846441416E0,-4.879286140E-2,1.878410578E-2,2.099849284E-2
3.848442316E0,-4.940372705E-2,2.061670274E-2,1.977676153E-2
3.850443082E0,-5.062545836E-2,2.306016348E-2,1.916589774E-2
3.852443615E0,-5.245805159E-2,2.367102914E-2,1.916589774E-2
3.854443615E0,-5.306891724E-2,2.244929783E-2,1.855503209E-2
3.856443615E0,-5.490151420E-2,2.306016348E-2,1.916589774E-2
3.858443615E0,-5.184718594E-2,2.611448988E-2,1.672243699E-2
3.860443615E0,-5.123632401E-2,2.855795063E-2,1.550070569E-2
3.862443581E0,-5.306891724E-2,3.100141138E-2,1.366810966E-2
3.864442681E0,-5.245805159E-2,3.772092983E-2,1.122464892E-2
3.866441747E0,-5.245805159E-2,3.772092983E-2,1.122464892E-2
3.868441880E0,-5.306891724E-2,4.260785133E-2,1.122464892E-2
3.870441846E0,-5.245805159E-2,4.321871698E-2,1.122464892E-2
3.872441812E0,-5.123632401E-2,4.566217586E-2,9.392052889E-3
3.874442112E0,-5.184718594E-2,4.993823543E-2,9.392052889E-3
3.876442078E0,-5.245805159E-2,5.115996301E-2,1.000291854E-2
3.878442078E0,-5.429064855E-2,5.482515693E-2,1.000291854E-2
3.880442111E0,-5.184718594E-2,5.726861581E-2,8.781188168E-3
3.882442144E0,-5.123632401E-2,5.910121277E-2,1.183551457E-2
3.884443044E0,-5.123632401E-2,5.910121277E-2,1.244637929E-2
3.886443077E0,-5.001459271E-2,6.215553731E-2,1.427897532E-2
3.888443110E0,-4.879286140E-2,6.398813426E-2,1.611157134E-2
3.890443143E0,-4.879286140E-2,6.582073122E-2,1.550070569E-2
3.892443743E0,-4.757113010E-2,6.459899992E-2,1.733330078E-2
3.894443743E0,-4.512767121E-2,6.582073122E-2,1.977676153E-2
3.896443709E0,-4.512767121E-2,6.398813426E-2,1.977676153E-2
3.898443675E0,-4.329507425E-2,6.459899992E-2,2.283108793E-2
3.900443641E0,-4.268420860E-2,6.398813426E-2,2.405281924E-2
3.902443607E0,-4.207334295E-2,6.459899992E-2,2.527454868E-2
3.904442707E0,-3.474296257E-2,5.726861581E-2,2.710714564E-2
3.906441807E0,-3.474296257E-2,5.726861581E-2,2.710714564E-2
3.908440907E0,-3.474296257E-2,5.726861581E-2,2.710714564E-2
3.910440007E0,-3.168863431E-2,5.299255997E-2,2.710714564E-2
3.912440040E0,-3.046690486E-2,5.360342562E-2,2.832887508E-2
3.914440073E0,-2.680171281E-2,4.810563847E-2,2.771801129E-2
3.916440106E0,-2.557998151E-2,4.627304152E-2,2.955060638E-2
3.918439706E0,-2.496911772E-2,4.138612002E-2,2.893974073E-2
3.920439739E0,-2.008219436E-2,4.016438872E-2,3.016147204E-2
3.922439772E0,-1.824959926E-2,3.466660157E-2,2.832887508E-2
3.924440972E0,-1.824959926E-2,3.405573592E-2,3.199406713E-2
3.926441905E0,-1.397354249E-2,2.855795063E-2,2.955060638E-2
3.928441738E0,-1.275181212E-2,2.550362423E-2,2.832887508E-2
3.930441738E0,-1.275181212E-2,2.672535367E-2,2.649627998E-2
3.932441738E0,-9.086620063E-3,2.367102914E-2,2.771801129E-2
3.934441738E0,-9.697485715E-3,2.244929783E-2,2.588541433E-2
3.936441738E0,-8.475755341E-3,2.183843218E-2,2.466368489E-2
3.938441738E0,-9.697485715E-3,2.244929783E-2,2.466368489E-2
3.940441704E0,-9.086620063E-3,1.939497143E-2,2.405281924E-2
3.942441670E0,-6.032294128E-3,1.878410578E-2,2.283108793E-2
3.944440770E0,-1.153008174E-2,1.145372353E-2,1.672243699E-2
3.946439870E0,-1.214094646E-2,1.145372353E-2,1.488984004E-2
3.948438970E0,-1.214094646E-2,1.145372353E-2,1.488984004E-2
3.950438103E0,-1.214094646E-2,1.145372353E-2,1.488984004E-2
3.952437503E0,-1.030835137E-2,1.206458826E-2,1.488984004E-2
3.954437469E0,-1.336267684E-2,1.023199316E-2,1.427897532E-2
3.956437469E0,-1.030835137E-2,1.145372353E-2,1.244637929E-2
3.958437469E0,-1.336267684E-2,1.084285788E-2,1.061378326E-2
3.960437502E0,-1.458440814E-2,8.399397135E-3,1.305724494E-2
3.962437535E0,-1.275181212E-2,9.010262787E-3,1.000291854E-2
3.964438435E0,-1.336267684E-2,1.023199316E-2,1.061378326E-2
3.966439335E0,-1.275181212E-2,7.788531948E-3,7.559457328E-3
3.968440235E0,-1.336267684E-2,7.788531948E-3,7.559457328E-3
3.970441168E0,-1.091921609E-2,6.566801574E-3,7.559457328E-3
3.972441268E0,-1.214094646E-2,7.177666761E-3,8.170322515E-3
3.974441234E0,-1.091921609E-2,4.123340361E-3,8.781188168E-3
