Time (s),Acceleration x (m/s^2),Acceleration y (m/s^2),Acceleration z (m/s^2)
28.54,-3.10,10.25,1.42
28.54,-3.38,9.99,1.32
28.54,-3.30,9.94,1.42
28.55,-3.33,9.90,1.57
28.55,-3.36,9.88,1.71
28.55,-3.37,9.82,1.88
28.55,-3.37,9.72,2.03
28.56,-3.36,9.64,2.24
28.56,-3.36,9.60,2.41
28.56,-3.37,9.51,2.58
28.56,-3.37,9.48,2.74
28.57,-3.40,9.44,2.89
28.57,-3.41,9.42,3.02
28.57,-3.36,9.39,3.17
28.57,-3.30,9.34,3.29
28.58,-3.23,9.29,3.43
28.58,-3.17,9.21,3.58
28.58,-3.12,9.13,3.67
28.58,-3.04,9.09,3.75
28.59,-2.96,9.10,3.78
28.59,-2.88,9.07,3.78
28.59,-2.76,9.10,3.79
28.59,-2.69,9.07,3.77
28.59,-2.58,9.09,3.71
28.60,-2.48,9.08,3.69
28.60,-2.41,9.05,3.61
28.60,-2.33,9.04,3.48
28.60,-2.28,9.04,3.35
28.61,-2.22,9.04,3.22
28.61,-2.20,9.01,3.10
28.61,-2.21,9.03,3.01
28.61,-2.17,9.06,2.92
28.62,-2.17,9.06,2.87
28.62,-2.15,9.07,2.78
28.62,-2.14,9.09,2.75
28.62,-2.21,9.10,2.75
28.63,-2.32,9.09,2.79
28.63,-2.42,9.07,2.81
28.63,-2.53,9.06,2.84
28.63,-2.62,9.04,2.86
28.63,-2.71,9.02,2.86
28.64,-2.73,8.99,2.85
28.64,-2.77,8.99,2.84
28.64,-2.82,8.94,2.85
28.64,-2.87,8.91,2.84
28.65,-2.91,8.86,2.85
28.65,-2.95,8.80,2.85
28.65,-2.99,8.73,2.89
28.65,-3.01,8.69,2.88
28.66,-3.00,8.60,2.92
28.66,-3.02,8.53,2.93
28.66,-3.01,8.47,2.96
28.66,-3.06,8.41,2.98
28.67,-3.05,8.36,3.04
28.67,-3.07,8.30,3.07
28.67,-3.09,8.25,3.13
28.67,-3.14,8.19,3.20
28.68,-3.15,8.13,3.25
28.68,-3.18,8.10,3.34
28.68,-3.20,8.02,3.39
28.68,-3.17,7.94,3.43
28.68,-3.19,7.92,3.49
28.69,-3.19,7.89,3.51
28.69,-3.20,7.84,3.57
28.69,-3.20,7.77,3.59
28.69,-3.21,7.71,3.63
28.70,-3.23,7.67,3.66
28.70,-3.25,7.56,3.69
28.70,-3.26,7.53,3.74
28.70,-3.18,7.51,3.73
28.71,-3.15,7.48,3.76
28.71,-3.12,7.48,3.77
28.71,-3.08,7.49,3.79
28.71,-3.06,7.52,3.82
28.72,-3.03,7.49,3.84
28.72,-3.03,7.45,3.85
28.72,-3.01,7.41,3.85
28.72,-2.99,7.44,3.84
28.73,-2.93,7.41,3.87
28.73,-2.91,7.40,3.88
28.73,-2.92,7.38,3.87
28.73,-2.87,7.40,3.88
28.73,-2.90,7.36,3.83
28.74,-2.92,7.37,3.80
28.74,-2.95,7.36,3.78
28.74,-2.99,7.37,3.72
28.74,-3.03,7.38,3.67
28.75,-3.04,7.41,3.65
28.75,-3.08,7.44,3.57
28.75,-3.15,7.48,3.49
28.75,-3.21,7.49,3.46
28.76,-3.28,7.52,3.39
28.76,-3.37,7.57,3.34
28.76,-3.44,7.59,3.31
28.76,-3.50,7.59,3.27
28.77,-3.58,7.62,3.24
28.77,-3.67,7.62,3.20
28.77,-3.75,7.63,3.16
28.77,-3.77,7.64,3.14
28.78,-3.83,7.67,3.11
28.78,-3.91,7.68,3.11
28.78,-3.93,7.69,3.06
28.78,-3.97,7.73,3.04
28.78,-4.02,7.78,3.03
28.79,-4.08,7.77,3.02
28.79,-4.12,7.79,3.02
28.79,-4.18,7.80,3.03
28.79,-4.22,7.80,3.01
28.80,-4.23,7.82,3.05
28.80,-4.24,7.87,3.10
28.80,-4.24,7.91,3.14
28.80,-4.23,7.93,3.12
28.81,-4.23,7.98,3.12
28.81,-4.19,8.01,3.09
28.81,-4.17,8.03,3.07
28.81,-4.14,8.10,3.02
28.82,-4.15,8.20,2.97
28.82,-4.16,8.30,2.87
28.82,-4.15,8.38,2.83
28.82,-4.21,8.50,2.77
28.83,-4.28,8.60,2.72
28.83,-4.34,8.73,2.69
28.83,-4.41,8.81,2.67
28.83,-4.50,8.93,2.69
28.83,-4.59,8.99,2.70
28.84,-4.68,9.05,2.69
28.84,-4.79,9.11,2.71
28.84,-4.86,9.19,2.72
28.84,-4.92,9.23,2.71
28.85,-4.98,9.28,2.76
28.85,-4.97,9.30,2.77
28.85,-4.96,9.33,2.80
28.85,-4.92,9.35,2.83
28.86,-4.88,9.38,2.89
28.86,-4.80,9.40,2.91
28.86,-4.73,9.43,2.97
28.86,-4.64,9.42,3.02
28.87,-4.54,9.41,3.08
28.87,-4.47,9.40,3.16
28.87,-4.37,9.39,3.28
28.87,-4.32,9.32,3.40
28.87,-4.29,9.26,3.57
28.88,-4.31,9.22,3.76
28.88,-4.35,9.13,4.00
28.88,-4.37,9.03,4.21
28.88,-4.40,8.94,4.41
28.89,-4.41,8.87,4.61
28.89,-4.45,8.78,4.80
28.89,-4.47,8.76,4.96
28.89,-4.44,8.78,5.11
28.90,-4.45,8.88,5.25
28.90,-4.41,9.05,5.37
28.90,-4.39,9.29,5.43
28.90,-4.35,9.57,5.47
28.91,-4.39,9.80,5.45
28.91,-4.41,10.06,5.39
28.91,-4.52,10.24,5.30
28.91,-4.69,10.44,5.18
28.92,-4.71,10.76,5.01
28.92,-4.73,11.09,4.85
28.92,-4.72,11.40,4.66
28.92,-4.71,11.75,4.43
28.92,-4.70,12.08,4.21
28.93,-4.72,12.43,4.02
28.93,-4.69,12.77,3.83
28.93,-4.65,13.09,3.60
28.93,-4.57,13.51,3.43
28.94,-4.43,13.89,3.24
28.94,-4.19,14.21,3.05
28.94,-3.89,14.56,2.70
28.94,-3.56,14.93,2.33
28.95,-3.32,15.34,2.15
28.95,-3.15,15.70,1.93
28.95,-3.02,16.03,1.66
28.95,-2.86,16.43,1.35
28.96,-2.59,16.78,1.01
28.96,-2.29,17.15,0.55
28.96,-2.14,17.45,0.15
28.96,-2.13,17.73,-0.01
28.97,-2.03,17.94,-0.06
28.97,-1.94,18.03,-0.15
28.97,-1.92,17.94,-0.33
28.97,-1.92,17.72,-0.44
28.97,-1.94,17.38,-0.48
28.98,-1.93,16.91,-0.48
28.98,-1.96,16.35,-0.40
28.98,-1.92,15.69,-0.33
28.98,-1.87,14.92,-0.24
28.99,-1.90,14.07,-0.16
28.99,-2.00,13.16,-0.14
28.99,-2.15,12.30,-0.19
28.99,-2.21,11.53,-0.19
29.00,-2.17,10.84,-0.14
29.00,-2.12,10.30,-0.03
29.00,-1.98,9.76,0.07
29.00,-1.83,9.29,0.11
29.01,-1.79,8.87,0.13
29.01,-1.74,8.49,0.03
29.01,-1.77,8.12,-0.09
29.01,-1.85,7.76,-0.25
29.02,-1.91,7.41,-0.36
29.02,-1.92,7.04,-0.46
29.02,-1.84,6.60,-0.47
29.02,-1.75,6.23,-0.50
29.02,-1.68,5.87,-0.54
29.03,-1.56,5.57,-0.64
29.03,-1.44,5.34,-0.81
29.03,-1.29,5.20,-0.98
29.03,-1.07,5.07,-1.04
29.04,-0.86,4.97,-0.97
29.04,-0.71,4.90,-0.86
29.04,-0.58,4.89,-0.78
29.04,-0.41,4.89,-0.75
29.05,-0.25,4.97,-0.76
29.05,-0.15,5.06,-0.81
29.05,-0.05,5.21,-0.82
29.05,0.02,5.36,-0.74
29.06,-0.03,5.59,-0.69
29.06,-0.09,5.82,-0.56
29.06,-0.18,6.07,-0.46
29.06,-0.28,6.35,-0.35
29.06,-0.32,6.58,-0.14
29.07,-0.38,6.86,0.09
29.07,-0.44,7.09,0.26
29.07,-0.58,7.38,0.17
29.07,-0.74,7.69,-0.03
29.08,-0.80,8.04,0.32
29.08,-1.17,8.53,0.00
29.08,-1.36,8.99,-0.29
29.08,-1.56,9.40,-0.38
29.09,-1.70,9.73,-0.20
29.09,-1.81,9.95,-0.13
29.09,-1.98,10.16,-0.02
29.09,-2.19,10.49,0.00
29.10,-2.41,10.73,0.00
29.10,-2.52,10.97,0.00
29.10,-2.69,11.12,0.01
29.10,-2.79,11.28,0.00
29.11,-2.97,11.53,-0.02
29.11,-3.15,11.75,-0.01
29.11,-3.30,11.92,0.01
29.11,-3.40,12.05,0.03
29.11,-3.39,12.11,0.05
29.12,-3.30,12.14,0.15
29.12,-3.11,12.11,0.25
29.12,-2.81,12.03,0.37
29.12,-2.45,11.96,0.51
29.13,-2.07,11.88,0.78
29.13,-1.71,11.75,1.03
29.13,-1.44,11.56,1.26
29.13,-1.32,11.37,1.45
29.14,-1.29,11.15,1.62
29.14,-1.34,10.92,1.69
29.14,-1.31,10.72,1.80
29.14,-0.79,10.23,2.10
29.15,-0.36,9.71,2.54
29.15,-0.22,9.25,2.95
29.15,-0.36,8.84,3.24
29.15,-0.64,8.47,3.47
29.16,-0.97,8.21,3.71
29.16,-1.22,7.98,3.92
29.16,-1.42,7.79,4.11
29.16,-1.56,7.58,4.29
29.16,-1.68,7.41,4.48
29.17,-1.83,7.27,4.65
29.17,-1.99,7.18,4.76
29.17,-2.17,7.13,4.79
29.17,-2.34,7.15,4.76
29.18,-2.44,7.15,4.73
29.18,-2.54,7.27,4.61
29.18,-2.61,7.33,4.44
29.18,-2.63,7.42,4.20
29.19,-2.64,7.52,3.94
29.19,-2.60,7.64,3.65
29.19,-2.63,7.78,3.34
29.19,-2.58,7.88,3.07
29.20,-2.54,7.98,2.83
29.20,-2.58,8.17,2.63
29.20,-2.59,8.31,2.44
29.20,-2.61,8.49,2.25
29.21,-2.64,8.68,2.08
29.21,-2.71,8.82,1.94
29.21,-2.79,9.01,1.83
29.21,-2.82,9.16,1.66
29.21,-2.79,9.35,1.49
29.22,-2.82,9.47,1.38
29.22,-2.91,9.57,1.31
29.22,-2.99,9.66,1.27
29.22,-3.03,9.77,1.24
29.23,-3.08,9.85,1.21
29.23,-3.17,9.92,1.21
29.23,-3.21,10.01,1.21
29.23,-3.28,10.07,1.25
29.24,-3.32,10.11,1.31
29.24,-3.39,10.14,1.40
29.24,-3.39,10.16,1.51
29.24,-3.42,10.20,1.59
29.25,-3.39,10.24,1.67
29.25,-3.36,10.25,1.77
29.25,-3.30,10.23,1.81
29.25,-3.23,10.23,1.85
29.26,-3.14,10.20,1.89
29.26,-3.02,10.14,1.89
29.26,-2.87,10.07,1.91
29.26,-2.73,9.99,1.95
29.26,-2.58,9.87,2.00
29.27,-2.45,9.77,2.03
29.27,-2.31,9.66,2.03
29.27,-2.23,9.54,2.01
29.27,-2.13,9.43,1.97
29.28,-2.05,9.33,1.97
29.28,-1.97,9.22,1.96
29.28,-1.91,9.18,1.90
29.28,-1.88,9.09,1.93
29.29,-1.88,9.04,1.99
29.29,-1.87,8.97,2.05
29.29,-1.86,8.92,2.13
29.29,-1.85,8.91,2.20
29.30,-1.85,8.89,2.22
29.30,-1.83,8.91,2.32
29.30,-1.82,8.89,2.38
29.30,-1.84,8.91,2.44
29.30,-1.84,8.94,2.52
29.31,-1.86,8.94,2.55
29.31,-1.85,8.98,2.58
29.31,-1.88,9.03,2.58
29.31,-1.97,9.04,2.65
29.32,-2.07,9.04,2.73
29.32,-2.17,9.08,2.81
29.32,-2.24,9.13,2.86
29.32,-2.29,9.17,2.85
29.33,-2.35,9.23,2.84
29.33,-2.37,9.27,2.82
29.33,-2.41,9.32,2.81
29.33,-2.45,9.37,2.76
29.34,-2.52,9.44,2.71
29.34,-2.52,9.49,2.66
29.34,-2.56,9.53,2.62
29.34,-2.57,9.56,2.57
29.35,-2.61,9.61,2.53
29.35,-2.60,9.64,2.50
29.35,-2.62,9.67,2.50
29.35,-2.63,9.67,2.51
29.35,-2.65,9.67,2.48
29.36,-2.67,9.66,2.47
29.36,-2.69,9.66,2.48
29.36,-2.69,9.61,2.49
29.36,-2.74,9.59,2.51
29.37,-2.77,9.54,2.57
29.37,-2.79,9.51,2.64
29.37,-2.80,9.46,2.74
29.37,-2.81,9.41,2.86
29.38,-2.76,9.36,2.95
29.38,-2.74,9.31,3.06
29.38,-2.73,9.25,3.17
29.38,-2.73,9.20,3.27
29.39,-2.72,9.15,3.38
29.39,-2.71,9.09,3.47
29.39,-2.71,9.02,3.56
29.39,-2.70,8.98,3.62
29.40,-2.60,8.99,3.64
29.40,-2.20,9.09,3.33
29.40,-2.39,8.88,3.38
29.40,-2.41,8.80,3.51
29.40,-2.42,8.66,3.68
29.41,-2.32,8.50,3.87
29.41,-2.05,8.28,4.29
29.41,-2.53,8.23,4.32
29.41,-2.84,8.04,4.05
29.42,-3.06,7.94,3.55
29.42,-3.07,7.86,3.36
29.42,-2.94,7.76,3.39
29.42,-2.75,7.68,3.47
29.43,-2.59,7.59,3.44
29.43,-2.36,7.47,3.40
29.43,-2.20,7.32,3.36
29.43,-2.05,7.13,3.33
29.44,-1.89,6.93,3.30
29.44,-1.75,6.78,3.27
29.44,-1.63,6.61,3.24
29.44,-1.54,6.46,3.17
29.45,-1.41,6.31,3.09
29.45,-1.33,6.19,2.99
29.45,-1.24,6.05,2.85
29.45,-1.16,5.98,2.70
29.45,-1.07,5.90,2.57
29.46,-0.95,5.87,2.37
29.46,-0.82,5.82,2.19
29.46,-0.66,5.81,2.00
29.46,-0.54,5.80,1.78
29.47,-0.49,5.81,1.60
29.47,-0.45,5.82,1.42
29.47,-0.45,5.85,1.30
29.47,-0.51,5.93,1.21
29.48,-0.62,6.04,1.13
29.48,-0.75,6.17,1.10
29.48,-0.92,6.32,1.08
29.48,-1.07,6.49,1.08
29.49,-1.19,6.65,1.07
29.49,-1.24,6.87,1.14
29.49,-1.27,7.10,1.18
29.49,-1.28,7.28,1.25
29.50,-1.24,7.50,1.27
29.50,-1.14,7.65,1.32
29.50,-1.01,7.86,1.37
29.50,-0.88,8.03,1.39
29.50,-0.71,8.18,1.41
29.51,-0.60,8.32,1.42
29.51,-0.54,8.45,1.40
29.51,-0.50,8.55,1.44
29.51,-0.48,8.62,1.44
29.52,-0.46,8.66,1.41
29.52,-0.50,8.70,1.40
29.52,-0.54,8.71,1.38
29.52,-0.61,8.70,1.34
29.53,-0.73,8.69,1.28
29.53,-0.87,8.65,1.18
29.53,-1.02,8.61,1.10
29.53,-1.14,8.55,1.01
29.54,-1.18,8.52,0.92
29.54,-1.28,8.46,0.89
29.54,-1.49,8.40,0.78
29.54,-1.58,8.39,0.72
29.54,-1.69,8.38,0.70
29.55,-1.83,8.44,0.67
29.55,-2.01,8.50,0.68
29.55,-2.15,8.64,0.71
29.55,-2.29,8.79,0.71
29.56,-2.34,8.99,0.66
29.56,-2.08,9.38,0.42
29.56,-2.23,9.66,0.34
29.56,-2.31,10.03,0.36
29.57,-2.48,10.38,0.40
29.57,-2.64,10.79,0.46
29.57,-2.83,11.20,0.49
29.57,-3.05,11.67,0.59
29.58,-3.30,12.18,0.64
29.58,-3.61,12.72,0.71
29.58,-3.99,13.25,0.73
29.58,-4.40,13.76,0.73
29.59,-4.85,14.27,0.68
29.59,-5.30,14.72,0.68
29.59,-5.76,15.08,0.61
29.59,-6.20,15.40,0.50
29.59,-6.60,15.74,0.37
29.60,-6.87,16.00,0.25
29.60,-7.00,16.25,0.05
29.60,-7.11,16.51,0.09
29.60,-7.03,16.77,0.09
29.61,-6.88,17.04,0.02
29.61,-6.63,17.22,-0.03
29.61,-6.29,17.31,-0.03
29.61,-5.85,17.28,-0.03
29.62,-5.36,17.17,-0.02
29.62,-4.84,16.92,-0.02
29.62,-4.31,16.55,-0.06
29.62,-3.81,16.13,-0.13
29.63,-3.30,15.71,-0.22
29.63,-2.83,15.27,-0.35
29.63,-2.40,14.82,-0.44
29.63,-2.05,14.36,-0.53
29.64,-1.77,13.96,-0.60
29.64,-1.53,13.58,-0.67
29.64,-1.32,13.12,-0.73
29.64,-1.07,12.67,-0.74
29.64,-0.98,12.34,-0.79
29.65,-1.06,12.01,-0.92
29.65,-1.15,11.73,-1.09
29.65,-1.26,11.44,-1.22
29.65,-1.27,11.16,-1.39
29.66,-1.31,10.84,-1.62
29.66,-1.32,10.58,-1.80
29.66,-1.51,10.30,-1.91
29.66,-1.73,10.01,-2.02
29.67,-2.04,9.74,-2.13
29.67,-2.33,9.48,-2.37
29.67,-2.57,9.21,-2.53
29.67,-2.75,9.03,-2.65
29.68,-2.95,8.84,-2.68
29.68,-3.15,8.63,-2.71
29.68,-3.43,8.48,-2.65
29.68,-3.71,8.35,-2.49
29.69,-3.99,8.17,-2.25
29.69,-4.22,8.03,-2.00
29.69,-4.46,7.88,-1.70
29.69,-4.62,7.73,-1.34
29.69,-4.76,7.60,-0.96
29.70,-4.90,7.56,-0.51
29.70,-5.02,7.51,-0.12
29.70,-5.04,7.49,0.19
29.70,-5.09,7.49,0.49
29.71,-5.18,7.45,0.80
29.71,-5.45,7.47,1.05
29.71,-5.59,7.46,1.28
29.71,-5.64,7.42,1.29
29.72,-5.43,7.39,1.62
29.72,-5.16,7.44,1.99
29.72,-4.79,7.43,2.29
29.72,-4.41,7.44,2.66
29.73,-4.22,7.48,2.96
29.73,-4.19,7.50,3.21
29.73,-4.22,7.57,3.37
29.73,-4.21,7.62,3.37
29.73,-4.09,7.68,3.37
29.74,-3.81,7.83,3.39
29.74,-3.34,8.01,3.31
29.74,-2.88,8.24,3.24
29.74,-2.54,8.54,3.19
29.75,-2.67,8.91,2.97
29.75,-2.52,9.07,2.86
29.75,-2.16,9.11,2.84
29.75,-2.01,9.17,2.89
29.76,-2.11,9.10,2.78
29.76,-2.12,8.97,2.65
29.76,-2.11,8.95,2.52
29.76,-2.31,9.03,2.28
29.77,-2.58,9.09,2.06
29.77,-2.74,9.12,1.85
29.77,-2.83,9.14,1.69
29.77,-2.83,9.21,1.51
29.78,-2.77,9.27,1.34
29.78,-2.69,9.33,1.18
29.78,-2.59,9.40,1.01
29.78,-2.51,9.43,0.87
29.78,-2.42,9.47,0.73
29.79,-2.36,9.48,0.60
29.79,-2.26,9.44,0.52
29.79,-2.32,9.64,0.55
29.79,-2.33,9.77,0.52
29.80,-2.24,9.79,0.65
29.80,-2.21,9.83,0.74
29.80,-2.22,9.86,0.86
29.80,-2.29,9.92,0.97
29.81,-2.34,9.93,1.07
29.81,-2.38,9.96,1.17
29.81,-2.37,9.98,1.31
29.81,-2.37,9.99,1.50
29.82,-2.39,10.04,1.65
29.82,-2.39,10.09,1.81
29.82,-2.41,10.06,1.97
29.82,-2.46,10.04,2.07
29.83,-2.51,10.05,2.16
29.83,-2.55,10.00,2.20
29.83,-2.63,9.96,2.24
29.83,-2.72,9.94,2.22
29.83,-2.82,9.85,2.20
29.84,-2.94,9.79,2.13
29.84,-3.11,9.71,2.00
29.84,-3.17,9.66,1.98
29.84,-3.19,9.62,2.04
29.85,-3.22,9.54,2.14
29.85,-3.23,9.51,2.23
29.85,-3.28,9.49,2.31
29.85,-3.27,9.49,2.39
29.86,-3.23,9.52,2.47
29.86,-3.19,9.54,2.58
29.86,-3.14,9.58,2.65
29.86,-3.04,9.57,2.72
29.87,-2.93,9.57,2.79
29.87,-2.89,9.54,2.84
29.87,-2.80,9.55,2.89
29.87,-2.75,9.53,2.94
29.88,-2.68,9.49,3.02
29.88,-2.63,9.46,3.09
29.88,-2.59,9.44,3.14
29.88,-2.58,9.43,3.20
29.88,-2.54,9.42,3.27
29.89,-2.53,9.38,3.34
29.89,-2.49,9.37,3.41
29.89,-2.43,9.33,3.48
29.89,-2.39,9.30,3.52
29.90,-2.31,9.26,3.57
29.90,-2.25,9.21,3.62
29.90,-2.21,9.15,3.66
29.90,-2.20,9.10,3.70
29.91,-2.24,8.99,3.72
29.91,-2.23,8.92,3.73
29.91,-2.26,8.85,3.75
29.91,-2.26,8.80,3.77
29.92,-2.37,8.73,3.78
29.92,-2.60,8.60,3.73
29.92,-2.81,8.51,3.68
29.92,-2.98,8.40,3.59
29.93,-3.13,8.31,3.47
29.93,-3.19,8.23,3.31
29.93,-3.25,8.16,3.18
29.93,-3.26,8.09,3.06
29.93,-3.30,8.01,2.95
29.94,-3.35,7.94,2.85
29.94,-3.45,7.93,2.76
29.94,-3.52,7.89,2.70
29.94,-3.50,7.87,2.71
29.95,-3.51,7.82,2.74
29.95,-3.46,7.76,2.78
29.95,-3.43,7.69,2.85
29.95,-3.45,7.59,2.89
29.96,-3.44,7.55,2.95
29.96,-3.43,7.48,3.01
29.96,-3.41,7.43,3.08
29.96,-3.36,7.35,3.14
29.97,-3.36,7.31,3.18
29.97,-3.31,7.30,3.23
29.97,-3.31,7.29,3.28
29.97,-3.30,7.25,3.32
29.97,-3.28,7.23,3.38
29.98,-3.26,7.20,3.40
29.98,-3.24,7.19,3.42
29.98,-3.26,7.18,3.46
29.98,-3.22,7.17,3.48
29.99,-3.24,7.17,3.53
29.99,-3.23,7.17,3.58
29.99,-3.21,7.17,3.58
29.99,-3.20,7.19,3.60
30.00,-3.25,7.20,3.59
30.00,-3.25,7.22,3.62
30.00,-3.26,7.23,3.65
30.00,-3.29,7.25,3.68
30.01,-3.27,7.27,3.68
30.01,-3.31,7.26,3.70
30.01,-3.33,7.23,3.74
30.01,-3.38,7.23,3.81
30.02,-3.40,7.26,3.87
30.02,-3.30,7.32,3.88
30.02,-3.29,7.34,3.91
30.02,-3.29,7.33,3.93
30.02,-3.27,7.32,3.93
30.03,-3.28,7.30,3.95
30.03,-3.26,7.30,3.95
30.03,-3.26,7.30,3.95
30.03,-3.27,7.32,3.97
30.04,-3.27,7.34,3.96
30.04,-3.29,7.31,3.95
30.04,-3.32,7.37,3.92
30.04,-3.32,7.40,3.88
30.05,-3.35,7.43,3.88
30.05,-3.42,7.46,3.86
30.05,-3.51,7.45,3.88
30.05,-3.56,7.49,3.91
30.06,-3.63,7.50,3.94
30.06,-3.68,7.52,3.95
30.06,-3.74,7.52,3.96
30.06,-3.77,7.56,3.97
30.07,-3.80,7.60,4.00
30.07,-3.86,7.61,4.03
30.07,-3.93,7.58,4.02
30.07,-3.99,7.60,3.98
30.07,-4.04,7.60,3.91
30.08,-4.16,7.64,3.86
30.08,-4.23,7.66,3.82
30.08,-4.30,7.67,3.75
30.08,-4.39,7.69,3.71
30.09,-4.45,7.73,3.68
30.09,-4.52,7.80,3.62
30.09,-4.57,7.84,3.56
30.09,-4.61,7.90,3.49
30.10,-4.68,7.97,3.45
30.10,-4.73,8.02,3.45
30.10,-4.76,8.06,3.41
30.10,-4.80,8.14,3.32
30.11,-4.85,8.21,3.32
30.11,-4.87,8.28,3.27
30.11,-4.91,8.39,3.23
30.11,-4.90,8.48,3.20
30.12,-4.92,8.56,3.17
30.12,-4.91,8.67,3.15
30.12,-4.90,8.79,3.12
30.12,-4.90,8.92,3.08
30.12,-4.90,9.06,3.06
30.13,-4.93,9.20,3.06
30.13,-4.93,9.35,3.02
30.13,-4.92,9.49,3.01
30.13,-4.97,9.61,2.98
30.14,-4.97,9.74,2.97
30.14,-5.01,9.84,2.94
30.14,-5.04,9.94,2.93
30.14,-5.07,9.99,2.90
30.15,-5.13,10.07,2.88
30.15,-5.18,10.14,2.88
30.15,-5.21,10.21,2.87
30.15,-5.26,10.25,2.87
30.16,-5.30,10.23,2.86
30.16,-5.34,10.22,2.84
30.16,-5.42,10.19,2.90
30.16,-5.45,10.18,2.93
30.17,-5.48,10.16,3.02
30.17,-5.51,10.13,3.08
30.17,-5.55,10.12,3.21
30.17,-5.57,10.14,3.37
30.17,-5.63,10.15,3.50
30.18,-5.67,10.20,3.63
30.18,-5.68,10.29,3.75
30.18,-5.69,10.38,3.90
30.18,-5.69,10.47,3.99
30.19,-5.65,10.60,4.09
30.19,-5.64,10.73,4.18
30.19,-5.56,10.92,4.24
30.19,-5.50,11.11,4.27
30.20,-5.45,11.34,4.31
30.20,-5.40,11.58,4.32
30.20,-5.38,11.85,4.29
30.20,-5.34,12.12,4.27
30.21,-5.29,12.35,4.21
30.21,-5.29,12.60,4.14
30.21,-5.27,12.80,4.06
30.21,-5.21,12.99,3.95
30.21,-5.21,13.15,3.83
30.22,-5.17,13.30,3.65
30.22,-5.08,13.43,3.45
30.22,-4.92,13.60,3.25
30.22,-4.76,13.80,3.08
30.23,-4.55,14.01,2.90
30.23,-4.36,14.27,2.79
30.23,-4.15,14.55,2.69
30.23,-3.93,14.88,2.56
30.24,-3.73,15.20,2.41
30.24,-3.52,15.49,2.27
30.24,-3.32,15.74,2.07
30.24,-3.16,15.97,1.85
30.25,-3.05,16.20,1.83
30.25,-2.99,16.33,1.89
30.25,-2.90,16.42,1.88
30.25,-2.78,16.39,1.90
30.26,-2.67,16.31,1.96
30.26,-2.60,16.07,1.99
30.26,-2.55,15.70,2.02
30.26,-2.51,15.25,1.86
30.26,-2.50,14.69,1.67
30.27,-2.47,14.15,1.49
30.27,-2.46,13.56,1.28
30.27,-2.40,12.95,1.09
30.27,-2.38,12.31,0.92
30.28,-2.43,11.65,0.71
30.28,-2.42,11.05,0.54
30.28,-2.42,10.53,0.39
30.28,-2.41,10.06,0.25
30.29,-2.39,9.64,0.18
30.29,-2.32,9.19,0.03
30.29,-2.45,8.73,-0.27
30.29,-2.62,8.28,-0.50
30.30,-2.69,7.93,-0.71
30.30,-2.73,7.57,-1.01
30.30,-2.66,7.32,-1.31
30.30,-2.60,7.04,-1.59
30.31,-2.59,6.69,-1.85
30.31,-2.65,6.35,-2.02
30.31,-2.78,5.99,-2.20
30.31,-2.87,5.76,-2.09
30.31,-2.80,5.61,-1.91
30.32,-2.56,5.47,-1.70
30.32,-2.35,5.35,-1.76
30.32,-2.20,5.24,-1.81
30.32,-2.11,5.22,-1.88
30.33,-2.06,5.26,-1.95
30.33,-1.99,5.35,-1.92
30.33,-1.84,5.46,-1.81
30.33,-1.73,5.57,-1.73
30.34,-1.63,5.69,-1.56
30.34,-1.58,5.80,-1.40
30.34,-1.58,5.94,-1.16
30.34,-1.55,6.10,-0.91
30.35,-1.56,6.24,-0.68
30.35,-1.54,6.40,-0.36
30.35,-1.51,6.59,-0.08
30.35,-1.49,6.82,0.22
30.36,-1.46,7.07,0.51
30.36,-1.36,7.38,0.78
30.36,-1.28,7.69,1.04
30.36,-1.13,7.98,1.26
30.36,-0.92,8.30,1.69
30.37,-0.74,8.64,1.69
30.37,-0.45,8.87,1.60
30.37,-0.19,9.20,1.51
30.37,0.01,9.49,1.31
30.38,0.19,9.87,1.26
30.38,0.26,10.22,1.12
30.38,0.42,10.62,1.00
30.38,0.62,10.94,0.93
30.39,0.86,11.15,0.92
30.39,1.00,11.36,0.88
30.39,1.12,11.57,0.80
30.39,1.14,11.67,0.73
30.40,1.11,11.82,0.73
30.40,1.19,11.99,0.80
30.40,1.72,11.97,0.94
30.40,2.02,11.87,1.20
30.40,2.15,11.74,1.28
30.41,2.21,11.58,1.39
30.41,2.28,11.36,1.48
30.41,2.34,11.11,1.59
30.41,2.32,10.89,1.65
30.42,2.33,10.68,1.64
30.42,2.29,10.56,1.70
30.42,2.24,10.43,1.78
30.42,2.17,10.27,1.79
30.43,2.15,10.19,1.82
30.43,2.04,10.14,1.82
30.43,1.85,10.00,1.80
30.43,1.63,9.85,1.84
30.44,1.33,9.66,1.83
30.44,0.96,9.52,1.82
30.44,0.56,9.45,1.77
30.44,0.29,9.18,1.83
30.45,-0.01,8.95,1.94
30.45,-0.32,8.76,2.07
30.45,-0.52,8.60,2.18
30.45,-0.76,8.55,2.28
30.45,-0.90,8.48,2.44
30.46,-0.98,8.46,2.57
30.46,-1.13,8.40,2.71
30.46,-1.29,8.36,2.88
30.46,-1.49,8.36,3.01
30.47,-1.68,8.42,3.15
30.47,-1.89,8.45,3.27
30.47,-2.09,8.49,3.37
30.47,-2.27,8.58,3.43
30.48,-2.41,8.68,3.45
30.48,-2.59,8.78,3.40
30.48,-2.71,8.82,3.29
30.48,-2.78,8.93,3.19
30.49,-2.88,9.00,3.05
30.49,-2.94,9.08,2.93
30.49,-2.98,9.14,2.73
30.49,-3.03,9.15,2.60
30.50,-3.10,9.16,2.45
30.50,-3.14,9.23,2.33
30.50,-3.18,9.29,2.20
30.50,-3.27,9.31,2.11
30.50,-3.35,9.37,1.97
30.51,-3.42,9.36,1.88
30.51,-3.49,9.42,1.80
30.51,-3.64,9.44,1.62
30.51,-3.64,9.40,1.42
30.52,-3.57,9.43,1.20
30.52,-3.60,9.46,1.06
30.52,-3.62,9.51,1.08
30.52,-3.67,9.58,1.05
30.53,-3.69,9.57,0.99
30.53,-3.76,9.56,0.90
30.53,-3.84,9.57,0.84
30.53,-3.89,9.56,0.78
30.54,-3.97,9.53,0.72
30.54,-4.04,9.51,0.72
30.54,-4.05,9.48,0.71
30.54,-4.06,9.46,0.72
30.55,-4.08,9.42,0.79
30.55,-4.07,9.42,0.84
30.55,-4.05,9.41,0.90
30.55,-4.04,9.38,0.98
30.55,-4.00,9.36,1.09
30.56,-3.95,9.39,1.18
30.56,-3.87,9.38,1.30
30.56,-3.76,9.39,1.43
30.56,-3.62,9.43,1.55
30.57,-3.50,9.44,1.67
30.57,-3.43,9.47,1.80
30.57,-3.36,9.52,1.88
30.57,-3.31,9.53,2.01
30.58,-3.33,9.45,2.12
30.58,-3.33,9.44,2.23
30.58,-3.30,9.41,2.32
30.58,-3.30,9.43,2.44
30.59,-3.27,9.40,2.53
30.59,-3.26,9.40,2.62
30.59,-3.16,9.44,2.64
30.59,-3.21,9.41,2.70
30.60,-3.22,9.42,2.85
30.60,-3.25,9.38,2.96
30.60,-3.29,9.39,3.00
30.60,-3.29,9.38,3.05
30.60,-3.28,9.38,3.08
30.61,-3.28,9.40,3.12
30.61,-3.28,9.41,3.11
30.61,-3.27,9.39,3.07
30.61,-3.26,9.39,3.00
30.62,-3.25,9.37,2.97
30.62,-3.27,9.39,2.89
30.62,-3.23,9.37,2.80
30.62,-3.23,9.39,2.75
30.63,-3.20,9.37,2.68
30.63,-3.21,9.35,2.63
30.63,-3.19,9.34,2.51
30.63,-3.20,9.31,2.44
30.64,-3.21,9.33,2.41
30.64,-3.18,9.30,2.37
30.64,-3.16,9.25,2.33
30.64,-3.15,9.23,2.32
30.64,-3.10,9.19,2.31
30.65,-3.08,9.15,2.30
30.65,-3.07,9.10,2.33
30.65,-3.07,9.03,2.36
30.65,-3.10,8.98,2.38
30.66,-3.09,8.92,2.45
30.66,-3.12,8.88,2.52
30.66,-3.11,8.88,2.62
30.66,-3.11,8.82,2.72
30.67,-3.11,8.76,2.79
30.67,-3.11,8.70,2.83
30.67,-3.08,8.64,2.93
30.67,-3.09,8.54,3.05
30.68,-3.07,8.47,3.17
30.68,-3.09,8.39,3.25
30.68,-3.14,8.34,3.35
30.68,-3.16,8.23,3.44
30.69,-3.21,8.08,3.47
30.69,-3.27,8.00,3.53
30.69,-3.27,7.92,3.56
30.69,-3.26,7.86,3.57
30.69,-3.25,7.71,3.58
30.70,-3.28,7.59,3.59
30.70,-3.31,7.51,3.59
30.70,-3.26,7.45,3.60
30.70,-3.12,7.38,3.54
30.71,-2.90,7.30,3.22
30.71,-2.99,7.12,3.26
30.71,-3.03,6.99,3.35
30.71,-3.07,6.87,3.40
30.72,-3.02,6.74,3.35
30.72,-2.97,6.66,3.31
30.72,-2.92,6.53,3.24
30.72,-2.88,6.46,3.16
30.73,-2.80,6.36,3.03
30.73,-2.76,6.21,2.89
30.73,-2.74,6.13,2.69
30.73,-2.72,6.03,2.56
30.74,-2.69,5.92,2.36
30.74,-2.63,5.85,2.21
30.74,-2.53,5.83,2.13
30.74,-2.39,5.76,2.01
30.74,-2.24,5.72,1.96
30.75,-2.16,5.68,1.86
30.75,-2.03,5.69,1.80
30.75,-1.95,5.68,1.70
30.75,-1.91,5.67,1.58
30.76,-1.88,5.71,1.50
30.76,-1.82,5.76,1.39
30.76,-1.78,5.83,1.33
30.76,-1.78,5.94,1.25
30.77,-1.80,6.06,1.26
30.77,-1.86,6.23,1.19
30.77,-1.92,6.39,1.16
30.77,-1.98,6.65,1.14
30.78,-2.00,6.90,1.13
30.78,-2.00,7.20,1.12
30.78,-1.98,7.48,1.07
30.78,-1.89,7.78,1.03
30.79,-1.77,8.08,0.94
30.79,-1.59,8.36,0.87
30.79,-1.37,8.64,0.80
30.79,-1.11,8.88,0.68
30.79,-0.86,9.10,0.58
30.80,-0.64,9.28,0.45
30.80,-0.41,9.43,0.35
30.80,-0.20,9.58,0.26
30.80,0.03,9.69,0.19
30.81,0.20,9.74,0.12
30.81,0.40,9.76,0.12
30.81,0.57,9.76,0.10
30.81,0.76,9.74,0.11
30.82,0.89,9.68,0.07
30.82,1.03,9.59,0.02
30.82,1.15,9.55,-0.03
30.82,1.25,9.51,-0.14
30.83,1.36,9.43,-0.24
30.83,1.47,9.45,-0.37
30.83,1.53,9.45,-0.49
30.83,1.58,9.44,-0.57
30.83,1.69,9.47,-0.65
30.84,1.79,9.51,-0.68
30.84,1.76,9.56,-0.81
30.84,1.78,9.67,-0.82
30.84,1.80,9.77,-0.80
30.85,1.77,9.91,-0.79
30.85,1.75,10.05,-0.74
30.85,1.69,10.27,-0.67
30.85,1.61,10.50,-0.57
30.86,1.55,10.80,-0.49
30.86,1.49,11.19,-0.37
30.86,1.42,11.65,-0.24
30.86,1.34,12.18,-0.13
30.87,1.26,12.82,0.03
30.87,1.09,13.46,0.13
30.87,0.81,14.12,0.21
30.87,0.40,14.78,0.19
30.88,-0.20,15.46,0.25
30.88,-0.78,16.15,0.54
30.88,-1.48,16.95,0.77
30.88,-2.34,17.78,1.07
30.88,-3.26,18.60,1.41
30.89,-4.21,19.38,1.79
30.89,-5.06,20.07,2.07
30.89,-5.95,20.50,2.22
30.89,-6.81,20.63,2.18
30.90,-7.59,20.49,2.05
30.90,-8.18,20.16,1.84
30.90,-8.60,19.70,1.54
30.90,-8.85,19.13,1.11
30.91,-8.93,18.50,0.68
30.91,-8.86,17.79,0.24
30.91,-8.54,17.07,0.00
30.91,-7.73,16.36,-0.18
30.92,-6.77,15.68,-0.31
30.92,-5.97,15.02,-0.48
30.92,-5.38,14.35,-0.70
30.92,-5.02,13.69,-0.91
30.93,-4.86,12.99,-1.09
30.93,-4.73,12.39,-1.15
30.93,-4.51,11.86,-1.41
30.93,-4.42,11.46,-1.58
30.93,-4.39,11.03,-1.67
30.94,-4.41,10.55,-1.83
30.94,-4.46,10.07,-2.00
30.94,-4.44,9.56,-2.20
30.94,-4.51,9.14,-2.30
30.95,-4.60,8.71,-2.40
30.95,-4.68,8.30,-2.45
30.95,-4.86,7.88,-2.45
30.95,-5.10,7.57,-2.54
30.96,-5.29,7.28,-2.60
30.96,-5.42,6.96,-2.42
30.96,-5.60,6.71,-2.15
30.96,-5.80,6.47,-2.02
30.97,-6.05,6.35,-1.77
30.97,-6.48,6.26,-1.53
30.97,-6.84,6.19,-1.29
30.97,-7.03,6.10,-0.86
30.98,-7.17,6.06,-0.53
30.98,-7.38,6.00,-0.27
30.98,-7.58,5.93,-0.02
30.98,-7.59,5.83,0.11
30.98,-7.62,5.77,0.28
30.99,-7.65,5.76,0.32
30.99,-7.63,5.69,0.36
30.99,-7.60,5.64,0.46
30.99,-7.50,5.55,0.70
31.00,-7.25,5.48,0.93
31.00,-6.96,5.40,1.02
31.00,-6.74,5.29,1.02
31.00,-6.62,5.14,0.92
31.01,-6.42,5.02,0.84
31.01,-6.23,5.01,0.70
31.01,-6.00,5.08,0.54
31.01,-5.83,5.21,0.50
31.02,-5.63,5.42,0.49
31.02,-5.61,5.50,0.41
31.02,-5.61,5.57,0.43
31.02,-5.53,5.70,0.40
31.03,-5.45,5.82,0.39
31.03,-5.33,6.04,0.37
31.03,-5.17,6.22,0.42
31.03,-5.02,6.41,0.45
31.03,-4.89,6.64,0.46
31.04,-4.71,6.93,0.43
31.04,-4.41,7.34,0.51
31.04,-4.12,7.76,0.62
31.04,-3.86,8.15,0.74
31.05,-3.53,8.61,0.89
31.05,-3.24,9.08,1.05
31.05,-2.96,9.56,1.19
31.05,-2.69,10.04,1.39
31.06,-2.44,10.53,1.57
31.06,-2.25,11.04,1.81
31.06,-2.09,11.52,2.01
31.06,-1.93,11.96,2.27
31.07,-1.77,12.40,2.51
31.07,-1.65,12.77,2.78
31.07,-1.53,13.08,3.06
31.07,-1.39,13.39,3.34
31.07,-1.29,13.60,3.59
31.08,-1.15,13.76,3.83
31.08,-0.96,13.88,4.02
31.08,-0.80,13.92,4.19
31.08,-0.56,13.95,4.30
31.09,-0.29,13.89,4.40
31.09,0.00,13.76,4.43
31.09,0.32,13.58,4.39
31.09,0.62,13.35,4.32
31.10,0.88,13.07,4.23
31.10,1.09,12.74,4.12
31.10,1.27,12.37,3.96
31.10,1.40,12.02,3.82
31.11,1.45,11.66,3.63
31.11,1.42,11.28,3.42
31.11,1.33,10.90,3.22
31.11,1.14,10.54,3.01
31.12,0.75,10.18,2.82
31.12,0.25,9.86,2.67
31.12,-0.32,9.54,2.52
31.12,-0.84,9.26,2.39
31.12,-1.26,9.04,2.30
31.13,-1.62,8.84,2.30
31.13,-1.90,8.75,2.28
31.13,-2.15,8.63,2.24
31.13,-2.41,8.53,2.25
31.14,-2.65,8.41,2.23
31.14,-2.87,8.33,2.20
31.14,-3.05,8.29,2.18
31.14,-3.21,8.26,2.23
31.15,-3.36,8.26,2.28
31.15,-3.52,8.25,2.31
31.15,-3.68,8.22,2.38
31.15,-4.04,8.12,2.31
31.16,-4.13,8.07,2.20
31.16,-4.01,8.10,2.22
31.16,-3.91,8.08,2.27
31.16,-3.91,8.03,2.28
31.17,-3.99,7.99,2.31
31.17,-4.00,7.98,2.34
31.17,-4.07,7.93,2.36
31.17,-4.10,7.88,2.37
31.17,-4.02,7.91,2.35
31.18,-3.96,7.89,2.29
31.18,-3.92,7.90,2.18
31.18,-3.81,7.86,2.07
31.18,-3.74,7.86,1.93
31.19,-3.62,7.86,1.83
31.19,-3.57,7.81,1.67
31.19,-3.49,7.82,1.53
31.19,-3.39,7.80,1.40
31.20,-3.35,7.79,1.28
31.20,-3.33,7.76,1.17
31.20,-3.37,7.71,1.03
31.20,-3.45,7.64,0.86
31.21,-3.46,7.76,0.94
31.21,-3.32,7.75,1.22
31.21,-3.27,7.65,1.32
31.21,-3.31,7.59,1.37
31.22,-3.39,7.53,1.40
31.22,-3.42,7.45,1.39
31.22,-3.43,7.37,1.46
31.22,-3.38,7.26,1.58
31.22,-3.28,7.20,1.70
31.23,-3.24,7.16,1.85
31.23,-3.17,7.11,2.04
31.23,-3.10,7.09,2.21
31.23,-3.03,7.05,2.40
31.24,-2.99,7.04,2.54
31.24,-2.95,7.00,2.69
31.24,-2.91,6.99,2.83
31.24,-2.86,6.98,2.97
31.25,-2.82,7.01,3.10
31.25,-2.81,7.00,3.23
31.25,-2.77,7.05,3.34
31.25,-2.75,7.11,3.44
31.26,-2.74,7.18,3.55
31.26,-2.74,7.25,3.61
31.26,-2.76,7.32,3.69
31.26,-2.81,7.37,3.75
31.27,-2.81,7.46,3.81
31.27,-2.82,7.58,3.87
31.27,-2.82,7.72,3.89
31.27,-2.86,7.83,3.92
31.27,-2.89,8.00,3.97
31.28,-2.97,8.15,3.99
31.28,-2.97,8.24,4.06
31.28,-3.00,8.35,4.07
31.28,-3.04,8.44,4.10
31.29,-3.06,8.54,4.12
31.29,-3.11,8.64,4.16
31.29,-3.15,8.71,4.16
31.29,-3.23,8.78,4.16
31.30,-3.29,8.85,4.18
31.30,-3.39,8.91,4.19
31.30,-3.47,8.89,4.20
31.30,-3.58,8.92,4.20
31.31,-3.55,8.96,4.14
31.31,-3.58,9.01,4.08
31.31,-3.61,9.01,4.06
31.31,-3.71,8.99,4.03
31.31,-3.75,8.95,3.97
31.32,-3.80,8.90,3.92
31.32,-3.84,8.87,3.86
31.32,-3.86,8.82,3.80
31.32,-3.92,8.79,3.77
31.33,-3.95,8.75,3.72
31.33,-3.98,8.68,3.68
31.33,-3.99,8.64,3.62
31.33,-4.04,8.58,3.57
31.34,-4.07,8.50,3.51
31.34,-4.08,8.43,3.49
31.34,-4.10,8.41,3.47
31.34,-4.12,8.32,3.43
31.35,-4.15,8.30,3.37
31.35,-4.17,8.25,3.35
31.35,-4.17,8.22,3.28
31.35,-4.17,8.17,3.24
31.36,-4.23,8.17,3.17
31.36,-4.29,8.16,3.09
31.36,-4.33,8.14,3.06
31.36,-4.38,8.14,3.03
31.36,-4.42,8.16,2.97
31.37,-4.46,8.14,2.94
31.37,-4.50,8.15,2.91
31.37,-4.55,8.17,2.89
31.37,-4.59,8.15,2.88
31.38,-4.64,8.11,2.84
31.38,-4.68,8.07,2.81
31.38,-4.71,8.02,2.80
31.38,-4.72,8.00,2.77
31.39,-4.75,7.94,2.75
31.39,-4.78,7.89,2.72
31.39,-4.79,7.81,2.74
31.39,-4.79,7.78,2.74
31.40,-4.79,7.73,2.76
31.40,-4.77,7.70,2.76
31.40,-4.74,7.66,2.79
31.40,-4.72,7.64,2.81
31.41,-4.67,7.66,2.86
31.41,-4.61,7.66,2.90
31.41,-4.55,7.71,2.97
31.41,-4.47,7.77,3.00
31.41,-4.40,7.85,3.10
31.42,-4.32,7.92,3.17
31.42,-4.26,8.00,3.24
31.42,-4.19,8.07,3.32
31.42,-4.15,8.12,3.38
31.43,-4.10,8.21,3.43
31.43,-4.10,8.26,3.48
31.43,-4.08,8.31,3.52
31.43,-4.09,8.37,3.53
31.44,-4.10,8.42,3.55
31.44,-4.13,8.47,3.57
31.44,-4.15,8.56,3.58
31.44,-4.19,8.61,3.57
31.45,-4.24,8.68,3.57
31.45,-4.25,8.73,3.57
31.45,-4.32,8.79,3.58
31.45,-4.30,8.84,3.53
31.46,-4.32,8.94,3.51
31.46,-4.35,9.00,3.48
31.46,-4.38,9.08,3.43
31.46,-4.38,9.14,3.41
31.46,-4.37,9.21,3.40
31.47,-4.37,9.25,3.33
31.47,-4.37,9.29,3.27
31.47,-4.32,9.36,3.21
31.47,-4.28,9.42,3.16
31.48,-4.23,9.45,3.12
31.48,-4.18,9.45,3.11
31.48,-4.11,9.47,3.12
31.48,-4.07,9.46,3.17
31.49,-4.04,9.42,3.22
31.49,-4.01,9.38,3.31
31.49,-4.01,9.37,3.40
31.49,-4.02,9.35,3.51
31.50,-4.07,9.33,3.68
31.50,-4.14,9.35,3.85
31.50,-4.24,9.34,4.05
31.50,-4.34,9.32,4.26
31.50,-4.45,9.37,4.45
31.51,-4.56,9.38,4.66
31.51,-4.64,9.40,4.84
31.51,-4.73,9.40,5.02
31.51,-4.82,9.41,5.17
31.52,-4.87,9.44,5.26
31.52,-4.94,9.50,5.32
31.52,-5.00,9.55,5.36
31.52,-5.05,9.63,5.37
31.53,-5.08,9.74,5.33
31.53,-5.11,9.88,5.27
31.53,-5.15,10.00,5.21
31.53,-5.21,10.20,5.12
31.54,-5.28,10.33,4.97
31.54,-5.32,10.49,4.80
31.54,-5.37,10.65,4.60
31.54,-5.39,10.79,4.37
31.55,-5.41,10.90,4.10
31.55,-5.49,10.88,3.81
31.55,-5.43,11.09,3.52
31.55,-5.26,11.33,3.22
31.55,-5.11,11.56,2.89
31.56,-4.92,11.78,2.56
31.56,-4.74,12.00,2.27
31.56,-4.57,12.22,2.03
31.56,-4.37,12.41,1.79
31.57,-4.15,12.65,1.57
31.57,-3.89,12.86,1.42
31.57,-3.61,13.12,1.32
31.57,-3.36,13.44,1.24
31.58,-3.10,13.76,1.14
31.58,-2.86,14.13,1.05
31.58,-2.63,14.50,0.88
31.58,-2.39,14.81,0.73
31.59,-2.17,15.07,0.58
31.59,-1.81,15.30,0.38
31.59,-1.69,15.46,0.27
31.59,-1.76,15.62,0.46
31.60,-1.80,15.75,0.48
31.60,-1.72,15.80,0.67
31.60,-1.55,15.89,0.96
31.60,-1.28,15.96,1.19
31.60,-0.98,16.04,1.30
31.61,-0.71,16.02,1.38
31.61,-0.46,15.88,1.50
31.61,-0.26,15.70,1.67
31.61,-0.13,15.44,1.90
31.62,-0.08,15.16,2.08
31.62,-0.10,14.86,2.24
31.62,-0.19,14.49,2.36
31.62,-0.41,14.03,2.37
31.63,-0.69,13.48,2.38
31.63,-0.96,12.88,2.39
31.63,-1.28,12.31,2.37
31.63,-1.71,11.66,2.24
31.64,-2.05,11.09,2.04
31.64,-2.42,10.49,1.84
31.64,-2.80,9.95,1.58
31.64,-3.23,9.41,1.29
31.65,-3.66,8.95,1.05
31.65,-3.86,8.40,1.08
31.65,-4.11,7.79,0.84
31.65,-4.46,7.26,0.40
31.65,-4.76,6.77,-0.06
31.66,-4.91,6.34,-0.38
31.66,-5.14,6.01,-0.81
31.66,-5.32,5.72,-1.44
31.66,-5.35,5.46,-1.93
31.67,-5.32,5.16,-2.29
31.67,-5.25,4.92,-2.58
31.67,-5.16,4.69,-2.85
31.67,-5.04,4.58,-3.13
31.68,-4.75,4.52,-3.37
31.68,-4.42,4.46,-3.41
31.68,-4.13,4.35,-3.39
31.68,-3.85,4.35,-3.30
31.69,-3.64,4.36,-3.20
31.69,-3.40,4.39,-3.03
31.69,-3.23,4.51,-2.79
31.69,-3.03,4.69,-2.47
31.70,-2.90,4.85,-2.14
31.70,-2.83,5.10,-1.86
31.70,-2.80,5.37,-1.56
31.70,-2.67,5.71,-1.28
31.70,-2.50,6.13,-1.02
31.71,-2.32,6.64,-0.83
31.71,-2.13,7.12,-0.65
31.71,-1.93,7.65,-0.50
31.71,-1.83,8.23,-0.37
31.72,-1.66,8.85,-0.19
31.72,-1.40,9.45,-0.09
31.72,-1.18,9.92,-0.07
31.72,-1.00,10.40,-0.02
31.73,-0.77,10.87,0.23
31.73,-0.64,11.47,0.30
31.73,-0.44,12.01,0.30
31.73,-0.32,12.47,0.26
31.74,-0.10,12.70,0.39
31.74,0.16,12.92,0.62
31.74,0.40,13.01,0.86
31.74,0.62,13.07,1.10
31.74,0.75,13.13,1.32
31.75,0.99,13.09,1.63
31.75,1.28,13.06,1.97
31.75,1.59,12.98,2.28
31.75,2.05,12.73,2.49
31.76,2.37,12.47,2.55
31.76,2.50,12.20,2.53
31.76,2.58,11.90,2.52
31.76,2.68,11.59,2.49
31.77,2.74,11.33,2.50
31.77,2.78,11.10,2.64
31.77,2.83,10.87,2.82
31.77,2.90,10.66,3.00
31.78,2.86,10.48,3.18
31.78,2.74,10.32,3.32
31.78,2.50,10.22,3.26
31.78,2.17,10.17,3.08
31.79,1.73,10.00,2.88
31.79,1.26,9.67,2.73
31.79,0.85,9.38,2.57
31.79,0.56,9.08,2.49
31.79,0.28,8.83,2.49
31.80,0.11,8.64,2.52
31.80,-0.03,8.48,2.52
31.80,-0.19,8.30,2.56
31.80,-0.35,8.18,2.53
31.81,-0.57,8.08,2.52
31.81,-0.74,7.98,2.51
31.81,-0.94,7.93,2.47
31.81,-1.09,7.93,2.47
31.82,-1.25,7.93,2.45
31.82,-1.42,7.94,2.43
31.82,-1.60,7.96,2.45
31.82,-1.71,7.99,2.44
31.83,-1.82,8.03,2.42
31.83,-1.89,8.10,2.41
31.83,-1.96,8.15,2.40
31.83,-2.00,8.22,2.34
31.84,-2.06,8.29,2.30
31.84,-2.13,8.36,2.25
31.84,-2.17,8.41,2.17
31.84,-2.16,8.55,2.14
31.84,-2.19,8.63,2.08
31.85,-2.27,8.72,1.98
31.85,-2.40,8.78,1.87
31.85,-2.54,8.81,1.73
31.85,-2.66,8.86,1.58
31.86,-2.69,9.00,1.46
31.86,-2.75,9.07,1.31
31.86,-2.87,9.15,1.12
31.86,-2.77,9.29,0.96
31.87,-2.75,9.40,0.72
31.87,-2.89,9.45,0.60
31.87,-3.01,9.47,0.54
31.87,-3.09,9.53,0.49
31.88,-3.06,9.61,0.38
31.88,-3.04,9.66,0.28
31.88,-3.04,9.67,0.23
31.88,-3.08,9.69,0.26
31.89,-3.15,9.71,0.32
31.89,-3.17,9.73,0.37
31.89,-3.16,9.75,0.43
31.89,-3.15,9.78,0.48
31.89,-3.12,9.82,0.58
31.90,-3.07,9.86,0.66
31.90,-3.09,9.87,0.74
31.90,-3.11,9.89,0.84
31.90,-3.07,9.96,0.93
31.91,-3.04,9.99,1.02
31.91,-3.03,9.98,1.12
31.91,-3.00,9.98,1.25
31.91,-2.95,9.97,1.33
31.92,-2.94,9.95,1.42
31.92,-2.87,10.00,1.53
31.92,-2.70,10.05,1.62
31.92,-2.75,9.98,1.73
31.93,-2.80,9.90,1.90
31.93,-2.85,9.80,2.09
31.93,-2.84,9.73,2.23
31.93,-2.87,9.66,2.34
31.93,-2.85,9.59,2.43
31.94,-2.80,9.53,2.50
31.94,-2.75,9.49,2.57
31.94,-2.74,9.48,2.61
31.94,-2.74,9.43,2.63
31.95,-2.74,9.39,2.65
31.95,-2.73,9.35,2.62
31.95,-2.72,9.31,2.61
31.95,-2.76,9.28,2.60
31.96,-2.75,9.24,2.57
31.96,-2.78,9.21,2.51
31.96,-2.79,9.21,2.45
31.96,-2.79,9.19,2.36
31.97,-2.84,9.16,2.30
31.97,-2.86,9.13,2.24
31.97,-2.89,9.12,2.13
31.97,-2.91,9.10,2.06
31.98,-2.97,9.10,1.98
31.98,-3.03,9.12,1.92
31.98,-3.09,9.13,1.84
31.98,-3.09,9.12,1.77
31.98,-3.10,9.11,1.73
31.99,-3.13,9.12,1.70
31.99,-3.12,9.16,1.67
31.99,-3.13,9.20,1.63
31.99,-3.14,9.21,1.60
32.00,-3.15,9.23,1.60
32.00,-3.15,9.23,1.61
32.00,-3.11,9.31,1.62
32.00,-3.08,9.35,1.63
32.01,-3.05,9.41,1.64
32.01,-3.04,9.46,1.68
32.01,-2.99,9.49,1.72
32.01,-3.01,9.50,1.73
32.02,-3.00,9.53,1.76
32.02,-2.97,9.57,1.80
32.02,-2.92,9.57,1.84
32.02,-2.89,9.56,1.89
32.03,-2.86,9.50,1.90
32.03,-2.82,9.46,1.98
32.03,-2.82,9.40,1.99
32.03,-2.84,9.33,2.04
32.03,-2.84,9.32,2.06
32.04,-2.83,9.25,2.10
32.04,-2.83,9.21,2.11
32.04,-2.81,9.15,2.16
32.04,-2.81,9.10,2.21
32.05,-2.78,9.10,2.25
32.05,-2.78,9.08,2.27
32.05,-2.81,9.01,2.27
32.05,-2.61,9.03,2.14
32.06,-2.58,8.94,2.02
32.06,-2.66,8.86,2.12
32.06,-2.79,8.75,2.27
32.06,-2.89,8.64,2.38
32.07,-2.94,8.54,2.51
32.07,-2.97,8.49,2.58
32.07,-3.01,8.44,2.63
32.07,-3.03,8.37,2.71
32.08,-3.05,8.30,2.71
32.08,-3.06,8.20,2.73
32.08,-3.07,8.15,2.73
32.08,-3.08,8.08,2.78
32.08,-3.09,8.01,2.76
32.09,-3.12,7.90,2.77
32.09,-3.13,7.81,2.75
32.09,-3.13,7.76,2.78
32.09,-3.17,7.66,2.76
32.10,-3.20,7.55,2.74
32.10,-3.19,7.43,2.71
32.10,-3.15,7.37,2.73
32.10,-3.05,7.30,2.75
32.11,-2.98,7.22,2.73
32.11,-2.96,7.13,2.69
32.11,-2.96,7.03,2.64
32.11,-2.94,6.93,2.59
32.12,-2.91,6.86,2.56
32.12,-2.84,6.82,2.51
32.12,-2.79,6.76,2.45
32.12,-2.70,6.73,2.34
32.13,-2.61,6.74,2.23
32.13,-2.55,6.76,2.16
32.13,-2.54,6.74,2.10
32.13,-2.51,6.81,2.04
32.13,-2.46,6.93,1.97
32.14,-2.46,6.99,1.93
32.14,-2.52,7.10,1.88
32.14,-2.57,7.15,1.85
32.14,-2.64,7.25,1.84
32.15,-2.69,7.34,1.85
32.15,-2.75,7.41,1.81
32.15,-2.85,7.48,1.81
32.15,-2.92,7.55,1.82
32.16,-2.97,7.61,1.82
32.16,-3.02,7.63,1.82
32.16,-3.07,7.70,1.82
32.16,-3.08,7.79,1.82
32.17,-3.03,7.86,1.82
32.17,-2.95,8.00,1.77
32.17,-2.89,8.14,1.74
32.17,-2.81,8.26,1.67
32.17,-2.74,8.40,1.55
32.18,-2.69,8.48,1.44
32.18,-2.57,8.53,1.32
32.18,-2.50,8.61,1.22
32.18,-2.37,8.69,1.06
32.19,-2.27,8.72,0.92
32.19,-2.14,8.74,0.78
32.19,-2.04,8.73,0.70
32.19,-1.89,8.75,0.61
32.20,-1.80,8.71,0.54
32.20,-1.66,8.65,0.46
32.20,-1.48,8.60,0.38
32.20,-1.37,8.47,0.38
32.21,-1.20,8.39,0.37
32.21,-0.98,8.30,0.38
32.21,-0.80,8.22,0.43
32.21,-0.58,8.15,0.49
32.22,-0.43,8.08,0.58
32.22,-0.30,8.05,0.72
32.22,-0.15,7.99,0.85
32.22,-0.03,7.99,1.00
32.22,0.08,8.05,1.16
32.23,0.19,8.14,1.31
32.23,0.26,8.28,1.45
32.23,0.31,8.48,1.58
32.23,0.28,8.68,1.74
32.24,0.21,8.92,1.86
32.24,0.06,9.17,2.03
32.24,-0.03,9.46,2.18
32.24,-0.10,9.78,2.32
32.25,-0.28,10.12,2.44
32.25,-0.50,10.48,2.50
32.25,-0.71,10.83,2.58
32.25,-0.88,11.19,2.61
32.26,-1.07,11.60,2.60
32.26,-1.25,11.95,2.56
32.26,-1.44,12.34,2.49
32.26,-1.67,12.73,2.41
32.27,-1.90,13.14,2.30
32.27,-2.17,13.52,2.18
32.27,-2.47,13.93,2.06
32.27,-2.82,14.28,1.88
32.27,-3.15,14.61,1.72
32.28,-3.52,14.96,1.57
32.28,-3.89,15.24,1.36
32.28,-4.18,15.50,1.14
32.28,-4.44,15.74,0.89
32.29,-4.71,15.94,0.65
32.29,-4.89,16.13,0.40
32.29,-4.88,16.29,0.19
32.29,-4.70,16.43,-0.01
32.30,-4.44,16.48,-0.26
32.30,-4.16,16.34,-0.48
32.30,-3.82,16.13,-0.68
32.30,-3.41,15.87,-0.89
32.31,-3.02,15.56,-1.22
32.31,-2.70,15.18,-1.76
32.31,-2.43,14.82,-2.22
32.31,-2.18,14.49,-2.46
32.32,-2.00,14.17,-2.60
32.32,-1.90,13.83,-2.79
32.32,-1.86,13.52,-2.94
32.32,-1.76,13.22,-2.96
32.32,-1.70,12.90,-2.98
32.33,-1.73,12.58,-2.94
32.33,-1.80,12.22,-2.82
32.33,-1.87,11.84,-2.67
32.33,-1.97,11.44,-2.52
32.34,-2.08,11.02,-2.34
32.34,-2.12,10.61,-2.14
32.34,-2.20,10.29,-1.92
32.34,-2.39,9.89,-1.64
32.35,-2.49,9.47,-1.62
32.35,-2.62,9.16,-1.68
32.35,-2.74,8.85,-1.66
32.35,-2.88,8.55,-1.62
32.36,-3.11,8.37,-1.78
32.36,-3.21,8.23,-1.31
32.36,-3.48,8.02,-0.81
32.36,-3.89,7.82,-0.58
32.37,-4.23,7.67,-0.34
32.37,-4.56,7.50,-0.08
32.37,-4.78,7.33,0.41
32.37,-4.94,7.11,0.89
32.37,-5.19,6.95,1.21
32.38,-5.63,6.87,1.35
32.38,-6.08,6.77,1.35
32.38,-6.46,6.66,1.37
32.38,-6.72,6.56,1.28
32.39,-6.95,6.44,1.19
32.39,-7.06,6.36,1.22
32.39,-7.06,6.30,1.33
32.39,-7.01,6.26,1.40
32.40,-6.92,6.15,1.44
32.40,-6.76,6.08,1.43
32.40,-6.78,6.08,1.47
32.40,-6.69,6.10,1.45
32.41,-6.27,6.04,1.46
32.41,-6.16,6.12,1.46
32.41,-6.24,6.31,1.51
32.41,-6.15,6.50,1.52
32.41,-6.07,6.66,1.46
32.42,-6.04,6.81,1.29
32.42,-5.74,7.16,1.26
32.42,-5.42,7.48,1.28
32.42,-5.10,7.81,1.38
32.43,-4.85,8.09,1.49
32.43,-4.57,8.41,1.67
32.43,-4.29,8.73,1.85
32.43,-4.01,9.07,2.08
32.44,-3.76,9.40,2.33
32.44,-3.55,9.75,2.58
32.44,-3.36,10.07,2.86
32.44,-3.20,10.37,3.11
32.45,-3.00,10.67,3.34
32.45,-2.84,10.97,3.57
32.45,-2.67,11.23,3.78
32.45,-2.54,11.45,3.98
32.46,-2.41,11.64,4.19
32.46,-2.23,11.81,4.33
32.46,-2.00,11.99,4.48
32.46,-1.75,12.11,4.61
32.46,-1.50,12.21,4.72
32.47,-1.27,12.23,4.80
32.47,-1.05,12.17,4.80
32.47,-0.90,12.11,4.77
32.47,-0.75,12.01,4.67
32.48,-0.60,11.84,4.51
32.48,-0.44,11.67,4.35
32.48,-0.33,11.45,4.17
32.48,-0.28,11.21,3.91
32.49,-0.20,10.90,3.66
32.49,-0.11,10.60,3.44
32.49,-0.08,10.34,3.24
32.49,-0.20,10.06,3.06
32.50,-0.50,9.73,2.95
32.50,-0.90,9.43,2.80
32.50,-1.29,9.14,2.63
32.50,-1.64,8.90,2.50
32.51,-1.93,8.71,2.41
32.51,-2.15,8.53,2.35
32.51,-2.32,8.38,2.32
32.51,-2.45,8.29,2.34
32.51,-2.56,8.21,2.33
32.52,-2.64,8.15,2.37
32.52,-2.68,8.17,2.41
32.52,-2.73,8.18,2.54
32.52,-2.76,8.25,2.67
32.53,-2.76,8.33,2.78
32.53,-2.77,8.40,2.88
32.53,-2.80,8.48,2.94
32.53,-2.80,8.56,3.00
32.54,-2.79,8.65,3.02
32.54,-2.79,8.76,3.02
32.54,-2.78,8.85,3.05
32.54,-2.97,8.88,2.98
32.55,-3.11,8.81,2.59
32.55,-2.93,9.00,2.54
32.55,-2.79,9.15,2.62
32.55,-2.73,9.25,2.66
32.56,-2.74,9.35,2.73
32.56,-2.74,9.38,2.76
32.56,-2.80,9.41,2.80
32.56,-2.73,9.50,2.77
32.56,-2.65,9.57,2.72
32.57,-2.57,9.63,2.65
32.57,-2.53,9.69,2.57
32.57,-2.48,9.72,2.50
32.57,-2.44,9.74,2.39
32.58,-2.41,9.72,2.34
32.58,-2.40,9.70,2.24
32.58,-2.34,9.69,2.18
32.58,-2.26,9.62,2.10
32.59,-2.19,9.54,2.04
32.59,-2.09,9.44,1.96
32.59,-1.96,9.28,1.88
32.59,-1.97,9.25,1.81
32.60,-1.90,9.29,1.83
32.60,-1.87,9.26,1.87
32.60,-1.95,9.25,1.94
32.60,-2.00,9.17,2.05
32.60,-1.98,9.11,2.15
32.61,-1.94,9.06,2.33
32.61,-1.85,8.94,2.45
32.61,-1.75,8.86,2.58
32.61,-1.67,8.75,2.71
32.62,-1.57,8.67,2.86
32.62,-1.52,8.60,3.01
32.62,-1.49,8.53,3.14
32.62,-1.47,8.50,3.25
32.63,-1.47,8.42,3.37
32.63,-1.46,8.38,3.47
32.63,-1.49,8.37,3.53
32.63,-1.50,8.37,3.57
32.64,-1.52,8.36,3.64
32.64,-1.55,8.36,3.65
32.64,-1.63,8.38,3.64
32.64,-1.72,8.40,3.60
32.65,-1.81,8.41,3.57
32.65,-1.89,8.41,3.52
32.65,-1.96,8.41,3.47
32.65,-2.02,8.46,3.45
32.65,-2.06,8.48,3.39
32.66,-2.14,8.51,3.35
32.66,-2.20,8.51,3.31
32.66,-2.29,8.54,3.31
32.66,-2.34,8.55,3.31
32.67,-2.43,8.55,3.30
32.67,-2.51,8.55,3.32
32.67,-2.57,8.57,3.33
32.67,-2.66,8.60,3.39
32.68,-2.69,8.58,3.41
32.68,-2.78,8.62,3.47
32.68,-2.86,8.61,3.49
32.68,-2.92,8.61,3.52
32.69,-2.99,8.60,3.55
32.69,-3.07,8.60,3.58
32.69,-3.13,8.55,3.59
32.69,-3.20,8.55,3.63
32.70,-3.28,8.51,3.67
32.70,-3.28,8.50,3.66
32.70,-3.33,8.46,3.65
32.70,-3.36,8.45,3.65
32.70,-3.42,8.42,3.63
32.71,-3.47,8.37,3.63
32.71,-3.52,8.33,3.65
32.71,-3.57,8.30,3.67
32.71,-3.62,8.28,3.66
32.72,-3.65,8.22,3.68
32.72,-3.69,8.16,3.70
32.72,-3.75,8.13,3.72
32.72,-3.75,8.10,3.75
32.73,-3.79,8.08,3.78
32.73,-3.79,8.08,3.82
32.73,-3.81,8.07,3.79
32.73,-3.83,8.05,3.80
32.74,-3.86,8.01,3.81
32.74,-3.90,8.00,3.79
32.74,-3.94,8.00,3.79
32.74,-3.95,8.00,3.79
32.75,-3.98,8.00,3.76
32.75,-3.99,7.97,3.76
32.75,-4.01,7.97,3.74
32.75,-4.04,7.99,3.73
32.75,-4.07,8.01,3.73
32.76,-4.08,8.00,3.74
32.76,-4.13,8.02,3.72
32.76,-4.17,8.00,3.75
32.76,-4.22,8.01,3.73
32.77,-4.25,7.99,3.69
32.77,-4.33,7.97,3.65
32.77,-4.34,7.98,3.66
32.77,-4.36,7.93,3.58
32.78,-4.40,7.94,3.59
32.78,-4.43,7.97,3.58
32.78,-4.46,7.94,3.56
32.78,-4.46,7.94,3.53
32.79,-4.49,7.93,3.48
32.79,-4.48,7.93,3.48
32.79,-4.45,7.96,3.46
32.79,-4.47,7.98,3.45
32.80,-4.47,8.00,3.51
32.80,-4.53,8.00,3.53
32.80,-4.53,7.98,3.54
32.80,-4.52,7.91,3.49
32.80,-4.46,7.90,3.47
32.81,-4.39,7.90,3.42
32.81,-4.34,7.91,3.37
32.81,-4.29,7.98,3.28
32.81,-4.25,8.02,3.23
32.82,-4.24,8.09,3.18
32.82,-4.24,8.15,3.08
32.82,-4.23,8.21,3.01
32.82,-4.25,8.25,2.91
32.83,-4.23,8.28,2.82
32.83,-4.24,8.32,2.71
32.83,-4.29,8.35,2.58
32.83,-4.33,8.37,2.46
32.84,-4.38,8.38,2.30
32.84,-4.44,8.42,2.13
32.84,-4.52,8.45,1.98
32.84,-4.57,8.50,1.79
32.84,-4.64,8.51,1.64
32.85,-4.69,8.57,1.50
32.85,-4.71,8.62,1.39
32.85,-4.71,8.70,1.34
32.85,-4.67,8.80,1.32
32.86,-4.67,8.90,1.34
32.86,-4.67,9.01,1.42
32.86,-4.67,9.10,1.55
32.86,-4.69,9.22,1.72
32.87,-4.70,9.34,1.99
32.87,-4.73,9.43,2.30
32.87,-4.79,9.47,2.71
32.87,-4.88,9.44,3.14
32.88,-4.98,9.38,3.58
32.88,-5.15,9.30,4.08
32.88,-5.30,9.23,4.56
32.88,-5.42,9.18,5.00
32.89,-5.53,9.14,5.38
32.89,-5.63,9.09,5.66
32.89,-5.71,9.08,5.92
32.89,-5.80,9.08,6.05
32.89,-5.85,9.08,6.08
32.90,-5.91,9.11,6.06
32.90,-5.94,9.21,5.99
32.90,-5.98,9.33,5.84
32.90,-6.08,9.45,5.64
32.91,-6.15,9.53,5.40
32.91,-6.30,9.53,5.10
32.91,-6.40,9.56,4.76
32.91,-6.34,9.72,4.45
32.92,-6.25,9.91,4.09
32.92,-6.14,10.08,3.73
32.92,-6.00,10.25,3.39
32.92,-5.84,10.45,3.07
32.93,-5.73,10.65,2.71
32.93,-5.58,10.86,2.41
32.93,-5.47,11.08,2.12
32.93,-5.32,11.34,1.81
32.94,-5.12,11.64,1.51
32.94,-4.93,11.99,1.13
32.94,-4.65,12.44,0.73
32.94,-4.34,12.93,0.39
32.94,-3.97,13.49,0.09
32.95,-3.60,14.10,-0.16
32.95,-3.20,14.78,-0.38
32.95,-2.81,15.45,-0.62
32.95,-2.44,16.10,-0.85
32.96,-2.13,16.71,-1.10
32.96,-1.88,17.23,-1.26
32.96,-1.67,17.70,-1.41
32.96,-1.46,18.04,-1.61
32.97,-1.62,17.97,-1.72
32.97,-1.94,17.94,-1.42
32.97,-2.10,17.84,-1.29
32.97,-2.21,17.59,-0.91
32.98,-2.34,17.19,-0.51
32.98,-2.39,16.77,-0.26
32.98,-2.39,16.26,-0.01
32.98,-2.35,15.61,0.20
32.99,-2.37,14.90,0.40
32.99,-2.44,14.17,0.63
32.99,-2.48,13.46,0.87
32.99,-2.58,12.77,1.01
32.99,-2.70,12.07,1.05
33.00,-2.85,11.42,1.07
33.00,-2.92,10.84,0.99
33.00,-2.98,10.26,0.85
33.00,-3.04,9.77,0.67
33.01,-3.06,9.32,0.55
33.01,-3.11,8.87,0.37
33.01,-3.22,8.41,-0.02
33.01,-3.44,7.96,-0.44
33.02,-3.57,7.63,-0.79
33.02,-3.45,7.37,-1.06
33.02,-3.39,7.04,-1.20
33.02,-3.35,6.73,-1.39
33.03,-3.36,6.44,-1.59
33.03,-3.46,6.20,-1.74
33.03,-3.52,5.98,-1.86
33.03,-3.60,5.81,-1.88
33.04,-3.66,5.68,-1.90
33.04,-3.58,5.60,-1.89
33.04,-3.41,5.48,-1.86
33.04,-3.22,5.46,-1.75
33.04,-2.98,5.42,-1.59
33.05,-2.81,5.37,-1.46
33.05,-2.57,5.39,-1.32
33.05,-2.31,5.44,-1.16
33.05,-2.07,5.49,-0.98
33.06,-1.88,5.60,-0.74
33.06,-1.71,5.73,-0.53
33.06,-1.57,5.94,-0.26
33.06,-1.40,6.26,0.04
33.07,-1.32,6.66,0.50
33.07,-1.28,7.03,0.49
33.07,-1.14,7.41,0.63
33.07,-1.04,7.85,0.62
33.08,-0.94,8.33,0.66
33.08,-0.76,8.84,0.76
33.08,-0.51,9.33,0.93
33.08,-0.30,9.80,1.07
33.08,-0.05,10.19,1.30
33.09,0.18,10.58,1.41
33.09,0.42,10.92,1.48
33.09,0.70,11.19,1.64
33.09,0.98,11.46,1.78
33.10,1.06,11.63,1.82
33.10,1.22,11.78,1.86
33.10,1.31,11.91,1.89
33.10,1.44,12.04,1.89
33.11,1.56,12.17,1.90
33.11,1.66,12.25,1.89
33.11,1.81,12.29,1.89
33.11,2.03,12.30,1.97
33.12,2.20,12.22,1.92
33.12,2.38,12.08,1.89
33.12,2.42,11.90,1.83
33.12,2.36,11.74,1.87
33.13,2.21,11.58,1.87
33.13,2.17,11.43,1.89
33.13,2.32,11.06,2.06
33.13,2.28,10.72,2.29
33.13,2.12,10.41,2.43
33.14,1.92,10.12,2.65
33.14,1.72,9.79,2.84
33.14,1.45,9.48,2.95
33.14,1.05,9.17,3.06
33.15,0.59,8.88,3.10
33.15,0.10,8.57,3.10
33.15,-0.34,8.31,3.04
33.15,-0.78,8.09,2.94
33.16,-1.14,7.94,2.82
33.16,-1.42,7.89,2.70
33.16,-1.67,7.84,2.60
33.16,-2.02,7.72,2.52
33.17,-2.42,7.63,2.52
33.17,-2.75,7.62,2.50
33.17,-3.06,7.62,2.53
33.17,-3.28,7.67,2.56
33.18,-3.52,7.72,2.59
33.18,-3.68,7.79,2.65
33.18,-3.80,7.84,2.69
33.18,-3.94,7.91,2.75
33.18,-4.03,8.06,2.77
33.19,-4.15,8.19,2.80
33.19,-4.26,8.33,2.81
33.19,-4.34,8.49,2.82
33.19,-4.43,8.62,2.77
33.20,-4.49,8.75,2.70
33.20,-4.49,8.89,2.59
33.20,-4.47,8.98,2.44
33.20,-4.37,9.08,2.26
33.21,-4.27,9.20,2.07
33.21,-4.14,9.27,1.87
33.21,-4.00,9.30,1.70
33.21,-3.86,9.34,1.50
33.22,-3.74,9.38,1.31
33.22,-3.58,9.44,1.13
33.22,-3.48,9.48,0.95
33.22,-3.36,9.52,0.79
33.23,-3.24,9.58,0.67
33.23,-3.13,9.60,0.58
33.23,-3.02,9.64,0.49
33.23,-2.95,9.62,0.41
33.23,-2.92,9.64,0.33
33.24,-2.85,9.65,0.29
33.24,-2.80,9.67,0.27
33.24,-2.75,9.68,0.26
33.24,-2.70,9.73,0.29
33.25,-2.67,9.69,0.31
33.25,-2.60,9.72,0.32
33.25,-2.56,9.71,0.39
33.25,-2.51,9.71,0.46
33.26,-2.48,9.72,0.49
33.26,-2.43,9.75,0.57
33.26,-2.38,9.76,0.67
33.26,-2.32,9.79,0.76
33.27,-2.24,9.81,0.88
33.27,-2.18,9.83,1.00
33.27,-2.14,9.84,1.14
33.27,-2.09,9.85,1.27
33.27,-2.06,9.83,1.40
33.28,-1.99,9.83,1.53
33.28,-1.95,9.82,1.64
33.28,-1.94,9.82,1.76
33.28,-1.91,9.78,1.88
33.29,-1.89,9.75,1.98
33.29,-1.89,9.72,2.07
33.29,-1.91,9.69,2.16
33.29,-1.95,9.65,2.30
33.30,-1.97,9.61,2.38
33.30,-1.99,9.55,2.42
33.30,-2.05,9.50,2.52
33.30,-2.11,9.47,2.54
33.31,-2.12,9.45,2.55
33.31,-2.15,9.42,2.57
33.31,-2.18,9.36,2.55
33.31,-2.20,9.30,2.57
33.32,-2.25,9.27,2.56
33.32,-2.32,9.22,2.54
33.32,-2.35,9.20,2.53
33.32,-2.43,9.18,2.52
33.32,-2.50,9.17,2.48
33.33,-2.58,9.15,2.44
33.33,-2.67,9.11,2.39
33.33,-2.69,9.11,2.36
33.33,-2.75,9.13,2.31
33.34,-2.75,9.14,2.27
33.34,-2.79,9.11,2.27
33.34,-2.81,9.19,2.27
33.34,-2.76,9.16,2.20
33.35,-2.69,9.17,2.10
33.35,-2.65,9.14,2.06
33.35,-2.59,9.19,2.16
33.35,-2.55,9.18,2.10
33.36,-2.63,9.15,2.18
33.36,-2.69,9.12,2.30
33.36,-2.69,9.09,2.41
33.36,-2.69,9.09,2.48
33.37,-2.61,9.07,2.53
33.37,-2.47,9.10,2.42
33.37,-2.47,9.06,2.49
33.37,-2.49,9.05,2.57
33.37,-2.51,9.01,2.66
33.38,-2.50,8.94,2.68
33.38,-2.54,8.87,2.71
33.38,-2.53,8.81,2.79
33.38,-2.56,8.77,2.81
33.39,-2.59,8.70,2.88
33.39,-2.66,8.63,2.93
33.39,-2.70,8.59,2.94
33.39,-2.70,8.49,2.99
33.40,-2.75,8.42,3.03
33.40,-2.76,8.35,3.08
33.40,-2.74,8.28,3.07
33.40,-2.74,8.17,3.09
33.41,-2.76,8.08,3.09
33.41,-2.78,7.96,3.09
33.41,-2.80,7.80,3.09
33.41,-2.79,7.67,3.09
33.42,-2.78,7.51,3.08
33.42,-2.77,7.40,3.04
33.42,-2.79,7.23,3.03
33.42,-2.76,7.06,3.04
33.42,-2.75,6.87,2.99
33.43,-2.76,6.68,2.95
33.43,-2.77,6.48,2.88
33.43,-2.81,6.30,2.84
33.43,-2.85,6.12,2.81
33.44,-2.90,5.94,2.79
33.44,-2.95,5.75,2.75
33.44,-3.01,5.60,2.73
33.44,-3.06,5.45,2.65
33.45,-3.08,5.30,2.61
33.45,-3.12,5.15,2.56
33.45,-3.17,5.02,2.52
33.45,-3.22,4.90,2.47
33.46,-3.27,4.86,2.42
33.46,-3.26,4.85,2.41
33.46,-3.20,4.94,2.34
33.46,-3.10,5.07,2.22
33.47,-2.94,5.21,2.07
33.47,-2.80,5.33,1.91
33.47,-2.70,5.51,1.74
33.47,-2.59,5.70,1.56
33.47,-2.42,5.91,1.45
33.48,-2.26,6.19,1.28
33.48,-2.10,6.46,1.12
33.48,-1.94,6.72,0.97
33.48,-1.71,7.00,0.80
33.49,-1.50,7.34,0.61
33.49,-1.31,7.62,0.40
33.49,-1.12,7.86,0.15
33.49,-0.98,8.09,-0.12
33.50,-0.84,8.25,-0.36
33.50,-0.70,8.51,-0.62
33.50,-0.60,8.62,-0.89
33.50,-0.50,8.76,-1.12
33.51,-0.42,8.83,-1.35
33.51,-0.38,8.91,-1.59
33.51,-0.35,8.96,-1.77
33.51,-0.29,9.05,-2.01
33.51,-0.25,9.12,-2.20
33.52,-0.23,9.23,-2.38
33.52,-0.21,9.39,-2.51
33.52,-0.22,9.54,-2.60
33.52,-0.21,9.70,-2.68
33.53,-0.21,9.87,-2.69
33.53,-0.16,10.11,-2.67
33.53,-0.09,10.43,-2.55
33.53,-0.01,10.76,-2.38
33.54,0.05,11.15,-2.15
33.54,0.05,11.58,-1.88
33.54,0.03,12.00,-1.60
33.54,0.04,12.42,-1.26
33.55,-0.05,12.87,-0.94
33.55,-0.18,13.30,-0.71
33.55,-0.40,13.75,-0.60
33.55,-0.73,14.26,-0.31
33.56,-1.01,14.72,-0.07
33.56,-1.27,15.20,0.12
33.56,-1.54,15.65,0.33
33.56,-1.77,16.06,0.52
33.56,-1.97,16.43,0.71
33.57,-2.19,16.71,0.85
33.57,-2.40,16.93,0.94
33.57,-2.62,17.07,0.98
33.57,-2.80,17.14,1.00
33.58,-2.92,17.13,0.97
33.58,-2.91,17.11,0.90
33.58,-2.85,17.07,0.79
33.58,-2.74,16.89,0.74
33.59,-2.58,16.70,0.72
33.59,-2.39,16.47,0.73
33.59,-2.25,16.13,0.75
33.59,-2.16,15.78,0.84
33.60,-2.13,15.40,0.96
33.60,-2.13,15.03,1.05
33.60,-2.22,14.57,1.09
33.60,-2.38,14.10,1.16
33.61,-2.49,13.62,1.12
33.61,-2.74,13.22,1.03
33.61,-3.03,12.81,0.99
33.61,-3.24,12.42,0.91
33.61,-3.48,12.10,0.80
33.62,-3.67,11.84,0.69
33.62,-3.81,11.57,0.56
33.62,-3.95,11.30,0.38
33.62,-4.22,11.09,0.08
33.63,-4.53,10.93,-0.29
33.63,-4.72,10.73,-0.68
33.63,-4.84,10.58,-0.98
33.63,-4.97,10.38,-1.26
33.64,-5.06,10.19,-1.53
33.64,-5.06,9.93,-1.80
33.64,-5.11,9.69,-2.12
33.64,-5.42,9.54,-2.55
33.65,-5.52,9.39,-2.74
33.65,-5.68,9.21,-2.78
33.65,-5.88,9.00,-2.77
33.65,-6.10,8.81,-2.67
33.66,-6.27,8.63,-2.51
33.66,-6.42,8.48,-2.34
33.66,-6.52,8.30,-2.15
33.66,-6.67,8.13,-1.90
33.66,-6.83,8.05,-1.60
33.67,-7.03,7.94,-1.63
33.67,-6.79,7.75,-1.52
33.67,-6.39,7.57,-0.99
33.67,-6.22,7.49,-0.47
33.68,-6.31,7.55,-0.26
33.68,-6.15,7.57,0.09
33.68,-5.97,7.53,0.41
33.68,-5.74,7.49,0.63
33.69,-5.51,7.46,0.78
33.69,-5.12,7.37,0.93
33.69,-4.82,7.35,1.10
33.69,-4.61,7.41,1.22
33.70,-4.37,7.48,1.34
33.70,-4.12,7.52,1.49
33.70,-3.93,7.61,1.63
33.70,-3.67,7.69,1.79
33.70,-3.34,7.73,1.93
33.71,-3.02,7.77,2.07
33.71,-2.76,7.74,2.10
33.71,-2.38,7.86,2.21
33.71,-2.11,8.00,2.26
33.72,-1.84,8.09,2.45
33.72,-1.67,8.13,2.59
33.72,-1.64,8.20,2.63
33.72,-1.59,8.24,2.63
33.73,-1.63,8.30,2.51
33.73,-1.72,8.29,2.40
33.73,-1.96,8.23,2.21
33.73,-1.86,8.26,2.23
33.74,-1.85,8.38,2.19
33.74,-1.81,8.41,2.20
33.74,-1.82,8.36,2.18
33.74,-1.79,8.29,2.26
33.75,-1.86,8.28,2.30
33.75,-1.93,8.23,2.28
33.75,-2.02,8.21,2.28
33.75,-2.11,8.24,2.25
33.75,-2.18,8.20,2.20
33.76,-2.41,8.11,2.06
33.76,-2.42,8.11,1.91
33.76,-2.38,8.19,1.89
33.76,-2.42,8.31,1.75
33.77,-2.54,8.35,1.62
33.77,-2.61,8.43,1.46
33.77,-2.73,8.46,1.35
33.77,-2.89,8.45,1.24
33.78,-3.03,8.50,1.18
33.78,-3.20,8.62,1.08
33.78,-3.32,8.76,1.04
33.78,-3.44,8.90,0.96
33.79,-3.52,9.05,0.94
33.79,-3.59,9.21,0.94
33.79,-3.66,9.31,0.93
33.79,-3.71,9.42,0.97
33.80,-3.72,9.54,1.00
33.80,-3.76,9.67,1.06
33.80,-3.79,9.80,1.07
33.80,-3.78,9.92,1.14
33.80,-3.81,10.04,1.19
33.81,-3.81,10.14,1.24
33.81,-3.80,10.22,1.32
33.81,-3.78,10.31,1.37
33.81,-3.75,10.41,1.38
33.82,-3.69,10.47,1.45
33.82,-3.62,10.53,1.46
33.82,-3.58,10.56,1.49
33.82,-3.50,10.61,1.54
33.83,-3.39,10.63,1.61
33.83,-3.29,10.63,1.65
33.83,-3.21,10.61,1.70
33.83,-3.07,10.62,1.77
33.84,-2.94,10.59,1.84
33.84,-2.84,10.54,1.88
33.84,-2.70,10.50,1.99
33.84,-2.54,10.47,2.22
33.85,-2.39,10.44,2.35
33.85,-2.30,10.37,2.44
33.85,-2.21,10.28,2.48
33.85,-2.08,10.17,2.46
33.85,-1.94,10.03,2.46
33.86,-1.87,9.91,2.49
33.86,-1.83,9.76,2.61
33.86,-1.79,9.63,2.70
33.86,-1.80,9.51,2.77
33.87,-1.87,9.41,2.79
33.87,-1.91,9.37,2.83
33.87,-1.96,9.28,2.85
33.87,-2.03,9.21,2.84
33.88,-2.11,9.15,2.88
33.88,-2.18,9.08,2.86
33.88,-2.25,9.05,2.87
33.88,-2.30,8.98,2.88
33.89,-2.38,8.91,2.87
33.89,-2.53,8.90,2.88
33.89,-2.68,8.89,2.89
33.89,-2.80,8.91,2.87
33.90,-2.91,8.92,2.90
33.90,-2.99,8.94,2.91
33.90,-3.06,8.93,2.96
33.90,-3.13,8.88,2.97
33.90,-3.24,8.85,2.94
33.91,-3.34,8.81,2.90
33.91,-3.44,8.77,2.86
33.91,-3.48,8.77,2.83
33.91,-3.52,8.76,2.78
33.92,-3.57,8.76,2.72
33.92,-3.60,8.74,2.69
33.92,-3.65,8.74,2.67
33.92,-3.65,8.73,2.64
33.93,-3.66,8.68,2.62
33.93,-3.65,8.71,2.58
33.93,-3.67,8.70,2.57
33.93,-3.65,8.67,2.56
33.94,-3.66,8.64,2.53
33.94,-3.67,8.67,2.51
33.94,-3.63,8.61,2.52
33.94,-3.60,8.57,2.53
33.94,-3.61,8.54,2.53
33.95,-3.57,8.52,2.56
33.95,-3.52,8.50,2.60
33.95,-3.50,8.47,2.65
33.95,-3.47,8.44,2.72
33.96,-3.43,8.37,2.77
33.96,-3.37,8.37,2.82
33.96,-3.35,8.34,2.90
33.96,-3.33,8.28,2.94
33.97,-3.25,8.24,2.97
33.97,-3.20,8.22,3.03
33.97,-3.15,8.17,3.07
33.97,-3.12,8.11,3.14
33.98,-3.09,8.09,3.20
33.98,-3.03,8.04,3.24
33.98,-2.99,7.98,3.31
33.98,-2.98,7.96,3.37
33.99,-2.96,7.90,3.43
33.99,-2.92,7.82,3.45
33.99,-2.90,7.76,3.51
33.99,-2.89,7.72,3.54
33.99,-2.86,7.69,3.60
34.00,-2.88,7.64,3.62
34.00,-2.88,7.63,3.66
34.00,-2.92,7.62,3.70
34.00,-2.93,7.60,3.72
34.01,-2.92,7.57,3.73
34.01,-2.98,7.55,3.77
34.01,-2.98,7.56,3.79
34.01,-2.98,7.54,3.81
34.02,-3.05,7.51,3.84
34.02,-3.15,7.49,3.89
34.02,-3.13,7.49,3.89
34.02,-3.07,7.51,3.88
34.03,-3.09,7.53,3.88
34.03,-3.15,7.54,3.85
34.03,-3.20,7.53,3.86
34.03,-3.25,7.53,3.85
34.04,-3.28,7.55,3.84
34.04,-3.30,7.55,3.85
34.04,-3.34,7.55,3.84
34.04,-3.40,7.51,3.82
34.04,-3.44,7.52,3.81
34.05,-3.47,7.54,3.81
34.05,-3.51,7.52,3.77
34.05,-3.52,7.52,3.75
34.05,-3.55,7.55,3.71
34.06,-3.59,7.55,3.70
34.06,-3.65,7.56,3.67
34.06,-3.74,7.61,3.67
34.06,-3.78,7.65,3.64
34.07,-3.85,7.68,3.61
34.07,-3.89,7.72,3.60
34.07,-3.95,7.72,3.62
34.07,-3.99,7.74,3.60
34.08,-4.05,7.71,3.60
34.08,-4.10,7.73,3.61
34.08,-4.14,7.67,3.61
34.08,-4.14,7.67,3.65
34.09,-4.16,7.63,3.65
34.09,-4.19,7.61,3.67
34.09,-4.21,7.57,3.68
34.09,-4.20,7.58,3.69
34.09,-4.22,7.58,3.69
34.10,-4.23,7.63,3.69
34.10,-4.23,7.67,3.68
34.10,-4.24,7.74,3.66
34.10,-4.24,7.80,3.69
34.11,-4.24,7.92,3.72
34.11,-4.21,8.02,3.73
34.11,-4.18,8.10,3.71
34.11,-4.17,8.17,3.66
34.12,-4.13,8.25,3.65
34.12,-4.12,8.33,3.62
34.12,-4.11,8.44,3.59
34.12,-4.07,8.53,3.55
34.13,-4.09,8.59,3.53
34.13,-4.10,8.69,3.49
34.13,-4.11,8.70,3.44
34.13,-4.16,8.70,3.37
34.14,-4.17,8.70,3.27
34.14,-4.21,8.70,3.18
34.14,-4.25,8.67,3.10
34.14,-4.29,8.67,2.96
34.14,-4.33,8.67,2.78
34.15,-4.36,8.64,2.63
34.15,-4.36,8.63,2.49
34.15,-4.37,8.60,2.34
34.15,-4.37,8.57,2.26
34.16,-4.36,8.54,2.25
34.16,-4.35,8.53,2.27
34.16,-4.36,8.49,2.37
34.16,-4.39,8.45,2.51
34.17,-4.41,8.41,2.70
34.17,-4.50,8.39,2.97
34.17,-4.58,8.37,3.25
34.17,-4.70,8.31,3.59
34.18,-4.84,8.26,3.91
34.18,-5.02,8.19,4.27
34.18,-5.19,8.12,4.65
34.18,-5.38,8.10,5.03
34.18,-5.53,8.09,5.37
34.19,-5.70,8.14,5.66
34.19,-5.83,8.20,5.87
34.19,-5.94,8.30,6.04
34.19,-6.02,8.44,6.14
34.20,-6.08,8.61,6.19
34.20,-6.15,8.77,6.13
34.20,-6.21,8.91,6.02
34.20,-6.25,9.10,5.83
34.21,-6.30,9.28,5.58
34.21,-6.41,9.43,5.25
34.21,-6.44,9.72,4.91
34.21,-6.36,10.08,4.54
34.22,-6.23,10.47,4.13
34.22,-6.02,10.92,3.69
34.22,-5.84,11.41,3.22
34.22,-5.65,11.90,2.75
34.23,-5.38,12.39,2.32
34.23,-5.12,12.87,1.87
34.23,-4.82,13.40,1.39
34.23,-4.57,14.06,0.99
34.23,-4.26,14.73,0.68
34.24,-3.84,15.43,0.49
34.24,-3.48,16.15,0.14
34.24,-3.13,16.92,-0.32
34.24,-2.73,17.66,-0.70
34.25,-2.32,18.42,-1.05
34.25,-1.95,19.21,-1.22
34.25,-1.66,19.94,-1.38
34.25,-1.37,20.68,-1.59
34.26,-1.18,21.22,-1.77
34.26,-0.98,21.52,-1.89
34.26,-0.99,21.49,-2.04
34.26,-1.31,20.91,-2.05
34.27,-1.79,20.19,-1.81
34.27,-2.07,19.37,-1.55
34.27,-2.28,18.46,-1.40
34.27,-2.34,17.49,-1.33
34.28,-2.32,16.55,-1.29
34.28,-2.30,15.58,-1.22
34.28,-2.33,14.65,-1.09
34.28,-2.37,13.72,-0.88
34.28,-2.37,12.83,-0.66
34.29,-2.41,12.00,-0.45
34.29,-2.45,11.27,-0.32
34.29,-2.54,10.62,-0.19
34.29,-2.61,10.02,-0.08
34.30,-2.65,9.45,-0.07
34.30,-2.70,8.93,-0.03
34.30,-2.76,8.45,0.10
34.30,-2.81,7.95,0.17
34.31,-2.82,7.50,0.16
34.31,-2.79,7.09,0.02
34.31,-2.91,6.76,-0.24
34.31,-3.07,6.43,-0.49
34.32,-3.16,6.10,-0.74
34.32,-3.14,5.72,-0.85
34.32,-3.14,5.27,-0.88
34.32,-3.17,4.83,-0.98
34.33,-3.17,4.48,-1.11
34.33,-3.09,4.27,-1.17
34.33,-2.95,4.13,-1.15
34.33,-2.78,3.97,-1.23
34.33,-2.55,3.86,-1.31
34.34,-2.18,3.79,-1.38
34.34,-1.84,3.79,-1.47
34.34,-1.58,3.88,-1.55
34.34,-1.44,4.01,-1.64
34.35,-1.19,4.22,-1.70
34.35,-0.92,4.44,-1.74
34.35,-0.61,4.62,-1.62
34.35,-0.41,4.81,-1.56
34.36,-0.51,5.21,-1.55
34.36,-0.48,5.62,-1.44
34.36,-0.38,5.93,-1.45
34.36,-0.32,6.34,-1.43
34.37,-0.27,6.84,-1.33
34.37,-0.24,7.38,-1.16
34.37,-0.17,7.98,-0.95
34.37,-0.04,8.60,-0.72
34.37,0.09,9.20,-0.50
34.38,0.10,9.83,-0.20
34.38,0.10,10.49,0.24
34.38,0.19,11.06,0.70
34.38,0.42,11.54,1.41
34.39,0.27,12.28,1.77
34.39,0.04,13.14,1.75
34.39,0.15,13.70,2.02
34.39,0.15,14.14,2.26
34.40,-0.07,14.50,2.56
34.40,-0.30,14.84,2.83
34.40,-0.38,15.02,3.04
34.40,-0.20,15.06,3.29
34.41,0.05,14.97,3.50
34.41,0.32,14.74,3.74
34.41,0.59,14.45,3.92
34.41,0.90,14.04,4.02
34.42,1.19,13.59,4.01
34.42,1.47,13.16,3.93
34.42,1.69,12.77,3.74
34.42,1.80,12.22,3.49
34.42,1.90,11.67,3.27
34.43,1.98,11.16,3.03
34.43,2.02,10.70,2.80
34.43,2.05,10.28,2.56
34.43,1.91,9.88,2.36
34.44,1.58,9.52,2.17
34.44,1.18,9.17,2.00
34.44,0.82,8.83,1.86
34.44,0.43,8.56,1.70
34.45,0.10,8.32,1.52
34.45,-0.23,8.06,1.40
34.45,-0.54,7.89,1.27
34.45,-0.89,7.71,1.23
34.46,-1.18,7.50,1.33
34.46,-1.44,7.30,1.37
34.46,-1.61,7.17,1.46
34.46,-1.71,7.09,1.52
34.47,-1.82,6.99,1.59
34.47,-1.87,6.98,1.71
34.47,-1.94,6.94,1.78
34.47,-1.94,6.96,1.85
34.47,-1.97,6.98,1.90
34.48,-1.93,7.08,1.92
34.48,-1.95,7.17,1.94
34.48,-1.90,7.32,1.95
34.48,-1.90,7.45,1.92
34.49,-1.88,7.59,1.95
34.49,-1.84,7.83,1.97
34.49,-1.81,8.09,2.00
34.49,-1.81,8.29,2.04
34.50,-1.86,8.46,2.08
34.50,-1.94,8.61,2.09
34.50,-2.05,8.75,2.11
34.50,-2.17,8.94,2.10
34.51,-2.29,9.09,2.08
34.51,-2.38,9.26,2.02
34.51,-2.45,9.45,1.94
34.51,-2.53,9.61,1.90
34.52,-2.61,9.75,1.83
34.52,-2.69,9.94,1.75
34.52,-2.81,10.09,1.70
34.52,-2.90,10.22,1.66
34.52,-3.03,10.37,1.59
34.53,-3.15,10.49,1.55
34.53,-3.30,10.56,1.46
34.53,-3.24,10.77,1.35
34.53,-3.46,10.74,1.30
34.54,-3.71,10.73,1.38
34.54,-3.91,10.66,1.45
34.54,-4.10,10.58,1.50
34.54,-4.23,10.53,1.50
34.55,-4.31,10.47,1.49
34.55,-4.36,10.40,1.44
34.55,-4.36,10.36,1.41
34.55,-4.32,10.31,1.33
34.56,-4.31,10.25,1.30
34.56,-4.21,10.33,1.32
34.56,-4.15,10.24,1.15
34.56,-4.25,10.09,1.23
34.57,-4.35,9.93,1.32
34.57,-4.42,9.78,1.37
34.57,-4.36,9.67,1.40
34.57,-4.32,9.57,1.42
34.57,-4.25,9.47,1.47
34.58,-4.12,9.43,1.47
34.58,-4.03,9.33,1.52
34.58,-3.92,9.23,1.56
34.58,-3.82,9.18,1.63
34.59,-3.71,9.11,1.71
34.59,-3.61,9.04,1.79
34.59,-3.54,9.02,1.91
34.59,-3.46,8.99,2.02
34.60,-3.42,8.96,2.12
34.60,-3.33,8.95,2.23
34.60,-3.31,8.98,2.31
34.60,-3.27,8.98,2.40
34.61,-3.28,9.01,2.48
34.61,-3.26,9.05,2.54
34.61,-3.23,9.09,2.57
34.61,-3.21,9.14,2.57
34.61,-3.19,9.17,2.56
34.62,-3.20,9.20,2.55
34.62,-3.20,9.25,2.55
34.62,-3.20,9.29,2.50
34.62,-3.18,9.33,2.45
34.63,-3.18,9.38,2.39
34.63,-3.17,9.42,2.33
34.63,-3.19,9.48,2.26
34.63,-3.19,9.48,2.16
34.64,-3.21,9.49,2.05
34.64,-3.26,9.54,1.96
34.64,-3.28,9.57,1.86
34.64,-3.27,9.60,1.77
34.65,-3.27,9.65,1.69
34.65,-3.27,9.66,1.62
34.65,-3.28,9.66,1.56
34.65,-3.35,9.63,1.48
34.66,-3.37,9.64,1.45
34.66,-3.38,9.68,1.41
34.66,-3.37,9.69,1.38
34.66,-3.39,9.70,1.38
34.66,-3.39,9.73,1.40
34.67,-3.42,9.71,1.45
34.67,-3.43,9.68,1.49
34.67,-3.43,9.68,1.59
34.67,-3.42,9.75,1.65
34.68,-3.43,9.64,1.73
34.68,-3.40,9.62,1.79
34.68,-3.36,9.64,1.83
34.68,-3.33,9.57,1.91
34.69,-3.30,9.59,1.95
34.69,-3.32,9.55,2.00
34.69,-3.30,9.49,2.05
34.69,-3.31,9.40,2.07
34.70,-3.27,9.38,2.08
34.70,-3.24,9.31,2.09
34.70,-3.21,9.27,2.10
34.70,-3.20,9.18,2.08
34.71,-3.19,9.15,2.03
34.71,-3.26,9.11,1.99
34.71,-3.18,8.96,1.91
34.71,-3.06,8.86,1.86
34.71,-2.94,8.84,1.83
34.72,-2.88,8.83,1.71
34.72,-2.59,8.80,1.54
34.72,-2.50,8.75,1.35
34.72,-2.43,8.65,1.35
34.73,-2.37,8.65,1.41
34.73,-2.20,8.72,1.37
34.73,-2.14,8.64,1.32
34.73,-2.15,8.48,1.31
34.74,-2.10,8.35,1.31
34.74,-1.97,8.31,1.24
34.74,-1.97,8.16,1.20
34.74,-1.97,8.01,1.20
34.75,-1.88,7.98,1.18
34.75,-1.77,7.97,1.19
34.75,-1.69,7.94,1.24
34.75,-1.59,7.91,1.30
34.76,-1.51,7.92,1.36
34.76,-1.46,7.92,1.44
34.76,-1.41,7.93,1.53
34.76,-1.34,7.93,1.60
34.76,-1.28,7.97,1.72
34.77,-1.16,8.00,1.84
34.77,-1.09,8.05,1.94
34.77,-1.02,8.06,2.05
34.77,-0.92,8.06,2.17
34.78,-0.87,8.07,2.27
34.78,-0.84,8.08,2.35
34.78,-0.81,8.10,2.42
34.78,-0.83,8.10,2.50
34.79,-0.86,8.10,2.57
34.79,-0.83,8.13,2.62
34.79,-0.93,8.26,2.64
34.79,-0.89,8.25,2.68
34.80,-0.79,8.32,2.74
34.80,-0.74,8.30,2.81
34.80,-0.82,8.30,2.85
34.80,-0.90,8.28,2.86
34.80,-0.98,8.29,2.94
34.81,-1.11,8.31,2.95
34.81,-1.26,8.30,2.96
34.81,-1.45,8.31,2.96
34.81,-1.60,8.34,2.97
34.82,-1.74,8.40,2.92
34.82,-1.90,8.44,2.87
34.82,-2.12,8.48,2.79
34.82,-2.30,8.50,2.72
34.83,-2.44,8.53,2.66
34.83,-2.62,8.53,2.59
34.83,-2.75,8.53,2.51
34.83,-2.87,8.52,2.49
34.84,-2.99,8.53,2.44
34.84,-3.08,8.52,2.44
34.84,-3.08,8.53,2.34
34.84,-3.04,8.59,2.21
34.85,-3.15,8.67,2.16
34.85,-3.35,8.50,2.24
34.85,-3.50,8.38,2.41
34.85,-3.54,8.36,2.50
34.85,-3.54,8.30,2.50
34.86,-3.62,8.22,2.50
34.86,-3.68,8.13,2.53
34.86,-3.71,8.08,2.55
34.86,-3.73,8.01,2.61
34.87,-3.69,7.97,2.58
34.87,-3.63,7.96,2.56
34.87,-3.52,7.92,2.50
34.87,-3.34,7.92,2.44
34.88,-3.12,7.93,2.39
34.88,-2.80,7.95,2.31
34.88,-2.46,7.95,2.26
34.88,-2.13,7.93,2.22
34.89,-1.86,7.89,2.20
34.89,-1.65,7.87,2.13
34.89,-1.47,7.79,2.09
34.89,-1.31,7.72,2.02
34.90,-1.17,7.69,1.96
34.90,-1.13,7.57,1.89
34.90,-1.05,7.48,1.75
34.90,-1.08,7.40,1.64
34.90,-1.13,7.31,1.57
34.91,-1.24,7.24,1.46
34.91,-1.38,7.16,1.35
34.91,-1.38,7.15,1.30
34.91,-1.56,7.04,1.19
34.92,-1.63,7.04,1.03
34.92,-1.66,7.07,0.87
34.92,-1.62,7.10,0.70
34.92,-1.43,7.18,0.53
34.93,-1.40,7.23,0.33
34.93,-1.37,7.32,0.14
34.93,-1.32,7.41,-0.01
34.93,-1.33,7.50,-0.13
34.94,-1.38,7.61,-0.20
34.94,-1.44,7.71,-0.22
34.94,-1.52,7.88,-0.23
34.94,-1.60,8.06,-0.18
34.95,-1.68,8.27,-0.13
34.95,-1.79,8.52,0.02
34.95,-1.90,8.83,0.12
34.95,-1.96,9.17,0.20
34.95,-2.02,9.61,0.32
34.96,-2.11,10.04,0.38
34.96,-2.20,10.52,0.43
34.96,-2.30,11.04,0.48
34.96,-2.40,11.63,0.46
34.97,-2.45,12.26,0.39
34.97,-2.61,12.94,0.29
34.97,-2.78,13.68,0.20
34.97,-2.97,14.39,-0.16
34.98,-3.32,15.21,-0.40
34.98,-3.58,16.02,-0.51
34.98,-3.90,16.84,-0.52
34.98,-4.16,17.65,-0.55
34.99,-4.51,18.41,-0.65
34.99,-4.83,19.05,-0.72
34.99,-5.12,19.46,-0.70
34.99,-5.46,19.65,-0.62
35.00,-5.76,19.65,-0.56
35.00,-5.69,19.61,-0.57
35.00,-5.49,19.49,-0.64
35.00,-5.21,19.18,-0.73
35.00,-4.60,18.83,-0.82
35.01,-3.88,18.42,-0.75
35.01,-3.19,18.00,-0.70
35.01,-2.59,17.59,-0.50
35.01,-2.14,17.20,-0.25
35.02,-1.82,16.76,-0.08
35.02,-1.60,16.27,-0.03
35.02,-1.50,15.80,-0.04
35.02,-1.52,15.31,-0.08
35.03,-1.61,14.82,-0.15
35.03,-1.65,14.30,-0.25
35.03,-1.68,13.76,-0.37
35.03,-1.67,13.17,-0.62
35.04,-1.61,12.57,-0.84
35.04,-1.54,11.99,-1.08
35.04,-1.52,11.41,-1.22
35.04,-1.51,10.87,-1.30
35.04,-1.54,10.35,-1.32
35.05,-1.67,9.80,-1.39
35.05,-1.84,9.32,-1.47
35.05,-2.09,8.82,-1.49
35.05,-2.28,8.41,-1.53
35.06,-2.45,8.04,-1.52
35.06,-2.69,7.70,-1.54
35.06,-2.98,7.38,-1.55
35.06,-3.30,7.09,-1.56
35.07,-3.61,6.85,-1.60
35.07,-3.92,6.60,-1.94
35.07,-3.98,6.38,-1.93
35.07,-4.23,6.23,-1.38
35.08,-4.52,6.18,-0.88
35.08,-4.85,6.17,-0.53
35.08,-5.22,6.22,-0.36
35.08,-5.62,6.27,-0.29
35.09,-5.93,6.27,-0.30
35.09,-6.06,6.24,-0.14
35.09,-6.03,6.21,0.15
35.09,-6.04,6.18,0.35
35.09,-6.13,6.20,0.44
35.10,-6.30,6.22,0.52
35.10,-6.61,6.29,0.53
35.10,-6.81,6.39,0.49
35.10,-6.81,6.49,0.53
35.11,-6.92,6.65,0.55
35.11,-6.78,6.77,0.55
35.11,-6.48,6.95,0.52
35.11,-6.03,7.18,0.55
35.12,-5.58,7.44,0.67
35.12,-5.13,7.71,0.77
35.12,-4.69,8.02,0.81
35.12,-4.28,8.30,0.88
35.13,-3.88,8.59,0.91
35.13,-3.55,8.85,1.01
35.13,-3.25,9.09,1.06
35.13,-2.91,9.38,1.11
35.14,-2.56,9.66,1.14
35.14,-2.34,9.80,1.18
35.14,-2.15,9.96,1.27
35.14,-1.97,10.19,1.34
35.14,-1.80,10.38,1.42
35.15,-1.60,10.66,1.52
35.15,-1.34,10.90,1.61
35.15,-1.13,11.08,1.73
35.15,-0.92,11.21,1.91
35.16,-0.73,11.30,2.07
35.16,-0.57,11.34,2.28
35.16,-0.45,11.35,2.50
35.16,-0.34,11.32,2.73
35.17,-0.22,11.29,2.94
35.17,-0.10,11.25,3.13
35.17,-0.01,11.16,3.31
35.17,0.07,11.07,3.45
35.18,0.14,10.96,3.55
35.18,0.22,10.88,3.64
35.18,0.29,10.74,3.67
35.18,0.32,10.56,3.69
35.19,0.23,10.35,3.66
35.19,0.09,10.09,3.63
35.19,-0.05,9.88,3.58
35.19,-0.18,9.76,3.50
35.19,-0.30,9.66,3.37
35.20,-0.43,9.50,3.17
35.20,-0.53,9.37,2.97
35.20,-0.69,9.23,2.78
35.20,-0.89,9.13,2.57
35.21,-1.10,8.98,2.37
35.21,-1.33,8.84,2.18
35.21,-1.61,8.67,2.01
35.21,-1.90,8.51,1.79
35.22,-2.15,8.39,1.64
35.22,-2.37,8.32,1.46
35.22,-2.56,8.25,1.31
35.22,-2.72,8.21,1.17
35.23,-2.86,8.21,1.07
35.23,-3.01,8.25,0.94
35.23,-3.13,8.31,0.87
35.23,-3.09,8.34,0.98
35.24,-2.99,8.32,1.18
35.24,-3.09,8.30,1.22
35.24,-3.24,8.41,1.23
35.24,-3.40,8.51,1.33
35.24,-3.53,8.60,1.41
35.25,-3.62,8.62,1.44
35.25,-3.76,8.76,1.45
35.25,-3.82,8.92,1.41
35.25,-3.80,9.03,1.34
35.26,-3.74,9.15,1.40
35.26,-3.68,9.26,1.45
35.26,-3.61,9.38,1.51
35.26,-3.57,9.47,1.55
35.27,-3.54,9.55,1.55
35.27,-3.54,9.60,1.61
35.27,-3.52,9.67,1.65
35.27,-3.52,9.74,1.68
35.28,-3.52,9.77,1.75
35.28,-3.51,9.79,1.78
35.28,-3.50,9.83,1.84
35.28,-3.44,9.85,1.92
35.28,-3.37,9.87,1.99
35.29,-3.25,9.92,2.05
35.29,-3.12,9.92,2.11
35.29,-3.00,9.88,2.20
35.29,-2.85,9.82,2.32
35.30,-2.73,9.72,2.42
35.30,-2.61,9.62,2.51
35.30,-2.46,9.53,2.61
35.30,-2.31,9.45,2.73
35.31,-2.21,9.29,2.78
35.31,-2.18,9.16,2.83
35.31,-2.08,9.06,2.91
35.31,-2.03,8.92,2.98
35.32,-2.02,8.78,3.03
35.32,-2.01,8.64,3.09
35.32,-1.96,8.52,3.13
35.32,-1.92,8.41,3.20
35.33,-1.89,8.29,3.27
35.33,-1.86,8.21,3.28
35.33,-1.85,8.16,3.30
35.33,-1.83,8.16,3.33
35.33,-1.84,8.11,3.40
35.34,-1.90,8.06,3.41
35.34,-1.95,8.02,3.38
35.34,-1.92,8.01,3.38
35.34,-1.88,8.04,3.45
35.35,-1.87,8.07,3.49
35.35,-1.90,8.09,3.50
35.35,-1.97,8.12,3.49
35.35,-2.03,8.12,3.49
35.36,-2.14,8.15,3.46
35.36,-2.22,8.19,3.41
35.36,-2.29,8.22,3.39
35.36,-2.36,8.25,3.32
35.37,-2.41,8.29,3.28
35.37,-2.42,8.33,3.27
35.37,-2.47,8.37,3.24
35.37,-2.49,8.41,3.21
35.38,-2.51,8.41,3.20
35.38,-2.53,8.46,3.19
35.38,-2.54,8.44,3.18
35.38,-2.55,8.49,3.17
35.38,-2.55,8.51,3.16
35.39,-2.55,8.50,3.16
35.39,-2.54,8.50,3.15
35.39,-2.56,8.46,3.16
35.39,-2.58,8.45,3.20
35.40,-2.60,8.41,3.21
35.40,-2.57,8.38,3.22
35.40,-2.58,8.33,3.26
35.40,-2.58,8.24,3.26
35.41,-2.59,8.19,3.30
35.41,-2.61,8.13,3.32
35.41,-2.63,8.08,3.36
35.41,-2.62,8.01,3.42
35.42,-2.68,7.98,3.44
35.42,-2.72,7.92,3.45
35.42,-2.74,7.90,3.48
35.42,-2.79,7.87,3.49
35.43,-2.83,7.82,3.49
35.43,-2.88,7.81,3.48
35.43,-2.89,7.79,3.44
35.43,-2.96,7.78,3.41
35.43,-2.97,7.76,3.37
35.44,-3.00,7.73,3.33
35.44,-3.01,7.72,3.25
35.44,-3.02,7.71,3.21
35.44,-3.04,7.67,3.14
35.45,-3.04,7.64,3.05
35.45,-3.03,7.63,3.01
35.45,-3.02,7.63,3.00
35.45,-3.01,7.61,3.02
35.46,-2.98,7.58,3.01
35.46,-2.95,7.58,3.06
35.46,-3.06,7.61,3.07
35.46,-3.20,7.68,3.12
35.47,-3.22,7.67,3.19
35.47,-3.26,7.64,3.30
35.47,-3.30,7.64,3.40
35.47,-3.33,7.63,3.52
35.47,-3.38,7.63,3.64
35.48,-3.44,7.68,3.67
35.48,-3.51,7.63,3.78
35.48,-3.64,7.61,3.85
35.48,-3.79,7.55,3.92
35.49,-3.94,7.52,4.03
35.49,-4.13,7.45,4.10
35.49,-4.28,7.43,4.23
35.49,-4.46,7.36,4.35
35.50,-4.67,7.30,4.50
35.50,-4.86,7.18,4.63
35.50,-5.03,7.05,4.75
35.50,-5.21,6.91,4.86
35.51,-5.36,6.78,4.91
35.51,-5.47,6.64,4.94
35.51,-5.54,6.56,4.96
35.51,-5.62,6.53,4.99
35.52,-5.67,6.50,4.98
35.52,-5.70,6.55,5.01
35.52,-5.73,6.63,4.98
35.52,-5.75,6.71,4.94
35.52,-5.78,6.87,4.94
35.53,-5.87,7.02,4.95
35.53,-5.90,7.25,4.83
35.53,-5.88,7.51,4.70
35.53,-5.84,7.79,4.49
35.54,-5.80,8.08,4.27
35.54,-5.75,8.36,3.94
35.54,-5.73,8.58,3.58
35.54,-5.75,8.77,3.26
35.55,-5.75,8.92,2.92
35.55,-5.75,9.10,2.60
35.55,-5.74,9.20,2.28
35.55,-5.70,9.25,2.06
35.56,-5.61,9.28,1.86
35.56,-5.50,9.24,1.76
35.56,-5.29,9.24,1.76
35.56,-4.98,9.21,1.88
35.57,-4.65,9.20,2.11
35.57,-4.45,9.20,2.43
35.57,-4.41,9.18,2.89
35.57,-4.48,9.15,3.43
35.57,-4.57,9.16,3.98
35.58,-4.61,9.15,4.52
35.58,-4.64,9.12,5.07
35.58,-4.67,9.10,5.58
35.58,-4.67,9.05,6.03
35.59,-4.78,9.03,6.47
35.59,-4.87,9.03,6.83
35.59,-5.00,9.03,7.10
35.59,-5.14,9.09,7.24
35.60,-5.26,9.22,7.32
35.60,-5.44,9.38,7.35
35.60,-5.68,9.50,7.23
35.60,-6.00,9.65,7.03
35.61,-6.34,9.79,6.73
35.61,-6.63,10.01,6.33
35.61,-6.99,10.20,5.85
35.61,-7.27,10.42,5.30
35.62,-7.43,10.72,4.67
35.62,-7.50,11.14,3.99
35.62,-7.46,11.62,3.23
35.62,-7.38,12.10,2.44
35.62,-7.21,12.60,1.65
35.63,-7.01,13.14,0.83
35.63,-6.71,13.76,0.15
35.63,-6.30,14.33,-0.44
35.63,-5.79,14.91,-0.96
35.64,-4.97,15.56,-1.21
35.64,-4.57,16.18,-1.54
35.64,-4.04,16.63,-1.88
35.64,-3.61,16.95,-2.23
35.65,-3.47,17.12,-2.34
35.65,-3.27,17.51,-2.37
35.65,-2.98,17.94,-2.48
35.65,-2.44,18.42,-2.23
35.66,-1.86,18.81,-1.80
35.66,-1.29,19.21,-1.28
35.66,-0.66,19.58,-0.69
35.66,-0.06,19.78,-0.27
35.67,0.39,19.87,-0.02
35.67,0.70,19.78,0.24
35.67,0.99,19.55,0.45
35.67,1.22,19.20,0.63
35.67,1.34,18.63,0.82
35.68,1.34,17.87,1.01
35.68,1.13,16.92,1.21
35.68,0.73,15.84,1.34
35.68,0.21,14.66,1.40
35.69,-0.40,13.51,1.51
35.69,-0.86,12.51,1.69
35.69,-1.44,11.59,1.72
35.69,-1.72,10.83,1.85
35.70,-2.02,10.13,2.18
35.70,-2.43,9.41,2.37
35.70,-2.77,8.61,2.10
35.70,-3.06,7.88,1.61
35.71,-3.19,7.22,1.27
35.71,-3.26,6.62,1.03
35.71,-3.35,6.03,0.82
35.71,-3.43,5.47,0.55
35.71,-3.45,4.95,0.18
35.72,-3.33,4.53,-0.13
35.72,-3.51,4.22,-0.65
35.72,-3.64,4.01,-1.32
35.72,-3.43,3.83,-1.79
35.73,-2.97,3.63,-2.22
35.73,-2.59,3.56,-2.65
35.73,-2.26,3.56,-2.89
35.73,-1.91,3.63,-3.01
35.74,-1.59,3.75,-3.01
35.74,-1.28,3.93,-2.98
35.74,-1.04,4.30,-2.84
35.74,-0.81,4.61,-2.68
35.75,-0.65,4.98,-2.60
35.75,-0.49,5.45,-2.34
35.75,-0.35,6.01,-2.11
35.75,-0.24,6.56,-2.08
35.76,-0.28,7.10,-1.92
35.76,-0.40,7.70,-1.68
35.76,-0.46,8.23,-1.35
35.76,-0.60,8.87,-1.03
35.76,-0.78,9.56,-0.72
35.77,-0.57,10.19,-0.25
35.77,-0.29,10.72,0.24
35.77,0.19,11.21,0.82
35.77,0.53,11.62,1.40
35.78,0.71,12.08,1.78
35.78,0.97,12.45,1.92
35.78,1.29,12.73,2.07
35.78,1.53,13.02,2.23
35.79,1.68,13.29,2.33
35.79,1.78,13.60,2.40
35.79,1.78,13.84,2.42
35.79,1.69,14.08,2.33
35.80,2.18,14.03,2.41
35.80,2.44,13.91,2.51
35.80,2.55,13.74,2.49
35.80,2.64,13.48,2.58
35.81,2.71,13.14,2.64
35.81,2.66,12.71,2.68
35.81,2.53,12.26,2.72
35.81,2.21,11.73,2.71
35.81,1.82,11.15,2.71
35.82,1.34,10.62,2.63
35.82,0.85,10.08,2.47
35.82,0.37,9.55,2.21
35.82,-0.11,9.11,1.95
35.83,-0.54,8.78,1.65
35.83,-0.95,8.33,1.47
35.83,-1.43,7.86,1.33
35.83,-1.86,7.50,1.27
35.84,-2.25,7.18,1.26
35.84,-2.54,6.93,1.26
35.84,-2.80,6.74,1.32
35.84,-3.05,6.63,1.40
35.85,-3.23,6.56,1.53
35.85,-3.35,6.57,1.67
35.85,-3.28,6.67,1.89
35.85,-3.18,6.78,2.15
35.86,-3.05,7.00,2.45
35.86,-3.03,7.16,2.73
35.86,-3.00,7.36,2.97
35.86,-3.01,7.59,3.27
35.86,-3.04,7.76,3.52
35.87,-3.07,7.94,3.72
35.87,-3.09,8.12,3.87
35.87,-3.15,8.30,4.01
35.87,-3.15,8.52,4.02
35.88,-3.17,8.73,3.95
35.88,-3.22,8.94,3.90
35.88,-3.24,9.15,3.78
35.88,-3.27,9.33,3.58
35.89,-3.26,9.46,3.33
35.89,-3.22,9.63,3.10
35.89,-3.17,9.77,2.81
35.89,-3.12,9.87,2.52
35.90,-3.10,9.97,2.22
35.90,-3.03,10.06,1.96
35.90,-2.98,10.12,1.67
35.90,-2.95,10.15,1.44
35.91,-2.87,10.18,1.30
35.91,-2.84,10.16,1.17
35.91,-2.79,10.15,1.02
35.91,-2.71,10.12,0.92
35.91,-2.64,10.10,0.81
35.92,-2.57,10.07,0.75
35.92,-2.55,10.04,0.71
35.92,-2.52,10.00,0.71
35.92,-2.48,9.92,0.72
35.93,-2.45,9.89,0.74
35.93,-2.43,9.84,0.78
35.93,-2.40,9.82,0.85
35.93,-2.38,9.79,0.91
35.94,-2.34,9.76,0.97
35.94,-2.34,9.73,1.08
35.94,-2.31,9.71,1.17
35.94,-2.27,9.69,1.27
35.95,-2.20,9.69,1.32
35.95,-2.18,9.68,1.38
35.95,-2.23,9.62,1.53
35.95,-2.27,9.58,1.70
35.95,-2.29,9.53,1.82
35.96,-2.30,9.51,1.93
35.96,-2.33,9.48,2.02
35.96,-2.34,9.45,2.11
35.96,-2.36,9.45,2.19
35.97,-2.38,9.41,2.28
35.97,-2.36,9.42,2.33
35.97,-2.36,9.41,2.39
35.97,-2.31,9.40,2.45
35.98,-2.28,9.38,2.51
35.98,-2.27,9.34,2.53
35.98,-2.32,9.37,2.60
35.98,-2.35,9.34,2.63
35.99,-2.35,9.32,2.68
35.99,-2.37,9.32,2.68
35.99,-2.40,9.32,2.71
35.99,-2.43,9.34,2.73
36.00,-2.41,9.33,2.74
36.00,-2.41,9.37,2.74
36.00,-2.41,9.38,2.74
36.00,-2.39,9.39,2.72
36.00,-2.40,9.40,2.70
36.01,-2.41,9.41,2.68
36.01,-2.39,9.41,2.65
36.01,-2.41,9.39,2.60
36.01,-2.37,9.43,2.54
36.02,-2.38,9.40,2.50
36.02,-2.38,9.39,2.46
36.02,-2.38,9.37,2.41
36.02,-2.38,9.33,2.41
36.03,-2.41,9.31,2.38
36.03,-2.43,9.28,2.35
36.03,-2.46,9.26,2.35
36.03,-2.51,9.20,2.35
36.04,-2.58,9.20,2.36
36.04,-2.64,9.15,2.36
36.04,-2.69,9.14,2.38
36.04,-2.74,9.10,2.41
36.05,-2.79,9.04,2.43
36.05,-2.81,9.04,2.44
36.05,-2.79,9.03,2.45
36.05,-2.81,9.00,2.45
36.05,-2.84,9.01,2.49
36.06,-2.83,9.02,2.49
36.06,-2.89,9.00,2.48
36.06,-2.99,9.07,2.47
36.06,-2.91,8.99,2.48
36.07,-2.88,8.97,2.51
36.07,-2.87,8.93,2.53
36.07,-2.78,8.97,2.27
36.07,-2.95,8.78,2.38
36.08,-3.04,8.66,2.47
36.08,-3.17,8.50,2.49
36.08,-3.29,8.32,2.54
36.08,-3.43,8.10,2.57
36.09,-3.55,7.89,2.56
36.09,-3.62,7.74,2.49
36.09,-3.68,7.52,2.42
36.09,-3.69,7.38,2.36
36.10,-3.73,7.20,2.32
36.10,-3.71,7.02,2.29
36.10,-3.68,6.86,2.26
36.10,-3.66,6.72,2.26
36.10,-3.66,6.60,2.25
36.11,-3.63,6.45,2.24
36.11,-3.62,6.34,2.21
36.11,-3.65,6.27,2.23
36.11,-3.65,6.23,2.24
36.12,-3.68,6.18,2.25
36.12,-3.69,6.15,2.26
36.12,-3.66,6.13,2.26
36.12,-3.66,6.12,2.25
36.13,-3.67,6.16,2.26
36.13,-3.65,6.23,2.24
36.13,-3.59,6.35,2.25
36.13,-3.57,6.46,2.25
36.14,-3.50,6.61,2.27
36.14,-3.43,6.74,2.29
36.14,-3.39,6.93,2.31
36.14,-3.40,7.12,2.32
36.14,-3.40,7.28,2.34
36.15,-3.41,7.49,2.28
36.15,-3.43,7.71,2.25
36.15,-3.45,7.94,2.19
36.15,-3.46,8.17,2.13
36.16,-3.45,8.40,2.08
36.16,-3.44,8.62,2.01
36.16,-3.42,8.83,1.92
36.16,-3.35,9.03,1.88
36.17,-3.26,9.21,1.79
36.17,-3.15,9.37,1.76
36.17,-3.05,9.48,1.72
36.17,-2.95,9.57,1.75
36.18,-2.85,9.63,1.80
36.18,-2.76,9.71,1.89
36.18,-2.69,9.69,1.98
36.18,-2.52,9.68,2.12
36.19,-2.30,9.70,2.24
36.19,-2.06,9.72,2.28
36.19,-1.83,9.71,2.34
36.19,-1.62,9.67,2.38
36.19,-1.48,9.55,2.41
36.20,-1.37,9.42,2.39
36.20,-1.30,9.27,2.36
36.20,-1.21,9.09,2.36
36.20,-1.17,8.96,2.34
36.21,-1.11,8.80,2.30
36.21,-1.01,8.65,2.27
36.21,-0.94,8.45,2.21
36.21,-0.82,8.28,2.19
36.22,-0.70,8.08,2.13
36.22,-0.61,7.85,2.09
36.22,-0.53,7.66,2.07
36.22,-0.49,7.46,2.01
36.23,-0.46,7.33,1.97
36.23,-0.42,7.19,1.98
36.23,-0.40,7.06,1.96
36.23,-0.41,6.97,1.93
36.24,-0.45,6.91,1.92
36.24,-0.50,6.85,1.90
36.24,-0.54,6.84,1.85
36.24,-0.59,6.83,1.78
36.24,-0.60,6.89,1.68
36.25,-0.68,6.88,1.57
36.25,-0.79,6.94,1.44
36.25,-0.89,7.01,1.30
36.25,-0.99,7.13,1.15
36.26,-1.07,7.34,0.98
36.26,-1.17,7.54,0.80
36.26,-1.28,7.79,0.61
36.26,-1.35,8.09,0.42
36.27,-1.53,8.40,0.24
36.27,-1.66,8.75,0.06
36.27,-1.76,9.15,-0.15
36.27,-1.91,9.52,-0.33
36.28,-2.04,9.95,-0.49
36.28,-2.18,10.43,-0.65
36.28,-2.28,10.90,-0.86
36.28,-2.32,11.40,-1.01
36.29,-2.32,11.93,-1.13
36.29,-2.33,12.48,-1.29
36.29,-2.32,13.03,-1.50
36.29,-2.44,13.66,-1.63
36.29,-2.48,14.35,-1.66
36.30,-2.53,15.08,-1.67
36.30,-2.57,15.74,-1.62
36.30,-2.58,16.45,-1.54
36.30,-2.69,17.12,-1.48
36.31,-2.76,17.74,-1.41
36.31,-2.81,18.32,-1.32
36.31,-2.85,18.78,-1.26
36.31,-2.83,19.10,-1.13
36.32,-2.74,19.27,-1.05
36.32,-2.61,19.24,-0.93
36.32,-2.40,19.12,-0.83
36.32,-2.13,18.94,-0.77
36.33,-1.89,18.66,-0.72
36.33,-1.71,18.27,-0.70
36.33,-1.56,17.81,-0.67
36.33,-1.49,17.24,-0.65
36.34,-1.51,16.57,-0.68
36.34,-1.64,15.92,-0.71
36.34,-1.86,15.32,-0.76
36.34,-2.10,14.71,-0.81
36.34,-2.37,14.14,-0.91
36.35,-2.65,13.61,-0.99
36.35,-2.87,13.11,-1.14
36.35,-3.10,12.62,-1.26
36.35,-3.25,12.14,-1.38
36.36,-3.37,11.68,-1.51
36.36,-3.47,11.21,-1.67
36.36,-3.52,10.76,-1.91
36.36,-3.61,10.35,-2.13
36.37,-3.62,9.98,-2.25
36.37,-3.63,9.66,-2.33
36.37,-3.66,9.34,-2.34
36.37,-3.72,9.02,-2.25
36.38,-3.82,8.74,-2.09
36.38,-3.94,8.47,-1.95
36.38,-4.07,8.20,-1.75
36.38,-4.19,8.01,-1.49
36.38,-4.34,7.75,-1.16
36.39,-4.58,7.50,-0.87
36.39,-4.78,7.23,-0.57
36.39,-4.97,6.99,-0.25
36.39,-5.12,6.75,0.09
36.40,-5.22,6.54,0.44
36.40,-5.26,6.39,0.71
36.40,-5.26,6.26,0.90
36.40,-5.20,6.10,1.03
36.41,-5.15,6.01,1.13
36.41,-5.00,5.88,1.24
36.41,-4.89,5.82,1.40
36.41,-4.79,5.80,1.58
36.42,-4.67,5.68,1.45
36.42,-4.28,5.58,1.67
36.42,-3.96,5.56,1.89
36.42,-3.68,5.47,2.01
36.43,-3.51,5.37,1.97
36.43,-3.31,5.30,1.85
36.43,-3.12,5.24,1.73
36.43,-2.85,5.25,1.61
36.43,-2.46,5.24,1.54
36.44,-2.06,5.31,1.48
36.44,-1.76,5.39,1.43
36.44,-1.45,5.50,1.37
36.44,-1.15,5.66,1.30
36.45,-0.77,5.80,1.29
36.45,-0.40,5.99,1.27
36.45,-0.18,6.24,1.25
36.45,-0.10,6.49,1.16
36.46,-0.06,6.85,1.08
36.46,-0.06,7.19,1.02
36.46,0.00,7.64,0.97
36.46,-0.01,8.08,0.97
36.47,0.14,8.53,1.07
36.47,0.19,9.01,1.08
36.47,0.12,9.43,1.06
36.47,-0.06,9.89,1.02
36.48,-0.28,10.23,1.02
36.48,-0.60,10.55,0.98
36.48,-0.95,10.86,0.93
36.48,-1.36,11.19,0.85
36.48,-1.74,11.47,0.82
36.49,-2.00,11.72,0.77
36.49,-2.07,11.86,0.81
36.49,-2.16,11.98,0.95
36.49,-2.36,12.11,1.02
36.50,-2.64,12.22,1.01
36.50,-2.84,12.32,0.98
36.50,-2.93,12.38,0.98
36.50,-2.98,12.39,0.94
36.51,-2.95,12.32,0.92
36.51,-3.00,12.25,0.89
36.51,-3.10,12.17,0.85
36.51,-3.14,12.08,0.80
36.52,-3.17,11.98,0.82
36.52,-3.22,11.85,0.88
36.52,-3.31,11.67,0.92
36.52,-3.36,11.49,0.97
36.53,-3.49,11.27,0.92
36.53,-3.65,11.06,0.94
36.53,-3.78,10.85,1.01
36.53,-3.87,10.63,1.08
36.53,-3.99,10.42,1.09
36.54,-4.09,10.14,1.08
36.54,-4.04,10.03,1.17
36.54,-3.97,9.89,1.29
36.54,-3.96,9.76,1.41
36.55,-4.08,9.62,1.49
36.55,-4.19,9.43,1.53
36.55,-4.13,9.40,1.68
36.55,-4.07,9.39,1.88
36.56,-4.04,9.38,2.03
36.56,-4.01,9.37,2.20
36.56,-3.99,9.38,2.37
36.56,-3.93,9.41,2.59
36.57,-3.81,9.40,2.77
36.57,-3.66,9.43,2.99
36.57,-3.55,9.45,3.21
36.57,-3.45,9.45,3.43
36.57,-3.35,9.49,3.58
36.58,-3.32,9.53,3.70
36.58,-3.33,9.56,3.79
36.58,-3.31,9.60,3.84
36.58,-3.27,9.69,3.88
36.59,-3.23,9.74,3.94
36.59,-3.19,9.82,3.92
36.59,-3.10,9.90,3.84
36.59,-3.03,9.98,3.75
36.60,-2.97,10.02,3.62
36.60,-2.90,10.06,3.54
36.60,-2.83,10.08,3.41
36.60,-2.77,10.07,3.26
36.61,-2.71,10.07,3.16
36.61,-2.67,10.06,3.03
36.61,-2.65,10.02,2.91
36.61,-2.64,9.95,2.77
36.62,-2.62,9.91,2.59
36.62,-2.62,9.87,2.46
36.62,-2.64,9.80,2.33
36.62,-2.65,9.74,2.22
36.62,-2.71,9.64,2.11
36.63,-2.71,9.60,2.03
36.63,-2.75,9.49,1.95
36.63,-2.75,9.38,1.90
36.63,-2.75,9.27,1.84
36.64,-2.81,9.19,1.85
36.64,-2.90,9.05,1.81
36.64,-2.92,8.98,1.81
36.64,-2.95,8.89,1.87
36.65,-3.02,8.80,1.92
36.65,-3.09,8.72,2.01
36.65,-3.08,8.60,2.06
36.65,-3.07,8.50,2.18
36.66,-3.08,8.39,2.26
36.66,-3.07,8.27,2.35
36.66,-3.03,8.17,2.46
36.66,-2.96,8.11,2.61
36.67,-2.86,8.02,2.81
36.67,-2.82,7.97,2.95
36.67,-2.80,7.88,3.09
36.67,-2.78,7.80,3.17
36.67,-2.80,7.69,3.27
36.68,-2.77,7.63,3.36
36.68,-2.73,7.53,3.40
36.68,-2.74,7.47,3.45
36.68,-2.71,7.44,3.49
36.69,-2.70,7.36,3.53
36.69,-2.69,7.28,3.51
36.69,-2.68,7.22,3.50
36.69,-2.67,7.21,3.50
36.70,-2.64,7.17,3.51
36.70,-2.64,7.15,3.50
36.70,-2.63,7.11,3.49
36.70,-2.62,7.09,3.51
36.71,-2.57,7.04,3.51
36.71,-2.51,7.00,3.54
36.71,-2.59,7.04,3.52
36.71,-2.71,7.06,3.53
36.72,-2.69,7.07,3.55
36.72,-2.63,7.10,3.61
36.72,-2.52,7.17,3.65
36.72,-2.51,7.18,3.67
36.72,-2.53,7.18,3.75
36.73,-2.59,7.22,3.83
36.73,-2.64,7.23,3.88
36.73,-2.70,7.23,3.93
36.73,-2.74,7.27,3.99
36.74,-2.85,7.26,4.04
36.74,-2.92,7.31,4.10
36.74,-2.99,7.31,4.14
36.74,-3.02,7.33,4.20
36.75,-3.08,7.35,4.25
36.75,-3.12,7.41,4.27
36.75,-3.20,7.45,4.33
36.75,-3.27,7.49,4.38
36.76,-3.34,7.55,4.40
36.76,-3.44,7.57,4.39
36.76,-3.50,7.61,4.43
36.76,-3.59,7.65,4.44
36.77,-3.70,7.71,4.47
36.77,-3.79,7.74,4.50
36.77,-3.91,7.78,4.49
36.77,-3.99,7.82,4.46
36.77,-4.06,7.83,4.43
36.78,-4.18,7.87,4.41
36.78,-4.27,7.88,4.35
36.78,-4.38,7.89,4.29
36.78,-4.45,7.89,4.22
36.79,-4.52,7.89,4.15
36.79,-4.61,7.92,4.06
36.79,-4.72,7.88,3.97
36.79,-4.84,7.90,3.88
36.80,-4.93,7.92,3.75
36.80,-4.99,7.97,3.66
36.80,-5.05,8.00,3.59
36.80,-5.10,8.04,3.52
36.81,-5.12,8.08,3.44
36.81,-5.14,8.11,3.33
36.81,-5.16,8.15,3.24
36.81,-5.13,8.20,3.16
36.81,-5.12,8.22,3.05
36.82,-5.09,8.25,2.99
36.82,-5.05,8.30,2.93
36.82,-4.99,8.35,2.87
36.82,-4.94,8.37,2.80
36.83,-4.89,8.42,2.76
36.83,-4.83,8.46,2.71
36.83,-4.80,8.53,2.70
36.83,-4.72,8.58,2.62
36.84,-4.64,8.66,2.58
36.84,-4.59,8.73,2.53
36.84,-4.57,8.80,2.52
36.84,-4.53,8.84,2.45
36.85,-4.47,8.90,2.42
36.85,-4.42,8.99,2.38
36.85,-4.39,9.04,2.32
36.85,-4.35,9.06,2.26
36.86,-4.32,9.05,2.20
36.86,-4.30,9.06,2.12
36.86,-4.29,9.03,2.11
36.86,-4.31,9.01,2.06
36.86,-4.33,8.97,2.09
36.87,-4.33,8.91,2.16
36.87,-4.34,8.88,2.23
36.87,-4.35,8.84,2.37
36.87,-4.33,8.83,2.55
36.88,-4.28,8.85,2.77
36.88,-4.27,8.87,3.05
36.88,-4.27,8.92,3.31
36.88,-4.24,9.04,3.59
36.89,-4.25,9.16,3.84
36.89,-4.27,9.30,4.06
36.89,-4.33,9.47,4.25
36.89,-4.41,9.71,4.48
36.90,-4.48,10.00,4.65
36.90,-4.53,10.31,4.78
36.90,-4.64,10.65,4.90
36.90,-4.72,11.06,4.99
36.91,-4.80,11.51,5.00
36.91,-4.84,11.95,4.95
36.91,-4.89,12.40,4.91
36.91,-4.95,12.85,4.78
36.91,-4.99,13.26,4.66
36.92,-5.03,13.66,4.52
36.92,-5.00,14.08,4.30
36.92,-4.96,14.48,4.09
36.92,-4.88,14.90,3.85
36.93,-4.78,15.27,3.66
36.93,-4.60,15.65,3.40
36.93,-4.36,15.98,3.09
36.93,-4.12,16.31,2.74
36.94,-3.85,16.64,2.41
36.94,-3.54,16.92,2.13
36.94,-3.22,17.15,1.93
36.94,-2.90,17.35,1.71
36.95,-2.64,17.48,1.51
36.95,-2.48,17.51,1.26
36.95,-2.39,17.40,1.02
36.95,-2.29,17.25,0.82
36.96,-2.19,16.95,0.70
36.96,-2.19,16.49,0.54
36.96,-2.25,16.00,0.34
36.96,-2.24,15.55,0.24
36.96,-2.17,15.08,0.15
36.97,-2.07,14.61,0.11
36.97,-2.02,13.91,0.09
36.97,-1.99,13.22,-0.07
36.97,-1.98,12.63,-0.15
36.98,-2.01,12.08,-0.25
36.98,-2.09,11.60,-0.40
36.98,-2.23,11.16,-0.48
36.98,-2.38,10.74,-0.53
36.99,-2.52,10.35,-0.59
36.99,-2.64,10.00,-0.68
36.99,-2.78,9.71,-0.72
36.99,-2.86,9.46,-0.77
37.00,-3.02,9.17,-0.80
37.00,-3.23,8.91,-0.92
37.00,-3.39,8.60,-0.95
37.00,-3.55,8.31,-1.10
37.01,-3.64,8.02,-1.12
37.01,-3.64,7.70,-1.22
37.01,-3.58,7.35,-1.35
37.01,-3.53,7.03,-1.52
37.01,-3.60,6.71,-1.60
37.02,-3.61,6.44,-1.69
37.02,-3.61,6.21,-1.80
37.02,-3.56,5.97,-1.91
37.02,-3.52,5.78,-2.04
37.03,-3.47,5.62,-2.16
37.03,-3.47,5.56,-2.24
37.03,-3.58,5.65,-2.40
37.03,-3.37,5.67,-2.36
37.04,-3.02,5.63,-2.17
37.04,-2.74,5.62,-2.04
37.04,-2.51,5.62,-1.93
37.04,-2.53,5.58,-1.89
37.05,-2.63,5.72,-1.88
37.05,-2.68,5.99,-1.93
37.05,-2.66,6.32,-1.93
37.05,-2.29,6.53,-1.74
37.05,-1.96,6.78,-1.50
37.06,-1.56,6.96,-1.28
37.06,-1.30,7.08,-1.32
37.06,-1.08,7.26,-1.31
37.06,-0.94,7.58,-1.24
37.07,-0.68,7.98,-1.17
37.07,-0.51,8.48,-1.02
37.07,-0.23,8.96,-0.87
37.07,0.18,9.42,-0.67
37.08,0.46,9.82,-0.42
37.08,0.67,10.23,-0.12
37.08,0.85,10.63,0.29
37.08,1.06,11.02,0.63
37.09,1.24,11.24,1.12
37.09,1.44,11.35,1.56
37.09,1.56,11.45,1.99
37.09,1.54,11.49,2.30
37.10,1.49,11.55,2.48
37.10,1.30,11.56,2.62
37.10,1.20,11.60,2.74
37.10,1.30,11.57,2.73
37.10,1.63,11.52,2.85
37.11,1.59,11.34,3.20
37.11,1.57,11.16,3.30
37.11,1.69,10.89,3.42
37.11,1.80,10.58,3.44
37.12,1.81,10.27,3.34
37.12,1.92,9.90,3.18
37.12,1.99,9.55,3.09
37.12,1.91,9.23,2.97
37.13,1.61,8.90,2.80
37.13,1.18,8.59,2.62
37.13,0.65,8.42,2.33
37.13,0.08,8.23,2.03
37.14,-0.47,8.13,1.76
37.14,-0.88,8.06,1.49
37.14,-1.32,7.97,1.27
37.14,-1.68,7.89,1.10
37.15,-1.96,7.84,1.05
37.15,-2.21,7.78,1.01
37.15,-2.48,7.72,1.04
37.15,-2.68,7.73,1.12
37.15,-2.87,7.78,1.19
37.16,-2.90,7.98,1.23
37.16,-3.09,7.88,1.40
37.16,-3.26,7.92,1.60
37.16,-3.39,8.02,1.78
37.17,-3.46,8.10,1.93
37.17,-3.50,8.23,2.10
37.17,-3.49,8.34,2.24
37.17,-3.43,8.48,2.37
37.18,-3.36,8.65,2.43
37.18,-3.29,8.79,2.52
37.18,-3.20,8.95,2.55
37.18,-3.13,9.06,2.56
37.19,-3.06,9.21,2.52
37.19,-3.03,9.36,2.40
37.19,-2.86,9.44,2.18
37.19,-2.79,9.49,2.07
37.20,-2.76,9.54,2.04
37.20,-2.75,9.55,1.90
37.20,-2.73,9.60,1.78
37.20,-2.74,9.66,1.62
37.20,-2.79,9.66,1.49
37.21,-2.81,9.72,1.35
37.21,-2.87,9.72,1.21
37.21,-2.94,9.73,1.05
37.21,-2.99,9.79,0.94
37.22,-3.07,9.78,0.83
37.22,-3.19,9.83,0.73
37.22,-3.28,9.83,0.62
37.22,-3.37,9.86,0.53
37.23,-3.47,9.83,0.48
37.23,-3.56,9.84,0.44
37.23,-3.61,9.83,0.44
37.23,-3.67,9.83,0.45
37.24,-3.76,9.82,0.47
37.24,-3.80,9.83,0.51
37.24,-3.80,9.85,0.57
37.24,-3.77,9.87,0.65
37.24,-3.73,9.92,0.71
37.25,-3.66,9.96,0.76
37.25,-3.57,9.97,0.84
37.25,-3.43,10.01,0.92
37.25,-3.28,10.05,1.02
37.26,-3.16,10.09,1.13
37.26,-3.02,10.09,1.26
37.26,-2.92,10.09,1.40
37.26,-2.81,10.06,1.53
37.27,-2.73,10.05,1.68
37.27,-2.67,10.05,1.78
37.27,-2.63,10.01,1.91
37.27,-2.54,9.99,2.01
37.28,-2.45,9.96,2.05
37.28,-2.37,9.91,2.09
37.28,-2.36,9.85,2.22
37.28,-2.34,9.79,2.34
37.29,-2.32,9.70,2.45
37.29,-2.29,9.64,2.53
37.29,-2.26,9.60,2.57
37.29,-2.24,9.55,2.58
37.29,-2.17,9.51,2.58
37.30,-2.13,9.42,2.56
37.30,-2.10,9.39,2.53
37.30,-2.06,9.36,2.51
37.30,-2.03,9.36,2.44
37.31,-2.03,9.30,2.39
37.31,-2.02,9.31,2.33
37.31,-2.04,9.28,2.28
37.31,-2.07,9.28,2.18
37.32,-2.07,9.25,2.12
37.32,-2.16,9.21,2.05
37.32,-2.18,9.23,1.99
37.32,-2.21,9.21,1.94
37.33,-2.29,9.21,1.87
37.33,-2.36,9.23,1.84
37.33,-2.43,9.24,1.79
37.33,-2.50,9.24,1.76
37.34,-2.52,9.26,1.71
37.34,-2.54,9.32,1.70
37.34,-2.58,9.32,1.68
37.34,-2.62,9.31,1.67
37.34,-2.61,9.33,1.66
37.35,-2.60,9.35,1.69
37.35,-2.64,9.30,1.72
37.35,-2.60,9.30,1.77
37.35,-2.59,9.26,1.82
37.36,-2.58,9.25,1.90
37.36,-2.52,9.23,1.96
37.36,-2.46,9.22,2.01
37.36,-2.44,9.18,2.09
37.37,-2.45,9.19,2.16
37.37,-2.48,9.16,2.24
37.37,-2.53,9.16,2.30
37.37,-2.55,9.14,2.38
37.38,-2.63,9.18,2.46
37.38,-2.80,9.12,2.53
37.38,-2.73,9.04,2.58
37.38,-2.75,9.03,2.64
37.39,-2.66,9.05,2.46
37.39,-2.76,8.95,2.52
37.39,-2.80,8.86,2.68
37.39,-2.87,8.77,2.80
37.39,-2.93,8.66,2.91
37.40,-2.99,8.57,3.02
37.40,-3.04,8.48,3.10
37.40,-3.08,8.32,3.14
37.40,-3.10,8.27,3.20
37.41,-3.13,8.20,3.26
37.41,-3.12,8.10,3.27
37.41,-3.18,8.01,3.26
37.41,-3.21,7.88,3.26
37.42,-3.22,7.76,3.24
37.42,-3.26,7.66,3.25
37.42,-3.25,7.58,3.20
37.42,-3.23,7.41,3.14
37.43,-3.19,7.33,3.12
37.43,-3.10,7.24,3.07
37.43,-2.94,7.20,3.02
37.43,-2.81,7.15,2.98
37.44,-2.72,7.04,2.96
37.44,-2.65,6.92,2.94
37.44,-2.53,6.82,2.89
37.44,-2.39,6.74,2.86
37.44,-2.28,6.65,2.82
37.45,-2.17,6.57,2.80
37.45,-2.07,6.52,2.74
37.45,-1.90,6.48,2.69
37.45,-1.79,6.47,2.66
37.46,-1.69,6.45,2.60
37.46,-1.64,6.49,2.53
37.46,-1.62,6.51,2.47
37.46,-1.59,6.59,2.41
37.47,-1.58,6.66,2.34
37.47,-1.56,6.78,2.24
37.47,-1.56,6.91,2.13
37.47,-1.55,7.04,2.02
37.48,-1.51,7.22,1.92
37.48,-1.43,7.40,1.77
37.48,-1.38,7.57,1.68
37.48,-1.28,7.75,1.61
37.48,-1.18,7.96,1.51
37.49,-1.06,8.15,1.46
37.49,-0.94,8.30,1.39
37.49,-0.83,8.43,1.33
37.49,-0.73,8.53,1.28
37.50,-0.67,8.60,1.25
37.50,-0.64,8.66,1.18
37.50,-0.57,8.69,1.14
37.50,-0.56,8.68,1.06
37.51,-0.56,8.64,1.00
37.51,-0.54,8.60,0.90
37.51,-0.56,8.52,0.80
37.51,-0.58,8.41,0.74
37.52,-0.55,8.27,0.72
37.52,-0.66,8.08,0.64
37.52,-0.69,7.91,0.63
37.52,-0.72,7.75,0.60
37.53,-0.71,7.63,0.57
37.53,-0.73,7.47,0.53
37.53,-0.74,7.33,0.50
37.53,-0.74,7.22,0.46
37.53,-0.76,7.12,0.43
37.54,-0.73,7.08,0.43
37.54,-0.82,6.99,0.50
37.54,-0.93,7.00,0.50
37.54,-1.00,6.98,0.56
37.55,-1.06,6.99,0.66
37.55,-1.19,7.03,0.76
37.55,-1.30,7.12,0.88
37.55,-1.39,7.26,1.02
37.56,-1.51,7.42,1.13
37.56,-1.59,7.63,1.27
37.56,-1.66,7.88,1.42
37.56,-1.72,8.18,1.55
37.57,-1.79,8.53,1.67
37.57,-1.86,8.95,1.77
37.57,-1.91,9.43,1.84
37.57,-1.96,9.93,1.93
37.58,-2.05,10.47,2.01
37.58,-2.14,11.07,2.03
37.58,-2.27,11.71,2.09
37.58,-2.41,12.38,2.11
37.58,-2.58,13.08,2.15
37.59,-2.78,13.86,2.17
37.59,-3.00,14.67,2.01
37.59,-3.33,15.56,1.96
37.59,-3.61,16.38,1.82
37.60,-3.93,17.21,1.67
37.60,-4.19,17.96,1.47
37.60,-4.44,18.53,1.29
37.60,-4.69,18.95,1.11
37.61,-4.82,19.27,0.95
37.61,-4.87,19.43,0.79
37.61,-4.84,19.41,0.62
37.61,-4.71,19.25,0.44
37.62,-4.52,18.97,0.25
37.62,-4.23,18.61,0.08
37.62,-3.95,18.17,-0.08
37.62,-3.77,17.71,-0.23
37.63,-3.59,17.21,-0.36
37.63,-3.49,16.73,-0.52
37.63,-3.50,16.32,-0.59
37.63,-3.58,15.88,-0.66
37.63,-3.75,15.47,-0.75
37.64,-3.89,15.03,-0.86
37.64,-3.96,14.54,-1.03
37.64,-4.05,14.08,-1.31
37.64,-4.16,13.65,-1.63
37.65,-4.28,13.17,-2.03
37.65,-4.35,12.70,-2.54
37.65,-4.40,12.19,-3.00
37.65,-4.35,11.64,-3.34
37.66,-4.56,11.18,-3.69
37.66,-4.66,10.67,-4.02
37.66,-4.70,10.18,-4.26
37.66,-4.69,9.74,-4.43
37.67,-4.85,9.38,-4.65
37.67,-5.03,9.02,-4.85
37.67,-4.89,8.61,-4.80
37.67,-4.88,8.29,-4.45
37.67,-4.99,7.97,-3.81
37.68,-5.33,7.71,-3.25
37.68,-5.74,7.51,-2.93
37.68,-5.94,7.27,-2.38
37.68,-6.11,7.11,-1.62
37.69,-6.08,7.01,-1.03
37.69,-6.09,6.87,-0.57
37.69,-6.21,6.78,-0.10
37.69,-6.28,6.64,0.35
37.70,-6.30,6.48,0.76
37.70,-6.32,6.33,1.18
37.70,-6.22,6.18,1.60
37.70,-6.12,6.06,1.99
37.71,-6.17,6.07,2.37
37.71,-6.02,6.05,2.80
37.71,-5.72,6.04,3.29
37.71,-5.48,6.08,3.69
37.72,-5.23,6.15,4.10
37.72,-4.90,6.01,4.35
37.72,-4.64,6.00,4.56
37.72,-4.29,5.97,4.73
37.72,-3.89,5.87,4.61
37.73,-3.49,5.80,4.24
37.73,-3.10,5.81,3.89
37.73,-2.70,5.98,3.79
37.73,-2.46,6.02,3.70
37.74,-2.34,6.08,3.59
37.74,-2.20,6.28,3.45
37.74,-2.09,6.57,3.24
37.74,-2.11,6.80,3.00
37.75,-2.04,7.08,2.83
37.75,-2.01,7.34,2.68
37.75,-2.02,7.58,2.57
37.75,-2.04,7.74,2.37
37.76,-1.91,8.05,2.30
37.76,-1.85,8.38,2.18
37.76,-1.79,8.71,2.12
37.76,-1.85,8.97,2.04
37.77,-1.90,9.20,1.99
37.77,-1.98,9.47,1.90
37.77,-2.05,9.74,1.87
37.77,-2.13,10.00,1.79
37.77,-2.20,10.28,1.69
37.78,-2.27,10.51,1.58
37.78,-2.32,10.70,1.46
37.78,-2.37,10.90,1.36
37.78,-2.38,11.09,1.27
37.79,-2.41,11.25,1.16
37.79,-2.44,11.39,1.10
37.79,-2.42,11.44,1.03
37.79,-2.41,11.46,1.03
37.80,-2.56,11.61,1.09
37.80,-2.68,11.74,1.04
37.80,-2.72,11.80,1.00
37.80,-2.72,11.86,0.98
37.81,-2.70,11.86,1.01
37.81,-2.62,11.80,1.10
37.81,-2.56,11.74,1.23
37.81,-2.49,11.64,1.36
37.82,-2.46,11.53,1.51
37.82,-2.45,11.40,1.61
37.82,-2.47,11.28,1.73
37.82,-2.44,11.15,1.88
37.82,-2.45,11.02,2.02
37.83,-2.45,10.89,2.16
37.83,-2.46,10.73,2.34
37.83,-2.46,10.60,2.49
37.83,-2.46,10.43,2.64
37.84,-2.42,10.25,2.82
37.84,-2.34,10.10,2.96
37.84,-2.28,9.94,3.11
37.84,-2.21,9.79,3.25
37.85,-2.12,9.66,3.38
37.85,-2.02,9.50,3.53
37.85,-1.95,9.38,3.65
37.85,-1.94,9.30,3.73
37.86,-1.92,9.22,3.87
37.86,-1.93,9.10,3.94
37.86,-1.88,8.98,4.01
37.86,-1.79,8.88,4.00
37.87,-1.73,8.81,4.01
37.87,-1.70,8.76,3.98
37.87,-1.72,8.75,3.98
37.87,-1.78,8.69,3.99
37.87,-1.88,8.69,3.98
37.88,-2.01,8.72,3.94
37.88,-2.14,8.72,3.90
37.88,-2.28,8.77,3.83
37.88,-2.41,8.86,3.78
37.89,-2.56,8.87,3.65
37.89,-2.68,8.93,3.54
37.89,-2.81,8.96,3.45
37.89,-2.88,9.07,3.34
37.90,-2.97,9.14,3.20
37.90,-3.05,9.16,3.09
37.90,-3.12,9.20,2.93
37.90,-3.22,9.21,2.80
37.91,-3.28,9.23,2.65
37.91,-3.34,9.20,2.52
37.91,-3.38,9.21,2.40
37.91,-3.40,9.18,2.26
37.91,-3.45,9.15,2.10
37.92,-3.49,9.07,1.98
37.92,-3.54,8.97,1.84
37.92,-3.57,8.91,1.73
37.92,-3.59,8.84,1.65
37.93,-3.65,8.73,1.57
37.93,-3.64,8.59,1.54
37.93,-3.63,8.48,1.54
37.93,-3.63,8.36,1.58
37.94,-3.60,8.24,1.64
37.94,-3.60,8.11,1.73
37.94,-3.57,8.03,1.83
37.94,-3.52,7.92,1.97
37.95,-3.46,7.81,2.12
37.95,-3.42,7.73,2.27
37.95,-3.38,7.63,2.44
37.95,-3.30,7.56,2.57
37.96,-3.25,7.48,2.72
37.96,-3.17,7.41,2.84
37.96,-3.13,7.35,2.98
37.96,-3.04,7.29,3.09
37.96,-2.98,7.24,3.17
37.97,-2.92,7.20,3.28
37.97,-2.87,7.15,3.36
37.97,-2.80,7.12,3.44
37.97,-2.74,7.09,3.52
37.98,-2.70,7.08,3.58
37.98,-2.66,7.07,3.64
37.98,-2.60,7.07,3.72
37.98,-2.55,7.06,3.81
37.99,-2.52,7.07,3.86
37.99,-2.51,7.10,3.91
37.99,-2.52,7.13,3.93
37.99,-2.53,7.19,4.00
38.00,-2.56,7.20,4.03
38.00,-2.54,7.24,4.09
38.00,-2.52,7.28,4.11
38.00,-2.52,7.32,4.13
38.01,-2.54,7.32,4.20
38.01,-2.55,7.40,4.21
38.01,-2.53,7.46,4.24
38.01,-2.56,7.49,4.27
38.01,-2.60,7.50,4.31
38.02,-2.62,7.54,4.35
38.02,-2.65,7.55,4.38
38.02,-2.69,7.56,4.41
38.02,-2.77,7.54,4.47
38.03,-2.78,7.58,4.50
38.03,-2.76,7.62,4.48
38.03,-2.76,7.61,4.48
38.03,-2.85,7.59,4.46
38.04,-2.89,7.59,4.43
38.04,-2.94,7.61,4.40
38.04,-3.02,7.58,4.34
38.04,-3.09,7.53,4.28
38.05,-3.14,7.48,4.24
38.05,-3.22,7.45,4.19
38.05,-3.28,7.42,4.17
38.05,-3.36,7.42,4.16
38.06,-3.47,7.41,4.12
38.06,-3.56,7.41,4.09
38.06,-3.63,7.41,4.04
38.06,-3.72,7.38,3.98
38.06,-3.81,7.38,3.91
38.07,-3.94,7.34,3.83
38.07,-4.04,7.31,3.75
38.07,-4.11,7.29,3.68
38.07,-4.20,7.28,3.59
38.08,-4.28,7.28,3.57
38.08,-4.37,7.27,3.54
38.08,-4.45,7.29,3.55
38.08,-4.53,7.31,3.49
38.09,-4.61,7.36,3.48
38.09,-4.69,7.40,3.48
38.09,-4.76,7.45,3.48
38.09,-4.83,7.56,3.49
38.10,-4.90,7.61,3.50
38.10,-4.96,7.64,3.51
38.10,-5.01,7.70,3.54
38.10,-5.03,7.79,3.59
38.11,-5.07,7.86,3.59
38.11,-5.07,7.97,3.64
38.11,-5.12,8.07,3.63
38.11,-5.12,8.21,3.59
38.11,-5.13,8.35,3.57
38.12,-5.14,8.53,3.51
38.12,-5.13,8.72,3.43
38.12,-5.14,8.88,3.33
38.12,-5.14,9.05,3.23
38.13,-5.14,9.24,3.10
38.13,-5.12,9.46,2.99
38.13,-5.07,9.64,2.83
38.13,-5.06,9.80,2.72
38.14,-5.03,9.91,2.61
38.14,-4.98,10.02,2.49
38.14,-4.94,10.09,2.40
38.14,-4.88,10.14,2.31
38.15,-4.82,10.13,2.28
38.15,-4.74,10.05,2.23
38.15,-4.67,9.99,2.25
38.15,-4.65,9.87,2.35
38.15,-4.62,9.72,2.51
38.16,-4.66,9.54,2.76
38.16,-4.71,9.33,3.03
38.16,-4.79,9.13,3.35
38.16,-4.83,8.96,3.68
38.17,-4.88,8.84,4.05
38.17,-4.94,8.76,4.44
38.17,-5.01,8.71,4.81
38.17,-5.09,8.72,5.21
38.18,-5.16,8.76,5.60
38.18,-5.17,8.88,5.92
38.18,-5.19,9.04,6.21
38.18,-5.17,9.25,6.41
38.19,-5.18,9.46,6.57
38.19,-5.17,9.73,6.63
38.19,-5.20,9.96,6.61
38.19,-5.28,10.18,6.49
38.20,-5.35,10.46,6.35
38.20,-5.47,10.77,6.18
38.20,-5.56,11.06,5.97
38.20,-5.62,11.38,5.69
38.20,-5.64,11.75,5.34
38.21,-5.66,12.11,4.95
38.21,-5.79,12.45,4.52
38.21,-5.87,12.84,4.11
38.21,-5.89,13.16,3.61
38.22,-5.87,13.50,3.10
38.22,-5.74,13.88,2.56
38.22,-5.52,14.24,1.99
38.22,-5.25,14.72,1.43
38.23,-4.92,15.26,0.96
38.23,-4.66,15.81,0.54
38.23,-4.33,16.34,0.15
38.23,-3.97,16.89,-0.27
38.24,-3.61,17.40,-0.59
38.24,-3.20,17.82,-0.79
38.24,-2.83,18.17,-0.93
38.24,-2.48,18.38,-1.09
38.25,-2.30,18.43,-1.19
38.25,-2.14,18.35,-1.26
38.25,-1.97,18.17,-1.26
38.25,-1.89,17.90,-1.21
38.25,-1.94,17.47,-1.06
38.26,-1.94,16.97,-0.90
38.26,-1.79,16.53,-0.66
38.26,-1.52,16.13,-0.44
38.26,-1.24,15.70,-0.29
38.27,-1.01,15.20,-0.12
38.27,-0.84,14.67,0.01
38.27,-0.78,14.06,0.11
38.27,-0.88,13.37,0.21
38.28,-1.13,12.58,0.27
38.28,-1.40,11.77,0.29
38.28,-1.61,11.09,0.36
38.28,-1.76,10.52,0.44
38.29,-1.96,9.99,0.45
38.29,-2.11,9.49,0.38
38.29,-2.27,9.03,0.26
38.29,-2.37,8.55,0.24
38.30,-2.43,8.04,0.20
38.30,-2.46,7.52,0.15
38.30,-2.50,6.98,0.02
38.30,-2.58,6.51,-0.39
38.30,-2.61,6.09,-0.74
38.31,-2.68,5.66,-0.91
38.31,-2.78,5.22,-1.07
38.31,-2.81,4.87,-1.17
38.31,-2.82,4.54,-1.30
38.32,-2.77,4.23,-1.45
38.32,-2.69,4.05,-1.56
38.32,-2.53,3.98,-1.59
38.32,-2.36,3.93,-1.60
38.33,-2.29,3.86,-1.59
38.33,-2.14,3.91,-1.50
38.33,-2.00,4.03,-1.35
38.33,-1.84,4.21,-1.10
38.34,-2.04,4.45,-1.24
38.34,-1.78,4.58,-1.25
38.34,-1.45,4.60,-1.07
38.34,-1.37,4.73,-1.08
38.34,-1.30,4.98,-0.95
38.35,-1.24,5.42,-0.83
38.35,-1.19,5.94,-0.82
38.35,-1.11,6.49,-0.87
38.35,-1.07,7.04,-0.89
38.36,-1.03,7.58,-0.80
38.36,-0.92,8.13,-0.69
38.36,-0.94,8.70,-0.51
38.36,-0.98,9.23,-0.44
38.37,-0.90,9.83,-0.39
38.37,-0.71,10.41,-0.29
38.37,-0.47,10.93,-0.16
38.37,-0.18,11.46,-0.06
38.38,-0.08,11.85,0.09
38.38,-0.19,12.21,0.41
38.38,-0.06,12.66,0.79
38.38,-0.04,13.00,1.09
38.39,0.03,13.29,1.36
38.39,0.12,13.52,1.61
38.39,0.18,13.60,1.92
38.39,0.25,13.62,2.12
38.39,0.44,13.58,2.30
38.40,0.67,13.52,2.39
38.40,0.86,13.45,2.47
38.40,1.02,13.29,2.50
38.40,1.18,13.07,2.53
38.41,1.26,12.78,2.57
38.41,1.33,12.43,2.68
38.41,1.38,12.07,2.75
38.41,1.36,11.69,2.78
38.42,1.21,11.33,2.74
38.42,0.78,11.07,2.42
38.42,0.78,10.64,2.29
38.42,0.86,10.15,2.27
38.43,0.68,9.76,2.21
38.43,0.49,9.49,2.16
38.43,0.21,9.16,2.07
38.43,-0.02,8.86,2.03
38.44,-0.26,8.55,2.01
38.44,-0.55,8.27,2.01
38.44,-0.85,8.14,2.00
38.44,-1.15,7.97,1.97
38.44,-1.52,7.68,2.09
38.45,-1.86,7.53,2.14
38.45,-2.18,7.43,2.17
38.45,-2.36,7.34,2.29
38.45,-2.52,7.31,2.41
38.46,-2.69,7.24,2.59
38.46,-2.87,7.23,2.80
38.46,-2.98,7.30,3.02
38.46,-3.03,7.43,3.15
38.47,-3.09,7.59,3.21
38.47,-3.14,7.76,3.29
38.47,-3.19,7.96,3.32
38.47,-3.18,8.14,3.32
38.48,-3.16,8.32,3.21
38.48,-3.10,8.53,3.08
38.48,-3.03,8.73,2.90
38.48,-2.90,8.90,2.68
38.49,-2.76,9.03,2.47
38.49,-2.66,9.18,2.28
38.49,-2.58,9.25,2.08
38.49,-2.52,9.38,1.93
38.49,-2.50,9.44,1.77
38.50,-2.49,9.54,1.65
38.50,-2.48,9.58,1.52
38.50,-2.46,9.66,1.39
38.50,-2.42,9.73,1.30
38.51,-2.61,9.84,1.14
38.51,-2.66,9.88,0.80
38.51,-2.56,9.88,0.59
38.51,-2.42,9.86,0.52
38.52,-2.39,9.90,0.51
38.52,-2.37,9.91,0.53
38.52,-2.35,9.93,0.56
38.52,-2.32,9.91,0.54
38.53,-2.31,9.89,0.53
38.53,-2.34,9.88,0.50
38.53,-2.35,9.83,0.52
38.53,-2.38,9.83,0.54
38.54,-2.44,9.79,0.58
38.54,-2.48,9.77,0.67
38.54,-2.56,9.76,0.76
38.54,-2.58,9.74,0.84
38.54,-2.60,9.72,0.96
38.55,-2.60,9.78,1.07
38.55,-2.64,9.75,1.22
38.55,-2.69,9.75,1.38
38.55,-2.73,9.74,1.50
38.56,-2.74,9.73,1.65
38.56,-2.80,9.73,1.79
38.56,-2.79,9.71,1.89
38.56,-2.76,9.70,1.97
38.57,-2.78,9.69,2.07
38.57,-2.90,9.62,2.21
38.57,-2.98,9.56,2.38
38.57,-3.05,9.49,2.52
38.58,-3.07,9.44,2.61
38.58,-3.07,9.38,2.66
38.58,-3.05,9.37,2.69
38.58,-3.03,9.33,2.69
38.58,-3.03,9.31,2.72
38.59,-3.05,9.28,2.73
38.59,-3.05,9.22,2.76
38.59,-3.01,9.20,2.78
38.59,-3.04,9.18,2.77
38.60,-3.03,9.14,2.72
38.60,-3.01,9.12,2.70
38.60,-3.08,9.06,2.66
38.60,-3.07,9.04,2.63
38.61,-3.05,9.02,2.54
38.61,-3.03,9.00,2.46
38.61,-3.08,8.98,2.39
38.61,-3.06,8.98,2.32
38.62,-3.06,8.93,2.29
38.62,-3.10,8.93,2.23
38.62,-3.12,8.93,2.26
38.62,-3.14,8.87,2.22
38.63,-3.11,8.90,2.17
38.63,-3.12,8.91,2.16
38.63,-3.16,8.88,2.18
38.63,-3.16,8.87,2.14
38.63,-3.15,8.89,2.17
38.64,-3.15,8.89,2.18
38.64,-3.17,8.93,2.21
38.64,-3.18,8.94,2.21
38.64,-3.15,8.98,2.21
38.65,-3.20,8.99,2.21
38.65,-3.20,9.06,2.19
38.65,-3.27,9.07,2.20
38.65,-3.28,9.09,2.21
38.66,-3.31,9.11,2.22
38.66,-3.34,9.08,2.21
38.66,-3.36,9.11,2.26
38.66,-3.38,9.11,2.25
38.67,-3.38,9.20,2.26
38.67,-3.18,9.24,2.02
38.67,-3.32,9.19,2.05
38.67,-3.36,9.15,2.16
38.68,-3.46,9.10,2.19
38.68,-3.60,9.12,2.23
38.68,-3.70,9.06,2.30
38.68,-3.75,9.01,2.34
38.68,-3.83,8.96,2.35
38.69,-3.86,8.87,2.38
38.69,-3.94,8.75,2.41
38.69,-4.02,8.63,2.45
38.69,-4.02,8.59,2.46
38.70,-4.01,8.49,2.43
38.70,-3.97,8.42,2.38
38.70,-3.93,8.33,2.35
38.70,-3.87,8.21,2.33
38.71,-3.80,8.13,2.34
38.71,-3.77,8.02,2.34
38.71,-3.68,7.90,2.33
38.71,-3.55,7.76,2.40
38.72,-3.40,7.72,2.41
38.72,-3.24,7.63,2.49
38.72,-3.12,7.56,2.49
38.72,-3.02,7.46,2.53
38.73,-2.92,7.32,2.59
38.73,-2.80,7.20,2.62
38.73,-2.68,7.12,2.67
38.73,-2.60,7.04,2.68
38.73,-2.52,6.99,2.65
38.74,-2.45,6.90,2.64
38.74,-2.35,6.83,2.69
38.74,-2.18,6.76,2.69
38.74,-1.99,6.73,2.71
38.75,-1.83,6.74,2.70
38.75,-1.67,6.71,2.74
38.75,-1.54,6.75,2.75
38.75,-1.42,6.79,2.77
38.76,-1.29,6.87,2.78
38.76,-1.22,6.97,2.79
38.76,-1.22,6.99,2.77
38.76,-1.17,7.08,2.81
38.77,-1.17,7.12,2.75
38.77,-1.19,7.23,2.70
38.77,-1.22,7.33,2.65
38.77,-1.23,7.46,2.59
38.78,-1.17,7.65,2.52
38.78,-1.16,7.84,2.52
38.78,-1.20,8.00,2.50
38.78,-1.24,8.13,2.43
38.78,-1.30,8.26,2.37
38.79,-1.37,8.38,2.30
38.79,-1.40,8.49,2.24
38.79,-1.48,8.61,2.13
38.79,-1.56,8.73,1.98
38.80,-1.62,8.89,1.83
38.80,-1.70,9.05,1.67
38.80,-1.79,9.14,1.45
38.80,-1.86,9.21,1.29
38.81,-1.99,9.21,1.12
38.81,-2.03,9.25,0.96
38.81,-2.08,9.28,0.75
38.81,-2.13,9.33,0.52
38.82,-2.16,9.30,0.34
38.82,-2.19,9.20,0.19
38.82,-2.15,9.09,0.04
38.82,-2.08,8.94,-0.10
38.82,-2.03,8.75,-0.26
38.83,-1.98,8.53,-0.42
38.83,-1.91,8.33,-0.52
38.83,-1.86,8.11,-0.65
38.83,-1.83,7.96,-0.73
38.84,-1.80,7.77,-0.85
38.84,-1.81,7.65,-0.89
38.84,-1.75,7.59,-0.95
38.84,-1.69,7.57,-0.99
38.85,-1.59,7.58,-0.95
38.85,-1.64,7.58,-1.00
38.85,-1.59,7.70,-1.00
38.85,-1.51,7.80,-0.97
38.86,-1.36,7.94,-0.90
38.86,-1.10,8.10,-0.82
38.86,-1.02,8.27,-0.74
38.86,-0.86,8.47,-0.68
38.87,-0.71,8.69,-0.57
38.87,-0.54,8.88,-0.43
38.87,-0.41,9.08,-0.25
38.87,-0.27,9.30,-0.10
38.87,-0.09,9.51,0.06
38.88,0.07,9.74,0.25
38.88,0.23,9.97,0.44
38.88,0.43,10.20,0.63
38.88,0.61,10.45,0.79
38.89,0.79,10.71,0.93
38.89,0.92,10.97,1.07
38.89,1.04,11.25,1.19
38.89,1.06,11.62,1.28
38.90,1.08,12.00,1.30
38.90,0.99,12.37,1.30
38.90,0.90,12.81,1.21
38.90,0.76,13.17,1.05
38.91,0.44,13.69,0.94
38.91,0.05,14.16,0.88
38.91,-0.33,14.61,0.81
38.91,-0.75,15.00,0.75
38.92,-1.28,15.31,0.67
38.92,-1.86,15.55,0.63
38.92,-2.48,15.74,0.65
38.92,-3.17,15.90,0.70
38.92,-3.91,15.97,0.84
38.93,-4.63,16.01,0.95
38.93,-5.27,15.97,1.09
38.93,-5.91,15.94,1.22
38.93,-6.46,15.84,1.33
38.94,-6.93,15.73,1.35
38.94,-7.39,15.54,1.30
38.94,-7.80,15.36,1.12
38.94,-8.12,15.13,0.89
38.95,-8.36,14.95,0.62
38.95,-8.51,14.78,0.25
38.95,-8.67,14.55,-0.19
38.95,-8.77,14.23,-0.62
38.96,-8.82,13.97,-1.10
38.96,-8.91,13.65,-1.67
38.96,-8.93,13.25,-2.31
38.96,-8.90,12.86,-2.97
38.97,-8.81,12.49,-3.59
38.97,-8.71,12.10,-4.16
38.97,-8.59,11.74,-4.63
38.97,-8.53,11.40,-5.14
38.97,-8.49,11.07,-5.54
38.98,-8.42,10.79,-5.74
38.98,-8.37,10.47,-5.78
38.98,-8.31,10.17,-5.68
38.98,-8.27,9.84,-5.45
38.99,-8.21,9.51,-5.06
38.99,-8.17,9.17,-4.65
38.99,-8.12,8.84,-4.29
38.99,-8.05,8.55,-3.88
39.00,-7.95,8.25,-3.49
39.00,-7.78,8.04,-3.05
39.00,-7.51,7.81,-2.60
39.00,-7.25,7.57,-2.09
39.01,-6.98,7.36,-1.64
39.01,-6.81,7.23,-1.26
39.01,-6.79,7.15,-1.08
39.01,-6.43,6.96,-0.93
39.01,-5.98,6.87,-0.43
39.02,-5.56,6.76,0.08
39.02,-5.17,6.67,0.54
39.02,-4.84,6.61,0.86
39.02,-4.48,6.56,1.23
39.03,-4.07,6.53,1.61
39.03,-3.64,6.48,2.05
39.03,-3.22,6.45,2.43
39.03,-2.80,6.49,2.81
39.04,-2.40,6.50,3.15
39.04,-2.03,6.63,3.48
39.04,-1.78,6.78,3.76
39.04,-1.70,6.81,4.04
39.05,-1.51,6.79,4.31
39.05,-1.26,6.78,4.46
39.05,-1.01,6.79,4.64
39.05,-0.72,6.83,4.69
39.06,-0.41,6.80,4.84
39.06,-0.21,6.82,4.93
39.06,-0.13,6.86,4.90
39.06,-0.08,6.93,4.78
39.06,0.03,7.08,4.61
39.07,0.22,7.30,4.45
39.07,0.45,7.51,4.20
39.07,0.79,7.69,4.01
39.07,1.00,7.89,3.78
39.08,1.09,8.10,3.52
39.08,1.02,8.32,3.20
39.08,0.82,8.51,2.88
39.08,0.59,8.64,2.57
39.09,0.33,8.70,2.34
39.09,0.12,8.72,2.13
39.09,-0.18,8.77,1.99
39.09,-0.61,8.79,1.81
39.10,-0.78,8.94,1.71
39.10,-1.11,9.09,1.56
39.10,-1.34,9.27,1.43
39.10,-1.57,9.40,1.29
39.11,-1.75,9.54,1.14
39.11,-1.95,9.65,0.97
39.11,-2.09,9.72,0.81
39.11,-2.21,9.82,0.64
39.11,-2.33,9.91,0.49
39.12,-2.49,9.95,0.28
39.12,-2.59,10.03,0.12
39.12,-2.72,10.10,-0.03
39.12,-2.86,10.15,-0.20
39.13,-2.96,10.18,-0.27
39.13,-3.02,10.20,-0.37
39.13,-3.07,10.21,-0.41
39.13,-3.18,10.22,-0.43
39.14,-3.18,10.22,-0.40
39.14,-3.16,10.11,-0.31
39.14,-3.20,10.13,-0.18
39.14,-3.45,10.23,-0.08
39.15,-3.53,10.23,0.02
39.15,-3.59,10.24,0.24
39.15,-3.67,10.24,0.47
39.15,-3.71,10.24,0.72
39.16,-3.77,10.19,1.03
39.16,-3.79,10.15,1.36
39.16,-3.79,10.11,1.63
39.16,-3.73,10.06,1.92
39.16,-3.67,10.01,2.18
39.17,-3.59,9.95,2.42
39.17,-3.50,9.89,2.64
39.17,-3.39,9.83,2.84
39.17,-3.27,9.75,2.96
39.18,-3.16,9.72,3.07
39.18,-3.08,9.66,3.17
39.18,-3.06,9.64,3.29
39.18,-3.03,9.61,3.36
39.19,-2.93,9.54,3.45
39.19,-2.77,9.51,3.55
39.19,-2.65,9.50,3.65
39.19,-2.56,9.45,3.74
39.20,-2.47,9.42,3.77
39.20,-2.44,9.38,3.81
39.20,-2.43,9.33,3.77
39.20,-2.42,9.33,3.78
39.21,-2.39,9.27,3.77
39.21,-2.35,9.23,3.69
39.21,-2.30,9.17,3.58
39.21,-2.25,9.15,3.46
39.21,-2.26,9.13,3.34
39.22,-2.28,9.10,3.22
39.22,-2.35,9.06,3.08
39.22,-2.47,9.04,2.96
39.22,-2.56,9.01,2.86
39.23,-2.67,9.03,2.73
39.23,-2.78,9.01,2.62
39.23,-2.86,8.98,2.52
39.23,-2.98,8.97,2.46
39.24,-3.11,8.95,2.38
39.24,-3.26,8.94,2.32
39.24,-3.37,8.91,2.28
39.24,-3.47,8.87,2.23
39.25,-3.51,8.87,2.20
39.25,-3.56,8.86,2.20
39.25,-3.58,8.83,2.18
39.25,-3.60,8.79,2.18
39.25,-3.60,8.76,2.20
39.26,-3.63,8.76,2.24
39.26,-3.67,8.70,2.28
39.26,-3.69,8.69,2.36
39.26,-3.69,8.65,2.41
39.27,-3.70,8.61,2.49
39.27,-3.71,8.57,2.58
39.27,-3.70,8.51,2.64
39.27,-3.70,8.48,2.74
39.28,-3.74,8.43,2.84
39.28,-3.70,8.37,2.91
39.28,-3.68,8.30,2.99
39.28,-3.64,8.27,3.08
39.29,-3.60,8.22,3.14
39.29,-3.56,8.19,3.21
39.29,-3.51,8.15,3.26
39.29,-3.45,8.05,3.31
39.30,-3.43,7.98,3.32
39.30,-3.39,7.92,3.34
39.30,-3.33,7.88,3.39
39.30,-3.30,7.86,3.41
39.30,-3.29,7.83,3.44
39.31,-3.24,7.76,3.46
39.31,-3.20,7.76,3.45
39.31,-3.13,7.74,3.45
39.31,-3.08,7.69,3.46
39.32,-3.02,7.67,3.46
39.32,-2.96,7.64,3.44
39.32,-2.91,7.65,3.45
39.32,-2.88,7.64,3.45
39.33,-2.86,7.61,3.48
39.33,-2.82,7.60,3.50
39.33,-2.77,7.60,3.52
39.33,-2.74,7.55,3.48
39.34,-2.73,7.57,3.54
39.34,-2.72,7.56,3.52
39.34,-2.73,7.55,3.56
39.34,-2.73,7.53,3.59
39.35,-2.69,7.51,3.61
39.35,-2.68,7.56,3.58
39.35,-2.67,7.54,3.55
39.35,-2.67,7.53,3.53
39.35,-2.70,7.51,3.46
39.36,-2.75,7.46,3.41
39.36,-2.82,7.40,3.35
39.36,-2.85,7.36,3.29
39.36,-2.87,7.29,3.26
39.37,-2.91,7.28,3.28
39.37,-2.93,7.28,3.27
39.37,-2.94,7.24,3.26
39.37,-2.96,7.28,3.30
39.38,-2.97,7.29,3.29
39.38,-3.00,7.30,3.33
39.38,-3.04,7.32,3.37
39.38,-3.08,7.33,3.42
39.39,-3.15,7.35,3.46
39.39,-3.24,7.31,3.48
39.39,-3.35,7.30,3.48
39.39,-3.45,7.28,3.47
39.40,-3.62,7.23,3.46
39.40,-3.75,7.20,3.42
39.40,-3.92,7.21,3.37
39.40,-4.10,7.19,3.34
39.40,-4.28,7.18,3.31
39.41,-4.47,7.14,3.29
39.41,-4.66,7.14,3.25
39.41,-4.81,7.19,3.23
39.41,-4.96,7.21,3.22
39.42,-5.08,7.26,3.23
39.42,-5.21,7.30,3.27
39.42,-5.29,7.41,3.34
39.42,-5.32,7.53,3.42
39.43,-5.34,7.65,3.50
39.43,-5.35,7.75,3.59
39.43,-5.30,7.90,3.67
39.43,-5.27,8.02,3.76
39.44,-5.23,8.16,3.83
39.44,-5.17,8.28,3.91
39.44,-5.16,8.43,3.96
39.44,-5.11,8.63,4.01
39.44,-5.06,8.79,4.03
39.45,-5.03,8.92,4.03
39.45,-5.04,9.07,4.05
39.45,-5.00,9.25,4.05
39.45,-5.02,9.41,4.03
39.46,-5.09,9.57,4.03
39.46,-5.22,9.76,4.01
39.46,-5.41,9.93,3.96
39.46,-5.55,10.00,3.88
39.47,-5.59,10.04,3.80
39.47,-5.61,10.12,3.70
39.47,-5.60,10.16,3.61
39.47,-5.63,10.17,3.43
39.48,-5.66,10.18,3.31
39.48,-5.67,10.23,3.23
39.48,-5.60,10.28,3.11
39.48,-5.51,10.31,3.05
39.49,-5.44,10.31,3.05
39.49,-5.40,10.31,3.08
39.49,-5.33,10.34,3.20
39.49,-5.31,10.32,3.34
39.49,-5.34,10.36,3.54
39.50,-5.37,10.36,3.77
39.50,-5.48,10.35,3.98
39.50,-5.51,10.42,4.18
39.50,-5.51,10.50,4.39
39.51,-5.55,10.60,4.61
39.51,-5.54,10.74,4.79
39.51,-5.57,10.86,4.97
39.51,-5.52,11.04,5.11
39.52,-5.58,11.24,5.19
39.52,-5.63,11.40,5.24
39.52,-5.67,11.61,5.24
39.52,-5.73,11.77,5.22
39.53,-5.73,11.96,5.14
39.53,-5.74,12.15,5.02
39.53,-5.74,12.36,4.86
39.53,-5.73,12.53,4.66
39.54,-5.70,12.70,4.44
39.54,-5.60,12.85,4.25
39.54,-5.49,12.97,4.03
39.54,-5.43,13.11,3.87
39.54,-5.33,13.27,3.64
39.55,-5.18,13.38,3.46
39.55,-4.94,13.54,3.32
39.55,-4.62,13.71,3.18
39.55,-4.35,13.89,3.01
39.56,-4.08,14.09,2.80
39.56,-3.75,14.30,2.51
39.56,-3.44,14.53,2.20
39.56,-3.19,14.78,1.90
39.57,-2.92,15.02,1.60
39.57,-2.64,15.22,1.34
39.57,-2.43,15.38,1.10
39.57,-2.17,15.54,0.84
39.58,-1.98,15.62,0.64
39.58,-1.82,15.61,0.37
39.58,-1.66,15.51,0.17
39.58,-1.48,15.42,0.04
39.59,-1.37,15.16,-0.12
39.59,-1.34,14.80,-0.28
39.59,-1.25,14.37,-0.32
39.59,-1.18,13.88,-0.42
39.59,-1.26,13.50,-0.34
39.60,-1.22,13.17,-0.24
39.60,-1.17,12.81,-0.06
39.60,-1.16,12.42,0.09
39.60,-1.18,11.99,0.19
39.61,-1.22,11.50,0.31
39.61,-1.38,10.96,0.45
39.61,-1.61,10.40,0.57
39.61,-1.83,9.89,0.62
39.62,-2.05,9.36,0.61
39.62,-2.25,8.90,0.56
39.62,-2.42,8.49,0.46
39.62,-2.63,8.10,0.37
39.63,-2.84,7.74,0.24
39.63,-2.99,7.41,0.08
39.63,-3.09,7.06,-0.08
39.63,-3.14,6.83,-0.22
39.64,-3.21,6.59,-0.46
39.64,-3.26,6.31,-0.66
39.64,-3.29,6.07,-0.89
39.64,-3.30,5.86,-1.09
39.64,-3.25,5.74,-1.27
39.65,-3.20,5.59,-1.42
39.65,-3.11,5.45,-1.49
39.65,-3.07,5.37,-1.56
39.65,-3.05,5.32,-1.66
39.66,-3.04,5.34,-1.77
39.66,-2.93,5.35,-1.94
39.66,-2.81,5.42,-2.06
39.66,-2.72,5.50,-2.17
39.67,-2.52,5.50,-2.12
39.67,-2.33,5.46,-1.98
39.67,-2.06,5.49,-1.55
39.67,-1.90,5.58,-1.27
39.68,-1.79,5.77,-1.37
39.68,-1.57,5.96,-1.37
39.68,-1.33,6.15,-1.17
39.68,-1.11,6.34,-1.00
39.68,-0.89,6.60,-0.86
39.69,-0.64,6.91,-0.78
39.69,-0.29,7.30,-0.66
39.69,-0.06,7.66,-0.46
39.69,0.00,8.10,-0.36
39.70,-0.13,8.57,-0.24
39.70,-0.19,9.05,-0.11
39.70,-0.18,9.63,0.11
39.70,-0.19,10.15,0.25
39.71,-0.13,10.67,0.34
39.71,-0.07,11.18,0.47
39.71,-0.03,11.60,0.57
39.71,0.05,11.98,0.65
39.72,0.13,12.24,0.79
39.72,0.26,12.47,0.88
39.72,0.43,12.72,0.95
39.72,0.58,12.87,1.12
39.73,0.72,12.91,1.32
39.73,0.82,12.96,1.47
39.73,0.87,12.89,1.60
39.73,0.88,12.80,1.72
39.73,0.94,12.64,1.85
39.74,1.02,12.45,1.92
39.74,1.10,12.19,2.05
39.74,1.12,11.91,2.18
39.74,1.12,11.59,2.35
39.75,1.09,11.25,2.46
39.75,1.07,10.88,2.60
39.75,1.04,10.51,2.70
39.75,1.03,10.17,2.75
39.76,0.97,9.85,2.75
39.76,0.92,9.56,2.75
39.76,0.79,9.25,2.64
39.76,0.53,8.96,2.50
39.77,0.24,8.72,2.36
39.77,-0.11,8.53,2.23
39.77,-0.30,8.32,2.20
39.77,-0.57,8.16,2.19
39.78,-0.84,8.01,2.13
39.78,-1.13,7.89,2.02
39.78,-1.38,7.80,1.98
39.78,-1.67,7.72,2.01
39.78,-1.93,7.62,2.01
39.79,-2.27,7.58,2.08
39.79,-2.58,7.65,1.95
39.79,-2.76,7.70,1.79
39.79,-2.87,7.84,1.67
39.80,-3.01,8.05,1.60
39.80,-3.08,8.28,1.52
39.80,-3.10,8.49,1.47
39.80,-3.15,8.72,1.46
39.81,-3.24,8.89,1.51
39.81,-3.30,9.01,1.55
39.81,-3.36,9.16,1.63
39.81,-3.39,9.27,1.74
39.82,-3.44,9.38,1.82
39.82,-3.44,9.41,1.86
39.82,-3.43,9.47,1.90
39.82,-3.39,9.52,1.91
39.83,-3.33,9.54,1.84
39.83,-3.26,9.57,1.83
39.83,-3.21,9.59,1.79
39.83,-3.14,9.61,1.76
39.83,-3.07,9.61,1.69
39.84,-3.01,9.63,1.66
39.84,-3.10,9.72,1.63
39.84,-3.00,9.70,1.52
39.84,-2.85,9.68,1.48
39.85,-2.75,9.65,1.49
39.85,-2.72,9.57,1.52
39.85,-2.74,9.51,1.53
39.85,-2.76,9.49,1.53
39.86,-2.78,9.49,1.52
39.86,-2.78,9.52,1.48
39.86,-2.81,9.51,1.46
39.86,-2.82,9.53,1.41
39.87,-2.86,9.53,1.36
39.87,-2.88,9.50,1.32
39.87,-2.90,9.50,1.30
39.87,-2.92,9.50,1.28
39.88,-2.92,9.52,1.27
39.88,-2.90,9.53,1.25
39.88,-2.93,9.56,1.26
39.88,-2.94,9.57,1.28
39.88,-2.95,9.57,1.32
39.89,-2.96,9.59,1.38
39.89,-2.93,9.58,1.44
39.89,-2.88,9.56,1.50
39.89,-2.80,9.58,1.55
39.90,-2.70,9.59,1.61
39.90,-2.69,9.54,1.71
39.90,-2.67,9.50,1.86
39.90,-2.65,9.50,1.98
39.91,-2.65,9.45,2.10
39.91,-2.61,9.42,2.20
39.91,-2.62,9.38,2.28
39.91,-2.62,9.37,2.34
39.92,-2.60,9.33,2.39
39.92,-2.61,9.30,2.44
39.92,-2.61,9.28,2.45
39.92,-2.64,9.24,2.47
39.92,-2.63,9.24,2.48
39.93,-2.59,9.21,2.46
39.93,-2.57,9.17,2.45
39.93,-2.56,9.16,2.42
39.93,-2.56,9.15,2.40
39.94,-2.55,9.12,2.35
39.94,-2.57,9.10,2.29
39.94,-2.59,9.09,2.25
39.94,-2.62,9.09,2.18
39.95,-2.62,9.07,2.10
39.95,-2.68,9.07,2.06
39.95,-2.71,9.06,2.02
39.95,-2.74,9.09,1.96
39.96,-2.80,9.10,1.94
39.96,-2.85,9.09,1.91
39.96,-2.90,9.10,1.87
39.96,-2.94,9.11,1.81
39.97,-2.98,9.12,1.79
39.97,-3.01,9.14,1.77
39.97,-3.03,9.15,1.75
39.97,-3.01,9.14,1.73
39.97,-2.98,9.18,1.73
39.98,-2.97,9.17,1.73
39.98,-2.96,9.17,1.73
39.98,-2.92,9.16,1.74
39.98,-2.88,9.17,1.73
39.99,-2.85,9.16,1.75
39.99,-2.81,9.17,1.82
39.99,-2.79,9.17,1.83
39.99,-2.77,9.16,1.87
40.00,-2.74,9.14,1.93
40.00,-2.71,9.12,1.99
40.00,-2.64,9.13,2.05
40.00,-2.58,9.09,2.13
40.01,-2.51,9.10,2.21
40.01,-2.48,9.11,2.28
40.01,-2.47,9.12,2.33
40.01,-2.52,9.15,2.40
40.02,-2.57,9.14,2.46
40.02,-2.56,9.13,2.54
40.02,-2.56,9.23,2.60
40.02,-2.38,9.31,2.35
40.02,-2.51,9.23,2.44
40.03,-2.64,9.15,2.58
40.03,-2.78,9.05,2.70
40.03,-2.95,8.93,2.83
40.03,-3.10,8.76,2.93
40.04,-3.23,8.64,2.99
40.04,-3.35,8.50,3.06
40.04,-3.45,8.37,3.06
40.04,-3.51,8.24,3.10
40.05,-3.57,8.06,3.13
40.05,-3.60,7.91,3.13
40.05,-3.65,7.76,3.14
40.05,-3.72,7.58,3.16
40.06,-3.72,7.46,3.16
40.06,-3.74,7.28,3.17
40.06,-3.72,7.12,3.15
40.06,-3.77,6.95,3.11
40.07,-3.76,6.80,3.05
40.07,-3.74,6.64,3.00
40.07,-3.72,6.53,2.90
40.07,-3.69,6.41,2.80
40.07,-3.65,6.32,2.67
40.08,-3.65,6.22,2.56
40.08,-3.59,6.15,2.45
40.08,-3.57,6.04,2.33
40.08,-3.55,5.99,2.24
40.09,-3.53,5.98,2.11
40.09,-3.50,5.94,2.03
40.09,-3.49,5.90,1.93
40.09,-3.48,5.87,1.83
40.10,-3.49,5.91,1.70
40.10,-3.53,5.97,1.67
40.10,-3.54,6.09,1.58
40.10,-3.61,6.21,1.57
40.11,-3.64,6.37,1.51
40.11,-3.64,6.54,1.47
40.11,-3.62,6.74,1.44
40.11,-3.58,6.95,1.37
40.11,-3.50,7.16,1.30
40.12,-3.34,7.36,1.28
40.12,-3.12,7.56,1.24
40.12,-2.88,7.75,1.11
40.12,-2.58,7.97,1.01
40.13,-2.22,8.18,0.92
40.13,-1.84,8.34,0.83
40.13,-1.50,8.53,0.73
40.13,-1.13,8.70,0.63
40.14,-0.88,8.79,0.52
40.14,-0.70,8.89,0.40
40.14,-0.56,8.99,0.29
40.14,-0.50,9.05,0.11
40.15,-0.43,9.09,-0.02
40.15,-0.35,9.07,-0.18
40.15,-0.27,9.03,-0.36
40.15,-0.16,8.93,-0.48
40.16,-0.03,8.82,-0.54
40.16,0.16,8.71,-0.61
40.16,0.33,8.57,-0.65
40.16,0.54,8.44,-0.71
40.16,0.74,8.33,-0.70
40.17,0.93,8.21,-0.67
40.17,1.10,8.13,-0.65
40.17,1.24,8.08,-0.59
40.17,1.29,8.02,-0.46
40.18,1.25,7.96,-0.31
40.18,1.17,7.94,-0.15
40.18,1.09,7.97,0.02
40.18,0.92,7.97,0.20
40.19,0.74,8.02,0.41
40.19,0.55,8.10,0.59
40.19,0.37,8.22,0.75
40.19,0.23,8.33,0.89
40.20,-0.02,8.52,1.05
40.20,-0.39,8.72,1.18
40.20,-0.71,8.98,1.32
40.20,-0.94,9.31,1.39
40.21,-1.05,9.68,1.53
40.21,-1.18,10.11,1.57
40.21,-1.28,10.52,1.61
40.21,-1.44,11.00,1.62
40.21,-1.69,11.47,1.61
40.22,-1.98,11.94,1.54
40.22,-2.31,12.55,1.46
40.22,-2.57,13.26,1.27
40.22,-2.70,13.98,1.08
40.23,-2.72,14.71,0.94
40.23,-2.66,15.35,0.81
40.23,-2.61,15.98,0.65
40.23,-2.62,16.55,0.47
40.24,-2.63,17.08,0.28
40.24,-2.68,17.58,0.11
40.24,-2.75,18.05,0.02
40.24,-2.90,18.43,-0.08
40.25,-3.13,18.79,-0.24
40.25,-3.47,19.04,-0.45
40.25,-3.84,19.24,-0.64
40.25,-4.16,19.38,-0.88
40.26,-4.52,19.45,-1.16
40.26,-4.94,19.45,-1.52
40.26,-5.30,19.37,-1.88
40.26,-5.67,19.19,-2.40
40.26,-6.03,18.93,-3.04
40.27,-6.36,18.65,-3.71
40.27,-6.53,18.31,-4.21
40.27,-6.61,17.89,-4.50
40.27,-6.53,17.37,-4.70
40.28,-6.42,16.80,-4.63
40.28,-6.34,16.29,-4.39
40.28,-6.29,15.72,-4.12
40.28,-6.30,15.15,-3.81
40.29,-6.35,14.53,-3.49
40.29,-6.47,13.96,-3.16
40.29,-6.61,13.32,-2.80
40.29,-6.72,12.71,-2.43
40.30,-6.82,12.16,-2.00
40.30,-7.07,11.73,-1.53
40.30,-7.02,11.24,-1.10
40.30,-6.81,10.75,-0.50
40.31,-6.78,10.39,0.10
40.31,-6.70,10.05,0.73
40.31,-6.52,9.69,1.37
40.31,-6.36,9.32,1.97
40.31,-6.24,8.99,2.53
40.32,-6.13,8.65,3.07
40.32,-6.08,8.26,3.54
40.32,-6.05,7.86,4.00
40.32,-6.04,7.41,4.43
40.33,-6.04,6.94,4.79
40.33,-6.04,6.46,5.15
40.33,-5.97,6.03,5.55
40.33,-5.76,5.60,5.93
40.34,-5.55,5.09,6.16
40.34,-5.27,4.69,6.12
40.34,-4.90,4.44,6.09
40.34,-4.44,4.24,5.98
40.35,-3.94,4.03,5.66
40.35,-3.38,3.85,5.05
40.35,-2.74,3.76,4.28
40.35,-2.12,3.81,3.54
40.35,-1.57,3.94,2.82
40.36,-1.19,4.14,2.19
40.36,-0.94,4.31,1.70
40.36,-0.77,4.54,1.44
40.36,-0.73,4.77,1.31
40.37,-0.57,4.91,1.21
40.37,-0.44,5.18,1.31
40.37,-0.41,5.51,1.60
40.37,-0.47,5.84,1.87
40.38,-0.44,6.28,2.11
40.38,-0.29,6.60,2.42
40.38,-0.03,6.75,2.76
40.38,0.23,6.93,2.96
40.39,0.47,7.19,2.96
40.39,0.69,7.50,2.92
40.39,0.91,7.74,2.80
40.39,1.13,8.01,2.67
40.40,1.33,8.28,2.47
40.40,1.56,8.53,2.28
40.40,1.69,8.80,1.95
40.40,1.75,9.03,1.57
40.40,1.78,9.11,1.23
40.41,1.64,9.18,1.04
40.41,1.35,9.25,0.75
40.41,0.97,9.30,0.39
40.41,0.59,9.30,0.08
40.42,0.13,9.29,-0.19
40.42,-0.32,9.26,-0.40
40.42,-0.71,9.27,-0.40
40.42,-1.13,9.23,-0.49
40.43,-1.48,9.22,-0.66
40.43,-1.76,9.21,-0.74
40.43,-1.97,9.21,-0.78
40.43,-2.25,9.17,-0.88
40.44,-2.41,9.14,-0.91
40.44,-2.61,9.22,-0.83
40.44,-2.74,9.34,-0.70
40.44,-2.87,9.49,-0.59
40.45,-3.03,9.63,-0.42
40.45,-3.23,9.76,-0.22
40.45,-3.46,9.88,-0.03
40.45,-3.65,10.05,0.12
40.45,-3.76,10.13,0.31
40.46,-3.86,10.23,0.57
40.46,-3.98,10.29,0.80
40.46,-4.09,10.33,0.99
40.46,-4.09,10.37,1.21
40.47,-4.09,10.40,1.35
40.47,-4.14,10.45,1.54
40.47,-4.17,10.45,1.63
40.47,-4.17,10.44,1.76
40.48,-4.14,10.45,1.93
40.48,-4.10,10.38,2.09
40.48,-4.07,10.34,2.22
40.48,-4.09,10.25,2.28
40.49,-3.93,10.15,2.46
40.49,-3.65,10.07,2.77
40.49,-3.45,10.04,3.06
40.49,-3.38,10.00,3.23
40.50,-3.24,9.97,3.37
40.50,-3.11,9.89,3.45
40.50,-2.95,9.86,3.46
40.50,-2.78,9.81,3.45
40.50,-2.61,9.76,3.42
40.51,-2.43,9.70,3.38
40.51,-2.26,9.65,3.34
40.51,-2.11,9.58,3.32
40.51,-2.19,9.42,3.18
40.52,-2.25,9.18,2.81
40.52,-1.96,9.19,2.78
40.52,-1.68,9.16,2.83
40.52,-1.47,9.12,2.93
40.53,-1.34,9.06,3.09
40.53,-1.27,8.98,3.25
40.53,-1.25,8.91,3.44
40.53,-1.27,8.84,3.59
40.54,-1.30,8.76,3.80
40.54,-1.33,8.76,3.92
40.54,-1.42,8.70,4.07
40.54,-1.54,8.68,4.17
40.54,-1.67,8.70,4.25
40.55,-1.83,8.70,4.32
40.55,-2.01,8.65,4.31
40.55,-2.23,8.65,4.30
40.55,-2.41,8.65,4.25
40.56,-2.55,8.66,4.20
40.56,-2.69,8.68,4.10
40.56,-2.83,8.74,4.04
40.56,-2.94,8.78,3.93
40.57,-3.07,8.81,3.87
40.57,-3.21,8.84,3.78
40.57,-3.36,8.85,3.67
40.57,-3.50,8.83,3.60
40.58,-3.64,8.81,3.55
40.58,-4.15,8.64,3.29
40.58,-4.18,8.57,3.09
40.58,-4.12,8.70,3.05
40.59,-4.10,8.76,3.06
40.59,-4.10,8.77,3.08
40.59,-4.10,8.75,3.09
40.59,-4.05,8.73,3.08
40.59,-3.98,8.71,3.08
40.60,-3.95,8.68,3.01
40.60,-3.88,8.64,2.93
40.60,-3.85,8.58,2.86
40.60,-3.87,8.53,2.77
40.61,-3.94,8.43,2.68
40.61,-3.95,8.36,2.56
40.61,-3.95,8.25,2.45
40.61,-3.93,8.18,2.37
40.62,-3.87,8.09,2.35
40.62,-3.81,8.02,2.33
40.62,-3.79,7.98,2.37
40.62,-3.76,7.88,2.44
40.63,-3.71,7.81,2.48
40.63,-3.69,7.72,2.57
40.63,-3.67,7.65,2.65
40.63,-3.65,7.55,2.70
40.64,-3.60,7.49,2.80
40.64,-3.57,7.44,2.86
40.64,-3.52,7.35,2.98
40.64,-3.47,7.28,3.08
40.64,-3.43,7.21,3.19
40.65,-3.38,7.15,3.25
40.65,-3.37,7.12,3.36
40.65,-3.31,7.02,3.45
40.65,-3.25,6.98,3.51
40.66,-3.22,6.89,3.56
40.66,-3.18,6.85,3.62
40.66,-3.14,6.80,3.63
40.66,-3.10,6.76,3.63
40.67,-3.10,6.72,3.65
40.67,-3.13,6.69,3.61
40.67,-3.11,6.67,3.60
40.67,-3.10,6.70,3.51
40.68,-3.10,6.71,3.47
40.68,-3.11,6.69,3.38
40.68,-3.13,6.68,3.34
40.68,-3.20,6.73,3.31
40.69,-3.26,6.77,3.27
40.69,-3.28,6.76,3.23
40.69,-3.30,6.80,3.20
40.69,-3.32,6.84,3.18
40.69,-3.31,6.86,3.14
40.70,-3.31,6.92,3.10
40.70,-3.36,6.92,3.08
40.70,-3.39,6.97,3.09
40.70,-3.40,6.99,3.06
40.71,-3.45,6.99,3.05
40.71,-3.46,7.00,2.99
40.71,-3.48,7.08,2.97
40.71,-3.48,7.11,2.95
40.72,-3.48,7.17,2.94
40.72,-3.50,7.25,2.99
40.72,-3.50,7.37,2.96
40.72,-3.50,7.46,2.98
40.73,-3.50,7.60,2.97
40.73,-3.48,7.76,2.98
40.73,-3.51,7.89,3.00
40.73,-3.47,8.05,3.00
40.74,-3.47,8.25,3.07
40.74,-3.49,8.40,3.09
40.74,-3.51,8.59,3.15
40.74,-3.52,8.75,3.19
40.74,-3.55,8.91,3.25
40.75,-3.59,9.05,3.33
40.75,-3.64,9.18,3.40
40.75,-3.69,9.31,3.46
40.75,-3.77,9.41,3.52
40.76,-3.86,9.47,3.54
40.76,-3.96,9.50,3.51
40.76,-4.04,9.52,3.47
40.76,-4.16,9.60,3.42
40.77,-4.25,9.63,3.29
40.77,-4.31,9.65,3.12
40.77,-4.38,9.68,2.93
40.77,-4.42,9.72,2.73
40.78,-4.49,9.74,2.50
40.78,-4.54,9.76,2.31
40.78,-4.59,9.76,2.17
40.78,-4.66,9.78,2.07
40.78,-4.70,9.75,2.03
40.79,-4.78,9.74,2.05
40.79,-4.93,9.69,2.22
40.79,-5.07,9.64,2.46
40.79,-5.23,9.61,2.76
40.80,-5.38,9.60,3.06
40.80,-5.51,9.62,3.38
40.80,-5.64,9.64,3.70
40.80,-5.74,9.69,3.97
40.81,-5.79,9.80,4.24
40.81,-5.85,9.95,4.51
40.81,-5.91,10.14,4.77
40.81,-5.98,10.37,4.98
40.82,-6.06,10.55,5.17
40.82,-6.15,10.76,5.27
40.82,-6.20,11.09,5.36
40.82,-6.24,11.38,5.44
40.83,-6.27,11.72,5.42
40.83,-6.31,12.04,5.32
40.83,-6.33,12.40,5.14
40.83,-6.37,12.78,4.88
40.83,-6.33,13.17,4.57
40.84,-6.27,13.58,4.18
40.84,-6.18,14.04,3.77
40.84,-6.04,14.49,3.33
40.84,-5.84,14.95,2.87
40.85,-5.60,15.48,2.40
40.85,-5.29,16.00,1.91
40.85,-4.93,16.54,1.49
40.85,-4.55,17.12,1.04
40.86,-4.09,17.69,0.63
40.86,-3.61,18.26,0.31
40.86,-3.24,18.78,0.04
40.86,-2.94,19.29,-0.10
40.87,-2.72,19.77,-0.15
40.87,-2.55,20.17,-0.10
40.87,-2.38,20.39,-0.02
40.87,-2.34,20.34,-0.01
40.88,-2.44,20.11,0.18
40.88,-2.41,19.78,0.31
40.88,-2.21,19.36,0.39
40.88,-2.00,18.81,0.50
40.88,-1.87,18.12,0.80
40.89,-1.82,17.38,1.08
40.89,-1.65,16.54,1.24
40.89,-1.45,15.69,1.47
40.89,-1.13,14.93,1.73
40.90,-0.78,14.24,1.96
40.90,-0.54,13.47,2.18
40.90,-0.38,12.70,2.45
40.90,-0.28,11.89,2.66
40.91,-0.28,11.08,2.73
40.91,-0.37,10.28,2.62
40.91,-0.52,9.54,2.42
40.91,-0.74,8.89,2.18
40.92,-0.98,8.25,1.90
40.92,-1.22,7.77,1.56
40.92,-1.48,7.31,1.15
40.92,-1.76,6.85,0.61
40.93,-2.04,6.47,0.03
40.93,-2.30,6.08,-0.34
40.93,-2.54,5.71,-0.59
40.93,-2.76,5.38,-0.81
40.93,-2.90,5.08,-0.96
40.94,-3.00,4.83,-1.05
40.94,-3.08,4.61,-1.15
40.94,-3.18,4.41,-1.25
40.94,-3.21,4.29,-1.39
40.95,-3.25,4.18,-1.56
40.95,-3.15,4.06,-1.65
40.95,-2.84,3.95,-1.64
40.95,-2.56,3.86,-1.60
40.96,-2.27,3.81,-1.58
40.96,-2.03,3.82,-1.55
40.96,-1.77,3.88,-1.49
40.96,-1.60,3.93,-1.44
40.97,-1.50,4.11,-1.49
40.97,-1.39,4.27,-1.38
40.97,-1.35,4.42,-1.29
40.97,-1.31,4.58,-1.23
40.98,-1.23,4.84,-0.88
40.98,-1.25,5.19,-0.93
40.98,-1.19,5.56,-0.94
40.98,-1.11,6.04,-0.88
40.98,-0.99,6.57,-0.87
40.99,-0.76,7.09,-0.88
40.99,-0.52,7.59,-0.83
40.99,-0.32,8.12,-0.86
40.99,-0.14,8.59,-0.81
41.00,0.02,9.07,-0.77
41.00,0.27,9.55,-0.70
41.00,0.49,10.13,-0.63
41.00,0.66,10.66,-0.55
41.01,0.74,11.21,-0.48
41.01,0.81,11.74,-0.43
41.01,0.94,12.26,-0.41
41.01,1.02,12.69,-0.39
41.02,0.98,13.02,-0.26
41.02,0.99,13.26,-0.12
41.02,1.05,13.48,0.01
41.02,1.05,13.72,0.12
41.02,1.03,13.85,0.25
41.03,1.08,13.87,0.47
41.03,1.21,13.89,0.71
41.03,1.34,13.74,0.89
41.03,1.52,13.54,1.12
41.04,1.67,13.24,1.40
41.04,1.73,12.95,1.67
41.04,1.71,12.51,1.92
41.04,1.62,12.04,2.17
41.05,1.55,11.63,2.43
41.05,1.50,11.25,2.68
41.05,1.33,10.88,2.80
41.05,1.17,10.45,2.91
41.06,1.00,9.98,2.99
41.06,0.70,9.47,3.06
41.06,0.32,8.99,3.08
41.06,-0.20,8.53,3.03
41.07,-0.72,8.16,2.87
41.07,-1.18,7.90,2.68
41.07,-1.58,7.68,2.52
41.07,-2.00,7.50,2.37
41.07,-2.45,7.42,2.19
41.08,-2.76,7.33,1.94
41.08,-2.88,7.27,1.78
41.08,-2.88,7.22,1.73
41.08,-2.83,7.25,1.73
41.09,-2.78,7.26,1.78
41.09,-2.76,7.31,1.90
41.09,-2.77,7.35,2.06
41.09,-2.78,7.39,2.19
41.10,-2.79,7.46,2.33
41.10,-2.76,7.57,2.49
41.10,-2.87,7.76,2.58
41.10,-2.92,7.98,2.69
41.11,-2.93,8.04,2.83
41.11,-2.91,8.21,2.95
41.11,-2.85,8.41,3.00
41.11,-2.86,8.62,3.03
41.12,-2.81,8.78,3.00
41.12,-2.84,8.97,2.93
41.12,-2.80,9.14,2.81
41.12,-2.74,9.31,2.64
41.12,-2.64,9.47,2.51
41.13,-2.57,9.66,2.37
41.13,-2.61,9.75,2.20
41.13,-2.46,9.89,2.07
41.13,-2.39,9.99,1.91
41.14,-2.27,10.05,1.78
41.14,-2.19,10.16,1.67
41.14,-2.14,10.22,1.56
41.14,-2.13,10.25,1.50
41.15,-2.12,10.31,1.37
41.15,-2.15,10.29,1.24
41.15,-2.15,10.33,1.14
41.15,-2.21,10.31,1.01
41.16,-2.33,10.27,0.90
41.16,-2.42,10.26,0.81
41.16,-2.52,10.23,0.74
41.16,-2.68,10.16,0.71
41.17,-2.84,10.11,0.70
41.17,-2.99,10.04,0.69
41.17,-3.18,9.96,0.70
41.17,-3.33,9.89,0.74
41.17,-3.50,9.81,0.80
41.18,-3.64,9.76,0.85
41.18,-3.77,9.67,0.92
41.18,-3.82,9.62,0.96
41.18,-3.89,9.54,1.04
41.19,-3.89,9.48,1.15
41.19,-3.88,9.38,1.24
41.19,-3.84,9.33,1.38
41.19,-3.76,9.27,1.48
41.20,-3.66,9.22,1.61
41.20,-3.53,9.19,1.76
41.20,-3.38,9.18,1.90
41.20,-3.22,9.14,2.01
41.21,-3.08,9.09,2.15
41.21,-2.96,9.06,2.25
41.21,-2.84,9.06,2.34
41.21,-2.71,9.04,2.45
41.21,-2.63,9.03,2.51
41.22,-2.59,9.01,2.55
41.22,-2.52,8.95,2.57
41.22,-2.47,8.94,2.58
41.22,-2.43,8.98,2.57
41.23,-2.38,8.95,2.54
41.23,-2.33,8.95,2.49
41.23,-2.25,8.98,2.44
41.23,-2.20,8.95,2.37
41.24,-2.19,8.92,2.33
41.24,-2.16,8.89,2.23
41.24,-2.16,8.89,2.14
41.24,-2.15,8.88,2.05
41.25,-2.12,8.87,1.98
41.25,-2.12,8.89,1.89
41.25,-2.12,8.94,1.79
41.25,-2.16,8.93,1.71
41.26,-2.16,8.97,1.61
41.26,-2.18,8.97,1.52
41.26,-2.22,8.99,1.40
41.26,-2.27,9.00,1.32
41.26,-2.29,9.04,1.26
41.27,-2.31,9.09,1.18
41.27,-2.35,9.10,1.16
41.27,-2.34,9.12,1.12
41.27,-2.35,9.17,1.11
41.28,-2.33,9.18,1.09
41.28,-2.30,9.22,1.04
41.28,-2.30,9.24,1.04
41.28,-2.28,9.26,1.04
41.29,-2.26,9.27,1.01
41.29,-2.20,9.29,0.99
41.29,-2.15,9.31,1.00
41.29,-2.10,9.30,1.00
41.30,-2.06,9.35,1.04
