"Time (s)","Acceleration x (m/s^2)","Acceleration y (m/s^2)","Acceleration z (m/s^2)"
4.254684590E-1,4.403071404E0,-8.933039665E0,-5.243461728E-1
4.274684590E-1,4.403071404E0,-8.933039665E0,-5.243461728E-1
4.294684590E-1,4.403071404E0,-8.933039665E0,-5.243461728E-1
4.314684590E-1,4.403071404E0,-8.933039665E0,-5.243461728E-1
4.334679590E-1,4.462928295E0,-8.782199860E0,-4.453351200E-1
4.354675590E-1,4.455745220E0,-8.791776657E0,-4.501236677E-1
4.374672250E-1,4.460534096E0,-8.786988258E0,-4.525179267E-1
4.394669390E-1,4.474899769E0,-8.803748131E0,-4.477293789E-1
4.414666890E-1,4.486870766E0,-8.806142807E0,-4.477293789E-1
4.434664660E-1,4.489265442E0,-8.803748131E0,-4.644893110E-1
4.454662660E-1,4.484476566E0,-8.794171333E0,-4.549122155E-1
4.474660840E-1,4.494053841E0,-8.784594536E0,-4.573064744E-1
4.494657500E-1,4.498842239E0,-8.784594536E0,-4.644893110E-1
4.514654420E-1,4.501236439E0,-8.784594536E0,-4.573064744E-1
4.534651560E-1,4.506025314E0,-8.782199860E0,-4.549122155E-1
4.554648890E-1,4.498842239E0,-8.779806137E0,-4.597007632E-1
4.574646390E-1,4.484476566E0,-8.763046265E0,-4.620950520E-1
4.594644030E-1,4.489265442E0,-8.758256912E0,-4.692778587E-1
4.614641800E-1,4.489265442E0,-8.760651588E0,-4.908263385E-1
4.634639690E-1,4.482082367E0,-8.755863190E0,-4.812492430E-1
4.654636690E-1,4.477293968E0,-8.763046265E0,-4.812492430E-1
4.674633830E-1,4.489265442E0,-8.760651588E0,-4.716721475E-1
4.694631100E-1,4.470110893E0,-8.770228386E0,-4.932205975E-1
4.714628490E-1,4.470110893E0,-8.775016785E0,-5.004034638E-1
4.734625990E-1,4.494053841E0,-8.775016785E0,-4.860377908E-1
4.754623590E-1,4.494053841E0,-8.777411461E0,-4.692778587E-1
4.774621280E-1,4.494053841E0,-8.775016785E0,-4.740664065E-1
4.794618310E-1,4.472505569E0,-8.779806137E0,-4.788549542E-1
4.814615450E-1,4.472505569E0,-8.789382935E0,-4.812492430E-1
4.834612690E-1,4.470110893E0,-8.796566010E0,-4.788549542E-1
4.854610020E-1,4.470110893E0,-8.789382935E0,-4.597007632E-1
4.874607350E-1,4.455745220E0,-8.815719604E0,-4.620950520E-1
4.894604680E-1,4.453351021E0,-8.827691078E0,-4.620950520E-1
4.914602010E-1,4.438985348E0,-8.839662552E0,-4.597007632E-1
4.934600010E-1,4.434196949E0,-8.846845627E0,-4.597007632E-1
4.954597340E-1,4.441379547E0,-8.830085754E0,-4.692778587E-1
4.974594670E-1,4.443774223E0,-8.832479477E0,-4.716721475E-1
4.994592000E-1,4.436591148E0,-8.839662552E0,-4.597007632E-1
5.014589330E-1,4.422225475E0,-8.851634026E0,-4.644893110E-1
5.034586660E-1,4.436591148E0,-8.868393898E0,-4.956148863E-1
5.054583990E-1,4.436591148E0,-8.870788574E0,-5.004034638E-1
5.074581320E-1,4.436591148E0,-8.894730568E0,-4.716721475E-1
5.094579320E-1,4.419831276E0,-8.887548447E0,-4.525179267E-1
5.114576650E-1,4.412648678E0,-8.870788574E0,-4.525179267E-1
5.134573980E-1,4.407859802E0,-8.877970695E0,-4.453351200E-1
5.154571310E-1,4.395888329E0,-8.892336845E0,-4.501236677E-1
5.174568640E-1,4.400677204E0,-8.882759094E0,-4.429408312E-1
5.194565970E-1,4.412648678E0,-8.849239349E0,-4.429408312E-1
5.214563300E-1,4.403071404E0,-8.851634026E0,-4.525179267E-1
5.234560630E-1,4.405465603E0,-8.849239349E0,-4.549122155E-1
5.254558630E-1,4.393494129E0,-8.837267876E0,-4.668835998E-1
5.274556290E-1,4.398283005E0,-8.858817101E0,-4.692778587E-1
5.294553950E-1,4.405465603E0,-8.856422424E0,-4.692778587E-1
5.314551610E-1,4.415042877E0,-8.863605499E0,-4.597007632E-1
5.334549270E-1,4.405465603E0,-8.868393898E0,-4.573064744E-1
5.354547270E-1,4.383917332E0,-8.880365372E0,-4.549122155E-1
5.374544930E-1,4.379128456E0,-8.889942169E0,-4.692778587E-1
5.394543260E-1,4.383917332E0,-8.897125244E0,-4.764606953E-1
5.414541590E-1,4.381523132E0,-8.897125244E0,-4.692778587E-1
5.434539250E-1,4.376734257E0,-8.909096718E0,-4.573064744E-1
5.454536910E-1,4.379128456E0,-8.911490440E0,-4.549122155E-1
5.474534570E-1,4.374340057E0,-8.889942169E0,-4.668835998E-1
5.494532230E-1,4.379128456E0,-8.894730568E0,-4.716721475E-1
5.514529890E-1,4.369551659E0,-8.904308319E0,-4.812492430E-1
5.534527550E-1,4.374340057E0,-8.913885117E0,-4.812492430E-1
5.554525880E-1,4.371945858E0,-8.909096718E0,-4.836435020E-1
5.574524210E-1,4.359974384E0,-8.909096718E0,-4.884320498E-1
5.594521870E-1,4.350397110E0,-8.899519920E0,-4.716721475E-1
5.614519530E-1,4.357580185E0,-8.911490440E0,-4.549122155E-1
5.634517190E-1,4.350397110E0,-8.906702042E0,-4.453351200E-1
5.654514850E-1,4.352791786E0,-8.916279793E0,-4.716721475E-1
5.674512510E-1,4.350397110E0,-8.937828064E0,-4.788549542E-1
5.694510170E-1,4.367157459E0,-8.947404861E0,-4.788549542E-1
5.714508500E-1,4.386311531E0,-8.942616463E0,-4.692778587E-1
5.734506160E-1,4.386311531E0,-8.928250313E0,-4.740664065E-1
5.754503820E-1,4.381523132E0,-8.921068192E0,-4.716721475E-1
5.774501480E-1,4.381523132E0,-8.918673515E0,-4.668835998E-1
5.794499140E-1,4.369551659E0,-8.918673515E0,-4.716721475E-1
5.814496800E-1,4.376734257E0,-8.911490440E0,-4.812492430E-1
5.834494460E-1,4.364762783E0,-8.909096718E0,-4.836435020E-1
5.854492120E-1,4.388705730E0,-8.906702042E0,-4.788549542E-1
5.874490120E-1,4.395888329E0,-8.897125244E0,-4.525179267E-1
5.894487450E-1,4.383917332E0,-8.904308319E0,-4.573064744E-1
5.914484780E-1,4.381523132E0,-8.901913643E0,-4.573064744E-1
5.934482110E-1,4.395888329E0,-8.887548447E0,-4.501236677E-1
5.954479110E-1,4.388705730E0,-8.880365372E0,-4.525179267E-1
5.974476440E-1,4.388705730E0,-8.882759094E0,-4.573064744E-1
5.994473770E-1,4.398283005E0,-8.894730568E0,-4.525179267E-1
6.014471100E-1,4.400677204E0,-8.875576973E0,-4.381522834E-1
6.034469100E-1,4.391099930E0,-8.875576973E0,-4.429408312E-1
6.054466430E-1,4.379128456E0,-8.873182297E0,-4.477293789E-1
6.074463760E-1,4.376734257E0,-8.851634026E0,-4.620950520E-1
6.094461090E-1,4.369551659E0,-8.837267876E0,-4.716721475E-1
6.114458420E-1,4.371945858E0,-8.842057228E0,-4.716721475E-1
6.134455750E-1,4.374340057E0,-8.849239349E0,-4.453351200E-1
6.154453080E-1,4.371945858E0,-8.844450951E0,-4.429408312E-1
6.174450410E-1,4.376734257E0,-8.851634026E0,-4.549122155E-1
6.194448410E-1,4.371945858E0,-8.854028702E0,-4.620950520E-1
6.214445740E-1,4.355185986E0,-8.849239349E0,-4.453351200E-1
6.234443070E-1,4.343214512E0,-8.846845627E0,-4.549122155E-1
6.254440400E-1,4.336031914E0,-8.856422424E0,-4.501236677E-1
6.274437730E-1,4.333637238E0,-8.873182297E0,-4.573064744E-1
6.294435060E-1,4.350397110E0,-8.861210823E0,-4.668835998E-1
6.314432390E-1,4.345608711E0,-8.851634026E0,-4.668835998E-1
6.334430390E-1,4.290540695E0,-8.842057228E0,-4.405465722E-1
6.354428390E-1,4.290540695E0,-8.849239349E0,-4.285751879E-1
6.374425720E-1,4.309694767E0,-8.844450951E0,-4.309694767E-1
6.394423050E-1,4.333637238E0,-8.851634026E0,-4.453351200E-1
6.414420380E-1,4.362368584E0,-8.882759094E0,-4.668835998E-1
6.434417710E-1,4.374340057E0,-8.889942169E0,-4.764606953E-1
6.454415040E-1,4.369551659E0,-8.877970695E0,-4.908263385E-1
6.474412370E-1,4.374340057E0,-8.865999222E0,-4.836435020E-1
6.494410370E-1,4.371945858E0,-8.851634026E0,-4.860377908E-1
6.514407700E-1,4.376734257E0,-8.849239349E0,-4.956148863E-1
6.534405030E-1,4.395888329E0,-8.839662552E0,-5.004034638E-1
6.554402360E-1,4.405465603E0,-8.839662552E0,-5.051919818E-1
6.574399690E-1,4.393494129E0,-8.844450951E0,-5.123748183E-1
6.594397020E-1,4.374340057E0,-8.842057228E0,-5.004034638E-1
6.614394350E-1,4.381523132E0,-8.844450951E0,-4.980091453E-1
6.634391680E-1,4.381523132E0,-8.844450951E0,-4.932205975E-1
6.654389680E-1,4.381523132E0,-8.849239349E0,-4.908263385E-1
6.674387010E-1,4.374340057E0,-8.858817101E0,-5.051919818E-1
6.694385340E-1,4.381523132E0,-8.861210823E0,-5.004034638E-1
6.714382670E-1,4.388705730E0,-8.861210823E0,-4.908263385E-1
6.734380000E-1,4.386311531E0,-8.851634026E0,-4.788549542E-1
6.754377330E-1,4.386311531E0,-8.863605499E0,-4.956148863E-1
6.774374660E-1,4.383917332E0,-8.863605499E0,-4.908263385E-1
6.794371990E-1,4.398283005E0,-8.873182297E0,-4.788549542E-1
6.814369990E-1,4.391099930E0,-8.870788574E0,-4.668835998E-1
6.834367320E-1,4.386311531E0,-8.873182297E0,-4.644893110E-1
6.854364650E-1,4.398283005E0,-8.863605499E0,-4.644893110E-1
6.874361980E-1,4.395888329E0,-8.873182297E0,-4.716721475E-1
6.894359310E-1,4.400677204E0,-8.877970695E0,-4.740664065E-1
6.914356640E-1,4.412648678E0,-8.865999222E0,-4.573064744E-1
6.934353970E-1,4.412648678E0,-8.873182297E0,-4.549122155E-1
6.954351300E-1,4.407859802E0,-8.873182297E0,-4.429408312E-1
6.974349300E-1,4.398283005E0,-8.880365372E0,-4.477293789E-1
6.994346630E-1,4.393494129E0,-8.875576973E0,-4.213923812E-1
7.014343960E-1,4.391099930E0,-8.868393898E0,-4.213923812E-1
7.034341290E-1,4.388705730E0,-8.882759094E0,-4.261809289E-1
7.054338620E-1,4.388705730E0,-8.894730568E0,-4.237866402E-1
7.074335950E-1,4.388705730E0,-8.889942169E0,-4.285751879E-1
7.094333280E-1,4.371945858E0,-8.892336845E0,-4.381522834E-1
7.114331280E-1,4.369551659E0,-8.901913643E0,-4.477293789E-1
7.134329280E-1,4.374340057E0,-8.892336845E0,-4.333637357E-1
7.154326610E-1,4.379128456E0,-8.897125244E0,-4.357580245E-1
7.174323940E-1,4.379128456E0,-8.909096718E0,-4.357580245E-1
7.194321270E-1,4.369551659E0,-8.906702042E0,-4.477293789E-1
7.214318600E-1,4.374340057E0,-8.892336845E0,-4.381522834E-1
7.234315930E-1,4.379128456E0,-8.894730568E0,-4.381522834E-1
7.254313260E-1,4.388705730E0,-8.901913643E0,-4.333637357E-1
7.274311260E-1,4.383917332E0,-8.870788574E0,-4.309694767E-1
7.294307590E-1,4.383917332E0,-8.870788574E0,-4.309694767E-1
7.314304920E-1,4.381523132E0,-8.877970695E0,-4.501236677E-1
7.334302250E-1,4.391099930E0,-8.904308319E0,-4.453351200E-1
7.354299580E-1,4.393494129E0,-8.904308319E0,-4.429408312E-1
7.374296910E-1,4.391099930E0,-8.899519920E0,-4.333637357E-1
7.394294240E-1,4.386311531E0,-8.897125244E0,-4.429408312E-1
7.414291570E-1,4.388705730E0,-8.901913643E0,-4.477293789E-1
7.434289570E-1,4.395888329E0,-8.897125244E0,-4.333637357E-1
7.454286900E-1,4.412648678E0,-8.873182297E0,-4.357580245E-1
7.474284230E-1,4.410254002E0,-8.868393898E0,-4.309694767E-1
7.494281560E-1,4.388705730E0,-8.870788574E0,-4.237866402E-1
7.514278890E-1,4.391099930E0,-8.863605499E0,-4.309694767E-1
7.534276220E-1,4.388705730E0,-8.863605499E0,-4.333637357E-1
7.554273550E-1,4.395888329E0,-8.885153770E0,-4.261809289E-1
7.574270880E-1,4.398283005E0,-8.887548447E0,-4.285751879E-1
7.594268880E-1,4.395888329E0,-8.863605499E0,-4.333637357E-1
7.614266210E-1,4.395888329E0,-8.870788574E0,-4.309694767E-1
7.634263540E-1,4.393494129E0,-8.865999222E0,-4.309694767E-1
7.654260870E-1,4.393494129E0,-8.877970695E0,-4.261809289E-1
7.674258200E-1,4.383917332E0,-8.868393898E0,-4.261809289E-1
7.694255530E-1,4.381523132E0,-8.858817101E0,-4.309694767E-1
7.714252860E-1,4.379128456E0,-8.854028702E0,-4.381522834E-1
7.734250190E-1,4.359974384E0,-8.856422424E0,-4.525179267E-1
7.754248190E-1,4.364762783E0,-8.849239349E0,-4.453351200E-1
7.774245520E-1,4.357580185E0,-8.839662552E0,-4.405465722E-1
7.794242850E-1,4.343214512E0,-8.846845627E0,-4.453351200E-1
7.814240180E-1,4.340820312E0,-8.842057228E0,-4.477293789E-1
7.834237510E-1,4.345608711E0,-8.839662552E0,-4.405465722E-1
7.854234840E-1,4.340820312E0,-8.830085754E0,-4.261809289E-1
7.874232170E-1,4.352791786E0,-8.815719604E0,-4.285751879E-1
7.894230170E-1,4.343214512E0,-8.815719604E0,-4.261809289E-1
7.914228170E-1,4.345608711E0,-8.827691078E0,-4.309694767E-1
7.934225500E-1,4.343214512E0,-8.834874153E0,-4.357580245E-1
7.954222830E-1,4.336031914E0,-8.832479477E0,-4.429408312E-1
7.974220160E-1,4.338426113E0,-8.830085754E0,-4.573064744E-1
7.994217490E-1,4.340820312E0,-8.818114281E0,-4.644893110E-1
8.014214820E-1,4.352791786E0,-8.834874153E0,-4.716721475E-1
8.034212150E-1,4.364762783E0,-8.849239349E0,-4.716721475E-1
8.054210150E-1,4.362368584E0,-8.844450951E0,-4.692778587E-1
8.074208150E-1,4.340820312E0,-8.842057228E0,-4.549122155E-1
8.094205480E-1,4.343214512E0,-8.839662552E0,-4.549122155E-1
8.114202810E-1,4.338426113E0,-8.851634026E0,-4.668835998E-1
8.134200140E-1,4.357580185E0,-8.856422424E0,-4.788549542E-1
8.154197470E-1,4.357580185E0,-8.863605499E0,-4.788549542E-1
8.174194800E-1,4.362368584E0,-8.870788574E0,-4.668835998E-1
8.194192130E-1,4.374340057E0,-8.870788574E0,-4.668835998E-1
8.214190130E-1,4.383917332E0,-8.875576973E0,-4.644893110E-1
8.234187460E-1,4.386311531E0,-8.868393898E0,-4.597007632E-1
8.254184790E-1,4.393494129E0,-8.877970695E0,-4.668835998E-1
8.274182120E-1,4.398283005E0,-8.877970695E0,-4.692778587E-1
8.294179450E-1,4.395888329E0,-8.882759094E0,-4.668835998E-1
8.314176780E-1,4.391099930E0,-8.901913643E0,-4.668835998E-1
8.334174110E-1,4.407859802E0,-8.904308319E0,-4.764606953E-1
8.354171440E-1,4.419831276E0,-8.899519920E0,-4.668835998E-1
8.374169440E-1,4.407859802E0,-8.899519920E0,-4.812492430E-1
8.394166770E-1,4.400677204E0,-8.906702042E0,-4.812492430E-1
8.414164100E-1,4.391099930E0,-8.918673515E0,-4.788549542E-1
8.434161430E-1,4.395888329E0,-8.911490440E0,-4.764606953E-1
8.454158760E-1,4.393494129E0,-8.897125244E0,-4.788549542E-1
8.474156090E-1,4.386311531E0,-8.916279793E0,-4.980091453E-1
8.494153420E-1,4.386311531E0,-8.916279793E0,-4.980091453E-1
8.514150750E-1,4.369551659E0,-8.899519920E0,-5.075862408E-1
8.534148750E-1,4.371945858E0,-8.885153770E0,-5.219519138E-1
8.554146080E-1,4.367157459E0,-8.885153770E0,-5.243461728E-1
8.574143410E-1,4.369551659E0,-8.894730568E0,-5.267404318E-1
8.594140740E-1,4.367157459E0,-8.897125244E0,-5.315290093E-1
8.614138070E-1,4.359974384E0,-8.899519920E0,-5.315290093E-1
8.634135400E-1,4.336031914E0,-8.918673515E0,-5.339232683E-1
8.654132730E-1,4.338426113E0,-8.916279793E0,-5.339232683E-1
8.674130060E-1,4.343214512E0,-8.911490440E0,-5.291347504E-1
8.694128060E-1,4.364762783E0,-8.909096718E0,-5.435003638E-1
8.714125390E-1,4.340820312E0,-8.906702042E0,-5.482889414E-1
8.734122720E-1,4.326454639E0,-8.897125244E0,-5.482889414E-1
8.754120050E-1,4.300117493E0,-8.901913643E0,-5.387118459E-1
8.774117380E-1,4.307300568E0,-8.892336845E0,-5.387118459E-1
8.794114710E-1,4.312088966E0,-8.892336845E0,-5.243461728E-1
8.814112040E-1,4.324060440E0,-8.894730568E0,-5.099805593E-1
8.834110040E-1,4.336031914E0,-8.889942169E0,-5.267404318E-1
8.854108040E-1,4.333637238E0,-8.885153770E0,-5.339232683E-1
8.874105370E-1,4.326454639E0,-8.882759094E0,-5.315290093E-1
8.894102700E-1,4.343214512E0,-8.880365372E0,-5.051919818E-1
8.914100030E-1,4.355185986E0,-8.887548447E0,-4.980091453E-1
8.934097360E-1,4.367157459E0,-8.870788574E0,-4.908263385E-1
8.954094360E-1,4.350397110E0,-8.865999222E0,-4.956148863E-1
8.974091690E-1,4.336031914E0,-8.887548447E0,-5.075862408E-1
8.994089690E-1,4.324060440E0,-8.882759094E0,-5.123748183E-1
9.014087020E-1,4.331243038E0,-8.889942169E0,-5.051919818E-1
9.034084350E-1,4.359974384E0,-8.887548447E0,-4.956148863E-1
9.054081680E-1,4.364762783E0,-8.875576973E0,-4.956148863E-1
9.074079010E-1,4.345608711E0,-8.880365372E0,-5.051919818E-1
9.094076340E-1,4.343214512E0,-8.870788574E0,-4.956148863E-1
9.114073670E-1,4.340820312E0,-8.877970695E0,-4.884320498E-1
9.134071000E-1,4.343214512E0,-8.877970695E0,-4.860377908E-1
9.154069000E-1,4.343214512E0,-8.856422424E0,-4.884320498E-1
9.174066330E-1,4.343214512E0,-8.868393898E0,-4.980091453E-1
9.194063660E-1,4.343214512E0,-8.875576973E0,-4.980091453E-1
9.214060990E-1,4.348002911E0,-8.870788574E0,-4.884320498E-1
9.234058320E-1,4.345608711E0,-8.854028702E0,-4.836435020E-1
9.254055650E-1,4.345608711E0,-8.846845627E0,-4.884320498E-1
9.274052980E-1,4.328848839E0,-8.863605499E0,-4.716721475E-1
9.294050310E-1,4.312088966E0,-8.863605499E0,-4.740664065E-1
9.314048310E-1,4.326454639E0,-8.868393898E0,-4.764606953E-1
9.334045970E-1,4.326454639E0,-8.865999222E0,-4.620950520E-1
9.354043630E-1,4.319271564E0,-8.861210823E0,-4.573064744E-1
9.374041290E-1,4.319271564E0,-8.851634026E0,-4.501236677E-1
9.394038950E-1,4.312088966E0,-8.842057228E0,-4.405465722E-1
9.414036610E-1,4.316877365E0,-8.856422424E0,-4.405465722E-1
9.434034270E-1,4.340820312E0,-8.861210823E0,-4.501236677E-1
9.454031930E-1,4.338426113E0,-8.842057228E0,-4.597007632E-1
9.474030260E-1,4.324060440E0,-8.849239349E0,-4.549122155E-1
9.494027920E-1,4.309694767E0,-8.846845627E0,-4.573064744E-1
9.514025580E-1,4.309694767E0,-8.861210823E0,-4.716721475E-1
9.534023240E-1,4.324060440E0,-8.868393898E0,-4.788549542E-1
9.554021240E-1,4.340820312E0,-8.885153770E0,-4.692778587E-1
9.574018900E-1,4.333637238E0,-8.887548447E0,-4.716721475E-1
9.594017900E-1,4.321666241E0,-8.894730568E0,-4.620950520E-1
9.614016230E-1,4.297723293E0,-8.916279793E0,-4.644893110E-1
9.634014560E-1,4.297723293E0,-8.909096718E0,-4.644893110E-1
9.654012220E-1,4.304905891E0,-8.911490440E0,-4.668835998E-1
9.674009880E-1,4.336031914E0,-8.921068192E0,-4.501236677E-1
9.694008540E-1,4.333637238E0,-8.935433388E0,-4.692778587E-1
9.714006200E-1,4.336031914E0,-8.952193260E0,-4.884320498E-1
9.734003860E-1,4.333637238E0,-8.947404861E0,-4.812492430E-1
9.754001520E-1,4.328848839E0,-8.966559410E0,-4.836435020E-1
9.773999850E-1,4.324060440E0,-8.968953133E0,-4.884320498E-1
9.793997510E-1,4.338426113E0,-8.959376335E0,-4.932205975E-1
9.813995170E-1,4.333637238E0,-8.952193260E0,-4.932205975E-1
9.833992830E-1,4.338426113E0,-8.959376335E0,-4.764606953E-1
9.853990490E-1,4.348002911E0,-8.961771011E0,-4.788549542E-1
9.873988150E-1,4.348002911E0,-8.956981659E0,-4.836435020E-1
9.893985810E-1,4.331243038E0,-8.961771011E0,-5.051919818E-1
9.913983470E-1,4.340820312E0,-8.959376335E0,-5.147690773E-1
9.933981470E-1,4.357580185E0,-8.954587936E0,-5.195576549E-1
9.953978800E-1,4.395888329E0,-8.945011139E0,-5.051919818E-1
9.973976130E-1,4.381523132E0,-8.945011139E0,-5.051919818E-1
9.993973460E-1,4.386311531E0,-8.933039665E0,-5.004034638E-1
1.001397079E0,4.381523132E0,-8.925856590E0,-5.027977228E-1
1.003396812E0,4.381523132E0,-8.930644989E0,-5.099805593E-1
1.005396545E0,4.386311531E0,-8.930644989E0,-5.027977228E-1
1.007396278E0,4.388705730E0,-8.940221786E0,-5.195576549E-1
1.009396078E0,4.376734257E0,-8.928250313E0,-5.099805593E-1
1.011395811E0,4.369551659E0,-8.918673515E0,-4.956148863E-1
1.013395544E0,4.364762783E0,-8.921068192E0,-5.195576549E-1
1.015395277E0,4.381523132E0,-8.892336845E0,-4.836435020E-1
1.017395010E0,4.376734257E0,-8.897125244E0,-4.884320498E-1
1.019394610E0,4.362368584E0,-8.906702042E0,-4.668835998E-1
1.021394343E0,4.352791786E0,-8.894730568E0,-4.716721475E-1
1.023394076E0,4.338426113E0,-8.899519920E0,-4.716721475E-1
1.025393909E0,4.338426113E0,-8.899519920E0,-4.884320498E-1
1.027393642E0,4.348002911E0,-8.913885117E0,-4.884320498E-1
1.029393275E0,4.352791786E0,-8.913885117E0,-4.932205975E-1
1.031393008E0,4.338426113E0,-8.921068192E0,-4.908263385E-1
1.033392741E0,4.328848839E0,-8.921068192E0,-4.908263385E-1
1.035392474E0,4.331243038E0,-8.911490440E0,-5.004034638E-1
1.037392207E0,4.331243038E0,-8.894730568E0,-4.788549542E-1
1.039392007E0,4.319271564E0,-8.899519920E0,-4.668835998E-1
1.041391807E0,4.292934895E0,-8.911490440E0,-4.740664065E-1
1.043391540E0,4.273780346E0,-8.901913643E0,-4.836435020E-1
1.045391273E0,4.278569221E0,-8.906702042E0,-4.836435020E-1
1.047391006E0,4.302511692E0,-8.904308319E0,-4.788549542E-1
1.049390739E0,4.309694767E0,-8.875576973E0,-4.836435020E-1
1.051390472E0,4.302511692E0,-8.849239349E0,-4.812492430E-1
1.053390205E0,4.302511692E0,-8.830085754E0,-5.004034638E-1
1.055390005E0,4.290540695E0,-8.837267876E0,-5.075862408E-1
1.057389805E0,4.276175022E0,-8.846845627E0,-5.051919818E-1
1.059389538E0,4.283357620E0,-8.827691078E0,-5.099805593E-1
1.061389271E0,4.288146019E0,-8.808537483E0,-5.267404318E-1
1.063389004E0,4.297723293E0,-8.808537483E0,-5.291347504E-1
1.065388737E0,4.302511692E0,-8.806142807E0,-5.243461728E-1
1.067388470E0,4.316877365E0,-8.796566010E0,-5.243461728E-1
1.069388203E0,4.326454639E0,-8.784594536E0,-5.267404318E-1
1.071388003E0,4.331243038E0,-8.763046265E0,-5.291347504E-1
1.073387736E0,4.309694767E0,-8.751074791E0,-5.219519138E-1
1.075387469E0,4.290540695E0,-8.753468513E0,-5.195576549E-1
1.077387202E0,4.300117493E0,-8.739103317E0,-5.411061049E-1
1.079386935E0,4.309694767E0,-8.736708641E0,-5.435003638E-1
1.081386668E0,4.343214512E0,-8.739103317E0,-5.650488734E-1
1.083386401E0,4.345608711E0,-8.741497040E0,-5.842030644E-1
1.085386101E0,4.338426113E0,-8.746285439E0,-6.057515144E-1
1.087385901E0,4.350397110E0,-8.693612099E0,-6.416656375E-1
1.089385634E0,4.345608711E0,-8.698400497E0,-6.488484740E-1
1.091385367E0,4.352791786E0,-8.700794220E0,-6.632141471E-1
1.093385100E0,4.357580185E0,-8.696005821E0,-6.871568561E-1
1.095384833E0,4.379128456E0,-8.691217422E0,-7.230709791E-1
1.097384566E0,4.405465603E0,-8.684034348E0,-7.326480746E-1
1.099384299E0,4.460534096E0,-8.669669151E0,-7.589851022E-1
1.101384032E0,4.498842239E0,-8.626572609E0,-7.972934842E-1
1.103383832E0,4.517996788E0,-8.612206459E0,-8.092648983E-1
1.105383565E0,4.529967785E0,-8.602629662E0,-8.356019258E-1
1.107383298E0,4.529967785E0,-8.590658188E0,-8.691217303E-1
1.109383031E0,4.541939259E0,-8.585869789E0,-8.763045669E-1
1.111382764E0,4.565882206E0,-8.583475113E0,-9.170072675E-1
1.113382497E0,4.594613552E0,-8.559532166E0,-9.553156495E-1
1.115382230E0,4.620950222E0,-8.554743767E0,-9.720755816E-1
1.117381963E0,4.664047241E0,-8.576292038E0,-9.984126091E-1
1.119381763E0,4.687990189E0,-8.583475113E0,-1.012778282E0
1.121381496E0,4.695172787E0,-8.612206459E0,-1.039115310E0
1.123381229E0,4.721509933E0,-8.645726204E0,-1.079817891E0
1.125380962E0,4.738269806E0,-8.662486076E0,-1.098972082E0
1.127380695E0,4.767001152E0,-8.686429024E0,-1.144463301E0
1.129380428E0,4.812492371E0,-8.712765694E0,-1.166011810E0
1.131380161E0,4.829252243E0,-8.712765694E0,-1.185166001E0
1.133379961E0,4.867560863E0,-8.722343445E0,-1.221080184E0
1.135379761E0,4.879531860E0,-8.743891716E0,-1.252205729E0
1.137379494E0,4.893897533E0,-8.746285439E0,-1.278542757E0
1.139379227E0,4.898686409E0,-8.751074791E0,-1.333611012E0
1.141378960E0,4.891503334E0,-8.789382935E0,-1.403045058E0
1.143378693E0,4.898686409E0,-8.806142807E0,-1.424593568E0
1.145378426E0,4.905869007E0,-8.839662552E0,-1.508393168E0
1.147378159E0,4.929811954E0,-8.863605499E0,-1.575432777E0
1.149377959E0,4.953754425E0,-8.875576973E0,-1.594586968E0
1.151377725E0,4.948966026E0,-8.921068192E0,-1.678386688E0
1.153377491E0,4.953754425E0,-8.942616463E0,-1.747820616E0
1.155377257E0,4.968120098E0,-8.956981659E0,-1.783734679E0
1.157377023E0,5.001639843E0,-8.985713005E0,-1.857957244E0
1.159376789E0,5.020794392E0,-9.002472878E0,-1.934574008E0
1.161376555E0,5.032765865E0,-9.016839027E0,-1.989642382E0
1.163376321E0,5.073468208E0,-9.074301720E0,-2.078230619E0
1.165376154E0,5.118959427E0,-9.093455315E0,-2.123721838E0
1.167376020E0,5.135719299E0,-9.131764412E0,-2.202732801E0
1.169375886E0,5.197970390E0,-9.179649353E0,-2.272166729E0
1.171375752E0,5.221913338E0,-9.205986977E0,-2.303292274E0
1.173375618E0,5.272192955E0,-9.268238068E0,-2.379909277E0
1.175375484E0,5.324867249E0,-9.316123009E0,-2.480468750E0
1.177375350E0,5.353598595E0,-9.340065956E0,-2.528354168E0
1.179375216E0,5.423032284E0,-9.404711723E0,-2.612153769E0
1.181375149E0,5.485283375E0,-9.488511086E0,-2.715107679E0
1.183375082E0,5.518803596E0,-9.529213905E0,-2.770175934E0
1.185375015E0,5.571477413E0,-9.601041794E0,-2.863552570E0
1.187374948E0,5.652883053E0,-9.682447433E0,-2.959323645E0
1.189374881E0,5.688796997E0,-9.735121727E0,-3.002420664E0
1.191374814E0,5.772596359E0,-9.792584419E0,-3.105374336E0
1.193374747E0,5.846818924E0,-9.847652435E0,-3.210722446E0
1.195374680E0,5.882733345E0,-9.888355255E0,-3.251425266E0
1.197374680E0,6.014418125E0,-9.917086601E0,-3.354378939E0
1.199374646E0,6.210748672E0,-9.900326729E0,-3.445361376E0
1.201374612E0,6.296942711E0,-9.881172180E0,-3.486064196E0
1.203374578E0,6.414262295E0,-9.900326729E0,-3.569863796E0
1.205374544E0,6.452570438E0,-9.969759941E0,-3.653663397E0
1.207374510E0,6.447782040E0,-9.969759941E0,-3.691971779E0
1.209374476E0,6.459753513E0,-9.955394745E0,-3.682394743E0
1.211374476E0,6.510033131E0,-9.931451797E0,-3.672817469E0
1.213374476E0,6.531581879E0,-9.905115128E0,-3.684788942E0
1.215374442E0,6.605803967E0,-9.897932053E0,-3.725491524E0
1.217374408E0,6.641718388E0,-9.890748978E0,-3.732674360E0
1.219374374E0,6.744672298E0,-9.850046158E0,-3.706337452E0
1.221374374E0,6.902694225E0,-9.763853073E0,-3.694365978E0
1.223374340E0,6.986494064E0,-9.735121727E0,-3.689577579E0
1.225374306E0,7.166064739E0,-9.617801666E0,-3.665634632E0
1.227374239E0,7.331269264E0,-9.526819229E0,-3.641691923E0
1.229374172E0,7.412674904E0,-9.519637108E0,-3.641691923E0
1.231374072E0,7.563514233E0,-9.464568138E0,-3.629720688E0
1.233373972E0,7.699987888E0,-9.340065956E0,-3.572257996E0
1.235373872E0,7.759844780E0,-9.277814865E0,-3.529160976E0
1.237373772E0,7.795758724E0,-9.234718323E0,-3.447755814E0
1.239373672E0,7.819701672E0,-9.150918007E0,-3.390293121E0
1.241373572E0,7.836461544E0,-9.079090118E0,-3.342407703E0
1.243373472E0,7.814912796E0,-8.923461914E0,-3.229876757E0
1.245373372E0,7.735901833E0,-8.806142807E0,-3.105374336E0
1.247373272E0,7.664073467E0,-8.798959732E0,-3.062277555E0
1.249373172E0,7.472531796E0,-8.844450951E0,-2.983266354E0
1.251373072E0,7.290566921E0,-8.918673515E0,-2.971295118E0
1.253372972E0,7.211555958E0,-8.947404861E0,-3.002420664E0
1.255372872E0,7.000859737E0,-9.019232750E0,-3.141288519E0
1.257372772E0,6.897905827E0,-9.050358772E0,-3.198751211E0
1.259372705E0,6.972128391E0,-9.024022102E0,-3.193962574E0
1.261372571E0,7.075081825E0,-8.940221786E0,-3.095797300E0
1.263372437E0,7.065505028E0,-8.880365372E0,-3.033546209E0
1.265372303E0,6.929031372E0,-8.815719604E0,-2.959323645E0
1.267372169E0,6.596227169E0,-8.897125244E0,-2.985660791E0
1.269372035E0,6.596227169E0,-8.897125244E0,-2.985660791E0
1.271371901E0,6.411868095E0,-8.945011139E0,-3.098191500E0
1.273371767E0,6.241874218E0,-8.961771011E0,-3.318464994E0
1.275371667E0,6.148497581E0,-8.978530884E0,-3.414235830E0
1.277371500E0,5.861184597E0,-9.043175697E0,-3.514795303E0
1.279371333E0,5.549929142E0,-9.129369736E0,-3.541132450E0
1.281371133E0,5.439792156E0,-9.179649353E0,-3.507612705E0
1.283370966E0,5.336838722E0,-9.296969414E0,-3.438178539E0
1.285370799E0,5.243461609E0,-9.282603264E0,-3.392687321E0
1.287370632E0,5.195576191E0,-9.249083519E0,-3.380716085E0
1.289370465E0,5.145296574E0,-9.213169098E0,-3.349590540E0
1.291370331E0,5.116565228E0,-9.117398262E0,-3.351984739E0
1.293370131E0,5.150084972E0,-9.035993576E0,-3.380716085E0
1.295369931E0,5.219519138E0,-8.904308319E0,-3.517189741E0
1.297369731E0,5.202759266E0,-8.861210823E0,-3.703943014E0
1.299369531E0,5.212336063E0,-8.825297356E0,-3.792531252E0
1.301369331E0,5.300924301E0,-8.825297356E0,-3.895485163E0
1.303369131E0,5.403878212E0,-8.822902679E0,-3.885908127E0
1.305368931E0,5.437397957E0,-8.851634026E0,-3.864359617E0
1.307368731E0,5.430215359E0,-8.952193260E0,-3.816473961E0
1.309368464E0,5.389512539E0,-8.992896080E0,-3.766194344E0
1.311368197E0,5.248250484E0,-9.059935570E0,-3.672817469E0
1.313367930E0,5.118959427E0,-9.117398262E0,-3.598595142E0
1.315367663E0,5.039948463E0,-9.148524284E0,-3.577046633E0
1.317367396E0,4.812492371E0,-9.270631790E0,-3.533949614E0
1.319367129E0,4.501236439E0,-9.380768776E0,-3.505218267E0
1.321366929E0,4.338426113E0,-9.409500122E0,-3.493247032E0
1.323366662E0,4.094210148E0,-9.335277557E0,-3.392687321E0
1.325366395E0,3.969707727E0,-9.229928970E0,-3.246636629E0
1.327366128E0,3.964919090E0,-9.105426788E0,-3.031152010E0
1.329365861E0,4.029564381E0,-9.067118645E0,-2.918621063E0
1.331365594E0,4.166038036E0,-9.007262230E0,-2.609759569E0
1.333365327E0,4.178009510E0,-9.007262230E0,-2.432583094E0
1.335365060E0,4.110970020E0,-9.000079155E0,-2.097384691E0
1.337364860E0,4.110970020E0,-8.980924606E0,-1.855562925E0
1.339364593E0,4.101392746E0,-8.973741531E0,-1.740637779E0
1.341364326E0,4.204346657E0,-8.868393898E0,-1.587404251E0
1.343364059E0,4.427014351E0,-8.672063828E0,-1.486844659E0
1.345363792E0,4.604190350E0,-8.542772293E0,-1.448536277E0
1.347363525E0,5.061496735E0,-8.286584854E0,-1.388679385E0
1.349363258E0,5.255433083E0,-8.188420296E0,-1.347976685E0
1.351362991E0,5.674431324E0,-8.039975166E0,-1.278542757E0
1.353362791E0,6.000052452E0,-7.963357925E0,-1.276148438E0
1.355362524E0,6.153286457E0,-7.965752125E0,-1.312062621E0
1.357362257E0,6.476513386E0,-7.939415455E0,-1.422199249E0
1.359361990E0,6.782980442E0,-7.910684109E0,-1.640078187E0
1.361361723E0,6.929031372E0,-7.915472507E0,-1.733454943E0
1.363361456E0,7.228315830E0,-7.910684109E0,-1.980065227E0
1.365361156E0,7.460560322E0,-7.862798691E0,-2.174001455E0
1.367360889E0,7.541965485E0,-7.831672668E0,-2.255406857E0
1.369360689E0,7.704776287E0,-7.817307472E0,-2.418217659E0
1.371360422E0,7.798152924E0,-7.814912796E0,-2.564268351E0
1.373360155E0,7.855615616E0,-7.822095871E0,-2.609759569E0
1.375359888E0,7.939415455E0,-7.807730198E0,-2.695953369E0
1.377359621E0,7.941809654E0,-7.776604652E0,-2.739050388E0
1.379359354E0,7.927443981E0,-7.776604652E0,-2.772570133E0
1.381359087E0,7.925049782E0,-7.740690231E0,-2.765387297E0
1.383358887E0,7.836461544E0,-7.678439140E0,-2.719896078E0
1.385358687E0,7.798152924E0,-7.635342598E0,-2.681587696E0
1.387358420E0,7.592245579E0,-7.486897469E0,-2.688770533E0
1.389358153E0,7.489291668E0,-7.486897469E0,-2.705530643E0
1.391357886E0,7.367183685E0,-7.460560322E0,-2.700742006E0
1.393357619E0,7.055927753E0,-7.439012051E0,-2.674404860E0
1.395357352E0,6.883540154E0,-7.405491829E0,-2.660039425E0
1.397357085E0,6.579467297E0,-7.348029613E0,-2.662433624E0
1.399356885E0,6.263422966E0,-7.271412373E0,-2.660039425E0
1.401356618E0,6.081458092E0,-7.233104229E0,-2.662433624E0
1.403356351E0,5.705556870E0,-7.180429935E0,-2.703136206E0
1.405356084E0,5.389512539E0,-7.139727592E0,-2.751021862E0
1.407355817E0,5.253038883E0,-7.096630573E0,-2.796513081E0
1.409355550E0,4.984879971E0,-6.988888264E0,-2.873129845E0
1.411355283E0,4.676018715E0,-6.907482624E0,-2.940169573E0
1.413355016E0,4.522785187E0,-6.888328552E0,-2.995237827E0
1.415354816E0,4.297723293E0,-6.818894863E0,-3.064671755E0
1.417354549E0,4.127729893E0,-6.737489223E0,-3.138894320E0
1.419354282E0,4.060689926E0,-6.682421207E0,-3.177202702E0
1.421354015E0,3.929004908E0,-6.567495823E0,-3.225088120E0
1.423353748E0,3.787742853E0,-6.462147713E0,-3.210722446E0
1.425353514E0,3.711125851E0,-6.414262295E0,-3.208328247E0
1.427353247E0,3.565075159E0,-6.368771076E0,-3.239453793E0
1.429352980E0,3.462121487E0,-6.318490982E0,-3.227482557E0
1.431352780E0,3.428601503E0,-6.294548512E0,-3.205934048E0
1.433352513E0,3.371139050E0,-6.246663094E0,-3.158048391E0
1.435352246E0,3.335224867E0,-6.232297421E0,-3.088614464E0
1.437351979E0,3.301704884E0,-6.179623127E0,-3.050306082E0
1.439351712E0,3.301704884E0,-6.129343510E0,-3.021574736E0
1.441351445E0,3.282550812E0,-6.117372036E0,-2.985660791E0
1.443351178E0,3.289733648E0,-6.107795238E0,-2.928198099E0
1.445350911E0,3.294522047E0,-6.083852291E0,-2.877918243E0
1.447350711E0,3.344801903E0,-6.047938347E0,-2.825244188E0
1.449350411E0,3.380716085E0,-6.026389599E0,-2.810878515E0
1.451350144E0,3.450150013E0,-6.007235527E0,-2.753416061E0
1.453349877E0,3.493247032E0,-5.980898380E0,-2.729473352E0
1.455349610E0,3.567469358E0,-5.966532707E0,-2.674404860E0
1.457349343E0,3.627326250E0,-5.961744308E0,-2.652856588E0
1.459349076E0,3.653663397E0,-5.959350109E0,-2.648067951E0
1.461348876E0,3.718308687E0,-5.906675816E0,-2.643279314E0
1.463348676E0,3.732674360E0,-5.904281616E0,-2.616942406E0
1.465348409E0,3.737462997E0,-5.899493217E0,-2.600182533E0
1.467348142E0,3.759011507E0,-5.846818924E0,-2.581028223E0
1.469347875E0,3.756617069E0,-5.765413761E0,-2.499622822E0
1.471347608E0,3.756617069E0,-5.774991035E0,-2.473285913E0
1.473347341E0,3.773377180E0,-5.849213123E0,-2.581028223E0
1.475347074E0,3.749434233E0,-5.899493217E0,-2.846792698E0
1.477346874E0,3.761405706E0,-5.897099018E0,-2.964112282E0
1.479346674E0,3.806896925E0,-5.949772835E0,-3.174808502E0
1.481346407E0,3.881119490E0,-5.964138508E0,-3.316070557E0
1.483346140E0,3.895485163E0,-5.959350109E0,-3.359167576E0
1.485345873E0,3.883513689E0,-5.964138508E0,-3.428601503E0
1.487345606E0,3.871542454E0,-5.940196037E0,-3.454938650E0
1.489345339E0,3.838022470E0,-5.846818924E0,-3.481275558E0
1.491345072E0,3.715914488E0,-5.734288216E0,-3.469304085E0
1.493344872E0,3.620143414E0,-5.746259689E0,-3.514795303E0
1.495344605E0,3.562680960E0,-5.808510780E0,-3.708731651E0
1.497344338E0,3.605777979E0,-5.873156071E0,-3.823656797E0
1.499344071E0,3.641691923E0,-5.892310143E0,-3.840416908E0
1.501343804E0,3.732674360E0,-5.923435688E0,-3.900273561E0
1.503343537E0,3.828445435E0,-5.913858891E0,-3.933793545E0
1.505343270E0,3.840416908E0,-5.944984436E0,-3.974496126E0
1.507343003E0,3.885908127E0,-5.971321583E0,-4.098998547E0
1.509342836E0,3.897879362E0,-5.968926907E0,-4.132518291E0
1.511342569E0,3.893090725E0,-5.971321583E0,-4.168432236E0
1.513342302E0,3.933793545E0,-5.944984436E0,-4.245049000E0
1.515342035E0,3.955342054E0,-5.944984436E0,-4.316877365E0
1.517341768E0,3.976890564E0,-5.933012962E0,-4.352791786E0
1.519341501E0,3.964919090E0,-5.940196037E0,-4.436591148E0
1.521341234E0,3.967313290E0,-5.949772835E0,-4.494053841E0
1.523340967E0,3.955342054E0,-5.933012962E0,-4.501236439E0
1.525340767E0,3.962524891E0,-5.889915943E0,-4.537150860E0
1.527340500E0,3.964919090E0,-5.863578796E0,-4.541939259E0
1.529340233E0,3.948159218E0,-5.820482254E0,-4.558699131E0
1.531339966E0,3.909850836E0,-5.830059052E0,-4.597007751E0
1.533339699E0,3.907456398E0,-5.813299179E0,-4.616161823E0
1.535339432E0,3.885908127E0,-5.758230686E0,-4.632921696E0
1.537339165E0,3.806896925E0,-5.784567833E0,-4.671230316E0
1.539338898E0,3.768588543E0,-5.784567833E0,-4.676018715E0
1.541338698E0,3.735068798E0,-5.753442287E0,-4.680807114E0
1.543338431E0,3.696760416E0,-5.703162670E0,-4.699961662E0
1.545338164E0,3.680000305E0,-5.684008598E0,-4.699961662E0
1.547337897E0,3.617749214E0,-5.672037125E0,-4.692778587E0
1.549337630E0,3.589017868E0,-5.657671452E0,-4.721509933E0
1.551337363E0,3.600989342E0,-5.633728504E0,-4.738269806E0
1.553337096E0,3.529160976E0,-5.595420361E0,-4.714327335E0
1.555336896E0,3.510006905E0,-5.588237286E0,-4.728692532E0
1.557336696E0,3.512401104E0,-5.576265812E0,-4.747847080E0
1.559336429E0,3.526766777E0,-5.545140266E0,-4.764606953E0
1.561336162E0,3.502824068E0,-5.518803596E0,-4.740664005E0
1.563335895E0,3.486064196E0,-5.516408920E0,-4.738269806E0
1.565335628E0,3.519583941E0,-5.506832123E0,-4.798126698E0
1.567335361E0,3.557892323E0,-5.499649048E0,-4.846012115E0
1.569335094E0,3.579440832E0,-5.490072250E0,-4.853195190E0
1.571334894E0,3.646480560E0,-5.456552505E0,-4.889109135E0
1.573334627E0,3.677606106E0,-5.454157829E0,-4.980091572E0
1.575334360E0,3.706337452E0,-5.451763630E0,-5.042342663E0
1.577334093E0,3.806896925E0,-5.442186832E0,-5.121353626E0
1.579333826E0,3.859570980E0,-5.425426483E0,-5.150084972E0
1.581333559E0,3.974496126E0,-5.415849686E0,-5.245856285E0
1.583333292E0,4.060689926E0,-5.415849686E0,-5.353598595E0
1.585333025E0,4.120546818E0,-5.406272411E0,-5.430215359E0
1.587332825E0,4.247443676E0,-5.387118340E0,-5.537957668E0
1.589332591E0,4.357580185E0,-5.367964268E0,-5.672037125E0
1.591332357E0,4.429408550E0,-5.358386993E0,-5.734288216E0
1.593332123E0,4.568276405E0,-5.312895775E0,-5.863578796E0
1.595331889E0,4.728692532E0,-5.291347504E0,-5.966532707E0
1.597331655E0,4.790944099E0,-5.286558628E0,-6.021601200E0
1.599331421E0,4.884320736E0,-5.300924301E0,-6.134131908E0
1.601331187E0,5.016005516E0,-5.291347504E0,-6.241874218E0
1.603331020E0,5.080651283E0,-5.267404556E0,-6.284971237E0
1.605330786E0,5.193181992E0,-5.267404556E0,-6.404685020E0
1.607330552E0,5.279376030E0,-5.279376030E0,-6.471724987E0
1.609330318E0,5.317684174E0,-5.291347504E0,-6.500456333E0
1.611330084E0,5.391906738E0,-5.324867249E0,-6.581861496E0
1.613329850E0,5.458946705E0,-5.332049847E0,-6.620169640E0
1.615329616E0,5.494860649E0,-5.348809719E0,-6.627352715E0
1.617329382E0,5.569083214E0,-5.322473049E0,-6.668055534E0
1.619329215E0,5.626545906E0,-5.327261448E0,-6.653689861E0
1.621328981E0,5.664854050E0,-5.332049847E0,-6.665660858E0
1.623328747E0,5.688796997E0,-5.370358467E0,-6.651295185E0
1.625328513E0,5.688796997E0,-5.396695614E0,-6.629746914E0
1.627328279E0,5.739076614E0,-5.384724140E0,-6.572284222E0
1.629328045E0,5.729499817E0,-5.389512539E0,-6.531581879E0
1.631327811E0,5.722316742E0,-5.415849686E0,-6.493273258E0
1.633327644E0,5.717528343E0,-5.480494976E0,-6.428627968E0
1.635327477E0,5.722316742E0,-5.494860649E0,-6.395108223E0
1.637327243E0,5.703162670E0,-5.504437923E0,-6.340039730E0
1.639327009E0,5.724710941E0,-5.547534943E0,-6.263422966E0
1.641326775E0,5.705556870E0,-5.561900616E0,-6.148497581E0
1.643326541E0,5.664854050E0,-5.590631485E0,-6.081458092E0
1.645326307E0,5.645699978E0,-5.631334305E0,-5.995264053E0
1.647326073E0,5.616968632E0,-5.676825523E0,-5.875550270E0
1.649325873E0,5.597814560E0,-5.688796997E0,-5.815693378E0
1.651325606E0,5.545140266E0,-5.715134144E0,-5.681613922E0
1.653325506E0,5.530774593E0,-5.765413761E0,-5.576265812E0
1.655325239E0,5.523591995E0,-5.770202160E0,-5.525986195E0
1.657324972E0,5.482889175E0,-5.779779434E0,-5.384724140E0
1.659324705E0,5.384724140E0,-5.820482254E0,-5.236279011E0
1.661324438E0,5.353598595E0,-5.832453251E0,-5.157268047E0
1.663324171E0,5.286558628E0,-5.810904980E0,-5.004034519E0
1.665323971E0,5.205153465E0,-5.803721905E0,-4.865166187E0
1.667323704E0,5.147690773E0,-5.784567833E0,-4.781366825E0
1.669323437E0,5.066285610E0,-5.760625362E0,-4.608979225E0
1.671323170E0,5.051919937E0,-5.717528343E0,-4.525179386E0
1.673322903E0,4.958543301E0,-5.662459850E0,-4.379128456E0
1.675322636E0,4.841223717E0,-5.626545906E0,-4.218712330E0
1.677322369E0,4.771789551E0,-5.616968632E0,-4.130124092E0
1.679322102E0,4.676018715E0,-5.509226322E0,-3.926610708E0
1.681321902E0,4.553910732E0,-5.437397957E0,-3.682394743E0
1.683321635E0,4.472505569E0,-5.408666611E0,-3.533949614E0
1.685321368E0,4.278569221E0,-5.358386993E0,-3.205934048E0
1.687321101E0,3.976890564E0,-5.207547665E0,-2.751021862E0
1.689320867E0,3.976890564E0,-5.207547665E0,-2.751021862E0
1.691320600E0,3.713520288E0,-5.135719299E0,-2.406246185E0
1.693320333E0,3.428601503E0,-5.018400192E0,-2.094990492E0
1.695320066E0,3.280156374E0,-4.948966026E0,-1.965699673E0
1.697319866E0,3.028757572E0,-4.752635479E0,-1.762186289E0
1.699319599E0,2.753416061E0,-4.541939259E0,-1.661626697E0
1.701319332E0,2.616942406E0,-4.450956821E0,-1.644866824E0
1.703319065E0,2.353572130E0,-4.266597748E0,-1.673598051E0
1.705318798E0,2.078230619E0,-4.122941017E0,-1.759791970E0
1.707318531E0,1.932179809E0,-4.055901527E0,-1.790917516E0
1.709318264E0,1.616135478E0,-3.957736254E0,-1.874717116E0
1.711318064E0,1.307274103E0,-3.945764780E0,-1.917814136E0
1.713317697E0,1.142069101E0,-3.909850836E0,-1.951334000E0
1.715317430E0,7.805336118E-1,-3.976890564E0,-2.023162127E0
1.717317163E0,6.153286099E-1,-4.024775982E0,-2.049499273E0
1.719316896E0,2.418217510E-1,-4.276175022E0,-2.068653345E0
1.721316629E0,-1.053480953E-1,-4.618556023E0,-2.023162127E0
1.723316362E0,-2.801301479E-1,-4.834040642E0,-1.999219418E0
1.725316095E0,-6.440598965E-1,-5.458946705E0,-2.030344963E0
1.727315895E0,-9.577099085E-1,-6.220325947E0,-2.183578730E0
1.729315695E0,-1.089395046E0,-6.660872459E0,-2.336812258E0
1.731315428E0,-1.204320192E0,-7.673650742E0,-2.801301479E0
1.733315161E0,-1.096577883E0,-8.758256912E0,-3.529160976E0
1.735314894E0,-9.481328130E-1,-9.301757812E0,-4.008016109E0
1.737314627E0,-3.974496126E-1,-1.036002731E1,-5.128536701E0
1.739314360E0,4.740664065E-1,-1.136083412E1,-6.505244732E0
1.741314093E0,9.912297726E-1,-1.184687138E1,-7.245075703E0
1.743313893E0,2.099778891E0,-1.283331299E1,-8.784594536E0
1.745313626E0,3.287339211E0,-1.377426338E1,-1.028580475E1
1.747313359E0,4.632921696E0,-1.468408775E1,-1.157631874E1
1.749313059E0,5.351204395E0,-1.515097141E1,-1.205756760E1
1.751312792E0,6.833260536E0,-1.617093277E1,-1.256036568E1
1.753312525E0,7.551542759E0,-1.672640419E1,-1.260106850E1
1.755312258E0,8.954587936E0,-1.780861664E1,-1.222995567E1
1.757311991E0,1.049650097E1,-1.831859589E1,-1.131294823E1
1.759311791E0,1.132970810E1,-1.930264282E1,-1.070719719E1
1.761311524E0,1.308231735E1,-2.022683334E1,-9.273026466E0
1.763311257E0,1.395383358E1,-2.064583206E1,-8.466156006E0
1.765310990E0,1.568489456E1,-2.124440002E1,-6.682421207E0
1.767310723E0,1.728666496E1,-2.151734734E1,-4.659258842E0
1.769310456E0,1.798818588E1,-2.153171349E1,-3.632114887E0
1.771310189E0,1.896983910E1,-2.134256554E1,-1.623318315E0
1.773309922E0,1.918053627E1,-2.085652733E1,1.867534369E-1
1.775309722E0,1.894350243E1,-2.051654053E1,9.696813226E-1
1.777309455E0,1.780143356E1,-1.966178513E1,2.293715239E0
1.779309188E0,1.594587040E1,-1.848380089E1,3.337619066E0
1.781308921E0,1.485647488E1,-1.777749062E1,3.749434233E0
1.783308654E0,1.258430862E1,-1.616374969E1,4.230683804E0
1.785308387E0,1.045340347E1,-1.440635109E1,4.388705730E0
1.787308120E0,8.461367607E0,-1.353244114E1,4.300117493E0
1.789307853E0,7.513234138E0,-1.191391182E1,4.161249638E0
1.791307653E0,5.638517380E0,-1.054678059E1,3.730280161E0
1.793307386E0,4.704750061E0,-9.972154617E0,3.447755814E0
1.795307119E0,2.901860952E0,-9.038387299E0,2.765387297E0
1.797306852E0,1.235445857E0,-8.279402733E0,1.898659945E0
1.799306585E0,4.836435020E-1,-7.970541000E0,1.434170604E0
1.801306318E0,-8.786988258E-1,-7.462954521E0,4.261809289E-1
1.803306051E0,-1.989642382E0,-7.233104229E0,-1.053480953E-1
1.805305851E0,-2.482862949E0,-6.881145954E0,-1.225868702E0
1.807305651E0,-3.794925690E0,-6.531581879E0,-2.925803900E0
1.809305384E0,-3.794925690E0,-6.531581879E0,-2.925803900E0
1.811305117E0,-4.501236439E0,-6.402290821E0,-3.933793545E0
1.813304850E0,-4.975303173E0,-6.237085819E0,-4.671230316E0
1.815304583E0,-5.121353626E0,-6.136526108E0,-4.908263206E0
1.817304316E0,-5.238673210E0,-5.897099018E0,-5.145296574E0
1.819304049E0,-5.071074009E0,-5.655277252E0,-5.150084972E0
1.821303849E0,-4.893897533E0,-5.533169270E0,-5.090228081E0
1.823303582E0,-4.381523132E0,-5.276981831E0,-4.846012115E0
1.825303315E0,-3.557892323E0,-4.987274647E0,-4.470110893E0
1.827303048E0,-3.043123245E0,-4.843617916E0,-4.213923454E0
1.829302781E0,-1.877111435E0,-4.623344421E0,-3.627326250E0
1.831302514E0,-6.153286099E-1,-4.453351021E0,-2.928198099E0
1.833302247E0,5.027977005E-2,-4.407859802E0,-2.533142805E0
1.835301980E0,1.312062621E0,-4.386311531E0,-1.628106833E0
1.837301780E0,2.511594296E0,-4.417437077E0,-6.225114465E-1
1.839301513E0,3.112557173E0,-4.465322495E0,-1.149251908E-1
1.841301246E0,4.261809349E0,-4.556304932E0,8.691217303E-1
1.843300979E0,5.344021320E0,-4.711932659E0,1.719089270E0
1.845300712E0,5.851607800E0,-4.795732498E0,2.073441982E0
1.847300445E0,6.797346115E0,-4.999245644E0,2.616942406E0
1.849300178E0,7.721536160E0,-5.099805355E0,2.813272953E0
1.851299911E0,8.178842545E0,-5.344021320E0,3.088614464E0
1.853299711E0,9.026415825E0,-5.557111740E0,3.131711483E0
1.855299444E0,9.419076920E0,-5.667248249E0,3.114951611E0
1.857299177E0,1.007032013E1,-5.940196037E0,2.964112282E0
1.859298910E0,1.055635738E1,-6.258634567E0,2.564268351E0
1.861298643E0,1.076226521E1,-6.428627968E0,2.291321039E0
1.863298376E0,1.114774323E1,-6.711152077E0,1.716695070E0
1.865298109E0,1.147815323E1,-6.981705189E0,1.185166001E0
1.867297842E0,1.170800400E1,-7.312115192E0,6.991282701E-1
1.869297642E0,1.176786041E1,-7.491685867E0,4.405465722E-1
1.871297375E0,1.176067829E1,-7.908289909E0,-3.830839694E-2
1.873297108E0,1.166969585E1,-8.150111198E0,-2.442160249E-1
1.875296841E0,1.142308521E1,-8.631361008E0,-6.368771195E-1
1.877296574E0,1.104239559E1,-9.062330246E0,-1.017566800E0
1.879296307E0,1.081972790E1,-9.263449669E0,-1.216291547E0
1.881296040E0,1.037199879E1,-9.608224869E0,-1.628106833E0
1.883295840E0,9.941028595E0,-9.852440834E0,-1.944151163E0
1.885295640E0,9.732727051E0,-9.957788467E0,-2.085413456E0
1.887295373E0,9.217958450E0,-1.016369629E1,-2.351177931E0
1.889295106E0,8.662486076E0,-1.031453609E1,-2.590605259E0
1.891294839E0,8.408693314E0,-1.034087276E1,-2.700742006E0
1.893294572E0,7.858009815E0,-1.041030693E1,-2.918621063E0
1.895294305E0,7.343240738E0,-1.045100975E1,-3.023969173E0
1.897294038E0,7.127756119E0,-1.048452950E1,-3.131711483E0
1.899293838E0,6.680026531E0,-1.044382668E1,-3.083826065E0
1.901293571E0,6.445387840E0,-1.040551853E1,-3.040729046E0
1.903293304E0,5.928224564E0,-1.031692982E1,-3.019180536E0
1.905293037E0,5.423032284E0,-1.019482231E1,-3.052700281E0
1.907292770E0,5.200365067E0,-1.009186840E1,-3.093403101E0
1.909292503E0,4.817280769E0,-9.890748978E0,-3.136499882E0
1.911292236E0,4.427014351E0,-9.737515450E0,-3.136499882E0
1.913291969E0,4.242654800E0,-9.646533012E0,-3.153259993E0
1.915291769E0,3.878725290E0,-9.469356537E0,-3.241847992E0
1.917291502E0,3.560286522E0,-9.220352173E0,-3.316070557E0
1.919291235E0,3.416630268E0,-9.110215187E0,-3.383110285E0
1.921290968E0,3.272973776E0,-8.846845627E0,-3.474092722E0
1.923290701E0,3.215511084E0,-8.559532166E0,-3.505218267E0
1.925290434E0,3.237059593E0,-8.418270111E0,-3.500429869E0
1.927290167E0,3.325647593E0,-8.073494911E0,-3.349590540E0
1.929289900E0,3.335224867E0,-7.992089272E0,-3.282550812E0
1.931289700E0,3.366350412E0,-7.915472507E0,-3.215511084E0
1.933289433E0,3.404658794E0,-7.807730198E0,-3.052700281E0
1.935289166E0,3.457332850E0,-7.733507633E0,-2.971295118E0
1.937288899E0,3.498035431E0,-7.702382088E0,-2.937775135E0
1.939288632E0,3.658451796E0,-7.637736797E0,-2.882706881E0
1.941288365E0,3.847599506E0,-7.601822376E0,-2.856369734E0
1.943288098E0,3.948159218E0,-7.510839939E0,-2.789330244E0
1.945287831E0,4.225894928E0,-7.400703430E0,-2.746233225E0
1.947287631E0,4.393494129E0,-7.333663940E0,-2.727078915E0
1.949287364E0,4.680807114E0,-7.280989647E0,-2.672010660E0
1.951287097E0,4.929811954E0,-7.242681503E0,-2.569056988E0
1.953286830E0,5.032765865E0,-7.245075703E0,-2.521171331E0
1.955286563E0,5.221913338E0,-7.264229774E0,-2.432583094E0
1.957286296E0,5.372752666E0,-7.240286827E0,-2.324840784E0
1.959286029E0,5.442186832E0,-7.245075703E0,-2.276955366E0
1.961285829E0,5.590631485E0,-7.240286827E0,-2.214704275E0
1.963285629E0,5.657671452E0,-7.240286827E0,-2.138087511E0
1.965285329E0,5.693585396E0,-7.247469902E0,-2.128510237E0
1.967285062E0,5.748653889E0,-7.252258301E0,-2.133298874E0
1.969284795E0,5.777385235E0,-7.242681503E0,-2.154847383E0
1.971284528E0,5.798933506E0,-7.233104229E0,-2.164424419E0
1.973284261E0,5.868367672E0,-7.216344357E0,-2.188367128E0
1.975283994E0,5.901887417E0,-7.146910191E0,-2.229069948E0
1.977283794E0,5.901887417E0,-7.144515991E0,-2.272166729E0
1.979283594E0,5.909070015E0,-7.192401409E0,-2.327235222E0
1.981283327E0,5.937801361E0,-7.178035736E0,-2.324840784E0
1.983283060E0,5.942590237E0,-7.166064739E0,-2.322446585E0
1.985282793E0,5.925830364E0,-7.137333393E0,-2.322446585E0
1.987282526E0,5.918647289E0,-7.103813171E0,-2.310475111E0
1.989282259E0,5.901887417E0,-7.101418972E0,-2.305686712E0
1.991281992E0,5.854001999E0,-7.089447498E0,-2.310475111E0
1.993281792E0,5.798933506E0,-7.084659100E0,-2.322446585E0
1.995281525E0,5.710345268E0,-7.079870701E0,-2.379909277E0
1.997281258E0,5.643305779E0,-7.082264900E0,-2.430188894E0
1.999280991E0,5.600208759E0,-7.051139355E0,-2.451737404E0
2.001280724E0,5.502043724E0,-7.003253937E0,-2.513988495E0
2.003280457E0,5.461340904E0,-6.979310989E0,-2.602576733E0
2.005280190E0,5.418243885E0,-6.967339516E0,-2.638490915E0
2.007279923E0,5.336838722E0,-6.957762718E0,-2.700742006E0
2.009279723E0,5.272192955E0,-6.952973843E0,-2.755810261E0
2.011279489E0,5.245856285E0,-6.955368519E0,-2.791724443E0
2.013279255E0,5.205153465E0,-6.964945316E0,-2.846792698E0
2.015279021E0,5.157268047E0,-6.962551117E0,-2.865947008E0
2.017278787E0,5.130930901E0,-6.964945316E0,-2.865947008E0
2.019278553E0,5.071074009E0,-6.974522591E0,-2.861158371E0
2.021278319E0,5.047131062E0,-6.964945316E0,-2.868341208E0
2.023278085E0,5.042342663E0,-6.972128391E0,-2.873129845E0
2.025277951E0,4.994457245E0,-6.991282463E0,-2.894678354E0
2.027277717E0,4.934600353E0,-6.979310989E0,-2.889889717E0
2.029277483E0,4.910657406E0,-6.976916790E0,-2.887495518E0
2.031277249E0,4.857983589E0,-6.972128391E0,-2.899466753E0
2.033277015E0,4.826858044E0,-6.967339516E0,-2.899466753E0
2.035276781E0,4.764606953E0,-6.957762718E0,-2.923409462E0
2.037276547E0,4.762212753E0,-6.955368519E0,-2.911438227E0
2.039276313E0,4.788549423E0,-6.943397045E0,-2.897072554E0
2.041276146E0,4.855589390E0,-6.871568680E0,-2.837215662E0
2.043275912E0,4.915446281E0,-6.830865860E0,-2.789330244E0
2.045275678E0,4.929811954E0,-6.818894863E0,-2.760598898E0
2.047275444E0,4.953754425E0,-6.823683262E0,-2.746233225E0
2.049275210E0,4.968120098E0,-6.821289062E0,-2.774964571E0
2.051274976E0,4.980091572E0,-6.794951916E0,-2.813272953E0
2.053274742E0,5.037554264E0,-6.756643295E0,-2.877918243E0
2.055274575E0,5.042342663E0,-6.759037971E0,-2.961717844E0
2.057274408E0,5.042342663E0,-6.761432171E0,-3.028757572E0
2.059274174E0,5.073468208E0,-6.744672298E0,-3.141288519E0
2.061273940E0,5.109382629E0,-6.735095024E0,-3.268185139E0
2.063273706E0,5.123748302E0,-6.720729351E0,-3.347196102E0
2.065273472E0,5.154873848E0,-6.675238132E0,-3.548315287E0
2.067273238E0,5.217124939E0,-6.644112587E0,-3.780560017E0
2.069273004E0,5.245856285E0,-6.636929989E0,-3.900273561E0
2.071272804E0,5.303318501E0,-6.627352715E0,-4.122941017E0
2.073272537E0,5.360781193E0,-6.617775440E0,-4.285751820E0
2.075272270E0,5.377541065E0,-6.562707424E0,-4.362368584E0
2.077272003E0,5.420638084E0,-6.505244732E0,-4.443774223E0
2.079271736E0,5.439792156E0,-6.459753513E0,-4.453351021E0
2.081271469E0,5.446975231E0,-6.366376877E0,-4.422225475E0
2.083271202E0,5.449369431E0,-6.241874218E0,-4.338426113E0
2.085270935E0,5.454157829E0,-6.186806202E0,-4.280963421E0
2.087270735E0,5.442186832E0,-6.069486618E0,-4.134912491E0
2.089270468E0,5.384724140E0,-5.968926907E0,-3.933793545E0
2.091270201E0,5.344021320E0,-5.916253090E0,-3.840416908E0
2.093269934E0,5.233884811E0,-5.815693378E0,-3.670423269E0
2.095269667E0,5.063891411E0,-5.729499817E0,-3.498035431E0
2.097269400E0,4.987274647E0,-5.684008598E0,-3.397475958E0
2.099269133E0,4.800520897E0,-5.614574432E0,-3.261002302E0
2.101268866E0,4.632921696E0,-5.509226322E0,-3.136499882E0
2.103268666E0,4.546727657E0,-5.430215359E0,-3.079037428E0
2.105268399E0,4.407859802E0,-5.274587631E0,-2.990449190E0
2.107268132E0,4.259414673E0,-5.075862408E0,-2.930592299E0
2.109267832E0,4.166038036E0,-4.999245644E0,-2.901860952E0
2.111267565E0,3.974496126E0,-4.869955063E0,-2.875524044E0
2.113267298E0,3.816473961E0,-4.743058205E0,-2.870735407E0
2.115267031E0,3.735068798E0,-4.678412914E0,-2.856369734E0
2.117266764E0,3.579440832E0,-4.541939259E0,-2.842004299E0
2.119266564E0,3.399870157E0,-4.467716694E0,-2.830032825E0
2.121266297E0,3.299310684E0,-4.304905891E0,-2.846792698E0
2.123266030E0,3.100585938E0,-4.154066563E0,-2.868341208E0
2.125265763E0,2.992843628E0,-4.067873001E0,-2.873129845E0
2.127265496E0,2.777358770E0,-3.933793545E0,-2.911438227E0
2.129265229E0,2.554691315E0,-3.883513689E0,-3.007209063E0
2.131264962E0,2.439765930E0,-3.847599506E0,-3.081431627E0
2.133264795E0,2.214704275E0,-3.790137053E0,-3.215511084E0
2.135264595E0,2.039922237E0,-3.747040033E0,-3.390293121E0
2.137264328E0,1.963305354E0,-3.744645834E0,-3.505218267E0
2.139264061E0,1.838803053E0,-3.780560017E0,-3.770982742E0
2.141263794E0,1.728666425E0,-3.857176781E0,-4.019987583E0
2.143263527E0,1.671203852E0,-3.900273561E0,-4.127729893E0
2.145263260E0,1.592192769E0,-3.979284763E0,-4.331243038E0
2.147262993E0,1.613741279E0,-4.046324253E0,-4.467716694E0
2.149262793E0,1.640078187E0,-4.060689926E0,-4.498842239E0
2.151262526E0,1.719089270E0,-4.120546818E0,-4.541939259E0
2.153262259E0,1.848380208E0,-4.158855438E0,-4.515602112E0
2.155261992E0,1.922602654E0,-4.201952457E0,-4.486870766E0
2.157261725E0,2.068653345E0,-4.309694767E0,-4.343214512E0
2.159261458E0,2.224281311E0,-4.446168423E0,-4.161249638E0
2.161261191E0,2.308080912E0,-4.513207912E0,-4.039141655E0
2.163260924E0,2.480468750E0,-4.671230316E0,-3.720703125E0
2.165260724E0,2.660039425E0,-4.757423878E0,-3.383110285E0
2.167260457E0,2.901860952E0,-4.963331699E0,-3.002420664E0
2.169260223E0,3.016786337E0,-5.035160065E0,-2.837215662E0
2.171259956E0,3.124528646E0,-5.092622280E0,-2.664827824E0
2.173259689E0,3.320859194E0,-5.229096413E0,-2.312869549E0
2.175259422E0,3.514795303E0,-5.365570068E0,-1.972882390E0
2.177259155E0,3.586623669E0,-5.413455486E0,-1.826831698E0
2.179258888E0,3.737462997E0,-5.442186832E0,-1.522758722E0
2.181258688E0,3.905062199E0,-5.432609558E0,-1.235445857E0
2.183258421E0,3.976890564E0,-5.430215359E0,-1.118126392E0
2.185258154E0,4.113364220E0,-5.442186832E0,-9.146129489E-1
2.187257887E0,4.242654800E0,-5.439792156E0,-7.613793612E-1
2.189257620E0,4.290540695E0,-5.451763630E0,-6.943396926E-1
2.191257353E0,4.391099930E0,-5.466129303E0,-5.913859010E-1
2.193257053E0,4.434196949E0,-5.502043724E0,-5.339232683E-1
2.195256786E0,4.458139896E0,-5.525986195E0,-5.339232683E-1
2.197256586E0,4.458139896E0,-5.600208759E0,-5.674431324E-1
2.199256319E0,4.427014351E0,-5.648094177E0,-6.727912426E-1
2.201256052E0,4.422225475E0,-5.676825523E0,-7.350423932E-1
2.203255785E0,4.405465603E0,-5.741470814E0,-9.313728809E-1
2.205255518E0,4.417437077E0,-5.810904980E0,-1.120520592E0
2.207255251E0,4.446168423E0,-5.839636326E0,-1.194743156E0
2.209254984E0,4.532361984E0,-5.897099018E0,-1.345582485E0
2.211254784E0,4.632921696E0,-5.933012962E0,-1.479661822E0
2.213254584E0,4.678412914E0,-6.012023926E0,-1.522758722E0
2.215254317E0,4.786155224E0,-6.122160912E0,-1.544307232E0
2.217254050E0,4.838829517E0,-6.186806202E0,-1.537124395E0
2.219253783E0,4.982485771E0,-6.352011204E0,-1.515576005E0
2.221253516E0,5.116565228E0,-6.519610405E0,-1.484450340E0
2.223253249E0,5.195576191E0,-6.598621368E0,-1.474873304E0
2.225252982E0,5.315289974E0,-6.773403645E0,-1.498816013E0
2.227252782E0,5.509226322E0,-6.943397045E0,-1.675992370E0
2.229252582E0,5.509226322E0,-6.943397045E0,-1.675992370E0
2.231252315E0,5.660065651E0,-7.017619610E0,-1.865140080E0
2.233252048E0,5.784567833E0,-7.091842175E0,-2.128510237E0
2.235251781E0,5.837242126E0,-7.122967720E0,-2.288926601E0
2.237251514E0,5.918647289E0,-7.185218811E0,-2.633702278E0
2.239251247E0,5.980898380E0,-7.230710030E0,-2.983266354E0
2.241250980E0,6.012023926E0,-7.259441376E0,-3.119740009E0
2.243250780E0,6.067092419E0,-7.343240738E0,-3.320859194E0
2.245250546E0,6.057515144E0,-7.431828976E0,-3.428601503E0
2.247250312E0,6.028783798E0,-7.486897469E0,-3.464515686E0
2.249250078E0,5.954561234E0,-7.589851379E0,-3.521978140E0
2.251249844E0,5.877944469E0,-7.678439140E0,-3.553103924E0
2.253249610E0,5.837242126E0,-7.721536160E0,-3.557892323E0
2.255249376E0,5.786962032E0,-7.781393051E0,-3.536343813E0
2.257249142E0,5.746259689E0,-7.800547123E0,-3.562680960E0
2.259248975E0,5.724710941E0,-7.814912796E0,-3.586623669E0
2.261248841E0,5.703162670E0,-7.824490070E0,-3.641691923E0
2.263248707E0,5.695979595E0,-7.826884270E0,-3.701548815E0
2.265248573E0,5.693585396E0,-7.819701672E0,-3.845205307E0
2.267248439E0,5.746259689E0,-7.800547123E0,-4.058295727E0
2.269248305E0,5.760625362E0,-7.805335999E0,-4.168432236E0
2.271248171E0,5.794145107E0,-7.795758724E0,-4.340820312E0
2.273248037E0,5.827664852E0,-7.762238979E0,-4.472505569E0
2.275247970E0,5.827664852E0,-7.759844780E0,-4.544333458E0
2.277247903E0,5.976109982E0,-7.769421577E0,-4.630527496E0
2.279247936E0,6.069486618E0,-7.860404015E0,-4.680807114E0
2.281247869E0,6.071880817E0,-7.929838181E0,-4.702355862E0
2.283247802E0,6.074275017E0,-8.085466385E0,-4.769395351E0
2.285247735E0,6.107795238E0,-8.260248184E0,-4.850800991E0
2.287247668E0,6.105400562E0,-8.492492676E0,-4.939388752E0
2.289247601E0,6.107795238E0,-8.626572609E0,-4.984879971E0
2.291247601E0,6.160469055E0,-8.942616463E0,-5.106987953E0
2.293247567E0,6.193988800E0,-9.117398262E0,-5.188393593E0
2.295247533E0,6.258634567E0,-9.483722687E0,-5.339232922E0
2.297247499E0,6.378347874E0,-9.873989105E0,-5.487678051E0
2.299247465E0,6.447782040E0,-1.006553173E1,-5.554717541E0
2.301247431E0,6.653689861E0,-1.047495270E1,-5.741470814E0
2.303247397E0,6.881145954E0,-1.070001411E1,-6.021601200E0
2.305247397E0,6.988888264E0,-1.119802284E1,-6.201171875E0
2.307247397E0,7.228315830E0,-1.177025509E1,-6.684815407E0
2.309247363E0,7.367183685E0,-1.206953907E1,-6.962551117E0
2.311247329E0,7.695199013E0,-1.266092491E1,-7.479714394E0
2.313247295E0,8.028003693E0,-1.327385998E1,-7.987300873E0
2.315247261E0,8.212362289E0,-1.358272076E1,-8.236305237E0
2.317247227E0,8.619389534E0,-1.421480942E1,-8.662486076E0
2.319247193E0,9.026415825E0,-1.481337833E1,-9.004867554E0
2.321247126E0,9.179649353E0,-1.513181686E1,-9.148524284E0
2.323247059E0,9.464568138E0,-1.579263687E1,-9.404711723E0
2.325246992E0,9.742303848E0,-1.636965752E1,-9.596253395E0
2.327246925E0,9.933846474E0,-1.687963676E1,-9.742303848E0
2.329246858E0,1.001525116E1,-1.708794022E1,-9.754275322E0
2.331246791E0,1.012538815E1,-1.745186996E1,-9.634561539E0
2.333246724E0,1.017566776E1,-1.759073639E1,-9.577098846E0
2.335246657E0,1.035763264E1,-1.786847305E1,-9.682447433E0
2.337246590E0,1.066649437E1,-1.814620972E1,-9.715967178E0
2.339246356E0,1.085085297E1,-1.825395203E1,-9.617801666E0
2.341246222E0,1.106633854E1,-1.842394447E1,-9.160495758E0
2.343246088E0,1.124112034E1,-1.858436012E1,-8.494887352E0
2.345245954E0,1.127942848E1,-1.865379524E1,-8.085466385E0
2.347245820E0,1.127703476E1,-1.880224037E1,-6.680026531E0
2.349245686E0,1.122675419E1,-1.880224037E1,-6.227508545E0
2.351245552E0,1.115253162E1,-1.879745102E1,-5.794145107E0
2.353245452E0,1.087000751E1,-1.875196075E1,-4.963331699E0
2.355245285E0,1.070001411E1,-1.869449806E1,-4.592218876E0
2.357245118E0,1.040551853E1,-1.850295639E1,-3.950553417E0
2.359244951E0,1.017566776E1,-1.810790062E1,-3.390293121E0
2.361244784E0,1.003919411E1,-1.788523293E1,-3.114951611E0
2.363244617E0,9.723150253E0,-1.740398407E1,-2.600182533E0
2.365244450E0,9.428654671E0,-1.688681984E1,-2.166818619E0
2.367244283E0,9.280209541E0,-1.661866188E1,-2.027950764E0
2.369244149E0,9.050358772E0,-1.603924751E1,-1.836408734E0
2.371243949E0,8.904308319E0,-1.554842091E1,-1.810071707E0
2.373243749E0,8.856422424E0,-1.532575321E1,-1.802888989E0
2.375243549E0,8.719948769E0,-1.490196609E1,-1.755003452E0
2.377243349E0,8.435029984E0,-1.458352757E1,-1.826831698E0
2.379243182E0,8.190814018E0,-1.445663166E1,-1.855562925E0
2.381242982E0,7.659285069E0,-1.427706051E1,-2.011190891E0
2.383242782E0,7.154093266E0,-1.410706711E1,-2.286532402E0
2.385242582E0,6.996070862E0,-1.399214172E1,-2.463708878E0
2.387242315E0,6.792557716E0,-1.368567467E1,-2.846792698E0
2.389242081E0,6.644112587E0,-1.337202454E1,-3.232270956E0
2.391241814E0,6.557918549E0,-1.321879101E1,-3.397475958E0
2.393241547E0,6.433416367E0,-1.287880421E1,-3.708731651E0
2.395241280E0,6.517216206E0,-1.264895344E1,-3.988861799E0
2.397241013E0,6.596227169E0,-1.213418484E1,-4.075055599E0
2.399240813E0,6.830865860E0,-1.155716419E1,-4.237866402E0
2.401240613E0,6.952973843E0,-1.126985168E1,-4.326454639E0
2.403240346E0,7.194795609E0,-1.074550533E1,-4.434196949E0
2.405240079E0,7.410280704E0,-1.017566776E1,-4.436591148E0
2.407239812E0,7.601822376E0,-9.577098846E0,-4.362368584E0
2.409239545E0,7.652102470E0,-9.328094482E0,-4.304905891E0
2.411239278E0,7.544359684E0,-8.889942169E0,-4.127729893E0
2.413239011E0,7.453377247E0,-8.681640625E0,-4.029564381E0
2.415238811E0,7.223526955E0,-8.269824982E0,-3.818868399E0
2.417238544E0,6.984099388E0,-7.790970325E0,-3.572257996E0
2.419238277E0,6.806923389E0,-7.577879906E0,-3.447755814E0
2.421238010E0,6.421444893E0,-7.154093266E0,-3.205934048E0
2.423237743E0,6.038361073E0,-6.912271500E0,-2.918621063E0
2.425237476E0,5.873156071E0,-6.727912426E0,-2.770175934E0
2.427237209E0,5.573871613E0,-6.153286457E0,-2.475680113E0
2.429236942E0,5.142902374E0,-5.705556870E0,-2.224281311E0
2.431236742E0,4.948966026E0,-5.487678051E0,-2.130904675E0
2.433236475E0,4.573064804E0,-5.023188591E0,-1.944151163E0
2.435236208E0,4.161249638E0,-4.714327335E0,-1.826831698E0
2.437235941E0,3.936187744E0,-4.589824677E0,-1.786128998E0
2.439235641E0,3.478881359E0,-4.343214512E0,-1.728666425E0
2.441235374E0,2.992843628E0,-4.209135056E0,-1.697540879E0
2.443235107E0,2.796513081E0,-3.912245035E0,-1.685569525E0
2.445234840E0,2.468497276E0,-3.562680960E0,-1.714300752E0
2.447234640E0,2.274561167E0,-3.445361376E0,-1.759791970E0
2.449234340E0,1.843591571E0,-3.256213665E0,-1.872322917E0
2.451234073E0,1.482056141E0,-3.100585938E0,-2.001613855E0
2.453233806E0,1.324033976E0,-3.057488918E0,-2.075836182E0
2.455233539E0,1.041509509E0,-2.968900681E0,-2.219492674E0
2.457233272E0,7.470137477E-1,-2.868341208E0,-2.245829821E0
2.459233005E0,6.105400920E-1,-2.818061352E0,-2.248224020E0
2.461232738E0,4.070267081E-1,-2.734261751E0,-2.253012657E0
2.463232538E0,9.577099234E-2,-2.621730804E0,-2.197944164E0
2.465232271E0,-6.943397224E-2,-2.564268351E0,-2.169213057E0
2.467232004E0,-4.644893110E-1,-2.423006058E0,-2.142875910E0
2.469231737E0,-5.770202279E-1,-2.375120640E0,-2.135693073E0
2.471231470E0,-6.751855016E-1,-2.324840784E0,-2.121327400E0
2.473231203E0,-8.763045669E-1,-2.231464148E0,-2.087807655E0
2.475230936E0,-9.505270720E-1,-2.164424419E0,-2.071047783E0
2.477230736E0,-9.816526771E-1,-2.114144564E0,-2.049499273E0
2.479230536E0,-1.034326673E0,-2.039922237E0,-2.001613855E0
2.481230269E0,-1.067846537E0,-1.982459545E0,-1.958516836E0
2.483230002E0,-1.065452337E0,-1.960911036E0,-1.936968327E0
2.485229735E0,-1.036720991E0,-1.920208454E0,-1.881899953E0
2.487229468E0,-9.601042271E-1,-1.913025618E0,-1.836408734E0
2.489229201E0,-9.002473354E-1,-1.922602654E0,-1.817254543E0
2.491228934E0,-7.757450342E-1,-1.953728199E0,-1.762186289E0
2.493228734E0,-7.063110471E-1,-1.992036581E0,-1.731060743E0
2.495228467E0,-5.554717779E-1,-2.073441982E0,-1.644866824E0
2.497228200E0,-4.142095447E-1,-2.171607256E0,-1.556278586E0
2.499227933E0,-3.375927508E-1,-2.236252785E0,-1.505998850E0
2.501227666E0,-1.915419847E-1,-2.343995094E0,-1.429382086E0
2.503227399E0,-5.506832153E-2,-2.449343204E0,-1.333611012E0
2.505227132E0,7.182824425E-3,-2.521171331E0,-1.280937076E0
2.507226865E0,1.388679445E-1,-2.640885115E0,-1.161223292E0
2.509226665E0,2.418217510E-1,-2.760598898E0,-1.063058019E0
2.511226398E0,2.921015322E-1,-2.822849989E0,-1.005595446E0
2.513226131E0,3.782954216E-1,-2.928198099E0,-8.810931444E-1
2.515225864E0,4.668835998E-1,-3.033546209E0,-7.948992252E-1
2.517225597E0,5.075862408E-1,-3.081431627E0,-7.494080067E-1
2.519225330E0,5.387118459E-1,-3.213116884E0,-6.536370516E-1
2.521225063E0,5.363175869E-1,-3.318464994E0,-5.746259689E-1
2.523224796E0,5.387118459E-1,-3.383110285E0,-5.578660369E-1
2.525224596E0,5.411061049E-1,-3.517189741E0,-5.267404318E-1
2.527224329E0,4.932205975E-1,-3.632114887E0,-5.339232683E-1
2.529224062E0,4.620950520E-1,-3.687183142E0,-5.411061049E-1
2.531223795E0,3.902668059E-1,-3.790137053E0,-5.458946824E-1
2.533223528E0,3.160442710E-1,-3.821262598E0,-5.530774593E-1
2.535223261E0,2.609759569E-1,-3.857176781E0,-5.961744189E-1
2.537222994E0,1.867534369E-1,-3.845205307E0,-6.727912426E-1
2.539222727E0,1.508393139E-1,-3.849993944E0,-7.302538157E-1
2.541222527E0,7.182824612E-2,-3.883513689E0,-8.427847624E-1
2.543222260E0,2.873129770E-2,-3.888302326E0,-9.624984860E-1
2.545221993E0,2.394274808E-2,-3.893090725E0,-1.024749637E0
2.547221726E0,-1.197137404E-2,-3.864359617E0,-1.166011810E0
2.549221459E0,-3.830839694E-2,-3.852388144E0,-1.297696948E0
2.551221192E0,-2.633702382E-2,-3.833234072E0,-1.364736676E0
2.553220925E0,7.182824425E-3,-3.802108288E0,-1.532335877E0
2.555220725E0,5.267404765E-2,-3.744645834E0,-1.675992370E0
2.557220525E0,8.379961550E-2,-3.713520288E0,-1.747820616E0
2.559220258E0,1.388679445E-1,-3.677606106E0,-1.877111435E0
2.561219991E0,2.274561077E-1,-3.660846233E0,-1.982459545E0
2.563219724E0,2.992843390E-1,-3.641691923E0,-2.030344963E0
2.565219457E0,4.357580245E-1,-3.624932051E0,-2.114144564E0
2.567219190E0,5.746259689E-1,-3.651269197E0,-2.233858347E0
2.569218923E0,6.320885420E-1,-3.687183142E0,-2.296109438E0
2.571218723E0,7.254652381E-1,-3.775771379E0,-2.387091875E0
2.573218456E0,7.901107073E-1,-3.893090725E0,-2.490045786E0
2.575218189E0,8.188419938E-1,-3.979284763E0,-2.545114040E0
2.577217922E0,9.289786220E-1,-4.072661400E0,-2.636096478E0
2.579217655E0,1.046298146E0,-4.110970020E0,-2.693559170E0
2.581217388E0,1.101366401E0,-4.230683804E0,-2.834821463E0
2.583217121E0,1.213897347E0,-4.324060440E0,-2.961717844E0
2.585216854E0,1.266571403E0,-4.364762783E0,-3.043123245E0
2.587216654E0,1.434170604E0,-4.508419514E0,-3.349590540E0
2.589216387E0,1.505998850E0,-4.541939259E0,-3.454938650E0
2.591216120E0,1.570644259E0,-4.580247879E0,-3.577046633E0
2.593215853E0,1.697540879E0,-4.637710094E0,-3.854782343E0
2.595215586E0,1.812466025E0,-4.690384388E0,-4.156461239E0
2.597215319E0,1.874717116E0,-4.711932659E0,-4.312088966E0
2.599215052E0,2.054287672E0,-4.743058205E0,-4.616161823E0
2.601214785E0,2.205127001E0,-4.759818554E0,-4.884320736E0
2.603214585E0,2.298503876E0,-4.759818554E0,-5.006428719E0
2.605214318E0,2.482862949E0,-4.778972626E0,-5.288952827E0
2.607214051E0,2.703136206E0,-4.805309772E0,-5.566689014E0
2.609213784E0,2.810878515E0,-4.817280769E0,-5.707951069E0
2.611213517E0,3.043123245E0,-4.822069645E0,-5.956955910E0
2.613213250E0,3.280156374E0,-4.879531860E0,-6.222720146E0
2.615212983E0,3.397475958E0,-4.934600353E0,-6.335251331E0
2.617212716E0,3.598595142E0,-5.049525738E0,-6.538764477E0
2.619212516E0,3.763799906E0,-5.214730740E0,-6.684815407E0
2.621212249E0,3.859570980E0,-5.305713177E0,-6.737489223E0
2.623211982E0,4.084632874E0,-5.468523502E0,-6.799740314E0
2.625211715E0,4.336031914E0,-5.528380394E0,-6.802134514E0
2.627211448E0,4.472505569E0,-5.652883053E0,-6.804529190E0
2.629211181E0,4.781366825E0,-5.822876453E0,-6.797346115E0
2.631210914E0,4.939388752E0,-5.918647289E0,-6.780586243E0
2.633210714E0,5.250644684E0,-6.124555111E0,-6.744672298E0
2.635210514E0,5.569083214E0,-6.426233768E0,-6.656084061E0
2.637210247E0,5.760625362E0,-6.598621368E0,-6.593832970E0
2.639209980E0,6.160469055E0,-6.967339516E0,-6.462147713E0
2.641209713E0,6.680026531E0,-7.259441376E0,-6.308914185E0
2.643209446E0,7.005648136E0,-7.345634937E0,-6.225114346E0
2.645209179E0,7.644919395E0,-7.489291668E0,-6.098217964E0
2.647208912E0,8.473338127E0,-7.644919395E0,-5.968926907E0
2.649208712E0,8.473338127E0,-7.733507633E0,-5.968926907E0
2.651208512E0,9.091061592E0,-7.975329399E0,-5.832453251E0
2.653208245E0,9.802161217E0,-8.284191132E0,-5.566689014E0
2.655207978E0,1.013257122E1,-8.425453186E0,-5.401484013E0
2.657207711E0,1.064015770E1,-8.667274475E0,-4.999245644E0
2.659207444E0,1.093704700E1,-8.885153770E0,-4.563488007E0
2.661207177E0,1.102802944E1,-8.983319283E0,-4.350397110E0
2.663206910E0,1.111661816E1,-9.138946533E0,-3.972101927E0
2.665206710E0,1.102324104E1,-9.222746849E0,-3.668029070E0
2.667206443E0,1.093944168E1,-9.217958450E0,-3.536343813E0
2.669206176E0,1.076226521E1,-9.177255630E0,-3.335224867E0
2.671205909E0,1.054199219E1,-9.155706406E0,-3.241847992E0
2.673205642E0,1.043185520E1,-9.081484795E0,-3.038334846E0
2.675205375E0,1.019721603E1,-8.925856590E0,-2.851581335E0
2.677205108E0,1.006553173E1,-8.820508003E0,-2.743839025E0
2.679204841E0,9.761458397E0,-8.576292038E0,-2.590605259E0
2.681204641E0,9.409500122E0,-8.329682350E0,-2.485257149E0
2.683204374E0,9.198803902E0,-8.193208694E0,-2.470891714E0
2.685204107E0,8.729525566E0,-7.946598053E0,-2.511594296E0
2.687203840E0,8.197997093E0,-7.699987888E0,-2.566662550E0
2.689203573E0,7.889135361E0,-7.577879906E0,-2.588211060E0
2.691203306E0,7.223526955E0,-7.345634937E0,-2.597788095E0
2.693203039E0,6.636929989E0,-7.096630573E0,-2.633702278E0
2.695202772E0,6.363982677E0,-6.972128391E0,-2.660039425E0
2.697202572E0,5.808510780E0,-6.742278099E0,-2.691164970E0
2.699202305E0,5.305713177E0,-6.517216206E0,-2.734261751E0
2.701202038E0,5.073468208E0,-6.407079220E0,-2.746233225E0
2.703201771E0,4.613767624E0,-6.220325947E0,-2.813272953E0
2.705201504E0,4.166038036E0,-6.047938347E0,-2.853975534E0
2.707201237E0,3.759011507E0,-5.892310143E0,-2.894678354E0
2.709200970E0,3.555498123E0,-5.822876453E0,-2.904255390E0
2.711200703E0,3.158048391E0,-5.710345268E0,-2.959323645E0
2.713200503E0,2.964112282E0,-5.650488377E0,-2.985660791E0
2.715200236E0,2.571451187E0,-5.540351868E0,-3.009603500E0
2.717199969E0,2.183578730E0,-5.494860649E0,-3.050306082E0
2.719199702E0,1.999219418E0,-5.478100777E0,-3.177202702E0
2.721199435E0,1.654443860E0,-5.581054688E0,-3.359167576E0
2.723199168E0,1.498816013E0,-5.650488377E0,-3.423812866E0
2.725198901E0,1.201925993E0,-5.794145107E0,-3.519583941E0
2.727198701E0,9.146129489E-1,-5.899493217E0,-3.691971779E0
2.729198501E0,8.116591573E-1,-5.971321583E0,-3.782954216E0
2.731198267E0,7.039167881E-1,-6.220325947E0,-4.041535854E0
2.733198033E0,7.015225291E-1,-6.608198643E0,-4.292934895E0
2.735197799E0,6.703969240E-1,-6.869174480E0,-4.381523132E0
2.737197565E0,4.405465722E-1,-7.527599812E0,-4.371945858E0
2.739197331E0,5.267404765E-2,-8.303344727E0,-3.933793545E0
2.741197097E0,-1.364736706E-1,-8.710371971E0,-3.591412306E0
2.743196930E0,-4.022381604E-1,-9.543579102E0,-2.753416061E0
2.745196696E0,-4.812492430E-1,-1.040312386E1,-1.956122518E0
2.747196462E0,-4.237866402E-1,-1.083169937E1,-1.671203852E0
2.749196228E0,-1.149251908E-1,-1.167208958E1,-1.450930476E0
2.751195994E0,4.501236677E-1,-1.248614311E1,-1.841197371E0
2.753195760E0,8.020820618E-1,-1.290514088E1,-2.229069948E0
2.755195526E0,1.539518714E0,-1.378862858E1,-3.275367975E0
2.757195292E0,2.197944164E0,-1.478225231E1,-4.520390987E0
2.759195125E0,2.487651587E0,-1.529223347E1,-5.159662247E0
2.761194891E0,3.011997700E0,-1.636008072E1,-6.392713547E0
2.763194657E0,3.272973776E0,-1.692033958E1,-6.941002846E0
2.765194423E0,3.802108288E0,-1.804325485E1,-7.656890869E0
2.767194189E0,4.649681568E0,-1.959953308E1,-7.649707794E0
2.769193955E0,4.649681568E0,-1.959953308E1,-7.649707794E0
2.771193721E0,5.104593754E0,-2.059076309E1,-7.151699066E0
2.773193487E0,5.478100777E0,-2.143594170E1,-6.498061657E0
2.775193320E0,5.600208759E0,-2.178071785E1,-6.093429565E0
2.777193086E0,5.667248249E0,-2.224281311E1,-5.059102535E0
2.779192852E0,5.597814560E0,-2.238168144E1,-3.759011507E0
2.781192618E0,5.533169270E0,-2.232182312E1,-3.110162973E0
2.783192384E0,5.439792156E0,-2.198901939E1,-2.190761566E0
2.785192150E0,5.391906738E0,-2.129707527E1,-2.121327400E0
2.787191916E0,5.391906738E0,-2.088525963E1,-2.403851986E0
2.789191682E0,5.494860649E0,-1.984853745E1,-3.476486921E0
2.791191482E0,5.810904980E0,-1.869449806E1,-4.853195190E0
2.793191215E0,6.019207001E0,-1.815099716E1,-5.521197796E0
2.795190948E0,6.529187202E0,-1.723398972E1,-6.610592842E0
2.797190681E0,7.173247337E0,-1.646542740E1,-7.180429935E0
2.799190414E0,7.556331158E0,-1.615896034E1,-7.213950157E0
2.801190147E0,8.401510239E0,-1.572799110E1,-6.785374641E0
2.803189880E0,9.342460632E0,-1.545504379E1,-5.657671452E0
2.805189680E0,9.802161217E0,-1.540955257E1,-4.927417755E0
2.807189480E0,1.070959091E1,-1.548377514E1,-3.354378939E0
2.809189213E0,1.111661816E1,-1.555320930E1,-2.628913641E0
2.811188946E0,1.164814663E1,-1.580221367E1,-1.544307232E0
2.813188679E0,1.182532310E1,-1.622121239E1,-1.003201127E0
2.815188412E0,1.177983189E1,-1.653725624E1,-9.553156495E-1
2.817188145E0,1.154758739E1,-1.717652702E1,-1.101366401E0
2.819187878E0,1.120281219E1,-1.755721664E1,-1.201925993E0
2.821187678E0,1.098253822E1,-1.764580536E1,-1.158828974E0
2.823187411E0,1.059945488E1,-1.749975395E1,-8.308133483E-1
2.825187144E0,1.029538155E1,-1.694188881E1,-3.711125851E-1
2.827186877E0,9.986519814E0,-1.607037163E1,4.070267081E-2
2.829186610E0,9.845257759E0,-1.550771809E1,2.011190802E-1
2.831186343E0,9.474145889E0,-1.430579185E1,4.740664065E-1
2.833186076E0,9.304151535E0,-1.367609787E1,5.554717779E-1
2.835185809E0,8.892336845E0,-1.246220016E1,6.943396926E-1
2.837185609E0,8.451789856E0,-1.134407425E1,8.595446348E-1
2.839185342E0,8.214756966E0,-1.088437366E1,9.624984860E-1
2.841185075E0,7.668862343E0,-1.006792545E1,1.185166001E0
2.843184808E0,6.986494064E0,-9.445414543E0,1.321639657E0
2.845184541E0,6.644112587E0,-9.179649353E0,1.343188167E0
2.847184274E0,5.988081455E0,-8.686429024E0,1.324033976E0
2.849184007E0,5.490072250E0,-8.509252548E0,1.211503029E0
2.851183740E0,5.305713177E0,-8.176448822E0,1.118126392E0
2.853183540E0,5.073468208E0,-7.951386452E0,8.691217303E-1
2.855183273E0,5.037554264E0,-7.893924236E0,7.039167881E-1
2.857183006E0,5.068679810E0,-7.834067345E0,3.759011328E-1
2.859182739E0,5.166844845E0,-7.788576126E0,-5.746259540E-2
2.861182472E0,5.214730740E0,-7.795758724E0,-3.184385598E-1
2.863182205E0,5.288952827E0,-7.891529560E0,-8.786988258E-1
2.865181938E0,5.372752666E0,-8.071100235E0,-1.563461423E0
2.867181671E0,5.542746067E0,-8.322499275E0,-2.188367128E0
2.869181471E0,5.645699978E0,-8.461367607E0,-2.446948767E0
2.871181204E0,5.846818924E0,-8.693612099E0,-2.808484316E0
2.873180937E0,5.944984436E0,-8.796566010E0,-2.935380936E0
2.875180670E0,6.193988800E0,-8.988107681E0,-3.129317284E0
2.877180403E0,6.486090660E0,-9.138946533E0,-3.186779737E0
2.879180136E0,6.644112587E0,-9.198803902E0,-3.165231228E0
2.881179869E0,6.962551117E0,-9.328094482E0,-3.009603500E0
2.883179669E0,7.194795609E0,-9.447808266E0,-2.674404860E0
2.885179469E0,7.292961121E0,-9.486116409E0,-2.458920240E0
2.887179202E0,7.496474266E0,-9.589070320E0,-1.635289669E0
2.889178935E0,7.544359684E0,-9.591464996E0,-1.338399649E0
2.891178668E0,7.589851379E0,-9.586676598E0,-1.041509509E0
2.893178368E0,7.587456703E0,-9.562733650E0,-5.506832004E-1
2.895178101E0,7.541965485E0,-9.534002304E0,-2.011190802E-1
2.897177834E0,7.501263142E0,-9.447808266E0,-9.577099234E-2
2.899177634E0,7.383943558E0,-9.342460632E0,7.182824425E-3
2.901177434E0,7.314509392E0,-9.292180061E0,-2.394274808E-3
2.903177167E0,7.103813171E0,-9.186832428E0,-1.149251908E-1
2.905176900E0,6.835654736E0,-9.062330246E0,-2.897072434E-1
2.907176633E0,6.689603806E0,-9.014444351E0,-4.046324492E-1
2.909176366E0,6.371165276E0,-8.925856590E0,-6.680026650E-1
2.911176099E0,6.035966873E0,-8.825297356E0,-9.433442950E-1
2.913175832E0,5.875550270E0,-8.770228386E0,-1.055875182E0
2.915175632E0,5.602602959E0,-8.662486076E0,-1.254600048E0
2.917175365E0,5.329655647E0,-8.533195496E0,-1.393467903E0
2.919175098E0,5.207547665E0,-8.463761330E0,-1.426987767E0
2.921174831E0,5.016005516E0,-8.308133125E0,-1.465296149E0
2.923174564E0,4.846012115E0,-8.154899597E0,-1.438959122E0
2.925174297E0,4.767001152E0,-8.068706512E0,-1.400650740E0
2.927174030E0,4.659258842E0,-7.891529560E0,-1.352765322E0
2.929173763E0,4.546727657E0,-7.731113434E0,-1.333611012E0
2.931173563E0,4.508419514E0,-7.640130997E0,-1.331216812E0
2.933173296E0,4.412648678E0,-7.479714394E0,-1.352765322E0
2.935173029E0,4.336031914E0,-7.336058140E0,-1.410227895E0
2.937172762E0,4.292934895E0,-7.278595448E0,-1.453324795E0
2.939172495E0,4.216318130E0,-7.139727592E0,-1.539518714E0
2.941172228E0,4.151672363E0,-7.072687626E0,-1.687963724E0
2.943171961E0,4.137306690E0,-6.952973843E0,-1.788523316E0
2.945171694E0,4.110970020E0,-6.826077461E0,-1.970488191E0
2.947171494E0,4.108575344E0,-6.737489223E0,-2.183578730E0
2.949171427E0,4.106181145E0,-6.689603806E0,-2.296109438E0
2.951171160E0,4.122941017E0,-6.622564316E0,-2.494834423E0
2.953170926E0,4.144489765E0,-6.589044094E0,-2.571451187E0
2.955170659E0,4.218712330E0,-6.450176239E0,-2.722290516E0
2.957170392E0,4.280963421E0,-6.354405403E0,-2.851581335E0
2.959170125E0,4.321666241E0,-6.320885658E0,-2.921015263E0
2.961169858E0,4.400677204E0,-6.244268894E0,-3.059883118E0
2.963169658E0,4.539545059E0,-6.148497581E0,-3.165231228E0
2.965169391E0,4.613767624E0,-6.103006363E0,-3.196356773E0
2.967169124E0,4.757423878E0,-5.995264053E0,-3.272973776E0
2.969168857E0,4.917840481E0,-5.868367672E0,-3.349590540E0
2.971168590E0,4.984879971E0,-5.822876453E0,-3.390293121E0
2.973168323E0,5.083045483E0,-5.753442287E0,-3.462121487E0
2.975168056E0,5.181210518E0,-5.679219723E0,-3.529160976E0
2.977167856E0,5.233884811E0,-5.645699978E0,-3.560286522E0
2.979167656E0,5.336838722E0,-5.604997158E0,-3.615355015E0
2.981167389E0,5.415849686E0,-5.607391834E0,-3.663240433E0
2.983167122E0,5.425426483E0,-5.624151707E0,-3.680000305E0
2.985166855E0,5.442186832E0,-5.648094177E0,-3.742251635E0
2.987166588E0,5.458946705E0,-5.657671452E0,-3.778165579E0
2.989166321E0,5.456552505E0,-5.748653889E0,-3.804502726E0
2.991166054E0,5.458946705E0,-5.779779434E0,-3.849993944E0
2.993165854E0,5.466129303E0,-5.786962032E0,-3.854782343E0
2.995165587E0,5.427821159E0,-5.801327705E0,-3.845205307E0
2.997165320E0,5.403878212E0,-5.777385235E0,-3.818868399E0
2.999165053E0,5.355992794E0,-5.786962032E0,-3.816473961E0
3.001164786E0,5.262616158E0,-5.810904980E0,-3.770982742E0
3.003164519E0,5.190787792E0,-5.815693378E0,-3.737462997E0
3.005164252E0,5.150084972E0,-5.813299179E0,-3.720703125E0
3.007163985E0,5.023188591E0,-5.854001999E0,-3.706337452E0
3.009163585E0,4.987274647E0,-5.868367672E0,-3.730280161E0
3.011163318E0,4.953754425E0,-5.846818924E0,-3.763799906E0
3.013163051E0,4.867560863E0,-5.803721905E0,-3.838022470E0
3.015162784E0,4.774183750E0,-5.755836487E0,-3.917033672E0
3.017162517E0,4.714327335E0,-5.731894016E0,-3.950553417E0
3.019162250E0,4.594613552E0,-5.669642925E0,-4.024775982E0
3.021161983E0,4.489265442E0,-5.614574432E0,-4.077449799E0
3.023161716E0,4.424619675E0,-5.583448887E0,-4.108575344E0
3.025161516E0,4.266597748E0,-5.504437923E0,-4.154066563E0
3.027161249E0,4.122941017E0,-5.423032284E0,-4.197163582E0
3.029160982E0,4.046324253E0,-5.382329941E0,-4.218712330E0
3.031160715E0,3.893090725E0,-5.291347504E0,-4.230683804E0
3.033160448E0,3.768588543E0,-5.243461609E0,-4.223500729E0
3.035160181E0,3.691971779E0,-5.068679810E0,-4.221106529E0
3.037159914E0,3.536343813E0,-4.889109135E0,-4.228289127E0
3.039159647E0,3.469304085E0,-4.795732498E0,-4.240260601E0
3.041159447E0,3.342407703E0,-4.652075768E0,-4.300117493E0
3.043159180E0,3.232270956E0,-4.486870766E0,-4.328848839E0
3.045158913E0,3.177202702E0,-4.395888329E0,-4.348002911E0
3.047158646E0,3.071854591E0,-4.271386147E0,-4.362368584E0
3.049158379E0,2.997632027E0,-4.187586784E0,-4.345608711E0
3.051158112E0,2.959323645E0,-4.142095566E0,-4.312088966E0
3.053157845E0,2.880312681E0,-4.082238674E0,-4.218712330E0
3.055157645E0,2.820455790E0,-4.046324253E0,-4.084632874E0
3.057157445E0,2.796513081E0,-4.046324253E0,-4.019987583E0
3.059157178E0,2.751021862E0,-4.070267200E0,-3.924216509E0
3.061156911E0,2.712713242E0,-4.113364220E0,-3.876330853E0
3.063156644E0,2.722290516E0,-4.139701366E0,-3.890696526E0
3.065156477E0,2.765387297E0,-4.166038036E0,-3.952947617E0
3.067156210E0,2.808484316E0,-4.228289127E0,-4.065478802E0
3.069156043E0,2.839609861E0,-4.276175022E0,-4.118152618E0
3.071155843E0,2.846792698E0,-4.379128456E0,-4.254626274E0
3.073155576E0,2.849187136E0,-4.472505569E0,-4.417437077E0
3.075155309E0,2.842004299E0,-4.515602112E0,-4.472505569E0
3.077155042E0,2.822849989E0,-4.573064804E0,-4.549122334E0
3.079154775E0,2.777358770E0,-4.577853203E0,-4.558699131E0
3.081154508E0,2.751021862E0,-4.582642078E0,-4.525179386E0
3.083154241E0,2.698347807E0,-4.577853203E0,-4.383917332E0
3.085153974E0,2.686376333E0,-4.575459003E0,-4.271386147E0
3.087153774E0,2.698347807E0,-4.553910732E0,-3.996044636E0
3.089153507E0,2.688770533E0,-4.517996788E0,-3.608172178E0
3.091153240E0,2.703136206E0,-4.496448040E0,-3.392687321E0
3.093152973E0,2.724684715E0,-4.424619675E0,-2.971295118E0
3.095152706E0,2.762993097E0,-4.376734257E0,-2.588211060E0
3.097152439E0,2.786935806E0,-4.357580185E0,-2.425400496E0
3.099152172E0,2.794118643E0,-4.309694767E0,-2.154847383E0
3.101151905E0,2.789330244E0,-4.268991947E0,-1.927391171E0
3.103151705E0,2.784541607E0,-4.240260601E0,-1.824437380E0
3.105151438E0,2.758204460E0,-4.213923454E0,-1.628106833E0
3.107151171E0,2.739050388E0,-4.185192585E0,-1.417410731E0
3.109150904E0,2.739050388E0,-4.168432236E0,-1.300091267E0
3.111150637E0,2.746233225E0,-4.163643837E0,-1.108549237E0
3.113150370E0,2.755810261E0,-4.158855438E0,-9.577099085E-1
3.115150103E0,2.770175934E0,-4.151672363E0,-9.098244309E-1
3.117149836E0,2.830032825E0,-4.146883965E0,-8.763045669E-1
3.119149636E0,2.949746609E0,-4.161249638E0,-9.265843630E-1
3.121149402E0,3.028757572E0,-4.173221111E0,-9.577099085E-1
3.123149168E0,3.227482557E0,-4.213923454E0,-1.048692346E0
3.125148834E0,3.450150013E0,-4.247443676E0,-1.189954638E0
3.127148600E0,3.708731651E0,-4.352791786E0,-1.362342358E0
3.129148266E0,3.835628271E0,-4.400677204E0,-1.453324795E0
3.131148032E0,3.964919090E0,-4.455745220E0,-1.544307232E0
3.133147865E0,4.209135056E0,-4.573064804E0,-1.695146561E0
3.135147698E0,4.434196949E0,-4.707144260E0,-1.877111435E0
3.137147464E0,4.563488007E0,-4.767001152E0,-1.984853864E0
3.139147230E0,4.850800991E0,-4.917840481E0,-2.217098475E0
3.141146996E0,5.106987953E0,-5.085439682E0,-2.470891714E0
3.143146762E0,5.229096413E0,-5.174027920E0,-2.597788095E0
3.145146528E0,5.449369431E0,-5.365570068E0,-2.863552570E0
3.147146294E0,5.602602959E0,-5.595420361E0,-3.162837029E0
3.149146127E0,5.645699978E0,-5.715134144E0,-3.340013266E0
3.151145960E0,5.724710941E0,-6.009629726E0,-3.699154615E0
3.153145726E0,5.729499817E0,-6.328068256E0,-3.998438835E0
3.155145492E0,5.712739468E0,-6.488484859E0,-4.127729893E0
3.157145258E0,5.681613922E0,-6.826077461E0,-4.316877365E0
3.159145024E0,5.621757030E0,-7.144515991E0,-4.398283005E0
3.161144790E0,5.559505939E0,-7.307326794E0,-4.391099930E0
3.163144556E0,5.411061287E0,-7.647313595E0,-4.292934895E0
3.165144389E0,5.284164429E0,-7.944203854E0,-4.142095566E0
3.167144155E0,5.217124939E0,-8.085466385E0,-4.067873001E0
3.169143921E0,5.104593754E0,-8.353624344E0,-3.907456398E0
3.171143687E0,5.016005516E0,-8.470944405E0,-3.756617069E0
3.173143453E0,4.960937500E0,-8.705583572E0,-3.706337452E0
3.175143219E0,4.850800991E0,-8.911490440E0,-3.689577579E0
3.177142985E0,4.788549423E0,-9.007262230E0,-3.706337452E0
3.179142751E0,4.690384388E0,-9.155706406E0,-3.689577579E0
3.181142551E0,4.652075768E0,-9.237112045E0,-3.682394743E0
3.183142284E0,4.649681568E0,-9.275420189E0,-3.651269197E0
3.185142017E0,4.721509933E0,-9.352037430E0,-3.596200705E0
3.187141750E0,4.886714935E0,-9.529213905E0,-3.514795303E0
3.189141483E0,4.886714935E0,-9.529213905E0,-3.514795303E0
3.191141216E0,5.030371189E0,-9.617801666E0,-3.555498123E0
3.193140949E0,5.284164429E0,-9.660899162E0,-3.730280161E0
3.195140682E0,5.415849686E0,-9.672870636E0,-3.878725290E0
3.197140482E0,5.695979595E0,-9.711178780E0,-4.264203548E0
3.199140215E0,5.925830364E0,-9.751881599E0,-4.719115734E0
3.201139948E0,6.014418125E0,-9.792584419E0,-4.946571827E0
3.203139681E0,6.172440529E0,-9.907508850E0,-5.358386993E0
3.205139414E0,6.284971237E0,-1.007750225E1,-5.698374271E0
3.207139147E0,6.342433929E0,-1.017806244E1,-5.861184597E0
3.209138880E0,6.462147713E0,-1.044382668E1,-6.110189438E0
3.211138613E0,6.593832970E0,-1.074550533E1,-6.263422966E0
3.213138413E0,6.668055534E0,-1.090592194E1,-6.316096783E0
3.215138146E0,6.826077461E0,-1.128182316E1,-6.416656494E0
3.217137879E0,6.969734192E0,-1.149730778E1,-6.478907585E0
3.219137612E0,7.039167881E0,-1.200728798E1,-6.624958515E0
3.221137345E0,7.185218811E0,-1.255797100E1,-6.823683262E0
3.223137078E0,7.278595448E0,-1.283331299E1,-6.938608170E0
3.225136811E0,7.486897469E0,-1.343667030E1,-7.225921154E0
3.227136611E0,7.733507633E0,-1.409509563E1,-7.532388687E0
3.229136411E0,7.853221416E0,-1.443747711E1,-7.661679268E0
3.231136144E0,8.116591454E0,-1.505759430E1,-7.879558563E0
3.233135877E0,8.358413696E0,-1.572559738E1,-8.099831581E0
3.235135610E0,8.504464149E0,-1.605121803E1,-8.152505875E0
3.237135343E0,8.784594536E0,-1.668809509E1,-8.154899597E0
3.239135076E0,9.105426788E0,-1.728666496E1,-8.205180168E0
3.241134809E0,9.284997940E0,-1.756439972E1,-8.257853508E0
3.243134609E0,9.660899162E0,-1.809832382E1,-8.372778893E0
3.245134342E0,1.002004051E1,-1.860351562E1,-8.516435623E0
3.247134075E0,1.027143860E1,-1.901054192E1,-8.547560692E0
3.249133808E0,1.039115238E1,-1.919250679E1,-8.533195496E0
3.251133541E0,1.061382008E1,-1.952291679E1,-8.458972931E0
3.253133274E0,1.071198559E1,-1.969291115E1,-8.382355690E0
3.255133007E0,1.082451630E1,-1.993233871E1,-8.145322800E0
3.257132740E0,1.093225861E1,-2.010712051E1,-7.831672668E0
3.259132540E0,1.092747021E1,-2.021725655E1,-7.637736797E0
3.261132273E0,1.081972790E1,-2.034894180E1,-7.099024773E0
3.263132006E0,1.061621475E1,-2.035612488E1,-6.771008968E0
3.265131739E0,1.047974110E1,-2.031063271E1,-6.210748672E0
3.267131472E0,1.024989033E1,-2.013345718E1,-5.813299179E0
3.269131205E0,1.012299347E1,-1.997303963E1,-5.621757030E0
3.271130938E0,9.957788467E0,-1.959235001E1,-5.257827282E0
3.273130671E0,9.818921089E0,-1.912307358E1,-4.824463844E0
3.275130471E0,9.742303848E0,-1.885730934E1,-4.616161823E0
3.277130204E0,9.577098846E0,-1.830183601E1,-4.259414673E0
3.279129937E0,9.419076920E0,-1.770087433E1,-3.950553417E0
3.281129670E0,9.361614227E0,-1.738961792E1,-3.835628271E0
3.283129403E0,9.268238068E0,-1.674795151E1,-3.598595142E0
3.285129303E0,9.225140572E0,-1.609910393E1,-3.435784340E0
3.287129036E0,9.179649353E0,-1.579981899E1,-3.419024467E0
3.289128769E0,8.830085754E0,-1.526350212E1,-3.438178539E0
3.291128569E0,8.408693314E0,-1.478943539E1,-3.435784340E0
3.293128302E0,8.186025620E0,-1.451409435E1,-3.383110285E0
3.295128035E0,7.711959362E0,-1.396580505E1,-3.378321648E0
3.297127768E0,7.230710030E0,-1.337441921E1,-3.524372578E0
3.299127501E0,6.960156918E0,-1.307992363E1,-3.603383541E0
3.301127234E0,6.299336910E0,-1.257233715E1,-3.684788942E0
3.303126967E0,5.595420361E0,-1.204080772E1,-3.730280161E0
3.305126767E0,5.274587631E0,-1.176546669E1,-3.754222870E0
3.307126567E0,4.592218876E0,-1.080775642E1,-3.888302326E0
3.309126300E0,4.503631115E0,-1.080775642E1,-3.888302326E0
3.311126033E0,4.470110893E0,-1.009426212E1,-4.070267200E0
3.313125766E0,4.592218876E0,-9.354432106E0,-4.209135056E0
3.315125499E0,4.690384388E0,-9.009655952E0,-4.285751820E0
3.317125232E0,4.977697372E0,-8.478127480E0,-4.474899769E0
3.319124965E0,5.197970390E0,-8.207573891E0,-4.699961662E0
3.321124765E0,5.265010357E0,-8.121379852E0,-4.757423878E0
3.323124565E0,5.339232922E0,-8.042368889E0,-4.862771988E0
3.325124298E0,5.427821159E0,-7.987300873E0,-4.872349262E0
3.327124031E0,5.458946705E0,-7.970541000E0,-4.838829517E0
3.329123764E0,5.502043724E0,-7.908289909E0,-4.728692532E0
3.331123497E0,5.401484013E0,-7.884346962E0,-4.601796150E0
3.333123230E0,5.296135902E0,-7.877163887E0,-4.551516533E0
3.335122963E0,5.087833881E0,-7.836461544E0,-4.489265442E0
3.337122763E0,4.881926537E0,-7.721536160E0,-4.453351021E0
3.339122529E0,4.769395351E0,-7.649707794E0,-4.422225475E0
3.341122295E0,4.553910732E0,-7.479714394E0,-4.331243038E0
3.343122061E0,4.304905891E0,-7.242681503E0,-4.166038036E0
3.345121661E0,4.173221111E0,-7.101418972E0,-4.053507328E0
3.347121427E0,3.864359617E0,-6.821289062E0,-3.833234072E0
3.349121193E0,3.608172178E0,-6.488484859E0,-3.627326250E0
3.351120959E0,3.454938650E0,-6.344828129E0,-3.569863796E0
3.353120792E0,3.186779737E0,-6.026389599E0,-3.457332850E0
3.355120592E0,2.935380936E0,-5.839636326E0,-3.375927448E0
3.357120392E0,2.798907280E0,-5.456552505E0,-3.196356773E0
3.359120192E0,2.502017260E0,-5.080651283E0,-2.990449190E0
3.361119992E0,2.358360767E0,-4.881926537E0,-2.897072554E0
3.363119792E0,2.078230619E0,-4.561093330E0,-2.707924843E0
3.365119592E0,1.793311834E0,-4.259414673E0,-2.578634024E0
3.367119392E0,1.537124395E0,-4.015198708E0,-2.494834423E0
3.369119258E0,1.419804931E0,-3.914639235E0,-2.456526041E0
3.371119124E0,1.168406129E0,-3.742251635E0,-2.348783493E0
3.373118990E0,1.034326673E0,-3.677606106E0,-2.310475111E0
3.375118856E0,8.236305118E-1,-3.562680960E0,-2.253012657E0
3.377118722E0,7.015225291E-1,-3.476486921E0,-2.219492674E0
3.379118588E0,6.584255695E-1,-3.430995703E0,-2.205127001E0
3.381118454E0,6.033572555E-1,-3.383110285E0,-2.169213057E0
3.383118320E0,5.482889414E-1,-3.323253393E0,-2.118933201E0
3.385118253E0,5.147690773E-1,-3.308887720E0,-2.087807655E0
3.387118119E0,4.070267081E-1,-3.313676357E0,-1.994430900E0
3.389117985E0,3.471698463E-1,-3.316070557E0,-1.901054144E0
3.391117851E0,3.471698463E-1,-3.296916485E0,-1.857957244E0
3.393117717E0,3.567469418E-1,-3.256213665E0,-1.750214934E0
3.395117583E0,3.639297783E-1,-3.225088120E0,-1.692752242E0
3.397117483E0,3.711125851E-1,-3.217905283E0,-1.656838179E0
3.399117383E0,3.471698463E-1,-3.201145411E0,-1.565855742E0
3.401117283E0,2.873129845E-1,-3.208328247E0,-1.529941559E0
3.403117116E0,2.466102988E-1,-3.196356773E0,-1.467690468E0
3.405116949E0,1.675992310E-1,-3.220299721E0,-1.405439258E0
3.407116782E0,1.005595401E-1,-3.241847992E0,-1.400650740E0
3.409116615E0,7.661679387E-2,-3.251425266E0,-1.393467903E0
3.411116448E0,1.915419847E-2,-3.265790939E0,-1.376708031E0
3.413116281E0,-4.788549617E-3,-3.284945011E0,-1.347976685E0
3.415116147E0,-5.746259540E-2,-3.318464994E0,-1.290514112E0
3.417115947E0,-5.267404765E-2,-3.296916485E0,-1.230657220E0
3.419115747E0,-6.225114316E-2,-3.284945011E0,-1.204320192E0
3.421115547E0,-4.549122229E-2,-3.296916485E0,-1.132491946E0
3.423115347E0,-4.788549617E-3,-3.311282158E0,-1.079817891E0
3.425115147E0,1.675992459E-2,-3.313676357E0,-1.036720991E0
3.427114947E0,1.197137386E-1,-3.270579338E0,-8.954587579E-1
3.429114713E0,1.484450400E-1,-3.246636629E0,-8.332076073E-1
3.430740036E0,1.747820675E-1,-3.229876757E0,-7.757450342E-1
3.432739769E0,2.226675600E-1,-3.198751211E0,-6.823683381E-1
3.434739502E0,2.346389294E-1,-3.167625666E0,-5.794144869E-1
3.436739235E0,2.537931204E-1,-3.146077156E0,-5.387118459E-1
3.438738968E0,3.160442710E-1,-3.088614464E0,-4.740664065E-1
3.440738701E0,3.495641351E-1,-3.069460392E0,-4.022381604E-1
3.442738434E0,3.663240373E-1,-3.069460392E0,-3.663240373E-1
3.444738167E0,4.022381604E-1,-3.062277555E0,-2.849186957E-1
3.446737967E0,4.573064744E-1,-3.057488918E0,-2.537931204E-1
3.448737700E0,4.740664065E-1,-3.086220264E0,-2.154847383E-1
3.450737433E0,4.980091453E-1,-3.112557173E0,-1.628106833E-1
3.452737166E0,4.908263385E-1,-3.136499882E0,-1.340793967E-1
3.454736899E0,4.788549542E-1,-3.198751211E0,-6.464541703E-2
3.456736599E0,4.980091453E-1,-3.217905283E0,2.394274808E-3
3.458736332E0,4.956148863E-1,-3.241847992E0,2.154847234E-2
3.460736065E0,4.884320498E-1,-3.237059593E0,5.267404765E-2
3.462735865E0,4.956148863E-1,-3.268185139E0,4.309694469E-2
3.464735598E0,5.027977228E-1,-3.287339211E0,2.394274808E-2
3.466735331E0,5.027977228E-1,-3.332830429E0,4.788549617E-3
3.468735064E0,5.051919818E-1,-3.361561775E0,-4.788549617E-3
3.470734797E0,5.123748183E-1,-3.373533249E0,-1.915419847E-2
3.472734530E0,5.051919818E-1,-3.385504484E0,-4.309694469E-2
3.474734263E0,4.956148863E-1,-3.363956213E0,-7.422251999E-2
3.476734096E0,4.788549542E-1,-3.363956213E0,-9.816526622E-2
3.478733896E0,4.261809289E-1,-3.354378939E0,-1.508393139E-1
3.480733629E0,3.806896806E-1,-3.335224867E0,-2.083019018E-1
3.482733362E0,3.519583941E-1,-3.340013266E0,-2.442160249E-1
3.484733095E0,2.921015322E-1,-3.378321648E0,-3.016786277E-1
3.486732828E0,2.442160249E-1,-3.433390141E0,-3.328042030E-1
3.488732594E0,2.298503816E-1,-3.459727049E0,-3.615354896E-1
3.490732360E0,2.035133541E-1,-3.471698523E0,-4.740664065E-1
3.492732160E0,1.915419847E-1,-3.478881359E0,-5.339232683E-1
3.494731893E0,2.035133541E-1,-3.495641232E0,-6.871568561E-1
3.496731626E0,2.394274771E-1,-3.495641232E0,-8.236305118E-1
3.498731359E0,2.801301479E-1,-3.471698523E0,-8.739103079E-1
3.500731092E0,3.759011328E-1,-3.416630268E0,-9.672870040E-1
3.502730825E0,4.213923812E-1,-3.385504484E0,-1.106154919E0
3.504730558E0,4.285751879E-1,-3.404658794E0,-1.170800328E0
3.506730291E0,4.573064744E-1,-3.483669758E0,-1.297696948E0
3.508730091E0,5.602602959E-1,-3.533949614E0,-1.415016413E0
3.510729824E0,6.057515144E-1,-3.517189741E0,-1.474873304E0
3.512729557E0,7.230709791E-1,-3.454938650E0,-1.592192769E0
3.514729290E0,8.379961848E-1,-3.378321648E0,-1.704723716E0
3.516729023E0,9.026415944E-1,-3.340013266E0,-1.778946161E0
3.518728756E0,1.007989645E0,-3.280156374E0,-1.939362645E0
3.520728489E0,1.098972082E0,-3.306493521E0,-2.116539001E0
3.522728222E0,1.130097747E0,-3.342407703E0,-2.195549965E0
3.524728022E0,1.201925993E0,-3.414235830E0,-2.351177931E0
3.526727755E0,1.256994247E0,-3.514795303E0,-2.504411459E0
3.528727488E0,1.276148438E0,-3.565075159E0,-2.569056988E0
3.530727221E0,1.357553840E0,-3.615355015E0,-2.705530643E0
3.532726954E0,1.494027495E0,-3.603383541E0,-2.832427025E0
3.534726687E0,1.565855742E0,-3.596200705E0,-2.918621063E0
3.536726387E0,1.680780888E0,-3.586623669E0,-3.119740009E0
3.538726120E0,1.726272106E0,-3.596200705E0,-3.222693920E0
3.540725920E0,1.790917516E0,-3.663240433E0,-3.430995703E0
3.542725653E0,1.862745762E0,-3.720703125E0,-3.656057596E0
3.544725386E0,1.922602654E0,-3.766194344E0,-3.759011507E0
3.546725119E0,2.042316437E0,-4.103786945E0,-4.110970020E0
3.548724852E0,2.078230619E0,-4.266597748E0,-4.218712330E0
3.550724585E0,2.121327400E0,-4.441379547E0,-4.316877365E0
3.552724318E0,2.296109438E0,-4.793338299E0,-4.479688168E0
3.554724118E0,2.578634024E0,-5.145296574E0,-4.630527496E0
3.556723918E0,2.753416061E0,-5.339232922E0,-4.707144260E0
3.558723651E0,3.158048391E0,-5.765413761E0,-4.846012115E0
3.560723384E0,3.660846233E0,-6.184412003E0,-4.958543301E0
3.562723117E0,3.940976381E0,-6.363982677E0,-5.001639843E0
3.564722850E0,4.398283005E0,-6.747066498E0,-5.126142502E0
3.566722583E0,4.874743462E0,-7.166064739E0,-5.365570068E0
3.568722316E0,5.193181992E0,-7.431828976E0,-5.494860649E0
3.570722116E0,5.988081455E0,-8.075888634E0,-5.676825523E0
3.572721916E0,6.823683262E0,-8.696005821E0,-5.827664852E0
3.574721649E0,7.192401409E0,-8.990502357E0,-5.918647289E0
3.576721382E0,7.829278469E0,-9.560338974E0,-6.131737709E0
3.578721115E0,8.370385170E0,-9.854835510E0,-6.337645531E0
3.580720848E0,8.588263512E0,-1.047495270E1,-6.450176239E0
3.582720581E0,8.911490440E0,-1.117408085E1,-6.689603806E0
3.584720314E0,9.043175697E0,-1.150688457E1,-6.799740314E0
3.586720114E0,9.251478195E0,-1.211263657E1,-7.034379482E0
3.588719847E0,9.438231468E0,-1.262022209E1,-7.331269264E0
3.590719580E0,9.524425507E0,-1.282373619E1,-7.494080067E0
3.592719313E0,9.680052757E0,-1.314696312E1,-7.826884270E0
3.594719046E0,9.818921089E0,-1.337202454E1,-8.219545364E0
3.596718779E0,9.876383781E0,-1.342948723E1,-8.399115562E0
3.598718512E0,9.964971542E0,-1.343906403E1,-8.688823700E0
3.600718245E0,9.979337692E0,-1.330977345E1,-8.784594536E0
3.602718045E0,9.948211670E0,-1.318766594E1,-8.755863190E0
3.604717778E0,9.759063721E0,-1.290035248E1,-8.597841263E0
3.606717511E0,9.203592300E0,-1.256754875E1,-8.310527802E0
3.608717244E0,9.203592300E0,-1.237840080E1,-8.083071709E0
3.610716977E0,8.712765694E0,-1.197616291E1,-7.482108593E0
3.612716710E0,8.214756966E0,-1.152364445E1,-6.847625732E0
3.614716443E0,7.980117798E0,-1.129379463E1,-6.505244732E0
3.616716176E0,7.561120033E0,-1.084127617E1,-5.839636326E0
3.618715976E0,7.197190285E0,-1.041030693E1,-5.262616158E0
3.620715709E0,7.034379482E0,-1.021876526E1,-5.016005516E0
3.622715442E0,6.715940952E0,-9.854835510E0,-4.577853203E0
3.624715175E0,6.395108223E0,-9.680052757E0,-4.209135056E0
3.626714908E0,6.217931747E0,-9.392740250E0,-4.055901527E0
3.628714641E0,5.849213123E0,-9.079090118E0,-3.739857197E0
3.630714374E0,5.581054688E0,-8.966559410E0,-3.624932051E0
3.632714107E0,5.145296574E0,-8.712765694E0,-3.488458395E0
3.634713907E0,4.838829517E0,-8.504464149E0,-3.363956213E0
3.636713640E0,4.697566986E0,-8.413481712E0,-3.361561775E0
3.638713373E0,4.386311531E0,-8.279402733E0,-3.378321648E0
3.640713106E0,4.003227711E0,-8.272219658E0,-3.433390141E0
3.642712839E0,3.818868399E0,-8.317710876E0,-3.462121487E0
3.644712572E0,3.471698523E0,-8.482915878E0,-3.505218267E0
3.646712305E0,3.158048391E0,-8.755863190E0,-3.675211906E0
3.648712105E0,3.035940409E0,-8.940221786E0,-3.833234072E0
3.650711905E0,2.825244188E0,-9.392740250E0,-4.321666241E0
3.652711638E0,2.628913641E0,-9.962577820E0,-4.898686409E0
3.654711371E0,2.502017260E0,-1.030016994E1,-5.157268047E0
3.656711104E0,2.188367128E0,-1.107591534E1,-5.530774593E0
3.658710837E0,1.857957244E0,-1.187799740E1,-5.585843086E0
3.660710570E0,1.740637779E0,-1.227065849E1,-5.478100777E0
3.662710303E0,1.618529797E0,-1.310865498E1,-5.018400192E0
3.664710103E0,1.501210332E0,-1.422678089E1,-4.525179386E0
3.666709836E0,1.292908430E0,-1.545265007E1,-3.986467600E0
3.668709569E0,1.211503029E0,-1.605840111E1,-3.632114887E0
3.670709302E0,1.177983165E0,-1.661866188E1,-2.683982134E0
3.672709035E0,1.209108829E0,-1.756200600E1,-2.267378330E0
3.674708768E0,1.230657220E0,-1.848380089E1,-1.893871427E0
3.676708501E0,1.230657220E0,-1.901293564E1,-1.975276709E0
3.678708234E0,1.436564922E0,-2.015261078E1,-2.724684715E0
3.680708034E0,1.956122518E0,-2.123242950E1,-4.053507328E0
3.682707767E0,2.241041183E0,-2.180705452E1,-4.824463844E0
3.684707500E0,2.686376333E0,-2.293236351E1,-6.067092419E0
3.686707233E0,2.846792698E0,-2.389007378E1,-6.411868095E0
3.688706966E0,2.832427025E0,-2.418935776E1,-6.198777676E0
3.690706699E0,2.693559170E0,-2.434498596E1,-5.217124939E0
3.692706432E0,2.518777132E0,-2.389486313E1,-3.699154615E0
3.694706165E0,2.449343204E0,-2.346149826E1,-2.798907280E0
3.696705965E0,2.317657948E0,-2.223084068E1,-7.398309112E-1
3.698705698E0,2.183578730E0,-2.043513489E1,1.505998850E0
3.700705431E0,2.150058746E0,-1.939362526E1,2.552296877E0
3.702705164E0,2.181184292E0,-1.717413330E1,4.024775982E0
3.704704897E0,2.547508478E0,-1.507195950E1,4.127729893E0
3.706704630E0,2.861158371E0,-1.413579845E1,3.641691923E0
3.708704363E0,3.323253393E0,-1.263458824E1,1.810071707E0
3.710704096E0,3.675211906E0,-1.145421028E1,-5.746259689E-1
3.712703896E0,3.814079762E0,-1.094183540E1,-1.699935079E0
3.714703629E0,3.974496126E0,-1.010144520E1,-3.404658794E0
3.716703362E0,4.113364220E0,-9.754275322E0,-4.087027073E0
3.718703095E0,4.180403709E0,-9.313729286E0,-4.029564381E0
3.720702828E0,4.474899769E0,-9.237112045E0,-3.234665155E0
3.722702561E0,4.711932659E0,-9.253871918E0,-2.571451187E0
3.724702294E0,5.353598595E0,-9.337671280E0,-9.122186899E-1
3.726702094E0,6.981705189E0,-9.375980377E0,2.145270348E0
3.728701894E0,6.981705189E0,-9.375980377E0,2.145270348E0
3.730701627E0,8.468549728E0,-9.414288521E0,4.292934895E0
3.732701360E0,9.986519814E0,-9.505270958E0,6.225114346E0
3.734701093E0,1.068085957E1,-9.478934288E0,7.075081825E0
3.736700826E0,1.181814003E1,-9.486116409E0,8.389538765E0
3.738700559E0,1.274472523E1,-9.466962814E0,8.782199860E0
3.740700292E0,1.313499165E1,-9.411893845E0,8.667274475E0
3.742700092E0,1.363300037E1,-9.368797302E0,7.925049782E0
3.744699825E0,1.393707371E1,-9.146129608E0,6.696786404E0
3.746699558E0,1.402805614E1,-9.050358772E0,5.935407162E0
3.748699291E0,1.405199909E1,-9.026415825E0,4.065478802E0
3.750699024E0,1.392510223E1,-8.997684479E0,2.001613855E0
3.752698757E0,1.380299473E1,-8.973741531E0,9.505270720E-1
3.754698490E0,1.333850479E1,-8.976136208E0,-9.816526771E-1
3.756698223E0,1.247177792E1,-9.093455315E0,-2.372726440E0
3.758698023E0,1.193067169E1,-9.201197624E0,-2.983266354E0
3.760697789E0,1.074790001E1,-9.454991341E0,-4.336031914E0
3.762697555E0,9.591464996E0,-9.593858719E0,-5.796539307E0
3.764697321E0,9.035993576E0,-9.840469360E0,-6.493273258E0
3.766697087E0,7.994483471E0,-1.003440571E1,-7.659285069E0
3.768696853E0,7.494080067E0,-1.015890789E1,-8.109408379E0
3.770696619E0,6.617775440E0,-1.043903828E1,-8.693612099E0
3.772696385E0,5.913858891E0,-1.076705360E1,-8.801354408E0
3.774696218E0,5.643305779E0,-1.096817303E1,-8.686429024E0
3.776695984E0,5.257827282E0,-1.142069054E1,-8.073494911E0
3.778695750E0,5.130930901E0,-1.183729458E1,-7.070293427E0
3.780695516E0,5.178816319E0,-1.200489426E1,-6.514821529E0
3.782695282E0,5.542746067E0,-1.227305222E1,-5.430215359E0
3.784695048E0,6.103006363E0,-1.240952587E1,-4.460534096E0
3.786694814E0,6.720729351E0,-1.239516068E1,-3.687183142E0
3.788694580E0,7.020013809E0,-1.232572651E1,-3.383110285E0
3.790694413E0,7.592245579E0,-1.211742496E1,-2.928198099E0
3.792694179E0,7.838855743E0,-1.198813438E1,-2.736656189E0
3.794693945E0,8.188420296E0,-1.169363785E1,-2.403851986E0
3.796693711E0,8.344047546E0,-1.132731438E1,-2.109356165E0
3.798693477E0,8.370385170E0,-1.113577175E1,-1.977671027E0
3.800693243E0,8.298556328E0,-1.075747681E1,-1.733454943E0
3.802693009E0,8.054340363E0,-1.037439251E1,-1.455719113E0
3.804692842E0,7.872375488E0,-1.019961071E1,-1.319245458E0
3.806692675E0,7.383943558E0,-9.878777504E0,-1.120520592E0
3.808692441E0,6.785374641E0,-9.747093201E0,-9.984126091E-1
3.810692207E0,6.462147713E0,-9.531607628E0,-9.936240315E-1
3.812691973E0,5.810904980E0,-9.344854355E0,-1.031932473E0
3.814691739E0,5.502043724E0,-9.258660316E0,-1.091789365E0
3.816691505E0,4.920234680E0,-9.103033066E0,-1.276148438E0
3.818691271E0,4.419831276E0,-8.964164734E0,-1.532335877E0
3.820691071E0,4.185192585E0,-8.901913643E0,-1.673598051E0
3.822690871E0,3.802108288E0,-8.801354408E0,-1.951334000E0
3.824690604E0,3.529160976E0,-8.672063828E0,-2.188367128E0
3.826690337E0,3.430995703E0,-8.616994858E0,-2.274561167E0
3.828690103E0,3.296916485E0,-8.530800819E0,-2.379909277E0
3.830689836E0,3.237059593E0,-8.430241585E0,-2.399063349E0
3.832689569E0,3.222693920E0,-8.377567291E0,-2.377514839E0
3.834689302E0,3.265790939E0,-8.296162605E0,-2.296109438E0
3.836689102E0,3.366350412E0,-8.221940041E0,-2.193155766E0
3.838688835E0,3.423812866E0,-8.197997093E0,-2.147664547E0
3.840688568E0,3.550709486E0,-8.150111198E0,-2.083019018E0
3.842688301E0,3.675211906E0,-8.133351326E0,-2.018373728E0
3.844688034E0,3.737462997E0,-8.123774529E0,-1.994430900E0
3.846687767E0,3.878725290E0,-8.133351326E0,-1.869928598E0
3.848687500E0,3.926610708E0,-8.135746002E0,-1.814860344E0
3.850687233E0,3.972101927E0,-8.123774529E0,-1.759791970E0
3.852687033E0,4.072661400E0,-8.051946640E0,-1.635289669E0
3.854686766E0,4.170826912E0,-8.020820618E0,-1.551490068E0
3.856686499E0,4.211529255E0,-7.968146324E0,-1.508393168E0
3.858686232E0,4.304905891E0,-7.889135361E0,-1.467690468E0
3.860685965E0,4.345608711E0,-7.850827217E0,-1.472478986E0
3.862685698E0,4.405465603E0,-7.750267506E0,-1.460507631E0
3.864685431E0,4.460534096E0,-7.618582249E0,-1.482056141E0
3.866685164E0,4.484476566E0,-7.551542759E0,-1.503604531E0
3.868684964E0,4.510813713E0,-7.407886028E0,-1.577827096E0
3.870684697E0,4.472505569E0,-7.266623974E0,-1.697540879E0
3.872684430E0,4.455745220E0,-7.199584484E0,-1.757397652E0
3.874684163E0,4.388705730E0,-7.051139355E0,-1.884294271E0
3.876683896E0,4.280963421E0,-6.893116951E0,-2.015979290E0
3.878683629E0,4.221106529E0,-6.806923389E0,-2.071047783E0
3.880683362E0,4.091815472E0,-6.672843933E0,-2.205127001E0
3.882683095E0,3.976890564E0,-6.538764477E0,-2.348783493E0
3.884682895E0,3.907456398E0,-6.466936111E0,-2.430188894E0
3.886682628E0,3.780560017E0,-6.371165276E0,-2.600182533E0
3.888682328E0,3.653663397E0,-6.292154312E0,-2.760598898E0
3.890682061E0,3.586623669E0,-6.237085819E0,-2.827638626E0
3.892681794E0,3.459727049E0,-6.150891781E0,-2.942563772E0
3.894681527E0,3.308887720E0,-6.098217964E0,-3.095797300E0
3.896681260E0,3.246636629E0,-6.071880817E0,-3.162837029E0
3.898681060E0,3.134105682E0,-5.983292580E0,-3.308887720E0
3.900680860E0,3.062277555E0,-5.952167034E0,-3.392687321E0
3.902680593E0,3.033546209E0,-5.873156071E0,-3.572257996E0
3.904680326E0,2.976083517E0,-5.813299179E0,-3.761405706E0
3.906680059E0,2.949746609E0,-5.739076614E0,-3.936187744E0
3.908679792E0,2.935380936E0,-5.731894016E0,-4.017592907E0
3.910679525E0,2.928198099E0,-5.695979595E0,-4.158855438E0
3.912679258E0,2.944957972E0,-5.669642925E0,-4.216318130E0
3.914679058E0,2.997632027E0,-5.602602959E0,-4.304905891E0
3.916678791E0,3.086220264E0,-5.499649048E0,-4.367157459E0
3.918678524E0,3.129317284E0,-5.454157829E0,-4.391099930E0
3.920678257E0,3.237059593E0,-5.348809719E0,-4.388705730E0
3.922677990E0,3.318464994E0,-5.221913338E0,-4.348002911E0
3.924677723E0,3.349590540E0,-5.150084972E0,-4.304905891E0
3.926677456E0,3.402264595E0,-5.023188591E0,-4.185192585E0
3.928677189E0,3.469304085E0,-4.908263206E0,-4.010410309E0
3.930676989E0,3.493247032E0,-4.855589390E0,-3.907456398E0
3.932676722E0,3.538738251E0,-4.807703972E0,-3.744645834E0
3.934676455E0,3.574652195E0,-4.740664005E0,-3.603383541E0
3.936676188E0,3.579440832E0,-4.697566986E0,-3.514795303E0
3.938675921E0,3.545921087E0,-4.585036278E0,-3.301704884E0
3.940675654E0,3.500429869E0,-4.486870766E0,-3.138894320E0
3.942675387E0,3.474092722E0,-4.453351021E0,-3.071854591E0
3.944675120E0,3.407052994E0,-4.391099930E0,-2.966506481E0
3.946674920E0,3.325647593E0,-4.314483166E0,-2.885101080E0
3.948674653E0,3.277762175E0,-4.278569221E0,-2.842004299E0
3.950674386E0,3.141288519E0,-4.225894928E0,-2.784541607E0
3.952674119E0,3.074248791E0,-4.189980984E0,-2.751021862E0
3.954673852E0,2.916226625E0,-4.106181145E0,-2.650462151E0
3.956673585E0,2.770175934E0,-4.000833035E0,-2.516382933E0
3.958673318E0,2.712713242E0,-3.945764780E0,-2.458920240E0
3.960673051E0,2.595393896E0,-3.833234072E0,-2.379909277E0
3.962672851E0,2.470891714E0,-3.730280161E0,-2.272166729E0
3.964672584E0,2.413429022E0,-3.675211906E0,-2.207521439E0
3.966672317E0,2.298503876E0,-3.414235830E0,-1.972882390E0
3.968672050E0,2.269772530E0,-3.318464994E0,-1.896265626E0
3.970671783E0,2.255406857E0,-3.225088120E0,-1.836408734E0
3.972671516E0,2.217098475E0,-3.086220264E0,-1.731060743E0
3.974671249E0,2.195549965E0,-2.949746609E0,-1.604164124E0
3.976671049E0,2.190761566E0,-2.877918243E0,-1.553884387E0
3.978670849E0,2.236252785E0,-2.739050388E0,-1.489238977E0
3.980670582E0,2.322446585E0,-2.628913641E0,-1.470084786E0
3.982670315E0,2.365543604E0,-2.595393896E0,-1.496421814E0
3.984670048E0,2.485257149E0,-2.581028223E0,-1.594586968E0
3.986669781E0,2.648067951E0,-2.616942406E0,-1.755003452E0
3.988669514E0,2.743839025E0,-2.648067951E0,-1.838803053E0
3.990669247E0,2.942563772E0,-2.767781734E0,-2.066259146E0
3.992669047E0,3.155654192E0,-2.853975534E0,-2.193155766E0
3.994668780E0,3.265790939E0,-3.062277555E0,-2.427794695E0
3.996668513E0,3.517189741E0,-3.311282158E0,-2.657644987E0
3.998668246E0,3.646480560E0,-3.474092722E0,-2.770175934E0
4.000667979E0,3.909850836E0,-3.787742853E0,-2.995237827E0
4.002667712E0,4.221106529E0,-4.098998547E0,-3.174808502E0
4.004667445E0,4.400677204E0,-4.283357620E0,-3.261002302E0
4.006667178E0,4.767001152E0,-4.606584549E0,-3.402264595E0
4.008666978E0,5.106987953E0,-4.944177628E0,-3.507612705E0
4.010666711E0,5.281770229E0,-5.111776829E0,-3.545921087E0
4.012666444E0,5.664854050E0,-5.439792156E0,-3.627326250E0
4.014666177E0,6.031178474E0,-5.758230686E0,-3.670423269E0
4.016665943E0,6.208354473E0,-5.901887417E0,-3.675211906E0
4.018665676E0,6.557918549E0,-6.165257454E0,-3.651269197E0
4.020665409E0,6.914665699E0,-6.402290821E0,-3.596200705E0
4.022665142E0,7.091842175E0,-6.512427330E0,-3.567469358E0
4.024664942E0,7.398309231E0,-6.696786404E0,-3.507612705E0
4.026664708E0,7.738296032E0,-6.885934353E0,-3.404658794E0
4.028664441E0,7.738296032E0,-7.010436535E0,-3.337619066E0
4.030664174E0,7.853221416E0,-7.225921154E0,-3.265790939E0
4.032663907E0,7.865192890E0,-7.453377247E0,-3.232270956E0
4.034663640E0,7.829278469E0,-7.563514233E0,-3.249030828E0
4.036663373E0,7.678439140E0,-7.752661705E0,-3.292127848E0
4.038663106E0,7.427040577E0,-7.846038342E0,-3.323253393E0
4.040662906E0,7.261835575E0,-8.023215294E0,-3.409447432E0
4.042662639E0,6.876357079E0,-8.174054146E0,-3.529160976E0
4.044662372E0,6.660872459E0,-8.241093636E0,-3.610566378E0
4.046662105E0,6.148497581E0,-8.322499275E0,-3.763799906E0
4.048661838E0,5.633728504E0,-8.367990494E0,-3.883513689E0
4.050661571E0,5.382329941E0,-8.363202095E0,-3.936187744E0
4.052661304E0,4.901080608E0,-8.339259148E0,-4.015198708E0
4.054661104E0,4.508419514E0,-8.293767929E0,-4.024775982E0
4.056660904E0,4.331243038E0,-8.253065109E0,-4.003227711E0
4.058660637E0,4.027170181E0,-8.169265747E0,-3.914639235E0
4.060660370E0,3.830839634E0,-8.087860107E0,-3.821262598E0
4.062660103E0,3.744645834E0,-8.054340363E0,-3.778165579E0
4.064659836E0,3.586623669E0,-7.989695072E0,-3.701548815E0
4.066659569E0,3.510006905E0,-7.898712635E0,-3.660846233E0
4.068659302E0,3.507612705E0,-7.862798691E0,-3.668029070E0
4.070659102E0,3.529160976E0,-7.771816254E0,-3.739857197E0
4.072658902E0,3.624932051E0,-7.659285069E0,-3.849993944E0
4.074658635E0,3.687183142E0,-7.637736797E0,-3.907456398E0
4.076658335E0,3.804502726E0,-7.613793850E0,-4.017592907E0
4.078658068E0,3.952947617E0,-7.589851379E0,-4.110970020E0
4.080657801E0,4.043930054E0,-7.594639778E0,-4.137306690E0
4.082657534E0,4.216318130E0,-7.656890869E0,-4.204346657E0
4.084657267E0,4.393494129E0,-7.692804813E0,-4.264203548E0
4.086657033E0,4.597007751E0,-7.867587090E0,-4.589824677E0
4.088656766E0,4.685595989E0,-7.963357925E0,-4.778972626E0
4.090656499E0,4.767001152E0,-8.073494911E0,-5.006428719E0
4.092656232E0,4.898686409E0,-8.327287674E0,-5.554717541E0
4.094655965E0,5.011217117E0,-8.624177933E0,-6.196382999E0
4.096655698E0,5.059102535E0,-8.786988258E0,-6.543552876E0
4.098655431E0,5.128536701E0,-9.167677879E0,-7.199584484E0
4.100655164E0,5.231490612E0,-9.591464996E0,-7.719141960E0
4.102654964E0,5.291347504E0,-9.802161217E0,-7.915472507E0
4.104654697E0,5.454157829E0,-1.028819847E1,-8.190814018E0
4.106654430E0,5.660065651E0,-1.085085297E1,-8.413481712E0
4.108654163E0,5.767807961E0,-1.116210938E1,-8.516435623E0
4.110653896E0,6.031178474E0,-1.179898643E1,-8.703188896E0
4.112653629E0,6.304125786E0,-1.248853779E1,-8.882759094E0
4.114653362E0,6.474119186E0,-1.282373619E1,-8.976136208E0
4.116653095E0,6.840443134E0,-1.348694992E1,-9.141341209E0
4.118652895E0,7.209161282E0,-1.415255833E1,-9.268238068E0
4.120652628E0,7.429434776E0,-1.447578526E1,-9.296969414E0
4.122652361E0,7.908289909E0,-1.507914257E1,-9.301757812E0
4.124652094E0,8.348835945E0,-1.567771149E1,-9.174860954E0
4.126651827E0,8.571503639E0,-1.597699547E1,-9.047964096E0
4.128651560E0,8.992896080E0,-1.656598663E1,-8.834874153E0
4.130651293E0,9.194015503E0,-1.684611702E1,-8.777411461E0
4.132651026E0,9.495694160E0,-1.739440727E1,-8.681640625E0
4.134650826E0,9.739910126E0,-1.796184921E1,-8.650514603E0
4.136650559E0,9.859623909E0,-1.823479652E1,-8.621783257E0
4.138650292E0,1.001285744E1,-1.876153755E1,-8.502069473E0
4.140650025E0,1.011102295E1,-1.927630615E1,-8.233911514E0
4.142649758E0,1.012299347E1,-1.953009987E1,-8.049551964E0
4.144649491E0,1.002243423E1,-1.996106911E1,-7.510839939E0
4.146649224E0,9.890748978E0,-2.033218193E1,-6.658478260E0
4.148649024E0,9.890748978E0,-2.033218193E1,-6.658478260E0
4.150648824E0,9.883566856E0,-2.044231796E1,-6.131737709E0
4.152648590E0,9.964971542E0,-2.036809540E1,-5.669642925E0
4.154648356E0,1.000567436E1,-2.031063271E1,-5.473312378E0
4.156648122E0,1.008468533E1,-2.007599449E1,-5.087833881E0
4.158647888E0,1.006553173E1,-1.980065346E1,-4.865166187E0
4.160647654E0,1.003919411E1,-1.962826538E1,-4.814886570E0
4.162647420E0,9.984126091E0,-1.915180397E1,-4.711932659E0
4.164647253E0,9.866806030E0,-1.858196640E1,-4.568276405E0
4.166647019E0,9.773429871E0,-1.826592255E1,-4.477293968E0
4.168646785E0,9.500482559E0,-1.763622856E1,-4.331243038E0
4.170646551E0,9.237112045E0,-1.693949509E1,-4.158855438E0
4.172646317E0,9.076695442E0,-1.660429573E1,-4.043930054E0
4.174646083E0,8.674457550E0,-1.597939014E1,-3.852388144E0
4.176645849E0,8.444606781E0,-1.566813469E1,-3.818868399E0
4.178645615E0,7.980117798E0,-1.506238270E1,-3.732674360E0
4.180645448E0,7.587456703E0,-1.453564262E1,-3.713520288E0
4.182645214E0,7.405491829E0,-1.432255173E1,-3.723097324E0
4.184644980E0,7.137333393E0,-1.388918781E1,-3.646480560E0
4.186644746E0,6.912271500E0,-1.341272736E1,-3.471698523E0
4.188644512E0,6.761432171E0,-1.318048286E1,-3.433390141E0
4.190644278E0,6.452570438E0,-1.270402241E1,-3.201145411E0
4.192644044E0,6.146103382E0,-1.230178356E1,-2.839609861E0
4.194643810E0,5.985687256E0,-1.206235695E1,-2.707924843E0
4.196643643E0,5.633728504E0,-1.156195259E1,-2.628913641E0
4.198643409E0,5.411061287E0,-1.098014450E1,-2.643279314E0
4.200643175E0,5.245856285E0,-1.078381348E1,-2.631308079E0
4.202642941E0,4.838829517E0,-1.056114578E1,-2.571451187E0
4.204642707E0,4.486870766E0,-1.041030693E1,-2.542719841E0
4.206642473E0,4.247443676E0,-1.020200539E1,-2.540325642E0
4.208642239E0,4.230683804E0,-1.007989693E1,-2.600182533E0
4.210642005E0,4.209135056E0,-9.816526413E0,-2.784541607E0
4.212641805E0,4.201952457E0,-9.656110764E0,-2.870735407E0
4.214641538E0,4.178009510E0,-9.284997940E0,-3.062277555E0
4.216641271E0,4.149278164E0,-9.107821465E0,-3.222693920E0
4.218641004E0,4.122941017E0,-8.693612099E0,-3.289733648E0
4.220640737E0,3.878725290E0,-8.389538765E0,-3.395081758E0
4.222640470E0,3.742251635E0,-8.257853508E0,-3.445361376E0
4.224640203E0,3.591412306E0,-7.743084908E0,-3.533949614E0
4.226640003E0,3.462121487E0,-7.127756119E0,-3.543526649E0
4.228639803E0,3.347196102E0,-6.838048935E0,-3.538738251E0
4.230639536E0,3.067065954E0,-6.277788639E0,-3.538738251E0
4.232639269E0,2.777358770E0,-5.856396198E0,-3.605777979E0
4.234639002E0,2.640885115E0,-5.638517380E0,-3.589017868E0
4.236638735E0,2.401457548E0,-5.140508175E0,-3.476486921E0
4.238638468E0,2.152452946E0,-4.699961662E0,-3.371139050E0
4.240638201E0,2.037527800E0,-4.465322495E0,-3.299310684E0
4.242638001E0,1.848380208E0,-4.084632874E0,-3.282550812E0
4.244637734E0,1.656838179E0,-3.768588543E0,-3.306493521E0
4.246637467E0,1.580221415E0,-3.627326250E0,-3.251425266E0
4.248637200E0,1.460507631E0,-3.354378939E0,-3.098191500E0
4.250636933E0,1.321639657E0,-3.179596901E0,-2.992843628E0
4.252636666E0,1.254600048E0,-3.095797300E0,-2.944957972E0
4.254636399E0,1.096577883E0,-2.928198099E0,-2.870735407E0
4.256636132E0,9.696813226E-1,-2.801301479E0,-2.913832426E0
4.258635932E0,8.858816624E-1,-2.722290516E0,-2.921015263E0
4.260635665E0,7.518022656E-1,-2.597788095E0,-2.937775135E0
4.262635398E0,7.278595567E-1,-2.545114040E0,-2.971295118E0
4.264635131E0,7.087053657E-1,-2.446948767E0,-2.947352171E0
4.266634864E0,6.129343510E-1,-2.394274712E0,-2.810878515E0
4.268634597E0,6.033572555E-1,-2.394274712E0,-2.810878515E0
4.270634330E0,6.057515144E-1,-2.370332003E0,-2.703136206E0
4.272634063E0,6.560313106E-1,-2.308080912E0,-2.600182533E0
4.274633863E0,6.823683381E-1,-2.284138203E0,-2.547508478E0
4.276633596E0,7.087053657E-1,-2.250618219E0,-2.415823221E0
4.278633329E0,7.446194887E-1,-2.245829821E0,-2.274561167E0
4.280633062E0,7.733507752E-1,-2.245829821E0,-2.241041183E0
4.282632795E0,7.853221297E-1,-2.231464148E0,-2.159635782E0
4.284632528E0,8.188419938E-1,-2.255406857E0,-2.073441982E0
4.286632261E0,8.116591573E-1,-2.305686712E0,-2.054287672E0
4.288631994E0,8.284190893E-1,-2.382303476E0,-2.013585091E0
4.290631794E0,8.715160489E-1,-2.506805658E0,-1.994430900E0
4.292631527E0,8.930644989E-1,-2.566662550E0,-1.989642382E0
4.294631260E0,9.624984860E-1,-2.681587696E0,-1.960911036E0
4.296630993E0,1.060663700E0,-2.779752970E0,-1.917814136E0
4.298630726E0,1.118126392E0,-2.815667152E0,-1.901054144E0
4.300630459E0,1.218685865E0,-2.887495518E0,-1.848380208E0
4.302630192E0,1.304879785E0,-2.968900681E0,-1.826831698E0
4.304629992E0,1.338399649E0,-3.004814863E0,-1.802888989E0
4.306629792E0,1.410227895E0,-3.069460392E0,-1.752609134E0
4.308629525E0,1.443747759E0,-3.098191500E0,-1.721483588E0
4.310629258E0,1.455719113E0,-3.150865555E0,-1.714300752E0
4.312628991E0,1.458113313E0,-3.229876757E0,-1.654443860E0
4.314628724E0,1.453324795E0,-3.253819466E0,-1.616135478E0
4.316628457E0,1.419804931E0,-3.318464994E0,-1.525153041E0
4.318628190E0,1.359948039E0,-3.371139050E0,-1.424593568E0
4.320627990E0,1.314456820E0,-3.397475958E0,-1.374313712E0
4.322627790E0,1.245022893E0,-3.435784340E0,-1.252205729E0
4.324627523E0,1.194743156E0,-3.498035431E0,-1.154040456E0
4.326627256E0,1.127703428E0,-3.521978140E0,-1.070240855E0
4.328626989E0,1.101366401E0,-3.536343813E0,-1.019961119E0
4.330626722E0,1.053480864E0,-3.538738251E0,-9.289786220E-1
4.332626455E0,1.024749637E0,-3.529160976E0,-8.930644989E-1
4.334626188E0,9.888355136E-1,-3.512401104E0,-8.403904438E-1
4.336625988E0,9.577099085E-1,-3.517189741E0,-7.661679387E-1
4.338625721E0,9.337671995E-1,-3.533949614E0,-7.230709791E-1
4.340625454E0,8.499675393E-1,-3.565075159E0,-6.225114465E-1
4.342625187E0,7.589851022E-1,-3.620143414E0,-5.458946824E-1
4.344624920E0,7.134938836E-1,-3.634509087E0,-5.291347504E-1
4.346624653E0,6.081457734E-1,-3.641691923E0,-4.860377908E-1
4.348624386E0,5.123748183E-1,-3.629720688E0,-4.597007632E-1
4.350624119E0,4.668835998E-1,-3.622537851E0,-4.644893110E-1
4.352623919E0,3.711125851E-1,-3.577046633E0,-4.525179267E-1
4.354623652E0,2.585816681E-1,-3.557892323E0,-4.429408312E-1
4.356623385E0,2.011190802E-1,-3.505218267E0,-4.357580245E-1
4.358623118E0,1.364736706E-1,-3.438178539E0,-4.525179267E-1
4.360622851E0,1.005595401E-1,-3.397475958E0,-4.549122155E-1
4.362622584E0,4.309694469E-2,-3.318464994E0,-4.956148863E-1
4.364622317E0,7.182824425E-3,-3.208328247E0,-5.291347504E-1
4.366622050E0,-2.394274808E-3,-3.158048391E0,-5.554717779E-1
4.368621850E0,-5.267404765E-2,-3.057488918E0,-5.554717779E-1
4.370621583E0,-1.436564922E-1,-2.966506481E0,-5.794144869E-1
4.372621316E0,-1.699935049E-1,-2.918621063E0,-6.081457734E-1
4.374621049E0,-2.298503816E-1,-2.846792698E0,-6.608198285E-1
4.376620782E0,-2.537931204E-1,-2.784541607E0,-7.206767201E-1
4.378620515E0,-2.513988614E-1,-2.767781734E0,-7.661679387E-1
4.380620248E0,-2.178790122E-1,-2.724684715E0,-8.595446348E-1
4.382619981E0,-1.771763414E-1,-2.662433624E0,-9.505270720E-1
4.384619781E0,-1.412622184E-1,-2.638490915E0,-9.984126091E-1
4.386619547E0,-9.577099234E-3,-2.595393896E0,-1.168406129E0
4.388619313E0,3.591412306E-2,-2.600182533E0,-1.237840056E0
4.390619079E0,8.379961550E-2,-2.612153769E0,-1.304879785E0
4.392618845E0,1.891477108E-1,-2.645673752E0,-1.438959122E0
4.394618611E0,2.681587934E-1,-2.712713242E0,-1.561067224E0
4.396618377E0,3.088614643E-1,-2.755810261E0,-1.625712633E0
4.398618210E0,4.573064744E-1,-2.868341208E0,-1.733454943E0
4.400618043E0,6.249057055E-1,-2.930592299E0,-1.841197371E0
4.402617909E0,7.326480746E-1,-2.947352171E0,-1.905842781E0
4.404617775E0,9.648927450E-1,-2.882706881E0,-2.018373728E0
4.406617641E0,1.072635174E0,-2.858764172E0,-2.102173328E0
4.408617507E0,1.235445857E0,-2.923409462E0,-2.281744003E0
4.410617373E0,1.376708031E0,-3.064671755E0,-2.463708878E0
4.412617239E0,1.443747759E0,-3.126922846E0,-2.549902678E0
4.414617172E0,1.546701550E0,-3.272973776E0,-2.724684715E0
4.416617105E0,1.642472506E0,-3.445361376E0,-2.918621063E0
4.418617038E0,1.690358043E0,-3.543526649E0,-3.023969173E0
4.420616971E0,1.841197371E0,-3.727885962E0,-3.280156374E0
4.422616904E0,2.073441982E0,-3.905062199E0,-3.526766777E0
4.424616837E0,2.209915638E0,-3.972101927E0,-3.644086361E0
4.426616770E0,2.504411459E0,-4.070267200E0,-3.859570980E0
4.428616703E0,2.748627424E0,-4.233078003E0,-4.048718929E0
4.430616703E0,2.851581335E0,-4.364762783E0,-4.118152618E0
4.432616669E0,3.023969173E0,-4.726298332E0,-4.154066563E0
4.434616635E0,3.170019865E0,-5.176422119E0,-4.137306690E0
4.436616601E0,3.251425266E0,-5.437397957E0,-4.091815472E0
4.438616567E0,3.529160976E0,-5.882733345E0,-4.003227711E0
4.440616533E0,3.943370581E0,-6.210748672E0,-3.969707727E0
4.442616499E0,4.189980984E0,-6.354405403E0,-3.996044636E0
4.444616465E0,4.659258842E0,-6.687209606E0,-4.106181145E0
4.446616465E0,5.154873848E0,-7.091842175E0,-4.285751820E0
4.448616431E0,5.408666611E0,-7.290566921E0,-4.395888329E0
4.450616397E0,5.916253090E0,-7.685622215E0,-4.630527496E0
4.452616363E0,6.160469055E0,-7.905895233E0,-4.752635479E0
4.454616329E0,6.639324188E0,-8.308133125E0,-5.035160065E0
4.456616295E0,7.151699066E0,-8.684034348E0,-5.387118340E0
4.458616261E0,7.383943558E0,-8.945011139E0,-5.559505939E0
4.460616227E0,7.822095871E0,-9.668081284E0,-5.813299179E0
4.462616160E0,8.298556328E0,-1.046298122E1,-6.026389599E0
4.464616093E0,8.559532166E0,-1.084367085E1,-6.119766235E0
4.466616026E0,9.014444351E0,-1.150688457E1,-6.304125786E0
4.468615959E0,9.378374100E0,-1.215573311E1,-6.488484859E0
4.470615892E0,9.531607628E0,-1.245022869E1,-6.577073097E0
4.472615825E0,9.715967178E0,-1.299372959E1,-6.816500187E0
4.474615758E0,9.708784103E0,-1.350849819E1,-7.127756119E0
4.476615691E0,9.692024231E0,-1.372877216E1,-7.295355320E0
4.478615624E0,9.644139290E0,-1.406397057E1,-7.601822376E0
4.480615490E0,9.596253395E0,-1.422438622E1,-7.877163887E0
4.482615356E0,9.562733650E0,-1.423156929E1,-7.972935200E0
4.484615222E0,9.457385063E0,-1.414058685E1,-7.965752125E0
4.486615088E0,9.253871918E0,-1.393228531E1,-7.767027378E0
4.488614954E0,9.100638390E0,-1.380060005E1,-7.592245579E0
4.490614820E0,8.696005821E0,-1.349652672E1,-7.118178844E0
4.492614720E0,8.255459785E0,-1.330498505E1,-6.557918549E0
4.494614620E0,8.004060745E0,-1.285486126E1,-6.280182838E0
4.496614453E0,7.498868465E0,-1.239276600E1,-5.736682415E0
4.498614286E0,7.233104229E0,-1.215573311E1,-5.473312378E0
4.500614119E0,6.725517750E0,-1.173434067E1,-5.027976990E0
4.502613952E0,6.249057293E0,-1.136083412E1,-4.716721535E0
4.504613785E0,6.031178474E0,-1.117647457E1,-4.573064804E0
4.506613618E0,5.399089813E0,-1.067128277E1,-4.206740856E0
4.508613484E0,5.221913338E0,-1.052762604E1,-4.127729893E0
4.510613284E0,5.044736862E0,-1.038636398E1,-4.039141655E0
4.512613084E0,4.690384388E0,-1.013975334E1,-3.840416908E0
4.514612884E0,4.352791786E0,-9.907508850E0,-3.684788942E0
4.516612684E0,4.206740856E0,-9.785401344E0,-3.591412306E0
4.518612484E0,3.909850836E0,-9.567522049E0,-3.447755814E0
4.520612284E0,3.610566378E0,-9.383162498E0,-3.383110285E0
4.522612084E0,3.471698523E0,-9.318517685E0,-3.363956213E0
