"Time (s)","Gyroscope x (rad/s)","Gyroscope y (rad/s)","Gyroscope z (rad/s)"
1.433044300E-2,-3.068237305E-1,-3.679199219E-1,-6.101989746E-2
1.680236700E-2,-3.185424805E-1,-3.583374023E-1,-6.422424316E-2
1.927429100E-2,-3.377075195E-1,-3.902893066E-1,-5.996704102E-2
2.174621500E-2,-3.686065674E-1,-4.222564697E-1,-5.889892578E-2
2.421813800E-2,-4.016265869E-1,-4.488830566E-1,-5.464172363E-2
2.665954500E-2,-4.325256348E-1,-4.744415283E-1,-4.185485840E-2
2.913146900E-2,-4.708709717E-1,-4.936218262E-1,-3.652954102E-2
3.160339200E-2,-5.124206543E-1,-5.149230957E-1,-3.013610840E-2
3.404479900E-2,-5.571594238E-1,-5.383605957E-1,-2.374267578E-2
3.651672200E-2,-5.976409912E-1,-5.564727783E-1,-1.841735840E-2
3.898864600E-2,-6.434478760E-1,-5.767059326E-1,-1.309204102E-2
4.146057000E-2,-6.871185303E-1,-6.065368652E-1,-1.628112793E-2
4.393249400E-2,-7.339935303E-1,-6.427612305E-1,-1.734924316E-2
4.640441800E-2,-7.893829346E-1,-7.034759521E-1,-2.587890625E-2
4.887634200E-2,-8.586273193E-1,-8.163909912E-1,-5.250549316E-2
5.134826500E-2,-9.395904541E-1,-9.346466064E-1,-8.978271484E-2
5.382018900E-2,-1.029067993E0,-1.029449463E0,-1.483764648E-1
5.629211300E-2,-1.122817993E0,-1.101882935E0,-2.144317627E-1
5.876403700E-2,-1.214431763E0,-1.157287598E0,-2.879333496E-1
6.120544300E-2,-1.299652100E0,-1.205215454E0,-3.603668213E-1
6.367736700E-2,-1.374206543E0,-1.249954224E0,-4.306793213E-1
6.614929100E-2,-1.437057495E0,-1.288314819E0,-5.041809082E-1
6.862121500E-2,-1.481811523E0,-1.336242676E0,-5.680999756E-1
7.109313800E-2,-1.514831543E0,-1.396972656E0,-6.288146973E-1
7.353454500E-2,-1.539337158E0,-1.473663330E0,-6.778106689E-1
7.600646900E-2,-1.555313110E0,-1.561019897E0,-7.204284668E-1
7.847839200E-2,-1.556381226E0,-1.649429321E0,-7.577056885E-1
8.095031600E-2,-1.551040649E0,-1.749572754E0,-7.875366211E-1
8.339172200E-2,-1.546783447E0,-1.848632812E0,-8.131103516E-1
8.586364600E-2,-1.533996582E0,-1.944519043E0,-8.301544189E-1
8.833557000E-2,-1.520156860E0,-2.021209717E0,-8.461303711E-1
9.080749400E-2,-1.504180908E0,-2.073410034E0,-8.599700928E-1
9.327941800E-2,-1.486068726E0,-2.107498169E0,-8.759613037E-1
9.575134200E-2,-1.472213745E0,-2.119216919E0,-8.876647949E-1
9.819274800E-2,-1.453048706E0,-2.108566284E0,-9.004516602E-1
1.006646720E-1,-1.430679321E0,-2.094711304E0,-9.121704102E-1
1.031365960E-1,-1.412567139E0,-2.073410034E0,-9.260253906E-1
1.056085190E-1,-1.394454956E0,-2.055297852E0,-9.451904297E-1
1.080499260E-1,-1.376342773E0,-2.039321899E0,-9.633026123E-1
1.105218490E-1,-1.359298706E0,-2.022277832E0,-9.803466797E-1
1.129937730E-1,-1.339065552E0,-1.999908447E0,-9.995269775E-1
1.154656970E-1,-1.322021484E0,-1.962615967E0,-1.014434814E0
1.179376210E-1,-1.300704956E0,-1.912551880E0,-1.028289795E0
1.203790270E-1,-1.276214600E0,-1.853958130E0,-1.037872314E0
1.228509510E-1,-1.254898071E0,-1.793243408E0,-1.041076660E0
1.253228750E-1,-1.222946167E0,-1.723999023E0,-1.046401978E0
1.277947990E-1,-1.197387695E0,-1.654754639E0,-1.046401978E0
1.302667220E-1,-1.168624878E0,-1.583389282E0,-1.044265747E0
1.327081290E-1,-1.129196167E0,-1.509887695E0,-1.037872314E0
1.351800530E-1,-1.092987061E0,-1.436386108E0,-1.030410767E0
1.376519760E-1,-1.050369263E0,-1.368209839E0,-1.017639160E0
1.401239000E-1,-1.002441406E0,-1.303222656E0,-1.001663208E0
1.425958240E-1,-9.577026367E-1,-1.238235474E0,-9.846038818E-1
1.450372300E-1,-9.033660889E-1,-1.172195435E0,-9.590454102E-1
1.475091540E-1,-8.500976562E-1,-1.106155396E0,-9.398651123E-1
1.499810780E-1,-7.989654541E-1,-1.044357300E0,-9.143066406E-1
1.524530020E-1,-7.435760498E-1,-9.815063477E-1,-8.844757080E-1
1.549249260E-1,-6.871185303E-1,-9.154663086E-1,-8.557128906E-1
1.573663320E-1,-6.327972412E-1,-8.536834717E-1,-8.344116211E-1
1.598382560E-1,-5.773925781E-1,-7.972259521E-1,-8.173675537E-1
1.623101790E-1,-5.251922607E-1,-7.492828369E-1,-8.013916016E-1
1.647821030E-1,-4.719390869E-1,-7.141265869E-1,-7.949981689E-1
1.672540270E-1,-4.208068848E-1,-6.864318848E-1,-7.896728516E-1
1.696954330E-1,-3.792572021E-1,-6.587371826E-1,-7.854003906E-1
1.721673570E-1,-3.355865479E-1,-6.352996826E-1,-7.811431885E-1
1.746392810E-1,-2.993621826E-1,-6.161346436E-1,-7.811431885E-1
1.771112050E-1,-2.705993652E-1,-5.873718262E-1,-7.822113037E-1
1.795831290E-1,-2.450408936E-1,-5.543365479E-1,-7.854003906E-1
1.820245350E-1,-2.237243652E-1,-5.298461914E-1,-7.854003906E-1
1.844964590E-1,-2.045593262E-1,-5.223846436E-1,-7.811431885E-1
1.869683830E-1,-1.875152588E-1,-5.394287109E-1,-7.630310059E-1
1.894403060E-1,-1.598052979E-1,-6.171875000E-1,-7.321472168E-1
1.919122300E-1,-1.235961914E-1,-7.045440674E-1,-7.044525146E-1
1.943536370E-1,-8.418273926E-2,-7.567443848E-1,-6.810150146E-1
1.968255600E-1,-4.476928711E-2,-7.812500000E-1,-6.703643799E-1
1.992974840E-1,-1.173400879E-2,-7.950897217E-1,-6.692962646E-1
2.017694080E-1,2.128601074E-2,-7.769775391E-1,-6.778106689E-1
2.042413320E-1,5.856323242E-2,-7.290496826E-1,-6.959228516E-1
2.066827380E-1,1.011810303E-1,-6.651306152E-1,-7.151031494E-1
2.091546620E-1,1.533813477E-1,-6.001434326E-1,-7.374725342E-1
2.116265860E-1,2.130279541E-1,-5.458221436E-1,-7.523803711E-1
2.140985100E-1,2.822723389E-1,-4.978790283E-1,-7.651672363E-1
2.165399160E-1,3.099670410E-1,-5.649871826E-1,-7.609100342E-1
2.190118400E-1,1.640319824E-1,-9.356994629E-1,-7.683563232E-1
2.214837630E-1,4.258728027E-2,-1.155151367E0,-8.280181885E-1
2.239556870E-1,6.709289551E-2,-1.131713867E0,-8.812866211E-1
2.264276110E-1,9.904479980E-2,-1.114669800E0,-9.047241211E-1
2.288690170E-1,9.158325195E-2,-1.167938232E0,-9.079132080E-1
2.313409410E-1,5.537414551E-2,-1.236114502E0,-9.153747559E-1
2.338128650E-1,1.596069336E-2,-1.287246704E0,-9.238891602E-1
2.362847890E-1,-1.280212402E-2,-1.344772339E0,-9.174957275E-1
2.387567130E-1,-4.689025879E-2,-1.427856445E0,-8.961944580E-1
2.411981190E-1,-7.565307617E-2,-1.525863647E0,-8.642425537E-1
2.436700430E-1,-1.001586914E-1,-1.620666504E0,-8.290863037E-1
2.461419670E-1,-1.246643066E-1,-1.714416504E0,-7.822113037E-1
2.486138900E-1,-1.587524414E-1,-1.803894043E0,-7.342681885E-1
2.510858140E-1,-1.928405762E-1,-1.885925293E0,-6.895294189E-1
2.535272210E-1,-2.279968262E-1,-1.960494995E0,-6.447906494E-1
2.559991440E-1,-2.610168457E-1,-2.023345947E0,-6.000518799E-1
2.584710680E-1,-3.025512695E-1,-2.077667236E0,-5.585021973E-1
2.609429920E-1,-3.419799805E-1,-2.121353149E0,-5.233459473E-1
2.634149160E-1,-3.781890869E-1,-2.163955688E0,-5.009765625E-1
2.658563220E-1,-4.144134521E-1,-2.232131958E0,-4.764862061E-1
2.683282460E-1,-4.303894043E-1,-2.387664795E0,-4.445190430E-1
2.708001700E-1,-4.410400391E-1,-2.589004517E0,-4.146881104E-1
2.732720940E-1,-4.687347412E-1,-2.756240845E0,-3.848724365E-1
2.757440170E-1,-5.038909912E-1,-2.863830566E0,-3.561096191E-1
2.781854240E-1,-5.560913086E-1,-2.910705566E0,-3.273468018E-1
2.806573470E-1,-6.082916260E-1,-2.922424316E0,-2.996520996E-1
2.831292710E-1,-6.604919434E-1,-2.933074951E0,-2.751464844E-1
2.856011950E-1,-6.977691650E-1,-2.979949951E0,-2.591705322E-1
2.880731190E-1,-7.233428955E-1,-3.098190308E0,-2.378540039E-1
2.905145250E-1,-7.276000977E-1,-3.304855347E0,-2.176208496E-1
2.929864490E-1,-7.180175781E-1,-3.602066040E0,-1.984405518E-1
2.954583730E-1,-6.892547607E-1,-3.979171753E0,-1.813964844E-1
2.979302970E-1,-6.604919434E-1,-4.367996216E0,-1.654205322E-1
3.004022210E-1,-6.338500977E-1,-4.672653198E0,-1.600952148E-1
3.028436270E-1,-6.146850586E-1,-4.856948853E0,-1.622314453E-1
3.053155510E-1,-6.136169434E-1,-4.893157959E0,-1.771392822E-1
3.077874740E-1,-6.274566650E-1,-4.785568237E0,-2.005767822E-1
3.102593980E-1,-6.636810303E-1,-4.528839111E0,-2.261505127E-1
3.127313220E-1,-7.041625977E-1,-4.134689331E0,-2.591705322E-1
3.151727280E-1,-7.276000977E-1,-3.655319214E0,-2.932586670E-1
3.176446520E-1,-7.286682129E-1,-3.205780029E0,-3.294677734E-1
3.201165760E-1,-7.030944824E-1,-2.818023682E0,-3.763427734E-1
3.225885000E-1,-6.434478760E-1,-2.482467651E0,-4.328002930E-1
3.250604240E-1,-5.667419434E-1,-2.179931641E0,-4.956512451E-1
3.275323470E-1,-4.911041260E-1,-1.905090332E0,-5.648956299E-1
3.300042710E-1,-4.197387695E-1,-1.683517456E0,-6.320037842E-1
3.324761950E-1,-3.536834717E-1,-1.509887695E0,-6.852722168E-1
3.349481190E-1,-2.951049805E-1,-1.390579224E0,-7.332153320E-1
3.374200430E-1,-2.418365479E-1,-1.319198608E0,-7.587738037E-1
3.398614490E-1,-1.992340088E-1,-1.291503906E0,-7.683563232E-1
3.423333730E-1,-1.694030762E-1,-1.306411743E0,-7.768859863E-1
3.448052970E-1,-1.544799805E-1,-1.358612061E0,-7.811431885E-1
3.472772210E-1,-1.448974609E-1,-1.431060791E0,-7.917938232E-1
3.497491440E-1,-1.417083740E-1,-1.514144897E0,-8.056488037E-1
3.521905510E-1,-1.491546631E-1,-1.597229004E0,-8.248291016E-1
3.546624740E-1,-1.555480957E-1,-1.675003052E0,-8.386688232E-1
3.571343980E-1,-1.608734131E-1,-1.749572754E0,-8.610382080E-1
3.596063220E-1,-1.651458740E-1,-1.817749023E0,-8.770141602E-1
3.620782460E-1,-1.619415283E-1,-1.881668091E0,-8.866119385E-1
3.645196520E-1,-1.544799805E-1,-1.941314697E0,-8.961944580E-1
3.669915760E-1,-1.438293457E-1,-2.009490967E0,-9.036560059E-1
3.694635000E-1,-1.299896240E-1,-2.074478149E0,-9.068450928E-1
3.719354240E-1,-1.076202393E-1,-2.141586304E0,-9.153747559E-1
3.744073470E-1,-8.097839355E-2,-2.215087891E0,-9.185638428E-1
3.768792710E-1,-5.328369141E-2,-2.293914795E0,-9.174957275E-1
3.793206780E-1,-2.133178711E-2,-2.377014160E0,-9.196319580E-1
3.817926010E-1,1.382446289E-2,-2.444122314E0,-9.196319580E-1
3.842645250E-1,5.430603027E-2,-2.483535767E0,-9.185638428E-1
3.867059310E-1,1.043701172E-1,-2.497390747E0,-9.238891602E-1
3.891778550E-1,1.544342041E-1,-2.496322632E0,-9.228210449E-1
3.916497790E-1,2.066345215E-1,-2.488861084E0,-9.249572754E-1
3.941217030E-1,2.684173584E-1,-2.473953247E0,-9.281463623E-1
3.965936270E-1,3.259429932E-1,-2.467559814E0,-9.260253906E-1
3.990655510E-1,3.770751953E-1,-2.469680786E0,-9.249572754E-1
4.015069570E-1,4.271545410E-1,-2.462234497E0,-9.238891602E-1
4.039788810E-1,4.729614258E-1,-2.449447632E0,-9.111022949E-1
4.064508040E-1,5.177001953E-1,-2.432403564E0,-8.908691406E-1
4.089227280E-1,5.581817627E-1,-2.385528564E0,-8.716888428E-1
4.113946520E-1,5.890655518E-1,-2.328002930E0,-8.525238037E-1
4.138360580E-1,6.135711670E-1,-2.288589478E0,-8.344116211E-1
4.163079820E-1,6.306152344E-1,-2.288589478E0,-8.312072754E-1
4.187799060E-1,6.434020996E-1,-2.312026978E0,-8.354797363E-1
4.212518300E-1,6.647033691E-1,-2.348251343E0,-8.397369385E-1
4.236932360E-1,6.870727539E-1,-2.388732910E0,-8.514556885E-1
4.261651600E-1,7.115783691E-1,-2.420684814E0,-8.642425537E-1
4.286370840E-1,7.382049561E-1,-2.446258545E0,-8.716888428E-1
4.311090080E-1,7.691040039E-1,-2.464355469E0,-8.780822754E-1
4.335809310E-1,8.021240234E-1,-2.468627930E0,-8.791503906E-1
4.360223380E-1,8.276824951E-1,-2.462234497E0,-8.802185059E-1
4.384942620E-1,8.596496582E-1,-2.445190430E0,-8.759613037E-1
4.409661850E-1,8.905334473E-1,-2.424942017E0,-8.748931885E-1
4.434381090E-1,9.246215820E-1,-2.386596680E0,-8.748931885E-1
4.459100330E-1,9.608459473E-1,-2.338653564E0,-8.727569580E-1
4.483514390E-1,1.004516602E0,-2.276870728E0,-8.631744385E-1
4.508233630E-1,1.052459717E0,-2.214019775E0,-8.610382080E-1
4.532952870E-1,1.107849121E0,-2.152236938E0,-8.557128906E-1
4.557672110E-1,1.157913208E0,-2.101104736E0,-8.493194580E-1
4.582391350E-1,1.216506958E0,-2.067016602E0,-8.493194580E-1
4.606805410E-1,1.274032593E0,-2.047836304E0,-8.493194580E-1
4.631524650E-1,1.331558228E0,-2.049972534E0,-8.514556885E-1
4.656243880E-1,1.385879517E0,-2.070205688E0,-8.514556885E-1
4.680963120E-1,1.450866699E0,-2.102172852E0,-8.535766602E-1
4.705682360E-1,1.514785767E0,-2.156494141E0,-8.546447754E-1
4.730096420E-1,1.578704834E0,-2.226806641E0,-8.557128906E-1
4.754815660E-1,1.638351440E0,-2.285400391E0,-8.525238037E-1
4.779534900E-1,1.689483643E0,-2.325881958E0,-8.652954102E-1
4.804254140E-1,1.712921143E0,-2.355697632E0,-9.153747559E-1
4.828973380E-1,1.708663940E0,-2.361022949E0,-9.696960449E-1
4.853387440E-1,1.692687988E0,-2.303512573E0,-1.026153564E0
4.878106680E-1,1.656463623E0,-2.202301025E0,-1.081542969E0
4.902825920E-1,1.598937988E0,-2.085128784E0,-1.133743286E0
4.927545150E-1,1.519042969E0,-1.976470947E0,-1.181686401E0
4.952264390E-1,1.424240112E0,-1.912551880E0,-1.233886719E0
4.976678460E-1,1.320907593E0,-1.889114380E0,-1.285018921E0
5.001397690E-1,1.214385986E0,-1.888046265E0,-1.330825806E0
5.026116930E-1,1.103591919E0,-1.889114380E0,-1.371307373E0
5.050836170E-1,9.906768799E-1,-1.886993408E0,-1.406463623E0
5.075555410E-1,8.884124756E-1,-1.891250610E0,-1.436279297E0
5.099969470E-1,7.989196777E-1,-1.886993408E0,-1.453323364E0
5.124688710E-1,7.136993408E-1,-1.868881226E0,-1.462921143E0
5.149407950E-1,6.348724365E-1,-1.835861206E0,-1.466110229E0
5.174127190E-1,5.699005127E-1,-1.799636841E0,-1.460784912E0
5.198846420E-1,5.123748779E-1,-1.768737793E0,-1.452255249E0
5.223260490E-1,4.622955322E-1,-1.729324341E0,-1.439483643E0
5.247979720E-1,4.164886475E-1,-1.688842773E0,-1.423507690E0
5.272698960E-1,3.749542236E-1,-1.649429321E0,-1.401123047E0
5.297418200E-1,3.387298584E-1,-1.612152100E0,-1.374496460E0
5.322137440E-1,3.078460693E-1,-1.580184937E0,-1.344665527E0
5.346551500E-1,2.780151367E-1,-1.553558350E0,-1.311645508E0
5.371270740E-1,2.449951172E-1,-1.519470215E0,-1.271163940E0
5.395989980E-1,2.151641846E-1,-1.476867676E0,-1.223236084E0
5.420709220E-1,1.810760498E-1,-1.435317993E0,-1.180618286E0
5.445428460E-1,1.427154541E-1,-1.402297974E0,-1.149734497E0
5.470147690E-1,9.904479980E-2,-1.369262695E0,-1.118835449E0
5.494561760E-1,5.323791504E-2,-1.327728271E0,-1.090072632E0
5.519280990E-1,-3.219604492E-3,-1.292572021E0,-1.066635132E0
5.544000230E-1,-6.500244141E-2,-1.264877319E0,-1.042129517E0
5.568719470E-1,-1.246643066E-1,-1.242507935E0,-1.024032593E0
5.593133530E-1,-1.885681152E-1,-1.211608887E0,-1.002716064E0
5.617852770E-1,-2.556915283E-1,-1.179656982E0,-9.771575928E-1
5.642572010E-1,-3.227996826E-1,-1.141296387E0,-9.526519775E-1
5.667291250E-1,-3.867187500E-1,-1.106155396E0,-9.281463623E-1
5.692010490E-1,-4.463653564E-1,-1.084838867E0,-9.036560059E-1
5.716424550E-1,-4.911041260E-1,-1.075256348E0,-8.748931885E-1
5.741143790E-1,-5.230712891E-1,-1.070999146E0,-8.397369385E-1
5.765863030E-1,-5.358581543E-1,-1.060348511E0,-8.067169189E-1
5.790582260E-1,-5.326538086E-1,-1.047561646E0,-7.726287842E-1
5.815301500E-1,-5.102844238E-1,-1.032638550E0,-7.374725342E-1
5.839715560E-1,-4.730072021E-1,-1.025192261E0,-7.055053711E-1
5.864434800E-1,-4.218750000E-1,-1.025192261E0,-6.767425537E-1
5.889154040E-1,-3.717956543E-1,-1.027313232E0,-6.543731689E-1
5.913873280E-1,-3.142700195E-1,-1.028381348E0,-6.352081299E-1
5.938592520E-1,-2.524871826E-1,-1.029449463E0,-6.213531494E-1
5.963006580E-1,-1.981658936E-1,-1.035842896E0,-6.107025146E-1
5.987725820E-1,-1.448974609E-1,-1.056076050E0,-6.011199951E-1
6.012445060E-1,-9.269714355E-2,-1.081649780E0,-5.989837646E-1
6.037164290E-1,-5.328369141E-2,-1.112533569E0,-6.043090820E-1
6.061883530E-1,-1.068115234E-2,-1.149826050E0,-6.139068604E-1
6.086297600E-1,2.447509766E-2,-1.183914185E0,-6.298828125E-1
6.111016830E-1,5.004882812E-2,-1.216934204E0,-6.469268799E-1
6.135736070E-1,6.921386719E-2,-1.252090454E0,-6.650390625E-1
6.160455310E-1,8.413696289E-2,-1.292572021E0,-6.895294189E-1
6.185174550E-1,1.001129150E-1,-1.325592041E0,-7.129669189E-1
6.209893790E-1,1.043701172E-1,-1.355422974E0,-7.395935059E-1
6.234613030E-1,1.128997803E-1,-1.387374878E0,-7.704925537E-1
6.259332260E-1,1.235504150E-1,-1.417205811E0,-8.003234863E-1
6.284051500E-1,1.267395020E-1,-1.439575195E0,-8.333435059E-1
6.308770740E-1,1.299438477E-1,-1.461944580E0,-8.706207275E-1
6.333184800E-1,1.342010498E-1,-1.476867676E0,-9.047241211E-1
6.357904040E-1,1.384582520E-1,-1.494964600E0,-9.409332275E-1
6.382623280E-1,1.427154541E-1,-1.505630493E0,-9.771575928E-1
6.407342520E-1,1.459197998E-1,-1.516281128E0,-1.010177612E0
6.432061760E-1,1.427154541E-1,-1.526931763E0,-1.045333862E0
6.456475820E-1,1.459197998E-1,-1.547164917E0,-1.077285767E0
6.481195060E-1,1.352691650E-1,-1.565277100E0,-1.106048584E0
6.505914290E-1,1.267395020E-1,-1.586578369E0,-1.134811401E0
6.530633530E-1,1.107635498E-1,-1.607894897E0,-1.167831421E0
6.555352770E-1,9.797668457E-2,-1.629196167E0,-1.201919556E0
6.579766830E-1,8.306884766E-2,-1.648361206E0,-1.230682373E0
6.604486070E-1,6.069946289E-2,-1.669677734E0,-1.270095825E0
6.629205310E-1,3.086853027E-2,-1.702697754E0,-1.303131104E0
6.653924550E-1,-3.219604492E-3,-1.742111206E0,-1.344665527E0
6.678338610E-1,-5.116271973E-2,-1.783660889E0,-1.387283325E0
6.703057850E-1,-1.097412109E-1,-1.822006226E0,-1.433090210E0
6.727777090E-1,-1.715240479E-1,-1.863555908E0,-1.481018066E0
6.752496330E-1,-2.492980957E-1,-1.904037476E0,-1.524703979E0
6.777215560E-1,-3.313140869E-1,-1.947708130E0,-1.568374634E0
6.801629630E-1,-4.090881348E-1,-1.998840332E0,-1.604598999E0
6.826348870E-1,-4.825897217E-1,-2.054229736E0,-1.639755249E0
6.851068100E-1,-5.550231934E-1,-2.108566284E0,-1.673843384E0
6.875787340E-1,-6.231994629E-1,-2.159698486E0,-1.700469971E0
6.900506580E-1,-6.849822998E-1,-2.190582275E0,-1.723907471E0
6.924920640E-1,-7.457122803E-1,-2.200180054E0,-1.740951538E0
6.949639880E-1,-8.011016846E-1,-2.192718506E0,-1.756927490E0
6.974359120E-1,-8.437194824E-1,-2.167144775E0,-1.757995605E0
6.999078360E-1,-8.724670410E-1,-2.141586304E0,-1.742019653E0
7.023797600E-1,-9.033660889E-1,-2.111755371E0,-1.715377808E0
7.048211660E-1,-9.236145020E-1,-2.078735352E0,-1.684494019E0
7.072930900E-1,-9.385223389E-1,-2.051040649E0,-1.649337769E0
7.097650130E-1,-9.470367432E-1,-2.031860352E0,-1.619506836E0
7.122369370E-1,-9.587554932E-1,-2.029739380E0,-1.584350586E0
7.147088610E-1,-9.768676758E-1,-2.044647217E0,-1.544937134E0
7.171502670E-1,-1.004562378E0,-2.078735352E0,-1.505523682E0
7.196221910E-1,-1.047180176E0,-2.126678467E0,-1.468246460E0
7.220941150E-1,-1.101501465E0,-2.179931641E0,-1.427764893E0
7.245660390E-1,-1.175003052E0,-2.225738525E0,-1.387283325E0
7.270379630E-1,-1.255966187E0,-2.264083862E0,-1.348937988E0
7.294793690E-1,-1.342254639E0,-2.289657593E0,-1.308456421E0
7.319512930E-1,-1.431732178E0,-2.314163208E0,-1.273300171E0
7.344232170E-1,-1.509506226E0,-2.343978882E0,-1.230682373E0
7.368951400E-1,-1.578750610E0,-2.388732910E0,-1.191268921E0
7.393670640E-1,-1.629882812E0,-2.437728882E0,-1.151855469E0
7.418084710E-1,-1.665023804E0,-2.481399536E0,-1.110305786E0
7.442803940E-1,-1.685272217E0,-2.527206421E0,-1.075164795E0
7.467523180E-1,-1.685272217E0,-2.562362671E0,-1.043197632E0
7.492242420E-1,-1.670364380E0,-2.580474854E0,-1.014434814E0
7.516961660E-1,-1.634140015E0,-2.578338623E0,-9.920654297E-1
7.541375720E-1,-1.573425293E0,-2.574081421E0,-9.729003906E-1
7.566094960E-1,-1.499908447E0,-2.574081421E0,-9.547882080E-1
7.590814200E-1,-1.416824341E0,-2.570892334E0,-9.388122559E-1
7.615533440E-1,-1.320953369E0,-2.552780151E0,-9.281463623E-1
7.640252670E-1,-1.200576782E0,-2.519760132E0,-9.238891602E-1
7.664666740E-1,-1.069549561E0,-2.489929199E0,-9.270935059E-1
7.689385970E-1,-9.385223389E-1,-2.462234497E0,-9.398651123E-1
7.714105210E-1,-8.032379150E-1,-2.444122314E0,-9.558563232E-1
7.738824450E-1,-6.636810303E-1,-2.432403564E0,-9.792785645E-1
7.763543690E-1,-5.262603760E-1,-2.424942017E0,-1.016571045E0
7.787957750E-1,-4.026947021E-1,-2.431335449E0,-1.060241699E0
7.812676990E-1,-2.972259521E-1,-2.454772949E0,-1.109252930E0
7.837396230E-1,-2.141418457E-1,-2.468627930E0,-1.165710449E0
7.862115470E-1,-1.544799805E-1,-2.473953247E0,-1.224288940E0
7.886834710E-1,-1.235961914E-1,-2.465423584E0,-1.278625488E0
7.911248770E-1,-1.182708740E-1,-2.449447632E0,-1.338272095E0
7.935968010E-1,-1.289215088E-1,-2.426010132E0,-1.396865845E0
7.960687240E-1,-1.640777588E-1,-2.399383545E0,-1.457595825E0
7.985406480E-1,-2.152099609E-1,-2.364227295E0,-1.517242432E0
8.010125720E-1,-2.769927979E-1,-2.325881958E0,-1.572631836E0
8.034539780E-1,-3.504943848E-1,-2.286468506E0,-1.623764038E0
8.059259020E-1,-4.282531738E-1,-2.252380371E0,-1.675964355E0
8.083978260E-1,-5.113525391E-1,-2.216156006E0,-1.729232788E0
8.108697500E-1,-5.955047607E-1,-2.173538208E0,-1.776107788E0
8.133416740E-1,-6.785888672E-1,-2.125610352E0,-1.822967529E0
8.157830800E-1,-7.595520020E-1,-2.065948486E0,-1.866653442E0
8.182550040E-1,-8.330535889E-1,-2.008422852E0,-1.904998779E0
8.207269280E-1,-9.065704346E-1,-1.962615967E0,-1.945480347E0
8.231988510E-1,-9.736785889E-1,-1.944519043E0,-1.984893799E0
8.256707750E-1,-1.030136108E0,-1.949844360E0,-2.020050049E0
8.281121810E-1,-1.082336426E0,-1.967941284E0,-2.064788818E0
8.305841050E-1,-1.134536743E0,-1.991378784E0,-2.105270386E0
8.330560290E-1,-1.187789917E0,-2.009490967E0,-2.144683838E0
8.355279530E-1,-1.232528687E0,-2.023345947E0,-2.181961060E0
8.379998770E-1,-1.282608032E0,-2.019073486E0,-2.222442627E0
8.404412830E-1,-1.330535889E0,-1.997772217E0,-2.258666992E0
8.429132070E-1,-1.368881226E0,-1.967941284E0,-2.299148560E0
8.453851310E-1,-1.402969360E0,-1.939178467E0,-2.333236694E0
8.478570540E-1,-1.434936523E0,-1.911483765E0,-2.361999512E0
8.503289780E-1,-1.461563110E0,-1.879531860E0,-2.388626099E0
8.527703850E-1,-1.489257812E0,-1.855026245E0,-2.410995483E0
8.552423080E-1,-1.510574341E0,-1.842239380E0,-2.429107666E0
8.577142320E-1,-1.529739380E0,-1.840118408E0,-2.449356079E0
8.601861560E-1,-1.551040649E0,-1.841186523E0,-2.467453003E0
8.626580800E-1,-1.568084717E0,-1.855026245E0,-2.487701416E0
8.650994860E-1,-1.583007812E0,-1.876342773E0,-2.511138916E0
8.675714100E-1,-1.592590332E0,-1.893386841E0,-2.532440186E0
8.700433340E-1,-1.597915649E0,-1.915756226E0,-2.555877686E0
8.725152580E-1,-1.603240967E0,-1.941314697E0,-2.578247070E0
8.749871810E-1,-1.595794678E0,-1.962615967E0,-2.598480225E0
8.774285880E-1,-1.589401245E0,-1.971145630E0,-2.615524292E0
8.799005120E-1,-1.579803467E0,-1.961563110E0,-2.621917725E0
8.823724350E-1,-1.558502197E0,-1.940246582E0,-2.614471436E0
8.848443590E-1,-1.531875610E0,-1.910430908E0,-2.595291138E0
8.873162830E-1,-1.496719360E0,-1.872070312E0,-2.570785522E0
8.897576890E-1,-1.455169678E0,-1.822006226E0,-2.532440186E0
8.922296130E-1,-1.410430908E0,-1.769805908E0,-2.495162964E0
8.947015370E-1,-1.359298706E0,-1.719741821E0,-2.446151733E0
8.971734610E-1,-1.303909302E0,-1.661148071E0,-2.387557983E0
8.996453850E-1,-1.246383667E0,-1.611083984E0,-2.330047607E0
9.021173080E-1,-1.193115234E0,-1.572738647E0,-2.270385742E0
9.045892320E-1,-1.144119263E0,-1.535446167E0,-2.212860107E0
9.070611560E-1,-1.085525513E0,-1.507751465E0,-2.155334473E0
9.095330800E-1,-1.039718628E0,-1.491775513E0,-2.098876953E0
9.120050040E-1,-9.981689453E-1,-1.492843628E0,-2.040283203E0
9.144464100E-1,-9.577026367E-1,-1.505630493E0,-1.984893799E0
9.169183340E-1,-9.161529541E-1,-1.531188965E0,-1.934829712E0
9.193902580E-1,-8.831329346E-1,-1.562088013E0,-1.883697510E0
9.218621810E-1,-8.554229736E-1,-1.600433350E0,-1.838958740E0
9.243035880E-1,-8.351898193E-1,-1.644104004E0,-1.796340942E0
9.267755120E-1,-8.138885498E-1,-1.694168091E0,-1.756927490E0
9.292474350E-1,-7.936401367E-1,-1.749572754E0,-1.718582153E0
9.317193590E-1,-7.787322998E-1,-1.810287476E0,-1.686614990E0
9.341912830E-1,-7.627563477E-1,-1.866744995E0,-1.665313721E0
9.366326890E-1,-7.457122803E-1,-1.906158447E0,-1.644012451E0
9.391046130E-1,-7.265319824E-1,-1.922134399E0,-1.623764038E0
9.415765370E-1,-7.094879150E-1,-1.908294678E0,-1.606719971E0
9.440484610E-1,-6.977691650E-1,-1.880599976E0,-1.590744019E0
9.465203850E-1,-6.828613281E-1,-1.856094360E0,-1.571578979E0
9.489617910E-1,-6.722106934E-1,-1.826263428E0,-1.556655884E0
9.514337150E-1,-6.604919434E-1,-1.807098389E0,-1.538543701E0
9.539056380E-1,-6.487731934E-1,-1.785781860E0,-1.518310547E0
9.563775620E-1,-6.359863281E-1,-1.762344360E0,-1.502334595E0
9.588494860E-1,-6.210784912E-1,-1.738922119E0,-1.481018066E0
9.612908920E-1,-6.029663086E-1,-1.704833984E0,-1.461853027E0
9.637628160E-1,-5.901794434E-1,-1.663284302E0,-1.435211182E0
9.662347400E-1,-5.742034912E-1,-1.630264282E0,-1.410720825E0
9.687066640E-1,-5.592803955E-1,-1.614273071E0,-1.380889893E0
9.711785880E-1,-5.433044434E-1,-1.613220215E0,-1.353195190E0
9.736199940E-1,-5.262603760E-1,-1.624938965E0,-1.329757690E0
9.760919180E-1,-5.070953369E-1,-1.644104004E0,-1.309524536E0
9.785638420E-1,-4.868469238E-1,-1.661148071E0,-1.292465210E0
9.810357650E-1,-4.644775391E-1,-1.670745850E0,-1.277557373E0
9.835076890E-1,-4.421081543E-1,-1.681396484E0,-1.265838623E0
9.859490960E-1,-4.176025391E-1,-1.687789917E0,-1.261581421E0
9.884210190E-1,-3.899078369E-1,-1.694168091E0,-1.250930786E0
9.908929430E-1,-3.675384521E-1,-1.701629639E0,-1.247726440E0
9.933648670E-1,-3.409118652E-1,-1.705886841E0,-1.242401123E0
9.958367910E-1,-3.068237305E-1,-1.700561523E0,-1.236007690E0
9.982781970E-1,-2.780609131E-1,-1.694168091E0,-1.231750488E0
1.000750121E0,-2.429046631E-1,-1.690979004E0,-1.227493286E0
1.003222045E0,-2.183990479E-1,-1.685653687E0,-1.220031738E0
1.005693969E0,-1.917724609E-1,-1.675003052E0,-1.211517334E0
1.008165892E0,-1.661987305E-1,-1.662216187E0,-1.205123901E0
1.010607299E0,-1.512908936E-1,-1.646240234E0,-1.198730469E0
1.013079222E0,-1.342468262E-1,-1.629196167E0,-1.185943604E0
1.015551146E0,-1.257171631E-1,-1.610015869E0,-1.172103882E0
1.018023070E0,-1.193389893E-1,-1.591903687E0,-1.157180786E0
1.020494994E0,-1.172027588E-1,-1.576995850E0,-1.143341064E0
1.022936400E0,-1.140136719E-1,-1.555694580E0,-1.128417969E0
1.025408324E0,-1.161346436E-1,-1.531188965E0,-1.113510132E0
1.027880248E0,-1.172027588E-1,-1.503494263E0,-1.095397949E0
1.030352172E0,-1.182708740E-1,-1.470474243E0,-1.079421997E0
1.032824096E0,-1.225280762E-1,-1.440643311E0,-1.057052612E0
1.035265502E0,-1.267852783E-1,-1.410812378E0,-1.040008545E0
1.037737426E0,-1.278533936E-1,-1.380981445E0,-1.014434814E0
1.040209349E0,-1.342468262E-1,-1.361816406E0,-9.878082275E-1
1.042681273E0,-1.385040283E-1,-1.342636108E0,-9.654388428E-1
1.045153197E0,-1.438293457E-1,-1.321334839E0,-9.398651123E-1
1.047594603E0,-1.459655762E-1,-1.306411743E0,-9.111022949E-1
1.050066527E0,-1.459655762E-1,-1.294708252E0,-8.855438232E-1
1.052538451E0,-1.491546631E-1,-1.284042358E0,-8.567810059E-1
1.055010375E0,-1.491546631E-1,-1.273391724E0,-8.354797363E-1
1.057482299E0,-1.448974609E-1,-1.268066406E0,-8.162994385E-1
1.059923705E0,-1.459655762E-1,-1.264877319E0,-8.024444580E-1
1.062395629E0,-1.491546631E-1,-1.270202637E0,-7.917938232E-1
1.064867553E0,-1.491546631E-1,-1.277648926E0,-7.875366211E-1
1.067339476E0,-1.534271240E-1,-1.274459839E0,-7.886047363E-1
1.069811400E0,-1.544799805E-1,-1.266998291E0,-7.896728516E-1
1.072283324E0,-1.512908936E-1,-1.252090454E0,-8.003234863E-1
1.074724730E0,-1.598052979E-1,-1.227584839E0,-8.088378906E-1
1.077196654E0,-1.619415283E-1,-1.193496704E0,-8.205566406E-1
1.079668578E0,-1.640777588E-1,-1.153015137E0,-8.333435059E-1
1.082140502E0,-1.619415283E-1,-1.109344482E0,-8.461303711E-1
1.084581908E0,-1.630096436E-1,-1.063537598E0,-8.535766602E-1
1.087053832E0,-1.725921631E-1,-1.018798828E0,-8.631744385E-1
1.089525756E0,-1.800537109E-1,-9.783172607E-1,-8.727569580E-1
1.091997679E0,-1.843109131E-1,-9.389038086E-1,-8.834075928E-1
1.094469603E0,-1.939086914E-1,-9.037475586E-1,-8.961944580E-1
1.096911010E0,-2.045593262E-1,-8.696594238E-1,-9.079132080E-1
1.099382933E0,-2.173309326E-1,-8.323822021E-1,-9.143066406E-1
1.101854857E0,-2.311859131E-1,-7.940216064E-1,-9.207000732E-1
1.104326781E0,-2.439727783E-1,-7.535400391E-1,-9.270935059E-1
1.106798705E0,-2.610168457E-1,-7.183990479E-1,-9.302825928E-1
1.109240111E0,-2.695312500E-1,-6.832427979E-1,-9.345397949E-1
1.111712035E0,-2.791290283E-1,-6.523437500E-1,-9.334716797E-1
1.114183959E0,-2.844543457E-1,-6.225128174E-1,-9.324188232E-1
1.116655883E0,-2.897796631E-1,-5.969543457E-1,-9.324188232E-1
1.119127806E0,-2.887115479E-1,-5.735168457E-1,-9.281463623E-1
1.121569213E0,-2.929687500E-1,-5.479431152E-1,-9.196319580E-1
1.124041137E0,-2.919006348E-1,-5.170593262E-1,-9.089813232E-1
1.126513060E0,-2.897796631E-1,-4.808349609E-1,-8.930053711E-1
1.128984984E0,-2.801818848E-1,-4.488830566E-1,-8.802185059E-1
1.131426390E0,-2.727355957E-1,-4.115905762E-1,-8.631744385E-1
1.133898314E0,-2.588806152E-1,-3.711090088E-1,-8.397369385E-1
1.136370238E0,-2.482299805E-1,-3.285064697E-1,-8.184356689E-1
1.138842162E0,-2.269287109E-1,-2.816314697E-1,-7.949981689E-1
1.141314086E0,-2.045593262E-1,-2.368927002E-1,-7.726287842E-1
1.143786010E0,-1.768493652E-1,-2.006683350E-1,-7.459869385E-1
1.146227416E0,-1.534271240E-1,-1.665802002E-1,-7.204284668E-1
1.148699340E0,-1.267852783E-1,-1.335601807E-1,-6.980590820E-1
1.151171263E0,-9.696960449E-2,-1.133270264E-1,-6.692962646E-1
1.153643187E0,-7.139587402E-2,-1.058654785E-1,-6.416015625E-1
1.156084594E0,-4.156494141E-2,-1.239776611E-1,-6.117706299E-1
1.158556517E0,-1.387023926E-2,-1.538085938E-1,-5.915222168E-1
1.161028441E0,1.382446289E-2,-1.729736328E-1,-5.638275146E-1
1.163500365E0,3.512573242E-2,-1.868286133E-1,-5.340118408E-1
1.165972289E0,6.176757812E-2,-1.836242676E-1,-5.063018799E-1
1.168413695E0,8.732604980E-2,-1.782989502E-1,-4.796752930E-1
1.170885619E0,1.022491455E-1,-1.697845459E-1,-4.509124756E-1
1.173357543E0,1.182250977E-1,-1.676483154E-1,-4.242858887E-1
1.175829467E0,1.310119629E-1,-1.644592285E-1,-3.955230713E-1
1.178301390E0,1.405944824E-1,-1.623229980E-1,-3.774108887E-1
1.180773314E0,1.469879150E-1,-1.591339111E-1,-3.529052734E-1
1.183245238E0,1.512451172E-1,-1.516723633E-1,-3.347930908E-1
1.185717162E0,1.555023193E-1,-1.442108154E-1,-3.209533691E-1
1.188189086E0,1.597595215E-1,-1.410217285E-1,-2.975158691E-1
1.190661010E0,1.565704346E-1,-1.346282959E-1,-2.698211670E-1
1.193102416E0,1.544342041E-1,-1.260986328E-1,-2.410583496E-1
1.195574340E0,1.480560303E-1,-1.229095459E-1,-2.080383301E-1
1.198046263E0,1.331329346E-1,-1.175842285E-1,-1.664886475E-1
1.200518187E0,1.235504150E-1,-1.026763916E-1,-1.153564453E-1
1.202990111E0,1.214141846E-1,-7.391357422E-2,-5.569458008E-2
1.205431517E0,1.192932129E-1,-2.915954590E-2,1.353454590E-2
1.207903441E0,1.310119629E-1,2.835083008E-2,9.237670898E-2
1.210375365E0,1.469879150E-1,9.652709961E-2,1.743927002E-1
1.212847289E0,1.682891846E-1,1.636505127E-1,2.606811523E-1
1.215319213E0,1.970520020E-1,2.232971191E-1,3.554840088E-1
1.217760619E0,2.332763672E-1,2.573852539E-1,4.439086914E-1
1.220232543E0,2.737426758E-1,2.616577148E-1,5.333862305E-1
1.222704467E0,3.142242432E-1,2.392730713E-1,6.218109131E-1
1.225176390E0,3.589782715E-1,2.019958496E-1,6.974487305E-1
1.227648314E0,4.026489258E-1,1.540527344E-1,7.624206543E-1
1.230089721E0,4.431304932E-1,1.114501953E-1,8.210144043E-1
1.232561644E0,4.772186279E-1,8.055114746E-2,8.668212891E-1
1.235033568E0,5.081024170E-1,5.285644531E-2,9.009094238E-1
1.237505492E0,5.294189453E-1,2.729797363E-2,9.243469238E-1
1.239977416E0,5.411376953E-1,1.557922363E-2,9.403228760E-1
1.242418822E0,5.432586670E-1,3.860473633E-3,9.509735107E-1
1.244890746E0,5.294189453E-1,-5.737304688E-3,9.573669434E-1
1.247362670E0,5.081024170E-1,-1.211547852E-2,9.541625977E-1
1.249834594E0,4.740142822E-1,-1.745605469E-2,9.531097412E-1
1.252306517E0,4.346008301E-1,-3.343200684E-2,9.541625977E-1
1.254747924E0,3.845367432E-1,-5.047607422E-2,9.509735107E-1
1.257219847E0,3.302154541E-1,-5.899047852E-2,9.520416260E-1
1.259691771E0,2.684173584E-1,-5.047607422E-2,9.531097412E-1
1.262163695E0,2.087707520E-1,-3.022766113E-2,9.562988281E-1
1.264635619E0,1.416625977E-1,-2.532958984E-3,9.595031738E-1
1.267077025E0,7.453918457E-2,2.302551270E-2,9.616241455E-1
1.269548949E0,1.489257812E-2,5.285644531E-2,9.595031738E-1
1.272020873E0,-4.582214355E-2,8.694458008E-2,9.509735107E-1
1.274492797E0,-9.802246094E-2,1.274261475E-1,9.275360107E-1
1.276964721E0,-1.427612305E-1,1.540527344E-1,8.923797607E-1
1.279406127E0,-1.779174805E-1,1.508636475E-1,8.465728760E-1
1.281878051E0,-2.013549805E-1,1.189117432E-1,7.879943848E-1
1.284349974E0,-2.120056152E-1,5.924987793E-2,7.176818848E-1
1.286821898E0,-2.237243652E-1,-1.957702637E-2,6.377868652E-1
1.289293822E0,-2.216033936E-1,-1.037292480E-1,5.472412109E-1
1.291735228E0,-2.216033936E-1,-1.836242676E-1,4.470977783E-1
1.294207152E0,-2.269287109E-1,-2.443542480E-1,3.512268066E-1
1.296679076E0,-2.290496826E-1,-2.816314697E-1,2.585449219E-1
1.299151000E0,-2.418365479E-1,-2.997436523E-1,1.679992676E-1
1.301622924E0,-2.620849609E-1,-2.954864502E-1,8.171081543E-2
1.304064330E0,-2.855072021E-1,-2.858886719E-1,6.088256836E-3
1.306536254E0,-3.206634521E-1,-2.795104980E-1,-6.741333008E-2
1.309008178E0,-3.622131348E-1,-2.752380371E-1,-1.345367432E-1
1.311480101E0,-4.037628174E-1,-2.773742676E-1,-1.941833496E-1
1.313952025E0,-4.463653564E-1,-2.773742676E-1,-2.506408691E-1
1.316393431E0,-4.900512695E-1,-2.741699219E-1,-3.060455322E-1
1.318865355E0,-5.315856934E-1,-2.773742676E-1,-3.614349365E-1
1.321337279E0,-5.678100586E-1,-2.752380371E-1,-4.083099365E-1
1.323793444E0,-5.987091064E-1,-2.741699219E-1,-4.573059082E-1
1.326265368E0,-6.200103760E-1,-2.741699219E-1,-5.020446777E-1
1.328706774E0,-6.370544434E-1,-2.731170654E-1,-5.414581299E-1
1.331178698E0,-6.466369629E-1,-2.699127197E-1,-5.798034668E-1
1.333650622E0,-6.477050781E-1,-2.699127197E-1,-6.117706299E-1
1.336122545E0,-6.477050781E-1,-2.688446045E-1,-6.352081299E-1
1.338594469E0,-6.381225586E-1,-2.592620850E-1,-6.533203125E-1
1.341035876E0,-6.242675781E-1,-2.475433350E-1,-6.714172363E-1
1.343507799E0,-6.093597412E-1,-2.262420654E-1,-6.863403320E-1
1.345979723E0,-5.965728760E-1,-2.081298828E-1,-6.937866211E-1
1.348451647E0,-5.731353760E-1,-1.985473633E-1,-6.969909668E-1
1.350923571E0,-5.475616455E-1,-1.921539307E-1,-7.012481689E-1
1.353364977E0,-5.251922607E-1,-1.974792480E-1,-7.055053711E-1
1.355836901E0,-4.974975586E-1,-2.113342285E-1,-7.129669189E-1
1.358308825E0,-4.687347412E-1,-2.304992676E-1,-7.193603516E-1
1.360780749E0,-4.431762695E-1,-2.613983154E-1,-7.300109863E-1
1.363252672E0,-4.112091064E-1,-2.944183350E-1,-7.427978516E-1
1.365724596E0,-3.867187500E-1,-3.221130371E-1,-7.577056885E-1
1.368166003E0,-3.611450195E-1,-3.423614502E-1,-7.768859863E-1
1.370637926E0,-3.398437500E-1,-3.562011719E-1,-7.992553711E-1
1.373109850E0,-3.174743652E-1,-3.604583740E-1,-8.184356689E-1
1.375581774E0,-2.993621826E-1,-3.625946045E-1,-8.322753906E-1
1.378023180E0,-2.876434326E-1,-3.625946045E-1,-8.482513428E-1
1.380495104E0,-2.748565674E-1,-3.583374023E-1,-8.589172363E-1
1.382967028E0,-2.652740479E-1,-3.498077393E-1,-8.727569580E-1
1.385438952E0,-2.642059326E-1,-3.423614502E-1,-8.802185059E-1
1.387910876E0,-2.663421631E-1,-3.391571045E-1,-8.844757080E-1
1.390352282E0,-2.684631348E-1,-3.370208740E-1,-8.887329102E-1
1.392824206E0,-2.674102783E-1,-3.348999023E-1,-8.919372559E-1
1.395296129E0,-2.748565674E-1,-3.316955566E-1,-8.919372559E-1
1.397768053E0,-2.812500000E-1,-3.370208740E-1,-8.876647949E-1
1.400209460E0,-2.887115479E-1,-3.476867676E-1,-8.823394775E-1
1.402681383E0,-2.951049805E-1,-3.583374023E-1,-8.706207275E-1
1.405153307E0,-2.961730957E-1,-3.668518066E-1,-8.610382080E-1
1.407625231E0,-2.961730957E-1,-3.743133545E-1,-8.471984863E-1
1.410097155E0,-2.982940674E-1,-3.807067871E-1,-8.280181885E-1
1.412538561E0,-2.982940674E-1,-3.828277588E-1,-8.067169189E-1
1.415010485E0,-2.919006348E-1,-3.828277588E-1,-7.843475342E-1
1.417482409E0,-2.844543457E-1,-3.807067871E-1,-7.545166016E-1
1.419954333E0,-2.716674805E-1,-3.817749023E-1,-7.278900146E-1
1.422426256E0,-2.556915283E-1,-3.881530762E-1,-7.012481689E-1
1.424867663E0,-2.333221436E-1,-4.020080566E-1,-6.767425537E-1
1.427339587E0,-2.045593262E-1,-4.233093262E-1,-6.671600342E-1
1.429811510E0,-1.683349609E-1,-4.520721436E-1,-6.682281494E-1
1.432283434E0,-1.374359131E-1,-4.914855957E-1,-6.948547363E-1
1.434755358E0,-9.802246094E-2,-5.394287109E-1,-7.332153320E-1
1.437196764E0,-5.648803711E-2,-5.799102783E-1,-7.619781494E-1
1.439668688E0,-1.173400879E-2,-6.097412109E-1,-7.822113037E-1
1.442140612E0,3.300476074E-2,-6.395568848E-1,-8.024444580E-1
1.444582018E0,6.816101074E-2,-6.661987305E-1,-8.131103516E-1
1.447084460E0,9.158325195E-2,-6.875000000E-1,-8.226928711E-1
1.449556383E0,1.086273193E-1,-6.970825195E-1,-8.322753906E-1
1.451997790E0,1.128997803E-1,-6.906890869E-1,-8.301544189E-1
1.454469713E0,1.075744629E-1,-6.672668457E-1,-8.226928711E-1
1.456941637E0,9.053039551E-2,-6.395568848E-1,-8.088378906E-1
1.459413561E0,5.644226074E-2,-6.171875000E-1,-7.832794189E-1
1.461854967E0,1.914978027E-2,-5.990905762E-1,-7.566375732E-1
1.464326891E0,-2.772521973E-2,-5.863037109E-1,-7.193603516E-1
1.466798815E0,-8.418273926E-2,-5.809783936E-1,-6.810150146E-1
1.469270739E0,-1.448974609E-1,-5.884246826E-1,-6.490478516E-1
1.471742663E0,-2.013549805E-1,-5.990905762E-1,-6.139068604E-1
1.474214587E0,-2.588806152E-1,-6.161346436E-1,-5.776824951E-1
1.476686510E0,-3.110809326E-1,-6.331787109E-1,-5.435943604E-1
1.479158434E0,-3.579559326E-1,-6.395568848E-1,-5.116271973E-1
1.481630358E0,-4.016265869E-1,-6.448822021E-1,-4.807434082E-1
1.484102282E0,-4.346466064E-1,-6.544799805E-1,-4.519805908E-1
1.486543688E0,-4.602203369E-1,-6.661987305E-1,-4.360046387E-1
1.489015612E0,-4.825897217E-1,-6.715240479E-1,-4.253540039E-1
1.491487536E0,-4.900512695E-1,-6.800384521E-1,-4.210815430E-1
1.493959460E0,-5.038909912E-1,-6.875000000E-1,-4.264068604E-1
1.496431383E0,-5.081481934E-1,-6.885681152E-1,-4.381256104E-1
1.498872790E0,-5.124206543E-1,-6.938934326E-1,-4.583740234E-1
1.501344713E0,-5.092163086E-1,-6.992187500E-1,-4.850006104E-1
1.503816637E0,-5.049591064E-1,-7.013549805E-1,-5.126953125E-1
1.506288561E0,-4.974975586E-1,-7.066802979E-1,-5.414581299E-1
1.508760485E0,-4.889831543E-1,-7.120056152E-1,-5.680999756E-1
1.511201891E0,-4.783325195E-1,-7.109375000E-1,-6.000518799E-1
1.513673815E0,-4.612884521E-1,-7.098693848E-1,-6.277465820E-1
1.516145739E0,-4.452972412E-1,-7.130737305E-1,-6.554412842E-1
1.518617663E0,-4.335784912E-1,-7.151947021E-1,-6.820831299E-1
1.521089587E0,-4.197387695E-1,-7.183990479E-1,-7.012481689E-1
1.523530993E0,-4.122772217E-1,-7.279815674E-1,-7.097778320E-1
1.526002917E0,-3.973693848E-1,-7.439575195E-1,-7.097778320E-1
1.528474840E0,-3.909759521E-1,-7.578125000E-1,-6.948547363E-1
1.530946764E0,-3.867187500E-1,-7.652587891E-1,-6.692962646E-1
1.533418688E0,-3.813934326E-1,-7.663269043E-1,-6.362762451E-1
1.535860094E0,-3.845825195E-1,-7.620697021E-1,-5.904693604E-1
1.538332018E0,-3.952331543E-1,-7.588653564E-1,-5.467834473E-1
1.540803942E0,-4.016265869E-1,-7.546081543E-1,-4.945831299E-1
1.543275866E0,-4.112091064E-1,-7.556762695E-1,-4.455871582E-1
1.545747790E0,-4.250640869E-1,-7.705841064E-1,-3.901977539E-1
1.548189196E0,-4.367828369E-1,-7.919006348E-1,-3.422546387E-1
1.550661120E0,-4.485015869E-1,-8.132019043E-1,-3.007049561E-1
1.553133044E0,-4.591522217E-1,-8.345031738E-1,-2.570343018E-1
1.555604967E0,-4.708709717E-1,-8.504791260E-1,-2.186889648E-1
1.558076891E0,-4.804534912E-1,-8.632659912E-1,-1.856689453E-1
1.560518297E0,-4.911041260E-1,-8.707275391E-1,-1.569061279E-1
1.562990221E0,-5.028228760E-1,-8.739166260E-1,-1.324005127E-1
1.565462145E0,-5.113525391E-1,-8.760528564E-1,-1.174926758E-1
1.567934069E0,-5.188140869E-1,-8.781890869E-1,-1.047058105E-1
1.570405993E0,-5.315856934E-1,-8.845672607E-1,-1.004486084E-1
1.572847399E0,-5.518341064E-1,-8.930969238E-1,-1.025695801E-1
1.575319323E0,-5.827178955E-1,-9.112091064E-1,-1.153564453E-1
1.577791247E0,-6.264038086E-1,-9.314422607E-1,-1.324005127E-1
1.580263170E0,-6.935119629E-1,-9.580841064E-1,-1.600952148E-1
1.582735094E0,-7.702026367E-1,-9.708557129E-1,-1.920471191E-1
1.585176501E0,-8.543701172E-1,-9.665985107E-1,-2.272033691E-1
1.587648424E0,-9.363861084E-1,-9.495544434E-1,-2.644958496E-1
1.590120348E0,-1.018417358E0,-9.176025391E-1,-2.921905518E-1
1.592592272E0,-1.090850830E0,-8.792419434E-1,-3.177490234E-1
1.595033678E0,-1.144119263E0,-8.462219238E-1,-3.337402344E-1
1.597505602E0,-1.188858032E0,-8.121337891E-1,-3.465118408E-1
1.599977526E0,-1.220809937E0,-7.833709717E-1,-3.571777344E-1
1.602449450E0,-1.239990234E0,-7.652587891E-1,-3.678283691E-1
1.604921374E0,-1.249572754E0,-7.524871826E-1,-3.784790039E-1
1.607362780E0,-1.247451782E0,-7.460937500E-1,-3.933868408E-1
1.609834704E0,-1.236801147E0,-7.418212891E-1,-4.114990234E-1
1.612306628E0,-1.220809937E0,-7.407684326E-1,-4.338684082E-1
1.614778551E0,-1.203765869E0,-7.322387695E-1,-4.583740234E-1
1.617250475E0,-1.183532715E0,-7.151947021E-1,-4.903259277E-1
1.619691881E0,-1.162231445E0,-6.906890869E-1,-5.233459473E-1
1.622163805E0,-1.144119263E0,-6.683197021E-1,-5.638275146E-1
1.624635729E0,-1.123870850E0,-6.416931152E-1,-6.096343994E-1
1.627107653E0,-1.099380493E0,-6.278381348E-1,-6.501159668E-1
1.629579577E0,-1.078063965E0,-6.235809326E-1,-6.969909668E-1
1.632020983E0,-1.047180176E0,-6.406250000E-1,-7.353363037E-1
1.634492907E0,-1.017349243E0,-6.906890869E-1,-7.577056885E-1
1.636964831E0,-9.821929932E-1,-7.386322021E-1,-7.662353516E-1
1.639436754E0,-9.353179932E-1,-7.578125000E-1,-7.545166016E-1
1.641908678E0,-8.820648193E-1,-7.556762695E-1,-7.289428711E-1
1.644350085E0,-8.192138672E-1,-7.471618652E-1,-6.959228516E-1
1.646822008E0,-7.446441650E-1,-7.428894043E-1,-6.565093994E-1
1.649293932E0,-6.690063477E-1,-7.343750000E-1,-6.245574951E-1
1.651765856E0,-5.880432129E-1,-7.226562500E-1,-5.957946777E-1
1.654237780E0,-5.102844238E-1,-7.088012695E-1,-5.766143799E-1
1.656679186E0,-4.399719238E-1,-6.981506348E-1,-5.670318604E-1
1.659151110E0,-3.707275391E-1,-6.981506348E-1,-5.680999756E-1
1.661623034E0,-3.100128174E-1,-7.024078369E-1,-5.766143799E-1
1.664094958E0,-2.535552979E-1,-6.917572021E-1,-5.915222168E-1
1.666566881E0,-2.077484131E-1,-6.757812500E-1,-6.139068604E-1
1.669008288E0,-1.715240479E-1,-6.512756348E-1,-6.383972168E-1
1.671480212E0,-1.363830566E-1,-6.129302979E-1,-6.682281494E-1
1.673952135E0,-1.193389893E-1,-5.724487305E-1,-6.895294189E-1
1.676424059E0,-1.086730957E-1,-5.415649414E-1,-7.172241211E-1
1.678895983E0,-1.054840088E-1,-5.128021240E-1,-7.502593994E-1
1.681337389E0,-1.022949219E-1,-4.850921631E-1,-7.790222168E-1
1.683809313E0,-9.909057617E-2,-4.616699219E-1,-8.141632080E-1
1.686281237E0,-1.033477783E-1,-4.456787109E-1,-8.578491211E-1
1.688753161E0,-1.033477783E-1,-4.414215088E-1,-8.972625732E-1
1.691225085E0,-1.001586914E-1,-4.424896240E-1,-9.366760254E-1
1.693666491E0,-9.162902832E-2,-4.510040283E-1,-9.729003906E-1
1.696138415E0,-1.044158936E-1,-4.201202393E-1,-9.643707275E-1
1.698610338E0,-3.409118652E-1,-1.069335938E-1,-6.852722168E-1
1.701082262E0,-6.636810303E-1,4.753112793E-2,-1.686248779E-1
1.703554186E0,-8.245391846E-1,-1.548614502E-1,2.585449219E-1
1.705995592E0,-8.969726562E-1,-3.231811523E-1,5.440368652E-1
1.708467516E0,-9.278717041E-1,-4.073333740E-1,6.740112305E-1
1.710939440E0,-9.299926758E-1,-4.488830566E-1,6.782684326E-1
1.713411364E0,-9.278717041E-1,-4.701843262E-1,6.218109131E-1
1.715883288E0,-9.236145020E-1,-4.733886719E-1,5.483093262E-1
1.718324694E0,-9.118957520E-1,-4.723205566E-1,4.694671631E-1
1.720796618E0,-8.959045410E-1,-4.627227783E-1,3.917083740E-1
1.723268542E0,-8.799285889E-1,-4.531402588E-1,3.267364502E-1
1.725740465E0,-8.596954346E-1,-4.467468262E-1,2.638854980E-1
1.728212389E0,-8.373260498E-1,-4.382324219E-1,1.999664307E-1
1.730653795E0,-8.192138672E-1,-4.307708740E-1,1.445617676E-1
1.733125719E0,-8.011016846E-1,-4.243774414E-1,1.072845459E-1
1.735597643E0,-7.776641846E-1,-4.158630371E-1,7.958984375E-2
1.738069567E0,-7.616882324E-1,-3.924255371E-1,6.466674805E-2
1.740541491E0,-7.478332520E-1,-3.519439697E-1,6.787109375E-2
1.742982897E0,-7.339935303E-1,-3.178558350E-1,7.638549805E-2
1.745454821E0,-7.222747803E-1,-3.040008545E-1,8.384704590E-2
1.747926745E0,-6.977691650E-1,-2.954864502E-1,8.705139160E-2
1.750398669E0,-6.711425781E-1,-2.731170654E-1,8.491516113E-2
1.752870592E0,-6.487731934E-1,-2.496795654E-1,7.533264160E-2
1.755342516E0,-6.242675781E-1,-2.326354980E-1,6.254577637E-2
1.757814440E0,-6.114807129E-1,-2.219848633E-1,4.656982422E-2
1.760286364E0,-5.965728760E-1,-2.134552002E-1,2.632141113E-2
1.762758288E0,-5.816497803E-1,-2.059936523E-1,-3.051757812E-4
1.765230212E0,-5.656738281E-1,-2.070617676E-1,-2.799987793E-2
1.767671618E0,-5.454406738E-1,-2.219848633E-1,-5.569458008E-2
1.770143542E0,-5.230712891E-1,-2.251739502E-1,-8.233642578E-2
1.772615465E0,-5.017700195E-1,-2.230377197E-1,-1.121673584E-1
1.775087389E0,-4.804534912E-1,-2.283782959E-1,-1.451873779E-1
1.777559313E0,-4.527587891E-1,-2.326354980E-1,-1.792755127E-1
1.780000719E0,-4.314575195E-1,-2.304992676E-1,-2.165527344E-1
1.782472643E0,-4.112091064E-1,-2.230377197E-1,-2.538452148E-1
1.784944567E0,-3.888397217E-1,-2.187805176E-1,-2.879333496E-1
1.787416491E0,-3.739318848E-1,-2.113342285E-1,-3.188171387E-1
1.789888415E0,-3.579559326E-1,-2.123870850E-1,-3.465118408E-1
1.792329821E0,-3.409118652E-1,-2.134552002E-1,-3.667602539E-1
1.794801745E0,-3.238677979E-1,-2.091979980E-1,-3.848724365E-1
1.797273669E0,-3.110809326E-1,-2.081298828E-1,-3.987121582E-1
1.799745592E0,-2.929687500E-1,-2.081298828E-1,-4.136352539E-1
1.802217516E0,-2.737884521E-1,-2.102661133E-1,-4.274749756E-1
1.804658922E0,-2.546234131E-1,-2.177124023E-1,-4.391937256E-1
1.807130846E0,-2.290496826E-1,-2.166595459E-1,-4.477233887E-1
1.809602770E0,-2.045593262E-1,-2.102661133E-1,-4.615631104E-1
1.812074694E0,-1.736602783E-1,-1.985473633E-1,-4.700927734E-1
1.814546618E0,-1.353149414E-1,-1.910858154E-1,-4.818115234E-1
1.816988024E0,-9.590148926E-2,-1.708526611E-1,-4.924621582E-1
1.819459948E0,-5.754089355E-2,-1.431427002E-1,-5.009765625E-1
1.821931872E0,-1.387023926E-2,-1.229095459E-1,-5.105743408E-1
1.824403795E0,3.726196289E-2,-9.947204590E-2,-5.180206299E-1
1.826845202E0,8.520507812E-2,-8.029174805E-2,-5.361328125E-1
1.829317126E0,1.416625977E-1,-7.496643066E-2,-5.563812256E-1
1.831789049E0,1.927947998E-1,-6.324768066E-2,-5.830078125E-1
1.834260973E0,2.439270020E-1,-4.727172852E-2,-6.170959473E-1
1.836732897E0,2.865295410E-1,-2.915954590E-2,-6.416015625E-1
1.839174303E0,3.302154541E-1,-1.106262207E-2,-6.650390625E-1
1.841646227E0,3.643035889E-1,-3.601074219E-3,-6.905975342E-1
1.844118151E0,3.909301758E-1,2.792358398E-3,-7.108459473E-1
1.846590075E0,4.132995605E-1,4.928588867E-3,-7.214965820E-1
1.849061999E0,4.303436279E-1,-2.532958984E-3,-7.225494385E-1
1.851503405E0,4.537811279E-1,-2.597045898E-2,-7.033843994E-1
1.853975329E0,4.846649170E-1,-5.366516113E-2,-6.820831299E-1
1.856447253E0,5.251464844E-1,-9.095764160E-2,-6.490478516E-1
1.858919176E0,5.773468018E-1,-1.271667480E-1,-6.075134277E-1
1.861391100E0,6.444549561E-1,-1.420898438E-1,-5.574340820E-1
1.863832506E0,7.286224365E-1,-1.548614502E-1,-5.031127930E-1
1.866304430E0,8.276824951E-1,-1.729736328E-1,-4.519805908E-1
1.868776354E0,9.395446777E-1,-2.028045654E-1,-3.965911865E-1
1.871248278E0,1.067367554E0,-2.337036133E-1,-3.507843018E-1
1.873720202E0,1.204788208E0,-2.699127197E-1,-3.124237061E-1
1.876161608E0,1.350738525E0,-3.061370850E-1,-2.794036865E-1
1.878633532E0,1.500930786E0,-3.498077393E-1,-2.527770996E-1
1.881105456E0,1.661788940E0,-4.009399414E-1,-2.357330322E-1
1.883577379E0,1.825836182E0,-4.531402588E-1,-2.282714844E-1
1.886049303E0,1.986694336E0,-4.840393066E-1,-2.335968018E-1
1.888490710E0,2.131576538E0,-4.829711914E-1,-2.410583496E-1
1.890962633E0,2.245559692E0,-4.648590088E-1,-2.495727539E-1
1.893434557E0,2.345687866E0,-4.744415283E-1,-2.751464844E-1
1.895906481E0,2.449020386E0,-5.053405762E-1,-3.401336670E-1
1.898378405E0,2.541702271E0,-5.447540283E-1,-4.391937256E-1
1.900850329E0,2.615203857E0,-5.777740479E-1,-5.798034668E-1
1.903291735E0,2.645034790E0,-5.969543457E-1,-7.534484863E-1
1.905763659E0,2.591766357E0,-5.564727783E-1,-9.089813232E-1
1.908235583E0,2.444763184E0,-4.723205566E-1,-1.013366699E0
1.910707506E0,2.208267212E0,-3.966827393E-1,-1.077285767E0
1.913148913E0,1.903610229E0,-3.423614502E-1,-1.112442017E0
1.915620837E0,1.556335449E0,-3.018798828E-1,-1.130554199E0
1.918092760E0,1.201599121E0,-2.613983154E-1,-1.132690430E0
1.920564684E0,8.724212646E-1,-2.134552002E-1,-1.125228882E0
1.923036608E0,5.858764648E-1,-1.506042480E-1,-1.115646362E0
1.925478014E0,3.643035889E-1,-7.817077637E-2,-1.101791382E0
1.927949938E0,2.109069824E-1,-8.926391602E-3,-1.089004517E0
1.930421862E0,1.086273193E-1,5.178833008E-2,-1.076217651E0
1.932893786E0,6.388854980E-2,8.587646484E-2,-1.060241699E0
1.935365710E0,5.537414551E-2,8.268737793E-2,-1.047454834E0
1.937807116E0,7.241821289E-2,4.966735840E-2,-1.026153564E0
1.940279040E0,1.075744629E-1,-4.669189453E-3,-1.000595093E0
1.942750963E0,1.544342041E-1,-6.645202637E-2,-9.665069580E-1
1.945222887E0,2.034454346E-1,-1.111907959E-1,-9.356079102E-1
1.947694811E0,2.396545410E-1,-1.442108154E-1,-9.057769775E-1
1.950136217E0,2.694854736E-1,-1.889495850E-1,-8.706207275E-1
1.952608141E0,2.982482910E-1,-2.486114502E-1,-8.439941406E-1
1.955080065E0,3.206176758E-1,-2.720489502E-1,-8.184356689E-1
1.957551989E0,3.365936279E-1,-2.635192871E-1,-7.939300537E-1
1.960023913E0,3.397979736E-1,-2.518005371E-1,-7.694244385E-1
1.962465319E0,3.376617432E-1,-2.347564697E-1,-7.545166016E-1
1.964937243E0,3.334045410E-1,-2.145233154E-1,-7.406616211E-1
1.967409167E0,3.280792236E-1,-1.996154785E-1,-7.321472168E-1
1.969881090E0,3.227539062E-1,-1.836242676E-1,-7.257537842E-1
1.972353014E0,3.152923584E-1,-1.740417480E-1,-7.097778320E-1
1.974794420E0,3.163604736E-1,-1.676483154E-1,-6.884613037E-1
1.977266344E0,3.195495605E-1,-1.655273438E-1,-6.692962646E-1
1.979738268E0,3.174285889E-1,-1.516723633E-1,-6.458587646E-1
1.982210192E0,3.174285889E-1,-1.431427002E-1,-6.192321777E-1
1.984682116E0,3.163604736E-1,-1.410217285E-1,-5.968475342E-1
1.987123522E0,3.206176758E-1,-1.399536133E-1,-5.723571777E-1
1.989595446E0,3.248901367E-1,-1.442108154E-1,-5.542449951E-1
1.992067370E0,3.365936279E-1,-1.516723633E-1,-5.382690430E-1
1.994539294E0,3.440551758E-1,-1.623229980E-1,-5.340118408E-1
1.997011217E0,3.483123779E-1,-1.633911133E-1,-5.329437256E-1
1.999452624E0,3.461914062E-1,-1.474151611E-1,-5.361328125E-1
2.001924547E0,3.344726562E-1,-1.410217285E-1,-5.467834473E-1
2.004396471E0,3.216857910E-1,-1.442108154E-1,-5.585021973E-1
2.006868395E0,2.993164062E-1,-1.431427002E-1,-5.585021973E-1
2.009340319E0,2.726898193E-1,-1.431427002E-1,-5.553131104E-1
2.011781725E0,2.460479736E-1,-1.463470459E-1,-5.446624756E-1
2.014253649E0,2.215576172E-1,-1.463470459E-1,-5.286712646E-1
2.016725573E0,1.895904541E-1,-1.495361328E-1,-5.105743408E-1
2.019197497E0,1.555023193E-1,-1.538085938E-1,-4.882049561E-1
2.021669420E0,1.235504150E-1,-1.516723633E-1,-4.636993408E-1
2.024110827E0,9.053039551E-2,-1.506042480E-1,-4.338684082E-1
2.026582751E0,6.069946289E-2,-1.452789307E-1,-3.987121582E-1
2.029054674E0,2.661132812E-2,-1.410217285E-1,-3.688812256E-1
2.031526598E0,-4.287719727E-3,-1.474151611E-1,-3.273468018E-1
2.033998522E0,-2.558898926E-2,-1.474151611E-1,-2.932586670E-1
2.036439928E0,-5.648803711E-2,-1.282348633E-1,-2.602386475E-1
2.038911852E0,-8.737182617E-2,-1.005401611E-1,-2.357330322E-1
2.041383776E0,-1.172027588E-1,-8.349609375E-2,-2.133636475E-1
2.043855700E0,-1.438293457E-1,-8.242797852E-2,-2.005767822E-1
2.046327624E0,-1.630096436E-1,-9.414672852E-2,-1.973876953E-1
2.048799547E0,-1.779174805E-1,-1.037292480E-1,-2.080383301E-1
2.051271471E0,-1.811218262E-1,-1.090545654E-1,-2.229461670E-1
2.053743395E0,-1.811218262E-1,-1.143951416E-1,-2.463836670E-1
2.056215319E0,-1.832427979E-1,-1.122589111E-1,-2.676849365E-1
2.058687243E0,-1.864471436E-1,-1.047973633E-1,-2.921905518E-1
2.061128649E0,-1.875152588E-1,-8.668518066E-2,-3.156280518E-1
2.063600573E0,-1.875152588E-1,-6.752014160E-2,-3.465118408E-1
2.066072497E0,-1.896362305E-1,-4.408264160E-2,-3.678283691E-1
2.068544420E0,-1.949615479E-1,-3.343200684E-2,-3.901977539E-1
2.070985827E0,-1.917724609E-1,-2.703857422E-2,-4.104309082E-1
2.073457751E0,-1.875152588E-1,-1.638793945E-2,-4.264068604E-1
2.075929674E0,-1.832427979E-1,-6.790161133E-3,-4.434509277E-1
2.078401598E0,-1.779174805E-1,3.860473633E-3,-4.573059082E-1
2.080873522E0,-1.747283936E-1,7.049560547E-3,-4.764862061E-1
2.083314928E0,-1.672668457E-1,9.185791016E-3,-4.967193604E-1
2.085786852E0,-1.598052979E-1,3.860473633E-3,-5.158996582E-1
2.088258776E0,-1.576843262E-1,-8.926391602E-3,-5.382690430E-1
2.090730700E0,-1.555480957E-1,-2.703857422E-2,-5.606384277E-1
2.093202624E0,-1.491546631E-1,-3.875732422E-2,-5.766143799E-1
2.095644030E0,-1.417083740E-1,-4.408264160E-2,-5.872650146E-1
2.098115954E0,-1.374359131E-1,-4.727172852E-2,-5.947265625E-1
2.100587878E0,-1.363830566E-1,-4.620361328E-2,-5.979156494E-1
2.103059801E0,-1.353149414E-1,-4.408264160E-2,-5.947265625E-1
2.105531725E0,-1.321105957E-1,-4.408264160E-2,-5.861968994E-1
2.107973131E0,-1.310577393E-1,-4.620361328E-2,-5.680999756E-1
2.110445055E0,-1.225280762E-1,-5.580139160E-2,-5.467834473E-1
2.112916979E0,-1.172027588E-1,-7.177734375E-2,-5.158996582E-1
2.115388903E0,-1.150665283E-1,-8.882141113E-2,-4.743499756E-1
2.117860827E0,-1.086730957E-1,-1.037292480E-1,-4.328002930E-1
2.120302233E0,-1.065521240E-1,-1.154479980E-1,-3.827362061E-1
2.122774157E0,-1.086730957E-1,-1.303710938E-1,-3.326721191E-1
2.125246081E0,-1.097412109E-1,-1.538085938E-1,-2.794036865E-1
2.127718004E0,-1.054840088E-1,-1.815032959E-1,-2.250823975E-1
2.130189928E0,-9.162902832E-2,-2.123870850E-1,-1.686248779E-1
2.132631335E0,-7.032775879E-2,-2.315673828E-1,-1.174926758E-1
2.135103258E0,-4.263305664E-2,-2.294311523E-1,-6.315612793E-2
2.137575182E0,-1.493835449E-2,-2.134552002E-1,-7.766723633E-3
2.140047106E0,8.499145508E-3,-2.006683350E-1,4.336547852E-2
2.142519030E0,2.980041504E-2,-1.932220459E-1,8.810424805E-2
2.144960436E0,4.472351074E-2,-1.878967285E-1,1.243286133E-1
2.147432360E0,5.644226074E-2,-1.868286133E-1,1.594848633E-1
2.149904284E0,6.069946289E-2,-1.910858154E-1,1.861114502E-1
2.152376208E0,5.963134766E-2,-2.006683350E-1,2.031555176E-1
2.154848131E0,5.537414551E-2,-2.113342285E-1,2.212677002E-1
2.157289538E0,5.004882812E-2,-2.219848633E-1,2.372436523E-1
2.159761462E0,3.726196289E-2,-2.315673828E-1,2.447052002E-1
2.162233385E0,2.873229980E-2,-2.379608154E-1,2.532196045E-1
2.164705309E0,1.914978027E-2,-2.454223633E-1,2.596130371E-1
2.167177233E0,7.431030273E-3,-2.496795654E-1,2.660064697E-1
2.169618639E0,3.173828125E-3,-2.443542480E-1,2.638854980E-1
2.172090563E0,-3.051757812E-5,-2.390289307E-1,2.638854980E-1
2.174562487E0,3.173828125E-3,-2.315673828E-1,2.585449219E-1
2.177034411E0,-1.083374023E-3,-2.262420654E-1,2.510986328E-1
2.179506335E0,1.037597656E-3,-2.230377197E-1,2.383117676E-1
2.181947741E0,-2.151489258E-3,-2.187805176E-1,2.212677002E-1
2.184419665E0,-7.476806641E-3,-2.166595459E-1,2.042236328E-1
2.186891588E0,-9.613037109E-3,-2.198486328E-1,1.893157959E-1
2.189363512E0,-1.387023926E-2,-2.251739502E-1,1.775970459E-1
2.191835436E0,-2.665710449E-2,-2.304992676E-1,1.712036133E-1
2.194276842E0,-3.411865234E-2,-2.400817871E-1,1.679992676E-1
2.196748766E0,-3.730773926E-2,-2.550048828E-1,1.754608154E-1
2.199220690E0,-3.944396973E-2,-2.699127197E-1,1.807861328E-1
2.201692614E0,-4.263305664E-2,-2.763061523E-1,1.861114502E-1
2.204164538E0,-3.730773926E-2,-2.890930176E-1,2.010345459E-1
2.206605944E0,-3.411865234E-2,-2.997436523E-1,2.148742676E-1
2.209077868E0,-2.665710449E-2,-3.040008545E-1,2.319183350E-1
2.211549792E0,-1.919555664E-2,-3.167877197E-1,2.510986328E-1
2.214021715E0,-8.544921875E-3,-3.210449219E-1,2.681427002E-1
2.216493639E0,3.173828125E-3,-3.210449219E-1,2.873077393E-1
2.218965563E0,1.275634766E-2,-3.199768066E-1,3.022308350E-1
2.221406969E0,2.021789551E-2,-3.125305176E-1,3.171386719E-1
2.223878893E0,3.193664551E-2,-3.103942871E-1,3.277893066E-1
2.226350817E0,3.300476074E-2,-3.146514893E-1,3.416442871E-1
2.228822741E0,3.512573242E-2,-3.167877197E-1,3.533630371E-1
2.231264147E0,4.258728027E-2,-3.199768066E-1,3.640136719E-1
2.233736071E0,4.472351074E-2,-3.221130371E-1,3.831939697E-1
2.236207995E0,4.151916504E-2,-3.210449219E-1,3.991699219E-1
2.238679919E0,4.577636719E-2,-3.178558350E-1,4.151458740E-1
2.241151842E0,5.323791504E-2,-3.008117676E-1,4.332580566E-1
2.243593249E0,5.856323242E-2,-2.816314697E-1,4.534912109E-1
2.246065172E0,6.709289551E-2,-2.635192871E-1,4.769287109E-1
2.248537096E0,7.774353027E-2,-2.571258545E-1,5.056915283E-1
2.251009020E0,8.625793457E-2,-2.592620850E-1,5.344543457E-1
2.253480944E0,9.797668457E-2,-2.581939697E-1,5.536346436E-1
2.255952868E0,1.054382324E-1,-2.603302002E-1,5.760040283E-1
2.258394274E0,1.075744629E-1,-2.731170654E-1,5.973052979E-1
2.260866198E0,1.128997803E-1,-2.901611328E-1,6.207427979E-1
2.263338122E0,1.139678955E-1,-3.082733154E-1,6.431121826E-1
2.265810045E0,1.160888672E-1,-3.189239502E-1,6.718750000E-1
2.268251452E0,1.139678955E-1,-3.157196045E-1,6.953125000E-1
2.270723376E0,1.075744629E-1,-3.072052002E-1,7.166137695E-1
2.273195299E0,1.001129150E-1,-3.157196045E-1,7.357940674E-1
2.275667223E0,9.478759766E-2,-3.178558350E-1,7.517700195E-1
2.278139147E0,8.839416504E-2,-2.880249023E-1,7.528381348E-1
2.280580553E0,7.560729980E-2,-2.550048828E-1,7.581634521E-1
2.283052477E0,6.069946289E-2,-2.581939697E-1,7.656250000E-1
2.285524401E0,5.216979980E-2,-2.667236328E-1,7.720031738E-1
2.287996325E0,4.472351074E-2,-2.603302002E-1,7.826690674E-1
2.290468249E0,3.512573242E-2,-2.667236328E-1,7.869262695E-1
2.292940172E0,2.873229980E-2,-2.624664307E-1,7.933197021E-1
2.295381579E0,2.554321289E-2,-2.464752197E-1,8.007659912E-1
2.297853503E0,6.388854980E-2,-3.018798828E-1,7.901153564E-1
2.300325426E0,2.109069824E-1,-4.563446045E-1,7.336578369E-1
2.302766833E0,4.005126953E-1,-5.596618652E-1,6.271362305E-1
2.305238756E0,5.560455322E-1,-5.681915283E-1,4.822540283E-1
2.307710680E0,6.519165039E-1,-5.341033936E-1,3.309936523E-1
2.310182604E0,7.073059082E-1,-4.787139893E-1,2.010345459E-1
2.312654528E0,7.275543213E-1,-4.126586914E-1,1.040954590E-1
2.315095934E0,7.094421387E-1,-3.498077393E-1,3.378295898E-2
2.317567858E0,6.902618408E-1,-3.359680176E-1,3.952026367E-3
2.320039782E0,6.966552734E-1,-3.551330566E-1,5.020141602E-3
2.322511706E0,6.796112061E-1,-3.348999023E-1,2.313232422E-2
2.324983629E0,6.434020996E-1,-3.093261719E-1,3.910827637E-2
2.327455553E0,6.093139648E-1,-3.008117676E-1,6.573486328E-2
2.329927477E0,5.645599365E-1,-2.912292480E-1,9.342956543E-2
2.332399401E0,5.155639648E-1,-2.997436523E-1,1.104736328E-1
2.334871325E0,4.580383301E-1,-3.316955566E-1,1.168670654E-1
2.337343249E0,4.058380127E-1,-3.466186523E-1,1.221923828E-1
2.339784655E0,3.621673584E-1,-3.444824219E-1,1.253967285E-1
2.342256579E0,3.163604736E-1,-3.519439697E-1,1.200714111E-1
2.344728503E0,2.726898193E-1,-3.743133545E-1,1.126098633E-1
2.347200426E0,2.343292236E-1,-4.126586914E-1,1.115417480E-1
2.349672350E0,2.002410889E-1,-4.403533936E-1,1.072845459E-1
2.352113756E0,1.555023193E-1,-4.637908936E-1,9.342956543E-2
2.354585680E0,1.128997803E-1,-4.989471436E-1,9.130859375E-2
2.357057604E0,6.816101074E-2,-5.319671631E-1,1.083526611E-1
2.359529528E0,1.168823242E-2,-5.628662109E-1,1.275177002E-1
2.362001452E0,-4.582214355E-2,-6.182556152E-1,1.456298828E-1
2.364442858E0,-9.162902832E-2,-6.885681152E-1,1.584167480E-1
2.366914782E0,-1.299896240E-1,-7.599334717E-1,1.701354980E-1
2.369386706E0,-1.619415283E-1,-8.142700195E-1,1.733245850E-1
2.371858629E0,-1.907043457E-1,-8.377075195E-1,1.520233154E-1
2.374330553E0,-2.205352783E-1,-8.749847412E-1,1.200714111E-1
2.376771960E0,-2.386474609E-1,-9.463653564E-1,1.072845459E-1
2.379243883E0,-2.578125000E-1,-1.035842896E0,1.062164307E-1
2.381715807E0,-2.791290283E-1,-1.162612915E0,1.008911133E-1
2.384187731E0,-3.078918457E-1,-1.259552002E0,9.237670898E-2
2.386659655E0,-3.366394043E-1,-1.306411743E0,9.130859375E-2
2.389101061E0,-3.664703369E-1,-1.339447021E0,9.770202637E-2
2.391572985E0,-3.973693848E-1,-1.389511108E0,9.449768066E-2
2.394044909E0,-4.303894043E-1,-1.451293945E0,8.598327637E-2
2.396516833E0,-4.612884521E-1,-1.503494263E0,7.319641113E-2
2.398988756E0,-4.889831543E-1,-1.546096802E0,7.212829590E-2
2.401430163E0,-5.124206543E-1,-1.586578369E0,9.024047852E-2
2.403902087E0,-5.454406738E-1,-1.629196167E0,1.136779785E-1
2.406374010E0,-5.837860107E-1,-1.647308350E0,1.403045654E-1
2.408845934E0,-6.136169434E-1,-1.599365234E0,1.775970459E-1
2.411317858E0,-6.050872803E-1,-1.467269897E0,2.329864502E-1
2.413759264E0,-5.859222412E-1,-1.316009521E0,2.937011719E-1
2.416231188E0,-5.678100586E-1,-1.184982300E0,3.682708740E-1
2.418703112E0,-5.529022217E-1,-1.044357300E0,4.481658936E-1
2.421175036E0,-5.465087891E-1,-8.845672607E-1,5.355224609E-1
2.423646960E0,-5.465087891E-1,-7.333068848E-1,6.207427979E-1
2.426088366E0,-5.539550781E-1,-5.884246826E-1,7.070312500E-1
2.428560290E0,-5.603485107E-1,-4.499511719E-1,8.060913086E-1
2.431032213E0,-5.656738281E-1,-3.519439697E-1,9.147491455E-1
2.433504137E0,-5.656738281E-1,-2.880249023E-1,1.027679443E0
2.435976061E0,-5.614166260E-1,-2.720489502E-1,1.117156982E0
2.438417467E0,-5.529022217E-1,-2.294311523E-1,1.198120117E0
2.440889391E0,-5.166778564E-1,-2.145233154E-1,1.254577637E0
2.443361315E0,-4.612884521E-1,-2.464752197E-1,1.260971069E0
2.445833239E0,-3.973693848E-1,-2.720489502E-1,1.215164185E0
2.448305163E0,-3.249359131E-1,-2.613983154E-1,1.149108887E0
2.450746569E0,-2.535552979E-1,-2.177124023E-1,1.078811646E0
2.453218493E0,-1.896362305E-1,-1.697845459E-1,1.015960693E0
2.455690417E0,-1.310577393E-1,-1.367645264E-1,9.584350586E-1
2.458162340E0,-8.097839355E-2,-1.197204590E-1,9.040985107E-1
2.460603747E0,-3.730773926E-2,-1.080017090E-1,8.497772217E-1
2.463075670E0,-3.219604492E-3,-9.947204590E-2,8.018341064E-1
2.465547594E0,2.128601074E-2,-8.563232422E-2,7.602844238E-1
2.468019518E0,3.833007812E-2,-7.603454590E-2,7.240753174E-1
2.470491442E0,5.111694336E-2,-7.710266113E-2,6.931762695E-1
2.472963366E0,5.323791504E-2,-7.603454590E-2,6.569671631E-1
2.475404772E0,5.644226074E-2,-6.538391113E-2,6.250000000E-1
2.477876696E0,5.963134766E-2,-3.662109375E-2,6.036987305E-1
2.480348620E0,6.069946289E-2,-4.119873047E-4,5.866546631E-1
2.482820544E0,6.388854980E-2,4.753112793E-2,5.760040283E-1
2.485292467E0,6.816101074E-2,8.375549316E-2,5.685424805E-1
2.487733874E0,6.921386719E-2,9.973144531E-2,5.727996826E-1
2.490205797E0,7.348632812E-2,1.167755127E-1,5.802612305E-1
2.492677721E0,7.135009766E-2,1.529998779E-1,5.877227783E-1
2.495149645E0,5.963134766E-2,2.158508301E-1,5.813293457E-1
2.497591051E0,4.151916504E-2,2.829589844E-1,5.674743652E-1
2.500062975E0,2.021789551E-2,3.117218018E-1,5.525665283E-1
2.502534899E0,4.241943359E-3,3.117218018E-1,5.451049805E-1
2.505006823E0,-1.068115234E-2,3.202362061E-1,5.387115479E-1
2.507478747E0,-2.345275879E-2,3.436737061E-1,5.301971436E-1
2.509950670E0,-3.411865234E-2,3.713684082E-1,5.152740479E-1
2.512392077E0,-4.476928711E-2,3.894805908E-1,4.950408936E-1
2.514864001E0,-5.009460449E-2,4.150543213E-1,4.769287109E-1
2.517335924E0,-5.860900879E-2,4.416809082E-1,4.503021240E-1
2.519807848E0,-7.458496094E-2,4.512634277E-1,4.236755371E-1
2.522249254E0,-8.737182617E-2,4.597930908E-1,3.917083740E-1
2.524721178E0,-9.376525879E-2,4.544677734E-1,3.661499023E-1
2.527193102E0,-1.033477783E-1,4.470062256E-1,3.491058350E-1
2.529665026E0,-1.097412109E-1,4.555358887E-1,3.320617676E-1
2.532136950E0,-1.203918457E-1,4.629821777E-1,3.171386719E-1
2.534578356E0,-1.289215088E-1,4.757690430E-1,3.043518066E-1
2.537050280E0,-1.342468262E-1,4.853515625E-1,2.926483154E-1
2.539522204E0,-1.448974609E-1,4.885559082E-1,2.830505371E-1
2.541994128E0,-1.502227783E-1,4.864196777E-1,2.723999023E-1
2.544466051E0,-1.566162109E-1,4.725799561E-1,2.660064697E-1
2.546907458E0,-1.651458740E-1,4.565887451E-1,2.606811523E-1
2.549379381E0,-1.651458740E-1,4.587249756E-1,2.596130371E-1
2.551851305E0,-1.587524414E-1,4.438171387E-1,2.510986328E-1
2.554323229E0,-1.374359131E-1,3.798980713E-1,2.436370850E-1
2.556795153E0,-1.150665283E-1,3.138427734E-1,2.425689697E-1
2.559236559E0,-1.012268066E-1,2.584533691E-1,2.319183350E-1
2.561708483E0,-9.696960449E-2,2.169036865E-1,2.180786133E-1
2.564180407E0,-1.012268066E-1,2.115783691E-1,1.935729980E-1
2.566652331E0,-1.140136719E-1,2.307586670E-1,1.626739502E-1
2.569124254E0,-1.459655762E-1,2.392730713E-1,1.264648438E-1
2.571565661E0,-1.725921631E-1,2.307586670E-1,8.917236328E-2
2.574037585E0,-1.949615479E-1,2.147827148E-1,5.296325684E-2
2.576509508E0,-2.162780762E-1,1.892089844E-1,2.206420898E-2
2.578981432E0,-2.375793457E-1,1.572570801E-1,-4.562377930E-3
2.581453356E0,-2.514190674E-1,1.242370605E-1,-2.906799316E-2
2.583894762E0,-2.705993652E-1,8.908081055E-2,-4.611206055E-2
2.586366686E0,-2.855072021E-1,7.203674316E-2,-6.315612793E-2
2.588838610E0,-3.046875000E-1,6.883239746E-2,-8.445739746E-2
2.591310534E0,-3.334503174E-1,6.990051270E-2,-1.057739258E-1
2.593782458E0,-3.558197021E-1,7.522583008E-2,-1.206817627E-1
2.596223864E0,-3.707275391E-1,7.096862793E-2,-1.260070801E-1
2.598695788E0,-3.867187500E-1,7.096862793E-2,-1.324005127E-1
2.601167712E0,-4.069519043E-1,7.736206055E-2,-1.377258301E-1
2.603639635E0,-4.218750000E-1,8.587646484E-2,-1.387939453E-1
2.606111559E0,-4.293212891E-1,1.018676758E-1,-1.419830322E-1
2.608552965E0,-4.389190674E-1,1.252899170E-1,-1.419830322E-1
2.611024889E0,-4.452972412E-1,1.391448975E-1,-1.398620605E-1
2.613496813E0,-4.474334717E-1,1.359558105E-1,-1.483764648E-1
2.615968737E0,-4.442443848E-1,1.284942627E-1,-1.590270996E-1
2.618440661E0,-4.357147217E-1,1.167755127E-1,-1.696777344E-1
2.620912585E0,-4.272003174E-1,9.014892578E-2,-1.824645996E-1
2.623384508E0,-4.176025391E-1,5.818176270E-2,-1.963195801E-1
2.625856432E0,-4.026947021E-1,2.197265625E-2,-2.048339844E-1
2.628328356E0,-3.920440674E-1,-2.171325684E-2,-2.154846191E-1
2.630800280E0,-3.867187500E-1,-6.752014160E-2,-2.272033691E-1
2.633272204E0,-3.792572021E-1,-1.026763916E-1,-2.421264648E-1
2.635713610E0,-3.771209717E-1,-1.229095459E-1,-2.559661865E-1
2.638185534E0,-3.824462891E-1,-1.335601807E-1,-2.666168213E-1
2.640657458E0,-3.845825195E-1,-1.463470459E-1,-2.772827148E-1
2.643129381E0,-3.888397217E-1,-1.516723633E-1,-2.889862061E-1
2.645570788E0,-3.973693848E-1,-1.452789307E-1,-3.028411865E-1
2.648042712E0,-4.058837891E-1,-1.420898438E-1,-3.209533691E-1
2.650514635E0,-4.176025391E-1,-1.506042480E-1,-3.390655518E-1
2.652986559E0,-4.293212891E-1,-1.708526611E-1,-3.582305908E-1
2.655458483E0,-4.367828369E-1,-1.932220459E-1,-3.784790039E-1
2.657899889E0,-4.442443848E-1,-2.102661133E-1,-3.955230713E-1
2.660371813E0,-4.463653564E-1,-2.273101807E-1,-4.168243408E-1
2.662843737E0,-4.527587891E-1,-2.273101807E-1,-4.381256104E-1
2.665315661E0,-4.474334717E-1,-2.262420654E-1,-4.658203125E-1
2.667787585E0,-4.485015869E-1,-2.166595459E-1,-4.967193604E-1
2.670228991E0,-4.506225586E-1,-2.091979980E-1,-5.276184082E-1
2.672700915E0,-4.495697021E-1,-2.166595459E-1,-5.478515625E-1
2.675172838E0,-4.463653564E-1,-2.241058350E-1,-5.521087646E-1
2.677644762E0,-4.431762695E-1,-2.283782959E-1,-5.499877930E-1
2.680116686E0,-4.325256348E-1,-2.304992676E-1,-5.393371582E-1
2.682558092E0,-4.250640869E-1,-2.411499023E-1,-5.201568604E-1
2.685030016E0,-4.197387695E-1,-2.528686523E-1,-4.977874756E-1
2.687501940E0,-4.165344238E-1,-2.677917480E-1,-4.754180908E-1
2.689973864E0,-4.165344238E-1,-2.954864502E-1,-4.583740234E-1
2.692445788E0,-4.186706543E-1,-3.221130371E-1,-4.423980713E-1
2.694887194E0,-4.218750000E-1,-3.466186523E-1,-4.232177734E-1
2.697359118E0,-4.282531738E-1,-3.689880371E-1,-4.051055908E-1
2.699831042E0,-4.335784912E-1,-3.892211914E-1,-3.901977539E-1
2.702302965E0,-4.474334717E-1,-4.084014893E-1,-3.742218018E-1
2.704774889E0,-4.548950195E-1,-4.179840088E-1,-3.571777344E-1
2.707216295E0,-4.623413086E-1,-4.360961914E-1,-3.411865234E-1
2.709688219E0,-4.751281738E-1,-4.488830566E-1,-3.294677734E-1
2.712160143E0,-4.783325195E-1,-4.616699219E-1,-3.156280518E-1
2.714632067E0,-4.761962891E-1,-4.659271240E-1,-3.007049561E-1
2.717103991E0,-4.783325195E-1,-4.637908936E-1,-2.868652344E-1
2.719545397E0,-4.761962891E-1,-4.606018066E-1,-2.730102539E-1
2.722017321E0,-4.719390869E-1,-4.542083740E-1,-2.612915039E-1
2.724489245E0,-4.719390869E-1,-4.414215088E-1,-2.474517822E-1
2.726961169E0,-4.666137695E-1,-4.360961914E-1,-2.325286865E-1
2.729402575E0,-4.634094238E-1,-4.318389893E-1,-2.218780518E-1
2.731874499E0,-4.570159912E-1,-4.179840088E-1,-2.101593018E-1
2.734346422E0,-4.495697021E-1,-4.030761719E-1,-2.005767822E-1
2.736818346E0,-4.431762695E-1,-3.956146240E-1,-1.931152344E-1
2.739290270E0,-4.346466064E-1,-3.966827393E-1,-1.909942627E-1
2.741762194E0,-4.293212891E-1,-3.945465088E-1,-1.995086670E-1
2.744203600E0,-4.272003174E-1,-3.924255371E-1,-2.176208496E-1
2.746675524E0,-4.208068848E-1,-4.052124023E-1,-2.389221191E-1
2.749147448E0,-4.197387695E-1,-4.201202393E-1,-2.634277344E-1
2.751619372E0,-4.218750000E-1,-4.403533936E-1,-2.911224365E-1
2.754060778E0,-4.229278564E-1,-4.765777588E-1,-3.294677734E-1
2.756532702E0,-4.239959717E-1,-5.234527588E-1,-3.720855713E-1
2.759004626E0,-4.272003174E-1,-5.660552979E-1,-4.114990234E-1
2.761476549E0,-4.335784912E-1,-6.001434326E-1,-4.583740234E-1
2.763948473E0,-4.431762695E-1,-6.171875000E-1,-4.988555908E-1
2.766389879E0,-4.495697021E-1,-6.193237305E-1,-5.425262451E-1
2.768861803E0,-4.591522217E-1,-6.086730957E-1,-5.830078125E-1
2.771333727E0,-4.687347412E-1,-5.884246826E-1,-6.170959473E-1
2.773805651E0,-4.804534912E-1,-5.649871826E-1,-6.533203125E-1
2.776277575E0,-4.911041260E-1,-5.383605957E-1,-6.916656494E-1
2.778718981E0,-5.017700195E-1,-5.234527588E-1,-7.289428711E-1
2.781190905E0,-5.081481934E-1,-5.032043457E-1,-7.630310059E-1
2.783662829E0,-4.985656738E-1,-4.829711914E-1,-7.832794189E-1
2.786134753E0,-4.868469238E-1,-5.021514893E-1,-7.992553711E-1
2.788606676E0,-4.634094238E-1,-5.479431152E-1,-8.056488037E-1
2.791048083E0,-4.325256348E-1,-6.097412109E-1,-7.992553711E-1
2.793520006E0,-3.931121826E-1,-6.512756348E-1,-8.045806885E-1
2.795991930E0,-3.579559326E-1,-6.459503174E-1,-8.312072754E-1
2.798463854E0,-3.334503174E-1,-6.065368652E-1,-8.674316406E-1
2.800935778E0,-3.132171631E-1,-5.735168457E-1,-9.089813232E-1
2.803377184E0,-3.004302979E-1,-5.383605957E-1,-9.494628906E-1
2.805849108E0,-2.929687500E-1,-5.287780762E-1,-9.867401123E-1
2.808321032E0,-2.897796631E-1,-5.372924805E-1,-1.015502930E0
2.810792956E0,-3.100128174E-1,-5.958862305E-1,-1.036804199E0
2.813264879E0,-3.164062500E-1,-5.671234131E-1,-1.064498901E0
2.815706286E0,-3.110809326E-1,-5.106658936E-1,-1.099655151E0
2.818178210E0,-3.089447021E-1,-4.701843262E-1,-1.133743286E0
2.820650133E0,-3.004302979E-1,-4.211883545E-1,-1.149734497E0
2.823122057E0,-2.791290283E-1,-3.945465088E-1,-1.129486084E0
2.825593981E0,-2.524871826E-1,-3.966827393E-1,-1.080490112E0
2.828035387E0,-2.226562500E-1,-3.924255371E-1,-1.017639160E0
2.830507311E0,-1.949615479E-1,-3.721771240E-1,-9.558563232E-1
2.832979235E0,-1.757965088E-1,-3.668518066E-1,-9.079132080E-1
2.835451159E0,-1.566162109E-1,-3.615264893E-1,-8.908691406E-1
2.837923083E0,-1.385040283E-1,-3.508758545E-1,-8.940582275E-1
2.840364489E0,-1.150665283E-1,-3.380889893E-1,-9.089813232E-1
2.842836413E0,-8.418273926E-2,-3.093261719E-1,-9.366760254E-1
2.845308337E0,-6.074523926E-2,-2.603302002E-1,-9.846038818E-1
2.847780260E0,-3.623962402E-2,-2.837677002E-1,-1.011245728E0
2.850252184E0,-8.544921875E-3,-3.625946045E-1,-1.009109497E0
2.852693590E0,2.235412598E-2,-4.126586914E-1,-1.024032593E0
2.855165514E0,4.898071289E-2,-4.297027588E-1,-1.050659180E0
2.857637438E0,7.135009766E-2,-4.360961914E-1,-1.065567017E0
2.860109362E0,9.478759766E-2,-4.275817871E-1,-1.061309814E0
2.862581286E0,1.118316650E-1,-4.243774414E-1,-1.058120728E0
2.865022692E0,1.150207520E-1,-4.478149414E-1,-1.081542969E0
2.867494616E0,1.150207520E-1,-4.584655762E-1,-1.117767334E0
2.869966540E0,1.150207520E-1,-4.350280762E-1,-1.156112671E0
2.872438463E0,1.171569824E-1,-3.966827393E-1,-1.194473267E0
2.874910387E0,1.107635498E-1,-3.562011719E-1,-1.230682373E0
2.877351794E0,1.054382324E-1,-3.125305176E-1,-1.253051758E0
2.879823717E0,1.075744629E-1,-2.390289307E-1,-1.253051758E0
2.882295641E0,1.075744629E-1,-1.687164307E-1,-1.237075806E0
2.884767565E0,1.096954346E-1,-1.921539307E-1,-1.199798584E0
2.887239489E0,1.171569824E-1,-2.464752197E-1,-1.159317017E0
2.889680895E0,1.192932129E-1,-2.763061523E-1,-1.118835449E0
2.892152819E0,1.203460693E-1,-2.848358154E-1,-1.077285767E0
2.894624743E0,1.246185303E-1,-2.709808350E-1,-1.041076660E0
2.897096667E0,1.224822998E-1,-2.518005371E-1,-1.011245728E0
2.899568590E0,1.214141846E-1,-2.251739502E-1,-9.707641602E-1
2.902040514E0,1.331329346E-1,-1.772308350E-1,-9.111022949E-1
2.904512438E0,1.491088867E-1,-1.239776611E-1,-8.482513428E-1
2.906984362E0,1.544342041E-1,-8.029174805E-2,-7.992553711E-1
2.909456286E0,1.597595215E-1,-2.597045898E-2,-7.534484863E-1
2.911928210E0,1.651000977E-1,2.409362793E-2,-7.044525146E-1
2.914369616E0,1.661529541E-1,6.777954102E-2,-6.479949951E-1
2.916841540E0,1.736145020E-1,1.135864258E-1,-6.011199951E-1
2.919313463E0,1.714782715E-1,1.785583496E-1,-5.755462646E-1
2.921785387E0,1.597595215E-1,2.531280518E-1,-5.734252930E-1
2.924257311E0,1.235504150E-1,3.894805908E-1,-5.979156494E-1
2.926698717E0,7.560729980E-2,5.375518799E-1,-6.245574951E-1
2.929170641E0,2.235412598E-2,6.280975342E-1,-6.511840820E-1
2.931642565E0,-3.623962402E-2,6.920166016E-1,-6.820831299E-1
2.934114489E0,-8.525085449E-2,7.474060059E-1,-7.044525146E-1
2.936586413E0,-1.310577393E-1,7.783050537E-1,-7.246856689E-1
2.939027819E0,-1.672668457E-1,7.548675537E-1,-7.502593994E-1
2.941499743E0,-1.907043457E-1,6.920166016E-1,-7.800750732E-1
2.943971667E0,-2.034912109E-1,6.739044189E-1,-8.056488037E-1
2.946443590E0,-2.183990479E-1,6.941528320E-1,-8.322753906E-1
2.948915514E0,-2.247924805E-1,7.250366211E-1,-8.610382080E-1
2.951356920E0,-2.311859131E-1,7.548675537E-1,-8.951263428E-1
2.953828844E0,-2.397003174E-1,7.932128906E-1,-9.238891602E-1
2.956300768E0,-2.439727783E-1,8.507385254E-1,-9.366760254E-1
2.958772692E0,-2.503662109E-1,9.167938232E-1,-9.324188232E-1
2.961244616E0,-2.610168457E-1,9.817657471E-1,-9.143066406E-1
2.963686022E0,-2.684631348E-1,1.036102295E0,-8.855438232E-1
2.966157946E0,-2.844543457E-1,1.063796997E0,-8.493194580E-1
2.968629870E0,-3.078918457E-1,1.073379517E0,-8.109741211E-1
2.971101794E0,-3.206634521E-1,1.078704834E0,-7.747497559E-1
2.973543200E0,-3.323822021E-1,1.063796997E0,-7.523803711E-1
2.976015124E0,-3.377075195E-1,1.017990112E0,-7.406616211E-1
2.978487047E0,-3.142700195E-1,9.551391602E-1,-7.289428711E-1
2.980958971E0,-2.695312500E-1,9.114685059E-1,-6.948547363E-1
2.983430895E0,-1.928405762E-1,8.315734863E-1,-6.405334473E-1
2.985872301E0,-7.458496094E-2,6.621856689E-1,-5.648956299E-1
2.988344225E0,6.816101074E-2,4.747009277E-1,-4.818115234E-1
2.990816149E0,2.013092041E-1,3.021240234E-1,-4.051055908E-1
2.993288073E0,3.035736084E-1,1.753692627E-1,-3.475799561E-1
2.995759997E0,3.525848389E-1,2.073211670E-1,-3.731536865E-1
2.998201403E0,2.982482910E-1,4.065246582E-1,-5.861968994E-1
3.000673327E0,1.991882324E-1,3.553924561E-1,-8.535766602E-1
3.003145251E0,9.904479980E-2,1.380767822E-1,-1.058120728E0
3.005617174E0,-3.219604492E-3,-3.450012207E-2,-1.218963623E0
3.008089098E0,-1.054840088E-1,-1.665802002E-1,-1.336151123E0
3.010530504E0,-2.141418457E-1,-2.411499023E-1,-1.403259277E0
3.013002428E0,-3.078918457E-1,-2.869567871E-1,-1.446929932E0
3.015474352E0,-3.728637695E-1,-3.093261719E-1,-1.468246460E0
3.017946276E0,-4.197387695E-1,-2.731170654E-1,-1.459716797E0
3.020418200E0,-4.623413086E-1,-2.294311523E-1,-1.419235229E0
3.022859606E0,-5.049591064E-1,-2.081298828E-1,-1.356384277E0
3.025331530E0,-5.486297607E-1,-1.697845459E-1,-1.285018921E0
3.027803454E0,-5.965728760E-1,-7.710266113E-2,-1.231750488E0
3.030275378E0,-6.445007324E-1,-1.318359375E-2,-1.180618286E0
3.032747301E0,-6.871185303E-1,2.792358398E-3,-1.115646362E0
3.035188708E0,-7.222747803E-1,8.117675781E-3,-1.036804199E0
3.037660631E0,-7.584838867E-1,1.237487793E-2,-9.579772949E-1
3.040132555E0,-7.893829346E-1,2.409362793E-2,-8.919372559E-1
3.042604479E0,-8.128204346E-1,4.006958008E-2,-8.344116211E-1
3.045076403E0,-8.298645020E-1,6.564331055E-2,-7.822113037E-1
3.047517809E0,-8.383789062E-1,1.029205322E-1,-7.459869385E-1
3.049989733E0,-8.511657715E-1,1.625823975E-1,-7.417297363E-1
3.052461657E0,-8.607635498E-1,1.796264648E-1,-7.662353516E-1
3.054933581E0,-8.639526367E-1,1.434020996E-1,-7.886047363E-1
3.057405504E0,-8.628845215E-1,6.883239746E-2,-8.067169189E-1
3.059846911E0,-8.628845215E-1,-3.022766113E-2,-8.280181885E-1
3.062318835E0,-8.671417236E-1,-1.229095459E-1,-8.535766602E-1
3.064790758E0,-8.564910889E-1,-2.198486328E-1,-8.812866211E-1
3.067262682E0,-8.320007324E-1,-3.316955566E-1,-8.951263428E-1
3.069734606E0,-8.032379150E-1,-4.382324219E-1,-8.972625732E-1
3.072176012E0,-7.776641846E-1,-5.085296631E-1,-8.961944580E-1
3.074647936E0,-7.521057129E-1,-5.511474609E-1,-9.036560059E-1
3.077119860E0,-7.180175781E-1,-5.745849609E-1,-9.079132080E-1
3.079591784E0,-6.871185303E-1,-5.777740479E-1,-9.057769775E-1
3.082063708E0,-6.636810303E-1,-5.713806152E-1,-8.951263428E-1
3.084535631E0,-6.487731934E-1,-5.500793457E-1,-8.695678711E-1
3.086977038E0,-6.189422607E-1,-5.404968262E-1,-8.376007080E-1
3.089448962E0,-5.805969238E-1,-5.308990479E-1,-7.896728516E-1
3.091920885E0,-5.550231934E-1,-4.616699219E-1,-7.470550537E-1
3.094392809E0,-5.486297607E-1,-3.551330566E-1,-7.172241211E-1
3.096834215E0,-5.337219238E-1,-2.603302002E-1,-6.937866211E-1
3.099306139E0,-5.188140869E-1,-1.868286133E-1,-6.692962646E-1
3.101778063E0,-4.921722412E-1,-1.474151611E-1,-6.362762451E-1
3.104249987E0,-4.623413086E-1,-1.367645264E-1,-5.989837646E-1
3.106721911E0,-4.218750000E-1,-1.463470459E-1,-5.542449951E-1
3.109163317E0,-3.696746826E-1,-1.633911133E-1,-5.009765625E-1
3.111635241E0,-3.068237305E-1,-1.793670654E-1,-4.413299561E-1
3.114107165E0,-2.365112305E-1,-1.878967285E-1,-3.720855713E-1
3.116579088E0,-1.725921631E-1,-1.932220459E-1,-2.985839844E-1
3.119051012E0,-1.044158936E-1,-1.942901611E-1,-2.240142822E-1
3.121492419E0,-4.156494141E-2,-1.910858154E-1,-1.483764648E-1
3.123964342E0,1.596069336E-2,-1.772308350E-1,-7.701110840E-2
3.126436266E0,5.963134766E-2,-1.569976807E-1,-9.887695312E-3
3.128908190E0,1.022491455E-1,-1.250457764E-1,5.722045898E-2
3.131380114E0,1.331329346E-1,-9.201049805E-2,1.243286133E-1
3.133821520E0,1.512451172E-1,-6.324768066E-2,1.775970459E-1
3.136293444E0,1.640319824E-1,-3.662109375E-2,2.265930176E-1
3.138765368E0,1.682891846E-1,-1.957702637E-2,2.649383545E-1
3.141237292E0,1.746826172E-1,-8.926391602E-3,2.979736328E-1
3.143678698E0,1.704254150E-1,8.117675781E-3,3.171386719E-1
3.146150622E0,1.672210693E-1,2.409362793E-2,3.288574219E-1
3.148622545E0,1.682891846E-1,3.369140625E-2,3.331146240E-1
3.151094469E0,1.640319824E-1,4.434204102E-2,3.256683350E-1
3.153566393E0,1.651000977E-1,4.966735840E-2,3.128814697E-1
3.156007799E0,1.661529541E-1,5.711364746E-2,2.894439697E-1
3.158479723E0,1.736145020E-1,7.203674316E-2,2.606811523E-1
3.160951647E0,2.023773193E-1,1.583251953E-1,2.287292480E-1
3.163423571E0,2.566986084E-1,2.818908691E-1,1.786499023E-1
3.165895495E0,3.078460693E-1,3.159790039E-1,1.200714111E-1
3.168367419E0,3.461914062E-1,2.925415039E-1,8.065795898E-2
3.170808825E0,3.770751953E-1,2.648468018E-1,5.508422852E-2
3.173280749E0,3.951873779E-1,2.371520996E-1,3.804016113E-2
3.175752672E0,3.994445801E-1,2.169036865E-1,2.632141113E-2
3.178224596E0,3.983917236E-1,2.190399170E-1,1.992797852E-2
3.180666003E0,3.887939453E-1,2.371520996E-1,2.313232422E-2
3.183137926E0,3.717498779E-1,2.850799561E-1,3.271484375E-2
3.185609850E0,3.621673584E-1,3.372802734E-1,4.975891113E-2
3.188081774E0,3.600311279E-1,3.681793213E-1,6.893920898E-2
3.190553698E0,3.547058105E-1,3.756408691E-1,9.237670898E-2
3.193025622E0,3.483123779E-1,3.585968018E-1,1.158142090E-1
3.195497545E0,3.419342041E-1,3.245086670E-1,1.435089111E-1
3.197969469E0,3.270111084E-1,2.850799561E-1,1.765289307E-1
3.200441393E0,3.131713867E-1,2.499389648E-1,2.116851807E-1
3.202913317E0,2.950592041E-1,2.158508301E-1,2.457733154E-1
3.205354723E0,2.758789062E-1,1.870880127E-1,2.787933350E-1
3.207826647E0,2.524414062E-1,1.540527344E-1,3.022308350E-1
3.210298571E0,2.322082520E-1,1.189117432E-1,3.203430176E-1
3.212770495E0,2.055664062E-1,9.120178223E-2,3.384399414E-1
3.215242419E0,1.757507324E-1,6.777954102E-2,3.480377197E-1
3.217683825E0,1.405944824E-1,3.688049316E-2,3.544311523E-1
3.220155749E0,1.096954346E-1,1.237487793E-2,3.597564697E-1
3.222627672E0,7.986450195E-2,-6.790161133E-3,3.629455566E-1
3.225099596E0,5.111694336E-2,-2.383422852E-2,3.640136719E-1
3.227571520E0,2.021789551E-2,-4.515075684E-2,3.618774414E-1
3.230012926E0,-3.051757812E-5,-6.431579590E-2,3.554840088E-1
3.232484850E0,-2.239990234E-2,-8.456420898E-2,3.533630371E-1
3.234956774E0,-3.837585449E-2,-1.005401611E-1,3.459014893E-1
3.237428698E0,-5.116271973E-2,-1.186523438E-1,3.373870850E-1
3.239900622E0,-6.500244141E-2,-1.388854980E-1,3.277893066E-1
3.242342028E0,-6.607055664E-2,-1.569976807E-1,3.150177002E-1
3.244813952E0,-6.500244141E-2,-1.751098633E-1,3.107452393E-1
3.247285876E0,-5.967712402E-2,-1.846923828E-1,3.043518066E-1
3.249757799E0,-5.009460449E-2,-1.878967285E-1,2.926483154E-1
3.252229723E0,-3.944396973E-2,-1.857604980E-1,2.851867676E-1
3.254671129E0,-2.345275879E-2,-1.740417480E-1,2.766571045E-1
3.257143053E0,-1.173400879E-2,-1.548614502E-1,2.660064697E-1
3.259614977E0,5.310058594E-3,-1.367645264E-1,2.521667480E-1
3.262086901E0,2.554321289E-2,-1.165161133E-1,2.393798828E-1
3.264558825E0,3.939819336E-2,-9.840393066E-2,2.191314697E-1
3.267000231E0,5.537414551E-2,-8.242797852E-2,1.935729980E-1
3.269472155E0,6.602478027E-2,-6.752014160E-2,1.679992676E-1
3.271944079E0,7.135009766E-2,-6.005859375E-2,1.424407959E-1
3.274416003E0,8.200073242E-2,-6.219482422E-2,1.179351807E-1
3.276887926E0,8.946228027E-2,-6.858825684E-2,9.342956543E-2
3.279329333E0,8.946228027E-2,-7.177734375E-2,6.680297852E-2
3.281801256E0,8.625793457E-2,-7.710266113E-2,4.124450684E-2
3.284273180E0,8.946228027E-2,-8.349609375E-2,3.952026367E-3
3.286745104E0,8.306884766E-2,-9.307861328E-2,-2.693176270E-2
3.289217028E0,7.135009766E-2,-9.095764160E-2,-4.397583008E-2
3.291658434E0,5.644226074E-2,-8.775329590E-2,-4.078674316E-2
3.294130358E0,4.045104980E-2,-9.735107422E-2,-2.906799316E-2
3.296602282E0,2.235412598E-2,-1.090545654E-1,-1.948547363E-2
3.299074206E0,9.567260742E-3,-1.154479980E-1,-9.887695312E-3
3.301546129E0,-4.287719727E-3,-1.143951416E-1,-6.698608398E-3
3.303987536E0,-2.558898926E-2,-1.047973633E-1,-1.095581055E-2
3.306459460E0,-4.156494141E-2,-9.414672852E-2,-1.948547363E-2
3.308931383E0,-5.116271973E-2,-8.349609375E-2,-2.799987793E-2
3.311403307E0,-5.541992188E-2,-8.029174805E-2,-3.013610840E-2
3.313875231E0,-5.328369141E-2,-7.817077637E-2,-3.120422363E-2
3.316316637E0,-5.541992188E-2,-7.177734375E-2,-3.759765625E-2
3.318788561E0,-5.648803711E-2,-5.792236328E-2,-3.971862793E-2
3.321260485E0,-5.754089355E-2,-4.408264160E-2,-4.397583008E-2
3.323732409E0,-5.860900879E-2,-3.022766113E-2,-4.504394531E-2
3.326204333E0,-4.582214355E-2,-2.703857422E-2,-4.292297363E-2
3.328645739E0,-3.411865234E-2,-2.490234375E-2,-3.759765625E-2
3.331117663E0,-2.665710449E-2,-1.531982422E-2,-4.292297363E-2
3.333589587E0,-1.387023926E-2,-1.745605469E-2,-4.611206055E-2
3.336061510E0,1.037597656E-3,-1.957702637E-2,-4.931640625E-2
3.338533434E0,8.499145508E-3,-2.064514160E-2,-4.078674316E-2
3.341005358E0,1.914978027E-2,-2.597045898E-2,-3.120422363E-2
3.343446764E0,3.086853027E-2,-3.343200684E-2,-2.481079102E-2
3.345918688E0,3.300476074E-2,-4.087829590E-2,-1.841735840E-2
3.348390612E0,3.300476074E-2,-4.408264160E-2,-1.522827148E-2
3.350862536E0,3.512573242E-2,-5.366516113E-2,-9.887695312E-3
3.353303942E0,3.512573242E-2,-6.324768066E-2,-4.562377930E-3
3.355775866E0,3.300476074E-2,-6.752014160E-2,1.831054688E-3
3.358247790E0,2.767944336E-2,-7.177734375E-2,3.952026367E-3
3.360719713E0,1.914978027E-2,-7.817077637E-2,2.883911133E-3
3.363191637E0,1.275634766E-2,-7.923889160E-2,7.156372070E-3
3.365633044E0,2.105712891E-3,-7.817077637E-2,3.952026367E-3
3.368104967E0,-4.287719727E-3,-7.923889160E-2,2.883911133E-3
3.370576891E0,-8.544921875E-3,-7.496643066E-2,7.629394531E-4
3.373048815E0,-1.173400879E-2,-6.858825684E-2,-3.051757812E-4
3.375520739E0,-1.493835449E-2,-5.899047852E-2,-2.441406250E-3
3.377992663E0,-9.613037109E-3,-4.940795898E-2,-3.509521484E-3
3.380434069E0,-6.408691406E-3,-3.982543945E-2,-5.630493164E-3
3.382905993E0,3.173828125E-3,-3.236389160E-2,-4.562377930E-3
3.385377917E0,1.168823242E-2,-3.022766113E-2,-2.441406250E-3
3.387819323E0,2.554321289E-2,-2.490234375E-2,-2.441406250E-3
3.390291247E0,3.833007812E-2,-2.171325684E-2,-2.441406250E-3
3.392763170E0,4.365539551E-2,-1.531982422E-2,7.629394531E-4
3.395235094E0,5.111694336E-2,-7.858276367E-3,-3.051757812E-4
3.397707018E0,5.537414551E-2,-4.119873047E-4,-2.441406250E-3
3.400178942E0,5.644226074E-2,4.928588867E-3,-1.373291016E-3
3.402620348E0,5.644226074E-2,8.117675781E-3,-3.051757812E-4
3.405092272E0,5.430603027E-2,8.117675781E-3,-2.441406250E-3
3.407564196E0,5.111694336E-2,8.117675781E-3,-3.509521484E-3
3.410036120E0,4.791259766E-2,9.185791016E-3,7.629394531E-4
3.412508044E0,4.258728027E-2,8.117675781E-3,7.629394531E-4
3.414949450E0,4.045104980E-2,5.981445312E-3,-1.373291016E-3
3.417421374E0,3.833007812E-2,8.117675781E-3,2.883911133E-3
3.419893297E0,3.086853027E-2,4.928588867E-3,8.209228516E-3
3.422365221E0,2.661132812E-2,6.561279297E-4,1.034545898E-2
3.424837145E0,2.235412598E-2,-2.532958984E-3,1.034545898E-2
3.427278551E0,1.808166504E-2,3.860473633E-3,1.248168945E-2
3.429750475E0,1.275634766E-2,-2.532958984E-3,1.353454590E-2
3.432222399E0,9.567260742E-3,-1.106262207E-2,1.567077637E-2
3.434694323E0,8.499145508E-3,-1.638793945E-2,1.780700684E-2
3.437135729E0,1.037597656E-3,-4.669189453E-3,2.738952637E-2
3.439607653E0,-1.068115234E-2,1.770019531E-2,4.017639160E-2
3.442079577E0,-1.707458496E-2,7.049560547E-3,2.952575684E-2
3.444551501E0,-1.600646973E-2,-2.532958984E-3,1.673889160E-2
3.447023424E0,-1.387023926E-2,-1.464843750E-3,7.156372070E-3
3.449464831E0,-1.068115234E-2,9.185791016E-3,1.831054688E-3
3.451936754E0,-9.613037109E-3,2.090454102E-2,7.156372070E-3
3.454408678E0,-1.280212402E-2,3.155517578E-2,6.088256836E-3
3.456880602E0,-1.600646973E-2,4.220581055E-2,2.883911133E-3
3.459352526E0,-1.600646973E-2,5.606079102E-2,-1.373291016E-3
3.461793932E0,-1.493835449E-2,6.777954102E-2,7.156372070E-3
3.464265856E0,-8.544921875E-3,7.310485840E-2,1.887512207E-2
3.466737780E0,3.173828125E-3,6.990051270E-2,1.248168945E-2
3.469209704E0,1.702880859E-2,6.777954102E-2,1.831054688E-3
3.471681628E0,3.193664551E-2,7.203674316E-2,1.831054688E-3
3.474153551E0,4.365539551E-2,8.161926270E-2,5.020141602E-3
3.476625475E0,5.216979980E-2,8.587646484E-2,7.156372070E-3
3.479097399E0,5.963134766E-2,7.843017578E-2,1.567077637E-2
3.481569323E0,6.709289551E-2,7.203674316E-2,2.099609375E-2
3.484041247E0,6.709289551E-2,6.457519531E-2,2.313232422E-2
3.486482653E0,6.709289551E-2,6.138610840E-2,2.632141113E-2
3.488954577E0,6.709289551E-2,5.818176270E-2,3.057861328E-2
3.491426501E0,6.176757812E-2,6.243896484E-2,3.057861328E-2
3.493898424E0,6.282043457E-2,6.883239746E-2,4.017639160E-2
3.496370348E0,5.856323242E-2,7.948303223E-2,5.189514160E-2
3.498811754E0,5.430603027E-2,6.031799316E-2,5.189514160E-2
3.501283678E0,5.537414551E-2,2.622985840E-2,3.804016113E-2
3.503755602E0,5.537414551E-2,1.876831055E-2,2.845764160E-2
3.506227526E0,5.323791504E-2,4.220581055E-2,2.632141113E-2
3.508699450E0,5.004882812E-2,6.031799316E-2,2.632141113E-2
3.511140856E0,5.004882812E-2,6.138610840E-2,2.206420898E-2
3.513612780E0,4.791259766E-2,6.350708008E-2,2.632141113E-2
3.516084704E0,4.151916504E-2,7.522583008E-2,3.804016113E-2
3.518556628E0,3.193664551E-2,8.694458008E-2,5.189514160E-2
3.521028551E0,2.235412598E-2,9.120178223E-2,4.975891113E-2
3.523469958E0,2.128601074E-2,8.694458008E-2,4.017639160E-2
3.525941881E0,2.021789551E-2,8.801269531E-2,2.738952637E-2
3.528413805E0,1.702880859E-2,1.007995605E-1,1.992797852E-2
3.530885729E0,1.382446289E-2,1.210327148E-1,1.673889160E-2
3.533357653E0,1.382446289E-2,1.306304932E-1,1.567077637E-2
3.535799059E0,1.489257812E-2,1.380767822E-1,2.313232422E-2
3.538270983E0,1.275634766E-2,1.519317627E-1,2.738952637E-2
3.540742907E0,8.499145508E-3,1.540527344E-1,2.952575684E-2
3.543214831E0,8.499145508E-3,1.551208496E-1,2.845764160E-2
3.545686754E0,6.362915039E-3,1.625823975E-1,2.845764160E-2
3.548158678E0,5.310058594E-3,1.700439453E-1,2.525329590E-2
3.550600085E0,-3.219604492E-3,1.743011475E-1,2.206420898E-2
3.553072008E0,-2.558898926E-2,1.838836670E-1,1.567077637E-2
3.555543932E0,-8.311462402E-2,2.073211670E-1,1.141357422E-2
3.558015856E0,-1.917724609E-1,2.360839844E-1,2.206420898E-2
3.560457262E0,-3.377075195E-1,2.520599365E-1,6.040954590E-2
3.562929186E0,-4.761962891E-1,2.179718018E-1,1.339111328E-1
3.565401110E0,-5.827178955E-1,1.252899170E-1,2.265930176E-1
3.567873034E0,-6.413116455E-1,-2.532958984E-3,3.267364502E-1
3.570344958E0,-6.775360107E-1,-1.356964111E-1,4.215393066E-1
3.572786364E0,-6.935119629E-1,-2.475433350E-1,4.918518066E-1
3.575258288E0,-6.764678955E-1,-3.380889893E-1,5.493621826E-1
3.577730212E0,-6.264038086E-1,-4.094696045E-1,5.909118652E-1
3.580202135E0,-5.518341064E-1,-4.531402588E-1,6.218109131E-1
3.582674059E0,-4.612884521E-1,-4.627227783E-1,6.388549805E-1
3.585115465E0,-3.686065674E-1,-4.350280762E-1,6.441802979E-1
3.587587389E0,-2.759246826E-1,-3.743133545E-1,6.463012695E-1
3.590059313E0,-1.821899414E-1,-2.858886719E-1,6.409759521E-1
3.592531237E0,-9.590148926E-2,-1.815032959E-1,6.324615479E-1
3.595003161E0,-1.919555664E-2,-7.710266113E-2,6.164855957E-1
3.597444567E0,4.684448242E-2,1.876831055E-2,5.930480957E-1
3.599916491E0,1.011810303E-1,9.866333008E-2,5.727996826E-1
3.602388415E0,1.437835693E-1,1.604461670E-1,5.504302979E-1
3.604860338E0,1.714782715E-1,2.062530518E-1,5.238037109E-1
3.607332262E0,1.874694824E-1,2.350158691E-1,4.961090088E-1
3.609773669E0,1.991882324E-1,2.488708496E-1,4.652099609E-1
3.612245592E0,2.023773193E-1,2.467346191E-1,4.268646240E-1
3.614717516E0,2.013092041E-1,2.350158691E-1,3.927764893E-1
3.617189440E0,2.013092041E-1,2.137145996E-1,3.554840088E-1
3.619661364E0,1.949157715E-1,1.998596191E-1,3.139495850E-1
3.622102770E0,1.917266846E-1,1.924133301E-1,2.723999023E-1
3.624574694E0,1.917266846E-1,1.774902344E-1,2.308502197E-1
3.627046618E0,1.927947998E-1,1.700439453E-1,1.829223633E-1
3.629518542E0,1.885223389E-1,1.625823975E-1,1.360473633E-1
3.631959948E0,1.842651367E-1,1.615142822E-1,9.342956543E-2
3.634431872E0,1.800079346E-1,1.732330322E-1,5.296325684E-2
3.636903795E0,1.757507324E-1,1.732330322E-1,1.141357422E-2
3.639375719E0,1.736145020E-1,1.679077148E-1,-3.227233887E-2
3.641847643E0,1.693572998E-1,1.572570801E-1,-6.954956055E-2
3.644289049E0,1.618957520E-1,1.487274170E-1,-1.025695801E-1
3.646760973E0,1.555023193E-1,1.423339844E-1,-1.366577148E-1
3.649232897E0,1.523132324E-1,1.252899170E-1,-1.611633301E-1
3.651704821E0,1.437835693E-1,1.082458496E-1,-1.835327148E-1
3.654176745E0,1.352691650E-1,8.587646484E-2,-2.059020996E-1
3.656618151E0,1.331329346E-1,6.243896484E-2,-2.240142822E-1
3.659090075E0,1.278076172E-1,4.113769531E-2,-2.442474365E-1
3.661561999E0,1.214141846E-1,2.409362793E-2,-2.591705322E-1
3.664033922E0,1.192932129E-1,1.237487793E-2,-2.719421387E-1
3.666505846E0,1.224822998E-1,5.981445312E-3,-2.847290039E-1
3.668947253E0,1.246185303E-1,6.561279297E-4,-2.964477539E-1
3.671419176E0,1.246185303E-1,4.928588867E-3,-3.113708496E-1
3.673891100E0,1.288757324E-1,1.451110840E-2,-3.198852539E-1
3.676363024E0,1.352691650E-1,1.664733887E-2,-3.241424561E-1
3.678804430E0,1.427154541E-1,1.664733887E-2,-3.294677734E-1
3.681276354E0,1.533813477E-1,1.664733887E-2,-3.337402344E-1
3.683748278E0,1.672210693E-1,2.197265625E-2,-3.347930908E-1
3.686220202E0,1.768035889E-1,2.835083008E-2,-3.379974365E-1
3.688692126E0,1.800079346E-1,3.369140625E-2,-3.390655518E-1
3.691164049E0,1.831970215E-1,3.794860840E-2,-3.358612061E-1
3.693605456E0,1.917266846E-1,4.220581055E-2,-3.390655518E-1
3.696077379E0,1.885223389E-1,4.646301270E-2,-3.369293213E-1
3.698549303E0,1.842651367E-1,5.606079102E-2,-3.347930908E-1
3.701021227E0,1.800079346E-1,6.350708008E-2,-3.326721191E-1
3.703493151E0,1.693572998E-1,6.777954102E-2,-3.252105713E-1
3.705934557E0,1.565704346E-1,6.883239746E-2,-3.209533691E-1
3.708406481E0,1.501770020E-1,6.350708008E-2,-3.134918213E-1
3.710878405E0,1.395263672E-1,5.924987793E-2,-3.028411865E-1
3.713350329E0,1.246185303E-1,4.753112793E-2,-2.921905518E-1
3.715822253E0,1.182250977E-1,4.006958008E-2,-2.815399170E-1
3.718263659E0,1.118316650E-1,2.409362793E-2,-2.698211670E-1
3.720735583E0,1.033020020E-1,9.185791016E-3,-2.634277344E-1
3.723207506E0,9.904479980E-2,-9.994506836E-3,-2.581024170E-1
3.725679430E0,9.478759766E-2,-2.171325684E-2,-2.506408691E-1
3.728151354E0,9.053039551E-2,-3.662109375E-2,-2.389221191E-1
3.730592760E0,8.306884766E-2,-5.473327637E-2,-2.304077148E-1
3.733064684E0,7.453918457E-2,-6.538391113E-2,-2.197570801E-1
3.735536608E0,7.028198242E-2,-7.710266113E-2,-2.091064453E-1
3.738008532E0,7.241821289E-2,-8.456420898E-2,-1.952514648E-1
3.740480456E0,6.709289551E-2,-9.307861328E-2,-1.856689453E-1
3.742921862E0,6.495666504E-2,-1.058654785E-1,-1.750030518E-1
3.745393786E0,6.495666504E-2,-1.186523438E-1,-1.675567627E-1
3.747865710E0,6.495666504E-2,-1.303710938E-1,-1.579589844E-1
3.750337633E0,6.388854980E-2,-1.346282959E-1,-1.526336670E-1
3.752809557E0,5.856323242E-2,-1.378173828E-1,-1.473083496E-1
3.755250963E0,5.323791504E-2,-1.399536133E-1,-1.441192627E-1
3.757722887E0,4.898071289E-2,-1.399536133E-1,-1.430511475E-1
3.760194811E0,4.258728027E-2,-1.388854980E-1,-1.409149170E-1
3.762666735E0,3.726196289E-2,-1.335601807E-1,-1.451873779E-1
3.765138659E0,3.726196289E-2,-1.293029785E-1,-1.494445801E-1
3.767610583E0,3.407287598E-2,-1.250457764E-1,-1.505126953E-1
3.770082506E0,2.235412598E-2,-1.165161133E-1,-1.526336670E-1
3.772554430E0,1.489257812E-2,-1.037292480E-1,-1.483764648E-1
3.775026354E0,8.499145508E-3,-9.095764160E-2,-1.451873779E-1
3.777498278E0,-3.051757812E-5,-8.242797852E-2,-1.462554932E-1
3.779939684E0,-8.544921875E-3,-7.391357422E-2,-1.515808105E-1
3.782411608E0,-1.280212402E-2,-6.752014160E-2,-1.558380127E-1
3.784883532E0,-2.239990234E-2,-6.324768066E-2,-1.558380127E-1
3.787355456E0,-2.133178711E-2,-6.324768066E-2,-1.473083496E-1
3.789827379E0,-2.026367188E-2,-6.005859375E-2,-1.419830322E-1
3.792268786E0,-2.665710449E-2,-5.259704590E-2,-1.281433105E-1
3.794740710E0,-3.198242188E-2,-4.940795898E-2,-1.110992432E-1
3.797212633E0,-2.877807617E-2,-5.154418945E-2,-8.766174316E-2
3.799684557E0,-2.133178711E-2,-4.727172852E-2,-6.422424316E-2
3.802156481E0,-1.707458496E-2,-4.408264160E-2,-4.292297363E-2
3.804597887E0,-1.493835449E-2,-3.236389160E-2,-2.587890625E-2
3.807069811E0,-7.476806641E-3,-1.957702637E-2,-1.202392578E-2
3.809541735E0,2.105712891E-3,-8.926391602E-3,-1.373291016E-3
3.812013659E0,1.168823242E-2,4.928588867E-3,3.952026367E-3
3.814485583E0,2.021789551E-2,1.237487793E-2,5.020141602E-3
3.816926989E0,2.128601074E-2,1.770019531E-2,1.034545898E-2
3.819398913E0,2.340698242E-2,2.622985840E-2,2.883911133E-3
3.821870837E0,2.661132812E-2,3.474426270E-2,-1.373291016E-3
3.824342760E0,2.767944336E-2,3.688049316E-2,-5.630493164E-3
3.826814684E0,2.767944336E-2,3.474426270E-2,-1.628112793E-2
3.829256090E0,2.873229980E-2,3.048706055E-2,-2.055358887E-2
3.831728014E0,3.086853027E-2,1.983642578E-2,-1.841735840E-2
3.834199938E0,2.767944336E-2,1.344299316E-2,-2.055358887E-2
3.836671862E0,2.980041504E-2,1.237487793E-2,-1.416015625E-2
3.839143786E0,3.086853027E-2,9.185791016E-3,-9.887695312E-3
3.841585192E0,3.833007812E-2,7.049560547E-3,-1.373291016E-3
3.844057116E0,4.045104980E-2,2.792358398E-3,3.952026367E-3
3.846529040E0,4.791259766E-2,3.860473633E-3,1.141357422E-2
3.849000963E0,5.216979980E-2,3.860473633E-3,1.460266113E-2
3.851442370E0,5.644226074E-2,9.185791016E-3,1.780700684E-2
3.853914294E0,5.963134766E-2,1.664733887E-2,1.887512207E-2
3.856386217E0,6.602478027E-2,2.835083008E-2,2.099609375E-2
3.858858141E0,7.028198242E-2,3.581237793E-2,2.632141113E-2
3.861330065E0,7.453918457E-2,5.073547363E-2,2.420043945E-2
3.863801989E0,7.881164551E-2,5.818176270E-2,2.206420898E-2
3.866243395E0,8.093261719E-2,6.777954102E-2,1.992797852E-2
3.868715319E0,8.732604980E-2,7.736206055E-2,1.780700684E-2
3.871187243E0,8.200073242E-2,8.801269531E-2,1.673889160E-2
3.873659167E0,8.732604980E-2,9.652709961E-2,1.141357422E-2
3.876100573E0,9.053039551E-2,1.018676758E-1,6.088256836E-3
3.878572497E0,8.946228027E-2,1.029205322E-1,2.883911133E-3
3.881044420E0,8.946228027E-2,1.029205322E-1,-7.766723633E-3
3.883516344E0,8.520507812E-2,1.018676758E-1,-1.841735840E-2
3.885988268E0,8.520507812E-2,9.759521484E-2,-2.587890625E-2
3.888429674E0,8.200073242E-2,8.694458008E-2,-3.332519531E-2
3.890901598E0,8.200073242E-2,7.310485840E-2,-4.292297363E-2
3.893373522E0,7.774353027E-2,5.924987793E-2,-5.569458008E-2
3.895845446E0,7.028198242E-2,4.220581055E-2,-6.422424316E-2
3.898317370E0,6.602478027E-2,2.622985840E-2,-7.594299316E-2
3.900758776E0,6.069946289E-2,1.237487793E-2,-8.445739746E-2
3.903230700E0,5.430603027E-2,-4.669189453E-3,-9.617614746E-2
3.905702624E0,4.365539551E-2,-2.064514160E-2,-1.068267822E-1
3.908174547E0,3.086853027E-2,-3.768920898E-2,-1.153564453E-1
3.910646471E0,2.767944336E-2,-5.686950684E-2,-1.217498779E-1
3.913087878E0,2.340698242E-2,-7.817077637E-2,-1.196136475E-1
3.915559801E0,2.447509766E-2,-9.414672852E-2,-1.228179932E-1
3.918031725E0,2.873229980E-2,-1.047973633E-1,-1.228179932E-1
3.920503649E0,3.619384766E-2,-1.090545654E-1,-1.206817627E-1
3.922975573E0,4.472351074E-2,-1.101226807E-1,-1.164245605E-1
3.925416979E0,5.963134766E-2,-1.037292480E-1,-1.164245605E-1
3.927888903E0,7.453918457E-2,-9.095764160E-2,-1.132202148E-1
3.930360827E0,8.946228027E-2,-7.070922852E-2,-1.036376953E-1
3.932832751E0,1.001129150E-1,-5.047607422E-2,-9.938049316E-2
3.935304674E0,1.128997803E-1,-2.703857422E-2,-9.510803223E-2
3.937746081E0,1.278076172E-1,-5.737304688E-3,-8.872985840E-2
3.940218004E0,1.363372803E-1,8.117675781E-3,-8.126831055E-2
3.942689928E0,1.512451172E-1,2.197265625E-2,-7.806396484E-2
3.945161852E0,1.565704346E-1,4.327392578E-2,-7.806396484E-2
3.947633776E0,1.597595215E-1,6.350708008E-2,-7.487487793E-2
3.950075182E0,1.640319824E-1,7.522583008E-2,-7.701110840E-2
3.952547106E0,1.640319824E-1,8.375549316E-2,-7.806396484E-2
3.955019030E0,1.661529541E-1,9.226989746E-2,-7.701110840E-2
3.957490954E0,1.661529541E-1,9.120178223E-2,-7.806396484E-2
3.959962878E0,1.608276367E-1,8.268737793E-2,-7.913208008E-2
3.962404284E0,1.597595215E-1,6.350708008E-2,-8.020019531E-2
3.964876208E0,1.501770020E-1,4.220581055E-2,-7.701110840E-2
3.967348131E0,1.512451172E-1,1.664733887E-2,-7.168579102E-2
3.969820055E0,1.480560303E-1,-1.106262207E-2,-6.422424316E-2
3.972291979E0,1.427154541E-1,-2.597045898E-2,-6.101989746E-2
3.974733385E0,1.405944824E-1,-3.236389160E-2,-5.569458008E-2
3.977205309E0,1.384582520E-1,-3.768920898E-2,-5.464172363E-2
3.979677233E0,1.373901367E-1,-4.620361328E-2,-4.931640625E-2
3.982149157E0,1.416625977E-1,-4.727172852E-2,-4.504394531E-2
3.984621081E0,1.448516846E-1,-5.047607422E-2,-4.397583008E-2
3.987062487E0,1.437835693E-1,-4.940795898E-2,-5.143737793E-2
3.989534411E0,1.501770020E-1,-5.259704590E-2,-5.676269531E-2
3.992006335E0,1.565704346E-1,-5.473327637E-2,-6.315612793E-2
3.994478258E0,1.618957520E-1,-5.047607422E-2,-6.422424316E-2
3.996950182E0,1.608276367E-1,-3.982543945E-2,-6.529235840E-2
3.999391588E0,1.576385498E-1,-2.064514160E-2,-6.529235840E-2
4.001863512E0,1.587066650E-1,4.928588867E-3,-6.422424316E-2
4.004335436E0,1.608276367E-1,2.941894531E-2,-6.208801270E-2
4.006807360E0,1.618957520E-1,4.966735840E-2,-5.783081055E-2
4.009279284E0,1.640319824E-1,6.883239746E-2,-5.357360840E-2
4.011720690E0,1.672210693E-1,8.482360840E-2,-5.250549316E-2
4.014192614E0,1.757507324E-1,9.226989746E-2,-4.611206055E-2
4.016664538E0,1.874694824E-1,9.652709961E-2,-4.078674316E-2
4.019136462E0,1.938476562E-1,1.018676758E-1,-3.759765625E-2
4.021608385E0,2.013092041E-1,1.007995605E-1,-3.332519531E-2
4.024080309E0,2.109069824E-1,9.333801270E-2,-2.906799316E-2
4.026521715E0,2.268829346E-1,8.055114746E-2,-3.332519531E-2
4.028993639E0,2.375335693E-1,7.096862793E-2,-3.546142578E-2
4.031465563E0,2.449951172E-1,6.777954102E-2,-3.546142578E-2
4.033937487E0,2.566986084E-1,6.350708008E-2,-3.546142578E-2
4.036378893E0,2.641601562E-1,6.777954102E-2,-3.439331055E-2
4.038850817E0,2.716217041E-1,7.203674316E-2,-3.546142578E-2
4.041322741E0,2.790832520E-1,7.522583008E-2,-3.971862793E-2
4.043794665E0,2.854614258E-1,7.948303223E-2,-3.759765625E-2
4.046266588E0,2.939910889E-1,8.482360840E-2,-3.652954102E-2
4.048738512E0,3.078460693E-1,9.226989746E-2,-3.120422363E-2
4.051210436E0,3.195495605E-1,1.007995605E-1,-2.693176270E-2
4.053682360E0,3.323364258E-1,1.103820801E-1,-2.267456055E-2
4.056154284E0,3.515167236E-1,1.157073975E-1,-1.948547363E-2
4.058595690E0,3.643035889E-1,1.252899170E-1,-1.522827148E-2
4.061067614E0,3.738861084E-1,1.380767822E-1,-6.698608398E-3
4.063539538E0,3.866729736E-1,1.391448975E-1,-3.051757812E-4
4.066011462E0,3.962554932E-1,1.412811279E-1,1.831054688E-3
4.068483385E0,4.047698975E-1,1.476745605E-1,7.629394531E-4
4.070924792E0,4.101104736E-1,1.412811279E-1,-4.562377930E-3
4.073396715E0,4.132995605E-1,1.391448975E-1,-1.416015625E-2
4.075868639E0,4.122314453E-1,1.402130127E-1,-2.267456055E-2
4.078340563E0,4.069061279E-1,1.380767822E-1,-2.906799316E-2
4.080812487E0,4.026489258E-1,1.252899170E-1,-3.652954102E-2
4.083253893E0,3.951873779E-1,1.157073975E-1,-4.185485840E-2
4.085756335E0,3.909301758E-1,1.039886475E-1,-4.504394531E-2
4.088197741E0,3.856048584E-1,9.226989746E-2,-4.292297363E-2
4.090669665E0,3.770751953E-1,7.415771484E-2,-4.078674316E-2
4.093141588E0,3.802795410E-1,6.031799316E-2,-4.292297363E-2
4.095582995E0,3.770751953E-1,4.966735840E-2,-4.185485840E-2
4.098054919E0,3.706817627E-1,4.539489746E-2,-4.185485840E-2
4.100526842E0,3.579101562E-1,7.629394531E-2,-1.416015625E-2
4.102998766E0,3.312683105E-1,1.455383301E-1,4.975891113E-2
4.105470690E0,3.078460693E-1,2.179718018E-1,1.104736328E-1
4.107912096E0,2.993164062E-1,2.446136475E-1,1.392364502E-1
4.110384020E0,3.046417236E-1,2.296905518E-1,1.381835938E-1
4.112855944E0,3.088989258E-1,2.094573975E-1,1.211395264E-1
4.115327868E0,3.057098389E-1,1.902770996E-1,1.030273438E-1
4.117799792E0,2.982482910E-1,1.700439453E-1,8.384704590E-2
4.120241198E0,2.844085693E-1,1.519317627E-1,6.893920898E-2
4.122713122E0,2.716217041E-1,1.295623779E-1,5.934143066E-2
4.125185045E0,2.545776367E-1,1.082458496E-1,5.189514160E-2
4.127656969E0,2.311401367E-1,9.226989746E-2,4.550170898E-2
4.130128893E0,2.055664062E-1,8.268737793E-2,4.124450684E-2
4.132570299E0,1.778717041E-1,7.096862793E-2,3.910827637E-2
4.135042223E0,1.544342041E-1,6.243896484E-2,4.229736328E-2
4.137514147E0,1.373901367E-1,6.350708008E-2,4.762268066E-2
4.139986071E0,1.246185303E-1,5.924987793E-2,5.508422852E-2
4.142457995E0,1.150207520E-1,4.966735840E-2,6.361389160E-2
4.144899401E0,1.128997803E-1,4.646301270E-2,7.426452637E-2
4.147371325E0,1.107635498E-1,4.646301270E-2,8.277893066E-2
4.149843249E0,1.065063477E-1,4.966735840E-2,9.342956543E-2
4.152315172E0,1.054382324E-1,4.966735840E-2,1.051483154E-1
4.154787096E0,1.022491455E-1,5.178833008E-2,1.190032959E-1
4.157228503E0,1.001129150E-1,4.753112793E-2,1.349792480E-1
4.159700426E0,1.001129150E-1,3.369140625E-2,1.477661133E-1
4.162172350E0,1.022491455E-1,1.770019531E-2,1.648101807E-1
4.164644274E0,1.075744629E-1,-3.601074219E-3,1.786499023E-1
4.167116198E0,1.075744629E-1,-1.957702637E-2,1.914367676E-1
4.169557604E0,1.096954346E-1,-3.022766113E-2,2.031555176E-1
4.172029528E0,1.150207520E-1,-3.768920898E-2,2.084808350E-1
4.174501452E0,1.171569824E-1,-4.727172852E-2,2.159423828E-1
4.176973376E0,1.192932129E-1,-5.366516113E-2,2.201995850E-1
4.179445299E0,1.171569824E-1,-5.259704590E-2,2.265930176E-1
4.181886706E0,1.203460693E-1,-5.047607422E-2,2.329864502E-1
4.184358629E0,1.214141846E-1,-4.727172852E-2,2.383117676E-1
4.186830553E0,1.203460693E-1,-4.301452637E-2,2.425689697E-1
4.189302477E0,1.203460693E-1,-4.087829590E-2,2.478942871E-1
4.191774401E0,1.192932129E-1,-3.982543945E-2,2.542877197E-1
4.194215807E0,1.160888672E-1,-3.982543945E-2,2.606811523E-1
4.196687731E0,1.096954346E-1,-3.343200684E-2,2.660064697E-1
4.199159655E0,1.065063477E-1,-2.703857422E-2,2.766571045E-1
4.201631579E0,1.054382324E-1,-1.318359375E-2,2.830505371E-1
4.204103503E0,1.065063477E-1,1.025390625E-2,2.905120850E-1
4.206544909E0,1.128997803E-1,4.327392578E-2,2.990264893E-1
4.209016833E0,1.224822998E-1,7.629394531E-2,3.043518066E-1
4.211488756E0,1.331329346E-1,9.014892578E-2,3.043518066E-1
4.213960680E0,1.395263672E-1,8.801269531E-2,3.032989502E-1
4.216432604E0,1.459197998E-1,7.310485840E-2,3.032989502E-1
4.218874010E0,1.512451172E-1,5.499267578E-2,3.054199219E-1
4.221345934E0,1.459197998E-1,3.369140625E-2,3.086242676E-1
4.223817858E0,1.320648193E-1,1.025390625E-2,3.118133545E-1
4.226289782E0,1.182250977E-1,-1.318359375E-2,3.107452393E-1
4.228761706E0,1.033020020E-1,-2.810668945E-2,3.054199219E-1
4.231203112E0,8.413696289E-2,-5.047607422E-2,3.000946045E-1
4.233675036E0,5.963134766E-2,-6.964111328E-2,2.937011719E-1
4.236146960E0,4.151916504E-2,-8.882141113E-2,2.873077393E-1
4.238618883E0,2.128601074E-2,-1.080017090E-1,2.787933350E-1
4.241090807E0,2.105712891E-3,-1.197204590E-1,2.692108154E-1
4.243532213E0,-1.812744141E-2,-1.260986328E-1,2.638854980E-1
4.246004137E0,-3.091430664E-2,-1.367645264E-1,2.574920654E-1
4.248476061E0,-3.623962402E-2,-1.527404785E-1,2.542877197E-1
4.250947985E0,-4.476928711E-2,-1.644592285E-1,2.574920654E-1
4.253389391E0,-4.689025879E-2,-1.815032959E-1,2.564239502E-1
4.255861315E0,-4.902648926E-2,-1.985473633E-1,2.553558350E-1
4.258333239E0,-5.116271973E-2,-2.134552002E-1,2.564239502E-1
4.260805163E0,-5.754089355E-2,-2.262420654E-1,2.564239502E-1
4.263277087E0,-5.541992188E-2,-2.358245850E-1,2.564239502E-1
4.265718493E0,-5.009460449E-2,-2.432861328E-1,2.606811523E-1
4.268190417E0,-4.582214355E-2,-2.507476807E-1,2.628173828E-1
4.270662340E0,-3.837585449E-2,-2.454223633E-1,2.660064697E-1
4.273134264E0,-2.984619141E-2,-2.294311523E-1,2.670745850E-1
4.275606188E0,-2.026367188E-2,-2.081298828E-1,2.692108154E-1
4.278047594E0,-1.493835449E-2,-1.964111328E-1,2.734680176E-1
4.280519518E0,-6.408691406E-3,-1.782989502E-1,2.798614502E-1
4.282991442E0,3.173828125E-3,-1.601867676E-1,2.841186523E-1
4.285463366E0,8.499145508E-3,-1.474151611E-1,2.851867676E-1
4.287935290E0,1.168823242E-2,-1.324920654E-1,2.798614502E-1
4.290407213E0,1.382446289E-2,-1.154479980E-1,2.755889893E-1
4.292848620E0,1.275634766E-2,-1.069335938E-1,2.734680176E-1
4.295320544E0,6.362915039E-3,-1.080017090E-1,2.723999023E-1
4.297792467E0,3.173828125E-3,-1.101226807E-1,2.734680176E-1
4.300264391E0,-5.355834961E-3,-1.197204590E-1,2.777252197E-1
4.302705797E0,-7.476806641E-3,-1.356964111E-1,2.830505371E-1
4.305177721E0,-7.476806641E-3,-1.548614502E-1,2.905120850E-1
4.307649645E0,-4.287719727E-3,-1.708526611E-1,3.000946045E-1
4.310121569E0,-2.151489258E-3,-1.868286133E-1,3.086242676E-1
4.312593493E0,2.105712891E-3,-2.081298828E-1,3.224639893E-1
4.315034899E0,3.173828125E-3,-2.326354980E-1,3.288574219E-1
4.317506823E0,1.168823242E-2,-2.475433350E-1,3.331146240E-1
4.319978747E0,7.431030273E-3,-2.560729980E-1,3.416442871E-1
4.322450670E0,4.241943359E-3,-2.528686523E-1,3.373870850E-1
4.324922594E0,3.173828125E-3,-2.454223633E-1,3.320617676E-1
4.327364001E0,-3.051757812E-5,-2.368927002E-1,3.309936523E-1
4.329835924E0,-8.544921875E-3,-2.283782959E-1,3.267364502E-1
4.332307848E0,-1.919555664E-2,-2.187805176E-1,3.203430176E-1
4.334779772E0,-2.133178711E-2,-2.081298828E-1,3.171386719E-1
4.337282213E0,-2.665710449E-2,-1.996154785E-1,3.118133545E-1
4.339723620E0,-3.198242188E-2,-1.942901611E-1,3.118133545E-1
4.342195544E0,-3.305053711E-2,-1.900177002E-1,3.096923828E-1
4.344667467E0,-2.877807617E-2,-1.942901611E-1,3.128814697E-1
4.347139391E0,-1.919555664E-2,-1.985473633E-1,3.118133545E-1
4.349611315E0,-9.613037109E-3,-1.910858154E-1,3.107452393E-1
4.352083239E0,-1.083374023E-3,-1.761779785E-1,3.096923828E-1
4.354524645E0,4.241943359E-3,-1.655273438E-1,3.054199219E-1
4.356996569E0,7.431030273E-3,-1.623229980E-1,2.894439697E-1
4.359468493E0,4.241943359E-3,-1.623229980E-1,2.755889893E-1
4.361940417E0,-4.287719727E-3,-1.580657959E-1,2.692108154E-1
4.364381823E0,-2.133178711E-2,-1.559295654E-1,2.649383545E-1
4.366853747E0,-2.665710449E-2,-1.633911133E-1,2.723999023E-1
4.369325670E0,-3.305053711E-2,-1.676483154E-1,2.819824219E-1
4.371797594E0,-3.730773926E-2,-1.782989502E-1,2.798614502E-1
4.374269518E0,-4.370117188E-2,-1.932220459E-1,2.713317871E-1
4.376710924E0,-5.009460449E-2,-2.049407959E-1,2.585449219E-1
4.379182848E0,-5.541992188E-2,-2.081298828E-1,2.457733154E-1
4.381654772E0,-6.607055664E-2,-1.974792480E-1,2.372436523E-1
4.384126696E0,-7.991027832E-2,-1.857604980E-1,2.265930176E-1
4.386598620E0,-9.696960449E-2,-1.751098633E-1,2.255249023E-1
4.389040026E0,-1.054840088E-1,-1.687164307E-1,2.265930176E-1
4.391511950E0,-1.108093262E-1,-1.676483154E-1,2.244567871E-1
4.393983874E0,-1.129455566E-1,-1.687164307E-1,2.180786133E-1
4.396455797E0,-1.097412109E-1,-1.697845459E-1,2.063598633E-1
4.398927721E0,-1.054840088E-1,-1.676483154E-1,1.925048828E-1
4.401369128E0,-9.590148926E-2,-1.676483154E-1,1.775970459E-1
4.403841051E0,-8.311462402E-2,-1.612548828E-1,1.626739502E-1
4.406312975E0,-7.458496094E-2,-1.452789307E-1,1.530914307E-1
4.408784899E0,-7.458496094E-2,-1.335601807E-1,1.392364502E-1
4.411256823E0,-7.246398926E-2,-1.197204590E-1,1.264648438E-1
4.413698229E0,-6.500244141E-2,-1.047973633E-1,1.136779785E-1
4.416170153E0,-5.860900879E-2,-9.307861328E-2,1.040954590E-1
4.418642077E0,-5.328369141E-2,-8.029174805E-2,9.342956543E-2
4.421114001E0,-4.476928711E-2,-6.858825684E-2,7.958984375E-2
4.423585924E0,-3.837585449E-2,-5.154418945E-2,6.680297852E-2
4.426057848E0,-2.877807617E-2,-3.450012207E-2,4.762268066E-2
4.428499254E0,-2.345275879E-2,-1.745605469E-2,2.738952637E-2
4.430971178E0,-1.707458496E-2,-5.737304688E-3,1.141357422E-2
4.433443102E0,-1.600646973E-2,-1.464843750E-3,-3.051757812E-4
4.435915026E0,-1.387023926E-2,6.561279297E-4,-1.841735840E-2
4.438356432E0,-1.707458496E-2,-2.532958984E-3,-3.759765625E-2
4.440828356E0,-2.133178711E-2,-5.737304688E-3,-4.931640625E-2
4.443300280E0,-2.133178711E-2,-4.669189453E-3,-5.250549316E-2
4.445772204E0,-2.133178711E-2,-5.737304688E-3,-4.292297363E-2
4.448244128E0,-2.026367188E-2,-1.531982422E-2,-3.013610840E-2
4.450685534E0,-1.068115234E-2,-2.383422852E-2,-1.841735840E-2
4.453157458E0,-6.408691406E-3,-3.450012207E-2,-1.841735840E-2
4.455629381E0,-1.083374023E-3,-4.833984375E-2,-2.693176270E-2
4.458101305E0,2.105712891E-3,-5.580139160E-2,-3.759765625E-2
4.460573229E0,3.173828125E-3,-5.580139160E-2,-4.504394531E-2
4.463045153E0,5.310058594E-3,-5.899047852E-2,-5.143737793E-2
4.465486559E0,6.362915039E-3,-5.792236328E-2,-5.783081055E-2
4.467958483E0,1.596069336E-2,-5.580139160E-2,-6.529235840E-2
4.470430407E0,1.914978027E-2,-5.154418945E-2,-7.701110840E-2
4.472902331E0,1.914978027E-2,-4.408264160E-2,-8.552551270E-2
4.475343737E0,2.235412598E-2,-3.768920898E-2,-1.004486084E-1
4.477815661E0,2.235412598E-2,-2.915954590E-2,-1.132202148E-1
4.480287585E0,2.661132812E-2,-1.638793945E-2,-1.217498779E-1
4.482759508E0,2.980041504E-2,-1.464843750E-3,-1.366577148E-1
4.485231432E0,2.873229980E-2,1.664733887E-2,-1.547698975E-1
4.487672838E0,3.407287598E-2,3.474426270E-2,-1.739501953E-1
4.490144762E0,3.619384766E-2,5.285644531E-2,-1.888580322E-1
4.492616686E0,4.045104980E-2,6.564331055E-2,-2.027130127E-1
4.495088610E0,4.577636719E-2,7.522583008E-2,-2.165527344E-1
4.497530016E0,5.216979980E-2,7.948303223E-2,-2.335968018E-1
4.500001940E0,5.323791504E-2,9.120178223E-2,-2.517089844E-1
4.502473864E0,5.644226074E-2,1.061248779E-1,-2.676849365E-1
4.504945788E0,6.388854980E-2,1.157073975E-1,-2.900543213E-1
4.507417712E0,7.135009766E-2,1.167755127E-1,-3.103027344E-1
4.509859118E0,7.881164551E-2,1.199645996E-1,-3.262786865E-1
4.512331042E0,8.946228027E-2,1.348876953E-1,-3.443908691E-1
4.514802965E0,1.001129150E-1,1.466064453E-1,-3.614349365E-1
4.517274889E0,1.139678955E-1,1.551208496E-1,-3.805999756E-1
4.519746813E0,1.310119629E-1,1.668395996E-1,-3.976440430E-1
4.522218737E0,1.512451172E-1,1.774902344E-1,-4.061737061E-1
4.524660143E0,1.661529541E-1,1.870880127E-1,-4.178924561E-1
4.527132067E0,1.842651367E-1,1.913452148E-1,-4.285430908E-1
4.529603991E0,1.981201172E-1,2.030639648E-1,-4.445190430E-1
4.532075915E0,2.077026367E-1,2.126464844E-1,-4.583740234E-1
4.534517321E0,2.109069824E-1,2.190399170E-1,-4.722137451E-1
4.536989245E0,2.194213867E-1,2.307586670E-1,-4.871368408E-1
4.539461169E0,2.268829346E-1,2.371520996E-1,-5.031127930E-1
4.541933092E0,2.311401367E-1,2.478027344E-1,-5.233459473E-1
4.544405016E0,2.353973389E-1,2.733612061E-1,-5.393371582E-1
4.546846422E0,2.460479736E-1,3.181152344E-1,-5.627593994E-1
4.549318346E0,2.545776367E-1,3.681793213E-1,-5.968475342E-1
4.551790270E0,2.556457520E-1,4.203796387E-1,-6.266784668E-1
4.554262194E0,2.492523193E-1,4.491424561E-1,-6.469268799E-1
4.556734118E0,2.428588867E-1,4.619140625E-1,-6.660919189E-1
4.559175524E0,2.407226562E-1,5.013275146E-1,-6.778106689E-1
4.561647448E0,2.396545410E-1,5.247650146E-1,-6.767425537E-1
4.564119372E0,2.428588867E-1,5.215759277E-1,-6.650390625E-1
4.566591295E0,2.439270020E-1,4.800262451E-1,-6.490478516E-1
4.569063219E0,2.386016846E-1,4.235687256E-1,-6.192321777E-1
4.571504626E0,2.375335693E-1,3.830871582E-1,-5.830078125E-1
4.573976549E0,2.311401367E-1,3.660430908E-1,-5.563812256E-1
4.576448473E0,2.364654541E-1,3.596496582E-1,-5.340118408E-1
4.578920397E0,2.353973389E-1,3.500671387E-1,-5.212249756E-1
4.581392321E0,2.300720215E-1,3.415527344E-1,-4.988555908E-1
4.583833727E0,2.236785889E-1,3.298339844E-1,-4.722137451E-1
4.586305651E0,2.119598389E-1,3.245086670E-1,-4.445190430E-1
4.588777575E0,2.023773193E-1,3.202362061E-1,-4.178924561E-1
4.591249499E0,1.970520020E-1,3.191680908E-1,-4.029693604E-1
4.593721422E0,1.885223389E-1,3.191680908E-1,-3.923187256E-1
4.596162829E0,1.736145020E-1,3.138427734E-1,-3.816680908E-1
4.598634753E0,1.608276367E-1,2.957458496E-1,-3.678283691E-1
4.601106676E0,1.512451172E-1,2.744293213E-1,-3.550415039E-1
4.603578600E0,1.352691650E-1,2.563171387E-1,-3.390655518E-1
4.606050524E0,1.160888672E-1,2.435455322E-1,-3.241424561E-1
4.608491930E0,1.022491455E-1,2.371520996E-1,-3.113708496E-1
4.610963854E0,9.158325195E-2,2.296905518E-1,-2.996520996E-1
4.613435778E0,7.774353027E-2,2.201080322E-1,-2.836608887E-1
4.615907702E0,6.495666504E-2,2.190399170E-1,-2.655639648E-1
4.618379626E0,5.749511719E-2,2.094573975E-1,-2.495727539E-1
4.620851549E0,4.791259766E-2,1.966705322E-1,-2.197570801E-1
4.623323473E0,4.258728027E-2,1.817626953E-1,-1.941833496E-1
4.625795397E0,3.512573242E-2,1.679077148E-1,-1.643524170E-1
4.628267321E0,3.086853027E-2,1.529998779E-1,-1.292114258E-1
4.630739245E0,2.767944336E-2,1.391448975E-1,-1.047058105E-1
4.633180651E0,2.235412598E-2,1.263580322E-1,-8.020019531E-2
4.635652575E0,1.063537598E-2,1.210327148E-1,-5.889892578E-2
4.638124499E0,-2.151489258E-3,1.082458496E-1,-3.971862793E-2
4.640596422E0,-6.408691406E-3,9.226989746E-2,-1.948547363E-2
4.643068346E0,-1.707458496E-2,7.415771484E-2,3.952026367E-3
4.645509753E0,-3.411865234E-2,5.606079102E-2,1.248168945E-2
4.647981676E0,-4.476928711E-2,5.073547363E-2,6.088256836E-3
4.650453600E0,-5.221557617E-2,5.073547363E-2,7.629394531E-4
4.652925524E0,-5.860900879E-2,5.178833008E-2,2.883911133E-3
4.655397448E0,-6.286621094E-2,4.220581055E-2,6.088256836E-3
4.657838854E0,-6.820678711E-2,3.794860840E-2,3.952026367E-3
4.660310778E0,-7.353210449E-2,3.048706055E-2,1.831054688E-3
4.662782702E0,-7.458496094E-2,2.197265625E-2,1.831054688E-3
4.665254626E0,-7.885742188E-2,2.197265625E-2,7.629394531E-4
4.667726549E0,-7.991027832E-2,1.664733887E-2,-3.051757812E-4
4.670198473E0,-7.778930664E-2,1.451110840E-2,1.831054688E-3
4.672639879E0,-7.885742188E-2,9.185791016E-3,5.020141602E-3
4.675111803E0,-7.991027832E-2,2.792358398E-3,3.952026367E-3
4.677583727E0,-7.565307617E-2,-1.464843750E-3,3.952026367E-3
4.680055651E0,-7.246398926E-2,-5.737304688E-3,5.020141602E-3
4.682497057E0,-7.458496094E-2,-6.790161133E-3,7.156372070E-3
4.684968981E0,-7.672119141E-2,-7.858276367E-3,7.156372070E-3
4.687440905E0,-7.139587402E-2,-1.745605469E-2,1.034545898E-2
4.689912829E0,-6.820678711E-2,-1.850891113E-2,1.248168945E-2
4.692384753E0,-7.139587402E-2,-2.171325684E-2,1.141357422E-2
4.694826159E0,-6.500244141E-2,-2.597045898E-2,1.248168945E-2
4.697298083E0,-6.393432617E-2,-2.915954590E-2,1.567077637E-2
4.699770006E0,-6.286621094E-2,-3.022766113E-2,1.567077637E-2
4.702241930E0,-6.286621094E-2,-2.810668945E-2,2.420043945E-2
4.704713854E0,-6.181335449E-2,-2.915954590E-2,3.697204590E-2
4.707185778E0,-5.541992188E-2,-3.768920898E-2,4.336547852E-2
4.709627184E0,-5.009460449E-2,-5.366516113E-2,4.124450684E-2
4.712099108E0,-3.837585449E-2,-7.817077637E-2,6.040954590E-2
4.714571032E0,-2.558898926E-2,-1.143951416E-1,8.917236328E-2
4.717042956E0,-1.387023926E-2,-1.442108154E-1,9.770202637E-2
4.719484362E0,7.431030273E-3,-1.420898438E-1,9.024047852E-2
4.721956286E0,2.554321289E-2,-1.271667480E-1,9.663391113E-2
4.724428210E0,3.833007812E-2,-1.122589111E-1,9.877014160E-2
4.726900133E0,3.939819336E-2,-1.016082764E-1,9.237670898E-2
4.729341540E0,3.833007812E-2,-9.414672852E-2,8.810424805E-2
4.731813463E0,3.619384766E-2,-8.563232422E-2,8.491516113E-2
4.734285387E0,3.193664551E-2,-8.242797852E-2,7.958984375E-2
4.736757311E0,2.235412598E-2,-8.029174805E-2,7.638549805E-2
4.739229235E0,9.567260742E-3,-7.603454590E-2,7.212829590E-2
4.741670641E0,7.431030273E-3,-7.923889160E-2,7.000732422E-2
4.744142565E0,4.241943359E-3,-8.135986328E-2,6.787109375E-2
4.746614489E0,-3.219604492E-3,-8.349609375E-2,6.680297852E-2
4.749086413E0,-2.151489258E-3,-8.882141113E-2,6.573486328E-2
4.751558337E0,-8.544921875E-3,-9.521484375E-2,6.787109375E-2
4.753999743E0,-1.493835449E-2,-9.840393066E-2,6.680297852E-2
4.756471667E0,-1.707458496E-2,-1.058654785E-1,6.361389160E-2
4.758943590E0,-1.812744141E-2,-1.143951416E-1,5.828857422E-2
4.761415514E0,-1.707458496E-2,-1.165161133E-1,5.934143066E-2
4.763887438E0,-1.280212402E-2,-1.165161133E-1,5.722045898E-2
4.766328844E0,-1.173400879E-2,-1.197204590E-1,5.828857422E-2
4.768800768E0,-5.355834961E-3,-1.250457764E-1,6.040954590E-2
4.771272692E0,1.037597656E-3,-1.271667480E-1,5.934143066E-2
4.773744616E0,-2.151489258E-3,-1.218414307E-1,6.573486328E-2
4.776216540E0,3.173828125E-3,-1.111907959E-1,6.573486328E-2
4.778657946E0,3.173828125E-3,-1.069335938E-1,6.680297852E-2
4.781129870E0,6.362915039E-3,-1.005401611E-1,6.361389160E-2
4.783601794E0,1.275634766E-2,-8.882141113E-2,6.466674805E-2
4.786073717E0,1.489257812E-2,-7.923889160E-2,6.361389160E-2
4.788545641E0,1.914978027E-2,-7.177734375E-2,6.787109375E-2
4.790987047E0,2.767944336E-2,-6.538391113E-2,6.893920898E-2
4.793458971E0,3.512573242E-2,-6.112670898E-2,7.106018066E-2
4.795930895E0,3.833007812E-2,-5.473327637E-2,7.319641113E-2
4.798402819E0,4.577636719E-2,-4.727172852E-2,7.852172852E-2
4.800874743E0,5.004882812E-2,-4.087829590E-2,8.065795898E-2
4.803316149E0,5.004882812E-2,-3.343200684E-2,8.384704590E-2
4.805788073E0,4.791259766E-2,-3.022766113E-2,8.598327637E-2
4.808259997E0,4.684448242E-2,-2.810668945E-2,8.598327637E-2
4.810731920E0,4.684448242E-2,-3.343200684E-2,8.065795898E-2
4.813203844E0,4.684448242E-2,-3.982543945E-2,7.638549805E-2
4.815645251E0,5.111694336E-2,-3.982543945E-2,7.533264160E-2
4.818117174E0,5.430603027E-2,-3.982543945E-2,7.533264160E-2
4.820589098E0,5.749511719E-2,-4.194641113E-2,7.106018066E-2
4.823061022E0,6.495666504E-2,-4.833984375E-2,7.319641113E-2
4.825532946E0,6.921386719E-2,-5.899047852E-2,7.533264160E-2
4.827974352E0,6.495666504E-2,-6.431579590E-2,7.426452637E-2
4.830446276E0,6.495666504E-2,-6.964111328E-2,7.319641113E-2
4.832918200E0,6.176757812E-2,-7.603454590E-2,7.106018066E-2
4.835390124E0,6.388854980E-2,-8.029174805E-2,7.106018066E-2
4.837862047E0,6.602478027E-2,-8.029174805E-2,7.106018066E-2
4.840303454E0,6.282043457E-2,-8.029174805E-2,7.426452637E-2
4.842775378E0,5.749511719E-2,-7.710266113E-2,8.065795898E-2
4.845247301E0,4.898071289E-2,-8.135986328E-2,8.384704590E-2
4.847719225E0,5.004882812E-2,-8.135986328E-2,8.917236328E-2
4.850191149E0,4.577636719E-2,-8.135986328E-2,9.342956543E-2
4.852632555E0,5.323791504E-2,-8.029174805E-2,9.449768066E-2
4.855104479E0,5.323791504E-2,-7.496643066E-2,1.008911133E-1
4.857576403E0,5.004882812E-2,-6.431579590E-2,1.030273438E-1
4.860048327E0,4.791259766E-2,-5.899047852E-2,1.104736328E-1
4.862520251E0,4.898071289E-2,-5.792236328E-2,1.136779785E-1
4.864961657E0,5.537414551E-2,-5.259704590E-2,1.168670654E-1
4.867433581E0,5.856323242E-2,-4.515075684E-2,1.221923828E-1
4.869905504E0,6.176757812E-2,-3.875732422E-2,1.232604980E-1
4.872377428E0,6.388854980E-2,-3.129577637E-2,1.253967285E-1
4.874849352E0,6.282043457E-2,-2.383422852E-2,1.264648438E-1
4.877290758E0,5.963134766E-2,-1.425170898E-2,1.285858154E-1
4.879762682E0,5.430603027E-2,-9.994506836E-3,1.328582764E-1
