"Time (s)","Acceleration x (m/s^2)","Acceleration y (m/s^2)","Acceleration z (m/s^2)"
1.876078900E-2,2.514258385E0,4.612165451E0,8.215158463E0
2.116589300E-2,2.432902336E0,4.602594376E0,8.296514511E0
2.357105000E-2,2.346760750E0,4.612165451E0,8.320442200E0
2.597615400E-2,2.260619164E0,4.707878590E0,8.358727455E0
2.838125800E-2,2.222334146E0,4.746163845E0,8.426324844E0
3.078636200E-2,2.160120726E0,4.827519894E0,8.406583786E0
3.319151800E-2,2.107478619E0,4.846662045E0,8.377870560E0
3.559662300E-2,2.112264156E0,4.870590687E0,8.368298531E0
3.800172700E-2,2.107478619E0,4.923232555E0,8.368298531E0
4.040688300E-2,2.136192322E0,4.995017052E0,8.377870560E0
4.281198700E-2,2.231905222E0,5.004588604E0,8.426324844E0
4.521709100E-2,2.313261271E0,5.033302307E0,8.478966713E0
4.762219600E-2,2.408974171E0,5.014159679E0,8.517251968E0
5.002735200E-2,2.509472847E0,5.057828903E0,8.593822479E0
5.243245600E-2,2.557329178E0,5.124827862E0,8.708678246E0
5.483756000E-2,2.662613392E0,5.110470772E0,8.804390907E0
5.724266400E-2,2.691327333E0,5.134399414E0,8.880961418E0
5.964782100E-2,2.672184706E0,5.172684193E0,8.895318031E0
6.205292500E-2,2.648256540E0,5.167898655E0,8.866603851E0
6.445802900E-2,2.581257343E0,5.206183910E0,8.857032776E0
6.686318500E-2,2.499901533E0,5.239683151E0,8.813961983E0
6.926828900E-2,2.528615236E0,5.215754986E0,8.775676727E0
7.167339300E-2,2.586043119E0,5.163113117E0,8.742177963E0
7.407849800E-2,2.633899450E0,5.120042324E0,8.732605934E0
7.648365400E-2,2.595614433E0,4.966303349E0,8.727820396E0
7.888875800E-2,2.533401012E0,4.746163845E0,8.665607452E0
8.129386200E-2,2.504687071E0,4.789234638E0,8.694320679E0
8.369896600E-2,2.490330219E0,4.770092010E0,8.651249886E0
8.610412300E-2,2.447259426E0,4.817948341E0,8.550751686E0
8.850922700E-2,2.380260229E0,4.908875465E0,8.507680893E0
9.091433100E-2,2.313261271E0,4.928018093E0,8.431110382E0
9.331948700E-2,2.270190477E0,5.053043365E0,8.368298531E0
9.572459100E-2,2.265404940E0,5.163113117E0,8.286943436E0
9.812969600E-2,2.246262312E0,5.277968407E0,8.176873207E0
1.005348000E-1,2.265404940E0,5.383252621E0,8.071588516E0
1.029399560E-1,2.327618122E0,5.392824173E0,7.932805061E0
1.053450600E-1,2.346760750E0,5.359324455E0,7.770093441E0
1.077501640E-1,2.385046005E0,5.368896008E0,7.669594765E0
1.101553210E-1,2.533401012E0,5.388038158E0,7.597810268E0
1.125604250E-1,2.729612350E0,5.426323414E0,7.521239758E0
1.149655290E-1,2.959921598E0,5.507679462E0,7.411170006E0
1.173706330E-1,3.165704250E0,5.555535793E0,7.382455826E0
1.197757890E-1,3.280559778E0,5.589035511E0,7.344171047E0
1.221808930E-1,3.457628727E0,5.641677380E0,7.334599495E0
1.245859980E-1,3.486342669E0,5.627320766E0,7.286144733E0
1.269911020E-1,3.538984776E0,5.612963676E0,7.257431030E0
1.293962580E-1,3.644268990E0,5.622535229E0,7.200003147E0
1.318013620E-1,3.783052683E0,5.603392601E0,7.142575741E0
1.342064660E-1,3.869194269E0,5.603392601E0,7.051648140E0
1.366115710E-1,3.850051641E0,5.593821049E0,6.936792850E0
1.390167270E-1,3.792623997E0,5.512465000E0,6.793223381E0
1.414218310E-1,3.682554007E0,5.488536835E0,6.649653912E0
1.438269350E-1,3.582055569E0,5.474180222E0,6.563512325E0
1.462320910E-1,3.448057413E0,5.397609711E0,6.506084919E0
1.486371960E-1,3.275774240E0,5.402395248E0,6.491727829E0
1.510423000E-1,3.165704250E0,5.364109993E0,6.611369133E0
1.534474040E-1,3.093919754E0,5.373681545E0,6.874579430E0
1.558525600E-1,3.089133978E0,5.397609711E0,7.190432072E0
1.582576640E-1,3.074777126E0,5.388038158E0,7.497311592E0
1.606627680E-1,3.031706333E0,5.416752338E0,7.770093441E0
1.630678730E-1,2.950350285E0,5.464608669E0,8.028517723E0
1.654730290E-1,2.897708178E0,5.483751297E0,8.248658180E0
1.678781330E-1,2.878565550E0,5.493322372E0,8.478966713E0
1.702832370E-1,2.864208698E0,5.464608669E0,8.703892708E0
1.726883410E-1,2.767897606E0,5.450251579E0,8.895318031E0
1.750934980E-1,2.710469961E0,5.416752338E0,9.096315384E0
1.774986020E-1,2.681756020E0,5.388038158E0,9.282955170E0
1.799037060E-1,2.681756020E0,5.364109993E0,9.464810371E0
1.823088100E-1,2.667398930E0,5.311468124E0,9.623334885E0
1.847139660E-1,2.638685226E0,5.263611794E0,9.733404160E0
1.871190710E-1,2.571686029E0,5.230112076E0,9.853045464E0
1.895241750E-1,2.562114954E0,5.215754986E0,9.953543663E0
1.919293310E-1,2.566900492E0,5.191826820E0,1.000139999E1
1.943344350E-1,2.538186550E0,5.139184952E0,1.006361389E1
1.967395390E-1,2.499901533E0,5.148756027E0,1.013539886E1
1.991446430E-1,2.490330219E0,5.110470772E0,1.014975548E1
2.015498000E-1,2.428116798E0,5.143970490E0,1.018804073E1
2.039549040E-1,2.408974171E0,5.124827862E0,1.022632599E1
2.063600080E-1,2.428116798E0,5.143970490E0,1.035075283E1
2.087651120E-1,2.442473650E0,5.172684193E0,1.046560764E1
2.111702680E-1,2.471187592E0,5.249254704E0,1.048475075E1
2.135753730E-1,2.499901533E0,5.306682587E0,1.043210888E1
2.159804770E-1,2.499901533E0,5.359324455E0,1.039860916E1
2.183855810E-1,2.528615236E0,5.455037594E0,1.032203865E1
2.207907370E-1,2.576471806E0,5.488536835E0,1.019282627E1
2.231958410E-1,2.605185747E0,5.555535793E0,1.002532864E1
2.256009460E-1,2.662613392E0,5.560321808E0,9.843474388E0
2.280061020E-1,2.672184706E0,5.498108387E0,9.695118904E0
2.304112060E-1,2.653042078E0,5.373681545E0,9.503094673E0
2.328163100E-1,2.720041037E0,5.335396290E0,9.340383530E0
2.352214140E-1,2.758326292E0,5.282754421E0,9.187242508E0
2.376265710E-1,2.767897606E0,5.230112076E0,8.991030693E0
2.400316750E-1,2.758326292E0,5.187041283E0,8.847461700E0
2.424367790E-1,2.676970243E0,5.196612358E0,8.660821915E0
2.448418830E-1,2.528615236E0,5.191826820E0,8.483752251E0
2.472470390E-1,2.361117840E0,5.172684193E0,8.373085022E0
2.496521430E-1,2.212762833E0,5.177470207E0,8.229515076E0
2.520572480E-1,2.078764677E0,5.191826820E0,8.109873772E0
2.544623520E-1,1.911267042E0,5.220541000E0,7.985447407E0
2.568675080E-1,1.700698733E0,5.263611794E0,7.899305820E0
2.592726120E-1,1.551745534E0,5.297111034E0,7.817949772E0
2.616777160E-1,1.374676585E0,5.330610752E0,7.703094482E0
2.640828210E-1,1.216750264E0,5.383252621E0,7.626523972E0
2.664879770E-1,1.039681435E0,5.383252621E0,7.578667641E0
2.688930810E-1,9.200403094E-1,5.421537876E0,7.526025295E0
2.712981850E-1,7.812566161E-1,5.416752338E0,7.487740040E0
2.737032890E-1,6.329016089E-1,5.407180786E0,7.468597889E0
2.761084460E-1,5.365904570E-1,5.421537876E0,7.473383427E0
2.785135500E-1,4.600201547E-1,5.445466042E0,7.492526054E0
2.809186540E-1,3.690928817E-1,5.431109428E0,7.564310551E0
2.833237580E-1,2.685943544E-1,5.426323414E0,7.597810268E0
2.857289140E-1,2.159522474E-1,5.421537876E0,7.698308468E0
2.881340180E-1,1.633101404E-1,5.440680504E0,7.722237110E0
2.905391230E-1,1.345962733E-1,5.397609711E0,7.865806103E0
2.929442790E-1,7.716853172E-2,5.421537876E0,7.923233986E0
2.953493830E-1,8.195417374E-2,5.397609711E0,8.042875290E0
2.977544870E-1,9.631111473E-2,5.426323414E0,8.085946083E0
3.001595910E-1,7.238288224E-2,5.411966801E0,8.219944000E0
3.025646960E-1,1.250249892E-1,5.435894966E0,8.334799767E0
3.049698520E-1,1.920240223E-1,5.464608669E0,8.478966713E0
3.073749560E-1,2.685943544E-1,5.493322372E0,8.589036942E0
3.097800600E-1,3.978067636E-1,5.507679462E0,8.723034859E0
3.121852160E-1,4.360919297E-1,5.560321808E0,8.852247238E0
3.145903210E-1,4.983053207E-1,5.565107346E0,8.943174362E0
3.169954250E-1,5.509474277E-1,5.555535793E0,9.014959335E0
3.194005290E-1,6.281159520E-1,5.612963676E0,9.096315384E0
3.218056330E-1,5.509474277E-1,5.641677380E0,9.139386177E0
3.242107890E-1,6.137589812E-1,5.699105263E0,9.187242508E0
3.266158930E-1,6.711867452E-1,5.665606022E0,9.187242508E0
3.290209980E-1,6.281159520E-1,5.627320766E0,9.215956688E0
3.314261540E-1,5.802595019E-1,5.646463394E0,9.249456406E0
3.338312580E-1,4.600201547E-1,5.699105263E0,9.230313301E0
3.362363620E-1,8.195417374E-2,5.852245808E0,9.072386742E0
3.386414660E-1,1.106680483E-1,5.790032387E0,9.067601204E0
3.410466230E-1,1.345962733E-1,5.780461311E0,9.077172279E0
3.434517270E-1,1.680957973E-1,5.727818966E0,9.029315948E0
3.458568310E-1,2.255235314E-1,5.632106304E0,9.000602722E0
3.482619350E-1,2.398804724E-1,5.550750256E0,9.000602722E0
3.506670910E-1,2.542374134E-1,5.474180222E0,8.976674080E0
3.530721960E-1,3.260220885E-1,5.440680504E0,8.995817184E0
3.554773000E-1,4.983053207E-1,5.340181828E0,8.924032211E0
3.578824040E-1,7.956135273E-1,5.191826820E0,9.005388260E0
3.602875080E-1,1.111466169E0,5.042873859E0,9.043673515E0
3.626926640E-1,1.436890006E0,4.908875465E0,9.091529846E0
3.650977680E-1,1.695913076E0,4.841876507E0,9.187242508E0
3.675028730E-1,1.978266120E0,4.770092010E0,9.278169632E0
3.699080290E-1,2.212762833E0,4.741377831E0,9.369096756E0
3.723131330E-1,2.394617319E0,4.717449665E0,9.431310654E0
3.747182370E-1,2.619542599E0,4.736592293E0,9.488738060E0
3.771233410E-1,2.767897606E0,4.750949383E0,9.551549911E0
3.795284980E-1,3.036491871E0,4.808377266E0,9.652048111E0
3.819336020E-1,3.318845034E0,4.817948341E0,9.805189133E0
3.843387060E-1,3.610769272E0,4.908875465E0,9.666405678E0
3.867438100E-1,3.921836376E0,5.091328144E0,9.369096756E0
3.891489660E-1,4.070789337E0,5.321039200E0,9.029315948E0
3.915540710E-1,4.152145386E0,5.507679462E0,8.660821915E0
3.939591750E-1,4.147359848E0,5.813961029E0,8.344370842E0
3.963642790E-1,4.042075634E0,6.062814236E0,8.023732185E0
3.987694350E-1,3.951148272E0,6.355337143E0,7.770093441E0
4.011745390E-1,3.869194269E0,6.623332977E0,7.492526054E0
4.035796430E-1,3.754338741E0,6.862615108E0,7.200003147E0
4.059847480E-1,3.692125320E0,6.953542709E0,6.946363926E0
4.083899040E-1,3.605983734E0,7.063612461E0,6.793223381E0
4.107950080E-1,3.524627686E0,7.087540627E0,6.606583118E0
4.132001120E-1,3.467200041E0,7.106683254E0,6.482156754E0
4.156052160E-1,3.409772158E0,7.097112179E0,6.419943333E0
4.180103730E-1,3.361915827E0,7.087540627E0,6.333801746E0
4.204154770E-1,3.290131092E0,7.116254330E0,6.262016773E0
4.228205810E-1,3.189632654E0,7.111468792E0,6.195017815E0
4.252256850E-1,3.017349243E0,7.092326164E0,6.209374905E0
4.276308410E-1,2.825923443E0,7.087540627E0,6.160920143E0
4.300359460E-1,2.648256540E0,7.097112179E0,6.103492260E0
4.324410500E-1,2.447259426E0,7.125825882E0,6.046064377E0
4.348461540E-1,2.207977057E0,7.159325123E0,6.026922226E0
4.372513100E-1,1.916052699E0,7.140182972E0,5.988636971E0
4.396564140E-1,1.680957913E0,7.149754047E0,5.916851997E0
4.420615180E-1,1.432104349E0,7.168896675E0,5.873781204E0
4.444666230E-1,1.183250785E0,7.188039303E0,5.854638577E0
4.468717790E-1,1.049252748E0,7.188039303E0,5.897709846E0
4.492768830E-1,8.817551732E-1,7.188039303E0,5.902495384E0
4.516819870E-1,6.759724021E-1,7.173682213E0,5.926423550E0
4.540870910E-1,5.898307562E-1,7.173682213E0,5.945566177E0
4.564922480E-1,4.983053207E-1,7.121040344E0,5.950351715E0
4.588973520E-1,4.600201547E-1,7.054041386E0,5.974279881E0
4.613024560E-1,4.360919297E-1,7.054041386E0,5.983851433E0
4.637075600E-1,4.456632137E-1,6.987041950E0,5.940780640E0
4.661127160E-1,5.413761139E-1,6.920042992E0,5.979065418E0
4.685178210E-1,6.137589812E-1,6.920042992E0,5.969494343E0
4.709229250E-1,7.381857634E-1,6.838686943E0,5.964708805E0
4.733280290E-1,9.008977413E-1,6.819544315E0,5.935994625E0
4.757331850E-1,1.092323542E0,6.695117950E0,5.926423550E0
4.781382890E-1,1.173679471E0,6.680760860E0,5.854638577E0
4.805433930E-1,1.274178028E0,6.709474564E0,5.897709846E0
4.829484980E-1,1.269392371E0,6.771687984E0,6.093921185E0
4.853536540E-1,1.322034478E0,6.805187702E0,6.238088608E0
4.877587580E-1,1.551745534E0,6.848258495E0,6.190232277E0
4.901638620E-1,1.647458434E0,6.934400082E0,6.228517532E0
4.925689660E-1,1.618744493E0,6.896114826E0,6.266802311E0
4.949741230E-1,1.590030670E0,6.862615108E0,6.319444656E0
4.973792270E-1,1.671386600E0,6.881757736E0,6.372086525E0
4.997843310E-1,1.719841242E0,6.910471916E0,6.477370739E0
5.021894350E-1,1.839482427E0,6.972685337E0,6.525227547E0
5.045945390E-1,1.939980984E0,7.025327206E0,6.515655994E0
5.069996960E-1,2.083550215E0,7.077969551E0,6.592226505E0
5.094048000E-1,2.265404940E0,7.116254330E0,6.644868374E0
5.118099040E-1,2.399402857E0,7.154539585E0,6.625725746E0
5.142150080E-1,2.696112871E0,7.235895634E0,6.553941250E0
5.166201640E-1,2.676970243E0,7.235895634E0,6.678368092E0
5.190252680E-1,2.538186550E0,7.250252724E0,6.788437843E0
5.214303730E-1,2.308475733E0,7.207181931E0,6.831508636E0
5.238354770E-1,2.021337032E0,7.144968510E0,6.893722057E0
5.262406330E-1,1.743769526E0,7.101897717E0,6.936792850E0
5.286457370E-1,1.518245935E0,7.092326164E0,6.999006271E0
5.310508410E-1,1.097109199E0,6.943971157E0,7.089933395E0
5.334559460E-1,7.429714203E-1,6.814758778E0,7.142575741E0
5.358611020E-1,3.403790295E-1,6.699903488E0,7.223931789E0
5.382662060E-1,9.152546525E-2,6.671189308E0,7.262216568E0
5.406713100E-1,-7.118647546E-2,6.680760860E0,7.247859955E0
5.430764140E-1,-1.142572835E-1,6.637690067E0,7.223931789E0
5.454815710E-1,-1.477568001E-1,6.589833736E0,7.214360237E0
5.478866750E-1,-1.286142170E-1,6.570691109E0,7.238288403E0
5.502917790E-1,-9.032905847E-2,6.518048763E0,7.219145775E0
5.526968830E-1,-5.204389244E-2,6.427121639E0,7.046862602E0
5.551020390E-1,-2.811566554E-2,6.417550564E0,6.884150982E0
5.575071430E-1,2.452643216E-2,6.594619274E0,6.999006271E0
5.599122480E-1,1.872383654E-1,6.580262184E0,6.999006271E0
5.623173520E-1,2.973082066E-1,6.551548481E0,6.855436802E0
5.647225080E-1,2.638086975E-1,6.556334019E0,6.697510719E0
5.671276120E-1,2.494517565E-1,6.551548481E0,6.534798622E0
5.695327160E-1,3.690928817E-1,6.570691109E0,6.376872540E0
5.719378210E-1,4.935196638E-1,6.594619274E0,6.242874146E0
5.743429770E-1,5.994020700E-1,6.618547440E0,6.151348591E0
5.767480810E-1,7.956135273E-1,6.647261143E0,6.050850391E0
5.791531850E-1,1.049252748E0,6.728617191E0,5.945566177E0
5.815582890E-1,1.312463164E0,6.814758778E0,5.845067501E0
5.839633930E-1,1.599601984E0,6.872186661E0,5.720640659E0
5.863685500E-1,1.743769526E0,6.876972198E0,5.505286694E0
5.887736540E-1,1.882553220E0,6.943971157E0,5.328217983E0
5.911787580E-1,2.069193363E0,7.106683254E0,5.208576679E0
5.935838620E-1,2.265404940E0,7.202396393E0,5.112864017E0
5.959890180E-1,2.442473650E0,7.226324558E0,5.030909538E0
5.983941230E-1,2.538186550E0,7.313064098E0,4.892126083E0
6.007992270E-1,2.648256540E0,7.370491982E0,4.767699242E0
6.032043310E-1,2.753540754E0,7.413562775E0,4.671986103E0
6.056094870E-1,2.859423161E0,7.518846989E0,4.609772682E0
6.080145910E-1,2.897708178E0,7.581060410E0,4.552345276E0
6.104196960E-1,2.931207657E0,7.628916740E0,4.456632137E0
6.128248000E-1,2.955136061E0,7.734200954E0,4.437489510E0
6.152299560E-1,3.017349243E0,7.748558044E0,4.413561344E0
6.176350600E-1,2.993421078E0,7.805985451E0,4.303491592E0
6.200401640E-1,3.026920557E0,7.820342541E0,4.260420799E0
6.224452680E-1,3.002992392E0,7.853842258E0,4.207778454E0
6.248504250E-1,2.964707375E0,7.877770424E0,4.169493675E0
6.272555290E-1,3.012563705E0,7.968697548E0,4.169493675E0
6.296606330E-1,3.017349243E0,7.959126472E0,4.102494240E0
6.320657370E-1,3.007778168E0,8.011768341E0,4.112065792E0
6.344708930E-1,3.012563705E0,8.035696983E0,4.121636868E0
6.368759980E-1,2.969492912E0,8.059624672E0,4.107280254E0
6.392811020E-1,2.864208698E0,8.107481003E0,4.121636868E0
6.416862060E-1,2.672184706E0,8.054839134E0,4.140779495E0
6.440913620E-1,2.499901533E0,8.035696983E0,4.131208420E0
6.464964660E-1,2.361117840E0,7.978269100E0,4.179064751E0
6.489015710E-1,2.236690998E0,7.901698589E0,4.217350006E0
6.513066750E-1,2.117049932E0,7.801199913E0,4.279563427E0
6.537118310E-1,2.078764677E0,7.753343582E0,4.389633179E0
6.561169350E-1,2.064407825E0,7.671987534E0,4.518845558E0
6.585220390E-1,2.093121529E0,7.585845947E0,4.600201607E0
6.609271430E-1,2.112264156E0,7.456633568E0,4.695914268E0
6.633322480E-1,2.145763636E0,7.375277519E0,4.772484779E0
6.657374040E-1,2.140978098E0,7.293323517E0,4.844269276E0
6.681425080E-1,2.184048891E0,7.211967468E0,4.901697159E0
6.705476120E-1,2.332403898E0,7.173682213E0,5.026124001E0
6.729527160E-1,2.442473650E0,7.149754047E0,5.132006168E0
6.753578730E-1,2.552543640E0,7.116254330E0,5.141577721E0
6.777629770E-1,2.571686029E0,7.164111137E0,5.170291424E0
6.801680810E-1,2.609971285E0,7.192824841E0,5.227719307E0
6.825731850E-1,2.691327333E0,7.308278561E0,5.222933769E0
6.849783410E-1,2.787040234E0,7.408777237E0,5.155934811E0
6.873834460E-1,2.979064226E0,7.681559086E0,5.098506927E0
6.897885500E-1,3.266202927E0,7.987840176E0,5.093721390E0
6.921936540E-1,3.314059258E0,8.184051514E0,5.060221672E0
6.945988100E-1,3.223132133E0,8.370692253E0,5.074578762E0
6.970039140E-1,3.117847919E0,8.538787842E0,5.079364300E0
6.994090180E-1,2.772683144E0,8.591429710E0,5.146363258E0
7.018141230E-1,2.452044964E0,8.624929428E0,5.203791142E0
7.042192790E-1,2.102692842E0,8.601000786E0,5.275575638E0
7.066243830E-1,1.767697692E0,8.629714966E0,5.385645390E0
7.090294870E-1,1.494317770E0,8.601000786E0,5.519643784E0
7.114345910E-1,1.283749342E0,8.519644737E0,5.648856163E0
7.138397480E-1,1.168893814E0,8.490931511E0,5.730212212E0
7.162448520E-1,1.140179992E0,8.467002869E0,5.873781204E0
7.186499560E-1,1.125823021E0,8.471788406E0,5.988636971E0
7.210550600E-1,1.159322619E0,8.399405479E0,6.022136211E0
7.234602160E-1,1.221535921E0,8.419146538E0,5.998208046E0
7.258653210E-1,1.298106313E0,8.322834969E0,5.950351715E0
7.282704250E-1,1.546959877E0,8.308478355E0,5.849853039E0
7.306755290E-1,1.791625977E0,8.322834969E0,5.758925915E0
7.330806850E-1,2.073979139E0,8.337192535E0,5.629713535E0
7.354857890E-1,2.456830740E0,8.303692818E0,5.433502197E0
7.378908930E-1,2.926422119E0,8.308478355E0,5.222933769E0
7.402959980E-1,3.457628727E0,8.294121742E0,4.959125042E0
7.427011540E-1,4.061218262E0,8.279764175E0,4.700700283E0
7.451062580E-1,4.621138573E0,8.231907845E0,4.418346882E0
7.475113620E-1,5.095515728E0,8.207980156E0,4.112065792E0
7.499164660E-1,5.468796253E0,8.164909363E0,3.872185230E0
7.523215710E-1,5.779862881E0,8.188837051E0,3.661616802E0
7.547267270E-1,6.014359951E0,8.203194618E0,3.403192043E0
7.571318310E-1,6.043073654E0,8.236693382E0,3.206980467E0
7.595369350E-1,6.062216282E0,8.246265411E0,3.106482029E0
7.619420910E-1,6.000002861E0,8.294121742E0,3.068196774E0
7.643471960E-1,5.899504185E0,8.385048866E0,3.130410194E0
7.667523000E-1,5.794219971E0,8.557929993E0,3.350549936E0
7.691574040E-1,5.708078384E0,8.658429146E0,3.570689678E0
7.715625080E-1,5.507081509E0,8.725427628E0,3.594617844E0
7.739676640E-1,5.267798901E0,8.773283958E0,3.551547050E0
7.763727680E-1,5.071587563E0,8.816354752E0,3.537189960E0
7.787778730E-1,4.889134884E0,8.816354752E0,3.503690481E0
7.811829770E-1,4.783850670E0,8.816354752E0,3.575475216E0
7.835881330E-1,4.530211449E0,8.830712318E0,3.738187075E0
7.859932370E-1,4.314857483E0,8.816354752E0,3.881756544E0
7.883983410E-1,4.022933006E0,8.758927345E0,3.968496323E0
7.908034460E-1,3.811766386E0,8.739784241E0,4.030709743E0
7.932086020E-1,3.687339783E0,8.691927910E0,4.025924206E0
7.956137060E-1,3.596412420E0,8.668000221E0,4.030709743E0
7.980188100E-1,3.448057413E0,8.663214684E0,4.088137627E0
8.004239660E-1,3.361915827E0,8.601000786E0,4.083351612E0
8.028290710E-1,3.256631613E0,8.538787842E0,4.121636868E0
8.052341750E-1,3.136990547E0,8.495717049E0,4.126422882E0
8.076392790E-1,3.065205812E0,8.443074226E0,4.073780537E0
8.100444350E-1,2.921636343E0,8.356334686E0,4.068994999E0
8.124495390E-1,2.748754978E0,8.279764175E0,3.992424488E0
8.148546430E-1,2.586043119E0,8.284550667E0,3.843471289E0
8.172597480E-1,1.968694806E0,8.419146538E0,1.866401672E0
8.196649040E-1,1.594816327E0,8.553144455E0,-3.409772217E-1
8.220700080E-1,1.796411633E0,8.519644737E0,-7.435696125E-1
8.244751120E-1,2.298904419E0,8.375477791E0,-3.840480447E-1
8.268802160E-1,2.926422119E0,8.212765694E0,2.524427772E-1
8.292853730E-1,3.376272678E0,8.054839134E0,8.991031051E-1
8.316904770E-1,3.811766386E0,7.877770424E0,1.435095429E0
8.340955810E-1,4.032504559E0,7.748558044E0,1.818545222E0
8.365006850E-1,4.113860130E0,7.628916740E0,2.062613010E0
8.389058410E-1,4.214358807E0,7.576274872E0,2.187039852E0
8.413109460E-1,4.271786690E0,7.547560692E0,2.215753794E0
8.437160500E-1,4.128217220E0,7.552346706E0,2.435893536E0
8.461211540E-1,3.994219303E0,7.600203037E0,2.718246460E0
8.485262580E-1,3.917050600E0,7.590631485E0,2.915056229E0
8.509314140E-1,3.854837179E0,7.686344624E0,2.934198856E0
8.533365180E-1,3.773481369E0,7.734200954E0,3.044268608E0
8.557416230E-1,3.696911097E0,7.762914658E0,3.015554667E0
8.581467790E-1,3.625126362E0,7.791628838E0,3.106482029E0
8.605518830E-1,3.486342669E0,7.834699631E0,3.144767046E0
8.629569870E-1,3.400201082E0,7.872984886E0,3.178266764E0
8.653620910E-1,3.428914785E0,7.834699631E0,3.144767046E0
8.677672480E-1,3.462414265E0,7.872984886E0,3.168695450E0
8.701723520E-1,3.759124279E0,7.829914093E0,3.297907829E0
8.725774560E-1,3.951148272E0,7.901698589E0,3.494119167E0
8.749825600E-1,4.223930359E0,8.093124390E0,3.680759430E0
8.773876640E-1,4.156930923E0,8.131409645E0,3.905684710E0
8.797928210E-1,4.109074593E0,8.327621460E0,4.332205296E0
8.821979250E-1,4.214358807E0,8.457431793E0,4.719842434E0
8.846030290E-1,4.444069862E0,8.534002304E0,5.045266628E0
8.870081850E-1,4.788636208E0,8.572287560E0,5.074578762E0
8.894132890E-1,5.109872818E0,8.519644737E0,5.050052166E0
8.918183930E-1,5.296513081E0,8.452646255E0,4.992624283E0
8.942234980E-1,5.617151260E0,8.356334686E0,4.691128731E0
8.966286540E-1,5.674578667E0,8.289336205E0,4.346562386E0
8.990337580E-1,5.660222054E0,8.188837051E0,4.049852371E0
9.014388620E-1,5.688935757E0,8.155337334E0,3.867399693E0
9.038439660E-1,5.617151260E0,8.217551231E0,3.771686792E0
9.062491230E-1,5.526223660E0,8.313263893E0,3.680759430E0
9.086542270E-1,5.492724419E0,8.351549149E0,3.714258909E0
9.110593310E-1,5.507081509E0,8.337192535E0,3.680759430E0
9.134644350E-1,5.492724419E0,8.341978073E0,3.489333630E0
9.158695910E-1,5.535795212E0,8.380263329E0,3.379263878E0
9.182746960E-1,5.511867046E0,8.375477791E0,3.374478102E0
9.206798000E-1,5.535795212E0,8.370692253E0,3.326621771E0
9.230849040E-1,5.507081509E0,8.380263329E0,3.312264681E0
9.254900600E-1,5.483152866E0,8.327621460E0,3.211766243E0
9.278951640E-1,5.593223095E0,8.251050949E0,2.891128063E0
9.303002680E-1,5.660222054E0,8.212765694E0,2.718246460E0
9.327054250E-1,5.583651543E0,8.164909363E0,2.770888567E0
9.351105290E-1,5.665007591E0,8.054839134E0,2.723032236E0
9.375156330E-1,5.660222054E0,7.935198307E0,2.646461725E0
9.399207370E-1,5.612365723E0,7.820342541E0,2.780459881E0
9.423258930E-1,5.607579708E0,7.820342541E0,2.982055187E0
9.447309980E-1,5.459224701E0,7.681559086E0,3.015554667E0
9.471361020E-1,5.363512039E0,7.719843864E0,3.278765202E0
9.495412060E-1,5.267798901E0,7.748558044E0,3.422334671E0
9.519463100E-1,5.200799942E0,7.719843864E0,3.455834150E0
9.543514660E-1,5.243870735E0,7.691130161E0,3.513261795E0
9.567565710E-1,5.349154949E0,7.628916740E0,3.503690481E0
9.591616750E-1,5.454439163E0,7.542775154E0,3.403192043E0
9.615668310E-1,5.545366287E0,7.504489899E0,3.111267567E0
9.639719350E-1,5.612365723E0,7.408777237E0,2.824128866E0
9.663770390E-1,5.588437080E0,7.437490940E0,2.699103832E0
9.687821430E-1,5.574080467E0,7.470990658E0,2.565105915E0
9.711873000E-1,5.521438122E0,7.576274872E0,2.526820660E0
9.735924040E-1,5.507081509E0,7.671987534E0,2.550748825E0
9.759975080E-1,5.516652584E0,7.738986492E0,2.651247501E0
9.784026120E-1,5.464010715E0,7.782057285E0,2.804388046E0
9.808077680E-1,5.531009674E0,7.858627796E0,3.020340443E0
9.832128730E-1,5.545366287E0,7.825128078E0,3.092125177E0
9.856179770E-1,5.569294930E0,7.896913052E0,3.374478102E0
9.880230810E-1,5.645864964E0,7.935198307E0,3.637688637E0
9.904282370E-1,5.775077343E0,7.925626755E0,4.025924206E0
9.928333410E-1,5.937789440E0,7.925626755E0,4.332205296E0
9.952384460E-1,5.995217323E0,7.983054638E0,4.561916351E0
9.976435500E-1,5.990431309E0,8.083553314E0,5.030909538E0
1.000048706E0,6.177670002E0,8.150551796E0,5.347360611E0
1.002453810E0,6.114858150E0,8.145766258E0,5.371288776E0
1.004858914E0,5.913861275E0,8.030911446E0,5.108078003E0
1.007264071E0,5.794219971E0,7.987840176E0,4.810770035E0
1.009669175E0,5.665007591E0,7.901698589E0,4.461417675E0
1.012074279E0,5.612365723E0,7.796414375E0,4.265206337E0
1.014479383E0,5.641079426E0,7.748558044E0,4.140779495E0
1.016884539E0,5.770291805E0,7.748558044E0,3.997210264E0
1.019289643E0,5.928217888E0,7.801199913E0,3.910470486E0
1.021694748E0,6.110072613E0,7.959126472E0,3.762115479E0
1.024099852E0,6.249454498E0,8.093124390E0,3.632902861E0
1.026505008E0,6.345167637E0,8.241478920E0,3.427120209E0
1.028910112E0,6.426523209E0,8.428717613E0,3.216551781E0
1.031315216E0,6.349953175E0,8.572287560E0,3.058625460E0
1.033720321E0,6.306882381E0,8.711071014E0,2.977269650E0
1.036125477E0,6.326025009E0,8.782855988E0,2.867199659E0
1.038530581E0,6.373881340E0,8.868997574E0,2.732603550E0
1.040935685E0,6.412166595E0,8.907281876E0,2.656033039E0
1.043340841E0,6.474380016E0,8.974281311E0,2.584248543E0
1.045745946E0,6.440880299E0,8.964710236E0,2.584248543E0
1.048151050E0,6.335596085E0,9.074779510E0,2.622533560E0
1.050556154E0,5.909075737E0,9.467203140E0,2.440679073E0
1.052961310E0,6.067001820E0,9.481559753E0,2.603390932E0
1.055366414E0,6.220740795E0,9.385847092E0,2.689532757E0
1.057771518E0,6.335596085E0,9.280562401E0,2.589034081E0
1.060176623E0,6.407381058E0,9.208778381E0,2.325823545E0
1.062581779E0,6.493522644E0,9.103493690E0,2.321038008E0
1.064986883E0,6.450451851E0,9.022137642E0,2.488535643E0
1.067391987E0,6.302096844E0,8.945567131E0,2.689532757E0
1.069797091E0,6.062216282E0,8.825926781E0,2.679961443E0
1.072202248E0,6.023931026E0,8.691927910E0,2.775674343E0
1.074607352E0,6.095715523E0,8.663214684E0,2.838485956E0
1.077012456E0,6.014359951E0,8.639286041E0,2.746960402E0
1.079417560E0,5.856433392E0,8.615358353E0,2.536391973E0
1.081822716E0,5.866004944E0,8.605786324E0,2.445464849E0
1.084227821E0,5.899504185E0,8.601000786E0,2.402393818E0
1.086632925E0,5.875576019E0,8.596215248E0,2.402393818E0
1.089038081E0,5.942574978E0,8.577073097E0,2.426322222E0
1.091443185E0,6.009573936E0,8.529216766E0,2.421536446E0
1.093848289E0,6.119643688E0,8.514859200E0,2.478964329E0
1.096253393E0,6.254240036E0,8.510073662E0,2.392822742E0
1.098658550E0,6.359524250E0,8.543573380E0,2.426322222E0
1.101063654E0,6.330810547E0,8.601000786E0,2.411965132E0
1.103468758E0,6.230311871E0,8.605786324E0,2.349751949E0
1.105873862E0,6.182455540E0,8.706285477E0,2.234896421E0
1.108279018E0,6.057430744E0,8.749356270E0,2.344966173E0
1.110684123E0,5.942574978E0,8.835497856E0,2.426322222E0
1.113089227E0,5.889933109E0,8.859425545E0,2.316252232E0
1.115494383E0,5.770291805E0,8.950352669E0,2.215753794E0
1.117899487E0,5.602794170E0,8.993423462E0,2.258824587E0
1.120304591E0,5.430510998E0,8.983852386E0,2.206182480E0
1.122709696E0,5.392225742E0,8.988637924E0,2.024327993E0
1.125114852E0,5.516652584E0,8.998209953E0,1.727617979E0
1.127519956E0,5.688935757E0,9.017352104E0,1.526022673E0
1.129925060E0,5.727221012E0,8.998209953E0,1.607378602E0
1.132330216E0,5.746363640E0,8.864211082E0,1.761117458E0
1.134735321E0,5.799005508E0,8.754141808E0,1.713261008E0
1.137140425E0,5.909075737E0,8.586644173E0,1.664806366E0
1.139545529E0,6.047859192E0,8.452646255E0,1.722832322E0
1.141950685E0,6.143572330E0,8.337192535E0,1.866401672E0
1.144355789E0,6.316453457E0,8.227122307E0,2.072184324E0
1.146760893E0,6.479165554E0,8.179265976E0,1.957328916E0
1.149165998E0,6.689733982E0,8.145766258E0,1.842473388E0
1.151571154E0,6.684948444E0,8.112266541E0,1.804188251E0
1.153976258E0,6.890730858E0,7.877770424E0,1.928615093E0
1.156381362E0,6.909873486E0,8.002197266E0,2.225325108E0
1.158786466E0,6.795018196E0,7.892127514E0,2.440679073E0
1.161191623E0,6.876374245E0,7.825128078E0,2.143969059E0
1.163596727E0,6.962515831E0,7.691130161E0,1.741974831E0
1.166001831E0,7.216155052E0,7.533204079E0,1.516451359E0
1.168406987E0,7.389036179E0,7.447062492E0,1.823330879E0
1.170812091E0,7.412964344E0,7.542775154E0,1.957328916E0
1.173217196E0,7.465606689E0,7.705487251E0,1.722832322E0
1.175622300E0,7.604390144E0,7.734200954E0,1.535593987E0
1.178027456E0,7.714460373E0,7.729415417E0,1.660020709E0
1.180432560E0,7.451249599E0,7.853842258E0,2.081755638E0
1.182837664E0,7.072585583E0,8.107481003E0,2.005185366E0
1.185242768E0,6.512664795E0,8.332406998E0,1.875972986E0
1.187647925E0,5.904289722E0,8.605786324E0,1.770688772E0
1.190053029E0,5.435296535E0,8.754141808E0,2.024327993E0
1.192458133E0,4.941776752E0,9.122636795E0,2.172683001E0
1.194863289E0,4.788636208E0,9.448060036E0,1.732403636E0
1.197268393E0,4.831707001E0,9.635298729E0,1.243669510E0
1.199673498E0,4.989633560E0,9.678369522E0,9.373882413E-1
1.202078602E0,5.229514122E0,9.664012909E0,8.656035662E-1
1.204483758E0,5.473581791E0,9.726225853E0,1.128814101E0
1.206888862E0,5.746363640E0,9.731011391E0,1.214955688E0
1.209293966E0,6.211169243E0,9.664012909E0,1.171884894E0
1.211699123E0,6.728019238E0,9.544371605E0,1.095314622E0
1.214104227E0,7.144370079E0,9.428917885E0,1.114457130E0
1.216509331E0,7.460821152E0,9.270991325E0,1.238883972E0
1.218914435E0,7.714460373E0,9.175278664E0,1.435095429E0
1.221319591E0,7.901100159E0,9.031708717E0,1.583450437E0
1.223724696E0,8.054241180E0,8.945567131E0,1.669592023E0
1.226129800E0,8.140382767E0,8.888139725E0,1.703689694E0
1.228534956E0,8.106883049E0,8.878568649E0,1.674377680E0
1.230940060E0,8.039883614E0,8.859425545E0,1.607378602E0
1.233345164E0,7.901100159E0,8.825926781E0,1.425524116E0
1.235750268E0,7.838887215E0,8.797212601E0,1.234098315E0
1.238155425E0,7.925028801E0,8.744570732E0,1.267597795E0
1.240560529E0,7.800601959E0,8.845068932E0,1.243669510E0
1.242965633E0,7.757531166E0,8.902496338E0,9.326026440E-1
1.245370789E0,7.814958572E0,8.935996056E0,6.598208547E-1
1.247775893E0,7.901100159E0,8.859425545E0,5.832505226E-1
1.250180998E0,7.939385414E0,8.825926781E0,6.358926296E-1
1.252586102E0,7.862815380E0,8.749356270E0,7.651050687E-1
1.254991258E0,7.953742504E0,8.668000221E0,7.938188910E-1
1.257396362E0,8.044670105E0,8.591429710E0,8.033902049E-1
1.259801466E0,8.078168869E0,8.486145973E0,7.459624410E-1
1.262206571E0,8.135597229E0,8.447860718E0,6.693921089E-1
1.264611727E0,8.178668022E0,8.313263893E0,5.784648657E-1
1.267016831E0,8.255238533E0,8.160123825E0,4.247260094E-1
1.269421935E0,8.317451477E0,7.983054638E0,3.864408433E-1
1.271827091E0,8.384450912E0,7.791628838E0,3.337987661E-1
1.274232196E0,8.447261810E0,7.628916740E0,3.481557071E-1
1.276637300E0,8.499904633E0,7.514061451E0,3.433700502E-1
1.279042456E0,8.447261810E0,7.341778278E0,2.428714931E-1
1.281447560E0,8.370093346E0,7.255038261E0,2.237289101E-1
1.283852664E0,8.288737297E0,7.130611420E0,2.380858511E-1
1.286257768E0,8.126026154E0,7.030112743E0,3.768695593E-1
1.288662925E0,8.025527000E0,7.054041386E0,3.002992272E-1
1.291068029E0,7.881958008E0,7.106683254E0,1.088734269E-1
1.293473133E0,7.738388538E0,7.188039303E0,-5.862415582E-2
1.295878237E0,7.613961697E0,7.183253765E0,-1.256231815E-1
1.298283393E0,7.513463020E0,7.154539585E0,-1.830509305E-1
1.300688498E0,7.604390144E0,7.068397999E0,-1.591227055E-1
1.303093602E0,7.590033531E0,7.006184578E0,1.794617064E-2
1.305498758E0,7.551748276E0,6.963113785E0,1.998006850E-1
1.307903862E0,7.556533813E0,6.939185619E0,1.519442350E-1
1.310308966E0,7.633104324E0,6.905686378E0,3.589233849E-3
1.312714123E0,7.810173035E0,6.833901405E0,-1.734796464E-1
1.315119227E0,8.059026718E0,6.733402729E0,-2.787638307E-1
1.317524331E0,8.274380684E0,6.656832695E0,-2.069791555E-1
1.319929435E0,8.360522270E0,6.613761902E0,1.710868180E-1
1.322334591E0,8.370093346E0,6.594619274E0,2.237289101E-1
1.324739696E0,8.519046783E0,6.465406895E0,1.471585929E-1
1.327144800E0,8.648259163E0,6.384050846E0,7.058826834E-2
1.329549904E0,8.743971825E0,6.302694798E0,5.623133108E-2
1.331955060E0,8.796614647E0,6.221338749E0,9.930214286E-2
1.334360164E0,8.777471542E0,6.081956863E0,2.141576260E-1
1.336765268E0,8.810971260E0,6.005386829E0,5.060819983E-1
1.339170425E0,8.724829674E0,5.885745525E0,5.539384484E-1
1.341575529E0,8.801400185E0,5.708676815E0,4.869394004E-1
1.343980633E0,9.040681839E0,5.526822090E0,2.859423161E-1
1.346385737E0,9.337391853E0,5.301896572E0,2.620140910E-1
1.348790893E0,9.351749420E0,5.153541565E0,4.055834413E-1
1.351195998E0,9.399605751E0,5.225326538E0,2.285145670E-1
1.353601102E0,9.437891006E0,5.139184952E0,-1.543370634E-1
1.356006258E0,9.591629982E0,5.081757069E0,-3.314059377E-1
1.358411362E0,9.821340561E0,4.985445976E0,-9.212367237E-2
1.360816466E0,9.466604233E0,5.100899696E0,2.189432681E-1
1.363221571E0,9.275178909E0,5.359324455E0,7.537391037E-2
1.365626727E0,9.031110764E0,5.541179180E0,-3.314059377E-1
1.368031831E0,9.011968613E0,5.699105263E0,-5.036891699E-1
1.370436935E0,8.954540253E0,5.857031822E0,-1.304088384E-1
1.372842091E0,8.216953278E0,6.245266914E0,-2.991028316E-2
1.375247196E0,7.762316704E0,6.556334019E0,-3.984049559E-1
1.377652300E0,7.369893551E0,6.809973240E0,-7.579265833E-1
1.380057456E0,7.149155617E0,7.006184578E0,-9.062815905E-1
1.382462560E0,6.775875568E0,7.135396957E0,-8.201399446E-1
1.384867664E0,6.369095802E0,7.264609337E0,-8.392825127E-1
1.387272768E0,6.071787357E0,7.332206726E0,-9.493523836E-1
1.389677925E0,5.885147095E0,7.327421188E0,-1.174277663E0
1.392083029E0,5.909075737E0,7.211967468E0,-1.523629785E0
1.394488133E0,5.822933674E0,7.173682213E0,-1.547558069E0
1.396893289E0,5.794219971E0,7.135396957E0,-1.384846091E0
1.399298393E0,5.956932068E0,7.054041386E0,-1.207777262E0
1.401703498E0,6.043073654E0,6.934400082E0,-1.083350420E0
1.404108654E0,6.220740795E0,6.790830612E0,-1.255633712E0
1.406513758E0,6.479165554E0,6.580262184E0,-1.427916884E0
1.408918862E0,6.603592396E0,6.422336102E0,-1.356132269E0
1.411323966E0,6.661019802E0,6.283552170E0,-1.327418327E0
1.413729123E0,6.804589272E0,6.144170284E0,-1.494915962E0
1.416134227E0,6.967301369E0,6.067600250E0,-1.585843205E0
1.418539331E0,6.957729816E0,5.991029739E0,-1.609771490E0
1.420944487E0,6.948158741E0,5.914459229E0,-1.547558069E0
1.423349591E0,6.976872444E0,5.813961029E0,-1.427916884E0
1.425754696E0,7.048657417E0,5.742176056E0,-1.284347534E0
1.428159800E0,7.110870838E0,5.723033428E0,-1.212562919E0
1.430564956E0,7.086942673E0,5.641677380E0,-1.265205026E0
1.432970060E0,7.082156658E0,5.545964718E0,-1.423131227E0
1.435375164E0,7.163512707E0,5.488536835E0,-1.585843205E0
1.437780321E0,7.283154011E0,5.498108387E0,-1.686939955E0
1.440185425E0,7.283154011E0,5.464608669E0,-1.662413478E0
1.442590529E0,7.182655334E0,5.455037594E0,-1.571486235E0
1.444995685E0,6.981658459E0,5.517251015E0,-1.447059512E0
1.447400789E0,6.747161865E0,5.608178139E0,-1.432702541E0
1.449805893E0,6.517450809E0,5.737390518E0,-1.456630826E0
1.452210998E0,6.316453457E0,5.957530022E0,-1.485344648E0
1.454616154E0,6.081358910E0,6.197410583E0,-1.547558069E0
1.457021258E0,5.822933674E0,6.427121639E0,-1.614557028E0
1.459426362E0,5.583651543E0,6.719046116E0,-1.652842283E0
1.461831518E0,5.344369411E0,6.982256413E0,-1.624128342E0
1.464236623E0,5.023132801E0,7.240681171E0,-1.652842283E0
1.466641727E0,4.731208801E0,7.490133286E0,-1.686939955E0
1.469046883E0,4.578067780E0,7.758129120E0,-1.696511269E0
1.471451987E0,4.539782524E0,7.968697548E0,-1.739582062E0
1.473857091E0,4.415356159E0,8.169694901E0,-1.892722726E0
1.476262196E0,4.271786690E0,8.423932076E0,-1.916650891E0
1.478667352E0,4.123431683E0,8.581858635E0,-2.041077614E0
1.481072456E0,4.042075634E0,8.715856552E0,-2.179861546E0
1.483477560E0,3.960719585E0,8.811569214E0,-2.194218397E0
1.485882716E0,3.893122435E0,8.931210518E0,-2.299502611E0
1.488287821E0,3.907479286E0,8.993423462E0,-2.395215511E0
1.490692925E0,3.921836376E0,8.998209953E0,-2.481357098E0
1.493098081E0,3.965505362E0,8.935996056E0,-2.581855536E0
1.495503185E0,4.027718544E0,8.892925262E0,-2.687139750E0
1.497908289E0,4.123431683E0,8.878568649E0,-2.691925526E0
1.500313393E0,4.200001717E0,8.845068932E0,-2.663211584E0
1.502718550E0,4.219144344E0,9.022137642E0,-2.476571321E0
1.505123654E0,4.367499352E0,9.266205788E0,-2.108076811E0
1.507528758E0,4.511068821E0,9.400203705E0,-1.950150490E0
1.509933914E0,4.697709084E0,9.443274498E0,-2.419143677E0
1.512339018E0,4.927420139E0,9.285347939E0,-3.443870068E0
1.514744123E0,5.253442287E0,9.194420815E0,-4.521238327E0
1.517149279E0,5.358726501E0,9.218349457E0,-4.937589645E0
1.519554383E0,5.181657314E0,9.275776863E0,-4.602594376E0
1.521959487E0,4.980062008E0,9.247062683E0,-4.090530396E0
1.524364643E0,4.893920422E0,9.232706070E0,-3.865006685E0
1.526769748E0,5.023132801E0,9.103493690E0,-4.258028030E0
1.529174852E0,4.965705395E0,9.069993973E0,-4.406383038E0
1.531579956E0,4.759922504E0,9.017352104E0,-4.727021217E0
1.533985112E0,4.573282242E0,8.993423462E0,-4.750949383E0
1.536390216E0,4.530211449E0,8.998209953E0,-4.770092010E0
1.538795321E0,4.391427994E0,8.950352669E0,-4.674378872E0
1.541200477E0,4.324428558E0,8.840283394E0,-4.645665169E0
1.543605581E0,4.372285366E0,8.825926781E0,-4.593023300E0
1.546010685E0,4.410570145E0,8.773283958E0,-4.554738045E0
1.548415841E0,4.334000111E0,8.634500504E0,-4.415954113E0
1.550820946E0,4.487140656E0,8.586644173E0,-4.502095699E0
1.553226050E0,4.688137531E0,8.495717049E0,-4.559523582E0
1.555631154E0,4.673780918E0,8.510073662E0,-4.459024906E0
1.558036310E0,4.573282242E0,8.648857117E0,-4.478167534E0
1.560441414E0,4.286143780E0,8.888139725E0,-4.636094093E0
1.562846518E0,4.032504559E0,8.916853905E0,-4.597808838E0
1.565251675E0,3.653840065E0,8.864211082E0,-4.645665169E0
1.567656779E0,3.270988464E0,8.754141808E0,-4.727021217E0
1.570061883E0,2.998206854E0,8.524430275E0,-4.817948341E0
1.572467039E0,3.050848961E0,8.610571861E0,-5.206183910E0
1.574872143E0,3.012563705E0,8.629714966E0,-5.239683151E0
1.577277248E0,2.720041037E0,8.471788406E0,-5.143970490E0
1.579682404E0,2.514258385E0,8.222336769E0,-4.942375183E0
1.582087508E0,2.528615236E0,7.896913052E0,-4.794020176E0
1.584492612E0,2.845066071E0,7.576274872E0,-4.707878590E0
1.586897768E0,3.031706333E0,7.394420147E0,-4.616951466E0
1.589302873E0,3.294916868E0,7.288537979E0,-4.540380955E0
1.591707977E0,3.538984776E0,7.130611420E0,-4.712664127E0
1.594113081E0,3.907479286E0,6.910471916E0,-4.760520458E0
1.596518237E0,4.180859566E0,6.613761902E0,-4.521238327E0
1.598923341E0,4.477569580E0,6.589833736E0,-4.478167534E0
1.601328446E0,4.908277512E0,6.608976364E0,-4.674378872E0
1.603733602E0,5.263013363E0,6.527620316E0,-4.813162804E0
1.606138706E0,5.717649937E0,6.374479294E0,-4.549952030E0
1.608543810E0,6.000002861E0,6.254838467E0,-4.392025948E0
1.610948966E0,6.038288116E0,6.148955822E0,-4.463810444E0
1.613354071E0,6.009573936E0,6.091528416E0,-4.473381996E0
1.615759175E0,5.947360516E0,5.952744484E0,-4.526023865E0
1.618164331E0,5.645864964E0,5.861817360E0,-4.368097782E0
1.620569435E0,5.612365723E0,5.790032387E0,-4.363312244E0
1.622974539E0,5.827719688E0,5.684748173E0,-4.238885403E0
1.625379643E0,5.794219971E0,5.522036552E0,-3.826721668E0
1.627784800E0,6.220740795E0,5.780461311E0,-4.406383038E0
1.630189904E0,6.393023968E0,5.876173973E0,-4.822733879E0
1.632595060E0,6.684948444E0,5.947958946E0,-5.028516769E0
1.635000164E0,6.488736629E0,6.062814236E0,-4.985445976E0
1.637405268E0,6.555736065E0,6.245266914E0,-4.707878590E0
1.639810373E0,6.364310265E0,6.202196121E0,-4.454239368E0
1.642215529E0,6.378666878E0,6.000600815E0,-4.473381996E0
1.644620633E0,6.028716564E0,5.924030781E0,-4.468596458E0
1.647025737E0,5.818148136E0,5.766104221E0,-4.597808838E0
1.649430893E0,5.679364681E0,5.450251579E0,-5.067399979E0
1.651835998E0,5.660222054E0,5.201398373E0,-5.837889194E0
1.654241102E0,5.693721294E0,4.947160721E0,-6.441478729E0
1.656646258E0,5.693721294E0,4.731806755E0,-7.164111137E0
1.659051362E0,5.827719688E0,4.535595417E0,-7.106683254E0
1.661456466E0,5.913861275E0,4.339384079E0,-6.661618233E0
1.663861571E0,5.942574978E0,4.214957237E0,-6.202196121E0
1.666266727E0,5.899504185E0,4.210171223E0,-5.684748173E0
1.668671831E0,5.799005508E0,4.205385685E0,-5.301896572E0
1.671076935E0,5.703292847E0,4.248456478E0,-5.086542606E0
1.673482091E0,5.411368370E0,4.234099865E0,-4.899304390E0
1.675887196E0,5.181657314E0,4.210171223E0,-4.794020176E0
1.678292300E0,4.965705395E0,4.085744858E0,-4.803591251E0
1.680697456E0,4.783850670E0,3.912863255E0,-4.913661480E0
1.683102560E0,4.755136967E0,3.774079561E0,-4.956732273E0
1.685507664E0,4.434498787E0,3.606581926E0,-4.870590687E0
1.687912821E0,3.989433527E0,3.386442184E0,-4.937589645E0
1.690317925E0,3.615555048E0,3.271586657E0,-5.018945694E0
1.692723029E0,3.524627686E0,3.161516905E0,-5.081757069E0
1.695128185E0,3.323630571E0,3.099303484E0,-5.148756027E0
1.697533289E0,3.065205812E0,3.104089260E0,-5.254040241E0
1.699938393E0,2.931207657E0,3.118446112E0,-5.292325497E0
1.702343550E0,2.950350285E0,3.218944550E0,-5.321039200E0
1.704748654E0,2.868994236E0,3.357728481E0,-5.273182869E0
1.707153758E0,2.705684185E0,3.477369547E0,-5.215754986E0
1.709558914E0,2.552543640E0,3.606581926E0,-5.076971531E0
1.711964018E0,2.346760750E0,3.740580082E0,-5.086542606E0
1.714369123E0,2.375474691E0,3.884149313E0,-5.177470207E0
1.716774279E0,2.442473650E0,3.970889091E0,-5.172684193E0
1.719179383E0,2.552543640E0,4.033102512E0,-5.086542606E0
1.721584487E0,2.734398127E0,4.080958843E0,-4.947160721E0
1.723989591E0,3.026920557E0,4.018745422E0,-4.774877548E0
1.726394748E0,3.395415306E0,3.908077478E0,-4.640879631E0
1.728799852E0,3.596412420E0,3.711866140E0,-4.420739651E0
1.731205008E0,3.567698479E0,3.329014540E0,-4.325026989E0
1.733610112E0,3.203989506E0,2.855235577E0,-4.449453831E0
1.736015216E0,2.816352367E0,2.356930256E0,-4.774877548E0
1.738420321E0,2.394617319E0,1.883151412E0,-5.191826820E0
1.740825477E0,2.308475733E0,1.437488198E0,-5.459823132E0
1.743230581E0,2.672184706E0,9.780662656E-1,-5.660820007E0
1.745635685E0,3.275774240E0,6.239284873E-1,-5.761318684E0
1.748040841E0,4.640281200E0,2.261217386E-1,-5.531607628E0
1.750445946E0,6.119643688E0,1.196411322E-3,-5.220541000E0
1.752851050E0,7.379465103E0,-7.537391037E-2,-4.956732273E0
1.755256206E0,8.317451477E0,1.076770201E-2,-4.789234638E0
1.757661310E0,8.968897820E0,2.452643216E-1,-4.683950424E0
1.760066414E0,9.452247620E0,5.515456200E-1,-4.559523582E0
1.762471571E0,9.711270332E0,1.006780148E0,-4.396811485E0
1.764876675E0,9.716055870E0,1.250848055E0,-4.353740692E0
1.767281779E0,9.543772697E0,1.356132269E0,-4.315455437E0
1.769686935E0,9.332606316E0,1.466202021E0,-4.234099865E0
1.772092039E0,9.174679756E0,1.514058471E0,-4.138386726E0
1.774497143E0,8.911469460E0,1.408774376E0,-4.037888050E0
1.776902300E0,8.447261810E0,1.016351461E0,-3.951746702E0
1.779307404E0,8.461619377E0,1.001994491E0,-4.013959885E0
1.781712508E0,8.475975990E0,1.145563841E0,-4.042674065E0
1.784117664E0,8.456833839E0,1.241276741E0,-4.100101471E0
1.786522768E0,8.657830238E0,1.485344648E0,-4.406383038E0
1.788927873E0,8.629117012E0,1.595414519E0,-4.411168575E0
1.791333029E0,8.509475708E0,1.451845169E0,-4.066602230E0
1.793738133E0,8.398807526E0,1.317847013E0,-3.405584812E0
1.796143237E0,8.317451477E0,1.078564763E0,-2.648854733E0
1.798548393E0,9.639486313E0,4.989035130E-1,-2.203789711E0
1.800953498E0,1.463809299E1,-8.973085135E-2,-3.041875839E0
1.803358602E0,2.236152649E1,-3.529413342E-1,-4.607379913E0
1.805763758E0,2.105444717E1,-5.539384484E-1,-3.774079561E0
1.808168862E0,1.513579941E1,-2.141576260E-1,-2.079362869E0
1.810573966E0,1.474337673E1,7.052844763E-1,-2.653640270E0
1.812979123E0,1.581117344E1,1.470987678E0,-3.702294827E0
1.815384227E0,1.419781303E1,1.902294040E0,-3.429512978E0
1.817789331E0,1.199522018E1,1.998006940E0,-2.352144718E0
1.820194487E0,1.133420277E1,1.782652855E0,-1.413560033E0
1.822599591E0,1.182293701E1,1.744367719E0,-1.518844128E0
1.825004696E0,1.204307652E1,1.749153376E0,-2.165504456E0
1.827409852E0,1.138684464E1,1.763510346E0,-2.462214470E0
1.829814956E0,1.041954613E1,1.849651933E0,-1.859223247E0
1.832220060E0,9.835697174E0,1.954936147E0,-1.092921734E0
1.834625216E0,9.428318977E0,2.084148407E0,-8.488538265E-1
1.837030321E0,9.198608398E0,2.285145521E0,-1.001994491E0
1.839435425E0,8.944969177E0,2.481357098E0,-1.202991605E0
1.841840581E0,8.653044701E0,2.634497643E0,-1.260419369E0
1.844245685E0,8.260024071E0,2.763710260E0,-1.121635556E0
1.846650789E0,7.920242786E0,2.840878725E0,-9.924231768E-1
1.849055946E0,7.733603001E0,2.879163742E0,-9.254241586E-1
1.851461050E0,7.575676441E0,2.869592667E0,-8.536394835E-1
1.853866154E0,7.470392227E0,2.907877684E0,-7.770691514E-1
1.856271310E0,7.389036179E0,2.965305567E0,-6.909275651E-1
1.858676414E0,7.369893551E0,3.027518749E0,-6.574280262E-1
1.861081518E0,7.379465103E0,3.118446112E0,-6.526423693E-1
1.863486675E0,7.345965385E0,3.171088219E0,-6.430711150E-1
1.865891779E0,7.350750923E0,3.218944550E0,-4.941178858E-1
1.868296883E0,7.317251682E0,3.252444267E0,-3.696911037E-1
1.870702039E0,7.292725086E0,3.233301640E0,-2.835494876E-1
1.873107143E0,7.240083218E0,3.171088219E0,-1.304088384E-1
1.875512248E0,7.230511665E0,3.104089260E0,-3.948157281E-2
1.877917404E0,7.192226887E0,3.032304525E0,-5.862415582E-2
1.880322508E0,7.211369038E0,2.869592667E0,3.230310604E-2
1.882727612E0,7.153941631E0,2.821736097E0,-2.033899166E-2
1.885132768E0,7.091728210E0,2.720639229E0,-1.639083475E-1
1.887537873E0,7.024729252E0,2.591426849E0,-2.596212626E-1
1.889942977E0,7.000801086E0,2.514856577E0,-2.739782035E-1
1.892348133E0,6.986443996E0,2.356930256E0,-3.744767308E-1
1.894753237E0,6.986443996E0,2.304288149E0,-3.696911037E-1
1.897158341E0,7.058228493E0,2.165504456E0,-3.409772217E-1
1.899563498E0,7.149155617E0,2.179861546E0,-4.606183469E-1
1.901968602E0,7.322037220E0,2.199003935E0,-6.574280262E-1
1.904373706E0,7.465606689E0,2.208575249E0,-8.249256015E-1
1.906778862E0,7.599604607E0,2.251646042E0,-9.732806087E-1
1.909183966E0,7.695317745E0,2.342573404E0,-1.207777262E0
1.911589071E0,7.877171993E0,2.313859463E0,-1.327418327E0
1.913994227E0,7.963313580E0,2.395215511E0,-1.504487276E0
1.916399331E0,8.082955360E0,2.380858421E0,-1.652842283E0
1.918804435E0,8.106883049E0,2.404786825E0,-1.734796405E0
1.921209591E0,8.178668022E0,2.390429735E0,-1.797009826E0
1.923614696E0,8.006384850E0,2.452643156E0,-1.873580098E0
1.926019800E0,7.872386456E0,2.562713146E0,-2.031506538E0
1.928424956E0,7.977670670E0,2.596212626E0,-2.170290232E0
1.930830060E0,8.130811691E0,2.644068956E0,-2.280359983E0
1.933235164E0,8.097311974E0,2.706282377E0,-2.443071842E0
1.935640321E0,8.178668022E0,2.701496840E0,-2.586641312E0
1.938045425E0,8.317451477E0,2.792423964E0,-2.821736097E0
1.940450529E0,8.341380119E0,2.883949518E0,-3.051447153E0
1.942855685E0,8.303094864E0,3.084946632E0,-3.218944550E0
1.945260789E0,8.245666504E0,3.233301640E0,-3.424727440E0
1.947665946E0,8.111668587E0,3.491726398E0,-3.659224033E0
1.950071050E0,8.097311974E0,3.534797192E0,-3.664009571E0
1.952476154E0,7.992027760E0,3.659224033E0,-3.616153240E0
1.954881258E0,7.771887779E0,3.865006685E0,-3.845864296E0
1.957286414E0,7.690532207E0,4.018745422E0,-4.047459602E0
1.959691518E0,7.642675400E0,4.090530396E0,-4.114458561E0
1.962096675E0,7.695317745E0,4.205385685E0,-4.224528313E0
1.964501779E0,7.733603001E0,4.214957237E0,-4.200600147E0
1.966906883E0,7.704888821E0,4.224528313E0,-4.181457520E0
1.969312039E0,7.733603001E0,4.301098824E0,-4.167100430E0
1.971717143E0,7.724031448E0,4.411168575E0,-4.186243057E0
1.974122248E0,7.757531166E0,4.549952030E0,-4.200600147E0
1.976527404E0,7.853243828E0,4.693521500E0,-4.167100430E0
1.978932508E0,7.925028801E0,4.861019135E0,-4.195814610E0
1.981337612E0,7.987242222E0,5.081757069E0,-4.358526230E0
1.983742768E0,7.824530125E0,5.100899696E0,-4.243670940E0
1.986147873E0,7.738388538E0,4.880161762E0,-3.735794306E0
1.988552977E0,7.901100159E0,4.593023300E0,-2.965305567E0
1.990958133E0,8.274380684E0,4.272384644E0,-2.471785784E0
1.993363237E0,8.686544418E0,3.970889091E0,-2.151147604E0
1.995768341E0,9.002396584E0,3.707080364E0,-1.964507341E0
1.998173498E0,9.217751503E0,3.429512978E0,-1.887937069E0
2.000578602E0,9.380462646E0,3.128017426E0,-1.763510346E0
2.002983706E0,9.553344727E0,2.903092146E0,-1.753939033E0
2.005388862E0,9.840482712E0,2.691925526E0,-1.686939955E0
2.007793966E0,1.028554821E1,2.471785784E0,-1.624128342E0
2.010199071E0,1.083649540E1,2.222932339E0,-1.652842283E0
2.012604227E0,1.129113197E1,2.036292076E0,-1.657627940E0
2.015009331E0,1.164526939E1,1.959721804E0,-1.739582062E0
2.017414435E0,1.186122227E1,1.887937069E0,-1.859223247E0
2.019819591E0,1.188036442E1,1.916650891E0,-1.801795483E0
2.022224696E0,1.178465176E1,1.945364833E0,-1.652842283E0
2.024629852E0,1.167398357E1,2.041077614E0,-1.696511269E0
2.027034956E0,1.144905853E1,2.184647083E0,-1.787438512E0
2.029440060E0,1.099920750E1,2.289931297E0,-1.604985833E0
2.031845216E0,1.061575794E1,2.438286304E0,-1.657627940E0
2.034250321E0,1.019462109E1,2.581855536E0,-1.619342685E0
2.036655425E0,9.711270332E0,2.648854733E0,-1.485344648E0
2.039060581E0,9.361320496E0,2.715853691E0,-1.561915040E0
2.041465685E0,9.035896301E0,2.763710260E0,-1.537986755E0
2.043870789E0,8.782257080E0,2.845664263E0,-1.537986755E0
2.046275946E0,8.475975990E0,2.821736097E0,-1.389631748E0
2.048681050E0,8.236095428E0,2.888735056E0,-1.485344648E0
2.051086154E0,8.059026718E0,2.955734253E0,-1.547558069E0
2.053491310E0,7.915457249E0,2.946162939E0,-1.701296926E0
2.055896414E0,7.824530125E0,2.984447956E0,-1.797009826E0
2.058301518E0,7.929814339E0,2.950948477E0,-1.820937991E0
2.060706675E0,8.173882484E0,2.888735056E0,-1.854437590E0
2.063111779E0,8.739186287E0,2.821736097E0,-2.112862349E0
2.065516883E0,9.318249702E0,2.758924484E0,-2.093719721E0
2.067922039E0,9.960124016E0,2.696711063E0,-2.184647083E0
2.070327143E0,1.058225822E1,2.653640270E0,-2.184647083E0
2.072732300E0,1.095613670E1,2.538784742E0,-1.609771490E0
2.075137404E0,1.170269775E1,2.414358139E0,-1.720439434E0
2.077542508E0,1.211007500E1,2.170290232E0,-1.940579176E0
2.079947664E0,1.210050392E1,1.940579176E0,-1.797009826E0
2.082352768E0,1.246421337E1,1.667199135E0,-1.835294962E0
2.084757873E0,1.281835079E1,1.423131227E0,-1.883151412E0
2.087163029E0,1.314915848E1,1.102493048E0,-1.998006940E0
2.089568133E0,1.340758324E1,7.674978375E-1,-1.940579176E0
2.091973289E0,1.370907879E1,4.606183469E-1,-2.065006018E0
2.094378393E0,1.391964722E1,2.979064286E-1,-2.261217356E0
2.096783498E0,1.390050507E1,1.734796464E-1,-2.533999205E0
2.099188602E0,1.382872009E1,2.213360965E-1,-2.869592667E0
2.101593758E0,1.377607822E1,3.266202807E-1,-3.137588739E0
2.103998862E0,1.354158115E1,4.366901219E-1,-3.266801119E0
2.106404018E0,1.330708504E1,5.515456200E-1,-3.166302681E0
2.108809123E0,1.288535023E1,8.584251404E-1,-3.400799274E0
2.111214227E0,1.265563869E1,1.236491084E0,-3.630510092E0
2.113619383E0,1.211964703E1,1.533201098E0,-3.357728481E0
2.116024487E0,1.189950657E1,1.840080619E0,-2.984447956E0
2.118429591E0,1.171226883E1,2.160718918E0,-2.730210543E0
2.120834748E0,1.146820068E1,2.462214470E0,-2.361716032E0
2.123239852E0,1.071685410E1,2.855235577E0,-1.494915962E0
2.125644956E0,1.125763226E1,3.190230846E0,-1.652842283E0
2.128050112E0,1.129113197E1,3.501297712E0,-1.897508383E0
2.130455216E0,1.104706383E1,3.802793503E0,-1.954936147E0
2.132860321E0,1.086999512E1,4.210171223E0,-1.959721804E0
2.135265477E0,1.095613670E1,4.559523582E0,-1.988435626E0
2.137670581E0,1.090828037E1,4.736592293E0,-1.671984792E0
2.140075737E0,1.101834965E1,4.770092010E0,-1.293918848E0
2.142480841E0,1.154477119E1,5.062614441E0,-1.255633712E0
2.144885946E0,1.189950657E1,5.282754421E0,-1.298704505E0
2.147291102E0,1.249771309E1,5.206183910E0,-1.470987678E0
2.149696206E0,1.311087322E1,5.009374142E0,-1.681556106E0
2.152101310E0,1.359422398E1,4.841876507E0,-2.088934183E0
2.154506466E0,1.350329685E1,4.502095699E0,-1.883151412E0
2.156911571E0,1.377607822E1,4.013959885E0,-1.490130305E0
2.159316675E0,1.434138298E1,3.716651678E0,-1.403988719E0
2.161721831E0,1.485823250E1,3.573082447E0,-1.408774376E0
2.164126935E0,1.540917969E1,3.434298754E0,-1.384846091E0
2.166532091E0,1.605524254E1,3.290729284E0,-1.437488198E0
2.168937196E0,1.675933075E1,3.242872953E0,-1.514058471E0
2.171342300E0,1.743948936E1,3.190230846E0,-1.595414519E0
2.173747456E0,1.785105515E1,3.094517946E0,-1.706082582E0
2.176152560E0,1.799941063E1,3.027518749E0,-1.633699656E0
2.178557664E0,1.791326904E1,2.960519791E0,-1.461416483E0
2.180962821E0,1.762612915E1,2.984447956E0,-1.298704505E0
2.183367925E0,1.721875191E1,2.984447956E0,-1.078564763E0
2.185773029E0,1.672583008E1,3.142374277E0,-8.775677085E-1
2.188178185E0,1.608395576E1,3.247658491E0,-7.339983582E-1
2.190583289E0,1.535175228E1,3.372085333E0,-5.904290080E-1
2.192988446E0,1.447538090E1,3.290729284E0,-3.601198196E-1
2.195393550E0,1.417388535E1,3.410370588E0,-2.309073806E-1
2.197798654E0,1.396271801E1,3.582653761E0,-3.170489967E-1
2.200203810E0,1.380000687E1,3.802793503E0,-4.510470629E-1
2.202608914E0,1.360858059E1,4.109673023E0,-4.845465720E-1
2.205014018E0,1.345065403E1,4.387240410E0,-4.701896608E-1
2.207419175E0,1.319701481E1,4.722235680E0,-4.749752879E-1
2.209824279E0,1.294816113E1,5.081757069E0,-5.132604837E-1
2.212229435E0,1.270349503E1,5.383252621E0,-4.510470629E-1
2.214634539E0,1.250728416E1,5.684748173E0,-3.936193287E-1
2.217039643E0,1.236850071E1,5.900102615E0,-3.936193287E-1
2.219444800E0,1.219621658E1,6.096313953E0,-4.654040039E-1
2.221849904E0,1.212921810E1,6.278766632E0,-5.419743061E-1
2.224255008E0,1.220100307E1,6.460621357E0,-5.904290080E-1
2.226660164E0,1.225364494E1,6.608976364E0,-5.617151260E-1
2.229065268E0,1.227757263E1,6.843472958E0,-6.813562512E-1
2.231470425E0,1.214836025E1,6.876972198E0,-6.669993401E-1
2.233875529E0,1.192343521E1,6.891329288E0,-6.717849374E-1
2.236280633E0,1.169791126E1,6.891329288E0,-7.387840152E-1
2.238685789E0,1.162134171E1,6.924828529E0,-8.488538265E-1
2.241090893E0,1.149212933E1,6.958328247E0,-9.828519225E-1
2.243495998E0,1.132463169E1,6.948757172E0,-1.045065284E0
2.245901154E0,1.117149067E1,6.920042992E0,-1.035493970E0
2.248306258E0,9.840482712E0,6.465406895E0,-2.596212626E-1
2.250711362E0,1.086999512E1,6.412764549E0,-1.878365725E-1
2.253116518E0,1.187557888E1,6.484549522E0,-8.679963946E-1
2.255521623E0,1.149212933E1,6.494120598E0,-1.159920812E0
2.257926779E0,1.153998566E1,6.532405853E0,-1.269990563E0
2.260331883E0,1.171705437E1,6.541976929E0,-1.327418327E0
2.262736987E0,1.171226883E1,6.570691109E0,-1.437488198E0
2.265142143E0,1.177448177E1,6.666403770E0,-1.470987678E0
2.267547248E0,1.177448177E1,6.680760860E0,-1.466202021E0
2.269952352E0,1.182293701E1,6.738188744E0,-1.370489120E0
2.272357508E0,1.177448177E1,6.675975323E0,-1.284347534E0
2.274762612E0,1.176012516E1,6.714260101E0,-1.226919770E0
2.277167716E0,1.162612724E1,6.704689026E0,-1.126421213E0
2.279572873E0,1.150170040E1,6.690331936E0,-1.169492126E0
2.281977977E0,1.092263699E1,6.269195557E0,-1.049850941E0
2.284383133E0,1.125763226E1,6.235695839E0,-1.246062398E0
2.286788237E0,1.129591751E1,6.153741837E0,-1.150349498E0
2.289193341E0,1.143470097E1,6.139384747E0,-9.684949517E-1
2.291598498E0,1.146820068E1,6.129813194E0,-8.105686903E-1
2.294003602E0,1.143948650E1,6.240481377E0,-5.904290080E-1
2.296408758E0,1.124327564E1,6.369693756E0,-4.845465720E-1
2.298813862E0,1.101356411E1,6.451049805E0,-3.696911037E-1
2.301218966E0,1.066899776E1,6.599404812E0,-2.452643216E-1
2.303624123E0,1.038604641E1,6.781259537E0,-3.266202807E-1
2.306029227E0,9.931410789E0,6.881757736E0,-6.622136831E-1
2.308434331E0,9.897911072E0,6.977470875E0,-8.584251404E-1
2.310839487E0,9.859625816E0,7.015756130E0,-1.078564763E0
2.313244591E0,9.787840843E0,7.044469833E0,-1.193420291E0
2.315649748E0,9.485747337E0,7.058826923E0,-1.399203062E0
2.318054852E0,9.246464729E0,6.996613503E0,-1.188634634E0
2.320459956E0,9.500103951E0,6.987041950E0,-9.828519225E-1
2.322865112E0,9.634700775E0,7.207181931E0,-1.447059512E0
2.325270216E0,9.337391853E0,7.403991699E0,-1.998006940E0
2.327675321E0,8.839685440E0,7.380063057E0,-1.974078655E0
2.330080477E0,8.633902550E0,7.356134892E0,-1.744367719E0
2.332485581E0,8.624331474E0,7.231110096E0,-1.576271892E0
2.334890737E0,8.547760963E0,7.135396957E0,-1.461416483E0
2.337295841E0,8.552546501E0,6.996613503E0,-1.336989641E0
2.339700946E0,8.662615776E0,6.886543751E0,-1.217348576E0
2.342106102E0,8.806185722E0,6.800402164E0,-1.112064362E0
2.344511206E0,8.978468895E0,6.714260101E0,-1.016351461E0
2.346916310E0,9.136395454E0,6.599404812E0,-9.014959335E-1
2.349321466E0,9.222537041E0,6.541976929E0,-8.297112584E-1
2.351726571E0,9.346963882E0,6.460621357E0,-7.483552694E-1
2.354131727E0,9.370891571E0,6.393621922E0,-6.717849374E-1
2.356536831E0,9.390034676E0,6.398407936E0,-6.000002623E-1
2.358941935E0,9.399605751E0,6.427121639E0,-5.132604837E-1
2.361347091E0,9.356534958E0,6.489335060E0,-4.845465720E-1
2.363752196E0,9.299106598E0,6.518048763E0,-5.132604837E-1
2.366157300E0,9.327820778E0,6.570691109E0,-5.324030519E-1
2.368562456E0,9.375677109E0,6.628118515E0,-6.669993401E-1
2.370967560E0,9.394820213E0,6.599404812E0,-7.292127013E-1
2.373372716E0,9.351749420E0,6.618547440E0,-7.722834945E-1
2.375777821E0,9.337391853E0,6.695117950E0,-8.057830334E-1
2.378182925E0,9.346963882E0,6.786045074E0,-7.866404653E-1
2.380588081E0,9.337391853E0,6.829115868E0,-7.914260626E-1
2.382993185E0,9.323035240E0,6.905686378E0,-7.722834945E-1
2.385398341E0,9.313464165E0,6.939185619E0,-7.196413875E-1
2.387803446E0,9.313464165E0,7.058826923E0,-6.909275651E-1
2.390208550E0,9.256035805E0,7.168896675E0,-6.861419082E-1
2.392613706E0,9.174679756E0,7.240681171E0,-6.478567123E-1
2.395018810E0,9.050253868E0,7.264609337E0,-5.952146053E-1
2.397423914E0,8.973683357E0,7.298707485E0,-6.191428304E-1
2.399829071E0,8.954540253E0,7.283751965E0,-6.574280262E-1
2.402234175E0,8.877969742E0,7.278966427E0,-7.244270444E-1
2.404639331E0,8.887541771E0,7.308278561E0,-7.914260626E-1
2.407044435E0,8.782257080E0,7.250252724E0,-9.397810698E-1
2.409449539E0,8.806185722E0,7.207181931E0,-1.174277663E0
2.411854696E0,8.787042618E0,7.178467751E0,-1.317847013E0
2.414259800E0,8.777471542E0,7.130611420E0,-1.447059512E0
2.416664904E0,8.734400749E0,7.097112179E0,-1.504487276E0
2.419070060E0,8.643473625E0,6.996613503E0,-1.566700578E0
2.421475164E0,8.456833839E0,7.010970116E0,-1.609771490E0
2.423880321E0,8.226524353E0,7.054041386E0,-1.571486235E0
2.426285425E0,8.121239662E0,7.106683254E0,-1.475773335E0
2.428690529E0,7.910671711E0,7.202396393E0,-1.442273855E0
2.431095685E0,7.719245911E0,7.283751965E0,-1.514058471E0
2.433500789E0,7.613961697E0,7.259823799E0,-1.633699656E0
2.435905946E0,7.633104324E0,7.183253765E0,-1.753939033E0
2.438311050E0,7.532605648E0,7.092326164E0,-1.849651933E0
2.440716154E0,7.283154011E0,6.987041950E0,-1.864008784E0
2.443121310E0,7.206583500E0,6.929614544E0,-1.830509305E0
2.445526414E0,7.130013466E0,6.843472958E0,-1.830509305E0
2.447931571E0,7.029514790E0,6.766902447E0,-1.954936147E0
2.450336675E0,6.852446079E0,6.623332977E0,-2.127219439E0
2.452741779E0,6.771090031E0,6.532405853E0,-2.294716835E0
2.455146935E0,6.732804775E0,6.451049805E0,-2.380858421E0
2.457552039E0,6.641877651E0,6.412764549E0,-2.428714991E0
2.459957196E0,6.421737671E0,6.403193474E0,-2.481357098E0
2.462362300E0,6.273382664E0,6.388836384E0,-2.524427891E0
2.464767404E0,6.196812630E0,6.431907177E0,-2.548356056E0
2.467172560E0,6.306882381E0,6.455835342E0,-2.629712105E0
2.469577664E0,6.177670002E0,6.273981094E0,-2.758924484E0
2.471982768E0,5.569294930E0,5.703890800E0,-3.142374277E0
2.474387925E0,6.119643688E0,5.852245808E0,-3.003590584E0
2.476793029E0,6.421737671E0,5.971887112E0,-2.744567633E0
2.479198185E0,6.431309223E0,6.010172367E0,-2.443071842E0
2.481603289E0,6.627520561E0,6.158527374E0,-2.347358942E0
2.484008393E0,6.632306099E0,6.273981094E0,-2.447857618E0
2.486413550E0,6.570092678E0,6.317051888E0,-2.577069998E0
2.488818654E0,6.326025009E0,6.336194515E0,-2.773281336E0
2.491223810E0,6.028716564E0,6.350551128E0,-2.907877684E0
2.493628914E0,5.779862881E0,6.355337143E0,-3.104089260E0
2.496034018E0,5.645864964E0,6.345765591E0,-3.290729284E0
2.498439175E0,5.521438122E0,6.379265308E0,-3.463012457E0
2.500844279E0,5.387440205E0,6.422336102E0,-3.640081406E0
2.503249383E0,5.243870735E0,6.384050846E0,-3.783650875E0
2.505654539E0,5.114658356E0,6.374479294E0,-3.888935089E0
2.508059643E0,5.114658356E0,6.312266350E0,-3.956532240E0
2.510464800E0,5.172086239E0,6.259624004E0,-3.961317778E0
2.512869904E0,5.138586521E0,6.148955822E0,-3.990031719E0
2.515275060E0,4.984847546E0,5.995815277E0,-3.917648792E0
2.517680164E0,4.989633560E0,5.924030781E0,-3.764508247E0
2.520085268E0,4.975276470E0,5.842674732E0,-3.573082447E0
2.522490425E0,4.755136967E0,5.761318684E0,-3.506083488E0
2.524895529E0,4.592424870E0,5.684748173E0,-3.525225878E0
2.527300685E0,4.601995945E0,5.536393166E0,-3.625724554E0
2.529705789E0,4.616353035E0,5.440680504E0,-3.597010612E0
2.532110893E0,4.482355118E0,5.297111034E0,-3.520440340E0
2.534516050E0,4.338785648E0,5.225326538E0,-3.482155085E0
2.536921154E0,4.180859566E0,5.086542606E0,-3.472583771E0
2.539326310E0,4.046861172E0,4.995017052E0,-3.539582968E0
2.541731414E0,3.917050600E0,5.018945694E0,-3.587439299E0
2.544136518E0,3.706482172E0,5.009374142E0,-3.726222992E0
2.546541675E0,3.433700562E0,5.028516769E0,-3.841078520E0
2.548946779E0,3.237488985E0,5.004588604E0,-3.985246181E0
2.551351935E0,2.854637384E0,4.813162804E0,-5.057828903E0
2.553757039E0,2.542972326E0,4.664807796E0,-5.995815277E0
2.556162143E0,2.217548370E0,4.597808838E0,-6.407979012E0
2.558567300E0,1.963909149E0,4.401597023E0,-6.910471916E0
2.560972404E0,1.657029629E0,3.975674868E0,-6.867401123E0
2.563377560E0,1.097109199E0,3.118446112E0,-6.441478729E0
2.565782664E0,6.520441771E-1,2.179861546E0,-5.718247890E0
2.568187768E0,1.111466169E0,1.859223247E0,-4.253242016E0
2.570592925E0,1.489532113E0,1.628913999E0,-2.691925526E0
2.572998029E0,2.040479422E0,1.490130305E0,-1.456630826E0
2.575403133E0,2.667398930E0,1.423131227E0,-5.952146053E-1
2.577808289E0,3.548556089E0,1.485344648E0,-1.064806059E-1
2.580213393E0,4.458426952E0,1.667199135E0,9.451649338E-2
2.582618550E0,5.224728107E0,1.835294962E0,2.751746029E-2
2.585023654E0,5.822933674E0,2.050648928E0,-1.878365725E-1
2.587428810E0,6.349953175E0,2.232503414E0,-4.414757788E-1
2.589833914E0,6.708876610E0,2.380858421E0,-6.574280262E-1
2.592239018E0,6.972086906E0,2.610569477E0,-8.584251404E-1
2.594644175E0,6.952944279E0,2.682354212E0,-9.637092948E-1
2.597049279E0,6.838088989E0,2.768495798E0,-9.206385016E-1
2.599454383E0,6.771090031E0,2.917448997E0,-7.196413875E-1
2.601859539E0,6.469594002E0,3.525225878E0,-2.117647976E-1
2.604264643E0,5.803791523E0,4.928018093E0,7.507480979E-1
2.606669800E0,5.856433392E0,5.679962635E0,6.119644046E-1
2.609074904E0,6.206383705E0,6.173482418E0,1.184447184E-1
2.611480008E0,6.661019802E0,6.441478729E0,-7.722834945E-1
2.613885164E0,6.976872444E0,6.518048763E0,-1.868794441E0
2.616290268E0,7.082156658E0,6.551548481E0,-2.658426046E0
2.618695425E0,7.106084824E0,6.575476646E0,-3.080160856E0
2.621100529E0,6.914659023E0,6.546762943E0,-3.046661377E0
2.623505633E0,6.661019802E0,6.470192432E0,-2.744567633E0
2.625910789E0,6.483951092E0,6.412764549E0,-2.347358942E0
2.628315893E0,6.373881340E0,6.441478729E0,-1.959721804E0
2.630721050E0,6.095715523E0,6.891329288E0,-1.351346612E0
2.633126154E0,6.052644730E0,7.566703320E0,-1.030708313E0
2.635531310E0,6.445665836E0,8.375477791E0,-9.493523836E-1
2.637936414E0,6.890730858E0,8.639286041E0,-9.732806087E-1
2.640341518E0,8.082955360E0,9.180064201E0,-1.571486235E0
2.642746675E0,8.940183640E0,9.553942680E0,-1.921436548E0
2.645151779E0,9.078967094E0,9.606584549E0,-2.251646042E0
2.647556935E0,9.074181557E0,9.448060036E0,-2.658426046E0
2.649962039E0,9.055039406E0,9.108279228E0,-3.065804005E0
2.652367143E0,8.724829674E0,8.567501068E0,-3.376870871E0
2.654772300E0,8.374878883E0,8.026124954E0,-3.376870871E0
2.657177404E0,8.159524918E0,7.514061451E0,-3.372085333E0
2.659582560E0,8.035098076E0,7.168896675E0,-3.329014540E0
2.661987664E0,7.992027760E0,7.020541668E0,-3.271586657E0
2.664392768E0,7.838887215E0,6.967899323E0,-3.329014540E0
2.666797925E0,7.532605648E0,7.034898758E0,-3.496512175E0
2.669203029E0,7.292725086E0,7.116254330E0,-3.740580082E0
2.671608133E0,7.015157700E0,7.303493023E0,-3.917648792E0
2.674013289E0,6.737590313E0,7.499704361E0,-3.990031719E0
2.676418393E0,6.531807423E0,7.619345665E0,-3.990031719E0
2.678823550E0,6.364310265E0,7.839485168E0,-3.845864296E0
2.681228654E0,6.225526333E0,8.016553879E0,-3.692723513E0
2.683633810E0,5.980860233E0,8.184051514E0,-3.482155085E0
2.686038914E0,5.861218929E0,8.433503151E0,-3.329014540E0
2.688444018E0,5.669793129E0,8.658429146E0,-3.266801119E0
2.690849175E0,5.420939922E0,8.792427063E0,-3.271586657E0
2.693254279E0,5.272584915E0,8.888139725E0,-3.247658491E0
2.695659435E0,5.148158073E0,8.974281311E0,-3.295515060E0
2.698064539E0,5.032704353E0,9.074779510E0,-3.266801119E0
2.700469643E0,4.817350388E0,9.113064766E0,-3.233301640E0
2.702874800E0,4.702494621E0,9.036494255E0,-3.180659533E0
2.705279904E0,4.654638290E0,9.017352104E0,-3.089732170E0
2.707685060E0,4.649852753E0,8.974281311E0,-2.903092146E0
2.710090164E0,4.649852753E0,8.945567131E0,-2.490928411E0
2.712495321E0,4.956133842E0,9.136993408E0,-2.624926329E0
2.714900425E0,4.922634602E0,9.213563919E0,-2.653640270E0
2.717305529E0,4.874777794E0,9.323633194E0,-2.639283419E0
2.719710685E0,4.869992256E0,9.371489525E0,-2.696711063E0
2.722115789E0,4.836492538E0,9.337990761E0,-2.610569477E0
2.724520946E0,4.855635166E0,9.299705505E0,-2.591426849E0
2.726926050E0,4.917848587E0,9.180064201E0,-2.404786825E0
2.729331154E0,4.951348305E0,9.036494255E0,-2.342573404E0
2.731736310E0,5.003990173E0,8.883354187E0,-2.275574446E0
2.734141414E0,4.980062008E0,8.754141808E0,-2.227717876E0
2.736546571E0,5.032704353E0,8.634500504E0,-2.232503414E0
2.738951675E0,5.100301266E0,8.591429710E0,-2.237289190E0
2.741356779E0,5.234299660E0,8.610571861E0,-2.203789711E0
2.743761935E0,5.449653625E0,8.663214684E0,-2.184647083E0
2.746167039E0,5.645864964E0,8.639286041E0,-2.251646042E0
2.748572196E0,5.894718647E0,8.605786324E0,-2.175075769E0
2.750977300E0,6.259026051E0,8.696713448E0,-2.323430777E0
2.753382456E0,6.493522644E0,8.696713448E0,-2.323430777E0
2.755787560E0,6.775875568E0,8.591429710E0,-2.227717876E0
2.758192664E0,7.115656376E0,8.543573380E0,-2.117648125E0
2.760597821E0,7.513463020E0,8.404191017E0,-2.136790514E0
2.763002925E0,7.915457249E0,8.361120224E0,-2.074577332E0
2.765408081E0,8.274380684E0,8.389834404E0,-2.084148407E0
2.767813185E0,8.547760963E0,8.486145973E0,-2.175075769E0
2.770218289E0,8.801400185E0,8.572287560E0,-2.395215511E0
2.772623446E0,8.921041489E0,8.553144455E0,-2.658426046E0
2.775028550E0,8.863613129E0,8.462217331E0,-2.845664263E0
2.777433706E0,8.700901031E0,8.385048866E0,-2.912663460E0
2.779838810E0,8.437690735E0,8.346763611E0,-2.801995277E0
2.782243914E0,8.149953842E0,8.385048866E0,-2.658426046E0
2.784649071E0,7.886743546E0,8.443074226E0,-2.524427891E0
2.787054175E0,7.700103283E0,8.428717613E0,-2.294716835E0
2.789459331E0,7.594819069E0,8.322834969E0,-1.907079697E0
2.791864435E0,7.422535896E0,8.447860718E0,-1.523629785E0
2.794269591E0,7.326822758E0,8.577073097E0,-1.332203984E0
2.796674696E0,7.230511665E0,8.605786324E0,-1.332203984E0
2.799079800E0,7.058228493E0,8.605786324E0,-1.327418327E0
2.801484956E0,6.890730858E0,8.543573380E0,-1.370489120E0
2.803890060E0,6.818946362E0,8.438288689E0,-1.533201098E0
2.806295216E0,6.833303452E0,8.337192535E0,-1.691725612E0
2.808700321E0,6.876374245E0,8.341978073E0,-1.696511269E0
2.811105425E0,6.862017155E0,8.294121742E0,-1.533201098E0
2.813510581E0,6.876374245E0,8.231907845E0,-1.490130305E0
2.815915685E0,6.699305058E0,8.193622589E0,-1.638485312E0
2.818320841E0,6.464808464E0,8.093124390E0,-1.624128342E0
2.820725946E0,6.259026051E0,8.016553879E0,-1.701296926E0
2.823131102E0,5.995217323E0,7.911269665E0,-1.950150490E0
2.825536206E0,5.703292847E0,7.829914093E0,-1.916650891E0
2.827941310E0,5.736792088E0,7.719843864E0,-1.720439434E0
2.830346466E0,5.621936798E0,7.724629879E0,-1.797009826E0
2.832751571E0,5.497509956E0,7.786843300E0,-1.964507341E0
2.835156727E0,5.124229908E0,7.758129120E0,-1.849651933E0
2.837561831E0,4.305285931E0,7.427919865E0,-1.787438512E0
2.839966987E0,4.295714855E0,7.576274872E0,-1.902294040E0
2.842372091E0,4.286143780E0,7.585845947E0,-2.098505497E0
2.844777196E0,4.300500393E0,7.542775154E0,-2.246860504E0
2.847182352E0,4.377070904E0,7.408777237E0,-2.356930256E0
2.849587456E0,4.381856441E0,7.403991699E0,-2.486142635E0
2.851992612E0,4.491926193E0,7.274180889E0,-2.620140791E0
2.854397716E0,4.745565414E0,7.140182972E0,-2.807379246E0
2.856802873E0,5.138586521E0,7.082755089E0,-3.037090063E0
2.859207977E0,5.507081509E0,7.058826923E0,-3.262015581E0
2.861613081E0,5.837290764E0,7.030112743E0,-3.386442184E0
2.864018237E0,6.138786316E0,6.929614544E0,-3.434298754E0
2.866423341E0,6.464808464E0,6.843472958E0,-3.405584812E0
2.868828498E0,6.881159782E0,6.752545357E0,-3.415156126E0
2.871233602E0,7.192226887E0,6.604190350E0,-3.463012457E0
2.873638758E0,7.365108013E0,6.446264267E0,-3.486940861E0
2.876043862E0,7.513463020E0,6.297909260E0,-3.534797192E0
2.878448966E0,7.556533813E0,6.158527374E0,-3.659224033E0
2.880854123E0,7.594819069E0,6.058028698E0,-3.821935892E0
2.883259227E0,7.599604607E0,5.924030781E0,-3.893720627E0
2.885664383E0,7.456035137E0,5.880959988E0,-3.865006685E0
2.888069487E0,7.264011383E0,5.766104221E0,-3.826721668E0
2.890474643E0,7.048657417E0,5.708676815E0,-3.640081406E0
2.892879748E0,6.924230576E0,5.622535229E0,-3.506083488E0
2.895284852E0,6.775875568E0,5.550750256E0,-3.496512175E0
2.897690008E0,6.445665836E0,5.488536835E0,-3.463012457E0
2.900095112E0,6.100501537E0,5.435894966E0,-3.410370588E0
2.902500268E0,5.779862881E0,5.478965759E0,-3.506083488E0
2.904905373E0,5.473581791E0,5.622535229E0,-3.592225075E0
2.907310477E0,5.291727066E0,5.828317642E0,-3.606581926E0
2.909715633E0,5.057230473E0,6.067600250E0,-3.683152199E0
2.912120737E0,4.846064091E0,6.202196121E0,-3.759722471E0
2.914525893E0,4.635495663E0,6.264409542E0,-3.855435371E0
2.916930998E0,4.367499352E0,6.202196121E0,-3.879363775E0
2.919336154E0,4.209573269E0,6.024528980E0,-3.942175388E0
2.921741258E0,4.305285931E0,5.790032387E0,-4.076173306E0
2.924146414E0,4.381856441E0,5.550750256E0,-4.205385685E0
2.926551518E0,4.444069862E0,5.478965759E0,-4.320241451E0
2.928956623E0,4.678566456E0,5.459823132E0,-4.353740692E0
2.931361779E0,4.884349346E0,5.325825214E0,-4.530809879E0
2.933766883E0,5.162514687E0,5.354538918E0,-4.124029636E0
2.936172039E0,5.315655708E0,5.517251015E0,-3.491726398E0
2.938577143E0,5.540580750E0,5.770890236E0,-3.051447153E0
2.940982248E0,5.899504185E0,6.134599209E0,-2.812164783E0
2.943387404E0,6.119643688E0,6.336194515E0,-2.687139750E0
2.945792508E0,6.028716564E0,6.355337143E0,-2.567498684E0
2.948197664E0,5.693721294E0,6.388836384E0,-2.548356056E0
2.950602768E0,5.172086239E0,6.474977970E0,-2.586641312E0
2.953007925E0,4.735994339E0,6.637690067E0,-2.644068956E0
2.955413029E0,4.343571186E0,6.762116909E0,-2.663211584E0
2.957818133E0,4.008575916E0,6.824330330E0,-2.639283419E0
2.960223289E0,3.811766386E0,6.991827965E0,-2.529213428E0
2.962628393E0,3.773481369E0,7.317849636E0,-2.179861546E0
2.965033550E0,3.663411379E0,7.509275436E0,-2.041077614E0
2.967438654E0,3.524627686E0,7.542775154E0,-1.978864312E0
2.969843810E0,3.342773199E0,7.585845947E0,-1.954936147E0
2.972248914E0,3.247060299E0,7.547560692E0,-1.969292998E0
2.974654071E0,3.108276606E0,7.633702278E0,-1.969292998E0
2.977059175E0,3.041277647E0,7.767700672E0,-1.974078655E0
2.979464279E0,2.955136061E0,7.839485168E0,-2.041077614E0
2.981869435E0,2.940778971E0,8.002197266E0,-2.002792597E0
2.984274539E0,2.926422119E0,8.227122307E0,-2.045863390E0
2.986679696E0,2.931207657E0,8.428717613E0,-1.988435626E0
2.989084800E0,3.012563705E0,8.486145973E0,-1.959721804E0
2.991489956E0,3.180061340E0,8.620143890E0,-1.935793519E0
2.993895060E0,3.462414265E0,8.821140289E0,-1.921436548E0
2.996300216E0,3.687339783E0,8.964710236E0,-1.978864312E0
2.998705321E0,3.936791420E0,9.017352104E0,-2.031506538E0
3.001110425E0,4.166502476E0,9.065208435E0,-2.103291035E0
3.003515581E0,4.343571186E0,9.127422333E0,-2.175075769E0
3.005920685E0,4.491926193E0,9.031708717E0,-2.299502611E0
3.008325841E0,4.731208801E0,8.935996056E0,-2.347358942E0
3.010730946E0,5.042275429E0,8.792427063E0,-2.294716835E0
3.013136102E0,5.306084156E0,8.691927910E0,-2.261217356E0
3.015541206E0,5.569294930E0,8.730213165E0,-2.160718918E0
3.017946310E0,5.827719688E0,8.615358353E0,-2.127219439E0
3.020351466E0,5.980860233E0,8.548358917E0,-1.978864312E0
3.022756571E0,6.124429703E0,8.327621460E0,-1.782652855E0
3.025161727E0,6.565307140E0,8.117053032E0,-1.624128342E0
3.027566831E0,6.862017155E0,8.313263893E0,-1.581057549E0
3.029971987E0,6.866802692E0,8.500502586E0,-1.427916884E0
3.032377091E0,7.000801086E0,8.782855988E0,-1.437488198E0
3.034782248E0,7.244868755E0,9.069993973E0,-1.308275819E0
3.037187352E0,7.475177765E0,9.232706070E0,-1.222134113E0
3.039592456E0,7.781459332E0,9.247062683E0,-1.078564763E0
3.041997612E0,8.025527000E0,9.199206352E0,-9.397810698E-1
3.044402716E0,8.063812256E0,9.093922615E0,-6.287141442E-1
3.046807873E0,8.087740898E0,9.031708717E0,-4.510470629E-1
3.049212977E0,8.015955925E0,9.041280746E0,-3.409772217E-1
3.051618133E0,7.858029366E0,8.959924698E0,-2.739782035E-1
3.054023237E0,7.561319351E0,8.950352669E0,-2.404786795E-1
3.056428341E0,7.249654293E0,8.868997574E0,-1.016949639E-1
3.058833498E0,7.302894592E0,9.022137642E0,-1.686939895E-1
3.061238602E0,6.852446079E0,9.036494255E0,-2.739782035E-1
3.063643758E0,6.670591354E0,8.988637924E0,-2.931207716E-1
3.066048862E0,6.354738712E0,8.845068932E0,-2.548356056E-1
3.068454018E0,6.167500496E0,8.902496338E0,4.666004330E-2
3.070859123E0,5.349154949E0,9.012566566E0,4.151547253E-1
3.073264279E0,5.157729149E0,9.361918449E0,2.237289101E-1
3.075669383E0,5.076373100E0,9.711869240E0,-4.749752879E-1
3.078074487E0,4.908277512E0,9.841081619E0,-6.095715761E-1
3.080479643E0,4.506283283E0,9.778867722E0,-6.382854581E-1
3.082884748E0,4.113860130E0,9.716654778E0,-7.722834945E-1
3.085289904E0,3.830909014E0,9.654440880E0,-7.674978375E-1
3.087695008E0,3.610769272E0,9.635298729E0,-5.563312769E-1
3.090100164E0,3.376272678E0,9.970293999E0,-8.344969153E-1
3.092505268E0,3.706482172E0,1.002293587E1,-1.236491084E0
3.094910425E0,3.907479286E0,9.620942116E0,-8.344969153E-1
3.097315529E0,3.859622955E0,9.697511673E0,-7.244270444E-1
3.099720685E0,3.970290899E0,9.812367439E0,-1.126421213E0
3.102125789E0,3.275774240E0,1.001336479E1,-1.470987678E0
3.104530893E0,3.347558975E0,1.013779163E1,-1.356132269E0
3.106936050E0,3.371487141E0,1.020000458E1,-1.628913999E0
3.109341154E0,3.538984776E0,1.023828983E1,-1.820937991E0
3.111746310E0,3.505485058E0,1.008036327E1,-1.964507341E0
3.114151414E0,3.787838221E0,1.019043350E1,-2.050648928E0
3.116556571E0,3.759124279E0,1.019521904E1,-2.098505497E0
3.118961675E0,3.806980848E0,1.012343407E1,-2.309073925E0
3.121366831E0,3.917050600E0,9.941579819E0,-2.667997360E0
3.123771935E0,3.199203968E0,9.946365356E0,-3.084946632E0
3.126177039E0,1.820339799E0,9.630513191E0,-3.946960926E0
3.128582196E0,8.003991842E-1,8.179265976E0,-3.396013498E0
3.130987300E0,2.294118643E0,7.178467751E0,-3.424727440E0
3.133392456E0,4.257429600E0,6.805187702E0,-3.683152199E0
3.135797560E0,6.555736065E0,6.532405853E0,-4.143172264E0
3.138202716E0,8.906683922E0,6.628118515E0,-3.582653761E0
3.140607821E0,1.056311512E1,6.723831654E0,-3.410370588E0
3.143012925E0,1.152562809E1,6.776473522E0,-3.649652719E0
3.145418081E0,1.183729362E1,6.742974281E0,-3.731008768E0
3.147823185E0,1.207657623E1,6.867401123E0,-4.167100430E0
3.150228341E0,1.230628681E1,6.948757172E0,-4.554738045E0
3.152633446E0,1.246421337E1,7.020541668E0,-4.765306473E0
3.155038602E0,1.260778236E1,6.991827965E0,-4.947160721E0
3.157443706E0,1.269392395E1,7.034898758E0,-4.770092010E0
3.159848862E0,1.208136177E1,6.666403770E0,-4.248456478E0
3.162253966E0,1.145862961E1,6.269195557E0,-3.300300598E0
3.164659123E0,1.102313614E1,5.995815277E0,-2.600998163E0
3.167064227E0,9.687342644E0,5.981458187E0,-4.502095699E0
3.169469383E0,8.102097511E0,6.148955822E0,-5.718247890E0
3.171874487E0,6.737590313E0,5.952744484E0,-6.202196121E0
3.174279591E0,5.813362598E0,5.148756027E0,-5.938387394E0
3.176684748E0,4.975276470E0,3.630510092E0,-4.205385685E0
3.179089852E0,7.173084259E0,3.817150354E0,-3.932604074E0
3.181495008E0,8.562117577E0,3.769293785E0,-4.080958843E0
3.183900112E0,1.055354404E1,3.951746702E0,-4.425525665E0
3.186305268E0,1.208614731E1,4.923232555E0,-3.731008768E0
3.188710373E0,1.265085316E1,6.364908218E0,-3.793222189E0
3.191115477E0,1.182772255E1,6.809973240E0,-4.243670940E0
3.193520633E0,1.063968563E1,6.264409542E0,-4.181457520E0
3.195925737E0,1.049611664E1,5.656034470E0,-3.966103554E0
3.198330893E0,1.056790161E1,5.196612358E0,-3.611367464E0
3.200735998E0,1.025683403E1,4.899304390E0,-3.104089260E0
3.203141154E0,1.001755238E1,4.765306473E0,-2.782852650E0
3.205546258E0,9.457033157E0,5.047659397E0,-2.620140791E0
3.207951414E0,8.964112282E0,5.445466042E0,-2.758924484E0
3.210356518E0,8.346165657E0,5.847460270E0,-2.715853691E0
3.212761675E0,7.872386456E0,6.427121639E0,-2.581855536E0
3.215166779E0,7.700103283E0,6.862615108E0,-2.524427891E0
3.217571935E0,7.412964344E0,7.250252724E0,-2.356930256E0
3.219977039E0,6.991229534E0,7.542775154E0,-2.213361025E0
3.222382143E0,6.507879257E0,7.801199913E0,-2.299502611E0
3.224787300E0,5.928217888E0,7.906484127E0,-2.313859463E0
3.227192404E0,5.454439163E0,8.073982239E0,-2.476571321E0
3.229597560E0,4.731208801E0,8.140980721E0,-2.232503414E0
3.232002664E0,4.329214573E0,8.428717613E0,-1.954936147E0
3.234407821E0,3.979862213E0,8.663214684E0,-1.887937069E0
3.236812925E0,3.826123476E0,8.940781593E0,-1.935793519E0
3.239218081E0,3.433700562E0,9.213563919E0,-1.739582062E0
3.241623185E0,3.208775282E0,9.347561836E0,-1.590628862E0
3.244028341E0,2.998206854E0,9.390632629E0,-1.609771490E0
3.246433446E0,2.845066071E0,9.519845009E0,-1.614557028E0
3.248838550E0,2.724826813E0,9.577870369E0,-1.686939955E0
3.251243706E0,2.691327333E0,9.640084267E0,-1.662413478E0
3.253648810E0,2.365903378E0,9.731011391E0,-1.274776220E0
3.256053966E0,2.284547329E0,9.821938515E0,-1.045065284E0
3.258459071E0,2.289333105E0,9.826724052E0,-1.112064362E0
3.260864227E0,2.509472847E0,9.793225288E0,-1.322632670E0
3.263269331E0,2.605185747E0,9.764511108E0,-1.485344648E0
3.265674487E0,2.576471806E0,9.754940033E0,-1.169492126E0
3.268079591E0,2.763111830E0,9.707083702E0,-1.045065284E0
3.270484748E0,2.959921598E0,9.644869804E0,-9.206385016E-1
3.272889852E0,3.093919754E0,9.635298729E0,-1.006780148E0
3.275294956E0,2.849851847E0,9.352347374E0,-7.339983582E-1
3.277700112E0,2.830709219E0,9.549157143E0,-7.292127013E-1
3.280105216E0,2.509472847E0,8.950352669E0,-6.191428304E-1
3.282510373E0,3.797409534E0,9.304491043E0,-8.488538265E-1
3.284915477E0,4.195216179E0,9.256634712E0,-1.604985833E0
3.287320633E0,4.027718544E0,9.117850304E0,-1.557129383E0
3.289725737E0,4.448855400E0,8.955139160E0,-1.494915962E0
3.292130893E0,5.416153908E0,8.677571297E0,-1.600200176E0
3.294535998E0,5.339583874E0,8.883354187E0,-1.514058471E0
3.296941154E0,5.770291805E0,8.739784241E0,-1.499701619E0
3.299346258E0,5.885147095E0,8.845068932E0,-1.797009826E0
3.301751414E0,5.990431309E0,8.754141808E0,-2.093719721E0
3.304156518E0,6.273382664E0,8.792427063E0,-2.629712105E0
3.306561623E0,6.157928944E0,8.648857117E0,-2.304288149E0
3.308966779E0,6.565307140E0,8.749356270E0,-2.175075769E0
3.311371883E0,6.541378975E0,8.620143890E0,-2.309073925E0
3.313777039E0,6.522236347E0,8.408976555E0,-2.447857618E0
3.316182143E0,7.005586624E0,8.438288689E0,-2.529213428E0
3.318587300E0,7.738388538E0,8.438288689E0,-3.123231649E0
3.320992404E0,7.944170952E0,8.404191017E0,-3.046661377E0
3.323397560E0,7.101299286E0,8.524430275E0,-2.931805849E0
3.325802664E0,6.651448727E0,8.467002869E0,-2.591426849E0
3.328207821E0,5.732006550E0,8.289336205E0,-2.658426046E0
3.330612925E0,5.751149178E0,8.050053596E0,-2.807379246E0
3.333018081E0,5.650650501E0,7.858627796E0,-3.070589542E0
3.335423185E0,5.636293888E0,7.801199913E0,-3.180659533E0
3.337828341E0,4.980062008E0,7.494918823E0,-3.128017426E0
3.340233446E0,5.358726501E0,8.236693382E0,-3.056232691E0
3.342638550E0,5.334797859E0,8.227122307E0,-3.501297712E0
3.345043706E0,5.502295494E0,8.078767776E0,-3.276372433E0
3.347448810E0,5.535795212E0,7.925626755E0,-2.984447956E0
3.349853966E0,5.727221012E0,7.470990658E0,-2.634497643E0
3.352259071E0,5.325226784E0,7.676773071E0,-2.443071842E0
3.354664227E0,5.210371494E0,7.648059368E0,-2.433500528E0
3.357069331E0,5.813362598E0,6.982256413E0,-2.658426046E0
3.359474487E0,6.292525291E0,7.389634609E0,-2.869592667E0
3.361879591E0,5.636293888E0,7.399205685E0,-2.251646042E0
3.364284748E0,4.927420139E0,7.633702278E0,-2.103291035E0
3.366689852E0,4.506283283E0,7.576274872E0,-1.998006940E0
3.369095008E0,4.544568539E0,7.667201996E0,-1.935793519E0
3.371500112E0,4.712066174E0,7.896913052E0,-2.103291035E0
3.373905268E0,4.582853794E0,7.896913052E0,-1.633699656E0
3.376310373E0,4.769493580E0,8.054839134E0,-1.518844128E0
3.378715477E0,4.702494621E0,7.939983845E0,-1.088136077E0
3.381120633E0,4.817350388E0,7.935198307E0,-1.183848977E0
3.383525737E0,5.109872818E0,7.719843864E0,-1.327418327E0
3.385930893E0,5.387440205E0,7.504489899E0,-1.413560033E0
3.388335998E0,5.353940487E0,7.207181931E0,-1.303490162E0
3.390741154E0,5.167300701E0,7.001399040E0,-8.344969153E-1
3.393146258E0,5.172086239E0,6.996613503E0,-7.531409264E-1
3.395551414E0,5.267798901E0,7.025327206E0,-8.105686903E-1
3.397956518E0,5.277370453E0,7.092326164E0,-9.876375198E-1
3.400361675E0,5.454439163E0,7.087540627E0,-1.135992527E0
3.402766779E0,5.612365723E0,6.886543751E0,-1.284347534E0
3.405171935E0,5.856433392E0,6.675975323E0,-1.336989641E0
3.407577039E0,6.090929985E0,6.465406895E0,-1.408774376E0
3.409982196E0,7.029514790E0,6.178267956E0,-2.318645239E0
3.412387300E0,6.157928944E0,6.187839508E0,-1.155135155E0
3.414792404E0,5.660222054E0,6.345765591E0,-1.394417405E0
3.417197560E0,5.315655708E0,6.374479294E0,-1.332203984E0
3.419602664E0,5.535795212E0,6.029314995E0,-9.541380405E-1
3.422007821E0,5.679364681E0,6.278766632E0,-1.408774376E0
3.424412925E0,6.421737671E0,6.168098450E0,-2.342573404E0
3.426818081E0,5.909075737E0,6.532405853E0,-1.706082582E0
3.429223185E0,5.808577061E0,6.991827965E0,-2.036292076E0
3.431628341E0,5.794219971E0,7.255038261E0,-2.112862349E0
3.434033446E0,5.770291805E0,7.571488857E0,-2.380858421E0
3.436438602E0,5.578866005E0,7.892127514E0,-2.687139750E0
3.438843706E0,5.464010715E0,7.882555962E0,-2.855235577E0
3.441248810E0,4.903491974E0,8.404191017E0,-3.295515060E0
3.443653966E0,4.247858524E0,9.136993408E0,-3.630510092E0
3.446059123E0,3.672982693E0,9.664012909E0,-3.994817495E0
3.448464227E0,2.739183664E0,1.007557774E1,-4.420739651E0
3.450869331E0,1.868196249E0,1.036750221E1,-4.712664127E0
3.453274487E0,1.135394335E0,1.082273674E1,-5.474180222E0
3.455679643E0,3.882354796E-1,1.087059307E1,-5.574678421E0
3.458084748E0,-8.554340899E-2,1.104766178E1,-5.545964718E0
3.460489852E0,-6.269195080E-1,1.113858986E1,-5.435894966E0
3.462895008E0,-1.119840980E0,1.111944675E1,-5.191826820E0
3.465300112E0,-1.512263894E0,1.079880905E1,-5.105685234E0
3.467705268E0,-1.598405480E0,1.057328510E1,-5.028516769E0
3.470110373E0,-1.493121386E0,1.013300610E1,-5.042873859E0
3.472515529E0,-1.277767301E0,9.936794281E0,-4.549952030E0
3.474920633E0,-9.523434043E-1,9.841081619E0,-4.353740692E0
3.477325789E0,-4.588237405E-1,9.845867157E0,-3.764508247E0
3.479730893E0,-5.204389244E-2,9.783653259E0,-3.410370588E0
3.482136050E0,4.313062727E-1,9.778867722E0,-3.027518749E0
3.484541154E0,1.054038405E0,9.979865074E0,-2.524427891E0
3.486946310E0,1.599601984E0,9.989436150E0,-2.481357098E0
3.489351414E0,2.365903378E0,1.000379372E1,-2.213361025E0
3.491756571E0,2.849851847E0,9.395418167E0,-2.371287346E0
3.494161675E0,3.438486099E0,9.294919968E0,-1.183848977E0
3.496566831E0,3.716053486E0,9.098708153E0,-1.849651933E0
3.498971935E0,4.286143780E0,9.635298729E0,-2.117647976E-1
3.501377091E0,4.396213531E0,9.213563919E0,-1.360917926E0
3.503782196E0,4.855635166E0,9.955936432E0,4.965106845E-1
3.506187300E0,4.927420139E0,9.831509590E0,-5.617151260E-1
3.508592456E0,5.765506268E0,9.304491043E0,1.316052489E-2
3.510997560E0,6.033502102E0,9.884152412E0,5.395814776E-1
3.513402716E0,6.086144447E0,8.476573944E0,-4.127618968E-1
3.515807821E0,6.138786316E0,9.568299294E0,1.080957651E0
3.518212977E0,5.794219971E0,9.912865639E0,6.837490797E-1
3.520618081E0,6.326025009E0,8.131409645E0,-3.505485058E-1
3.523023237E0,5.909075737E0,9.817152977E0,4.199403822E-1
3.525428341E0,5.645864964E0,1.032443142E1,2.333002090E-1
3.527833498E0,5.866004944E0,1.011386299E1,-2.117647976E-1
3.530238602E0,5.990431309E0,1.012821960E1,-7.292127013E-1
3.532643758E0,5.985645771E0,9.893723488E0,-1.399203062E0
3.535048862E0,6.043073654E0,9.529416084E0,-1.993221283E0
3.537454018E0,6.268597126E0,9.022137642E0,-2.304288149E0
3.539859123E0,6.143572330E0,8.845068932E0,-2.519642353E0
3.542264279E0,5.851647854E0,9.031708717E0,-2.562713146E0
3.544669383E0,5.813362598E0,9.113064766E0,-2.682354212E0
3.547074539E0,5.976074696E0,9.017352104E0,-2.984447956E0
3.549479643E0,5.928217888E0,8.955139160E0,-3.329014540E0
3.551884800E0,5.736792088E0,8.964710236E0,-3.711866140E0
3.554289904E0,5.665007591E0,8.754141808E0,-3.999603033E0
3.556695060E0,6.617949009E0,7.313064098E0,-4.291527271E0
3.559100164E0,7.881958008E0,5.986244202E0,-4.502095699E0
3.561505321E0,4.936991215E0,9.203991890E0,-3.319443226E0
3.563910425E0,4.482355118E0,9.783653259E0,-3.573082447E0
3.566315581E0,4.530211449E0,9.745368004E0,-4.368097782E0
3.568720685E0,4.238286972E0,9.285347939E0,-4.908875465E0
3.571125841E0,3.850051641E0,8.892925262E0,-5.464608669E0
3.573530946E0,3.146561861E0,8.811569214E0,-5.488536835E0
3.575936102E0,2.720041037E0,8.787641525E0,-5.105685234E0
3.578341206E0,2.471187592E0,8.983852386E0,-4.712664127E0
3.580746310E0,2.672184706E0,8.854640007E0,-4.468596458E0
3.583151466E0,2.854637384E0,8.634500504E0,-4.296313286E0
3.585556571E0,2.763111830E0,8.758927345E0,-4.238885403E0
3.587961727E0,2.724826813E0,8.897710800E0,-4.272384644E0
3.590366831E0,2.969492912E0,8.816354752E0,-4.368097782E0
3.592771987E0,3.026920557E0,8.926424980E0,-4.325026989E0
3.595177091E0,3.036491871E0,9.122636795E0,-4.291527271E0
3.597582248E0,3.395415306E0,8.859425545E0,-4.296313286E0
3.599987352E0,3.620340586E0,8.749356270E0,-4.277170658E0
3.602392508E0,3.644268990E0,8.763712883E0,-4.066602230E0
3.604797612E0,3.562912941E0,8.907281876E0,-3.673580885E0
3.607202768E0,3.409772158E0,9.046066284E0,-3.400799274E0
3.609607873E0,3.476771355E0,8.912068367E0,-3.333800077E0
3.612013029E0,3.438486099E0,8.768498421E0,-3.372085333E0
3.614418133E0,3.247060299E0,8.816354752E0,-3.362514019E0
3.616823289E0,3.926621914E0,6.273981094E0,-5.794818401E0
3.619228393E0,2.231905222E0,6.862615108E0,-3.022733212E0
3.621633550E0,1.293320656E0,8.289336205E0,-2.108076811E0
3.624038654E0,1.082752228E0,8.806783676E0,-1.384846091E0
3.626443810E0,1.202393413E0,9.256634712E0,-1.825723648E0
3.628848914E0,1.245464206E0,9.323633194E0,-2.998805046E0
3.631254071E0,1.106680512E0,9.371489525E0,-4.013959885E0
3.633659175E0,7.286145091E-1,9.788438797E0,-4.545166492E0
3.636064331E0,5.754738450E-1,9.994221687E0,-4.679164886E0
3.638469435E0,6.233302951E-1,1.006600666E1,-4.564309120E0
3.640874591E0,9.966106415E-1,9.778867722E0,-4.104887009E0
3.643279696E0,1.503889084E0,9.419346809E0,-3.716651678E0
3.645684852E0,2.078764677E0,9.156135559E0,-3.352942705E0
3.648089956E0,2.562114954E0,9.160921097E0,-2.989233732E0
3.650495112E0,3.304488182E0,8.998209953E0,-2.586641312E0
3.652900216E0,3.763910055E0,8.601000786E0,-2.347358942E0
3.655305373E0,5.631507874E0,5.919245243E0,-2.519642353E0
3.657710477E0,6.531807423E0,4.100101471E0,-2.749353170E0
3.660115633E0,4.879563808E0,4.229313850E0,-1.528415442E0
3.662520737E0,3.692125320E0,4.339384079E0,-1.006780148E0
3.664925893E0,2.590828657E0,4.492524624E0,-2.931207716E-1
3.667330998E0,1.968694806E0,4.310669899E0,8.129615188E-1
3.669736154E0,-1.201196909E0,5.550750256E0,4.762913704E0
3.672141258E0,-4.581656933E0,9.616155624E0,5.495715618E0
3.674546414E0,-6.841678143E0,1.445683575E1,3.843471289E0
3.676951518E0,-5.615954876E0,1.730549240E1,1.088734269E-1
3.679356675E0,-5.558526993E0,1.864666939E1,-3.285943747E0
3.681761779E0,-6.118447304E0,1.899602127E1,-4.884947300E0
3.684166935E0,-6.008377552E0,1.870888138E1,-4.937589645E0
3.686572039E0,-4.801796913E0,1.735334778E1,-3.553939819E0
3.688977196E0,-2.254637241E0,1.534756470E1,-1.734796405E0
3.691382300E0,5.850451589E-1,1.302532959E1,-6.000002623E-1
3.693787456E0,3.017349243E0,1.084187984E1,-1.734796464E-1
3.696192560E0,4.668995380E0,9.357132912E0,-5.383851007E-2
3.698597716E0,5.952146530E0,8.821140289E0,5.832505226E-1
3.701002821E0,6.981658459E0,8.931210518E0,1.368096352E0
3.703407977E0,7.728816986E0,9.424132347E0,1.794616938E0
3.705813081E0,7.791030407E0,9.960722923E0,1.435095429E0
3.708218237E0,7.000801086E0,1.040578747E1,2.715853751E-1
3.710623393E0,6.000002861E0,1.073180962E1,-1.006780148E0
3.713028498E0,5.521438122E0,1.097109222E1,-1.523629785E0
3.715433654E0,5.937789440E0,1.112423229E1,-1.155135155E0
3.717838758E0,6.799803734E0,1.104287624E1,-8.967102766E-1
3.720243862E0,7.254439831E0,1.064028454E1,-1.289133191E0
3.722649018E0,7.216155052E0,1.009950638E1,-1.696511269E0
3.725054175E0,7.546962738E0,9.563513756E0,-1.777867198E0
3.727459279E0,8.432905197E0,9.098708153E0,-1.332203984E0
3.729864435E0,9.500103951E0,8.840283394E0,-1.016351461E0
3.732269539E0,9.998409271E0,8.658429146E0,-8.823533654E-1
3.734674696E0,9.835697174E0,8.505288124E0,-1.164706469E0
3.737079800E0,9.275178909E0,8.356334686E0,-1.135992527E0
3.739484956E0,8.758329391E0,8.260622025E0,-9.062815905E-1
3.741890060E0,8.485547066E0,8.179265976E0,-5.515456200E-1
3.744295216E0,8.188239098E0,8.150551796E0,-1.878365725E-1
3.746700321E0,7.992027760E0,8.069195747E0,-1.447657645E-1
3.749105477E0,7.757531166E0,7.949554920E0,-1.591227055E-1
3.751510581E0,7.417750359E0,7.872984886E0,-2.021935135E-1
3.753915737E0,7.106084824E0,7.786843300E0,-1.076770201E-2
3.756320841E0,6.766304016E0,7.624131203E0,2.572284341E-1
3.758725998E0,6.215955257E0,7.494918823E0,5.976074338E-1
3.761131102E0,5.961717606E0,7.298707485E0,7.603194118E-1
3.763536258E0,5.425725460E0,7.288537979E0,6.789634228E-1
3.765941362E0,5.181657314E0,7.442276478E0,5.736792088E-1
3.768346518E0,5.152943611E0,7.370491982E0,1.280160099E-1
3.770751623E0,4.970490932E0,7.418348312E0,-2.931207716E-1
3.773156779E0,4.692923546E0,7.480561733E0,-5.132604837E-1
3.775561883E0,4.410570145E0,7.389634609E0,-5.467599630E-1
3.777967039E0,4.448855400E0,7.140182972E0,-5.665007830E-1
3.780372196E0,4.290929317E0,6.819544315E0,-9.110672474E-1
3.782777300E0,3.400201082E0,7.173682213E0,-1.064207911E0
3.785182456E0,2.979064226E0,7.087540627E0,-1.169492126E0
3.787587560E0,2.791825771E0,6.618547440E0,-1.628913999E0
3.789992716E0,2.408974171E0,6.144170284E0,-2.065006018E0
3.792397821E0,1.863410592E0,5.723033428E0,-2.500499725E0
3.794802977E0,1.432104349E0,5.316253662E0,-2.869592667E0
3.797208081E0,9.678967595E-1,4.956732273E0,-3.065804005E0
3.799613237E0,7.142575383E-1,4.884947300E0,-2.998805046E0
3.802018341E0,4.983053207E-1,4.971088886E0,-2.869592667E0
3.804423498E0,4.935196638E-1,5.018945694E0,-2.782852650E0
3.806828602E0,5.270192027E-1,5.042873859E0,-2.826521635E0
3.809233758E0,5.994020700E-1,5.115256786E0,-2.931805849E0
3.811638862E0,7.142575383E-1,5.201398373E0,-2.984447956E0
3.814044018E0,9.678967595E-1,5.411966801E0,-2.994019270E0
3.816449123E0,1.140179992E0,4.688735962E0,-2.639283419E0
3.818854279E0,1.527817249E0,4.951946259E0,-2.423929453E0
3.821259383E0,2.346760750E0,6.652047157E0,-3.539582968E0
3.823664539E0,1.983051777E0,7.269395351E0,-3.118446112E0
3.826069643E0,1.657029629E0,6.110671043E0,-2.620140791E0
3.828474800E0,1.264606714E0,5.364109993E0,-1.633699656E0
3.830879956E0,1.853839397E0,6.838686943E0,-1.878365755E0
3.833285060E0,2.016551256E0,7.614559650E0,2.598605394E0
3.835690216E0,3.457628727E0,1.014257717E1,-2.812164783E0
3.838095321E0,4.601995945E0,1.296790218E1,-7.269395351E0
3.840500477E0,6.076572895E0,1.468654728E1,-1.177508068E1
3.842905581E0,4.625924587E0,1.501675701E1,-1.083709335E1
3.845310737E0,2.198405743E0,1.319761372E1,-6.996613503E0
3.847715841E0,3.738785386E-1,1.088495064E1,-3.869792461E0
3.850120998E0,8.673982322E-2,9.731011391E0,-2.447857618E0
3.852526102E0,3.020938635E-1,8.318049431E0,-2.514856577E0
3.854931258E0,7.429714203E-1,8.011768341E0,-2.505285263E0
3.857336362E0,1.116251707E0,8.207980156E0,-2.648854733E0
3.859741518E0,1.446461320E0,8.351549149E0,-2.285145521E0
3.862146623E0,1.585245013E0,8.337192535E0,-1.614557028E0
3.864551779E0,1.700698733E0,9.113064766E0,-1.174277663E0
3.866956935E0,1.820339799E0,1.017607689E1,-9.589236975E-1
3.869362039E0,1.805982947E0,1.152144146E1,-1.346560955E0
3.871767196E0,1.479960799E0,1.117687416E1,-2.127219439E0
3.874172300E0,9.296116233E-1,1.088973618E1,-2.600998163E0
3.876577456E0,4.600201547E-1,1.110030460E1,-2.581855536E0
3.878982560E0,6.759724021E-2,1.047757244E1,-2.414358139E0
3.881387716E0,-5.114658475E-1,1.067916775E1,-1.945364833E0
3.883792821E0,-5.742774606E-1,1.116730309E1,-1.590628862E0
3.886197977E0,-6.269195080E-1,1.132522964E1,-1.231705427E0
3.888603081E0,-8.183453679E-1,1.140658569E1,-6.717849374E-1
3.891008237E0,-1.215553880E0,1.147358418E1,-4.558327198E-1
3.893413341E0,-1.239482164E0,1.144487095E1,-8.632107973E-1
3.895818498E0,-1.143769264E0,1.144487095E1,-9.684949517E-1
3.898223654E0,-1.067198873E0,1.179003525E1,-6.334998012E-1
3.900628758E0,-1.344766378E0,1.158843994E1,-4.510470629E-1
3.903033914E0,-1.048056364E0,1.156451225E1,-3.314059377E-1
3.905439018E0,-8.853443861E-1,1.136351490E1,-3.888336718E-1
3.907844175E0,-8.709874153E-1,1.131087303E1,-5.228317380E-1
3.910249279E0,-6.125625968E-1,1.131565857E1,-5.467599630E-1
3.912654435E0,-1.190429255E-1,1.135394382E1,-5.904290080E-1
3.915059539E0,-6.640082598E-2,1.134437180E1,-5.904290080E-1
3.917464696E0,-2.721835673E-1,1.028614616E1,-6.334998012E-1
3.919869800E0,-8.183453679E-1,8.078767776E0,-1.116850019E0
3.922274956E0,1.824527234E-1,8.577073097E0,-1.054636598E0
3.924680060E0,7.621139884E-1,9.194420815E0,-3.469592705E-2
3.927085216E0,1.398604870E0,9.500701904E0,8.368897438E-1
3.929490321E0,1.762912035E0,9.951150894E0,5.347958803E-1
3.931895477E0,1.968694806E0,1.029571724E1,-3.457628787E-1
3.934300633E0,1.901695848E0,1.048714352E1,-1.145563841E0
3.936705737E0,2.002194405E0,1.058285618E1,-1.533201098E0
3.939110893E0,2.174477577E0,1.071266651E1,-1.758724689E0
3.941515998E0,2.576471806E0,1.084666538E1,-1.911865234E0
3.943921154E0,2.849851847E0,1.118644619E1,-2.079362869E0
3.946326258E0,2.988635540E0,1.135394382E1,-1.983649969E0
3.948731414E0,3.017349243E0,1.153579807E1,-1.998006940E0
3.951136518E0,3.060420275E0,1.142094231E1,-2.031506538E0
3.953541675E0,3.543770313E0,1.139701462E1,-2.337787628E0
3.955946831E0,3.610769272E0,1.144008541E1,-2.309073925E0
3.958351935E0,3.975076675E0,1.148315620E1,-2.404786825E0
3.960757091E0,4.056432724E0,1.155015469E1,-2.404786825E0
3.963162196E0,4.051646709E0,1.187139130E1,-2.758924484E0
3.965567352E0,4.022933006E0,1.200538921E1,-2.744567633E0
3.967972456E0,3.792623997E0,1.193839073E1,-2.658426046E0
3.970377612E0,3.845266104E0,1.200060368E1,-2.624926329E0
3.972782716E0,3.951148272E0,1.216810131E1,-3.123231649E0
3.975187873E0,3.802195072E0,1.242174053E1,-3.185445070E0
3.977592977E0,3.720839262E0,1.203888893E1,-2.715853691E0
3.979998133E0,3.821337700E0,1.171286678E1,-2.237289190E0
3.982403289E0,4.046861172E0,1.178524971E1,-2.318645239E0
3.984808393E0,4.176073551E0,1.211545944E1,-2.352144718E0
3.987213550E0,4.027718544E0,1.225902843E1,-2.342573404E0
3.989618654E0,3.946362734E0,1.221595764E1,-2.376072884E0
3.992023810E0,3.912265062E0,1.274237919E1,-3.199802160E0
3.994428966E0,4.338785648E0,1.153579807E1,-1.935793519E0
3.996834071E0,3.486342669E0,1.020479012E1,-1.083350420E0
3.999239227E0,2.643470764E0,8.457431793E0,-1.456630826E0
4.001644331E0,2.662613392E0,7.403991699E0,-1.734796405E0
4.004049487E0,3.237488985E0,7.264609337E0,-7.387840152E-1
4.006454591E0,4.353142738E0,7.475776196E0,1.052243710E0
4.008859748E0,5.296513081E0,7.054041386E0,2.445464849E0
4.011264852E0,4.956133842E0,6.589833736E0,3.221337557E0
4.013670008E0,5.621936798E0,6.800402164E0,3.905684710E0
4.016075112E0,5.008776188E0,7.734200954E0,3.044268608E0
4.018480268E0,5.032704353E0,8.778069496E0,1.713261008E0
4.020885425E0,5.454439163E0,9.908080101E0,-5.862415582E-2
4.023290529E0,5.693721294E0,1.087537861E1,-1.222134113E0
4.025695685E0,5.511867046E0,1.158843994E1,-1.466202021E0
4.028100789E0,5.382654667E0,1.198146152E1,-1.801795483E0
4.030505946E0,5.081159115E0,1.230209923E1,-1.797009826E0
4.032911050E0,4.511068821E0,1.222552872E1,-1.384846091E0
4.035316206E0,4.128217220E0,1.210588837E1,-8.775677085E-1
4.037721362E0,3.878765583E0,1.201974678E1,-5.712863803E-1
4.040126466E0,3.385843992E0,1.195274734E1,-4.271188378E-1
4.042531623E0,3.050848961E0,1.208195972E1,-6.334998012E-1
4.044936727E0,2.633899450E0,1.262273788E1,-8.967102766E-1
4.047341883E0,2.447259426E0,1.270409393E1,-1.222134113E0
4.049746987E0,2.308475733E0,1.174158096E1,-2.088934183E0
4.052152143E0,2.150549412E0,1.082752228E1,-2.471785784E0
4.054557300E0,2.547757864E0,1.035314560E1,-2.333002090E0
4.056962404E0,2.557329178E0,1.011386299E1,-2.457428932E0
4.059367560E0,2.681756020E0,1.008993530E1,-2.318645239E0
4.061772664E0,2.734398127E0,1.008514881E1,-2.093719721E0
4.064177821E0,2.801397085E0,1.008993530E1,-1.907079697E0
4.066582925E0,2.700898647E0,9.970293999E0,-1.787438512E0
4.068988081E0,2.643470764E0,1.005165005E1,-1.797009826E0
4.071393185E0,2.662613392E0,9.984650612E0,-1.897508383E0
4.073798341E0,2.681756020E0,9.946365356E0,-2.002792597E0
4.076203498E0,2.729612350E0,9.850652695E0,-2.060220242E0
4.078608602E0,2.811566591E0,9.951150894E0,-2.108076811E0
4.081013758E0,2.940778971E0,9.826724052E0,-2.251646042E0
4.083418862E0,3.256631613E0,1.005643559E1,-2.371287346E0
4.085824018E0,3.381058455E0,9.932008743E0,-2.533999205E0
4.088229175E0,3.203989506E0,9.817152977E0,-2.763710260E0
4.090634279E0,3.582055569E0,9.836296082E0,-2.903092146E0
4.093039435E0,4.257429600E0,9.922437668E0,-2.903092146E0
4.095444539E0,4.544568539E0,1.000379372E1,-2.850450039E0
4.097849696E0,4.405784607E0,1.012821960E1,-2.653640270E0
4.100254800E0,4.353142738E0,1.025264645E1,-2.443071842E0
4.102659956E0,4.511068821E0,1.026700401E1,-2.261217356E0
4.105065112E0,4.204787731E0,1.003729248E1,-2.361716032E0
4.107470216E0,3.951148272E0,9.979865074E0,-2.232503414E0
4.109875373E0,3.873979807E0,1.002772141E1,-2.045863390E0
4.112280477E0,3.893122435E0,9.979865074E0,-1.978864312E0
4.114685633E0,3.759124279E0,9.903294563E0,-1.945364833E0
4.117090737E0,3.701696634E0,9.869794846E0,-1.978864312E0
4.119495893E0,3.917050600E0,9.735796928E0,-1.873580098E0
4.121900998E0,3.644268990E0,9.203991890E0,-2.045863390E0
4.124306154E0,3.567698479E0,8.711071014E0,-2.711068153E0
4.126711310E0,3.247060299E0,8.629714966E0,-2.428714991E0
4.129116414E0,3.060420275E0,8.126624107E0,-2.605783939E0
4.131521571E0,4.061218262E0,6.814758778E0,-4.253242016E0
4.133926675E0,4.257429600E0,6.814758778E0,-5.158327579E0
4.136331831E0,3.371487141E0,7.451848030E0,-4.995017052E0
4.138736987E0,2.643470764E0,8.097909927E0,-4.660022259E0
4.141142091E0,1.935195327E0,8.691927910E0,-3.137588739E0
4.143547248E0,2.365903378E0,8.203194618E0,-1.763510346E0
4.145952352E0,2.964707375E0,8.011768341E0,-1.121635556E0
4.148357508E0,3.026920557E0,8.131409645E0,-7.818548083E-1
4.150762612E0,3.012563705E0,8.365905762E0,-3.266202807E-1
4.153167768E0,2.979064226E0,8.514859200E0,3.708875179E-2
4.155572925E0,2.835494757E0,8.610571861E0,1.998006850E-1
4.157978029E0,2.696112871E0,8.548358917E0,1.710868180E-1
4.160383185E0,1.935195327E0,8.198408127E0,-1.011565804E0
4.162788289E0,1.345962763E0,8.002197266E0,-1.825723648E0
4.165193446E0,7.621139884E-1,8.054839134E0,-1.921436548E0
4.167598602E0,-7.118647546E-2,8.236693382E0,-1.609771490E0
4.170003706E0,-6.077769399E-1,8.615358353E0,-1.088136077E0
4.172408862E0,-1.134197950E0,8.959924698E0,-4.079762697E-1
4.174813966E0,-1.598405480E0,9.328418732E0,2.476571500E-1
4.177219123E0,-1.862214208E0,9.740582466E0,8.991031051E-1
4.179624227E0,-2.067996979E0,1.019521904E1,1.411167145E0
4.182029383E0,-2.158924341E0,1.053499985E1,1.923829436E0
4.184434539E0,-2.010569334E0,1.072702408E1,2.354537487E0
4.186839643E0,-1.761715651E0,1.065464115E1,2.770888567E0
4.189244800E0,-8.662018180E-1,1.025743294E1,3.120838881E0
4.191649904E0,4.169493318E-1,9.836296082E0,3.398406267E0
4.194055060E0,1.503889084E0,9.664012909E0,3.537189960E0
4.196460216E0,2.212762833E0,9.601799011E0,3.589832067E0
4.198865321E0,2.681756020E0,9.687940598E0,3.599403381E0
4.201270477E0,3.266202927E0,9.869794846E0,3.642474174E0
4.203675581E0,3.634697676E0,1.001815033E1,3.671188116E0
4.206080737E0,3.692125320E0,1.016171932E1,3.642474174E0
4.208485893E0,3.505485058E0,1.026221848E1,3.541975737E0
4.210890998E0,3.194418192E0,1.038185883E1,3.336193085E0
4.213296154E0,2.969492912E0,1.041057301E1,3.049054146E0
4.215701258E0,2.696112871E0,1.045842934E1,2.713460922E0
4.218106414E0,2.533401012E0,1.045364380E1,2.254039049E0
4.220511571E0,2.428116798E0,1.041057301E1,1.765903115E0
4.222916675E0,2.408974171E0,1.038664532E1,1.315454245E0
4.225321831E0,2.408974171E0,1.031964588E1,8.368897438E-1
4.227726935E0,2.437688112E0,1.022393322E1,3.433700502E-1
4.230132091E0,2.442473650E0,1.014257717E1,-1.304088384E-1
4.232537196E0,2.442473650E0,1.008993530E1,-5.760720372E-1
4.234942352E0,2.408974171E0,1.014257717E1,-9.780662656E-1
4.237347508E0,2.375474691E0,1.012821960E1,-1.336989641E0
4.239752612E0,2.361117840E0,1.010429192E1,-1.667199135E0
4.242157768E0,2.356332064E0,1.003729248E1,-1.926222205E0
4.244562925E0,2.346760750E0,9.979865074E0,-2.112862349E0
4.246968029E0,2.303689957E0,9.922437668E0,-2.189432621E0
4.249373185E0,2.294118643E0,9.879366875E0,-2.194218397E0
4.251778289E0,2.246262312E0,9.874580383E0,-2.112862349E0
4.254183446E0,2.207977057E0,9.884152412E0,-1.993221283E0
4.256588602E0,2.160120726E0,9.898509026E0,-1.744367719E0
4.258993706E0,2.102692842E0,9.903294563E0,-1.466202021E0
4.261398862E0,2.083550215E0,9.879366875E0,-1.159920812E0
4.263803966E0,2.026122570E0,9.903294563E0,-7.962117195E-1
4.266209123E0,1.983051777E0,9.898509026E0,-4.462614357E-1
4.268614227E0,1.882553220E0,9.850652695E0,-1.112662554E-1
4.271019383E0,1.489532113E0,9.817152977E0,1.854437590E-1
4.273424539E0,1.503889084E0,9.740582466E0,4.486542344E-1
4.275829643E0,1.777269006E0,9.711869240E0,6.167500615E-1
4.278234800E0,2.030908108E0,9.726225853E0,7.172485590E-1
4.280639956E0,2.169692039E0,9.697511673E0,8.225327730E-1
4.283045060E0,2.193620205E0,9.740582466E0,8.273184299E-1
4.285450216E0,2.136192322E0,9.740582466E0,8.368897438E-1
4.287855321E0,2.045265198E0,9.702297211E0,7.842476368E-1
4.290260477E0,1.997408748E0,9.750154495E0,6.502495408E-1
4.292665633E0,1.935195327E0,9.721440315E0,5.204389095E-1
4.295070737E0,1.825125456E0,9.649655342E0,3.194418252E-1
4.297475893E0,1.801197290E0,9.616155624E0,1.136590764E-1
4.299880998E0,1.829911113E0,9.573084831E0,-4.905286431E-2
4.302286154E0,1.901695848E0,9.573084831E0,-2.117647976E-1
4.304691310E0,1.935195327E0,9.534201622E0,-3.888336718E-1
4.307096414E0,1.983051777E0,9.505488396E0,-5.324030519E-1
4.309501571E0,1.997408748E0,9.486345291E0,-6.669993401E-1
4.311906675E0,1.949552298E0,9.515059471E0,-7.818548083E-1
4.314311831E0,1.973480463E0,9.495916367E0,-8.297112584E-1
4.316716987E0,1.949552298E0,9.519845009E0,-9.062815905E-1
4.319122091E0,1.968694806E0,9.538987160E0,-9.014959335E-1
4.321527248E0,1.973480463E0,9.558728218E0,-9.254241586E-1
4.323932352E0,2.030908108E0,9.549157143E0,-8.919246197E-1
4.326337508E0,2.083550215E0,9.606584549E0,-8.297112584E-1
4.328742664E0,2.097907305E0,9.649655342E0,-7.914260626E-1
4.331147768E0,2.083550215E0,9.659226418E0,-6.717849374E-1
4.333552925E0,2.107478619E0,9.649655342E0,-5.904290080E-1
4.335958029E0,2.121835470E0,9.716654778E0,-4.893322289E-1
4.338363185E0,2.126621008E0,9.764511108E0,-4.319044948E-1
4.340768341E0,2.184048891E0,9.807581902E0,-3.361915946E-1
4.343173446E0,2.179263115E0,9.802796364E0,-2.691925466E-1
4.345578602E0,2.236690998E0,9.845867157E0,-2.117647976E-1
4.347983706E0,2.251047850E0,9.855438232E0,-1.734796464E-1
4.350388862E0,2.298904419E0,9.912865639E0,-1.639083475E-1
4.352794018E0,2.035693884E0,9.654440880E0,-1.555334684E-2
4.355199123E0,1.695913076E0,9.500701904E0,3.098705411E-1
4.357604279E0,1.666600943E0,9.481559753E0,5.347958803E-1
4.360009383E0,1.729412556E0,9.462417603E0,6.167500615E-1
4.362414539E0,1.628315806E0,9.390632629E0,5.688936114E-1
4.364819696E0,1.436890006E0,9.208778381E0,-2.033899166E-2
4.367224800E0,2.011765718E0,8.945567131E0,-7.866404653E-1
4.369629956E0,2.921636343E0,8.825926781E0,-8.201399446E-1
4.372035112E0,3.548556089E0,8.897710800E0,-8.297112584E-1
4.374440216E0,3.878765583E0,9.046066284E0,-8.775677085E-1
4.376845373E0,3.932005882E0,9.237491608E0,-8.632107973E-1
4.379250477E0,3.720839262E0,9.381061554E0,-8.297112584E-1
4.381655633E0,3.438486099E0,9.371489525E0,-7.818548083E-1
4.384060789E0,3.290131092E0,9.309276581E0,-8.249256015E-1
4.386465893E0,3.223132133E0,9.361918449E0,-9.637092948E-1
4.388871050E0,3.074777126E0,9.529416084E0,-1.155135155E0
4.391276154E0,3.098705292E0,9.534201622E0,-1.308275819E0
4.393681310E0,4.917848587E0,8.217551231E0,-1.418345571E0
4.396086466E0,5.593223095E0,7.925626755E0,-1.691725612E0
4.398491571E0,5.382654667E0,7.456633568E0,-1.849651933E0
4.400896727E0,5.363512039E0,7.250252724E0,-1.744367719E0
4.403301831E0,5.248656273E0,7.619345665E0,-1.585843205E0
4.405706987E0,5.105087280E0,8.002197266E0,-1.332203984E0
4.408112143E0,4.999204636E0,8.193622589E0,-1.131206870E0
4.410517248E0,4.659423828E0,8.452646255E0,-1.001994491E0
4.412922404E0,4.262215137E0,8.945567131E0,-8.823533654E-1
4.415327560E0,3.787838221E0,8.644071579E0,-8.536394835E-1
4.417732664E0,3.433700562E0,7.351349354E0,-1.365703583E0
4.420137821E0,3.256631613E0,7.877770424E0,-6.813562512E-1
4.422542925E0,3.050848961E0,8.164909363E0,-2.213360965E-1
4.424948081E0,2.681756020E0,8.476573944E0,-4.905286431E-2
4.427353237E0,2.399402857E0,8.687142372E0,-1.447657645E-1
4.429758341E0,2.150549412E0,8.801998138E0,-3.649054468E-1
4.432163498E0,2.026122570E0,8.945567131E0,-5.617151260E-1
4.434568654E0,1.925624013E0,9.041280746E0,-6.334998012E-1
4.436973758E0,1.834696770E0,8.974281311E0,-6.191428304E-1
4.439378914E0,1.767697692E0,8.945567131E0,-5.712863803E-1
4.441784018E0,1.691127419E0,8.845068932E0,-4.223332107E-1
4.444189175E0,1.642672777E0,8.639286041E0,-2.787638307E-1
4.446594331E0,1.599601984E0,8.452646255E0,-1.591227055E-1
4.448999435E0,1.561316729E0,8.169694901E0,-4.905286431E-2
4.451404591E0,1.647458434E0,8.006982803E0,3.589233849E-3
4.453809748E0,1.734198213E0,7.805985451E0,4.666004330E-2
4.456214852E0,1.815554142E0,7.624131203E0,4.187439755E-2
4.458620008E0,1.935195327E0,7.341778278E0,7.058826834E-2
4.461025112E0,1.963909149E0,7.164111137E0,6.101697683E-2
4.463430268E0,1.949552298E0,6.977470875E0,8.015955985E-2
4.465835425E0,1.858624935E0,6.843472958E0,1.280160099E-1
4.468240529E0,1.810768485E0,6.680760860E0,1.423729509E-1
4.470645685E0,1.762912035E0,6.513263226E0,1.232303679E-1
4.473050841E0,1.700698733E0,6.374479294E0,8.973085135E-2
4.475455946E0,1.633101463E0,6.278766632E0,5.144568533E-2
4.477861102E0,1.680957913E0,6.230910301E0,6.580262631E-2
4.480266258E0,1.590030670E0,6.153741837E0,1.232303679E-1
4.482671362E0,1.542174220E0,6.053243160E0,1.663011760E-1
4.485076518E0,1.499103427E0,5.943173409E0,2.380858511E-1
4.487481623E0,1.489532113E0,5.876173973E0,2.524427772E-1
4.489886779E0,1.499103427E0,5.723033428E0,3.385843933E-1
4.492291935E0,1.513460279E0,5.641677380E0,4.677968323E-1
4.494697039E0,1.527817249E0,5.665606022E0,4.438686073E-1
4.497102196E0,1.532602906E0,5.636891842E0,5.204389095E-1
4.499507300E0,1.503889084E0,5.656034470E0,6.454638839E-1
4.501912456E0,1.451246977E0,5.794818401E0,6.646065116E-1
4.504317612E0,1.374676585E0,5.895316601E0,8.273184299E-1
4.506722716E0,1.465603828E0,6.072385788E0,9.182456732E-1
4.509127873E0,1.532602906E0,6.250052929E0,8.799605370E-1
4.511533029E0,1.556531072E0,6.431907177E0,1.061815023E0
4.513938133E0,1.465603828E0,6.551548481E0,1.114457130E0
4.516343289E0,1.479960799E0,6.843472958E0,1.066600680E0
4.518748446E0,1.412961721E0,7.101897717E0,1.009172916E0
4.521153550E0,1.293320656E0,7.418348312E0,1.037886858E0
4.523558706E0,1.092323542E0,7.853842258E0,1.109671474E0
4.525963810E0,6.759724021E-1,8.394619942E0,8.081758618E-1
4.528368966E0,3.888336942E-2,9.290133476E0,3.912265003E-1
4.530774123E0,-7.704889178E-1,1.107637596E1,3.912265003E-1
4.533179227E0,-1.718644857E0,1.268016529E1,2.043470621E0
4.535584383E0,-2.383849621E0,1.316889954E1,1.780260086E0
4.537989539E0,-2.307279348E0,1.335075378E1,1.358525038E0
4.540394643E0,-1.689931035E0,1.305404377E1,4.821537733E-1
4.542799800E0,-9.619147182E-1,1.233559895E1,-6.669993401E-1
4.545204904E0,-4.827519655E-1,1.207717419E1,-1.614557028E0
4.547610060E0,-1.525424421E-1,1.194317627E1,-1.763510346E0
4.550015216E0,-9.511470050E-2,1.196710396E1,-2.007578135E0
4.552420321E0,-4.157529473E-1,1.238345528E1,-2.318645239E0
4.554825477E0,-8.231309652E-1,1.301575851E1,-4.319044948E-1
4.557230633E0,-1.325623751E0,1.350389481E1,-2.739782035E-1
4.559635737E0,-1.718644857E0,1.382931805E1,-1.495514214E-1
4.562040893E0,-1.919641972E0,1.402552986E1,-7.298108935E-2
4.564445998E0,-1.838286042E0,1.418883991E1,-4.426721856E-2
4.566851154E0,-1.819143414E0,1.434676647E1,-9.212367237E-2
4.569256310E0,-1.838286042E0,1.452383518E1,-4.893322289E-1
4.571661466E0,-1.593619823E0,1.455254936E1,-6.861419082E-1
4.574066571E0,-1.062413216E0,1.446162224E1,-1.011565804E0
4.576471727E0,-5.258227587E-1,1.428933907E1,-1.389631748E0
4.578876831E0,-2.099701911E-1,1.422712517E1,-1.490130305E0
4.581281987E0,2.063809484E-1,1.417926884E1,-1.447059512E0
4.583687143E0,4.217349887E-1,1.411705494E1,-1.418345571E0
4.586092248E0,6.233302951E-1,1.416012573E1,-1.384846091E0
4.588497404E0,8.530412912E-1,1.405962753E1,-1.351346612E0
4.590902560E0,1.063609719E0,1.403091335E1,-1.116850019E0
4.593307664E0,1.317248821E0,1.405005646E1,-1.040279627E0
4.595712821E0,1.513460279E0,1.408834171E1,-8.105686903E-1
4.598117977E0,1.566102386E0,1.396810246E1,-7.435696125E-1
4.600523081E0,1.633101463E0,1.393938828E1,-8.297112584E-1
4.602928237E0,1.705484390E0,1.412662697E1,-5.952146053E-1
4.605333341E0,1.805982947E0,1.431326675E1,-5.228317380E-1
4.607738498E0,1.959123492E0,1.430848122E1,-6.191428304E-1
4.610143654E0,2.160120726E0,1.442812252E1,-1.174277663E0
4.612548758E0,2.313261271E0,1.439940834E1,-8.632107973E-1
4.614953914E0,2.418545485E0,1.453819180E1,-1.830509305E-1
4.617359071E0,2.519043922E0,1.470090389E1,3.672982752E-1
4.619764175E0,2.437688112E0,1.493540096E1,4.869394004E-1
4.622169331E0,2.332403898E0,1.517528152E1,4.630111754E-1
4.624574487E0,2.423331022E0,1.527577972E1,4.486542344E-1
4.626979591E0,2.155334949E0,1.339861012E1,3.098705411E-1
4.629384748E0,1.628315806E0,1.170808125E1,1.902294010E-1
4.631789852E0,1.479960799E0,1.101416302E1,2.476571500E-1
4.634195008E0,1.503889084E0,1.081795120E1,2.476571500E-1
4.636600164E0,1.523031592E0,1.078445148E1,3.002992272E-1
4.639005268E0,1.503889084E0,1.077966595E1,3.481557071E-1
4.641410425E0,1.479960799E0,1.078923702E1,3.816552162E-1
4.643815581E0,1.408176184E0,1.075573826E1,4.630111754E-1
4.646220685E0,1.374676585E0,1.084666538E1,4.965106845E-1
4.648625841E0,1.465603828E0,1.090887833E1,4.438686073E-1
4.651030998E0,1.570888042E0,1.098066330E1,3.290131092E-1
4.653436102E0,1.542174220E0,1.096630573E1,2.333002090E-1
4.655841258E0,1.446461320E0,1.088495064E1,3.242274821E-1
4.658246414E0,1.451246977E0,1.090887833E1,7.537391037E-2
4.660651518E0,1.470389485E0,1.077488041E1,-7.298108935E-2
4.663056675E0,1.460818172E0,1.056849957E1,-1.208375469E-1
4.665461831E0,1.470389485E0,1.038664532E1,-1.830509305E-1
4.667866935E0,1.465603828E0,1.029571724E1,-3.457628787E-1
4.670272091E0,2.040479422E0,1.011386299E1,-1.595414519E0
4.672677196E0,2.327618122E0,9.970293999E0,-3.065804005E0
4.675082352E0,2.016551256E0,9.860223770E0,-3.386442184E0
4.677487508E0,1.575673699E0,9.745368004E0,-3.262015581E0
4.679892612E0,1.188036442E0,9.625727654E0,-2.912663460E0
4.682297768E0,1.073180914E0,9.510273933E0,-2.495713949E0
4.684702925E0,1.116251707E0,9.457631111E0,-1.959721804E0
4.687108029E0,1.197607756E0,9.467203140E0,-1.485344648E0
4.689513185E0,1.274178028E0,9.505488396E0,-1.059422255E0
4.691918341E0,1.269392371E0,9.538987160E0,-6.334998012E-1
4.694323446E0,1.240678549E0,9.573084831E0,-1.160518974E-1
4.696728602E0,1.221535921E0,9.558728218E0,2.380858511E-1
4.699133758E0,1.159322619E0,9.544371605E0,4.677968323E-1
4.701538862E0,1.149751306E0,9.529416084E0,5.880361795E-1
4.703944018E0,1.183250785E0,9.510273933E0,6.454638839E-1
4.706349175E0,1.178465128E0,9.471988678E0,6.311069727E-1
4.708754279E0,1.188036442E0,9.448060036E0,5.688936114E-1
4.711159435E0,1.135394335E0,9.395418167E0,4.917250574E-1
4.713564591E0,1.106680512E0,9.409774780E0,3.529413342E-1
4.715969696E0,1.082752228E0,9.404989243E0,1.806581169E-1
4.718374852E0,1.125823021E0,9.342776299E0,3.589233849E-3
4.720780008E0,1.111466169E0,9.314062119E0,-1.543370634E-1
4.723185112E0,1.010967612E0,9.357132912E0,-3.553341627E-1
4.725590268E0,9.966106415E-1,9.404989243E0,-5.856433511E-1
4.727995425E0,9.487541914E-1,9.424132347E0,-6.813562512E-1
4.730400529E0,9.822536707E-1,9.467203140E0,-7.292127013E-1
4.732805685E0,9.966106415E-1,9.538987160E0,-6.909275651E-1
4.735210841E0,9.391828775E-1,9.553942680E0,-6.382854581E-1
4.737615946E0,9.248259664E-1,9.601799011E0,-5.467599630E-1
4.740021102E0,9.104689956E-1,9.659226418E0,-4.749752879E-1
4.742426206E0,9.152546525E-1,9.702297211E0,-4.079762697E-1
4.744831362E0,8.769695163E-1,9.783653259E0,-3.409772217E-1
4.747236518E0,8.578268886E-1,9.855438232E0,-2.404786795E-1
4.749641623E0,8.386843204E-1,9.884152412E0,-2.117647976E-1
4.752046779E0,8.530412912E-1,9.908080101E0,-2.069791555E-1
4.754451935E0,8.769695163E-1,9.984650612E0,-2.691925466E-1
4.756857039E0,8.530412912E-1,1.001815033E1,-2.261217386E-1
4.759262196E0,8.721838593E-1,1.005643559E1,-2.356930375E-1
4.761667352E0,8.961120844E-1,1.008036327E1,-2.691925466E-1
4.764072456E0,8.865407705E-1,1.009950638E1,-2.691925466E-1
4.766477612E0,9.583254457E-1,1.015693378E1,-3.170489967E-1
4.768882768E0,9.200403094E-1,1.016171932E1,-3.314059377E-1
4.771287873E0,9.391828775E-1,1.018086243E1,-3.409772217E-1
4.773693029E0,9.726824164E-1,1.020000458E1,-3.266202807E-1
4.776098185E0,1.001396298E0,1.020957565E1,-3.457628787E-1
4.778503289E0,9.966106415E-1,1.022871876E1,-3.409772217E-1
4.780908446E0,1.001396298E0,1.023350430E1,-3.457628787E-1
4.783313602E0,1.010967612E0,1.022393322E1,-3.361915946E-1
4.785718706E0,1.034895778E0,1.021914768E1,-3.840480447E-1
4.788123862E0,1.020538807E0,1.021914768E1,-3.696911037E-1
4.790529018E0,1.025324464E0,1.020000458E1,-3.984049559E-1
4.792934123E0,1.030110121E0,1.017129040E1,-3.984049559E-1
4.795339279E0,1.039681435E0,1.018564796E1,-4.127618968E-1
4.797744435E0,1.073180914E0,1.017607689E1,-4.558327198E-1
4.800149539E0,1.063609719E0,1.016171932E1,-4.749752879E-1
4.802554696E0,1.082752228E0,1.016650486E1,-5.276173949E-1
4.804959800E0,1.116251707E0,1.016171932E1,-5.856433511E-1
4.807364956E0,1.121037364E0,1.013300610E1,-5.419743061E-1
4.809770112E0,1.140179992E0,1.015693378E1,-5.904290080E-1
4.812175216E0,1.140179992E0,1.017607689E1,-5.808576941E-1
4.814580373E0,1.173679471E0,1.017129040E1,-5.712863803E-1
4.816985529E0,1.192822099E0,1.014736271E1,-6.287141442E-1
4.819390685E0,1.192822099E0,1.015214825E1,-6.000002623E-1
4.821795789E0,1.211964726E0,1.016650486E1,-6.000002623E-1
4.824200946E0,1.231107235E0,1.016650486E1,-5.760720372E-1
4.826606050E0,1.264606714E0,1.020957565E1,-5.712863803E-1
4.829011206E0,1.302891970E0,1.020479012E1,-5.617151260E-1
4.831416362E0,1.307677627E0,1.021436119E1,-5.419743061E-1
4.833821466E0,1.317248821E0,1.024307537E1,-5.419743061E-1
4.836226623E0,1.384247899E0,1.022871876E1,-5.904290080E-1
4.838631779E0,1.393819213E0,1.023828983E1,-5.856433511E-1
4.841036935E0,1.422533035E0,1.024786091E1,-5.808576941E-1
4.843442039E0,1.427318692E0,1.019521904E1,-6.191428304E-1
4.845847196E0,1.446461320E0,1.022393322E1,-6.239284873E-1
4.848252300E0,1.451246977E0,1.021914768E1,-6.000002623E-1
4.850657456E0,1.465603828E0,1.024786091E1,-6.143572330E-1
4.853062612E0,1.465603828E0,1.019043350E1,-6.047859192E-1
4.855467716E0,1.518245935E0,1.018564796E1,-6.287141442E-1
4.857872873E0,1.508674622E0,1.021914768E1,-6.574280262E-1
4.860278029E0,1.527817249E0,1.021914768E1,-6.478567123E-1
4.862683133E0,1.513460279E0,1.021436119E1,-6.191428304E-1
4.865088289E0,1.580459356E0,1.020000458E1,-6.239284873E-1
4.867493446E0,1.556531072E0,1.015214825E1,-6.239284873E-1
4.869898602E0,1.599601984E0,1.016171932E1,-6.191428304E-1
4.872303706E0,1.594816327E0,1.020000458E1,-6.287141442E-1
4.874708862E0,1.637887120E0,1.016650486E1,-6.191428304E-1
4.877114018E0,1.700698733E0,1.019043350E1,-6.143572330E-1
4.879519123E0,1.700698733E0,1.015693378E1,-6.143572330E-1
4.881924279E0,1.753340840E0,1.017129040E1,-6.287141442E-1
4.884329435E0,1.753340840E0,1.018086243E1,-6.334998012E-1
4.886734539E0,1.748555183E0,1.018086243E1,-5.808576941E-1
4.889139696E0,1.805982947E0,1.014736271E1,-5.760720372E-1
4.891544852E0,1.801197290E0,1.018086243E1,-5.808576941E-1
4.893949956E0,1.829911113E0,1.015693378E1,-6.047859192E-1
4.896355112E0,1.849053741E0,1.017607689E1,-6.287141442E-1
4.898760216E0,1.858624935E0,1.020000458E1,-6.287141442E-1
4.901165373E0,1.892124534E0,1.019043350E1,-6.861419082E-1
4.903570529E0,1.925624013E0,1.019043350E1,-7.339983582E-1
4.905975685E0,1.954337835E0,1.020000458E1,-7.770691514E-1
4.908380789E0,1.987837434E0,1.018086243E1,-8.105686903E-1
4.910785946E0,2.059622049E0,1.019521904E1,-8.344969153E-1
4.913191102E0,2.069193363E0,1.021436119E1,-8.249256015E-1
4.915596206E0,2.088335991E0,1.026700401E1,-8.344969153E-1
4.918001362E0,2.093121529E0,1.029093170E1,-8.584251404E-1
4.920406518E0,2.107478619E0,1.029093170E1,-8.440681696E-1
4.922811623E0,2.164906263E0,1.030528927E1,-8.392825127E-1
4.925216779E0,2.164906263E0,1.033878803E1,-8.440681696E-1
4.927621935E0,2.136192322E0,1.036271667E1,-8.488538265E-1
4.930027039E0,2.198405743E0,1.034836006E1,-8.392825127E-1
4.932432196E0,2.212762833E0,1.034357452E1,-8.392825127E-1
4.934837352E0,2.193620205E0,1.033400249E1,-8.392825127E-1
4.937242456E0,2.212762833E0,1.031007481E1,-7.914260626E-1
4.939647612E0,2.203191519E0,1.027657509E1,-7.627122402E-1
4.942052768E0,2.184048891E0,1.021914768E1,-7.627122402E-1
4.944457873E0,2.198405743E0,1.018086243E1,-7.292127013E-1
4.946863029E0,2.203191519E0,1.017607689E1,-7.004988194E-1
4.949268185E0,2.145763636E0,1.011864853E1,-6.669993401E-1
4.951673289E0,2.155334949E0,1.010429192E1,-6.143572330E-1
4.954078446E0,2.174477577E0,1.008514881E1,-5.904290080E-1
4.956483602E0,2.188834429E0,1.005643559E1,-5.808576941E-1
4.958888706E0,2.174477577E0,1.008036327E1,-5.617151260E-1
4.961293862E0,2.207977057E0,1.009472084E1,-5.952146053E-1
4.963699018E0,2.179263115E0,1.010429192E1,-6.143572330E-1
4.966104123E0,2.155334949E0,1.009950638E1,-6.287141442E-1
4.968509279E0,2.136192322E0,1.012343407E1,-6.622136831E-1
4.970914435E0,2.117049932E0,1.015214825E1,-6.765705943E-1
4.973319539E0,2.126621008E0,1.020000458E1,-7.435696125E-1
4.975724696E0,2.155334949E0,1.021914768E1,-8.057830334E-1
4.978129852E0,2.136192322E0,1.027657509E1,-8.344969153E-1
4.980534956E0,2.150549412E0,1.030528927E1,-8.201399446E-1
4.982940112E0,2.164906263E0,1.035314560E1,-8.584251404E-1
4.985345268E0,2.136192322E0,1.040100193E1,-8.536394835E-1
4.987750425E0,2.179263115E0,1.042971611E1,-8.584251404E-1
4.990155529E0,2.188834429E0,1.044407272E1,-8.679963946E-1
4.992560685E0,2.203191519E0,1.052064323E1,-8.871390224E-1
4.994965841E0,2.207977057E0,1.054457092E1,-8.919246197E-1
4.997370946E0,2.246262312E0,1.054457092E1,-8.871390224E-1
4.999776102E0,2.265404940E0,1.058285618E1,-8.584251404E-1
5.002181258E0,2.203191519E0,1.061157036E1,-8.536394835E-1
5.004586362E0,2.179263115E0,1.057328510E1,-7.962117195E-1
5.006991518E0,2.164906263E0,1.057328510E1,-7.627122402E-1
5.009396675E0,2.169692039E0,1.058285618E1,-7.722834945E-1
5.011801779E0,2.255833626E0,1.059242725E1,-7.339983582E-1
5.014206935E0,2.193620205E0,1.057328510E1,-6.813562512E-1
5.016612091E0,2.121835470E0,1.053021431E1,-6.382854581E-1
5.019017196E0,2.093121529E0,1.054457092E1,-5.856433511E-1
5.021422352E0,2.006979942E0,1.047278690E1,-4.749752879E-1
5.023827508E0,1.973480463E0,1.044885826E1,-4.558327198E-1
5.026232612E0,1.896910191E0,1.038664532E1,-3.649054468E-1
5.028637768E0,1.839482427E0,1.035314560E1,-2.979064286E-1
5.031042925E0,1.796411633E0,1.031007481E1,-2.835494876E-1
5.033448029E0,1.715055585E0,1.025743294E1,-2.548356056E-1
5.035853185E0,1.691127419E0,1.020000458E1,-2.356930375E-1
5.038258341E0,1.628315806E0,1.014736271E1,-1.686939895E-1
5.040663446E0,1.551745534E0,1.006122112E1,-1.543370634E-1
5.043068602E0,1.532602906E0,9.989436150E0,-1.447657645E-1
5.045473758E0,1.484746456E0,9.975079536E0,-1.351944804E-1
5.047878914E0,1.384247899E0,9.898509026E0,-9.690931439E-2
5.050284018E0,1.326820135E0,9.802796364E0,-7.776673883E-2
5.052689175E0,1.231107235E0,9.778867722E0,-4.905286431E-2
