"Time (s)","Acceleration x (m/s^2)","Acceleration y (m/s^2)","Acceleration z (m/s^2)"
3.258921400E-2,-4.959039390E-3,2.998131275E0,9.450946808E0
3.505921400E-2,1.658785343E-2,3.022072315E0,9.455734253E0
3.752864100E-2,-2.564936876E-3,3.026860476E0,9.443764687E0
3.999770400E-2,-2.890003473E-2,3.031648636E0,9.405458450E0
4.246655800E-2,-3.608230501E-2,3.053195477E0,9.374335289E0
4.493525600E-2,-1.214133948E-2,3.029254675E0,9.345606804E0
4.740379700E-2,-1.453543454E-2,3.029254675E0,9.331241608E0
4.987218300E-2,7.011465728E-3,3.022072315E0,9.340818405E0
5.234051600E-2,2.616425604E-2,3.022072315E0,9.340818405E0
5.480879700E-2,5.728753284E-2,3.041224957E0,9.328846931E0
5.727707900E-2,5.728753284E-2,3.041224957E0,9.328846931E0
5.974536000E-2,5.728753284E-2,3.041224957E0,9.328846931E0
6.222067200E-2,5.010523647E-2,3.036436796E0,9.302512169E0
6.470254700E-2,6.686392426E-2,2.998131275E0,9.288146973E0
6.718343300E-2,5.010523647E-2,3.014889956E0,9.276177406E0
6.966572400E-2,-2.491571009E-1,3.014889956E0,9.362365723E0
7.214978700E-2,-2.587335110E-1,3.096289396E0,9.400670052E0
7.463332900E-2,-2.467629910E-1,3.165718317E0,9.419823647E0
7.711645400E-2,-2.707040012E-1,3.187265158E0,9.417428970E0
7.959921400E-2,-2.922508717E-1,3.196841478E0,9.374335289E0
8.208161000E-2,-2.587335110E-1,3.177688837E0,9.345606804E0
8.456374500E-2,-2.419748306E-1,3.170506239E0,9.331241608E0
8.704556800E-2,-2.898567915E-1,3.335699320E0,9.185201645E0
8.952702600E-2,-3.209800720E-1,3.407521963E0,9.130137444E0
9.200827600E-2,-4.143499136E-1,3.402734041E0,9.247447968E0
9.448926600E-2,-4.550496340E-1,3.383581161E0,9.189989090E0
9.696999500E-2,-5.077197552E-1,3.402734041E0,9.113378525E0
9.945046400E-2,-4.957492352E-1,3.376398802E0,9.084649086E0
1.019307240E-1,-4.789905548E-1,3.359640360E0,9.110984802E0
1.044108290E-1,-4.502613544E-1,3.304575920E0,9.096620560E0
1.068907240E-1,-4.287145138E-1,3.254299879E0,9.058314323E0
1.093703600E-1,-4.047735333E-1,3.175294638E0,9.070283890E0
1.118497870E-1,-3.975912333E-1,3.122624397E0,9.041555405E0
1.143291100E-1,-3.377387524E-1,3.065165997E0,9.008038521E0
1.168082240E-1,-2.491571009E-1,2.998131275E0,8.960156441E0
1.192871310E-1,-1.749400795E-1,3.002919674E0,8.962550163E0
1.217659330E-1,-1.390285790E-1,2.988554716E0,8.969732285E0
1.242446310E-1,-6.959969550E-2,2.981372595E0,9.017614365E0
1.267231200E-1,-5.762920529E-2,2.983766794E0,9.108590126E0
1.292015060E-1,-2.171773463E-2,3.007707596E0,9.178019524E0
1.316640580E-1,9.798721224E-2,3.000525236E0,9.149290085E0
1.341008810E-1,1.434750855E-1,3.014889956E0,9.225901604E0
1.365273390E-1,2.344508469E-1,2.981372595E0,9.307300568E0
1.389537970E-1,3.326088786E-1,2.943067074E0,9.328846931E0
1.413810890E-1,4.092200696E-1,2.878426313E0,9.357576370E0
1.438083290E-1,3.517616689E-1,2.787450552E0,9.352787971E0
1.462348390E-1,3.661262691E-1,2.684504271E0,9.379123688E0
1.486612970E-1,3.733085692E-1,2.665351629E0,9.309694290E0
1.510885370E-1,3.613380790E-1,2.684504271E0,9.276177406E0
1.535158290E-1,3.685203791E-1,2.684504271E0,9.223506927E0
1.559422870E-1,4.978016913E-1,2.622257710E0,9.166048050E0
1.583687450E-1,6.007479429E-1,2.560011387E0,9.139713287E0
1.607960370E-1,6.749650240E-1,2.514523268E0,9.137319565E0
1.632232760E-1,7.443938851E-1,2.466641426E0,9.125349045E0
1.656497870E-1,8.138227463E-1,2.430729866E0,9.087043762E0
1.680762450E-1,8.928279877E-1,2.433124065E0,9.012825966E0
1.705035370E-1,9.646509290E-1,2.368483305E0,8.991279602E0
1.729307760E-1,1.024503469E0,2.332571745E0,8.962550163E0
1.753572870E-1,1.026897550E0,2.277507544E0,8.926639557E0
1.777837450E-1,1.089144111E0,2.279901505E0,8.881151199E0
1.802109850E-1,1.055626750E0,2.208078861E0,8.861998558E0
1.826382760E-1,1.038868070E0,2.200896263E0,8.890727043E0
1.850647350E-1,1.007744789E0,2.224837303E0,8.873968124E0
1.874911930E-1,9.478922486E-1,2.243990183E0,8.909880638E0
1.899184850E-1,8.712811470E-1,2.212866783E0,8.945791245E0
1.923457240E-1,7.970640659E-1,2.203290462E0,9.022402763E0
1.947722350E-1,7.443938851E-1,2.188925743E0,9.087043762E0
1.971986930E-1,7.060883045E-1,2.133861542E0,9.170837402E0
1.996259850E-1,6.558122039E-1,2.124285221E0,9.254630089E0
2.020532240E-1,7.084823847E-1,2.035703659E0,9.331241608E0
2.044797350E-1,6.773591042E-1,1.932757139E0,9.472493172E0
2.069061930E-1,6.318712234E-1,1.865722418E0,9.498827934E0
2.093334850E-1,6.127184629E-1,1.825022817E0,9.556287766E0
2.117607240E-1,5.744128823E-1,1.777140856E0,9.647262573E0
2.141871830E-1,5.528659821E-1,1.781928897E0,9.659233093E0
2.166136410E-1,6.031420231E-1,1.820234537E0,9.707115173E0
2.190409330E-1,6.246889234E-1,1.825022817E0,9.671203613E0
2.214681720E-1,6.510239840E-1,1.844175577E0,9.754997253E0
2.238946830E-1,6.246889234E-1,1.844175577E0,9.829214096E0
2.263211410E-1,4.978016913E-1,1.777140856E0,9.989618301E0
2.287484330E-1,4.140082598E-1,1.774746656E0,1.004468346E1
2.311757240E-1,3.302147985E-1,1.769958615E0,1.015481091E1
2.336021830E-1,3.589439690E-1,1.808264017E0,1.018832970E1
2.360286410E-1,4.594961107E-1,1.825022817E0,1.018593407E1
2.384559330E-1,5.983538628E-1,1.858540177E0,1.011890030E1
2.408832240E-1,6.797531843E-1,1.865722418E0,1.004707718E1
2.433096310E-1,7.970640659E-1,1.896845698E0,9.975254059E0
2.457360890E-1,8.617047071E-1,1.896845698E0,9.922584534E0
2.481633810E-1,9.574686885E-1,1.860934377E0,9.874702454E0
2.505906720E-1,8.880398273E-1,1.767564416E0,9.879489899E0
2.530171310E-1,9.143748879E-1,1.784323096E0,9.807667732E0
2.554435890E-1,8.952220678E-1,1.731652975E0,9.786120415E0
2.578708810E-1,9.335277081E-1,1.710106015E0,9.788514137E0
2.602981720E-1,9.431040287E-1,1.671800494E0,9.783726692E0
2.627246310E-1,9.407100081E-1,1.683770895E0,9.771755219E0
2.651510890E-1,9.287394881E-1,1.614342093E0,9.771755219E0
2.675783810E-1,9.478922486E-1,1.638283014E0,9.735844612E0
2.700056720E-1,9.814096093E-1,1.743623495E0,9.699932098E0
2.724320790E-1,1.034079790E0,1.777140856E0,9.721479416E0
2.748585370E-1,1.046050310E0,1.815446496E0,9.735844612E0
2.772858810E-1,1.043656230E0,1.908816218E0,9.757390976E0
2.797131200E-1,1.012532949E0,1.947121859E0,9.774148941E0
2.821395790E-1,9.574686885E-1,2.047674179E0,9.790908813E0
2.845660370E-1,9.047985077E-1,2.129073620E0,9.747814178E0
2.869933290E-1,8.377637267E-1,2.136255741E0,9.726268768E0
2.894206200E-1,7.755171061E-1,2.150620222E0,9.733449936E0
2.918470790E-1,7.084823847E-1,2.145832062E0,9.788514137E0
2.942735370E-1,7.491820455E-1,2.160196781E0,9.793302536E0
2.967008290E-1,7.491820455E-1,2.150620222E0,9.766967773E0
2.991281200E-1,7.779112458E-1,2.172167301E0,9.740632057E0
3.015545790E-1,8.497341871E-1,2.191320181E0,9.680780411E0
3.039810370E-1,8.880398273E-1,2.210472822E0,9.649656296E0
3.064083290E-1,8.808574677E-1,2.188925743E0,9.592198372E0
3.088356200E-1,9.047985077E-1,2.169773102E0,9.527557373E0
3.112620260E-1,9.335277081E-1,2.126679420E0,9.496434212E0
3.136884850E-1,9.311335683E-1,2.081191540E0,9.453340530E0
3.161157760E-1,9.095866680E-1,1.997398019E0,9.403064728E0
3.185430680E-1,9.550745487E-1,1.951910019E0,9.379123688E0
3.209695260E-1,9.143748879E-1,1.889663458E0,9.319271088E0
3.233959850E-1,8.904338479E-1,1.846569657E0,9.254630089E0
3.258232760E-1,8.569164872E-1,1.717288375E0,9.343212128E0
3.282505680E-1,8.377637267E-1,1.635888934E0,9.393487930E0
3.306770260E-1,7.946699262E-1,1.602371573E0,9.355182648E0
3.331034850E-1,8.521283269E-1,1.611947894E0,9.268995285E0
3.355307760E-1,9.359217286E-1,1.540125132E0,9.182806969E0
3.379580680E-1,9.646509290E-1,1.489848971E0,9.154078484E0
3.403845260E-1,1.077173591E0,1.441966891E0,9.149290085E0
3.428109850E-1,1.213637352E0,1.427602410E0,9.166048050E0
3.452382760E-1,1.292642593E0,1.398873210E0,9.197172165E0
3.476655680E-1,1.369253635E0,1.346203089E0,9.204354286E0
3.500919740E-1,1.421923876E0,1.315079689E0,9.209142685E0
3.525184330E-1,1.515293717E0,1.274380088E0,9.199565887E0
3.549457240E-1,1.603875399E0,1.209739447E0,9.230689049E0
3.573730160E-1,1.670910239E0,1.145098686E0,9.261812210E0
3.597994740E-1,1.725974441E0,1.152281046E0,9.302512169E0
3.622259330E-1,1.709215641E0,1.116369605E0,9.376729012E0
3.646532240E-1,1.697245121E0,1.061305285E0,9.431793213E0
3.670805160E-1,1.680486560E0,1.003846884E0,9.482069016E0
3.695069740E-1,1.639786839E0,9.248417020E-1,9.522768974E0
3.719334330E-1,1.606269479E0,8.458364606E-1,9.561075211E0
3.743607240E-1,1.594298959E0,7.644370794E-1,9.642474174E0
3.767880160E-1,1.524870157E0,6.902200580E-1,9.719085693E0
3.792144220E-1,1.493746758E0,5.633327961E-1,9.807667732E0
3.816408810E-1,1.474593997E0,4.268691540E-1,9.874702454E0
3.840681720E-1,1.321371675E0,2.233707905E-1,9.982436180E0
3.864954640E-1,1.137026072E0,1.515478194E-1,1.004228973E1
3.889219220E-1,1.053232670E0,1.730947047E-1,1.010214138E1
3.913483810E-1,1.148996592E0,2.281589806E-1,1.020508766E1
3.937756720E-1,1.263913274E0,2.975878417E-1,1.022663403E1
3.962029640E-1,1.560781598E0,3.789871931E-1,1.024818134E1
3.986294220E-1,1.886379004E0,5.489681959E-1,1.032479191E1
4.010558810E-1,2.051571846E0,7.189491987E-1,1.031761074E1
4.034831720E-1,1.996507525E0,6.734613180E-1,1.057138443E1
4.059104640E-1,2.039601326E0,6.734613180E-1,1.070784855E1
4.083369220E-1,2.195217848E0,6.327617168E-1,1.064081287E1
4.107633810E-1,2.314922810E0,6.710672379E-1,1.047322655E1
4.131906720E-1,2.374775171E0,6.902200580E-1,1.043013287E1
4.156179640E-1,2.398715973E0,6.614908576E-1,1.039182758E1
4.180443700E-1,2.415474892E0,6.399439573E-1,1.039661503E1
4.204708290E-1,2.369987011E0,6.686731577E-1,1.037506866E1
4.228981720E-1,2.326893330E0,6.614908576E-1,1.038943291E1
4.253254120E-1,2.243099689E0,6.543085575E-1,1.041576862E1
4.277518700E-1,2.183247328E0,6.806436181E-1,1.040858650E1
4.301783290E-1,2.128183126E0,6.782495975E-1,1.044689178E1
4.326056200E-1,2.082695007E0,6.950082779E-1,1.043731499E1
4.350329120E-1,2.027630806E0,6.854318380E-1,1.036549187E1
4.374593700E-1,1.970172405E0,6.279734373E-1,1.033915710E1
4.398858290E-1,1.939049125E0,6.495203972E-1,1.030563927E1
4.423131200E-1,1.917502284E0,5.920619965E-1,1.029127502E1
4.447404120E-1,1.864832163E0,5.800915360E-1,1.026494026E1
4.471668700E-1,1.869620323E0,5.585446358E-1,1.020029926E1
4.495933290E-1,1.804979682E0,5.561504960E-1,1.014284134E1
4.520206200E-1,1.845679283E0,5.513623357E-1,1.012368870E1
4.544479120E-1,1.872014403E0,5.705151558E-1,1.009017086E1
4.568743180E-1,1.860043883E0,6.351557374E-1,9.970466614E0
4.593007760E-1,1.912714005E0,6.830377579E-1,9.972860336E0
4.617280680E-1,1.910320044E0,7.285256386E-1,9.963283539E0
4.641553600E-1,1.848073483E0,7.740135193E-1,9.924978256E0
4.665818180E-1,1.802585602E0,8.338659406E-1,9.814848900E0
4.690082760E-1,1.783432841E0,8.362600803E-1,9.822031021E0
4.714355680E-1,1.721186161E0,8.889302611E-1,9.743026733E0
4.738628600E-1,1.654151440E0,9.368122220E-1,9.661627769E0
4.762893180E-1,1.582328439E0,9.751178026E-1,9.582622528E0
4.787157760E-1,1.510505557E0,1.003846884E0,9.556287766E0
4.811430680E-1,1.366859555E0,9.990587831E-1,9.486858368E0
4.835703600E-1,1.299824834E0,1.046940684E0,9.434186935E0
4.859968180E-1,1.194484472E0,1.068487525E0,9.383911133E0
4.884232760E-1,1.091538191E0,1.137916446E0,9.374335289E0
4.908505680E-1,1.036473989E0,1.188192606E0,9.352787971E0
4.932778600E-1,9.670450687E-1,1.236074448E0,9.350394249E0
4.957042660E-1,9.263453484E-1,1.260015488E0,9.314483643E0
4.981307240E-1,8.808574677E-1,1.276774168E0,9.264205933E0
5.005580160E-1,8.521283269E-1,1.298321128E0,9.237871170E0
5.029853080E-1,8.042463064E-1,1.317473769E0,9.237871170E0
5.054117660E-1,7.683348656E-1,1.324656248E0,9.199565887E0
5.078382240E-1,7.348175049E-1,1.303109169E0,9.170837402E0
5.102655160E-1,7.036941648E-1,1.281562328E0,9.149290085E0
5.126928080E-1,6.534181237E-1,1.257621288E0,9.110984802E0
5.151192660E-1,6.127184629E-1,1.260015488E0,9.082255363E0
5.175457240E-1,5.265308619E-1,1.260015488E0,9.041555405E0
5.199730160E-1,4.618902206E-1,1.224103928E0,9.024797440E0
5.224003080E-1,4.068259299E-1,1.197768927E0,8.974521637E0
5.248267660E-1,3.397911787E-1,1.154675245E0,8.914668083E0
5.272532240E-1,2.799387276E-1,1.121157646E0,8.885939598E0
5.296805160E-1,2.320567369E-1,1.051728964E0,8.866786003E0
5.321078080E-1,2.033275664E-1,1.013423324E0,8.876362801E0
5.345342660E-1,2.200862467E-1,9.799060225E-1,8.890727043E0
5.369607240E-1,2.176921517E-1,9.224476218E-1,8.905092239E0
5.393880160E-1,1.745983660E-1,9.032948017E-1,8.859603882E0
5.418152560E-1,1.434750855E-1,8.889302611E-1,8.806934357E0
5.442417140E-1,6.446982920E-2,8.314718604E-1,8.818903923E0
5.466681720E-1,-4.326460510E-2,7.811958194E-1,8.766234398E0
5.490954640E-1,-1.509990692E-1,7.213433385E-1,8.747081757E0
5.515227560E-1,-2.491571009E-1,6.830377579E-1,8.768628120E0
5.539492140E-1,-3.568915725E-1,5.992442369E-1,8.727928162E0
5.563756720E-1,-3.880148530E-1,5.753033161E-1,8.701593399E0
5.588029640E-1,-4.550496340E-1,5.154508352E-1,8.692017555E0
5.612302560E-1,-5.508135557E-1,4.220809639E-1,8.672863960E0
5.636567140E-1,-5.651781559E-1,4.029282033E-1,8.660894394E0
5.660831720E-1,-6.250306368E-1,3.095583618E-1,8.653711319E0
5.685104640E-1,-7.112181783E-1,2.209766805E-1,8.682440758E0
5.709377560E-1,-7.231886983E-1,1.707006097E-1,8.718352318E0
5.733642140E-1,-7.614942789E-1,9.887763858E-2,8.771022797E0
5.757906720E-1,-7.902234197E-1,-8.856803179E-3,8.806934357E0
5.782179640E-1,-8.045880198E-1,-1.022266597E-1,8.814116478E0
5.806452560E-1,-8.261349201E-1,-2.267197818E-1,8.842844963E0
5.830716620E-1,-8.859873414E-1,-3.440306187E-1,8.838057518E0
5.854981200E-1,-9.458398223E-1,-4.852824509E-1,8.854816437E0
5.879254640E-1,-1.010480404E0,-6.480811834E-1,8.861998558E0
5.903527040E-1,-1.087091565E0,-8.180621862E-1,8.885939598E0
5.927791620E-1,-1.161308646E0,-9.473434687E-1,8.929033279E0
5.952056200E-1,-1.278619528E0,-1.059866190E0,8.926639557E0
5.976329120E-1,-1.403112650E0,-1.205906153E0,8.902698517E0
6.000602040E-1,-1.534788013E0,-1.320822954E0,8.859603882E0
6.024866620E-1,-1.620975733E0,-1.354340315E0,8.790175438E0
6.049131200E-1,-1.678433895E0,-1.430951595E0,8.744687080E0
6.073404120E-1,-1.747862816E0,-1.486015797E0,8.749475479E0
6.097677040E-1,-1.771803856E0,-1.581779718E0,8.816510201E0
6.121941620E-1,-1.776592016E0,-1.723031521E0,8.912274361E0
6.146206200E-1,-1.743074656E0,-1.885830283E0,9.142107010E0
6.170479120E-1,-1.798138976E0,-2.091722727E0,9.331241608E0
6.194752040E-1,-1.896296978E0,-2.096510887E0,8.972126007E0
6.219016620E-1,-1.922631979E0,-2.285644770E0,9.118165970E0
6.243281200E-1,-1.960937738E0,-2.505901575E0,9.568257332E0
6.267554120E-1,-2.118948221E0,-2.558571815E0,9.592198372E0
6.291827040E-1,-2.324840784E0,-2.601665735E0,9.503616333E0
6.316091100E-1,-2.523550987E0,-2.630394936E0,9.577833176E0
6.340355680E-1,-2.698320150E0,-2.673488617E0,9.716691017E0
6.364628600E-1,-2.808448792E0,-2.742917538E0,9.992012024E0
6.388901510E-1,-2.813236713E0,-2.826710939E0,1.031282234E1
6.413166100E-1,-2.885059595E0,-2.805164099E0,1.031521606E1
6.437430680E-1,-3.062223196E0,-2.776434898E0,1.014284134E1
6.461703600E-1,-3.258539200E0,-2.893745661E0,1.003989410E1
6.485976510E-1,-3.347121000E0,-2.972750902E0,9.972860336E0
6.510241100E-1,-3.339938402E0,-2.941627741E0,1.001355934E1
6.534505680E-1,-3.234598160E0,-2.896139860E0,1.005904770E1
6.558778600E-1,-3.067011118E0,-2.855440140E0,1.001834869E1
6.583051510E-1,-2.947306395E0,-2.833893299E0,9.843578339E0
6.607316100E-1,-2.861118793E0,-2.838681459E0,9.642474174E0
6.631580680E-1,-2.956882715E0,-2.831499100E0,9.422217369E0
6.655853600E-1,-3.069405556E0,-2.793193579E0,9.254630089E0
6.680126510E-1,-3.184322119E0,-2.781223297E0,9.063102722E0
6.704391100E-1,-3.387820482E0,-2.759676218E0,8.840451241E0
6.728655680E-1,-3.608077765E0,-2.711794138E0,8.660894394E0
6.752928080E-1,-3.840305090E0,-2.690247536E0,8.545977592E0
6.777200990E-1,-3.988739252E0,-2.678277016E0,8.416696548E0
6.801465580E-1,-4.084503651E0,-2.618424416E0,8.280232430E0
6.825730160E-1,-4.235331535E0,-2.599271774E0,8.122221947E0
6.850003080E-1,-4.484318256E0,-2.560966015E0,7.945057869E0
6.874275990E-1,-4.836250782E0,-2.498719454E0,7.887599468E0
6.898540580E-1,-5.137907028E0,-2.407743692E0,7.820564747E0
6.922805160E-1,-5.418016911E0,-2.328738451E0,7.818171024E0
6.947078080E-1,-5.628697395E0,-2.242550850E0,7.825352669E0
6.971350990E-1,-5.786707878E0,-2.137210369E0,7.988152027E0
6.995615580E-1,-6.040482044E0,-2.019899607E0,8.311355591E0
7.019880160E-1,-6.277498245E0,-1.873859763E0,8.744687080E0
7.044153080E-1,-6.380444050E0,-1.761337161E0,9.149290085E0
7.068425990E-1,-6.299044609E0,-1.651208520E0,9.544316292E0
7.092690580E-1,-6.093152046E0,-1.593750119E0,9.903430939E0
7.116955160E-1,-5.853742599E0,-1.469256997E0,9.884278297E0
7.141228080E-1,-5.614332676E0,-1.344763875E0,9.769361496E0
7.165500990E-1,-5.319858551E0,-1.344763875E0,9.685568810E0
7.189765060E-1,-4.912861824E0,-1.318428874E0,9.599380493E0
7.214029640E-1,-4.548958778E0,-1.220270753E0,9.549104691E0
7.238303080E-1,-4.175479412E0,-1.165206552E0,9.570651054E0
7.262575990E-1,-3.794817209E0,-1.177177072E0,9.585016251E0
7.286840060E-1,-3.529072523E0,-1.174782872E0,9.704721451E0
7.311104640E-1,-3.323179960E0,-1.222664952E0,9.829214096E0
7.335377560E-1,-3.083770037E0,-1.253788233E0,9.932160378E0
7.359650470E-1,-2.923365355E0,-1.213088512E0,1.002552986E1
7.383915060E-1,-2.588191509E0,-1.165206552E0,1.007341194E1
7.408179640E-1,-2.276958704E0,-1.052683949E0,1.005665302E1
7.432452560E-1,-2.171618462E0,-1.045501590E0,1.001355934E1
7.456725470E-1,-2.384693146E0,-1.019166589E0,9.987224579E0
7.480990060E-1,-2.241047144E0,-9.904373288E-1,9.671203613E0
7.505254640E-1,-2.135706902E0,-9.784668088E-1,9.352787971E0
7.529527560E-1,-2.006425381E0,-9.018556476E-1,9.178019524E0
7.553800470E-1,-1.963331699E0,-8.108798862E-1,9.046343803E0
7.578065060E-1,-1.850809097E0,-6.768103838E-1,8.725534439E0
7.602329640E-1,-1.716739535E0,-6.073815227E-1,8.407119751E0
7.626602560E-1,-1.719133735E0,-4.876765609E-1,8.323326111E0
7.650875470E-1,-1.860385537E0,-2.889663279E-1,8.244320869E0
7.675140060E-1,-1.901085138E0,-2.003846914E-1,8.009698868E0
7.699404640E-1,-1.972908258E0,-1.692614108E-1,7.813382149E0
7.723677560E-1,-2.367934465E0,-6.152697653E-2,7.947452068E0
7.747950470E-1,-2.877877474E0,-9.983255714E-2,8.462182999E0
7.772214540E-1,-3.246568680E0,-2.793899477E-1,9.020008087E0
7.796479120E-1,-3.727782488E0,-4.876765609E-1,9.731056213E0
7.820752040E-1,-4.046197891E0,-7.510274053E-1,1.053307915E1
7.845024950E-1,-4.232937813E0,-9.329789281E-1,1.088980007E1
7.869289540E-1,-4.446012020E0,-1.050289750E0,1.075094223E1
7.893554120E-1,-4.225755215E0,-1.205906153E0,1.034155178E1
7.917827040E-1,-3.928887129E0,-1.366310835E0,9.714297295E0
7.942099950E-1,-3.629624367E0,-1.646420479E0,9.216324806E0
7.966364540E-1,-3.378244162E0,-1.933712244E0,8.873968124E0
7.990629120E-1,-3.222627640E0,-2.228186131E0,8.871574402E0
8.014902040E-1,-3.076587677E0,-2.505901575E0,9.067890167E0
8.039174950E-1,-2.899424553E0,-2.745311737E0,9.307300568E0
8.063439540E-1,-2.705502510E0,-2.955992222E0,9.556287766E0
8.087704120E-1,-2.475668907E0,-3.135549784E0,9.776544571E0
8.111977040E-1,-2.140495062E0,-3.226525545E0,9.860337257E0
8.136249950E-1,-1.637734294E0,-3.286377907E0,9.759785652E0
8.160514540E-1,-1.022450924E0,-3.209766626E0,9.661627769E0
8.184779120E-1,-4.454731941E-1,-3.003874302E0,9.517981529E0
8.209052040E-1,-6.002331525E-2,-2.745311737E0,9.453340530E0
8.233324950E-1,2.009334564E-1,-2.630394936E0,9.371941566E0
8.257589010E-1,3.804908693E-1,-2.548995495E0,9.264205933E0
8.281853600E-1,5.408954620E-1,-2.419714212E0,9.180413246E0
8.306126510E-1,6.893296242E-1,-2.302403450E0,9.134924889E0
8.330399430E-1,8.353696465E-1,-2.197062969E0,9.070283890E0
8.354664010E-1,9.502863884E-1,-2.108481407E0,8.945791245E0
8.378928600E-1,9.909860492E-1,-2.091722727E0,8.830875397E0
8.403201510E-1,1.019715309E0,-2.070175886E0,8.694411278E0
8.427474430E-1,1.002956629E0,-2.137210369E0,8.522036552E0
8.451739010E-1,9.766214490E-1,-2.211427689E0,8.462182999E0
8.476003600E-1,8.856456876E-1,-2.316767931E0,8.342478752E0
8.500276510E-1,8.305814266E-1,-2.400561333E0,8.285019875E0
8.524549430E-1,7.443938851E-1,-2.474778414E0,8.258685112E0
8.548814010E-1,6.797531843E-1,-2.541813135E0,8.208409309E0
8.573078600E-1,6.462358236E-1,-2.584906816E0,8.083916664E0
8.597351510E-1,6.797531843E-1,-2.642365456E0,7.992939949E0
8.621624430E-1,7.826994061E-1,-2.714188337E0,7.954634190E0
8.645889010E-1,9.598627687E-1,-2.795587778E0,7.961816311E0
8.670153600E-1,1.079567671E0,-2.884169340E0,7.959422588E0
8.694426510E-1,1.223213673E0,-2.910504341E0,7.964210987E0
8.718699430E-1,1.400376916E0,-2.948809862E0,8.007304192E0
8.742964010E-1,1.548811078E0,-2.951204300E0,7.971392632E0
8.767228600E-1,1.697245121E0,-2.888957500E0,7.973786831E0
8.791501510E-1,1.833708763E0,-2.903322220E0,7.990545750E0
8.815774430E-1,2.030024767E0,-2.879381180E0,8.002516747E0
8.840038490E-1,2.144941568E0,-2.876986980E0,8.031246185E0
8.864303080E-1,2.300558090E0,-2.879381180E0,8.067157745E0
8.888575990E-1,2.506450653E0,-2.824316978E0,8.093492508E0
8.912848910E-1,2.690796375E0,-2.809952259E0,8.138979912E0
8.937113490E-1,2.875141859E0,-2.750099659E0,8.182074547E0
8.961378080E-1,3.047516823E0,-2.714188337E0,8.306567192E0
8.985650990E-1,3.167221785E0,-2.692641497E0,8.399937630E0
9.009923910E-1,3.325232267E0,-2.659123898E0,8.445425034E0
9.034188490E-1,3.490425348E0,-2.616030216E0,8.536400795E0
9.058453080E-1,3.614918232E0,-2.580118656E0,8.670470238E0
9.082725990E-1,3.777717113E0,-2.675882578E0,8.960156441E0
9.106998910E-1,3.902209997E0,-2.687853098E0,9.060708046E0
9.131263490E-1,4.021914959E0,-2.637577295E0,9.103802681E0
9.155528080E-1,4.127255440E0,-2.675882578E0,9.168443680E0
9.179800990E-1,4.215837002E0,-2.685459137E0,9.211536407E0
9.204073910E-1,4.328359127E0,-2.678277016E0,9.187595367E0
9.228338490E-1,4.347512245E0,-2.709400177E0,9.163654327E0
9.252603080E-1,4.347512245E0,-2.673488617E0,9.115772247E0
9.276875990E-1,4.349906445E0,-2.668700457E0,9.087043762E0
9.301148910E-1,4.273295403E0,-2.623212576E0,9.034373283E0
9.325412970E-1,4.203866482E0,-2.589695215E0,9.010432243E0
9.349677560E-1,4.096131802E0,-2.592089176E0,8.996067047E0
9.373950470E-1,4.041067600E0,-2.553783655E0,8.948184967E0
9.398223390E-1,3.952486277E0,-2.546601534E0,8.902698517E0
9.422487970E-1,3.868692875E0,-2.560966015E0,8.861998558E0
9.446752560E-1,3.777717113E0,-2.596877337E0,8.794962883E0
9.471025470E-1,3.665194273E0,-2.630394936E0,8.706381798E0
9.495298390E-1,3.588583231E0,-2.632788897E0,8.567523956E0
9.519562970E-1,3.538306952E0,-2.644759417E0,8.445425034E0
9.543827560E-1,3.547883511E0,-2.620818377E0,8.316143990E0
9.568100470E-1,3.605341911E0,-2.596877337E0,8.184468269E0
9.592373390E-1,3.701105833E0,-2.515478134E0,8.079128265E0
9.616637970E-1,3.839963436E0,-2.441261292E0,8.019275665E0
9.640902560E-1,4.038673878E0,-2.331132412E0,8.043216705E0
9.665175470E-1,4.225413322E0,-2.206639528E0,8.105463028E0
9.689448390E-1,4.426517487E0,-2.036658525E0,8.189256668E0
9.713712970E-1,4.656350613E0,-1.938500404E0,8.325720787E0
9.737977560E-1,4.819149971E0,-1.780489922E0,8.466972351E0
9.762250470E-1,4.984343052E0,-1.665573120E0,8.622588158E0
9.786523390E-1,5.130383015E0,-1.576991558E0,8.802145004E0
9.810787970E-1,5.274028301E0,-1.459680676E0,8.981703758E0
9.835052560E-1,5.393733501E0,-1.349552155E0,9.149290085E0
9.859325470E-1,5.479920864E0,-1.284911394E0,9.237871170E0
9.883598390E-1,5.537379265E0,-1.256182313E0,9.359970093E0
9.907862450E-1,5.558926105E0,-1.239423513E0,9.419823647E0
9.932127040E-1,5.546955585E0,-1.239423513E0,9.458127975E0
9.956399950E-1,5.530197144E0,-1.265758634E0,9.448552132E0
9.980672870E-1,5.458374500E0,-1.258576393E0,9.443764687E0
1.000493745E0,5.417674541E0,-1.268152833E0,9.446158409E0
1.002920204E0,5.297969341E0,-1.282517433E0,9.441370010E0
1.005347495E0,5.178264618E0,-1.328005314E0,9.407852173E0
1.007774787E0,5.001101494E0,-1.371098995E0,9.345606804E0
1.010201245E0,4.823937893E0,-1.433345556E0,9.271389008E0
1.012627704E0,4.656350613E0,-1.459680676E0,9.149290085E0
1.015054995E0,4.469611168E0,-1.507562637E0,9.077466965E0
1.017482287E0,4.282871723E0,-1.576991558E0,8.981703758E0
1.019908745E0,4.088949680E0,-1.667967319E0,8.852421761E0
1.022335204E0,3.892633915E0,-1.708666921E0,8.739899635E0
1.024762495E0,3.710682392E0,-1.780489922E0,8.644135475E0
1.027189787E0,3.555065870E0,-1.854706883E0,8.505277634E0
1.029616245E0,3.420996189E0,-1.907377124E0,8.409513474E0
1.032042704E0,3.361143827E0,-1.983988285E0,8.306567192E0
1.034469995E0,3.385084867E0,-2.043840647E0,8.234744072E0
1.036897287E0,3.442543268E0,-2.127634287E0,8.191650391E0
1.039323745E0,3.588583231E0,-2.211427689E0,8.206015587E0
1.041750204E0,3.748987913E0,-2.261703730E0,8.268261909E0
1.044177495E0,3.933333635E0,-2.285644770E0,8.380784035E0
1.046604735E0,4.091343880E0,-2.292826891E0,8.505277634E0
1.049031193E0,4.278083324E0,-2.326344490E0,8.672863960E0
1.051457651E0,4.450458527E0,-2.309585571E0,8.830875397E0
1.053884995E0,4.639592171E0,-2.302403450E0,9.008038521E0
1.056312235E0,4.797602654E0,-2.278462410E0,9.173231125E0
1.058738693E0,4.924490452E0,-2.290432930E0,9.328846931E0
1.061165151E0,5.029830456E0,-2.302403450E0,9.482069016E0
1.063592443E0,5.163899899E0,-2.304797411E0,9.642474174E0
1.066019735E0,5.312334538E0,-2.304797411E0,9.776544571E0
1.068446193E0,5.391339302E0,-2.300009251E0,9.872308731E0
1.070872651E0,5.487103462E0,-2.307191372E0,9.956101418E0
1.073299943E0,5.546955585E0,-2.290432930E0,1.002074242E1
1.075727235E0,5.582867146E0,-2.316767931E0,1.009017086E1
1.078153693E0,5.649901867E0,-2.328738451E0,1.008298874E1
1.080580151E0,5.657084465E0,-2.362255573E0,1.004947090E1
1.083007443E0,5.664266586E0,-2.414926052E0,9.994407654E0
1.085434735E0,5.659478188E0,-2.450837374E0,9.936948776E0
1.087861193E0,5.597231865E0,-2.489142895E0,9.862730980E0
1.090287651E0,5.549349785E0,-2.481960773E0,9.766967773E0
1.092714943E0,5.448797703E0,-2.498719454E0,9.635292053E0
1.095142235E0,5.367398262E0,-2.539419174E0,9.508405685E0
1.097568641E0,5.230934620E0,-2.596877337E0,9.391094208E0
1.099995151E0,5.202205181E0,-2.642365456E0,9.285753250E0
1.102422443E0,5.156717777E0,-2.656729937E0,9.180413246E0
1.104849683E0,5.037013054E0,-2.704612017E0,9.108590126E0
1.107276141E0,4.960402012E0,-2.797981739E0,8.974521637E0
1.109702599E0,4.893366814E0,-2.874593019E0,8.823692322E0
1.112129891E0,4.819149971E0,-2.932051182E0,8.699199677E0
1.114557183E0,4.773661613E0,-3.020632982E0,8.572312355E0
1.116983641E0,4.728173733E0,-3.020632982E0,8.488518715E0
1.119410099E0,4.632410049E0,-3.058938503E0,8.435848236E0
1.121837391E0,4.567769527E0,-3.080485344E0,8.383178711E0
1.124264683E0,4.598892689E0,-3.125973225E0,8.380784035E0
1.126691141E0,4.641986370E0,-3.188220024E0,8.404725075E0
1.129117599E0,4.675503731E0,-3.221737146E0,8.443031311E0
1.131544891E0,4.764085293E0,-3.219343185E0,8.510065079E0
1.133972183E0,4.855061531E0,-3.291166067E0,8.584281921E0
1.136398641E0,4.955613136E0,-3.339048147E0,8.620194435E0
1.138825099E0,4.993918896E0,-3.310318947E0,8.677652359E0
1.141252391E0,5.199811459E0,-3.367777109E0,8.749475479E0
1.143679683E0,5.326698780E0,-3.410871029E0,8.785387039E0
1.146106141E0,5.472738743E0,-3.355806589E0,8.828480721E0
1.148532599E0,5.788759708E0,-3.322289467E0,8.869180679E0
1.150959891E0,6.025775433E0,-3.226525545E0,8.907485962E0
1.153387183E0,6.248426914E0,-3.183431625E0,8.917062759E0
1.155813589E0,6.423195839E0,-3.181037664E0,8.933821678E0
1.158240047E0,6.576418400E0,-3.164278984E0,8.924243927E0
1.160667339E0,6.736822605E0,-3.169067144E0,8.907485962E0
1.163094631E0,6.842163086E0,-3.152308464E0,8.895515442E0
1.165521089E0,6.964262486E0,-3.164278984E0,8.883544922E0
1.167947547E0,6.913986206E0,-3.190613985E0,8.768628120E0
1.170374839E0,6.894833088E0,-3.200190544E0,8.687229156E0
1.172802131E0,6.870892525E0,-3.204978704E0,8.603435516E0
1.175228589E0,6.849345207E0,-3.260042906E0,8.512459755E0
1.177655047E0,6.758369923E0,-3.365383148E0,8.385572433E0
1.180082339E0,6.727246284E0,-3.501846790E0,8.304173470E0
1.182509631E0,6.727246284E0,-3.600004911E0,8.234744072E0
1.184936089E0,6.691334724E0,-3.707739115E0,8.150950432E0
1.187362547E0,6.624300480E0,-3.808291435E0,8.079128265E0
1.189789839E0,6.535718441E0,-3.927996397E0,8.021669388E0
1.192217131E0,6.416013718E0,-4.009395599E0,7.949845791E0
1.194643589E0,6.329825878E0,-4.088401318E0,7.880417347E0
1.197070047E0,6.255609035E0,-4.208106041E0,7.813382149E0
1.199497339E0,6.167027473E0,-4.277534962E0,7.755923748E0
1.201924631E0,6.064081192E0,-4.356540203E0,7.715224266E0
1.204351089E0,6.011410713E0,-4.411604881E0,7.691283226E0
1.206777547E0,5.934799671E0,-4.485821724E0,7.655371666E0
1.209204839E0,5.874947548E0,-4.538491726E0,7.576366901E0
1.211632131E0,5.834247589E0,-4.581585884E0,7.550031662E0
1.214058537E0,5.783971310E0,-4.646226406E0,7.523696423E0
1.216484995E0,5.748060226E0,-4.660590649E0,7.523696423E0
1.218912339E0,5.659478188E0,-4.710866451E0,7.540455341E0
1.221339631E0,5.568502903E0,-4.718049049E0,7.583549023E0
1.223766037E0,5.482315540E0,-4.739596367E0,7.650583744E0
1.226192495E0,5.367398262E0,-4.756354809E0,7.708042145E0
1.228619787E0,5.259663582E0,-4.792266369E0,7.743953705E0
1.231047079E0,5.166294098E0,-4.794660091E0,7.784653187E0
1.233473537E0,5.108835697E0,-4.837754250E0,7.822958946E0
1.235899995E0,5.070530415E0,-4.914365292E0,7.846899986E0
1.238327287E0,5.051377296E0,-4.964641094E0,7.834929466E0
1.240754579E0,5.037013054E0,-4.986187935E0,7.808594227E0
1.243181037E0,5.029830456E0,-5.031676292E0,7.799017906E0
1.245607495E0,4.979554176E0,-5.053223133E0,7.777471066E0
1.248034787E0,4.979554176E0,-5.163351536E0,7.770288944E0
1.250462079E0,4.962795734E0,-5.251933098E0,7.775076866E0
1.252888537E0,4.931672096E0,-5.335726738E0,7.806200504E0
1.255314995E0,4.929278374E0,-5.407549858E0,7.789441586E0
1.257742287E0,4.905337334E0,-5.479372501E0,7.810988426E0
1.260169579E0,4.931672096E0,-5.567954063E0,7.870841026E0
1.262596037E0,4.950825214E0,-5.591895103E0,7.928299427E0
1.265022495E0,4.960402012E0,-5.630200863E0,7.954634190E0
1.267449787E0,4.979554176E0,-5.658930302E0,7.968998909E0
1.269877079E0,4.984343052E0,-5.682871342E0,7.961816311E0
1.272303537E0,4.996312618E0,-5.694841862E0,7.923511028E0
1.274729995E0,4.977160454E0,-5.690052986E0,7.856476307E0
1.277157287E0,4.969977856E0,-5.670900822E0,7.803805828E0
1.279584579E0,4.965189934E0,-5.644565582E0,7.693677425E0
1.282010985E0,4.969977856E0,-5.646959782E0,7.597913265E0
1.284437443E0,4.969977856E0,-5.611048222E0,7.538061142E0
1.286864735E0,4.962795734E0,-5.553589821E0,7.461449623E0
1.289292026E0,4.938854694E0,-5.479372501E0,7.384839058E0
1.291718485E0,4.905337334E0,-5.390790939E0,7.341744900E0
1.294144943E0,4.905337334E0,-5.354879856E0,7.298651218E0
1.296572235E0,4.886184216E0,-5.295027256E0,7.217251778E0
1.298999526E0,4.843091011E0,-5.211233616E0,7.145428658E0
1.301425985E0,4.823937893E0,-5.125046253E0,7.111911297E0
1.303852443E0,4.744932652E0,-5.079558372E0,7.028117657E0
1.306279735E0,4.713809490E0,-5.010128975E0,6.970659733E0
1.308707026E0,4.716203213E0,-4.964641094E0,6.913201332E0
1.311133485E0,4.713809490E0,-4.926335812E0,6.872501850E0
1.313559943E0,4.742538929E0,-4.883242130E0,6.819831371E0
1.315987235E0,4.704232693E0,-4.880848408E0,6.783919811E0
1.318414526E0,4.718597889E0,-4.878453732E0,6.736037731E0
1.320840985E0,4.711415291E0,-4.888030052E0,6.690550327E0
1.323267443E0,4.680291653E0,-4.885636330E0,6.680974007E0
1.325694735E0,4.737750530E0,-4.935912132E0,6.666609287E0
1.328122026E0,4.771267891E0,-5.007735252E0,6.666609287E0
1.330548485E0,4.785632133E0,-5.065193653E0,6.671397209E0
1.332974943E0,4.807179451E0,-5.108287334E0,6.676185131E0
1.335402235E0,4.843091011E0,-5.201657295E0,6.690550327E0
1.337829526E0,4.907731533E0,-5.283056736E0,6.700126171E0
1.340255933E0,4.919702053E0,-5.393185139E0,6.738432407E0
1.342682391E0,4.922095776E0,-5.460219860E0,6.762373447E0
1.345109735E0,4.924490452E0,-5.555983543E0,6.810255051E0
1.347536974E0,4.934066296E0,-5.637382984E0,6.834196091E0
1.349963433E0,4.895761013E0,-5.711600304E0,6.901230812E0
1.352389891E0,4.890972614E0,-5.766664505E0,6.922777653E0
1.354817183E0,4.895761013E0,-5.790605545E0,6.951507092E0
1.357244474E0,4.910125256E0,-5.836092949E0,6.982630253E0
1.359670933E0,4.912519932E0,-5.848063469E0,6.989812374E0
1.362097391E0,4.929278374E0,-5.864822865E0,6.982630253E0
1.364524683E0,4.934066296E0,-5.881581306E0,6.958689213E0
1.366951974E0,4.917307854E0,-5.821728706E0,6.953900814E0
1.369378433E0,4.993918896E0,-5.807363987E0,6.956295490E0
1.371804891E0,5.044194698E0,-5.783422947E0,6.932354450E0
1.374232183E0,5.130383015E0,-5.735541344E0,6.927566051E0
1.376659474E0,5.276422977E0,-5.651747704E0,6.953900814E0
1.379085933E0,5.396127224E0,-5.536831379E0,6.944324970E0
1.381512391E0,5.494285583E0,-5.453037739E0,6.929959774E0
1.383939683E0,5.618778706E0,-5.326149940E0,6.915595531E0
1.386366974E0,5.743271828E0,-5.261509895E0,6.879683971E0
1.388793433E0,5.920435429E0,-5.184898853E0,6.822225571E0
1.391219891E0,6.023381233E0,-5.084346294E0,6.791102409E0
1.393647183E0,6.140692234E0,-5.024493694E0,6.755190849E0
1.396074474E0,6.212515354E0,-4.969429493E0,6.755190849E0
1.398500881E0,6.291520119E0,-4.897606850E0,6.690550327E0
1.400927339E0,6.339402199E0,-4.880848408E0,6.695338249E0
1.403354683E0,6.404043198E0,-4.888030052E0,6.652244568E0
1.405781922E0,6.423195839E0,-4.868877888E0,6.621121407E0
1.408208381E0,6.437560081E0,-4.907183170E0,6.597180367E0
1.410634839E0,6.430378437E0,-4.911971092E0,6.554086208E0
1.413062131E0,6.439954758E0,-4.995764732E0,6.558875084E0
1.415489422E0,6.418407917E0,-5.053223133E0,6.513386726E0
1.417915881E0,6.384890079E0,-5.108287334E0,6.472687244E0
1.420342339E0,6.327431679E0,-5.180109978E0,6.431987286E0
1.422769631E0,6.289126396E0,-5.295027256E0,6.400864124E0
1.425196922E0,6.222091675E0,-5.407549858E0,6.376923561E0
1.427623381E0,6.109568596E0,-5.484160900E0,6.319464684E0
1.430049839E0,6.032958031E0,-5.539225101E0,6.218913078E0
1.432477131E0,5.999440193E0,-5.551195621E0,6.101602077E0
1.434904422E0,5.918041229E0,-5.584712982E0,6.010626316E0
1.437330881E0,5.851006508E0,-5.599077702E0,5.919650555E0
1.439757339E0,5.810307026E0,-5.608654022E0,5.852615356E0
1.442184631E0,5.798336506E0,-5.642171383E0,5.838250637E0
1.444611922E0,5.822277546E0,-5.735541344E0,5.816704273E0
1.447038381E0,5.891705990E0,-5.759482384E0,5.797551155E0
1.449464839E0,5.970711231E0,-5.706812382E0,5.866980553E0
1.451892131E0,6.119145393E0,-5.747511864E0,5.890921593E0
1.454319422E0,6.284338474E0,-5.769058704E0,5.936408997E0
1.456745881E0,6.456713200E0,-5.821728706E0,5.962744236E0
1.459172339E0,6.614723682E0,-5.872004509E0,6.020202160E0
1.461599631E0,6.815828323E0,-5.888763905E0,6.103995800E0
1.464026922E0,6.976233006E0,-5.888763905E0,6.154272079E0
1.466453329E0,7.151001930E0,-5.850457668E0,6.230883598E0
1.468879787E0,7.292253971E0,-5.809758186E0,6.324253082E0
1.471307079E0,7.397594452E0,-5.752299786E0,6.441564083E0
1.473734370E0,7.457447052E0,-5.733147144E0,6.568451405E0
1.476160829E0,7.510117054E0,-5.716388226E0,6.676185131E0
1.478587287E0,7.572363377E0,-5.685265064E0,6.786314487E0
1.481014579E0,7.605880737E0,-5.690052986E0,6.872501850E0
1.483441870E0,7.651368618E0,-5.687659264E0,6.901230812E0
1.485868329E0,7.648974419E0,-5.702023506E0,6.932354450E0
1.488294787E0,7.632215977E0,-5.694841862E0,6.925171852E0
1.490722079E0,7.644186497E0,-5.690052986E0,6.917989254E0
1.493149370E0,7.591516495E0,-5.699629784E0,6.896442890E0
1.495575829E0,7.579545975E0,-5.658930302E0,6.886866570E0
1.498002287E0,7.524481297E0,-5.596683502E0,6.846166134E0
1.500429579E0,7.443081856E0,-5.548801899E0,6.812649250E0
1.502856870E0,7.395199776E0,-5.491343021E0,6.700126171E0
1.505283329E0,7.282677174E0,-5.443460941E0,6.621121407E0
1.507709787E0,7.196489811E0,-5.383608818E0,6.546904564E0
1.510137079E0,7.112696171E0,-5.314179897E0,6.477475166E0
1.512564370E0,7.026508808E0,-5.304603100E0,6.398470402E0
1.514990829E0,6.947503090E0,-5.283056736E0,6.307494164E0
1.517417287E0,6.856527805E0,-5.290238857E0,6.226094723E0
1.519844579E0,6.796675205E0,-5.318968296E0,6.125542641E0
1.522271870E0,6.700911522E0,-5.295027256E0,6.048932076E0
1.524698329E0,6.653029442E0,-5.283056736E0,6.017808437E0
1.527124787E0,6.550083160E0,-5.278268337E0,5.919650555E0
1.529552079E0,6.478260517E0,-5.263903618E0,5.845433235E0
1.531979370E0,6.401648998E0,-5.266297817E0,5.790369034E0
1.534405776E0,6.341796398E0,-5.206445217E0,5.694604874E0
1.536832235E0,6.260397434E0,-5.180109978E0,5.639540672E0
1.539259526E0,6.174209595E0,-5.134622097E0,5.565323830E0
1.541686818E0,6.126327991E0,-5.072375774E0,5.522229671E0
1.544113276E0,6.064081192E0,-5.031676292E0,5.510259151E0
1.546539735E0,6.025775433E0,-4.914365292E0,5.483924389E0
1.548967026E0,5.997046471E0,-4.811419010E0,5.428860188E0
1.551394318E0,5.961134911E0,-4.682137489E0,5.380978584E0
1.553820776E0,5.975499153E0,-4.540885448E0,5.345067024E0
1.556247235E0,6.023381233E0,-4.399634361E0,5.280426025E0
1.558674526E0,6.092810154E0,-4.299082279E0,5.256484985E0
1.561101818E0,6.157450676E0,-4.203318119E0,5.237332344E0
1.563528276E0,6.234062195E0,-4.088401318E0,5.234938145E0
1.565954735E0,6.337008476E0,-3.935178757E0,5.206208706E0
1.568382026E0,6.389678478E0,-3.832232475E0,5.227756023E0
1.570809318E0,6.430378437E0,-3.779562235E0,5.220573425E0
1.573235776E0,6.497412682E0,-3.693374634E0,5.196632385E0
1.575662235E0,6.514171600E0,-3.693374634E0,5.194238186E0
1.578089526E0,6.559659481E0,-3.702951193E0,5.139174461E0
1.580516818E0,6.609935760E0,-3.690980673E0,5.122415543E0
1.582943224E0,6.621906281E0,-3.683798552E0,5.136779785E0
1.585369735E0,6.708093643E0,-3.657463074E0,5.143962383E0
1.587797026E0,6.691334724E0,-3.798714876E0,5.208602905E0
1.590224318E0,6.705699921E0,-3.901661158E0,5.220573425E0
1.592650724E0,6.755975723E0,-4.002213478E0,5.158326626E0
1.595077183E0,6.746399403E0,-4.086007118E0,5.266061306E0
1.597504526E0,6.729640484E0,-4.212893963E0,5.373795986E0
1.599931766E0,6.669788361E0,-4.354146004E0,5.397737026E0
1.602358224E0,6.619511604E0,-4.514550686E0,5.507865429E0
1.604784683E0,6.530930519E0,-4.631861687E0,5.560535431E0
1.607211974E0,6.427984238E0,-4.730019569E0,5.629964352E0
1.609639266E0,6.303490639E0,-4.804236889E0,5.663481712E0
1.612065724E0,6.248426914E0,-4.813813210E0,5.673058510E0
1.614492183E0,6.183785915E0,-4.775507450E0,5.723334312E0
1.616919474E0,6.102386951E0,-4.703684807E0,5.685029030E0
1.619346766E0,6.064081192E0,-4.658196449E0,5.651511192E0
1.621773224E0,5.994652271E0,-4.593556404E0,5.579688549E0
1.624199683E0,5.901282310E0,-4.469063282E0,5.555747509E0
1.626626974E0,5.865370750E0,-4.435545444E0,5.529412270E0
1.629054266E0,5.827065468E0,-4.363722801E0,5.464771271E0
1.631480724E0,5.824671268E0,-4.265564442E0,5.424071789E0
1.633907183E0,5.805518150E0,-4.191347599E0,5.421678066E0
1.636334474E0,5.774395466E0,-4.141071320E0,5.366613388E0
1.638761766E0,5.795941830E0,-4.107553959E0,5.278031826E0
1.641188224E0,5.812700748E0,-4.078824997E0,5.261273384E0
1.643614683E0,5.858188629E0,-4.076430798E0,5.206208706E0
1.646041974E0,5.894100189E0,-4.095583439E0,5.124809265E0
1.648469266E0,5.965922832E0,-4.059672356E0,5.084109783E0
1.650895724E0,6.032958031E0,-4.071642876E0,5.062562943E0
1.653322183E0,6.044928551E0,-4.047701836E0,5.036227703E0
1.655749474E0,6.104780674E0,-3.995031118E0,5.002710342E0
1.658176766E0,6.231667995E0,-3.899267197E0,4.993134499E0
1.660603172E0,6.332220554E0,-3.844202995E0,5.009892941E0
1.663029631E0,6.406437397E0,-3.793926954E0,5.041016579E0
1.665456922E0,6.506989479E0,-3.741256714E0,5.081716061E0
1.667884214E0,6.629088402E0,-3.731680155E0,5.024257183E0
1.670310672E0,6.483048439E0,-3.837020636E0,5.100868225E0
1.672737131E0,6.365737438E0,-3.913631678E0,5.024257183E0
1.675164422E0,6.449530602E0,-4.021366596E0,4.928493500E0
1.677591714E0,6.636271000E0,-4.078824997E0,4.969193459E0
1.680018172E0,6.930744648E0,-4.124312878E0,4.981163979E0
1.682444631E0,7.182125092E0,-4.143465519E0,5.000316143E0
1.684871922E0,7.313800812E0,-4.148253441E0,4.988345623E0
1.687299214E0,7.332953453E0,-4.198529720E0,4.990739822E0
1.689725672E0,7.330559254E0,-4.186559200E0,4.964405060E0
1.692152131E0,7.285071373E0,-4.133889198E0,4.978769302E0
1.694579422E0,7.347317696E0,-4.131494999E0,4.942857742E0
1.697006714E0,7.364076614E0,-4.157830238E0,4.899764538E0
1.699433172E0,7.419140816E0,-4.155436039E0,4.866246700E0
1.701859631E0,7.445476532E0,-4.165012360E0,4.777665138E0
1.704286922E0,7.505328178E0,-4.203318119E0,4.729783535E0
1.706714214E0,7.517298698E0,-4.181771278E0,4.669930935E0
1.709140672E0,7.519693375E0,-4.172194481E0,4.650777817E0
1.711567131E0,7.452658176E0,-4.114736557E0,4.631625175E0
1.713994422E0,7.407170296E0,-4.052489758E0,4.605290413E0
1.716421714E0,7.301830292E0,-4.035731316E0,4.569378853E0
1.718848120E0,7.263525009E0,-3.987848997E0,4.468826294E0
1.721274579E0,7.215642929E0,-3.930390358E0,4.399397850E0
1.723701922E0,7.141425133E0,-3.865749836E0,4.401792049E0
1.726129214E0,7.055237770E0,-3.851385117E0,4.272510529E0
1.728555620E0,7.007355690E0,-3.813079596E0,4.186322689E0
1.730982079E0,6.913986206E0,-3.810685396E0,4.100135326E0
1.733409370E0,6.875680923E0,-3.817867994E0,4.013947964E0
1.735836662E0,6.796675205E0,-3.846596956E0,3.925366402E0
1.738263120E0,6.765552044E0,-3.872932196E0,3.870302200E0
1.740689579E0,6.791887283E0,-3.887296677E0,3.834390640E0
1.743116870E0,6.765552044E0,-3.927996397E0,3.788902760E0
1.745544162E0,6.722458363E0,-4.023760796E0,3.695532799E0
1.747970620E0,6.736822605E0,-4.176982880E0,3.374723673E0
1.750397079E0,6.789492607E0,-4.318234444E0,3.013214827E0
1.752824370E0,6.858922005E0,-4.425969124E0,2.780987024E0
1.755251662E0,6.911592007E0,-4.512156487E0,2.603823900E0
1.757678120E0,6.930744648E0,-4.593556404E0,2.438631058E0
1.760104579E0,6.973838806E0,-4.627073765E0,2.359625816E0
1.762531870E0,6.973838806E0,-4.725231647E0,2.321320057E0
1.764959162E0,7.038479328E0,-4.792266369E0,2.318926096E0
1.767385620E0,7.107908249E0,-4.768325329E0,2.345261097E0
1.769812079E0,7.170155048E0,-4.818601131E0,2.366808176E0
1.772239370E0,7.153395653E0,-4.938306332E0,2.369202137E0
1.774666662E0,7.189307213E0,-4.988582134E0,2.364413738E0
1.777093120E0,7.301830292E0,-4.979006290E0,2.443419456E0
1.779519579E0,7.435899734E0,-5.019705772E0,2.445813417E0
1.781946870E0,7.471811295E0,-5.098710537E0,2.469754457E0
1.784374162E0,7.589121819E0,-5.120257854E0,2.515242100E0
1.786800620E0,7.706432819E0,-5.117863655E0,2.606217861E0
1.789227079E0,7.756708622E0,-5.175322056E0,2.666070461E0
1.791654370E0,7.823743820E0,-5.158563137E0,2.718740702E0
1.794081610E0,7.878808022E0,-5.180109978E0,2.766622543E0
1.796508068E0,7.972177982E0,-5.244750977E0,2.840839624E0
1.798934526E0,8.012877464E0,-5.285450459E0,2.917450905E0
1.801361818E0,8.003301620E0,-5.287844658E0,3.025185347E0
1.803789110E0,7.988936424E0,-5.321362019E0,3.056308508E0
1.806215568E0,7.948236942E0,-5.441067219E0,3.144890070E0
1.808642026E0,7.914719105E0,-5.455431461E0,3.173619270E0
1.811069318E0,7.864443302E0,-5.436278820E0,3.149678230E0
1.813496610E0,7.775861740E0,-5.450643539E0,3.092220068E0
1.815923068E0,7.694462299E0,-5.488949299E0,3.080249548E0
1.818349526E0,7.620245457E0,-5.498525143E0,3.046732187E0
1.820776818E0,7.572363377E0,-5.460219860E0,2.950968027E0
1.823204110E0,7.507722855E0,-5.393185139E0,2.840839624E0
1.825630568E0,7.416746616E0,-5.383608818E0,2.713952303E0
1.828057026E0,7.289859772E0,-5.393185139E0,2.634947062E0
1.830484318E0,7.218036652E0,-5.338120461E0,2.505665779E0
1.832911610E0,7.206066132E0,-5.256721497E0,2.357231617E0
1.835338068E0,7.230007172E0,-5.175322056E0,2.249497414E0
1.837764526E0,7.218036652E0,-5.182504177E0,2.141762733E0
1.840191818E0,7.222825050E0,-5.230386257E0,2.057969332E0
1.842619110E0,7.258736134E0,-5.330938816E0,1.993328571E0
1.845045568E0,7.340136051E0,-5.393185139E0,1.890382409E0
1.847472026E0,7.419140816E0,-5.484160900E0,1.825741649E0
1.849899318E0,7.560392857E0,-5.534436703E0,1.847288489E0
1.852326610E0,7.727979660E0,-5.596683502E0,1.823347449E0
1.854753016E0,7.864443302E0,-5.680476665E0,1.844894528E0
1.857179474E0,8.020059586E0,-5.757088184E0,1.876017690E0
1.859606818E0,8.106247902E0,-5.814546585E0,1.897564650E0
1.862034110E0,8.213981628E0,-5.888763905E0,1.957417130E0
1.864460516E0,8.283411026E0,-5.941433907E0,2.019663811E0
1.866886974E0,8.381568909E0,-5.994103909E0,2.127398014E0
1.869314266E0,8.427057266E0,-6.025227070E0,2.213585854E0
1.871741558E0,8.472544670E0,-6.061138630E0,2.364413738E0
1.874168016E0,8.534790993E0,-6.094655991E0,2.479330540E0
1.876594474E0,8.539578438E0,-6.082685471E0,2.584671021E0
1.879021766E0,8.513243675E0,-6.046774387E0,2.649311543E0
1.881449058E0,8.424662590E0,-6.010862827E0,2.745075703E0
1.883875516E0,8.355234146E0,-5.979739189E0,2.836051464E0
1.886301974E0,8.197223663E0,-5.939039707E0,2.912662506E0
1.888729266E0,8.048789024E0,-5.917492867E0,2.910268545E0
1.891156558E0,7.919507980E0,-5.833699226E0,2.943785906E0
1.893583016E0,7.809379101E0,-5.702023506E0,2.912662506E0
1.896009474E0,7.668127537E0,-5.579924583E0,2.843233585E0
1.898436766E0,7.605880737E0,-5.476978779E0,2.831263304E0
1.900864058E0,7.534057617E0,-5.352485180E0,2.778593063E0
1.903290516E0,7.840502262E0,-5.263903618E0,2.950968027E0
1.905716974E0,8.711955070E0,-5.168139458E0,3.192772150E0
1.908144266E0,9.674382210E0,-5.065193653E0,3.266988993E0
1.910571558E0,1.033994198E1,-4.926335812E0,3.252624512E0
1.912998016E0,1.071820927E1,-4.842542171E0,3.226289511E0
1.915424474E0,1.073257351E1,-4.849724770E0,3.152072430E0
1.917851766E0,1.047879887E1,-4.933518410E0,3.135313749E0
1.920279058E0,9.990403175E0,-5.148987293E0,3.053914309E0
1.922705464E0,9.430183411E0,-5.314179897E0,2.910268545E0
1.925131922E0,8.898694038E0,-5.443460941E0,2.680435181E0
1.927559214E0,8.513243675E0,-5.536831379E0,2.464966059E0
1.929986506E0,8.297775269E0,-5.500919819E0,2.194432735E0
1.932412964E0,8.173282623E0,-5.515284061E0,1.966993451E0
1.934839422E0,8.099064827E0,-5.503313541E0,1.770677328E0
1.937266714E0,8.127794266E0,-5.491343021E0,1.567178965E0
1.939694006E0,8.206799507E0,-5.496130943E0,1.464232683E0
1.942120464E0,8.297775269E0,-5.457825661E0,1.363680601E0
1.944546922E0,8.395933151E0,-5.479372501E0,1.354104280E0
1.946974214E0,8.417480469E0,-5.548801899E0,1.466626883E0
1.949401506E0,8.216375351E0,-5.544013023E0,1.689278007E0
1.951827964E0,7.328165531E0,-5.318968296E0,1.957417130E0
1.954254422E0,7.270706654E0,-5.204051018E0,1.842500329E0
1.956681714E0,7.749526978E0,-5.306997776E0,1.854470849E0
1.959109006E0,7.996119022E0,-5.397973061E0,1.938264251E0
1.961535464E0,7.842896461E0,-5.603865623E0,1.978963971E0
1.963961922E0,7.572363377E0,-5.807363987E0,2.125004053E0
1.966389214E0,7.404776096E0,-5.855246067E0,2.192038774E0
1.968816506E0,7.253948212E0,-5.922280788E0,2.273438215E0
1.971242964E0,7.165366173E0,-5.943827629E0,2.326108456E0
1.973669422E0,7.246765614E0,-5.934251308E0,2.323714256E0
1.976096714E0,7.359288216E0,-5.972557068E0,2.381172657E0
1.978524006E0,7.320982933E0,-5.989315510E0,2.646917582E0
1.980950464E0,7.273100853E0,-5.951010227E0,2.783381462E0
1.983376922E0,7.115090370E0,-5.900733948E0,2.862386703E0
1.985804214E0,7.081573486E0,-5.840881824E0,2.859992266E0
1.988231506E0,7.134243488E0,-5.757088184E0,2.888721704E0
1.990657912E0,7.404776096E0,-5.716388226E0,2.838445663E0
1.993084370E0,7.802196980E0,-5.678082466E0,2.728317022E0
1.995511714E0,8.034424782E0,-5.651747704E0,2.745075703E0
1.997939006E0,8.321716309E0,-5.591895103E0,2.721134663E0
2.000365412E0,8.589855194E0,-5.555983543E0,2.646917582E0
2.002791870E0,8.594643593E0,-5.601471901E0,2.639735460E0
2.005219162E0,8.604219437E0,-5.615836143E0,2.579882860E0
2.007646454E0,8.455785751E0,-5.670900822E0,2.558335781E0
2.010072912E0,8.412692070E0,-5.634989262E0,2.462572098E0
2.012499370E0,8.367204666E0,-5.603865623E0,2.316532135E0
2.014926662E0,8.178070068E0,-5.548801899E0,2.141762733E0
2.017353954E0,8.123005867E0,-5.517678261E0,1.907140970E0
2.019780412E0,8.146946907E0,-5.508101463E0,1.679701567E0
2.022206870E0,8.106247902E0,-5.517678261E0,1.512114763E0
2.024634162E0,8.103853226E0,-5.520071983E0,1.296645880E0
2.027061454E0,8.017665863E0,-5.560771942E0,1.176940799E0
2.029487912E0,7.960207462E0,-5.594289303E0,1.035688996E0
2.031914370E0,7.852472782E0,-5.627806664E0,9.135899544E-1
2.034341662E0,7.802196980E0,-5.675688744E0,8.489493728E-1
2.036768954E0,7.761497498E0,-5.697235584E0,7.723381519E-1
2.039195412E0,7.773468018E0,-5.721176624E0,7.124857306E-1
2.041621870E0,7.783043861E0,-5.771452904E0,6.909388304E-1
2.044049162E0,7.775861740E0,-5.807363987E0,7.771263719E-1
2.046476454E0,7.778255939E0,-5.814546585E0,7.699441314E-1
2.048902912E0,7.756708622E0,-5.850457668E0,8.130378723E-1
2.051329370E0,7.730373859E0,-5.874398708E0,8.704962134E-1
2.053756662E0,7.668127537E0,-5.941433907E0,8.944372535E-1
2.056183954E0,7.584333897E0,-5.962980747E0,9.159840941E-1
2.058610412E0,7.596304417E0,-6.027621269E0,1.038083196E0
2.061036870E0,7.584333897E0,-6.077897072E0,1.109906077E0
2.063464162E0,7.579545975E0,-6.109020710E0,1.200881839E0
2.065891454E0,7.641792297E0,-6.118597031E0,1.296645880E0
2.068317860E0,7.677703857E0,-6.135355473E0,1.342133760E0
2.070744318E0,7.699250221E0,-6.123384953E0,1.368468761E0
2.073171610E0,7.651368618E0,-6.185631752E0,1.375651121E0
2.075598901E0,7.598698139E0,-6.302942753E0,1.380439281E0
2.078025360E0,7.601092339E0,-6.420253277E0,1.382833362E0
2.080451818E0,7.553210258E0,-6.468135357E0,1.361286521E0
2.082879110E0,7.490963936E0,-6.539958000E0,1.342133760E0
2.085306401E0,7.500540257E0,-6.630934238E0,1.311010361E0
2.087732860E0,7.447870255E0,-6.714727879E0,1.287069321E0
2.090159318E0,7.452658176E0,-6.796127319E0,1.255946159E0
2.092586610E0,7.483781815E0,-6.884708881E0,1.229611158E0
2.095013901E0,7.507722855E0,-6.887102604E0,1.260734320E0
2.097440360E0,7.644186497E0,-6.721909523E0,1.399592161E0
2.099866818E0,7.593910217E0,-6.712333679E0,1.466626883E0
2.102294110E0,7.481387138E0,-6.891890526E0,1.418744802E0
2.104721401E0,7.344923973E0,-7.186365128E0,1.318192720E0
2.107147860E0,7.376047134E0,-7.270158768E0,1.246369720E0
2.109574318E0,7.438293934E0,-7.248611450E0,1.229611158E0
2.112001610E0,7.423929214E0,-7.169606209E0,1.160182238E0
2.114428901E0,7.383229256E0,-7.066660404E0,1.066812396E0
2.116855360E0,7.263525009E0,-6.954137802E0,1.059630036E0
2.119281818E0,7.095937729E0,-6.798521042E0,1.002171755E0
2.121709110E0,6.928350925E0,-6.664451599E0,9.111959338E-1
2.124136401E0,6.744005203E0,-6.554323196E0,8.393729925E-1
2.126562860E0,6.705699921E0,-6.147325993E0,7.986732721E-1
2.128989318E0,6.564447880E0,-5.994103909E0,7.962791920E-1
2.131416610E0,6.293914795E0,-6.123384953E0,7.412149310E-1
2.133843901E0,5.889311790E0,-6.336460114E0,8.465552330E-1
2.136270308E0,5.580473423E0,-6.575869560E0,9.303487539E-1
2.138696766E0,5.365004539E0,-6.803308964E0,1.081176996E0
2.141124110E0,5.388945103E0,-6.872738361E0,1.176940799E0
2.143551349E0,5.369792461E0,-6.918226242E0,1.437897563E0
2.145977808E0,5.637931347E0,-6.642904758E0,1.452262282E0
2.148404266E0,6.152662754E0,-6.085079670E0,1.342133760E0
2.150831558E0,6.466289997E0,-5.972557068E0,1.212852359E0
2.153258849E0,6.971444130E0,-5.998892307E0,6.550273299E-1
2.155685308E0,7.100725651E0,-6.379553795E0,8.297965527E-1
2.158111766E0,7.708827019E0,-6.635722160E0,6.382686496E-1
2.160539058E0,8.249893188E0,-6.817673683E0,7.723381519E-1
2.162966349E0,8.609007835E0,-6.975684166E0,1.073994637E0
2.165392808E0,8.798141479E0,-7.049901009E0,1.437897563E0
2.167819266E0,8.913059235E0,-6.542352676E0,2.002905130E0
2.170246558E0,8.767019272E0,-6.453770638E0,2.381172657E0
2.172673849E0,8.573097229E0,-6.654875278E0,2.390749216E0
2.175100308E0,8.367204666E0,-6.920619965E0,2.187250614E0
2.177526766E0,8.240316391E0,-7.183970451E0,1.988540411E0
2.179954058E0,8.137371063E0,-7.255793571E0,1.873623610E0
2.182381349E0,7.955419540E0,-7.346769810E0,1.770677328E0
2.184807808E0,7.747132301E0,-7.294099808E0,1.598302245E0
2.187234266E0,7.423929214E0,-7.174394608E0,1.478597403E0
2.189661558E0,7.033691406E0,-7.069054127E0,1.490567803E0
2.192088849E0,7.009750366E0,-6.511229038E0,1.313404441E0
2.194515308E0,6.937927246E0,-6.527987480E0,1.088359237E0
2.196941766E0,6.375313759E0,-6.908649445E0,1.373256922E0
2.199369058E0,6.114357471E0,-7.152847767E0,1.342133760E0
2.201796349E0,6.073657513E0,-7.114542007E0,1.368468761E0
2.204222756E0,5.997046471E0,-7.069054127E0,1.461838603E0
2.206649214E0,6.076051712E0,-6.915831566E0,1.179334998E0
2.209076558E0,6.538112640E0,-6.662057400E0,4.419525862E-1
2.211503849E0,6.856527805E0,-6.477711678E0,7.326137275E-2
2.213930256E0,6.916380405E0,-6.463346958E0,1.043846607E-1
2.216356714E0,6.916380405E0,-6.527987480E0,2.695774734E-1
2.218784006E0,6.875680923E0,-6.583052158E0,4.515289664E-1
2.221211297E0,6.600359440E0,-6.700363159E0,8.537375331E-1
2.223637756E0,6.399254799E0,-6.812885761E0,1.062024117E0
2.226064214E0,6.308279514E0,-6.858373642E0,1.064418197E0
2.228491506E0,6.152662754E0,-6.956531525E0,1.181729078E0
2.230918797E0,6.016199112E0,-7.073842049E0,1.277493000E0
2.233345256E0,5.786365986E0,-7.229458809E0,1.492961884E0
2.235771714E0,5.238116741E0,-7.327616692E0,1.909535050E0
2.238199006E0,4.969977856E0,-7.229458809E0,2.000510931E0
2.240626297E0,5.173476219E0,-7.095389366E0,1.536055684E0
2.243052756E0,5.654690266E0,-7.102571487E0,1.018930316E0
2.245479214E0,5.898888111E0,-7.327616692E0,1.162576199E0
2.247906506E0,5.836641788E0,-7.593361855E0,1.684489846E0
2.250333797E0,5.836641788E0,-7.751372337E0,2.012481451E0
2.252760256E0,6.241244316E0,-7.744190216E0,1.512114763E0
2.255186714E0,7.239583969E0,-7.689125538E0,6.861506104E-1
2.257614006E0,7.809379101E0,-7.689125538E0,3.773119152E-1
2.260041297E0,8.039213181E0,-7.804042816E0,5.233519077E-1
2.262467756E0,7.799802780E0,-7.983599663E0,1.023718596E0
2.264894214E0,7.493357658E0,-8.105699539E0,1.514508843E0
2.267321506E0,7.153395653E0,-8.091334343E0,1.706036687E0
2.269748797E0,7.081573486E0,-8.024299622E0,1.495355964E0
2.272175256E0,7.071996689E0,-7.926141739E0,1.217640638E0
2.274601714E0,7.019326210E0,-7.885441780E0,9.902011752E-1
2.277029006E0,6.925956726E0,-7.837559700E0,8.130378723E-1
2.279456297E0,6.988203526E0,-7.756160736E0,6.526332498E-1
2.281882704E0,6.918774128E0,-7.796860218E0,8.633139133E-1
2.284309162E0,6.722458363E0,-7.918959141E0,1.076388717E0
2.286736506E0,6.667393684E0,-7.966841221E0,1.095541477E0
2.289163745E0,6.981020927E0,-7.942900181E0,6.430568695E-1
2.291590204E0,7.371258736E0,-7.985994339E0,2.408482730E-1
2.294016662E0,7.790226460E0,-8.069787979E0,-9.193143994E-2
2.296443954E0,8.070336342E0,-8.273285866E0,-1.422075182E-1
2.298871245E0,8.142158508E0,-8.467207909E0,4.932038486E-2
2.301297704E0,8.134976387E0,-8.591701508E0,3.222476244E-1
2.303724162E0,8.120612144E0,-8.663524628E0,5.951748490E-1
2.306151454E0,8.087094307E0,-8.699435234E0,7.268502712E-1
2.308578745E0,7.866837502E0,-8.754500389E0,8.848608732E-1
2.311005204E0,7.550816536E0,-8.843081474E0,1.009353995E0
2.313431662E0,7.167760849E0,-8.941239357E0,1.038083196E0
2.315858954E0,6.803857803E0,-9.080097198E0,1.193699598E0
2.318286245E0,6.322643757E0,-9.379359245E0,1.986146212E0
2.320712704E0,5.508650303E0,-1.048303890E1,6.494234085E0
2.323139162E0,4.285265923E0,-1.168966484E1,1.135425568E1
2.325566454E0,3.109763622E0,-1.151010704E1,1.150029564E1
2.327993745E0,2.614185095E0,-1.042318630E1,7.401597500E0
2.330420204E0,3.978821278E0,-9.642709732E0,1.794618368E0
2.332846662E0,4.881396294E0,-9.147131920E0,-1.899476051E0
2.335273954E0,5.199811459E0,-8.689859390E0,-3.304811954E0
2.337701245E0,5.211781979E0,-8.507906914E0,-2.809233427E0
2.340127704E0,5.017859936E0,-8.256526947E0,-1.253069401E0
2.342554162E0,4.838302135E0,-8.038663864E0,5.650267750E-2
2.344981454E0,4.792814732E0,-7.753766060E0,5.520811081E-1
2.347408745E0,4.931672096E0,-7.397045612E0,2.001485974E-1
2.349835204E0,5.257269859E0,-7.207911491E0,-4.510462284E-1
2.352261662E0,5.515832424E0,-6.860767841E0,-4.534403384E-1
2.354688954E0,5.597231865E0,-6.563899040E0,-3.002180159E-1
2.357116245E0,5.783971310E0,-6.204784870E0,-8.915604353E-1
2.359542651E0,6.025775433E0,-5.872004509E0,-2.411813259E0
2.361969110E0,6.248426914E0,-5.766664505E0,-3.685473680E0
2.364396401E0,6.255609035E0,-5.749905586E0,-2.962455750E0
2.366823693E0,6.298702717E0,-5.943827629E0,-2.002422094E0
2.369250151E0,6.495018959E0,-6.307730675E0,-7.048207521E-1
2.371676610E0,6.657817841E0,-6.551928520E0,5.568692684E-1
2.374103901E0,6.602753162E0,-6.654875278E0,1.385227442E0
2.376531193E0,6.480654240E0,-6.707545280E0,1.868835330E0
2.378957651E0,6.353766918E0,-6.824856281E0,2.230344296E0
2.381384110E0,6.147874355E0,-7.006807804E0,2.527212620E0
2.383811401E0,5.910858631E0,-7.229458809E0,2.764228344E0
2.386238693E0,5.673842907E0,-7.330011368E0,2.924633026E0
2.388665151E0,5.479920864E0,-7.411410332E0,3.144890070E0
2.391091610E0,5.163899899E0,-7.459291935E0,3.341206312E0
2.393518901E0,4.883790493E0,-7.471262455E0,3.611739397E0
2.395946193E0,4.637198448E0,-7.488021851E0,3.939730883E0
2.398372651E0,4.428911686E0,-7.488021851E0,4.353909969E0
2.400799110E0,4.206260681E0,-7.418592453E0,4.784847260E0
2.403226401E0,3.976427317E0,-7.464080811E0,5.182267666E0
2.405653693E0,3.681952953E0,-7.516750813E0,5.603629589E0
2.408080151E0,3.425784588E0,-7.602938175E0,5.950773716E0
2.410506610E0,3.140886784E0,-7.641243458E0,6.257218361E0
2.412933901E0,2.884718418E0,-7.701096058E0,6.455928326E0
2.415361193E0,2.717131376E0,-7.713066578E0,6.592392445E0
2.417787651E0,2.621367216E0,-7.689125538E0,6.738432407E0
2.420214110E0,2.547150373E0,-7.605332375E0,6.937142372E0
2.422641401E0,2.532785892E0,-7.499992371E0,7.123881817E0
2.425068693E0,2.489691734E0,-7.356346130E0,7.250769138E0
2.427495099E0,2.463356733E0,-7.351557732E0,7.557213783E0
2.429921558E0,2.429839611E0,-7.255793571E0,7.772682667E0
2.432348901E0,2.638126135E0,-7.088207245E0,8.222773552E0
2.434776193E0,3.004423141E0,-7.002019405E0,8.718352318E0
2.437202599E0,3.399449587E0,-6.927802086E0,8.969732285E0
2.439629058E0,3.741805553E0,-6.860767841E0,9.115772247E0
2.442056349E0,3.997974157E0,-6.803308964E0,9.113378525E0
2.444483641E0,4.215837002E0,-6.743456841E0,9.070283890E0
2.446910099E0,4.270901203E0,-6.729092121E0,8.948184967E0
2.449336558E0,4.211048603E0,-6.755427361E0,8.624981880E0
2.451763849E0,4.134437561E0,-6.669239521E0,8.162920952E0
2.454191141E0,4.065008640E0,-6.513623238E0,7.708042145E0
2.456617599E0,4.115284920E0,-6.262242794E0,7.248375416E0
2.459044058E0,4.184713364E0,-6.013256550E0,6.891654491E0
2.461471349E0,4.273295403E0,-5.831305027E0,6.764767170E0
2.463898641E0,4.505522728E0,-5.656535625E0,6.781526089E0
2.466325099E0,4.752114773E0,-5.491343021E0,6.716885567E0
2.468751558E0,4.953219414E0,-5.476978779E0,6.592392445E0
2.471178849E0,5.144747257E0,-5.424308300E0,6.436775684E0
2.473606141E0,5.345851421E0,-5.345303059E0,6.230883598E0
2.476032599E0,5.599625587E0,-5.230386257E0,5.869374275E0
2.478459058E0,5.819882870E0,-5.074769974E0,5.397737026E0
2.480886349E0,5.961134911E0,-4.938306332E0,5.052986622E0
2.483313641E0,6.001834393E0,-4.854512691E0,4.768088818E0
2.485740099E0,6.066475391E0,-4.739596367E0,4.516708374E0
2.488166558E0,6.092810154E0,-4.696502209E0,4.303633690E0
2.490593849E0,6.030563831E0,-4.686926365E0,4.114500046E0
2.493021141E0,5.968317509E0,-4.780295849E0,3.992401123E0
2.495447599E0,5.783971310E0,-4.964641094E0,3.896637201E0
2.497874058E0,5.556532383E0,-5.232780457E0,3.896637201E0
2.500301349E0,5.324304581E0,-5.541619301E0,3.954095602E0
2.502728641E0,5.116017818E0,-5.828911304E0,4.073800564E0
2.505155099E0,4.984343052E0,-6.077897072E0,4.145623207E0
2.507581558E0,4.905337334E0,-6.257454872E0,4.217446327E0
2.510008849E0,4.895761013E0,-6.365189075E0,4.279692650E0
2.512436141E0,4.948431492E0,-6.417859077E0,4.341939449E0
2.514862547E0,5.037013054E0,-6.496864796E0,4.380244732E0
2.517289006E0,5.113623619E0,-6.626145840E0,4.387427330E0
2.519716297E0,5.154323578E0,-6.800915241E0,4.444885254E0
2.522143589E0,5.147141457E0,-6.939772606E0,4.538255215E0
2.524570047E0,5.211781979E0,-7.100177765E0,4.593319893E0
2.526996506E0,5.178264618E0,-7.229458809E0,4.602895737E0
2.529423797E0,5.125594139E0,-7.318040848E0,4.598107815E0
2.531851089E0,5.099259377E0,-7.325222492E0,4.571773052E0
2.534277547E0,5.075318336E0,-7.351557732E0,4.555013657E0
2.536704006E0,5.053771496E0,-7.356346130E0,4.583743572E0
2.539131297E0,5.020253658E0,-7.341981888E0,4.562196255E0
2.541558589E0,5.056165218E0,-7.294099808E0,4.528678894E0
2.543985047E0,5.034618855E0,-7.279734612E0,4.483191490E0
2.546411506E0,5.025042534E0,-7.231852531E0,4.471220970E0
2.548838797E0,5.048983097E0,-7.229458809E0,4.428126812E0
2.551266089E0,5.032224178E0,-7.234247208E0,4.334756851E0
2.553692547E0,5.015465736E0,-7.207911491E0,4.179140568E0
2.556119006E0,4.974766254E0,-7.262976170E0,4.148017406E0
2.558546297E0,4.922095776E0,-7.248611450E0,4.057041645E0
2.560973589E0,4.919702053E0,-7.255793571E0,4.006765366E0
2.563400047E0,4.924490452E0,-7.248611450E0,3.932548523E0
2.565826506E0,4.924490452E0,-7.258188248E0,3.882272482E0
2.568253797E0,4.914913654E0,-7.236641407E0,3.839178801E0
2.570681089E0,4.977160454E0,-7.150453568E0,3.764961958E0
2.573107547E0,5.015465736E0,-7.061871529E0,3.609345436E0
2.575534006E0,4.967583656E0,-7.037930489E0,3.494428635E0
2.577961297E0,4.969977856E0,-6.985260487E0,3.372329712E0
2.580388589E0,4.946036816E0,-6.954137802E0,3.288536072E0
2.582815047E0,4.946036816E0,-6.920619965E0,3.214318991E0
2.585241506E0,4.914913654E0,-6.879920006E0,3.075461388E0
2.587668797E0,4.821543694E0,-6.836826801E0,2.962938547E0
2.590096089E0,4.689868450E0,-6.803308964E0,2.819292784E0
2.592522495E0,4.539040089E0,-6.803308964E0,2.666070461E0
2.594948954E0,4.347512245E0,-6.805703163E0,2.567912340E0
2.597376297E0,4.148802280E0,-6.867949486E0,2.431448936E0
2.599803589E0,3.883057356E0,-6.896679401E0,2.373990297E0
2.602229995E0,3.600553751E0,-6.884708881E0,2.227950335E0
2.604656454E0,3.322838306E0,-6.954137802E0,2.117821932E0
2.607083745E0,3.081034422E0,-7.059477806E0,2.043604612E0
2.609511037E0,2.824865818E0,-7.114542007E0,1.988540411E0
2.611937495E0,2.674037457E0,-7.172000885E0,2.014875650E0
2.614363954E0,2.662066936E0,-7.325222492E0,2.105851412E0
2.616791245E0,3.248621225E0,-7.660396576E0,3.037155628E0
2.619218537E0,4.644380093E0,-8.124851227E0,4.478403091E0
2.621644995E0,6.032958031E0,-8.493543625E0,5.505471230E0
2.624071454E0,7.347317696E0,-8.744923592E0,6.343405724E0
2.626498745E0,8.213981628E0,-8.740135193E0,6.815043449E0
2.628926037E0,8.719137192E0,-8.632400513E0,6.982630253E0
2.631352495E0,9.116557121E0,-8.601277351E0,6.949112892E0
2.633778954E0,9.284143448E0,-8.591701508E0,6.827013969E0
2.636206245E0,9.226685524E0,-8.591701508E0,6.513386726E0
2.638633537E0,8.920240402E0,-8.577336311E0,6.013020515E0
2.641059995E0,8.374386787E0,-8.438478470E0,5.524623871E0
2.643486454E0,7.682491779E0,-8.318773270E0,4.990739822E0
2.645913745E0,6.940321445E0,-8.206251144E0,4.301239967E0
2.648341037E0,6.341796398E0,-8.048240662E0,3.621315956E0
2.650767495E0,5.889311790E0,-7.921353340E0,2.934209347E0
2.653193954E0,5.506256104E0,-7.816013336E0,2.273438215E0
2.655621245E0,5.264452457E0,-7.713066578E0,1.684489846E0
2.658048537E0,5.132776737E0,-7.686731815E0,1.205670118E0
2.660474995E0,5.096865177E0,-7.713066578E0,8.896490335E-1
2.662901454E0,5.065742016E0,-7.684337616E0,6.765742302E-1
2.665328745E0,5.087288857E0,-7.636455536E0,7.124857306E-1
2.667756037E0,5.226146221E0,-7.725037098E0,7.531853914E-1
2.670182495E0,5.300364017E0,-7.832771778E0,8.082496524E-1
2.672608954E0,5.434433460E0,-7.918959141E0,8.130378723E-1
2.675036245E0,5.549349785E0,-7.995570183E0,9.135899544E-1
2.677463537E0,5.551743984E0,-8.036270142E0,1.018930316E0
2.679889943E0,5.697783947E0,-8.048240662E0,1.038083196E0
2.682316401E0,5.791153908E0,-8.074575424E0,1.062024117E0
2.684743745E0,5.772000790E0,-8.043452263E0,1.026112676E0
2.687170985E0,5.745666027E0,-7.983599663E0,9.686542749E-1
2.689597443E0,5.733695507E0,-7.897412300E0,9.782306552E-1
2.692023901E0,5.645113945E0,-7.818407059E0,9.662601948E-1
2.694451193E0,5.499073982E0,-7.818407059E0,9.375309944E-1
2.696878485E0,5.487103462E0,-7.777707100E0,9.925953150E-1
2.699304943E0,5.518226624E0,-7.794466019E0,1.045265436E0
2.701731401E0,5.499073982E0,-7.866289139E0,1.160182238E0
2.704158693E0,5.527802944E0,-7.952476501E0,1.339739561E0
2.706585985E0,5.613990307E0,-8.041058540E0,1.531267524E0
2.709012443E0,5.724119186E0,-8.146398544E0,1.741948247E0
2.711438901E0,5.958740711E0,-8.189492226E0,1.928687811E0
2.713866193E0,6.102386951E0,-8.254133224E0,1.964599371E0
2.716293485E0,6.145480156E0,-8.337926865E0,1.727583647E0
2.718719943E0,6.150269032E0,-8.373838425E0,1.619849086E0
2.721146401E0,6.135904312E0,-8.397779465E0,1.555208445E0
2.723573693E0,6.183785915E0,-8.337926865E0,1.559996724E0
2.726000985E0,6.107174873E0,-8.249344826E0,1.600696325E0
2.728427443E0,6.102386951E0,-8.160762787E0,1.684489846E0
2.730853901E0,6.006622791E0,-8.108093262E0,1.679701567E0
2.733281193E0,5.934799671E0,-8.084152222E0,1.639001966E0
2.735708485E0,5.760030270E0,-8.096122742E0,1.557602644E0
2.738134943E0,5.561320305E0,-8.048240662E0,1.466626883E0
2.740561401E0,5.472738743E0,-8.136821747E0,1.413956642E0
2.742988693E0,5.388945103E0,-8.163157463E0,1.416350722E0
2.745415985E0,5.285998821E0,-8.170339584E0,1.418744802E0
2.747842443E0,5.195023537E0,-8.163157463E0,1.399592161E0
2.750268901E0,5.089682579E0,-8.179916382E0,1.315798640E0
2.752696193E0,4.946036816E0,-8.103304863E0,1.246369720E0
2.755123485E0,4.742538929E0,-8.014722824E0,1.088359237E0
2.757549943E0,4.603680611E0,-7.938112259E0,9.782306552E-1
2.759976401E0,4.462429047E0,-7.849530220E0,8.274024725E-1
2.762403693E0,4.306812763E0,-7.746583939E0,7.244562507E-1
2.764830985E0,4.285265923E0,-7.746583939E0,7.890968323E-1
2.767257391E0,4.313994884E0,-7.808830738E0,9.471074343E-1
2.769683849E0,4.309206963E0,-7.904594898E0,1.100329757E0
2.772111141E0,4.397788525E0,-7.902200699E0,1.287069321E0
2.774538433E0,4.558192730E0,-8.014722824E0,1.531267524E0
2.776964891E0,4.689868450E0,-8.170339584E0,1.842500329E0
2.779391349E0,4.886184216E0,-8.330743790E0,2.163309574E0
2.781818641E0,5.032224178E0,-8.409749031E0,2.421872377E0
2.784245933E0,5.142353535E0,-8.495937347E0,2.603823900E0
2.786672391E0,5.187840939E0,-8.555788994E0,2.692405701E0
2.789098849E0,5.180658817E0,-8.522272110E0,2.792957544E0
2.791526141E0,5.295575142E0,-8.364261627E0,2.869568825E0
2.793953433E0,5.412886143E0,-8.000358582E0,3.018002748E0
2.796379891E0,5.420068264E0,-8.251739502E0,2.862386703E0
2.798806349E0,5.197417259E0,-8.632400513E0,2.385960817E0
2.801233641E0,4.917307854E0,-8.922085762E0,2.237526894E0
2.803660933E0,4.905337334E0,-8.826322556E0,2.065151691E0
2.806087391E0,4.876608372E0,-8.816745758E0,2.096274853E0
2.808513849E0,4.670715809E0,-8.694646835E0,1.952628851E0
2.810941141E0,4.653956890E0,-8.567760468E0,1.966993451E0
2.813368433E0,4.254142761E0,-8.500724792E0,1.990934491E0
2.815794891E0,3.945304155E0,-8.529454231E0,1.871229529E0
2.818221349E0,3.669982672E0,-8.620429993E0,1.820953488E0
2.820648641E0,3.607736111E0,-8.680282593E0,1.469020963E0
2.823075933E0,4.223019123E0,-8.462419510E0,4.802581668E-1
2.825502391E0,4.912519932E0,-8.163157463E0,-2.499419600E-1
2.827928849E0,5.149535179E0,-8.002752304E0,-2.643065453E-1
2.830356141E0,4.967583656E0,-8.019511223E0,-1.771438308E-2
2.832783433E0,4.493552208E0,-8.237374306E0,6.957270503E-1
2.835209891E0,4.189501762E0,-8.357079506E0,1.088359237E0
2.837636349E0,3.825598955E0,-8.601277351E0,1.500144243E0
2.840063641E0,3.689135313E0,-8.103304863E0,1.801800609E0
2.842490933E0,3.789687634E0,-8.273285866E0,1.313404441E0
2.844917391E0,4.103314400E0,-8.780835152E0,-1.015078351E-1
2.847343849E0,4.227807522E0,-9.051367760E0,-7.479144931E-1
2.849771141E0,4.366665363E0,-8.788017273E0,-1.685426086E-1
2.852198433E0,4.381029606E0,-8.754500389E0,2.408482730E-1
2.854624891E0,4.675503731E0,-8.577336311E0,6.454509497E-1
2.857051349E0,5.142353535E0,-8.376232147E0,1.229611158E0
2.859478641E0,5.939587593E0,-8.146398544E0,1.478597403E0
2.861905933E0,6.653029442E0,-8.194280624E0,1.696460366E0
2.864332391E0,6.873286247E0,-8.294832230E0,2.050786972E0
2.866758849E0,6.897227287E0,-8.503119469E0,2.527212620E0
2.869186141E0,6.861315727E0,-8.744923592E0,2.962938547E0
2.871613381E0,6.420801640E0,-8.969967842E0,3.228683710E0
2.874039839E0,5.800730228E0,-9.048974037E0,3.235865831E0
2.876466297E0,5.365004539E0,-9.080097198E0,2.879145145E0
2.878893589E0,4.867032051E0,-9.082490921E0,2.536789179E0
2.881320881E0,4.412152767E0,-9.003486633E0,2.120215893E0
2.883747339E0,3.897422075E0,-8.922085762E0,1.892776370E0
2.886173797E0,3.686741352E0,-8.811958313E0,1.887988210E0
2.888601089E0,3.277350187E0,-8.658736229E0,1.921505570E0
2.891028381E0,3.301291227E0,-8.491148949E0,2.043604612E0
2.893454839E0,3.442543268E0,-8.349897385E0,1.861653090E0
2.895881297E0,3.674770832E0,-8.285256386E0,1.660548806E0
2.898308589E0,3.636465311E0,-8.479178429E0,1.672519326E0
2.900735881E0,3.930939198E0,-8.421720505E0,1.694066286E0
2.903162339E0,3.942909718E0,-8.067393303E0,1.799406648E0
2.905588797E0,3.880663395E0,-7.899806499E0,2.211191654E0
2.908016089E0,3.806446314E0,-7.971629143E0,2.314137936E0
2.910443381E0,3.760958195E0,-8.076970100E0,2.189644814E0
2.912869839E0,3.691529512E0,-8.139216423E0,1.674913406E0
2.915296297E0,3.959668636E0,-7.811224461E0,1.765889049E0
2.917723589E0,4.323571205E0,-8.163157463E0,1.224822879E0
2.920150881E0,3.753776073E0,-8.589306831E0,1.157788157E0
2.922577339E0,3.191162825E0,-8.773652077E0,1.435503483E0
2.925003797E0,3.356355667E0,-8.802382469E0,1.129058838E0
2.927431089E0,3.789687634E0,-8.778441429E0,6.861506104E-1
2.929858381E0,3.921363115E0,-8.771258354E0,6.502391696E-1
2.932284839E0,4.500734806E0,-7.732219696E0,7.819145918E-1
2.934711297E0,4.826331615E0,-8.359473228E0,2.647892535E-1
2.937138589E0,4.606074810E0,-9.420059204E0,3.007007539E-1
2.939565881E0,4.768873692E0,-9.573281288E0,5.664456487E-1
2.941992339E0,5.264452457E0,-9.542158127E0,1.035688996E0
2.944418797E0,5.429644585E0,-9.556523323E0,8.465552330E-1
2.946846089E0,5.262057781E0,-9.458365440E0,9.399251342E-1
2.949273381E0,5.080106258E0,-9.326688766E0,1.143423438E0
2.951699839E0,4.737750530E0,-9.293171883E0,9.614719748E-1
2.954126297E0,4.555799007E0,-9.317112923E0,7.460030913E-1
2.956553589E0,4.302024364E0,-9.348236084E0,7.268502712E-1
2.958980881E0,4.062614918E0,-9.348236084E0,7.843086720E-1
2.961407339E0,3.954880238E0,-9.238106728E0,4.970168471E-1
2.963833797E0,3.677164793E0,-9.096856117E0,4.898345768E-1
2.966261089E0,3.674770832E0,-9.022639275E0,6.143276691E-1
2.968688381E0,3.564642191E0,-8.924481392E0,8.106437922E-1
2.971114839E0,3.880663395E0,-8.802382469E0,5.927807689E-1
2.973541297E0,3.988397837E0,-8.771258354E0,8.034614921E-1
2.975968589E0,4.029097080E0,-8.737741470E0,8.489493728E-1
2.978395829E0,3.842357874E0,-8.792804718E0,1.073994637E0
2.980822287E0,3.756170034E0,-8.811958313E0,1.203276038E0
2.983248745E0,3.851933956E0,-8.749711037E0,1.260734320E0
2.985676089E0,3.842357874E0,-8.713800430E0,1.188911319E0
2.988103381E0,4.076979160E0,-8.644371033E0,1.047659516E0
2.990529787E0,4.132043362E0,-8.625218391E0,1.129058838E0
2.992956245E0,4.412152767E0,-8.524665833E0,9.662601948E-1
2.995383589E0,4.383423805E0,-8.562972069E0,1.064418197E0
2.997810829E0,4.045855999E0,-8.637188911E0,1.267916560E0
3.000237287E0,3.935727596E0,-8.685070992E0,1.073994637E0
3.002663745E0,3.820810795E0,-8.790410995E0,9.399251342E-1
3.005091037E0,3.760958195E0,-8.883781433E0,9.088017941E-1
3.007518329E0,4.045855999E0,-8.943633080E0,9.303487539E-1
3.009944787E0,3.990791798E0,-9.025032997E0,9.207723141E-1
3.012371245E0,4.081767559E0,-9.080097198E0,1.119482517E0
3.014798537E0,3.808840275E0,-9.099249840E0,1.069206476E0
3.017225829E0,3.725046873E0,-9.142344475E0,1.138635278E0
3.019652287E0,3.598159552E0,-9.199802399E0,9.878070354E-1
3.022078745E0,3.588583231E0,-9.295566559E0,9.878070354E-1
3.024506037E0,3.325232267E0,-9.484700203E0,1.184123278E0
3.026933329E0,3.315655947E0,-9.563705444E0,1.081176996E0
3.029359787E0,3.516760349E0,-9.568492889E0,9.590778947E-1
3.031786245E0,3.722652912E0,-9.546946526E0,6.837565303E-1
3.034213537E0,3.818416834E0,-9.566099167E0,7.029092908E-1
3.036640829E0,3.909392595E0,-9.549340248E0,5.616574883E-1
3.039067287E0,3.792081594E0,-9.549340248E0,6.191158295E-1
3.041493745E0,3.533519030E0,-9.549340248E0,6.885447502E-1
3.043921037E0,3.375508547E0,-9.503851891E0,9.279546142E-1
3.046348329E0,3.296503305E0,-9.436818123E0,1.157788157E0
3.048774787E0,2.980482101E0,-9.451182365E0,1.040477276E0
3.051201245E0,2.798530579E0,-9.484700203E0,1.030900836E0
3.053628537E0,2.688401937E0,-9.525399208E0,9.542896748E-1
3.056055829E0,2.946964741E0,-9.525399208E0,1.040477276E0
3.058482287E0,2.982876301E0,-9.558917046E0,1.363680601E0
3.060908745E0,2.729101896E0,-9.625950813E0,1.425927162E0
3.063336037E0,2.853594780E0,-9.688198090E0,1.524085283E0
3.065763329E0,2.733890057E0,-9.764809608E0,1.504932404E0
3.068189787E0,2.410686493E0,-9.810297012E0,1.447474003E0
3.070616245E0,2.381957531E0,-9.841420174E0,1.480991364E0
3.073043537E0,2.741072416E0,-9.580464363E0,1.512114763E0
3.075470829E0,2.872747898E0,-9.130373001E0,1.801800609E0
3.077897287E0,2.695584297E0,-9.523005486E0,1.342133760E0
3.080323745E0,2.860777378E0,-9.688198090E0,1.023718596E0
3.082751037E0,2.686007977E0,-9.695380211E0,1.112300277E0
3.085178329E0,2.745860577E0,-9.652287483E0,9.375309944E-1
3.087604787E0,2.281405210E0,-9.475123405E0,9.878070354E-1
3.090031245E0,1.886379004E0,-9.094462395E0,1.212852359E0
3.092458537E0,-5.675722361E-1,-8.637188911E0,8.082496524E-1
3.094885829E0,-4.050986290E0,-8.086545944E0,9.566838145E-1
3.097312287E0,-1.932208538E0,-8.900540352E0,9.447132945E-1
3.099738745E0,4.283728302E-1,-9.013062477E0,1.088359237E0
3.102166037E0,2.666855335E0,-8.553395271E0,1.366074681E0
3.104593329E0,4.349906445E0,-7.935718060E0,2.139368534E0
3.107019787E0,5.681025505E0,-7.562238693E0,2.850416183E0
3.109446245E0,5.719330788E0,-7.430562973E0,3.664409637E0
3.111873537E0,5.882129669E0,-7.459291935E0,4.116894245E0
3.114300829E0,6.396860600E0,-7.437745094E0,3.599768877E0
3.116727235E0,5.925223351E0,-7.610120773E0,2.682829142E0
3.119153693E0,6.337008476E0,-7.777707100E0,2.043604612E0
3.121581037E0,5.678631306E0,-8.158369064E0,2.177674294E0
3.124008329E0,4.483975887E0,-8.522272110E0,2.637341261E0
3.126434735E0,4.112890720E0,-8.594095230E0,2.271044016E0
3.128861193E0,4.572557926E0,-8.601277351E0,8.369788527E-1
3.131288537E0,5.123200417E0,-8.637188911E0,3.701296449E-1
3.133715776E0,5.020253658E0,-8.661129951E0,6.047512889E-1
3.136142235E0,4.713809490E0,-8.586913109E0,5.688397884E-1
3.138568693E0,5.020253658E0,-8.428902626E0,6.933329105E-1
3.140995985E0,5.760030270E0,-8.155975342E0,7.029092908E-1
3.143423276E0,5.872553349E0,-8.017117500E0,1.401986122E0
3.145849735E0,5.575685024E0,-8.517483711E0,1.275098920E0
3.148276193E0,5.357821941E0,-8.783228874E0,1.361286521E0
3.150703485E0,5.077712536E0,-8.912509918E0,1.718007207E0
3.153130776E0,5.173476219E0,-8.969967842E0,1.665336967E0
3.155557235E0,5.455979824E0,-8.910116196E0,1.107511997E0
3.157983693E0,5.692996025E0,-8.874204636E0,7.292444110E-1
3.160410985E0,6.009016991E0,-8.788017273E0,3.222476244E-1
3.162838276E0,5.795941830E0,-8.704223633E0,2.240895927E-1
3.165264735E0,5.523015022E0,-8.709012032E0,3.653414249E-1
3.167691193E0,5.204599857E0,-8.881386757E0,4.970168471E-1
3.170118485E0,4.627621651E0,-9.001091957E0,4.323762059E-1
3.172545776E0,4.244565964E0,-9.185437202E0,3.797059953E-1
3.174972235E0,3.993185759E0,-9.329083443E0,1.019905582E-1
3.177398693E0,3.641253233E0,-9.403300285E0,-1.637544185E-1
3.179825985E0,3.418602228E0,-9.302747726E0,-4.294993579E-1
3.182253276E0,3.239044905E0,-9.195014000E0,-6.689092517E-1
3.184679735E0,3.078640223E0,-9.123190880E0,-7.814319134E-1
3.187106193E0,2.913447380E0,-9.048974037E0,-9.274719357E-1
3.189533485E0,2.745860577E0,-9.048974037E0,-8.867722750E-1
3.191960776E0,2.654884815E0,-9.135161400E0,-6.784856319E-1
3.194387235E0,2.451386213E0,-9.266837120E0,-5.755394101E-1
3.196813693E0,2.480115652E0,-9.494276047E0,-3.552823067E-1
3.199240985E0,2.391533852E0,-9.551733971E0,-2.882475257E-1
3.201668276E0,2.425051212E0,-9.539764404E0,-1.446016133E-1
3.204094735E0,2.549544334E0,-9.613981247E0,-9.556915611E-4
3.206521193E0,2.657278776E0,-9.604405403E0,1.307197362E-1
3.208948485E0,2.774589539E0,-9.587646484E0,3.246417642E-1
3.211375776E0,2.975693941E0,-9.606799126E0,5.496869683E-1
3.213802235E0,3.081034422E0,-9.623557091E0,7.962791920E-1
3.216228693E0,3.205527544E0,-9.587646484E0,9.279546142E-1
3.218655985E0,3.411420107E0,-9.530188560E0,9.854129553E-1
3.221083276E0,3.705893993E0,-9.551733971E0,1.095541477E0
3.223509735E0,3.878269196E0,-9.568492889E0,1.255946159E0
3.225936193E0,3.926151037E0,-9.525399208E0,1.315798640E0
3.228363485E0,3.923757076E0,-9.506247520E0,1.315798640E0
3.230790776E0,3.753776073E0,-9.477517128E0,1.303828120E0
3.233217235E0,3.638859272E0,-9.494276047E0,1.164970398E0
3.235643693E0,3.598159552E0,-9.451182365E0,1.050053716E0
3.238070985E0,3.547883511E0,-9.432028770E0,8.489493728E-1
3.240498276E0,3.420996189E0,-9.436818123E0,8.130378723E-1
3.242924735E0,3.138492584E0,-9.362601280E0,8.058555126E-1
3.245351193E0,3.059487343E0,-9.391329765E0,7.029092908E-1
3.247778485E0,2.791348219E0,-9.230925560E0,4.970168471E-1
3.250205776E0,2.659672737E0,-9.175861359E0,4.156174958E-1
3.252632235E0,2.489691734E0,-9.051367760E0,4.371643960E-1
3.255058693E0,2.369987011E0,-8.972363472E0,4.730758965E-1
3.257485985E0,2.372380972E0,-9.058549881E0,5.496869683E-1
3.259913276E0,2.571091413E0,-9.300354004E0,7.627617717E-1
3.262339735E0,2.642914295E0,-9.491882324E0,1.033294916E0
3.264766193E0,2.815289259E0,-9.587646484E0,1.265522480E0
3.267193485E0,2.832047939E0,-9.410483360E0,1.662943006E0
3.269620776E0,2.851200819E0,-9.192620277E0,1.775465608E0
3.272047235E0,3.057093382E0,-9.127979279E0,1.794618368E0
3.274473693E0,3.133704662E0,-9.015456200E0,1.847288489E0
3.276900985E0,3.212709904E0,-8.965180397E0,1.854470849E0
3.279328276E0,3.418602228E0,-8.996303558E0,1.794618368E0
3.281754735E0,3.813628674E0,-9.075308800E0,1.686883807E0
3.284181193E0,4.005156040E0,-9.077703476E0,1.677307487E0
3.286608485E0,4.108102322E0,-9.008274078E0,1.799406648E0
3.289035776E0,4.062614918E0,-8.926875114E0,1.823347449E0
3.291462235E0,4.139225960E0,-8.883781433E0,1.830529809E0
3.293888693E0,4.285265923E0,-8.969967842E0,1.876017690E0
3.296315985E0,4.290053844E0,-8.565365791E0,1.612666845E0
3.298743276E0,4.213442802E0,-8.108093262E0,1.114694357E0
3.301169735E0,4.134437561E0,-7.990782261E0,9.423191547E-1
3.303596193E0,4.232595444E0,-7.784889698E0,6.646037102E-1
3.306023485E0,4.170349121E0,-7.341981888E0,3.294299543E-1
3.308450776E0,3.727441072E0,-7.088207245E0,3.749178350E-1
3.310877235E0,3.267774105E0,-6.949349403E0,2.264836878E-1
3.313303693E0,3.011605501E0,-7.054689884E0,1.331138313E-1
3.315730985E0,3.380296469E0,-7.339587212E0,8.620703593E-3
3.318158276E0,3.789687634E0,-8.158369064E0,3.437945545E-1
3.320584735E0,4.155984402E0,-8.084152222E0,3.701296449E-1
3.323011193E0,3.954880238E0,-7.959658623E0,3.725237250E-1
3.325438485E0,3.758564234E0,-7.035536766E0,-3.447307646E-2
3.327865776E0,3.164827824E0,-7.042719364E0,7.086727023E-2
3.330292183E0,3.262985706E0,-6.401100636E0,-2.667006552E-1
3.332718693E0,2.839230299E0,-6.338854313E0,-5.803275704E-1
3.335145985E0,2.302952290E0,-6.494470596E0,-3.241590261E-1
3.337573276E0,2.556726456E0,-6.808097363E0,2.576069832E-1
3.339999683E0,2.575879574E0,-7.442533493E0,6.095395088E-1
3.342426141E0,2.322105169E0,-8.246951103E0,1.354104280E0
3.344853485E0,2.513632774E0,-8.572547913E0,1.583937645E0
3.347280776E0,2.288587570E0,-8.914904594E0,1.890382409E0
3.349707183E0,2.458568573E0,-7.945294380E0,1.753918767E0
3.352133641E0,3.023576021E0,-6.992443085E0,1.710824847E0
3.354560985E0,3.638859272E0,-6.008468628E0,1.073994637E0
3.356988276E0,3.454513788E0,-6.367583275E0,8.034614921E-1
3.359414683E0,2.968511581E0,-6.765003681E0,6.286922097E-1
3.361841141E0,2.721919537E0,-7.071448326E0,3.270358443E-1
3.364268485E0,2.391533852E0,-7.811224461E0,4.132234156E-1
3.366695776E0,2.211976528E0,-8.390596390E0,3.246417642E-1
3.369122235E0,2.202399969E0,-8.950816154E0,6.598155499E-1
3.371548693E0,1.881590843E0,-9.367388725E0,1.401986122E0
3.373975985E0,2.587850094E0,-9.111220360E0,1.294251680E0
3.376403276E0,2.671643257E0,-8.847868919E0,9.638661146E-1
3.378829735E0,3.016393661E0,-9.834238052E0,8.178260326E-1
3.381256193E0,2.884718418E0,-1.027235794E1,1.067787483E-1
3.383683485E0,2.398715973E0,-1.027714634E1,-1.565721184E-1
3.386110776E0,2.216764450E0,-1.001140118E1,-4.151347578E-1
3.388537183E0,2.269434690E0,-9.503851891E0,-5.396279693E-1
3.390963641E0,2.252676010E0,-9.254866600E0,-5.755394101E-1
3.393390985E0,2.451386213E0,-8.704223633E0,-7.503086329E-1
3.395818276E0,2.669249296E0,-8.460024834E0,-9.921126366E-1
3.398244683E0,2.731495857E0,-8.689859390E0,-1.272222161E0
3.400671193E0,2.678825855E0,-9.257260323E0,-1.581060886E0
3.403098485E0,2.216764450E0,-9.807903290E0,-1.760618329E0
3.405525776E0,2.013266325E0,-9.913243294E0,-1.863564491E0
3.407952183E0,1.986931205E0,-9.752839088E0,-1.700765729E0
3.410378641E0,1.709215641E0,-9.499064445E0,-1.760618329E0
3.412805985E0,1.584722519E0,-9.070521355E0,-1.856382251E0
3.415233276E0,1.644575000E0,-8.797593117E0,-1.698371768E0
3.417659683E0,1.510505557E0,-9.202196121E0,-1.832441330E0
3.420086141E0,1.129843831E0,-9.982671738E0,-1.889899611E0
3.422513485E0,1.038868070E0,-1.074399662E1,-1.758224130E0
3.424940776E0,9.718332291E-1,-1.128266811E1,-1.449385405E0
3.427367183E0,1.113085032E0,-1.131857872E1,-1.059147358E0
3.429793641E0,9.478922486E-1,-1.157714176E1,-7.670673132E-1
3.432220933E0,9.694391489E-1,-1.157474804E1,-5.108987689E-1
3.434648224E0,1.208849072E0,-1.166572380E1,-4.486521482E-1
3.437074683E0,1.228001952E0,-1.179979324E1,-2.786711454E-1
3.439501141E0,1.685274720E0,-1.202962685E1,-2.714888453E-1
3.441928485E0,1.814556003E0,-1.209187317E1,-4.318934679E-1
3.444355776E0,1.900743723E0,-1.201047421E1,-4.342875481E-1
3.446782183E0,2.097059727E0,-1.194583321E1,-3.433118165E-1
3.449208641E0,2.338863850E0,-1.192428589E1,-4.127406776E-1
3.451635985E0,2.429839611E0,-1.169684696E1,-3.097944260E-1
3.454063276E0,2.669249296E0,-1.178542900E1,-1.996658891E-1
3.456489683E0,2.475327253E0,-1.185006905E1,-2.547301352E-1
3.458916141E0,2.417869091E0,-1.209905529E1,-4.199229479E-1
3.461343485E0,2.267040730E0,-1.240310574E1,-6.258154511E-1
3.463770776E0,2.089877367E0,-1.225467205E1,-5.061105490E-1
3.466197183E0,2.089877367E0,-1.168727016E1,-2.475478798E-1
3.468623641E0,2.063542128E0,-1.159390163E1,-1.493898183E-1
3.471050933E0,2.020448446E0,-1.164417744E1,-2.427596897E-1
3.473478224E0,2.077906847E0,-1.145264912E1,-2.858534157E-1
3.475904683E0,2.118606567E0,-1.115099239E1,-3.648586869E-1
3.478331141E0,2.197611809E0,-1.092355347E1,-4.486521482E-1
3.480758485E0,2.168882608E0,-1.070808411E1,-6.066626906E-1
3.483185776E0,2.077906847E0,-1.045191574E1,-6.856679320E-1
3.485612183E0,2.008477926E0,-1.019574738E1,-7.263676524E-1
3.488038641E0,1.888773203E0,-9.786355972E0,-6.282095909E-1
3.490465985E0,2.010872126E0,-9.451182365E0,-6.689092517E-1
3.492893276E0,2.025236845E0,-9.309929848E0,-6.473624110E-1
3.495319683E0,2.006083965E0,-9.477517128E0,-7.598850131E-1
3.497746141E0,1.936655045E0,-9.503851891E0,-7.455204129E-1
3.500173485E0,1.953413844E0,-9.369783401E0,-7.072148323E-1
3.502600776E0,1.915108204E0,-9.087279320E0,-7.335499525E-1
3.505027183E0,1.759491801E0,-8.823927879E0,-5.851158500E-1
3.507453641E0,1.793009162E0,-8.572547913E0,-5.994803905E-1
3.509880985E0,1.716398001E0,-8.160762787E0,-1.047176838E0
3.512308276E0,1.460229397E0,-8.000358582E0,-1.195611000E0
3.514734683E0,1.101114631E0,-7.835165501E0,-1.028024077E0
3.517161193E0,1.069991350E0,-7.341981888E0,-5.635688901E-1
3.519588485E0,2.094665527E0,-3.520999670E0,7.029092908E-1
3.522015724E0,3.102581263E0,-2.620818377E0,2.177674294E0
3.524442183E0,3.784899235E0,-5.192080498E0,3.749178350E-1
3.526868641E0,3.677164793E0,-7.600543976E0,-7.215794325E-1
3.529295985E0,3.478454828E0,-9.439211845E0,-1.418262124E0
3.531723224E0,2.798530579E0,-1.043755150E1,-1.389533043E0
3.534149683E0,2.063542128E0,-1.087088299E1,-1.174064159E0
3.536576141E0,1.757097721E0,-1.067696095E1,-2.140304893E-1
3.539003485E0,1.555993438E0,-1.089961243E1,2.552128732E-1
3.541430776E0,1.472199917E0,-9.776780128E0,1.145817637E0
3.543857183E0,1.919896483E0,-8.895750999E0,1.543237925E0
3.546283693E0,2.310134649E0,-9.247684479E0,5.592634082E-1
3.548710985E0,3.073852062E0,-9.515823364E0,-4.630167484E-1
3.551138276E0,3.861510515E0,-9.867754936E0,-1.166881800E0
3.553564683E0,4.313994884E0,-1.028193474E1,-1.664854407E0
3.555991141E0,4.155984402E0,-1.017180634E1,-1.382350683E0
3.558418485E0,3.906998396E0,-9.755232811E0,-6.784856319E-1
3.560845776E0,3.485636950E0,-9.269230843E0,1.438407227E-3
3.563272183E0,3.186374664E0,-8.603671074E0,4.108292758E-1
3.565698641E0,3.160039663E0,-8.421720505E0,4.012529254E-1
3.568125985E0,3.009211302E0,-8.359473228E0,9.720236063E-2
3.570553276E0,2.963723660E0,-8.541424751E0,-5.468102098E-1
3.572979735E0,2.879930019E0,-8.752104759E0,-8.843781352E-1
3.575406193E0,2.733890057E0,-8.989121437E0,-1.171670079E0
3.577833485E0,2.458568573E0,-9.345842361E0,-1.286586761E0
3.580260776E0,2.037207127E0,-9.338660240E0,-1.274616241E0
3.582687235E0,1.960596085E0,-9.156707764E0,-7.862200737E-1
3.585113693E0,1.895955443E0,-9.029821396E0,-6.162390709E-1
3.587540985E0,1.816950202E0,-8.709012032E0,-2.236068845E-1
3.589968276E0,1.982142925E0,-8.562972069E0,2.298529632E-2
3.592394735E0,2.240705490E0,-8.878993034E0,-7.277865708E-2
3.594821193E0,2.487297773E0,-9.551733971E0,-4.366816580E-1
3.597248485E0,2.544756413E0,-9.930002213E0,-6.904561520E-1
3.599675776E0,2.530391455E0,-1.042558002E1,-7.455204129E-1
3.602102235E0,2.448992252E0,-1.088524723E1,-7.694613934E-1
3.604528693E0,2.365198851E0,-1.126112080E1,-5.492043495E-1
3.606955985E0,2.307740211E0,-1.154123020E1,-4.845636189E-1
3.609383276E0,2.252676010E0,-1.146461964E1,-2.188186795E-1
3.611809735E0,2.264646530E0,-1.173994160E1,-1.422075182E-1
3.614236193E0,2.336469650E0,-1.154123020E1,5.650267750E-2
3.616663485E0,2.377169371E0,-1.122520924E1,2.983066738E-1
3.619090776E0,2.492086172E0,-1.115817547E1,2.216954976E-1
3.621517235E0,2.664461136E0,-1.121563339E1,7.804956287E-2
3.623943693E0,2.786560059E0,-1.103128719E1,1.438407227E-3
3.626370985E0,2.750648499E0,-1.071047783E1,1.067787483E-1
3.628798276E0,2.767407417E0,-1.067217350E1,-1.771438308E-2
3.631224735E0,2.671643257E0,-1.053331470E1,-2.283950895E-1
3.633651193E0,2.547150373E0,-1.039206314E1,-3.648586869E-1
3.636078485E0,2.338863850E0,-1.001619053E1,-3.433118165E-1
3.638505776E0,2.183247328E0,-9.831844330E0,-4.223170578E-1
3.640932235E0,2.104242086E0,-9.669045448E0,-5.563866496E-1
3.643358693E0,1.986931205E0,-9.400906563E0,-5.539925098E-1
3.645785985E0,2.015660286E0,-9.266837120E0,-5.803275704E-1
3.648213276E0,2.039601326E0,-9.147131920E0,-5.515983701E-1
3.650639735E0,2.077906847E0,-9.108826637E0,-5.779335499E-1
3.653066193E0,1.943837404E0,-9.046580315E0,-6.114509106E-1
3.655493485E0,1.907925963E0,-8.922085762E0,-4.007701874E-1
3.657920776E0,1.874408603E0,-8.850263596E0,-1.853013039E-1
3.660347235E0,1.991719484E0,-8.807169914E0,-4.883766919E-2
3.662773693E0,1.982142925E0,-8.828717232E0,-2.250257693E-2
3.665200985E0,1.874408603E0,-8.725769997E0,1.259315312E-1
3.667628276E0,1.804979682E0,-8.534242630E0,2.959125638E-1
3.670054735E0,1.785826921E0,-8.347502708E0,4.227997959E-1
3.672481193E0,1.934261084E0,-8.584519386E0,4.802581668E-1
3.674908485E0,2.080301046E0,-8.876599312E0,3.773119152E-1
3.677335776E0,2.202399969E0,-8.843081474E0,3.892824054E-1
3.679762235E0,2.365198851E0,-9.010667801E0,4.970168471E-1
3.682188693E0,2.592638016E0,-9.398511887E0,5.425047278E-1
3.684615985E0,2.765013218E0,-9.573281288E0,5.353224277E-1
3.687043276E0,2.927812099E0,-9.872544289E0,5.496869683E-1
3.689469735E0,3.052304983E0,-1.005210114E1,5.305342078E-1
3.691896193E0,3.025969982E0,-9.918032646E0,5.041991472E-1
3.694323485E0,3.081034422E0,-9.994643211E0,5.568692684E-1
3.696750776E0,3.212709904E0,-9.637922287E0,3.725237250E-1
3.699177235E0,3.272562265E0,-9.714532852E0,2.360600680E-1
3.701603693E0,3.313261747E0,-9.989853859E0,2.145131975E-1
3.704030985E0,3.320444107E0,-9.855785370E0,-3.926126659E-2
3.706458276E0,3.090610743E0,-9.867754936E0,-3.447307646E-2
3.708884735E0,2.767407417E0,-9.575675011E0,-9.193143994E-2
3.711311193E0,2.539968014E0,-9.314719200E0,-1.015078351E-1
3.713738485E0,2.453780651E0,-9.333870888E0,-1.086901277E-1
3.716165776E0,2.456174612E0,-9.379359245E0,-7.038455456E-2
3.718592235E0,2.350834370E0,-9.338660240E0,-1.134783402E-1
3.721018693E0,2.288587570E0,-9.542158127E0,1.101480238E-2
3.723445985E0,2.216764450E0,-9.527792931E0,-3.926126659E-2
3.725873276E0,2.147335768E0,-9.321901321E0,4.453218728E-2
3.728299735E0,2.121000767E0,-9.226137161E0,1.019905582E-1
3.730726193E0,1.869620323E0,-8.893357277E0,-1.685426086E-1
3.733153485E0,1.998901725E0,-8.591701508E0,-3.145826161E-1
3.735580776E0,2.494480133E0,-8.680282593E0,-3.050062060E-1
3.738007235E0,2.918235540E0,-8.821534157E0,-1.996658891E-1
3.740433693E0,3.126522303E0,-9.195014000E0,-1.637544185E-1
3.742860985E0,3.337202787E0,-9.666650772E0,-9.556915611E-4
3.745288276E0,3.473666668E0,-1.019095898E1,2.001485974E-1
3.747714735E0,3.693923473E0,-1.069850826E1,3.198535442E-1
3.750141193E0,3.614918232E0,-1.118451023E1,2.001485974E-1
3.752568485E0,3.234256506E0,-1.158671856E1,1.881781071E-1
3.754995776E0,2.815289259E0,-1.171839428E1,2.743656933E-1
3.757422235E0,2.580667496E0,-1.158671856E1,3.509768248E-1
3.759848693E0,2.444204092E0,-1.159629536E1,4.395584762E-1
3.762275985E0,2.432233572E0,-1.157714176E1,4.491348863E-1
3.764703276E0,2.405898571E0,-1.157953644E1,2.719715834E-1
3.767129735E0,2.439415693E0,-1.164896488E1,1.307197362E-1
3.769556193E0,2.484903812E0,-1.182852173E1,-8.137987927E-3
3.771983485E0,2.439415693E0,-1.221157837E1,-9.432553500E-2
3.774410776E0,2.568696976E0,-1.199610901E1,-3.926126659E-2
3.776837235E0,2.518421173E0,-1.158193016E1,1.163551509E-1
3.779263693E0,2.401110411E0,-1.128745651E1,2.169072926E-1
3.781691037E0,2.496874332E0,-1.114620399E1,-3.349788487E-3
3.784118329E0,2.695584297E0,-1.110311031E1,-2.092422843E-1
3.786544735E0,2.738678217E0,-1.151968384E1,-3.576763868E-1
3.788971193E0,2.547150373E0,-1.236240578E1,-7.550968528E-1
3.791398537E0,2.695584297E0,-1.218045521E1,-6.952443123E-1
3.793825829E0,2.683613777E0,-1.155320072E1,-2.858534157E-1
3.796252235E0,2.439415693E0,-1.118451023E1,-2.331832647E-1
3.798678745E0,2.597426414E0,-1.095707035E1,-4.845636189E-1
3.801106037E0,2.973299742E0,-1.100016403E1,-6.497564316E-1
3.803533329E0,3.212709904E0,-1.119169235E1,-6.234213710E-1
3.805959787E0,2.894294500E0,-1.220200253E1,-5.851158500E-1
3.808386245E0,2.901476860E0,-1.272870350E1,-8.245257139E-1
3.810813537E0,3.076246023E0,-1.191471004E1,-5.779335499E-1
3.813240829E0,3.035546303E0,-1.059795570E1,-3.097944260E-1
3.815667287E0,2.650096655E0,-1.005449486E1,-1.972717941E-1
3.818093745E0,2.580667496E0,-1.024841690E1,-4.965341389E-1
3.820521037E0,3.076246023E0,-1.013828945E1,-5.851158500E-1
3.822948329E0,3.279744625E0,-1.011434841E1,-3.528881967E-1
3.825374787E0,3.054699421E0,-1.066020203E1,-2.762770653E-1
3.827801245E0,3.260591745E0,-9.841420174E0,-7.335499525E-1
3.830228537E0,2.762619019E0,-9.949154854E0,-4.127406776E-1
3.832655829E0,2.226341009E0,-1.077033138E1,-8.412843943E-1
3.835082287E0,2.587850094E0,-1.011434841E1,-6.928502917E-1
3.837508745E0,2.523209333E0,-9.836631775E0,6.226605736E-3
3.839936037E0,2.427445412E0,-1.011434841E1,-2.930357456E-1
3.842363329E0,2.987664461E0,-9.195014000E0,-7.048207521E-1
3.844789787E0,2.590244055E0,-1.010955906E1,-5.061105490E-1
3.847216245E0,2.654884815E0,-1.020771694E1,-7.311558127E-1
3.849643537E0,2.908659220E0,-9.661863327E0,-2.451537699E-1
3.852070829E0,2.918235540E0,-9.247684479E0,1.115669534E-1
3.854497287E0,2.652490616E0,-1.007125378E1,1.498725265E-1
3.856923745E0,3.121734142E0,-9.987460136E0,-4.845636189E-1
3.859351037E0,3.033152342E0,-1.066020203E1,-5.851158500E-1
3.861778329E0,3.023576021E0,-1.023884106E1,-5.587807298E-1
3.864204787E0,2.894294500E0,-9.597222328E0,-6.799045205E-2
3.866631245E0,2.686007977E0,-9.125585556E0,1.570548266E-1
3.869058537E0,2.717131376E0,-8.972363472E0,-1.254488379E-1
3.871485829E0,2.439415693E0,-1.094270611E1,-1.685426086E-1
3.873912287E0,3.133704662E0,-1.104804611E1,-9.131073356E-1
3.876338745E0,3.504789829E0,-1.044473362E1,-4.678049386E-1
3.878766037E0,3.167221785E0,-9.934790611E0,-1.771438308E-2
3.881193329E0,2.662066936E0,-9.568492889E0,1.187492535E-1
3.883619787E0,2.504056454E0,-9.604405403E0,8.523187041E-2
3.886046245E0,2.824865818E0,-9.556523323E0,-1.709367037E-1
3.888473537E0,3.157645464E0,-9.539764404E0,-1.517839134E-1
3.890900829E0,3.308473825E0,-9.628346443E0,-7.038455456E-2
3.893327287E0,3.308473825E0,-9.659469604E0,-2.250257693E-2
3.895753745E0,3.231862545E0,-9.695380211E0,4.213808477E-2
3.898181089E0,3.083428383E0,-9.860572815E0,1.594489217E-1
3.900608381E0,3.006817341E0,-9.939578056E0,9.720236063E-2
3.903034787E0,2.966117620E0,-9.834238052E0,6.129087508E-2
3.905461245E0,2.815289259E0,-9.872544289E0,1.546607316E-1
3.907888589E0,2.614185095E0,-1.011674213E1,2.719715834E-1
3.910315881E0,2.599820614E0,-1.019574738E1,2.121190876E-1
3.912742287E0,2.568696976E0,-1.003294849E1,3.054889441E-1
3.915168745E0,2.547150373E0,-9.879726410E0,4.323762059E-1
3.917596089E0,2.551938534E0,-9.850996971E0,5.975689888E-1
3.920023381E0,2.611791134E0,-9.716927528E0,4.778640866E-1
3.922449839E0,2.724313498E0,-9.594828606E0,4.563171566E-1
3.924876297E0,2.791348219E0,-9.566099167E0,3.509768248E-1
3.927303589E0,2.822471619E0,-9.642709732E0,1.115669534E-1
3.929730881E0,2.762619019E0,-9.396118164E0,-3.207897395E-2
3.932157339E0,2.712342978E0,-8.962785721E0,1.642371267E-1
3.934583797E0,2.492086172E0,-8.335532188E0,1.833899021E-1
3.937011089E0,2.460962772E0,-7.914171219E0,1.498725265E-1
3.939438381E0,2.307740211E0,-7.571814537E0,1.355079412E-1
3.941864839E0,2.350834370E0,-7.282129288E0,-4.404947162E-2
3.944291297E0,2.434627533E0,-7.133694649E0,-1.757249087E-1
3.946718589E0,2.563909054E0,-7.188759327E0,-2.307891846E-1
3.949145881E0,2.693190336E0,-7.346769810E0,-2.954298258E-1
3.951572339E0,2.765013218E0,-7.564632893E0,-2.260009795E-1
3.953998797E0,2.805712938E0,-7.782495499E0,-1.948776990E-1
3.956426089E0,2.836836338E0,-7.918959141E0,-1.637544185E-1
3.958853381E0,2.836836338E0,-8.105699539E0,-6.559635699E-2
3.961279839E0,2.760225058E0,-8.213433266E0,-5.601996183E-2
3.963706297E0,2.573485374E0,-8.381020546E0,-1.589662135E-1
3.966133589E0,2.425051212E0,-8.577336311E0,-1.996658891E-1
3.968560881E0,2.221552849E0,-8.653946877E0,-2.834593356E-1
3.970987339E0,2.027630806E0,-8.759287834E0,-3.504940867E-1
3.973413797E0,1.855255842E0,-8.878993034E0,-4.725931585E-1
3.975841089E0,1.675698280E0,-8.955604553E0,-5.707511902E-1
3.978268381E0,1.536840558E0,-8.957998276E0,-6.665151715E-1
3.980694839E0,1.484170437E0,-8.974757195E0,-8.077670336E-1
3.983121297E0,1.417135715E0,-9.080097198E0,-8.724076748E-1
3.985548589E0,1.374041915E0,-9.065732002E0,-1.013659477E0
3.987975881E0,1.350100875E0,-9.020244598E0,-1.023235917E0
3.990402339E0,1.376435995E0,-9.082490921E0,-9.945067167E-1
3.992828797E0,1.402770996E0,-9.233319283E0,-9.466246963E-1
3.995256089E0,1.402770996E0,-9.341053963E0,-9.945067167E-1
3.997683381E0,1.431500316E0,-9.424847603E0,-1.087876558E0
4.000109839E0,1.529658318E0,-9.412877083E0,-1.114211679E0
4.002536297E0,1.644575000E0,-9.513429642E0,-1.171670079E0
4.004963641E0,1.797797441E0,-9.573281288E0,-1.267433882E0
4.007390933E0,1.934261084E0,-9.714532852E0,-1.406291604E0
4.009817339E0,2.106636047E0,-9.810297012E0,-1.514026165E0
4.012243849E0,2.286193609E0,-9.918032646E0,-1.576272607E0
4.014671141E0,2.460962772E0,-9.992249489E0,-1.602607727E0
4.017098433E0,2.597426414E0,-1.006167698E1,-1.655277848E0
4.019524891E0,2.719525337E0,-1.006646633E1,-1.660066128E0
4.021951349E0,2.829653978E0,-1.008083057E1,-1.657672048E0
4.024378641E0,2.942176580E0,-1.007843590E1,-1.614578247E0
4.026805933E0,2.949358702E0,-1.000421906E1,-1.559514046E0
4.029232391E0,2.923023701E0,-9.944367409E0,-1.487691045E0
4.031658849E0,2.870353460E0,-9.819872856E0,-1.413473964E0
4.034086141E0,2.781772137E0,-9.661863327E0,-1.324892282E0
4.036513433E0,2.664461136E0,-9.537369728E0,-1.219552040E0
4.038939891E0,2.559120893E0,-9.491882324E0,-1.166881800E0
4.041366349E0,2.427445412E0,-9.472728729E0,-1.104635239E0
4.043793641E0,2.355622292E0,-9.444000244E0,-1.049571037E0
4.046220933E0,2.281405210E0,-9.436818123E0,-8.963486552E-1
4.048647391E0,2.269434690E0,-9.463152885E0,-8.269197941E-1
4.051073849E0,2.247888088E0,-9.475123405E0,-7.598850131E-1
4.053501141E0,2.207188368E0,-9.441606522E0,-6.784856319E-1
4.055928433E0,2.183247328E0,-9.472728729E0,-6.162390709E-1
4.058354891E0,2.161700487E0,-9.501458168E0,-6.090567708E-1
4.060781349E0,2.137759447E0,-9.515823364E0,-6.210272908E-1
4.063208641E0,2.104242086E0,-9.537369728E0,-6.449682713E-1
4.065635933E0,2.075512648E0,-9.513429642E0,-7.263676524E-1
4.068062391E0,2.063542128E0,-9.546946526E0,-8.101610541E-1
4.070488849E0,2.020448446E0,-9.525399208E0,-8.077670336E-1
4.072916141E0,2.039601326E0,-9.582858086E0,-8.293138742E-1
4.075343433E0,2.041995287E0,-9.597222328E0,-8.460725546E-1
4.077769891E0,2.111424208E0,-9.597222328E0,-9.202896357E-1
4.080196349E0,2.128183126E0,-9.630740166E0,-1.037600517E0
4.082623693E0,2.128183126E0,-9.592433929E0,-1.071117878E0
4.085050985E0,2.168882608E0,-9.613981247E0,-1.099847078E0
4.087477391E0,2.228734970E0,-9.645104408E0,-1.159699559E0
4.089903901E0,2.307740211E0,-9.616374969E0,-1.221946001E0
4.092331193E0,2.341257811E0,-9.609192848E0,-1.255463362E0
4.094758485E0,2.374775171E0,-9.628346443E0,-1.332074642E0
4.097184943E0,2.401110411E0,-9.616374969E0,-1.367986202E0
4.099611401E0,2.413080692E0,-9.637922287E0,-1.456567764E0
4.102038693E0,2.365198851E0,-9.587646484E0,-1.502055645E0
4.104465985E0,2.396322012E0,-9.618769646E0,-1.576272607E0
4.106892443E0,2.393928051E0,-9.616374969E0,-1.628942847E0
4.109318901E0,2.350834370E0,-9.570887566E0,-1.657672048E0
4.111746193E0,2.295769691E0,-9.563705444E0,-1.700765729E0
4.114173485E0,2.295769691E0,-9.544551849E0,-1.741465569E0
4.116599943E0,2.264646530E0,-9.523005486E0,-1.729495049E0
4.119026401E0,2.288587570E0,-9.477517128E0,-1.741465569E0
4.121453693E0,2.293375731E0,-9.477517128E0,-1.688795328E0
4.123880985E0,2.243099689E0,-9.432028770E0,-1.626548767E0
4.126307443E0,2.185641527E0,-9.374570847E0,-1.583454967E0
4.128733901E0,2.207188368E0,-9.348236084E0,-1.497267365E0
4.131161193E0,2.283799410E0,-9.439211845E0,-1.415868044E0
4.133588485E0,2.259858608E0,-9.573281288E0,-1.312921762E0
4.136014943E0,2.247888088E0,-9.695380211E0,-1.200399160E0
4.138441401E0,2.192823648E0,-9.704957008E0,-1.118999720E0
4.140868693E0,2.116212606E0,-9.683410645E0,-1.047176838E0
4.143295985E0,2.037207127E0,-9.621163368E0,-9.969007969E-1
4.145722443E0,1.982142925E0,-9.616374969E0,-9.825361967E-1
4.148148901E0,1.948625565E0,-9.568492889E0,-9.609893560E-1
4.150576245E0,1.922290564E0,-9.477517128E0,-9.131073356E-1
4.153003537E0,1.828920722E0,-9.453576088E0,-8.724076748E-1
4.155429943E0,1.783432841E0,-9.391329765E0,-8.149492741E-1
4.157856401E0,1.711609840E0,-9.319507599E0,-7.814319134E-1
4.160283745E0,1.632604599E0,-9.297960281E0,-7.981905937E-1
4.162711037E0,1.567963958E0,-9.187830925E0,-7.503086329E-1
4.165137495E0,1.500929236E0,-9.096856117E0,-7.024266720E-1
4.167563954E0,1.431500316E0,-8.967574120E0,-6.353918910E-1
4.169991245E0,1.228001952E0,-8.831110954E0,-5.563866496E-1
4.172418537E0,9.119808078E-1,-8.529454231E0,-5.539925098E-1
4.174844995E0,7.443938851E-1,-8.689859390E0,1.139610484E-1
4.177271454E0,7.970640659E-1,-8.780835152E0,1.397197962E0
4.179698745E0,1.764280081E0,-9.637922287E0,-5.156869292E-1
4.182126037E0,2.379563332E0,-1.004970741E1,-1.733307987E-1
4.184552495E0,2.846412659E0,-1.013589478E1,-6.760916114E-1
4.186978954E0,2.923023701E0,-1.040642834E1,-1.025629997E0
4.189406245E0,2.870353460E0,-1.043276310E1,-1.305739522E0
4.191833537E0,2.817683458E0,-1.048782730E1,-1.545149446E0
4.194259995E0,2.702766895E0,-1.049500942E1,-1.650489807E0
4.196686454E0,2.542361975E0,-1.051655579E1,-1.652883887E0
4.199113745E0,2.398715973E0,-1.049261475E1,-1.612184167E0
4.201541037E0,2.250282049E0,-1.046388626E1,-1.557119846E0
4.203967495E0,2.144941568E0,-1.039445686E1,-1.475720525E0
4.206393954E0,2.010872126E0,-1.032263374E1,-1.356015682E0
4.208821245E0,1.891167164E0,-1.024602318E1,-1.250675321E0
4.211248537E0,1.807373762E0,-1.016462421E1,-1.162093639E0
4.213674995E0,1.725974441E0,-1.009519482E1,-1.068723798E0
4.216101454E0,1.642180920E0,-1.002576637E1,-1.059147358E0
4.218528797E0,1.599087238E0,-9.949154854E0,-1.008871317E0
4.220956089E0,1.558387518E0,-9.906061172E0,-9.681715965E-1
4.223382547E0,1.503323197E0,-9.831844330E0,-9.394423962E-1
4.225809006E0,1.505717278E0,-9.781568527E0,-9.346542358E-1
4.228236297E0,1.510505557E0,-9.762414932E0,-9.059250355E-1
4.230663589E0,1.555993438E0,-9.721714973E0,-8.891663551E-1
4.233090047E0,1.572751999E0,-9.731291771E0,-8.724076748E-1
4.235516506E0,1.594298959E0,-9.707350731E0,-8.867722750E-1
4.237943797E0,1.663727760E0,-9.709745407E0,-9.107131958E-1
4.240371089E0,1.694851160E0,-9.707350731E0,-9.083191752E-1
4.242797547E0,1.706821680E0,-9.704957008E0,-8.963486552E-1
4.245224006E0,1.764280081E0,-9.726504326E0,-9.059250355E-1
4.247651297E0,1.778644562E0,-9.714532852E0,-9.131073356E-1
4.250078589E0,1.797797441E0,-9.712139130E0,-9.250778556E-1
4.252505047E0,1.816950202E0,-9.702563286E0,-9.178954959E-1
4.254931506E0,1.836102962E0,-9.700169563E0,-9.442306161E-1
4.257358797E0,1.840891123E0,-9.681015968E0,-9.466246963E-1
4.259786089E0,1.881590843E0,-9.683410645E0,-9.514129162E-1
4.262212547E0,1.874408603E0,-9.666650772E0,-9.562010765E-1
4.264639006E0,1.862438083E0,-9.645104408E0,-9.562010765E-1
4.267066297E0,1.898349524E0,-9.628346443E0,-9.514129162E-1
4.269493589E0,1.862438083E0,-9.611587524E0,-9.609893560E-1
4.271920047E0,1.860043883E0,-9.597222328E0,-9.490188360E-1
4.274346506E0,1.881590843E0,-9.592433929E0,-9.226837158E-1
4.276773849E0,1.845679283E0,-9.592433929E0,-9.226837158E-1
4.279201141E0,1.819344282E0,-9.566099167E0,-9.178954959E-1
4.281627599E0,1.824132442E0,-9.556523323E0,-9.059250355E-1
4.284054058E0,1.812161922E0,-9.566099167E0,-8.771958351E-1
4.286481349E0,1.783432841E0,-9.563705444E0,-8.676194549E-1
4.288908641E0,1.749915481E0,-9.542158127E0,-8.652253151E-1
4.291335099E0,1.728368521E0,-9.544551849E0,-8.508607745E-1
4.293761558E0,1.699639320E0,-9.523005486E0,-8.173434138E-1
4.296188849E0,1.666121960E0,-9.534976006E0,-8.197374344E-1
4.298616141E0,1.649363279E0,-9.527792931E0,-8.245257139E-1
4.301042599E0,1.639786839E0,-9.525399208E0,-8.077670336E-1
4.303469058E0,1.601481318E0,-9.546946526E0,-8.221315742E-1
4.305896349E0,1.599087238E0,-9.561310768E0,-8.173434138E-1
4.308323641E0,1.587116718E0,-9.566099167E0,-8.197374344E-1
4.310750099E0,1.582328439E0,-9.580464363E0,-8.149492741E-1
4.313176558E0,1.589510798E0,-9.597222328E0,-8.341020942E-1
4.315603849E0,1.613451838E0,-9.604405403E0,-8.508607745E-1
4.318031141E0,1.603875399E0,-9.630740166E0,-8.724076748E-1
4.320457599E0,1.613451838E0,-9.649891853E0,-8.867722750E-1
4.322884058E0,1.623028159E0,-9.657074928E0,-9.226837158E-1
4.325311349E0,1.651757360E0,-9.695380211E0,-9.466246963E-1
4.327738641E0,1.654151440E0,-9.719321251E0,-9.633833766E-1
4.330165099E0,1.646969199E0,-9.740868568E0,-9.777480364E-1
4.332591610E0,1.639786839E0,-9.791144371E0,-9.992948771E-1
4.335018901E0,1.651757360E0,-9.800721169E0,-9.873243570E-1
4.337446193E0,1.644575000E0,-9.810297012E0,-1.006477237E0
4.339872651E0,1.632604599E0,-9.824662209E0,-9.969007969E-1
4.342299110E0,1.606269479E0,-9.822268486E0,-9.873243570E-1
4.344726401E0,1.584722519E0,-9.834238052E0,-9.729598165E-1
4.347153693E0,1.606269479E0,-9.843813896E0,-9.681715965E-1
4.349580151E0,1.601481318E0,-9.865361214E0,-9.897185564E-1
4.352006610E0,1.587116718E0,-9.829450607E0,-1.006477237E0
4.354433901E0,1.594298959E0,-9.843813896E0,-1.006477237E0
4.356861193E0,1.606269479E0,-9.822268486E0,-9.753538966E-1
4.359287651E0,1.623028159E0,-9.824662209E0,-9.466246963E-1
4.361714110E0,1.596693039E0,-9.810297012E0,-9.059250355E-1
4.364141401E0,1.623028159E0,-9.793538094E0,-8.819839954E-1
4.366568693E0,1.625422359E0,-9.788750648E0,-8.819839954E-1
4.368995151E0,1.634998679E0,-9.767203331E0,-8.795899749E-1
4.371421610E0,1.634998679E0,-9.781568527E0,-8.604371548E-1
4.373848901E0,1.644575000E0,-9.798327446E0,-8.580430746E-1
4.376276193E0,1.634998679E0,-9.800721169E0,-8.604371548E-1
4.378702651E0,1.682880640E0,-9.786355972E0,-8.724076748E-1
4.381129110E0,1.699639320E0,-9.760021210E0,-8.700135946E-1
4.383556454E0,1.694851160E0,-9.779173851E0,-8.867722750E-1
4.385983745E0,1.699639320E0,-9.757627487E0,-8.436784744E-1
4.388410204E0,1.690062881E0,-9.767203331E0,-8.197374344E-1
4.390836662E0,1.673304200E0,-9.760021210E0,-8.245257139E-1
4.393263954E0,1.678092480E0,-9.757627487E0,-7.934023738E-1
4.395691245E0,1.656545520E0,-9.771990776E0,-7.910082936E-1
4.398117704E0,1.673304200E0,-9.714532852E0,-7.910082936E-1
4.400544162E0,1.673304200E0,-9.702563286E0,-7.622790933E-1
4.402971454E0,1.678092480E0,-9.683410645E0,-7.838259935E-1
4.405398745E0,1.692457080E0,-9.673832893E0,-8.221315742E-1
4.407825204E0,1.687668800E0,-9.640316010E0,-8.412843943E-1
4.410251662E0,1.670910239E0,-9.633133888E0,-8.748017550E-1
4.412678954E0,1.656545520E0,-9.664257050E0,-8.652253151E-1
4.415106245E0,1.685274720E0,-9.661863327E0,-8.628312945E-1
4.417532704E0,1.663727760E0,-9.690591812E0,-8.317079544E-1
4.419959162E0,1.668516040E0,-9.719321251E0,-8.029787540E-1
4.422386506E0,1.634998679E0,-9.714532852E0,-7.981905937E-1
4.424813797E0,1.639786839E0,-9.750445366E0,-7.814319134E-1
4.427240204E0,1.678092480E0,-9.731291771E0,-7.622790933E-1
4.429666662E0,1.663727760E0,-9.712139130E0,-7.910082936E-1
4.432094006E0,1.642180920E0,-9.695380211E0,-7.910082936E-1
4.434521297E0,1.608663559E0,-9.721714973E0,-8.197374344E-1
4.436947756E0,1.599087238E0,-9.726504326E0,-7.886142135E-1
4.439374214E0,1.611057639E0,-9.738473892E0,-7.814319134E-1
4.441801506E0,1.570358038E0,-9.745656013E0,-7.503086329E-1
4.444228797E0,1.570358038E0,-9.740868568E0,-7.143971324E-1
4.446655256E0,1.558387518E0,-9.745656013E0,-7.263676524E-1
4.449081714E0,1.532052398E0,-9.719321251E0,-7.263676524E-1
4.451509006E0,1.505717278E0,-9.719321251E0,-6.976384521E-1
4.453936297E0,1.510505557E0,-9.716927528E0,-6.808797717E-1
4.456362756E0,1.491352677E0,-9.716927528E0,-6.904561520E-1
4.458789214E0,1.517687798E0,-9.678622246E0,-6.976384521E-1
4.461216506E0,1.467411757E0,-9.697773933E0,-6.832738519E-1
4.463643797E0,1.457835317E0,-9.683410645E0,-7.024266720E-1
4.466070256E0,1.469805837E0,-9.690591812E0,-7.072148323E-1
4.468496714E0,1.488958716E0,-9.678622246E0,-7.239735126E-1
4.470924058E0,1.486564517E0,-9.666650772E0,-7.287617326E-1
4.473351349E0,1.453047156E0,-9.695380211E0,-7.263676524E-1
4.475777808E0,1.436288476E0,-9.685804367E0,-7.550968528E-1
4.478204266E0,1.386012435E0,-9.719321251E0,-7.215794325E-1
4.480631558E0,1.340524554E0,-9.736080170E0,-6.952443123E-1
4.483058849E0,1.326159954E0,-9.764809608E0,-7.167912126E-1
4.485485308E0,1.352495074E0,-9.764809608E0,-7.191853523E-1
4.487911766E0,1.316583514E0,-9.726504326E0,-7.431263328E-1
4.490339058E0,1.278277874E0,-9.764809608E0,-7.287617326E-1
4.492766349E0,1.266307473E0,-9.760021210E0,-7.479144931E-1
4.495192808E0,1.249548793E0,-9.762414932E0,-7.598850131E-1
4.497619266E0,1.249548793E0,-9.748051643E0,-7.670673132E-1
4.500046558E0,1.247154713E0,-9.762414932E0,-7.838259935E-1
4.502473849E0,1.275883794E0,-9.748051643E0,-7.934023738E-1
4.504900308E0,1.292642593E0,-9.736080170E0,-7.766436934E-1
4.507326766E0,1.302218914E0,-9.762414932E0,-8.005847335E-1
4.509754110E0,1.326159954E0,-9.745656013E0,-8.005847335E-1
4.512181401E0,1.359677315E0,-9.762414932E0,-7.862200737E-1
4.514607860E0,1.400376916E0,-9.733686447E0,-7.934023738E-1
4.517034318E0,1.412347436E0,-9.719321251E0,-7.718555331E-1
4.519461610E0,1.438682556E0,-9.712139130E0,-7.766436934E-1
4.521888901E0,1.469805837E0,-9.707350731E0,-7.766436934E-1
4.524315360E0,1.512899637E0,-9.683410645E0,-8.149492741E-1
4.526741818E0,1.570358038E0,-9.657074928E0,-8.269197941E-1
4.529169110E0,1.596693039E0,-9.637922287E0,-8.053728938E-1
4.531596401E0,1.615845919E0,-9.606799126E0,-8.197374344E-1
4.534022860E0,1.644575000E0,-9.606799126E0,-8.364961743E-1
4.536449318E0,1.654151440E0,-9.573281288E0,-8.317079544E-1
4.538876610E0,1.675698280E0,-9.568492889E0,-8.245257139E-1
4.541303901E0,1.709215641E0,-9.549340248E0,-7.910082936E-1
4.543730360E0,1.721186161E0,-9.534976006E0,-8.029787540E-1
4.546156818E0,1.728368521E0,-9.513429642E0,-7.790378332E-1
4.548584162E0,1.766674042E0,-9.499064445E0,-7.670673132E-1
4.551011454E0,1.785826921E0,-9.511034966E0,-7.335499525E-1
4.553437912E0,1.814556003E0,-9.539764404E0,-7.431263328E-1
4.555864370E0,1.824132442E0,-9.539764404E0,-7.550968528E-1
4.558291662E0,1.838497043E0,-9.594828606E0,-7.598850131E-1
4.560718954E0,1.833708763E0,-9.602009773E0,-7.527027130E-1
4.563145412E0,1.857649803E0,-9.630740166E0,-7.910082936E-1
4.565571870E0,1.867226124E0,-9.642709732E0,-8.149492741E-1
4.567999162E0,1.864832163E0,-9.671439171E0,-8.029787540E-1
4.570426454E0,1.874408603E0,-9.719321251E0,-8.412843943E-1
4.572852912E0,1.883984923E0,-9.760021210E0,-8.628312945E-1
4.575279370E0,1.886379004E0,-9.762414932E0,-9.011368155E-1
4.577706662E0,1.872014403E0,-9.815085411E0,-9.250778556E-1
4.580133954E0,1.876802683E0,-9.846209526E0,-9.274719357E-1
4.582560412E0,1.910320044E0,-9.822268486E0,-9.274719357E-1
4.584986870E0,1.888773203E0,-9.829450607E0,-8.963486552E-1
4.587414162E0,1.903137684E0,-9.843813896E0,-9.250778556E-1
4.589841454E0,1.946231604E0,-9.822268486E0,-9.633833766E-1
4.592267912E0,1.958201885E0,-9.810297012E0,-9.490188360E-1
4.594694422E0,1.972566605E0,-9.795931816E0,-9.849302769E-1
4.597121714E0,1.986931205E0,-9.779173851E0,-9.801420569E-1
4.599549006E0,1.979748964E0,-9.769597054E0,-9.753538966E-1
4.601975464E0,2.013266325E0,-9.769597054E0,-1.004083037E0
4.604401922E0,2.032418966E0,-9.695380211E0,-9.873243570E-1
4.606829214E0,2.073118687E0,-9.664257050E0,-9.490188360E-1
4.609256506E0,2.089877367E0,-9.649891853E0,-9.394423962E-1
4.611682964E0,2.113818407E0,-9.594828606E0,-9.322601557E-1
4.614109422E0,2.137759447E0,-9.546946526E0,-8.819839954E-1
4.616536714E0,2.171276808E0,-9.558917046E0,-8.724076748E-1
4.618964006E0,2.200006008E0,-9.534976006E0,-8.676194549E-1
4.621390464E0,2.240705490E0,-9.479910851E0,-8.795899749E-1
4.623816922E0,2.259858608E0,-9.472728729E0,-8.819839954E-1
4.626244266E0,2.281405210E0,-9.441606522E0,-8.652253151E-1
4.628671558E0,2.331681252E0,-9.400906563E0,-8.795899749E-1
4.631098016E0,2.336469650E0,-9.369783401E0,-8.293138742E-1
4.633524474E0,2.365198851E0,-9.386542320E0,-8.795899749E-1
4.635951766E0,2.405898571E0,-9.362601280E0,-8.556489348E-1
4.638379058E0,2.425051212E0,-9.350629807E0,-8.748017550E-1
4.640805516E0,2.456174612E0,-9.355418205E0,-9.011368155E-1
4.643231974E0,2.482509613E0,-9.369783401E0,-8.915604353E-1
4.645659266E0,2.477721214E0,-9.384147644E0,-8.819839954E-1
4.648086558E0,2.523209333E0,-9.374570847E0,-9.155014753E-1
4.650513016E0,2.544756413E0,-9.374570847E0,-9.226837158E-1
4.652939474E0,2.544756413E0,-9.415270805E0,-9.059250355E-1
4.655366766E0,2.575879574E0,-9.410483360E0,-9.155014753E-1
4.657794058E0,2.580667496E0,-9.398511887E0,-8.963486552E-1
4.660220516E0,2.616579056E0,-9.444000244E0,-9.107131958E-1
4.662647026E0,2.626155615E0,-9.460759163E0,-8.987427950E-1
4.665074318E0,2.618973255E0,-9.472728729E0,-9.083191752E-1
4.667501610E0,2.633337736E0,-9.484700203E0,-9.250778556E-1
4.669928068E0,2.614185095E0,-9.484700203E0,-9.490188360E-1
4.672354526E0,2.604608536E0,-9.523005486E0,-9.585952163E-1
4.674781818E0,2.602214575E0,-9.527792931E0,-9.945067167E-1
4.677209110E0,2.628549576E0,-9.551733971E0,-1.013659477E0
4.679635568E0,2.614185095E0,-9.537369728E0,-1.051964998E0
4.682062026E0,2.623761654E0,-9.506247520E0,-1.059147358E0
4.684489318E0,2.607002735E0,-9.501458168E0,-1.068723798E0
4.686916610E0,2.573485374E0,-9.532582283E0,-1.037600517E0
4.689343068E0,2.573485374E0,-9.518217087E0,-1.032812238E0
4.691769526E0,2.568696976E0,-9.549340248E0,-1.044782758E0
4.694196870E0,2.580667496E0,-9.556523323E0,-1.025629997E0
4.696624162E0,2.547150373E0,-9.585251808E0,-1.030418158E0
4.699050568E0,2.549544334E0,-9.578068733E0,-1.013659477E0
4.701477079E0,2.532785892E0,-9.623557091E0,-1.008871317E0
4.703904370E0,2.535179853E0,-9.635528564E0,-1.011265397E0
4.706331662E0,2.535179853E0,-9.609192848E0,-1.001688957E0
4.708758120E0,2.537573814E0,-9.657074928E0,-1.004083037E0
4.711184579E0,2.542361975E0,-9.654681206E0,-9.969007969E-1
4.713611870E0,2.525603294E0,-9.685804367E0,-9.825361967E-1
4.716039162E0,2.513632774E0,-9.692986488E0,-1.016053557E0
4.718465620E0,2.520815372E0,-9.690591812E0,-1.042388678E0
4.720892079E0,2.537573814E0,-9.654681206E0,-1.042388678E0
4.723319370E0,2.506450653E0,-9.669045448E0,-1.018447757E0
4.725746662E0,2.506450653E0,-9.671439171E0,-1.032812238E0
4.728173120E0,2.508844852E0,-9.657074928E0,-1.037600517E0
4.730599631E0,2.511238813E0,-9.661863327E0,-1.049571037E0
4.733026922E0,2.518421173E0,-9.642709732E0,-1.068723798E0
4.735454214E0,2.518421173E0,-9.633133888E0,-1.066329598E0
4.737880672E0,2.544756413E0,-9.623557091E0,-1.066329598E0
4.740307131E0,2.530391455E0,-9.635528564E0,-1.071117878E0
4.742734422E0,2.532785892E0,-9.645104408E0,-1.061541438E0
4.745161714E0,2.537573814E0,-9.664257050E0,-1.080694318E0
4.747588172E0,2.554332495E0,-9.681015968E0,-1.090270638E0
4.750014631E0,2.573485374E0,-9.690591812E0,-1.083088398E0
4.752441922E0,2.568696976E0,-9.690591812E0,-1.095058918E0
4.754869214E0,2.607002735E0,-9.685804367E0,-1.102241158E0
4.757295672E0,2.618973255E0,-9.659469604E0,-1.123787999E0
4.759722131E0,2.602214575E0,-9.666650772E0,-1.114211679E0
4.762149474E0,2.604608536E0,-9.692986488E0,-1.138152599E0
4.764576766E0,2.618973255E0,-9.678622246E0,-1.154911280E0
4.767003224E0,2.642914295E0,-9.697773933E0,-1.140546799E0
4.769429683E0,2.640520096E0,-9.702563286E0,-1.152517319E0
4.771856974E0,2.647702456E0,-9.652287483E0,-1.135758519E0
4.774284266E0,2.645308256E0,-9.673832893E0,-1.121393919E0
4.776710724E0,2.630943775E0,-9.640316010E0,-1.135758519E0
4.779137183E0,2.638126135E0,-9.628346443E0,-1.121393919E0
4.781564474E0,2.623761654E0,-9.654681206E0,-1.138152599E0
4.783991766E0,2.635731936E0,-9.633133888E0,-1.133364439E0
4.786418224E0,2.645308256E0,-9.592433929E0,-1.118999720E0
4.788844683E0,2.635731936E0,-9.570887566E0,-1.109423399E0
4.791271974E0,2.650096655E0,-9.568492889E0,-1.118999720E0
4.793699266E0,2.623761654E0,-9.561310768E0,-1.133364439E0
4.796125776E0,2.633337736E0,-9.563705444E0,-1.130970240E0
4.798552235E0,2.633337736E0,-9.563705444E0,-1.109423399E0
4.800979526E0,2.664461136E0,-9.537369728E0,-1.114211679E0
4.803406818E0,2.647702456E0,-9.513429642E0,-1.142940760E0
4.805833276E0,2.650096655E0,-9.515823364E0,-1.104635239E0
4.808259735E0,2.616579056E0,-9.534976006E0,-1.099847078E0
4.810687026E0,2.635731936E0,-9.544551849E0,-1.114211679E0
4.813114318E0,2.640520096E0,-9.537369728E0,-1.109423399E0
4.815540776E0,2.645308256E0,-9.501458168E0,-1.104635239E0
4.817967235E0,2.645308256E0,-9.503851891E0,-1.080694318E0
4.820394579E0,2.642914295E0,-9.503851891E0,-1.075906038E0
4.822821870E0,2.604608536E0,-9.515823364E0,-1.044782758E0
4.825248329E0,2.599820614E0,-9.534976006E0,-1.018447757E0
4.827674787E0,2.595032215E0,-9.542158127E0,-9.945067167E-1
4.830102079E0,2.556726456E0,-9.527792931E0,-9.729598165E-1
4.832529370E0,2.544756413E0,-9.527792931E0,-9.274719357E-1
4.834955829E0,2.554332495E0,-9.549340248E0,-9.705657363E-1
4.837382287E0,2.516026974E0,-9.523005486E0,-9.370483160E-1
4.839809579E0,2.523209333E0,-9.527792931E0,-9.178954959E-1
4.842236870E0,2.508844852E0,-9.530188560E0,-8.963486552E-1
4.844663329E0,2.472933292E0,-9.523005486E0,-8.771958351E-1
4.847089787E0,2.468145132E0,-9.539764404E0,-8.771958351E-1
4.849517079E0,2.446598053E0,-9.549340248E0,-8.724076748E-1
4.851944370E0,2.422657013E0,-9.513429642E0,-8.173434138E-1
4.854370829E0,2.417869091E0,-9.549340248E0,-8.293138742E-1
4.856797339E0,2.384351492E0,-9.534976006E0,-8.293138742E-1
4.859224631E0,2.374775171E0,-9.530188560E0,-8.317079544E-1
4.861651922E0,2.358016491E0,-9.530188560E0,-8.269197941E-1
4.864078381E0,2.346045971E0,-9.511034966E0,-8.460725546E-1
4.866504839E0,2.322105169E0,-9.520610809E0,-8.460725546E-1
4.868932131E0,2.307740211E0,-9.525399208E0,-8.532549143E-1
4.871359422E0,2.276617050E0,-9.542158127E0,-8.580430746E-1
4.873785881E0,2.259858608E0,-9.558917046E0,-8.652253151E-1
4.876212339E0,2.231129408E0,-9.566099167E0,-8.676194549E-1
4.878639631E0,2.231129408E0,-9.566099167E0,-8.628312945E-1
4.881066922E0,2.223947048E0,-9.566099167E0,-8.819839954E-1
4.883493381E0,2.195217848E0,-9.578068733E0,-8.867722750E-1
4.885919891E0,2.173671007E0,-9.570887566E0,-8.771958351E-1
4.888347183E0,2.156912088E0,-9.590040207E0,-8.795899749E-1
4.890774474E0,2.156912088E0,-9.633133888E0,-8.795899749E-1
4.893200933E0,2.140153646E0,-9.625950813E0,-8.819839954E-1
4.895627391E0,2.116212606E0,-9.649891853E0,-8.628312945E-1
4.898054683E0,2.113818407E0,-9.661863327E0,-8.508607745E-1
4.900481974E0,2.123394728E0,-9.666650772E0,-8.580430746E-1
4.902908433E0,2.116212606E0,-9.671439171E0,-8.364961743E-1
4.905334891E0,2.089877367E0,-9.673832893E0,-8.029787540E-1
4.907762183E0,2.073118687E0,-9.681015968E0,-8.101610541E-1
4.910189474E0,2.061148167E0,-9.714532852E0,-7.862200737E-1
4.912615933E0,2.044389486E0,-9.702563286E0,-7.886142135E-1
4.915042443E0,2.032418966E0,-9.714532852E0,-7.790378332E-1
4.917469735E0,2.037207127E0,-9.716927528E0,-7.670673132E-1
4.919897026E0,2.015660286E0,-9.712139130E0,-7.718555331E-1
4.922323485E0,2.003689766E0,-9.714532852E0,-7.455204129E-1
4.924749943E0,1.991719484E0,-9.692986488E0,-7.431263328E-1
4.927177235E0,1.974960685E0,-9.685804367E0,-7.503086329E-1
4.929604526E0,1.936655045E0,-9.700169563E0,-7.359440327E-1
4.932030985E0,1.953413844E0,-9.688198090E0,-7.431263328E-1
4.934457443E0,1.960596085E0,-9.697773933E0,-7.574908733E-1
4.936884787E0,1.915108204E0,-9.681015968E0,-7.096089721E-1
4.939312079E0,1.893561363E0,-9.647498131E0,-7.120029926E-1
4.941738537E0,1.852861643E0,-9.649891853E0,-7.263676524E-1
4.944164995E0,1.840891123E0,-9.633133888E0,-7.263676524E-1
4.946592287E0,1.819344282E0,-9.637922287E0,-7.311558127E-1
4.949019579E0,1.824132442E0,-9.625950813E0,-7.143971324E-1
4.951446037E0,1.828920722E0,-9.625950813E0,-7.311558127E-1
4.953872495E0,1.790615082E0,-9.609192848E0,-7.383381724E-1
4.956299787E0,1.802585602E0,-9.590040207E0,-7.503086329E-1
4.958727079E0,1.769068122E0,-9.604405403E0,-7.359440327E-1
4.961153537E0,1.776250482E0,-9.578068733E0,-7.407321930E-1
4.963579995E0,1.752309561E0,-9.582858086E0,-7.335499525E-1
4.966007339E0,1.766674042E0,-9.582858086E0,-7.431263328E-1
4.968434631E0,1.790615082E0,-9.573281288E0,-7.550968528E-1
4.970861089E0,1.812161922E0,-9.558917046E0,-7.527027130E-1
4.973287547E0,1.800191402E0,-9.566099167E0,-7.718555331E-1
4.975714839E0,1.812161922E0,-9.551733971E0,-7.598850131E-1
4.978142131E0,1.819344282E0,-9.561310768E0,-7.718555331E-1
4.980568589E0,1.833708763E0,-9.549340248E0,-7.574908733E-1
4.982995047E0,1.852861643E0,-9.568492889E0,-7.455204129E-1
4.985422339E0,1.848073483E0,-9.570887566E0,-7.407321930E-1
4.987849631E0,1.845679283E0,-9.590040207E0,-7.215794325E-1
4.990276089E0,1.874408603E0,-9.597222328E0,-7.431263328E-1
4.992702547E0,1.883984923E0,-9.575675011E0,-7.287617326E-1
4.995129891E0,1.869620323E0,-9.592433929E0,-7.287617326E-1
4.997557183E0,1.898349524E0,-9.623557091E0,-7.359440327E-1
4.999983641E0,1.922290564E0,-9.621163368E0,-7.359440327E-1
5.002410099E0,1.903137684E0,-9.625950813E0,-7.694613934E-1
5.004837391E0,1.903137684E0,-9.628346443E0,-7.742495537E-1
5.007264683E0,1.912714005E0,-9.657074928E0,-7.670673132E-1
5.009691141E0,1.907925963E0,-9.645104408E0,-7.814319134E-1
5.012117599E0,1.879196644E0,-9.657074928E0,-7.431263328E-1
5.014544891E0,1.855255842E0,-9.664257050E0,-7.167912126E-1
5.016972183E0,1.828920722E0,-9.654681206E0,-6.976384521E-1
5.019398641E0,1.826526523E0,-9.666650772E0,-6.928502917E-1
5.021825099E0,1.788220882E0,-9.697773933E0,-6.832738519E-1
5.024252443E0,1.749915481E0,-9.721714973E0,-6.904561520E-1
5.026679735E0,1.725974441E0,-9.738473892E0,-6.808797717E-1
5.029106193E0,1.735550761E0,-9.745656013E0,-6.736974716E-1
5.031532651E0,1.728368521E0,-9.728898048E0,-6.641210914E-1
5.033959943E0,1.702033401E0,-9.731291771E0,-6.665151715E-1
5.036387235E0,1.680486560E0,-9.757627487E0,-6.593328714E-1
5.038813693E0,1.714003921E0,-9.716927528E0,-6.617269516E-1
5.041240151E0,1.714003921E0,-9.740868568E0,-6.665151715E-1
5.043667443E0,1.699639320E0,-9.743262291E0,-6.689092517E-1
5.046094735E0,1.673304200E0,-9.757627487E0,-6.665151715E-1
5.048521245E0,1.668516040E0,-9.743262291E0,-6.569387913E-1
5.050947704E0,1.673304200E0,-9.745656013E0,-6.425741315E-1
5.053374995E0,1.675698280E0,-9.745656013E0,-6.425741315E-1
