"Time (s)","Acceleration x (m/s^2)","Acceleration y (m/s^2)","Acceleration z (m/s^2)"
1.736646400E-2,3.650250912E0,5.534598827E0,6.902096748E0
1.962452000E-2,3.617349625E0,5.520241737E0,6.839883327E0
2.187264900E-2,3.602992773E0,5.516054630E0,6.810571671E0
2.412226200E-2,3.594019651E0,5.516054630E0,6.734001160E0
2.637769400E-2,3.518047571E0,5.587839127E0,6.710670948E0
2.863160100E-2,3.441477060E0,5.702096462E0,6.844669342E0
3.088617800E-2,3.479762316E0,5.678168297E0,6.777669907E0
3.313904700E-2,3.550948858E0,5.639883041E0,6.725028038E0
3.539118400E-2,3.594019651E0,5.583053589E0,6.701099873E0
3.764429600E-2,3.622733593E0,5.568696499E0,6.696314335E0
3.989692000E-2,3.650849104E0,5.548955917E0,6.739385128E0
4.215046000E-2,3.669991732E0,5.553741455E0,6.744170666E0
4.440412200E-2,3.688536167E0,5.620740414E0,6.802196503E0
4.665741900E-2,3.702893019E0,5.648856163E0,6.831508636E0
4.891114200E-2,3.731008768E0,5.648856163E0,6.860222340E0
5.116517000E-2,3.759722471E0,5.672784328E0,6.855436802E0
5.341724500E-2,3.754936934E0,5.648856163E0,6.888936520E0
5.566816000E-2,3.726222992E0,5.663212776E0,6.912864685E0
5.791608500E-2,3.687937975E0,5.677569866E0,6.932007313E0
6.017713200E-2,3.664009571E0,5.658427238E0,6.945765972E0
6.243067300E-2,3.620938778E0,5.624927998E0,6.988836765E0
6.468555600E-2,3.630510092E0,5.610570908E0,7.002595425E0
6.693720400E-2,3.625724554E0,5.548357487E0,7.021738052E0
6.919147700E-2,3.601796389E0,5.486742496E0,7.040282249E0
7.144343000E-2,3.587439299E0,5.448457241E0,7.077969551E0
7.369660300E-2,3.549154282E0,5.381458282E0,7.106084824E0
7.594977600E-2,3.534797192E0,5.367101192E0,7.158727169E0
7.820447600E-2,3.496512175E0,5.333601475E0,7.205985546E0
8.045661100E-2,3.453441381E0,5.319244862E0,7.244270325E0
8.270966400E-2,3.400799274E0,5.276772022E0,7.310671329E0
8.496320400E-2,3.400799274E0,5.243272781E0,7.362715244E0
8.721741600E-2,3.386442184E0,5.185844898E0,7.377072334E0
8.946662200E-2,3.386442184E0,5.157131195E0,7.386045456E0
9.170887000E-2,3.385843992E0,5.114060402E0,7.419544697E0
9.397229800E-2,3.395415306E0,5.085346222E0,7.453044415E0
9.622950000E-2,3.409772158E0,5.080560684E0,7.476972580E0
9.848584700E-2,3.457030535E0,5.090131760E0,7.515257835E0
1.007370070E-1,3.499503136E0,5.108676434E0,7.577471256E0
1.029891440E-1,3.541975737E0,5.123033047E0,7.640282631E0
1.052438440E-1,3.574877024E0,5.151747227E0,7.692924976E0
1.074959190E-1,3.612564087E0,5.175076962E0,7.774878979E0
1.097492760E-1,3.631108284E0,5.184648514E0,7.832306862E0
1.120022660E-1,3.683152199E0,5.207978249E0,7.899903774E0
1.142557460E-1,3.706482172E0,5.207978249E0,7.914260864E0
1.165091630E-1,3.701696634E0,5.198407173E0,7.923832417E0
1.187590410E-1,3.707080364E0,5.207978249E0,7.871190071E0
1.210027550E-1,3.702893019E0,5.203791142E0,7.765905857E0
1.232696000E-1,3.707678795E0,5.222933769E0,7.670193195E0
1.255220420E-1,3.699303865E0,5.251647472E0,7.545766354E0
1.277785110E-1,3.723232031E0,5.246861935E0,7.469794273E0
1.300285110E-1,3.742972851E0,5.280959606E0,7.369295597E0
1.322801590E-1,3.733999729E0,5.309673309E0,7.240681171E0
1.345275350E-1,3.763311863E0,5.319244862E0,7.125825882E0
1.367885210E-1,3.773481369E0,5.338387489E0,7.025327206E0
1.390413900E-1,3.816552162E0,5.391029358E0,6.939784050E0
1.412982260E-1,3.869194269E0,5.419743061E0,6.882954121E0
1.435484070E-1,3.869194269E0,5.453242779E0,6.806982040E0
1.458017650E-1,3.884149313E0,5.481956482E0,6.768697262E0
1.480548170E-1,3.879363775E0,5.515456200E0,6.721438885E0
1.503094560E-1,3.827319860E0,5.548955917E0,6.725626469E0
1.525616530E-1,3.683750391E0,5.635097504E0,6.797410965E0
1.548115310E-1,3.616751432E0,5.701498032E0,6.931408882E0
1.570546330E-1,3.711866140E0,5.644070625E0,6.912864685E0
1.593218450E-1,3.778865099E0,5.525027275E0,6.835696220E0
1.615744690E-1,3.798007727E0,5.458028316E0,6.863811970E0
1.638307560E-1,3.726821184E0,5.391627789E0,6.848856449E0
1.660807560E-1,3.617349625E0,5.343770981E0,6.872186661E0
1.683343580E-1,3.517449379E0,5.310869694E0,6.881159782E0
1.705878980E-1,3.379263878E0,5.282155991E0,6.879963398E0
1.728410710E-1,3.255435228E0,5.268397331E0,6.917650223E0
1.750938790E-1,3.188436270E0,5.182255745E0,7.046264648E0
1.773485180E-1,3.083750248E0,5.124827862E0,7.040282249E0
1.796008980E-1,2.960519791E0,5.096712112E0,6.953542709E0
1.818536440E-1,2.866003275E0,5.116453171E0,6.896114826E0
1.841046210E-1,2.757129908E0,5.121238708E0,6.838088989E0
1.863606630E-1,2.685943365E0,5.159523964E0,6.775875568E0
1.886138380E-1,2.648256540E0,5.216951370E0,6.714260101E0
1.908643870E-1,2.653042078E0,5.245665550E0,6.709474564E0
1.931074290E-1,2.667398930E0,5.283950806E0,6.733402729E0
1.953743970E-1,2.695514679E0,5.350351334E0,6.781857491E0
1.976270820E-1,2.751745939E0,5.411966801E0,6.863811970E0
1.998847720E-1,2.760719061E0,5.483152866E0,6.950551510E0
2.021382510E-1,2.817548752E0,5.587839127E0,7.042077065E0
2.043862980E-1,2.855235577E0,5.673382282E0,7.100701332E0
2.066369080E-1,2.935395241E0,5.768496990E0,7.177869797E0
2.088797060E-1,3.020340443E0,5.839683533E0,7.240681171E0
2.111469790E-1,3.110669374E0,5.891727448E0,7.308876991E0
2.134010070E-1,3.195614576E0,5.930012703E0,7.347760201E0
2.156563170E-1,3.271586657E0,5.972485542E0,7.377072334E0
2.179041200E-1,3.376272678E0,6.019743443E0,7.387241840E0
2.201496650E-1,3.437887907E0,6.062814236E0,7.383054256E0
2.224137020E-1,3.509672642E0,6.138786316E0,7.359724045E0
2.246663260E-1,3.552145243E0,6.162714481E0,7.341179848E0
2.269220030E-1,3.609572887E0,6.191428661E0,7.298109055E0
2.291727960E-1,3.647858143E0,6.205785751E0,7.226922512E0
2.314271300E-1,3.690928936E0,6.182455540E0,7.140780926E0
2.336795720E-1,3.729812384E0,6.187241077E0,7.059424877E0
2.359327450E-1,3.772883177E0,6.182455540E0,6.993024349E0
2.381856740E-1,3.768695593E0,6.163312912E0,6.921239376E0
2.404392140E-1,3.763910055E0,6.154339790E0,6.887740135E0
2.426922050E-1,3.768695593E0,6.144768715E0,6.872784615E0
2.449456850E-1,3.768695593E0,6.154339790E0,6.868597507E0
2.471993470E-1,3.811168194E0,6.182455540E0,6.906882763E0
2.494534980E-1,3.839882135E0,6.153741837E0,6.921239376E0
2.517044740E-1,3.873381615E0,6.129813194E0,6.906882763E0
2.539550230E-1,3.896711588E0,6.125027657E0,6.921239376E0
2.562121030E-1,3.934996843E0,6.092126369E0,6.906882763E0
2.584649100E-1,3.930211306E0,6.087340832E0,6.902096748E0
2.607193660E-1,3.944568157E0,6.029912949E0,6.896713257E0
2.629719290E-1,3.963710785E0,6.010770321E0,6.848856449E0
2.652255920E-1,3.973880291E0,6.001199245E0,6.820142746E0
2.674796820E-1,3.973880291E0,5.977869034E0,6.781857491E0
2.697317560E-1,3.997808456E0,5.992226124E0,6.758527756E0
2.719837090E-1,4.040879250E0,5.953940868E0,6.714858532E0
2.742329760E-1,4.079164505E0,5.934798241E0,6.705885410E0
2.764915820E-1,4.150351048E0,5.949155331E0,6.672386169E0
2.787449990E-1,4.231108665E0,5.939583778E0,6.639484406E0
2.809993940E-1,4.298107624E0,5.958726406E0,6.644270420E0
2.832515920E-1,4.359723091E0,5.962913990E0,6.630511761E0
2.855057430E-1,4.441078663E0,5.958128452E0,6.582654953E0
2.877581230E-1,4.502694130E0,5.948556900E0,6.568896294E0
2.900084890E-1,4.564907551E0,5.948556900E0,6.535397053E0
2.922539110E-1,4.640879631E0,5.943771362E0,6.521637917E0
2.945183770E-1,4.688735962E0,5.943771362E0,6.512066841E0
2.967710620E-1,4.727021217E0,5.953342915E0,6.469594002E0
2.990266770E-1,4.746163845E0,5.982056618E0,6.431309223E0
3.012777150E-1,4.807778835E0,5.967699528E0,6.393023968E0
3.035315600E-1,4.836492538E0,5.986842155E0,6.379265308E0
3.057841850E-1,4.846064091E0,5.991627693E0,6.364908218E0
3.080377250E-1,4.846064091E0,5.996413708E0,6.331408501E0
3.102907150E-1,4.832305431E0,5.996413708E0,6.331408501E0
3.125440730E-1,4.779663086E0,6.005984783E0,6.355337143E0
3.147971860E-1,4.722833633E0,5.982655048E0,6.349953175E0
3.170504200E-1,4.660620213E0,5.996413708E0,6.378666878E0
3.193028000E-1,4.594219685E0,5.977869034E0,6.411568165E0
3.215559740E-1,4.532604218E0,5.958726406E0,6.377470493E0
3.238101240E-1,4.456632137E0,5.944369793E0,6.348756790E0
3.260637260E-1,4.414159775E0,5.949753284E0,6.296114445E0
3.283170220E-1,4.347758770E0,5.983253002E0,6.223731518E0
3.305702570E-1,4.290929317E0,6.002395630E0,6.156732559E0
3.328235520E-1,4.301098824E0,6.031707764E0,6.032904148E0
3.350765410E-1,4.335196495E0,6.012565136E0,5.918048382E0
3.373301430E-1,4.373481750E0,6.022136211E0,5.836692810E0
3.395839880E-1,4.364508629E0,6.046662807E0,5.712863922E0
3.418352700E-1,4.351347923E0,6.108876228E0,5.593223095E0
3.440855760E-1,4.289732933E0,6.166304111E0,5.555535793E0
3.463429600E-1,4.261018753E0,6.232704639E0,5.522036552E0
3.485966230E-1,4.289732933E0,6.285346985E0,5.455635548E0
3.508507730E-1,4.428516388E0,6.337988853E0,5.313262463E0
3.531027260E-1,4.933402061E0,6.671189308E0,5.159523964E0
3.553556560E-1,5.199603558E0,7.037889481E0,5.110470772E0
3.576099890E-1,4.966901779E0,7.119843960E0,5.042873859E0
3.598629180E-1,4.605585575E0,7.048657417E0,4.974080086E0
3.621162150E-1,4.244269371E0,6.829713821E0,5.076373100E0
3.643693890E-1,4.134199142E0,6.605386734E0,5.227719307E0
3.666236010E-1,4.338187218E0,6.457031727E0,5.313262463E0
3.688758590E-1,4.723432064E0,6.390032768E0,5.343173027E0
3.711292770E-1,5.198407173E0,6.355935097E0,5.335396290E0
3.733823280E-1,5.592624664E0,6.364908218E0,5.404190063E0
3.756362950E-1,5.905486107E0,6.220740795E0,5.634499073E0
3.778887360E-1,5.840879917E0,6.164509296E0,5.332405090E0
3.801422150E-1,5.641079426E0,6.121438503E0,5.316852093E0
3.823954500E-1,5.487340450E0,6.068796635E0,5.626722336E0
3.846488690E-1,5.409573555E0,6.005984783E0,5.917450428E0
3.869021650E-1,5.540580750E0,5.880959988E0,6.285944939E0
3.891550950E-1,5.786443233E0,5.746961594E0,6.573083878E0
3.914061320E-1,6.099305153E0,5.602794170E0,6.802794933E0
3.936521640E-1,6.275177479E0,5.574080467E0,6.745965004E0
3.959152250E-1,6.356533527E0,5.564508915E0,6.684350014E0
3.981685810E-1,6.521637917E0,5.544768333E0,6.909275532E0
4.004240140E-1,6.687341213E0,5.505885124E0,7.019943237E0
4.026743810E-1,6.759724140E0,5.529813290E0,6.886543751E0
4.049280430E-1,6.793223381E0,5.606383324E0,6.839285374E0
4.071814610E-1,6.820741177E0,5.687141418E0,6.997809887E0
4.094350620E-1,6.900302410E0,5.748157978E0,7.218547821E0
4.116902490E-1,6.952346325E0,5.824728489E0,7.204789162E0
4.139459260E-1,6.914659023E0,5.919843197E0,7.152745247E0
4.161946440E-1,6.899106026E0,5.976672649E0,7.392027378E0
4.184463530E-1,6.803392887E0,6.062216282E0,7.497311592E0
4.206958650E-1,6.656234264E0,6.162714481E0,7.421339512E0
4.229539820E-1,6.518647194E0,6.267998695E0,7.378268719E0
4.252080110E-1,6.351747513E0,6.401398659E0,7.469195843E0
4.274625880E-1,6.208776474E0,6.511468410E0,7.502695560E0
4.297155790E-1,6.141179085E0,6.573083878E0,7.713263988E0
4.319675940E-1,5.933601856E0,6.712465763E0,7.392625332E0
4.342207680E-1,5.687739372E0,6.846463680E0,7.115057945E0
4.364741250E-1,5.502893925E0,6.914061069E0,7.052844524E0
4.387281520E-1,5.255835056E0,7.033702374E0,6.909275532E0
4.409807150E-1,5.124229908E0,7.134200573E0,6.698707104E0
4.432334620E-1,5.073382378E0,7.211369038E0,6.436094761E0
4.454872470E-1,5.050650597E0,7.226324558E0,6.249454498E0
4.477415200E-1,5.027918816E0,7.246065140E0,6.024528980E0
4.499938390E-1,4.953741074E0,7.270591736E0,5.684748173E0
4.522469520E-1,4.921437740E0,7.333403111E0,5.474778175E0
4.545000030E-1,4.817948341E0,7.376473904E0,5.297709465E0
4.567531760E-1,4.746163845E0,7.457829952E0,5.307280540E0
4.590032380E-1,4.665405750E0,7.481758118E0,5.302495003E0
4.612471940E-1,4.523033142E0,7.563114166E0,5.259424210E0
4.635138570E-1,4.423132420E0,7.615756035E0,5.245067120E0
4.657678250E-1,4.275375843E0,7.701299667E0,5.349753380E0
4.680233780E-1,4.174877167E0,7.749155998E0,5.431109428E0
4.702732570E-1,4.083950043E0,7.805985451E0,5.545964718E0
4.725260640E-1,4.021138668E0,7.862815380E0,5.684748173E0
4.747791150E-1,3.972683907E0,7.858029366E0,5.889933109E0
4.770330820E-1,3.937987804E0,7.847859859E0,6.186643124E0
4.792865000E-1,3.907479286E0,7.799405575E0,6.497111797E0
4.815400410E-1,3.877569199E0,7.760521889E0,6.731009960E0
4.837938260E-1,3.838087559E0,7.660023689E0,7.007380962E0
4.860462060E-1,3.832105398E0,7.554739475E0,7.246065140E0
4.882993800E-1,3.826721668E0,7.392027378E0,7.474579811E0
4.905499900E-1,3.853640795E0,7.195816040E0,7.703094482E0
4.927963270E-1,3.866801500E0,7.042675018E0,7.936394691E0
4.950587170E-1,3.852444410E0,6.866204739E0,8.021339417E0
4.973126230E-1,3.828516245E0,6.680162430E0,8.105687141E0
4.995684220E-1,3.823132277E0,6.537191391E0,8.172087669E0
5.018193380E-1,3.822534084E0,6.374479294E0,8.319246292E0
5.040684840E-1,3.855435371E0,6.236293793E0,8.370692253E0
5.063258080E-1,3.874577999E0,6.122036934E0,8.379665375E0
5.085789810E-1,3.899104595E0,6.050251961E0,8.302495956E0
5.108343520E-1,3.918246984E0,6.007779598E0,8.274380684E0
5.130855120E-1,3.923630953E0,6.022136211E0,8.178668022E0
5.153387460E-1,3.932604074E0,6.017350674E0,8.188239098E0
5.175919820E-1,3.975674868E0,6.046064377E0,8.121239662E0
5.198457660E-1,3.995415688E0,6.108277798E0,8.045866013E0
5.220953390E-1,3.991826296E0,6.165705681E0,7.835297585E0
5.243391750E-1,3.993022680E0,6.238088608E0,7.620542049E0
5.266049810E-1,4.055834293E0,6.348158360E0,7.401598454E0
5.288585220E-1,4.104887009E0,6.486942291E0,7.134799004E0
5.311148080E-1,4.168296814E0,6.644868374E0,6.801598549E0
5.333648690E-1,4.250849247E0,6.798008919E0,6.477370739E0
5.356185310E-1,4.361517429E0,6.960721016E0,6.144170284E0
5.378725590E-1,4.434498787E0,7.147361279E0,5.820540905E0
5.401243290E-1,4.517050743E0,7.338188648E0,5.535196781E0
5.423777480E-1,4.556532383E0,7.491329670E0,5.230112076E0
5.446309210E-1,4.619942188E0,7.649255753E0,4.916054249E0
5.468847060E-1,4.711467743E0,7.873582840E0,4.726422787E0
5.491378800E-1,4.774877548E0,8.069794655E0,4.417150497E0
5.513912370E-1,4.847260475E0,8.242077827E0,4.136591911E0
5.536438610E-1,4.905884743E0,8.438288689E0,3.899104595E0
5.558955080E-1,4.992026329E0,8.638688087E0,3.675973892E0
5.581505130E-1,5.041079044E0,8.787042618E0,3.418745279E0
5.604044190E-1,5.132604599E0,8.925827026E0,3.166302681E0
5.626580820E-1,5.228915691E0,9.092725754E0,2.938386202E0
5.649108900E-1,5.306084156E0,9.198010445E0,2.757728100E0
5.671641250E-1,5.368896008E0,9.284152031E0,2.509472847E0
5.694173600E-1,5.541179180E0,9.446265221E0,2.339582443E0
5.716710830E-1,5.660820007E0,9.604191780E0,2.192423820E0
5.739250490E-1,5.751149178E0,9.675378799E0,2.102692842E0
5.761767580E-1,5.831906796E0,9.694520950E0,2.122433662E0
5.784300540E-1,5.898906231E0,9.699306488E0,2.108076811E0
5.806839000E-1,6.017949104E0,9.756135941E0,2.075773716E0
5.829381730E-1,6.165107727E0,9.927821159E0,2.091326952E0
5.851871350E-1,6.230311871E0,1.000319481E1,2.298306227E0
5.874304820E-1,6.228517532E0,1.000738239E1,2.627917528E0
5.896936650E-1,6.184250355E0,9.978070259E0,2.933600664E0
5.919369510E-1,6.111268997E0,9.896714211E0,3.234498024E0
5.942011100E-1,6.067001820E0,9.819545746E0,3.463012457E0
5.964566030E-1,5.952146530E0,9.700503349E0,3.634099483E0
5.987127680E-1,5.856433392E0,9.609575272E0,3.800400496E0
6.009645380E-1,5.765506268E0,9.447462082E0,3.861417532E0
6.032161260E-1,5.684748173E0,9.275776863E0,3.850051641E0
6.054696050E-1,5.595017433E0,9.123832703E0,3.834498405E0
6.077232670E-1,5.499902725E0,8.937790871E0,3.784847260E0
6.099774780E-1,5.415555954E0,8.776275635E0,3.668795347E0
6.122296760E-1,5.340181828E0,8.633902550E0,3.519243956E0
6.144830320E-1,5.245067120E0,8.490931511E0,3.508476257E0
6.167357780E-1,5.127220631E0,8.376673698E0,3.406781197E0
6.189855340E-1,4.989035130E0,8.262416840E0,3.410370588E0
6.212292470E-1,4.833501816E0,8.129614830E0,3.241078377E0
6.234957280E-1,4.643870354E0,7.992027760E0,3.157927752E0
6.257497560E-1,4.478765965E0,7.864011765E0,2.931805849E0
6.280068360E-1,4.472185612E0,8.008178711E0,2.392224550E0
6.302557990E-1,4.477569580E0,8.185248375E0,2.173281193E0
6.325090940E-1,4.378267288E0,8.242675781E0,2.158924341E0
6.347620230E-1,4.259224415E0,8.309675217E0,2.125424623E0
6.370153190E-1,4.217350006E0,8.477172852E0,1.939980984E0
6.392681880E-1,4.161118507E0,8.615358353E0,1.840080619E0
6.415222780E-1,4.119244099E0,8.801998138E0,1.616351724E0
6.437755740E-1,4.129413605E0,9.021539688E0,1.426720500E0
6.460300910E-1,4.106681824E0,9.241679192E0,1.260419369E0
6.482788090E-1,4.049852371E0,9.466006279E0,1.199402332E0
6.505190430E-1,3.973880291E0,9.637691498E0,1.171884894E0
6.527746570E-1,3.912863255E0,9.790233612E0,1.024128079E0
6.550405870E-1,3.813561201E0,9.933803558E0,9.098708034E-1
6.572981550E-1,3.718446493E0,1.001037312E1,7.998009920E-1
6.595513290E-1,3.605385542E0,1.002054310E1,6.658028960E-1
6.618014510E-1,3.496512175E0,1.000678444E1,5.455635786E-1
6.640521230E-1,3.354737282E0,9.935597420E0,4.486542344E-1
6.663082880E-1,3.184248686E0,9.826724052E0,3.613162339E-1
6.685613400E-1,2.974876642E0,9.674181938E0,3.212364316E-1
6.708154900E-1,2.771486759E0,9.512666702E0,2.476571500E-1
6.730678090E-1,2.500499725E0,9.293723106E0,2.542374134E-1
6.753206770E-1,2.229512453E0,9.098708153E0,1.992024779E-1
6.775745220E-1,1.954337835E0,8.894720078E0,1.633101404E-1
6.798280020E-1,1.664208174E0,8.737391472E0,2.374876440E-1
6.820822750E-1,1.374078393E0,8.580661774E0,2.261217386E-1
6.843343500E-1,1.079162955E0,8.380861282E0,3.044866920E-1
6.865877680E-1,7.453642488E-1,8.185248375E0,5.030909777E-1
6.888403920E-1,4.402793646E-1,7.984848976E0,6.675975323E-1
6.910930160E-1,1.543370634E-1,7.765905857E0,7.986045480E-1
6.933468610E-1,-1.363908947E-1,7.456035137E0,9.535398483E-1
6.956002180E-1,-2.733799815E-1,7.375277519E0,8.470591903E-1
6.978546740E-1,-3.493520916E-1,7.356733322E0,8.656035662E-1
7.001084590E-1,-4.552344978E-1,7.256234646E0,1.055832982E0
7.023601070E-1,-5.844469070E-1,7.112665176E0,1.231705427E0
7.046138910E-1,-6.801598072E-1,7.027122021E0,1.326221943E0
7.068670030E-1,-7.274180651E-1,7.065407276E0,1.321436286E0
7.091206050E-1,-7.615157962E-1,6.988836765E0,1.430907965E0
7.113745110E-1,-8.285148144E-1,6.931408882E0,1.588235974E0
7.136304310E-1,-8.249256015E-1,7.021738052E0,1.731805444E0
7.158804910E-1,-8.440681696E-1,7.064210415E0,1.732403636E0
7.181319560E-1,-8.536394835E-1,7.116852760E0,1.828116536E0
7.203738380E-1,-8.446664214E-1,7.211967468E0,1.914856315E0
7.226345810E-1,-8.159525394E-1,7.311867714E0,1.815554142E0
7.248931870E-1,-8.446664214E-1,7.378866673E0,1.834696770E0
7.271505110E-1,-8.494520187E-1,7.450053215E0,1.864008784E0
7.294013650E-1,-8.967102766E-1,7.508079052E0,1.730010748E0
7.316531960E-1,-9.056833982E-1,7.574480057E0,1.687538147E0
7.339063080E-1,-9.529415965E-1,7.660621643E0,1.592423439E0
7.361607640E-1,-1.033101201E0,7.741977692E0,1.477568030E0
7.384131440E-1,-1.094716311E0,7.861618996E0,1.411167145E0
7.406661360E-1,-1.359721422E0,7.733603001E0,1.222732425E0
7.429192480E-1,-2.071586132E0,7.107879639E0,1.872383654E-1
7.451726060E-1,-2.483151674E0,6.934998035E0,-1.006780148E0
7.474259020E-1,-2.258226395E0,7.555337429E0,-1.384247899E0
7.496793200E-1,-1.959123492E0,8.205587387E0,-4.839483798E-1
7.519330430E-1,-1.867598057E0,8.502297401E0,9.481559992E-1
7.541847510E-1,-1.935195327E0,8.557332039E0,2.033899307E0
7.564294410E-1,-2.038086653E0,8.480163574E0,2.563909531E0
7.586919530E-1,-2.124228239E0,8.455636978E0,2.716451883E0
7.609453100E-1,-2.214557409E0,8.489136696E0,2.697309256E0
7.632012310E-1,-2.309672117E0,8.493922234E0,2.725425005E0
7.654523300E-1,-2.352742910E0,8.504091263E0,2.720639229E0
7.677054430E-1,-2.362314224E0,8.499305725E0,2.730210543E0
7.699591050E-1,-2.328814745E0,8.480163574E0,2.711068153E0
7.722097150E-1,-2.262413740E0,8.437092781E0,2.782852650E0
7.744522680E-1,-2.177468538E0,8.355138779E0,2.916252613E0
7.767153300E-1,-2.078166485E0,8.273782730E0,3.026322365E0
7.789586160E-1,-1.974078655E0,8.173283577E0,3.140579700E0
7.812284510E-1,-1.832303882E0,8.111070633E0,3.299104214E0
7.834783910E-1,-1.695314884E0,8.096115112E0,3.413959742E0
7.857350430E-1,-1.543968797E0,8.062017441E0,3.586841106E0
7.879852270E-1,-1.402194023E0,8.018348694E0,3.759124279E0
7.902385220E-1,-1.280160069E0,7.955537319E0,3.998406649E0
7.924880340E-1,-1.158126116E0,7.892725468E0,4.275974274E0
7.947445640E-1,-1.025324464E0,7.820940971E0,4.433900356E0
7.969984100E-1,-8.697910309E-1,7.738986492E0,4.658825874E0
7.992534150E-1,-7.040880919E-1,7.638488293E0,4.816751957E0
8.015046970E-1,-4.809573591E-1,7.514061451E0,4.835894585E0
8.037573830E-1,-2.338984162E-1,7.499704361E0,4.837090969E0
8.060113490E-1,4.187439568E-3,7.489534855E0,4.837689400E0
8.082656830E-1,2.512463629E-1,7.446464062E0,4.824528694E0
8.105178200E-1,4.414757788E-1,7.407580853E0,4.905884743E0
8.127711150E-1,6.687939167E-1,7.397411346E0,5.050650597E0
8.150242270E-1,8.817551732E-1,7.449455261E0,5.152345181E0
8.172775230E-1,1.143171072E0,7.639684677E0,5.207380295E0
8.195300260E-1,1.358525038E0,7.986045361E0,5.750551224E0
8.217828340E-1,1.460219979E0,8.394619942E0,6.279963017E0
8.240340550E-1,1.495514154E0,8.798408508E0,6.660421848E0
8.262920500E-1,1.484746456E0,9.198608398E0,6.906882763E0
8.285441260E-1,1.460818172E0,9.518050194E0,6.847062111E0
8.307981540E-1,1.403988719E0,9.790233612E0,6.719644070E0
8.330503510E-1,1.309472203E0,9.985847473E0,6.658029079E0
8.353037680E-1,1.152144074E0,1.014317513E1,6.711269379E0
8.375568810E-1,9.523434043E-1,1.022931671E1,6.748956203E0
8.398099330E-1,6.807580590E-1,1.022931671E1,6.781259537E0
8.420640230E-1,3.960121572E-1,1.015394306E1,6.769893646E0
8.443177450E-1,1.064806059E-1,1.003489971E1,6.701099873E0
8.465702480E-1,-1.304088384E-1,9.850054741E0,6.507281303E0
8.488233000E-1,-3.571287692E-1,9.646066666E0,6.242276192E0
8.510765340E-1,-5.120640397E-1,9.461220741E0,5.986842155E0
8.533303790E-1,-4.857429862E-1,9.290133476E0,5.545964718E0
8.555849560E-1,-3.170489967E-1,9.138788223E0,5.072185993E0
8.578359940E-1,-1.244267747E-1,8.986844063E0,4.679762840E0
8.600900230E-1,1.016949583E-2,8.872586250E0,4.450051785E0
8.623438680E-1,7.716853172E-2,8.739784241E0,4.344169617E0
8.645964320E-1,6.759724021E-2,8.682356834E0,4.343571186E0
8.668497280E-1,4.187439568E-3,8.810373306E0,4.645665169E0
8.691028400E-1,4.666004330E-2,8.762516975E0,4.774877548E0
8.713572950E-1,1.220339537E-1,8.657232285E0,4.855635166E0
8.736093090E-1,2.350948304E-1,8.556734085E0,5.047060966E0
8.758621780E-1,3.577269912E-1,8.374878883E0,5.242076397E0
8.781160850E-1,4.947160780E-1,8.193024635E0,5.404190063E0
8.803704190E-1,6.556333899E-1,8.006384850E0,5.609374523E0
8.826224940E-1,7.782655358E-1,7.781459332E0,5.828317642E0
8.848755460E-1,9.104689956E-1,7.613961697E0,5.985645771E0
8.871287190E-1,1.071386337E0,7.503891945E0,6.100501537E0
8.893822590E-1,1.223330617E0,7.432106972E0,6.220142365E0
8.916348220E-1,1.345962763E0,7.426723480E0,6.335596085E0
8.938885450E-1,1.516451359E0,7.512266636E0,6.470790863E0
8.961423300E-1,1.672582984E0,7.621140003E0,6.596413612E0
8.983962980E-1,1.876571178E0,7.763513088E0,6.674778938E0
9.006487390E-1,2.133201361E0,7.916055679E0,6.710072994E0
9.029014860E-1,4.722833633E0,7.339385033E0,6.970890522E0
9.051552080E-1,6.402595043E0,5.588437080E0,8.645268440E0
9.074085650E-1,3.943371773E0,7.700701237E0,7.821538925E0
9.096620430E-1,3.131606579E0,8.965906143E0,7.371688366E0
9.119135690E-1,2.988635540E0,9.132805824E0,7.496713161E0
9.141634470E-1,3.453441381E0,9.236893654E0,7.633104324E0
9.164226020E-1,4.024727821E0,9.384052277E0,7.536194801E0
9.186714430E-1,4.225724697E0,9.417551994E0,7.274180889E0
9.209164370E-1,4.399802685E0,9.537791252E0,6.744768620E0
9.231812690E-1,4.584050179E0,9.696315765E0,6.053243160E0
9.254349930E-1,4.406980991E0,9.722038269E0,5.340181828E0
9.276913410E-1,4.097110748E0,9.647860527E0,4.658825874E0
9.299412800E-1,3.644268990E0,9.602396965E0,4.049253941E0
9.321949420E-1,3.029313564E0,9.552147865E0,3.496512175E0
9.344490300E-1,2.632104874E0,9.639486313E0,3.055036306E0
9.367009220E-1,2.465803623E0,9.792626381E0,2.998206854E0
9.389539740E-1,2.190030813E0,9.826724052E0,2.987439156E0
9.412078190E-1,1.957328916E0,9.817152977E0,2.929413080E0
9.434620310E-1,1.744367719E0,9.713065147E0,2.793620348E0
9.457142900E-1,1.455434322E0,9.523433685E0,2.628515720E0
9.479673420E-1,1.147358418E0,9.305088997E0,2.472982168E0
9.502208210E-1,8.428717852E-1,9.090931892E0,2.498705149E0
9.524750920E-1,4.713860750E-1,8.861818314E0,2.682354212E0
9.547269230E-1,1.465603858E-1,8.704490662E0,2.938386202E0
9.569804630E-1,-7.357929647E-2,8.556135178E0,3.304488182E0
9.592332100E-1,-2.608176768E-1,8.360522270E0,3.656233072E0
9.614840040E-1,-4.193421602E-1,8.240880966E0,3.923032761E0
9.637241770E-1,-5.156532526E-1,8.106883049E0,4.127020836E0
9.659776560E-1,-6.209374666E-1,7.953742504E0,4.369892120E0
9.682343090E-1,-6.604190469E-1,7.815557003E0,4.584050179E0
9.705048150E-1,-6.323033571E-1,7.657630444E0,4.707280159E0
9.727565850E-1,-1.537388563E-1,7.624729156E0,4.130012035E0
9.750094540E-1,-1.304088384E-1,7.357929707E0,4.191029072E0
9.772596980E-1,-1.453639716E-1,7.204789162E0,4.395615101E0
9.795130560E-1,-2.183450609E-1,7.156334400E0,4.710271358E0
9.817648860E-1,-3.678964674E-1,7.093522549E0,5.120640278E0
9.840120790E-1,-5.126622319E-1,7.107281685E0,5.507679462E0
9.862736150E-1,-6.143572330E-1,7.159325123E0,5.861218929E0
9.885258730E-1,-7.160521746E-1,7.244270325E0,6.095715523E0
9.907722110E-1,-7.124629617E-1,7.358527660E0,6.335596085E0
9.930197690E-1,-7.040880919E-1,7.505686283E0,6.513861656E0
9.952857600E-1,-6.957131624E-1,7.686344624E0,6.668198586E0
9.975412530E-1,-6.197410822E-1,7.858029366E0,6.731608391E0
9.997961970E-1,-6.251249313E-1,8.057829857E0,6.828517437E0
1.002045527E0,-5.539384484E-1,8.286344528E0,6.748956203E0
1.004299433E0,-3.625126183E-1,8.539385796E0,6.527021885E0
1.006553766E0,-1.088734269E-1,8.754141808E0,6.208776474E0
1.008806146E0,1.208375469E-1,8.955139160E0,5.919245243E0
1.011059258E0,2.979064286E-1,9.126823425E0,5.653641701E0
1.013312616E0,4.372883439E-1,9.279964447E0,5.368297577E0
1.015567010E0,4.953143001E-1,9.409176826E0,5.144568920E0
1.017815851E0,5.485545993E-1,9.537791252E0,5.002195835E0
1.020058771E0,5.820540786E-1,9.643074989E0,4.902295589E0
1.022325068E0,5.539384484E-1,9.738189697E0,4.912465096E0
1.024580195E0,5.539384484E-1,9.800403595E0,4.874777794E0
1.026835749E0,4.965106845E-1,9.790832520E0,4.912465096E0
1.029085687E0,4.055834413E-1,9.723833084E0,5.021936417E0
1.031338433E0,2.961117923E-1,9.623932838E0,5.130809784E0
1.033592095E0,1.716850251E-1,9.466604233E0,5.234299660E0
1.035843743E0,4.785645287E-3,9.247062683E0,5.327619553E0
1.038092401E0,-1.142572835E-1,9.032905579E0,5.416752338E0
1.040352105E0,-2.380858511E-1,8.813364029E0,5.505885124E0
1.042606011E0,-3.810569942E-1,8.551349640E0,5.589633465E0
1.044859734E0,-5.240281820E-1,8.246265411E0,5.739783287E0
1.047111444E0,-7.010970116E-1,7.912466049E0,5.899504185E0
1.049364861E0,-9.014959335E-1,7.549953461E0,6.139982700E0
1.051618217E0,-1.112064362E0,7.187440872E0,6.361917019E0
1.053867974E0,-1.298106313E0,6.801000118E0,6.559325218E0
1.056108331E0,-1.451246977E0,6.500700951E0,6.733402729E0
1.058365106E0,-1.517647743E0,6.319444656E0,6.803991318E0
1.060632501E0,-1.522433400E0,6.271588326E0,6.812964439E0
1.062887871E0,-1.488933921E0,6.229115486E0,6.717251301E0
1.065141106E0,-1.430907965E0,6.224329948E0,6.535995007E0
1.067390923E0,-1.358525038E0,6.234499454E0,6.345167637E0
1.069644341E0,-1.324427366E0,6.244070530E0,6.211169243E0
1.071897514E0,-1.238285661E0,6.296712875E0,6.111268997E0
1.074150688E0,-1.176072359E0,6.349354744E0,6.035296917E0
1.076404412E0,-1.099501967E0,6.468397617E0,5.935994625E0
1.078658563E0,-9.517452121E-1,6.630511761E0,5.803791523E0
1.080910760E0,-8.416753411E-1,6.802196503E0,5.657230854E0
1.083163934E0,-7.591229677E-1,6.912864685E0,5.347360611E0
1.085417351E0,-7.878368497E-1,6.971488953E0,4.582255363E0
1.087671746E0,-1.058225870E0,6.993622303E0,3.510270834E0
1.089923882E0,-1.213759303E0,7.185646534E0,3.233301640E0
1.092176567E0,-1.212562919E0,7.474579811E0,3.900300980E0
1.094426019E0,-1.044467092E0,7.697112083E0,4.385445595E0
1.096671623E0,-8.590233326E-1,7.782655716E0,4.391427994E0
1.098936699E0,-7.962117195E-1,7.816154957E0,4.224528313E0
1.101190605E0,-9.050851464E-1,7.783253670E0,4.104289055E0
1.103446647E0,-1.028315544E0,7.831708431E0,4.032504559E0
1.105696647E0,-1.090528965E0,7.922037601E0,4.080360889E0
1.107949821E0,-1.005583763E0,8.040482521E0,4.263411522E0
1.110203422E0,-7.746763229E-1,8.163114548E0,4.614558697E0
1.112457023E0,-5.629115105E-1,8.219346046E0,4.964509010E0
1.114711357E0,-3.361915946E-1,8.185248375E0,5.218746185E0
1.116963004E0,-1.465603858E-1,8.194221497E0,5.339583874E0
1.119215508E0,8.614161611E-2,8.160123825E0,5.383252621E0
1.121468620E0,2.099701911E-1,8.078767776E0,5.397609711E0
1.123722466E0,3.332005441E-1,7.997411251E0,5.474180222E0
1.125976372E0,4.468596280E-1,7.901698589E0,5.578866005E0
1.128229728E0,5.880361795E-1,7.786843300E0,5.803791523E0
1.130483146E0,7.483552694E-1,7.652246952E0,6.109474182E0
1.132737174E0,9.032905698E-1,7.555935860E0,6.439683914E0
1.134989371E0,1.106082320E0,7.497909546E0,6.784250259E0
1.137242790E0,1.361516118E0,7.439285755E0,6.995417118E0
1.139492423E0,1.718644857E0,7.415357590E0,6.920641422E0
1.141735282E0,2.031506538E0,7.376473904E0,7.045666218E0
1.143998833E0,2.196611166E0,7.265805721E0,7.299305439E0
1.146255730E0,2.366501570E0,7.184450150E0,7.529016495E0
1.148512688E0,2.498705149E0,7.121638298E0,7.691728592E0
1.150764396E0,2.561516523E0,7.031309128E0,7.572087288E0
1.153015311E0,2.605783939E0,6.936194420E0,7.360920429E0
1.155264823E0,2.601596355E0,6.803392887E0,7.226324558E0
1.157508903E0,2.573480844E0,6.708278179E0,7.134799004E0
1.159776726E0,2.474178553E0,6.598806858E0,7.057032108E0
1.162028800E0,2.242074728E0,6.432505608E0,6.964310169E0
1.164285148E0,2.112264156E0,6.262615204E0,6.321837425E0
1.166535208E0,2.291725874E0,6.065805435E0,4.838287354E0
1.168789663E0,1.728216171E0,5.974878311E0,5.371288776E0
1.171041799E0,1.303490162E0,5.998806477E0,5.623133183E0
1.173291556E0,1.004387259E0,6.151947021E0,5.483751297E0
1.175535208E0,8.045865893E-1,6.328417778E0,5.532206059E0
1.177801566E0,7.896314859E-1,6.528218269E0,5.605186939E0
1.180054801E0,8.039883971E-1,6.800402164E0,5.621338367E0
1.182311148E0,8.422735929E-1,7.119843960E0,5.523232937E0
1.184561637E0,7.280163169E-1,7.277172089E0,5.495117188E0
1.186815787E0,3.409772217E-1,7.214958668E0,5.842076302E0
1.189067801E0,-6.699903309E-2,7.130013466E0,5.691328526E0
1.191320303E0,-1.441675574E-1,7.286743164E0,5.931209087E0
1.193573843E0,-3.110669367E-2,7.444071293E0,6.067001820E0
1.195827932E0,2.273181453E-2,7.515855789E0,5.761318684E0
1.198081107E0,-9.990034252E-2,7.511668682E0,5.574080467E0
1.200331107E0,-1.932204217E-1,7.517650604E0,5.224728107E0
1.202574576E0,-1.764706671E-1,7.570890903E0,4.813760757E0
1.204842154E0,-5.144568533E-2,7.643273830E0,4.499104977E0
1.207094046E0,4.905286431E-2,7.776673794E0,4.418945312E0
1.209350638E0,6.340979785E-2,7.914859295E0,4.424927235E0
1.211600638E0,-8.973085321E-3,8.029116631E0,4.506881237E0
1.213854055E0,-1.567298770E-1,8.105088234E0,4.597210407E0
1.216103812E0,-3.194418252E-1,8.157731056E0,4.755136967E0
1.218344107E0,-3.080759048E-1,8.191828728E0,4.496711731E0
1.220600699E0,-7.657032460E-2,8.245068550E0,3.905086517E0
1.222868338E0,-3.260220885E-1,8.519046783E0,5.077569485E0
1.225123708E0,-3.086741269E-1,8.790034294E0,5.352146149E0
1.227376943E0,-1.806581169E-1,8.951549530E0,5.435296535E0
1.229626760E0,1.375873014E-2,9.113663673E0,5.494519234E0
1.231879873E0,2.267199457E-1,9.198608398E0,5.596213818E0
1.234128285E0,3.403790295E-1,9.236295700E0,5.706882000E0
1.236386709E0,4.348955154E-1,9.231510162E0,5.803193092E0
1.238639517E0,5.102694035E-1,9.230911255E0,5.903691769E0
1.240892385E0,5.670989752E-1,9.159127235E0,6.061019897E0
1.243133352E0,5.946164131E-1,9.077771187E0,6.195017815E0
1.245399893E0,6.269195080E-1,8.991030693E0,6.404987812E0
1.247652883E0,6.257231236E-1,8.909674644E0,6.595815659E0
1.249909657E0,6.340979934E-1,8.813961983E0,6.824330330E0
1.252159779E0,5.808576941E-1,8.670392990E0,7.028916359E0
1.254409841E0,5.084748268E-1,8.498707771E0,7.204789162E0
1.256654104E0,4.791627228E-1,8.369495392E0,7.361518860E0
1.258920217E0,4.169493318E-1,8.249854088E0,7.465606689E0
1.261172659E0,3.361915946E-1,8.130811691E0,7.517052174E0
1.263428945E0,2.691925466E-1,8.021339417E0,7.549355507E0
1.265679129E0,2.267199457E-1,7.931010723E0,7.582256794E0
1.267932729E0,2.219343036E-1,7.897511005E0,7.572685242E0
1.270185902E0,2.075773627E-1,7.897511005E0,7.539186001E0
1.272438954E0,2.315055877E-1,7.931010723E0,7.500900745E0
1.274692190E0,1.710868180E-1,7.936394691E0,7.319046497E0
1.276946585E0,1.764706671E-1,8.003393173E0,7.152146816E0
1.279198843E0,1.010967568E-1,8.012965202E0,7.075576782E0
1.281452322E0,2.991028316E-2,8.037490845E0,7.036693096E0
1.283705129E0,-5.084748194E-2,8.075776100E0,6.993622303E0
1.285958608E0,-1.698904037E-1,8.070990562E0,6.978667259E0
1.288212025E0,-2.458625287E-1,8.066205025E0,6.983452797E0
1.290462208E0,-2.793620527E-1,8.109275818E0,7.040880680E0
1.292705861E0,-2.841476798E-1,8.114061356E0,7.016952515E0
1.294972524E0,-2.219343036E-1,8.123632431E0,6.984051228E0
1.297225026E0,-1.172483116E-1,8.128418922E0,6.902695179E0
1.299477772E0,7.178467698E-3,8.123632431E0,6.841079712E0
1.301717457E0,7.836493850E-2,8.094919205E0,6.803392887E0
1.303978688E0,2.075773627E-1,8.061419487E0,6.722036839E0
1.306221913E0,3.834498227E-1,8.032705307E0,6.684350014E0
1.308482166E0,5.545366406E-1,8.027919769E0,6.742375851E0
1.310745716E0,6.490531564E-1,7.979465485E0,6.823731899E0
1.313002430E0,7.058826685E-1,7.912466049E0,6.866802692E0
1.315254444E0,7.674978375E-1,7.841279984E0,6.881159782E0
1.317503285E0,8.721838593E-1,7.788637638E0,6.842874527E0
1.319752674E0,1.006181955E0,7.740781307E0,6.780661106E0
1.322010793E0,1.177866936E0,7.683353424E0,6.690331936E0
1.324264272E0,1.372882009E0,7.659425259E0,6.667002201E0
1.326518910E0,1.572084427E0,7.635497093E0,6.691528320E0
1.328771474E0,1.771885157E0,7.639684677E0,6.678368092E0
1.331025501E0,1.943570137E0,7.673183918E0,6.597609997E0
1.333277454E0,2.158325911E0,7.992625713E0,6.457630157E0
1.335530811E0,2.736790895E0,1.001037312E1,5.540580750E0
1.337783619E0,1.553540111E0,9.383454323E0,7.334599495E0
1.340036977E0,2.030908108E0,8.747561455E0,7.839485168E0
1.342287465E0,2.790031195E0,8.925827026E0,6.427719593E0
1.344531361E0,3.238087177E0,8.806783676E0,6.275775433E0
1.346797597E0,3.342773199E0,8.429914474E0,6.297909260E0
1.349051624E0,3.229114056E0,8.015357971E0,6.266204357E0
1.351306934E0,3.309871912E0,7.858029366E0,6.217151642E0
1.353554248E0,3.367299557E0,7.758129120E0,6.150152206E0
1.355798999E0,3.305684566E0,7.619943619E0,6.153741837E0
1.358063038E0,3.353540897E0,7.653443336E0,6.144768715E0
1.360316761E0,3.272783279E0,7.624729156E0,6.077171326E0
1.362572803E0,3.078366280E0,7.610970497E0,6.008975983E0
1.364823535E0,2.888136864E0,7.439883709E0,6.026323795E0
1.367077990E0,2.826521635E0,7.363313675E0,6.016154289E0
1.369329943E0,2.717648268E0,7.359126091E0,5.943771362E0
1.371583423E0,2.551347256E0,7.297510624E0,5.904289722E0
1.373836352E0,2.376072884E0,7.250252724E0,5.779264927E0
1.376087146E0,2.224726915E0,7.255636692E0,5.659025669E0
1.378329883E0,2.131406784E0,7.284948349E0,5.395814896E0
1.380596302E0,2.108076811E0,7.433303356E0,5.200201988E0
1.382849842E0,2.374876499E0,7.673183918E0,4.304089546E0
1.385107348E0,1.953739643E0,7.534400463E0,4.746163845E0
1.387356066E0,1.537986755E0,7.520043373E0,5.179264545E0
1.389606494E0,1.332203984E0,7.734200954E0,5.419145107E0
1.391851795E0,1.054636598E0,8.044071198E0,5.635097504E0
1.394120716E0,7.238288522E-1,8.028517723E0,6.178866386E0
1.396369190E0,4.031906128E-1,8.042277336E0,6.565307140E0
1.398625354E0,9.750752151E-2,8.042277336E0,6.836294174E0
1.400874866E0,-1.657029688E-1,8.051848412E0,7.083951473E0
1.403129993E0,-4.037888348E-1,7.928019524E0,7.216155052E0
1.405382434E0,-5.461617708E-1,7.852047443E0,7.143173695E0
1.407635546E0,-5.736792088E-1,7.795217991E0,7.004390240E0
1.409888537E0,-6.634100676E-1,7.423732281E0,6.896114826E0
1.412142138E0,-6.664010882E-1,6.857231617E0,6.648457527E0
1.414395374E0,-5.880361795E-1,6.490531445E0,6.306882381E0
1.416646471E0,-7.040880919E-1,5.236093998E0,6.829115868E0
1.418889575E0,-3.816552162E-1,4.317250252E0,6.207580090E0
1.421142932E0,-5.862415582E-2,3.729812384E0,6.381658077E0
1.423408557E0,2.045863420E-1,3.854238987E0,5.977271080E0
1.425664294E0,5.383851007E-3,3.759722471E0,5.928217888E0
1.427918199E0,-2.231307179E-1,3.735794306E0,5.974878311E0
1.430168321E0,-3.984049559E-1,3.822534084E0,5.816951752E0
1.432421678E0,-5.994020700E-1,4.027120590E0,6.041877270E0
1.434674853E0,-7.298108935E-1,4.355535507E0,6.354140759E0
1.436928332E0,-9.505487680E-1,4.731208801E0,6.714858532E0
1.439182421E0,-1.361516118E0,5.021936417E0,7.073781967E0
1.441434680E0,-1.658226132E0,5.335994720E0,7.433303356E0
1.443688098E0,-1.792224169E0,5.641079426E0,7.506284714E0
1.445941272E0,-1.939980984E0,5.855835438E0,7.516454220E0
1.448195665E0,-2.109871387E0,5.970690727E0,7.344171047E0
1.450447801E0,-2.417947292E0,5.976672649E0,7.108478069E0
1.452700853E0,-2.363510609E0,6.171089649E0,7.588837147E0
1.454953539E0,-2.298904419E0,6.543771744E0,7.022336483E0
1.457207995E0,-2.071586132E0,6.769295216E0,6.330810547E0
1.459460559E0,-1.983649969E0,6.899106026E0,5.901896954E0
1.461713427E0,-2.060818434E0,6.747759819E0,5.240281582E0
1.463963610E0,-1.991426587E0,6.777669907E0,4.681557655E0
1.466220873E0,-1.937588096E0,6.850052834E0,4.356731892E0
1.468470873E0,-1.865205288E0,6.984051228E0,4.176073551E0
1.470715868E0,-1.812563181E0,7.131807804E0,4.105485439E0
1.472980761E0,-1.746162295E0,7.284350395E0,4.102494240E0
1.475234729E0,-1.684547186E0,7.407580853E0,4.155734539E0
1.477490221E0,-1.746760488E0,7.498507977E0,4.208974838E0
1.479740344E0,-1.750349760E0,7.634898663E0,4.822135925E0
1.481993455E0,-1.861616015E0,7.715656757E0,5.151747227E0
1.484246690E0,-2.000998020E0,7.729415417E0,5.452644825E0
1.486500352E0,-2.178664923E0,7.671987534E0,5.743372440E0
1.488753953E0,-2.283949137E0,7.652246952E0,5.891129494E0
1.491005906E0,-2.359921217E0,7.552346706E0,5.937789440E0
1.493248826E0,-2.402393818E0,7.466803074E0,5.812764645E0
1.495513292E0,-2.343769789E0,7.419544697E0,5.611767292E0
1.497766160E0,-2.248056889E0,7.453044415E0,5.492724419E0
1.500022264E0,-2.213959217E0,7.491927624E0,5.316253662E0
1.502272569E0,-2.237289190E0,7.525427341E0,5.225924492E0
1.504526476E0,-2.179861546E0,8.111668587E0,5.057828903E0
1.506779954E0,-2.188834429E0,9.332606316E0,4.788038254E0
1.509033494E0,-2.550748825E0,1.018624592E1,4.883152962E0
1.511287400E0,-2.973680258E0,1.097827053E1,4.738387108E0
1.513539353E0,-3.339782238E0,1.173739338E1,4.645665169E0
1.515792772E0,-3.635894060E0,1.240917778E1,4.777868748E0
1.518042711E0,-3.692125320E0,1.300558949E1,4.581058979E0
1.520287339E0,-3.887140274E0,1.253420353E1,4.658227444E0
1.522552048E0,-3.555734396E0,1.156511021E1,4.983053207E0
1.524805771E0,-2.800200701E0,1.038126087E1,5.246861935E0
1.527062424E0,-2.017149448E0,9.139984131E0,5.600401402E0
1.529313707E0,-1.494915962E0,8.127820015E0,5.897709846E0
1.531565843E0,-1.273579836E0,7.716853142E0,6.278168201E0
1.533819200E0,-1.298704505E0,7.744968891E0,6.550950050E0
1.536069200E0,-1.527219057E0,7.768897057E0,6.602993965E0
1.538314073E0,-1.773679733E0,7.774280548E0,6.520441532E0
1.540578844E0,-1.835294962E0,7.908278942E0,6.377470493E0
1.542831896E0,-1.847857237E0,8.146963120E0,6.116054535E0
1.545088669E0,-1.922633052E0,8.305487633E0,5.777470112E0
1.547339706E0,-2.090728760E0,8.359326363E0,5.270191669E0
1.549592147E0,-2.207378864E0,8.341380119E0,4.867599487E0
1.551843857E0,-2.181656122E0,8.408976555E0,4.523631096E0
1.554090316E0,-2.157129526E0,8.547162056E0,4.376472473E0
1.556338547E0,-2.224128723E0,8.623134613E0,4.462614059E0
1.558604661E0,-2.363510609E0,8.670990944E0,4.663611412E0
1.560859604E0,-2.483749866E0,8.794221878E0,4.931607246E0
1.563114915E0,-2.589632273E0,8.927620888E0,5.103890896E0
1.565365890E0,-2.680559635E0,8.907880783E0,5.266004562E0
1.567614792E0,-2.714059114E0,8.812766075E0,5.298905849E0
1.569855576E0,-2.780459881E0,8.541180611E0,5.306682587E0
1.572111496E0,-2.765504837E0,8.283951759E0,5.257031441E0
1.574377305E0,-2.740978241E0,7.988438606E0,5.102096081E0
1.576634262E0,-2.702095032E0,7.683951855E0,4.999803066E0
1.578887314E0,-2.702095032E0,7.350152969E0,5.016552448E0
1.581138169E0,-2.792423964E0,6.949953556E0,5.070989609E0
1.583391953E0,-2.858824968E0,6.582654953E0,5.073382378E0
1.585644455E0,-2.934198856E0,6.306283951E0,5.047060966E0
1.587897567E0,-2.962912560E0,6.139384747E0,5.103292465E0
1.590147751E0,-2.906681299E0,6.058028698E0,5.256433010E0
1.592392013E0,-2.803789854E0,6.080760479E0,5.548357487E0
1.594653611E0,-2.729014158E0,6.123233318E0,5.759523869E0
1.596897752E0,-2.667997360E0,6.094519138E0,5.898307800E0
1.599167160E0,-2.592623234E0,6.122634888E0,5.994618893E0
1.601418380E0,-2.578266382E0,6.093921185E0,6.047261238E0
1.603673446E0,-2.578266382E0,6.069993019E0,6.003592014E0
1.605923690E0,-2.535195589E0,6.041278839E0,5.994020939E0
1.608176863E0,-2.525624275E0,6.113063812E0,5.999404430E0
1.610430587E0,-2.497508526E0,6.232106686E0,5.981458187E0
1.612683700E0,-2.535793781E0,6.399005890E0,6.005984783E0
1.614936813E0,-2.535793781E0,6.641877651E0,6.036493301E0
1.617187301E0,-2.511267424E0,6.994818687E0,5.861817360E0
1.619432540E0,-2.462812662E0,7.319644451E0,5.610570908E0
1.621695052E0,-2.380260229E0,7.663612843E0,5.292923450E0
1.623945662E0,-2.326421738E0,7.874181271E0,4.978865623E0
1.626205916E0,-2.310270309E0,8.017750740E0,4.616353035E0
1.628456771E0,-2.274976015E0,8.118846893E0,4.268197536E0
1.630710921E0,-2.221735716E0,8.181060791E0,4.015156269E0
1.632963241E0,-2.191825628E0,8.196015358E0,3.828516245E0
1.635216659E0,-2.172683001E0,8.172087669E0,3.785445452E0
1.637470688E0,-2.216351986E0,8.057231903E0,3.947559118E0
1.639722397E0,-2.293520451E0,7.947162151E0,4.190430641E0
1.641975937E0,-2.404786825E0,7.832306862E0,4.518845558E0
1.644229232E0,-2.501696110E0,7.731808186E0,4.823930264E0
1.646482588E0,-2.569293261E0,7.640282631E0,5.052444935E0
1.648736006E0,-2.603390932E0,7.530212879E0,5.262415409E0
1.650989363E0,-2.646461725E0,7.392027378E0,5.313860893E0
1.653239791E0,-2.684148788E0,7.235297680E0,5.288736343E0
1.655483627E0,-2.788236618E0,6.820741177E0,5.146961689E0
1.657748581E0,-2.424527645E0,6.413960934E0,5.709873199E0
1.660002243E0,-1.485942841E0,6.477969170E0,6.154339790E0
1.662259017E0,-1.109073281E0,6.544968128E0,5.960521221E0
1.664510237E0,-1.342373490E0,6.583253384E0,5.950351715E0
1.666762312E0,-1.970489502E0,6.631708145E0,6.105885029E0
1.669015486E0,-2.699103832E0,6.574878216E0,6.332006931E0
1.671268904E0,-3.227917671E0,6.284150600E0,6.504888535E0
1.673523116E0,-3.670589924E0,5.531607628E0,6.727420807E0
1.675774764E0,-3.727419376E0,5.093122959E0,6.729215622E0
1.678028609E0,-3.521636724E0,5.336592674E0,6.439683914E0
1.680281477E0,-3.547957659E0,5.385047436E0,6.047859192E0
1.682535078E0,-3.688536167E0,5.152345181E0,5.725426197E0
1.684788190E0,-3.797409534E0,4.862215519E0,5.632106304E0
1.687041791E0,-3.769293785E0,4.694717884E0,5.755336761E0
1.689291914E0,-3.602394581E0,4.775475979E0,5.708676815E0
1.691536666E0,-3.511467218E0,4.828716278E0,5.508875847E0
1.693801070E0,-3.378067255E0,5.147559643E0,5.477769375E0
1.696054732E0,-3.216551781E0,5.605186939E0,5.409573555E0
1.698307356E0,-3.122035265E0,6.114858150E0,5.471189022E0
1.700548506E0,-3.165106058E0,6.387042046E0,5.496313572E0
1.702814497E0,-3.199802160E0,6.443273067E0,5.682953835E0
1.705067853E0,-3.144168854E0,6.819544315E0,5.896512985E0
1.707324873E0,-2.948555708E0,7.315456867E0,5.742774487E0
1.709575544E0,-3.023331404E0,7.482954502E0,5.461019516E0
1.711826826E0,-2.965305567E0,7.993224144E0,5.234897614E0
1.714077132E0,-2.830111027E0,8.580661774E0,4.808975220E0
1.716333601E0,-2.803789854E0,8.958129883E0,4.314259052E0
1.718586652E0,-2.749951363E0,9.282955170E0,3.972085476E0
1.720841230E0,-2.758326292E0,9.469595909E0,3.791427374E0
1.723090376E0,-2.733799934E0,9.631709099E0,3.606581926E0
1.725334822E0,-2.871387243E0,9.689735413E0,3.534198999E0
1.727601973E0,-3.047857761E0,9.684949875E0,3.667598963E0
1.729853987E0,-3.162713289E0,9.717850685E0,3.733999729E0
1.732110517E0,-3.267399311E0,9.479764938E0,3.866203070E0
1.734360396E0,-3.326621771E0,9.154341698E0,4.241876125E0
1.736614729E0,-3.184846878E0,8.796614647E0,4.493122578E0
1.738866499E0,-3.215355396E0,8.225327492E0,3.996612072E0
1.741120222E0,-3.332603693E0,7.811369419E0,3.787838221E0
1.743373639E0,-3.313461065E0,7.425527096E0,3.761517286E0
1.745628094E0,-3.309871912E0,6.952944279E0,4.021736622E0
1.747879925E0,-3.292523861E0,6.541976929E0,4.396811485E0
1.750133160E0,-3.318246841E0,5.992824078E0,4.818546772E0
1.752383954E0,-3.367897987E0,5.653641701E0,5.318646431E0
1.754629621E0,-3.486342669E0,4.981856823E0,5.270790100E0
1.756892622E0,-3.685544968E0,4.104887009E0,5.297709465E0
1.759146040E0,-3.825525284E0,3.533600807E0,4.934598446E0
1.761402509E0,-3.636492252E0,3.754338741E0,4.195216179E0
1.763654034E0,-3.147160053E0,4.607379913E0,4.202992916E0
1.765906414E0,-2.887538671E0,4.875974178E0,5.306084156E0
1.768159466E0,-2.871387243E0,5.694319725E0,5.789434433E0
1.770412457E0,-2.907877684E0,6.725028038E0,5.370690346E0
1.772665937E0,-3.241078377E0,7.378866673E0,5.344967365E0
1.774918806E0,-3.443271875E0,8.145766258E0,5.712265968E0
1.777172589E0,-3.632902861E0,8.598608017E0,5.604588985E0
1.779425641E0,-3.721437454E0,8.886344910E0,5.146961689E0
1.781680768E0,-3.769891977E0,9.087940216E0,4.473381996E0
1.783933880E0,-3.619144201E0,9.399007797E0,3.792623997E0
1.786185773E0,-3.476771355E0,9.548559189E0,2.952144861E0
1.788439679E0,-3.273381472E0,1.006959629E1,2.243869543E0
1.790695416E0,-3.052045345E0,1.077129078E1,1.670788407E0
1.792945051E0,-2.788834810E0,1.153759289E1,2.173879385E0
1.795198286E0,-2.673979282E0,1.191685486E1,2.837289333E0
1.797451398E0,-2.658426046E0,1.216810131E1,3.403192043E0
1.799706218E0,-2.858824968E0,1.222792149E1,4.387838364E0
1.801956706E0,-3.019144058E0,1.221715450E1,5.080560684E0
1.804211772E0,-3.264408350E0,1.220877934E1,4.658825874E0
1.806465130E0,-3.488735437E0,1.239721394E1,3.917648792E0
1.808720135E0,-3.566502094E0,1.271785259E1,3.345764160E0
1.810972027E0,-3.626322746E0,1.292363548E1,2.925823927E0
1.813224957E0,-3.620340586E0,1.287159157E1,2.748754978E0
1.815478374E0,-3.515056372E0,1.273400402E1,2.604587555E0
1.817730632E0,-3.390031576E0,1.262453270E1,2.360519648E0
1.819976543E0,-3.231507063E0,1.253898907E1,2.063809633E0
1.822237652E0,-3.096910715E0,1.243011570E1,1.838884234E0
1.824491253E0,-2.962912560E0,1.233021545E1,1.685743570E0
1.826746807E0,-2.900100946E0,1.211545944E1,1.575075507E0
1.828998272E0,-2.942573547E0,1.181097221E1,1.548754454E0
1.831251262E0,-2.995215654E0,1.149093246E1,1.646860242E0
1.833502056E0,-2.996412039E0,1.115713406E1,1.893320918E0
1.835747905E0,-3.059223652E0,1.073240757E1,2.110469580E0
1.838010296E0,-3.012563705E0,1.029751205E1,2.389831543E0
1.840264264E0,-3.061018467E0,9.820742607E0,2.558525562E0
1.842520062E0,-3.061018467E0,9.424730301E0,2.651845694E0
1.844771038E0,-2.976073265E0,9.000003815E0,2.802593470E0
1.847025493E0,-2.947359324E0,8.699705124E0,2.829512835E0
1.849282268E0,-2.870789051E0,8.504690170E0,2.766103029E0
1.851530926E0,-2.866003275E0,8.299505234E0,2.764906645E0
1.853781903E0,-3.046661377E0,8.013563156E0,2.747558594E0
1.856022686E0,-2.970689297E0,7.799405575E0,2.756531715E0
1.858290142E0,-2.898306370E0,7.603792191E0,2.688336134E0
1.860543499E0,-2.885145903E0,7.355536938E0,2.830111027E0
1.862800517E0,-2.810370207E0,7.049853802E0,3.163311481E0
1.865050456E0,-2.691925526E0,6.839285374E0,3.248854876E0
1.867303568E0,-2.666202545E0,6.797410965E0,2.861217737E0
1.869557231E0,-2.661417007E0,6.630511761E0,2.927020311E0
1.871808208E0,-2.613560438E0,6.592824459E0,2.802593470E0
1.874050884E0,-2.475973129E0,6.601797581E0,2.961117983E0
1.876316692E0,-2.315654039E0,6.495915413E0,3.114258766E0
1.878569865E0,-2.176870346E0,6.491129398E0,3.028715372E0
1.880827433E0,-1.973480463E0,6.762714863E0,3.122035265E0
1.883076517E0,-1.864008784E0,7.119843960E0,3.115455151E0
1.885329935E0,-1.803590059E0,7.233502865E0,3.331407309E0
1.887583110E0,-1.885544300E0,7.423732281E0,3.547957659E0
1.889836772E0,-1.977667928E0,7.756932735E0,3.845864296E0
1.892086589E0,-2.022533417E0,8.013563156E0,4.177269936E0
1.894342388E0,-1.942971945E0,8.203792572E0,4.370490551E0
1.896595927E0,-1.800000787E0,8.585447311E0,4.210769653E0
1.898849956E0,-1.735394597E0,8.943773270E0,3.687339783E0
1.901102885E0,-1.567298889E0,9.435498238E0,3.299104214E0
1.903355570E0,-1.509272933E0,9.717252731E0,3.086143017E0
1.905609782E0,-1.442273855E0,9.969695091E0,3.011367321E0
1.907863627E0,-1.332802176E0,1.030827999E1,2.971287489E0
1.910116191E0,-1.121635556E0,1.054995537E1,3.442075491E0
1.912366008E0,-1.006181955E0,1.085324574E1,4.033102512E0
1.914606242E0,-8.123632669E-1,1.105962658E1,3.336791277E0
1.916859477E0,-4.426721931E-1,1.146162033E1,2.590230465E0
1.919112285E0,-1.728814393E-1,1.170568848E1,1.894517303E0
1.921369364E0,6.580262445E-3,1.192642593E1,1.203589797E0
1.923623637E0,1.998006850E-1,1.222313595E1,6.897311211E-1
1.925877177E0,3.966103494E-1,1.237149143E1,3.517449200E-1
1.928129252E0,4.887340367E-1,1.226202011E1,1.674975827E-2
1.930385477E0,5.611169338E-1,1.214836025E1,-1.752742529E-1
1.932651712E0,6.370890141E-1,1.217647648E1,-1.890329868E-1
1.934905130E0,7.417750359E-1,1.220997620E1,-1.501496136E-1
1.937158243E0,7.226324677E-1,1.213340569E1,-1.172483116E-1
1.939406900E0,4.564309120E-1,1.246780205E1,-2.165504545E-1
1.941657511E0,4.683950245E-1,1.239541912E1,1.848455518E-1
1.943915872E0,3.625126183E-1,1.208495045E1,5.270192027E-1
1.946168375E0,2.835494876E-1,1.169791126E1,1.030708313E0
1.948422586E0,2.327020019E-1,1.129591751E1,1.692921996E0
1.950674967E0,2.632105052E-1,1.093699455E1,2.297708035E0
1.952928202E0,2.398804724E-1,1.062054348E1,3.046661377E0
1.955177042E0,1.986042857E-1,1.039980507E1,3.667000771E0
1.957434428E0,1.818545163E-1,1.028435135E1,4.187439442E0
1.959684794E0,1.471585929E-1,1.019282627E1,4.396811485E0
1.961930338E0,5.623133108E-2,1.009292603E1,4.554139614E0
1.964194436E0,-1.148554832E-1,9.906884193E0,4.599603176E0
1.966447549E0,-2.530409992E-1,9.683155060E0,4.602594376E0
1.968704019E0,-4.133601189E-1,9.431310654E0,4.490131855E0
1.970954447E0,-6.083751321E-1,9.150154114E0,4.497310162E0
1.973207560E0,-7.124629617E-1,8.878568649E0,4.418346882E0
1.975460490E0,-7.549355626E-1,8.669196129E0,4.363910198E0
1.977714213E0,-8.315058947E-1,8.516654015E0,4.506283283E0
1.979968607E0,-8.901300430E-1,8.472985268E0,4.759324074E0
1.982220865E0,-9.774680734E-1,8.505886078E0,5.112864017E0
1.984473977E0,-1.096511006E0,8.620143890E0,5.185246468E0
1.986726785E0,-1.215553880E0,8.748757362E0,5.199603558E0
1.988980081E0,-1.329213023E0,8.930612564E0,5.094917774E0
1.991232889E0,-1.485344648E0,9.078967094E0,4.928018093E0
1.993486673E0,-1.660618901E0,9.108279228E0,4.769493580E0
1.995740640E0,-1.816750646E0,9.127422333E0,4.673780918E0
1.997994912E0,-1.929811478E0,9.171091080E0,4.481756687E0
2.000243814E0,-2.058425665E0,9.223732948E0,4.429114819E0
2.002487404E0,-2.086541414E0,9.242876053E0,4.405186653E0
2.004753212E0,-2.133799553E0,9.372088432E0,4.324428558E0
2.007006630E0,-2.269592285E0,9.415757179E0,3.941577196E0
2.009263039E0,-2.377269268E0,9.488738060E0,3.597608805E0
2.011513223E0,-2.460419893E0,9.537193298E0,3.195614576E0
2.013766702E0,-2.497508526E0,9.566504478E0,2.999403238E0
2.016020729E0,-2.411366940E0,9.590433121E0,2.866003275E0
2.018272377E0,-2.234896421E0,9.637691498E0,2.833700180E0
2.020525612E0,-2.081755638E0,9.561718941E0,2.670988321E0
2.022779153E0,-1.918445587E0,9.433703423E0,2.383849621E0
2.025034158E0,-1.717448473E0,9.386445045E0,2.045265198E0
2.027286355E0,-1.511067510E0,9.405587196E0,1.730608940E0
2.029539529E0,-1.328614831E0,9.387042999E0,1.472782373E0
2.031791787E0,-1.194616675E0,9.552147865E0,2.086541414E0
2.034043008E0,-1.092323542E0,9.708279610E0,2.508874655E0
2.036298989E0,-9.571290612E-1,9.816555023E0,2.983849764E0
2.038551796E0,-9.092726111E-1,9.761520386E0,2.094317913E0
2.040806435E0,-8.638089895E-1,9.719645500E0,1.620539188E0
2.043058937E0,-8.195417523E-1,9.729815483E0,1.329213023E0
2.045312539E0,-7.154539824E-1,9.810572624E0,1.382453322E0
2.047565774E0,-7.178468108E-1,9.924231529E0,1.837687731E0
2.049819253E0,-7.657032609E-1,9.991230965E0,3.631706476E0
2.052073221E0,-8.883354068E-1,9.951150894E0,2.530410051E0
2.054324867E0,-8.590233326E-1,9.872786522E0,1.526022673E0
2.056578101E0,-8.141579032E-1,9.739984512E0,1.219143152E0
2.058831336E0,-6.861419082E-1,9.601201057E0,1.319043517E0
2.061085426E0,-5.934200287E-1,9.433105469E0,1.749153376E0
2.063338844E0,-5.288137794E-1,9.208179474E0,2.149353027E0
2.065591957E0,-4.731806815E-1,9.178867340E0,2.369492531E0
2.067845314E0,-5.347958803E-1,9.126225471E0,2.383251429E0
2.070099404E0,-5.682953596E-1,9.083752632E0,2.368296146E0
2.072352760E0,-7.010970116E-1,9.155537605E0,2.286940336E0
2.074609474E0,-1.002592683E0,9.119047165E0,1.783251047E0
2.076857948E0,-9.649057388E-1,8.866005898E0,1.929811478E0
2.079111428E0,-1.118046403E0,8.593822479E0,2.085345030E0
2.081363686E0,-1.223928809E0,8.526823044E0,2.347957134E0
2.083617957E0,-1.428515077E0,8.355736732E0,2.383849621E0
2.085871498E0,-1.543370605E0,8.407780647E0,2.580060959E0
2.088122474E0,-1.704886079E0,8.293522835E0,2.525624275E0
2.090361244E0,-1.741376638E0,8.099106789E0,2.261217356E0
2.092615089E0,-1.750349760E0,7.998608112E0,2.251047850E0
2.094874184E0,-1.803590059E0,7.893921852E0,2.345564365E0
2.097144509E0,-1.776072621E0,7.983652592E0,2.561516523E0
2.099391030E0,-1.801795483E0,8.059026718E0,2.911466837E0
2.101633888E0,-1.798206210E0,8.206783295E0,3.103491068E0
2.103896949E0,-1.813161373E0,8.306683540E0,3.185445070E0
2.106151954E0,-1.889133453E0,8.383254051E0,3.128017426E0
2.108407386E0,-1.956730723E0,8.630312920E0,3.315854073E0
2.110657265E0,-2.036292076E0,8.683553696E0,3.120240688E0
2.112910194E0,-2.059622049E0,8.788837433E0,2.991626501E0
2.115163857E0,-2.039283037E0,8.980263710E0,2.720041037E0
2.117416968E0,-2.085943222E0,9.204590797E0,2.583052158E0
2.119669897E0,-2.075175524E0,9.481559753E0,2.340778828E0
2.121923438E0,-2.093121529E0,9.696315765E0,2.083550215E0
2.124178076E0,-2.101496458E0,9.945169449E0,1.831705689E0
2.126430396E0,-2.094916344E0,1.006959629E1,1.521835208E0
2.128683814E0,-1.933400750E0,1.025085258E1,1.447059512E0
2.130936621E0,-1.746760488E0,1.033220863E1,1.271785259E0
2.133190284E0,-1.677966833E0,1.024726295E1,8.123632669E-1
2.135441199E0,-1.536192179E0,1.012463093E1,1.902294010E-1
2.137687781E0,-1.385444283E0,9.901499748E0,-3.894318938E-1
2.139949927E0,-1.168893814E0,9.783653259E0,-9.296116233E-1
2.142203894E0,-9.661021233E-1,9.669994354E0,-1.474576950E0
2.144458594E0,-7.262216806E-1,9.680164337E0,-1.784447432E0
2.146709815E0,-5.539384484E-1,9.651450157E0,-2.003988981E0
2.148962744E0,-3.008974493E-1,9.637691498E0,-2.199003935E0
2.151216102E0,-9.451649338E-2,9.680762291E0,-2.590230465E0
2.153466041E0,9.332008660E-2,9.681958199E0,-2.995813847E0
2.155709692E0,3.966103494E-1,9.692128181E0,-3.678366661E0
2.157975928E0,6.460621357E-1,9.640682220E0,-4.055834293E0
2.160227088E0,1.058225870E0,9.729815483E0,-3.876372576E0
2.162472815E0,1.451845169E0,9.795618057E0,-3.649652719E0
2.164736060E0,1.682752490E0,9.966106415E0,-3.293720484E0
2.166989417E0,1.932204247E0,1.000259686E1,-2.871387243E0
2.169247046E0,2.069193363E0,1.005942631E1,-2.693121910E0
2.171495826E0,2.106282234E0,1.011147022E1,-2.511267424E0
2.173748573E0,2.134397745E0,1.010668468E1,-2.458625317E0
2.175998939E0,2.100898266E0,9.987043381E0,-2.430509567E0
2.178243445E0,2.185245275E0,1.002951622E1,-2.214557409E0
2.180509007E0,2.136192322E0,1.002891827E1,-1.913659930E0
2.182762303E0,2.021337032E0,9.947562218E0,-1.795215130E0
2.185018468E0,1.945364833E0,9.929018021E0,-1.829312921E0
2.187268652E0,1.763510346E0,9.857233047E0,-1.572084427E0
2.189519323E0,1.487139225E0,9.814162254E0,-1.415354609E0
2.191763525E0,1.275972724E0,9.818349838E0,-1.076770186E0
2.194025000E0,1.075573802E0,9.832706451E0,-9.296116233E-1
2.196282751E0,7.830511928E-1,9.774680138E0,-5.437689424E-1
2.198537695E0,4.785645306E-1,9.560523033E0,-3.882354796E-1
2.200789282E0,2.398804724E-1,9.427123070E0,-2.470589429E-1
2.203041051E0,7.178468257E-2,9.426525116E0,2.512463741E-2
2.205294774E0,-1.818545163E-1,9.397212982E0,4.301098585E-1
2.207548192E0,-4.731806815E-1,9.249456406E0,6.765705943E-1
2.209801672E0,-7.166503668E-1,9.139984131E0,8.422735929E-1
2.212055090E0,-8.877372146E-1,9.092127800E0,8.560323119E-1
2.214309179E0,-9.589236975E-1,9.111868858E0,8.315058947E-1
2.216557959E0,-1.092921734E0,9.020941734E0,1.016949654E0
2.218800939E0,-1.168893814E0,8.858827591E0,1.010967612E0
2.221066930E0,-1.287936807E0,8.715856552E0,1.071386337E0
2.223317968E0,-1.382453322E0,8.659027100E0,9.511470199E-1
2.225562109E0,-1.415952802E0,8.635098457E0,9.798609018E-1
2.227815466E0,-1.392024517E0,8.587840080E0,9.266205430E-1
2.230081396E0,-1.361516118E0,8.535796165E0,6.203392744E-1
2.232338415E0,-1.228116274E0,8.712266922E0,5.359922647E-1
2.234590612E0,-1.091127157E0,9.026325226E0,6.155536175E-1
2.236840734E0,-9.768698215E-1,9.250652313E0,5.838487148E-1
2.239093602E0,-8.440681696E-1,9.493523598E0,5.856433511E-1
2.241348424E0,-7.339983582E-1,9.707681656E0,4.827519655E-1
2.243600377E0,-5.820540786E-1,9.946365356E0,4.462614357E-1
2.245853917E0,-5.060819983E-1,1.004148006E1,4.235295951E-1
2.248106969E0,-4.342973232E-1,1.014616585E1,4.199403822E-1
2.250361425E0,-3.774677813E-1,1.006540871E1,3.810569942E-1
2.252613377E0,-2.350948304E-1,1.022692394E1,4.689932466E-1
2.254862767E0,-1.926222295E-1,1.025982571E1,5.551348329E-1
2.257106663E0,-9.332008660E-2,1.040279675E1,5.665007830E-1
2.259373142E0,2.632104978E-2,1.046500969E1,4.091726840E-1
2.261626988E0,1.561316848E-1,1.047936630E1,2.045863420E-1
2.263883274E0,3.613162339E-1,1.054158020E1,7.178468257E-2
2.266133763E0,5.090730190E-1,1.040818024E1,-3.828516230E-2
2.268387731E0,7.722834945E-1,1.056072235E1,-3.565305769E-1
2.270639745E0,9.110672474E-1,1.047517967E1,-5.383850932E-1
2.272893102E0,1.065404296E0,1.025204849E1,-8.500502706E-1
2.275146031E0,1.238285661E0,1.003789139E1,-1.228714466E0
2.277399754E0,1.467996716E0,9.952347755E0,-1.424327731E0
2.279652866E0,1.543370605E0,9.937990189E0,-1.333400369E0
2.281906040E0,1.661815286E0,9.961320877E0,-1.189232826E0
2.284159520E0,1.642074585E0,1.004686451E1,-1.073779106E0
2.286413854E0,1.565504193E0,1.006540871E1,-9.978070259E-1
2.288665684E0,1.551147223E0,1.003250694E1,-9.738788009E-1
2.290918430E0,1.465005636E0,9.855438232E0,-8.368897438E-1
2.293171665E0,1.435095429E0,9.788438797E0,-6.412764788E-1
2.295425878E0,1.372283816E0,9.707083702E0,-4.648058116E-1
2.297679235E0,1.058225870E0,9.492925644E0,-3.816552162E-1
2.299932469E0,9.014959335E-1,9.526425362E0,-4.013960063E-1
2.302185399E0,1.103689432E0,9.663414001E0,-7.178467698E-3
2.304440037E0,8.650053740E-1,9.501300812E0,2.057827413E-1
2.306692235E0,6.358926296E-1,9.491728783E0,3.146561682E-1
2.308945774E0,3.990031779E-1,9.611370087E0,2.333002090E-1
2.311198825E0,2.273181453E-2,9.621540070E0,2.937189937E-1
2.313453220E0,-2.721835673E-1,9.741181374E0,3.176472187E-1
2.315705357E0,-6.436693072E-1,9.784252167E0,4.259224236E-1
2.317955296E0,-8.769695163E-1,9.865608215E0,4.881358147E-1
2.320196079E0,-1.076770186E0,1.000857925E1,4.785645306E-1
2.322455356E0,-1.365703583E0,9.928419113E0,3.475574851E-1
2.324718356E0,-1.589432478E0,9.924231529E0,3.224328458E-1
2.326975009E0,-1.707278967E0,9.981659889E0,1.597209126E-1
2.329227390E0,-1.872383714E0,9.891928673E0,-7.597211748E-2
2.331478367E0,-1.985444546E0,1.000199890E1,-2.045863420E-1
2.333731541E0,-2.099103689E0,1.005523872E1,-3.385843933E-1
2.335981663E0,-2.122433662E0,1.017488003E1,-4.911268353E-1
2.338225193E0,-2.040479422E0,1.030827999E1,-6.717849374E-1
2.340492404E0,-1.932802439E0,1.031426239E1,-1.254437327E0
2.342744174E0,-1.758724689E0,9.938589096E0,-1.677368641E0
2.345001132E0,-1.320239902E0,7.518846989E0,-7.010970116E-1
2.347250766E0,-1.249053478E0,6.315257072E0,2.763710022E-1
2.349504612E0,-6.897311211E-1,7.883154392E0,2.106880426E0
2.351754795E0,-2.452643216E-1,8.845068932E0,4.219144344E0
2.353995945E0,-2.512463741E-2,9.549157143E0,4.717449665E0
2.356253757E0,-8.075776696E-2,1.027478027E1,4.353740692E0
2.358515415E0,-3.840480447E-1,1.067797089E1,3.245265722E0
2.360761264E0,-4.845465720E-1,1.107577801E1,2.444268227E0
2.363026950E0,-5.766702294E-1,1.118225861E1,1.904088616E0
2.365277133E0,-5.198407173E-1,1.133898830E1,1.967498422E0
2.367533786E0,-4.414757788E-1,1.140000534E1,2.408375978E0
2.369783970E0,-4.612165689E-1,1.130907822E1,2.574677229E0
2.372037081E0,-4.301098585E-1,1.118405342E1,2.985644341E0
2.374290438E0,-2.644068897E-1,1.124088287E1,3.110669374E0
2.376544893E0,-1.878365725E-1,1.118824005E1,2.967100143E0
2.378796724E0,-1.148554832E-1,1.104108143E1,2.689532757E0
2.381050448E0,-3.649054468E-2,1.094656563E1,2.268395901E0
2.383303500E0,-3.469592705E-2,1.074257755E1,1.946561217E0
2.385558078E0,-5.623133108E-2,1.049551868E1,1.624128342E0
2.387810336E0,-6.580262631E-2,1.042911720E1,1.604387641E0
2.390060092E0,-1.561316848E-1,1.035254669E1,1.689931035E0
2.392302401E0,-2.506481707E-1,1.007198906E1,1.529611826E0
2.394565463E0,-2.309073806E-1,9.881160736E0,1.427916884E0
2.396823336E0,-1.782652885E-1,9.795618057E0,1.389631748E0
2.399079928E0,-1.597209126E-1,9.638289452E0,1.469791293E0
2.401331698E0,-1.531406492E-1,9.457631111E0,1.167099237E0
2.403582796E0,-6.221338734E-2,9.324232101E0,1.128814101E0
2.405836276E0,-2.931207791E-2,9.305088997E0,1.128814101E0
2.408089449E0,-1.435693540E-2,9.243474007E0,1.032503009E0
2.410343173E0,-4.666004330E-2,9.081359863E0,9.116654396E-1
2.412597262E0,-7.597211748E-2,9.138189316E0,1.036690354E0
2.414849398E0,-1.429711580E-1,9.086145401E0,1.107876897E0
2.417101900E0,-1.274178028E-1,8.924032211E0,9.487541914E-1
2.419352694E0,-6.939185411E-2,8.872586250E0,7.046862841E-1
2.421608675E0,1.674975827E-2,8.800801277E0,6.616154313E-1
2.423862399E0,1.501496136E-1,8.738588333E0,6.424728632E-1
2.426116488E0,2.787638307E-1,8.643473625E0,6.185446382E-1
2.428369357E0,4.031906128E-1,8.519644737E0,4.749752879E-1
2.430623385E0,5.712863803E-1,8.372486115E0,1.399801224E-1
2.432875583E0,8.165507317E-1,8.320442200E0,-3.188436031E-1
2.435128390E0,1.051645517E0,8.321041107E0,-7.477570772E-1
2.437379365E0,1.273579836E0,8.355736732E0,-1.378265858E0
2.439631807E0,1.519442320E0,8.485547066E0,-1.921436548E0
2.441875520E0,1.721037745E0,8.648259163E0,-2.312064886E0
2.444142488E0,1.898704767E0,8.772686005E0,-2.693121910E0
2.446395479E0,2.023729801E0,8.882756233E0,-2.940180779E0
2.448653047E0,2.167299032E0,8.887541771E0,-3.131008387E0
2.450901949E0,2.276770830E0,8.854042053E0,-3.150151014E0
2.453152376E0,2.357528448E0,8.810971260E0,-3.135794163E0
2.455397187E0,2.395215511E0,8.720642090E0,-3.092723370E0
2.457662446E0,2.291127682E0,8.258229256E0,-3.029313564E0
2.459915070E0,1.564307809E0,5.772684574E0,-3.747160196E0
2.462170869E0,2.134995937E0,6.218348026E0,-2.962314367E0
2.464421785E0,1.679761529E0,5.907280922E0,-2.334796667E0
2.466675814E0,1.550549030E0,5.706882000E0,-2.073380709E0
2.468928072E0,1.481157184E0,5.600999832E0,-1.605584025E0
2.471181185E0,1.287338614E0,5.361119270E0,-8.907282352E-1
2.473434358E0,1.296909928E0,5.335396290E0,-2.033899166E-2
2.475684542E0,9.918249846E-1,5.228317261E0,1.000798106E0
2.477928071E0,6.197410822E-1,5.188237667E0,2.051247120E0
2.480194367E0,2.392822653E-1,5.086542606E0,3.029911757E0
2.482447786E0,-1.746760458E-1,5.070391178E0,3.955335855E0
2.484704988E0,-5.455635786E-1,5.283352375E0,4.739583492E0
2.486950960E0,-9.098708034E-1,5.330610752E0,5.303092957E0
2.489191683E0,-1.387238979E0,5.125426292E0,5.634499073E0
2.491448579E0,-1.616351724E0,5.435296535E0,5.783452511E0
2.493713961E0,-1.697109461E0,6.269793510E0,5.650052547E0
2.495967684E0,-1.921436548E0,6.725028038E0,4.905884743E0
2.498208894E0,-1.888535261E0,7.246065140E0,4.120440483E0
2.500461395E0,-1.814357758E0,7.566703320E0,3.501297712E0
2.502727569E0,-1.883151412E0,7.329813957E0,3.083152056E0
2.504983185E0,-1.783251047E0,7.320242882E0,3.064607620E0
2.507236908E0,-1.843669891E0,7.068397999E0,2.804388046E0
2.509487031E0,-1.946561217E0,6.749554634E0,2.557927370E0
2.511739411E0,-2.102094650E0,6.263811588E0,2.400599241E0
2.513989839E0,-2.306082726E0,5.639883041E0,2.338385820E0
2.516246674E0,-2.363510609E0,5.205585480E0,2.555534601E0
2.518498688E0,-2.176272154E0,4.741976261E0,3.098705292E0
2.520751679E0,-2.040479422E0,4.464408875E0,3.489333630E0
2.523006439E0,-1.880160451E0,4.563711166E0,3.705883980E0
2.525260285E0,-1.695913076E0,5.627918720E0,2.919841766E0
2.527514130E0,-1.568495274E0,7.429116249E0,1.210170031E0
2.529767487E0,-1.407577872E0,8.429315567E0,-5.186443329E-1
2.532019807E0,-1.198205948E0,9.704092026E0,-1.618744493E0
2.534272980E0,-9.954141974E-1,9.700503349E0,-2.111067772E0
2.536526154E0,-9.032905698E-1,9.384052277E0,-1.596012712E0
2.538780304E0,-5.844469070E-1,9.538987160E0,-8.237292171E-1
2.541032806E0,-3.272185028E-1,9.639486313E0,-8.985049129E-1
2.543286225E0,-3.254238665E-1,9.711270332E0,-1.242473125E0
2.545539154E0,-3.415754437E-1,9.722636223E0,-1.792224169E0
2.547792573E0,-2.368894368E-1,8.739784241E0,-1.616351724E0
2.550045991E0,-4.247260094E-2,7.254439831E0,-4.965106845E-1
2.552296052E0,-4.486542568E-2,6.896114826E0,-7.298108935E-2
2.554536164E0,1.663011760E-1,6.471987247E0,-2.853440940E-1
2.556793732E0,-3.230310604E-2,6.863811970E0,-5.228317380E-1
2.559058807E0,-7.657032460E-2,8.334200859E0,-1.379462242E0
2.561315399E0,-1.399801224E-1,7.570292473E0,-1.016351461E0
2.563568511E0,1.298106313E-1,5.772684574E0,1.220937729E0
2.565819000E0,5.300102234E-1,4.561916351E0,2.950948477E0
2.568072357E0,3.355933726E-1,4.529015064E0,2.834896564E0
2.570325287E0,-3.505485058E-1,4.955535889E0,2.199003935E0
2.572578827E0,-3.798605800E-1,5.295914650E0,1.464407444E0
2.574832550E0,-1.830509305E-1,5.482554913E0,1.031306505E0
2.577085235E0,6.640082598E-2,5.473581791E0,6.879364848E-1
2.579338225E0,4.121637046E-1,5.715855122E0,8.679963946E-1
2.581591704E0,3.960121572E-1,6.029912949E0,1.166501045E0
2.583845061E0,4.253242314E-1,6.020341873E0,1.027717352E0
2.586098541E0,3.266202807E-1,6.340381622E0,7.758727670E-1
2.588350372E0,1.166501045E-1,6.588637352E0,8.626125455E-1
2.590596893E0,-9.810572863E-2,6.425925255E0,1.124028444E0
2.592845978E0,-4.091726840E-1,5.992226124E0,1.473978758E0
2.595111420E0,-5.192425251E-1,6.425925255E0,1.523629785E0
2.597366058E0,-2.679961324E-1,7.454838753E0,1.574477315E0
2.599621123E0,-1.357926875E-1,8.331808090E0,1.657627940E0
2.601869353E0,-2.171486616E-1,9.008378983E0,1.685743570E0
2.604115264E0,-3.170489967E-1,9.413962364E0,1.610967875E0
2.606377777E0,-4.654040039E-1,9.728618622E0,1.751546144E0
2.608631378E0,-2.763710022E-1,1.029033375E1,1.923231244E0
2.610887908E0,-5.862415582E-2,1.081854916E1,1.970489502E0
2.613137787E0,-8.973085321E-3,1.123908806E1,1.548156261E0
2.615390899E0,1.046859920E-1,1.135035419E1,7.788637877E-1
2.617643645E0,2.703889608E-1,1.162373447E1,4.007977992E-2
2.619896697E0,2.536391914E-1,1.181097221E1,-4.175475538E-1
2.622150420E0,2.751746029E-2,1.188335514E1,-8.536394835E-1
2.624403900E0,1.914258115E-2,1.201735306E1,-1.039083242E0
2.626657744E0,1.854437590E-2,1.200778198E1,-9.720842242E-1
2.628911773E0,1.256231871E-2,1.185464191E1,-6.861419082E-1
2.631163909E0,4.007977992E-2,1.146341515E1,-4.881358147E-1
2.633417021E0,2.685943544E-1,1.147717381E1,-4.773681164E-1
2.635669828E0,4.642075896E-1,1.160638618E1,-7.148557901E-1
2.637923185E0,5.042873621E-1,1.188335514E1,-1.100100160E0
2.640177030E0,6.723831892E-1,1.185523987E1,-1.415354609E0
2.642430022E0,9.912267923E-1,1.157827091E1,-1.401595831E0
2.644683806E0,7.716853023E-1,1.143051338E1,-1.173679471E0
2.646937774E0,5.419743061E-1,1.152084255E1,-9.589236975E-1
2.649190032E0,3.032902777E-1,1.156391335E1,-7.680960894E-1
2.651443206E0,1.962114573E-1,1.253539944E1,-5.042873621E-1
2.653693755E0,-1.651047617E-1,1.265025520E1,-5.096712112E-1
2.655937346E0,-8.374879137E-3,1.309352589E1,-4.773681164E-1
2.658194425E0,4.486542568E-2,1.314138222E1,-6.394818425E-1
2.660456388E0,2.823530734E-1,1.364148235E1,-6.640082598E-1
2.662712614E0,1.022931710E-1,1.426241970E1,-8.805587292E-1
2.664966155E0,-5.682953596E-1,1.418704510E1,-8.602197170E-1
2.667216399E0,-8.446664214E-1,1.418704510E1,-7.082754970E-1
2.669469512E0,-7.956135273E-1,1.404467297E1,-9.720842242E-1
2.671721709E0,-2.644068897E-1,1.357328606E1,-1.561316729E0
2.673972929E0,4.223332107E-1,1.324905872E1,-1.899901152E0
2.676229276E0,7.465606928E-1,1.262871933E1,-2.031506538E0
2.678482511E0,5.210371017E-1,1.229910851E1,-1.604387641E0
2.680733732E0,1.040877849E-1,1.336630726E1,-1.101894855E0
2.682977324E0,-6.550351977E-1,1.427677631E1,-6.544370055E-1
2.685242278E0,-1.036092162E0,1.533559990E1,-6.155536175E-1
2.687495635E0,-8.398807645E-1,1.637528229E1,-9.667003751E-1
2.689749785E0,-5.910272002E-1,1.744367790E1,-1.365105271E0
2.691994107E0,-3.308077157E-1,1.768774414E1,-2.046461582E0
2.694254910E0,-4.821537733E-1,1.918086624E1,-2.410170555E0
2.696508511E0,-3.678964674E-1,2.014397812E1,-2.575873613E0
2.698763883E0,-9.571290761E-2,2.048734665E1,-2.792423964E0
2.701016752E0,2.003988922E-1,2.019183350E1,-3.037090063E0
2.703268400E0,6.861419082E-1,1.999622154E1,-3.083750248E0
2.705521940E0,7.471588850E-1,1.914736748E1,-2.926422119E0
2.707774869E0,1.330409408E0,1.880698776E1,-2.543570518E0
2.710028471E0,1.387837172E0,1.765304947E1,-2.474776745E0
2.712280546E0,1.950150490E0,1.644646835E1,-2.614158630E0
2.714529813E0,2.060818434E0,1.491147232E1,-2.628515720E0
2.716785123E0,1.884945989E0,1.357687569E1,-2.456232548E0
2.719029202E0,1.697109461E0,1.252223873E1,-1.865803480E0
2.721295499E0,1.540379524E0,1.180080318E1,-1.019940615E0
2.723547941E0,1.299302697E0,1.113200951E1,-2.889333367E-1
2.725804410E0,1.149751306E0,1.062114143E1,1.663011760E-1
2.728051664E0,1.063011408E0,1.028255749E1,4.223332107E-1
2.730295011E0,8.871390224E-1,1.004387283E1,4.677968323E-1
2.732561063E0,7.680960894E-1,9.887143135E0,4.420739710E-1
2.734814542E0,8.165507317E-1,9.758528709E0,3.122633696E-1
2.737072049E0,1.098305583E0,9.525228500E0,1.160518974E-1
2.739320645E0,1.031306505E0,9.324830055E0,1.956132501E-1
2.741574308E0,7.890332937E-1,9.377471924E0,2.141576260E-1
2.743827421E0,9.888339639E-1,9.706484795E0,9.272187948E-2
2.746081999E0,1.189232826E0,9.939785004E0,-1.974078640E-2
2.748334318E0,1.013958573E0,9.940383911E0,-1.304088384E-1
2.750584257E0,1.032503009E0,9.964311600E0,-8.195417374E-2
2.752826688E0,1.060618639E0,1.001156998E1,-2.931207791E-2
2.755090847E0,9.714859724E-1,9.964311600E0,-2.261217386E-1
2.757347255E0,8.703892231E-1,9.355937004E0,-8.141579032E-1
2.759603908E0,6.544370055E-1,6.803991318E0,-1.864607096E0
2.761853908E0,1.740180254E0,8.097909927E0,-1.383051515E0
2.764104336E0,1.400997639E0,8.557929993E0,-3.146561682E-1
2.766360379E0,1.113858938E0,8.705686569E0,-4.187439568E-3
2.768613614E0,1.223330617E0,9.029315948E0,-1.555334684E-2
2.770868008E0,1.073180914E0,9.020941734E0,-4.564309120E-1
2.773121303E0,8.063812256E-1,8.832506180E0,-1.142572761E0
2.775373134E0,4.456632137E-1,9.672387123E0,-1.359123230E0
2.777626735E0,1.782652885E-1,9.898509026E0,-2.032702923E0
2.779879665E0,5.383851007E-3,9.995418549E0,-2.597409010E0
2.782133389E0,-4.546362907E-2,1.029691410E1,-2.968894720E0
2.784386258E0,-7.776673418E-3,1.046800041E1,-2.867199659E0
2.786639676E0,7.657032460E-2,1.047697353E1,-2.713460922E0
2.788890042E0,-2.871387079E-2,1.020957565E1,-2.476571321E0
2.791134975E0,-3.529413417E-2,1.012343407E1,-2.190030813E0
2.793399013E0,-2.644068897E-1,9.812965393E0,-1.929811478E0
2.795652919E0,-2.225325108E-1,9.555138588E0,-1.744965911E0
2.797908901E0,-1.950150430E-1,9.669396400E0,-1.576870084E0
2.800159512E0,-4.905286431E-1,9.359525681E0,-1.384247899E0
2.802412076E0,-3.726821244E-1,9.196813583E0,-1.241276741E0
2.804665616E0,-2.883351147E-1,8.924032211E0,-9.314061999E-1
2.806919522E0,-3.834498227E-1,8.676374435E0,-9.194421172E-1
2.809173794E0,-5.778666735E-1,8.605786324E0,-1.054636598E0
2.811425931E0,-6.717849374E-1,8.648857117E0,-1.212562919E0
2.813679043E0,-7.226324677E-1,8.788239479E0,-1.536790371E0
2.815932094E0,-8.919246197E-1,8.974879265E0,-1.895115495E0
2.818184962E0,-9.762716293E-1,9.266205788E0,-2.132603168E0
2.820437220E0,-7.322037220E-1,9.658030510E0,-2.440080881E0
2.822691677E0,-8.033902049E-1,1.009172916E1,-2.547757864E0
2.824945766E0,-1.113260746E0,1.048295593E1,-2.436491728E0
2.827200405E0,-1.323230863E0,1.077368355E1,-2.325225353E0
2.829452114E0,-1.351944804E0,1.079761219E1,-2.301297188E0
2.831704433E0,-1.280758262E0,1.078804111E1,-2.296511650E0
2.833954371E0,-1.171884894E0,1.088315582E1,-2.213959217E0
2.836211878E0,-1.257428288E0,1.071625614E1,-2.172084808E0
2.838464625E0,-1.063011408E0,1.060140038E1,-2.129014015E0
2.840719264E0,-1.015753269E0,1.046740246E1,-1.967498422E0
2.842971706E0,-8.368897438E-1,1.034237766E1,-1.704287887E0
2.845226040E0,-8.081758618E-1,1.010429192E1,-1.648056626E0
2.847478359E0,-8.075776696E-1,1.010429192E1,-1.738983870E0
2.849731471E0,-9.026923180E-1,1.020479012E1,-1.796411633E0
2.851983546E0,-8.883354068E-1,1.030469036E1,-1.781456470E0
2.854235316E0,-7.322037220E-1,1.030887794E1,-1.723430514E0
2.856487758E0,-6.801598072E-1,1.040399265E1,-1.626521230E0
2.858731655E0,-6.329016089E-1,1.043270683E1,-1.645663738E0
2.860999049E0,-6.610172391E-1,1.051406288E1,-1.659422517E0
2.863252346E0,-7.034898400E-1,1.059003448E1,-1.725823283E0
2.865507716E0,-4.612165689E-1,1.069950676E1,-1.757528186E0
2.867757534E0,-5.503492355E-1,1.046201897E1,-1.922034740E0
2.870010524E0,-5.928218365E-1,1.035733318E1,-1.985444546E0
2.872264064E0,-6.448656917E-1,1.025204849E1,-1.981257200E0
2.874516932E0,-6.119644046E-1,1.028554821E1,-1.909472466E0
2.876770838E0,-6.323033571E-1,1.028016472E1,-1.737189293E0
2.879024257E0,-5.551348329E-1,1.016590691E1,-1.823929071E0
2.881278529E0,-5.078766346E-1,1.019462109E1,-1.832902193E0
2.883530543E0,-3.128615618E-1,1.031366348E1,-1.807179332E0
2.885783778E0,-5.772684813E-1,1.002353382E1,-2.106880426E0
2.888037012E0,-6.346961856E-1,9.971489906E0,-2.030908108E0
2.890290735E0,-7.298108935E-1,9.814162254E0,-2.080559254E0
2.892543298E0,-6.777670383E-1,9.832706451E0,-1.969891191E0
2.894796899E0,-6.305087805E-1,9.651450157E0,-1.961516380E0
2.897050196E0,-6.783652306E-1,9.527621269E0,-1.904686809E0
2.899304164E0,-7.304090858E-1,9.508479118E0,-1.914856315E0
2.901555995E0,-6.496513486E-1,9.546764374E0,-1.933400750E0
2.903810145E0,-5.964110494E-1,9.480362892E0,-2.086541414E0
2.906063135E0,-5.814558864E-1,9.428318977E0,-2.211566210E0
2.908316920E0,-5.575276613E-1,9.418747902E0,-2.258824587E0
2.910569911E0,-5.383850932E-1,9.452247620E0,-2.210968018E0
2.912823328E0,-4.390829504E-1,9.547362328E0,-2.181057930E0
2.915076746E0,-5.581258535E-1,9.551549911E0,-2.105085611E0
2.917327906E0,-8.506484628E-1,9.777671814E0,-2.568695068E0
2.919570947E0,-1.092323542E0,1.002592659E1,-2.687737942E0
2.921834620E0,-1.050449133E0,1.006361389E1,-2.572882652E0
2.924084741E0,-9.798609018E-1,9.900901794E0,-2.429911375E0
2.926345850E0,-1.066600680E0,9.915258408E0,-2.224726915E0
2.928596400E0,-1.025324464E0,9.924231529E0,-1.975873351E0
2.930850550E0,-9.876375198E-1,9.790233612E0,-1.828116536E0
2.933102869E0,-8.979067206E-1,9.680164337E0,-1.742573142E0
2.935356836E0,-8.416753411E-1,9.555737495E0,-1.537388563E0
2.937608728E0,-8.099704385E-1,9.516854286E0,-1.317248821E0
2.939862635E0,-8.303094506E-1,9.607182503E0,-1.054038405E0
2.942115503E0,-7.016952634E-1,9.354142189E0,-1.021137118E0
2.944369105E0,-5.724828243E-1,9.244669914E0,-1.146162033E0
2.946622339E0,-5.252245665E-1,9.211171150E0,-1.160519004E0
2.948875574E0,-3.385843933E-1,9.001798630E0,-1.347159147E0
2.951129236E0,-4.474578202E-1,8.958727837E0,-1.396211982E0
2.953379846E0,-4.671986103E-1,8.882157326E0,-1.301097274E0
2.955622277E0,-4.486542344E-1,8.920442581E0,-1.204786181E0
2.957888207E0,-4.067798555E-1,8.910273552E0,-9.894321561E-1
2.960141992E0,-4.402793646E-1,8.772088051E0,-9.475577474E-1
2.962399804E0,-6.017948985E-1,8.581260681E0,-9.302098155E-1
2.964648645E0,-7.585247755E-1,8.328817368E0,-9.182456732E-1
2.966901941E0,-9.912267923E-1,8.191229820E0,-1.054038405E0
2.969155053E0,-1.045065284E0,8.264211655E0,-1.541576028E0
2.971409386E0,-1.186241865E0,8.589634895E0,-1.936989903E0
2.973661156E0,-1.264008522E0,9.077172279E0,-2.484348059E0
2.975914818E0,-1.271187067E0,9.516854286E0,-2.974278450E0
2.978167748E0,-1.246660590E0,9.850652695E0,-3.129812002E0
2.980421594E0,-1.384247899E0,1.012762165E1,-3.248256683E0
2.982674890E0,-1.792224169E0,1.066540909E1,-2.624328136E0
2.984928064E0,-1.755733609E0,1.098485088E1,-5.988038778E-1
2.987181482E0,-1.431506157E0,1.035135078E1,1.004985452E0
2.989436608E0,-9.212366939E-1,9.842875481E0,-9.571290761E-2
2.991693139E0,-6.490531564E-1,9.454640388E0,-1.173679471E0
2.993945885E0,-3.589234054E-1,9.237491608E0,-2.219343036E-1
2.996194115E0,-1.579262912E-1,9.046664238E0,-5.138586760E-1
2.998446496E0,1.316052489E-2,8.932407379E0,-4.660021961E-1
3.000699487E0,5.443671346E-2,8.924032211E0,-9.972088337E-1
3.002953821E0,-2.392822644E-3,8.957531929E0,-1.068993568E0
3.005207361E0,-1.555334777E-1,9.000003815E0,-9.206385016E-1
3.007461755E0,-4.366901219E-1,8.838488579E0,-7.938188910E-1
3.009713951E0,-7.507480979E-1,8.614161491E0,-6.388836503E-1
3.011967185E0,-9.379864931E-1,8.428119659E0,-3.589234054E-1
3.014220237E0,-1.096511006E0,8.241478920E0,2.213360928E-2
3.016473472E0,-1.135992527E0,8.112266541E0,2.458625287E-1
3.018726037E0,-1.036690354E0,8.078168869E0,4.037888348E-1
3.020979821E0,-9.284151793E-1,8.054241180E0,5.569294691E-1
3.023234032E0,-7.908278704E-1,8.101499557E0,6.011967063E-1
3.025488305E0,-6.430711150E-1,8.182256699E0,5.306084156E-1
3.027740197E0,-4.905286431E-1,8.220541954E0,4.115654826E-1
3.029993431E0,-1.477568001E-1,8.282156944E0,3.702892959E-1
3.032245384E0,2.338984162E-1,8.482556343E0,1.441675574E-1
3.034496238E0,7.196413875E-1,8.877969742E0,-9.032905847E-2
3.036753379E0,1.152144074E0,9.301499367E0,-1.531406492E-1
3.039006188E0,1.294517040E0,9.534799576E0,-1.363908947E-1
3.041261009E0,1.298704505E0,9.682557106E0,-4.426721856E-2
3.043513878E0,1.265205026E0,9.811170578E0,8.973085321E-3
3.045766259E0,1.107876897E0,9.930213928E0,3.768695518E-2
3.048019616E0,9.493523836E-1,1.008694363E1,3.535395563E-1
3.050272789E0,7.238288522E-1,1.007258701E1,7.112665176E-1
3.052523460E0,5.605186820E-1,1.000498962E1,9.876375198E-1
3.054768272E0,5.186443329E-1,9.924830437E0,8.386843204E-1
3.057032188E0,2.829512656E-1,9.768099785E0,5.258227587E-1
3.059285973E0,7.537391037E-2,9.674181938E0,2.321037948E-1
3.061543175E0,-2.033899277E-1,9.589237213E0,-6.101697683E-2
3.063792931E0,-3.702892959E-1,9.565308571E0,9.571290575E-3
3.066046044E0,-6.508477330E-1,9.561120987E0,9.451649338E-2
3.068298851E0,-9.565308690E-1,9.546764374E0,3.613162339E-1
3.070552269E0,-1.205982566E0,9.570094109E0,7.190431952E-1
3.072805563E0,-1.430309772E0,9.584450722E0,8.470591903E-1
3.075058432E0,-1.626521230E0,9.655637741E0,1.114457130E0
3.077312644E0,-1.887937069E0,9.488738060E0,1.064806104E0
3.079566673E0,-2.105684042E0,9.199206352E0,9.134600163E-1
3.081817832E0,-2.267797709E0,8.922237396E0,1.092921734E0
3.084068199E0,-2.377867460E0,8.726624489E0,1.282552958E0
3.086325217E0,-2.464607239E0,8.616554260E0,1.506281853E0
3.088578574E0,-2.532204628E0,8.568697929E0,1.625324726E0
3.090832175E0,-2.598605394E0,8.573483467E0,1.610369682E0
3.093084555E0,-2.626122952E0,8.641080856E0,1.424327731E0
3.095338950E0,-2.600998163E0,8.807980537E0,1.210170031E0
3.097592979E0,-2.519043922E0,9.008976936E0,9.248259664E-1
3.099845054E0,-2.394019127E0,9.262018204E0,6.448656917E-1
3.102097679E0,-2.221735716E0,9.543174744E0,4.372883439E-1
3.104351584E0,-2.088335991E0,9.801001549E0,3.050848842E-1
3.106602500E0,-1.940579176E0,1.000139999E1,1.926222295E-1
3.108845176E0,-1.816152334E0,1.019641590E1,8.913264424E-2
3.111111350E0,-1.720439434E0,1.034477043E1,-6.281159073E-2
3.113364585E0,-1.629512191E0,1.044467068E1,-1.573280841E-1
3.115622031E0,-1.534397483E0,1.050688457E1,-2.422732860E-1
3.117870261E0,-1.419542074E0,1.054995537E1,-2.943171859E-1
3.120123863E0,-1.290927768E0,1.062114143E1,-3.696911037E-1
3.122377463E0,-1.176072359E0,1.064028454E1,-5.030909777E-1
3.124631065E0,-1.018146038E0,1.066959572E1,-7.082754970E-1
3.126884239E0,-9.170492887E-1,1.064088249E1,-9.421738982E-1
3.129137473E0,-7.543373108E-1,1.063669491E1,-1.195214868E0
3.131390952E0,-6.293123364E-1,1.064207840E1,-1.414158225E0
3.133645163E0,-5.330012441E-1,1.063250732E1,-1.600798368E0
3.135897359E0,-4.229314029E-1,1.059003448E1,-1.748555183E0
3.138149985E0,-2.889333367E-1,1.061396313E1,-1.886740685E0
3.140403585E0,-1.980060786E-1,1.060439205E1,-1.972284079E0
3.142657004E0,-8.793623000E-2,1.059003448E1,-2.100898266E0
3.144910666E0,-3.050848842E-2,1.057149029E1,-2.206182480E0
3.147163901E0,-1.076770201E-2,1.054277611E1,-2.316252232E0
3.149417380E0,-1.974078640E-2,1.051466084E1,-2.402992249E0
3.151668112E0,-6.221338734E-2,1.049073315E1,-2.450848579E0
3.153910055E0,-1.052841991E-1,1.045304585E1,-2.446661234E0
3.156176290E0,-1.621137410E-1,1.044347477E1,-2.432304144E0
3.158429708E0,-2.189432681E-1,1.040997505E1,-2.480758905E0
3.160686727E0,-2.285145670E-1,1.044347477E1,-2.519043922E0
3.162936667E0,-2.231307179E-1,1.048654556E1,-2.609373093E0
3.165189780E0,-2.608176768E-1,1.050150013E1,-2.685943365E0
3.167443442E0,-3.415754437E-1,1.054935646E1,-2.724228621E0
3.169697591E0,-4.558327198E-1,1.057807064E1,-2.676970243E0
3.171949666E0,-5.988038778E-1,1.060199928E1,-2.629113913E0
3.174202474E0,-7.704889178E-1,1.060199928E1,-2.548954248E0
3.176456259E0,-9.230313301E-1,1.059721375E1,-2.496910334E0
3.178710288E0,-1.075573802E0,1.061157036E1,-2.416152716E0
3.180963095E0,-1.208973646E0,1.064507008E1,-2.301895380E0
3.183216086E0,-1.356730461E0,1.063549805E1,-2.254637241E0
3.185469381E0,-1.485942841E0,1.061157036E1,-2.159522533E0
3.187723531E0,-1.604985833E0,1.058285618E1,-2.078764677E0
3.189972128E0,-1.743171334E0,1.053499985E1,-2.017747641E0
3.192216146E0,-1.809572101E0,1.052602673E1,-2.032104731E0
3.194482259E0,-1.939382792E0,1.051107121E1,-1.750947952E0
3.196735983E0,-2.073979139E0,1.044407272E1,-1.527219057E0
3.198991964E0,-2.245664120E0,1.037228775E1,-1.394417405E0
3.201241720E0,-2.402992249E0,1.026760197E1,-1.261615753E0
3.203495687E0,-2.594418049E0,1.020060253E1,-1.066600680E0
3.205750142E0,-2.694916487E0,1.012403297E1,-9.625129104E-1
3.208002401E0,-2.766103029E0,1.004327488E1,-9.487541914E-1
3.210255452E0,-2.866601467E0,9.981060982E0,-8.733802438E-1
3.212508320E0,-2.967100143E0,9.933204651E0,-7.447660565E-1
3.214761982E0,-3.071786165E0,9.823733330E0,-6.646065116E-1
3.217013692E0,-3.151945591E0,9.757332802E0,-7.615157962E-1
3.219262411E0,-3.223730326E0,9.695118904E0,-6.855437160E-1
3.221521566E0,-3.295515060E0,9.628120422E0,-5.569294691E-1
3.223776204E0,-3.415156126E0,9.499505997E0,-4.534398913E-1
3.226029866E0,-3.452244759E0,9.366703987E0,-5.641079545E-1
3.228281698E0,-3.470789194E0,9.271589279E0,-6.173482537E-1
3.230534688E0,-3.461217880E0,9.185447693E0,-6.323033571E-1
3.232788166E0,-3.437289715E0,9.080761909E0,-6.329016089E-1
3.235041401E0,-3.482155085E0,8.979664803E0,-3.373879790E-1
3.237293965E0,-3.559323788E0,8.874381065E0,-9.930214286E-2
3.239548177E0,-3.650250912E0,8.764909744E0,-1.435693540E-2
3.241801351E0,-3.673580885E0,8.707481384E0,1.435693540E-2
3.244051046E0,-3.664009571E0,8.650651932E0,1.375873014E-2
3.246307943E0,-3.617349625E0,8.626125336E0,1.046859920E-1
3.248561116E0,-3.560520172E0,8.568697929E0,1.190429255E-1
3.250816426E0,-3.488735437E0,8.531010628E0,9.990034252E-2
3.253064351E0,-3.465405464E0,8.478368759E0,1.902294010E-1
3.255307515E0,-3.418147087E0,8.444271088E0,2.715853751E-1
3.257573507E0,-3.357130051E0,8.391629219E0,3.385843933E-1
3.259828451E0,-3.214159012E0,8.391629219E0,3.583251834E-1
3.262084187E0,-3.104687452E0,8.348558426E0,3.200400174E-1
3.264334187E0,-3.023331404E0,8.315058708E0,2.392822653E-1
3.266586933E0,-2.900100946E0,8.295916557E0,2.488535494E-1
3.268840350E0,-2.766701221E0,8.295916557E0,2.303091735E-1
3.271091693E0,-2.624328136E0,8.281558990E0,2.356930375E-1
3.273335407E0,-2.519043922E0,8.243273735E0,1.734796464E-1
3.275587544E0,-2.376072884E0,8.219346046E0,9.272187948E-2
3.277854817E0,-2.233101845E0,8.200202942E0,1.674975827E-2
3.280105793E0,-2.137388945E0,8.209774017E0,-7.836493850E-2
3.282349140E0,-2.041675806E0,8.190631866E0,-1.447657645E-1
3.284608661E0,-1.946561217E0,8.176275253E0,-2.213360965E-1
3.286866780E0,-1.846062660E0,8.191229820E0,-3.116651475E-1
3.289120259E0,-1.759921074E0,8.176873207E0,-4.115654826E-1
3.291361408E0,-1.674377680E0,8.162516594E0,-4.498506486E-1
3.293626362E0,-1.626521230E0,8.157731056E0,-4.833501875E-1
3.295881122E0,-1.583450437E0,8.129016876E0,-5.216353536E-1
3.298136371E0,-1.526620865E0,8.114660263E0,-5.162515044E-1
3.300386677E0,-1.492523074E0,8.085946083E0,-5.545366406E-1
3.302639362E0,-1.482951880E0,8.053044319E0,-5.838487148E-1
3.304892903E0,-1.482951880E0,8.005187988E0,-5.647061467E-1
3.307146259E0,-1.478764415E0,8.009973526E0,-5.216353536E-1
3.309399432E0,-1.473978758E0,7.966903210E0,-4.839483798E-1
3.311652973E0,-1.493121386E0,7.952546120E0,-4.456632137E-1
3.313907245E0,-1.498505235E0,7.952546120E0,-3.882354796E-1
3.316159016E0,-1.484148264E0,7.966304779E0,-3.595215976E-1
3.318411580E0,-1.456630826E0,8.009375572E0,-2.584248483E-1
3.320662129E0,-1.456630826E0,8.047062874E0,-2.249253243E-1
3.322907612E0,-1.433300734E0,8.094919205E0,-1.573280841E-1
3.325172871E0,-1.371685624E0,8.170292854E0,-6.580262631E-2
3.327425739E0,-1.377069473E0,8.189435959E0,-2.751746029E-2
3.329682208E0,-1.334596872E0,8.232506752E0,4.007977992E-2
3.331933367E0,-1.301695466E0,8.255836487E0,1.166501045E-1
3.334185625E0,-1.306481123E0,8.260622025E0,1.501496136E-1
3.336438677E0,-1.307079315E0,8.241478920E0,2.075773627E-1
3.338691424E0,-1.302293777E0,8.255238533E0,2.697907388E-1
3.340945392E0,-1.283749342E0,8.236095428E0,3.032902777E-1
3.343198749E0,-1.265205026E0,8.240880966E0,3.702892959E-1
3.345451801E0,-1.231705427E0,8.236095428E0,4.133601189E-1
3.347705402E0,-1.217946768E0,8.226524353E0,4.277170599E-1
3.349959490E0,-1.198804140E0,8.145168304E0,4.701896608E-1
3.352209063E0,-1.194616675E0,8.087740898E0,5.084748268E-1
3.354454058E0,-1.217946768E0,8.011768341E0,5.318048596E-1
3.356717547E0,-1.246660590E0,7.944769382E0,5.551348329E-1
3.358971515E0,-1.275374413E0,7.864011765E0,5.593222976E-1
3.361227557E0,-1.298704505E0,7.768897057E0,5.485545993E-1
3.363477985E0,-1.298704505E0,7.701898098E0,5.054838061E-1
3.365731769E0,-1.302891970E0,7.621140003E0,4.570291340E-1
3.367985613E0,-1.302891970E0,7.530810833E0,4.085744619E-1
3.370237932E0,-1.292722464E0,7.463811874E0,3.457628787E-1
3.372491228E0,-1.273579836E0,7.392625332E0,2.835494876E-1
3.374744219E0,-1.254437327E0,7.326224804E0,2.446661144E-1
3.376997760E0,-1.244267821E0,7.259225845E0,2.015953064E-1
3.379250507E0,-1.211366415E0,7.211369038E0,1.914258152E-1
3.381504230E0,-1.177866936E0,7.159325123E0,1.818545163E-1
3.383757831E0,-1.144367456E0,7.154539585E0,1.674975902E-1
3.386011858E0,-1.106082320E0,7.135396957E0,1.292124242E-1
3.388260943E0,-1.082154036E0,7.125825882E0,7.178468257E-2
3.390502093E0,-1.062413216E0,7.121638298E0,-1.854437590E-2
3.392758379E0,-1.080957651E0,7.112067223E0,-1.429711580E-1
3.395025042E0,-1.070788145E0,7.103094101E0,-2.626122832E-1
3.397280473E0,-1.060618639E0,7.098308563E0,-3.487538993E-1
3.399533525E0,-1.065404296E0,7.112665176E0,-3.966103494E-1
3.401782366E0,-1.117448211E0,7.107879639E0,-3.918247223E-1
3.404034379E0,-1.136590719E0,7.112665176E0,-4.013960063E-1
3.406289994E0,-1.155135155E0,7.117451191E0,-4.115654826E-1
3.408543412E0,-1.174277663E0,7.155735970E0,-4.013960063E-1
3.410797624E0,-1.184447169E0,7.179664135E0,-3.678964674E-1
3.413050432E0,-1.217348576E0,7.217949390E0,-3.631108403E-1
3.415303423E0,-1.246062398E0,7.232306480E0,-3.726821244E-1
3.417555253E0,-1.265205026E0,7.270591736E0,-4.013960063E-1
3.419807267E0,-1.278963685E0,7.304090977E0,-4.438686073E-1
3.422063737E0,-1.278963685E0,7.289734364E0,-4.492524564E-1
3.424316606E0,-1.326221943E0,7.299305439E0,-4.779663086E-1
3.426570329E0,-1.335793257E0,7.318448067E0,-4.731806815E-1
3.428822952E0,-1.359721422E0,7.289734364E0,-4.779663086E-1
3.431076492E0,-1.374078393E0,7.270591736E0,-4.875376225E-1
3.433329666E0,-1.416550994E0,7.275377274E0,-4.929214716E-1
3.435582658E0,-1.444666624E0,7.247261524E0,-5.216353536E-1
3.437835771E0,-1.472782373E0,7.232904434E0,-5.982056856E-1
3.440088272E0,-1.496112347E0,7.219145775E0,-7.328019142E-1
3.442333328E0,-1.528415442E0,7.204789162E0,-8.380861282E-1
3.444596146E0,-1.546959877E0,7.195816040E0,-9.529415965E-1
3.446848831E0,-1.541576028E0,7.186842918E0,-1.067797065E0
3.449104690E0,-1.532004714E0,7.191628456E0,-1.134796143E0
3.451355605E0,-1.498505235E0,7.220342159E0,-1.182054400E0
3.453605301E0,-1.455434322E0,7.248457909E0,-1.186840057E0
3.455849869E0,-1.412961721E0,7.296314240E0,-1.157527924E0
3.458116287E0,-1.356730461E0,7.362715244E0,-1.061216831E0
3.460369095E0,-1.328016520E0,7.409973621E0,-1.017547846E0
3.462625319E0,-1.286142230E0,7.476374149E0,-9.068797827E-1
3.464875686E0,-1.277169108E0,7.543373585E0,-8.488538265E-1
3.467129896E0,-1.258026481E0,7.581060410E0,-7.722834945E-1
3.469381910E0,-1.254437327E0,7.647460938E0,-6.759724021E-1
3.471635145E0,-1.254437327E0,7.695317745E0,-6.329016089E-1
3.473887954E0,-1.259222865E0,7.728219032E0,-6.131607890E-1
3.476142898E0,-1.254437327E0,7.761718273E0,-6.035895348E-1
3.478395034E0,-1.259222865E0,7.800003529E0,-6.610172391E-1
3.480648391E0,-1.258624673E0,7.833503246E0,-7.178468108E-1
3.482901320E0,-1.277767301E0,7.833503246E0,-7.274180651E-1
3.485151380E0,-1.291526079E0,7.847859859E0,-7.992027402E-1
3.487392042E0,-1.315454245E0,7.843074322E0,-7.848458290E-1
3.489648084E0,-1.372882009E0,7.834101200E0,-7.663014531E-1
3.491914320E0,-1.405783296E0,7.847859859E0,-7.519445419E-1
3.494171765E0,-1.458425403E0,7.886145115E0,-7.471588850E-1
3.496424634E0,-1.511067510E0,7.895716667E0,-7.232306600E-1
3.498674085E0,-1.596610904E0,7.924430370E0,-6.664010882E-1
3.500926893E0,-1.658824325E0,7.953144073E0,-6.520441771E-1
3.503180922E0,-1.749153376E0,7.962715626E0,-6.472585201E-1
3.505434461E0,-1.825125456E0,8.005785942E0,-6.759724021E-1
3.507687695E0,-1.948355794E0,8.039883614E0,-7.627122402E-1
3.509940991E0,-2.066202402E0,8.102097511E0,-8.823533654E-1
3.512195080E0,-2.207977057E0,8.117053032E0,-1.021735311E0
3.514447339E0,-2.321636200E0,8.179265976E0,-1.198804140E0
3.516699780E0,-2.444268227E0,8.218149185E0,-1.385444283E0
3.518949658E0,-2.514258385E0,8.299505234E0,-1.542772412E0
3.521206800E0,-2.584846735E0,8.371888161E0,-1.676770449E0
3.523460217E0,-2.636890650E0,8.381459236E0,-1.734198213E0
3.525714672E0,-2.689532757E0,8.400602341E0,-1.753340840E0
3.527967480E0,-2.756531715E0,8.424530029E0,-1.638485312E0
3.530221568E0,-2.857628345E0,8.452047348E0,-1.366301775E0
3.532473705E0,-3.006581545E0,8.447261810E0,-1.080359459E0
3.534723766E0,-3.145365477E0,8.432905197E0,-9.373882413E-1
3.536967846E0,-3.254837036E0,8.432905197E0,-9.619147182E-1
3.539234692E0,-3.354139090E0,8.400003433E0,-1.067797065E0
3.541486889E0,-3.409772158E0,8.362317085E0,-1.244866014E0
3.543743175E0,-3.470789194E0,8.334200859E0,-1.422533035E0
3.545993419E0,-3.536591768E0,8.282156944E0,-1.590628862E0
3.548247630E0,-3.564109325E0,8.215756416E0,-1.729412556E0
3.550500010E0,-3.568296671E0,8.187641144E0,-1.864008784E0
3.552750681E0,-3.558127165E0,8.168498039E0,-1.974078655E0
3.554996958E0,-3.510270834E0,8.135597229E0,-2.050648928E0
3.557259044E0,-3.476771355E0,8.121239662E0,-2.079362869E0
3.559513011E0,-3.443271875E0,8.102097511E0,-2.093121529E0
3.561767527E0,-3.400201082E0,8.106883049E0,-2.088335991E0
3.564016307E0,-3.367299557E0,8.111668587E0,-2.035693884E0
3.566273691E0,-3.325425386E0,8.096714020E0,-1.887338877E0
3.568525949E0,-3.264408350E0,8.096115112E0,-1.758126378E0
3.570780100E0,-3.230908871E0,8.110472679E0,-1.805384636E0
3.573031809E0,-3.195614576E0,8.145168304E0,-2.163709879E0
3.575285959E0,-3.183052301E0,8.165507317E0,-2.766103029E0
3.577539072E0,-3.146561861E0,8.200202942E0,-3.354139090E0
3.579792429E0,-3.072384357E0,8.205587387E0,-3.822534084E0
3.582045969E0,-3.038286448E0,8.172685623E0,-4.018745422E0
3.584300119E0,-3.071786165E0,8.125427246E0,-3.957130432E0
3.586552316E0,-3.178266764E0,8.081758499E0,-3.622733593E0
3.588805795E0,-3.337389469E0,8.027919769E0,-3.117249727E0
3.591059701E0,-3.464209080E0,8.026723862E0,-2.538784742E0
3.593311532E0,-3.543770313E0,8.035098076E0,-1.965105653E0
3.595565256E0,-3.589233875E0,8.105687141E0,-1.448255897E0
3.597818367E0,-3.511467218E0,8.247461319E0,-9.020941257E-1
3.600069954E0,-3.419941664E0,8.383852005E0,-3.361915946E-1
3.602314950E0,-3.313461065E0,8.578269005E0,1.674975902E-1
3.604573312E0,-3.168695450E0,8.767302513E0,7.052844763E-1
3.606831795E0,-3.034099102E0,8.941978455E0,1.189831018E0
3.609087532E0,-2.889333248E0,9.136395454E0,1.708475351E0
3.611337593E0,-2.769093990E0,9.315856934E0,2.226521492E0
3.613579109E0,-2.619542599E0,9.519845009E0,2.687737942E0
3.615841439E0,-2.459821701E0,9.751948357E0,3.072384357E0
3.618084602E0,-2.285743713E0,9.951150894E0,3.337987661E0
3.620354926E0,-2.072782516E0,1.021256733E1,3.488735437E0
3.622604561E0,-1.840080619E0,1.052722359E1,3.506083488E0
3.624861274E0,-1.554736495E0,1.089870930E1,3.480958700E0
3.627110968E0,-1.246062398E0,1.128395367E1,3.441477060E0
3.629364325E0,-9.038887620E-1,1.167936707E1,3.412165165E0
3.631617682E0,-5.425725579E-1,1.205085278E1,3.358924866E0
3.633870918E0,-1.519442350E-1,1.245105267E1,3.205185890E0
3.636124519E0,2.482553422E-1,1.283689499E1,3.013161898E0
3.638378181E0,6.580262184E-1,1.321376514E1,2.773879766E0
3.640627388E0,1.030110121E0,1.358525085E1,2.510071039E0
3.642870855E0,1.416550994E0,1.395733452E1,2.212762833E0
3.645137090E0,1.765304923E0,1.434377575E1,1.925025821E0
3.647390691E0,2.146960020E0,1.475354576E1,1.627717614E0
3.649647161E0,2.557329178E0,1.515913010E1,1.335793257E0
3.651897101E0,2.938386202E0,1.557847214E1,1.057627559E0
3.654149848E0,3.315854073E0,1.599841213E1,7.465606928E-1
3.656404242E0,3.626322746E0,1.640339661E1,4.253242314E-1
3.658656501E0,3.936791420E0,1.680419540E1,5.623133108E-2
3.660910407E0,4.185645103E0,1.715773392E1,-2.991028428E-1
3.663163397E0,4.392025948E0,1.744906044E1,-6.550351977E-1
3.665416630E0,4.550550461E0,1.774995804E1,-9.535398483E-1
3.667669987E0,4.637290478E0,1.795035744E1,-1.200598717E0
3.669923405E0,4.661816597E0,1.810828400E1,-1.390828133E0
3.672175725E0,4.663012981E0,1.818964005E1,-1.543370605E0
3.674425420E0,4.601995945E0,1.816630936E1,-1.682752490E0
3.676683416E0,4.469194412E0,1.805683708E1,-1.760519266E0
3.678936529E0,4.189234257E0,1.778106499E1,-1.859223247E0
3.681191106E0,3.796213150E0,1.736770439E1,-2.102692842E0
3.683443852E0,3.332603693E0,1.692084503E1,-2.442473650E0
3.685696354E0,2.834896564E0,1.643151283E1,-2.681756020E0
3.687946415E0,2.346162558E0,1.597448444E1,-2.734996319E0
3.690189458E0,1.855633974E0,1.558864117E1,-2.624328136E0
3.692456853E0,1.408176184E0,1.526979733E1,-2.413161755E0
3.694709477E0,9.786644578E-1,1.491207027E1,-2.135594130E0
3.696965885E0,6.113662124E-1,1.459262848E1,-1.818545222E0
3.699215030E0,2.817548811E-1,1.423490238E1,-1.468594909E0
3.701468510E0,-6.281159073E-2,1.388614845E1,-1.118046403E0
3.703722416E0,-3.541377485E-1,1.354756355E1,-7.914260626E-1
3.705975773E0,-6.550351977E-1,1.321376514E1,-5.222335458E-1
3.708229496E0,-8.985049129E-1,1.289910889E1,-2.626122832E-1
3.710483462E0,-1.070788145E0,1.264606762E1,-2.093719877E-2
3.712735660E0,-1.238285661E0,1.242652607E1,1.728814393E-1
3.714985538E0,-1.333998680E0,1.229252815E1,3.391826153E-1
3.717228762E0,-1.386640668E0,1.221177006E1,4.151547253E-1
3.719495303E0,-1.396211982E0,1.219741344E1,4.384847581E-1
3.721747439E0,-1.377069473E0,1.224048424E1,4.007977843E-1
3.724001589E0,-1.329213023E0,1.238824081E1,2.632105052E-1
3.726255496E0,-1.275972724E0,1.264128208E1,1.405783296E-1
3.728509891E0,-1.232901812E0,1.291765308E1,-3.888336942E-2
3.730762637E0,-1.174277663E0,1.320897961E1,-2.805584669E-1
3.733014956E0,-1.125823021E0,1.352901936E1,-5.509474277E-1
3.735267885E0,-1.124028444E0,1.386820221E1,-8.739784956E-1
3.737518069E0,-1.146162033E0,1.419302750E1,-1.235294700E0
3.739763003E0,-1.196411371E0,1.444666672E1,-1.593021631E0
3.742028140E0,-1.232901812E0,1.469552040E1,-1.940579176E0
3.744281924E0,-1.269392371E0,1.488694572E1,-2.260020971E0
3.746538698E0,-1.310668588E0,1.499761391E1,-2.493919373E0
3.748788148E0,-1.324427366E0,1.512622833E1,-2.607578516E0
3.751041261E0,-1.305284739E0,1.518365574E1,-2.688336134E0
3.753291323E0,-1.305284739E0,1.517887020E1,-2.683550596E0
3.755536012E0,-1.271785259E0,1.514058495E1,-2.665006161E0
3.757800600E0,-1.224527001E0,1.505444336E1,-2.612364054E0
3.760054506E0,-1.177268744E0,1.488754463E1,-2.532204628E0
3.762308900E0,-1.125224829E0,1.473978710E1,-2.465803623E0
3.764554383E0,-1.068395257E0,1.453938866E1,-2.438286304E0
3.766814209E0,-1.006181955E0,1.429113293E1,-2.439482689E0
3.769067444E0,-9.158528447E-1,1.404347610E1,-2.450250387E0
3.771322388E0,-8.063812256E-1,1.378086376E1,-2.475374937E0
3.773573488E0,-6.915257573E-1,1.350449276E1,-2.548954248E0
3.775827150E0,-5.958128572E-1,1.322333622E1,-2.617149830E0
3.778080323E0,-4.905286431E-1,1.291825104E1,-2.685345173E0
3.780334168E0,-3.996013701E-1,1.261795235E1,-2.744567633E0
3.782588195E0,-2.997010350E-1,1.229851055E1,-2.779861689E0
3.784840392E0,-2.279163599E-1,1.200299644E1,-2.843271494E0
3.787093505E0,-1.513460279E-1,1.168355465E1,-2.859423161E0
3.789343139E0,-3.230310604E-2,1.141675472E1,-2.865405083E0
3.791586792E0,8.195417374E-2,1.112542915E1,-2.833700180E0
3.793852845E0,1.627119333E-1,1.083470058E1,-2.825325251E0
3.796103516E0,2.386840582E-1,1.056251717E1,-2.788834810E0
3.798350403E0,2.961117923E-1,1.028614616E1,-2.761317253E0
3.800613158E0,3.337987661E-1,1.002891827E1,-2.729612350E0
3.802863341E0,3.427718580E-1,9.799804688E0,-2.606980324E0
3.805123167E0,3.092723191E-1,9.580264091E0,-2.488535643E0
3.807372923E0,2.614158690E-1,9.389435768E0,-2.404188633E0
3.809627135E0,1.944168359E-1,9.217751503E0,-2.324028969E0
3.811879882E0,1.088734269E-1,9.050851822E0,-2.268395901E0
3.814132873E0,2.751746029E-2,8.903095245E0,-2.197807550E0
3.816383300E0,-1.058823988E-1,8.750552177E0,-2.175673962E0
3.818627257E0,-2.195414752E-1,8.617152214E0,-2.148156643E0
3.820892150E0,-3.248256743E-1,8.517251968E0,-2.087139606E0
3.823146055E0,-4.390829504E-1,8.393424034E0,-2.050050735E0
3.825402768E0,-5.389832854E-1,8.264211655E0,-1.955534339E0
3.827653990E0,-6.675975323E-1,8.140382767E0,-1.890329838E0
3.829905820E0,-7.818548083E-1,8.021339417E0,-1.829312921E0
3.832159178E0,-9.206385016E-1,7.920841217E0,-1.648654819E0
3.834408995E0,-1.025922656E0,7.782655716E0,-1.549352646E0
3.836653380E0,-1.130608678E0,7.606184959E0,-1.517647743E0
3.838918944E0,-1.216152072E0,7.449455261E0,-1.499701619E0
3.841172117E0,-1.320838094E0,7.277770042E0,-1.491924882E0
3.843428403E0,-1.449452281E0,7.091728210E0,-1.455434322E0
3.845678768E0,-1.563111424E0,6.891927242E0,-1.466800332E0
3.847932186E0,-1.671984792E0,6.677769661E0,-1.502094388E0
3.850185361E0,-1.762313843E0,6.444469452E0,-1.546959877E0
3.852437009E0,-1.870589137E0,6.192026615E0,-1.630708575E0
3.854685727E0,-1.974676847E0,5.953940868E0,-1.685145378E0
3.856944760E0,-2.021935225E0,5.711069584E0,-1.753939033E0
3.859198117E0,-2.078764677E0,5.463412285E0,-1.808375716E0
3.861453489E0,-2.120639086E0,5.244469166E0,-1.848455548E0
3.863701963E0,-2.167897224E0,5.011168957E0,-1.868794441E0
3.865945493E0,-2.134397745E0,4.762913704E0,-1.875374794E0
3.868211665E0,-2.143969059E0,4.567898273E0,-1.895713687E0
3.870465145E0,-2.133799553E0,4.353142738E0,-1.935195327E0
3.872722530E0,-2.095514536E0,4.191627026E0,-2.003390789E0
3.874971432E0,-2.057229280E0,4.024727821E0,-2.070987940E0
3.877224667E0,-1.961516380E0,3.876971006E0,-2.157727718E0
3.879477779E0,-1.894517303E0,3.743571043E0,-2.244467735E0
3.881730343E0,-1.765304923E0,3.643670797E0,-2.325823545E0
3.883981013E0,-1.688734531E0,3.552743435E0,-2.397608280E0
3.886237849E0,-1.616949916E0,3.457628727E0,-2.479562521E0
3.888489619E0,-1.549950838E0,3.372085333E0,-2.551347256E0
3.890738520E0,-1.468594909E0,3.290729284E0,-2.614158630E0
3.892996883E0,-1.397408366E0,3.214757204E0,-2.657229662E0
3.895250972E0,-1.316052437E0,3.147758245E0,-2.676372051E0
3.897506099E0,-1.259222865E0,3.081357241E0,-2.681157827E0
3.899758661E0,-1.177866936E0,3.004786968E0,-2.696112871E0
3.902010248E0,-1.111466169E0,2.924029350E0,-2.748754978E0
3.904263971E0,-1.044467092E0,2.866601467E0,-2.767897606E0
3.906517329E0,-9.726824164E-1,2.823530674E0,-2.825325251E0
3.908771602E0,-8.727820516E-1,2.780459881E0,-2.887538671E0
3.911023677E0,-7.579265833E-1,2.771486759E0,-2.953939438E0
3.913276850E0,-6.251249313E-1,2.766103029E0,-2.986840963E0
3.915529840E0,-4.773681164E-1,2.775674343E0,-3.010170937E0
3.917782647E0,-3.541377485E-1,2.775674343E0,-2.971287489E0
3.920033929E0,-2.596212626E-1,2.813361168E0,-2.894119024E0
3.922278742E0,-1.268195957E-1,2.846262455E0,-2.778665304E0
3.924538568E0,-4.247260094E-2,2.897708178E0,-2.591426849E0
3.926797724E0,5.623133108E-2,2.964108944E0,-2.408974171E0
3.929052301E0,1.076770201E-1,3.068794966E0,-2.225923300E0
3.931304315E0,1.872383654E-1,3.144168854E0,-1.990828395E0
3.933556207E0,2.524427772E-1,3.233899832E0,-1.755733609E0
3.935809808E0,3.122633696E-1,3.357130051E0,-1.472184181E0
3.938062860E0,3.678964674E-1,3.494717360E0,-1.198804140E0
3.940316399E0,4.139583111E-1,3.603590965E0,-9.206385016E-1
3.942569634E0,4.743770957E-1,3.760320902E0,-6.610172391E-1
3.944824089E0,4.923232496E-1,3.902693748E0,-4.779663086E-1
3.947076164E0,5.294120312E-1,4.040879250E0,-3.864408433E-1
3.949329461E0,5.718846321E-1,4.188037872E0,-3.517449200E-1
3.951580315E0,6.053841114E-1,4.307679176E0,-4.271188378E-1
3.953827081E0,6.388836503E-1,4.460221291E0,-4.498506486E-1
3.956088922E0,6.394818425E-1,4.612763882E0,-5.252245665E-1
3.958342522E0,6.161518097E-1,4.775475979E0,-6.681957245E-1
3.960596916E0,6.173482537E-1,4.956732273E0,-8.817551732E-1
3.962845023E0,6.131607890E-1,5.157729149E0,-1.052842021E0
3.965102042E0,6.185446382E-1,5.358128071E0,-1.204786181E0
3.967355521E0,6.095715761E-1,5.529813290E0,-1.256231904E0
3.969610221E0,5.611169338E-1,5.730212212E0,-1.197607756E0
3.971864616E0,5.084748268E-1,5.934798241E0,-1.115055323E0
3.974120415E0,4.510470629E-1,6.116054535E0,-1.013958573E0
3.976368583E0,3.738785386E-1,6.344569206E0,-8.787640929E-1
3.978621634E0,2.883351147E-1,6.501897335E0,-8.685946465E-1
3.980875235E0,1.734796464E-1,6.707081795E0,-8.291130662E-1
3.983128469E0,4.486542568E-2,6.878767014E0,-8.093722463E-1
3.985381949E0,-8.853443712E-2,7.088139057E0,-7.465606928E-1
3.987634573E0,-1.890329868E-1,7.283751965E0,-6.598208547E-1
3.989887687E0,-3.182454109E-1,7.474579811E0,-5.778666735E-1
3.992140006E0,-4.372883439E-1,7.664809227E0,-4.671986103E-1
3.994389457E0,-5.335994363E-1,7.831708431E0,-3.661018610E-1
3.996648673E0,-6.622136831E-1,7.984251022E0,-2.793620527E-1
3.998902578E0,-7.860422134E-1,8.127222061E0,-3.074777126E-1
4.001155630E0,-8.991031051E-1,8.256434441E0,-4.695914388E-1
4.003404531E0,-1.012163997E0,8.357531548E0,-7.040880919E-1
4.005648183E0,-1.120439172E0,8.401200294E0,-8.715856671E-1
4.007914724E0,-1.181456208E0,8.429914474E0,-9.960124493E-1
4.010168081E0,-1.191027522E0,8.434700012E0,-1.043868899E0
4.012424367E0,-1.152742267E0,8.458627701E0,-1.028913736E0
4.014674612E0,-1.090528965E0,8.434700012E0,-1.076770186E0
4.016927480E0,-9.954141974E-1,8.405985832E0,-1.177268744E0
4.019175893E0,-8.656035662E-1,8.358727455E0,-1.339382529E0
4.021433644E0,-7.316055298E-1,8.297112465E0,-1.506880045E0
4.023687245E0,-5.886343718E-1,8.225926399E0,-1.640279889E0
4.025941944E0,-4.606183469E-1,8.134400368E0,-1.521237016E0
4.028194264E0,-3.176472187E-1,8.127820015E0,-6.879364848E-1
4.030447255E0,-1.842473447E-1,8.168498039E0,7.298108935E-2
4.032700734E0,-4.785645381E-2,8.210372925E0,3.559323549E-1
4.034954700E0,1.136590764E-1,8.300702095E0,3.427718580E-1
4.037206593E0,4.127618968E-1,8.447860718E0,4.456632137E-1
4.039461720E0,7.728816867E-1,8.608778000E0,6.729813814E-1
4.041717579E0,1.146760225E0,8.812766075E0,9.104689956E-1
4.043964284E0,1.493719578E0,8.998209953E0,9.224331379E-1
4.046220203E0,1.747358680E0,9.169894218E0,6.329016089E-1
4.048472156E0,1.962712765E0,9.346963882E0,3.385843933E-1
4.050727588E0,2.101496458E0,9.475577354E0,1.674975902E-1
4.052978016E0,2.205584288E0,9.608977318E0,1.836491376E-1
4.055219165E0,2.207378864E0,9.776474953E0,-9.750752151E-2
4.057478199E0,2.096112728E0,9.997213364E0,-6.562315822E-1
4.059727221E0,1.853839397E0,1.031904793E1,-1.563709617E0
4.061996142E0,1.674975872E0,1.068275642E1,-2.040479422E0
4.064247729E0,1.591227055E0,1.107278633E1,-1.483550072E0
4.066502856E0,1.459023595E0,1.143589783E1,2.931207791E-2
4.068753284E0,1.228116274E0,1.182891846E1,1.327418327E0
4.071007189E0,8.877372146E-1,1.220997620E1,1.777867198E0
4.073258776E0,5.036891699E-1,1.262572861E1,1.506281853E0
4.075512744E0,2.261217386E-1,1.302293682E1,9.433703423E-1
4.077765856E0,1.854437590E-2,1.340100288E1,5.814558864E-1
4.080019519E0,-1.333998591E-1,1.380598831E1,5.694918036E-1
4.082272692E0,-2.679961324E-1,1.418225956E1,7.435696125E-1
4.084525621E0,-4.456632137E-1,1.452563000E1,1.007976532E0
4.086779345E0,-7.322037220E-1,1.482533073E1,1.262213945E0
4.089030261E0,-1.071386337E0,1.504965782E1,1.467996716E0
4.091272937E0,-1.480558991E0,1.521177197E1,1.591227055E0
4.093538622E0,-1.904686809E0,1.533141327E1,1.657627940E0
4.095792039E0,-2.370688915E0,1.537986755E1,1.741974831E0
4.098048875E0,-2.799602509E0,1.537508202E1,1.854437590E0
4.100298936E0,-3.270988464E0,1.529910946E1,2.076970100E0
4.102552048E0,-3.690928936E0,1.520399475E1,2.299502611E0
4.104805711E0,-4.109673023E0,1.508016682E1,2.430509567E0
4.107059800E0,-4.484747887E0,1.500000668E1,2.337787628E0
4.109311815E0,-4.773082733E0,1.490549088E1,2.029711723E0
4.111565172E0,-4.999204636E0,1.487378597E1,1.646261930E0
4.113818406E0,-5.126024246E0,1.485524082E1,1.348953724E0
4.116073043E0,-5.239085197E0,1.482712555E1,1.243071318E0
4.118326338E0,-5.344967365E0,1.480798340E1,1.386042476E0
4.120579633E0,-5.437091351E0,1.482652760E1,1.720439434E0
4.122825302E0,-5.581857204E0,1.487797260E1,2.184048891E0
4.125088791E0,-5.712863922E0,1.493420410E1,2.623729944E0
4.127340622E0,-5.876772404E0,1.505743504E1,3.006581545E0
4.129593857E0,-5.992226124E0,1.524287891E1,3.260818958E0
4.131842942E0,-6.063412666E0,1.545284843E1,3.199802160E0
4.134093064E0,-6.094519138E0,1.564965820E1,2.755933523E0
4.136350937E0,-6.067600250E0,1.583689690E1,2.145165443E0
4.138604048E0,-5.974279881E0,1.602892113E1,1.558923960E0
4.140859175E0,-5.800800323E0,1.621077538E1,1.153938770E0
4.143112105E0,-5.519045353E0,1.631127357E1,8.787640929E-1
4.145364425E0,-5.127819061E0,1.636331749E1,6.412764788E-1
4.147617721E0,-4.646263599E0,1.631546211E1,3.702892959E-1
4.149870589E0,-4.178466320E0,1.620120430E1,9.930214286E-2
4.152122909E0,-3.677170277E0,1.596790409E1,-2.446661144E-1
4.154372664E0,-3.208775282E0,1.562991714E1,-6.418746710E-1
4.156630172E0,-2.773879766E0,1.521057510E1,-1.082752228E0
4.158884384E0,-2.338385820E0,1.470568943E1,-1.519442320E0
4.161139509E0,-1.888535261E0,1.413440323E1,-1.951945066E0
4.163390303E0,-1.391426325E0,1.358166122E1,-2.355135679E0
4.165643781E0,-8.333004713E-1,1.302832127E1,-2.696112871E0
4.167896650E0,-3.080759048E-1,1.258983612E1,-2.997608662E0
4.170150252E0,1.926222295E-1,1.219861031E1,-3.218346357E0
4.172403487E0,6.879364848E-1,1.190309620E1,-3.370888948E0
4.174656539E0,1.145563841E0,1.171226883E1,-3.566502094E0
4.176910384E0,1.555334687E0,1.169252777E1,-3.693919897E0
4.179164106E0,1.878963947E0,1.176850033E1,-3.739981890E0
4.181416852E0,2.069193363E0,1.191147137E1,-3.757329702E0
4.183669964E0,2.111067772E0,1.205862999E1,-3.636492252E0
4.185920270E0,2.004587173E0,1.226800156E1,-3.387040377E0
4.188161847E0,1.712662816E0,1.249651623E1,-3.047259569E0
4.190417890E0,1.339980721E0,1.273460197E1,-2.697907448E0
4.192683820E0,8.811569214E-1,1.303968716E1,-2.330011129E0
4.194944379E0,4.085744619E-1,1.333041477E1,-2.042872429E0
4.197193707E0,-1.615155302E-2,1.363549995E1,-1.789233088E0
4.199443158E0,-3.978067636E-1,1.393520069E1,-1.502094388E0
4.201693524E0,-6.753742099E-1,1.420678616E1,-1.219143152E0
4.203944806E0,-9.577272534E-1,1.442572975E1,-9.367900491E-1
4.206202617E0,-1.220937729E0,1.458784294E1,-6.496513486E-1
4.208456219E0,-1.454836130E0,1.469252968E1,-4.540380836E-1
4.210710613E0,-1.703689694E0,1.470628834E1,-2.398804724E-1
4.212962994E0,-1.965703845E0,1.468714523E1,-6.400800496E-2
4.215216838E0,-2.223530531E0,1.458245945E1,1.591227055E-1
4.217464947E0,-2.462812662E0,1.440598869E1,3.864408433E-1
4.219709271E0,-2.696711063E0,1.419601822E1,5.706881881E-1
4.221975506E0,-2.916252613E0,1.391486168E1,7.639086246E-1
4.224228985E0,-3.116651535E0,1.362353611E1,9.332008362E-1
4.226485515E0,-3.307479143E0,1.331845093E1,1.126421213E0
4.228735575E0,-3.502494097E0,1.297567940E1,1.219143152E0
4.230989116E0,-3.692723513E0,1.261316681E1,1.264008522E0
4.233243205E0,-3.869194269E0,1.225125217E1,1.351346612E0
4.235495219E0,-4.016951084E0,1.190788174E1,1.477568030E0
4.237748088E0,-4.149752617E0,1.157886887E1,1.451246977E0
4.240002849E0,-4.244867325E0,1.127916813E1,1.482353687E0
4.242256511E0,-4.354339123E0,1.100698376E1,1.570888042E0
4.244495525E0,-4.430311203E0,1.073061275E1,1.588235974E0
4.246761698E0,-4.491926193E0,1.046859932E1,1.628913999E0
4.249014018E0,-4.496711731E0,1.021615601E1,1.598405480E0
4.251269266E0,-4.467998028E0,1.000139999E1,1.578066587E0
4.253508218E0,-4.396811485E0,9.786644936E0,1.672582984E0
4.255774392E0,-4.264009953E0,9.591031075E0,1.796411633E0
4.258027871E0,-4.141377926E0,9.418747902E0,1.939382792E0
4.260285806E0,-3.975076675E0,9.223134995E0,2.000998020E0
4.262534769E0,-3.789632797E0,9.036494255E0,2.000399828E0
4.264787943E0,-3.599403381E0,8.874381065E0,1.971685886E0
4.267041300E0,-3.399004459E0,8.712266922E0,1.928016901E0
4.269295634E0,-3.171088219E0,8.559126854E0,1.932802439E0
4.271547464E0,-2.989831924E0,8.401798248E0,1.908874273E0
4.273800271E0,-2.789433002E0,8.201399803E0,1.831705689E0
4.276053933E0,-2.593819857E0,7.996813297E0,1.706680775E0
4.278307656E0,-2.388635159E0,7.815557003E0,1.520040631E0
4.280557656E0,-2.168495417E0,7.653443336E0,1.295115232E0
4.282800820E0,-1.938784599E0,7.515855789E0,1.055832982E0
4.285067666E0,-1.694716692E0,7.415955544E0,7.740781307E-1
4.287321634E0,-1.450648785E0,7.359126091E0,5.168496966E-1
4.289573281E0,-1.221535921E0,7.311269760E0,3.020938635E-1
4.291813088E0,-1.015753269E0,7.249654293E0,1.112662554E-1
4.294076638E0,-8.344969153E-1,7.206583500E0,-2.691925503E-2
4.296333839E0,-6.765705943E-1,7.159325123E0,-1.316052526E-1
4.298589820E0,-5.054838061E-1,7.106683254E0,-1.938186288E-1
4.300840492E0,-3.667000830E-1,7.116254330E0,-3.026920557E-1
4.303093788E0,-2.093719840E-1,7.159325123E0,-3.738785386E-1
4.305348061E0,-8.075776696E-2,7.235297680E0,-4.444667995E-1
4.307600502E0,3.828516230E-2,7.330412388E0,-5.054838061E-1
4.309853310E0,1.477568001E-1,7.435696602E0,-5.569294691E-1
4.312105141E0,2.715853751E-1,7.564310551E0,-6.083751321E-1
4.314354714E0,3.667000830E-1,7.702496052E0,-6.592226624E-1
4.316609963E0,4.528416991E-1,7.816753387E0,-7.064808607E-1
4.318849830E0,5.192425251E-1,7.935796261E0,-7.339983582E-1
4.321105323E0,5.479564071E-1,8.050053596E0,-7.758727670E-1
4.323361304E0,5.527420044E-1,8.140980721E0,-7.992027402E-1
4.325629614E0,5.431707501E-1,8.212167740E0,-7.986045480E-1
4.327882849E0,4.953143001E-1,8.236095428E0,-7.465606928E-1
4.330136084E0,4.187439680E-1,8.221738815E0,-6.604190469E-1
4.332387489E0,3.326023519E-1,8.221738815E0,-5.461617708E-1
4.334639258E0,2.608176768E-1,8.178668022E0,-4.510470629E-1
4.336892004E0,1.507478207E-1,8.111668587E0,-3.278166950E-1
4.339145483E0,1.196411345E-2,8.020741463E0,-1.615155339E-1
4.341400365E0,-1.405783296E-1,7.896913052E0,4.785645287E-3
4.343652502E0,-3.367897868E-1,7.758727551E0,2.039881349E-1
4.345905920E0,-5.228317380E-1,7.643871784E0,3.601198196E-1
4.348158910E0,-7.322037220E-1,7.472784996E0,4.390829504E-1
4.350412451E0,-9.320043921E-1,7.315456867E0,4.947160780E-1
4.352662512E0,-1.146162033E0,7.144370079E0,5.024927258E-1
4.354905614E0,-1.317248821E0,6.967899323E0,4.959124923E-1
4.357171911E0,-1.488335729E0,6.792026997E0,5.030909777E-1
4.359426488E0,-1.659422517E0,6.615556240E0,4.917250574E-1
4.361682165E0,-1.810768485E0,6.425326824E0,4.420739710E-1
4.363932775E0,-1.924427629E0,6.249454498E0,3.403790295E-1
4.366185032E0,-2.051845312E0,6.107081413E0,2.045863420E-1
4.368435277E0,-2.121835470E0,5.940780640E0,2.153540403E-2
4.370675511E0,-2.182852507E0,5.817550182E0,-1.800599098E-1
4.372931859E0,-2.204986095E0,5.651248932E0,-3.966103494E-1
4.375198522E0,-2.180459738E0,5.513063431E0,-5.551348329E-1
4.377455845E0,-2.169692039E0,5.375475883E0,-7.334001660E-1
4.379708164E0,-2.093121529E0,5.232504845E0,-8.632107973E-1
4.381958286E0,-2.016551256E0,5.127819061E0,-9.206385016E-1
4.384211216E0,-1.897508383E0,5.046463013E0,-9.302098155E-1
4.386464878E0,-1.750349760E0,4.993820667E0,-9.254241586E-1
4.388714695E0,-1.584048629E0,4.984249592E0,-8.817551732E-1
4.390957920E0,-1.408176184E0,4.993222713E0,-8.470591903E-1
4.393224339E0,-1.266401410E0,5.050052166E0,-7.794619799E-1
4.395478794E0,-1.090528965E0,5.121238708E0,-7.399803996E-1
4.397734531E0,-9.194421172E-1,5.206781864E0,-7.531409264E-1
4.399984408E0,-7.908278704E-1,5.325825214E0,-7.704889178E-1
4.402237339E0,-6.717849374E-1,5.483152866E0,-8.362914920E-1
4.404491977E0,-5.617151260E-1,5.650052547E0,-9.684949517E-1
4.406744419E0,-5.132604837E-1,5.812166214E0,-1.125224829E0
4.408997653E0,-4.887340367E-1,5.970092297E0,-1.315454245E0
4.411250765E0,-5.258227587E-1,6.118447304E0,-1.553540111E0
4.413505099E0,-5.766702294E-1,6.242874146E0,-1.763510346E0
4.415755282E0,-6.753742099E-1,6.381658077E0,-1.983051777E0
4.418002352E0,-7.938188910E-1,6.458826542E0,-2.136192322E0
4.420263155E0,-9.403793216E-1,6.544968128E0,-2.303689957E0
4.422517061E0,-1.106082320E0,6.626324177E0,-2.389831543E0
4.424772311E0,-1.305284739E0,6.669992924E0,-2.495713949E0
4.427023776E0,-1.547558069E0,6.661019802E0,-2.553740025E0
4.429277133E0,-1.789831281E0,6.671189308E0,-2.583650351E0
4.431531343E0,-2.047059774E0,6.647261143E0,-2.532204628E0
4.433783724E0,-2.308475733E0,6.642475605E0,-2.437688112E0
4.436036897E0,-2.532802820E0,6.628118515E0,-2.280958176E0
4.438289826E0,-2.743371248E0,6.599404812E0,-2.076371908E0
4.440543366E0,-2.986840963E0,6.594619274E0,-1.857428551E0
4.442796357E0,-3.168695450E0,6.580262184E0,-1.638485312E0
4.445049837E0,-3.350549936E0,6.565307140E0,-1.428515077E0
4.447303438E0,-3.498904943E0,6.550950050E0,-1.305284739E0
4.449554170E0,-3.618546009E0,6.541378975E0,-1.176670551E0
4.451793611E0,-3.728017569E0,6.546164513E0,-1.091127157E0
4.454050752E0,-3.828516245E0,6.565307140E0,-9.762716293E-1
4.456315827E0,-3.867399693E0,6.579065800E0,-8.422735929E-1
4.458572357E0,-3.863212109E0,6.593422890E0,-7.034898400E-1
4.460825836E0,-3.830909014E0,6.631109715E0,-5.934200287E-1
4.463076263E0,-3.769891977E0,6.716653347E0,-4.492524564E-1
4.465329987E0,-3.670589924E0,6.777669907E0,-2.997010350E-1
4.467583772E0,-3.538386583E0,6.872784615E0,-1.842473447E-1
4.469835969E0,-3.415156126E0,7.029514790E0,-1.058823988E-1
4.472089326E0,-3.254238844E0,7.200601578E0,-4.666004330E-2
4.474342499E0,-3.073580742E0,7.419544697E0,-1.196411322E-3
4.476596710E0,-2.898306370E0,7.681559086E0,1.555334684E-2
4.478849090E0,-2.717648268E0,7.948358536E0,-2.512463741E-2
4.481102263E0,-2.551347256E0,8.248658180E0,-6.101697683E-2
4.483355499E0,-2.384447813E0,8.525029182E0,-1.441675574E-1
4.485609832E0,-2.270190477E0,8.801400185E0,-2.279163599E-1
4.487861908E0,-2.175075769E0,9.068199158E0,-2.596212626E-1
4.490114654E0,-2.132004976E0,9.292527199E0,-2.769692242E-1
4.492367949E0,-2.108675003E0,9.473184586E0,-2.662015259E-1
4.494622101E0,-2.085345030E0,9.630513191E0,-2.362912297E-1
4.496875396E0,-2.023729801E0,9.754341125E0,-1.680957973E-1
4.499128386E0,-1.962114573E0,9.873384476E0,-1.722832322E-1
4.501381316E0,-1.905285001E0,1.000199890E1,-1.375873089E-1
4.503636015E0,-1.802393675E0,1.009651470E1,1.986042857E-1
4.505888457E0,-1.741974831E0,1.015753174E1,3.762713671E-1
4.508141753E0,-1.831705689E0,1.016770172E1,2.847459018E-1
4.510394560E0,-1.963310957E0,1.017787075E1,7.178467698E-3
4.512648162E0,-2.155933142E0,1.017428207E1,-3.714857101E-1
4.514898040E0,-2.282154560E0,1.019462109E1,-8.267202377E-1
4.517142119E0,-2.341975212E0,1.024786091E1,-1.185045362E0
4.519411162E0,-2.307877541E0,1.034836006E1,-1.366301775E0
4.521662320E0,-2.227119684E0,1.048654556E1,-1.283749342E0
4.523917630E0,-2.099701881E0,1.063370419E1,-1.114457130E0
4.526167020E0,-1.982453585E0,1.077129078E1,-8.691928387E-1
4.528420865E0,-1.908276081E0,1.086580753E1,-5.862415433E-1
4.530674406E0,-1.838286042E0,1.093161011E1,-3.128615618E-1
4.532927763E0,-1.797009826E0,1.095972633E1,-3.050848842E-2
4.535180814E0,-1.750947952E0,1.097348499E1,2.237289101E-1
4.537434110E0,-1.652244091E0,1.099621677E1,4.199403822E-1
4.539685270E0,-1.548156261E0,1.102014446E1,5.353940725E-1
4.541928006E0,-1.439282775E0,1.103868866E1,5.982056856E-1
4.544194180E0,-1.311266780E0,1.110987568E1,6.089733839E-1
4.546447293E0,-1.182652593E0,1.116670513E1,6.047859192E-1
4.548704861E0,-1.040279627E0,1.126660538E1,6.394818425E-1
4.550953701E0,-9.170492887E-1,1.131386375E1,6.885347366E-1
4.553206447E0,-8.033902049E-1,1.142812061E1,7.232306600E-1
4.555459865E0,-6.795616150E-1,1.153759289E1,7.483552694E-1
4.557714321E0,-5.467599630E-1,1.167577839E1,7.878368497E-1
4.559964687E0,-3.661018610E-1,1.181336498E1,7.896314859E-1
4.562210049E0,-1.812563092E-1,1.202273750E1,8.350951076E-1
4.564468349E0,-6.580262445E-3,1.227039433E1,9.661021233E-1
4.566726833E0,1.304088384E-1,1.246959686E1,1.159322619E0
4.568982265E0,2.763710022E-1,1.267896938E1,1.347757339E0
4.571234523E0,3.708875179E-1,1.288295746E1,1.512263894E0
4.573486354E0,4.695914388E-1,1.303549957E1,1.623530149E0
4.575740992E0,5.593222976E-1,1.320658684E1,1.682752490E0
4.577993128E0,6.119644046E-1,1.336391449E1,1.707877159E0
4.580243312E0,6.358926296E-1,1.347817135E1,1.636690736E0
4.582486781E0,6.364908218E-1,1.353559971E1,1.546361685E0
4.584752895E0,6.275177598E-1,1.363609791E1,1.384247899E0
4.587004238E0,6.382854581E-1,1.369890976E1,1.183848977E0
4.589255091E0,6.251249313E-1,1.374198055E1,9.308080077E-1
4.591512904E0,6.269195080E-1,1.380000687E1,6.490531564E-1
4.593766871E0,6.143572330E-1,1.382034492E1,2.757728100E-1
4.596021205E0,6.209374666E-1,1.386401463E1,-8.733802289E-2
4.598272608E0,6.376872063E-1,1.394596863E1,-4.594219327E-1
4.600522852E0,6.538388133E-1,1.400878048E1,-8.129615188E-1
4.602769800E0,6.604190469E-1,1.411884975E1,-1.195214868E0
4.605032434E0,6.669993401E-1,1.418644714E1,-1.529013634E0
4.607285792E0,6.921239495E-1,1.430190086E1,-1.834696770E0
4.609541712E0,6.891329288E-1,1.438325691E1,-2.116451740E0
4.611792505E0,6.568298340E-1,1.446521091E1,-2.355135679E0
4.614041772E0,6.155536175E-1,1.450349617E1,-2.584248543E0
4.616296350E0,5.264210105E-1,1.452323723E1,-2.814557552E0
4.618542139E0,4.372883439E-1,1.451426411E1,-2.991626501E0
4.620803796E0,3.379862010E-1,1.454357624E1,-3.173480988E0
4.623045373E0,2.153540403E-1,1.457288837E1,-3.346362352E0
4.625314233E0,1.447657645E-1,1.457288837E1,-3.408575773E0
4.627565271E0,2.512463741E-2,1.463510132E1,-3.360719442E0
4.629822839E0,-8.434699476E-2,1.464945889E1,-3.318246841E0
4.632070337E0,-1.938186288E-1,1.464945889E1,-3.290131092E0
4.634316736E0,-2.650051117E-1,1.464467239E1,-3.270988464E0
4.636564720E0,-3.326023519E-1,1.468774319E1,-3.132802963E0
4.638831871E0,-3.912265003E-1,1.477747440E1,-2.892922640E0
4.641086143E0,-4.259224236E-1,1.485344696E1,-2.586641312E0
4.643341270E0,-5.084748268E-1,1.495753479E1,-2.266003132E0
4.645591820E0,-6.293123364E-1,1.500957870E1,-1.959721804E0
4.647845910E0,-7.920243144E-1,1.502333736E1,-1.712064624E0
4.650097985E0,-9.834501147E-1,1.498505211E1,-1.526022673E0
4.652351219E0,-1.179063320E0,1.488993740E1,-1.412961721E0
4.654603843E0,-1.379462242E0,1.474696636E1,-1.280758262E0
4.656857322E0,-1.616949916E0,1.451785278E1,-1.211366415E0
4.659110556E0,-1.916052699E0,1.419422436E1,-1.234098315E0
4.661364280E0,-2.248056889E0,1.396152210E1,-1.390229940E0
4.663617820E0,-2.561516523E0,1.383829117E1,-1.415952802E0
4.665872215E0,-2.837887764E0,1.367199039E1,-1.356132269E0
4.668124290E0,-3.019144058E0,1.352363491E1,-1.204786181E0
4.670377341E0,-3.105883837E0,1.345185089E1,-9.092726111E-1
4.672629843E0,-3.118446112E0,1.337946796E1,-4.504488707E-1
4.674883994E0,-3.082553864E0,1.334477234E1,3.708875179E-2
4.677137228E0,-3.003590584E0,1.325803185E1,3.954139352E-1
4.679390769E0,-2.862414122E0,1.319521999E1,6.065805554E-1
4.681644003E0,-2.714657307E0,1.307079411E1,6.011967063E-1
4.683897971E0,-2.595016241E0,1.295175076E1,4.911268353E-1
4.686150412E0,-2.518445730E0,1.284227943E1,3.613162339E-1
4.688401083E0,-2.460419893E0,1.266162109E1,2.219343036E-1
