"Time (s)","Acceleration x (m/s^2)","Acceleration y (m/s^2)","Acceleration z (m/s^2)"
1.391594400E-2,-1.526620865E0,-9.724431038E0,-9.499505758E-1
1.617702900E-2,-1.521835208E0,-9.705288887E0,-9.595218897E-1
1.843459700E-2,-1.545165181E0,-9.700503349E0,-9.738788009E-1
2.068549300E-2,-1.549950838E0,-9.671789169E0,-9.547362328E-1
2.293838200E-2,-1.536192179E0,-9.667003632E0,-9.541380405E-1
2.518911300E-2,-1.612164259E0,-9.667003632E0,-9.355936646E-1
2.744277600E-2,-1.626521230E0,-9.667003632E0,-9.547362328E-1
2.969656000E-2,-1.612164259E0,-9.657432556E0,-9.260223508E-1
3.194894100E-2,-1.645663738E0,-9.628718376E0,-9.403793216E-1
3.420235800E-2,-1.664208174E0,-9.652647018E0,-9.595218897E-1
3.645095500E-2,-1.697707653E0,-9.647860527E0,-9.308080077E-1
3.869741400E-2,-1.697707653E0,-9.623932838E0,-9.355936646E-1
4.096059700E-2,-1.688136339E0,-9.595218658E0,-9.690931439E-1
4.321401500E-2,-1.678565025E0,-9.585647583E0,-9.355936646E-1
4.546981300E-2,-1.668993831E0,-9.561718941E0,-9.397810698E-1
4.772109500E-2,-1.645065546E0,-9.547362328E0,-9.589236975E-1
4.997310900E-2,-1.668993831E0,-9.576076508E0,-9.349954724E-1
5.222628400E-2,-1.678565025E0,-9.585647583E0,-9.595218897E-1
5.447903000E-2,-1.635494232E0,-9.585647583E0,-9.684949517E-1
5.673189800E-2,-1.616351724E0,-9.576076508E0,-9.876375198E-1
5.898556000E-2,-1.583450437E0,-9.552147865E0,-9.870393276E-1
6.123873400E-2,-1.583450437E0,-9.561718941E0,-9.876375198E-1
6.349227500E-2,-1.606780410E0,-9.580862045E0,-1.006780148E0
6.574581400E-2,-1.592423439E0,-9.585647583E0,-1.011565804E0
6.799795000E-2,-1.559522152E0,-9.561718941E0,-1.039681435E0
7.024758400E-2,-1.568495274E0,-9.556933403E0,-1.068395257E0
7.248769700E-2,-1.558923960E0,-9.547362328E0,-1.106680512E0
7.474526500E-2,-1.544566989E0,-9.537791252E0,-1.130608678E0
7.701021800E-2,-1.554138303E0,-9.552147865E0,-1.130608678E0
7.926693300E-2,-1.567897081E0,-9.528220177E0,-1.159322619E0
8.152059500E-2,-1.524826288E0,-9.470791817E0,-1.220937729E0
8.376998500E-2,-1.501496196E0,-9.466006279E0,-1.240080357E0
8.602254800E-2,-1.515853167E0,-9.456435204E0,-1.220937729E0
8.827505000E-2,-1.505683661E0,-9.456435204E0,-1.259222865E0
9.052865100E-2,-1.496112347E0,-9.466006279E0,-1.283151150E0
9.278188600E-2,-1.505683661E0,-9.456435204E0,-1.311864972E0
9.503487700E-2,-1.500898004E0,-9.470791817E0,-1.321436286E0
9.728780600E-2,-1.472184181E0,-9.485149384E0,-1.364507079E0
9.953817300E-2,-1.453041553E0,-9.499505997E0,-1.378864050E0
1.017820690E-1,-1.453041553E0,-9.489934921E0,-1.378265858E0
1.040472050E-1,-1.438684583E0,-9.508479118E0,-1.397408366E0
1.063017210E-1,-1.414756417E0,-9.522835732E0,-1.440479279E0
1.085567260E-1,-1.418943882E0,-9.551549911E0,-1.441077471E0
1.108069100E-1,-1.423729420E0,-9.565906525E0,-1.455434322E0
1.130592290E-1,-1.423729420E0,-9.594620705E0,-1.445863128E0
1.153128910E-1,-1.405185103E0,-9.604191780E0,-1.445863128E0
1.175627690E-1,-1.404586911E0,-9.646664619E0,-1.470389485E0
1.198056280E-1,-1.395015597E0,-9.670592308E0,-1.479960799E0
1.220670410E-1,-1.380658627E0,-9.680164337E0,-1.484746456E0
1.243251600E-1,-1.356730461E0,-9.661021233E0,-1.517647743E0
1.265812630E-1,-1.337587833E0,-9.680164337E0,-1.536790371E0
1.288323000E-1,-1.304088354E0,-9.704092026E0,-1.555932879E0
1.310847410E-1,-1.299302697E0,-9.737591743E0,-1.561316729E0
1.333378540E-1,-1.289731383E0,-9.760921478E0,-1.570888042E0
1.355878550E-1,-1.275972724E0,-9.780064583E0,-1.546959877E0
1.378315680E-1,-1.261615753E0,-9.780064583E0,-1.566102386E0
1.400963380E-1,-1.242473125E0,-9.799206734E0,-1.590030670E0
1.423500610E-1,-1.213759303E0,-9.789635658E0,-1.637887120E0
1.446062260E-1,-1.204187989E0,-9.803992271E0,-1.623530149E0
1.468562260E-1,-1.194616675E0,-9.803992271E0,-1.642672777E0
1.491090330E-1,-1.175474167E0,-9.780064583E0,-1.632503271E0
1.513621460E-1,-1.180259824E0,-9.784850121E0,-1.622931957E0
1.536152590E-1,-1.175474167E0,-9.780064583E0,-1.613360643E0
1.558688610E-1,-1.156929731E0,-9.756733894E0,-1.608574986E0
1.581215460E-1,-1.161715388E0,-9.751948357E0,-1.608574986E0
1.603747190E-1,-1.156929731E0,-9.747162819E0,-1.613360643E0
1.626275270E-1,-1.147358418E0,-9.742377281E0,-1.608574986E0
1.648807620E-1,-1.147358418E0,-9.723235130E0,-1.599003673E0
1.671336300E-1,-1.166501045E0,-9.718449593E0,-1.594218135E0
1.693857660E-1,-1.176072359E0,-9.680164337E0,-1.574477315E0
1.716333860E-1,-1.180858016E0,-9.661021233E0,-1.574477315E0
1.738810050E-1,-1.171286702E0,-9.632905960E0,-1.569691658E0
1.761463260E-1,-1.161715388E0,-9.604191780E0,-1.536192179E0
1.784015130E-1,-1.171286702E0,-9.570692062E0,-1.530808330E0
1.806555410E-1,-1.138385415E0,-9.556335449E0,-1.545165181E0
1.829054190E-1,-1.152742267E0,-9.509077072E0,-1.515853167E0
1.851578610E-1,-1.162313581E0,-9.494720459E0,-1.496710539E0
1.874118290E-1,-1.152742267E0,-9.466006279E0,-1.515853167E0
1.896639650E-1,-1.143171072E0,-9.470791817E0,-1.515853167E0
1.919138420E-1,-1.147956610E0,-9.442078590E0,-1.482353687E0
1.941704950E-1,-1.143171072E0,-9.427721024E0,-1.487139225E0
1.964228140E-1,-1.119840980E0,-9.404391289E0,-1.481755376E0
1.986786130E-1,-1.115055323E0,-9.404391289E0,-1.481755376E0
2.009308100E-1,-1.100698471E0,-9.370891571E0,-1.438684583E0
2.031833740E-1,-1.086341500E0,-9.385248184E0,-1.438684583E0
2.054364250E-1,-1.081555843E0,-9.370891571E0,-1.429113269E0
2.076897820E-1,-1.072582722E0,-9.399605751E0,-1.424327731E0
2.099438710E-1,-1.057627559E0,-9.442676544E0,-1.448255897E0
2.121957630E-1,-1.048654556E0,-9.447462082E0,-1.433898926E0
2.144489370E-1,-1.043868899E0,-9.466604233E0,-1.448255897E0
2.167018060E-1,-1.024726272E0,-9.485149384E0,-1.443470240E0
2.189548580E-1,-9.672985673E-1,-9.490532875E0,-1.443470240E0
2.212074820E-1,-9.535398483E-1,-9.518648148E0,-1.448255897E0
2.234613880E-1,-9.337990284E-1,-9.533005714E0,-1.476969719E0
2.257148060E-1,-9.152546525E-1,-9.561718941E0,-1.472184181E0
2.279685900E-1,-9.008977413E-1,-9.585647583E0,-1.496710539E0
2.302203590E-1,-8.673982024E-1,-9.600004196E0,-1.520040631E0
2.324735330E-1,-8.386843204E-1,-9.619147301E0,-1.524826288E0
2.347265240E-1,-8.291130662E-1,-9.656833649E0,-1.549352646E0
2.369798200E-1,-7.956135273E-1,-9.652048111E0,-1.567897081E0
2.392323830E-1,-7.812566161E-1,-9.661619186E0,-1.567897081E0
2.414859840E-1,-7.525427341E-1,-9.643074989E0,-1.572682738E0
2.437392200E-1,-7.668996453E-1,-9.675976753E0,-1.596610904E0
2.459901360E-1,-7.429714203E-1,-9.671191216E0,-1.591825247E0
2.482321400E-1,-7.142575383E-1,-9.671191216E0,-1.620539188E0
2.504994730E-1,-7.190431952E-1,-9.685547829E0,-1.639681697E0
2.527511210E-1,-7.094719410E-1,-9.680762291E0,-1.649253011E0
2.550078350E-1,-6.759724021E-1,-9.656833649E0,-1.667797327E0
2.572569810E-1,-6.765705943E-1,-9.656833649E0,-1.658226132E0
2.595106430E-1,-6.717849374E-1,-9.619147301E0,-1.639083505E0
2.617638170E-1,-6.717849374E-1,-9.580862045E0,-1.639083505E0
2.640178450E-1,-6.765705943E-1,-9.528220177E0,-1.624128342E0
2.662666850E-1,-6.861419082E-1,-9.523433685E0,-1.633699656E0
2.685067370E-1,-7.046862841E-1,-9.509077072E0,-1.657627940E0
2.707627180E-1,-7.381857634E-1,-9.518648148E0,-1.619342685E0
2.730284040E-1,-7.387840152E-1,-9.495318413E0,-1.581057549E0
2.752851790E-1,-7.531409264E-1,-9.495318413E0,-1.561915040E0
2.775385970E-1,-7.531409264E-1,-9.466604233E0,-1.552343726E0
2.797889640E-1,-7.627122402E-1,-9.466604233E0,-1.533201098E0
2.820426250E-1,-7.722834945E-1,-9.437891006E0,-1.504487276E0
2.842941510E-1,-8.153542876E-1,-9.447462082E0,-1.480558991E0
2.865476910E-1,-8.440681696E-1,-9.457033157E0,-1.457229018E0
2.888001940E-1,-8.440681696E-1,-9.480961800E0,-1.438086390E0
2.910540390E-1,-8.440681696E-1,-9.476176262E0,-1.428515077E0
2.933070890E-1,-8.632107973E-1,-9.485747337E0,-1.414158225E0
2.955603240E-1,-8.775677085E-1,-9.528818130E0,-1.390828133E0
2.978106300E-1,-9.014959335E-1,-9.576076508E0,-1.390828133E0
3.000559300E-1,-9.206385016E-1,-9.580862045E0,-1.367498159E0
3.023186860E-1,-9.062815905E-1,-9.619147301E0,-1.377069473E0
3.045722260E-1,-9.110672474E-1,-9.623932838E0,-1.381855130E0
3.068282080E-1,-9.296116233E-1,-9.643074989E0,-1.377069473E0
3.090789410E-1,-9.391828775E-1,-9.652647018E0,-1.382453322E0
3.113317480E-1,-9.487541914E-1,-9.676574707E0,-1.368096352E0
3.135846770E-1,-9.774680734E-1,-9.681360245E0,-1.329811215E0
3.158383400E-1,-9.918249846E-1,-9.676574707E0,-1.329811215E0
3.180920630E-1,-1.015753269E0,-9.657432556E0,-1.320239902E0
3.203437720E-1,-1.044467092E0,-9.657432556E0,-1.272383451E0
3.225983490E-1,-1.077966571E0,-9.647860527E0,-1.268195987E0
3.248502410E-1,-1.121037364E0,-9.662218094E0,-1.201196909E0
3.271035380E-1,-1.164108157E0,-9.681360245E0,-1.153938770E0
3.293549420E-1,-1.192822099E0,-9.671789169E0,-1.130010486E0
3.316058570E-1,-1.264008522E0,-9.695717812E0,-1.116251707E0
3.338628140E-1,-1.259222865E0,-9.705288887E0,-1.130608678E0
3.361129360E-1,-1.287338614E0,-9.671789169E0,-1.177866936E0
3.383564670E-1,-1.310668588E0,-9.685547829E0,-1.231107235E0
3.406214820E-1,-1.305882931E0,-9.680762291E0,-1.269392371E0
3.428748380E-1,-1.329811215E0,-9.666405678E0,-1.302891970E0
3.451314300E-1,-1.334596872E0,-9.661619186E0,-1.274178028E0
3.473813690E-1,-1.381855130E0,-9.628120422E0,-1.292722464E0
3.496342390E-1,-1.429711580E0,-9.647262573E0,-1.298106313E0
3.518875960E-1,-1.481755376E0,-9.652048111E0,-1.264606714E0
3.541411350E-1,-1.505683661E0,-9.647262573E0,-1.246062398E0
3.563930260E-1,-1.577468276E0,-9.623334885E0,-1.217348576E0
3.586466880E-1,-1.634297848E0,-9.632905960E0,-1.207777262E0
3.608996180E-1,-1.667797327E0,-9.623334885E0,-1.179661512E0
3.631529750E-1,-1.720439434E0,-9.594620705E0,-1.150947690E0
3.654062090E-1,-1.782054663E0,-9.604191780E0,-1.141376376E0
3.676591390E-1,-1.829911113E0,-9.613762856E0,-1.084546804E0
3.699099330E-1,-1.839482427E0,-9.613762856E0,-1.065404296E0
3.721523650E-1,-1.853839397E0,-9.632905960E0,-1.051047325E0
3.744050500E-1,-1.868196249E0,-9.632905960E0,-1.055832982E0
3.766707970E-1,-1.887338877E0,-9.632905960E0,-1.065404296E0
3.789269010E-1,-1.872981906E0,-9.642477036E0,-1.070189953E0
3.811807460E-1,-1.877767563E0,-9.642477036E0,-1.089332461E0
3.834300130E-1,-1.882553220E0,-9.642477036E0,-1.070189953E0
3.856837970E-1,-1.882553220E0,-9.671191216E0,-1.037288666E0
3.879372160E-1,-1.853839397E0,-9.708877563E0,-1.089930773E0
3.901888640E-1,-1.825125456E0,-9.685547829E0,-1.065404296E0
3.924334930E-1,-1.801795483E0,-9.671191216E0,-1.065404296E0
3.946968590E-1,-1.782652855E0,-9.680762291E0,-1.074975610E0
3.969486290E-1,-1.758724689E0,-9.704092026E0,-1.113260746E0
3.992014980E-1,-1.715653777E0,-9.728020668E0,-1.108475089E0
4.014420370E-1,-1.692323804E0,-9.695118904E0,-1.089332461E0
4.037082720E-1,-1.668395638E0,-9.695118904E0,-1.079162955E0
4.059586390E-1,-1.639681697E0,-9.752547264E0,-1.046261668E0
4.082060750E-1,-1.611566067E0,-9.828518867E0,-1.022931695E0
4.104677340E-1,-1.587637782E0,-9.852447510E0,-1.075573802E0
4.127206020E-1,-1.563111424E0,-9.842875481E0,-1.137188911E0
4.149768270E-1,-1.558325768E0,-9.818947792E0,-1.161117196E0
4.172270710E-1,-1.577468276E0,-9.804591179E0,-1.165902853E0
4.194794510E-1,-1.596610904E0,-9.799804688E0,-1.189831018E0
4.217331140E-1,-1.582253933E0,-9.799804688E0,-1.189831018E0
4.239865320E-1,-1.596012712E0,-9.795019150E0,-1.218544960E0
4.262408640E-1,-1.581655741E0,-9.785448074E0,-1.275972724E0
4.284926340E-1,-1.552941918E0,-9.728020668E0,-1.318445325E0
4.307455030E-1,-1.519442320E0,-9.704092026E0,-1.375274777E0
4.329981280E-1,-1.495514154E0,-9.675378799E0,-1.432702541E0
4.352483110E-1,-1.452443361E0,-9.627521515E0,-1.441675663E0
4.374915360E-1,-1.423729420E0,-9.622735977E0,-1.470389485E0
4.397562460E-1,-1.375872970E0,-9.589835167E0,-1.517647743E0
4.420061240E-1,-1.371087432E0,-9.565906525E0,-1.540977836E0
4.442686350E-1,-1.375872970E0,-9.565906525E0,-1.574477315E0
4.465172920E-1,-1.380658627E0,-9.556335449E0,-1.564906001E0
4.487712600E-1,-1.390229940E0,-9.532406807E0,-1.574477315E0
4.510230910E-1,-1.399203062E0,-9.522835732E0,-1.579262972E0
4.532732140E-1,-1.371087432E0,-9.489336014E0,-1.560120344E0
4.555163770E-1,-1.414158225E0,-9.508479118E0,-1.555334687E0
4.577826730E-1,-1.395015597E0,-9.518050194E0,-1.531406522E0
4.600360920E-1,-1.432702541E0,-9.546764374E0,-1.541576028E0
4.622932940E-1,-1.451845169E0,-9.565308571E0,-1.570289850E0
4.645421960E-1,-1.475773335E0,-9.598808289E0,-1.561316729E0
4.667960400E-1,-1.479960799E0,-9.603593826E0,-1.590030670E0
4.690478100E-1,-1.466202021E0,-9.570094109E0,-1.579861164E0
4.712982370E-1,-1.461416483E0,-9.503693581E0,-1.584048629E0
4.735410960E-1,-1.451845169E0,-9.522237778E0,-1.612762451E0
4.758070870E-1,-1.423131227E0,-9.536594391E0,-1.646261930E0
4.780606890E-1,-1.408176184E0,-9.555737495E0,-1.670190215E0
4.803178300E-1,-1.369890928E0,-9.655637741E0,-1.733001828E0
4.825664860E-1,-1.322034478E0,-9.650852203E0,-1.800000787E0
4.848190500E-1,-1.298106313E0,-9.703494072E0,-1.838286042E0
4.870725900E-1,-1.240678549E0,-9.726823807E0,-1.900499344E0
4.893247260E-1,-1.207179070E0,-9.750752449E0,-1.914856315E0
4.915755810E-1,-1.169492126E0,-9.803394318E0,-1.905285001E0
4.938321720E-1,-1.112064362E0,-9.765707016E0,-1.885544300E0
4.960854690E-1,-1.064806104E0,-9.793823242E0,-1.904686809E0
4.983400460E-1,-1.055234790E0,-9.775279045E0,-1.895115495E0
5.005905950E-1,-1.022333503E0,-9.698708534E0,-1.827518344E0
5.028439520E-1,-9.942178130E-1,-9.694520950E0,-1.779661894E0
5.050973700E-1,-9.421738982E-1,-9.608977318E0,-1.735992789E0
5.073509100E-1,-9.421738982E-1,-9.623334885E0,-1.678565025E0
5.096025580E-1,-9.044869542E-1,-9.556335449E0,-1.634896040E0
5.118517030E-1,-9.427721500E-1,-9.561120987E0,-1.606182218E0
5.141100650E-1,-9.619147182E-1,-9.518648148E0,-1.553540111E0
5.163642150E-1,-9.810572863E-1,-9.552147865E0,-1.534995675E0
5.186173280E-1,-1.009771109E0,-9.528220177E0,-1.529611826E0
5.208689150E-1,-1.033699393E0,-9.513862610E0,-1.511067510E0
5.231222110E-1,-1.067198873E0,-9.537791252E0,-1.463211060E0
5.253754470E-1,-1.091127157E0,-9.528220177E0,-1.434497118E0
5.276286810E-1,-1.110269666E0,-9.533005714E0,-1.386640668E0
5.298814270E-1,-1.134197950E0,-9.509077072E0,-1.377069473E0
5.321347230E-1,-1.167697430E0,-9.513862610E0,-1.401595831E0
5.343886290E-1,-1.205384374E0,-9.513862610E0,-1.420738459E0
5.366402170E-1,-1.256830096E0,-9.608977318E0,-1.521835208E0
5.388945500E-1,-1.261615753E0,-9.665806770E0,-1.575075507E0
5.411468690E-1,-1.246660590E0,-9.728020668E0,-1.627717614E0
5.434002880E-1,-1.194018483E0,-9.894321442E0,-1.676770449E0
5.456530940E-1,-1.079761267E0,-9.861420631E0,-1.713859200E0
5.479061450E-1,-1.003789067E0,-9.847063065E0,-1.742573142E0
5.501595640E-1,-9.326026440E-1,-9.684949875E0,-1.726421595E0
5.524132870E-1,-8.955138922E-1,-9.480362892E0,-1.629512191E0
5.546656060E-1,-9.810572863E-1,-9.404391289E0,-1.562513232E0
5.569181690E-1,-1.076770186E0,-9.337391853E0,-1.466800332E0
5.591715870E-1,-1.243071318E0,-9.394221306E0,-1.458425403E0
5.614247000E-1,-1.381256819E0,-9.456435204E0,-1.439880967E0
5.636780580E-1,-1.396211982E0,-9.275178909E0,-1.367498159E0
5.659310490E-1,-1.307079315E0,-8.832506180E0,-1.191625714E0
5.681843450E-1,-1.274776220E0,-8.484949112E0,-1.036092162E0
5.704350760E-1,-1.336989641E0,-8.532805443E0,-9.984052777E-1
5.726767750E-1,-1.417149186E0,-8.713463783E0,-1.009771109E0
5.749428280E-1,-1.474576950E0,-8.809176445E0,-9.864411354E-1
5.771961850E-1,-1.578664780E0,-9.056235313E0,-1.089332461E0
5.794544860E-1,-1.677368641E0,-9.294321060E0,-1.239482164E0
5.817086970E-1,-1.723430514E0,-9.503693581E0,-1.446461320E0
5.839552790E-1,-1.736590981E0,-9.655637741E0,-1.629512191E0
5.862091850E-1,-1.735992789E0,-9.769296646E0,-1.778465390E0
5.884615650E-1,-1.753340840E0,-9.959526062E0,-1.980658889E0
5.907151050E-1,-1.647458434E0,-1.000678444E1,-2.210369825E0
5.929679130E-1,-1.447657704E0,-9.973882675E0,-2.252244234E0
5.952207820E-1,-1.399801254E0,-1.010249710E1,-2.367697954E0
5.974735900E-1,-1.250848055E0,-1.023529911E1,-2.563909531E0
5.997254810E-1,-1.009172916E0,-1.025982571E1,-2.467598438E0
6.019800590E-1,-9.337990284E-1,-1.009830952E1,-2.283949137E0
6.042334160E-1,-9.583254457E-1,-1.009412193E1,-2.160120726E0
6.064880550E-1,-9.780662656E-1,-1.017547798E1,-2.031506538E0
6.087395190E-1,-9.702895880E-1,-9.894321442E0,-1.814357758E0
6.109939740E-1,-9.242277741E-1,-9.279964447E0,-1.590030670E0
6.132457440E-1,-8.165507317E-1,-8.504091263E0,-1.378864050E0
6.154991020E-1,-7.136593461E-1,-7.675576687E0,-1.119840980E0
6.177517870E-1,-7.627122402E-1,-7.241877556E0,-9.637092948E-1
6.200047770E-1,-9.206385016E-1,-7.313662529E0,-7.208378315E-1
6.222585010E-1,-1.197009563E0,-7.709076405E0,-5.575276613E-1
6.245123460E-1,-1.472782373E0,-8.423932076E0,-5.347958803E-1
6.267644220E-1,-1.647458434E0,-9.023932457E0,-6.538388133E-1
6.290175340E-1,-1.674377680E0,-9.409774780E0,-8.961120844E-1
6.312704020E-1,-1.653440475E0,-9.747162819E0,-1.161117196E0
6.335235760E-1,-1.633699656E0,-1.010907745E1,-1.316052437E0
6.357765670E-1,-1.561915040E0,-1.036211872E1,-1.384846091E0
6.380298020E-1,-1.479960799E0,-1.057149029E1,-1.557727575E0
6.402826710E-1,-1.278963685E0,-1.049013424E1,-1.781456470E0
6.425371260E-1,-1.054636598E0,-1.014676476E1,-1.954936147E0
6.447892620E-1,-1.001994491E0,-1.001276588E1,-2.092523336E0
6.470426200E-1,-1.025324464E0,-9.964909554E0,-2.159522533E0
6.492944510E-1,-1.086939692E0,-9.945767403E0,-2.178664923E0
6.515448770E-1,-1.124626637E0,-9.893125534E0,-2.236092806E0
6.538015300E-1,-1.124626637E0,-9.836296082E0,-2.235494614E0
6.560540940E-1,-1.177268744E0,-9.817152977E0,-2.144567251E0
6.583089770E-1,-1.230509043E0,-9.841081619E0,-2.006381750E0
6.605619670E-1,-1.264606714E0,-9.827322960E0,-1.867598057E0
6.628142860E-1,-1.289133191E0,-9.822537422E0,-1.767099500E0
6.650670330E-1,-1.313061476E0,-9.860821724E0,-1.700698733E0
6.673197190E-1,-1.336989641E0,-9.808777809E0,-1.648056626E0
6.695730150E-1,-1.308874011E0,-9.756135941E0,-1.609173179E0
6.718269210E-1,-1.313659668E0,-9.704092026E0,-1.579861164E0
6.740836340E-1,-1.318445325E0,-9.689735413E0,-1.627717614E0
6.763324740E-1,-1.313659668E0,-9.637093544E0,-1.622931957E0
6.785866860E-1,-1.299302697E0,-9.622735977E0,-1.651047587E0
6.808344280E-1,-1.275374413E0,-9.589237213E0,-1.636690736E0
6.830796050E-1,-1.261017561E0,-9.574879646E0,-1.655833244E0
6.853446200E-1,-1.246660590E0,-9.579665184E0,-1.708475351E0
6.875978550E-1,-1.232303619E0,-9.579665184E0,-1.727019787E0
6.898540810E-1,-1.222732425E0,-9.546165466E0,-1.755733609E0
6.921009080E-1,-1.222732425E0,-9.503693581E0,-1.693520188E0
6.943444380E-1,-1.208973646E0,-9.451051712E0,-1.673779488E0
6.966112830E-1,-1.222732425E0,-9.422337532E0,-1.702493310E0
6.988625040E-1,-1.255633712E0,-9.407979965E0,-1.779063582E0
7.011159820E-1,-1.269392371E0,-9.440881729E0,-1.855633974E0
7.033693390E-1,-1.292722464E0,-9.445667267E0,-1.946561217E0
7.056226960E-1,-1.412961721E0,-9.598808289E0,-1.694716692E0
7.078766030E-1,-1.455434322E0,-9.712467194E0,-1.805384636E0
7.101288620E-1,-1.392622828E0,-9.712467194E0,-1.915454507E0
7.123822190E-1,-1.359123230E0,-9.602995872E0,-1.942971945E0
7.146359410E-1,-1.339980721E0,-9.569496155E0,-2.005185366E0
7.168880160E-1,-1.373480201E0,-9.540781975E0,-2.019542217E0
7.191407630E-1,-1.416550994E0,-9.564710617E0,-1.947757602E0
7.213939980E-1,-1.464407444E0,-9.550353050E0,-1.871785522E0
7.236474150E-1,-1.488335729E0,-9.521639824E0,-1.837687731E0
7.259006500E-1,-1.474576950E0,-9.436096191E0,-1.803590059E0
7.281535190E-1,-1.465005636E0,-9.388837814E0,-1.755733609E0
7.304069380E-1,-1.474576950E0,-9.364909172E0,-1.755733609E0
7.326608430E-1,-1.493719578E0,-9.321838379E0,-1.759921074E0
7.349097450E-1,-1.522433400E0,-9.360123634E0,-1.765304923E0
7.371526030E-1,-1.555334687E0,-9.350552559E0,-1.817947030E0
7.394170690E-1,-1.545165181E0,-9.383454323E0,-1.884945989E0
7.416678610E-1,-1.573879123E0,-9.383454323E0,-1.919043779E0
7.439285420E-1,-1.578066587E0,-9.383454323E0,-1.961516380E0
7.461785420E-1,-1.563709617E0,-9.393025398E0,-1.966302037E0
7.484326320E-1,-1.573280931E0,-9.435498238E0,-1.928615093E0
7.506853780E-1,-1.559522152E0,-9.478569031E0,-1.885544300E0
7.529340970E-1,-1.545165181E0,-9.512067795E0,-1.914856315E0
7.551784200E-1,-1.506880045E0,-9.521639824E0,-1.966900229E0
7.574435570E-1,-1.463809252E0,-9.521639824E0,-2.024327993E0
7.596957550E-1,-1.448854089E0,-9.544969559E0,-2.081755638E0
7.619478300E-1,-1.420140266E0,-9.559326172E0,-2.100898266E0
7.642030170E-1,-1.424925923E0,-9.530612946E0,-2.139183521E0
7.664561300E-1,-1.396211982E0,-9.516255379E0,-2.191227436E0
7.687111960E-1,-1.367498159E0,-9.516255379E0,-2.162513494E0
7.709590610E-1,-1.353739381E0,-9.544969559E0,-2.162513494E0
7.732022240E-1,-1.333998680E0,-9.521040916E0,-2.215155602E0
7.754677880E-1,-1.310070395E0,-9.506684303E0,-2.248655081E0
7.777215720E-1,-1.301097274E0,-9.473783493E0,-2.214557409E0
7.799777980E-1,-1.281954765E0,-9.459425926E0,-2.166700840E0
7.822277370E-1,-1.258624673E0,-9.512067795E0,-2.123630047E0
7.844806670E-1,-1.240678549E0,-9.531210899E0,-1.966302037E0
7.867350610E-1,-1.188634634E0,-9.536594391E0,-1.908276081E0
7.889870140E-1,-1.144965649E0,-9.541379929E0,-1.994417667E0
7.912403110E-1,-1.083350420E0,-9.498309135E0,-2.056032896E0
7.934931180E-1,-1.058824062E0,-9.464810371E0,-2.103889227E0
7.957464750E-1,-1.021137118E0,-9.388239861E0,-2.126621008E0
7.979967800E-1,-1.016351461E0,-9.402596474E0,-2.098505497E0
8.002426890E-1,-1.022333503E0,-9.336793900E0,-1.896910191E0
8.025052620E-1,-1.012163997E0,-9.067003250E0,-1.120439172E0
8.047597180E-1,-8.775677085E-1,-8.369495392E0,1.902294010E-1
8.070139910E-1,-7.645068169E-1,-8.021938324E0,3.702892959E-1
8.092653340E-1,-9.176474810E-1,-9.141180992E0,-1.971685886E0
8.115201550E-1,-1.090528965E0,-1.009591675E1,-3.184248686E0
8.137709490E-1,-1.201795220E0,-1.030648518E1,-2.879761934E0
8.160241830E-1,-1.219143152E0,-1.007916737E1,-2.294716835E0
8.182765030E-1,-1.188036442E0,-9.722636223E0,-1.923829436E0
8.205300430E-1,-1.240678549E0,-9.588638306E0,-1.894517303E0
8.227846210E-1,-1.320239902E0,-9.678967476E0,-2.115853310E0
8.250368800E-1,-1.324427366E0,-9.726225853E0,-2.273779631E0
8.272911510E-1,-1.352542996E0,-9.687940598E0,-2.268994093E0
8.295413350E-1,-1.395015597E0,-9.792626381E0,-2.379662037E0
8.317906020E-1,-1.393221021E0,-9.944570541E0,-2.672782898E0
8.340479870E-1,-1.387238979E0,-1.003430176E1,-2.883351326E0
8.363010390E-1,-1.333998680E0,-1.000080204E1,-3.007778168E0
8.385561660E-1,-1.215553880E0,-9.810572624E0,-2.967698336E0
8.408093410E-1,-1.121635556E0,-9.596415520E0,-2.764906645E0
8.430614160E-1,-1.056431174E0,-9.430113792E0,-2.548356056E0
8.453144670E-1,-1.028315544E0,-9.430113792E0,-2.524427891E0
8.475670300E-1,-1.116850019E0,-9.682557106E0,-2.760719061E0
8.498204480E-1,-1.224527001E0,-9.986445427E0,-3.093321562E0
8.520734390E-1,-1.276570916E0,-1.002951622E1,-3.093321562E0
8.543267350E-1,-1.330409408E0,-9.939187050E0,-2.849253654E0
8.565796040E-1,-1.351346612E0,-9.735198975E0,-2.479562521E0
8.588341810E-1,-1.368694544E0,-9.521639824E0,-2.038684845E0
8.610858290E-1,-1.370489120E0,-9.364909172E0,-1.712064624E0
8.633391860E-1,-1.375872970E0,-9.303294182E0,-1.558923960E0
8.655918710E-1,-1.347757339E0,-9.222537041E0,-1.524826288E0
8.678451660E-1,-1.337587833E0,-9.145966530E0,-1.634297848E0
8.700949830E-1,-1.327418327E0,-9.093324661E0,-1.758126378E0
8.723347290E-1,-1.321436286E0,-9.002396584E0,-2.011167526E0
8.745914440E-1,-1.334596872E0,-8.987442017E0,-2.158924341E0
8.768583500E-1,-1.338784218E0,-8.930013657E0,-2.331207514E0
8.791140870E-1,-1.399801254E0,-8.967700958E0,-2.455634356E0
8.813668950E-1,-1.384247899E0,-8.943174362E0,-2.704487801E0
8.836162240E-1,-1.420140266E0,-8.899505615E0,-3.038884640E0
8.858667740E-1,-1.548156261E0,-8.898907661E0,-3.202194929E0
8.881100590E-1,-1.646860242E0,-8.879764557E0,-3.307479143E0
8.903762330E-1,-1.757528186E0,-8.836693764E0,-3.159722328E0
8.926293460E-1,-1.833500385E0,-8.855836868E0,-3.126821041E0
8.948866090E-1,-1.910668850E0,-8.908478737E0,-2.912065268E0
8.971355110E-1,-1.912463546E0,-8.947361946E0,-2.558525562E0
8.993877090E-1,-1.886142492E0,-9.024530411E0,-2.224128723E0
9.016286750E-1,-1.796411633E0,-9.148957253E0,-2.033301115E0
9.038943010E-1,-1.668993831E0,-9.292527199E0,-1.913659930E0
9.061470470E-1,-1.526620865E0,-9.388239861E0,-1.841875196E0
9.084039430E-1,-1.350748420E0,-9.512666702E0,-1.789831281E0
9.106543090E-1,-1.179661512E0,-9.617950439E0,-1.789831281E0
9.129079100E-1,-1.055832982E0,-9.756135941E0,-1.789831281E0
9.151601090E-1,-9.696913958E-1,-9.865608215E0,-1.857428551E0
9.174130990E-1,-8.985049129E-1,-9.927821159E0,-1.843071699E0
9.196654790E-1,-8.650053740E-1,-9.975677490E0,-1.876571178E0
9.219193850E-1,-8.739784956E-1,-9.994221687E0,-1.933998942E0
9.241725590E-1,-8.979067206E-1,-1.004207802E1,-1.934597135E0
9.264257320E-1,-9.595218897E-1,-1.003250694E1,-1.968096614E0
9.286784180E-1,-1.040877819E0,-9.994221687E0,-1.916052699E0
9.309327510E-1,-1.102493048E0,-9.936794281E0,-1.925025821E0
9.331859250E-1,-1.164108157E0,-9.841679573E0,-1.992024899E0
9.354396490E-1,-1.244267821E0,-9.750752449E0,-2.063211441E0
9.376775020E-1,-1.292124271E0,-9.645467758E0,-2.038684845E0
9.399435540E-1,-1.396810174E0,-9.674181938E0,-2.053640127E0
9.421959960E-1,-1.415354609E0,-9.607182503E0,-2.115853310E0
9.444536250E-1,-1.372882009E0,-9.478569031E0,-2.143370867E0
9.467036870E-1,-1.335195065E0,-9.378668785E0,-2.070987940E0
9.489574700E-1,-1.321436286E0,-9.293125153E0,-1.950748682E0
9.512095450E-1,-1.317248821E0,-9.288339615E0,-1.912463546E0
9.534621700E-1,-1.341177106E0,-9.340981483E0,-1.879562140E0
9.557147940E-1,-1.359721422E0,-9.398408890E0,-1.855633974E0
9.579689450E-1,-1.340578914E0,-9.469595909E0,-1.918445587E0
9.602221790E-1,-1.354337573E0,-9.535996437E0,-1.962114573E0
9.624752320E-1,-1.320838094E0,-9.579067230E0,-2.043470621E0
9.647284660E-1,-1.325623751E0,-9.569496155E0,-2.029113531E0
9.669821890E-1,-1.356132269E0,-9.565308571E0,-1.641476393E0
9.692340820E-1,-1.409970760E0,-9.661619186E0,-1.341177106E0
9.714852420E-1,-1.533201098E0,-9.813564301E0,-1.400399446E0
9.737273070E-1,-1.541576028E0,-9.793823242E0,-1.658226132E0
9.759931770E-1,-1.370489120E0,-9.597013474E0,-2.483749866E0
9.782462280E-1,-1.284347534E0,-9.358329773E0,-2.644667149E0
9.805027580E-1,-1.243071318E0,-9.015557289E0,-2.465205431E0
9.827527590E-1,-9.296116233E-1,-8.637491226E0,-3.236292601E0
9.850070920E-1,-9.726824164E-1,-8.623134613E0,-3.269792080E0
9.872592290E-1,-1.012163997E0,-8.685946465E0,-2.925823927E0
9.895122790E-1,-1.005583763E0,-8.639286041E0,-2.404188633E0
9.917649640E-1,-1.212562919E0,-8.950352669E0,-1.904686809E0
9.940179550E-1,-1.668395638E0,-9.876375198E0,-1.047458172E0
9.962713730E-1,-1.633699656E0,-1.006181908E1,-1.296909928E0
9.985210080E-1,-1.728814363E0,-1.043809032E1,-1.208973646E0
1.000764599E0,-1.661815286E0,-1.045244789E1,-1.323829174E0
1.003031444E0,-1.440479279E0,-1.014616585E1,-1.846660852E0
1.005283885E0,-1.156331539E0,-9.601799011E0,-2.597409010E0
1.007540111E0,-9.493523836E-1,-9.114859581E0,-3.028715372E0
1.009789806E0,-1.064806104E0,-9.005388260E0,-2.899502754E0
1.012043101E0,-1.247856975E0,-9.034700394E0,-2.455634356E0
1.014296092E0,-1.386640668E0,-9.082556725E0,-2.255833626E0
1.016549144E0,-1.429113269E0,-9.120841980E0,-2.246262312E0
1.018802135E0,-1.511067510E0,-9.183054924E0,-2.089532375E0
1.021056346E0,-1.607378602E0,-9.321240425E0,-1.870589137E0
1.023308543E0,-1.650449395E0,-9.393025398E0,-1.761117458E0
1.025561779E0,-1.985444546E0,-9.803992271E0,-1.296909928E0
1.027814403E0,-2.422134638E0,-1.034357452E1,-5.509474277E-1
1.030067821E0,-2.327618122E0,-1.021974564E1,-4.689932466E-1
1.032320872E0,-2.255235434E0,-1.030050373E1,-6.747759581E-1
1.034570445E0,-2.210968018E0,-1.032383347E1,-9.326026440E-1
1.036814280E0,-2.200200319E0,-1.017547798E1,-1.137188911E0
1.039080699E0,-2.228316069E0,-1.002293587E1,-1.270588875E0
1.041333568E0,-2.266003132E0,-9.927223206E0,-1.351346612E0
1.043590770E0,-2.317448616E0,-9.817152977E0,-1.446461320E0
1.045837780E0,-2.340778828E0,-9.716654778E0,-1.527219057E0
1.048087109E0,-2.258824587E0,-9.497113228E0,-1.750349760E0
1.050345348E0,-2.163111687E0,-9.282357216E0,-1.948953986E0
1.052600046E0,-2.110469580E0,-9.115457535E0,-1.995614052E0
1.054858164E0,-2.096710920E0,-9.049057007E0,-1.904088616E0
1.057105600E0,-2.136192322E0,-9.125627518E0,-1.627717614E0
1.059356822E0,-2.382055044E0,-9.460622787E0,-9.708877802E-1
1.061605845E0,-2.464607239E0,-9.652048111E0,-6.616154313E-1
1.063863779E0,-2.411965132E0,-9.780662537E0,-7.483552694E-1
1.066117380E0,-2.182852507E0,-9.699306488E0,-9.332008362E-1
1.068371287E0,-1.780858278E0,-9.364909172E0,-1.407577872E0
1.070620433E0,-1.522433400E0,-9.169296265E0,-1.692323804E0
1.072864329E0,-1.494915962E0,-9.078967094E0,-1.610369682E0
1.075130320E0,-1.375872970E0,-8.945567131E0,-1.632503271E0
1.077382761E0,-1.246660590E0,-8.855237961E0,-1.813161373E0
1.079637706E0,-1.103091240E0,-8.773882866E0,-1.974676847E0
1.081883433E0,-9.936196208E-1,-8.745168686E0,-2.036292076E0
1.084141489E0,-9.409775138E-1,-8.793025017E0,-2.012363911E0
1.086394846E0,-9.852447510E-1,-8.922237396E0,-1.798206210E0
1.088649180E0,-1.119840980E0,-9.170493126E0,-1.499103427E0
1.090901683E0,-1.368694544E0,-9.585647583E0,-1.153938770E0
1.093155466E0,-1.660020709E0,-1.006241703E1,-8.518448472E-1
1.095407419E0,-1.835893154E0,-1.036750221E1,-7.639086246E-1
1.097660105E0,-1.868794441E0,-1.046740246E1,-8.793623447E-1
1.099909189E0,-1.848455548E0,-1.039561844E1,-1.137188911E0
1.102153513E0,-1.817348838E0,-1.025145054E1,-1.542772412E0
1.104419870E0,-1.806581140E0,-1.010788059E1,-1.823929071E0
1.106672984E0,-1.887338877E0,-1.002173901E1,-1.852642894E0
1.108929514E0,-1.920838356E0,-9.940981865E0,-1.808973908E0
1.111180002E0,-1.959721804E0,-9.855438232E0,-1.688734531E0
1.113432078E0,-1.960319996E0,-9.760323524E0,-1.597807288E0
1.115686227E0,-1.903490424E0,-9.641280174E0,-1.529611826E0
1.117937265E0,-1.837089539E0,-9.536594391E0,-1.494915962E0
1.120184763E0,-1.804188251E0,-9.517452240E0,-1.475773335E0
1.122428170E0,-1.747358680E0,-9.460622787E0,-1.460818172E0
1.124684945E0,-1.704287887E0,-9.427123070E0,-1.479362607E0
1.126951669E0,-1.642074585E0,-9.427123070E0,-1.512862086E0
1.129207772E0,-1.546959877E0,-9.407979965E0,-1.579262972E0
1.131460092E0,-1.479960799E0,-9.374481201E0,-1.683948994E0
1.133706552E0,-1.470389485E0,-9.384052277E0,-1.707877159E0
1.135946360E0,-1.408774376E0,-9.379266739E0,-1.674377680E0
1.138203744E0,-1.317248821E0,-9.345767021E0,-1.807179332E0
1.140469187E0,-1.193420291E0,-9.278767586E0,-1.945364833E0
1.142725717E0,-1.088136077E0,-9.259625435E0,-2.054836512E0
1.144978890E0,-9.541380405E-1,-9.264410973E0,-2.159522533E0
1.147229684E0,-7.968099117E-1,-9.259625435E0,-2.282752752E0
1.149480356E0,-6.628118753E-1,-9.245268822E0,-2.392224550E0
1.151729623E0,-5.246263742E-1,-9.269196510E0,-2.525624275E0
1.153987313E0,-3.762713671E-1,-9.297312737E0,-2.639881611E0
1.156240365E0,-2.189432681E-1,-9.340383530E0,-2.721237659E0
1.158495126E0,-8.973085135E-2,-9.383454323E0,-2.859423161E0
1.160747263E0,3.409772366E-2,-9.411569595E0,-2.949752092E0
1.163000559E0,1.633101404E-1,-9.440283775E0,-3.031108141E0
1.165254342E0,2.775674164E-1,-9.488140106E0,-3.111865759E0
1.167506234E0,4.067798555E-1,-9.554540634E0,-3.212364435E0
1.169757272E0,5.497509837E-1,-9.559326172E0,-3.293122053E0
1.172000497E0,6.598208547E-1,-9.611968994E0,-3.393620729E0
1.174253304E0,7.363911867E-1,-9.654440880E0,-3.513261795E0
1.176518441E0,8.225327730E-1,-9.711869240E0,-3.603590965E0
1.178773812E0,8.991031051E-1,-9.768698692E0,-3.670589924E0
1.181028023E0,9.230313301E-1,-9.845269203E0,-3.757329702E0
1.183278511E0,9.523434043E-1,-9.926026344E0,-3.796213150E0
1.185531258E0,9.475577474E-1,-9.992427826E0,-3.858426571E0
1.187785347E0,9.433703423E-1,-1.012104130E1,-3.897907972E0
1.190034554E0,7.728816867E-1,-1.030648518E1,-3.995415688E0
1.192279915E0,6.969096065E-1,-1.033519936E1,-3.981656790E0
1.194542793E0,9.050851464E-1,-1.013539886E1,-3.840480328E0
1.196796272E0,1.042672515E0,-1.007856941E1,-3.815953970E0
1.199049202E0,1.180259824E0,-1.005045319E1,-3.819543123E0
1.201291145E0,1.333400369E0,-1.003609657E1,-3.909872293E0
1.203555428E0,1.533799291E0,-1.005942631E1,-4.134199142E0
1.205809029E0,1.630708575E0,-1.012582684E1,-4.358526230E0
1.208064827E0,1.649851203E0,-1.019701385E1,-4.459623337E0
1.210315194E0,1.640878081E0,-1.024008465E1,-4.493122578E0
1.212568001E0,1.578664780E0,-1.026879883E1,-4.402793884E0
1.214821175E0,1.544566989E0,-1.026401234E1,-4.264608383E0
1.217074287E0,1.505683661E0,-1.021675491E1,-4.097110748E0
1.219327156E0,1.447059512E0,-1.018385315E1,-3.900899172E0
1.221576851E0,1.350748420E0,-1.015095139E1,-3.637688637E0
1.223833749E0,1.296909928E0,-1.005165005E1,-3.379263878E0
1.226086678E0,1.219741344E0,-9.951749802E0,-3.135195971E0
1.228340645E0,1.089930773E0,-9.880562782E0,-2.900699139E0
1.230591622E0,9.888339639E-1,-9.775876999E0,-2.690130949E0
1.232841682E0,9.212366939E-1,-9.681360245E0,-2.507678032E0
1.235096139E0,8.584251404E-1,-9.562317848E0,-2.316252232E0
1.237340401E0,7.573283911E-1,-9.462417603E0,-2.115255117E0
1.239605721E0,6.089733839E-1,-9.376873970E0,-1.942971945E0
1.241858344E0,5.126622319E-1,-9.310472488E0,-1.732403636E0
1.244114387E0,3.499503136E-1,-9.248857498E0,-1.551147223E0
1.246364447E0,2.679961324E-1,-9.144171715E0,-1.354337573E0
1.248617133E0,1.573280841E-1,-9.082556725E0,-1.139581800E0
1.250870734E0,3.230310604E-2,-9.049654961E0,-9.433703423E-1
1.253123848E0,-8.733802289E-2,-8.997611046E0,-7.573283911E-1
1.255377448E0,-2.069791555E-1,-8.964112282E0,-5.802595019E-1
1.257630073E0,-3.272185028E-1,-8.916853905E0,-3.702892959E-1
1.259884223E0,-4.420739710E-1,-8.888737679E0,-2.033899277E-1
1.262135993E0,-5.335994363E-1,-8.836693764E0,-4.067798331E-2
1.264389106E0,-6.107679605E-1,-8.798408508E0,1.124626622E-1
1.266641974E0,-7.106683254E-1,-8.784051895E0,1.692921966E-1
1.268895392E0,-7.633104324E-1,-8.774480820E0,1.788634956E-1
1.271148933E0,-8.536394835E-1,-8.769695282E0,2.213360965E-1
1.273403693E0,-9.583254457E-1,-8.736195564E0,2.069791555E-1
1.275654425E0,-1.048056364E0,-8.707481384E0,1.585244983E-1
1.277907660E0,-1.161715388E0,-8.702097893E0,4.845465720E-2
1.280160224E0,-1.265205026E0,-8.725427628E0,-1.004985496E-1
1.282413704E0,-1.378864050E0,-8.711071014E0,-2.350948304E-1
1.284666694E0,-1.492523074E0,-8.753543854E0,-3.218346536E-1
1.286919989E0,-1.643869162E0,-8.795417786E0,-4.660021961E-1
1.289173103E0,-1.804786444E0,-8.876175880E0,-5.676971674E-1
1.291427497E0,-1.970489502E0,-8.985049248E0,-7.268198729E-1
1.293679390E0,-2.149951220E0,-9.122636795E0,-8.865407705E-1
1.295932624E0,-2.353939295E0,-9.269794464E0,-1.007976532E0
1.298184943E0,-2.538186550E0,-9.450452805E0,-1.143769264E0
1.300437568E0,-2.699103832E0,-9.588040352E0,-1.278963685E0
1.302691291E0,-2.783450842E0,-9.673583984E0,-1.428515077E0
1.304944770E0,-2.854637384E0,-9.720842361E0,-1.524826288E0
1.307198493E0,-2.887538671E0,-9.768099785E0,-1.572682738E0
1.309452520E0,-2.948555708E0,-9.844670296E0,-1.640878081E0
1.311704473E0,-2.962912560E0,-9.915857315E0,-1.694118381E0
1.313956976E0,-2.924627542E0,-9.939785004E0,-1.736590981E0
1.316210089E0,-2.843869686E0,-9.915857315E0,-1.741376638E0
1.318463446E0,-2.705684185E0,-9.891928673E0,-1.725823283E0
1.320716558E0,-2.601596355E0,-9.878170013E0,-1.663609982E0
1.322969610E0,-2.550150633E0,-9.864411354E0,-1.557727575E0
1.325222784E0,-2.479562521E0,-9.873982430E0,-1.428515077E0
1.327476690E0,-2.417947292E0,-9.860223770E0,-1.308275819E0
1.329728949E0,-2.390429735E0,-9.875179291E0,-1.146162033E0
1.331983099E0,-2.362912416E0,-9.884750366E0,-9.690931439E-1
1.334233527E0,-2.311466694E0,-9.880562782E0,-8.297112584E-1
1.336482977E0,-2.250449657E0,-9.809376717E0,-7.190431952E-1
1.338740362E0,-2.165504456E0,-9.728618622E0,-6.227321029E-1
1.340994329E0,-2.094317913E0,-9.705288887E0,-5.312066078E-1
1.343249029E0,-2.042872429E0,-9.638887405E0,-4.348955154E-1
1.345501714E0,-1.995614052E0,-9.562915802E0,-3.481557071E-1
1.347753301E0,-1.943570137E0,-9.562915802E0,-3.433700502E-1
1.350006475E0,-1.925025821E0,-9.520442963E0,-2.949153781E-1
1.352259344E0,-1.943570137E0,-9.501300812E0,-2.805584669E-1
1.354512579E0,-1.957927108E0,-9.515657425E0,-2.901297510E-1
1.356765569E0,-1.991426587E0,-9.534201622E0,-2.859423161E-1
1.359018987E0,-2.024926186E0,-9.543772697E0,-2.715853751E-1
1.361272467E0,-2.057827473E0,-9.586843491E0,-3.152543902E-1
1.363526374E0,-2.090728760E0,-9.605388641E0,-3.296113312E-1
1.365778266E0,-2.118844509E0,-9.638887405E0,-3.828516304E-1
1.368031439E0,-2.109273195E0,-9.658030510E0,-4.211367965E-1
1.370283269E0,-2.104487419E0,-9.686145782E0,-4.785645306E-1
1.372533208E0,-2.099103689E0,-9.743574142E0,-5.126622319E-1
1.374789983E0,-2.060818434E0,-9.800403595E0,-5.605186820E-1
1.377043828E0,-2.051247120E0,-9.824331284E0,-6.035895348E-1
1.379297185E0,-1.984248161E0,-9.857831001E0,-6.658028960E-1
1.381547368E0,-1.965105653E0,-9.853045464E0,-7.136593461E-1
1.383802617E0,-1.902892232E0,-9.862018585E0,-7.896314859E-1
1.386056097E0,-1.826321840E0,-9.871589661E0,-8.374879360E-1
1.388309881E0,-1.749751568E0,-9.866804123E0,-9.326026440E-1
1.390562260E0,-1.673181176E0,-9.876375198E0,-1.009172916E0
1.392815312E0,-1.578066587E0,-9.866804123E0,-1.099501967E0
1.395068181E0,-1.505683661E0,-9.852447510E0,-1.213759303E0
1.397321356E0,-1.453041553E0,-9.838089943E0,-1.318445325E0
1.399572088E0,-1.376471281E0,-9.823733330E0,-1.395015597E0
1.401815923E0,-1.309472203E0,-9.803992271E0,-1.490130305E0
1.404082036E0,-1.252044439E0,-9.784850121E0,-1.590030670E0
1.406333684E0,-1.203589797E0,-9.760921478E0,-1.718644857E0
1.408589604E0,-1.165304661E0,-9.741779327E0,-1.800000787E0
1.410839726E0,-1.155135155E0,-9.765707016E0,-1.862214208E0
1.413093144E0,-1.121635556E0,-9.755537987E0,-1.938186288E0
1.415346502E0,-1.058824062E0,-9.774680138E0,-2.072184324E0
1.417600407E0,-1.116251707E0,-9.951150894E0,-2.025524378E0
1.419851994E0,-1.255633712E0,-1.016590691E1,-1.683350682E0
1.422105656E0,-1.323230863E0,-1.028554821E1,-1.531406522E0
1.424358281E0,-1.309472203E0,-1.029990482E1,-1.454836130E0
1.426611883E0,-1.305284739E0,-1.031486034E1,-1.354337573E0
1.428864935E0,-1.338784218E0,-1.033878803E1,-1.254437327E0
1.431118047E0,-1.305882931E0,-1.035314560E1,-1.173081279E0
1.433367863E0,-1.263410330E0,-1.031067276E1,-1.119840980E0
1.435612308E0,-1.197009563E0,-1.019162941E1,-1.109073281E0
1.437876590E0,-1.101894855E0,-1.004865837E1,-1.122233868E0
1.440130375E0,-1.006780148E0,-9.920044899E0,-1.192822099E0
1.442386356E0,-8.925228715E-1,-9.790832520E0,-1.277767301E0
1.444636540E0,-7.585247755E-1,-9.681360245E0,-1.414756417E0
1.446889469E0,-6.580262184E-1,-9.600004196E0,-1.538584948E0
1.449142215E0,-5.958128572E-1,-9.518648148E0,-1.647458434E0
1.451395939E0,-5.240281820E-1,-9.471389771E0,-1.742573142E0
1.453649662E0,-4.420739710E-1,-9.427721024E0,-1.875972986E0
1.455901372E0,-3.320041299E-1,-9.366106033E0,-2.003988981E0
1.458154973E0,-2.410768867E-1,-9.303893089E0,-2.132603168E0
1.460407841E0,-1.453639716E-1,-9.275178909E0,-2.237289190E0
1.462661197E0,-3.589234129E-2,-9.256035805E0,-2.322832584E0
1.464914249E0,3.110669367E-2,-9.232108116E0,-2.408375978E0
1.467167423E0,1.220339537E-1,-9.198608398E0,-2.465205431E0
1.469419804E0,1.836491376E-1,-9.189037323E0,-2.464607239E0
1.471667119E0,2.500499785E-1,-9.193822861E0,-2.493321180E0
1.473913883E0,3.026920557E-1,-9.212965012E0,-2.522035122E0
1.476180301E0,3.314059377E-1,-9.217751503E0,-2.526820660E0
1.478433598E0,3.451646566E-1,-9.241679192E0,-2.469393015E0
1.480689030E0,3.260220885E-1,-9.294321060E0,-2.436491728E0
1.482938236E0,3.308077157E-1,-9.313464165E0,-2.393420935E0
1.485192081E0,3.020938635E-1,-9.327820778E0,-2.331207514E0
1.487445499E0,3.014956415E-1,-9.337391853E0,-2.302493572E0
1.489699527E0,2.781656384E-1,-9.337391853E0,-2.350350142E0
1.491951358E0,2.446661144E-1,-9.332606316E0,-2.336591244E0
1.494204410E0,2.213360965E-1,-9.342177391E0,-2.346162558E0
1.496456912E0,1.686939895E-1,-9.327820778E0,-2.350948334E0
1.498707523E0,1.405783296E-1,-9.289535522E0,-2.370090723E0
1.500951174E0,8.315058798E-2,-9.289535522E0,-2.346162558E0
1.503216311E0,2.392822644E-3,-9.294321060E0,-2.327618122E0
1.505470157E0,-7.417750359E-2,-9.308678627E0,-2.246860504E0
1.507727115E0,-1.268195957E-1,-9.322437286E0,-2.246860504E0
1.509972843E0,-1.692921966E-1,-9.351150513E0,-2.290529490E0
1.512216006E0,-1.974078715E-1,-9.336793900E0,-2.314457655E0
1.514482119E0,-2.213360965E-1,-9.360722542E0,-2.309672117E0
1.516735415E0,-2.350948304E-1,-9.346364975E0,-2.347957134E0
1.518991275E0,-2.494517565E-1,-9.341579437E0,-2.367099762E0
1.521241642E0,-2.590230405E-1,-9.345767021E0,-2.400599241E0
1.523495060E0,-2.446661144E-1,-9.355338097E0,-2.395813704E0
1.525749026E0,-2.494517565E-1,-9.345767021E0,-2.391027927E0
1.528000613E0,-2.398804724E-1,-9.355338097E0,-2.376671076E0
1.530253787E0,-2.350948304E-1,-9.384052277E0,-2.396411896E0
1.532506656E0,-2.446661144E-1,-9.436694145E0,-2.396411896E0
1.534756655E0,-2.249253243E-1,-9.479166985E0,-2.439482689E0
1.536999819E0,-2.344966233E-1,-9.546165466E0,-2.440080881E0
1.539266727E0,-2.584248483E-1,-9.607781410E0,-2.445464849E0
1.541523441E0,-2.727817893E-1,-9.708279610E0,-2.441277266E0
1.543773624E0,-3.110669553E-1,-9.769894600E0,-2.398804665E0
1.546009464E0,-3.535395563E-1,-9.870393753E0,-2.366501570E0
1.548262393E0,-4.205385745E-1,-9.955936432E0,-2.309672117E0
1.550515872E0,-4.444667995E-1,-1.000857925E1,-2.267199516E0
1.552776736E0,-4.875376225E-1,-1.004686451E1,-2.224726915E0
1.555040286E0,-5.210371017E-1,-1.005643559E1,-2.196012974E0
1.557294131E0,-5.635097623E-1,-1.007557774E1,-2.182254314E0
1.559547182E0,-5.922235847E-1,-1.005165005E1,-2.172683001E0
1.561798402E0,-6.209374666E-1,-1.003250694E1,-2.172683001E0
1.564050172E0,-6.873382926E-1,-1.002293587E1,-2.167897224E0
1.566302980E0,-7.256234884E-1,-9.984650612E0,-2.182254314E0
1.568555544E0,-7.920243144E-1,-9.955936432E0,-2.201396942E0
1.570807925E0,-8.009973764E-1,-9.917651176E0,-2.268395901E0
1.573056215E0,-8.769695163E-1,-9.888937950E0,-2.325823545E0
1.575315187E0,-9.481559992E-1,-9.859625816E0,-2.359323025E0
1.577568789E0,-9.906286001E-1,-9.859625816E0,-2.402393818E0
1.579824465E0,-1.061815023E0,-9.873982430E0,-2.431705952E0
1.582074953E0,-1.104287624E0,-9.854840279E0,-2.474776745E0
1.584327882E0,-1.137787223E0,-9.854840279E0,-2.489133835E0
1.586580995E0,-1.170688510E0,-9.826126099E0,-2.503490686E0
1.588834413E0,-1.170688510E0,-9.806983948E0,-2.517847538E0
1.591087344E0,-1.175474167E0,-9.802198410E0,-2.536990166E0
1.593340212E0,-1.180259824E0,-9.835099220E0,-2.508276224E0
1.595593630E0,-1.180259824E0,-9.849455833E0,-2.489133835E0
1.597847048E0,-1.166501045E0,-9.854840279E0,-2.422134638E0
1.600097475E0,-1.133599758E0,-9.859625816E0,-2.374278307E0
1.602352236E0,-1.100100160E0,-9.850054741E0,-2.340778828E0
1.604605593E0,-1.048056364E0,-9.841081619E0,-2.306680918E0
1.606859194E0,-9.912267923E-1,-9.783653259E0,-2.286940336E0
1.609111636E0,-9.487541914E-1,-9.741181374E0,-2.243869543E0
1.611365175E0,-8.967102766E-1,-9.693324089E0,-2.209771633E0
1.613618655E0,-8.350951076E-1,-9.655637741E0,-2.190030813E0
1.615872621E0,-7.878368497E-1,-9.602995872E0,-2.175075769E0
1.618124574E0,-7.070791125E-1,-9.546165466E0,-2.126621008E0
1.620378053E0,-6.598208547E-1,-9.489336014E0,-2.102094650E0
1.622630311E0,-6.125625968E-1,-9.479764938E0,-2.078166485E0
1.624883973E0,-5.694918036E-1,-9.436694145E0,-2.034497499E0
1.627136719E0,-5.180460811E-1,-9.408578873E0,-1.986042738E0
1.629388917E0,-5.132604837E-1,-9.408578873E0,-1.914258122E0
1.631639466E0,-4.851447940E-1,-9.390034676E0,-1.832902193E0
1.633894349E0,-4.857429862E-1,-9.385248184E0,-1.732403636E0
1.636138978E0,-4.624129832E-1,-9.381061554E0,-1.684547186E0
1.638402650E0,-4.342973232E-1,-9.395418167E0,-1.617548108E0
1.640654969E0,-4.295116663E-1,-9.385847092E0,-1.555334687E0
1.642910829E0,-4.109672904E-1,-9.381061554E0,-1.531406522E0
1.645161377E0,-3.822534084E-1,-9.395418167E0,-1.507478237E0
1.647414490E0,-3.206382394E-1,-9.348159790E0,-1.569093466E0
1.649667908E0,-5.264209956E-2,-9.137591362E0,-1.881955028E0
1.651921815E0,2.931207791E-2,-9.128020287E0,-2.058425665E0
1.654173646E0,-2.285145670E-1,-9.409176826E0,-1.798206210E0
1.656426453E0,-4.342973232E-1,-9.452845573E0,-1.565504193E0
1.658679810E0,-5.108676553E-1,-9.467203140E0,-1.465005636E0
1.660933045E0,-5.395814776E-1,-9.462417603E0,-1.465005636E0
1.663186280E0,-5.682953596E-1,-9.490532875E0,-1.446461320E0
1.665439087E0,-6.305087805E-1,-9.547960281E0,-1.375274777E0
1.667692567E0,-6.640082598E-1,-9.567103386E0,-1.313659668E0
1.669945558E0,-6.921239495E-1,-9.600603104E0,-1.332802176E0
1.672194947E0,-6.921239495E-1,-9.600603104E0,-1.409372568E0
1.674448121E0,-6.819544435E-1,-9.619147301E0,-1.471585870E0
1.676688355E0,-6.909275651E-1,-9.628718376E0,-1.543370605E0
1.678942689E0,-6.957131624E-1,-9.614361763E0,-1.615155339E0
1.681195009E0,-6.999006271E-1,-9.642477036E0,-1.663011789E0
1.683451111E0,-7.142575383E-1,-9.656833649E0,-1.716252089E0
1.685705078E0,-7.232306600E-1,-9.661619186E0,-1.749751568E0
1.687960571E0,-7.423732281E-1,-9.675976753E0,-1.735394597E0
1.690213868E0,-7.710871100E-1,-9.684949875E0,-1.744965911E0
1.692480713E0,-7.854440212E-1,-9.671191216E0,-1.706680775E0
1.694732056E0,-8.285148144E-1,-9.666405678E0,-1.658824325E0
1.696985656E0,-8.380861282E-1,-9.671191216E0,-1.634896040E0
1.699231445E0,-8.476574421E-1,-9.652048111E0,-1.620539188E0
1.701475402E0,-8.662018180E-1,-9.642477036E0,-1.654038668E0
1.703741883E0,-8.805587292E-1,-9.608977318E0,-1.654038668E0
1.705996215E0,-8.757730722E-1,-9.594620705E0,-1.673181176E0
1.708251525E0,-8.901300430E-1,-9.556335449E0,-1.692323804E0
1.710502014E0,-8.566305041E-1,-9.546764374E0,-1.725225091E0
1.712757202E0,-8.560323119E-1,-9.527621269E0,-1.787438512E0
1.715007203E0,-8.560323119E-1,-9.498908043E0,-1.840080619E0
1.717260254E0,-8.177471161E-1,-9.470193863E0,-1.877767563E0
1.719510742E0,-8.129615188E-1,-9.422337532E0,-1.948953986E0
1.721761719E0,-7.651050687E-1,-9.393623352E0,-2.001596212E0
1.724020935E0,-7.268198729E-1,-9.346364975E0,-2.048854351E0
1.726272888E0,-6.598208547E-1,-9.279366493E0,-2.100300074E0
1.728526611E0,-6.406782866E-1,-9.265008926E0,-2.109871387E0
1.730778686E0,-6.119644046E-1,-9.245866776E0,-2.133799553E0
1.733032287E0,-5.647061467E-1,-9.236295700E0,-2.128415823E0
1.735285461E0,-5.694918036E-1,-9.232108116E0,-2.090130568E0
1.737536254E0,-5.557330847E-1,-9.274580956E0,-2.062014818E0
1.739791443E0,-5.557330847E-1,-9.288937569E0,-2.033301115E0
1.742045410E0,-5.365904570E-1,-9.284749985E0,-1.990230203E0
1.744298035E0,-5.180460811E-1,-9.308678627E0,-1.937588096E0
1.746550720E0,-5.228317380E-1,-9.313464165E0,-1.899302959E0
1.748803282E0,-5.282155871E-1,-9.337391853E0,-1.856232166E0
1.751056456E0,-5.282155871E-1,-9.346963882E0,-1.808973908E0
1.753309264E0,-5.377869010E-1,-9.385248184E0,-1.789831281E0
1.755562194E0,-5.712863803E-1,-9.418747902E0,-1.756929994E0
1.757816406E0,-6.191428304E-1,-9.475577354E0,-1.738385677E0
1.760070311E0,-6.903293133E-1,-9.561718941E0,-1.667199135E0
1.762322631E0,-7.860422134E-1,-9.671191216E0,-1.625324726E0
1.764576292E0,-1.191625714E0,-1.013420200E1,-1.209571838E0
1.766827941E0,-1.119242787E0,-1.023350430E1,-1.415354609E0
1.769081053E0,-8.662018180E-1,-9.942776680E0,-1.646860242E0
1.771333556E0,-7.136593461E-1,-9.723235130E0,-1.744965911E0
1.773587218E0,-6.705885530E-1,-9.671191216E0,-1.811366796E0
1.775840576E0,-7.130611539E-1,-9.675378799E0,-1.864607096E0
1.778095030E0,-8.177471161E-1,-9.756135941E0,-1.865205288E0
1.780346739E0,-8.937192559E-1,-9.827920914E0,-1.861616015E0
1.782599425E0,-9.409775138E-1,-9.860821724E0,-1.866401672E0
1.784852965E0,-9.553344250E-1,-9.856036186E0,-1.909472466E0
1.787106383E0,-8.883354068E-1,-9.770493507E0,-1.947159410E0
1.789358580E0,-8.739784956E-1,-9.746564865E0,-1.970489502E0
1.791608702E0,-8.267202377E-1,-9.722636223E0,-1.999203324E0
1.793865417E0,-7.405785918E-1,-9.669994354E0,-2.089532375E0
1.796119812E0,-7.118647099E-1,-9.650852203E0,-2.136790514E0
1.798369384E0,-6.448656917E-1,-9.631709099E0,-2.179263115E0
1.800611693E0,-5.874379873E-1,-9.598808289E0,-2.251047850E0
1.802877074E0,-5.204389095E-1,-9.574879646E0,-2.307877541E0
1.805130980E0,-4.636093974E-1,-9.546165466E0,-2.340778828E0
1.807387206E0,-3.870390654E-1,-9.546165466E0,-2.426322222E0
1.809637267E0,-3.391826153E-1,-9.488738060E0,-2.449652195E0
1.811890562E0,-2.769692242E-1,-9.479166985E0,-2.511865616E0
1.814144468E0,-2.297109663E-1,-9.464810371E0,-2.525624275E0
1.816396238E0,-1.914258152E-1,-9.440881729E0,-2.516052961E0
1.818648801E0,-1.818545163E-1,-9.436096191E0,-2.535195589E0
1.820902219E0,-1.387837082E-1,-9.412766457E0,-2.558525562E0
1.823155637E0,-1.298106313E-1,-9.403194427E0,-2.515454769E0
1.825408751E0,-1.106680483E-1,-9.388837814E0,-2.505883455E0
1.827661803E0,-9.631111473E-2,-9.364909172E0,-2.500499725E0
1.829915221E0,-1.112662554E-1,-9.336793900E0,-2.457428932E0
1.832169065E0,-1.304088384E-1,-9.317651749E0,-2.452643156E0
1.834417845E0,-1.543370634E-1,-9.327222824E0,-2.400001049E0
1.836662107E0,-1.782652885E-1,-9.308079720E0,-2.390429735E0
1.838926389E0,-2.159522474E-1,-9.322437286E0,-2.357528448E0
1.841180356E0,-2.111666054E-1,-9.303294182E0,-2.400599241E0
1.843436277E0,-2.446661144E-1,-9.298508644E0,-2.362314224E0
1.845686827E0,-2.303091735E-1,-9.288937569E0,-2.405385017E0
1.847939879E0,-2.207378894E-1,-9.274580956E0,-2.423929453E0
1.850193845E0,-1.920240223E-1,-9.221938133E0,-2.457428932E0
1.852445737E0,-1.728814393E-1,-9.198010445E0,-2.519043922E0
1.854698179E0,-1.680957973E-1,-9.159725189E0,-2.523829699E0
1.856951780E0,-1.776670814E-1,-9.160323143E0,-2.461616278E0
1.859204954E0,-1.968096644E-1,-9.155537605E0,-2.413759947E0
1.861458310E0,-1.920240223E-1,-9.160323143E0,-2.423331022E0
1.863711057E0,-1.968096644E-1,-9.155537605E0,-2.480758905E0
1.865964597E0,-2.063809484E-1,-9.174081802E0,-2.490330219E0
1.868218687E0,-2.009970993E-1,-9.202795982E0,-2.509472847E0
1.870467345E0,-2.440679073E-1,-9.231510162E0,-2.452643156E0
1.872710325E0,-2.871387303E-1,-9.284152031E0,-2.405385017E0
1.874976132E0,-3.206382394E-1,-9.345767021E0,-2.410768747E0
1.877229611E0,-2.291127741E-1,-9.278767586E0,-2.572284460E0
1.879486142E0,-1.483550072E-1,-9.198010445E0,-2.648256540E0
1.881735958E0,-6.221338734E-2,-9.087940216E0,-2.737987280E0
1.883989011E0,-2.333002165E-2,-9.054440498E0,-2.852244616E0
1.886243222E0,4.426721856E-2,-9.011369705E0,-3.047857761E0
1.888494748E0,1.304088384E-1,-9.006584167E0,-3.171686411E0
1.890748287E0,1.447657645E-1,-8.977870941E0,-3.229114056E0
1.893001034E0,1.351944804E-1,-8.987442017E0,-3.209971666E0
1.895254391E0,1.495514214E-1,-9.049057007E0,-3.238685369E0
1.897504148E0,1.692921966E-1,-9.091529846E0,-3.368496180E0
1.899747128E0,2.225325108E-1,-9.139386177E0,-3.502494097E0
1.902013608E0,2.518445849E-1,-9.181859016E0,-3.646063566E0
1.904267758E0,3.044866920E-1,-9.201001167E0,-3.708276987E0
1.906523556E0,3.379862010E-1,-9.243474007E0,-3.732205153E0
1.908774228E0,3.092723191E-1,-9.320044518E0,-3.651447296E0
1.911025998E0,3.044866920E-1,-9.386445045E0,-3.671188116E0
1.913278988E0,2.470589429E-1,-9.506086349E0,-3.619144201E0
1.915532162E0,1.657029688E-1,-9.620343208E0,-3.471985579E0
1.917785397E0,1.615155339E-1,-9.705886841E0,-3.563511133E0
1.920038327E0,1.860419661E-1,-9.739386559E0,-3.659224033E0
1.922292660E0,1.956132501E-1,-9.744172096E0,-3.687937975E0
1.924544796E0,1.381855011E-1,-9.815358162E0,-3.659822226E0
1.926797788E0,1.148554832E-1,-9.853643417E0,-3.717848301E0
1.929050229E0,8.673982322E-2,-9.886545181E0,-3.751347780E0
1.931304074E0,3.888336942E-2,-9.910472870E0,-3.728017569E0
1.933556881E0,-1.375873014E-2,-9.977472305E0,-3.637688637E0
1.935809445E0,-1.381855011E-1,-1.010608673E1,-3.495913982E0
1.938062862E0,-2.626122832E-1,-1.024008465E1,-3.339184046E0
1.940317256E0,-4.013960063E-1,-1.036391354E1,-3.183052301E0
1.942569392E0,-4.731806815E-1,-1.042134094E1,-3.059223652E0
1.944822566E0,-4.737788737E-1,-1.036451149E1,-2.991626501E0
1.947075313E0,-4.402793646E-1,-1.020239735E1,-3.014358282E0
1.949327572E0,-4.121637046E-1,-1.004028416E1,-2.998805046E0
1.951577693E0,-4.163511395E-1,-9.911669731E0,-3.041277647E0
1.953834224E0,-4.259224236E-1,-9.806385040E0,-3.093321562E0
1.956087581E0,-4.588237405E-1,-9.716055870E0,-3.102294445E0
1.958342952E0,-4.498506486E-1,-9.596415520E0,-3.116053343E0
1.960594234E0,-4.396811724E-1,-9.458230019E0,-3.177070379E0
1.962847224E0,-4.109672904E-1,-9.353543282E0,-3.205185890E0
1.965100032E0,-4.013960063E-1,-9.262616158E0,-3.238087177E0
1.967353389E0,-3.828516304E-1,-9.186644554E0,-3.223132133E0
1.969603146E0,-3.876372576E-1,-9.129216194E0,-3.189034462E0
1.971843746E0,-3.547359705E-1,-9.105886459E0,-3.126821041E0
1.974101253E0,-3.218346536E-1,-9.058030128E0,-3.083152056E0
1.976362667E0,-2.889333367E-1,-9.044271469E0,-3.025724173E0
1.978606198E0,-2.847459018E-1,-9.039485931E0,-2.953939438E0
1.980859859E0,-2.805584669E-1,-9.063413620E0,-2.843869686E0
1.983108639E0,-2.853440940E-1,-9.087940216E0,-2.777468920E0
1.985368160E0,-3.242274821E-1,-9.078369141E0,-2.676970243E0
1.987634151E0,-3.008974493E-1,-9.068798065E0,-2.600399971E0
1.989887447E0,-3.296113312E-1,-9.069396019E0,-2.552543640E0
1.992140865E0,-3.343969584E-1,-9.102895737E0,-2.495115757E0
1.994391170E0,-3.678964674E-1,-9.154939651E0,-2.433500528E0
1.996643245E0,-4.444667995E-1,-9.217152596E0,-2.357528448E0
1.998896663E0,-5.018945336E-1,-9.279366493E0,-2.282154560E0
2.001149653E0,-5.210371017E-1,-9.317651749E0,-2.243869543E0
2.003403071E0,-4.923232496E-1,-9.321838379E0,-2.315654039E0
2.005655939E0,-5.066801906E-1,-9.331410408E0,-2.306082726E0
2.007909052E0,-5.593222976E-1,-9.374481201E0,-2.258824587E0
2.010162226E0,-5.832505226E-1,-9.412766457E0,-2.197209358E0
2.012416194E0,-6.502495408E-1,-9.436694145E0,-2.145165443E0
2.014665035E0,-7.070791125E-1,-9.479764938E0,-2.087737799E0
2.016908015E0,-7.692924738E-1,-9.546165466E0,-2.002792597E0
2.019173762E0,-8.081758618E-1,-9.565308571E0,-1.945364833E0
2.021427607E0,-8.225327730E-1,-9.589237213E0,-1.907677889E0
2.023683833E0,-8.273184299E-1,-9.580264091E0,-1.893320918E0
2.025933649E0,-8.751748800E-1,-9.556335449E0,-1.845464468E0
2.028187190E0,-9.182456732E-1,-9.589835167E0,-1.792822361E0
2.030437800E0,-9.469595551E-1,-9.599406242E0,-1.750349760E0
2.032677241E0,-9.804590940E-1,-9.608977318E0,-1.735992789E0
2.034935419E0,-9.942178130E-1,-9.589835167E0,-1.745564103E0
2.037198847E0,-1.018146038E0,-9.585049629E0,-1.755135417E0
2.039454341E0,-1.041476011E0,-9.594022751E0,-1.788634896E0
2.041702998E0,-1.051047325E0,-9.594022751E0,-1.817348838E0
2.043958430E0,-1.055832982E0,-9.574879646E0,-1.846062660E0
2.046211726E0,-1.051047325E0,-9.560523033E0,-1.869990945E0
2.048466487E0,-1.069591761E0,-9.598808289E0,-1.899302959E0
2.050714656E0,-1.103091240E0,-9.598808289E0,-1.889731646E0
2.052958491E0,-1.083948612E0,-9.589237213E0,-1.889731646E0
2.055223139E0,-1.050449133E0,-9.546165466E0,-1.898704767E0
2.057476923E0,-1.031306505E0,-9.498908043E0,-1.907677889E0
2.059732783E0,-9.840483069E-1,-9.498908043E0,-1.936391711E0
2.061982722E0,-1.002592683E0,-9.460622787E0,-1.945364833E0
2.064236507E0,-1.017547846E0,-9.479764938E0,-1.902892232E0
2.066490411E0,-1.027119160E0,-9.474979401E0,-1.898106575E0
2.068742365E0,-1.064806104E0,-9.455837250E0,-1.893320918E0
2.070994989E0,-1.050449133E0,-9.436694145E0,-1.941177368E0
2.073248224E0,-1.060020447E0,-9.403194427E0,-1.969292998E0
2.075501886E0,-1.064207911E0,-9.345767021E0,-2.031506538E0
2.077754937E0,-1.064207911E0,-9.336195946E0,-2.083550215E0
2.080008050E0,-1.068395257E0,-9.302696228E0,-2.150549412E0
2.082261346E0,-1.082154036E0,-9.288339615E0,-2.198405743E0
2.084515008E0,-1.106082320E0,-9.316454887E0,-2.188834429E0
2.086767145E0,-1.153938770E0,-9.345169067E0,-2.199003935E0
2.089020746E0,-1.235294700E0,-9.407382011E0,-2.084746838E0
2.091272638E0,-1.277767301E0,-9.426525116E0,-2.056631088E0
2.093526544E0,-1.330409408E0,-9.469595909E0,-1.995015860E0
2.095779290E0,-1.378864050E0,-9.483952522E0,-1.908874273E0
2.098032647E0,-1.421934843E0,-9.464810371E0,-1.813759565E0
2.100285578E0,-1.431506157E0,-9.483952522E0,-1.804188251E0
2.102539973E0,-1.484148264E0,-9.517452240E0,-1.752144337E0
2.104791925E0,-1.527219057E0,-9.555737495E0,-1.680957913E0
2.107045159E0,-1.555932879E0,-9.617950439E0,-1.633101463E0
2.109296747E0,-1.603789330E0,-9.641280174E0,-1.590628862E0
2.111547235E0,-1.594218135E0,-9.650852203E0,-1.600200176E0
2.113804010E0,-1.594218135E0,-9.631709099E0,-1.595414519E0
2.116056939E0,-1.651645780E0,-9.613164902E0,-1.552343726E0
2.118311212E0,-1.618744493E0,-9.589237213E0,-1.485344648E0
2.120564630E0,-1.594816327E0,-9.579665184E0,-1.499103427E0
2.122816889E0,-1.537986755E0,-9.522835732E0,-1.503290772E0
2.125070856E0,-1.490130305E0,-9.498908043E0,-1.532004714E0
2.127322626E0,-1.447059512E0,-9.470193863E0,-1.526620865E0
2.129575798E0,-1.428515077E0,-9.442078590E0,-1.497906923E0
2.131828545E0,-1.347757339E0,-9.403793335E0,-1.511665702E0
2.134082024E0,-1.314257860E0,-9.375079155E0,-1.511067510E0
2.136334893E0,-1.286142230E0,-9.355937004E0,-1.511067510E0
2.138589287E0,-1.238285661E0,-9.346963882E0,-1.481755376E0
2.140841179E0,-1.200598717E0,-9.342177391E0,-1.476969719E0
2.143094537E0,-1.176670551E0,-9.342177391E0,-1.486541033E0
2.145347283E0,-1.124626637E0,-9.351749420E0,-1.457229018E0
2.147600517E0,-1.110269666E0,-9.346963882E0,-1.438086390E0
2.149850701E0,-1.086939692E0,-9.337391853E0,-1.395015597E0
2.152094719E0,-1.043868899E0,-9.356534958E0,-1.423729420E0
2.154359551E0,-1.029511929E0,-9.351749420E0,-1.481157184E0
2.156613945E0,-1.005583763E0,-9.346963882E0,-1.495514154E0
2.158869133E0,-9.768698215E-1,-9.327820778E0,-1.499701619E0
2.161119439E0,-1.005583763E0,-9.327820778E0,-1.499701619E0
2.163372002E0,-9.619147182E-1,-9.232706070E0,-1.623530149E0
2.165625359E0,-1.067797065E0,-9.108877182E0,-1.469791293E0
2.167878288E0,-1.096511006E0,-8.842078209E0,-1.415952802E0
2.170131401E0,-9.960124493E-1,-8.507680893E0,-1.633101463E0
2.172384453E0,-8.949156404E-1,-8.225926399E0,-1.860419631E0
2.174638848E0,-7.842476368E-1,-8.011170387E0,-2.155334949E0
2.176890740E0,-6.879364848E-1,-7.881958008E0,-2.392822742E0
2.179143791E0,-7.022934556E-1,-7.896314621E0,-2.316850424E0
2.181396599E0,-7.130611539E-1,-7.944769382E0,-2.144567251E0
2.183650078E0,-7.184450030E-1,-8.111668587E0,-1.959721804E0
2.185903130E0,-6.418746710E-1,-8.435895920E0,-2.018345833E0
2.188152398E0,-7.118647099E-1,-9.159725189E0,-2.186441660E0
2.190396050E0,-1.077966571E0,-1.022752190E1,-2.060818434E0
2.192661918E0,-1.564307809E0,-1.123849010E1,-1.619940877E0
2.194915581E0,-1.980060697E0,-1.193958664E1,-1.133599758E0
2.197172721E0,-2.204986095E0,-1.225484085E1,-8.309076428E-1
2.199419975E0,-2.295913219E0,-1.226441288E1,-7.160521746E-1
2.201670157E0,-2.200798512E0,-1.206879902E1,-7.908278704E-1
2.203927665E0,-2.029113531E0,-1.176371479E1,-9.511470199E-1
2.206181144E0,-1.789831281E0,-1.143410301E1,-1.215553880E0
2.208435172E0,-1.550549030E0,-1.112901783E1,-1.528415442E0
2.210688163E0,-1.331007600E0,-1.083769226E1,-1.807777524E0
2.212940299E0,-1.162911773E0,-1.053739262E1,-2.082353830E0
2.215190117E0,-1.005583763E0,-1.026042366E1,-2.237887383E0
2.217433097E0,-9.056833982E-1,-9.969695091E0,-2.316850424E0
2.219698844E0,-8.530412912E-1,-9.688538551E0,-2.343171597E0
2.221952567E0,-8.105686903E-1,-9.450452805E0,-2.322234392E0
2.224208976E0,-7.824530005E-1,-9.259625435E0,-2.311466694E0
2.226459282E0,-7.591229677E-1,-9.121439934E0,-2.258226395E0
2.228712821E0,-7.118647099E-1,-9.007183075E0,-2.209173441E0
2.230964896E0,-6.741777658E-1,-8.902496338E0,-2.151147604E0
2.233217521E0,-6.550351977E-1,-8.845666885E0,-2.112264156E0
2.235470390E0,-6.317051649E-1,-8.845666885E0,-2.088335991E0
2.237724235E0,-6.125625968E-1,-8.845666885E0,-2.059622049E0
2.239977347E0,-5.892325640E-1,-8.836095810E0,-2.054238319E0
2.242230765E0,-5.461617708E-1,-8.855237961E0,-2.063809633E0
2.244483817E0,-5.174478889E-1,-8.879166603E0,-2.111665964E0
2.246737662E0,-4.600201547E-1,-8.879166603E0,-2.121237278E0
2.248989371E0,-4.265206456E-1,-8.888737679E0,-2.169093609E0
2.251239493E0,-3.601198196E-1,-8.912666321E0,-2.207378864E0
2.253482169E0,-3.355933726E-1,-8.907880783E0,-2.278565407E0
2.255748527E0,-2.781656384E-1,-8.926424980E0,-2.340778828E0
2.258002066E0,-2.494517565E-1,-8.926424980E0,-2.383849621E0
2.260258352E0,-2.261217386E-1,-8.921639442E0,-2.364706993E0
2.262508597E0,-2.117647976E-1,-8.959924698E0,-2.374278307E0
2.264762320E0,-2.021935135E-1,-8.959924698E0,-2.374278307E0
2.267014579E0,-1.830509305E-1,-8.988637924E0,-2.398206472E0
2.269269583E0,-1.686939895E-1,-9.017352104E0,-2.402992249E0
2.271524710E0,-1.872383654E-1,-9.036494255E0,-2.426920414E0
2.273773367E0,-2.063809484E-1,-9.069396019E0,-2.432304144E0
2.276026541E0,-2.440679073E-1,-9.088538170E0,-2.499303341E0
2.278278800E0,-2.817548811E-1,-9.107083321E0,-2.533401012E0
2.280533194E0,-3.194418252E-1,-9.159725189E0,-2.590828657E0
2.282787039E0,-3.810569942E-1,-9.197412491E0,-2.644068956E0
2.285039175E0,-4.713860750E-1,-9.178269386E0,-2.673381090E0
2.287291800E0,-5.234299302E-1,-9.278169632E0,-2.731407166E0
2.289543448E0,-5.515456200E-1,-9.315856934E0,-2.760719061E0
2.291797781E0,-5.892325640E-1,-9.358927727E0,-2.803789854E0
2.294051687E0,-6.083751321E-1,-9.425328255E0,-2.837887764E0
2.296304739E0,-6.412764788E-1,-9.510871887E0,-2.895913601E0
2.298557181E0,-7.166503668E-1,-9.596415520E0,-2.968894720E0
2.300811636E0,-7.543373108E-1,-9.710672379E0,-3.046063185E0
2.303063833E0,-8.249256015E-1,-9.786644936E0,-3.128017426E0
2.305317008E0,-8.434699774E-1,-9.853045464E0,-3.272184849E0
2.307569754E0,-8.805587292E-1,-9.943374634E0,-3.406781197E0
2.309823111E0,-9.272187948E-1,-1.000020409E1,-3.503092289E0
2.312076040E0,-9.744769931E-1,-1.006181908E1,-3.585046530E0
2.314325674E0,-1.006780148E0,-1.010907745E1,-3.757927895E0
2.316569143E0,-1.048654556E0,-1.013719273E1,-3.920639992E0
2.318836111E0,-1.100100160E0,-1.016530895E1,-4.036093712E0
2.321088552E0,-1.123430252E0,-1.019880867E1,-4.170091629E0
2.323344838E0,-1.131805062E0,-1.021256733E1,-4.328018188E0
2.325594716E0,-1.145563841E0,-1.020718288E1,-4.462016106E0
2.327847829E0,-1.140179992E0,-1.023111153E1,-4.543372154E0
2.330101003E0,-1.125823021E0,-1.024487019E1,-4.605585575E0
2.332353810E0,-1.110867858E0,-1.027358437E1,-4.686941147E0
2.334607045E0,-1.063011408E0,-1.027358437E1,-4.768297195E0
2.336860951E0,-1.010369420E0,-1.028315544E1,-4.791627407E0
2.339113455E0,-9.577272534E-1,-1.034955597E1,-4.816154003E0
2.341367421E0,-9.242277741E-1,-1.046859932E1,-4.864608288E0
2.343619374E0,-8.769695163E-1,-1.056431198E1,-4.774279594E0
2.345872731E0,-8.063812256E-1,-1.066481018E1,-4.664209366E0
2.348125356E0,-6.783652306E-1,-1.065105152E1,-4.634897232E0
2.350375174E0,-4.929214716E-1,-1.053200912E1,-4.585844517E0
2.352618460E0,-2.889333367E-1,-1.041296577E1,-4.593621254E0
2.354885610E0,-1.136590764E-1,-1.035194874E1,-4.482355118E0
2.357137868E0,7.597211748E-2,-1.029990482E1,-4.409373760E0
2.359393484E0,2.895315289E-1,-1.015274620E1,-4.307080746E0
2.361640309E0,5.455635786E-1,-9.996016502E0,-4.247858524E0
2.363897145E0,7.399803996E-1,-9.891330719E0,-4.146163464E0
2.366150197E0,7.950153351E-1,-1.004028416E1,-3.792623997E0
2.368403921E0,7.453642488E-1,-1.034596729E1,-3.364308596E0
2.370656912E0,7.770691514E-1,-1.052303600E1,-3.068794966E0
2.372910512E0,8.039883971E-1,-1.066241741E1,-2.701496840E0
2.375162587E0,8.973084688E-1,-1.073480034E1,-2.323430777E0
2.377415700E0,9.236295223E-1,-1.078804111E1,-1.955534339E0
2.379668874E0,9.978070259E-1,-1.080359459E1,-1.596610904E0
2.381922108E0,1.063011408E0,-1.082333469E1,-1.323829174E0
2.384175220E0,1.113858938E0,-1.079521942E1,-1.065404296E0
2.386424610E0,1.188634634E0,-1.074377346E1,-9.260223508E-1
2.388667530E0,1.198205948E0,-1.071027374E1,-9.110672474E-1
2.390934864E0,1.165304661E0,-1.069591713E1,-9.164510965E-1
2.393187183E0,1.103689432E0,-1.068096161E1,-1.016949654E0
2.395441090E0,1.033699393E0,-1.069472122E1,-1.203589797E0
2.397678883E0,9.678967595E-1,-1.072762203E1,-1.386042476E0
2.399932545E0,8.739784956E-1,-1.076530933E1,-1.587637782E0
2.402186939E0,7.704889178E-1,-1.075513935E1,-1.755135417E0
2.404452869E0,6.101697683E-1,-1.075454140E1,-1.990230203E0
2.406696461E0,4.683950245E-1,-1.074437141E1,-2.139183521E0
2.408963062E0,2.261217386E-1,-1.068156052E1,-2.273779631E0
2.411212270E0,1.734796353E-2,-1.062413216E1,-2.346162558E0
2.413469105E0,-2.195414752E-1,-1.059003448E1,-2.423331022E0
2.415713917E0,-4.803591371E-1,-1.060379314E1,-2.568096876E0
2.417958179E0,-7.884350419E-1,-1.061695385E1,-2.751147747E0
2.420224293E0,-1.130010486E0,-1.067378330E1,-2.882154942E0
2.422477894E0,-1.494915962E0,-1.072044373E1,-3.084946632E0
2.424734181E0,-1.897508383E0,-1.080000496E1,-3.397808075E0
2.426984791E0,-2.299502611E0,-1.092263699E1,-3.716053486E0
2.429236927E0,-2.730210543E0,-1.099262714E1,-4.043272018E0
2.431489857E0,-3.075375319E0,-1.104347515E1,-4.442275047E0
2.433742481E0,-3.410968781E0,-1.104706383E1,-4.778466702E0
2.435995716E0,-3.722633839E0,-1.105065346E1,-5.119443893E0
2.438249195E0,-3.982254982E0,-1.099202919E1,-5.483751297E0
2.440502370E0,-4.190430641E0,-1.090528965E1,-5.713462353E0
2.442755666E0,-4.336990833E0,-1.077607632E1,-5.928816319E0
2.445009692E0,-4.407579422E0,-1.061815071E1,-6.042475224E0
2.447261584E0,-4.398007870E0,-1.042792130E1,-6.041278839E0
2.449511890E0,-4.341776848E0,-1.023709393E1,-5.968297958E0
2.451753467E0,-4.247858524E0,-1.003789139E1,-5.736792088E0
2.454007983E0,-4.092923164E0,-9.790832520E0,-5.400002480E0
2.456274096E0,-3.924229145E0,-9.610772133E0,-4.977071285E0
2.458529712E0,-3.713062525E0,-9.421739578E0,-4.511068821E0
2.460783679E0,-3.488137245E0,-9.299705505E0,-3.973282099E0
2.463034289E0,-3.244069338E0,-9.139386177E0,-3.363710403E0
2.465286242E0,-2.976073265E0,-9.021539688E0,-2.831307411E0
2.467539233E0,-2.723032236E0,-8.904291153E0,-2.173879385E0
2.469789050E0,-2.474178553E0,-8.810971260E0,-1.584048629E0
2.472032336E0,-2.215753794E0,-8.745766640E0,-1.094716311E0
2.474298510E0,-1.960918188E0,-8.685347557E0,-6.819544435E-1
2.476551623E0,-1.706082582E0,-8.671588898E0,-4.366901219E-1
2.478808399E0,-1.497308731E0,-8.672187805E0,-3.403790295E-1
2.481059010E0,-1.307079315E0,-8.696115494E0,-3.589234054E-1
2.483311207E0,-1.106680512E0,-8.724829674E0,-4.486542344E-1
2.485561756E0,-8.871390224E-1,-8.758329391E0,-6.107679605E-1
2.487800525E0,-6.951149702E-1,-8.743373871E0,-8.919246197E-1
2.490057971E0,-4.983053207E-1,-8.790632248E0,-1.231107235E0
2.492322925E0,-3.110669553E-1,-8.813961983E0,-1.570289850E0
2.494579822E0,-1.286142170E-1,-8.851649284E0,-1.908874273E0
2.496832446E0,7.776673883E-2,-8.898907661E0,-2.233700037E0
2.499083178E0,2.219343036E-1,-8.922237396E0,-2.558525562E0
2.501335559E0,3.433700502E-1,-8.954540253E0,-3.026920557E0
2.503588855E0,4.313062727E-1,-9.049057007E0,-3.390629768E0
2.505841784E0,5.324030519E-1,-9.129815102E0,-3.605983734E0
2.508094896E0,6.089733839E-1,-9.220144272E0,-3.692125320E0
2.510348070E0,7.046862841E-1,-9.267401695E0,-3.850051641E0
2.512601122E0,7.573283911E-1,-9.343972206E0,-3.940979004E0
2.514850939E0,8.626125455E-1,-9.381659508E0,-4.036691666E0
2.517095201E0,9.248259664E-1,-9.448657990E0,-4.084548473E0
2.519358813E0,1.043868899E0,-9.472586632E0,-4.127619267E0
2.521609851E0,1.105484009E0,-9.448657990E0,-4.112663746E0
2.523869616E0,1.110269666E0,-9.458230019E0,-4.093521118E0
2.526119799E0,1.081555843E0,-9.477372169E0,-3.998406649E0
2.528373156E0,1.023529887E0,-9.506086349E0,-3.888336897E0
2.530625902E0,1.018744230E0,-9.511469841E0,-3.874577999E0
2.532879137E0,9.900303483E-1,-9.473184586E0,-3.873979807E0
2.535132616E0,9.236295223E-1,-9.468399048E0,-3.812364578E0
2.537385179E0,8.853443861E-1,-9.420542717E0,-3.778865099E0
2.539638292E0,7.657032609E-1,-9.391828537E0,-3.711866140E0
2.541891161E0,7.130611539E-1,-9.334999084E0,-3.668795347E0
2.544144396E0,6.131607890E-1,-9.277571678E0,-3.620938778E0
2.546397325E0,5.318048596E-1,-9.163313866E0,-3.491726398E0
2.548650560E0,4.265206456E-1,-9.072985649E0,-3.457628727E0
2.550900683E0,3.361915946E-1,-8.967700958E0,-3.467200041E0
2.553144640E0,2.362912297E-1,-8.853444099E0,-3.423531055E0
2.555409838E0,1.363908947E-1,-8.748159409E0,-3.428316593E0
2.557663988E0,1.734796353E-2,-8.619544983E0,-3.413361549E0
2.559919237E0,-8.733802289E-2,-8.486145973E0,-3.384647608E0
2.562169482E0,-1.686939895E-1,-8.371290207E0,-3.393620729E0
2.564422228E0,-2.584248483E-1,-8.242675781E0,-3.455235958E0
2.566675035E0,-3.678964674E-1,-8.103892326E0,-3.478565931E0
2.568927965E0,-4.295116663E-1,-7.965706348E0,-3.458825111E0
2.571181931E0,-5.150550604E-1,-7.827520847E0,-3.496512175E0
2.573434496E0,-6.293123364E-1,-7.703094482E0,-3.553939819E0
2.575687791E0,-7.292127013E-1,-7.602595806E0,-3.572484255E0
2.577940659E0,-8.476574421E-1,-7.464410305E0,-3.644268990E0
2.580193772E0,-9.565308690E-1,-7.296912670E0,-3.715455294E0
2.582446946E0,-1.061216831E0,-7.115656376E0,-3.781257868E0
2.584700059E0,-1.179661512E0,-6.938587666E0,-3.862015724E0
2.586950059E0,-1.284347534E0,-6.853044033E0,-3.866801500E0
2.589194138E0,-1.388435364E0,-6.781259537E0,-3.914657831E0
2.591458787E0,-1.517049551E0,-6.742974281E0,-3.905086517E0
2.593712084E0,-1.693520188E0,-6.771090031E0,-3.800998688E0
2.595968492E0,-1.817348838E0,-6.766304016E0,-3.758526087E0
2.598218674E0,-1.907677889E0,-6.742375851E0,-3.725026608E0
2.600471360E0,-2.021935225E0,-6.742375851E0,-3.658625841E0
2.602724473E0,-2.108076811E0,-6.742974281E0,-3.568296671E0
2.604977953E0,-2.193620205E0,-6.780661106E0,-3.559323788E0
2.607232163E0,-2.250449657E0,-6.823731899E0,-3.607778311E0
2.609484055E0,-2.273779631E0,-6.823133945E0,-3.693919897E0
2.611736985E0,-2.259422779E0,-6.832705021E0,-3.760919094E0
2.613988389E0,-2.282752752E0,-6.870391846E0,-3.803989887E0
2.616237290E0,-2.254039049E0,-6.903891563E0,-3.866203070E0
2.618495774E0,-2.253440619E0,-6.908079147E0,-3.990629911E0
2.620749436E0,-2.229512453E0,-6.927221775E0,-4.028914928E0
2.623004319E0,-2.196012974E0,-6.922435760E0,-4.067200184E0
2.625256883E0,-2.162513494E0,-6.922435760E0,-4.105485439E0
2.627509020E0,-2.152942181E0,-6.912864685E0,-4.052843571E0
2.629763108E0,-2.134397745E0,-6.918248653E0,-3.971487284E0
2.632014756E0,-2.139781713E0,-6.951747894E0,-3.823132277E0
2.634267929E0,-2.149951220E0,-6.947560310E0,-3.717848301E0
2.636520554E0,-2.150549412E0,-6.952346325E0,-3.665206194E0
2.638774032E0,-2.145763636E0,-6.994818687E0,-3.670589924E0
2.641027512E0,-2.178664923E0,-7.009175777E0,-3.713660717E0
2.643281418E0,-2.249851465E0,-7.056434155E0,-3.742972851E0
2.645533372E0,-2.277967215E0,-7.099504948E0,-3.805784464E0
2.647786545E0,-2.310868502E0,-7.146762848E0,-3.867997885E0
2.650039901E0,-2.282154560E0,-7.151548862E0,-3.906282902E0
2.652294479E0,-2.263011932E0,-7.146762848E0,-3.925425529E0
2.654545273E0,-2.219941139E0,-7.118049145E0,-4.010969162E0
2.656798691E0,-2.200200319E0,-7.127620220E0,-4.082753658E0
2.659051742E0,-2.171486616E0,-7.132406235E0,-4.140181541E0
2.661306442E0,-2.109273195E0,-7.127022266E0,-4.220939159E0
2.663558273E0,-2.061416626E0,-7.136593342E0,-4.283152580E0
2.665811204E0,-1.999203324E0,-7.131807804E0,-4.350151539E0
2.668064011E0,-1.913061738E0,-7.131807804E0,-4.402195454E0
2.670317184E0,-1.822732687E0,-7.136593342E0,-4.420739651E0
2.672570175E0,-1.732403636E0,-7.150950432E0,-4.420739651E0
2.674823349E0,-1.666002750E0,-7.108478069E0,-4.424927235E0
2.677076829E0,-1.604387641E0,-7.103692055E0,-4.362115860E0
2.679329819E0,-1.509871125E0,-7.061219692E0,-4.265804768E0
2.681579025E0,-1.429711580E0,-7.037889481E0,-4.189234257E0
2.683835861E0,-1.339980721E0,-7.004988194E0,-4.092923164E0
2.686088547E0,-1.273579836E0,-6.961917400E0,-4.025325775E0
2.688342087E0,-1.231107235E0,-6.909873486E0,-3.952943087E0
2.690594894E0,-1.212562919E0,-6.876972198E0,-3.909872293E0
2.692848312E0,-1.188634634E0,-6.838686943E0,-3.899702787E0
2.695101914E0,-1.193420291E0,-6.805187702E0,-3.894917011E0
2.697355330E0,-1.174277663E0,-6.771687984E0,-3.908675671E0
2.699607406E0,-1.212562919E0,-6.728617191E0,-3.946960926E0
2.701861983E0,-1.245464206E0,-6.685546398E0,-3.961317778E0
2.704113692E0,-1.307677627E0,-6.638288021E0,-3.965505362E0
2.706366989E0,-1.364507079E0,-6.609574318E0,-3.975674868E0
2.708619735E0,-1.416550994E0,-6.561717987E0,-4.032504559E0
2.710873091E0,-1.463809252E0,-6.522834301E0,-4.109074593E0
2.713124373E0,-1.539781332E0,-6.498906136E0,-4.142574310E0
2.715373091E0,-1.625324726E0,-6.470192432E0,-4.152743816E0
2.717631943E0,-1.724626899E0,-6.451049805E0,-4.176671982E0
2.719885482E0,-1.800599098E0,-6.446264267E0,-4.196412563E0
2.722140059E0,-1.900499344E0,-6.469594002E0,-4.216153622E0
2.724391585E0,-1.966900229E0,-6.488736629E0,-4.254438877E0
2.726644576E0,-2.090728760E0,-6.507879257E0,-4.226323128E0
2.728897322E0,-2.185843468E0,-6.540780544E0,-4.241278172E0
2.731151107E0,-2.280359983E0,-6.583253384E0,-4.275375843E0
2.733405074E0,-2.375474691E0,-6.616752625E0,-4.314259052E0
2.735656723E0,-2.432304144E0,-6.664011002E0,-4.319643021E0
2.737910080E0,-2.503490686E0,-6.731009960E0,-4.344767570E0
2.740162948E0,-2.598007202E0,-6.797410965E0,-4.417150497E0
2.742416548E0,-2.678765059E0,-6.863811970E0,-4.456034184E0
2.744669600E0,-2.739781857E0,-6.954140663E0,-4.543372154E0
2.746922530E0,-2.806182861E0,-7.006184578E0,-4.582255363E0
2.749175766E0,-2.877369165E0,-7.082156658E0,-4.640281200E0
2.751429061E0,-2.962314367E0,-7.182057381E0,-4.693521500E0
2.753681685E0,-3.110071182E0,-7.262814999E0,-4.646861553E0
2.755934432E0,-3.165106058E0,-7.314858913E0,-4.977669239E0
2.758187789E0,-2.935395241E0,-7.555337429E0,-6.145366669E0
2.760441024E0,-2.940778971E0,-7.588837147E0,-5.944967747E0
2.762694074E0,-3.017349243E0,-7.505088329E0,-5.083551884E0
2.764947187E0,-3.018545866E0,-7.482356548E0,-4.782055855E0
2.767200605E0,-2.854039192E0,-7.462017536E0,-5.340780258E0
2.769454389E0,-2.852842808E0,-7.533204079E0,-5.532804012E0
2.771706221E0,-2.944966555E0,-7.619345665E0,-5.213362217E0
2.773960554E0,-3.047857761E0,-7.682755470E0,-4.697709084E0
2.776212202E0,-3.144168854E0,-7.730611801E0,-4.439882278E0
2.778465621E0,-3.157927752E0,-7.787441254E0,-4.464408875E0
2.780718672E0,-3.195614576E0,-7.868797302E0,-4.541577339E0
2.782972089E0,-3.209373474E0,-7.935198307E0,-4.666602135E0
2.785225691E0,-3.218346357E0,-8.030312538E0,-4.710271358E0
2.787480451E0,-3.251247883E0,-8.072785378E0,-4.791627407E0
2.789730573E0,-3.112463951E0,-8.053643227E0,-4.953741074E0
2.791984296E0,-2.955136061E0,-8.029714584E0,-5.015356064E0
2.794233503E0,-2.851048231E0,-8.015955925E0,-4.952544689E0
2.796477217E0,-2.775674343E0,-8.006982803E0,-4.798805714E0
2.798743087E0,-2.666800737E0,-8.011768341E0,-4.779663086E0
2.800996687E0,-2.542972326E0,-8.006982803E0,-4.740779877E0
2.803253218E0,-2.481357098E0,-8.017151833E0,-4.701896667E0
2.805503950E0,-2.453839540E0,-8.074580193E0,-4.578067780E0
2.807755964E0,-2.434697151E0,-8.151150703E0,-4.526023865E0
2.810009688E0,-2.401197433E0,-8.169694901E0,-4.569094658E0
2.812264814E0,-2.372483730E0,-8.217551231E0,-4.650450706E0
2.814512617E0,-2.385644197E0,-8.288737297E0,-4.789832592E0
2.816757612E0,-2.389831543E0,-8.350353241E0,-4.971687317E0
2.819020125E0,-2.301895380E0,-8.368298531E0,-5.349154949E0
2.821274520E0,-2.291725874E0,-8.415556908E0,-5.483751297E0
2.823528120E0,-2.248056889E0,-8.439485550E0,-5.669793129E0
2.825768841E0,-2.256431818E0,-8.505288124E0,-5.818746567E0
2.828033856E0,-2.125424623E0,-8.599804878E0,-6.239883423E0
2.830285993E0,-1.990828395E0,-8.709276199E0,-6.560521603E0
2.832537457E0,-1.847259045E0,-8.766105652E0,-6.665207386E0
2.834779889E0,-1.747956991E0,-8.709276199E0,-6.607181549E0
2.837046063E0,-1.620539188E0,-8.581260681E0,-6.424130440E0
2.839299115E0,-1.465005636E0,-8.410173416E0,-6.221338749E0
2.841552960E0,-1.375872970E0,-8.210970879E0,-6.052046776E0
2.843805585E0,-1.324427366E0,-8.020143509E0,-5.950351715E0
2.846059369E0,-1.305284739E0,-7.834699631E0,-5.915655613E0
2.848311811E0,-1.300499082E0,-7.715656757E0,-5.943173409E0
2.850561262E0,-1.372283816E0,-7.643871784E0,-5.900102615E0
2.852803998E0,-1.463211060E0,-7.639086246E0,-5.800201893E0
2.855070538E0,-1.558923960E0,-7.758727551E0,-5.629115105E0
2.857324201E0,-1.636092424E0,-7.931010723E0,-5.391627789E0
2.859581647E0,-1.636092424E0,-8.111668587E0,-5.368896008E0
2.861830304E0,-1.593021631E0,-8.288139343E0,-5.412564754E0
2.864083172E0,-1.521237016E0,-8.493324280E0,-5.452046394E0
2.866335980E0,-1.421336651E0,-8.702695847E0,-5.496313572E0
2.868589093E0,-1.297508121E0,-8.936594009E0,-5.520840168E0
2.870841900E0,-1.182652593E0,-9.203393936E0,-5.569892883E0
2.873095379E0,-1.106680512E0,-9.561120987E0,-5.577071190E0
2.875349103E0,-1.064207911E0,-9.899705887E0,-5.497509956E0
2.877603071E0,-1.064207911E0,-1.032921696E1,-5.395216942E0
2.879854963E0,-1.064806104E0,-1.073480034E1,-5.277968407E0
2.882108014E0,-1.107876897E0,-1.115892887E1,-5.118845940E0
2.884360699E0,-1.194616675E0,-1.162193966E1,-4.872983456E0
2.886610883E0,-1.314856052E0,-1.210409355E1,-4.561318398E0
2.888853985E0,-1.463211060E0,-1.263829136E1,-4.345366001E0
2.891119794E0,-1.634896040E0,-1.316710472E1,-4.201198578E0
2.893373700E0,-1.824527264E0,-1.371984673E1,-4.162913322E0
2.895630840E0,-2.075773716E0,-1.427258873E1,-4.272384644E0
2.897879497E0,-2.336591244E0,-1.483908939E1,-4.339384079E0
2.900131939E0,-2.601596355E0,-1.538166237E1,-4.430311203E0
2.902385296E0,-2.843271494E0,-1.586740494E1,-4.601995945E0
2.904638530E0,-3.069991350E0,-1.633340645E1,-4.797011375E0
2.906891948E0,-3.267997503E0,-1.671865273E1,-5.044668198E0
2.909145183E0,-3.470789194E0,-1.709911156E1,-5.306084156E0
2.911398358E0,-3.696911097E0,-1.740838242E1,-5.586642742E0
2.913652447E0,-3.862015724E0,-1.766441536E1,-5.870790482E0
2.915906048E0,-4.040280819E0,-1.787318802E1,-6.274579048E0
2.918158123E0,-4.208376884E0,-1.801496315E1,-6.750152588E0
2.920410320E0,-4.353142738E0,-1.806102562E1,-7.262814999E0
2.922663067E0,-4.487739086E0,-1.808794403E1,-7.846663475E0
2.924916485E0,-4.642076015E0,-1.801974869E1,-8.349156380E0
2.927169719E0,-4.749154568E0,-1.788515282E1,-8.736195564E0
2.929421612E0,-4.785645485E0,-1.767458534E1,-9.031708717E0
2.931672222E0,-4.832903385E0,-1.735514259E1,-9.159127235E0
2.933928692E0,-4.889732838E0,-1.693041611E1,-9.242876053E0
2.936181621E0,-4.885545731E0,-1.640160370E1,-9.220144272E0
2.938436138E0,-4.883152962E0,-1.571127319E1,-8.856434822E0
2.940688396E0,-4.896911621E0,-1.490249920E1,-8.200801849E0
2.942941449E0,-4.935794830E0,-1.395135212E1,-7.233502865E0
2.945194439E0,-4.914857864E0,-1.284826088E1,-6.054439545E0
2.947447674E0,-4.837090969E0,-1.165005493E1,-4.745565414E0
2.949700176E0,-4.755734921E0,-1.035733318E1,-3.315854073E0
2.951947062E0,-4.674977303E0,-8.979066849E0,-1.737787485E0
2.954206461E0,-4.570291042E0,-7.604988575E0,-1.357926875E-1
2.956459513E0,-4.507479668E0,-6.250052929E0,1.298704505E0
2.958714396E0,-4.462614059E0,-4.928018093E0,2.459821701E0
2.960966045E0,-4.416552544E0,-3.681357622E0,3.458226919E0
2.963219096E0,-4.350749969E0,-2.520838737E0,4.274777889E0
2.965472392E0,-4.269393921E0,-1.459621787E0,4.970490932E0
2.967726481E0,-4.155136585E0,-4.935196638E-1,5.594419479E0
2.969978251E0,-3.987040758E0,2.961117923E-1,6.145366669E0
2.972230877E0,-3.838087559E0,9.290133715E-1,6.628716946E0
2.974484233E0,-3.635894060E0,1.351944804E0,6.943373203E0
2.976737711E0,-3.369692564E0,1.537388563E0,6.907480717E0
2.978991007E0,-3.087339401E0,1.576271892E0,6.578467846E0
2.981243815E0,-2.784049034E0,1.372283816E0,5.985645771E0
2.983497234E0,-2.479562521E0,9.780662656E-1,5.056632519E0
2.985751017E0,-2.200798512E0,4.516452849E-1,3.791427374E0
2.988002970E0,-1.840080619E0,-1.836491376E-1,2.253440619E0
2.990256754E0,-1.455434322E0,-8.620143533E-1,6.819544435E-1
2.992509074E0,-9.619147182E-1,-1.669592023E0,-8.566305041E-1
2.994762126E0,-4.115654826E-1,-2.529811859E0,-2.227717876E0
2.997014994E0,1.172483116E-1,-3.534198999E0,-3.183650494E0
2.999269206E0,7.160521746E-1,-4.701298237E0,-3.853640795E0
3.001527079E0,1.322034478E0,-5.955137253E0,-4.069592953E0
3.003775859E0,1.930409670E0,-7.319644451E0,-3.918246984E0
3.006027995E0,2.446063042E0,-8.766105652E0,-3.289532900E0
3.008279155E0,2.817548752E0,-1.022752190E1,-2.292922258E0
3.010533854E0,2.958725214E0,-1.163689518E1,-1.058225870E0
3.012788249E0,2.913261652E0,-1.293260860E1,4.683950245E-1
3.015041910E0,2.844467878E0,-1.399382496E1,1.891526341E0
3.017283121E0,2.724228621E0,-1.486899948E1,3.147758245E0
3.019546793E0,2.638685226E0,-1.549053574E1,4.009174347E0
3.021799601E0,2.584248543E0,-1.584886074E1,4.422534466E0
3.024054972E0,2.532204628E0,-1.598226070E1,4.450051785E0
3.026305765E0,2.547757864E0,-1.583869171E1,4.125824451E0
3.028558450E0,2.574677229E0,-1.544148254E1,3.511467218E0
3.030811929E0,2.565105915E0,-1.493420410E1,2.668595552E0
3.033064615E0,2.574079037E0,-1.429352570E1,1.744965911E0
3.035317239E0,2.545963287E0,-1.364267826E1,7.585247755E-1
3.037571207E0,2.542374134E0,-1.296790218E1,-3.367897868E-1
3.039825418E0,2.476571321E0,-1.234098244E1,-1.438086390E0
3.042077677E0,2.320439816E0,-1.173739338E1,-2.496312141E0
3.044330241E0,2.077568293E0,-1.117747307E1,-3.436093330E0
3.046583048E0,1.810170293E0,-1.062233829E1,-4.165306091E0
3.048836099E0,1.541576028E0,-1.013479996E1,-4.641477585E0
3.051086039E0,1.290927768E0,-9.714262009E0,-4.883750916E0
3.053330667E0,9.667003751E-1,-9.356534958E0,-4.786841869E0
3.055595927E0,7.034898400E-1,-9.032307625E0,-4.503890514E0
3.057850137E0,4.097708762E-1,-8.776275635E0,-3.910470486E0
3.060105264E0,1.674975902E-1,-8.592027664E0,-3.049054146E0
3.062356363E0,-1.435693540E-2,-8.427521706E0,-2.025524378E0
3.064607767E0,-2.961117923E-1,-8.324629784E0,-9.690931439E-1
3.066861185E0,-5.252245665E-1,-8.264809608E0,6.340979785E-2
3.069113748E0,-6.963114142E-1,-8.199604988E0,9.002995491E-1
3.071367044E0,-8.087740541E-1,-8.177471161E0,1.517049551E0
3.073620584E0,-8.871390224E-1,-8.187641144E0,1.937588096E0
3.075874979E0,-9.690931439E-1,-8.235497475E0,2.142174482E0
3.078126931E0,-9.547362328E-1,-8.283353806E0,2.113460541E0
3.080379860E0,-9.403793216E-1,-8.331210136E0,2.108076811E0
3.082632607E0,-8.973084688E-1,-8.364111900E0,2.026720762E0
3.084885659E0,-8.961120844E-1,-8.411369324E0,1.825723648E0
3.087134988E0,-8.518448472E-1,-8.496912956E0,1.619940877E0
3.089377786E0,-8.075776696E-1,-8.553144455E0,1.313659668E0
3.091641519E0,-7.244270444E-1,-8.633303642E0,9.690931439E-1
3.093899515E0,-6.323033571E-1,-8.694919586E0,6.340979934E-1
3.096154702E0,-5.120640397E-1,-8.775676727E0,3.278166950E-1
3.098404946E0,-3.864408433E-1,-8.874979019E0,2.991028363E-3
3.100657326E0,-2.614158690E-1,-8.941379547E0,-2.793620527E-1
3.102910561E0,2.572284266E-2,-9.050253868E0,-6.185446382E-1
3.105164102E0,1.842473447E-1,-9.169296265E0,-8.721838593E-1
3.107416909E0,1.800599098E-1,-9.254839897E0,-9.397810698E-1
3.109670388E0,1.519442350E-1,-9.412167549E0,-9.505487680E-1
3.111924111E0,1.704886109E-1,-9.507282257E0,-8.793623447E-1
3.114172646E0,2.315055877E-1,-9.593423843E0,-7.788637877E-1
3.116415993E0,2.638086975E-1,-9.708279610E0,-5.976074338E-1
3.118681496E0,2.721835673E-1,-9.861420631E0,-3.499503136E-1
3.120935524E0,2.422732860E-1,-9.996016502E0,-9.272187948E-2
3.123191872E0,1.740778536E-1,-1.017248726E1,2.213360965E-1
3.125441690E0,9.272187948E-2,-1.041595650E1,3.966103494E-1
3.127694986E0,6.819544733E-2,-1.064507008E1,5.192425251E-1
3.129947549E0,3.948157281E-2,-1.083589745E1,5.898307562E-1
3.132195839E0,4.905286431E-2,-1.104586792E1,6.311069727E-1
3.134454445E0,8.673982322E-2,-1.118405342E1,6.831508875E-1
3.136706643E0,8.195417374E-2,-1.125105190E1,7.495517135E-1
3.138961404E0,1.148554832E-1,-1.130848026E1,7.639086246E-1
3.141213172E0,1.722832322E-1,-1.135155106E1,7.016952634E-1
3.143466468E0,2.727817893E-1,-1.135095215E1,6.155536175E-1
3.145719703E0,4.067798555E-1,-1.136530972E1,4.534398913E-1
3.147973731E0,3.930211067E-1,-1.136471081E1,3.194418252E-1
3.150223060E0,3.224328458E-1,-1.129771233E1,1.668993831E-1
3.152469093E0,4.187439680E-1,-1.114516926E1,5.383851007E-3
3.154731300E0,6.149554253E-1,-1.094417286E1,-2.554338276E-1
3.156985024E0,7.872386575E-1,-1.071506023E1,-5.688936114E-1
3.159240334E0,9.026923180E-1,-1.046201897E1,-7.866404653E-1
3.161491187E0,9.846464992E-1,-1.029511929E1,-1.014556766E0
3.163744483E0,1.066002488E0,-1.016112137E1,-1.104287624E0
3.165994910E0,1.109073281E0,-9.975079536E0,-1.208375454E0
3.168233864E0,1.137188911E0,-9.865608215E0,-1.168893814E0
3.170490089E0,1.161117196E0,-9.823135376E0,-1.149751306E0
3.172756202E0,1.265205026E0,-9.737591743E0,-1.076770186E0
3.175012672E0,1.350150228E0,-9.742377281E0,-9.906286001E-1
3.177265907E0,1.402194023E0,-9.771689415E0,-9.140582681E-1
3.179515785E0,1.525424480E0,-9.829116821E0,-8.039883971E-1
3.181769264E0,1.581057549E0,-9.958329201E0,-5.988038778E-1
3.184023109E0,1.546361685E0,-1.010189915E1,-3.559323549E-1
3.186271827E0,1.545763373E0,-1.025025368E1,-1.369891018E-1
3.188515113E0,1.496710539E0,-1.041236782E1,6.759724021E-2
3.190780311E0,1.462612867E0,-1.052303600E1,2.961117923E-1
3.193034034E0,1.494915962E0,-1.059482002E1,4.540380836E-1
3.195290382E0,1.499103427E0,-1.066181946E1,5.826523304E-1
3.197540199E0,1.550549030E0,-1.074796104E1,7.064808607E-1
3.199793434E0,1.616949916E0,-1.080538845E1,8.309076428E-1
3.202047828E0,1.658824325E0,-1.088674450E1,9.499505758E-1
3.204300269E0,1.682154298E0,-1.085384369E1,9.936196208E-1
3.206553871E0,1.700698733E0,-1.083948612E1,1.089332461E0
3.208805274E0,1.724626899E0,-1.070608711E1,1.118644595E0
3.211058936E0,1.724626899E0,-1.052483082E1,1.091127157E0
3.213308691E0,1.743171334E0,-1.037767220E1,1.125823021E0
3.215552344E0,1.833500385E0,-1.024427223E1,1.107876897E0
3.217818030E0,1.886142492E0,-1.005823040E1,1.047458172E0
3.220072425E0,1.942971945E0,-9.896116257E0,1.015154958E0
3.222327796E0,1.942971945E0,-9.743574142E0,1.068395257E0
3.224577612E0,1.885544300E0,-9.629316330E0,1.121635556E0
3.226830237E0,1.789831281E0,-9.567103386E0,1.131206870E0
3.229083838E0,1.694716692E0,-9.571888924E0,1.173679471E0
3.231336768E0,1.613958836E0,-9.495318413E0,1.207777262E0
3.233589697E0,1.475175142E0,-9.480961800E0,1.283749342E0
3.235842933E0,1.275374413E0,-9.480961800E0,1.363908887E0
3.238097327E0,1.118046403E0,-9.366703987E0,1.450050473E0
3.240349280E0,9.415757060E-1,-9.318847656E0,1.464407444E0
3.242602331E0,7.704889178E-1,-9.227920532E0,1.516451359E0
3.244855322E0,5.748756528E-1,-9.185447693E0,1.611566067E0
3.247108374E0,3.798605800E-1,-9.104091644E0,1.635494232E0
3.249357947E0,1.704886109E-1,-9.074779510E0,1.591825247E0
3.251602210E0,-6.221338734E-2,-9.131608963E0,1.585245013E0
3.253864356E0,-2.518445849E-1,-9.202795982E0,1.526620865E0
3.256110145E0,-3.852444589E-1,-9.202795982E0,1.516451359E0
3.258376990E0,-5.509474277E-1,-9.168698311E0,1.454237938E0
3.260627234E0,-7.507480979E-1,-9.163912773E0,1.400399446E0
3.262882666E0,-9.260223508E-1,-9.192028046E0,1.347159147E0
3.265132910E0,-1.110867858E0,-9.244071960E0,1.264606714E0
3.267386083E0,-1.200598717E0,-9.200403214E0,1.149751306E0
3.269639196E0,-1.309472203E0,-9.181260109E0,1.030110121E0
3.271892309E0,-1.394417405E0,-9.128020287E0,9.152546525E-1
3.274146642E0,-1.450648785E0,-9.056235313E0,7.764709592E-1
3.276398840E0,-1.559522152E0,-8.979664803E0,6.909275651E-1
3.278652869E0,-1.654636860E0,-8.950951576E0,6.424728632E-1
3.280904638E0,-1.682752490E0,-8.898308754E0,5.377869010E-1
3.283157872E0,-1.791625977E0,-8.897710800E0,5.324030519E-1
3.285411229E0,-1.891526341E0,-8.864211082E0,4.701896608E-1
3.287665746E0,-1.909472466E0,-8.797212601E0,3.457628787E-1
3.289916907E0,-1.956730723E0,-8.725427628E0,2.889333367E-1
3.292171239E0,-1.975275040E0,-8.682356834E0,1.884347796E-1
3.294422765E0,-1.946561217E0,-8.691927910E0,1.501496136E-1
3.296676427E0,-1.922633052E0,-8.668000221E0,1.220339537E-1
3.298928808E0,-1.856232166E0,-8.644071579E0,1.034895778E-1
3.301182531E0,-1.785045743E0,-8.630312920E0,1.322034448E-1
3.303435704E0,-1.689931035E0,-8.601598740E0,1.375873089E-1
3.305689000E0,-1.581057549E0,-8.578269005E0,2.147558331E-1
3.307942296E0,-1.453041553E0,-8.568697929E0,3.062812984E-1
3.310194494E0,-1.292124271E0,-8.511868477E0,3.505485058E-1
3.312442052E0,-1.106680512E0,-8.512466431E0,4.372883439E-1
3.314700109E0,-9.170492887E-1,-8.522636414E0,4.713860750E-1
3.316953222E0,-7.651050687E-1,-8.580063820E0,5.246263742E-1
3.319208593E0,-6.370890141E-1,-8.647063255E0,6.538388133E-1
3.321460547E0,-4.857429862E-1,-8.628518105E0,7.310073376E-1
3.323713720E0,-3.098705411E-1,-8.643473625E0,8.081758618E-1
3.325963781E0,-1.441675574E-1,-8.639286041E0,9.044869542E-1
3.328207921E0,7.178467698E-3,-8.696713448E0,1.014556766E0
3.330472813E0,1.447657645E-1,-8.797212601E0,1.081555843E0
3.332725865E0,2.823530734E-1,-8.859425545E0,1.182054400E0
3.334981602E0,4.055834413E-1,-8.935996056E0,1.215553880E0
3.337232090E0,5.102694035E-1,-8.998209953E0,1.225125194E0
3.339485203E0,6.197410822E-1,-9.060422897E0,1.225723386E0
3.341738256E0,6.580262184E-1,-9.198608398E0,1.171884894E0
3.343991613E0,7.776673436E-1,-9.212965012E0,1.076770186E0
3.346245457E0,8.775677085E-1,-9.236295700E0,9.864411354E-1
3.348494420E0,9.308080077E-1,-9.279366493E0,8.901300430E-1
3.350735264E0,9.601200819E-1,-9.326624870E0,7.609176040E-1
3.352990757E0,9.942178130E-1,-9.383454323E0,6.412764788E-1
3.355256504E0,1.061815023E0,-9.364311218E0,4.504488707E-1
3.357512974E0,1.062413216E0,-9.358927727E0,2.829512656E-1
3.359766209E0,1.063011408E0,-9.378069878E0,1.393819153E-1
3.362016332E0,1.059422255E0,-9.406186104E0,-3.768695518E-2
3.364270115E0,1.036690354E0,-9.429515839E0,-1.956132501E-1
3.366522007E0,9.996016622E-1,-9.467203140E0,-3.541377485E-1
3.368774876E0,9.194421172E-1,-9.480961800E0,-5.024927258E-1
3.371027501E0,8.350951076E-1,-9.528220177E0,-6.849454641E-1
3.373281651E0,6.975077987E-1,-9.603593826E0,-8.057830334E-1
3.375534641E0,5.653043389E-1,-9.607781410E0,-9.738788009E-1
3.377787937E0,4.193421602E-1,-9.655039787E0,-1.132403374E0
3.380041172E0,2.488535494E-1,-9.731011391E0,-1.272383451E0
3.382295079E0,1.016949639E-1,-9.844670296E0,-1.364507079E0
3.384546849E0,-8.255238086E-2,-1.000618649E1,-1.509871125E0
3.386799351E0,-2.482553422E-1,-1.020598698E1,-1.646261930E0
3.389052464E0,-4.378865361E-1,-1.035793114E1,-1.709671736E0
3.391305699E0,-5.659025311E-1,-1.044826031E1,-1.749153376E0
3.393559116E0,-6.849454641E-1,-1.045304585E1,-1.754537225E0
3.395809116E0,-7.513462901E-1,-1.041954613E1,-1.735394597E0
3.398052525E0,-7.471588850E-1,-1.035254669E1,-1.658824325E0
3.400319797E0,-7.381857634E-1,-1.026760197E1,-1.538584948E0
3.402571690E0,-6.819544435E-1,-1.015334511E1,-1.384247899E0
3.404828220E0,-6.113662124E-1,-1.005823040E1,-1.268794179E0
3.407077609E0,-5.030909777E-1,-9.934999466E0,-1.085743308E0
3.409329502E0,-3.613162339E-1,-9.878170013E0,-9.601200819E-1
3.411580173E0,-2.051845491E-1,-9.831509590E0,-8.494520187E-1
3.413833714E0,-3.469592705E-2,-9.789037704E0,-7.429714203E-1
3.416077305E0,1.310070455E-1,-9.784252167E0,-6.562315822E-1
3.418344822E0,2.925225794E-1,-9.747162819E0,-5.503492355E-1
3.420596653E0,4.295116663E-1,-9.737591743E0,-4.683950245E-1
3.422854038E0,5.623133183E-1,-9.747760773E0,-3.290131092E-1
3.425102512E0,6.137589812E-1,-9.795618057E0,-2.333002090E-1
3.427355624E0,6.604190469E-1,-9.834501266E0,-8.015955985E-2
3.429608493E0,6.837490797E-1,-9.839286804E0,3.948157281E-2
3.431861728E0,6.735795736E-1,-9.848857880E0,1.154536903E-1
3.434114475E0,6.496513486E-1,-9.859027863E0,2.111666054E-1
3.436369235E0,5.730810165E-1,-9.901499748E0,2.632105052E-1
3.438620944E0,4.636093974E-1,-9.944570541E0,2.961117923E-1
3.440874363E0,4.067798555E-1,-9.958928108E0,3.146561682E-1
3.443126987E0,2.925225794E-1,-1.001097202E1,2.997010350E-1
3.445380283E0,1.836491376E-1,-1.005344391E1,2.315055877E-1
3.447633456E0,6.520441920E-2,-1.012463093E1,2.069791555E-1
3.449883334E0,-1.076770201E-2,-1.024367332E1,1.435693651E-1
3.452126742E0,-9.511470050E-2,-1.033878803E1,-1.495514158E-2
3.454393223E0,-1.752742529E-1,-1.040040398E1,-1.501496136E-1
3.456645847E0,-2.362912297E-1,-1.046201897E1,-2.745763958E-1
3.458902071E0,-2.829512656E-1,-1.054696369E1,-4.193421602E-1
3.461151888E0,-2.823530734E-1,-1.063250732E1,-5.485545993E-1
3.463405123E0,-2.434697002E-1,-1.071326542E1,-6.975077987E-1
3.465658176E0,-2.045863420E-1,-1.076530933E1,-8.219345808E-1
3.467911349E0,-1.328016520E-1,-1.087956619E1,-9.421738982E-1
3.470163974E0,-4.666004330E-2,-1.099382401E1,-1.033101201E0
3.472418612E0,9.631111473E-2,-1.103689480E1,-1.076171994E0
3.474670504E0,1.962114573E-1,-1.111825085E1,-1.052243710E0
3.476923861E0,3.529413342E-1,-1.119003487E1,-1.070788145E0
3.479176363E0,4.432703853E-1,-1.116610718E1,-1.037288666E0
3.481429842E0,5.473581553E-1,-1.120499039E1,-9.314061999E-1
3.483682955E0,7.130611539E-1,-1.119123173E1,-8.350951076E-1
3.485932651E0,8.410771489E-1,-1.118704414E1,-6.861419082E-1
3.488176059E0,9.110672474E-1,-1.116371441E1,-5.473581553E-1
3.490442721E0,9.625129104E-1,-1.114457130E1,-3.840480447E-1
3.492695529E0,9.523434043E-1,-1.114038372E1,-2.506481707E-1
3.494952853E0,9.475577474E-1,-1.112602711E1,-2.267199457E-1
3.497201082E0,8.715856671E-1,-1.113081264E1,-2.075773627E-1
3.499454256E0,7.962117195E-1,-1.110209846E1,-3.224328458E-1
3.501707369E0,6.921239495E-1,-1.109671497E1,-4.905286431E-1
3.503960849E0,5.270192027E-1,-1.108175945E1,-7.016952634E-1
3.506214084E0,3.332005441E-1,-1.114277649E1,-9.367900491E-1
3.508467928E0,1.495514214E-1,-1.118465137E1,-1.196411371E0
3.510720064E0,-6.340979785E-2,-1.119362450E1,-1.398006678E0
3.512973177E0,-2.524427772E-1,-1.122114182E1,-1.648056626E0
3.515226351E0,-4.791627228E-1,-1.122473145E1,-1.911865234E0
3.517478853E0,-7.244270444E-1,-1.130010509E1,-2.204986095E0
3.519732332E0,-9.463613629E-1,-1.140419292E1,-2.503490686E0
3.521985383E0,-1.186840057E0,-1.156032467E1,-2.816352367E0
3.524238985E0,-1.456032634E0,-1.175414276E1,-3.182454109E0
3.526492463E0,-1.658226132E0,-1.194855976E1,-3.485744476E0
3.528744294E0,-1.808375716E0,-1.214776230E1,-3.822534084E0
3.530997895E0,-1.916052699E0,-1.232842064E1,-4.144368649E0
3.533250520E0,-1.947757602E0,-1.247079372E1,-4.365705013E0
3.535503634E0,-1.903490424E0,-1.262752342E1,-4.634299278E0
3.537756929E0,-1.797608018E0,-1.274118233E1,-4.820939541E0
3.540010163E0,-1.592423439E0,-1.286979675E1,-4.993222713E0
3.542263704E0,-1.292124271E0,-1.298465252E1,-5.102694511E0
3.544517488E0,-9.547362328E-1,-1.310907841E1,-5.121238708E0
3.546769442E0,-5.647061467E-1,-1.320957756E1,-5.129613400E0
3.549022432E0,-1.561316848E-1,-1.325803185E1,-5.003990173E0
3.551274690E0,2.943171859E-1,-1.323530006E1,-4.849055290E0
3.553528474E0,7.208378315E-1,-1.322213936E1,-4.622334957E0
3.555781831E0,1.100100160E0,-1.321855068E1,-4.390829563E0
3.558034944E0,1.460219979E0,-1.322453213E1,-4.164707661E0
3.560288301E0,1.810768485E0,-1.313480186E1,-3.937987804E0
3.562542085E0,2.114058733E0,-1.302592850E1,-3.711267948E0
3.564794404E0,2.373680115E0,-1.287458229E1,-3.436093330E0
3.567048494E0,2.567498684E0,-1.270409393E1,-3.242872953E0
3.569299227E0,2.690130949E0,-1.250907898E1,-3.145365477E0
3.571549775E0,2.742773056E0,-1.238046455E1,-3.149552822E0
3.573806428E0,2.823530674E0,-1.228475189E1,-3.215355396E0
3.576059419E0,2.924627542E0,-1.212263775E1,-3.376272678E0
3.578313814E0,3.091526747E0,-1.194138145E1,-3.561118364E0
3.580566682E0,3.278167009E0,-1.171226883E1,-3.745365620E0
3.582818818E0,3.388236761E0,-1.156451225E1,-3.901497364E0
3.585071991E0,3.468994617E0,-1.141196918E1,-3.924229145E0
3.587323944E0,3.486940861E0,-1.134078312E1,-3.741776466E0
3.589577606E0,3.533002615E0,-1.127916813E1,-3.540779352E0
3.591831390E0,3.588635683E0,-1.121815109E1,-3.224328518E0
3.594081208E0,3.671786308E0,-1.117149067E1,-2.845664263E0
3.596324372E0,3.688536167E0,-1.121575832E1,-2.391626120E0
3.598590912E0,3.714258909E0,-1.123609734E1,-1.860419631E0
3.600843658E0,3.725624800E0,-1.134197903E1,-1.373480201E0
3.603100189E0,3.704089403E0,-1.150050354E1,-8.291130662E-1
3.605349884E0,3.701098442E0,-1.166860008E1,-2.997010350E-1
3.607602937E0,3.708276987E0,-1.180798149E1,1.633101404E-1
3.609856049E0,3.701098442E0,-1.187079334E1,5.934200287E-1
3.612108856E0,3.617947817E0,-1.190010548E1,9.900303483E-1
3.614361847E0,3.473780155E0,-1.188694477E1,1.324427366E0
3.616615692E0,3.258426189E0,-1.182951736E1,1.543370605E0
3.618867829E0,3.029313564E0,-1.176311588E1,1.695913076E0
3.621121613E0,2.748156786E0,-1.170090294E1,1.795813441E0
3.623374481E0,2.453241348E0,-1.162433243E1,1.823929071E0
3.625627717E0,2.059023857E0,-1.160459137E1,1.783849239E0
3.627880768E0,1.697707653E0,-1.167517948E1,1.710269928E0
3.630131745E0,1.275972724E0,-1.193659592E1,1.587039590E0
3.632378448E0,7.674978375E-1,-1.230748367E1,1.506281853E0
3.634640533E0,2.787638307E-1,-1.274536991E1,1.467398524E0
3.636893463E0,-2.063809484E-1,-1.327837086E1,1.490728498E0
3.639149506E0,-7.202396393E-1,-1.378325653E1,1.671984792E0
3.641399201E0,-1.247856975E0,-1.434975719E1,1.742573142E0
3.643652496E0,-1.761715651E0,-1.490249920E1,1.865803480E0
3.645905304E0,-2.209173441E0,-1.542174149E1,2.013560295E0
3.648159393E0,-2.547159672E0,-1.588355637E1,2.104487419E0
3.650412872E0,-2.884547710E0,-1.631725502E1,2.181656122E0
3.652652496E0,-3.156133175E0,-1.670788383E1,2.283350945E0
3.654917205E0,-3.398406267E0,-1.702254105E1,2.333002090E0
3.657169952E0,-3.672982693E0,-1.734557152E1,2.152343988E0
3.659425750E0,-3.871587038E0,-1.760220146E1,2.011167526E0
3.661672454E0,-4.074976921E0,-1.779721642E1,1.817947030E0
3.663930266E0,-4.259224415E0,-1.789173317E1,1.606182218E0
3.666183257E0,-4.353142738E0,-1.784327888E1,1.371685624E0
3.668437713E0,-4.403990269E0,-1.779003906E1,1.118046403E0
3.670689727E0,-4.388436794E0,-1.762732697E1,9.086744189E-1
3.672942229E0,-4.307679176E0,-1.740838242E1,8.099704385E-1
3.675192107E0,-4.265206337E0,-1.715594101E1,8.739784956E-1
3.677432097E0,-4.295116425E0,-1.687957001E1,1.048056364E0
3.679685638E0,-4.338785648E0,-1.656072617E1,1.241276741E0
3.681941802E0,-4.325624943E0,-1.623231125E1,1.392024517E0
3.684211089E0,-4.265206337E0,-1.586561012E1,1.600200176E0
3.686461212E0,-4.195216179E0,-1.553240967E1,1.736590981E0
3.688706939E0,-4.186841488E0,-1.523749447E1,1.968096614E0
3.690966948E0,-4.216751575E0,-1.500419426E1,2.132004976E0
3.693220427E0,-4.269393921E0,-1.479482269E1,2.204986095E0
3.695475677E0,-4.332205296E0,-1.454716492E1,2.354537487E0
3.697725800E0,-4.313062668E0,-1.427557945E1,2.361117840E0
3.699979583E0,-4.269991875E0,-1.404168129E1,2.224128723E0
3.702232634E0,-4.221537113E0,-1.385504150E1,2.000998020E0
3.704486419E0,-3.882952929E0,-1.358345604E1,1.822134495E0
3.706739898E0,-3.809971809E0,-1.349731445E1,1.488335729E0
3.708992401E0,-3.649652719E0,-1.347697544E1,8.338986635E-1
3.711246183E0,-3.544966698E0,-1.347936821E1,-2.153540403E-2
3.713494657E0,-3.421138287E0,-1.340160179E1,-9.104689956E-1
3.715738005E0,-3.056232691E0,-1.328076363E1,-1.615753531E0
3.718003508E0,-2.752942562E0,-1.317009544E1,-2.254637241E0
3.720257415E0,-2.408375978E0,-1.299841118E1,-2.706282377E0
3.722513945E0,-2.155334949E0,-1.283569908E1,-2.909672260E0
3.724764921E0,-2.012962103E0,-1.271246815E1,-2.884547710E0
3.727016630E0,-1.866401672E0,-1.265085316E1,-2.711666346E0
3.729270598E0,-1.540977836E0,-1.247617722E1,-2.273779631E0
3.731523893E0,-1.162911773E0,-1.232483101E1,-1.917249203E0
3.733762846E0,-7.459624410E-1,-1.217348480E1,-1.646860242E0
3.736029264E0,-2.955136001E-1,-1.195573807E1,-1.432702541E0
3.738280913E0,5.982056633E-2,-1.174217892E1,-1.219143152E0
3.740538603E0,4.480560422E-1,-1.152861977E1,-9.535398483E-1
3.742789396E0,8.644071817E-1,-1.134437180E1,-6.681957245E-1
3.745041410E0,1.185643673E0,-1.117388344E1,-2.781656384E-1
3.747294584E0,1.479362607E0,-1.103210926E1,-5.623133108E-2
3.749543974E0,1.782054663E0,-1.092802143E1,1.465603858E-1
3.751787687E0,2.084746838E0,-1.079103184E1,4.169493318E-1
3.754053556E0,2.301297188E0,-1.067797089E1,7.770691514E-1
3.756306852E0,2.466402054E0,-1.059781170E1,1.051047325E0
3.758563688E0,2.627917528E0,-1.056431198E1,1.089930773E0
3.760814116E0,2.698505640E0,-1.046441174E1,1.129412293E0
3.763066069E0,2.807977438E0,-1.036510944E1,1.197607756E0
3.765319120E0,2.835494757E0,-1.028853893E1,1.274776220E0
3.767571745E0,2.820539713E0,-1.020837975E1,1.451845169E0
3.769823577E0,2.737987280E0,-1.012762165E1,1.719841242E0
3.772073332E0,2.670390129E0,-9.970891953E0,1.907079697E0
3.774331509E0,2.566302299E0,-9.808179855E0,1.792822361E0
3.776585233E0,2.481955290E0,-9.626325607E0,1.549950838E0
3.778840055E0,2.376671076E0,-9.473783493E0,1.636690736E0
3.781091276E0,2.285743713E0,-9.278767586E0,1.761715651E0
3.783345059E0,2.223530531E0,-9.064012527E0,1.786840320E0
3.785593472E0,2.157727718E0,-8.825327873E0,1.677966833E0
3.787836637E0,2.058425665E0,-8.624929428E0,1.526022673E0
3.790100614E0,1.954337835E0,-8.409575462E0,1.417149186E0
3.792349210E0,1.835893154E0,-8.223533630E0,1.322034478E0
3.794612881E0,1.750349760E0,-8.113463402E0,1.222134113E0
3.796863675E0,1.661815286E0,-7.989036560E0,9.643075466E-1
3.799116849E0,1.453041553E0,-7.725826263E0,8.356932998E-1
3.801368620E0,1.138385415E0,-7.430312634E0,9.320043921E-1
3.803621671E0,8.620143533E-1,-7.162914753E0,1.037886858E0
3.805871854E0,6.137589812E-1,-6.857829571E0,1.148554921E0
3.808115445E0,4.366901219E-1,-6.591628075E0,1.350748420E0
3.810381192E0,3.074777126E-1,-6.348158360E0,1.427916884E0
3.812634245E0,1.836491376E-1,-6.081358910E0,1.443470240E0
3.814890592E0,5.503492057E-2,-5.909673691E0,1.453639746E0
3.817139737E0,-8.793623000E-2,-5.771488190E0,1.564307809E0
3.819392545E0,-2.087737769E-1,-5.533402443E0,1.832902193E0
3.821642911E0,-2.907279432E-1,-5.295316696E0,2.039881229E0
3.823899931E0,-3.960121572E-1,-5.171487808E0,2.160120726E0
3.826152677E0,-4.390829504E-1,-5.062016487E0,2.212762833E0
3.828406583E0,-4.444667995E-1,-4.899902344E0,2.304886341E0
3.830659268E0,-5.168496966E-1,-4.762315273E0,2.472982168E0
3.832912869E0,-6.035895348E-1,-4.624728203E0,2.726621389E0
3.835164700E0,-6.765705943E-1,-4.496113777E0,2.976073265E0
3.837418056E0,-7.824530005E-1,-4.392025948E0,3.177070379E0
3.839670986E0,-8.596215248E-1,-4.282554150E0,3.359523058E0
3.841924283E0,-9.272187948E-1,-4.153940201E0,3.579662561E0
3.844177396E0,-9.996016622E-1,-4.059423447E0,3.771686792E0
3.846430447E0,-9.810572863E-1,-3.926023722E0,3.829712629E0
3.848680508E0,-9.427721500E-1,-3.854238987E0,3.792025566E0
3.850925503E0,-9.044869542E-1,-3.777668715E0,3.721437454E0
3.853189357E0,-8.087740541E-1,-3.734597921E0,3.559323788E0
3.855444057E0,-7.698906660E-1,-3.753740549E0,3.406183004E0
3.857698696E0,-7.746763229E-1,-3.815355778E0,3.405584812E0
3.859949246E0,-7.890332937E-1,-3.848855257E0,3.405584812E0
3.862201748E0,-8.075776696E-1,-3.901497364E0,3.404986620E0
3.864455228E0,-8.410771489E-1,-3.920041800E0,3.361915827E0
3.866708646E0,-8.404789567E-1,-3.872185230E0,3.337987661E0
3.868962429E0,-8.877372146E-1,-3.924827337E0,3.275774240E0
3.871213894E0,-8.781659007E-1,-3.915256023E0,3.223132133E0
3.873467190E0,-9.206385016E-1,-3.881756544E0,3.170490026E0
3.875720547E0,-9.631111026E-1,-3.819543123E0,3.165704250E0
3.877973903E0,-9.966106415E-1,-3.766901016E0,3.161516905E0
3.880227077E0,-1.025324464E0,-3.709473372E0,3.142374277E0
3.882480129E0,-1.058225870E0,-3.652643681E0,3.123830080E0
3.884733365E0,-1.081555843E0,-3.608974695E0,3.032902718E0
3.886986294E0,-1.133599758E0,-3.585046530E0,2.927618504E0
3.889238613E0,-1.232901812E0,-3.541975737E0,2.841476917E0
3.891492275E0,-1.351346612E0,-3.555734396E0,2.769093990E0
3.893745449E0,-1.403390527E0,-3.531806231E0,2.682952404E0
3.895998684E0,-1.464407444E0,-3.540779352E0,2.572284460E0
3.898251125E0,-1.506880045E0,-3.531208038E0,2.486142635E0
3.900504725E0,-1.524826288E0,-3.530609846E0,2.361716032E0
3.902757961E0,-1.572084427E0,-3.516252756E0,2.313859463E0
3.905012234E0,-1.600200176E0,-3.501895905E0,2.227717876E0
3.907264003E0,-1.604387641E0,-3.491726398E0,2.141576290E0
3.909516993E0,-1.642074585E0,-3.463012457E0,2.008176327E0
3.911769740E0,-1.674377680E0,-3.452843189E0,1.878963947E0
3.914023342E0,-1.664208174E0,-3.424129248E0,1.711466432E0
3.916278346E0,-1.706082582E0,-3.433102369E0,1.520040631E0
3.918528895E0,-1.719243050E0,-3.432504177E0,1.381256819E0
3.920782741E0,-1.751546144E0,-3.470191002E0,1.227517962E0
3.923036220E0,-1.783849239E0,-3.484548092E0,1.069591761E0
3.925289089E0,-1.797608018E0,-3.507878065E0,9.068797827E-1
3.927542933E0,-1.801197290E0,-3.492922783E0,7.489534616E-1
3.929794764E0,-1.800599098E0,-3.488137245E0,6.251249313E-1
3.932047816E0,-1.747956991E0,-3.492922783E0,5.533402562E-1
3.934300136E0,-1.718644857E0,-3.573680639E0,3.948157430E-1
3.936554043E0,-1.693520188E0,-3.663411379E0,1.890329868E-1
3.938807522E0,-1.735394597E0,-3.824927092E0,1.076770201E-2
3.941061549E0,-1.791027784E0,-4.048655987E0,-2.255235314E-1
3.943313380E0,-1.798804402E0,-4.286143780E0,-4.995017350E-1
3.945566554E0,-1.840080619E0,-4.528416634E0,-7.692924738E-1
3.947819179E0,-1.828714728E0,-4.794618607E0,-1.091127157E0
3.950068447E0,-1.788634896E0,-5.075176716E0,-1.394417405E0
3.952312770E0,-1.730010748E0,-5.336592674E0,-1.677966833E0
3.954578456E0,-1.642672777E0,-5.636891842E0,-1.951945066E0
3.956832424E0,-1.578664780E0,-5.936593056E0,-2.240878344E0
3.959089320E0,-1.476969719E0,-6.269195557E0,-2.553141832E0
3.961338343E0,-1.417747378E0,-6.616752625E0,-2.942573547E0
3.963591211E0,-1.357328653E0,-6.987041950E0,-3.451646566E0
3.965841578E0,-1.363310695E0,-7.405188084E0,-4.052843571E0
3.968087061E0,-1.468594909E0,-7.884948730E0,-4.768895626E0
3.970349756E0,-1.625324726E0,-8.388039589E0,-5.586044312E0
3.972603601E0,-1.857428551E0,-8.957531929E0,-6.518647194E0
3.974859400E0,-2.112862349E0,-9.559925079E0,-7.637889862E0
3.977111170E0,-2.423929453E0,-1.023290634E1,-8.843872070E0
3.979361903E0,-2.834896564E0,-1.092084217E1,-1.011266708E1
3.981611963E0,-3.235694408E0,-1.165065384E1,-1.150648594E1
3.983869959E0,-3.784249067E0,-1.243848991E1,-1.281954765E1
3.986123865E0,-4.490131855E0,-1.328255844E1,-1.405244923E1
3.988363306E0,-5.158925533E0,-1.406082439E1,-1.505025578E1
3.990627771E0,-5.849255085E0,-1.479721546E1,-1.574716568E1
3.992880274E0,-6.488138676E0,-1.543908978E1,-1.614616966E1
3.995139063E0,-7.033702374E0,-1.598106384E1,-1.632862091E1
3.997388941E0,-7.427919865E0,-1.642852211E1,-1.636212158E1
3.999641809E0,-7.575078487E0,-1.674258041E1,-1.635015678E1
4.001893701E0,-7.532007694E0,-1.697169304E1,-1.631845284E1
4.004146875E0,-7.328019142E0,-1.713919067E1,-1.625145340E1
4.006399683E0,-6.928418159E0,-1.728754616E1,-1.627956963E1
4.008652674E0,-6.415157318E0,-1.735992813E1,-1.624905968E1
4.010906336E0,-5.783452511E0,-1.737488365E1,-1.615574074E1
4.013159144E0,-5.166702271E0,-1.737189293E1,-1.590927982E1
4.015407800E0,-4.631906509E0,-1.739761543E1,-1.545284843E1
4.017664943E0,-4.226323128E0,-1.741376686E1,-1.486242008E1
4.019918360E0,-3.896711588E0,-1.739641953E1,-1.424387455E1
4.022172876E0,-3.629313707E0,-1.731745529E1,-1.360618782E1
4.024424829E0,-3.409772158E0,-1.717149353E1,-1.291107273E1
4.026677819E0,-3.209373474E0,-1.694955826E1,-1.215793228E1
4.028930994E0,-3.043670416E0,-1.661875153E1,-1.126062298E1
4.031184838E0,-2.892324448E0,-1.618265915E1,-1.024786091E1
4.033436669E0,-2.789433002E0,-1.569452381E1,-9.211171150E0
4.035690331E0,-2.776870728E0,-1.507717514E1,-8.130811691E0
4.037943017E0,-2.711068153E0,-1.437428379E1,-7.150352478E0
4.040196558E0,-2.620738983E0,-1.359482193E1,-6.336792469E0
4.042449548E0,-2.487339020E0,-1.274776268E1,-5.703890800E0
4.044702477E0,-2.371287346E0,-1.191984558E1,-5.248656273E0
4.046955590E0,-2.282154560E0,-1.105244732E1,-5.099104881E0
4.049206262E0,-2.154736757E0,-1.018983555E1,-5.087738991E0
4.051449487E0,-2.032104731E0,-9.365508080E0,-5.034498692E0
4.053714501E0,-1.932802439E0,-8.517251968E0,-5.028516769E0
4.055967736E0,-1.790429592E0,-7.645068169E0,-5.122435093E0
4.058224145E0,-1.647458434E0,-6.787241459E0,-5.283352375E0
4.060474328E0,-1.442872047E0,-5.938387394E0,-5.392225742E0
4.062727196E0,-1.266401410E0,-5.123631477E0,-5.534000397E0
4.064980615E0,-1.038485050E0,-4.341776848E0,-5.647659779E0
4.067234399E0,-7.716853023E-1,-3.564707518E0,-5.751747608E0
4.069486536E0,-5.012963414E-1,-2.873780012E0,-5.798407555E0
4.071740868E0,-2.255235314E-1,-2.221137524E0,-5.855237007E0
4.073992516E0,5.503492057E-2,-1.711466432E0,-5.927021503E0
4.076245812E0,3.032902777E-1,-1.368096352E0,-6.129813194E0
4.078498620E0,5.754738450E-1,-1.182054400E0,-6.376274109E0
4.080752100E0,7.764709592E-1,-1.177268744E0,-6.590431690E0
4.083005579E0,8.865407705E-1,-1.386640668E0,-6.691528320E0
4.085256005E0,9.762716293E-1,-1.773081541E0,-6.622136593E0
4.087497582E0,1.028913736E0,-2.335993052E0,-6.539584160E0
4.089762719E0,1.042672515E0,-2.998805046E0,-6.462415695E0
4.092012047E0,1.134197950E0,-3.723232031E0,-6.547959328E0
4.094273948E0,1.264606714E0,-4.466203690E0,-6.853642464E0
4.096523277E0,1.386042476E0,-5.252245903E0,-7.155138016E0
4.098777550E0,1.506281853E0,-6.100501537E0,-7.346563816E0
4.101026818E0,1.664208174E0,-6.953542709E0,-7.447062492E0
4.103267479E0,1.897508383E0,-7.821538925E0,-7.356134892E0
4.105523155E0,2.176870346E0,-8.728418350E0,-7.016354084E0
4.107785728E0,2.496910334E0,-9.602995872E0,-6.327221394E0
4.110032371E0,2.929413080E0,-1.041595650E1,-5.359922886E0
4.112297691E0,3.549752474E0,-1.103988552E1,-3.936193228E0
4.114546898E0,4.314857483E0,-1.161296654E1,-2.104487419E0
4.116804100E0,5.013561726E0,-1.219502068E1,-2.452643216E-1
4.119054955E0,5.550750256E0,-1.287218952E1,1.522433400E0
4.121309105E0,5.857031822E0,-1.361037540E1,3.011367321E0
4.123561058E0,5.733801365E0,-1.453699589E1,3.913461447E0
4.125813865E0,5.213960648E0,-1.559043598E1,4.281956196E0
4.128066734E0,4.417150497E0,-1.655175209E1,4.104887009E0
4.130319908E0,3.269193888E0,-1.744965935E1,3.697509289E0
4.132572960E0,1.829312921E0,-1.832304001E1,2.834298372E0
4.134825523E0,2.494517565E-1,-1.915155411E1,1.487737536E0
4.137079491E0,-1.587039590E0,-1.995554352E1,4.486542568E-2
4.139332482E0,-3.504886866E0,-2.058365822E1,-1.244866014E0
4.141582360E0,-5.507081509E0,-2.111307144E1,-1.940579176E0
4.143839744E0,-7.470392227E0,-2.129133606E1,-1.916650891E0
4.146091392E0,-9.090931892E0,-2.090429688E1,-1.293918848E0
4.148344017E0,-1.023649502E1,-2.005125618E1,-4.995017350E-1
4.150588340E0,-1.081137085E1,-1.865025711E1,5.264209956E-2
4.152837792E0,-1.097587776E1,-1.672044563E1,3.655036688E-1
4.155104454E0,-1.097707367E1,-1.465185165E1,3.744767308E-1
4.157359763E0,-1.073539925E1,-1.244985580E1,2.321037948E-1
4.159613486E0,-1.031246758E1,-1.022871876E1,-5.383851007E-3
4.161863120E0,-9.794421196E0,-8.169694901E0,-2.189432681E-1
4.164116050E0,-9.266803741E0,-6.291927338E0,-4.103690982E-1
4.166369406E0,-8.810373306E0,-4.728217602E0,-6.514459848E-1
4.168622092E0,-8.490332603E0,-3.598206997E0,-1.001396298E0
4.170875144E0,-8.336593628E0,-2.897109985E0,-1.378864050E0
4.173129051E0,-8.192426682E0,-2.386242390E0,-1.762313843E0
4.175383017E0,-7.948956966E0,-1.985444546E0,-1.983649969E0
4.177634970E0,-7.597211838E0,-1.652842283E0,-1.965703845E0
4.179887839E0,-7.042675018E0,-1.368096352E0,-1.741376638E0
4.182141013E0,-6.431907177E0,-1.183848977E0,-1.273579836E0
4.184394248E0,-5.790630817E0,-1.101296663E0,-3.140579760E-1
4.186646506E0,-5.084149837E0,-1.162313581E0,8.321040869E-1
4.188899741E0,-4.292125702E0,-1.299900889E0,2.087737799E0
4.191153586E0,-3.328416348E0,-1.576271892E0,3.314059258E0
4.193407492E0,-2.432902336E0,-2.100300074E0,4.768297195E0
4.195659567E0,-1.536192179E0,-2.833700180E0,6.005984783E0
4.197912253E0,-7.848458290E-1,-3.771686792E0,7.031309128E0
4.200165732E0,-1.178465188E-1,-4.789832592E0,7.740182877E0
4.202419090E0,4.414757788E-1,-5.845067501E0,8.209176064E0
4.204672141E0,9.541380405E-1,-6.861418724E0,8.444271088E0
4.206925070E0,1.296909928E0,-7.786843300E0,8.463413239E0
4.209178123E0,1.651047587E0,-8.549555779E0,8.129614830E0
4.211433738E0,1.963909149E0,-9.220742226E0,7.562515736E0
4.213686363E0,2.286342144E0,-9.743574142E0,6.876374245E0
4.215925620E0,2.581257343E0,-1.020000458E1,6.075974941E0
4.218189718E0,2.729014158E0,-1.062712383E1,5.179264545E0
4.220442221E0,2.705684185E0,-1.104407310E1,4.224528313E0
4.222699606E0,2.758924484E0,-1.135633659E1,3.290131092E0
4.224949972E0,2.748754978E0,-1.158843994E1,2.547159672E0
4.227203329E0,2.895315409E0,-1.170090294E1,1.849053741E0
4.229457235E0,2.856431961E0,-1.192822075E1,1.192223907E0
4.231709188E0,2.758924484E0,-1.223210907E1,7.926225066E-1
4.233961569E0,2.712862730E0,-1.252223873E1,5.754738450E-1
4.236215170E0,2.765504837E0,-1.278006554E1,5.545366406E-1
4.238468343E0,2.773879766E0,-1.292363548E1,7.549355626E-1
4.240721701E0,2.715255499E0,-1.301456261E1,9.882357717E-1
4.242974508E0,2.614158630E0,-1.302473164E1,1.265205026E0
4.245228171E0,2.513062000E0,-1.302473164E1,1.470389485E0
4.247481832E0,2.402992249E0,-1.306301689E1,1.632503271E0
4.249730733E0,2.326421738E0,-1.307318687E1,1.756331801E0
4.251973592E0,2.312064886E0,-1.312044430E1,1.803590059E0
4.254239401E0,2.340778828E0,-1.316830158E1,1.674377680E0
4.256493246E0,2.370090723E0,-1.322513103E1,1.545165181E0
4.258749471E0,2.428116798E0,-1.328196049E1,1.425524116E0
4.260999227E0,2.711068153E0,-1.343390465E1,1.009172916E0
4.263252523E0,2.788236618E0,-1.355713463E1,7.603194118E-1
4.265506491E0,2.837289333E0,-1.362353611E1,5.449653864E-1
4.267758566E0,2.895315409E0,-1.363789272E1,3.774677813E-1
4.270011129E0,2.910270452E0,-1.361336613E1,2.201396823E-1
4.272264486E0,2.901895761E0,-1.354636765E1,4.307080805E-2
4.274517660E0,2.902493954E0,-1.338365555E1,-1.567298770E-1
4.276771017E0,2.831905603E0,-1.319761372E1,-3.134597540E-1
4.279024068E0,2.732603550E0,-1.288235855E1,-4.265206456E-1
4.281277547E0,2.580659151E0,-1.252941799E1,-4.438686073E-1
4.283531392E0,2.413161755E0,-1.208136177E1,-3.846462369E-1
4.285780233E0,2.350948334E0,-1.163809109E1,-3.050848842E-1
4.288023945E0,2.259422779E0,-1.126660538E1,-1.501496136E-1
4.290288899E0,2.067996979E0,-1.090947628E1,9.092725813E-2
4.292542622E0,1.871785522E0,-1.053260708E1,2.548356056E-1
4.294798787E0,1.657029629E0,-1.021795082E1,3.517449200E-1
4.297048542E0,1.390229940E0,-9.998409271E0,3.996013701E-1
4.299301167E0,1.142572761E0,-9.783653259E0,4.145565331E-1
4.301552144E0,8.572286963E-1,-9.654440880E0,4.474578202E-1
4.303808309E0,6.382854581E-1,-9.559326172E0,4.522434771E-1
4.306061178E0,4.911268353E-1,-9.501898766E0,4.420739710E-1
4.308315023E0,3.631108403E-1,-9.525228500E0,4.271188378E-1
4.310567219E0,1.824527234E-1,-9.620343208E0,4.402793646E-1
4.312817219E0,7.776673883E-2,-9.753743172E0,4.725824594E-1
4.315060566E0,-5.623133108E-2,-9.815957069E0,5.766702294E-1
4.317326558E0,-3.038884699E-1,-9.934999466E0,7.280163169E-1
4.319580647E0,-4.522434771E-1,-1.003011417E1,8.554341197E-1
4.321835896E0,-4.809573591E-1,-1.010668468E1,8.883354068E-1
4.324086141E0,-3.846462369E-1,-1.017787075E1,7.351947427E-1
4.326338643E0,-4.408775866E-1,-1.022512913E1,5.820540786E-1
4.328591755E0,-4.259224236E-1,-1.021555805E1,4.767699242E-1
4.330842000E0,-3.397808075E-1,-1.020598698E1,3.625126183E-1
4.333084981E0,-2.632105052E-1,-1.021496010E1,2.955136001E-1
4.335351339E0,-1.202393398E-1,-1.011505985E1,1.872383654E-1
4.337605549E0,-8.614161611E-2,-1.005284595E1,3.469592705E-2
4.339860859E0,-8.614161611E-2,-1.002413273E1,-2.273181453E-2
4.342110798E0,-1.429711580E-1,-1.002831936E1,-8.015955985E-2
4.344363422E0,-1.567298770E-1,-9.999606133E0,-1.088734269E-1
4.346617085E0,-1.848455518E-1,-1.001396275E1,-1.758724600E-1
4.348868306E0,-1.944168359E-1,-1.001874828E1,-2.141576260E-1
4.351116291E0,-2.129612118E-1,-1.004207802E1,-2.913261652E-1
4.353376057E0,-2.075773627E-1,-1.007557774E1,-3.918247223E-1
4.355630268E0,-2.207378894E-1,-1.007019424E1,-5.593222976E-1
4.357884418E0,-2.673979402E-1,-1.010788059E1,-7.800601721E-1
4.360136737E0,-2.428714931E-1,-1.007438183E1,-8.751748800E-1
4.362388507E0,-2.428714931E-1,-1.001216793E1,-8.650053740E-1
4.364641437E0,-2.715853751E-1,-9.921838760E0,-8.171489239E-1
4.366894245E0,-3.391826153E-1,-9.793225288E0,-7.399803996E-1
4.369147235E0,-3.960121572E-1,-9.631111145E0,-7.435696125E-1
4.371401081E0,-3.864408433E-1,-9.454640388E0,-7.902296782E-1
4.373655170E0,-3.523431420E-1,-9.334999084E0,-9.379864931E-1
4.375907185E0,-3.367897868E-1,-9.258428574E0,-1.204786181E0
4.378160054E0,-3.499503136E-1,-9.181260109E0,-1.396211982E0
4.380412861E0,-5.114658475E-1,-9.109476089E0,-1.400997639E0
4.382666095E0,-6.257231236E-1,-8.933005333E0,-1.386042476E0
4.384916034E0,-6.275177598E-1,-8.738588333E0,-1.174277663E0
4.387159198E0,-5.240281820E-1,-8.490931511E0,-9.954141974E-1
4.389424274E0,-4.055834413E-1,-8.248059273E0,-9.355936646E-1
4.391674884E0,-3.302095234E-1,-8.139185905E0,-7.674978375E-1
4.393934833E0,-2.362912297E-1,-8.120641708E0,-6.041877270E-1
4.396185078E0,-1.375873014E-2,-7.897511005E0,-4.534398913E-1
4.398439045E0,1.992024779E-1,-7.712067604E0,-2.937189937E-1
4.400691120E0,3.888336718E-1,-7.612166882E0,-2.392822653E-1
4.402944171E0,5.694918036E-1,-7.493124008E0,-2.380858511E-1
4.405197101E0,6.789634228E-1,-7.488936901E0,-2.662015259E-1
4.407450579E0,7.268198729E-1,-7.555337429E0,-2.901297510E-1
4.409703143E0,7.316055298E-1,-7.674978733E0,-2.291127741E-1
4.411951128E0,7.022934556E-1,-7.817949772E0,-1.531406492E-1
4.414208697E0,6.783652306E-1,-7.942376614E0,-2.033899166E-2
4.416461749E0,6.729813814E-1,-8.118846893E0,8.374879509E-2
4.418716998E0,6.580262184E-1,-8.257032394E0,2.021935135E-1
4.420969012E0,6.334998012E-1,-8.410173416E0,3.684946895E-1
4.423221941E0,6.131607890E-1,-8.520243645E0,5.736792088E-1
4.425475299E0,5.838487148E-1,-8.596813202E0,7.926225066E-1
4.427729388E0,5.778666735E-1,-8.626125336E0,1.046261668E0
4.429981341E0,6.334998012E-1,-8.502895355E0,1.200598717E0
4.432234270E0,6.711867452E-1,-8.478966713E0,1.348953724E0
4.434487078E0,7.890332937E-1,-8.503493309E0,1.435095429E0
4.436740313E0,9.128618240E-1,-8.603992462E0,1.511665702E0
4.438993549E0,9.978070259E-1,-8.709276199E0,1.635494232E0
4.441246722E0,1.149153113E0,-8.833703041E0,1.716850281E0
4.443500140E0,1.277169108E0,-8.891130447E0,1.793420553E0
4.445753802E0,1.376471281E0,-8.953344345E0,1.903490424E0
4.448003192E0,1.433300734E0,-9.058628082E0,1.965105653E0
4.450244586E0,1.466202021E0,-9.130413055E0,2.036890268E0
4.452498614E0,1.504487276E0,-9.196813583E0,2.041077614E0
4.454764971E0,1.580459356E0,-9.230313301E0,1.988435626E0
4.457020953E0,1.609771490E0,-9.259027481E0,1.916650891E0
4.459275836E0,1.628913999E0,-9.259027481E0,1.850250125E0
4.461529498E0,1.700698733E0,-9.235098839E0,1.764706731E0
4.463778704E0,1.743769526E0,-9.211171150E0,1.697707653E0
4.466030657E0,1.758724689E0,-9.125029564E0,1.545165181E0
4.468282672E0,1.797608018E0,-9.058030128E0,1.416550994E0
4.470533465E0,1.774278045E0,-8.962317467E0,1.307079315E0
4.472776995E0,1.756331801E0,-8.890532494E0,1.159322619E0
4.475043047E0,1.709073544E0,-8.823533058E0,1.083350420E0
4.477295977E0,1.614557028E0,-8.822935104E0,9.774680734E-1
4.479552752E0,1.505683661E0,-8.803194046E0,8.673982024E-1
4.481803545E0,1.401595831E0,-8.731410027E0,7.381857634E-1
4.484051958E0,1.287936807E0,-8.683553696E0,6.616154313E-1
4.486294939E0,1.170090318E0,-8.606385231E0,4.989035130E-1
4.488560748E0,1.080957651E0,-8.520243645E0,3.266202807E-1
4.490814350E0,9.864411354E-1,-8.443673134E0,1.597209126E-1
4.493071124E0,9.302098155E-1,-8.324031830E0,7.178467698E-3
4.495320940E0,8.315058947E-1,-8.328219414E0,-1.800599098E-1
4.497573993E0,7.423732281E-1,-8.365307808E0,-3.960121572E-1
4.499828265E0,6.580262184E-1,-8.426922798E0,-6.263213158E-1
4.502080463E0,5.838487148E-1,-8.478368759E0,-9.284151793E-1
4.504334429E0,4.947160780E-1,-8.587242126E0,-1.197009563E0
4.506586016E0,3.870390654E-1,-8.710473061E0,-1.466202021E0
4.508839434E0,2.410768867E-1,-8.886344910E0,-1.692921996E0
4.511092059E0,9.990034252E-2,-9.032905579E0,-1.933400750E0
4.513342059E0,-7.956135273E-2,-9.208778381E0,-2.145763636E0
4.515585712E0,-2.781656384E-1,-9.379864693E0,-2.305484533E0
4.517852496E0,-5.150550604E-1,-9.545567513E0,-2.479562521E0
4.520105182E0,-7.465606928E-1,-9.707083702E0,-2.673381090E0
4.522361346E0,-9.882357717E-1,-9.830313683E0,-2.790031195E0
4.524611102E0,-1.235294700E0,-9.934401512E0,-2.896511793E0
4.526864214E0,-1.476969719E0,-1.001037312E1,-3.008376360E0
4.529113543E0,-1.723430514E0,-1.008096218E1,-3.086143017E0
4.531354021E0,-1.946561217E0,-1.020000458E1,-3.150151014E0
4.533607440E0,-2.164906263E0,-1.033280659E1,-3.214159012E0
4.535861469E0,-2.368894339E0,-1.048475075E1,-3.292523861E0
4.538119830E0,-2.582453728E0,-1.066540909E1,-3.342773199E0
4.540385943E0,-2.752942562E0,-1.084606647E1,-3.373281717E0
4.542638812E0,-2.867199659E0,-1.097468090E1,-3.412763357E0
4.544892107E0,-2.937788010E0,-1.104586792E1,-3.461217880E0
4.547142168E0,-2.956930637E0,-1.109372425E1,-3.437887907E0
4.549391804E0,-2.957528830E0,-1.106979561E1,-3.394817114E0
4.551636128E0,-2.924627542E0,-1.105125141E1,-3.255435228E0
4.553902179E0,-2.835494757E0,-1.100399303E1,-3.049054146E0
4.556154437E0,-2.670390129E0,-1.097169018E1,-2.857030153E0
4.558410419E0,-2.428714991E0,-1.093400288E1,-2.678765059E0
4.560660297E0,-2.092523336E0,-1.084905815E1,-2.519043922E0
4.562913716E0,-1.684547186E0,-1.075035381E1,-2.373081923E0
