"Time (s)","Gyroscope x (rad/s)","Gyroscope y (rad/s)","Gyroscope z (rad/s)"
8.741312000E-3,1.136972904E-1,-5.322163701E-1,-6.024658307E-2
1.074131200E-2,1.136972904E-1,-5.322163701E-1,-6.024658307E-2
1.274131200E-2,1.136972904E-1,-5.322163701E-1,-6.024658307E-2
1.474131200E-2,1.136972904E-1,-5.322163701E-1,-6.024658307E-2
1.674131200E-2,-4.965570867E-1,-6.171266437E-1,-9.995282441E-2
1.874131200E-2,-5.423719883E-1,-6.507241726E-1,-9.750936180E-2
2.073611200E-2,-5.747478604E-1,-6.922630668E-1,-9.506590664E-2
2.273611200E-2,-5.875760317E-1,-7.166976333E-1,-9.201157838E-2
2.473611200E-2,-6.077345610E-1,-7.728972435E-1,-8.956811577E-2
2.673623700E-2,-6.181192994E-1,-8.297077417E-1,-8.773551881E-2
2.873634800E-2,-6.211736202E-1,-8.474228382E-1,-8.651378751E-2
3.073644800E-2,-6.230061650E-1,-8.944594264E-1,-8.529205620E-2
3.273653800E-2,-6.193410158E-1,-9.451612234E-1,-7.918340713E-2
3.473662100E-2,-6.162866950E-1,-9.671524167E-1,-7.735081017E-2
3.673669700E-2,-6.095671654E-1,-1.009912968E0,-6.940956414E-2
3.873676800E-2,-6.016259193E-1,-1.056338668E0,-6.146831438E-2
4.073683400E-2,-5.979607105E-1,-1.078329921E0,-6.146831438E-2
4.273683400E-2,-5.887977481E-1,-1.124755621E0,-5.963572115E-2
4.473683400E-2,-5.759695768E-1,-1.147968531E0,-6.024658307E-2
4.673683400E-2,-5.698609352E-1,-1.143692493E0,-6.085744873E-2
4.873683400E-2,-5.661957264E-1,-1.137583852E0,-6.024658307E-2
5.073683400E-2,-5.576435924E-1,-1.116814375E0,-5.413793400E-2
5.273683400E-2,-5.558109879E-1,-1.098488450E0,-4.497495294E-2
5.473683400E-2,-5.509241223E-1,-1.096655846E0,-3.581197560E-2
5.673683400E-2,-5.509241223E-1,-1.097266674E0,-2.237293869E-2
5.873683400E-2,-5.515349507E-1,-1.100321054E0,-5.879578181E-3
6.073579400E-2,-5.594761968E-1,-1.108873129E0,1.000291854E-2
6.273475500E-2,-5.594761968E-1,-1.108873129E0,1.000291854E-2
6.473475500E-2,-5.692500472E-1,-1.116814375E0,1.916589774E-2
6.673475500E-2,-5.741369724E-1,-1.119257808E0,2.038762718E-2
6.873475500E-2,-5.881868601E-1,-1.107040524E0,2.222022414E-2
7.073475500E-2,-5.949063897E-1,-1.088103771E0,2.832887508E-2
7.273475500E-2,-5.997933149E-1,-1.046564937E0,3.321579844E-2
7.473478800E-2,-6.040693521E-1,-1.023962855E0,3.565925732E-2
7.673482100E-2,-6.089562774E-1,-9.867000580E-1,4.115704447E-2
7.873485400E-2,-6.156758070E-1,-9.604328871E-1,4.298964143E-2
8.073575400E-2,-6.168975234E-1,-9.531024694E-1,4.726569727E-2
8.273578700E-2,-6.266713738E-1,-9.463829994E-1,4.787656292E-2
8.473582000E-2,-6.340017915E-1,-9.482156038E-1,4.909829423E-2
8.673582000E-2,-6.413321495E-1,-9.469938278E-1,5.032002553E-2
8.873582000E-2,-6.468299627E-1,-9.433286786E-1,5.093089119E-2
9.073578600E-2,-6.523277164E-1,-9.439395070E-1,5.276348442E-2
9.273575200E-2,-6.559929252E-1,-9.402743578E-1,5.398521572E-2
9.473571800E-2,-6.572146416E-1,-9.366091490E-1,5.337435007E-2
9.673568400E-2,-6.566037536E-1,-9.384417534E-1,5.581781268E-2
9.873565000E-2,-6.541603208E-1,-9.512699246E-1,5.826127157E-2
1.007347500E-1,-6.113997698E-1,-1.052673578E0,6.803511828E-2
1.027338830E-1,-6.113997698E-1,-1.052673578E0,6.803511828E-2
1.047330160E-1,-6.113997698E-1,-1.052673578E0,6.803511828E-2
1.067331820E-1,-6.113997698E-1,-1.052673578E0,6.803511828E-2
1.087332150E-1,-5.869651437E-1,-1.103375316E0,6.742425263E-2
1.107332480E-1,-5.509241223E-1,-1.167516232E0,6.925684959E-2
1.127332810E-1,-5.081635118E-1,-1.234711409E0,6.986771524E-2
1.147333140E-1,-4.837289155E-1,-1.268919826E0,6.986771524E-2
1.167333470E-1,-4.336379766E-1,-1.343445420E0,6.803511828E-2
1.187333800E-1,-3.713297248E-1,-1.416749239E0,6.436992437E-2
1.207342460E-1,-3.401755691E-1,-1.455844641E0,5.948300287E-2
1.227351460E-1,-2.766456008E-1,-1.526704907E0,4.909829423E-2
1.247351460E-1,-2.161699384E-1,-1.606728315E0,3.382666409E-2
1.267351460E-1,-1.880701333E-1,-1.645212770E0,2.344195358E-2
1.287351460E-1,-1.361465901E-1,-1.723403573E0,-1.137736533E-2
1.307351460E-1,-9.033169597E-2,-1.782046676E0,-4.314235970E-2
1.327351460E-1,-5.734497309E-2,-1.839468002E0,-7.246389240E-2
1.347351120E-1,-4.573853686E-2,-1.864513397E0,-8.345946670E-2
1.367350780E-1,-3.535382450E-2,-1.911550045E0,-9.567677230E-2
1.387350440E-1,-4.024074972E-2,-1.951256275E0,-9.445504099E-2
1.407341440E-1,-1.123228446E-1,-2.078927040E0,-4.864014685E-2
1.427332440E-1,-1.123228446E-1,-2.078927040E0,-4.864014685E-2
1.447323440E-1,-1.318705380E-1,-2.103972673E0,-4.130976275E-2
1.467316770E-1,-1.318705380E-1,-2.103972673E0,-4.130976275E-2
1.487316430E-1,-1.526399553E-1,-2.129628897E0,-3.397937864E-2
1.507316430E-1,-1.935679317E-1,-2.169335127E0,-2.237293869E-2
1.527316760E-1,-2.235003263E-1,-2.182163477E0,-7.712173741E-3
1.547317090E-1,-2.338850349E-1,-2.188271999E0,-5.268712528E-3
1.567317420E-1,-2.619848251E-1,-2.195602417E0,3.283400787E-3
1.587317750E-1,-3.187952936E-1,-2.179719925E0,1.733330078E-2
1.607326750E-1,-3.591124117E-1,-2.157728672E0,1.550070569E-2
1.627335750E-1,-4.391357601E-1,-2.109470367E0,2.290744742E-4
1.647344750E-1,-4.892266989E-1,-2.066098928E0,-1.504255645E-2
1.667343410E-1,-4.947244823E-1,-2.049605608E0,-2.237293869E-2
1.687343070E-1,-4.873940945E-1,-2.024560213E0,-3.031418845E-2
1.707342730E-1,-4.702898860E-1,-2.019062281E0,-3.520110995E-2
1.727342390E-1,-4.586834311E-1,-2.014786243E0,-3.581197560E-2
1.747342050E-1,-4.574617147E-1,-2.004401684E0,-3.520110995E-2
1.767341710E-1,-4.763985276E-1,-1.943315029E0,-3.764457256E-2
1.787341370E-1,-5.258786082E-1,-1.858404756E0,-4.925100878E-2
1.807332700E-1,-6.413321495E-1,-1.719127536E0,-1.702023298E-1
1.827324030E-1,-6.413321495E-1,-1.719127536E0,-1.702023298E-1
1.847315690E-1,-6.413321495E-1,-1.719127536E0,-1.702023298E-1
1.867307350E-1,-6.413321495E-1,-1.719127536E0,-1.702023298E-1
1.887298680E-1,-6.413321495E-1,-1.719127536E0,-1.702023298E-1
1.907299010E-1,-6.321691871E-1,-1.705688477E0,-1.983021349E-1
1.927299340E-1,-6.291148663E-1,-1.697136402E0,-2.117411643E-1
1.947299670E-1,-6.297256947E-1,-1.680642962E0,-2.337323129E-1
1.967300000E-1,-6.340017915E-1,-1.656819224E0,-2.514474094E-1
1.987300000E-1,-6.498842835E-1,-1.626886845E0,-2.612212598E-1
2.007308660E-1,-6.596581340E-1,-1.608560920E0,-2.636647224E-1
2.027317320E-1,-6.926448345E-1,-1.567022085E0,-2.630538344E-1
2.047325980E-1,-7.323510647E-1,-1.529148459E0,-2.679407597E-1
2.067332310E-1,-7.567856908E-1,-1.508989930E0,-2.667190433E-1
2.087332310E-1,-8.135961294E-1,-1.460731506E0,-2.673299015E-1
2.107332310E-1,-8.759043813E-1,-1.405142784E0,-2.661081851E-1
2.127331970E-1,-9.064476490E-1,-1.374599576E0,-2.654972970E-1
2.147331630E-1,-9.760863185E-1,-1.315956473E0,-2.636647224E-1
2.167331290E-1,-1.045724988E0,-1.254259109E0,-2.606103718E-1
2.187330950E-1,-1.114141822E0,-1.186452985E0,-2.514474094E-1
2.207322610E-1,-1.177060962E0,-1.122312188E0,-2.410627007E-1
2.227326940E-1,-1.210047722E0,-1.086271167E0,-2.355649173E-1
2.247326600E-1,-1.269912481E0,-1.016632438E0,-2.202932835E-1
2.267326260E-1,-1.294957995E0,-9.769262671E-1,-2.123520374E-1
2.287326260E-1,-1.348103285E0,-8.950703144E-1,-1.928043365E-1
2.307326590E-1,-1.398194194E0,-8.071057200E-1,-1.738675237E-1
2.327326920E-1,-1.422017932E0,-7.637342811E-1,-1.653154045E-1
2.347327250E-1,-1.461113334E0,-6.776022911E-1,-1.500437707E-1
2.367327580E-1,-1.497154355E0,-5.951354504E-1,-1.311069578E-1
2.387327910E-1,-1.524032474E0,-5.224425197E-1,-1.182787865E-1
2.407336910E-1,-1.535638809E0,-4.894557893E-1,-1.140027270E-1
2.427345910E-1,-1.549077868E0,-4.295909703E-1,-1.042288840E-1
2.447354570E-1,-1.554575682E0,-3.825543523E-1,-1.011745557E-1
2.467362900E-1,-1.555186510E0,-3.623957932E-1,-9.750936180E-2
2.487371560E-1,-1.542969227E0,-3.245221674E-1,-9.995282441E-2
2.507371220E-1,-1.529530168E0,-2.897028327E-1,-1.054506153E-1
2.527370880E-1,-1.522199869E0,-2.725986242E-1,-1.030071527E-1
2.547370540E-1,-1.499597788E0,-2.512183189E-1,-1.054506153E-1
2.567370200E-1,-1.470887184E0,-2.335032374E-1,-1.042288840E-1
2.587370200E-1,-1.433013558E0,-2.163990140E-1,-1.030071527E-1
2.607361530E-1,-1.371316075E0,-1.858557463E-1,-1.005636901E-1
2.627352860E-1,-1.371316075E0,-1.858557463E-1,-1.005636901E-1
2.647353190E-1,-1.326112032E0,-1.718058437E-1,-9.812022746E-2
2.667353520E-1,-1.302288294E0,-1.644754708E-1,-9.506590664E-2
2.687353850E-1,-1.253419161E0,-1.467603743E-1,-8.712465316E-2
2.707354180E-1,-1.203939080E0,-1.217148975E-1,-8.101600409E-2
2.727354510E-1,-1.183169603E0,-1.076650023E-1,-7.673994452E-2
2.747354840E-1,-1.131856918E0,-8.200865984E-2,-6.940956414E-2
2.767354840E-1,-1.086042047E0,-6.307183951E-2,-6.146831438E-2
2.787354840E-1,-1.041448832E0,-4.046982154E-2,-4.864014685E-2
2.807362840E-1,-1.017014265E0,-3.130684420E-2,-4.497495294E-2
2.827358170E-1,-9.724211097E-1,-1.985311974E-3,-3.581197560E-2
2.847358170E-1,-9.296605587E-1,1.939497143E-2,-2.542726509E-2
2.867358170E-1,-9.131671786E-1,2.916881628E-2,-2.115120925E-2
2.887358170E-1,-8.789587021E-1,5.054909736E-2,-1.320996135E-2
2.907357830E-1,-8.471937180E-1,6.520986557E-2,-3.436116967E-3
2.927357490E-1,-8.307003975E-1,7.192938030E-2,4.505131394E-3
2.947357150E-1,-8.074874878E-1,8.353582025E-2,1.488984004E-2
2.967356810E-1,-7.842746377E-1,9.330966324E-2,2.527454868E-2
2.987356470E-1,-7.738898993E-1,9.758572280E-2,3.382666409E-2
3.007347470E-1,-7.183011770E-1,1.366810948E-1,5.703954399E-2
3.027338470E-1,-7.183011770E-1,1.366810948E-1,5.703954399E-2
3.047329470E-1,-7.183011770E-1,1.366810948E-1,5.703954399E-2
3.067320470E-1,-7.115816474E-1,1.440114826E-1,6.436992437E-2
3.087320800E-1,-7.054730058E-1,1.531744599E-1,6.803511828E-2
3.107321130E-1,-6.969208717E-1,1.751656085E-1,7.841982692E-2
3.127321460E-1,-6.908122301E-1,1.843285859E-1,8.513934165E-2
3.147321790E-1,-6.828709841E-1,2.026545405E-1,9.124799818E-2
3.167322120E-1,-6.816492677E-1,2.313652188E-1,9.063713253E-2
3.187322450E-1,-6.785949469E-1,2.429716438E-1,8.758280426E-2
3.207331450E-1,-6.865361929E-1,2.710714638E-1,7.780896127E-2
3.227340450E-1,-6.950882673E-1,2.893974185E-1,6.375905871E-2
3.247340110E-1,-7.073056102E-1,3.144428730E-1,4.665483162E-2
3.267339770E-1,-7.176902890E-1,3.284927905E-1,3.627012298E-2
3.287339430E-1,-7.341836691E-1,3.474296033E-1,1.550070569E-2
3.307339090E-1,-7.531204820E-1,3.651446998E-1,-1.015563495E-2
3.327338750E-1,-7.641160488E-1,3.761402667E-1,-2.298380435E-2
3.347338410E-1,-7.848854661E-1,3.938553631E-1,-4.619668424E-2
3.367338410E-1,-8.026005626E-1,4.060726762E-1,-6.513350457E-2
3.387338410E-1,-8.129853010E-1,4.182899892E-1,-7.490734756E-2
3.407330070E-1,-8.606327772E-1,4.421137273E-1,-1.054506153E-1
3.427321730E-1,-8.606327772E-1,4.421137273E-1,-1.054506153E-1
3.447313390E-1,-8.655197024E-1,4.390594065E-1,-1.048397496E-1
3.467307720E-1,-8.655197024E-1,4.390594065E-1,-1.048397496E-1
3.487308050E-1,-8.691849113E-1,4.384485185E-1,-1.060614809E-1
3.507308380E-1,-8.759043813E-1,4.250094891E-1,-1.011745557E-1
3.527308710E-1,-8.838456273E-1,4.189008474E-1,-9.873109311E-2
3.547309040E-1,-8.844565153E-1,3.932445049E-1,-8.956811577E-2
3.567305040E-1,-8.899543285E-1,3.627012372E-1,-8.162686974E-2
3.587305040E-1,-8.887325525E-1,3.413209617E-1,-7.490734756E-2
3.607313700E-1,-8.917868733E-1,2.967278063E-1,-6.146831438E-2
3.627322360E-1,-8.850674033E-1,2.399173230E-1,-4.680754989E-2
3.647331020E-1,-8.844565153E-1,1.794416606E-1,-3.336851299E-2
3.667340020E-1,-8.777369857E-1,1.440114826E-1,-2.725986205E-2
3.687339680E-1,-8.704066277E-1,7.254024595E-2,-1.443169173E-2
3.707339340E-1,-8.588001728E-1,-1.237002108E-2,3.283400787E-3
3.727339000E-1,-8.539132476E-1,-5.390885845E-2,1.183551457E-2
3.747338660E-1,-8.423067927E-1,-1.473712474E-1,2.832887508E-2
3.767338320E-1,-8.307003975E-1,-2.420553565E-1,4.360050708E-2
3.787337980E-1,-8.221482635E-1,-2.933680415E-1,4.848742858E-2
3.807328980E-1,-7.714464664E-1,-6.067419052E-1,6.375905871E-2
3.827319980E-1,-7.653377652E-1,-6.397286057E-1,6.253732741E-2
3.847311310E-1,-7.653377652E-1,-6.397286057E-1,6.253732741E-2
3.867303640E-1,-7.653377652E-1,-6.397286057E-1,6.253732741E-2
3.887294970E-1,-7.653377652E-1,-6.397286057E-1,6.253732741E-2
3.907291300E-1,-7.635052204E-1,-6.885978580E-1,5.581781268E-2
3.927291630E-1,-7.592291236E-1,-7.118107080E-1,5.459608138E-2
3.947291960E-1,-7.610617280E-1,-7.509061098E-1,5.276348442E-2
3.967292290E-1,-7.683921456E-1,-7.887797356E-1,5.032002553E-2
3.987292620E-1,-7.745007873E-1,-7.979426980E-1,5.154175684E-2
4.007301280E-1,-7.885506749E-1,-8.272642493E-1,5.154175684E-2
4.027309610E-1,-8.135961294E-1,-8.571966290E-1,4.482223839E-2
4.047317940E-1,-8.410850763E-1,-8.743008971E-1,4.176791012E-2
4.067323600E-1,-8.557458520E-1,-8.785769343E-1,4.054617882E-2
4.087323260E-1,-8.899543285E-1,-8.761335015E-1,4.298964143E-2
4.107322920E-1,-9.217193127E-1,-8.633053303E-1,4.543310404E-2
4.127322580E-1,-9.394344091E-1,-8.565858006E-1,4.787656292E-2
4.147322240E-1,-9.791406393E-1,-8.382598162E-1,4.909829423E-2
4.167326240E-1,-1.018236041E0,-8.205447197E-1,5.276348442E-2
4.187326570E-1,-1.039005399E0,-8.107708693E-1,5.398521572E-2
4.207318230E-1,-1.084820271E0,-7.893906236E-1,5.765040591E-2
4.227315230E-1,-1.128191710E0,-7.704538107E-1,5.765040591E-2
4.247315560E-1,-1.150793791E0,-7.570147514E-1,5.581781268E-2
4.267315890E-1,-1.191721678E0,-7.307475209E-1,5.520694703E-2
4.287316220E-1,-1.233871460E0,-7.038694620E-1,5.032002553E-2
4.307316550E-1,-1.274799466E0,-6.721044779E-1,4.482223839E-2
4.327316880E-1,-1.294347048E0,-6.574437022E-1,4.054617882E-2
4.347316880E-1,-1.327333808E0,-6.244570017E-1,3.199406713E-2
4.367316880E-1,-1.362153172E0,-5.859724879E-1,2.038762718E-2
4.387316880E-1,-1.373148680E0,-5.670356750E-1,1.305724494E-2
4.407325540E-1,-1.398194194E0,-5.291619897E-1,-2.825251780E-3
4.427334200E-1,-1.411633253E0,-4.931209683E-1,-2.054034360E-2
4.447342860E-1,-1.422017932E0,-4.711298347E-1,-3.153591976E-2
4.467350520E-1,-1.428737402E0,-4.387539625E-1,-5.047274008E-2
4.487359180E-1,-1.434235215E0,-4.008803070E-1,-7.124216110E-2
4.507362840E-1,-1.428126574E0,-3.648392558E-1,-9.445504099E-2
4.527362500E-1,-1.426293969E0,-3.465133011E-1,-1.036180183E-1
4.547362160E-1,-1.414076686E0,-3.110831380E-1,-1.274417639E-1
4.567361820E-1,-1.395139813E0,-2.787072659E-1,-1.530981064E-1
4.587361480E-1,-1.386587739E0,-2.616030276E-1,-1.634828150E-1
4.607352480E-1,-1.329166412E0,-2.023491114E-1,-2.154063582E-1
4.627343480E-1,-1.329166412E0,-2.023491114E-1,-2.154063582E-1
4.647343810E-1,-1.316338301E0,-1.876883507E-1,-2.288453877E-1
4.667344140E-1,-1.277242899E0,-1.748601794E-1,-2.612212598E-1
4.687344470E-1,-1.234482288E0,-1.656972021E-1,-2.929862440E-1
4.707344800E-1,-1.195386887E0,-1.547016203E-1,-3.296381533E-1
4.727345130E-1,-1.172174096E0,-1.516472995E-1,-3.461315334E-1
4.747345460E-1,-1.131856918E0,-1.430951804E-1,-3.895029426E-1
4.767345790E-1,-1.086042047E0,-1.443169117E-1,-4.328743815E-1
4.787345790E-1,-1.059774876E0,-1.510364264E-1,-4.524220824E-1
4.807354120E-1,-1.015181661E0,-1.547016203E-1,-4.964043796E-1
4.827357120E-1,-9.620364308E-1,-1.669189334E-1,-5.385540724E-1
4.847356780E-1,-9.376018047E-1,-1.656972021E-1,-5.617669225E-1
4.867356440E-1,-8.820130825E-1,-1.809688359E-1,-6.081926823E-1
4.887356100E-1,-8.282569051E-1,-1.895209402E-1,-6.552293301E-1
4.907355760E-1,-7.751116157E-1,-2.041817009E-1,-7.065420151E-1
4.927355420E-1,-7.470118403E-1,-2.121229619E-1,-7.303657532E-1
4.947355420E-1,-6.920339465E-1,-2.286163121E-1,-7.816784382E-1
4.967355750E-1,-6.352235079E-1,-2.451096773E-1,-8.342128396E-1
4.987356080E-1,-6.071236730E-1,-2.536617815E-1,-8.629235029E-1
5.007347740E-1,-3.969860375E-1,-2.933680415E-1,-1.059011221E0
5.027339400E-1,-3.969860375E-1,-2.933680415E-1,-1.059011221E0
5.047331060E-1,-3.969860375E-1,-2.933680415E-1,-1.059011221E0
5.067332390E-1,-3.969860375E-1,-2.933680415E-1,-1.059011221E0
5.087332720E-1,-3.346777856E-1,-2.848159075E-1,-1.113378286E0
5.107333050E-1,-2.723695338E-1,-2.738203406E-1,-1.170799613E0
5.127333050E-1,-2.406045496E-1,-2.597704530E-1,-1.198288560E0
5.147333050E-1,-1.721876413E-1,-2.341141105E-1,-1.250212073E0
5.167333050E-1,-1.074359268E-1,-1.895209402E-1,-1.296026945E0
5.187333050E-1,-7.750352472E-2,-1.620320082E-1,-1.319850683E0
5.207341710E-1,-1.886046492E-2,-1.033889428E-1,-1.362611294E0
5.227350710E-1,3.367394581E-2,-3.191770986E-2,-1.400484920E0
5.247350370E-1,6.238461286E-2,4.123340361E-3,-1.417589188E0
5.267350030E-1,1.075886413E-1,8.536841720E-2,-1.448743343E0
5.287349690E-1,1.515709460E-1,1.629483104E-1,-1.472567081E0
5.307349350E-1,1.924989074E-1,2.417499274E-1,-1.486616969E0
5.327349010E-1,2.102140039E-1,2.808452845E-1,-1.492114663E0
5.347348670E-1,2.450333238E-1,3.437644243E-1,-1.497001648E0
5.367348330E-1,2.829069793E-1,3.657555580E-1,-1.486006021E0
5.387347990E-1,3.000111878E-1,3.688098788E-1,-1.474399686E0
5.407339320E-1,4.234059751E-1,2.643519342E-1,-1.352837443E0
5.427330980E-1,4.234059751E-1,2.643519342E-1,-1.352837443E0
5.447322640E-1,4.362341464E-1,2.386955917E-1,-1.332067966E0
5.467320300E-1,4.362341464E-1,2.386955917E-1,-1.332067966E0
5.487320630E-1,4.496731758E-1,2.130392492E-1,-1.314963818E0
5.507320960E-1,4.576144218E-1,1.861611903E-1,-1.297859550E0
5.527321290E-1,4.710534513E-1,1.250746548E-1,-1.263651133E0
5.547321620E-1,4.814381599E-1,4.566217586E-2,-1.234329581E0
5.567321620E-1,4.875468314E-1,-4.046982154E-2,-1.204397202E0
5.587321280E-1,4.924337566E-1,-9.300423414E-2,-1.190347314E0
5.607329610E-1,4.985423982E-1,-1.962404549E-1,-1.167745233E0
5.627337940E-1,5.070945024E-1,-3.153591752E-1,-1.145754099E0
5.647346270E-1,5.089271069E-1,-3.758348525E-1,-1.137202024E0
5.667344930E-1,5.187009573E-1,-5.041165352E-1,-1.117654324E0
5.687344590E-1,5.229769945E-1,-6.244570017E-1,-1.103604436E0
5.707344250E-1,5.278639197E-1,-6.843217611E-1,-1.095663190E0
5.727344250E-1,5.358051658E-1,-7.961101532E-1,-1.079780698E0
5.747344580E-1,5.406920910E-1,-8.956811428E-1,-1.066952467E0
5.767344910E-1,5.455790162E-1,-9.812023044E-1,-1.052291751E0
5.787345240E-1,5.492442250E-1,-1.019075990E0,-1.045572281E0
5.807336900E-1,5.235878825E-1,-1.121701360E0,-9.191231132E-1
5.827328560E-1,5.235878825E-1,-1.121701360E0,-9.191231132E-1
5.847320220E-1,5.144249201E-1,-1.119257808E0,-8.946884871E-1
5.867311880E-1,5.144249201E-1,-1.119257808E0,-8.946884871E-1
5.887303540E-1,5.144249201E-1,-1.119257808E0,-8.946884871E-1
5.907303540E-1,5.028184652E-1,-1.112538338E0,-8.733082414E-1
5.927311870E-1,4.637230933E-1,-1.092379808E0,-8.213846684E-1
5.947311870E-1,4.331798255E-1,-1.069166899E0,-7.670176625E-1
5.967312530E-1,3.898083866E-1,-1.028238893E0,-7.071529031E-1
5.987312530E-1,3.702606857E-1,-1.013578176E0,-6.735553145E-1
6.007321190E-1,3.189480305E-1,-9.628763199E-1,-6.045275331E-1
6.027329520E-1,2.731331289E-1,-9.347765446E-1,-5.324454308E-1
6.047337850E-1,2.462550551E-1,-9.219483733E-1,-4.951826334E-1
6.067340180E-1,1.992184222E-1,-9.329439402E-1,-4.243222773E-1
6.087339840E-1,1.515709460E-1,-9.653198123E-1,-3.565162420E-1
6.107339500E-1,1.295797974E-1,-9.909761548E-1,-3.253620863E-1
6.127339160E-1,8.498662710E-2,-1.049619198E0,-2.593886554E-1
6.147334820E-1,4.711298272E-2,-1.121090412E0,-2.001347244E-1
6.167334480E-1,1.107193250E-2,-1.186452985E0,-1.427133977E-1
6.187334480E-1,-7.254024968E-3,-1.215774536E0,-1.152244583E-1
6.207326140E-1,-4.085161164E-2,-1.270752430E0,-6.513350457E-2
6.227323140E-1,-6.956227869E-2,-1.331838965E0,-2.176207490E-2
6.247323470E-1,-7.994698733E-2,-1.359938741E0,-3.436116967E-3
6.267323800E-1,-1.056033298E-1,-1.430799127E0,2.588541433E-2
6.287324130E-1,-1.294270754E-1,-1.507768154E0,4.665483162E-2
6.307324460E-1,-1.404226422E-1,-1.545641780E0,5.276348442E-2
6.327324790E-1,-1.587486118E-1,-1.628108621E0,6.253732741E-2
6.347324790E-1,-1.764636934E-1,-1.714240551E0,5.826127157E-2
6.367324450E-1,-1.844049394E-1,-1.795485616E0,5.337435007E-2
6.387324110E-1,-2.015091777E-1,-1.812589884E0,4.604396969E-2
6.407323440E-1,-2.418262810E-1,-1.828472376E0,2.038762718E-2
6.427331770E-1,-3.096323311E-1,-1.822363734E0,-8.323038928E-3
6.447340100E-1,-3.444516361E-1,-1.822363734E0,-2.237293869E-2
6.467348430E-1,-4.104250968E-1,-1.821752906E0,-3.947716579E-2
6.487356760E-1,-4.550182521E-1,-1.847409248E0,-3.947716579E-2
6.507356760E-1,-4.763985276E-1,-1.859626532E0,-2.909245715E-2
6.527348760E-1,-5.051091909E-1,-1.873065591E0,8.399396902E-4
6.547349090E-1,-5.442045927E-1,-1.871843815E0,4.909829423E-2
6.567348750E-1,-5.765804052E-1,-1.873676419E0,1.132391468E-1
6.587349080E-1,-5.912411809E-1,-1.874287248E0,1.486693323E-1
6.607340740E-1,-6.309474111E-1,-1.875509024E0,3.117703497E-1
6.627332070E-1,-6.309474111E-1,-1.875509024E0,3.117703497E-1
6.647333070E-1,-6.364452243E-1,-1.874898195E0,3.588069677E-1
6.667333400E-1,-6.443864703E-1,-1.860848308E0,4.516584873E-1
6.687333400E-1,-6.492733955E-1,-1.836413622E0,5.463426113E-1
6.707333400E-1,-6.456081867E-1,-1.826028943E0,5.933791995E-1
6.727333400E-1,-6.425538659E-1,-1.792431355E0,6.801220775E-1
6.747337400E-1,-6.340017915E-1,-1.767385840E0,7.619780302E-1
6.767337400E-1,-6.346126199E-1,-1.736231685E0,7.998516560E-1
6.787337400E-1,-6.315582991E-1,-1.668425679E0,8.707120419E-1
6.807345730E-1,-6.266713738E-1,-1.593900084E0,9.305768609E-1
6.827348730E-1,-6.120105982E-1,-1.511433363E0,9.794460535E-1
6.847348390E-1,-6.065128446E-1,-1.466229320E0,9.983828664E-1
6.867348050E-1,-6.028476357E-1,-1.578628540E0,1.058247685E0
6.887347710E-1,-5.918520689E-1,-1.604895711E0,1.110782146E0
6.907347370E-1,-5.863542557E-1,-1.546252608E0,1.132162333E0
6.927347030E-1,-5.692500472E-1,-1.334893227E0,1.160262227E0
6.947346690E-1,-5.417611003E-1,-1.103375316E0,1.152320981E0
6.967346690E-1,-5.252677798E-1,-9.970847964E-1,1.133384109E0
6.987347020E-1,-4.892266989E-1,-8.028296232E-1,1.063745499E0
7.007347680E-1,-3.866013288E-1,-2.805398703E-1,6.019313335E-1
7.027339340E-1,-3.866013288E-1,-2.805398703E-1,6.019313335E-1
7.047331000E-1,-3.866013288E-1,-2.805398703E-1,6.019313335E-1
7.067322330E-1,-3.866013288E-1,-2.805398703E-1,6.019313335E-1
7.087322660E-1,-3.548363447E-1,-1.773036420E-1,4.431063831E-1
7.107322990E-1,-3.383429945E-1,-1.333213449E-1,3.624721766E-1
7.127322990E-1,-2.992476225E-1,-7.834346592E-2,2.152536362E-1
7.147322650E-1,-2.632065713E-1,-6.734789163E-2,9.308059514E-2
7.167322310E-1,-2.436588705E-1,-8.200865984E-2,3.993531689E-2
7.187321310E-1,-2.082286924E-1,-1.394299865E-1,-2.603813075E-2
7.207329640E-1,-1.776854247E-1,-2.267837226E-1,-5.658139288E-2
7.227338300E-1,-1.459204406E-1,-3.471241891E-1,-4.741841555E-2
7.247337300E-1,-1.324813962E-1,-4.033237696E-1,-3.275764734E-2
7.267336960E-1,-1.025490016E-1,-5.151121020E-1,1.916589774E-2
7.287336960E-1,-6.650795043E-2,-6.372851729E-1,9.796751291E-2
7.307337290E-1,-4.940372705E-2,-7.057020664E-1,1.401172131E-1
7.327337620E-1,-2.977967961E-3,-8.633053303E-1,2.317470014E-1
7.347337950E-1,4.772384837E-2,-1.018465042E0,3.245985210E-1
7.367338280E-1,8.009970188E-2,-1.099710107E0,3.728568852E-1
7.387338610E-1,1.442405581E-1,-1.243874311E0,4.608214796E-1
7.407330270E-1,4.124104083E-1,-1.694082022E0,7.094436288E-1
7.427321930E-1,4.124104083E-1,-1.694082022E0,7.094436288E-1
7.447313590E-1,4.124104083E-1,-1.694082022E0,7.094436288E-1
7.467307920E-1,4.496731758E-1,-1.749059916E0,7.302130461E-1
7.487307920E-1,4.844925106E-1,-1.799761772E0,7.497607470E-1
7.507307920E-1,5.199226737E-1,-1.854739547E0,7.625889182E-1
7.527307920E-1,5.852852464E-1,-1.951867223E0,7.803040147E-1
7.547307920E-1,6.414848566E-1,-2.044718742E0,7.815257311E-1
7.567307920E-1,6.683629155E-1,-2.093587875E0,7.784714103E-1
7.587307580E-1,7.123452425E-1,-2.198045969E0,7.638106346E-1
7.607315910E-1,7.532731891E-1,-2.308612585E0,7.473172545E-1
7.627315240E-1,7.703774571E-1,-2.371531487E0,7.418195009E-1
7.647323570E-1,7.966446280E-1,-2.483319998E0,7.308239341E-1
7.667332230E-1,8.174140453E-1,-2.590221405E0,7.216609120E-1
7.687331890E-1,8.369617462E-1,-2.698955297E0,7.186065912E-1
7.707331550E-1,8.400160670E-1,-2.747824669E0,7.179957628E-1
7.727331210E-1,8.528442383E-1,-2.835178375E0,7.277695537E-1
7.747331210E-1,8.552877307E-1,-2.918256044E0,7.418195009E-1
7.767331540E-1,8.558985591E-1,-2.953075409E0,7.528150678E-1
7.787332540E-1,8.583420515E-1,-3.023935795E0,7.839691639E-1
7.807324200E-1,8.308531046E-1,-3.168710709E0,9.574549198E-1
7.827315860E-1,8.308531046E-1,-3.168710709E0,9.574549198E-1
7.847307520E-1,8.204683661E-1,-3.179095507E0,9.812786579E-1
7.867299180E-1,8.204683661E-1,-3.179095507E0,9.812786579E-1
7.887290510E-1,8.204683661E-1,-3.179095507E0,9.812786579E-1
7.907290510E-1,8.161923289E-1,-3.187647581E0,1.002658963E0
7.927290170E-1,7.978663445E-1,-3.197421312E0,1.042365193E0
7.947289830E-1,7.697665691E-1,-3.201086521E0,1.072908401E0
7.967289490E-1,7.538840771E-1,-3.190701962E0,1.085125804E0
7.987291820E-1,7.111235261E-1,-3.155271769E0,1.107727766E0
8.007300150E-1,6.512587070E-1,-3.088076591E0,1.119334221E0
8.027308480E-1,6.170502305E-1,-3.039207220E0,1.121166825E0
8.047316810E-1,5.406920910E-1,-2.939636230E0,1.117501616E0
8.067322470E-1,4.405102134E-1,-2.815019846E0,1.108338594E0
8.087318800E-1,3.415500224E-1,-2.676353455E0,1.099175692E0
8.107319130E-1,2.890156209E-1,-2.596329927E0,1.092456102E0
8.127319460E-1,1.839468032E-1,-2.432007313E0,1.079017043E0
8.147319790E-1,9.598220140E-2,-2.283566952E0,1.070464969E0
8.167320120E-1,5.077817291E-2,-2.210263252E0,1.069854140E0
8.187320450E-1,-3.474296257E-2,-2.077094555E0,1.077795386E0
8.207312110E-1,-1.214858219E-1,-1.948812842E0,1.085736632E0
8.227321440E-1,-1.648572534E-1,-1.879785061E0,1.091845274E0
8.247321440E-1,-2.454914749E-1,-1.741118670E0,1.099786520E0
8.267321440E-1,-3.236822188E-1,-1.604895711E0,1.108338594E0
8.287321440E-1,-4.018729627E-1,-1.474781394E0,1.114447236E0
8.307321440E-1,-4.385249019E-1,-1.411862254E0,1.116890788E0
8.327321440E-1,-5.093852282E-1,-1.282969713E0,1.121166825E0
8.347321440E-1,-5.747478604E-1,-1.151022792E0,1.117501616E0
8.408196160E-1,-6.028476357E-1,-1.086881995E0,1.114447236E0
8.428195820E-1,-6.566037536E-1,-9.689850211E-1,1.109560370E0
8.448204150E-1,-7.097490430E-1,-8.523097038E-1,1.099786520E0
8.468212480E-1,-7.347945571E-1,-7.912232280E-1,1.097343087E0
8.488220810E-1,-7.769442201E-1,-6.824892163E-1,1.082071424E0
8.508229140E-1,-8.166504502E-1,-5.688682795E-1,1.061912894E0
8.528237800E-1,-8.435285687E-1,-4.741841555E-1,1.041754365E0
8.548237460E-1,-8.588001728E-1,-4.356996417E-1,1.029536963E0
8.568237460E-1,-8.814021945E-1,-3.593414724E-1,1.005102396E0
8.588237460E-1,-9.009498954E-1,-2.988658249E-1,9.837220907E-1
8.608237790E-1,-9.082802534E-1,-2.713768780E-1,9.782243371E-1
8.628235450E-1,-9.198867083E-1,-2.298380435E-1,9.666178823E-1
8.648227110E-1,-9.314931631E-1,-1.663080603E-1,9.739482999E-1
8.668218440E-1,-9.314931631E-1,-1.663080603E-1,9.739482999E-1
8.688218770E-1,-9.321039915E-1,-1.559233516E-1,9.794460535E-1
8.708219100E-1,-9.314931631E-1,-1.363756657E-1,9.941068292E-1
8.728223100E-1,-9.296605587E-1,-1.192714423E-1,1.000826359E0
8.748222760E-1,-9.308822751E-1,-1.107193232E-1,1.002048135E0
8.768222420E-1,-9.302713871E-1,-9.789115191E-2,1.004491568E0
8.788222080E-1,-9.241627455E-1,-8.689557761E-2,1.012432814E0
8.808221740E-1,-9.186649919E-1,-8.689557761E-2,1.015487075E0
8.828221400E-1,-9.149997830E-1,-7.956519723E-2,1.024039268E0
8.848229730E-1,-9.107237458E-1,-7.467827946E-2,1.030147910E0
8.868229390E-1,-9.058368206E-1,-7.162395120E-2,1.031980515E0
8.888229390E-1,-9.070585370E-1,-5.024366826E-2,1.027093530E0
8.908229390E-1,-9.003390074E-1,-2.275473066E-2,1.013654470E0
8.928229390E-1,-8.985064030E-1,1.206458826E-2,9.922742248E-1
8.948229390E-1,-8.985064030E-1,3.283400834E-2,9.782243371E-1
8.968229390E-1,-8.966737986E-1,6.520986557E-2,9.489027858E-1
8.988229390E-1,-8.936194777E-1,9.086620808E-2,9.159160852E-1
9.008229390E-1,-8.917868733E-1,1.067487001E-1,9.000335932E-1
9.028229390E-1,-8.966737986E-1,1.385136992E-1,8.670468330E-1
9.048220720E-1,-9.095019698E-1,2.191479057E-1,7.412086129E-1
9.068212380E-1,-9.095019698E-1,2.191479057E-1,7.412086129E-1
9.088204040E-1,-9.095019698E-1,2.191479057E-1,7.412086129E-1
9.108195370E-1,-9.095019698E-1,2.191479057E-1,7.412086129E-1
9.128195700E-1,-9.131671786E-1,2.295326144E-1,7.241044044E-1
9.148196030E-1,-9.186649919E-1,2.521346211E-1,6.917285323E-1
9.168196360E-1,-9.253844619E-1,2.796235681E-1,6.575200558E-1
9.188196690E-1,-9.339365959E-1,3.138320148E-1,6.245333552E-1
9.208196690E-1,-9.351583123E-1,3.272710443E-1,6.092617512E-1
9.228196350E-1,-9.382126331E-1,3.572034538E-1,5.756641626E-1
9.248204680E-1,-9.412670135E-1,3.901901841E-1,5.432882905E-1
9.268213340E-1,-9.424887300E-1,4.091269970E-1,5.237405896E-1
9.288209670E-1,-9.400452375E-1,4.366159439E-1,4.901430011E-1
9.308209330E-1,-9.443213344E-1,4.757113159E-1,4.559345543E-1
9.328208990E-1,-9.473756552E-1,4.958698750E-1,4.369977117E-1
9.348208990E-1,-9.424887300E-1,5.300782919E-1,4.088979363E-1
9.368208990E-1,-9.382126331E-1,5.679519773E-1,3.820198476E-1
9.388209320E-1,-9.357692003E-1,6.009386778E-1,3.588069677E-1
9.408209650E-1,-9.321039915E-1,6.119342446E-1,3.465896547E-1
9.428209980E-1,-9.327148795E-1,6.375905871E-1,3.227659166E-1
9.448201640E-1,-9.259953499E-1,6.815729141E-1,2.360230535E-1
9.468193300E-1,-9.259953499E-1,6.815729141E-1,2.360230535E-1
9.488184960E-1,-9.259953499E-1,6.815729141E-1,2.360230535E-1
9.508177620E-1,-9.235519171E-1,6.827946305E-1,2.244166136E-1
9.528177620E-1,-9.235519171E-1,6.827946305E-1,2.244166136E-1
9.548177620E-1,-9.211084247E-1,6.779077053E-1,2.018146068E-1
9.568177620E-1,-9.149997830E-1,6.687447429E-1,1.737148017E-1
9.588177620E-1,-9.137780666E-1,6.614143252E-1,1.486693323E-1
9.608177620E-1,-9.107237458E-1,6.553056836E-1,1.370628923E-1
9.628177620E-1,-9.107237458E-1,6.394231915E-1,1.089630872E-1
9.648186280E-1,-9.058368206E-1,6.223189831E-1,8.391761035E-2
9.668194610E-1,-9.040042162E-1,6.101016402E-1,7.414376736E-2
9.688202940E-1,-9.003390074E-1,5.856670737E-1,4.970915988E-2
9.708211600E-1,-8.972846866E-1,5.636758804E-1,2.588541433E-2
9.728211260E-1,-8.985064030E-1,5.545129180E-1,1.488984004E-2
9.748210920E-1,-8.911760449E-1,5.313000679E-1,-5.268712528E-3
9.768210580E-1,-8.868999481E-1,5.105306506E-1,-2.970332280E-2
9.788210240E-1,-8.887325525E-1,4.995350540E-1,-5.169447139E-2
9.808209900E-1,-8.868999481E-1,4.915938079E-1,-6.207918003E-2
9.828209900E-1,-8.832347989E-1,4.751004577E-1,-8.651378751E-2
9.848201560E-1,-8.838456273E-1,4.305072725E-1,-1.848630905E-1
9.868193220E-1,-8.838456273E-1,4.305072725E-1,-1.848630905E-1
9.888188220E-1,-8.838456273E-1,4.305072725E-1,-1.848630905E-1
9.908179880E-1,-8.844565153E-1,4.256203473E-1,-1.964695305E-1
9.928171210E-1,-8.844565153E-1,4.256203473E-1,-1.964695305E-1
9.948172210E-1,-8.850674033E-1,4.201225638E-1,-2.092977017E-1
9.968172540E-1,-8.905651569E-1,4.079052806E-1,-2.312888503E-1
9.988172540E-1,-9.033933282E-1,4.048509300E-1,-2.490039468E-1
1.000817220E0,-9.082802534E-1,4.011857510E-1,-2.581669390E-1
1.002817186E0,-9.186649919E-1,3.846924007E-1,-2.740494311E-1
1.004818019E0,-9.363800883E-1,3.627012372E-1,-2.850449979E-1
1.006818852E0,-9.467647672E-1,3.535382748E-1,-2.911536396E-1
1.008819685E0,-9.632581472E-1,3.284927905E-1,-2.966514230E-1
1.010820418E0,-9.815840721E-1,2.906191349E-1,-3.015383482E-1
1.012820418E0,-9.944122434E-1,2.729040384E-1,-3.039818108E-1
1.014820418E0,-1.016403437E0,2.350303978E-1,-3.064252734E-1
1.016820451E0,-1.034118533E0,1.910481006E-1,-3.003166318E-1
1.018820484E0,-1.046946645E0,1.397354305E-1,-2.905427814E-1
1.020820517E0,-1.055498838E0,1.171334088E-1,-2.795472145E-1
1.022820550E0,-1.065883517E0,5.665775016E-2,-2.538908720E-1
1.024819716E0,-1.067716122E0,-1.970040426E-2,-2.025781870E-1
1.026819749E0,-1.069548726E0,-6.551529467E-2,-1.665371358E-1
1.028819782E0,-1.063440084E0,-1.669189334E-1,-7.918340713E-2
1.030819782E0,-1.053666234E0,-2.634356320E-1,1.488984004E-2
1.032819782E0,-1.048168421E0,-3.092505336E-1,5.948300287E-2
1.034819782E0,-1.034118533E0,-3.685044646E-1,1.401172131E-1
1.036819782E0,-1.013960004E0,-4.106541574E-1,1.932624876E-1
1.038819782E0,-1.000520945E0,-4.277583957E-1,2.109775841E-1
1.040819782E0,-9.693667889E-1,-4.662429094E-1,2.329687327E-1
1.042819782E0,-9.223301411E-1,-5.780312419E-1,2.604576647E-1
1.044820615E0,-8.667414188E-1,-7.728972435E-1,3.044399619E-1
1.046821448E0,-8.355873227E-1,-8.877398968E-1,3.294854462E-1
1.048822281E0,-7.775551081E-1,-1.121701360E0,3.691916764E-1
1.050823114E0,-7.305184603E-1,-1.358716965E0,3.856850564E-1
1.052823980E0,-7.183011770E-1,-1.469894528E0,3.807981312E-1
1.054823880E0,-6.944774389E-1,-1.681864738E0,3.606395721E-1
1.056823846E0,-6.828709841E-1,-1.879785061E0,3.227659166E-1
1.058823812E0,-6.767623425E-1,-1.959808469E0,3.001639247E-1
1.060823812E0,-6.682102084E-1,-2.089311838E0,2.586250603E-1
1.062823845E0,-6.578255296E-1,-2.172389507E0,2.238057554E-1
1.064823011E0,-6.431647539E-1,-2.234697819E0,1.731039435E-1
1.066822144E0,-6.382778287E-1,-2.246304274E0,1.602757722E-1
1.068822177E0,-6.333909035E-1,-2.254245520E0,1.462258697E-1
1.070822210E0,-6.236170530E-1,-2.266462803E0,1.187369302E-1
1.072822243E0,-6.230061650E-1,-2.264019251E0,1.107956842E-1
1.074822276E0,-6.199518442E-1,-2.255467176E0,8.636107296E-2
1.076822276E0,-6.254496574E-1,-2.227367401E0,6.620252132E-2
1.078822242E0,-6.297256947E-1,-2.212706566E0,5.948300287E-2
1.080822208E0,-6.431647539E-1,-2.174833059E0,4.604396969E-2
1.082822174E0,-6.596581340E-1,-2.122298479E0,4.054617882E-2
1.084823007E0,-6.804275513E-1,-2.059990406E0,4.115704447E-2
1.086822973E0,-6.895905137E-1,-2.024560213E0,4.298964143E-2
1.088822939E0,-7.103599310E-1,-1.944536805E0,4.298964143E-2
1.090822939E0,-7.280750275E-1,-1.865735173E0,4.054617882E-2
1.092822939E0,-7.341836691E-1,-1.831526756E0,4.054617882E-2
1.094822972E0,-7.494552732E-1,-1.770440221E0,4.054617882E-2
1.096823005E0,-7.610617280E-1,-1.716684103E0,3.993531689E-2
1.098823038E0,-7.659486532E-1,-1.694692850E0,3.932445124E-2
1.100823071E0,-7.732790709E-1,-1.659262776E0,4.115704447E-2
1.102823104E0,-7.793877125E-1,-1.632995486E0,4.482223839E-2
1.104822270E0,-7.922158837E-1,-1.545030951E0,6.620252132E-2
1.106821436E0,-7.952702045E-1,-1.529759288E0,6.803511828E-2
1.108820602E0,-7.952702045E-1,-1.529759288E0,6.803511828E-2
1.110819702E0,-7.952702045E-1,-1.529759288E0,6.803511828E-2
1.112819702E0,-7.983245254E-1,-1.505935550E0,6.925684959E-2
1.114819702E0,-8.038222790E-1,-1.455844641E0,7.108944654E-2
1.116819702E0,-8.099309802E-1,-1.403310180E0,7.414376736E-2
1.118819702E0,-8.129853010E-1,-1.374599576E0,7.170030475E-2
1.120819702E0,-8.197047710E-1,-1.317178130E0,6.559165567E-2
1.122819668E0,-8.245916963E-1,-1.255480766E0,5.520694703E-2
1.124820501E0,-8.239808679E-1,-1.195616007E0,3.627012298E-2
1.126821367E0,-8.227591515E-1,-1.165072680E0,2.527454868E-2
1.128821333E0,-8.123744130E-1,-1.100931883E0,3.283400787E-3
1.130821299E0,-7.958810329E-1,-1.041067123E0,-1.320996135E-2
1.132821265E0,-7.836637497E-1,-1.008691192E0,-2.176207490E-2
1.134821231E0,-7.549530864E-1,-9.549350739E-1,-3.825543448E-2
1.136821197E0,-7.195228934E-1,-9.085093141E-1,-4.864014685E-2
1.138821197E0,-6.975317597E-1,-8.883507848E-1,-5.413793400E-2
1.140821230E0,-6.608798504E-1,-8.449793458E-1,-6.207918003E-2
1.142821263E0,-6.132323742E-1,-8.150469661E-1,-6.635523587E-2
1.144820429E0,-4.696790278E-1,-7.545713186E-1,-6.207918003E-2
1.146819595E0,-4.428009391E-1,-7.484626174E-1,-5.597052723E-2
1.148818761E0,-4.428009391E-1,-7.484626174E-1,-5.597052723E-2
1.150818027E0,-4.428009391E-1,-7.484626174E-1,-5.597052723E-2
1.152818327E0,-4.214206636E-1,-7.405213714E-1,-5.230533704E-2
1.154818327E0,-3.756057620E-1,-7.270823717E-1,-4.008803144E-2
1.156818293E0,-3.310126066E-1,-7.179193497E-1,-3.336851299E-2
1.158818259E0,-3.132975101E-1,-7.130324841E-1,-2.970332280E-2
1.160818225E0,-2.723695338E-1,-7.154759169E-1,-2.115120925E-2
1.162818191E0,-2.308306992E-1,-7.191411257E-1,-1.015563495E-2
1.164819024E0,-2.100612819E-1,-7.173085213E-1,-3.436116967E-3
1.166819857E0,-1.673007160E-1,-7.166976333E-1,1.733330078E-2
1.168820690E0,-1.269836128E-1,-7.191411257E-1,3.932445124E-2
1.170821590E0,-8.972083032E-2,-7.185302377E-1,6.070473418E-2
1.172821623E0,-7.506006956E-2,-7.173085213E-1,7.108944654E-2
1.174821656E0,-4.390593991E-2,-7.197519541E-1,8.941540122E-2
1.176821689E0,-2.130392566E-2,-7.118107080E-1,1.059087589E-1
1.178821722E0,-1.458440814E-2,-7.008151412E-1,1.144608781E-1
1.180821755E0,-2.977967961E-3,-6.745479703E-1,1.321759671E-1
1.182821788E0,7.635815564E-5,-6.415612102E-1,1.468367279E-1
1.184820954E0,-6.772968173E-2,-5.157229900E-1,1.712713391E-1
1.186820120E0,-6.772968173E-2,-5.157229900E-1,1.712713391E-1
1.188819253E0,-6.772968173E-2,-5.157229900E-1,1.712713391E-1
1.190818386E0,-6.772968173E-2,-5.157229900E-1,1.712713391E-1
1.192817852E0,-8.177958429E-2,-5.041165352E-1,1.737148017E-1
1.194817852E0,-9.582948685E-2,-4.925101101E-1,1.743256748E-1
1.196817852E0,-1.263727546E-1,-4.729624093E-1,1.810451895E-1
1.198817852E0,-1.440878361E-1,-4.662429094E-1,1.792125851E-1
1.200817818E0,-1.776854247E-1,-4.564690590E-1,1.810451895E-1
1.202817784E0,-2.100612819E-1,-4.387539625E-1,1.810451895E-1
1.204818617E0,-2.253329158E-1,-4.344778955E-1,1.816560477E-1
1.206819450E0,-2.552653253E-1,-4.240931869E-1,1.779908538E-1
1.208820283E0,-2.833651304E-1,-4.185954034E-1,1.755474061E-1
1.210821016E0,-3.090214431E-1,-4.173736870E-1,1.712713391E-1
1.212820716E0,-3.230713606E-1,-4.198171496E-1,1.682170182E-1
1.214820682E0,-3.462842405E-1,-4.289801121E-1,1.608866304E-1
1.216820682E0,-3.646101952E-1,-4.387539625E-1,1.566105783E-1
1.218820715E0,-3.743840456E-1,-4.448626041E-1,1.523345262E-1
1.220820748E0,-3.908773959E-1,-4.564690590E-1,1.505019218E-1
1.222820781E0,-4.037055671E-1,-4.747950137E-1,1.456149966E-1
1.224819947E0,-4.177554548E-1,-4.967861474E-1,1.407280862E-1
1.226819980E0,-4.244749844E-1,-5.090034604E-1,1.388954818E-1
1.228820013E0,-4.287510514E-1,-5.346598029E-1,1.352302879E-1
1.230820046E0,-4.342488348E-1,-5.487096906E-1,1.303433776E-1
1.232820046E0,-4.385249019E-1,-5.535966158E-1,1.278999150E-1
1.234820012E0,-4.342488348E-1,-5.597052574E-1,1.266781837E-1
1.236819978E0,-4.275293052E-1,-5.652030706E-1,1.254564524E-1
1.238819944E0,-4.232532680E-1,-5.639813542E-1,1.272890419E-1
1.240819910E0,-4.079816341E-1,-5.682573915E-1,1.291216463E-1
1.242819876E0,-3.866013288E-1,-5.670356750E-1,1.352302879E-1
1.244820709E0,-3.731622994E-1,-5.676465034E-1,1.395063549E-1
1.246821542E0,-3.450624943E-1,-5.627595782E-1,1.450041384E-1
1.248822408E0,-3.090214431E-1,-5.590944290E-1,1.529453844E-1
1.250823308E0,-2.723695338E-1,-5.535966158E-1,1.608866304E-1
1.252823874E0,-2.509892583E-1,-5.505422950E-1,1.694387496E-1
1.254823907E0,-2.106721550E-1,-5.383250117E-1,1.761582643E-1
1.256823940E0,-1.630246639E-1,-5.340489149E-1,1.883755773E-1
1.258823973E0,-1.453095675E-1,-5.261076689E-1,1.944842190E-1
1.260824006E0,-9.582948685E-2,-5.193881989E-1,2.091449946E-1
1.262824039E0,-4.451680556E-2,-5.132794976E-1,2.274709493E-1
1.264823205E0,6.299547851E-2,-4.992296100E-1,2.745075822E-1
1.266822305E0,6.299547851E-2,-4.992296100E-1,2.745075822E-1
1.268822305E0,8.804095536E-2,-4.955644310E-1,2.867248654E-1
1.270822305E0,1.424079537E-1,-4.961752892E-1,3.154355288E-1
1.272821905E0,1.686751693E-1,-5.016731024E-1,3.300963044E-1
1.274821905E0,2.199878395E-1,-5.120577812E-1,3.630830348E-1
1.276821905E0,2.670244575E-1,-5.316054821E-1,3.930154145E-1
1.278821871E0,2.951242626E-1,-5.474879742E-1,4.095087945E-1
1.280821837E0,3.427717686E-1,-5.755877495E-1,4.412737787E-1
1.282821803E0,3.916409910E-1,-6.097962260E-1,4.773148298E-1
1.284822636E0,4.185190499E-1,-6.317873597E-1,4.962516427E-1
1.286822602E0,4.692208767E-1,-6.721044779E-1,5.384013653E-1
1.288822568E0,5.199226737E-1,-7.173085213E-1,5.909357667E-1
1.290822534E0,5.431355834E-1,-7.399105430E-1,6.184247136E-1
1.292822500E0,5.926156640E-1,-7.924449444E-1,6.795112491E-1
1.294822500E0,6.445391774E-1,-8.504771590E-1,7.497607470E-1
1.296822533E0,6.915758252E-1,-9.237809777E-1,8.236754537E-1
1.298822566E0,7.141778469E-1,-9.744827747E-1,8.597164750E-1
1.300822599E0,7.465536594E-1,-1.072832108E0,9.293550849E-1
1.302822632E0,7.728208899E-1,-1.198059440E0,9.953285456E-1
1.304821798E0,8.290205002E-1,-1.632384658E0,1.180420756E0
1.306820964E0,8.290205002E-1,-1.632384658E0,1.180420756E0
1.308820130E0,8.406269550E-1,-1.702634096E0,1.220126987E0
1.310819296E0,8.406269550E-1,-1.702634096E0,1.220126987E0
1.312819262E0,8.522333503E-1,-1.769218445E0,1.259833217E0
1.314819228E0,8.760571480E-1,-1.895056725E0,1.348408699E0
1.316819194E0,9.011026025E-1,-2.011731863E0,1.440649271E0
1.318819160E0,9.127090573E-1,-2.061822891E0,1.490129352E0
1.320819126E0,9.389762282E-1,-2.150398493E0,1.598863363E0
1.322819092E0,9.658542871E-1,-2.230421782E0,1.710040927E0
1.324819925E0,9.774607420E-1,-2.268295288E0,1.762575269E0
1.326820825E0,1.000062823E0,-2.339766502E0,1.863978982E0
1.328820858E0,1.020221353E0,-2.410626888E0,1.942780495E0
1.330820891E0,1.025719047E0,-2.445446253E0,1.980654240E0
1.332821324E0,1.029995203E0,-2.509587049E0,2.028301716E0
1.334821357E0,1.025719047E0,-2.571895361E0,2.056401491E0
1.336821390E0,1.020221353E0,-2.627484083E0,2.070451498E0
1.338821423E0,1.015334368E0,-2.653751373E0,2.072894812E0
1.340821456E0,1.003727913E0,-2.704453230E0,2.075338364E0
1.342821489E0,9.976193309E-1,-2.753322363E0,2.071673155E0
1.344820622E0,9.627999663E-1,-2.865721464E0,2.059455872E0
1.346819755E0,9.603565335E-1,-2.887101889E0,2.055790663E0
1.348818888E0,9.603565335E-1,-2.887101889E0,2.055790663E0
1.350818454E0,9.603565335E-1,-2.887101889E0,2.055790663E0
1.352818454E0,9.548587203E-1,-2.905427933E0,2.057623148E0
1.354818454E0,9.450848699E-1,-2.942079782E0,2.065564394E0
1.356818420E0,9.383653998E-1,-2.990338087E0,2.073505640E0
1.358818386E0,9.365327954E-1,-3.011718273E0,2.077170849E0
1.360818486E0,9.304241538E-1,-3.071583271E0,2.093664169E0
1.362818452E0,9.316458702E-1,-3.139389277E0,2.111990213E0
1.364819285E0,9.279806614E-1,-3.178484678E0,2.126651049E0
1.366820118E0,9.353110194E-1,-3.266449213E0,2.157805204E0
1.368820951E0,9.481391907E-1,-3.368463755E0,2.199954748E0
1.370821751E0,9.603565335E-1,-3.425884962E0,2.220113277E0
1.372821751E0,9.774607420E-1,-3.544392824E0,2.272647858E0
1.374821784E0,1.001895308E0,-3.675117970E0,2.325793028E0
1.376821817E0,1.031216860E0,-3.813784361E0,2.388101339E0
1.378821850E0,1.045877695E0,-3.886477470E0,2.418644667E0
1.380821883E0,1.079475284E0,-4.030641556E0,2.484007120E0
1.382821916E0,1.112461925E0,-4.170529842E0,2.548758984E0
1.384821082E0,1.260291338E0,-4.544379234E0,2.798602819E0
1.386820248E0,1.260291338E0,-4.544379234E0,2.798602819E0
1.388819381E0,1.260291338E0,-4.544379234E0,2.798602819E0
1.390818514E0,1.260291338E0,-4.544379234E0,2.798602819E0
1.392817580E0,1.260291338E0,-4.544379234E0,2.798602819E0
1.394817546E0,1.300608516E0,-4.568813801E0,2.854802370E0
1.396817512E0,1.321377873E0,-4.563315868E0,2.883512974E0
1.398817478E0,1.359251499E0,-4.552320480E0,2.939712524E0
1.400817444E0,1.395903468E0,-4.508949280E0,2.990414381E0
1.402817410E0,1.427668452E0,-4.443586349E0,3.038061857E0
1.404818276E0,1.458822608E0,-4.359898090E0,3.082044125E0
1.406819176E0,1.469818115E0,-4.318358898E0,3.104035378E0
1.408820076E0,1.497917891E0,-4.225507736E0,3.137022018E0
1.410820542E0,1.508913517E0,-4.178471088E0,3.152293682E0
1.412820575E0,1.527239442E0,-4.078289032E0,3.173674107E0
1.414820608E0,1.541900277E0,-3.975052834E0,3.188945770E0
1.416820641E0,1.546176314E0,-3.921296835E0,3.192610741E0
1.418820274E0,1.552895784E0,-3.822336674E0,3.194443464E0
1.420820174E0,1.559615374E0,-3.721543789E0,3.191999912E0
1.422820174E0,1.560226202E0,-3.620140076E0,3.185891390E0
1.424819307E0,1.560226202E0,-3.520569086E0,3.180393457E0
1.426818973E0,1.558393598E0,-3.473532438E0,3.176728249E0
1.428819573E0,1.555950165E0,-3.378237486E0,3.170619726E0
1.430819573E0,1.552284956E0,-3.329979181E0,3.169398069E0
1.432819173E0,1.549841523E0,-3.242014647E0,3.166954517E0
1.434819139E0,1.540067673E0,-3.148552179E0,3.166343689E0
1.436819105E0,1.537013292E0,-3.108845949E0,3.166343689E0
1.438819071E0,1.530904651E0,-3.036153078E0,3.170619726E0
1.440819037E0,1.523574233E0,-2.971401215E0,3.175506592E0
1.442819003E0,1.518687367E0,-2.913980007E0,3.181615353E0
1.444819869E0,1.516243935E0,-2.887712717E0,3.181615353E0
1.446820702E0,1.511967897E0,-2.832123995E0,3.184669495E0
1.448821535E0,1.513800383E0,-2.778978825E0,3.186502218E0
1.450822368E0,1.517465591E0,-2.758820057E0,3.186502218E0
1.452823301E0,1.525406837E0,-2.704453230E0,3.178560972E0
1.454823334E0,1.541289330E0,-2.654973030E0,3.171230555E0
1.456823367E0,1.548619747E0,-2.629316807E0,3.168176174E0
1.458823400E0,1.570000052E0,-2.573117018E0,3.152293682E0
1.460823433E0,1.596267223E0,-2.509587049E0,3.131524324E0
1.462823466E0,1.617036700E0,-2.443002939E0,3.106478930E0
1.464822632E0,1.655521154E0,-2.353816509E0,3.060663939E0
1.466821732E0,1.655521154E0,-2.353816509E0,3.060663939E0
1.468821698E0,1.678123236E0,-2.297006130E0,3.027677298E0
1.470821664E0,1.686675310E0,-2.265241146E0,3.013627291E0
1.472821630E0,1.705001235E0,-2.221869707E0,2.982473135E0
1.474821596E0,1.726381540E0,-2.179719925E0,2.951930046E0
1.476821562E0,1.734322786E0,-2.158950567E0,2.937269211E0
1.478821928E0,1.748372674E0,-2.118022442E0,2.907336712E0
1.480821894E0,1.766087770E0,-2.084424973E0,2.876182556E0
1.482821894E0,1.777694225E0,-2.048383951E0,2.842585087E0
1.484822794E0,1.789300680E0,-2.030057907E0,2.826702595E0
1.486823160E0,1.804572344E0,-1.992184281E0,2.790661573E0
1.488822593E0,1.827785134E0,-1.954921484E0,2.758896589E0
1.490822626E0,1.842445970E0,-1.940260768E0,2.740570545E0
1.492823059E0,1.868102312E0,-1.909106612E0,2.711249113E0
1.494823092E0,1.893758655E0,-1.878563404E0,2.683760166E0
1.496823125E0,1.910251975E0,-1.861459136E0,2.669710159E0
1.498823158E0,1.942627788E0,-1.836413622E0,2.642221212E0
1.500823158E0,1.981112361E0,-1.805870414E0,2.615954161E0
1.502823158E0,2.014709949E0,-1.778992295E0,2.587243319E0
1.504822258E0,2.122833014E0,-1.716684103E0,2.485228777E0
1.506821391E0,2.122833014E0,-1.716684103E0,2.485228777E0
1.508820524E0,2.122833014E0,-1.716684103E0,2.485228777E0
1.510819690E0,2.142380714E0,-1.707521081E0,2.462016106E0
1.512819656E0,2.158874035E0,-1.700801611E0,2.440635681E0
1.514819622E0,2.191250086E0,-1.687973380E0,2.384436131E0
1.516819588E0,2.207743406E0,-1.684919119E0,2.353892803E0
1.518819554E0,2.239508390E0,-1.684919119E0,2.292195559E0
1.520819520E0,2.268218994E0,-1.680642962E0,2.231719732E0
1.522819486E0,2.279214621E0,-1.679421306E0,2.196900606E0
1.524820319E0,2.301816702E0,-1.676366925E0,2.133981466E0
1.526821185E0,2.321975231E0,-1.678810358E0,2.071062326E0
1.528821185E0,2.336025000E0,-1.683697343E0,2.011808395E0
1.530821218E0,2.341522932E0,-1.683697343E0,1.983708501E0
1.532821251E0,2.348853111E0,-1.689805984E0,1.925065517E0
1.534821284E0,2.353129387E0,-1.697136402E0,1.868865848E0
1.536821317E0,2.351296663E0,-1.695303798E0,1.843209505E0
1.538821350E0,2.345798969E0,-1.704466701E0,1.790064216E0
1.540821383E0,2.337246895E0,-1.722181797E0,1.740584135E0
1.542821416E0,2.329916477E0,-1.727679610E0,1.711873531E0
1.544820549E0,1.607873678E0,-2.395355225E0,1.258611441E0
1.546819649E0,1.436831355E0,-2.514474154E0,1.150488377E0
1.548818749E0,1.436831355E0,-2.514474154E0,1.150488377E0
1.550817982E0,1.436831355E0,-2.514474154E0,1.150488377E0
1.552818448E0,1.245019674E0,-2.598773479E0,1.075351954E0
1.554818414E0,8.277987838E-1,-2.756987572E0,9.299659729E-1
1.556818380E0,6.115524769E-1,-2.824182749E0,8.939249516E-1
1.558818346E0,1.308015138E-1,-2.986062050E0,7.980191112E-1
1.560818346E0,-3.615558743E-1,-3.158936977E0,7.851909399E-1
1.562818379E0,-6.010150313E-1,-3.232240677E0,7.662540674E-1
1.564819279E0,-1.063440084E0,-3.379459143E0,7.234935164E-1
1.566820179E0,-1.469665408E0,-3.406948090E0,6.831763983E-1
1.568821079E0,-1.761659026E0,-3.286607742E0,7.015023828E-1
1.570821945E0,-1.875279903E0,-3.163823843E0,7.027240992E-1
1.572821978E0,-2.042657137E0,-2.862667322E0,6.495788097E-1
1.574822011E0,-2.145893335E0,-2.477822065E0,5.359578729E-1
1.576822444E0,-2.181323528E0,-2.265241146E0,4.809800088E-1
1.578822444E0,-2.194151640E0,-1.798539996E0,3.765220642E-1
1.580822444E0,-2.148336649E0,-1.279304504E0,2.775619030E-1
1.582822444E0,-2.109241247E0,-1.005026102E0,2.299144119E-1
1.584821577E0,-1.622381687E0,9.411906004E-1,-5.047274008E-2
1.586820710E0,-1.586951494E0,1.084133148E0,-6.513350457E-2
1.588819843E0,-1.586951494E0,1.084133148E0,-6.513350457E-2
1.590819043E0,-1.586951494E0,1.084133148E0,-6.513350457E-2
1.592818109E0,-1.586951494E0,1.084133148E0,-6.513350457E-2
1.594817909E0,-1.527697563E0,1.315651059E0,-1.268308908E-1
1.596817875E0,-1.500819564E0,1.399950385E0,-1.695914567E-1
1.598817841E0,-1.453172088E0,1.492801905E0,-2.905427814E-1
1.600817807E0,-1.414076686E0,1.488525867E0,-4.310417771E-1
1.602817773E0,-1.392696381E0,1.449430466E0,-5.055673718E-1
1.604818606E0,-1.359709620E0,1.340085626E0,-6.485098004E-1
1.606819472E0,-1.316338301E0,1.180038929E0,-7.694611549E-1
1.608820338E0,-1.279686332E0,9.961684942E-1,-8.781951666E-1
1.610821104E0,-1.257695198E0,8.910996914E-1,-9.270643592E-1
1.612820637E0,-1.221043229E0,6.742424965E-1,-1.005865932E0
1.614820670E0,-1.176450133E0,4.573853612E-1,-1.074893713E0
1.616820703E0,-1.155069828E0,3.517056704E-1,-1.104215264E0
1.618820736E0,-1.110476613E0,1.421788931E-1,-1.154306293E0
1.620820769E0,-1.051833630E0,-5.451972410E-2,-1.189125538E0
1.622820769E0,-1.020068645E0,-1.388191283E-1,-1.202564597E0
1.624819935E0,-9.223301411E-1,-3.807217777E-1,-1.231275201E0
1.626819901E0,-8.936194777E-1,-4.479169548E-1,-1.242270827E0
1.628819867E0,-8.447502851E-1,-5.786421299E-1,-1.253877282E0
1.630819833E0,-8.276460767E-1,-6.415612102E-1,-1.261207700E0
1.632819799E0,-7.891615629E-1,-7.411322594E-1,-1.272814155E0
1.634819765E0,-7.415140271E-1,-8.144360781E-1,-1.260596752E0
1.636819331E0,-7.237989306E-1,-8.449793458E-1,-1.251433849E0
1.638819331E0,-7.036404014E-1,-9.146180153E-1,-1.229442716E0
1.640819331E0,-7.103599310E-1,-9.653198123E-1,-1.212338448E0
1.642819331E0,-7.042512894E-1,-9.854783416E-1,-1.201342821E0
1.644820197E0,-6.993643641E-1,-1.014799833E0,-1.164690971E0
1.646821063E0,-7.085273266E-1,-1.042899728E0,-1.119486928E0
1.648821929E0,-7.170794606E-1,-1.056338668E0,-1.096274018E0
1.650822695E0,-7.488444448E-1,-1.074053764E0,-1.050459146E0
1.652823595E0,-7.732790709E-1,-1.060614824E0,-9.997573495E-1
1.654823761E0,-8.032114506E-1,-1.057560444E0,-9.478337765E-1
1.656823794E0,-8.197047710E-1,-1.056949615E0,-9.258426428E-1
1.658823827E0,-8.746826649E-1,-1.052062631E0,-8.855255246E-1
1.660823860E0,-9.235519171E-1,-1.037401915E0,-8.390997648E-1
1.662823893E0,-9.418778419E-1,-1.026406288E0,-8.152760267E-1
1.664823059E0,-1.033507586E0,-9.720393419E-1,-7.340309620E-1
1.666822192E0,-1.033507586E0,-9.720393419E-1,-7.340309620E-1
1.668822225E0,-1.056109667E0,-9.567676783E-1,-7.163158655E-1
1.670822225E0,-1.095815897E0,-9.353874326E-1,-6.759987473E-1
1.672822191E0,-1.133689523E0,-9.133962393E-1,-6.344599128E-1
1.674822157E0,-1.177671790E0,-8.889616728E-1,-5.947536826E-1
1.676822123E0,-1.194776058E0,-8.712465763E-1,-5.715407729E-1
1.678822089E0,-1.225319266E0,-8.419250250E-1,-5.306128263E-1
1.680822055E0,-1.250975609E0,-8.101600409E-1,-4.811327457E-1
1.682822021E0,-1.265636444E0,-7.924449444E-1,-4.573090076E-1
1.684822821E0,-1.288238406E0,-7.564038634E-1,-4.084397852E-1
1.686822821E0,-1.305342674E0,-7.136433125E-1,-3.620140254E-1
1.688822854E0,-1.316338301E0,-6.934847832E-1,-3.412446082E-1
1.690822887E0,-1.337107658E0,-6.476698518E-1,-2.899319232E-1
1.692822920E0,-1.351157546E0,-6.079636216E-1,-2.325105816E-1
1.694822953E0,-1.365818381E0,-5.609270334E-1,-1.689805984E-1
1.696822986E0,-1.378035665E0,-5.383250117E-1,-1.390482038E-1
1.698823019E0,-1.403081059E0,-5.022839308E-1,-7.551821321E-2
1.700822652E0,-1.428737402E0,-4.485278130E-1,-1.076649968E-2
1.702822652E0,-1.443398237E0,-4.234823287E-1,2.527454868E-2
1.704821785E0,-1.560073495E0,-2.554943860E-1,2.519055605E-1
1.706820918E0,-1.560073495E0,-2.554943860E-1,2.519055605E-1
1.708820051E0,-1.560073495E0,-2.554943860E-1,2.519055605E-1
1.710819151E0,-1.578399420E0,-2.255619913E-1,2.812270820E-1
1.712819151E0,-1.586340666E0,-1.974621862E-1,3.136029541E-1
1.714819151E0,-1.611386180E0,-1.510364264E-1,3.795763850E-1
1.716819117E0,-1.621770859E0,-1.290452778E-1,4.082870483E-1
1.718819083E0,-1.654757619E0,-8.994990587E-2,4.595997334E-1
1.720819383E0,-1.745165706E0,-3.802636266E-2,4.858669341E-1
1.722819349E0,-1.823967218E0,1.939497143E-2,4.638758004E-1
1.724820182E0,-1.990733504E0,1.605048478E-1,4.082870483E-1
1.726821048E0,-2.088471889E0,2.704605758E-1,3.691916764E-1
1.728820614E0,-2.110463142E0,3.181080818E-1,3.661373556E-1
1.730820580E0,-2.103132725E0,3.706424832E-1,3.979023397E-1
1.732820580E0,-2.060372114E0,3.779728711E-1,4.565454125E-1
1.734820613E0,-2.007837772E0,3.675881624E-1,5.365687609E-1
1.736820646E0,-1.982792258E0,3.645338416E-1,5.756641626E-1
1.738820679E0,-1.927203536E0,3.755294085E-1,6.379724145E-1
1.740820712E0,-1.856343150E0,3.975205719E-1,6.501896977E-1
1.742820745E0,-1.820302129E0,4.079052806E-1,6.489679813E-1
1.744819911E0,-1.601001501E0,5.050328374E-1,5.988770127E-1
1.746819077E0,-1.601001501E0,5.050328374E-1,5.988770127E-1
1.748818210E0,-1.577788591E0,5.203045011E-1,5.884923339E-1
1.750817443E0,-1.577788591E0,5.203045011E-1,5.884923339E-1
1.752817409E0,-1.560684323E0,5.337435007E-1,5.750532746E-1
1.754817375E0,-1.535027981E0,5.569564104E-1,5.280166268E-1
1.756817341E0,-1.530751944E0,5.673410892E-1,5.054146051E-1
1.758817307E0,-1.519145489E0,5.881105065E-1,4.907538593E-1
1.760817673E0,-1.514258623E0,6.265950203E-1,4.699844420E-1
1.762817673E0,-1.509982586E0,6.443101168E-1,4.693735838E-1
1.764818539E0,-1.498986959E0,6.931793094E-1,4.834234715E-1
1.766819439E0,-1.480661035E0,7.414376736E-1,5.280166268E-1
1.768820339E0,-1.467221975E0,7.664831877E-1,5.536729693E-1
1.770821272E0,-1.444009066E0,8.055785298E-1,5.884923339E-1
1.772821305E0,-1.415298462E0,8.049677014E-1,6.666830778E-1
1.774821338E0,-1.392085552E0,7.970264554E-1,7.216609120E-1
1.776821371E0,-1.340772867E0,7.683157325E-1,8.658251166E-1
1.778821404E0,-1.291292787E0,7.188356519E-1,1.002658963E0
1.780821070E0,-1.246088743E0,6.595817208E-1,1.135216713E0
1.782821070E0,-1.224097610E0,6.278167367E-1,1.195081472E0
1.784820203E0,-1.099481106E0,2.270891517E-1,1.444925427E0
1.786819336E0,-1.099481106E0,2.270891517E-1,1.444925427E0
1.788818869E0,-1.088485479E0,1.806633919E-1,1.456531763E0
1.790817969E0,-1.088485479E0,1.806633919E-1,1.456531763E0
1.792817069E0,-1.088485479E0,1.806633919E-1,1.456531763E0
1.794817035E0,-1.070770383E0,1.391245574E-1,1.478523016E0
1.796817001E0,-1.010294795E0,5.115996301E-2,1.526170492E0
1.798816967E0,-9.614255428E-1,-3.680463135E-2,1.534722567E0
1.800816933E0,-9.192758203E-1,-1.528690308E-1,1.516396642E0
1.802816899E0,-8.905651569E-1,-2.066251636E-1,1.520672679E0
1.804817699E0,-8.166504502E-1,-3.000875413E-1,1.541442037E0
1.806818532E0,-7.347945571E-1,-3.990477324E-1,1.555492043E0
1.808819365E0,-7.011969686E-1,-4.503603876E-1,1.547550797E0
1.810820098E0,-6.278930902E-1,-5.456553698E-1,1.548161626E0
1.812820131E0,-5.429828167E-1,-6.024658680E-1,1.581148386E0
1.814820164E0,-5.069417953E-1,-6.476698518E-1,1.585424423E0
1.816820497E0,-4.452444017E-1,-7.545713186E-1,1.576872230E0
1.818820530E0,-3.633884490E-1,-8.553640842E-1,1.605582952E0
1.820820563E0,-2.619848251E-1,-9.781479836E-1,1.679497600E0
1.822820596E0,-2.112830132E-1,-1.052673578E0,1.715538740E0
1.824819762E0,-9.766208380E-2,-1.199281216E0,1.805335879E0
1.826819695E0,2.512183413E-2,-1.384373307E0,1.914680719E0
1.828819661E0,7.948884368E-2,-1.496772528E0,1.969047785E0
1.830819627E0,1.845576614E-1,-1.702634096E0,2.133981466E0
1.832819593E0,2.432007194E-1,-1.896278381E0,2.266539097E0
1.834819559E0,2.401463985E-1,-1.968971372E0,2.303802013E0
1.836819525E0,1.961641014E-1,-2.039220810E0,2.338621140E0
1.838819491E0,8.865182102E-2,-2.075872898E0,2.262873888E0
1.840819491E0,-8.177958429E-2,-2.043496847E0,2.043573380E0
1.842819091E0,-1.691333205E-1,-1.982410431E0,1.933006763E0
1.844819991E0,-3.401755691E-1,-1.770440221E0,1.697212696E0
1.846820891E0,-5.081635118E-1,-1.507768154E0,1.448590517E0
1.848821791E0,-5.955172777E-1,-1.383151650E0,1.330082655E0
1.850822724E0,-7.659486532E-1,-1.093601465E0,1.116279840E0
1.852823657E0,-9.278279543E-1,-8.126034737E-1,8.975901008E-1
1.854823690E0,-9.986883402E-1,-6.965391040E-1,8.279514909E-1
1.856823723E0,-1.136132956E0,-4.411974251E-1,7.149413824E-1
1.858823756E0,-1.249143124E0,-1.968513280E-1,6.758460402E-1
1.860823756E0,-1.339551091E0,7.254024595E-2,7.699192762E-1
1.862823756E0,-1.385365963E0,2.319760770E-1,8.175667524E-1
1.864822922E0,-1.542969227E0,7.982481718E-1,8.591055870E-1
1.866822022E0,-1.542969227E0,7.982481718E-1,8.591055870E-1
1.868822022E0,-1.580842853E0,9.149234295E-1,8.487209082E-1
1.870822222E0,-1.648038030E0,1.097572088E0,8.615490794E-1
1.872822188E0,-1.699961662E0,1.249677539E0,8.902597427E-1
1.874822154E0,-1.718287587E0,1.301601171E0,9.000335932E-1
1.876821820E0,-1.753106952E0,1.388954878E0,9.140834808E-1
1.878821786E0,-1.775098085E0,1.439045787E0,9.250790477E-1
1.880821752E0,-1.784871936E0,1.464091301E0,9.208030105E-1
1.882822118E0,-1.785482764E0,1.469589114E0,9.177486897E-1
1.884822951E0,-1.786093593E0,1.464091301E0,9.116400480E-1
1.886822984E0,-1.774487138E0,1.439656615E0,8.994227052E-1
1.888822984E0,-1.759826422E0,1.410946012E0,8.902597427E-1
1.890823017E0,-1.725007057E0,1.348637700E0,8.609381914E-1
1.892823050E0,-1.680413961E0,1.263727427E0,8.358927369E-1
1.894823083E0,-1.655368447E0,1.218523502E0,8.267297745E-1
1.896823116E0,-1.602223158E0,1.123839378E0,8.206210732E-1
1.898823149E0,-1.553964853E0,1.027933478E0,8.200102448E-1
1.900823182E0,-1.521588922E0,9.735664725E-1,8.248971701E-1
1.902823615E0,-1.470276237E0,8.752171993E-1,8.358927369E-1
1.904822748E0,-1.228373647E0,4.696026444E-1,8.456665874E-1
1.906821848E0,-1.228373647E0,4.696026444E-1,8.456665874E-1
1.908820948E0,-1.228373647E0,4.696026444E-1,8.456665874E-1
1.910820048E0,-1.228373647E0,4.696026444E-1,8.456665874E-1
1.912820548E0,-1.176450133E0,3.455969989E-1,8.621599078E-1
1.914820514E0,-1.156902432E0,2.863430977E-1,8.755989671E-1
1.916820480E0,-1.120250463E0,1.684460938E-1,9.061422348E-1
1.918820446E0,-1.087263823E0,5.726861581E-2,9.409615397E-1
1.920820446E0,-1.075657368E0,1.145372353E-2,9.568440318E-1
1.922821379E0,-1.048779249E0,-7.712173462E-2,9.843329787E-1
1.924822279E0,-1.024955511E0,-1.608102769E-1,1.016098022E0
1.926823212E0,-9.980774522E-1,-2.194533348E-1,1.042976022E0
1.928823245E0,-9.925796390E-1,-2.481640130E-1,1.059469461E0
1.930823078E0,-9.742537141E-1,-2.970332205E-1,1.099175692E0
1.932823111E0,-9.577603340E-1,-3.287982047E-1,1.144990563E0
1.934823144E0,-9.498190880E-1,-3.404046595E-1,1.175533772E0
1.936823177E0,-9.339365959E-1,-3.587306142E-1,1.233566046E0
1.938823177E0,-9.357692003E-1,-3.642283976E-1,1.276937485E0
1.940823177E0,-9.406561255E-1,-3.568980098E-1,1.302593827E0
1.942822777E0,-9.577603340E-1,-3.233004212E-1,1.360015154E0
1.944821910E0,-1.046946645E0,-5.329799280E-2,1.512731433E0
1.946821043E0,-1.046946645E0,-5.329799280E-2,1.512731433E0
1.948820176E0,-1.046946645E0,-5.329799280E-2,1.512731433E0
1.950819942E0,-1.046946645E0,-5.329799280E-2,1.512731433E0
1.952819908E0,-1.087874651E0,4.566217586E-2,1.548161626E0
1.954819874E0,-1.106200576E0,9.880745411E-2,1.572596192E0
1.956819840E0,-1.150793791E0,2.105957866E-1,1.628184915E0
1.958819806E0,-1.182558775E0,3.229950070E-1,1.669112921E0
1.960819772E0,-1.203939080E0,3.816380501E-1,1.694158435E0
1.962819738E0,-1.250364780E0,4.732678533E-1,1.756466627E0
1.964820571E0,-1.300455689E0,5.795583725E-1,1.828548789E0
1.966821437E0,-1.335275054E0,8.281805515E-1,1.915902495E0
1.968822337E0,-1.370705247E0,9.466884136E-1,1.960495591E0
1.970823237E0,-1.431180954E0,1.103680730E0,2.045405865E0
1.972822737E0,-1.497765183E0,1.256397128E0,2.148642063E0
1.974822770E0,-1.535027981E0,1.332755208E0,2.193235397E0
1.976822803E0,-1.620549083E0,1.477530360E0,2.260430574E0
1.978822836E0,-1.688355207E0,1.632690072E0,2.267760754E0
1.980822869E0,-1.714011550E0,1.748143673E0,2.256765366E0
1.982821969E0,-1.755550385E0,1.897194743E0,2.190791845E0
1.984821069E0,-2.015779018E0,2.192853451E0,2.061288357E0
1.986820169E0,-2.054874420E0,2.218509912E0,2.049681902E0
1.988819269E0,-2.054874420E0,2.218509912E0,2.049681902E0
1.990818369E0,-2.054874420E0,2.218509912E0,2.049681902E0
1.992817435E0,-2.054874420E0,2.218509912E0,2.049681902E0
1.994817335E0,-2.114128351E0,2.332130671E0,2.027690887E0
1.996817301E0,-2.229581833E0,2.589915991E0,1.997758389E0
1.998817301E0,-2.348700523E0,2.691319466E0,1.972712994E0
2.000817334E0,-2.389017582E0,2.737745285E0,1.951943517E0
2.002817367E0,-2.446439028E0,2.836705446E0,1.934228420E0
2.004818267E0,-2.472706079E0,2.950937271E0,1.912848115E0
2.006819167E0,-2.470262766E0,3.006525993E0,1.898187399E0
2.008820067E0,-2.459877968E0,2.994919538E0,1.853594184E0
2.010820300E0,-2.395126343E0,2.884352922E0,1.827327013E0
2.012820333E0,-2.291279078E0,2.786003590E0,1.748525381E0
2.014820366E0,-2.243020773E0,2.693763018E0,1.695380092E0
2.016820366E0,-2.122680426E0,2.544101000E0,1.551215887E0
2.018820366E0,-2.090304613E0,2.315637350E0,1.420490742E0
2.020820366E0,-2.088471889E0,2.226451159E0,1.377730250E0
2.022820032E0,-2.078698158E0,2.057852268E0,1.275715709E0
2.024819232E0,-2.029828787E0,1.870316625E0,1.198135853E0
2.026819232E0,-2.004783392E0,1.804343224E0,1.161483884E0
2.028819198E0,-1.936977386E0,1.518458247E0,1.109560370E0
2.030819564E0,-1.847180128E0,1.222799540E0,1.058858514E0
2.032819530E0,-1.729283094E0,9.479101300E-1,9.934959412E-1
2.034819496E0,-1.707902908E0,8.025242090E-1,9.525679946E-1
2.036819462E0,-1.651092410E0,5.728389025E-1,8.523861170E-1
2.038819428E0,-1.601612329E0,3.162754774E-1,7.375434041E-1
2.040819394E0,-1.602833986E0,2.588541508E-1,6.703482270E-1
2.042819360E0,-1.628490329E0,1.470658034E-1,5.744423866E-1
2.044820226E0,-1.652925014E0,1.293507218E-1,4.828126132E-1
2.046821126E0,-1.646816373E0,1.366810948E-1,4.333325326E-1
2.048822026E0,-1.638875127E0,1.837177277E-1,3.728568852E-1
2.050822926E0,-1.643761992E0,1.818851233E-1,3.502548635E-1
2.052823859E0,-1.661477089E0,1.977676302E-1,3.526983261E-1
2.054823959E0,-1.682246566E0,2.240348309E-1,3.533091843E-1
2.056823992E0,-1.671250939E0,3.150537610E-1,3.526983261E-1
2.058824025E0,-1.642540336E0,4.335615933E-1,3.630830348E-1
2.060824025E0,-1.621770859E0,4.977024496E-1,3.698025346E-1
2.062823991E0,-1.574123383E0,5.868887901E-1,3.783546686E-1
2.064823091E0,-1.376203060E0,7.622070909E-1,3.398701549E-1
2.066822157E0,-1.376203060E0,7.622070909E-1,3.398701549E-1
2.068822123E0,-1.335885882E0,7.658722997E-1,3.258202374E-1
2.070822089E0,-1.230206251E0,6.980662346E-1,2.897791862E-1
2.072822055E0,-1.145295978E0,6.504187584E-1,2.830596864E-1
2.074822021E0,-1.084209442E0,6.259841323E-1,2.812270820E-1
2.076823087E0,-9.669232965E-1,5.477933884E-1,2.848922908E-1
2.078823120E0,-8.496372104E-1,4.060726762E-1,2.861140072E-1
2.080823153E0,-8.001571298E-1,3.480404615E-1,2.812270820E-1
2.082823519E0,-6.700428128E-1,1.971567571E-1,2.714532316E-1
2.084824352E0,-5.405393839E-1,7.681630552E-2,2.592359483E-1
2.086824385E0,-4.812854528E-1,2.916881628E-2,2.592359483E-1
2.088824418E0,-3.615558743E-1,-1.114829071E-2,2.641228735E-1
2.090824051E0,-2.668717504E-1,-1.481348183E-2,2.818379402E-1
2.092823951E0,-1.905135959E-1,1.878410578E-2,3.026073575E-1
2.094823951E0,-1.599703431E-1,3.527746722E-2,3.117703497E-1
2.096823951E0,-1.239292845E-1,7.987063378E-2,3.331506252E-1
2.098824784E0,-1.141554415E-1,1.317941695E-1,3.423136175E-1
2.100824784E0,-1.178206354E-1,1.580613852E-1,3.441462219E-1
2.102824784E0,-1.306488067E-1,2.044871449E-1,3.380375504E-1
2.104823917E0,-1.947896481E-1,3.645338416E-1,2.720641196E-1
2.106823017E0,-2.057852298E-1,3.895792961E-1,2.555707395E-1
2.108822117E0,-2.057852298E-1,3.895792961E-1,2.555707395E-1
2.110822083E0,-2.057852298E-1,3.895792961E-1,2.555707395E-1
2.112821649E0,-2.326633036E-1,4.335615933E-1,2.299144119E-1
2.114821615E0,-2.454914749E-1,4.311181605E-1,2.286926806E-1
2.116821581E0,-2.796999216E-1,3.840815127E-1,2.989421785E-1
2.118821547E0,-3.249039650E-1,3.914119005E-1,3.447570801E-1
2.120821513E0,-3.566689491E-1,4.256203473E-1,3.453679383E-1
2.122821513E0,-4.391357601E-1,4.708243906E-1,3.258202374E-1
2.124822413E0,-5.472589135E-1,4.482223690E-1,3.136029541E-1
2.126823346E0,-6.193410158E-1,4.036292136E-1,3.325397670E-1
2.128823379E0,-8.184830546E-1,1.525636017E-1,4.938081801E-1
2.130823079E0,-1.007851243E0,-3.680463135E-2,6.055965424E-1
2.132823112E0,-1.097037673E0,-1.021672115E-1,6.453027725E-1
2.134823145E0,-1.272966862E0,-1.968513280E-1,7.338782549E-1
2.136822111E0,-1.437289596E0,-2.671008408E-1,8.181776404E-1
2.138822111E0,-1.597947121E0,-3.404046595E-1,9.079748392E-1
2.140822077E0,-1.671861768E0,-3.740022480E-1,9.537897110E-1
2.142822043E0,-1.816636920E0,-4.509712756E-1,1.050306439E0
2.144821143E0,-2.046322107E0,-3.538436890E-1,1.374675870E0
2.146820243E0,-2.046322107E0,-3.538436890E-1,1.374675870E0
2.148819343E0,-2.046322107E0,-3.538436890E-1,1.374675870E0
2.150818609E0,-2.046322107E0,-3.538436890E-1,1.374675870E0
2.152819042E0,-2.052430868E0,-2.964223623E-1,1.411938667E0
2.154819042E0,-2.036548376E0,-1.846340150E-1,1.475468636E0
2.156819075E0,-1.989511728E0,-5.024366826E-2,1.520061851E0
2.158818275E0,-1.903990626E0,9.269879758E-2,1.552437663E0
2.160818308E0,-1.850845337E0,1.708895564E-1,1.562211514E0
2.162818341E0,-1.724396229E0,3.205515444E-1,1.573817968E0
2.164819241E0,-1.575955987E0,4.549418986E-1,1.568930984E0
2.166820141E0,-1.503262997E0,5.209153295E-1,1.561600685E0
2.168821041E0,-1.335885882E0,6.217080951E-1,1.535944343E0
2.170821074E0,-1.168508887E0,6.882924438E-1,1.499292374E0
2.172821474E0,-1.081766009E0,7.102835774E-1,1.480966449E0
2.174821474E0,-9.064476490E-1,7.212791443E-1,1.439427614E0
2.176821474E0,-7.329619527E-1,6.889032722E-1,1.395445347E0
2.178821474E0,-5.674174428E-1,6.107125282E-1,1.345965266E0
2.180821474E0,-4.922810197E-1,5.545129180E-1,1.319087148E0
2.182821474E0,-3.456733823E-1,4.103487432E-1,1.278770089E0
2.184820574E0,8.009970188E-2,-2.597704530E-1,1.168814301E0
2.186819674E0,8.009970188E-2,-2.597704530E-1,1.168814301E0
2.188818774E0,8.009970188E-2,-2.597704530E-1,1.168814301E0
2.190818274E0,1.088103727E-1,-3.184134960E-1,1.171257734E0
2.192817340E0,1.088103727E-1,-3.184134960E-1,1.171257734E0
2.194817306E0,1.375210434E-1,-3.795000315E-1,1.174312115E0
2.196817272E0,1.802816093E-1,-4.833471179E-1,1.197524905E0
2.198817238E0,2.028836161E-1,-5.474879742E-1,1.240285516E0
2.200817238E0,2.065488100E-1,-5.652030706E-1,1.274493933E0
2.202817271E0,1.943315119E-1,-5.578727126E-1,1.354517341E0
2.204818171E0,1.625665128E-1,-4.961752892E-1,1.451034069E0
2.206819071E0,1.393536329E-1,-4.479169548E-1,1.497459769E0
2.208819971E0,9.170614183E-2,-3.465133011E-1,1.587257028E0
2.210820704E0,4.528038576E-2,-2.554943860E-1,1.669723749E0
2.212820404E0,2.267837152E-2,-2.237294018E-1,1.709429979E0
2.214820437E0,-2.008219436E-2,-1.785253733E-1,1.785177350E0
2.216820437E0,-5.184718594E-2,-1.504255682E-1,1.859702826E0
2.218820403E0,-7.750352472E-2,-1.296561509E-1,1.930563211E0
2.220820369E0,-8.910996467E-2,-1.192714423E-1,1.956830502E0
2.222820335E0,-1.031598672E-1,-1.033889428E-1,2.008143187E0
2.224819435E0,-1.184315011E-1,-7.162395120E-2,2.045405865E0
2.226819401E0,-1.233184189E-1,-4.902193695E-2,2.056401491E0
2.228819367E0,-1.434769779E-1,2.916881628E-2,2.067397118E0
2.230819333E0,-1.575268805E-1,1.073595658E-1,2.058233976E0
2.232819333E0,-1.648572534E-1,1.513418704E-1,2.041740656E0
2.234819366E0,-1.770745665E-1,2.258674204E-1,1.997758389E0
2.236819399E0,-1.825723499E-1,2.924517393E-1,1.933617592E0
2.238819432E0,-1.954005212E-1,3.608686328E-1,1.856648564E0
2.240819465E0,-2.149482071E-1,3.510948122E-1,1.803503275E0
2.242819498E0,-2.931389511E-1,2.130392492E-1,1.672778130E0
2.244820398E0,-3.725514412E-1,1.476766765E-1,1.521283507E0
2.246821831E0,-4.018729627E-1,1.653917581E-1,1.449201465E0
2.248822731E0,-4.421900809E-1,2.649627924E-1,1.289154768E0
2.250823531E0,-4.580725729E-1,3.871358633E-1,1.114447236E0
2.252824431E0,-4.678464234E-1,4.433354437E-1,1.017930627E0
2.254824431E0,-4.800637364E-1,5.025894046E-1,8.193993568E-1
2.256824431E0,-4.892266989E-1,5.050328374E-1,6.318637133E-1
2.258824431E0,-4.947244823E-1,4.946481287E-1,5.426774025E-1
2.260824431E0,-4.935027659E-1,4.628831446E-1,3.899610937E-1
2.262824397E0,-4.855615199E-1,4.390594065E-1,2.763401568E-1
2.264823497E0,-4.696790278E-1,4.427245855E-1,1.529453844E-1
2.266822563E0,-4.641812146E-1,4.512766898E-1,1.193477958E-1
2.268822529E0,-4.605160356E-1,4.677700698E-1,9.124799818E-2
2.270822495E0,-4.513530433E-1,5.050328374E-1,3.871358559E-2
2.272822461E0,-4.458552599E-1,5.276348591E-1,1.733330078E-2
2.274822427E0,-4.482987225E-1,5.813909769E-1,-2.237293869E-2
2.276822393E0,-4.568508565E-1,6.418666840E-1,-5.230533704E-2
2.278822393E0,-4.599051774E-1,6.705773473E-1,-6.269004941E-2
2.280822426E0,-4.733442068E-1,7.225008607E-1,-7.918340713E-2
2.282822459E0,-4.922810197E-1,7.719809413E-1,-9.567677230E-2
2.284823359E0,-5.283221006E-1,7.988590002E-1,-1.512655020E-1
2.286823392E0,-5.558109879E-1,7.951938510E-1,-1.958586723E-1
2.288823425E0,-5.997933149E-1,8.068002462E-1,-2.764928937E-1
2.290823458E0,-6.113997698E-1,8.483390808E-1,-2.807689309E-1
2.292823491E0,-6.175084114E-1,8.642216325E-1,-2.795472145E-1
2.294823491E0,-6.285039783E-1,8.917105198E-1,-2.648864388E-1
2.296823457E0,-6.480516791E-1,9.112582207E-1,-2.386192381E-1
2.298823423E0,-6.657667756E-1,9.130908251E-1,-2.196824104E-1
2.300822956E0,-7.237989306E-1,9.204211831E-1,-1.647045463E-1
2.302822922E0,-7.946593165E-1,9.314168096E-1,-8.956811577E-2
2.304822022E0,-9.522625804E-1,1.140332699E0,1.175151989E-1
2.306820588E0,-9.669232965E-1,1.184314966E0,1.327868253E-1
2.308819688E0,-9.669232965E-1,1.184314966E0,1.327868253E-1
2.310818788E0,-9.669232965E-1,1.184314966E0,1.327868253E-1
2.312818421E0,-9.815840721E-1,1.233184218E0,1.413389444E-1
2.314818454E0,-1.002353549E0,1.323592305E0,1.492801905E-1
2.316818487E0,-1.021290302E0,1.411556840E0,1.462258697E-1
2.318818520E0,-1.031064153E0,1.447597861E0,1.456149966E-1
2.320818553E0,-1.047557592E0,1.517847419E0,1.456149966E-1
2.322818586E0,-1.055498838E0,1.561218858E0,1.492801905E-1
2.324819486E0,-1.053666234E0,1.580766559E0,1.651626974E-1
2.326820419E0,-1.049390078E0,1.587486029E0,1.761582643E-1
2.328820419E0,-1.030453324E0,1.588096976E0,2.128101736E-1
2.330820419E0,-9.974665642E-1,1.591151237E0,2.659554482E-1
2.332820419E0,-9.760863185E-1,1.588096976E0,2.946661115E-1
2.334820419E0,-9.204975367E-1,1.579544783E0,3.716351390E-1
2.336820419E0,-8.539132476E-1,1.575268745E0,4.577671289E-1
2.338820419E0,-8.111526966E-1,1.574046969E0,5.066363811E-1
2.340820385E0,-7.317401767E-1,1.560608029E0,6.117051840E-1
2.342820351E0,-6.486625075E-1,1.553888440E0,7.228826880E-1
2.344819451E0,-3.542254865E-1,1.583209991E0,1.061301947E0
2.346818551E0,-3.542254865E-1,1.583209991E0,1.061301947E0
2.348817651E0,-3.542254865E-1,1.583209991E0,1.061301947E0
2.350816751E0,-3.102431893E-1,1.575268745E0,1.093677878E0
2.352816617E0,-3.102431893E-1,1.575268745E0,1.093677878E0
2.354816583E0,-2.296089679E-1,1.537395120E0,1.145601392E0
2.356816583E0,-1.563051492E-1,1.506240964E0,1.178588152E0
2.358816583E0,-1.196532324E-1,1.494023681E0,1.190805435E0
2.360817049E0,-5.612324551E-2,1.484249830E0,1.196303248E0
2.362817082E0,-2.802344225E-2,1.519680023E0,1.185307622E0
2.364817982E0,1.718058437E-2,1.482417226E0,1.171257734E0
2.366818882E0,4.589125142E-2,1.450652242E0,1.162705660E0
2.368819782E0,8.315403014E-2,1.443321824E0,1.129718900E0
2.370820715E0,9.598220140E-2,1.437213182E0,1.094899535E0
2.372821115E0,8.743008971E-2,1.439045787E0,1.086347461E0
2.374821081E0,7.460191846E-2,1.418887258E0,1.075351954E0
2.376821047E0,5.749769136E-2,1.381013632E0,1.051528215E0
2.378821013E0,4.833471403E-2,1.338253021E0,1.044808626E0
2.380820979E0,1.908953884E-3,1.271057844E0,1.046641231E0
2.382820945E0,-4.207334295E-2,1.198975801E0,1.039310813E0
2.384820045E0,-3.004693389E-1,8.465065360E-1,1.021595716E0
2.386819145E0,-3.004693389E-1,8.465065360E-1,1.021595716E0
2.388818278E0,-3.004693389E-1,8.465065360E-1,1.021595716E0
2.390817444E0,-3.004693389E-1,8.465065360E-1,1.021595716E0
2.392816544E0,-3.352886736E-1,8.184067011E-1,1.035645723E0
2.394816544E0,-3.853796124E-1,8.232936263E-1,1.052139044E0
2.396816544E0,-4.562399685E-1,7.921395302E-1,1.079017043E0
2.398816544E0,-4.983896911E-1,7.927503586E-1,1.093677878E0
2.400816544E0,-5.942955017E-1,8.080220222E-1,1.123610258E0
2.402816544E0,-7.005860806E-1,8.306240439E-1,1.173701167E0
2.404817410E0,-7.470118403E-1,8.575021029E-1,1.192027211E0
2.406818310E0,-8.343655467E-1,9.027060866E-1,1.237842083E0
2.408819210E0,-9.418778419E-1,9.589056969E-1,1.304426432E0
2.410820110E0,-1.024955511E0,1.088409185E0,1.373454094E0
2.412820243E0,-1.071381330E0,1.200808406E0,1.413771272E0
2.414820276E0,-1.138576508E0,1.392009139E0,1.475468636E0
2.416820309E0,-1.209436774E0,1.614974976E0,1.520672679E0
2.418820342E0,-1.238147497E0,1.746311069E0,1.533500791E0
2.420820342E0,-1.285794973E0,1.978439808E0,1.555492043E0
2.422820308E0,-1.336496830E0,2.186134100E0,1.546329021E0
2.424819408E0,-1.358487964E0,2.374891281E0,1.514564037E0
2.426819374E0,-1.351768374E0,2.462244987E0,1.487075090E0
2.428819340E0,-1.346270680E0,2.589915991E0,1.451034069E0
2.430819306E0,-1.326722980E0,2.652835131E0,1.413160443E0
2.432819272E0,-1.309618711E0,2.669328451E0,1.388725758E0
2.434819272E0,-1.253419161E0,2.672382832E0,1.337413073E0
2.436819272E0,-1.174006701E0,2.598468065E0,1.286100388E0
2.438819305E0,-1.142241597E0,2.553874969E0,1.265941858E0
2.440819338E0,-1.064050913E0,2.417651892E0,1.215850949E0
2.442819371E0,-9.797514677E-1,2.228283644E0,1.155375242E0
2.444820271E0,-9.455430508E-1,2.127490997E0,1.126053691E0
2.446821171E0,-8.563567400E-1,1.936900973E0,1.090012670E0
2.448822071E0,-7.561748028E-1,1.764026165E0,1.058247685E0
2.450822937E0,-6.895905137E-1,1.580766559E0,1.046641231E0
2.452823837E0,-6.529386044E-1,1.503797531E0,1.038089156E0
2.454823837E0,-5.930737853E-1,1.370018005E0,1.004491568E0
2.456823837E0,-5.380959511E-1,1.265560031E0,9.574549198E-1
2.458823837E0,-5.075526834E-1,1.211193085E0,9.305768609E-1
2.460823837E0,-4.757876694E-1,1.087798238E0,8.762098551E-1
2.462823837E0,-4.330270886E-1,9.827294350E-1,8.047385812E-1
2.464822970E0,-3.511711657E-1,8.819366693E-1,7.063893080E-1
2.466822036E0,-3.077997267E-1,8.397870064E-1,6.874524951E-1
2.468822002E0,-2.851977050E-1,8.330674767E-1,6.740134358E-1
2.470821968E0,-2.070069611E-1,7.457137704E-1,6.428593397E-1
2.472821934E0,-1.947896481E-1,7.469354868E-1,6.288093925E-1
2.474821034E0,-1.899027377E-1,7.524332404E-1,6.049856544E-1
2.476821000E0,-2.228894532E-1,8.342891932E-1,5.683337450E-1
2.478820966E0,-2.748129964E-1,8.715519905E-1,5.451208949E-1
2.480820932E0,-4.128685594E-1,1.035263896E0,4.644866586E-1
2.482820932E0,-5.423719883E-1,1.121395826E0,3.435353339E-1
2.484821832E0,-5.692500472E-1,1.151328325E0,2.763401568E-1
2.486821865E0,-5.716935396E-1,1.150717378E0,1.602757722E-1
2.488821898E0,-5.582544804E-1,1.087187409E0,9.063713253E-2
2.490821931E0,-5.332090259E-1,1.041372538E0,5.520694703E-2
2.492821964E0,-5.038874745E-1,9.870055318E-1,6.559165567E-2
2.494821997E0,-3.774383664E-1,8.208501935E-1,9.796751291E-2
2.496822030E0,-3.365103900E-1,6.058256030E-1,1.578323096E-1
2.498822030E0,-2.943606973E-1,4.995350540E-1,1.871538460E-1
2.500821996E0,-1.819614917E-1,2.698497176E-1,2.451860309E-1
2.502821962E0,-2.985603921E-2,4.505131021E-2,2.903900743E-1
2.504821062E0,4.637230933E-1,-1.436907768E0,2.671771944E-1
2.506820162E0,4.637230933E-1,-1.436907768E0,2.671771944E-1
2.508819262E0,5.431355834E-1,-1.846798301E0,2.109775841E-1
2.510818328E0,5.431355834E-1,-1.846798301E0,2.109775841E-1
2.512818128E0,6.579782367E-1,-2.323273182E0,1.236238554E-1
2.514818128E0,8.051967621E-1,-3.417332888E0,-4.680754989E-2
2.516818161E0,8.400160670E-1,-4.259105206E0,-1.457677186E-1
2.518817961E0,8.106945157E-1,-4.547433376E0,-1.659262776E-1
2.520817994E0,4.704425931E-1,-4.803386211E0,-9.689849615E-2
2.522818027E0,5.627596006E-2,-4.665330410E0,1.488984004E-2
2.524818927E0,-1.269836128E-1,-4.394717216E0,5.887213722E-2
2.526819860E0,-4.055381715E-1,-3.697720051E0,1.211803928E-1
2.528820126E0,-5.936846733E-1,-2.909703970E0,1.859321147E-1
2.530820059E0,-7.256315351E-1,-1.981188655E0,3.203224540E-1
2.532820059E0,-7.384597063E-1,-1.578017592E0,4.009566605E-1
2.534820925E0,-7.274641395E-1,-8.388707042E-1,5.756641626E-1
2.536820025E0,-7.146359682E-1,-5.212207437E-1,6.789003611E-1
2.538820025E0,-5.698609352E-1,2.026545405E-1,9.098074436E-1
2.540820025E0,-4.904484451E-1,5.984952450E-1,1.170646906E0
2.542820025E0,-3.560580909E-1,9.790642858E-1,1.431486368E0
2.544819125E0,1.718058437E-2,1.363909364E0,2.033188581E0
2.546818225E0,3.611740842E-2,1.333366156E0,2.110157728E0
2.548817325E0,3.611740842E-2,1.333366156E0,2.110157728E0
2.550817225E0,3.611740842E-2,1.333366156E0,2.110157728E0
2.552817158E0,9.414960444E-2,1.279609919E0,2.170022488E0
2.554817124E0,1.344667077E-1,1.156215191E0,2.297693253E0
2.556817090E0,1.271363348E-1,1.067028880E0,2.445522547E0
2.558817056E0,1.173624843E-1,1.136056662E0,2.524935246E0
2.560817056E0,1.497383416E-1,1.263116598E0,2.640388727E0
2.562817089E0,2.383138090E-1,1.264338374E0,2.727131605E0
2.564817989E0,2.725222707E-1,1.249677539E0,2.770503044E0
2.566818889E0,3.513238728E-1,1.147052169E0,2.849304676E0
2.568819789E0,4.557818174E-1,1.034042120E0,2.904282331E0
2.570820722E0,4.899902940E-1,1.000444531E0,2.937880039E0
2.572820955E0,5.730679631E-1,9.418014884E-1,3.018514156E0
2.574820988E0,5.657375455E-1,8.489499688E-1,3.131524324E0
2.576820988E0,5.144249201E-1,7.628179789E-1,3.244534492E0
2.578821188E0,4.997641146E-1,7.151705027E-1,3.278742790E0
2.580821154E0,4.521166384E-1,6.650795341E-1,3.308064461E0
2.582821120E0,3.934735656E-1,5.991060734E-1,3.295236111E0
2.584820220E0,1.772272736E-1,-3.092505336E-1,3.167565346E0
2.586819320E0,1.772272736E-1,-3.092505336E-1,3.167565346E0
2.588818186E0,1.772272736E-1,-3.092505336E-1,3.167565346E0
2.590817452E0,1.772272736E-1,-3.092505336E-1,3.167565346E0
2.592816552E0,1.772272736E-1,-4.809036553E-1,3.167565346E0
2.594816585E0,1.436296850E-1,-6.293439269E-1,3.080211639E0
2.596817518E0,1.625665128E-1,-1.077718973E0,2.993468761E0
2.598817551E0,1.540143937E-1,-1.317178130E0,2.967812538E0
2.600817584E0,1.393536329E-1,-1.714240551E0,2.918943167E0
2.602818750E0,1.393536329E-1,-2.163226604E0,2.860911131E0
2.604819650E0,1.479057521E-1,-2.408183575E0,2.827924252E0
2.606820550E0,1.057560444E-1,-2.759431124E0,2.770503044E0
2.608821450E0,3.367394581E-2,-2.913369179E0,2.786996365E0
2.610821516E0,-2.313652076E-2,-2.865721464E0,2.834033012E0
2.612821549E0,-1.251510233E-1,-2.629316807E0,2.983083963E0
2.614821549E0,-1.019381359E-1,-2.542573929E0,3.196887016E0
2.616821549E0,-7.200574130E-2,-2.673909903E0,3.323946953E0
2.618821549E0,-1.580613852E-2,-2.771648407E0,3.599447012E0
2.620821549E0,5.566509441E-2,-2.954907894E0,3.783317566E0
2.622821515E0,1.106429696E-1,-2.990948915E0,3.844403982E0
2.624820615E0,1.595121920E-1,-2.887101889E0,3.804086924E0
2.626820581E0,1.729512215E-1,-2.775313616E0,3.769267559E0
2.628820547E0,1.937206388E-1,-2.466215611E0,3.684968233E0
2.630820513E0,1.876119822E-1,-2.255467176E0,3.645872831E0
2.632820479E0,1.454622895E-1,-1.714240551E0,3.560351610E0
2.634820445E0,7.215845585E-2,-1.061225653E0,3.450396061E0
2.636820645E0,3.733913973E-2,-7.478517890E-1,3.381368160E0
2.638820645E0,-1.756237587E-3,-2.811507285E-1,3.233538866E0
2.640820678E0,-2.130392566E-2,-1.070541367E-1,3.086320400E0
2.642820711E0,-5.551237985E-2,-1.266018152E-1,2.931771278E0
2.644821611E0,-7.322747260E-2,-1.718058437E-1,2.848082781E0
2.646822511E0,-1.178206354E-1,-3.190243840E-1,2.700864315E0
2.648823411E0,-1.697441787E-1,-3.972151279E-1,2.552423954E0
2.650824244E0,-1.923462003E-1,-4.295909703E-1,2.481563807E0
2.652824277E0,-2.454914749E-1,-4.601342380E-1,2.351449490E0
2.654824277E0,-3.047454059E-1,-4.228714705E-1,2.231719732E0
2.656824243E0,-3.224605024E-1,-3.843869567E-1,2.174298525E0
2.658824209E0,-3.542254865E-1,-3.068070710E-1,2.055179834E0
2.660824175E0,-3.505602777E-1,-2.457205504E-1,1.942169666E0
2.662823008E0,-3.304017484E-1,-2.212859392E-1,1.833435655E0
2.664822108E0,-2.650391459E-1,-2.145664245E-1,1.658728242E0
2.666821174E0,-2.650391459E-1,-2.145664245E-1,1.658728242E0
2.668820740E0,-2.100612819E-1,-1.974621862E-1,1.542663813E0
2.670820740E0,-1.813506186E-1,-1.852448881E-1,1.486464262E0
2.672820773E0,-1.172097698E-1,-1.479821056E-1,1.374065042E0
2.674820806E0,-5.429064855E-2,-1.046106741E-1,1.260444045E0
2.676820839E0,-2.557998151E-2,-8.078692853E-2,1.200579286E0
2.678820872E0,4.100432992E-2,-4.046982154E-2,1.083293200E0
2.680820905E0,9.353873879E-2,-1.664607786E-2,9.672287703E-1
2.682820938E0,1.430188268E-1,1.679879380E-3,8.517752290E-1
2.684821838E0,1.656208336E-1,1.267545391E-2,7.937430143E-1
2.686822404E0,2.138791978E-1,2.611448988E-2,6.703482270E-1
2.688822404E0,2.535854280E-1,4.871650413E-2,5.463426113E-1
2.690822404E0,2.713005245E-1,5.971207842E-2,4.852560759E-1
2.692822404E0,2.926808000E-1,8.414668590E-2,3.685808182E-1
2.694822404E0,3.140611053E-1,1.043052375E-1,2.506838143E-1
2.696822170E0,3.134502172E-1,1.153008118E-1,1.938733608E-1
2.698822170E0,3.207806051E-1,1.232420653E-1,7.964155823E-2
2.700822136E0,3.195588887E-1,1.140790880E-1,-3.031418845E-2
2.702822102E0,3.134502172E-1,9.819658846E-2,-1.427133977E-1
2.704821202E0,2.725222707E-1,1.171334088E-1,-4.023311138E-1
2.706820302E0,2.725222707E-1,1.171334088E-1,-4.023311138E-1
2.708819402E0,2.633592784E-1,1.311833113E-1,-4.524220824E-1
2.710818468E0,2.633592784E-1,1.311833113E-1,-4.524220824E-1
2.712819334E0,2.609158158E-1,1.397354305E-1,-4.988478422E-1
2.714819000E0,2.474767864E-1,1.672243625E-1,-6.051383615E-1
2.716819000E0,2.438115925E-1,1.745547503E-1,-6.625596881E-1
2.718818733E0,2.346486151E-1,1.837177277E-1,-7.725154757E-1
2.720818766E0,2.205987126E-1,1.751656085E-1,-8.824712038E-1
2.722818799E0,1.955532432E-1,1.507309973E-1,-9.814313650E-1
2.724819699E0,1.680642962E-1,1.146899462E-1,-1.031522274E0
2.726820632E0,1.271363348E-1,4.688390717E-2,-1.149419308E0
2.728821065E0,1.039234474E-1,5.054909736E-2,-1.267316341E0
2.730820698E0,1.014799923E-1,6.765332818E-2,-1.326570272E0
2.732820698E0,1.008691266E-1,1.336267740E-1,-1.429806471E0
2.734820664E0,1.228602752E-1,1.898263693E-1,-1.442023754E0
2.736820630E0,1.320232451E-1,2.148718536E-1,-1.411480546E0
2.738820596E0,1.637882441E-1,2.386955917E-1,-1.304579139E0
2.740820562E0,2.108248621E-1,2.557998300E-1,-1.119486928E0
2.742820528E0,2.419789881E-1,2.637410760E-1,-1.003422499E0
2.744819628E0,4.643339515E-1,5.319108963E-1,-2.105194330E-1
2.746818194E0,4.643339515E-1,5.319108963E-1,-2.105194330E-1
2.748817327E0,4.832707644E-1,6.070473194E-1,-1.708131880E-1
2.750816793E0,4.832707644E-1,6.070473194E-1,-1.708131880E-1
2.752816826E0,5.003749728E-1,6.742424965E-1,-1.366047412E-1
2.754816859E0,5.193118453E-1,7.707592249E-1,-1.213331074E-1
2.756816892E0,5.248095989E-1,7.927503586E-1,-1.292743534E-1
2.758816925E0,5.199226737E-1,8.068002462E-1,-1.543198377E-1
2.760816958E0,5.125923157E-1,7.677049041E-1,-1.928043365E-1
2.762816991E0,5.064836740E-1,7.402159572E-1,-2.031890452E-1
2.764817891E0,4.960989356E-1,6.608034968E-1,-2.105194330E-1
2.766818757E0,4.924337566E-1,5.581781268E-1,-2.007455975E-1
2.768819623E0,4.826599061E-1,4.524984360E-1,-1.757001132E-1
2.770820523E0,4.783838391E-1,4.079052806E-1,-1.585958898E-1
2.772820523E0,4.734969139E-1,3.339905739E-1,-1.237765700E-1
2.774820223E0,4.600578845E-1,2.869539559E-1,-9.140071273E-2
2.776820223E0,4.484514594E-1,2.594650090E-1,-7.796167582E-2
2.778820489E0,4.234059751E-1,2.209804952E-1,-4.253149405E-2
2.780820455E0,3.989713490E-1,1.904372424E-1,3.749185428E-2
2.782820421E0,3.843106031E-1,1.782199293E-1,8.819366992E-2
2.784819521E0,2.975677252E-1,1.617265791E-1,2.311361432E-1
2.786818621E0,2.920699418E-1,1.678352207E-1,1.902081668E-1
2.788817721E0,2.920699418E-1,1.678352207E-1,1.902081668E-1
2.790817221E0,2.920699418E-1,1.678352207E-1,1.902081668E-1
2.792816287E0,2.920699418E-1,1.678352207E-1,1.902081668E-1
2.794816287E0,2.621375620E-1,1.806633919E-1,3.688098863E-2
2.796816320E0,2.517528534E-1,1.684460938E-1,-6.207918003E-2
2.798816353E0,2.230421752E-1,1.366810948E-1,-2.111303061E-1
2.800816386E0,2.028836161E-1,7.742717117E-2,-3.100904822E-1
2.802816419E0,1.906663179E-1,4.444044828E-2,-3.442989290E-1
2.804817319E0,1.821141988E-1,-1.542434748E-2,-3.962224722E-1
2.806818219E0,1.613447815E-1,-5.940664560E-2,-4.096615016E-1
2.808819119E0,1.472948790E-1,-9.483683109E-2,-4.133267105E-1
2.810819685E0,1.295797974E-1,-1.039998084E-1,-4.035528600E-1
2.812819651E0,1.063669100E-1,-1.162171140E-1,-3.840051591E-1
2.814819617E0,8.254316449E-2,-1.021672115E-1,-3.662900627E-1
2.816819583E0,7.093672454E-2,-9.300423414E-2,-3.540727794E-1
2.818819549E0,3.978259861E-2,-5.513058975E-2,-3.388011456E-1
2.820819515E0,1.656972058E-2,-1.847867295E-2,-3.247512281E-1
2.822819481E0,4.963280167E-3,9.010262787E-3,-3.168099821E-1
2.824818581E0,-1.336267684E-2,6.826419383E-2,-3.088687360E-1
2.826818581E0,-2.374738641E-2,1.134682223E-1,-2.893210649E-1
2.828818614E0,-3.107776865E-2,1.672243625E-1,-2.636647224E-1
2.830818647E0,-3.107776865E-2,1.916589737E-1,-2.435061634E-1
2.832818680E0,-3.229949996E-2,2.399173230E-1,-2.050216496E-1
2.834819313E0,-2.680171281E-2,2.796235681E-1,-1.592067480E-1
2.836819346E0,-1.641700417E-2,2.973386645E-1,-1.408807933E-1
2.838819379E0,-2.367102774E-3,3.382666409E-1,-8.040513843E-2
2.840819412E0,1.718058437E-2,3.804163337E-1,-2.420553565E-2
2.842819445E0,2.573269792E-2,4.011857510E-1,5.726861767E-3
2.844820311E0,5.016730726E-2,4.366159439E-1,5.398521572E-2
2.846821177E0,6.910412759E-2,4.677700698E-1,8.086328954E-2
2.848822043E0,7.887797803E-2,4.995350540E-1,1.089630872E-1
2.850822909E0,8.437576145E-2,5.178610086E-1,1.211803928E-1
2.852823809E0,9.353873879E-2,5.477933884E-1,1.535562575E-1
2.854823809E0,9.720393270E-2,5.862779021E-1,1.828777790E-1
2.856823775E0,1.002582610E-1,6.052147150E-1,1.993711442E-1
2.858823741E0,9.964739531E-2,6.491970420E-1,2.238057554E-1
2.860823707E0,9.231700748E-2,6.925684810E-1,2.366339266E-1
2.862823673E0,9.292787313E-2,7.096726894E-1,2.378556579E-1
2.864822773E0,8.987355232E-2,7.713701129E-1,2.616794109E-1
2.866821839E0,8.987355232E-2,7.713701129E-1,2.616794109E-1
2.868821939E0,9.659306705E-2,7.787004709E-1,2.647337317E-1
2.870821905E0,9.842566401E-2,7.848091125E-1,2.714532316E-1
2.872821905E0,1.027017161E-1,7.787004709E-1,2.751184404E-1
2.874821938E0,1.039234474E-1,7.585419416E-1,2.787836194E-1
2.876821971E0,1.088103727E-1,7.408268452E-1,2.806162238E-1
2.878822004E0,1.075886413E-1,7.139487267E-1,2.873357534E-1
2.880822870E0,1.130864322E-1,6.730207801E-1,2.787836194E-1
2.882822903E0,1.149190217E-1,6.553056836E-1,2.714532316E-1
2.884823803E0,1.216385439E-1,6.113234162E-1,2.445751727E-1
2.886823836E0,1.277471930E-1,5.648976564E-1,2.146427780E-1
2.888823836E0,1.332449764E-1,5.398521423E-1,1.999820024E-1
2.890823802E0,1.436296850E-1,4.915938079E-1,1.755474061E-1
2.892823768E0,1.521818042E-1,4.476115108E-1,1.553888470E-1
2.894823734E0,1.650099754E-1,4.011857510E-1,1.498910636E-1
2.896823700E0,1.662317067E-1,3.791945875E-1,1.431715488E-1
2.898823666E0,1.753946841E-1,3.321579695E-1,1.419498175E-1
2.900823632E0,1.784490049E-1,2.900082767E-1,1.474476010E-1
2.902823598E0,1.851685345E-1,2.612976134E-1,1.517236531E-1
2.904822731E0,1.870011240E-1,1.232420653E-1,1.621083617E-1
2.906821897E0,1.870011240E-1,1.232420653E-1,1.621083617E-1
2.908821063E0,1.870011240E-1,1.232420653E-1,1.621083617E-1
2.910820196E0,1.845576614E-1,1.128573567E-1,1.621083617E-1
2.912820229E0,1.900554448E-1,9.392052889E-2,1.590540409E-1
2.914820262E0,2.028836161E-1,6.520986557E-2,1.505019218E-1
2.916820295E0,2.077705413E-1,5.787948146E-2,1.480584592E-1
2.918821261E0,2.181552500E-1,4.260785133E-2,1.352302879E-1
2.920821294E0,2.175443918E-1,3.955352306E-2,1.230129898E-1
2.922821294E0,2.175443918E-1,3.955352306E-2,1.150717437E-1
2.924822160E0,2.151009291E-1,4.749477282E-2,9.857837856E-2
2.926823060E0,2.047162205E-1,5.971207842E-2,8.025242388E-2
2.928822926E0,2.016618848E-1,6.276640296E-2,7.292203605E-2
2.930822926E0,1.924989074E-1,7.742717117E-2,5.948300287E-2
2.932822926E0,1.851685345E-1,9.330966324E-2,4.726569727E-2
2.934822892E0,1.753946841E-1,1.030835137E-1,3.443752974E-2
2.936822858E0,1.698969007E-1,1.116356254E-1,3.199406713E-2
2.938822824E0,1.625665128E-1,1.250746548E-1,2.527454868E-2
2.940821957E0,1.589013189E-1,1.324050426E-1,2.160935849E-2
2.942821923E0,1.546252668E-1,1.397354305E-1,2.466368489E-2
2.944821023E0,1.448514163E-1,1.892155111E-1,3.810271993E-2
2.946820123E0,1.448514163E-1,1.892155111E-1,3.810271993E-2
2.948819223E0,1.436296850E-1,1.947132945E-1,3.932445124E-2
2.950818423E0,1.436296850E-1,1.947132945E-1,3.932445124E-2
2.952818456E0,1.497383416E-1,1.916589737E-1,3.871358559E-2
2.954818489E0,1.497383416E-1,1.739438772E-1,4.604396969E-2
2.956818089E0,1.546252668E-1,1.513418704E-1,4.970915988E-2
2.958818122E0,1.558469981E-1,1.275181174E-1,5.765040591E-2
2.960818155E0,1.576795876E-1,1.061378345E-1,5.276348442E-2
2.962818188E0,1.527926624E-1,9.575312585E-2,5.154175684E-2
2.964819088E0,1.509600729E-1,8.414668590E-2,4.115704447E-2
2.966819954E0,1.491274834E-1,8.597928286E-2,3.199406713E-2
2.968820787E0,1.527926624E-1,8.475755155E-2,2.832887508E-2
2.970821653E0,1.540143937E-1,9.208793938E-2,1.794416644E-2
2.972821619E0,1.582904607E-1,8.659014851E-2,1.305724494E-2
2.974821185E0,1.625665128E-1,8.536841720E-2,1.061378326E-2
2.976821151E0,1.650099754E-1,8.231408894E-2,1.122464892E-2
2.978820184E0,1.668425649E-1,7.437284291E-2,1.366810966E-2
2.980820150E0,1.656208336E-1,6.765332818E-2,2.222022414E-2
2.982820150E0,1.668425649E-1,6.520986557E-2,2.405281924E-2
2.984819283E0,1.613447815E-1,7.803803682E-2,3.016147204E-2
2.986818416E0,1.613447815E-1,7.803803682E-2,3.016147204E-2
2.988817549E0,1.607339233E-1,8.292495459E-2,2.955060638E-2
2.990816782E0,1.607339233E-1,8.292495459E-2,2.955060638E-2
2.992816315E0,1.607339233E-1,8.292495459E-2,2.955060638E-2
2.994816848E0,1.546252668E-1,1.018617824E-1,2.405281924E-2
2.996816848E0,1.503492147E-1,1.171334088E-1,2.283108793E-2
2.998816848E0,1.417970955E-1,1.440114826E-1,1.733330078E-2
3.000816881E0,1.326341182E-1,1.733330190E-1,1.550070569E-2
3.002816914E0,1.277471930E-1,1.910481006E-1,1.427897532E-2
3.004817814E0,1.198059469E-1,2.160935849E-1,8.170322515E-3
3.006818714E0,1.155298874E-1,2.338086665E-1,-4.657847341E-3
3.008819614E0,1.136972904E-1,2.399173230E-1,-8.323038928E-3
3.010820447E0,1.100321040E-1,2.570215464E-1,-2.237293869E-2
3.012820447E0,1.057560444E-1,2.643519342E-1,-3.764457256E-2
3.014820447E0,1.008691266E-1,2.680171132E-1,-4.741841555E-2
3.016820847E0,9.659306705E-2,2.710714638E-1,-5.597052723E-2
3.018820813E0,9.231700748E-2,2.777909636E-1,-6.757696718E-2
3.020820779E0,9.048441797E-2,2.808452845E-1,-6.635523587E-2
3.022820745E0,8.804095536E-2,2.826778889E-1,-6.330090761E-2
3.024819845E0,8.865182102E-2,2.832887471E-1,-5.719225854E-2
3.026819811E0,8.743008971E-2,2.808452845E-1,-5.230533704E-2
3.028819811E0,9.048441797E-2,2.802344263E-1,-5.108360574E-2
3.030819844E0,8.559749275E-2,2.802344263E-1,-4.375322163E-2
3.032819877E0,8.193229884E-2,2.875648141E-1,-4.130976275E-2
3.034820310E0,8.254316449E-2,2.900082767E-1,-3.764457256E-2
3.036820343E0,7.826711237E-2,2.997821271E-1,-3.642284125E-2
3.038820376E0,7.582364976E-2,3.089450896E-1,-3.336851299E-2
3.040820409E0,7.399105281E-2,3.144428730E-1,-3.092505224E-2
3.042820442E0,7.215845585E-2,3.174972236E-1,-2.909245715E-2
3.044821342E0,7.276932150E-2,3.144428730E-1,-2.542726509E-2
3.046822208E0,7.032585889E-2,3.077233732E-1,-2.298380435E-2
3.048823074E0,7.032585889E-2,3.028364480E-1,-2.298380435E-2
3.050823840E0,6.727153808E-2,2.912299931E-1,-1.931861416E-2
3.052824306E0,6.421720982E-2,2.753475010E-1,-1.504255645E-2
3.054823772E0,6.543894112E-2,2.674062550E-1,-1.626428775E-2
3.056823772E0,5.871942267E-2,2.503020465E-1,-1.382082608E-2
3.058823772E0,5.566509441E-2,2.283108830E-1,-1.626428775E-2
3.060823738E0,4.894557595E-2,2.118175179E-1,-1.076649968E-2
3.062823738E0,5.077817291E-2,1.983784884E-1,-4.657847341E-3
3.064822871E0,4.161519557E-2,1.550070494E-1,1.450804994E-3
3.066821971E0,4.161519557E-2,1.550070494E-1,1.450804994E-3
3.068821971E0,4.222606122E-2,1.421788931E-1,-3.817907709E-4
3.070821971E0,3.428481147E-2,1.366810948E-1,-2.825251780E-3
3.072821971E0,2.634356357E-2,1.305724531E-1,-4.657847341E-3
3.074821971E0,2.451096848E-2,1.293507218E-1,-2.825251780E-3
3.076822004E0,1.595885493E-2,1.262963861E-1,-4.657847341E-3
3.078822004E0,9.850202128E-3,1.189660057E-1,-8.323038928E-3
3.080822004E0,7.635815564E-5,1.116356254E-1,-1.259909570E-2
3.082822004E0,6.872233935E-4,1.067487001E-1,-1.504255645E-2
3.084822870E0,-5.421428941E-3,1.079704314E-1,-1.626428775E-2
3.086822870E0,-1.145372284E-3,1.055269688E-1,-1.992947794E-2
3.088822870E0,-5.345070967E-4,1.073595658E-1,-1.931861416E-2
3.090822836E0,2.519819187E-3,1.073595658E-1,-2.359467000E-2
3.092822802E0,6.185010541E-3,1.085812971E-1,-2.970332280E-2
3.094822768E0,4.963280167E-3,1.128573567E-1,-3.214678168E-2
3.096822734E0,9.239336476E-3,1.153008118E-1,-3.703370690E-2
3.098822700E0,1.229366288E-2,1.128573567E-1,-4.130976275E-2
3.100822666E0,8.017606102E-3,1.153008118E-1,-4.864014685E-2
3.102822632E0,7.406740915E-3,1.146899462E-1,-5.474879593E-2
3.104821732E0,2.328923717E-2,9.086620808E-2,-6.330090761E-2
3.106820865E0,2.328923717E-2,9.086620808E-2,-6.330090761E-2
3.108819998E0,2.328923717E-2,9.086620808E-2,-6.330090761E-2
3.110819264E0,2.328923717E-2,9.086620808E-2,-6.330090761E-2
3.112819564E0,2.878702432E-2,8.414668590E-2,-6.757696718E-2
3.114819597E0,3.123048507E-2,8.048149943E-2,-6.757696718E-2
3.116819630E0,3.306308016E-2,7.620543987E-2,-6.757696718E-2
3.118819663E0,3.856086731E-2,6.887505949E-2,-6.879869848E-2
3.120819696E0,3.978259861E-2,6.520986557E-2,-7.002042979E-2
3.122819696E0,4.161519557E-2,6.093380973E-2,-7.002042979E-2
3.124820529E0,4.161519557E-2,5.849034712E-2,-7.002042979E-2
3.126821395E0,4.589125142E-2,5.360342562E-2,-7.002042979E-2
3.128821361E0,4.589125142E-2,5.299255997E-2,-7.185302675E-2
3.130821327E0,4.833471403E-2,4.871650413E-2,-6.879869848E-2
3.132821293E0,4.955644161E-2,4.321871698E-2,-6.635523587E-2
3.134821259E0,4.894557595E-2,4.260785133E-2,-6.696610153E-2
3.136821225E0,5.077817291E-2,3.344487399E-2,-6.207918003E-2
3.138821225E0,4.833471403E-2,2.611448988E-2,-6.024658307E-2
3.140821258E0,4.833471403E-2,1.817324013E-2,-6.269004941E-2
3.142821291E0,4.405865446E-2,8.399397135E-3,-6.391177326E-2
3.144820457E0,4.039346427E-2,-2.825251780E-2,-4.680754989E-2
3.146819623E0,4.039346427E-2,-2.825251780E-2,-4.680754989E-2
3.148818789E0,4.039346427E-2,-2.825251780E-2,-4.680754989E-2
3.150818055E0,4.405865446E-2,-3.985895589E-2,-4.497495294E-2
3.152817921E0,4.100432992E-2,-4.413501546E-2,-4.436408728E-2
3.154817954E0,3.856086731E-2,-4.841107130E-2,-4.314235970E-2
3.156817954E0,3.550654277E-2,-5.940664560E-2,-3.764457256E-2
3.158817954E0,3.428481147E-2,-7.528914511E-2,-3.031418845E-2
3.160817954E0,3.000875562E-2,-8.445212245E-2,-2.603813075E-2
3.162817954E0,2.451096848E-2,-1.082758680E-1,-2.115120925E-2
3.164818820E0,1.595885493E-2,-1.235474944E-1,-2.237293869E-2
3.166819686E0,8.017606102E-3,-1.308778822E-1,-2.176207490E-2
3.168820552E0,6.185010541E-3,-1.345430762E-1,-1.992947794E-2
3.170821285E0,2.519819187E-3,-1.308778822E-1,-1.565342210E-2
3.172821551E0,6.872233935E-4,-1.266018152E-1,-1.687515154E-2
3.174821284E0,-1.756237587E-3,-1.266018152E-1,-1.687515154E-2
3.176820850E0,-1.756237587E-3,-1.284344196E-1,-1.320996135E-2
3.178820816E0,-7.864889689E-3,-1.302670091E-1,-1.015563495E-2
3.180820782E0,-1.275181212E-2,-1.272126883E-1,-7.101308554E-3
3.182820748E0,-1.702786796E-2,-1.308778822E-1,-4.046982154E-3
3.184819881E0,-2.802344225E-2,-1.327104717E-1,2.061670180E-3
3.186819014E0,-2.802344225E-2,-1.327104717E-1,2.061670180E-3
3.188818180E0,-2.802344225E-2,-1.314887404E-1,2.290744742E-4
3.190817646E0,-2.802344225E-2,-1.314887404E-1,2.290744742E-4
3.192817612E0,-2.802344225E-2,-1.314887404E-1,2.290744742E-4
3.194817645E0,-2.802344225E-2,-1.327104717E-1,1.450804994E-3
3.196817678E0,-2.985603921E-2,-1.308778822E-1,5.115996581E-3
3.198817711E0,-2.985603921E-2,-1.302670091E-1,3.283400787E-3
3.200817711E0,-3.352123126E-2,-1.308778822E-1,3.283400787E-3
3.202817677E0,-3.107776865E-2,-1.333213449E-1,5.115996581E-3
3.204818510E0,-3.046690486E-2,-1.345430762E-1,5.115996581E-3
3.206819810E0,-2.863430791E-2,-1.363756657E-1,6.948592141E-3
3.208820643E0,-2.802344225E-2,-1.382082552E-1,5.726861767E-3
3.210821376E0,-2.435825206E-2,-1.400408596E-1,7.559457328E-3
3.212821509E0,-2.069306001E-2,-1.418734491E-1,8.170322515E-3
3.214821475E0,-2.008219436E-2,-1.424843222E-1,6.948592141E-3
3.216821475E0,-1.947133057E-2,-1.394299865E-1,1.061378326E-2
3.218821475E0,-1.641700417E-2,-1.375973970E-1,1.000291854E-2
3.220821475E0,-1.458440814E-2,-1.412625909E-1,1.183551457E-2
3.222821475E0,-1.519527286E-2,-1.388191283E-1,1.183551457E-2
3.224820608E0,-1.580613852E-2,-1.388191283E-1,1.244637929E-2
3.226820608E0,-1.214094646E-2,-1.382082552E-1,1.427897532E-2
3.228820608E0,-1.030835137E-2,-1.357648075E-1,1.366810966E-2
3.230820608E0,-7.864889689E-3,-1.363756657E-1,1.427897532E-2
3.232820041E0,-8.475755341E-3,-1.363756657E-1,1.305724494E-2
3.234820307E0,-4.199698567E-3,-1.357648075E-1,1.305724494E-2
3.236820740E0,-3.588833380E-3,-1.351539344E-1,1.122464892E-2
3.238820773E0,-5.345070967E-4,-1.333213449E-1,1.122464892E-2
3.240820806E0,1.298088697E-3,-1.363756657E-1,1.183551457E-2
3.242820839E0,1.908953884E-3,-1.314887404E-1,1.305724494E-2
3.244821739E0,4.352414981E-3,-1.314887404E-1,1.305724494E-2
3.246822639E0,3.741549561E-3,-1.284344196E-1,1.122464892E-2
3.248823505E0,3.741549561E-3,-1.266018152E-1,1.427897532E-2
3.250824038E0,6.872233935E-4,-1.247692257E-1,1.366810966E-2
3.252824071E0,1.298088697E-3,-1.229366288E-1,1.488984004E-2
3.254824037E0,1.298088697E-3,-1.229366288E-1,1.244637929E-2
3.256824003E0,-1.756237587E-3,-1.198823079E-1,1.427897532E-2
3.258823969E0,-4.810563754E-3,-1.192714423E-1,1.550070569E-2
3.260823935E0,-4.199698567E-3,-1.217148975E-1,1.672243699E-2
3.262823935E0,-9.086620063E-3,-1.192714423E-1,1.977676153E-2
3.264823068E0,-1.275181212E-2,-1.308778822E-1,2.527454868E-2
3.266821734E0,-1.275181212E-2,-1.308778822E-1,2.527454868E-2
3.268821767E0,-1.091921609E-2,-1.327104717E-1,2.466368489E-2
3.270821800E0,-1.458440814E-2,-1.375973970E-1,3.016147204E-2
3.272821833E0,-1.763873361E-2,-1.424843222E-1,3.077233583E-2
3.274821866E0,-1.275181212E-2,-1.485929638E-1,3.077233583E-2
3.276821899E0,-1.641700417E-2,-1.540907621E-1,3.504839167E-2
3.278821932E0,-1.947133057E-2,-1.559233516E-1,3.810271993E-2
3.280821932E0,-2.130392566E-2,-1.565342247E-1,3.749185428E-2
3.282821932E0,-2.191479132E-2,-1.595885456E-1,4.054617882E-2
3.284822798E0,-2.374738641E-2,-1.620320082E-1,3.993531689E-2
3.286822798E0,-2.313652076E-2,-1.644754708E-1,4.237877578E-2
3.288822798E0,-2.619084716E-2,-1.632537395E-1,4.482223839E-2
3.290822798E0,-2.802344225E-2,-1.644754708E-1,4.482223839E-2
3.292822798E0,-3.107776865E-2,-1.650863290E-1,4.787656292E-2
3.294822764E0,-3.596469015E-2,-1.601994038E-1,5.093089119E-2
3.296822730E0,-5.001459271E-2,-1.424843222E-1,6.131559983E-2
3.298822696E0,-5.184718594E-2,-1.351539344E-1,6.681338698E-2
3.300822662E0,-5.245805159E-2,-1.327104717E-1,6.864598393E-2
3.302822628E0,-5.123632401E-2,-1.327104717E-1,6.436992437E-2
3.304821728E0,-3.840815276E-2,-1.577559561E-1,4.360050708E-2
3.306820828E0,-3.718642145E-2,-1.589776874E-1,4.298964143E-2
3.308819928E0,-3.718642145E-2,-1.589776874E-1,4.298964143E-2
3.310819028E0,-3.718642145E-2,-1.589776874E-1,4.298964143E-2
3.312819061E0,-3.657555580E-2,-1.656972021E-1,4.360050708E-2
3.314819094E0,-3.291036561E-2,-1.656972021E-1,4.482223839E-2
3.316819127E0,-3.291036561E-2,-1.675297916E-1,4.726569727E-2
3.318818260E0,-3.474296257E-2,-1.650863290E-1,4.970915988E-2
3.320818293E0,-3.596469015E-2,-1.632537395E-1,4.909829423E-2
3.322818326E0,-3.840815276E-2,-1.644754708E-1,4.970915988E-2
3.324819226E0,-3.779728711E-2,-1.663080603E-1,4.970915988E-2
3.326820126E0,-3.535382450E-2,-1.675297916E-1,5.276348442E-2
3.328820092E0,-3.657555580E-2,-1.663080603E-1,5.337435007E-2
3.330820058E0,-3.657555580E-2,-1.675297916E-1,5.398521572E-2
3.332820024E0,-3.535382450E-2,-1.681406647E-1,5.459608138E-2
3.334819990E0,-3.291036561E-2,-1.693623960E-1,5.703954399E-2
3.336819956E0,-3.657555580E-2,-1.718058437E-1,5.826127157E-2
3.338819922E0,-3.596469015E-2,-1.730275750E-1,5.887213722E-2
3.340819922E0,-3.535382450E-2,-1.760819107E-1,5.826127157E-2
3.342819922E0,-3.657555580E-2,-1.815796942E-1,5.765040591E-2
3.344819088E0,-3.657555580E-2,-1.962404549E-1,5.642867833E-2
3.346818254E0,-3.657555580E-2,-1.962404549E-1,5.642867833E-2
3.348817420E0,-3.657555580E-2,-1.962404549E-1,5.642867833E-2
3.350816653E0,-3.779728711E-2,-1.962404549E-1,5.459608138E-2
3.352816686E0,-3.962988406E-2,-1.968513280E-1,5.642867833E-2
3.354816719E0,-3.840815276E-2,-1.999056488E-1,5.276348442E-2
3.356816752E0,-3.840815276E-2,-2.011273801E-1,5.032002553E-2
3.358816785E0,-3.962988406E-2,-2.011273801E-1,4.787656292E-2
3.360816785E0,-3.901901841E-2,-2.023491114E-1,4.665483162E-2
3.362816785E0,-4.085161164E-2,-2.035708427E-1,4.298964143E-2
3.364817651E0,-3.962988406E-2,-2.041817009E-1,3.993531689E-2
3.366818517E0,-4.024074972E-2,-2.054034323E-1,3.871358559E-2
3.368819383E0,-4.207334295E-2,-2.060143054E-1,3.565925732E-2
3.370820649E0,-4.329507425E-2,-2.066251636E-1,3.688098863E-2
3.372820615E0,-4.757113010E-2,-2.023491114E-1,3.871358559E-2
3.374820581E0,-5.917757004E-2,-1.785253733E-1,5.032002553E-2
3.376820547E0,-6.101016700E-2,-1.632537395E-1,5.032002553E-2
3.378821413E0,-5.795583874E-2,-1.608102769E-1,4.909829423E-2
3.380821379E0,-5.734497309E-2,-1.583668143E-1,5.032002553E-2
3.382821345E0,-5.306891724E-2,-1.595885456E-1,4.665483162E-2
3.384820445E0,-4.451680556E-2,-2.017382532E-1,3.749185428E-2
3.386819545E0,-4.451680556E-2,-2.017382532E-1,3.749185428E-2
3.388818678E0,-4.451680556E-2,-2.017382532E-1,3.749185428E-2
3.390817844E0,-4.512767121E-2,-2.066251636E-1,3.810271993E-2
3.392816977E0,-4.512767121E-2,-2.066251636E-1,3.810271993E-2
3.394817010E0,-4.207334295E-2,-2.127338201E-1,4.115704447E-2
3.396817043E0,-4.573853686E-2,-2.182316035E-1,4.726569727E-2
3.398817076E0,-5.001459271E-2,-2.249511331E-1,4.909829423E-2
3.400817109E0,-5.062545836E-2,-2.292271852E-1,5.093089119E-2
3.402817142E0,-5.612324551E-2,-2.353358418E-1,5.337435007E-2
3.404818008E0,-5.734497309E-2,-2.420553565E-1,5.581781268E-2
3.406818841E0,-6.345362961E-2,-2.432770878E-1,5.887213722E-2
3.408819674E0,-6.467536092E-2,-2.493857294E-1,5.887213722E-2
3.410820440E0,-6.772968173E-2,-2.548835278E-1,5.948300287E-2
3.412820406E0,-7.139487565E-2,-2.561052442E-1,6.253732741E-2
3.414820372E0,-7.567093521E-2,-2.579378486E-1,6.314819306E-2
3.416820338E0,-8.055785298E-2,-2.554943860E-1,6.375905871E-2
3.418820304E0,-8.116871864E-2,-2.567161322E-1,6.375905871E-2
3.420820304E0,-8.483391255E-2,-2.536617815E-1,6.253732741E-2
3.422820337E0,-8.605564386E-2,-2.506074607E-1,5.948300287E-2
3.424819503E0,-8.849909902E-2,-2.426662147E-1,5.703954399E-2
3.426819536E0,-8.910996467E-2,-2.402227521E-1,5.642867833E-2
3.428819569E0,-8.972083032E-2,-2.298380435E-1,5.398521572E-2
3.430819235E0,-8.972083032E-2,-2.194533348E-1,5.093089119E-2
3.432819268E0,-8.666650951E-2,-2.139555514E-1,4.848742858E-2
3.434820434E0,-8.544477820E-2,-2.029599845E-1,4.360050708E-2
3.436820467E0,-8.544477820E-2,-1.870774776E-1,4.054617882E-2
3.438820467E0,-8.483391255E-2,-1.711949855E-1,3.627012298E-2
3.440820467E0,-8.239044994E-2,-1.663080603E-1,3.627012298E-2
3.442820467E0,-8.300131559E-2,-1.516472995E-1,3.382666409E-2
3.444821333E0,-8.055785298E-2,-1.382082552E-1,3.382666409E-2
3.446822199E0,-7.994698733E-2,-1.320996135E-1,3.260493279E-2
3.448823065E0,-7.567093521E-2,-1.266018152E-1,3.321579844E-2
3.450823898E0,-7.322747260E-2,-1.192714423E-1,3.321579844E-2
3.452824764E0,-7.139487565E-2,-1.174388453E-1,3.260493279E-2
3.454824730E0,-7.139487565E-2,-1.107193232E-1,3.443752974E-2
3.456824696E0,-6.895141304E-2,-1.058324054E-1,3.688098863E-2
3.458824662E0,-6.711881608E-2,-1.033889428E-1,4.054617882E-2
3.460824628E0,-6.772968173E-2,-9.911288321E-2,4.298964143E-2
3.462824594E0,-6.711881608E-2,-9.300423414E-2,5.093089119E-2
3.464823694E0,-7.750352472E-2,-7.101308554E-2,6.498079002E-2
3.466822794E0,-7.811439037E-2,-6.979135424E-2,6.559165567E-2
3.468823160E0,-7.444920391E-2,-7.162395120E-2,6.498079002E-2
3.470823193E0,-7.383833826E-2,-7.590000331E-2,6.620252132E-2
3.472823226E0,-7.322747260E-2,-8.078692853E-2,6.436992437E-2
3.474823259E0,-7.078400999E-2,-9.117163718E-2,6.559165567E-2
3.476823292E0,-6.528622657E-2,-1.009454802E-1,6.314819306E-2
3.478823325E0,-6.528622657E-2,-1.046106741E-1,6.314819306E-2
3.480823358E0,-6.528622657E-2,-1.101084575E-1,6.742425263E-2
3.482823358E0,-6.589708477E-2,-1.113301888E-1,6.681338698E-2
3.484824191E0,-6.895141304E-2,-1.058324054E-1,7.231117040E-2
3.486824157E0,-7.261660695E-2,-1.003346145E-1,6.925684959E-2
3.488823723E0,-7.200574130E-2,-9.178250283E-2,7.108944654E-2
3.490823689E0,-7.322747260E-2,-8.078692853E-2,7.108944654E-2
3.492823655E0,-7.383833826E-2,-7.651086897E-2,6.986771524E-2
3.494822488E0,-7.444920391E-2,-6.673702598E-2,6.681338698E-2
3.496822454E0,-7.200574130E-2,-5.818491429E-2,6.314819306E-2
3.498822454E0,-7.200574130E-2,-4.718934000E-2,6.192646548E-2
3.500822487E0,-6.834054738E-2,-3.985895589E-2,6.009386852E-2
3.502822520E0,-6.956227869E-2,-2.458732575E-2,5.581781268E-2
3.504821686E0,-6.284276396E-2,-7.635815418E-4,5.215261877E-2
3.506820852E0,-6.406449527E-2,2.901609987E-3,4.970915988E-2
3.508820018E0,-6.406449527E-2,2.901609987E-3,4.970915988E-2
3.510819151E0,-6.406449527E-2,2.901609987E-3,4.970915988E-2
3.512819184E0,-6.406449527E-2,7.177666761E-3,4.909829423E-2
3.514819217E0,-6.162103266E-2,1.450804994E-2,4.665483162E-2
3.516819217E0,-6.284276396E-2,2.122756653E-2,4.604396969E-2
3.518819217E0,-5.978843570E-2,2.183843218E-2,4.909829423E-2
3.520819217E0,-6.345362961E-2,3.100141138E-2,5.032002553E-2
3.522819217E0,-6.528622657E-2,4.138612002E-2,5.154175684E-2
3.524820083E0,-6.589708477E-2,4.505131021E-2,5.276348442E-2
3.526820983E0,-6.528622657E-2,4.566217586E-2,5.337435007E-2
3.528820616E0,-7.078400999E-2,5.482515693E-2,5.581781268E-2
3.530820582E0,-7.322747260E-2,6.032294407E-2,5.765040591E-2
3.532820548E0,-7.200574130E-2,6.643159688E-2,5.948300287E-2
3.534820514E0,-7.811439037E-2,7.131851465E-2,6.253732741E-2
3.536820480E0,-8.116871864E-2,7.742717117E-2,6.559165567E-2
3.538820446E0,-7.994698733E-2,8.170322329E-2,6.559165567E-2
3.540820412E0,-8.055785298E-2,8.659014851E-2,6.864598393E-2
3.542820378E0,-7.628180087E-2,8.781187981E-2,6.925684959E-2
3.544819511E0,-6.895141304E-2,1.030835137E-1,7.231117040E-2
3.546818677E0,-6.956227869E-2,1.073595658E-1,6.986771524E-2
3.548818243E0,-6.956227869E-2,1.073595658E-1,6.986771524E-2
3.550818309E0,-6.956227869E-2,1.073595658E-1,6.986771524E-2
3.552818342E0,-6.895141304E-2,1.098030284E-1,7.292203605E-2
3.554818375E0,-6.406449527E-2,1.128573567E-1,7.353290170E-2
3.556818408E0,-5.917757004E-2,1.146899462E-1,7.292203605E-2
3.558818441E0,-5.856670439E-2,1.177442744E-1,7.047858089E-2
3.560818441E0,-5.306891724E-2,1.201877370E-1,7.047858089E-2
3.562818407E0,-5.184718594E-2,1.220203340E-1,6.986771524E-2
3.564819240E0,-5.001459271E-2,1.238529310E-1,6.681338698E-2
3.566820073E0,-4.818199575E-2,1.244637966E-1,6.559165567E-2
3.568820906E0,-4.512767121E-2,1.238529310E-1,6.253732741E-2
3.570821772E0,-4.207334295E-2,1.269072592E-1,6.131559983E-2
3.572821738E0,-4.085161164E-2,1.256855279E-1,5.887213722E-2
3.574821704E0,-3.474296257E-2,1.262963861E-1,5.765040591E-2
3.576821704E0,-3.046690486E-2,1.275181174E-1,5.398521572E-2
3.578821737E0,-2.802344225E-2,1.262963861E-1,5.093089119E-2
3.580821770E0,-2.191479132E-2,1.250746548E-1,4.909829423E-2
3.582821803E0,-1.947133057E-2,1.262963861E-1,4.543310404E-2
3.584820969E0,-4.199698567E-3,1.146899462E-1,3.565925732E-2
3.586820135E0,-4.199698567E-3,1.146899462E-1,3.565925732E-2
3.588819301E0,-4.199698567E-3,1.146899462E-1,3.565925732E-2
3.590818467E0,-4.199698567E-3,1.146899462E-1,3.565925732E-2
3.592817667E0,-3.588833380E-3,1.189660057E-1,3.382666409E-2
3.594817667E0,-3.588833380E-3,1.146899462E-1,3.504839167E-2
3.596817667E0,-5.345070967E-4,1.116356254E-1,3.443752974E-2
3.598817667E0,7.635815564E-5,1.159116775E-1,2.893974073E-2
3.600817667E0,4.352414981E-3,1.055269688E-1,2.955060638E-2
3.602817667E0,3.130684374E-3,1.043052375E-1,2.955060638E-2
3.604818533E0,7.406740915E-3,9.575312585E-2,2.588541433E-2
3.606819366E0,8.017606102E-3,9.392052889E-2,2.710714564E-2
3.608820199E0,1.046106778E-2,9.086620808E-2,2.649627998E-2
3.610820132E0,1.656972058E-2,7.803803682E-2,2.649627998E-2
3.612820098E0,1.046106778E-2,8.048149943E-2,2.893974073E-2
3.614820064E0,1.351539325E-2,7.254024595E-2,2.771801129E-2
3.616820030E0,1.656972058E-2,6.643159688E-2,2.710714564E-2
3.618819996E0,1.473712362E-2,6.643159688E-2,2.771801129E-2
3.620819962E0,1.534798928E-2,6.154467165E-2,2.832887508E-2
3.622819962E0,1.595885493E-2,5.971207842E-2,2.893974073E-2
3.624819128E0,1.290452853E-2,5.665775016E-2,2.955060638E-2
3.626819161E0,1.473712362E-2,5.604688451E-2,2.955060638E-2
3.628819461E0,1.351539325E-2,5.543602258E-2,3.199406713E-2
3.630819494E0,1.351539325E-2,5.726861581E-2,3.077233583E-2
3.632819527E0,1.351539325E-2,5.604688451E-2,3.077233583E-2
3.634819560E0,1.168279815E-2,5.421429127E-2,3.199406713E-2
3.636819593E0,1.473712362E-2,5.238169432E-2,3.199406713E-2
3.638819593E0,1.290452853E-2,5.482515693E-2,3.077233583E-2
3.640819559E0,1.351539325E-2,5.482515693E-2,3.321579844E-2
3.642819525E0,1.107193250E-2,5.543602258E-2,3.260493279E-2
3.644820358E0,1.046106778E-2,5.543602258E-2,3.138320148E-2
3.646821191E0,1.412625890E-2,5.299255997E-2,3.443752974E-2
3.648822024E0,8.017606102E-3,5.360342562E-2,3.565925732E-2
3.650822857E0,1.046106778E-2,4.932736978E-2,3.749185428E-2
3.652823657E0,8.628471754E-3,5.054909736E-2,3.749185428E-2
3.654823657E0,9.850202128E-3,4.871650413E-2,4.054617882E-2
3.656823690E0,8.628471754E-3,4.749477282E-2,4.176791012E-2
3.658823723E0,8.628471754E-3,4.627304152E-2,4.237877578E-2
3.660823756E0,1.107193250E-2,4.321871698E-2,4.176791012E-2
3.662823789E0,7.406740915E-3,4.566217586E-2,4.054617882E-2
3.664822955E0,5.574145354E-3,4.382958263E-2,4.298964143E-2
3.666822088E0,5.574145354E-3,4.382958263E-2,4.298964143E-2
3.668822121E0,5.574145354E-3,4.505131021E-2,4.115704447E-2
3.670822154E0,3.130684374E-3,4.627304152E-2,3.993531689E-2
3.672822154E0,3.130684374E-3,4.627304152E-2,3.749185428E-2
3.674822154E0,1.908953884E-3,5.115996301E-2,3.810271993E-2
3.676822154E0,1.298088697E-3,5.543602258E-2,3.260493279E-2
3.678822154E0,2.519819187E-3,5.849034712E-2,3.077233583E-2
3.680822154E0,3.130684374E-3,6.520986557E-2,2.649627998E-2
3.682822154E0,3.741549561E-3,7.009678334E-2,2.222022414E-2
3.684822987E0,6.185010541E-3,7.192938030E-2,1.977676153E-2
3.686822953E0,4.352414981E-3,8.048149943E-2,1.488984004E-2
3.688822653E0,9.850202128E-3,7.925976813E-2,1.122464892E-2
3.690822619E0,7.406740915E-3,8.231408894E-2,9.392052889E-3
3.692822585E0,1.107193250E-2,8.109235764E-2,8.781188168E-3
3.694822551E0,9.850202128E-3,8.659014851E-2,4.505131394E-3
3.696822517E0,1.107193250E-2,8.231408894E-2,3.894265974E-3
3.698822483E0,1.229366288E-2,8.353582025E-2,3.283400787E-3
3.700822483E0,1.290452853E-2,7.864890248E-2,5.115996581E-3
3.702822516E0,1.046106778E-2,8.109235764E-2,5.115996581E-3
3.704821682E0,1.168279815E-2,6.643159688E-2,1.061378326E-2
3.706820848E0,1.168279815E-2,6.643159688E-2,1.061378326E-2
3.708820014E0,8.017606102E-3,6.643159688E-2,1.122464892E-2
3.710819447E0,8.017606102E-3,6.643159688E-2,1.122464892E-2
3.712819480E0,8.628471754E-3,6.398813426E-2,1.122464892E-2
3.714819513E0,1.046106778E-2,6.154467165E-2,1.550070569E-2
3.716819513E0,9.850202128E-3,5.299255997E-2,1.794416644E-2
3.718819079E0,8.628471754E-3,5.054909736E-2,1.977676153E-2
3.720819045E0,9.850202128E-3,4.749477282E-2,2.344195358E-2
3.722819011E0,1.168279815E-2,4.016438872E-2,2.649627998E-2
3.724819944E0,1.107193250E-2,3.833179548E-2,2.832887508E-2
3.726820810E0,1.229366288E-2,2.916881628E-2,3.138320148E-2
3.728820776E0,1.229366288E-2,3.283400834E-2,3.321579844E-2
3.730820742E0,1.412625890E-2,2.733621933E-2,3.627012298E-2
3.732820742E0,9.239336476E-3,3.222314268E-2,3.627012298E-2
3.734820775E0,9.239336476E-3,3.405573592E-2,3.810271993E-2
3.736820808E0,9.239336476E-3,3.833179548E-2,3.810271993E-2
3.738820841E0,7.406740915E-3,4.260785133E-2,3.810271993E-2
3.740820874E0,4.963280167E-3,4.138612002E-2,3.688098863E-2
3.742820907E0,6.185010541E-3,4.566217586E-2,3.932445124E-2
3.744820073E0,3.130684374E-3,5.910121277E-2,3.565925732E-2
3.746819239E0,3.130684374E-3,5.910121277E-2,3.565925732E-2
3.748818405E0,3.130684374E-3,5.910121277E-2,3.565925732E-2
3.750818205E0,3.130684374E-3,5.910121277E-2,3.565925732E-2
3.752818205E0,4.352414981E-3,5.849034712E-2,3.443752974E-2
3.754818205E0,5.574145354E-3,5.971207842E-2,3.260493279E-2
3.756818205E0,2.519819187E-3,6.154467165E-2,3.077233583E-2
3.758818205E0,3.741549561E-3,6.215553731E-2,3.260493279E-2
3.760818205E0,3.130684374E-3,5.849034712E-2,3.077233583E-2
3.762818171E0,4.963280167E-3,5.604688451E-2,3.016147204E-2
3.764818671E0,3.130684374E-3,5.604688451E-2,2.832887508E-2
3.766819504E0,3.741549561E-3,5.115996301E-2,2.832887508E-2
3.768820337E0,3.130684374E-3,4.749477282E-2,3.016147204E-2
3.770820903E0,-1.756237587E-3,4.810563847E-2,2.710714564E-2
3.772820869E0,6.872233935E-4,4.444044828E-2,2.649627998E-2
3.774820835E0,-1.756237587E-3,3.833179548E-2,2.222022414E-2
3.776820801E0,-1.756237587E-3,3.588833287E-2,2.099849284E-2
3.778821201E0,-2.977967961E-3,3.222314268E-2,2.283108793E-2
3.780821234E0,7.635815564E-5,2.733621933E-2,2.160935849E-2
3.782821267E0,-1.145372284E-3,2.428189293E-2,1.977676153E-2
3.784820333E0,6.872233935E-4,1.023199316E-2,1.427897532E-2
3.786819499E0,6.872233935E-4,1.023199316E-2,1.427897532E-2
3.788818665E0,6.872233935E-4,1.023199316E-2,1.427897532E-2
3.790818065E0,7.635815564E-5,1.267545391E-2,1.550070569E-2
3.792818298E0,7.635815564E-5,1.267545391E-2,1.550070569E-2
3.794818631E0,1.298088697E-3,9.621127509E-3,1.366810966E-2
3.796818597E0,3.741549561E-3,9.010262787E-3,1.244637929E-2
3.798818563E0,7.635815564E-5,8.399397135E-3,1.244637929E-2
3.800818529E0,1.298088697E-3,8.399397135E-3,1.305724494E-2
3.802818495E0,-2.367102774E-3,1.023199316E-2,1.061378326E-2
3.804819328E0,-5.345070967E-4,1.267545391E-2,8.170322515E-3
3.806820161E0,7.635815564E-5,1.206458826E-2,6.948592141E-3
3.808820994E0,6.872233935E-4,1.145372353E-2,5.726861767E-3
3.810821194E0,7.635815564E-5,1.267545391E-2,3.894265974E-3
3.812821227E0,-1.145372284E-3,1.572977938E-2,4.505131394E-3
3.814821260E0,-2.367102774E-3,1.756237634E-2,3.283400787E-3
3.816821293E0,-2.977967961E-3,1.817324013E-2,2.061670180E-3
3.818821326E0,-2.977967961E-3,1.817324013E-2,2.290744742E-4
3.820821359E0,-4.199698567E-3,2.367102914E-2,8.399396902E-4
3.822821392E0,-4.810563754E-3,2.916881628E-2,-3.817907709E-4
3.824820892E0,-4.810563754E-3,3.100141138E-2,-3.817907709E-4
3.826820558E0,-7.254024968E-3,3.222314268E-2,-3.817907709E-4
3.828820558E0,-8.475755341E-3,3.894266114E-2,-9.926559869E-4
3.830820558E0,-6.643159315E-3,3.833179548E-2,-9.926559869E-4
3.832820558E0,-1.091921609E-2,4.688390717E-2,2.290744742E-4
3.834820558E0,-1.214094646E-2,4.749477282E-2,-9.926559869E-4
3.836820558E0,-1.091921609E-2,4.932736978E-2,2.290744742E-4
3.838820558E0,-1.275181212E-2,4.993823543E-2,1.450804994E-3
3.840820524E0,-1.153008174E-2,4.810563847E-2,2.290744742E-4
3.842820490E0,-1.091921609E-2,4.627304152E-2,3.894265974E-3
3.844821323E0,-1.091921609E-2,4.505131021E-2,5.115996581E-3
3.846822156E0,-1.030835137E-2,4.260785133E-2,4.505131394E-3
3.848822989E0,-1.091921609E-2,3.894266114E-2,6.948592141E-3
3.850823589E0,-9.697485715E-3,3.283400834E-2,1.000291854E-2
3.852823355E0,-1.091921609E-2,2.916881628E-2,1.183551457E-2
3.854822988E0,-1.030835137E-2,2.183843218E-2,1.672243699E-2
3.856822988E0,-7.254024968E-3,1.572977938E-2,1.488984004E-2
3.858822988E0,-7.864889689E-3,9.621127509E-3,1.794416644E-2
3.860823021E0,-4.810563754E-3,-1.527163113E-4,2.099849284E-2
3.862823054E0,-8.475755341E-3,-7.635815418E-4,2.222022414E-2
3.864822220E0,-8.475755341E-3,-8.704829961E-3,2.771801129E-2
3.866821353E0,-8.475755341E-3,-8.704829961E-3,2.771801129E-2
3.868821386E0,-9.086620063E-3,-1.053742506E-2,2.955060638E-2
3.870821419E0,-1.030835137E-2,-1.175915636E-2,2.649627998E-2
3.872821419E0,-1.091921609E-2,-1.603521220E-2,3.077233583E-2
3.874821385E0,-1.275181212E-2,-1.237002108E-2,3.016147204E-2
3.876821351E0,-1.153008174E-2,-1.786780916E-2,3.199406713E-2
3.878821617E0,-1.519527286E-2,-1.603521220E-2,3.077233583E-2
3.880821583E0,-1.275181212E-2,-1.420261711E-2,3.077233583E-2
3.882821549E0,-1.336267684E-2,-1.664607786E-2,3.077233583E-2
3.884822382E0,-1.397354249E-2,-1.481348183E-2,2.832887508E-2
3.886822715E0,-1.153008174E-2,-1.664607786E-2,2.955060638E-2
3.888822715E0,-1.519527286E-2,-1.420261711E-2,2.649627998E-2
3.890822748E0,-1.091921609E-2,-1.664607786E-2,2.527454868E-2
3.892822781E0,-1.458440814E-2,-1.298088674E-2,2.466368489E-2
3.894822814E0,-1.336267684E-2,-1.542434748E-2,2.405281924E-2
3.896822847E0,-1.153008174E-2,-1.298088674E-2,2.099849284E-2
3.898822880E0,-1.275181212E-2,-1.298088674E-2,1.855503209E-2
3.900822913E0,-1.091921609E-2,-1.359175146E-2,1.794416644E-2
3.902822946E0,-7.864889689E-3,-1.237002108E-2,1.733330078E-2
3.904822112E0,-6.643159315E-3,-1.298088674E-2,1.366810966E-2
3.906821245E0,-6.643159315E-3,-1.298088674E-2,1.366810966E-2
3.908820378E0,-6.643159315E-3,-1.298088674E-2,1.366810966E-2
3.910819478E0,-1.756237587E-3,-1.786780916E-2,1.305724494E-2
3.912819478E0,-1.756237587E-3,-1.970040426E-2,1.672243699E-2
3.914819478E0,-3.588833380E-3,-1.847867295E-2,1.244637929E-2
3.916819478E0,-2.367102774E-3,-2.275473066E-2,1.488984004E-2
3.918819478E0,-3.588833380E-3,-1.786780916E-2,1.305724494E-2
3.920819444E0,-1.756237587E-3,-2.458732575E-2,1.488984004E-2
3.922819410E0,-5.421428941E-3,-2.214386500E-2,1.550070569E-2
3.924820243E0,-2.367102774E-3,-2.397646010E-2,1.611157134E-2
3.926821109E0,-1.756237587E-3,-2.580905706E-2,1.733330078E-2
3.928821075E0,-2.367102774E-3,-3.313944116E-2,1.977676153E-2
3.930821041E0,-2.367102774E-3,-2.947424725E-2,1.977676153E-2
3.932821007E0,-1.145372284E-3,-3.375030309E-2,2.038762718E-2
3.934821007E0,6.872233935E-4,-4.046982154E-2,2.038762718E-2
3.936821007E0,-2.367102774E-3,-3.985895589E-2,2.099849284E-2
3.938820740E0,-2.367102774E-3,-4.169155285E-2,2.283108793E-2
3.940820773E0,-2.367102774E-3,-4.535674304E-2,2.344195358E-2
3.942820806E0,-1.756237587E-3,-4.963280261E-2,2.344195358E-2
3.944819972E0,-2.977967961E-3,-5.451972410E-2,2.710714564E-2
3.946819138E0,-4.810563754E-3,-5.207626149E-2,2.771801129E-2
3.948818304E0,-4.810563754E-3,-5.207626149E-2,2.771801129E-2
3.950817537E0,-4.810563754E-3,-5.207626149E-2,2.771801129E-2
3.952817503E0,-7.864889689E-3,-5.268712714E-2,2.832887508E-2
3.954817469E0,-6.032294128E-3,-5.574145541E-2,2.893974073E-2
3.956817435E0,-9.697485715E-3,-5.329799280E-2,2.649627998E-2
3.958817401E0,-7.254024968E-3,-5.390885845E-2,2.588541433E-2
3.960817367E0,-1.091921609E-2,-5.146539584E-2,2.771801129E-2
3.962817333E0,-9.697485715E-3,-5.329799280E-2,3.016147204E-2
3.964818166E0,-1.336267684E-2,-5.146539584E-2,2.649627998E-2
3.966819032E0,-1.336267684E-2,-5.451972410E-2,2.649627998E-2
3.968819932E0,-1.886046492E-2,-5.207626149E-2,2.405281924E-2
3.970820865E0,-1.641700417E-2,-5.513058975E-2,2.527454868E-2
3.972820898E0,-2.069306001E-2,-5.757404864E-2,2.588541433E-2
3.974820931E0,-2.313652076E-2,-5.879577994E-2,2.405281924E-2
3.976820964E0,-2.557998151E-2,-5.940664560E-2,2.405281924E-2
3.978820997E0,-2.741257846E-2,-6.246097013E-2,2.222022414E-2
3.980821030E0,-3.107776865E-2,-6.918048859E-2,2.283108793E-2
3.982821063E0,-3.291036561E-2,-6.918048859E-2,2.222022414E-2
3.984820196E0,-5.306891724E-2,-8.261952549E-2,1.916589774E-2
3.986819329E0,-5.734497309E-2,-8.323039114E-2,1.977676153E-2
3.988818462E0,-5.734497309E-2,-8.323039114E-2,1.977676153E-2
3.990817595E0,-5.734497309E-2,-8.323039114E-2,1.977676153E-2
3.992816695E0,-5.734497309E-2,-8.323039114E-2,1.977676153E-2
3.994816861E0,-5.978843570E-2,-8.811730891E-2,1.916589774E-2
3.996816861E0,-6.650795043E-2,-8.750644326E-2,1.855503209E-2
3.998816827E0,-7.322747260E-2,-8.872817457E-2,1.794416644E-2
4.000816793E0,-8.300131559E-2,-9.239336848E-2,1.733330078E-2
4.002817159E0,-8.788824081E-2,-8.933904022E-2,1.611157134E-2
4.004817992E0,-9.582948685E-2,-9.483683109E-2,1.733330078E-2
4.006818825E0,-1.074359268E-1,-9.483683109E-2,1.244637929E-2
4.008819658E0,-1.135445759E-1,-1.033889428E-1,1.427897532E-2
