"Time (s)","Acceleration x (m/s^2)","Acceleration y (m/s^2)","Acceleration z (m/s^2)"
1.617437500E-2,3.692626953E-3,8.766143799E0,2.797500610E0
2.114874000E-2,3.692626953E-3,8.766143799E0,2.797500610E0
2.612310600E-2,3.692626953E-3,8.766143799E0,2.797500610E0
3.109747100E-2,3.692626953E-3,8.766143799E0,2.797500610E0
3.607183600E-2,3.692626953E-3,8.766143799E0,2.797500610E0
4.104620100E-2,3.692626953E-3,8.766143799E0,2.797500610E0
4.602056700E-2,-1.897125244E-1,8.849502563E0,3.209884644E0
5.099493200E-2,-3.558654785E-1,8.923355103E0,3.617309570E0
5.596929700E-2,-2.418670654E-1,8.893066406E0,3.432144165E0
6.094366200E-2,-1.787872314E-1,8.846160889E0,3.172561646E0
6.591802700E-2,-1.542968750E-1,8.792541504E0,2.916824341E0
7.089239300E-2,-1.110839844E-1,8.748962402E0,2.701766968E0
7.586675800E-2,-1.041259766E-1,8.697265625E0,2.533584595E0
8.084112300E-2,-1.161193848E-1,8.651702881E0,2.418655396E0
8.581548800E-2,-1.183471680E-1,8.629608154E0,2.423049927E0
9.078985400E-2,-1.424713135E-1,8.601028442E0,2.534027100E0
9.576421900E-2,-1.446685791E-1,8.596343994E0,2.744033813E0
1.007385840E-1,-1.694946289E-1,8.574829102E0,2.940872192E0
1.057129490E-1,-2.364654541E-1,8.583206177E0,3.107040405E0
1.106873150E-1,-2.067565918E-1,8.565185547E0,3.092453003E0
1.156616800E-1,-1.455841064E-1,8.548583984E0,3.147171021E0
1.206360450E-1,-1.310729980E-1,8.567672729E0,3.095123291E0
1.256104100E-1,-9.898376465E-2,8.585433960E0,3.079544067E0
1.305847760E-1,-9.535217285E-2,8.590713501E0,3.048934937E0
1.355591410E-1,-1.351013184E-1,8.610595703E0,3.043960571E0
1.405335060E-1,-1.351013184E-1,8.610595703E0,3.043960571E0
1.455078710E-1,-1.351013184E-1,8.610595703E0,3.043960571E0
1.504822360E-1,-1.351013184E-1,8.610595703E0,3.043960571E0
1.554566020E-1,-1.270751953E-1,8.644714355E0,2.999816895E0
1.604309670E-1,-1.191406250E-1,8.678970337E0,2.927413940E0
1.654053320E-1,-8.923339844E-2,8.686859131E0,2.872512817E0
1.703796970E-1,-4.237365723E-2,8.706054688E0,2.805511475E0
1.753540630E-1,4.226684570E-2,8.783523560E0,2.945480347E0
1.803284280E-1,1.066131592E-1,8.798339844E0,2.936065674E0
1.853027930E-1,8.621215820E-2,8.788833618E0,2.938430786E0
1.902771580E-1,9.912109375E-2,8.807556152E0,2.959777832E0
1.952515240E-1,7.289123535E-2,8.787200928E0,2.898162842E0
2.002258890E-1,1.422729492E-1,8.784317017E0,2.829849243E0
2.052002540E-1,1.614685059E-1,8.792404175E0,2.881225586E0
2.101746190E-1,1.037139893E-1,8.769760132E0,2.853164673E0
2.151489850E-1,8.760070801E-2,8.762847900E0,2.932998657E0
2.201233500E-1,4.920959473E-2,8.756927490E0,3.031875610E0
2.250977150E-1,-2.416992188E-2,8.734512329E0,3.005584717E0
2.300720800E-1,-4.136657715E-2,8.733474731E0,3.034088135E0
2.350464450E-1,-1.646423340E-2,8.717544556E0,3.102050781E0
2.400208110E-1,5.065917969E-2,8.676757812E0,3.129959106E0
2.449951760E-1,9.130859375E-2,8.656188965E0,3.196350098E0
2.499695410E-1,6.311035156E-2,8.646133423E0,3.226669312E0
2.549439060E-1,4.591369629E-2,8.696273804E0,3.172027588E0
2.599182720E-1,8.245849609E-2,8.702087402E0,3.140045166E0
2.648926370E-1,1.165313721E-1,8.719436646E0,3.090270996E0
2.698670020E-1,1.208953857E-1,8.720672607E0,2.997268677E0
2.748413670E-1,1.179809570E-1,8.687255859E0,2.921096802E0
2.798157330E-1,1.003723145E-1,8.625930786E0,2.835754395E0
2.847900980E-1,5.352783203E-2,8.576507568E0,2.775375366E0
2.897644630E-1,1.594543457E-2,8.513412476E0,2.721679688E0
2.947388280E-1,-6.912231445E-3,8.438598633E0,2.708724976E0
2.997131930E-1,-1.785278320E-2,8.380233765E0,2.717208862E0
3.046875590E-1,-2.026367188E-2,8.368942261E0,2.714630127E0
3.096619240E-1,-3.985595703E-2,8.391311646E0,2.757675171E0
3.146362890E-1,-5.392456055E-2,8.424377441E0,2.804306030E0
3.196106540E-1,-4.177856445E-2,8.458923340E0,2.854080200E0
3.245850200E-1,-1.487731934E-2,8.519302368E0,2.881240845E0
3.295593850E-1,3.375244141E-2,8.579696655E0,2.902313232E0
3.345337500E-1,6.520080566E-2,8.652008057E0,2.930816650E0
3.395081150E-1,1.139831543E-1,8.714340210E0,2.981231689E0
3.444824810E-1,1.575317383E-1,8.776000977E0,3.016723633E0
3.494568460E-1,2.247772217E-1,8.803741455E0,3.058212280E0
3.544312110E-1,2.385864258E-1,8.850662231E0,3.065902710E0
3.594055760E-1,2.297058105E-1,8.863677979E0,3.080307007E0
3.643799420E-1,1.636962891E-1,8.900054932E0,3.084472656E0
3.693543070E-1,8.834838867E-2,8.888351440E0,3.082290649E0
3.743286720E-1,3.338623047E-2,8.832351685E0,3.086486816E0
3.793030370E-1,-1.490783691E-2,8.804977417E0,3.071487427E0
3.842774020E-1,-9.599304199E-2,8.754089355E0,3.087875366E0
3.892517680E-1,-1.554107666E-1,8.720840454E0,3.110794067E0
3.942261330E-1,-1.732025146E-1,8.712203979E0,3.126617432E0
3.992004980E-1,-1.799011230E-1,8.709243774E0,3.136901855E0
4.041748630E-1,-1.789550781E-1,8.710052490E0,3.127487183E0
4.091492290E-1,-1.733245850E-1,8.748794556E0,3.172973633E0
4.141235940E-1,-1.359558105E-1,8.749740601E0,3.207595825E0
4.190979590E-1,-9.817504883E-2,8.746994019E0,3.221359253E0
4.240723240E-1,-8.813476562E-2,8.733154297E0,3.223922729E0
4.290466900E-1,-6.597900391E-2,8.724792480E0,3.235748291E0
4.340210550E-1,-2.679443359E-2,8.717361450E0,3.216812134E0
4.389954200E-1,1.364135742E-2,8.701370239E0,3.261016846E0
4.439697850E-1,9.107971191E-2,8.632614136E0,3.631210327E0
4.489441510E-1,-7.652282715E-2,8.617462158E0,3.437622070E0
4.539185160E-1,-1.603698730E-1,8.612258911E0,3.339111328E0
4.588928810E-1,-1.641082764E-1,8.642089844E0,3.195510864E0
4.638672460E-1,-1.726531982E-1,8.701705933E0,2.998855591E0
4.688416110E-1,-1.594085693E-1,8.778564453E0,2.902557373E0
4.738159770E-1,-5.682373047E-2,8.858978271E0,2.824050903E0
4.787903420E-1,-8.007812500E-2,8.940628052E0,2.740997314E0
4.837647070E-1,-6.161499023E-2,9.049453735E0,2.710708618E0
4.887390720E-1,-1.388549805E-1,8.984237671E0,2.667526245E0
4.937134380E-1,-1.577148438E-1,8.812530518E0,2.950256348E0
4.986878030E-1,-1.205444336E-1,8.786224365E0,3.224594116E0
5.036621680E-1,-3.082275391E-2,8.438766479E0,3.603805542E0
5.086365330E-1,-2.991180420E-1,7.983428955E0,3.954254150E0
5.136108990E-1,-8.647766113E-1,7.889007568E0,3.753952026E0
5.185852640E-1,-1.040756226E0,7.897903442E0,3.825592041E0
5.235596290E-1,-1.120361328E0,8.229797363E0,3.972015381E0
5.285339940E-1,-1.057754517E0,8.812988281E0,2.979080200E0
5.335083600E-1,-3.269805908E-1,9.954986572E0,2.710418701E-1
5.384827250E-1,-5.609893799E-1,9.591186523E0,-2.782531738E0
5.434570900E-1,1.075744629E-1,8.906784058E0,1.650253296E0
5.484314550E-1,1.096984863E0,8.764739990E0,5.745559692E0
5.534058200E-1,1.488510132E0,8.394119263E0,7.021438599E0
5.583801860E-1,7.170410156E-1,8.610717773E0,6.244461060E0
5.633545510E-1,1.268920898E-1,8.602890015E0,4.215087891E0
5.683289160E-1,-5.244445801E-2,8.565994263E0,4.084106445E0
5.733032810E-1,-2.389831543E-1,8.542617798E0,4.183624268E0
5.782776470E-1,-3.641510010E-1,8.501754761E0,3.469955444E0
5.832520120E-1,-3.197326660E-1,8.456527710E0,3.283843994E0
5.882263770E-1,-2.924194336E-1,8.463287354E0,3.046737671E0
5.932007420E-1,-3.261260986E-1,8.451934814E0,2.967483521E0
5.981751080E-1,-3.679046631E-1,8.489761353E0,3.013854980E0
6.031494730E-1,-3.195800781E-1,8.537811279E0,3.073440552E0
6.081238380E-1,-2.422027588E-1,8.568679810E0,3.146804810E0
6.130982030E-1,-2.192230225E-1,8.610778809E0,3.184768677E0
6.180725680E-1,-2.288513184E-1,8.631851196E0,3.197677612E0
6.230469340E-1,-2.415161133E-1,8.643173218E0,3.201568604E0
6.280212990E-1,-2.541198730E-1,8.684600830E0,3.182342529E0
6.329956640E-1,-2.717590332E-1,8.728958130E0,3.167221069E0
6.379700290E-1,-2.762756348E-1,8.749435425E0,3.128280640E0
6.429443950E-1,-2.866516113E-1,8.748977661E0,3.104034424E0
6.479187600E-1,-3.165740967E-1,8.748840332E0,3.099533081E0
6.528931250E-1,-3.182525635E-1,8.745452881E0,3.098983765E0
6.578674900E-1,-3.086242676E-1,8.746673584E0,3.096923828E0
6.628418560E-1,-2.764739990E-1,8.746994019E0,3.114257812E0
6.678162210E-1,-2.482452393E-1,8.730667114E0,3.148376465E0
6.727905860E-1,-2.281799316E-1,8.738250732E0,3.156936646E0
6.777649510E-1,-2.149353027E-1,8.783859253E0,3.187973022E0
6.827393170E-1,-1.915893555E-1,8.829452515E0,3.262756348E0
6.877136820E-1,-1.638183594E-1,8.842697144E0,3.315536499E0
6.926880470E-1,-1.543884277E-1,8.865097046E0,3.345703125E0
6.976624120E-1,-1.600189209E-1,8.859451294E0,3.296066284E0
7.026367770E-1,-1.381072998E-1,8.865493774E0,3.285278320E0
7.076111430E-1,-1.266784668E-1,8.875091553E0,3.280761719E0
7.125855080E-1,-1.405639648E-1,8.867050171E0,3.232528687E0
7.175598730E-1,-1.290283203E-1,8.850891113E0,3.185897827E0
7.225342380E-1,-1.229095459E-1,8.817001343E0,3.160125732E0
7.275086040E-1,-1.105651855E-1,8.763183594E0,3.147399902E0
7.324829690E-1,-1.122589111E-1,8.707153320E0,3.070358276E0
7.374573340E-1,-1.302642822E-1,8.667297363E0,3.023239136E0
7.424316990E-1,-1.186370850E-1,8.613220215E0,3.014892578E0
7.474060650E-1,-1.111602783E-1,8.572357178E0,2.983459473E0
7.523804300E-1,-1.150665283E-1,8.559295654E0,2.976516724E0
7.573547950E-1,-9.941101074E-2,8.526916504E0,2.995574951E0
7.623291600E-1,-1.143493652E-1,8.548370361E0,2.980972290E0
7.673035260E-1,-1.849975586E-1,8.541580200E0,2.993148804E0
7.722778910E-1,-2.063598633E-1,8.592071533E0,3.036224365E0
7.772522560E-1,-1.626586914E-1,8.646102905E0,2.992004395E0
7.822266210E-1,-1.034393311E-1,8.752868652E0,2.961593628E0
7.872009860E-1,-3.916931152E-2,8.816390991E0,2.909027100E0
7.921753520E-1,-1.052856445E-2,8.828613281E0,2.851104736E0
7.971497170E-1,-2.958679199E-2,8.867477417E0,2.766769409E0
8.021240820E-1,-1.260681152E-1,8.841613770E0,2.681823730E0
8.070984470E-1,-1.620788574E-1,8.809722900E0,2.657394409E0
8.120728130E-1,-1.639709473E-1,8.812942505E0,2.682281494E0
8.170471780E-1,-1.520996094E-1,8.876724243E0,2.728973389E0
8.220215430E-1,-1.425933838E-1,8.902450562E0,2.759399414E0
8.269959080E-1,-1.381225586E-1,8.916244507E0,2.828170776E0
8.319702740E-1,-1.416625977E-1,8.927368164E0,2.879394531E0
8.369446390E-1,-1.343536377E-1,8.915313721E0,2.858993530E0
8.419190040E-1,-1.016998291E-1,8.887557983E0,2.832427979E0
8.468933690E-1,-9.202575684E-2,8.856735229E0,2.795242310E0
8.518677350E-1,-4.339599609E-2,8.849884033E0,2.729125977E0
8.568421000E-1,-1.359558105E-2,8.798171997E0,2.656158447E0
8.618164650E-1,1.564025879E-2,8.801025391E0,2.589752197E0
8.667908300E-1,1.344299316E-2,8.774414062E0,2.469497681E0
8.717651950E-1,-1.705932617E-2,8.802673340E0,2.471191406E0
8.767395610E-1,4.528808594E-2,8.852584839E0,2.401763916E0
8.817139260E-1,6.161499023E-2,8.861526489E0,2.385711670E0
8.866882910E-1,8.389282227E-2,8.895034790E0,2.360153198E0
8.916626560E-1,7.429504395E-2,8.884552002E0,2.330444336E0
8.966370220E-1,6.111145020E-2,8.898986816E0,2.299667358E0
9.016113870E-1,4.109191895E-2,8.912155151E0,2.272598267E0
9.065857520E-1,-2.598571777E-2,8.944000244E0,2.217636108E0
9.115601170E-1,-8.448791504E-2,8.980117798E0,2.178543091E0
9.165344830E-1,-1.310424805E-1,9.008728027E0,2.130279541E0
9.215088480E-1,-1.713256836E-1,9.006484985E0,2.101058960E0
9.264832130E-1,-2.159576416E-1,8.999282837E0,2.069839478E0
9.314575780E-1,-2.658538818E-1,8.983566284E0,2.036270142E0
9.364319430E-1,-3.103179932E-1,8.988525391E0,2.001739502E0
9.414063090E-1,-3.139495850E-1,9.012817383E0,1.976837158E0
9.463806740E-1,-2.824554443E-1,9.050735474E0,1.971969604E0
9.513550390E-1,-2.466430664E-1,9.042953491E0,1.966140747E0
9.563294040E-1,-2.095489502E-1,9.057418823E0,1.985351562E0
9.613037700E-1,-2.044830322E-1,9.060455322E0,1.977844238E0
9.662781350E-1,-2.252044678E-1,9.016738892E0,1.999771118E0
9.712525000E-1,-2.118682861E-1,8.974319458E0,1.962265015E0
9.762268650E-1,-2.375335693E-1,8.971343994E0,1.939636230E0
9.812012310E-1,-1.823883057E-1,8.912429810E0,1.915451050E0
9.861755960E-1,-1.558990479E-1,8.862319946E0,1.893325806E0
9.911499610E-1,-1.542968750E-1,8.793731689E0,1.828033447E0
9.961243260E-1,-1.638031006E-1,8.762481689E0,1.752304077E0
1.001098692E0,-1.471252441E-1,8.742492676E0,1.683013916E0
1.006073057E0,-9.774780273E-2,8.762649536E0,1.641159058E0
1.011047422E0,-4.579162598E-2,8.796463013E0,1.611022949E0
1.016021787E0,8.850097656E-3,8.849487305E0,1.616607666E0
1.020996152E0,5.897521973E-2,8.920730591E0,1.659820557E0
1.025970518E0,9.010314941E-2,8.983840942E0,1.696517944E0
1.030944883E0,1.057128906E-1,9.028976440E0,1.730865479E0
1.035919248E0,1.489868164E-1,9.066360474E0,1.737594604E0
1.040893613E0,1.959686279E-1,9.053634644E0,1.724990845E0
1.045867979E0,2.311401367E-1,9.043701172E0,1.671966553E0
1.050842344E0,2.765197754E-1,9.009170532E0,1.613937378E0
1.055816709E0,3.573608398E-1,8.947631836E0,1.554580688E0
1.060791074E0,4.130096436E-1,8.944900513E0,1.535247803E0
1.065765440E0,4.473419189E-1,8.920455933E0,1.486114502E0
1.070739805E0,4.415740967E-1,8.909698486E0,1.510162354E0
1.075714170E0,4.095153809E-1,8.907104492E0,1.525588989E0
1.080688535E0,3.405914307E-1,8.856475830E0,1.592575073E0
1.085662901E0,2.663421631E-1,8.827056885E0,1.628509521E0
1.090637266E0,2.137756348E-1,8.813980103E0,1.664733887E0
1.095611631E0,1.603240967E-1,8.840286255E0,1.684860229E0
1.100585996E0,1.252899170E-1,8.856338501E0,1.718780518E0
1.105560361E0,1.411895752E-1,8.937530518E0,1.783203125E0
1.110534727E0,6.111145020E-2,8.990570068E0,1.802566528E0
1.115509092E0,-1.260681152E-1,8.999923706E0,1.781402588E0
1.120483457E0,-1.913604736E-1,9.035507202E0,1.819046021E0
1.125457822E0,-1.909637451E-1,9.109008789E0,1.878723145E0
1.130432188E0,-1.848754883E-1,9.149459839E0,1.947570801E0
1.135406553E0,-1.767272949E-1,9.154495239E0,2.021240234E0
1.140380918E0,-2.272338867E-1,9.152801514E0,2.070693970E0
1.145355283E0,-3.289184570E-1,8.982681274E0,2.044357300E0
1.150329649E0,-4.050140381E-1,8.847961426E0,2.091140747E0
1.155304014E0,-2.462768555E-1,9.030090332E0,2.150817871E0
1.160278379E0,-2.359161377E-1,9.089019775E0,2.132690430E0
1.165252744E0,-2.924804688E-1,9.093811035E0,2.084503174E0
1.170227110E0,-2.834472656E-1,9.120269775E0,2.007858276E0
1.175201475E0,-2.886199951E-1,9.080749512E0,1.952636719E0
1.180175840E0,-2.966461182E-1,9.053634644E0,1.896392822E0
1.185150205E0,-3.148345947E-1,9.008941650E0,1.814483643E0
1.190124570E0,-3.686370850E-1,8.974319458E0,1.763320923E0
1.195098936E0,-4.036407471E-1,8.967681885E0,1.691284180E0
1.200073301E0,-3.594665527E-1,8.943664551E0,1.612045288E0
1.205047666E0,-2.826690674E-1,8.942794800E0,1.584442139E0
1.210022031E0,-2.408599854E-1,8.960906982E0,1.532653809E0
1.214996397E0,-3.350982666E-1,8.934234619E0,1.384185791E0
1.219970762E0,-4.186401367E-1,8.878601074E0,1.267288208E0
1.224945127E0,-4.156036377E-1,8.853118896E0,1.212051392E0
1.229919492E0,-3.968811035E-1,8.857055664E0,1.190475464E0
1.234893858E0,-3.538208008E-1,8.907058716E0,1.195648193E0
1.239868223E0,-3.062286377E-1,8.957992554E0,1.251647949E0
1.244842588E0,-3.455657959E-1,8.999969482E0,1.310882568E0
1.249816953E0,-3.815612793E-1,9.017852783E0,1.396270752E0
1.254791318E0,-3.782501221E-1,9.023818970E0,1.475189209E0
1.259765684E0,-3.597106934E-1,9.022430420E0,1.513946533E0
1.264740049E0,-3.441162109E-1,9.031173706E0,1.533126831E0
1.269714414E0,-3.052520752E-1,9.022232056E0,1.503189087E0
1.274688779E0,-3.030700684E-1,9.015411377E0,1.485839844E0
1.279663145E0,-2.539215088E-1,9.029968262E0,1.426635742E0
1.284637510E0,-1.516571045E-1,9.095916748E0,1.442062378E0
1.289611875E0,-7.720947266E-2,9.155548096E0,1.477676392E0
1.294586240E0,-3.623657227E-1,9.099685669E0,1.278427124E0
1.299560606E0,-5.010528564E-1,9.046936035E0,1.250961304E0
1.304534971E0,-4.666442871E-1,9.027130127E0,1.319473267E0
1.309509336E0,-4.527587891E-1,9.049774170E0,1.385589600E0
1.314483701E0,-4.650268555E-1,9.058609009E0,1.414901733E0
1.319458067E0,-4.806060791E-1,9.045059204E0,1.458236694E0
1.324432432E0,-4.888458252E-1,9.023559570E0,1.482543945E0
1.329406797E0,-5.086059570E-1,9.023956299E0,1.485702515E0
1.334381162E0,-4.990692139E-1,9.040939331E0,1.514694214E0
1.339355527E0,-4.861145020E-1,9.087387085E0,1.554077148E0
1.344329893E0,-5.099334717E-1,9.113006592E0,1.561645508E0
1.349304258E0,-5.749206543E-1,9.134475708E0,1.530029297E0
1.354278623E0,-5.977783203E-1,9.139419556E0,1.510070801E0
1.359252988E0,-5.609588623E-1,9.173492432E0,1.543991089E0
1.364227354E0,-4.886322021E-1,9.247558594E0,1.602539062E0
1.369201719E0,-4.487915039E-1,9.318435669E0,1.601135254E0
1.374176084E0,-4.215850830E-1,9.360382080E0,1.614974976E0
1.379150449E0,-4.037628174E-1,9.375244141E0,1.601959229E0
1.384124815E0,-3.843078613E-1,9.308319092E0,1.584014893E0
1.389099180E0,-3.673858643E-1,9.240646362E0,1.562988281E0
1.394073545E0,-3.423461914E-1,9.152481079E0,1.549377441E0
1.399047910E0,-3.269195557E-1,9.099822998E0,1.563415527E0
1.404022276E0,-3.255157471E-1,9.039291382E0,1.574508667E0
1.408996641E0,-2.527008057E-1,9.004989624E0,1.660354614E0
1.413971006E0,-1.785125732E-1,9.009017944E0,1.724014282E0
1.418945371E0,-3.815155029E-1,8.931777954E0,1.638519287E0
1.423919736E0,-6.572723389E-1,8.802703857E0,1.506149292E0
1.428894102E0,-6.847839355E-1,8.806198120E0,1.480651855E0
1.433868467E0,-5.932159424E-1,8.864364624E0,1.517868042E0
1.438842832E0,-5.718536377E-1,8.924682617E0,1.558135986E0
1.443817197E0,-5.795440674E-1,9.001785278E0,1.582412720E0
1.448791563E0,-5.877227783E-1,9.046676636E0,1.590499878E0
1.453765928E0,-5.736846924E-1,9.081359863E0,1.583496094E0
1.458740293E0,-5.578155518E-1,9.122985840E0,1.605377197E0
1.463714658E0,-5.134124756E-1,9.125198364E0,1.617279053E0
1.468689024E0,-4.871673584E-1,9.132125854E0,1.603668213E0
1.473663389E0,-4.564666748E-1,9.143814087E0,1.551666260E0
1.478637754E0,-4.133453369E-1,9.133758545E0,1.573028564E0
1.483612119E0,-3.926849365E-1,9.127639771E0,1.577926636E0
1.488586485E0,-3.679504395E-1,9.142852783E0,1.568038940E0
1.493560850E0,-3.453216553E-1,9.131301880E0,1.575698853E0
1.498535215E0,-3.323822021E-1,9.113098145E0,1.599441528E0
1.503509580E0,-3.432922363E-1,9.111480713E0,1.625900269E0
1.508483945E0,-3.471374512E-1,9.112930298E0,1.655975342E0
1.513458311E0,-3.561706543E-1,9.111862183E0,1.652816772E0
1.518432676E0,-3.800964355E-1,9.092971802E0,1.621887207E0
1.523407041E0,-3.988189697E-1,9.079254150E0,1.581695557E0
1.528381406E0,-4.167327881E-1,9.093063354E0,1.551559448E0
1.533355772E0,-4.001770020E-1,9.089096069E0,1.528381348E0
1.538330137E0,-3.961334229E-1,9.086120605E0,1.485488892E0
1.543304502E0,-3.972167969E-1,9.089172363E0,1.462509155E0
1.548278867E0,-3.996582031E-1,9.068618774E0,1.486068726E0
1.553253233E0,-3.987121582E-1,9.058853149E0,1.507354736E0
1.558227598E0,-4.361419678E-1,9.062255859E0,1.526977539E0
1.563201963E0,-4.524993896E-1,9.045059204E0,1.569320679E0
1.568176328E0,-4.486541748E-1,9.039016724E0,1.565338135E0
1.573150693E0,-4.800567627E-1,9.014511108E0,1.556167603E0
1.578125059E0,-4.918212891E-1,9.002105713E0,1.574050903E0
1.583099424E0,-4.968109131E-1,9.015747070E0,1.589584351E0
1.588073789E0,-5.090789795E-1,8.989089966E0,1.559982300E0
1.593048154E0,-4.824218750E-1,8.989944458E0,1.554702759E0
1.598022520E0,-4.909667969E-1,8.989593506E0,1.549636841E0
1.602996885E0,-5.034027100E-1,9.009262085E0,1.590393066E0
1.607971250E0,-5.332183838E-1,9.044479370E0,1.644500732E0
1.612945615E0,-5.562896729E-1,9.074493408E0,1.655120850E0
1.617919981E0,-5.792388916E-1,9.083343506E0,1.664443970E0
1.622894346E0,-5.691833496E-1,9.065658569E0,1.665695190E0
1.627868711E0,-5.560913086E-1,9.040756226E0,1.664306641E0
1.632843076E0,-5.445556641E-1,9.019714355E0,1.634735107E0
1.637817442E0,-5.175628662E-1,9.010971069E0,1.624313354E0
1.642791807E0,-5.199432373E-1,8.999725342E0,1.620422363E0
1.647766172E0,-5.176544189E-1,9.014526367E0,1.615966797E0
1.652740537E0,-4.779663086E-1,9.019775391E0,1.595657349E0
1.657714902E0,-4.742889404E-1,9.051254272E0,1.568420410E0
1.662689268E0,-4.615478516E-1,9.071228027E0,1.551849365E0
1.667663633E0,-4.441070557E-1,9.102920532E0,1.569610596E0
1.672637998E0,-4.386749268E-1,9.108551025E0,1.581222534E0
1.677612363E0,-4.235076904E-1,9.117324829E0,1.644897461E0
1.682586729E0,-3.769378662E-1,9.110382080E0,1.655273438E0
1.687561094E0,-3.413696289E-1,9.107864380E0,1.668701172E0
1.692535459E0,-3.125610352E-1,9.109146118E0,1.679199219E0
1.697509824E0,-2.790679932E-1,9.112304688E0,1.666763306E0
1.702484190E0,-2.715301514E-1,9.082107544E0,1.652282715E0
1.707458555E0,-2.676086426E-1,9.056503296E0,1.632522583E0
1.712432920E0,-2.670593262E-1,9.049148560E0,1.619659424E0
1.717407285E0,-2.780303955E-1,9.057830811E0,1.579177856E0
1.722381651E0,-3.069458008E-1,9.047653198E0,1.573074341E0
1.727356016E0,-3.207244873E-1,9.028610229E0,1.573287964E0
1.732330381E0,-3.112640381E-1,9.033538818E0,1.571197510E0
1.737304746E0,-3.179626465E-1,9.029190063E0,1.589355469E0
1.742279111E0,-3.468170166E-1,9.050720215E0,1.584091187E0
1.747253477E0,-3.775024414E-1,9.056732178E0,1.583267212E0
1.752227842E0,-4.195251465E-1,9.045776367E0,1.633743286E0
1.757202207E0,-4.333343506E-1,9.064682007E0,1.606369019E0
1.762176572E0,-4.453277588E-1,9.076522827E0,1.618881226E0
1.767150938E0,-4.228515625E-1,9.100509644E0,1.655197144E0
1.772125303E0,-4.292907715E-1,9.070205688E0,1.646057129E0
1.777099668E0,-4.246215820E-1,9.076278687E0,1.629623413E0
1.782074033E0,-4.249420166E-1,9.064926147E0,1.655502319E0
1.787048399E0,-4.253540039E-1,9.059097290E0,1.648849487E0
1.792022764E0,-4.152984619E-1,9.035888672E0,1.630508423E0
1.796997129E0,-4.072265625E-1,9.016708374E0,1.601638794E0
1.801971494E0,-3.968963623E-1,9.007156372E0,1.587463379E0
1.806945860E0,-3.666381836E-1,8.993743896E0,1.596603394E0
1.811920225E0,-3.344573975E-1,9.006378174E0,1.644912720E0
1.816894590E0,-3.638916016E-1,9.019653320E0,1.654861450E0
1.821868955E0,-4.114074707E-1,9.035995483E0,1.560836792E0
1.826843320E0,-3.747863770E-1,9.055313110E0,1.520416260E0
1.831817686E0,-3.421325684E-1,9.053039551E0,1.552917480E0
1.836792051E0,-3.352813721E-1,9.059722900E0,1.594039917E0
1.841766416E0,-3.560333252E-1,9.053207397E0,1.630966187E0
1.846740781E0,-3.537902832E-1,9.063171387E0,1.634414673E0
1.851715147E0,-3.602600098E-1,9.063705444E0,1.622390747E0
1.856689512E0,-3.624114990E-1,9.060760498E0,1.632736206E0
1.861663877E0,-3.799743652E-1,9.049484253E0,1.621429443E0
1.866638242E0,-3.699951172E-1,9.057739258E0,1.608657837E0
1.871612608E0,-3.744354248E-1,9.067428589E0,1.572479248E0
1.876586973E0,-3.766021729E-1,9.057876587E0,1.575805664E0
1.881561338E0,-3.727111816E-1,9.056213379E0,1.559127808E0
1.886535703E0,-3.568115234E-1,9.060043335E0,1.569992065E0
1.891510068E0,-3.408813477E-1,9.059097290E0,1.581939697E0
1.896484434E0,-3.434600830E-1,9.068634033E0,1.594192505E0
1.901458799E0,-3.444061279E-1,9.079833984E0,1.625137329E0
1.906433164E0,-3.189849854E-1,9.074417114E0,1.625518799E0
1.911407529E0,-2.857666016E-1,9.087997437E0,1.639602661E0
1.916381895E0,-2.713317871E-1,9.096343994E0,1.644317627E0
1.921356260E0,-2.775878906E-1,9.100051880E0,1.660293579E0
1.926330625E0,-2.769927979E-1,9.092651367E0,1.668151855E0
1.931304990E0,-2.709197998E-1,9.085861206E0,1.665359497E0
1.936279356E0,-2.611236572E-1,9.054870605E0,1.679260254E0
1.941253721E0,-2.468566895E-1,9.016632080E0,1.643707275E0
1.946228086E0,-2.464599609E-1,8.998626709E0,1.627395630E0
1.951202451E0,-2.632446289E-1,9.005645752E0,1.596038818E0
1.956176817E0,-2.770690918E-1,9.005737305E0,1.616043091E0
1.961151182E0,-2.764892578E-1,9.027328491E0,1.672851562E0
1.966125547E0,-3.017578125E-1,9.027023315E0,1.700820923E0
1.971099912E0,-3.091278076E-1,9.063629150E0,1.700119019E0
1.976074277E0,-2.741241455E-1,9.102752686E0,1.745971680E0
1.981048643E0,-2.422180176E-1,9.092666626E0,1.728363037E0
1.986023008E0,-2.307739258E-1,9.103530884E0,1.713546753E0
1.990997373E0,-1.928405762E-1,9.110794067E0,1.707824707E0
1.995971738E0,-1.758575439E-1,9.081924438E0,1.687225342E0
2.000946104E0,-1.517181396E-1,9.046218872E0,1.695556641E0
2.005920469E0,-1.557617188E-1,9.035140991E0,1.713546753E0
2.010894834E0,-1.562347412E-1,9.013595581E0,1.711563110E0
2.015869199E0,-1.523590088E-1,8.999343872E0,1.697647095E0
2.020843565E0,-1.533203125E-1,8.985809326E0,1.678665161E0
2.025817930E0,-1.587066650E-1,8.967834473E0,1.682388306E0
2.030792295E0,-1.743164062E-1,8.954421997E0,1.701400757E0
2.035766660E0,-1.758117676E-1,8.930496216E0,1.719894409E0
2.040741026E0,-1.727142334E-1,8.909667969E0,1.730651855E0
2.045715391E0,-1.752166748E-1,8.906753540E0,1.729019165E0
2.050689756E0,-1.816253662E-1,8.907318115E0,1.724014282E0
2.055664121E0,-1.664123535E-1,8.899032593E0,1.729339600E0
2.060638486E0,-1.725921631E-1,8.873611450E0,1.728118896E0
2.065612852E0,-1.895904541E-1,8.936248779E0,1.709381104E0
2.070587217E0,-2.093505859E-1,8.960601807E0,1.722808838E0
2.075561582E0,-2.176055908E-1,9.008972168E0,1.699813843E0
2.080535947E0,-2.693786621E-1,8.996612549E0,1.715988159E0
2.085510313E0,-2.698974609E-1,9.042510986E0,1.769378662E0
2.090484678E0,-2.665100098E-1,9.064514160E0,1.761917114E0
2.095459043E0,-2.821960449E-1,9.085922241E0,1.765075684E0
2.100433408E0,-2.726287842E-1,9.112594604E0,1.767837524E0
2.105407774E0,-2.560272217E-1,9.121734619E0,1.751327515E0
2.110382139E0,-2.627258301E-1,9.113342285E0,1.719619751E0
2.115356504E0,-2.657165527E-1,9.118682861E0,1.726501465E0
2.120330869E0,-2.622070312E-1,9.104644775E0,1.765380859E0
2.125305235E0,-2.669372559E-1,9.089111328E0,1.765319824E0
2.130279600E0,-2.566223145E-1,9.085388184E0,1.763946533E0
2.135253965E0,-2.326965332E-1,9.078140259E0,1.760772705E0
2.140228330E0,-2.348175049E-1,9.063919067E0,1.747436523E0
2.145202695E0,-2.458190918E-1,9.033294678E0,1.737411499E0
2.150177061E0,-2.745819092E-1,9.032272339E0,1.721588135E0
2.155151426E0,-3.056945801E-1,9.046447754E0,1.718338013E0
2.160125791E0,-3.119506836E-1,9.022354126E0,1.711807251E0
2.165100156E0,-3.327331543E-1,9.017486572E0,1.745437622E0
2.170074522E0,-3.387451172E-1,9.022216797E0,1.766250610E0
2.175048887E0,-3.769226074E-1,9.027664185E0,1.773223877E0
2.180023252E0,-3.786468506E-1,8.999572754E0,1.767059326E0
2.184997617E0,-3.728942871E-1,8.988464355E0,1.732116699E0
2.189971983E0,-3.514709473E-1,8.965423584E0,1.706558228E0
2.194946348E0,-3.014526367E-1,8.932464600E0,1.669860840E0
2.199920713E0,-3.130950928E-1,8.938217163E0,1.661453247E0
2.204895078E0,-3.253631592E-1,8.944046021E0,1.651641846E0
2.209869443E0,-3.213653564E-1,8.965042114E0,1.667724609E0
2.214843809E0,-3.411712646E-1,9.013183594E0,1.689727783E0
2.219818174E0,-3.540649414E-1,9.063186646E0,1.691864014E0
2.224792539E0,-3.486175537E-1,9.099777222E0,1.676071167E0
2.229766904E0,-3.389282227E-1,9.119918823E0,1.669967651E0
2.234741270E0,-3.313751221E-1,9.119583130E0,1.664947510E0
2.239715635E0,-3.255462646E-1,9.125610352E0,1.644744873E0
2.244690000E0,-3.205108643E-1,9.120819092E0,1.647827148E0
2.249664365E0,-3.328552246E-1,9.127532959E0,1.641693115E0
2.254638731E0,-3.135070801E-1,9.123672485E0,1.651687622E0
2.259613096E0,-3.054656982E-1,9.107513428E0,1.647247314E0
2.264587461E0,-3.004302979E-1,9.105911255E0,1.689971924E0
2.269561826E0,-3.071594238E-1,9.115402222E0,1.716064453E0
2.274536192E0,-2.754058838E-1,9.101455688E0,1.731307983E0
2.279510557E0,-2.957611084E-1,9.061935425E0,1.711975098E0
2.284484922E0,-2.578735352E-1,9.011489868E0,1.738769531E0
2.289459287E0,-2.559967041E-1,9.001464844E0,1.737625122E0
2.294433652E0,-2.325897217E-1,8.983810425E0,1.754165649E0
2.299408018E0,-2.206573486E-1,8.973785400E0,1.752120972E0
2.304382383E0,-2.151489258E-1,8.967132568E0,1.747665405E0
2.309356748E0,-2.485351562E-1,8.949615479E0,1.716400146E0
2.314331113E0,-2.423400879E-1,8.931671143E0,1.713546753E0
2.319305479E0,-2.404327393E-1,8.938385010E0,1.714767456E0
2.324279844E0,-2.435760498E-1,8.920089722E0,1.705322266E0
2.329254209E0,-2.548980713E-1,8.902954102E0,1.711303711E0
2.334228574E0,-2.690124512E-1,8.912643433E0,1.687866211E0
2.339202940E0,-2.613983154E-1,8.912536621E0,1.663757324E0
2.344177305E0,-2.878417969E-1,8.936798096E0,1.641036987E0
2.349151670E0,-2.939453125E-1,8.982254028E0,1.605651855E0
2.354126035E0,-3.134307861E-1,8.995132446E0,1.592575073E0
2.359100401E0,-3.320770264E-1,9.021774292E0,1.587203979E0
2.364074766E0,-3.451232910E-1,9.058822632E0,1.598159790E0
2.369049131E0,-3.650970459E-1,9.098693848E0,1.601287842E0
2.374023496E0,-4.077606201E-1,9.094314575E0,1.631286621E0
2.378997861E0,-4.067230225E-1,9.102111816E0,1.659255981E0
2.383972227E0,-4.222717285E-1,9.111801147E0,1.661621094E0
2.388946592E0,-4.475708008E-1,9.111984253E0,1.639862061E0
2.393920957E0,-4.389648438E-1,9.086746216E0,1.642364502E0
2.398895322E0,-4.253540039E-1,9.073822021E0,1.642715454E0
2.403869688E0,-4.286956787E-1,9.065444946E0,1.630218506E0
2.408844053E0,-4.318084717E-1,9.083358765E0,1.609252930E0
2.413818418E0,-4.477996826E-1,9.089950562E0,1.599212646E0
2.418792783E0,-4.783935547E-1,9.091491699E0,1.593902588E0
2.423767149E0,-5.010528564E-1,9.115554810E0,1.589981079E0
2.428741514E0,-5.179138184E-1,9.121749878E0,1.575317383E0
2.433715879E0,-5.381774902E-1,9.131774902E0,1.553695679E0
2.438690244E0,-5.483398438E-1,9.139419556E0,1.569396973E0
2.443664610E0,-5.669708252E-1,9.139419556E0,1.579544067E0
2.448638975E0,-5.710906982E-1,9.139419556E0,1.579544067E0
2.453613340E0,-5.726165771E-1,9.153564453E0,1.585632324E0
2.458587705E0,-5.794219971E-1,9.147567749E0,1.565261841E0
2.463562070E0,-5.506744385E-1,9.139785767E0,1.585510254E0
2.468536436E0,-5.466918945E-1,9.137039185E0,1.605743408E0
2.473510801E0,-5.151214600E-1,9.139419556E0,1.586730957E0
2.478485166E0,-5.034484863E-1,9.138488770E0,1.585815430E0
2.483459531E0,-4.796600342E-1,9.122436523E0,1.576446533E0
2.488433897E0,-4.773559570E-1,9.080047607E0,1.570983887E0
2.493408262E0,-4.624328613E-1,9.081390381E0,1.565185547E0
2.498382627E0,-4.539794922E-1,9.085266113E0,1.565185547E0
2.503356992E0,-4.741516113E-1,9.094589233E0,1.570159912E0
2.508331358E0,-4.866943359E-1,9.077346802E0,1.572952271E0
2.513305723E0,-5.043945312E-1,9.061782837E0,1.562789917E0
2.518280088E0,-5.024414062E-1,9.042617798E0,1.572311401E0
2.523254453E0,-4.938049316E-1,9.006301880E0,1.591079712E0
2.528228818E0,-4.859466553E-1,8.968322754E0,1.575973511E0
2.533203184E0,-4.882354736E-1,8.921890259E0,1.560409546E0
2.538177549E0,-5.016326904E-1,8.934936523E0,1.535400391E0
2.543151914E0,-5.024261475E-1,8.933746338E0,1.504943848E0
2.548126279E0,-5.011901855E-1,8.972518921E0,1.507690430E0
2.553100645E0,-5.234375000E-1,8.998031616E0,1.500045776E0
2.558075010E0,-5.339660645E-1,9.015640259E0,1.517517090E0
2.563049375E0,-5.437164307E-1,9.024139404E0,1.537765503E0
2.568023740E0,-5.347747803E-1,9.031677246E0,1.519866943E0
2.572998106E0,-5.512390137E-1,9.046844482E0,1.520736694E0
2.577972471E0,-5.438537598E-1,9.061981201E0,1.494476318E0
2.582946836E0,-5.182800293E-1,9.049194336E0,1.532028198E0
2.587921201E0,-5.282135010E-1,9.025482178E0,1.552627563E0
2.592895567E0,-4.907073975E-1,9.021179199E0,1.571731567E0
2.597869932E0,-4.546661377E-1,9.002090454E0,1.579238892E0
2.602844297E0,-4.543609619E-1,9.023925781E0,1.581878662E0
2.607818662E0,-4.672698975E-1,9.046875000E0,1.562088013E0
2.612793027E0,-4.861907959E-1,9.080841064E0,1.543106079E0
2.617767393E0,-5.143890381E-1,9.118774414E0,1.533203125E0
2.622741758E0,-5.183563232E-1,9.147583008E0,1.510864258E0
2.627716123E0,-5.341033936E-1,9.152862549E0,1.506805420E0
2.632690488E0,-5.464782715E-1,9.155105591E0,1.489364624E0
2.637664854E0,-5.655822754E-1,9.153594971E0,1.480712891E0
2.642639219E0,-5.800933838E-1,9.165573120E0,1.490325928E0
2.647613584E0,-5.692596436E-1,9.147735596E0,1.476318359E0
2.652587949E0,-5.396881104E-1,9.157882690E0,1.481933594E0
2.657562315E0,-5.304412842E-1,9.135375977E0,1.488098145E0
2.662536680E0,-5.163879395E-1,9.114196777E0,1.544982910E0
2.667511045E0,-4.941711426E-1,9.105957031E0,1.593612671E0
2.672485410E0,-4.930114746E-1,9.088973999E0,1.608917236E0
2.677459776E0,-4.666290283E-1,9.084152222E0,1.626968384E0
2.682434141E0,-4.516906738E-1,9.086029053E0,1.652969360E0
2.687408506E0,-4.239044189E-1,9.104904175E0,1.686233521E0
2.692382871E0,-4.030456543E-1,9.064575195E0,1.668685913E0
2.697357236E0,-3.730621338E-1,9.013626099E0,1.690322876E0
2.702331602E0,-3.520050049E-1,8.996551514E0,1.688873291E0
2.707305967E0,-3.335266113E-1,8.966751099E0,1.700851440E0
2.712280332E0,-3.144989014E-1,8.960266113E0,1.693054199E0
2.717254697E0,-2.980499268E-1,8.951766968E0,1.692092896E0
2.722229063E0,-2.855072021E-1,8.937911987E0,1.666564941E0
2.727203428E0,-2.740783691E-1,8.927047729E0,1.654922485E0
2.732177793E0,-2.675781250E-1,8.922546387E0,1.644271851E0
2.737152158E0,-2.716217041E-1,8.928207397E0,1.621490479E0
2.742126524E0,-2.721252441E-1,8.941802979E0,1.626007080E0
2.747100889E0,-2.621307373E-1,8.956817627E0,1.629791260E0
2.752075254E0,-2.694854736E-1,8.995788574E0,1.615875244E0
2.757049619E0,-2.989959717E-1,9.034744263E0,1.629974365E0
2.762023985E0,-3.003692627E-1,9.083679199E0,1.647872925E0
2.766998350E0,-2.626647949E-1,9.117279053E0,1.660675049E0
2.771972715E0,-2.812957764E-1,9.136779785E0,1.644622803E0
2.776947080E0,-2.860412598E-1,9.129440308E0,1.659515381E0
2.781921445E0,-2.609558105E-1,9.117965698E0,1.668869019E0
2.786895811E0,-2.538757324E-1,9.072418213E0,1.655929565E0
2.791870176E0,-2.432861328E-1,9.069625854E0,1.650833130E0
2.796844541E0,-2.226104736E-1,9.055694580E0,1.673553467E0
2.801818906E0,-2.300262451E-1,9.040512085E0,1.676864624E0
2.806793272E0,-2.452850342E-1,9.033218384E0,1.683700562E0
2.811767637E0,-2.519683838E-1,9.022430420E0,1.698928833E0
2.816742002E0,-2.521209717E-1,9.006729126E0,1.706527710E0
2.821716367E0,-2.633514404E-1,8.996643066E0,1.704132080E0
2.826690733E0,-2.430877686E-1,8.975769043E0,1.686920166E0
2.831665098E0,-2.320861816E-1,8.982879639E0,1.656234741E0
2.836639463E0,-2.388763428E-1,8.996719360E0,1.636734009E0
2.841613828E0,-2.316436768E-1,8.999984741E0,1.637451172E0
2.846588193E0,-2.639160156E-1,8.976348877E0,1.635635376E0
2.851562559E0,-2.519836426E-1,8.991424561E0,1.608703613E0
2.856536924E0,-2.814025879E-1,9.004302979E0,1.628860474E0
2.861511289E0,-2.947387695E-1,9.016525269E0,1.605499268E0
2.866485654E0,-2.813415527E-1,9.043182373E0,1.589401245E0
2.871460020E0,-3.025970459E-1,9.045700073E0,1.589202881E0
2.876434385E0,-3.030090332E-1,9.034927368E0,1.592712402E0
2.881408750E0,-3.126220703E-1,9.044921875E0,1.606185913E0
2.886383115E0,-3.497924805E-1,9.058013916E0,1.606536865E0
2.891357481E0,-3.626251221E-1,9.077362061E0,1.595367432E0
2.896331846E0,-3.839263916E-1,9.063217163E0,1.593856812E0
2.901306211E0,-3.975219727E-1,9.047683716E0,1.607467651E0
2.906280576E0,-4.143676758E-1,9.053604126E0,1.588562012E0
2.911254942E0,-4.365844727E-1,9.058059692E0,1.593582153E0
2.916229307E0,-4.423370361E-1,9.033889771E0,1.605499268E0
2.921203672E0,-4.574127197E-1,8.976165771E0,1.611648560E0
2.926178037E0,-4.639129639E-1,8.945205688E0,1.615219116E0
2.931152402E0,-4.644317627E-1,8.934127808E0,1.612670898E0
2.936126768E0,-4.636840820E-1,8.912582397E0,1.605010986E0
2.941101133E0,-4.838562012E-1,8.911895752E0,1.601745605E0
2.946075498E0,-5.177917480E-1,8.923828125E0,1.606689453E0
2.951049863E0,-5.271148682E-1,8.942382812E0,1.644119263E0
2.956024229E0,-5.590515137E-1,8.964508057E0,1.636627197E0
2.960998594E0,-5.523071289E-1,9.000473022E0,1.627914429E0
2.965972959E0,-5.420684814E-1,9.049957275E0,1.632095337E0
2.970947324E0,-5.170898438E-1,9.077392578E0,1.634338379E0
2.975921690E0,-4.832763672E-1,9.087432861E0,1.625366211E0
2.980896055E0,-4.650726318E-1,9.129791260E0,1.630096436E0
2.985870420E0,-4.382476807E-1,9.149078369E0,1.633026123E0
2.990844785E0,-3.894348145E-1,9.169525146E0,1.647720337E0
2.995819151E0,-3.459167480E-1,9.198577881E0,1.682891846E0
3.000793516E0,-3.336944580E-1,9.192199707E0,1.667633057E0
3.005767881E0,-3.363952637E-1,9.179794312E0,1.636703491E0
3.010742246E0,-3.338012695E-1,9.162139893E0,1.610107422E0
3.015716611E0,-3.275146484E-1,9.139678955E0,1.594055176E0
3.020690977E0,-3.350677490E-1,9.132125854E0,1.590255737E0
3.025665342E0,-3.549804688E-1,9.106491089E0,1.583618164E0
3.030639707E0,-3.865509033E-1,9.072799683E0,1.554260254E0
3.035614072E0,-4.191894531E-1,9.069259644E0,1.546905518E0
3.040588438E0,-4.449768066E-1,9.072418213E0,1.549118042E0
3.045562803E0,-4.657745361E-1,9.079818726E0,1.526214600E0
3.050537168E0,-4.956207275E-1,9.085906982E0,1.541336060E0
3.055511533E0,-5.032806396E-1,9.103439331E0,1.575225830E0
3.060485899E0,-5.190429688E-1,9.090454102E0,1.599426270E0
3.065460264E0,-5.366668701E-1,9.082168579E0,1.615066528E0
3.070434629E0,-5.396270752E-1,9.048629761E0,1.610198975E0
3.075408994E0,-5.487060547E-1,9.053619385E0,1.589111328E0
3.080383360E0,-5.791931152E-1,9.024597168E0,1.621704102E0
3.085357725E0,-6.060638428E-1,9.007812500E0,1.633026123E0
3.090332090E0,-6.098785400E-1,9.004135132E0,1.636459351E0
3.095306455E0,-6.304016113E-1,8.994293213E0,1.635894775E0
3.100280820E0,-6.296386719E-1,8.997619629E0,1.644012451E0
3.105255186E0,-6.289215088E-1,8.995162964E0,1.640380859E0
3.110229551E0,-6.354370117E-1,9.019226074E0,1.615829468E0
3.115203916E0,-6.502685547E-1,9.045257568E0,1.599533081E0
3.120178281E0,-6.603851318E-1,9.064193726E0,1.586837769E0
3.125152647E0,-6.574249268E-1,9.071716309E0,1.594589233E0
3.130127012E0,-6.410064697E-1,9.079254150E0,1.580917358E0
3.135101377E0,-6.247711182E-1,9.086807251E0,1.576400757E0
3.140075742E0,-6.139221191E-1,9.104721069E0,1.589920044E0
3.145050108E0,-5.853424072E-1,9.131072998E0,1.588363647E0
3.150024473E0,-5.659942627E-1,9.127197266E0,1.598526001E0
3.154998838E0,-5.384063721E-1,9.114639282E0,1.607345581E0
3.159973203E0,-5.192565918E-1,9.108673096E0,1.634765625E0
3.164947568E0,-4.623718262E-1,9.099044800E0,1.632354736E0
3.169921934E0,-4.212646484E-1,9.091506958E0,1.651626587E0
3.174896299E0,-3.696136475E-1,9.086959839E0,1.666381836E0
3.179870664E0,-3.384857178E-1,9.058349609E0,1.676727295E0
3.184845029E0,-3.352813721E-1,9.058044434E0,1.688034058E0
3.189819395E0,-3.161926270E-1,9.040847778E0,1.694122314E0
3.194793760E0,-2.972259521E-1,9.022171021E0,1.704833984E0
3.199768125E0,-2.732086182E-1,9.010665894E0,1.712020874E0
3.204742490E0,-2.561492920E-1,8.969558716E0,1.699966431E0
3.209716856E0,-2.259521484E-1,8.936798096E0,1.681823730E0
3.214691221E0,-1.844940186E-1,8.918838501E0,1.667526245E0
3.219665586E0,-1.529083252E-1,8.914855957E0,1.652389526E0
3.224639951E0,-1.263580322E-1,8.917251587E0,1.636718750E0
3.229614317E0,-1.013793945E-1,8.895782471E0,1.622955322E0
3.234588682E0,-6.953430176E-2,8.882553101E0,1.615417480E0
3.239563047E0,-5.613708496E-2,8.875823975E0,1.583847046E0
3.244537412E0,-5.062866211E-2,8.884826660E0,1.550338745E0
3.249511777E0,-5.876159668E-2,8.882278442E0,1.512298584E0
3.254486143E0,-7.133483887E-2,8.876815796E0,1.490783691E0
3.259460508E0,-1.208343506E-1,8.924148560E0,1.482086182E0
3.264434873E0,-1.278228760E-1,8.961044312E0,1.529754639E0
3.269409238E0,-1.663360596E-1,8.996490479E0,1.537002563E0
3.274383604E0,-1.756286621E-1,9.048385620E0,1.577316284E0
3.279357969E0,-1.749725342E-1,9.085647583E0,1.577713013E0
3.284332334E0,-1.854400635E-1,9.118957520E0,1.562408447E0
3.289306699E0,-1.677856445E-1,9.137527466E0,1.558883667E0
3.294281065E0,-1.439208984E-1,9.137527466E0,1.553863525E0
3.299255430E0,-1.099090576E-1,9.136672974E0,1.559326172E0
3.304229795E0,-4.164123535E-2,9.139663696E0,1.578826904E0
3.309204160E0,-6.408691406E-3,9.125473022E0,1.596725464E0
3.314178526E0,1.988220215E-2,9.122665405E0,1.601638794E0
3.319152891E0,4.103088379E-2,9.114120483E0,1.604568481E0
3.324127256E0,6.600952148E-2,9.105911255E0,1.596008301E0
3.329101621E0,4.319763184E-2,9.116165161E0,1.568984985E0
3.334075986E0,3.860473633E-3,9.108444214E0,1.553222656E0
3.339050352E0,-9.292602539E-3,9.094345093E0,1.577011108E0
3.344024717E0,-3.982543945E-2,9.115234375E0,1.586730957E0
3.348999082E0,-6.452941895E-2,9.107101440E0,1.582839966E0
3.353973447E0,-5.577087402E-2,9.093246460E0,1.579895020E0
3.358947813E0,-6.245422363E-2,9.067611694E0,1.564315796E0
3.363922178E0,-2.421569824E-2,9.019226074E0,1.565093994E0
3.368896543E0,-2.014160156E-2,8.995468140E0,1.541427612E0
3.373870908E0,-1.057434082E-2,8.967132568E0,1.554763794E0
3.378845274E0,2.947998047E-2,8.965545654E0,1.583480835E0
3.383819639E0,3.370666504E-2,8.951217651E0,1.620452881E0
3.388794004E0,7.786560059E-2,8.942687988E0,1.645034790E0
3.393768369E0,7.723999023E-2,8.947601318E0,1.638137817E0
3.398742735E0,7.324218750E-2,8.970092773E0,1.635330200E0
3.403717100E0,7.261657715E-2,8.999176025E0,1.633529663E0
3.408691465E0,8.123779297E-2,9.051681519E0,1.610717773E0
3.413665830E0,8.155822754E-2,9.078781128E0,1.592224121E0
3.418640195E0,7.902526855E-2,9.094039917E0,1.599929810E0
3.423614561E0,6.307983398E-2,9.117538452E0,1.599746704E0
3.428588926E0,3.404235840E-2,9.138061523E0,1.605987549E0
3.433563291E0,2.754211426E-2,9.132354736E0,1.642150879E0
3.438537656E0,2.320861816E-2,9.135940552E0,1.656814575E0
3.443512022E0,1.132202148E-2,9.137588501E0,1.670700073E0
3.448486387E0,2.586364746E-2,9.140884399E0,1.679122925E0
3.453460752E0,4.847717285E-2,9.131546021E0,1.684158325E0
3.458435117E0,3.195190430E-2,9.118957520E0,1.704421997E0
3.463409483E0,5.300903320E-2,9.127075195E0,1.731674194E0
3.468383848E0,6.602478027E-2,9.122726440E0,1.723190308E0
3.473358213E0,8.699035645E-2,9.131256104E0,1.734359741E0
3.478332578E0,1.177520752E-1,9.112594604E0,1.762985229E0
3.483306943E0,1.156005859E-1,9.084915161E0,1.775375366E0
3.488281309E0,1.361541748E-1,9.061828613E0,1.775894165E0
3.493255674E0,1.410064697E-1,9.062377930E0,1.789657593E0
3.498230039E0,1.696929932E-1,9.080001831E0,1.810974121E0
3.503204404E0,1.526489258E-1,9.105300903E0,1.843688965E0
3.508178770E0,1.086578369E-1,9.155136108E0,1.898788452E0
3.513153135E0,7.476806641E-2,9.212875366E0,1.957717896E0
3.518127500E0,3.292846680E-2,9.275329590E0,1.993927002E0
3.523101865E0,-1.310729980E-2,9.339721680E0,2.065765381E0
3.528076231E0,-2.844238281E-2,9.408386230E0,2.108871460E0
3.533050596E0,-2.906799316E-2,9.481033325E0,2.124938965E0
3.538024961E0,-5.119323730E-2,9.530288696E0,2.135696411E0
3.542999326E0,-6.631469727E-2,9.534210205E0,2.149673462E0
3.547973692E0,-4.513549805E-2,9.512695312E0,2.157669067E0
3.552948057E0,3.402709961E-3,9.485488892E0,2.140274048E0
3.557922422E0,3.463745117E-2,9.425384521E0,2.089523315E0
3.562896787E0,3.718566895E-2,9.337646484E0,2.073089600E0
3.567871152E0,2.282714844E-2,9.227951050E0,2.058105469E0
3.572845518E0,-1.499938965E-2,9.132522583E0,2.108825684E0
3.577819883E0,-9.835815430E-2,9.088546753E0,2.162475586E0
3.582794248E0,-1.426544189E-1,9.038101196E0,2.174301147E0
3.587768613E0,-2.126312256E-1,9.010192871E0,2.172500610E0
3.592742979E0,-3.016510010E-1,8.979736328E0,2.150588989E0
3.597717344E0,-3.463439941E-1,9.023193359E0,2.114212036E0
3.602691709E0,-3.034057617E-1,9.044174194E0,2.220596313E0
3.607666074E0,-5.978698730E-1,8.956604004E0,1.988250732E0
3.612640440E0,-7.879638672E-1,8.546524048E0,1.712783813E0
3.617614805E0,-7.608184814E-1,8.408401489E0,1.769775391E0
3.622589170E0,-5.801696777E-1,8.913253784E0,2.003936768E0
3.627563535E0,-4.370727539E-1,9.154724121E0,2.056686401E0
3.632537901E0,-3.691864014E-1,9.259201050E0,2.171966553E0
3.637512266E0,-3.483276367E-1,9.245727539E0,2.258789062E0
3.642486631E0,-2.949371338E-1,9.178985596E0,2.333770752E0
3.647460996E0,-2.595214844E-1,9.096328735E0,2.367752075E0
3.652435361E0,-2.628936768E-1,8.981765747E0,2.402145386E0
3.657409727E0,-1.998901367E-1,8.872390747E0,2.461151123E0
3.662384092E0,-2.061462402E-1,8.800567627E0,2.508148193E0
3.667358457E0,-2.236328125E-1,8.749389648E0,2.582138062E0
3.672332822E0,-1.830139160E-1,8.801895142E0,2.676574707E0
3.677307188E0,-2.335052490E-1,8.893951416E0,2.691207886E0
3.682281553E0,-3.037872314E-1,8.954025269E0,2.633636475E0
3.687255918E0,-4.509582520E-1,8.994873047E0,2.616607666E0
3.692230283E0,-5.580291748E-1,9.015579224E0,2.615036011E0
3.697204649E0,-7.286987305E-1,9.004440308E0,2.554565430E0
3.702179014E0,-8.656768799E-1,9.007812500E0,2.510040283E0
3.707153379E0,-9.012756348E-1,9.013549805E0,2.488357544E0
3.712127744E0,-8.562011719E-1,9.032897949E0,2.505844116E0
3.717102110E0,-7.515411377E-1,9.049652100E0,2.529586792E0
3.722076475E0,-6.899261475E-1,9.058517456E0,2.535903931E0
3.727050840E0,-6.887969971E-1,9.049911499E0,2.529495239E0
3.732025205E0,-7.221984863E-1,9.035110474E0,2.533737183E0
3.736999570E0,-6.840057373E-1,9.040069580E0,2.538864136E0
3.741973936E0,-6.346588135E-1,9.018630981E0,2.525939941E0
3.746948301E0,-5.969238281E-1,9.008285522E0,2.595077515E0
3.751922666E0,-4.965972900E-1,8.971359253E0,2.665893555E0
3.756897031E0,-4.367523193E-1,8.966873169E0,2.681900024E0
3.761871397E0,-3.614501953E-1,8.924011230E0,2.687179565E0
3.766845762E0,-2.619171143E-1,8.931243896E0,2.766387939E0
3.771820127E0,-1.557922363E-1,8.887939453E0,2.845138550E0
3.776794492E0,-7.867431641E-2,8.881072998E0,2.842651367E0
3.781768858E0,1.087951660E-2,8.856246948E0,2.867446899E0
3.786743223E0,7.682800293E-2,8.832214355E0,2.894195557E0
3.791717588E0,1.402893066E-1,8.803329468E0,2.892349243E0
3.796691953E0,2.311401367E-1,8.774627686E0,2.945251465E0
3.801666318E0,3.343505859E-1,8.754379272E0,2.999679565E0
3.806640684E0,4.174499512E-1,8.757080078E0,3.059692383E0
3.811615049E0,5.086517334E-1,8.762969971E0,3.056686401E0
3.816589414E0,6.052398682E-1,8.763854980E0,3.018951416E0
3.821563779E0,6.937408447E-1,8.727539062E0,2.993011475E0
3.826538145E0,7.801055908E-1,8.702072144E0,2.983673096E0
3.831512510E0,8.453521729E-1,8.680541992E0,3.001693726E0
3.836486875E0,9.014282227E-1,8.636474609E0,3.060760498E0
3.841461240E0,9.674377441E-1,8.595306396E0,3.108886719E0
3.846435606E0,1.001724243E0,8.564025879E0,3.161544800E0
3.851409971E0,1.030349731E0,8.541900635E0,3.197250366E0
3.856384336E0,9.881286621E-1,8.540939331E0,3.233840942E0
3.861358701E0,9.823608398E-1,8.538955688E0,3.334701538E0
3.866333067E0,9.917907715E-1,8.574234009E0,3.420989990E0
3.871307432E0,1.006469727E0,8.631134033E0,3.496505737E0
3.876281797E0,1.010833740E0,8.669509888E0,3.631027222E0
3.881256162E0,1.010009766E0,8.713088989E0,3.732482910E0
3.886230527E0,1.029434204E0,8.742950439E0,3.876922607E0
3.891204893E0,1.082626343E0,8.763412476E0,3.979965210E0
3.896179258E0,1.107620239E0,8.775543213E0,4.079818726E0
3.901153623E0,1.153411865E0,8.765594482E0,4.091110229E0
3.906127988E0,1.210510254E0,8.809127808E0,4.059677124E0
3.911102354E0,1.258316040E0,8.860717773E0,3.999069214E0
3.916076719E0,1.268585205E0,8.929321289E0,3.906494141E0
3.921051084E0,1.245010376E0,8.995468140E0,3.771942139E0
3.926025449E0,1.245407104E0,9.047866821E0,3.640747070E0
3.930999815E0,1.248809814E0,9.047760010E0,3.563751221E0
3.935974180E0,1.242996216E0,8.982009888E0,3.515060425E0
3.940948545E0,1.187850952E0,8.913452148E0,3.472763062E0
3.945922910E0,1.136962891E0,8.833709717E0,3.466476440E0
3.950897276E0,1.112258911E0,8.760192871E0,3.457458496E0
3.955871641E0,1.085739136E0,8.632202148E0,3.436355591E0
3.960846006E0,1.069412231E0,8.496841431E0,3.463104248E0
3.965820371E0,1.037780762E0,8.313781738E0,3.429672241E0
3.970794736E0,1.044021606E0,8.098022461E0,3.447052002E0
3.975769102E0,1.089797974E0,7.893798828E0,3.405181885E0
3.980743467E0,1.087951660E0,7.742538452E0,3.299713135E0
3.985717832E0,1.117324829E0,7.618515015E0,3.253479004E0
3.990692197E0,1.268539429E0,7.513046265E0,3.269592285E0
3.995666563E0,1.413101196E0,7.452377319E0,3.308609009E0
4.000640928E0,1.541656494E0,7.424514771E0,3.323120117E0
4.005615293E0,1.638977051E0,7.423980713E0,3.317825317E0
4.010589658E0,1.745925903E0,7.448318481E0,3.308807373E0
4.015564024E0,1.808792114E0,7.472595215E0,3.339752197E0
4.020538389E0,1.781402588E0,7.515777588E0,3.385528564E0
4.025512754E0,1.759292603E0,7.582321167E0,3.411575317E0
4.030487119E0,1.744262695E0,7.612594604E0,3.403030396E0
4.035461485E0,1.719802856E0,7.638153076E0,3.353164673E0
4.040435850E0,1.649429321E0,7.655715942E0,3.281326294E0
4.045410215E0,1.533721924E0,7.637542725E0,3.257934570E0
4.050384580E0,1.470642090E0,7.595809937E0,3.250900269E0
4.055358945E0,1.389221191E0,7.554992676E0,3.196823120E0
4.060333311E0,1.258682251E0,7.514755249E0,3.160827637E0
4.065307676E0,1.188934326E0,7.465057373E0,3.163528442E0
4.070282041E0,1.130050659E0,7.414459229E0,3.189559937E0
4.075256406E0,1.048309326E0,7.419754028E0,3.239166260E0
4.080230772E0,9.759826660E-1,7.408050537E0,3.228530884E0
4.085205137E0,9.187927246E-1,7.460510254E0,3.230590820E0
4.090179502E0,9.089813232E-1,7.544235229E0,3.231170654E0
4.095153867E0,9.159088135E-1,7.623245239E0,3.248611450E0
4.100128233E0,9.800415039E-1,7.704666138E0,3.299270630E0
4.105102598E0,1.025329590E0,7.774337769E0,3.341903687E0
4.110076963E0,1.064254761E0,7.831634521E0,3.387725830E0
4.115051328E0,1.103454590E0,7.891647339E0,3.419082642E0
4.120025693E0,1.138427734E0,7.948043823E0,3.447921753E0
4.125000059E0,1.183578491E0,7.988388062E0,3.467269897E0
4.129974424E0,1.232208252E0,8.024475098E0,3.529403687E0
4.134948789E0,1.256896973E0,8.067886353E0,3.568069458E0
4.139923154E0,1.251831055E0,8.113189697E0,3.610504150E0
4.144897520E0,1.277832031E0,8.124862671E0,3.664642334E0
4.149871885E0,1.300079346E0,8.107055664E0,3.725128174E0
4.154846250E0,1.300888062E0,8.109619141E0,3.703994751E0
4.159820615E0,1.309478760E0,8.119384766E0,3.679595947E0
4.164794981E0,1.314849854E0,8.136489868E0,3.717956543E0
4.169769346E0,1.329055786E0,8.093063354E0,3.722122192E0
4.174743711E0,1.317337036E0,8.066680908E0,3.755722046E0
4.179718076E0,1.291412354E0,8.049209595E0,3.715255737E0
4.184692442E0,1.316177368E0,7.982269287E0,3.732116699E0
4.189666807E0,1.351226807E0,7.921936035E0,3.689956665E0
4.194641172E0,1.383132935E0,7.854324341E0,3.673934937E0
4.199615537E0,1.409729004E0,7.867218018E0,3.655197144E0
4.204589902E0,1.440338135E0,7.869720459E0,3.583587646E0
4.209564268E0,1.437423706E0,7.894638062E0,3.462158203E0
4.214538633E0,1.412017822E0,7.955947876E0,3.348602295E0
4.219512998E0,1.396865845E0,8.039093018E0,3.338684082E0
4.224487363E0,1.374298096E0,8.154586792E0,3.359268188E0
4.229461729E0,1.347229004E0,8.324508667E0,3.366394043E0
4.234436094E0,1.338104248E0,8.469802856E0,3.405120850E0
4.239410459E0,1.314453125E0,8.573348999E0,3.375564575E0
4.244384824E0,1.262695312E0,8.672866821E0,3.325866699E0
4.249359190E0,1.175262451E0,8.723983765E0,3.324645996E0
4.254333555E0,1.157318115E0,8.770126343E0,3.307418823E0
4.259307920E0,1.121459961E0,8.851287842E0,3.329223633E0
4.264282285E0,1.067443848E0,8.873367310E0,3.436019897E0
4.269256651E0,9.465484619E-1,8.842987061E0,3.354827881E0
4.274231016E0,7.538299561E-1,8.749664307E0,3.245437622E0
4.279205381E0,5.373992920E-1,8.563476562E0,3.093231201E0
4.284179746E0,2.841949463E-1,8.417053223E0,2.983505249E0
4.289154111E0,2.807617188E-2,8.289260864E0,2.955657959E0
4.294128477E0,-2.194366455E-1,8.174728394E0,2.960861206E0
4.299102842E0,-4.291839600E-1,8.113754272E0,2.990585327E0
4.304077207E0,-5.666503906E-1,8.134353638E0,2.976974487E0
4.309051572E0,-6.191253662E-1,8.265823364E0,2.934432983E0
4.314025938E0,-6.152343750E-1,8.518997192E0,2.876083374E0
4.319000303E0,-6.064758301E-1,8.833801270E0,2.837203979E0
4.323974668E0,-6.023712158E-1,9.185180664E0,2.814910889E0
4.328949033E0,-5.888214111E-1,9.576110840E0,2.774414062E0
4.333923399E0,-5.404205322E-1,9.961608887E0,2.683959961E0
4.338897764E0,-5.134124756E-1,1.026286316E1,2.556213379E0
4.343872129E0,-4.922637939E-1,1.042605591E1,2.410644531E0
4.348846494E0,-4.473266602E-1,1.048468018E1,2.355041504E0
4.353820860E0,-3.802032471E-1,1.044515991E1,2.440322876E0
4.358795225E0,-3.344421387E-1,1.037907410E1,2.662780762E0
4.363769590E0,-3.243255615E-1,1.032514954E1,2.878402710E0
4.368743955E0,-3.450775146E-1,1.023609924E1,3.012481689E0
4.373718320E0,-4.143218994E-1,1.017420959E1,2.984329224E0
4.378692686E0,-4.336242676E-1,1.015052795E1,2.790786743E0
4.383667051E0,-4.256744385E-1,1.007466125E1,2.578643799E0
4.388641416E0,-4.014129639E-1,9.974197388E0,2.306503296E0
4.393615781E0,-3.607025146E-1,9.864639282E0,2.018417358E0
4.398590147E0,-2.830352783E-1,9.688323975E0,1.713272095E0
4.403564512E0,-2.089233398E-1,9.468017578E0,1.376602173E0
4.408538877E0,-1.496276855E-1,9.224929810E0,1.130401611E0
4.413513242E0,-6.098937988E-2,9.005340576E0,1.013076782E0
4.418487608E0,4.521179199E-2,8.857910156E0,1.075759888E0
4.423461973E0,1.690673828E-1,8.788497925E0,1.228286743E0
4.428436338E0,2.996368408E-1,8.796112061E0,1.430236816E0
4.433410703E0,3.506469727E-1,8.792449951E0,1.589920044E0
4.438385068E0,4.260406494E-1,8.736602783E0,1.644546509E0
4.443359434E0,5.092010498E-1,8.650299072E0,1.682571411E0
4.448333799E0,5.684509277E-1,8.514068604E0,1.580261230E0
4.453308164E0,6.525115967E-1,8.420227051E0,1.443801880E0
4.458282529E0,8.460540771E-1,8.387680054E0,1.305847168E0
4.463256895E0,1.006271362E0,8.385681152E0,1.253128052E0
4.468231260E0,1.157485962E0,8.378295898E0,1.342163086E0
4.473205625E0,8.245697021E-1,8.373703003E0,1.449951172E0
4.478179990E0,1.006729126E0,8.446426392E0,1.618667603E0
4.483154356E0,1.356658936E0,8.479431152E0,1.638671875E0
4.488128721E0,1.584197998E0,8.519363403E0,1.692810059E0
4.493103086E0,1.757186890E0,8.526855469E0,1.606811523E0
4.498077451E0,1.799682617E0,8.486755371E0,1.454574585E0
4.503051817E0,1.812271118E0,8.347229004E0,1.314651489E0
4.508026182E0,1.854736328E0,8.197631836E0,1.233184814E0
4.513000547E0,1.926925659E0,8.054153442E0,1.169418335E0
4.517974912E0,1.990875244E0,7.961441040E0,1.064254761E0
4.522949277E0,2.006591797E0,7.927017212E0,9.145812988E-1
4.527923643E0,1.972976685E0,7.982940674E0,7.678222656E-1
4.532898008E0,1.871963501E0,8.156326294E0,6.895141602E-1
4.537872373E0,1.722488403E0,8.401168823E0,6.613616943E-1
4.542846738E0,1.504684448E0,8.703277588E0,5.897979736E-1
4.547821104E0,1.283813477E0,8.946685791E0,5.171966553E-1
4.552795469E0,1.042831421E0,9.120742798E0,5.465545654E-1
4.557769834E0,8.576049805E-1,9.282104492E0,6.604461670E-1
4.562744199E0,7.902984619E-1,9.445465088E0,7.768096924E-1
4.567718565E0,7.692260742E-1,9.615066528E0,8.459167480E-1
4.572692930E0,7.679138184E-1,9.769332886E0,9.202117920E-1
4.577667295E0,9.112396240E-1,9.942642212E0,9.403381348E-1
4.582641660E0,8.172302246E-1,1.016673279E1,9.785614014E-1
4.587616026E0,6.632080078E-1,1.035403442E1,1.019851685E0
4.592590391E0,5.600891113E-1,1.054838562E1,1.101547241E0
4.597564756E0,5.022735596E-1,1.070837402E1,1.143325806E0
4.602539121E0,4.850158691E-1,1.076193237E1,1.184143066E0
4.607513486E0,4.123077393E-1,1.067863464E1,1.215744019E0
4.612487852E0,3.179016113E-1,1.049301147E1,1.208145142E0
4.617462217E0,2.661895752E-1,1.029066467E1,1.139205933E0
4.622436582E0,2.912445068E-1,1.002757263E1,1.037551880E0
4.627410947E0,3.839111328E-1,9.683273315E0,8.990783691E-1
4.632385313E0,4.836273193E-1,9.312454224E0,7.121734619E-1
4.637359678E0,5.500183105E-1,9.028228760E0,5.366821289E-1
4.642334043E0,6.128845215E-1,8.861953735E0,3.964691162E-1
4.647308408E0,6.476593018E-1,8.830749512E0,2.710723877E-1
4.652282774E0,7.286682129E-1,8.867965698E0,1.374359131E-1
4.657257139E0,7.406768799E-1,8.911071777E0,5.935668945E-3
4.662231504E0,7.429656982E-1,8.882278442E0,-8.731079102E-2
4.667205869E0,9.499053955E-1,8.806991577E0,-9.550476074E-2
4.672180235E0,8.395538330E-1,9.014282227E0,8.673095703E-2
4.677154600E0,7.033996582E-1,9.195922852E0,1.807556152E-1
4.682128965E0,6.447296143E-1,9.371124268E0,3.607635498E-1
4.687103330E0,6.818695068E-1,9.571960449E0,4.871368408E-1
4.692077695E0,7.010650635E-1,9.605773926E0,4.459686279E-1
4.697052061E0,7.668151855E-1,9.484527588E0,3.971252441E-1
4.702026426E0,8.335266113E-1,9.332534790E0,4.393310547E-1
4.707000791E0,8.499908447E-1,9.201004028E0,5.164794922E-1
4.711975156E0,8.068847656E-1,9.094863892E0,5.993652344E-1
4.716949522E0,7.570495605E-1,8.958969116E0,7.030639648E-1
4.721923887E0,6.344451904E-1,8.822311401E0,7.914581299E-1
4.726898252E0,4.485321045E-1,8.723968506E0,9.331207275E-1
4.731872617E0,2.399749756E-1,8.663604736E0,1.135086060E0
4.736846983E0,7.598876953E-2,8.620208740E0,1.192779541E0
4.741821348E0,3.536987305E-2,8.595565796E0,1.203384399E0
4.746795713E0,1.548767090E-2,8.566360474E0,1.235687256E0
4.751770078E0,-1.102752686E-1,8.455642700E0,1.205200195E0
4.756744443E0,-1.822357178E-1,8.347488403E0,1.183959961E0
4.761718809E0,-2.494354248E-1,8.223587036E0,1.118377686E0
4.766693174E0,-1.709899902E-1,8.153182983E0,1.132308960E0
4.771667539E0,-1.696166992E-1,8.090011597E0,1.164718628E0
4.776641904E0,-1.480560303E-1,8.018020630E0,1.190261841E0
4.781616270E0,-1.588592529E-1,7.904037476E0,1.200042725E0
4.786590635E0,-1.818695068E-1,7.786270142E0,1.216751099E0
4.791565000E0,-2.340698242E-1,7.671325684E0,1.198791504E0
4.796539365E0,-2.614135742E-1,7.552795410E0,1.153778076E0
4.801513731E0,-2.479553223E-1,7.427078247E0,1.097290039E0
4.806488096E0,-2.248992920E-1,7.343597412E0,1.024261475E0
4.811462461E0,-1.755218506E-1,7.284927368E0,9.850158691E-1
4.816436826E0,-1.447448730E-1,7.170867920E0,9.056549072E-1
4.821411192E0,-1.369781494E-1,7.080810547E0,7.520446777E-1
4.826385557E0,-1.216888428E-1,7.035812378E0,5.648498535E-1
4.831359922E0,-4.565429688E-2,6.952835083E0,4.479370117E-1
4.836334287E0,3.617858887E-2,6.821273804E0,4.348907471E-1
4.841308652E0,7.920837402E-2,6.695190430E0,4.658508301E-1
4.846283018E0,4.496765137E-2,6.511322021E0,5.319671631E-1
4.851257383E0,-4.476928711E-2,6.271835327E0,6.580657959E-1
4.856231748E0,-2.119750977E-1,6.003494263E0,7.552642822E-1
4.861206113E0,-5.551452637E-1,5.752304077E0,8.618469238E-1
4.866180479E0,-8.926086426E-1,5.426528931E0,1.126968384E0
4.871154844E0,-1.115478516E0,5.167388916E0,1.464569092E0
4.876129209E0,-1.302337646E0,4.974380493E0,1.852584839E0
4.881103574E0,-1.536575317E0,4.787048340E0,2.219192505E0
4.886077940E0,-1.716140747E0,4.595993042E0,2.441711426E0
4.891052305E0,-1.728454590E0,4.418716431E0,2.600494385E0
4.896026670E0,-1.533401489E0,4.294372559E0,2.358215332E0
4.901001035E0,-1.150192261E0,4.394744873E0,1.705917358E0
4.905975401E0,-3.895416260E-1,4.945251465E0,6.621398926E-1
4.910949766E0,5.263977051E-1,6.244018555E0,-7.780609131E-1
4.915924131E0,1.229232788E0,8.535415649E0,-2.402297974E0
4.920898496E0,1.647338867E0,1.198385620E1,-3.522018433E0
4.925872861E0,1.282669067E0,1.549479675E1,-3.889358521E0
4.930847227E0,4.188385010E-1,1.750027466E1,-4.416351318E0
4.935821592E0,5.586242676E-1,1.945828247E1,-5.006332397E0
4.940795957E0,1.365020752E0,2.149169922E1,-5.439865112E0
4.945770322E0,1.662536621E0,2.282920837E1,-5.852584839E0
4.950744688E0,8.238677979E-1,2.373358154E1,-6.481704712E0
4.955719053E0,-6.447143555E-1,2.436076355E1,-6.759124756E0
4.960693418E0,-2.120239258E0,2.423240662E1,-5.965209961E0
4.965667783E0,-2.963409424E0,2.304650879E1,-3.665527344E0
4.970642149E0,-3.703292847E0,2.019976807E1,-1.455947876E0
4.975616514E0,-4.849121094E0,1.666784668E1,1.602172852E-3
4.980590879E0,-5.524536133E0,1.386599731E1,1.174530029E0
4.985565244E0,-5.203567505E0,1.196997070E1,2.044769287E0
4.990539610E0,-4.031295776E0,1.069544983E1,2.484710693E0
4.995513975E0,-2.956512451E0,9.993774414E0,2.450622559E0
5.000488340E0,-2.298950195E0,1.003727722E1,1.944366455E0
5.005462705E0,-2.063995361E0,1.040631104E1,1.246994019E0
5.010437070E0,-2.162750244E0,1.070552063E1,6.822662354E-1
5.015411436E0,-2.307495117E0,1.082032776E1,3.564758301E-1
5.020385801E0,-2.327178955E0,1.073117065E1,1.289520264E-1
5.025360166E0,-2.200286865E0,1.045567322E1,2.072143555E-2
5.030334531E0,-1.969314575E0,1.000500488E1,1.994323730E-1
5.035308897E0,-1.531738281E0,9.499145508E0,6.790924072E-1
5.040283262E0,-1.064437866E0,9.064743042E0,1.144439697E0
5.045257627E0,-6.767120361E-1,8.679916382E0,1.558853149E0
5.050231992E0,-2.603149414E-1,8.359085083E0,1.880035400E0
5.055206358E0,1.095428467E-1,8.137924194E0,2.080764771E0
5.060180723E0,2.959289551E-1,7.786209106E0,2.263397217E0
5.065155088E0,3.860015869E-1,7.480651855E0,2.225936890E0
5.070129453E0,4.527587891E-1,7.302963257E0,2.161331177E0
5.075103818E0,4.969329834E-1,7.171539307E0,2.228103638E0
5.080078184E0,5.923004150E-1,7.124938965E0,2.323013306E0
5.085052549E0,6.210327148E-1,7.171966553E0,2.335601807E0
5.090026914E0,6.814422607E-1,7.200805664E0,2.228530884E0
5.095001279E0,6.458435059E-1,7.292648315E0,1.979949951E0
5.099975645E0,4.925994873E-1,7.379669189E0,1.733291626E0
5.104950010E0,3.095092773E-1,7.473663330E0,1.520965576E0
5.109924375E0,1.594848633E-1,7.636306763E0,1.323394775E0
5.114898740E0,6.469726562E-3,7.841781616E0,1.092742920E0
5.119873106E0,-2.021636963E-1,8.028579712E0,8.755340576E-1
5.124847471E0,-4.437255859E-1,8.191818237E0,6.139678955E-1
5.129821836E0,-6.405334473E-1,8.335876465E0,2.752380371E-1
5.134796201E0,-7.835540771E-1,8.414016724E0,1.586914062E-3
5.139770567E0,-8.893127441E-1,8.496200562E0,-2.821350098E-1
5.144744932E0,-9.963226318E-1,8.563339233E0,-5.575103760E-1
5.149719297E0,-1.121185303E0,8.542343140E0,-8.040161133E-1
5.154693662E0,-1.366088867E0,8.419143677E0,-9.056854248E-1
5.159668027E0,-1.632629395E0,8.217742920E0,-9.227752686E-1
5.164642393E0,-1.825683594E0,8.001754761E0,-8.639068604E-1
5.169616758E0,-1.929122925E0,7.783538818E0,-6.666717529E-1
5.174591123E0,-2.027328491E0,7.585250854E0,-4.344329834E-1
5.179565488E0,-2.123168945E0,7.431762695E0,-2.630462646E-1
5.184539854E0,-2.163757324E0,7.288909912E0,-1.202697754E-1
5.189514219E0,-2.235046387E0,7.197509766E0,4.212951660E-2
5.194488584E0,-2.292663574E0,7.151824951E0,2.237396240E-1
5.199462949E0,-2.334167480E0,7.221481323E0,3.538360596E-1
5.204437315E0,-2.281448364E0,7.358306885E0,5.807189941E-1
5.209411680E0,-2.132598877E0,7.521728516E0,9.501037598E-1
5.214386045E0,-1.987319946E0,7.724533081E0,1.286834717E0
5.219360410E0,-1.818099976E0,7.972290039E0,1.631484985E0
5.224334776E0,-1.656372070E0,8.202651978E0,1.948150635E0
5.229309141E0,-1.483795166E0,8.424377441E0,2.202484131E0
5.234283506E0,-1.336715698E0,8.608459473E0,2.417755127E0
5.239257871E0,-1.222290039E0,8.809890747E0,2.596420288E0
5.244232236E0,-1.109664917E0,9.014236450E0,2.694137573E0
5.249206602E0,-9.467926025E-1,9.143692017E0,2.694900513E0
5.254180967E0,-7.090301514E-1,9.256805420E0,2.630432129E0
5.259155332E0,-4.914703369E-1,9.376800537E0,2.575500488E0
5.264129697E0,-3.521118164E-1,9.435440063E0,2.633987427E0
5.269104063E0,-1.701507568E-1,9.441909790E0,2.678558350E0
5.274078428E0,-5.642700195E-2,9.395217896E0,2.783630371E0
5.279052793E0,1.265716553E-1,9.329696655E0,2.936065674E0
5.284027158E0,1.570434570E-1,9.246765137E0,3.087387085E0
5.289001524E0,2.271270752E-1,9.162475586E0,3.314147949E0
5.293975889E0,3.640136719E-1,9.059661865E0,3.435806274E0
5.298950254E0,5.183715820E-1,8.920562744E0,3.522506714E0
5.303924619E0,6.423797607E-1,8.779571533E0,3.513137817E0
5.308898985E0,7.594146729E-1,8.633270264E0,3.484054565E0
5.313873350E0,8.399353027E-1,8.460235596E0,3.417312622E0
5.318847715E0,8.794555664E-1,8.266250610E0,3.332992554E0
5.323822080E0,8.920135498E-1,8.064834595E0,3.271469116E0
5.328796445E0,9.509124756E-1,7.889236450E0,3.213668823E0
5.333770811E0,1.065048218E0,7.780563354E0,3.137557983E0
5.338745176E0,1.134292603E0,7.656051636E0,3.106307983E0
5.343719541E0,1.171249390E0,7.586288452E0,3.094421387E0
5.348693906E0,1.224349976E0,7.523132324E0,3.085845947E0
5.353668272E0,1.305496216E0,7.514404297E0,3.052917480E0
5.358642637E0,1.303833008E0,7.492446899E0,2.986465454E0
5.363617002E0,1.300643921E0,7.544723511E0,2.962982178E0
5.368591367E0,1.229965210E0,7.603836060E0,2.964691162E0
5.373565733E0,1.116317749E0,7.626571655E0,3.035842896E0
5.378540098E0,1.047912598E0,7.680023193E0,3.147171021E0
5.383514463E0,9.343414307E-1,7.730667114E0,3.264266968E0
5.388488828E0,8.511047363E-1,7.748840332E0,3.304824829E0
5.393463193E0,7.166748047E-1,7.741806030E0,3.345687866E0
5.398437559E0,6.106719971E-1,7.690155029E0,3.425216675E0
5.403411924E0,5.997314453E-1,7.726593018E0,3.514083862E0
5.408386289E0,5.747375488E-1,7.774475098E0,3.574447632E0
5.413360654E0,5.261688232E-1,7.761535645E0,3.673889160E0
5.418335020E0,4.938964844E-1,7.744079590E0,3.762527466E0
5.423309385E0,4.769134521E-1,7.731277466E0,3.830810547E0
5.428283750E0,5.253753662E-1,7.729797363E0,3.894714355E0
5.433258115E0,6.455383301E-1,7.707885742E0,3.937866211E0
5.438232481E0,7.503356934E-1,7.710525513E0,3.965927124E0
5.443206846E0,8.526306152E-1,7.732498169E0,4.026550293E0
5.448181211E0,9.762268066E-1,7.715316772E0,4.033813477E0
5.453155576E0,1.060150146E0,7.706665039E0,4.091415405E0
5.458129942E0,1.253097534E0,7.717224121E0,4.094757080E0
5.463104307E0,1.363296509E0,7.692260742E0,4.110839844E0
5.468078672E0,1.302597046E0,7.740600586E0,4.187637329E0
5.473053037E0,1.291946411E0,7.773681641E0,4.262496948E0
5.478027402E0,1.310394287E0,7.809310913E0,4.319412231E0
5.483001768E0,1.363433838E0,7.820037842E0,4.253753662E0
5.487976133E0,1.379379272E0,7.863693237E0,4.146148682E0
5.492950498E0,1.387405396E0,7.879745483E0,4.029129028E0
5.497924863E0,1.381256104E0,7.874511719E0,3.927352905E0
5.502899229E0,1.354263306E0,7.875976562E0,3.821670532E0
5.507873594E0,1.340591431E0,7.904022217E0,3.727554321E0
5.512847959E0,1.334625244E0,7.891921997E0,3.644104004E0
5.517822324E0,1.279083252E0,7.886978149E0,3.553527832E0
5.522796690E0,1.224105835E0,7.900085449E0,3.458770752E0
5.527771055E0,1.189514160E0,7.932662964E0,3.356506348E0
5.532745420E0,1.177780151E0,7.942916870E0,3.247817993E0
5.537719785E0,1.195999146E0,7.923156738E0,3.140579224E0
5.542694151E0,1.191284180E0,7.901733398E0,3.018096924E0
5.547668516E0,1.160598755E0,7.836578369E0,2.936279297E0
5.552642881E0,1.183807373E0,7.808761597E0,2.897232056E0
5.557617246E0,1.148391724E0,7.711685181E0,2.855682373E0
5.562591611E0,1.126403809E0,7.657089233E0,2.854858398E0
5.567565977E0,1.103637695E0,7.636474609E0,2.873260498E0
5.572540342E0,1.063888550E0,7.630523682E0,2.959838867E0
5.577514707E0,1.021484375E0,7.713150024E0,3.061645508E0
5.582489072E0,9.158020020E-1,7.785491943E0,3.169769287E0
5.587463438E0,8.754272461E-1,7.924468994E0,3.255447388E0
5.592437803E0,8.846893311E-1,8.086730957E0,3.307067871E0
5.597412168E0,8.663330078E-1,8.238311768E0,3.353942871E0
5.602386533E0,8.298797607E-1,8.405029297E0,3.388671875E0
5.607360899E0,7.847442627E-1,8.621093750E0,3.471435547E0
5.612335264E0,7.295379639E-1,8.808273315E0,3.580261230E0
5.617309629E0,6.993408203E-1,8.955581665E0,3.618225098E0
5.622283994E0,6.347961426E-1,9.075424194E0,3.596252441E0
5.627258360E0,4.840240479E-1,9.138122559E0,3.507049561E0
5.632232725E0,2.530975342E-1,9.153808594E0,3.324630737E0
5.637207090E0,-3.736877441E-2,9.109481812E0,3.085739136E0
5.642181455E0,-3.447418213E-1,8.981124878E0,2.843338013E0
5.647155820E0,-6.440277100E-1,8.806823730E0,2.619750977E0
5.652130186E0,-9.159393311E-1,8.579803467E0,2.398742676E0
5.657104551E0,-1.083328247E0,8.400665283E0,2.259002686E0
5.662078916E0,-1.269454956E0,8.220230103E0,2.207580566E0
5.667053281E0,-1.441543579E0,8.166549683E0,2.145187378E0
5.672027647E0,-1.569030762E0,8.233795166E0,2.198059082E0
5.677002012E0,-1.692703247E0,8.476440430E0,2.282028198E0
5.681976377E0,-1.870407104E0,8.819366455E0,2.333984375E0
5.686950742E0,-2.006042480E0,9.266616821E0,2.414093018E0
5.691925108E0,-2.059677124E0,9.807617188E0,2.617263794E0
5.696899473E0,-1.989074707E0,1.033010864E1,2.810867310E0
5.701873838E0,-1.880386353E0,1.077581787E1,2.985702515E0
5.706848203E0,-1.671752930E0,1.113525391E1,3.181747437E0
5.711822568E0,-1.385787964E0,1.143733215E1,3.435775757E0
5.716796934E0,-1.229568481E0,1.164033508E1,3.657592773E0
5.721771299E0,-1.082122803E0,1.169154358E1,3.854934692E0
5.726745664E0,-8.991546631E-1,1.159941101E1,4.052185059E0
5.731720029E0,-7.005767822E-1,1.140690613E1,4.181777954E0
5.736694395E0,-4.778289795E-1,1.116490173E1,4.184844971E0
5.741668760E0,-2.478942871E-1,1.090385437E1,4.000686646E0
5.746643125E0,-5.027770996E-2,1.057690430E1,3.681808472E0
5.751617490E0,5.926513672E-2,1.025924683E1,3.252059937E0
5.756591856E0,1.803436279E-1,1.003671265E1,2.751831055E0
5.761566221E0,3.176727295E-1,9.811569214E0,2.225082397E0
5.766540586E0,4.143371582E-1,9.687728882E0,1.691604614E0
5.771514951E0,4.902648926E-1,9.574523926E0,1.288375854E0
5.776489317E0,4.963836670E-1,9.426910400E0,1.014831543E0
5.781463682E0,4.350433350E-1,9.272018433E0,7.382202148E-1
5.786438047E0,2.938079834E-1,9.078048706E0,5.300445557E-1
5.791412412E0,1.649169922E-1,8.873535156E0,4.933929443E-1
5.796386777E0,3.778076172E-2,8.709289551E0,5.321655273E-1
5.801361143E0,-8.120727539E-2,8.565368652E0,6.616058350E-1
5.806335508E0,-3.015136719E-1,8.408828735E0,8.091430664E-1
5.811309873E0,-5.531616211E-1,8.238662720E0,9.472656250E-1
5.816284238E0,-7.763061523E-1,8.024429321E0,1.120361328E0
5.821258604E0,-8.993225098E-1,7.788650513E0,1.302337646E0
5.826232969E0,-8.431091309E-1,7.582656860E0,1.503952026E0
5.831207334E0,-7.067871094E-1,7.387115479E0,1.638198853E0
5.836181699E0,-5.283660889E-1,7.217285156E0,1.702056885E0
5.841156065E0,-2.070922852E-1,7.134826660E0,1.694091797E0
5.846130430E0,2.931213379E-1,7.147552490E0,1.607482910E0
5.851104795E0,8.452148438E-1,7.239700317E0,1.447296143E0
5.856079160E0,1.194396973E0,7.486770630E0,1.241180420E0
5.861053526E0,1.509155273E0,7.845718384E0,9.331970215E-1
5.866027891E0,1.704299927E0,8.203598022E0,6.533813477E-1
5.871002256E0,1.847427368E0,8.585021973E0,4.562072754E-1
5.875976621E0,2.014038086E0,9.104309082E0,4.452667236E-1
5.880950986E0,1.929824829E0,9.515777588E0,5.425415039E-1
5.885925352E0,1.857391357E0,9.983062744E0,8.292236328E-1
5.890899717E0,1.757080078E0,1.034709167E1,1.245880127E0
5.895874082E0,1.690322876E0,1.061763000E1,1.674179077E0
5.900848447E0,1.644561768E0,1.079733276E1,1.958129883E0
5.905822813E0,1.652542114E0,1.091893005E1,2.165939331E0
5.910797178E0,1.642578125E0,1.100434875E1,2.281753540E0
5.915771543E0,1.522949219E0,1.108073425E1,2.373535156E0
5.920745908E0,1.410751343E0,1.112634277E1,2.460617065E0
5.925720274E0,1.361129761E0,1.110058594E1,2.518798828E0
5.930694639E0,1.338241577E0,1.102015686E1,2.536621094E0
5.935669004E0,1.304534912E0,1.085661316E1,2.552658081E0
5.940643369E0,1.267913818E0,1.066215515E1,2.547286987E0
5.945617735E0,1.225112915E0,1.045968628E1,2.528411865E0
5.950592100E0,1.085433960E0,1.023718262E1,2.456970215E0
5.955566465E0,9.570312500E-1,1.001287842E1,2.345626831E0
5.960540830E0,8.130493164E-1,9.814239502E0,2.220672607E0
5.965515195E0,6.607208252E-1,9.614532471E0,2.114883423E0
5.970489561E0,5.027313232E-1,9.447174072E0,2.010009766E0
5.975463926E0,4.028167725E-1,9.340591431E0,1.953277588E0
5.980438291E0,3.590545654E-1,9.213195801E0,1.814895630E0
5.985412656E0,3.434143066E-1,9.132781982E0,1.657135010E0
5.990387022E0,3.427581787E-1,9.049560547E0,1.555389404E0
5.995361387E0,4.817504883E-1,8.947570801E0,1.530395508E0
6.000335752E0,6.201171875E-1,8.820251465E0,1.487777710E0
6.005310117E0,7.721710205E-1,8.661560059E0,1.363204956E0
6.010284483E0,9.112243652E-1,8.461990356E0,1.209503174E0
6.015258848E0,1.077514648E0,8.286224365E0,1.074691772E0
6.020233213E0,1.291473389E0,8.164794922E0,9.854888916E-1
6.025207578E0,1.499923706E0,8.110855103E0,9.099731445E-1
6.030181943E0,1.633209229E0,8.057662964E0,8.256683350E-1
6.035156309E0,1.705062866E0,7.993164062E0,7.281799316E-1
6.040130674E0,1.759979248E0,7.909088135E0,6.516418457E-1
6.045105039E0,1.770050049E0,7.795196533E0,6.425781250E-1
6.050079404E0,1.757263184E0,7.668395996E0,6.542205811E-1
6.055053770E0,1.759582520E0,7.570541382E0,7.342987061E-1
6.060028135E0,1.650314331E0,7.413986206E0,8.700408936E-1
6.065002500E0,1.532516479E0,7.289047241E0,1.041809082E0
6.069976865E0,1.499008179E0,7.172882080E0,1.140243530E0
6.074951231E0,1.362350464E0,7.050704956E0,1.163589478E0
6.079925596E0,1.192352295E0,6.935867310E0,1.237640381E0
6.084899961E0,9.787597656E-1,6.811477661E0,1.296478271E0
6.089874326E0,7.094116211E-1,6.701431274E0,1.216690063E0
6.094848692E0,4.513244629E-1,6.582962036E0,1.037857056E0
6.099823057E0,1.781311035E-1,6.500976562E0,9.023895264E-1
6.104797422E0,-1.451110840E-1,6.510299683E0,7.172088623E-1
6.109771787E0,-5.246429443E-1,6.540298462E0,5.065307617E-1
6.114746152E0,-9.237670898E-1,6.607177734E0,3.197631836E-1
6.119720518E0,-1.360534668E0,6.664062500E0,1.600952148E-1
6.124694883E0,-1.789978027E0,6.693466187E0,1.204071045E-1
6.129669248E0,-2.115692139E0,6.755798340E0,2.737884521E-1
6.134643613E0,-2.226623535E0,6.862731934E0,6.171417236E-1
6.139617979E0,-2.162582397E0,7.017318726E0,1.024383545E0
6.144592344E0,-1.948379517E0,7.208877563E0,1.476654053E0
6.149566709E0,-1.560714722E0,7.381179810E0,1.826034546E0
6.154541074E0,-1.056182861E0,7.542922974E0,1.877960205E0
6.159515440E0,-4.704589844E-1,7.771148682E0,1.590362549E0
6.164489805E0,2.310028076E-1,8.002822876E0,1.208663940E0
6.169464170E0,9.794769287E-1,8.283126831E0,9.919891357E-1
6.174438535E0,1.698165894E0,8.572799683E0,1.056259155E0
6.179412901E0,1.913604736E0,8.757019043E0,1.106384277E0
6.184387266E0,1.945693970E0,8.836959839E0,1.468994141E0
6.189361631E0,1.992614746E0,8.831069946E0,2.009658813E0
6.194335996E0,1.937774658E0,8.664245605E0,2.375549316E0
6.199310361E0,1.701812744E0,8.377166748E0,2.472839355E0
6.204284727E0,1.133575439E0,7.879837036E0,2.148101807E0
6.209259092E0,6.632537842E-1,7.420364380E0,1.733398438E0
6.214233457E0,1.328887939E-1,6.971511841E0,1.249343872E0
6.219207822E0,-2.859344482E-1,6.581710815E0,9.411315918E-1
6.224182188E0,-7.002868652E-1,6.175170898E0,7.602539062E-1
6.229156553E0,-1.035186768E0,5.861587524E0,5.696868896E-1
6.234130918E0,-1.394424438E0,5.442153931E0,1.719665527E-1
6.239105283E0,-1.565292358E0,5.328765869E0,-5.667114258E-1
6.244079649E0,-1.814392090E0,5.772232056E0,-1.575622559E0
6.249054014E0,-1.864151001E0,7.514663696E0,-2.588607788E0
6.254028379E0,-1.796142578E0,1.023028564E1,-3.230270386E0
6.259002744E0,-2.135742188E0,1.360116577E1,-3.291976929E0
6.263977110E0,-2.927520752E0,1.676773071E1,-2.086257935E0
6.268951475E0,-2.670501709E0,1.891090393E1,-8.833465576E-1
6.273925840E0,-1.493148804E0,1.986997986E1,-1.394409180E0
6.278900205E0,-5.343475342E-1,2.033534241E1,-3.545715332E0
6.283874570E0,-2.346343994E-1,2.064361572E1,-6.093276978E0
6.288848936E0,-2.487487793E-1,2.048796082E1,-7.193145752E0
6.293823301E0,-8.270263672E-3,1.960685730E1,-6.348175049E0
6.298797666E0,1.731872559E-2,1.843917847E1,-4.725051880E0
6.303772031E0,-6.500396729E-1,1.731425476E1,-2.903640747E0
6.308746397E0,-1.760299683E0,1.627705383E1,-1.397277832E0
6.313720762E0,-2.473190308E0,1.539315796E1,-1.092529297E-1
6.318695127E0,-2.453979492E0,1.463024902E1,1.114425659E0
6.323669492E0,-2.079513550E0,1.413418579E1,1.920776367E0
6.328643858E0,-1.968872070E0,1.389726257E1,2.174667358E0
6.333618223E0,-2.356842041E0,1.377316284E1,1.905563354E0
6.338592588E0,-3.011398315E0,1.365785217E1,1.451660156E0
6.343566953E0,-3.366378784E0,1.354028320E1,1.024414062E0
6.348541318E0,-3.447692871E0,1.331581116E1,6.903381348E-1
6.353515684E0,-3.816589355E0,1.270391846E1,4.980468750E-1
6.358490049E0,-4.053482056E0,1.179808044E1,7.354125977E-1
6.363464414E0,-3.863113403E0,1.065406799E1,1.337875366E0
6.368438779E0,-4.060760498E0,9.235809326E0,2.170440674E0
6.373413145E0,-4.343612671E0,7.939529419E0,3.092742920E0
6.378387510E0,-3.704833984E0,6.957290649E0,3.736694336E0
6.383361875E0,-2.505615234E0,6.454498291E0,3.930206299E0
6.388336240E0,-1.257904053E0,6.211380005E0,3.961044312E0
6.393310606E0,-3.557891846E-1,6.075057983E0,3.922241211E0
6.398284971E0,8.033752441E-2,6.080612183E0,3.683105469E0
6.403259336E0,2.210083008E-1,6.257553101E0,3.138061523E0
6.408233701E0,3.115692139E-1,6.593322754E0,2.465576172E0
6.413208067E0,3.661193848E-1,6.963760376E0,1.914367676E0
6.418182432E0,4.488830566E-1,7.283264160E0,1.737686157E0
6.423156797E0,4.748229980E-1,7.568130493E0,1.828781128E0
6.428131162E0,1.131896973E-1,7.728302002E0,1.840179443E0
6.433105527E0,-1.628265381E-1,7.886688232E0,1.864517212E0
6.438079893E0,-2.109680176E-1,8.148925781E0,1.870468140E0
6.443054258E0,-2.838745117E-1,8.399795532E0,1.741668701E0
6.448028623E0,-4.751892090E-1,8.556259155E0,1.590362549E0
6.453002988E0,-7.555084229E-1,8.613311768E0,1.386505127E0
6.457977354E0,-9.707641602E-1,8.656097412E0,1.240234375E0
6.462951719E0,-1.182952881E0,8.717498779E0,1.076690674E0
6.467926084E0,-1.346084595E0,8.762634277E0,8.873291016E-1
6.472900449E0,-1.481750488E0,8.797653198E0,6.725769043E-1
6.477874815E0,-1.608245850E0,8.823593140E0,4.545593262E-1
6.482849180E0,-1.699813843E0,8.790847778E0,2.685241699E-1
6.487823545E0,-1.828598022E0,8.667114258E0,6.948852539E-2
6.492797910E0,-1.950866699E0,8.455993652E0,-5.258178711E-2
6.497772276E0,-2.079437256E0,8.194992065E0,-8.662414551E-2
6.502746641E0,-2.184204102E0,7.936355591E0,-8.253479004E-2
6.507721006E0,-2.297424316E0,7.684707642E0,1.132202148E-2
6.512695371E0,-2.310913086E0,7.384963989E0,2.984619141E-1
6.517669736E0,-2.207458496E0,7.059127808E0,6.492919922E-1
6.522644102E0,-2.108703613E0,6.775573730E0,1.070632935E0
6.527618467E0,-2.076538086E0,6.534194946E0,1.537933350E0
6.532592832E0,-2.044296265E0,6.398498535E0,1.915756226E0
6.537567197E0,-1.973770142E0,6.362731934E0,2.172042847E0
6.542541563E0,-2.038391113E0,6.402267456E0,2.376800537E0
6.547515928E0,-2.045272827E0,6.562500000E0,2.467208862E0
6.552490293E0,-1.880279541E0,6.763610840E0,2.434249878E0
6.557464658E0,-1.739395142E0,6.986419678E0,2.381988525E0
6.562439024E0,-1.603576660E0,7.056915283E0,2.362228394E0
6.567413389E0,-1.457122803E0,7.132369995E0,2.370315552E0
6.572387754E0,-1.360107422E0,7.085723877E0,2.466964722E0
6.577362119E0,-1.274047852E0,7.072372437E0,2.587203979E0
6.582336485E0,-1.184539795E0,7.007003784E0,2.787719727E0
6.587310850E0,-1.098999023E0,6.896835327E0,2.964767456E0
6.592285215E0,-9.494934082E-1,6.841201782E0,3.179382324E0
6.597259580E0,-7.633209229E-1,6.800689697E0,3.450439453E0
6.602233945E0,-6.118164062E-1,6.752609253E0,3.668334961E0
6.607208311E0,-4.350280762E-1,6.746749878E0,3.787582397E0
6.612182676E0,-2.321624756E-1,6.744506836E0,3.830764771E0
6.617157041E0,-1.756286621E-2,6.725830078E0,3.838989258E0
6.622131406E0,2.305603027E-1,6.770843506E0,3.826995850E0
6.627105772E0,4.845275879E-1,6.862945557E0,3.830139160E0
6.632080137E0,7.686157227E-1,6.986846924E0,3.817184448E0
6.637054502E0,1.104934692E0,7.194366455E0,3.770950317E0
6.642028867E0,1.413269043E0,7.404541016E0,3.738189697E0
6.647003233E0,1.639450073E0,7.585769653E0,3.690948486E0
6.651977598E0,1.861984253E0,7.733444214E0,3.706115723E0
6.656951963E0,2.021133423E0,7.849899292E0,3.626342773E0
6.661926328E0,2.061111450E0,7.894638062E0,3.639526367E0
6.666900693E0,2.130615234E0,7.889526367E0,3.638946533E0
6.671875059E0,2.121322632E0,7.867828369E0,3.617431641E0
6.676849424E0,2.096633911E0,7.851669312E0,3.617416382E0
6.681823789E0,2.094879150E0,7.798416138E0,3.671478271E0
6.686798154E0,2.001770020E0,7.695678711E0,3.668777466E0
6.691772520E0,1.822280884E0,7.615097046E0,3.703826904E0
6.696746885E0,1.693084717E0,7.505477905E0,3.774276733E0
6.701721250E0,1.623336792E0,7.424911499E0,3.824707031E0
6.706695615E0,1.478240967E0,7.387878418E0,3.844894409E0
6.711669981E0,1.380035400E0,7.378723145E0,3.858779907E0
6.716644346E0,1.317214966E0,7.371261597E0,3.829666138E0
6.721618711E0,1.255508423E0,7.394348145E0,3.765975952E0
6.726593076E0,1.233932495E0,7.478546143E0,3.724349976E0
6.731567442E0,1.248107910E0,7.597274780E0,3.692031860E0
6.736541807E0,1.278900146E0,7.726791382E0,3.640335083E0
6.741516172E0,1.307189941E0,7.915191650E0,3.586441040E0
6.746490537E0,1.322433472E0,8.155364990E0,3.466491699E0
6.751464902E0,1.330825806E0,8.406585693E0,3.346984863E0
6.756439268E0,1.409500122E0,8.640441895E0,3.266799927E0
6.761413633E0,1.474121094E0,8.883666992E0,3.221817017E0
6.766387998E0,1.564849854E0,9.128692627E0,3.139923096E0
6.771362363E0,1.610595703E0,9.280487061E0,3.152755737E0
6.776336729E0,1.679748535E0,9.468383789E0,3.213241577E0
6.781311094E0,1.656448364E0,9.604293823E0,3.348159790E0
6.786285459E0,1.662673950E0,9.679489136E0,3.406280518E0
6.791259824E0,1.647827148E0,9.689117432E0,3.465347290E0
6.796234190E0,1.598419189E0,9.638931274E0,3.535659790E0
6.801208555E0,1.511749268E0,9.549316406E0,3.638595581E0
6.806182920E0,1.407882690E0,9.404006958E0,3.755630493E0
6.811157285E0,1.306076050E0,9.259887695E0,3.902023315E0
6.816131651E0,1.212936401E0,9.096252441E0,4.033996582E0
6.821106016E0,1.127578735E0,8.904174805E0,4.161132812E0
6.826080381E0,1.007354736E0,8.678909302E0,4.281738281E0
6.831054746E0,9.001464844E-1,8.498214722E0,4.400375366E0
6.836029111E0,8.485107422E-1,8.344512939E0,4.454681396E0
6.841003477E0,8.146514893E-1,8.261627197E0,4.380706787E0
6.845977842E0,7.582702637E-1,8.245330811E0,4.248947144E0
6.850952207E0,6.995697021E-1,8.313781738E0,4.184020996E0
6.855926572E0,7.194976807E-1,8.512420654E0,4.104797363E0
6.860900938E0,7.658233643E-1,8.769317627E0,3.931335449E0
6.865875303E0,7.838134766E-1,9.103805542E0,3.710968018E0
6.870849668E0,7.859497070E-1,9.414398193E0,3.491317749E0
6.875824033E0,7.751617432E-1,9.799774170E0,3.284286499E0
6.880798399E0,7.138214111E-1,1.017018127E1,3.227981567E0
6.885772764E0,6.583862305E-1,1.054315186E1,3.130722046E0
6.890747129E0,4.526824951E-1,1.090414429E1,2.989913940E0
6.895721494E0,1.734313965E-1,1.120367432E1,2.792724609E0
6.900695860E0,-1.832885742E-1,1.145606995E1,2.531204224E0
6.905670225E0,-5.469818115E-1,1.166178894E1,2.286346436E0
6.910644590E0,-8.684844971E-1,1.174465942E1,2.105361938E0
6.915618955E0,-1.033859253E0,1.167414856E1,2.078094482E0
6.920593320E0,-1.059310913E0,1.145222473E1,2.287292480E0
6.925567686E0,-9.311676025E-1,1.116650391E1,2.642257690E0
6.930542051E0,-8.033142090E-1,1.095223999E1,2.922622681E0
6.935516416E0,-8.017272949E-1,1.083465576E1,3.034652710E0
6.940490781E0,-8.715515137E-1,1.070585632E1,3.210449219E0
6.945465147E0,-8.868713379E-1,1.051159668E1,3.456497192E0
6.950439512E0,-8.507537842E-1,1.023135376E1,3.651855469E0
6.955413877E0,-8.325195312E-1,9.876770020E0,3.772674561E0
6.960388242E0,-8.314056396E-1,9.411834717E0,3.890502930E0
6.965362608E0,-7.389678955E-1,8.905487061E0,3.912551880E0
6.970336973E0,-8.711700439E-1,8.234558105E0,3.899673462E0
6.975311338E0,-1.004119873E0,7.405334473E0,3.717376709E0
6.980285703E0,-1.247177124E0,6.484802246E0,3.470382690E0
6.985260068E0,-1.406280518E0,5.599655151E0,3.159805298E0
6.990234434E0,-1.370727539E0,5.006072998E0,2.807708740E0
6.995208799E0,-1.287536621E0,4.803634644E0,2.486831665E0
7.000183164E0,-1.211013794E0,4.935913086E0,2.084426880E0
7.005157529E0,-1.203842163E0,5.238342285E0,1.550369263E0
7.010131895E0,-1.305221558E0,5.563980103E0,1.012680054E0
7.015106260E0,-1.379211426E0,5.975326538E0,4.330749512E-1
7.020080625E0,-1.299865723E0,6.557998657E0,-1.045684814E-1
7.025054990E0,-1.059204102E0,7.271072388E0,-5.348968506E-1
7.030029356E0,-7.660064697E-1,8.045898438E0,-7.925415039E-1
7.035003721E0,-4.856719971E-1,8.840332031E0,-8.282318115E-1
7.039978086E0,-1.585998535E-1,9.551681519E0,-6.380310059E-1
7.044952451E0,1.920166016E-1,1.020167542E1,-4.090728760E-1
7.049926817E0,5.362243652E-1,1.073431396E1,-2.546386719E-1
7.054901182E0,8.455963135E-1,1.117268372E1,-2.212524414E-1
7.059875547E0,1.242706299E0,1.144300842E1,-8.091735840E-2
7.064849912E0,1.603240967E0,1.152877808E1,4.483032227E-2
7.069824277E0,1.786254883E0,1.146368408E1,2.533874512E-1
7.074798643E0,1.805099487E0,1.128196716E1,4.323730469E-1
7.079773008E0,1.636825562E0,1.109173584E1,5.579833984E-1
7.084747373E0,1.281372070E0,1.088899231E1,7.165832520E-1
7.089721738E0,9.543762207E-1,1.071679688E1,8.854064941E-1
7.094696104E0,7.722473145E-1,1.053738403E1,9.691314697E-1
7.099670469E0,6.701812744E-1,1.033596802E1,9.903869629E-1
7.104644834E0,6.084594727E-1,1.007559204E1,1.031997681E0
7.109619199E0,5.052032471E-1,9.768905640E0,1.020462036E0
7.114593565E0,3.592071533E-1,9.468994141E0,9.310302734E-1
7.119567930E0,2.144165039E-1,9.215103149E0,8.792266846E-1
7.124542295E0,6.460571289E-2,9.016265869E0,8.674163818E-1
7.129516660E0,-1.698303223E-2,8.828750610E0,9.237365723E-1
7.134491026E0,-4.867553711E-2,8.642761230E0,9.577789307E-1
7.139465391E0,-1.094055176E-1,8.485458374E0,9.249114990E-1
7.144439756E0,-1.489105225E-1,8.359176636E0,8.890228271E-1
7.149414121E0,-2.452697754E-1,8.319198608E0,8.666992188E-1
7.154388486E0,-3.713378906E-1,8.403961182E0,9.956207275E-1
7.159362852E0,-4.139862061E-1,8.534713745E0,1.114196777E0
7.164337217E0,-2.582702637E-1,8.684082031E0,1.263442993E0
7.169311582E0,-1.486206055E-1,8.828811646E0,1.241622925E0
7.174285947E0,6.385803223E-2,9.073150635E0,1.190200806E0
7.179260313E0,3.067779541E-1,9.344802856E0,1.094604492E0
7.184234678E0,5.520172119E-1,9.649337769E0,9.101867676E-1
7.189209043E0,7.993774414E-1,9.961868286E0,6.843261719E-1
7.194183408E0,1.087707520E0,1.020845032E1,4.649505615E-1
7.199157774E0,1.310485840E0,1.043692017E1,2.969512939E-1
7.204132139E0,1.500518799E0,1.062844849E1,1.183013916E-1
7.209106504E0,1.671173096E0,1.072877502E1,-7.528686523E-2
7.214080869E0,1.819686890E0,1.076066589E1,-1.982421875E-1
7.219055235E0,1.943527222E0,1.072499084E1,-2.426147461E-1
7.224029600E0,2.010787964E0,1.061701965E1,-2.553558350E-1
7.229003965E0,1.987457275E0,1.041685486E1,-2.962951660E-1
7.233978330E0,1.913360596E0,1.012983704E1,-3.464050293E-1
7.238952695E0,1.869720459E0,9.825424194E0,-2.764892578E-1
7.243927061E0,1.824005127E0,9.511672974E0,-1.595306396E-1
7.248901426E0,1.777816772E0,9.244262695E0,-4.541015625E-2
7.253875791E0,1.747863770E0,9.020477295E0,8.755493164E-2
7.258850156E0,1.713439941E0,8.812057495E0,2.134399414E-1
7.263824522E0,1.664077759E0,8.537734985E0,2.495727539E-1
7.268798887E0,1.626220703E0,8.362564087E0,3.171081543E-1
7.273773252E0,1.545318604E0,8.209091187E0,3.370666504E-1
7.278747617E0,1.481262207E0,8.098236084E0,3.704376221E-1
7.283721983E0,1.408309937E0,7.994338989E0,3.634185791E-1
7.288696348E0,1.314331055E0,7.955657959E0,3.532714844E-1
7.293670713E0,1.146530151E0,7.971160889E0,3.575592041E-1
7.298645078E0,9.688415527E-1,8.014938354E0,3.872375488E-1
7.303619443E0,8.299255371E-1,8.089797974E0,4.770812988E-1
7.308593809E0,7.021179199E-1,8.168487549E0,5.262298584E-1
7.313568174E0,5.385437012E-1,8.262939453E0,5.050201416E-1
7.318542539E0,3.515625000E-1,8.337768555E0,4.613494873E-1
7.323516904E0,2.208862305E-1,8.428924561E0,3.458251953E-1
7.328491270E0,1.611633301E-1,8.508789062E0,2.134246826E-1
7.333465635E0,1.556854248E-1,8.566360474E0,8.386230469E-2
7.338440000E0,1.646270752E-1,8.607162476E0,-3.372192383E-2
7.343414365E0,1.162261963E-1,8.605728149E0,-1.598663330E-1
7.348388731E0,9.596252441E-2,8.554138184E0,-2.167968750E-1
7.353363096E0,2.027587891E-1,8.459487915E0,-1.681671143E-1
7.358337461E0,2.393951416E-1,8.381729126E0,-5.503845215E-2
7.363311826E0,1.637725830E-1,8.244079590E0,6.336975098E-2
7.368286192E0,1.278839111E-1,8.176986694E0,2.259216309E-1
7.373260557E0,9.048461914E-2,8.136550903E0,6.930847168E-1
7.378234922E0,1.291503906E-1,8.183670044E0,5.663909912E-1
7.383209287E0,6.140136719E-2,8.081771851E0,5.899658203E-1
7.388183652E0,-3.128051758E-2,7.913665771E0,1.059997559E0
7.393158018E0,2.519226074E-2,7.733932495E0,1.501983643E0
7.398132383E0,1.224670410E-1,7.510589600E0,1.780868530E0
7.403106748E0,-1.064910889E-1,7.104843140E0,1.754913330E0
7.408081113E0,-9.587097168E-2,6.729019165E0,1.830001831E0
7.413055479E0,-4.914855957E-2,6.358825684E0,1.876129150E0
7.418029844E0,-6.440734863E-2,5.984298706E0,1.865356445E0
7.423004209E0,1.116790771E-1,5.723541260E0,1.966751099E0
7.427978574E0,3.661041260E-1,5.582489014E0,2.014495850E0
7.432952940E0,3.244934082E-1,5.397048950E0,1.842956543E0
7.437927305E0,4.149627686E-1,5.348693848E0,1.639709473E0
7.442901670E0,8.601684570E-1,5.537277222E0,1.384033203E0
7.447876035E0,1.353836060E0,5.822006226E0,1.049530029E0
7.452850401E0,1.807327271E0,6.114334106E0,6.892700195E-1
7.457824766E0,2.186691284E0,6.394805908E0,3.132171631E-1
7.462799131E0,2.604415894E0,6.671691895E0,1.112670898E-1
7.467773496E0,2.951065063E0,6.938995361E0,-1.308288574E-1
7.472747861E0,3.260696411E0,7.091217041E0,-3.512725830E-1
7.477722227E0,3.371688843E0,7.101943970E0,-4.305877686E-1
7.482696592E0,3.351669312E0,6.983901978E0,-3.831024170E-1
7.487670957E0,3.205932617E0,6.724258423E0,-1.396026611E-1
7.492645322E0,2.965744019E0,6.427551270E0,2.143707275E-1
7.497619688E0,2.073013306E0,5.803878784E0,3.673248291E-1
7.502594053E0,1.261672974E0,5.377761841E0,5.033874512E-1
7.507568418E0,6.147766113E-1,5.079788208E0,4.646453857E-1
7.512542783E0,3.972778320E-1,5.081619263E0,2.397766113E-1
7.517517149E0,1.560668945E-1,5.330062866E0,-1.897125244E-1
7.522491514E0,-1.975402832E-1,6.245941162E0,-7.010803223E-1
7.527465879E0,-4.671478271E-1,8.316070557E0,-1.084014893E0
7.532440244E0,-1.112503052E0,1.127832031E1,-1.332946777E0
7.537414610E0,-2.520477295E0,1.447698975E1,-1.212295532E0
7.542388975E0,-3.723739624E0,1.736026001E1,-4.628143311E-1
7.547363340E0,-3.656707764E0,1.957110596E1,2.015075684E-1
7.552337705E0,-3.373275757E0,2.064999390E1,-1.849975586E-1
7.557312070E0,-3.087570190E0,2.169744873E1,-1.228408813E0
7.562286436E0,-3.097259521E0,2.245332336E1,-2.734893799E0
7.567260801E0,-3.375000000E0,2.270416260E1,-3.999099731E0
7.572235166E0,-3.631866455E0,2.156311035E1,-4.259399414E0
7.577209531E0,-3.175842285E0,1.904745483E1,-3.469177246E0
7.582183897E0,-3.109222412E0,1.641969299E1,-2.119674683E0
7.587158262E0,-3.275741577E0,1.472663879E1,-8.565979004E-1
7.592132627E0,-3.327972412E0,1.366734314E1,2.447662354E-1
7.597106992E0,-3.200851440E0,1.307615662E1,1.159988403E0
7.602081358E0,-3.083450317E0,1.300939941E1,1.433929443E0
7.607055723E0,-3.040786743E0,1.321827698E1,1.059829712E0
7.612030088E0,-2.954360962E0,1.347676086E1,3.137969971E-1
7.617004453E0,-2.517639160E0,1.371241760E1,-3.196411133E-1
7.621978818E0,-1.966445923E0,1.374807739E1,-6.701049805E-1
7.626953184E0,-1.692977905E0,1.352529907E1,-7.854766846E-1
7.631927549E0,-1.936233521E0,1.301075745E1,-6.314544678E-1
7.636901914E0,-2.717330933E0,1.219810486E1,-1.201477051E-1
7.641876279E0,-2.905807495E0,1.123915100E1,7.662353516E-1
7.646850645E0,-2.898437500E0,1.018499756E1,2.063613892E0
7.651825010E0,-2.870910645E0,9.188140869E0,3.392852783E0
7.656799375E0,-2.112350464E0,8.446685791E0,4.196701050E0
7.661773740E0,-9.011840820E-1,8.064865112E0,4.347335815E0
7.666748106E0,-1.535339355E-1,7.680435181E0,3.836135864E0
7.671722471E0,4.288330078E-1,7.332412720E0,3.289764404E0
7.676696836E0,1.096954346E0,7.266815186E0,2.828582764E0
7.681671201E0,1.749832153E0,7.342468262E0,2.505737305E0
7.686645567E0,2.253982544E0,7.563323975E0,2.413711548E0
7.691619932E0,2.383071899E0,7.738815308E0,2.357742310E0
7.696594297E0,2.020538330E0,7.783493042E0,2.402389526E0
7.701568662E0,1.463241577E0,7.784133911E0,2.640228271E0
7.706543027E0,9.046478271E-1,7.751785278E0,2.811401367E0
7.711517393E0,5.635223389E-1,7.679046631E0,2.892990112E0
7.716491758E0,4.426574707E-1,7.647781372E0,2.858093262E0
7.721466123E0,3.172454834E-1,7.662429810E0,2.581329346E0
7.726440488E0,2.331695557E-1,7.694915771E0,2.258193970E0
7.731414854E0,1.641845703E-1,7.720108032E0,2.012466431E0
7.736389219E0,5.601501465E-2,7.766082764E0,1.705368042E0
7.741363584E0,-5.784606934E-2,7.822052002E0,1.335906982E0
7.746337949E0,-1.609497070E-1,7.889556885E0,9.276275635E-1
7.751312315E0,-2.695922852E-1,7.961761475E0,5.338897705E-1
7.756286680E0,-3.982696533E-1,7.989608765E0,1.641540527E-1
7.761261045E0,-5.196075439E-1,8.043151855E0,-1.176452637E-1
7.766235410E0,-7.388610840E-1,8.076705933E0,-3.723907471E-1
7.771209776E0,-9.244079590E-1,8.006393433E0,-4.571990967E-1
7.776184141E0,-1.117340088E0,7.844390869E0,-3.739318848E-1
7.781158506E0,-1.301712036E0,7.628463745E0,-5.682373047E-2
7.786132871E0,-1.413116455E0,7.421890259E0,3.678283691E-1
7.791107236E0,-1.584381104E0,7.227233887E0,7.980957031E-1
7.796081602E0,-1.787628174E0,7.016311646E0,1.170013428E0
7.801055967E0,-1.969757080E0,6.893218994E0,1.429061890E0
7.806030332E0,-2.174102783E0,6.874740601E0,1.505340576E0
7.811004697E0,-2.266525269E0,6.915634155E0,1.475112915E0
7.815979063E0,-2.138946533E0,7.054214478E0,1.261337280E0
7.820953428E0,-1.960937500E0,7.225112915E0,9.615173340E-1
7.825927793E0,-1.800262451E0,7.362518311E0,7.701721191E-1
7.830902158E0,-1.665283203E0,7.503723145E0,6.584930420E-1
7.835876524E0,-1.584121704E0,7.685775757E0,7.125091553E-1
7.840850889E0,-1.526962280E0,7.838409424E0,8.531951904E-1
7.845825254E0,-1.481872559E0,7.980087280E0,1.060699463E0
7.850799619E0,-1.445480347E0,8.112792969E0,1.343658447E0
7.855773985E0,-1.425903320E0,8.187683105E0,1.705215454E0
7.860748350E0,-1.346878052E0,8.229644775E0,1.980636597E0
7.865722715E0,-1.376663208E0,8.150711060E0,2.270629883E0
7.870697080E0,-1.278762817E0,8.059402466E0,2.486526489E0
7.875671445E0,-1.063507080E0,7.997390747E0,2.654724121E0
7.880645811E0,-8.244323730E-1,7.995910645E0,2.722259521E0
7.885620176E0,-6.015930176E-1,8.013717651E0,2.737564087E0
7.890594541E0,-4.061126709E-1,8.039352417E0,2.770828247E0
7.895568906E0,-2.512817383E-1,8.053070068E0,2.779983521E0
7.900543272E0,-8.485412598E-2,8.059509277E0,2.824737549E0
7.905517637E0,1.277465820E-1,8.065673828E0,2.946731567E0
7.910492002E0,3.143615723E-1,8.088027954E0,3.178970337E0
7.915466367E0,5.288543701E-1,8.150985718E0,3.565063477E0
7.920440733E0,7.829437256E-1,8.258056641E0,4.022827148E0
7.925415098E0,1.036407471E0,8.475769043E0,4.493682861E0
7.930389463E0,1.221710205E0,8.812103271E0,4.773666382E0
7.935363828E0,1.430770874E0,9.156356812E0,4.847732544E0
7.940338193E0,1.817108154E0,9.421417236E0,4.851593018E0
7.945312559E0,2.260864258E0,9.691070557E0,4.840591431E0
7.950286924E0,2.623748779E0,9.800781250E0,4.720138550E0
7.955261289E0,2.818786621E0,9.719863892E0,4.411346436E0
7.960235654E0,2.968078613E0,9.497787476E0,4.057876587E0
7.965210020E0,3.188827515E0,9.139175415E0,3.717346191E0
7.970184385E0,3.347091675E0,8.664199829E0,3.356216431E0
7.975158750E0,3.399826050E0,8.205245972E0,2.965927124E0
7.980133115E0,3.323410034E0,7.818511963E0,2.714477539E0
7.985107481E0,3.118469238E0,7.521621704E0,2.695739746E0
7.990081846E0,2.875656128E0,7.367568970E0,2.849151611E0
7.995056211E0,2.496200562E0,7.233932495E0,3.026412964E0
8.000030576E0,2.029159546E0,7.093124390E0,3.211868286E0
8.005004942E0,1.611404419E0,6.934936523E0,3.408416748E0
8.009979307E0,1.209274292E0,6.689086914E0,3.617477417E0
8.014953672E0,1.074676514E0,6.563873291E0,3.678009033E0
8.019928037E0,1.232208252E0,6.600158691E0,3.639389038E0
8.024902402E0,1.267700195E0,6.593551636E0,3.646453857E0
8.029876768E0,1.274002075E0,6.590423584E0,3.638641357E0
8.034851133E0,1.317062378E0,6.696624756E0,3.625595093E0
8.039825498E0,1.433914185E0,6.842956543E0,3.604339600E0
8.044799863E0,1.509109497E0,6.998855591E0,3.619003296E0
8.049774229E0,1.444320679E0,7.125671387E0,3.656860352E0
8.054748594E0,1.416793823E0,7.270233154E0,3.743591309E0
8.059722959E0,1.373214722E0,7.336502075E0,3.909408569E0
8.064697324E0,1.364273071E0,7.421905518E0,4.029022217E0
8.069671690E0,1.261505127E0,7.513092041E0,4.234786987E0
8.074646055E0,1.223632812E0,7.562072754E0,4.408645630E0
8.079620420E0,1.203582764E0,7.682662964E0,4.577529907E0
8.084594785E0,1.193252563E0,7.825881958E0,4.578994751E0
8.089569151E0,1.186645508E0,7.913055420E0,4.533218384E0
8.094543516E0,1.219070435E0,7.965164185E0,4.426223755E0
8.099517881E0,1.257736206E0,7.973556519E0,4.249755859E0
8.104492246E0,1.306274414E0,7.941253662E0,4.113128662E0
8.109466611E0,1.351531982E0,7.922012329E0,3.985580444E0
8.114440977E0,1.347473145E0,7.928619385E0,3.862777710E0
8.119415342E0,1.280624390E0,7.957443237E0,3.780319214E0
8.124389707E0,1.204223633E0,8.006454468E0,3.710601807E0
8.129364072E0,1.129409790E0,8.095962524E0,3.628082275E0
8.134338438E0,1.026565552E0,8.255187988E0,3.546173096E0
8.139312803E0,8.799896240E-1,8.498825073E0,3.504547119E0
8.144287168E0,7.629699707E-1,8.814422607E0,3.496627808E0
8.149261533E0,6.453247070E-1,9.154800415E0,3.475357056E0
8.154235899E0,5.445098877E-1,9.561080933E0,3.392807007E0
8.159210264E0,4.230651855E-1,1.001823425E1,3.234619141E0
8.164184629E0,2.684326172E-1,1.053578186E1,3.097396851E0
8.169158994E0,3.796386719E-2,1.107192993E1,2.937362671E0
8.174133360E0,-1.950531006E-1,1.151132202E1,2.810379028E0
8.179107725E0,-3.880462646E-1,1.184748840E1,2.691574097E0
8.184082090E0,-4.804077148E-1,1.194204712E1,2.681472778E0
8.189056455E0,-4.484100342E-1,1.185006714E1,2.770294189E0
8.194030820E0,-3.913574219E-1,1.165742493E1,2.933959961E0
8.199005186E0,-3.077239990E-1,1.134614563E1,3.172073364E0
8.203979551E0,-2.540130615E-1,1.103848267E1,3.430587769E0
8.208953916E0,-1.909637451E-1,1.078291321E1,3.675323486E0
8.213928281E0,-1.054687500E-1,1.061410522E1,3.953079224E0
8.218902647E0,-1.199951172E-1,1.040792847E1,4.212875366E0
8.223877012E0,-2.099456787E-1,1.003211975E1,4.478408813E0
8.228851377E0,-2.749176025E-1,9.493530273E0,4.694091797E0
8.233825742E0,-2.619018555E-1,8.864944458E0,4.755630493E0
8.238800108E0,-1.425018311E-1,8.145996094E0,4.533599854E0
8.243774473E0,-4.833984375E-2,7.408859253E0,3.976852417E0
8.248748838E0,-1.585388184E-2,6.738647461E0,3.302612305E0
8.253723203E0,5.094909668E-2,6.300415039E0,2.814651489E0
8.258697568E0,1.435852051E-2,6.233108521E0,2.424102783E0
8.263671934E0,-4.760742188E-2,6.405075073E0,2.193374634E0
8.268646299E0,-2.305908203E-1,6.566909790E0,1.874496460E0
8.273620664E0,-3.845214844E-1,6.665969849E0,1.597885132E0
8.278595029E0,-6.473083496E-1,6.736740112E0,1.317031860E0
8.283569395E0,-8.535614014E-1,6.852828979E0,1.108428955E0
8.288543760E0,-9.600677490E-1,7.141952515E0,9.658966064E-1
8.293518125E0,-9.045104980E-1,7.630004883E0,9.925384521E-1
8.298492490E0,-8.320617676E-1,8.239456177E0,1.058959961E0
8.303466856E0,-6.700897217E-1,8.914245605E0,1.065948486E0
8.308441221E0,-4.594726562E-1,9.617248535E0,1.036239624E0
8.313415586E0,-2.407989502E-1,1.025439453E1,1.046279907E0
8.318389951E0,7.344055176E-2,1.065315247E1,9.452819824E-1
8.323364317E0,3.651733398E-1,1.079377747E1,7.396087646E-1
8.328338682E0,6.574401855E-1,1.075579834E1,7.064514160E-1
8.333313047E0,9.579772949E-1,1.057263184E1,7.813110352E-1
8.338287412E0,1.239288330E0,1.026625061E1,9.362640381E-1
8.343261777E0,1.418228149E0,9.900131226E0,1.127517700E0
8.348236143E0,1.460845947E0,9.575210571E0,1.233749390E0
8.353210508E0,1.410324097E0,9.353393555E0,1.207031250E0
8.358184873E0,1.248367310E0,9.155044556E0,1.064910889E0
8.363159238E0,1.155731201E0,9.086914062E0,9.394989014E-1
8.368133604E0,1.089004517E0,9.094955444E0,7.457427979E-1
8.373107969E0,1.048553467E0,9.103347778E0,5.497894287E-1
8.378082334E0,8.134002686E-1,9.060791016E0,3.583374023E-1
8.383056699E0,5.632324219E-1,9.015396118E0,3.061523438E-1
8.388031065E0,3.188018799E-1,8.950317383E0,3.854980469E-1
8.393005430E0,8.058166504E-2,8.880401611E0,5.444183350E-1
8.397979795E0,-1.398315430E-1,8.868148804E0,7.458190918E-1
8.402954160E0,-2.264099121E-1,8.887695312E0,9.994049072E-1
8.407928526E0,-2.846221924E-1,8.924713135E0,1.273437500E0
8.412902891E0,-2.730865479E-1,8.933639526E0,1.536056519E0
8.417877256E0,-1.944274902E-1,8.920196533E0,1.748794556E0
8.422851621E0,-8.184814453E-2,8.934616089E0,1.919494629E0
8.427825986E0,7.192993164E-2,8.977401733E0,2.035614014E0
8.432800352E0,1.750946045E-1,9.096618652E0,2.085037231E0
8.437774717E0,2.953033447E-1,9.272384644E0,2.053939819E0
8.442749082E0,4.570465088E-1,9.483306885E0,1.994689941E0
8.447723447E0,5.904541016E-1,9.633956909E0,1.861892700E0
8.452697813E0,7.373504639E-1,9.771270752E0,1.703369141E0
8.457672178E0,8.974609375E-1,9.833679199E0,1.549316406E0
8.462646543E0,1.045730591E0,9.878601074E0,1.419342041E0
8.467620908E0,1.140853882E0,9.863357544E0,1.235351562E0
8.472595274E0,1.227371216E0,9.848724365E0,1.080001831E0
8.477569639E0,1.310012817E0,9.853012085E0,8.779296875E-1
8.482544004E0,1.429428101E0,9.820236206E0,7.021484375E-1
8.487518369E0,1.575744629E0,9.758682251E0,6.349334717E-1
8.492492735E0,1.642776489E0,9.651000977E0,5.425872803E-1
8.497467100E0,1.658325195E0,9.488922119E0,4.824371338E-1
8.502441465E0,1.700653076E0,9.329132080E0,4.292449951E-1
8.507415830E0,1.741607666E0,9.198867798E0,3.739471436E-1
8.512390195E0,1.785522461E0,9.079696655E0,3.739929199E-1
8.517364561E0,1.825622559E0,8.915771484E0,4.300231934E-1
8.522338926E0,1.825241089E0,8.732482910E0,5.101165771E-1
8.527313291E0,1.799255371E0,8.597732544E0,6.351013184E-1
8.532287656E0,1.711303711E0,8.505996704E0,7.858276367E-1
8.537262022E0,1.582107544E0,8.507461548E0,8.773956299E-1
8.542236387E0,1.448745728E0,8.551834106E0,9.550628662E-1
8.547210752E0,1.303741455E0,8.681625366E0,1.063934326E0
8.552185117E0,1.190246582E0,8.801651001E0,1.247055054E0
8.557159483E0,1.063644409E0,8.889801025E0,1.360321045E0
8.562133848E0,9.013061523E-1,8.935546875E0,1.374847412E0
8.567108213E0,7.323303223E-1,8.897903442E0,1.464477539E0
8.572082578E0,5.792541504E-1,8.851867676E0,1.590805054E0
8.577056943E0,4.301452637E-1,8.750839233E0,1.724365234E0
8.582031309E0,3.868103027E-1,8.616119385E0,1.861999512E0
8.587005674E0,2.933654785E-1,8.473892212E0,1.962707520E0
8.591980039E0,2.340087891E-1,8.352661133E0,2.076538086E0
8.596954404E0,1.097259521E-1,8.200119019E0,2.133895874E0
8.601928770E0,-9.001159668E-2,8.009689331E0,2.157760620E0
8.606903135E0,-1.804656982E-1,7.900726318E0,2.195419312E0
8.611877500E0,-1.631774902E-1,7.833038330E0,1.902328491E0
8.616851865E0,-3.227233887E-2,7.659713745E0,1.657302856E0
8.621826231E0,5.747985840E-2,7.442016602E0,1.709411621E0
8.626800596E0,6.431579590E-2,7.224563599E0,1.665039062E0
8.631774961E0,5.500793457E-2,6.995452881E0,1.486465454E0
8.636749326E0,2.063751221E-1,6.819717407E0,1.330444336E0
8.641723692E0,3.438262939E-1,6.632186890E0,1.185577393E0
8.646698057E0,5.025634766E-1,6.511657715E0,1.111190796E0
8.651672422E0,5.362091064E-1,6.436782837E0,9.858398438E-1
8.656646787E0,5.464782715E-1,6.439926147E0,9.511718750E-1
8.661621152E0,7.904052734E-1,6.677856445E0,9.033966064E-1
8.666595518E0,7.120971680E-1,6.792022705E0,6.877899170E-1
8.671569883E0,7.253723145E-1,7.019973755E0,6.177062988E-1
8.676544248E0,8.347778320E-1,7.337966919E0,5.693817139E-1
8.681518613E0,9.565734863E-1,7.602859497E0,5.324554443E-1
8.686492979E0,1.026718140E0,7.829223633E0,5.974884033E-1
8.691467344E0,1.077865601E0,7.976501465E0,6.203918457E-1
8.696441709E0,1.427139282E0,8.235183716E0,6.885223389E-1
8.701416074E0,1.667663574E0,8.423477173E0,6.181182861E-1
8.706390440E0,1.414596558E0,8.365600586E0,3.038635254E-1
8.711364805E0,1.825302124E0,8.569427490E0,2.877349854E-1
8.716339170E0,2.308059692E0,8.788146973E0,3.577117920E-1
8.721313535E0,2.517578125E0,8.906341553E0,3.845825195E-1
8.726287901E0,2.489669800E0,8.837570190E0,4.932250977E-1
8.731262266E0,2.360412598E0,8.625152588E0,7.114715576E-1
8.736236631E0,1.896408081E0,8.126647949E0,7.767639160E-1
8.741210996E0,9.876098633E-1,7.267730713E0,7.679138184E-1
8.746185361E0,5.715484619E-1,6.538558960E0,5.438842773E-1
8.751159727E0,-1.158905029E-1,5.673294067E0,2.652740479E-1
8.756134092E0,-2.693481445E-1,5.105056763E0,1.464996338E-1
8.761108457E0,-9.941253662E-1,4.415985107E0,2.587127686E-1
8.766082822E0,-1.122131348E0,4.203460693E0,6.962432861E-1
8.771057188E0,-1.592224121E0,3.891632080E0,1.051483154E0
8.776031553E0,-2.057785034E0,3.810195923E0,1.088760376E0
8.781005918E0,-2.030212402E0,4.048919678E0,5.975341797E-1
8.785980283E0,-1.698272705E0,4.660476685E0,-4.809875488E-1
8.790954649E0,-1.456192017E0,5.848754883E0,-1.811630249E0
8.795929014E0,-1.491241455E0,7.520523071E0,-2.934310913E0
8.800903379E0,-1.736846924E0,9.419357300E0,-3.550186157E0
8.805877744E0,-2.326156616E0,1.126647949E1,-3.115463257E0
8.810852110E0,-2.313766479E0,1.403512573E1,-1.367202759E0
8.815826475E0,-1.413024902E0,1.760421753E1,3.463745117E-2
8.820800840E0,-1.006576538E0,2.003729248E1,-7.735595703E-1
8.825775205E0,-1.592163086E0,2.217108154E1,-3.222152710E0
8.830749570E0,-2.941390991E0,2.428715515E1,-6.009948730E0
8.835723936E0,-4.486480713E0,2.571443176E1,-7.586257935E0
8.840698301E0,-5.617538452E0,2.622033691E1,-6.735977173E0
8.845672666E0,-4.746810913E0,2.501304626E1,-3.613250732E0
8.850647031E0,-2.753723145E0,2.259217834E1,-6.931457520E-1
8.855621397E0,-2.435867310E0,1.994877625E1,8.275146484E-1
8.860595762E0,-3.370193481E0,1.782296753E1,1.335479736E0
8.865570127E0,-3.829803467E0,1.637211609E1,1.827743530E0
8.870544492E0,-3.424240112E0,1.516963196E1,2.532745361E0
8.875518858E0,-2.280838013E0,1.433720398E1,3.049758911E0
8.880493223E0,-8.113250732E-1,1.384657288E1,3.137283325E0
8.885467588E0,2.232208252E-1,1.362774658E1,3.008071899E0
8.890441953E0,8.006896973E-1,1.360110474E1,2.675552368E0
8.895416318E0,9.239196777E-1,1.338796997E1,2.282852173E0
8.900390684E0,7.531127930E-1,1.280090332E1,2.052383423E0
8.905365049E0,4.656829834E-1,1.201046753E1,1.933853149E0
8.910339414E0,5.540466309E-2,1.105236816E1,1.604858398E0
8.915313779E0,-3.726043701E-1,9.791656494E0,1.362976074E0
8.920288145E0,-3.983154297E-1,8.493820190E0,1.710693359E0
8.925262510E0,-1.927490234E-1,7.427078247E0,2.259704590E0
8.930236875E0,1.831207275E-1,6.709640503E0,2.664306641E0
8.935211240E0,7.332000732E-1,6.353973389E0,3.157379150E0
8.940185606E0,1.224502563E0,6.171340942E0,3.647903442E0
8.945159971E0,1.415817261E0,6.118927002E0,3.727752686E0
8.950134336E0,1.601959229E0,6.112747192E0,3.504898071E0
8.955108701E0,1.823196411E0,6.021713257E0,3.195785522E0
8.960083067E0,2.013656616E0,5.964141846E0,2.945846558E0
8.965057432E0,2.184173584E0,5.989791870E0,2.729202271E0
8.970031797E0,2.236572266E0,6.031204224E0,2.711517334E0
8.975006162E0,2.091934204E0,6.078369141E0,2.816482544E0
8.979980527E0,1.823928833E0,6.093750000E0,2.896118164E0
8.984954893E0,1.498046875E0,6.141159058E0,2.839889526E0
8.989929258E0,1.126602173E0,6.295806885E0,2.530807495E0
8.994903623E0,9.840087891E-1,6.552474976E0,1.725097656E0
8.999877988E0,9.141387939E-1,6.684082031E0,8.597564697E-1
9.004852354E0,3.410797119E-1,6.583267212E0,8.810729980E-1
9.009826719E0,-1.653137207E-1,6.493316650E0,1.080047607E0
9.014801084E0,-3.644256592E-1,6.507522583E0,1.119400024E0
9.019775449E0,-4.371490479E-1,6.574111938E0,9.085845947E-1
9.024749815E0,-4.969482422E-1,6.683151245E0,6.434173584E-1
9.029724180E0,-7.502899170E-1,6.779388428E0,5.132293701E-1
9.034698545E0,-7.370147705E-1,6.679122925E0,5.908660889E-1
9.039672910E0,-5.742797852E-1,6.438415527E0,6.380157471E-1
9.044647276E0,-5.559234619E-1,6.198638916E0,6.756896973E-1
9.049621641E0,-7.631378174E-1,6.017868042E0,8.079376221E-1
9.054596006E0,-1.000213623E0,5.867050171E0,1.125442505E0
9.059570371E0,-1.275466919E0,5.825790405E0,1.481842041E0
9.064544736E0,-1.426223755E0,5.899475098E0,1.716430664E0
9.069522227E0,-1.463546753E0,6.095611572E0,1.787719727E0
9.074496592E0,-1.504058838E0,6.321807861E0,1.761917114E0
9.079470957E0,-1.591781616E0,6.605773926E0,1.574127197E0
9.084445322E0,-1.703445435E0,7.001693726E0,1.417922974E0
9.089419688E0,-1.921920776E0,7.374206543E0,1.350616455E0
9.094394053E0,-2.090225220E0,7.752914429E0,1.390213013E0
9.099368418E0,-2.260543823E0,8.099151611E0,1.529693604E0
9.104342783E0,-2.468383789E0,8.401062012E0,1.833190918E0
9.109317149E0,-2.674743652E0,8.596206665E0,2.361663818E0
9.114291514E0,-2.773284912E0,8.656982422E0,2.976776123E0
9.119265879E0,-2.694625854E0,8.636810303E0,3.450439453E0
9.124240244E0,-2.639129639E0,8.484344482E0,3.796859741E0
9.129214610E0,-2.559280396E0,8.254501343E0,3.986480713E0
9.134188975E0,-2.226165771E0,8.090042114E0,4.026779175E0
9.139163340E0,-1.755783081E0,7.980133057E0,3.993515015E0
9.144137705E0,-1.251556396E0,7.893524170E0,3.988357544E0
9.149112070E0,-8.050384521E-1,7.774276733E0,3.969955444E0
9.154086436E0,-3.677368164E-1,7.669326782E0,3.913848877E0
9.159060801E0,9.843444824E-2,7.608718872E0,3.919601440E0
9.164035166E0,7.523193359E-1,7.556900024E0,4.026794434E0
9.169009531E0,1.326080322E0,7.470611572E0,4.147048950E0
9.173983897E0,1.867919922E0,7.396560669E0,4.340286255E0
9.178958262E0,2.355529785E0,7.285003662E0,4.536682129E0
9.183932627E0,2.726150513E0,7.213043213E0,4.773132324E0
9.188906992E0,2.897750854E0,7.158615112E0,4.880035400E0
9.193881358E0,2.906021118E0,7.071823120E0,4.855804443E0
9.198855723E0,2.813858032E0,7.034027100E0,4.709060669E0
9.203830088E0,2.701477051E0,7.109970093E0,4.581344604E0
9.208804453E0,2.556823730E0,7.212020874E0,4.458419800E0
9.213778818E0,2.391921997E0,7.294525146E0,4.307327271E0
9.218753184E0,2.271499634E0,7.346725464E0,4.121643066E0
9.223727549E0,2.187744141E0,7.416564941E0,3.922760010E0
9.228701914E0,2.123367310E0,7.467376709E0,3.709945679E0
9.233676279E0,2.032424927E0,7.485198975E0,3.503768921E0
9.238650645E0,1.906661987E0,7.469528198E0,3.313766479E0
9.243625010E0,1.805389404E0,7.450393677E0,3.207824707E0
9.248599375E0,1.712799072E0,7.424407959E0,3.188369751E0
9.253573740E0,1.601852417E0,7.394500732E0,3.194244385E0
9.258548106E0,1.498062134E0,7.385574341E0,3.241943359E0
9.263522471E0,1.411590576E0,7.431274414E0,3.317276001E0
9.268496836E0,1.369766235E0,7.510696411E0,3.395553589E0
9.273471201E0,1.306457520E0,7.653472900E0,3.460617065E0
9.278445567E0,1.281890869E0,7.817260742E0,3.552383423E0
9.283419932E0,1.284942627E0,8.000610352E0,3.688186646E0
9.288394297E0,1.277999878E0,8.126800537E0,3.802291870E0
9.293368662E0,1.261367798E0,8.245819092E0,3.953430176E0
9.298343027E0,1.283843994E0,8.314880371E0,4.101211548E0
9.303317393E0,1.302337646E0,8.387100220E0,4.258972168E0
9.308291758E0,1.328048706E0,8.453659058E0,4.409851074E0
9.313266123E0,1.373611450E0,8.487442017E0,4.538162231E0
9.318240488E0,1.436660767E0,8.505233765E0,4.657028198E0
9.323214854E0,1.444702148E0,8.535308838E0,4.781860352E0
9.328189219E0,1.377777100E0,8.542739868E0,4.879257202E0
9.333163584E0,1.278671265E0,8.541213989E0,4.981689453E0
9.338137949E0,1.217239380E0,8.543075562E0,5.065032959E0
9.343112315E0,1.167694092E0,8.598999023E0,5.098052979E0
9.348086680E0,1.098526001E0,8.642089844E0,5.160568237E0
9.353061045E0,1.098922729E0,8.724288940E0,5.144332886E0
9.358035410E0,1.106628418E0,8.798294067E0,5.067382812E0
9.363009776E0,1.138931274E0,8.835525513E0,4.921569824E0
9.367984141E0,1.186523438E0,8.927551270E0,4.789337158E0
9.372958506E0,1.290710449E0,8.947280884E0,4.601379395E0
9.377932871E0,1.369125366E0,9.001358032E0,4.368118286E0
9.382907236E0,1.446090698E0,9.059829712E0,4.144897461E0
9.387881602E0,1.471542358E0,9.100067139E0,3.891510010E0
9.392855967E0,1.489746094E0,9.092498779E0,3.612197876E0
9.397830332E0,1.461425781E0,9.019332886E0,3.368835449E0
9.402804697E0,1.427200317E0,8.858581543E0,3.222991943E0
9.407779063E0,1.373672485E0,8.631927490E0,3.181060791E0
9.412753428E0,1.281631470E0,8.350021362E0,3.269531250E0
9.417727793E0,1.151870728E0,8.056655884E0,3.457000732E0
9.422702158E0,1.035812378E0,7.807937622E0,3.699798584E0
9.427676524E0,9.067077637E-1,7.608459473E0,4.008499146E0
9.432650889E0,7.667694092E-1,7.499984741E0,4.332702637E0
9.437625254E0,5.529174805E-1,7.509033203E0,4.580230713E0
9.442599619E0,3.274993896E-1,7.613906860E0,4.722854614E0
9.447573985E0,1.081695557E-1,7.816986084E0,4.742858887E0
9.452548350E0,-5.517578125E-2,8.098144531E0,4.713958740E0
9.457522715E0,-2.055969238E-1,8.455749512E0,4.609161377E0
9.462497080E0,-2.436828613E-1,8.866958618E0,4.628616333E0
9.467471445E0,-1.816406250E-1,9.379562378E0,4.557312012E0
9.472445811E0,-9.129333496E-2,1.005401611E1,4.485244751E0
9.477420176E0,1.176452637E-2,1.081571960E1,4.233291626E0
9.482394541E0,-8.061218262E-2,1.157298279E1,3.873504639E0
9.487368906E0,-2.288360596E-1,1.235644531E1,3.568359375E0
9.492343272E0,-6.021118164E-1,1.305107117E1,3.218963623E0
9.497317637E0,-1.000167847E0,1.360469055E1,2.794219971E0
9.502292002E0,-1.260894775E0,1.383467102E1,2.462799072E0
9.507266367E0,-1.432739258E0,1.353184509E1,2.388015747E0
9.512240733E0,-1.461273193E0,1.286691284E1,2.673171997E0
9.517215098E0,-1.259613037E0,1.204162598E1,3.074676514E0
9.522189463E0,-8.388061523E-1,1.112892151E1,3.368682861E0
9.527163828E0,-4.070434570E-1,1.024813843E1,3.374481201E0
9.532138193E0,-4.245147705E-1,9.097290039E0,2.996154785E0
9.537112559E0,-6.903076172E-1,7.728942871E0,2.653854370E0
9.542086924E0,-1.106155396E0,6.466232300E0,2.530456543E0
9.547061289E0,-1.571273804E0,5.547302246E0,2.731689453E0
9.552035654E0,-1.865051270E0,5.126861572E0,3.185180664E0
9.557010020E0,-1.949172974E0,5.352645874E0,3.346145630E0
9.561984385E0,-1.972549438E0,5.991394043E0,2.954116821E0
9.566958750E0,-2.219375610E0,6.544464111E0,2.382614136E0
9.571933115E0,-2.454010010E0,6.832763672E0,2.132675171E0
9.576907481E0,-2.539840698E0,6.971069336E0,2.291320801E0
9.581881846E0,-2.468292236E0,6.904876709E0,2.560653687E0
9.586856211E0,-2.260757446E0,6.773086548E0,2.664138794E0
9.591830576E0,-1.841720581E0,6.735305786E0,2.405532837E0
9.596804942E0,-1.131790161E0,6.973266602E0,1.697570801E0
9.601779307E0,-3.567047119E-1,7.450622559E0,6.750640869E-1
9.606753672E0,4.238433838E-1,8.127517700E0,-3.561553955E-1
9.611728037E0,1.209197998E0,8.881393433E0,-1.124191284E0
9.616702402E0,1.934295654E0,9.624252319E0,-1.508132935E0
9.621676768E0,2.423370361E0,1.028712463E1,-1.553649902E0
9.626651133E0,2.516937256E0,1.077210999E1,-1.421035767E0
9.631625498E0,2.328720093E0,1.107667542E1,-1.142211914E0
9.636599863E0,2.037826538E0,1.128605652E1,-8.063812256E-1
9.641574229E0,1.749038696E0,1.137785339E1,-4.182281494E-1
9.646548594E0,1.449645996E0,1.142799377E1,-7.572937012E-2
9.651522959E0,1.228713989E0,1.135301208E1,2.868347168E-1
9.656497324E0,1.105529785E0,1.119274902E1,7.051696777E-1
9.661471690E0,1.111648560E0,1.093006897E1,1.032287598E0
9.666446055E0,1.249496460E0,1.058567810E1,1.190444946E0
9.671420420E0,1.429565430E0,1.026101685E1,1.200271606E0
9.676394785E0,1.603469849E0,1.002696228E1,1.154312134E0
9.681369151E0,1.776824951E0,9.885147095E0,1.032974243E0
9.686343516E0,1.885696411E0,9.900878906E0,8.788452148E-1
9.691317881E0,1.910461426E0,9.936599731E0,6.848144531E-1
9.696292246E0,1.725830078E0,9.967926025E0,5.163116455E-1
9.701266611E0,1.420227051E0,9.996643066E0,4.981994629E-1
9.706240977E0,1.102600098E0,9.994155884E0,6.476898193E-1
9.711215342E0,7.673034668E-1,9.991409302E0,9.133453369E-1
9.716189707E0,4.422302246E-1,9.993316650E0,1.197204590E0
9.721164072E0,1.800079346E-1,9.947082520E0,1.374694824E0
9.726138438E0,8.822631836E-2,9.832015991E0,1.445480347E0
9.731112803E0,1.388397217E-1,9.669631958E0,1.414688110E0
9.736087168E0,2.088165283E-1,9.492324829E0,1.283798218E0
9.741061533E0,2.433013916E-1,9.386642456E0,1.130523682E0
9.746035899E0,2.808532715E-1,9.309463501E0,1.024780273E0
9.751010264E0,3.649444580E-1,9.286575317E0,8.940887451E-1
9.755984629E0,5.203857422E-1,9.324737549E0,7.767181396E-1
9.760958994E0,7.283477783E-1,9.367126465E0,6.520385742E-1
9.765933360E0,8.964385986E-1,9.393356323E0,5.368194580E-1
9.770907725E0,1.089950562E0,9.319549561E0,4.944000244E-1
9.775882090E0,1.230789185E0,9.237106323E0,3.424682617E-1
9.780856455E0,1.314346313E0,9.158752441E0,1.280975342E-1
9.785830820E0,1.373428345E0,9.139907837E0,-1.109924316E-1
9.790805186E0,1.405380249E0,9.111923218E0,-3.575744629E-1
9.795779551E0,1.440750122E0,9.021743774E0,-5.081329346E-1
9.800753916E0,1.503662109E0,8.905914307E0,-5.289459229E-1
9.805728281E0,1.575347900E0,8.821578979E0,-5.305786133E-1
9.810702647E0,1.579940796E0,8.794769287E0,-5.035858154E-1
9.815677012E0,1.530364990E0,8.792465210E0,-4.073486328E-1
9.820651377E0,1.487304688E0,8.810043335E0,-2.403869629E-1
9.825625742E0,1.425979614E0,8.833877563E0,1.882934570E-2
9.830600108E0,1.353103638E0,8.814605713E0,3.338012695E-1
9.835574473E0,1.301239014E0,8.758773804E0,6.915740967E-1
9.840548838E0,1.283294678E0,8.678878784E0,1.044204712E0
9.845523203E0,1.314300537E0,8.576995850E0,1.340179443E0
9.850497568E0,1.284912109E0,8.369018555E0,1.522216797E0
9.855471934E0,1.270019531E0,8.192077637E0,1.662170410E0
9.860446299E0,1.355682373E0,7.917266846E0,1.840942383E0
9.865420664E0,1.365722656E0,7.627166748E0,1.927795410E0
9.870395029E0,1.413574219E0,7.408294678E0,1.898559570E0
9.875369395E0,1.419692993E0,7.175094604E0,1.785751343E0
9.880343760E0,1.438201904E0,6.993682861E0,1.631942749E0
9.885318125E0,1.491485596E0,6.879501343E0,1.444946289E0
9.890292490E0,1.566558838E0,6.818191528E0,1.294067383E0
9.895266856E0,1.593750000E0,6.799606323E0,1.168914795E0
9.900241221E0,1.592666626E0,6.868194580E0,1.093200684E0
9.905215586E0,1.588241577E0,6.994308472E0,1.082931519E0
9.910189951E0,1.586807251E0,7.182098389E0,1.115737915E0
9.915164317E0,1.597579956E0,7.400192261E0,1.220794678E0
9.920138682E0,1.575622559E0,7.639633179E0,1.334136963E0
9.925113047E0,1.506362915E0,7.775695801E0,1.441421509E0
9.930087412E0,1.495513916E0,7.807861328E0,1.511108398E0
9.935061777E0,1.370315552E0,7.742752075E0,1.641921997E0
9.940036143E0,1.297973633E0,7.647140503E0,1.406036377E0
9.945010508E0,1.309494019E0,7.496078491E0,8.290252686E-1
9.949984873E0,1.286590576E0,7.277206421E0,7.466125488E-1
9.954959238E0,1.043945312E0,7.025497437E0,7.514190674E-1
9.959933604E0,8.690795898E-1,6.822143555E0,8.202667236E-1
9.964907969E0,7.411804199E-1,6.660537720E0,6.993713379E-1
9.969882334E0,6.846160889E-1,6.588562012E0,6.183166504E-1
9.974856699E0,8.256835938E-1,6.641204834E0,5.247650146E-1
9.979831065E0,9.908752441E-1,6.730117798E0,4.002075195E-1
9.984805430E0,1.193527222E0,6.871627808E0,2.358856201E-1
9.989779795E0,1.610733032E0,7.084014893E0,1.522064209E-1
9.994754160E0,2.042144775E0,7.333984375E0,1.718750000E-1
9.999728526E0,2.328338623E0,7.579788208E0,2.685241699E-1
1.000470289E1,2.475723267E0,7.772094727E0,3.995361328E-1
1.000967726E1,2.467987061E0,7.823226929E0,6.053009033E-1
1.001465162E1,2.440338135E0,7.716583252E0,9.927062988E-1
1.001962599E1,2.031143188E0,7.387985229E0,1.162307739E0
1.002460035E1,1.206085205E0,6.779159546E0,1.197891235E0
1.002957472E1,6.797637939E-1,6.237655640E0,1.147750854E0
1.003454908E1,1.468658447E-1,5.652542114E0,1.051544189E0
1.003952345E1,-2.351379395E-1,5.197891235E0,1.075973511E0
1.004449781E1,-7.091979980E-1,4.824371338E0,1.180480957E0
1.004947218E1,-1.265289307E0,4.517471313E0,1.369613647E0
1.005444654E1,-1.694137573E0,4.430755615E0,1.406402588E0
1.005942091E1,-2.505065918E0,4.108215332E0,1.037658691E0
1.006439527E1,-2.273925781E0,4.280105591E0,5.796813965E-2
1.006936964E1,-1.745223999E0,5.021102905E0,-1.277969360E0
1.007434400E1,-1.398254395E0,6.763961792E0,-2.827575684E0
1.007931837E1,-1.395324707E0,9.163757324E0,-4.198806763E0
1.008429274E1,-1.940017700E0,1.146697998E1,-4.819107056E0
1.008926710E1,-2.850036621E0,1.340408325E1,-3.664627075E0
1.009424147E1,-2.673187256E0,1.560992432E1,-1.513748169E0
1.009921583E1,-2.115112305E0,1.768449402E1,-1.027557373E0
1.010419020E1,-1.771255493E0,1.908499146E1,-2.386199951E0
1.010916456E1,-1.645339966E0,2.053802490E1,-4.373840332E0
1.011413893E1,-2.164413452E0,2.229154968E1,-6.771331787E0
1.011911329E1,-3.218536377E0,2.416323853E1,-8.126174927E0
1.012408766E1,-3.897033691E0,2.465931702E1,-6.951461792E0
1.012906202E1,-3.472518921E0,2.371144104E1,-3.808868408E0
1.013403639E1,-2.941909790E0,2.199893188E1,-6.807861328E-1
1.013901075E1,-2.824752808E0,2.015492249E1,9.899444580E-1
1.014398512E1,-3.078704834E0,1.866822815E1,1.173034668E0
1.014895948E1,-3.656143188E0,1.708207703E1,1.416152954E0
1.015393385E1,-3.472076416E0,1.546636963E1,2.139953613E0
1.015890821E1,-2.788284302E0,1.422210693E1,2.239562988E0
1.016388258E1,-2.265960693E0,1.349761963E1,1.895523071E0
1.016885694E1,-2.084701538E0,1.309643555E1,1.484619141E0
1.017383131E1,-1.992660522E0,1.290586853E1,8.735198975E-1
1.017880567E1,-1.659423828E0,1.253976440E1,5.253295898E-1
1.018378004E1,-1.272659302E0,1.211108398E1,5.711669922E-1
1.018875440E1,-1.291931152E0,1.157055664E1,7.883300781E-1
1.019372877E1,-1.553131104E0,1.080610657E1,9.362487793E-1
1.019870314E1,-1.766082764E0,9.920745850E0,9.559631348E-1
1.020367750E1,-1.792434692E0,9.080154419E0,9.978942871E-1
1.020865186E1,-1.556289673E0,8.423278809E0,1.192184448E0
1.021362623E1,-1.143402100E0,7.968215942E0,1.517807007E0
1.021860060E1,-7.141723633E-1,7.595520020E0,1.922302246E0
1.022357496E1,-3.874359131E-1,7.256256104E0,2.445297241E0
1.022854933E1,-1.622619629E-1,7.089294434E0,2.870605469E0
1.023352369E1,2.374420166E-1,7.015884399E0,3.323165894E0
1.023849806E1,7.866973877E-1,6.908920288E0,3.766418457E0
1.024347242E1,1.296997070E0,6.790328979E0,4.212341309E0
1.024844679E1,1.554519653E0,6.695648193E0,4.461059570E0
1.025342115E1,2.220626831E0,7.160278320E0,3.070556641E0
1.025839552E1,1.458938599E0,6.670989990E0,2.525314331E0
1.026336988E1,6.973724365E-1,6.363769531E0,3.851211548E0
1.026834425E1,7.439880371E-1,6.639465332E0,4.539108276E0
1.027331861E1,7.101745605E-1,6.865768433E0,4.001205444E0
1.027829298E1,4.086151123E-1,7.011108398E0,2.732360840E0
1.028326734E1,1.598358154E-1,7.142669678E0,1.595794678E0
1.028824171E1,-3.053283691E-2,7.025283813E0,7.366027832E-1
1.029321607E1,3.564300537E-1,6.755783081E0,6.951141357E-1
1.029819044E1,1.427383423E0,6.768875122E0,1.036926270E0
1.030316480E1,1.823928833E0,6.833786011E0,5.866851807E-1
1.030813917E1,1.473388672E0,6.683944702E0,-2.607727051E-1
1.031311354E1,1.105712891E0,6.366760254E0,-7.452392578E-1
1.031808790E1,9.156799316E-1,6.080612183E0,-7.848052979E-1
1.032306227E1,8.604736328E-1,5.915191650E0,-5.353240967E-1
1.032803663E1,7.254028320E-1,5.887008667E0,-2.724914551E-1
1.033301100E1,6.025848389E-1,5.650299072E0,7.537841797E-3
1.033798536E1,6.847839355E-1,5.435913086E0,1.348114014E-1
1.034295973E1,7.058868408E-1,5.440246582E0,1.203308105E-1
1.034793409E1,4.467926025E-1,5.596527100E0,-2.557373047E-2
1.035290846E1,-1.974487305E-2,5.810867310E0,-5.856323242E-2
1.035788282E1,-5.267944336E-1,6.029785156E0,1.758270264E-1
1.036285719E1,-9.082946777E-1,6.288055420E0,4.581909180E-1
1.036783155E1,-1.148376465E0,6.644134521E0,6.518554688E-1
1.037280592E1,-1.500396729E0,7.009490967E0,9.232635498E-1
1.037778028E1,-1.870361328E0,7.362686157E0,1.289260864E0
