"Time (s)","Gyroscope x (rad/s)","Gyroscope y (rad/s)","Gyroscope z (rad/s)"
1.381697090E-1,6.917845458E-2,-2.681619525E-1,3.023693897E-2
1.406412710E-1,7.650861889E-2,-2.730487287E-1,3.268032894E-2
1.431127820E-1,8.383878320E-2,-2.779355049E-1,3.512371704E-2
1.455842920E-1,9.605573118E-2,-2.889307439E-1,3.756710514E-2
1.480557500E-1,1.094943732E-1,-3.011476994E-1,4.123219103E-2
1.505271570E-1,1.265980899E-1,-3.243598938E-1,4.123219103E-2
1.529985110E-1,1.375933439E-1,-3.377985358E-1,4.367557913E-2
1.554698650E-1,1.461452097E-1,-3.463504016E-1,4.856235534E-2
1.579412190E-1,1.583621502E-1,-3.597890437E-1,4.978405312E-2
1.604125210E-1,1.681357026E-1,-3.768927455E-1,5.100574717E-2
1.628838230E-1,1.779092699E-1,-3.891097009E-1,4.856235534E-2
1.653551250E-1,1.840177327E-1,-4.037700295E-1,4.734066129E-2
1.678264270E-1,1.913478971E-1,-4.196520746E-1,4.489727318E-2
1.702976770E-1,1.925695986E-1,-4.343124032E-1,4.001049697E-2
1.727532500E-1,1.950129867E-1,-4.526378214E-1,3.634541109E-2
1.751759070E-1,1.998997629E-1,-4.746283293E-1,3.023693897E-2
1.775978340E-1,1.986780763E-1,-4.953971207E-1,2.168507688E-2
1.800189270E-1,1.950129867E-1,-5.173876286E-1,1.435491070E-2
1.824408540E-1,1.962346882E-1,-5.491516590E-1,7.024743594E-3
1.848636150E-1,1.925695986E-1,-5.711421967E-1,2.137965523E-3
1.872854380E-1,1.937913001E-1,-5.992411375E-1,-7.635590620E-3
1.897065840E-1,1.925695986E-1,-6.248967648E-1,-1.618745178E-2
1.921285110E-1,1.840177327E-1,-6.444438696E-1,-2.473931387E-2
1.945512710E-1,1.827960461E-1,-6.713211536E-1,-3.206948191E-2
1.969730940E-1,1.779092699E-1,-6.957550049E-1,-4.184303805E-2
1.993942400E-1,1.754658818E-1,-7.214106321E-1,-5.039490014E-2
2.018161670E-1,1.705790907E-1,-7.458444834E-1,-6.016845629E-2
2.042389270E-1,1.669140160E-1,-7.690566778E-1,-6.994201243E-2
2.066607500E-1,1.620272398E-1,-7.861604095E-1,-8.093725890E-2
2.090818960E-1,1.571404636E-1,-7.995990515E-1,-9.315420687E-2
2.115038230E-1,1.510319859E-1,-8.081509471E-1,-1.065928489E-1
2.139265320E-1,1.461452097E-1,-8.069292307E-1,-1.200314835E-1
2.163484070E-1,1.400367320E-1,-8.081509471E-1,-1.334701329E-1
2.187695520E-1,1.351499557E-1,-8.057075143E-1,-1.469087601E-1
2.211914790E-1,1.290414780E-1,-7.983773947E-1,-1.591257155E-1
2.236141880E-1,1.241547018E-1,-7.886037827E-1,-1.713426560E-1
2.260360630E-1,1.204896197E-1,-7.739434838E-1,-1.798945218E-1
2.284572090E-1,1.156028435E-1,-7.641699314E-1,-1.896680743E-1
2.308790840E-1,1.082726792E-1,-7.543963790E-1,-1.957765520E-1
2.333018440E-1,1.021642014E-1,-7.446228266E-1,-1.994416267E-1
2.357237190E-1,9.849911928E-2,-7.397360206E-1,-2.031067163E-1
2.381448650E-1,9.361234307E-2,-7.385143638E-1,-2.031067163E-1
2.405667400E-1,8.506047726E-2,-7.372926474E-1,-2.006633282E-1
2.429895000E-1,8.017370105E-2,-7.458444834E-1,-1.969982386E-1
2.454113750E-1,7.162184268E-2,-7.531746626E-1,-1.994416267E-1
2.478325210E-1,6.429167092E-2,-7.702783942E-1,-1.982199401E-1
2.502543960E-1,5.451811850E-2,-7.849387527E-1,-2.006633282E-1
2.526771570E-1,4.596625641E-2,-8.057075143E-1,-2.055501044E-1
2.550990320E-1,3.741439432E-2,-8.313631415E-1,-2.153236568E-1
2.575201250E-1,3.008422814E-2,-8.643488884E-1,-2.275405973E-1
2.599420520E-1,2.031067200E-2,-8.973346353E-1,-2.422009408E-1
2.623648130E-1,1.175880991E-2,-9.290986657E-1,-2.593046725E-1
2.647866880E-1,5.650337320E-3,-9.608627558E-1,-2.800734639E-1
2.672077820E-1,-4.581354442E-4,-9.889616966E-1,-2.996205688E-1
2.696297090E-1,-4.123218823E-3,-1.017060637E0,-3.228327632E-1
2.720524690E-1,-5.344913341E-3,-1.036607742E0,-3.423798978E-1
2.744743440E-1,-5.344913341E-3,-1.051268101E0,-3.643703759E-1
2.768954380E-1,-1.679830020E-3,-1.064706802E0,-3.839175105E-1
2.793173650E-1,3.206948051E-3,-1.072036982E0,-4.059080184E-1
2.817401250E-1,1.053711493E-2,-1.073258638E0,-4.266768098E-1
2.841620000E-1,1.664558798E-2,-1.072036982E0,-4.474456310E-1
2.865830940E-1,2.764083818E-2,-1.068371892E0,-4.682144225E-1
2.890050210E-1,4.107947648E-2,-1.063485026E0,-4.865398407E-1
2.914277820E-1,5.573981255E-2,-1.059819937E0,-5.073086619E-1
2.938496040E-1,7.040014863E-2,-1.052489877E0,-5.244123936E-1
2.962707500E-1,8.506047726E-2,-1.040272832E0,-5.378510356E-1
2.986926770E-1,9.972081333E-2,-1.032942772E0,-5.537330508E-1
3.011154380E-1,1.143811494E-1,-1.026834249E0,-5.732801557E-1
3.035372610E-1,1.290414780E-1,-1.024390817E0,-5.952706337E-1
3.059584070E-1,1.424801201E-1,-1.025612593E0,-6.197045445E-1
3.083803340E-1,1.583621502E-1,-1.026834249E0,-6.355865598E-1
3.108030940E-1,1.693574041E-1,-1.029277682E0,-6.453601122E-1
3.132249170E-1,1.840177327E-1,-1.034164429E0,-6.539120078E-1
3.156460630E-1,1.937913001E-1,-1.050046444E0,-6.624638438E-1
3.180679900E-1,2.047865391E-1,-1.070815206E0,-6.697940230E-1
3.204907500E-1,2.121167034E-1,-1.097692490E0,-6.783458591E-1
3.229125730E-1,2.218902707E-1,-1.128234863E0,-6.917845011E-1
3.253337190E-1,2.267770469E-1,-1.158777237E0,-7.064448595E-1
3.277556460E-1,2.328855246E-1,-1.192984700E0,-7.321004272E-1
3.301783540E-1,2.279987335E-1,-1.234522343E0,-7.870767117E-1
3.326002290E-1,2.157817930E-1,-1.283390045E0,-8.628217578E-1
3.350213750E-1,2.023431510E-1,-1.337144613E0,-9.385668039E-1
3.374433020E-1,1.864611208E-1,-1.389677525E0,-1.009425044E0
3.398660110E-1,1.718007922E-1,-1.447097182E0,-1.076618314E0
3.422878860E-1,1.559187621E-1,-1.505738497E0,-1.142589808E0
3.447090320E-1,1.412584335E-1,-1.559493065E0,-1.206117868E0
3.471309070E-1,1.241547018E-1,-1.612025857E0,-1.270867705E0
3.495536670E-1,1.046075895E-1,-1.659672022E0,-1.333174109E0
3.519755420E-1,8.750387281E-2,-1.701209664E0,-1.393037200E0
3.543966880E-1,6.551336497E-2,-1.729308605E0,-1.452900171E0
3.568185630E-1,4.474456236E-2,-1.750077367E0,-1.511541486E0
3.592413230E-1,2.031067200E-2,-1.757407546E0,-1.565296054E0
3.616631980E-1,-6.566607859E-3,-1.758629203E0,-1.615385532E0
3.640843440E-1,-3.344388679E-2,-1.757407546E0,-1.660588264E0
3.665062190E-1,-5.909947306E-2,-1.752520800E0,-1.699682474E0
3.689289790E-1,-8.475505561E-2,-1.748855710E0,-1.733889937E0
3.713508540E-1,-1.079672500E-1,-1.739082098E0,-1.761988878E0
3.737719480E-1,-1.360662282E-1,-1.728086948E0,-1.785201073E0
3.761938750E-1,-1.617218107E-1,-1.714648247E0,-1.803526521E0
3.786166360E-1,-1.837123185E-1,-1.696322799E0,-1.816965222E0
3.810385110E-1,-1.971509457E-1,-1.680440784E0,-1.824295282E0
3.834596040E-1,-2.105895877E-1,-1.659672022E0,-1.825517058E0
3.858815320E-1,-2.191414535E-1,-1.635238171E0,-1.824295282E0
3.883042920E-1,-2.215848416E-1,-1.604695797E0,-1.820630312E0
3.907261670E-1,-2.203631550E-1,-1.571709991E0,-1.815743446E0
3.931472610E-1,-2.228065431E-1,-1.526507258E0,-1.809635043E0
3.955691880E-1,-2.179197669E-1,-1.483747959E0,-1.804748178E0
3.979919480E-1,-2.105895877E-1,-1.439767003E0,-1.799861431E0
4.004137710E-1,-2.020377368E-1,-1.398229361E0,-1.796196342E0
4.028349170E-1,-1.922641695E-1,-1.361578584E0,-1.791309595E0
4.052568440E-1,-1.824906170E-1,-1.335922956E0,-1.790087938E0
4.076796040E-1,-1.690519750E-1,-1.313932419E0,-1.793753028E0
4.101014270E-1,-1.568350345E-1,-1.302937150E0,-1.798639774E0
4.125225730E-1,-1.409530044E-1,-1.296828747E0,-1.807191610E0
4.149445000E-1,-1.299577504E-1,-1.294385314E0,-1.819408536E0
4.173672610E-1,-1.189625040E-1,-1.294385314E0,-1.834068894E0
4.197890840E-1,-1.091889441E-1,-1.296828747E0,-1.851172566E0
4.222102290E-1,-1.018587798E-1,-1.300493836E0,-1.870719671E0
4.246321570E-1,-9.452861547E-2,-1.309045672E0,-1.889045119E0
4.270548650E-1,-8.842013776E-2,-1.322484374E0,-1.906148911E0
4.294767400E-1,-8.231166750E-2,-1.333479524E0,-1.919587493E0
4.318978860E-1,-7.620319724E-2,-1.344474792E0,-1.929361105E0
4.343198130E-1,-7.009471953E-2,-1.357913494E0,-1.935469508E0
4.367425210E-1,-6.642963737E-2,-1.370130420E0,-1.940356374E0
4.391643960E-1,-5.909947306E-2,-1.382347345E0,-1.936691284E0
4.415855420E-1,-5.421269313E-2,-1.398229361E0,-1.933026195E0
4.440074170E-1,-4.566083103E-2,-1.409224629E0,-1.923252583E0
4.464301770E-1,-3.833066672E-2,-1.416554809E0,-1.907370567E0
4.488520520E-1,-2.855710872E-2,-1.425106645E0,-1.889045119E0
4.512731980E-1,-1.634016447E-2,-1.427550077E0,-1.871941447E0
4.536950730E-1,1.985253533E-3,-1.421441555E0,-1.842620730E0
4.561178340E-1,3.008422814E-2,-1.397007704E0,-1.794974685E0
4.585397090E-1,7.040014863E-2,-1.356691718E0,-1.733889937E0
4.609608020E-1,1.204896197E-1,-1.302937150E0,-1.656923175E0
4.633827290E-1,1.791309565E-1,-1.245517612E0,-1.562852740E0
4.658054900E-1,2.389939874E-1,-1.184432864E0,-1.467560530E0
4.682273650E-1,2.903051674E-1,-1.149003744E0,-1.391815424E0
4.706484590E-1,3.306210935E-1,-1.134343386E0,-1.357608080E0
4.730703860E-1,3.550549746E-1,-1.131899953E0,-1.355164647E0
4.754931460E-1,3.636068404E-1,-1.134343386E0,-1.364938259E0
4.779150210E-1,3.636068404E-1,-1.144116879E0,-1.384485364E0
4.803361150E-1,3.574983478E-1,-1.152668834E0,-1.400367379E0
4.827580420E-1,3.477247953E-1,-1.168550849E0,-1.411362648E0
4.851808020E-1,3.330644667E-1,-1.186876178E0,-1.422357798E0
4.876026770E-1,3.159607351E-1,-1.210088372E0,-1.435796499E0
4.900237710E-1,3.000787199E-1,-1.240630746E0,-1.448013425E0
4.924456980E-1,2.841966748E-1,-1.279724956E0,-1.466338873E0
4.948684590E-1,2.560977042E-1,-1.305380583E0,-1.482220888E0
4.972902820E-1,2.292204350E-1,-1.324927688E0,-1.491994381E0
4.997114270E-1,2.108950168E-1,-1.337144613E0,-1.493216157E0
5.021333540E-1,1.962346882E-1,-1.340809703E0,-1.489551067E0
5.045561150E-1,1.986780763E-1,-1.340809703E0,-1.473669052E0
5.069779380E-1,2.084516287E-1,-1.324927688E0,-1.450456858E0
5.093990840E-1,2.389939874E-1,-1.285833478E0,-1.419914484E0
5.118210110E-1,2.829749882E-1,-1.221083641E0,-1.378376842E0
5.142437710E-1,3.245126009E-1,-1.151447058E0,-1.331952453E0
5.166655940E-1,3.513898849E-1,-1.101357579E0,-1.292858243E0
5.190867400E-1,3.660502136E-1,-1.065928459E0,-1.262315869E0
5.215086670E-1,3.758237660E-1,-1.036607742E0,-1.239103675E0
5.239313750E-1,3.904841244E-1,-1.002400398E0,-1.207339644E0
5.263532500E-1,4.173613787E-1,-9.657495022E-1,-1.170688748E0
5.287743960E-1,4.466820657E-1,-9.364288449E-1,-1.123042703E0
5.311962710E-1,4.857762754E-1,-9.205468297E-1,-1.066844702E0
5.336190320E-1,5.260922313E-1,-9.083298445E-1,-1.015533566E0
5.360409070E-1,5.664080977E-1,-8.887827396E-1,-9.678874612E-1
5.384620520E-1,6.067240238E-1,-8.716790676E-1,-9.263498783E-1
5.408839270E-1,6.421532035E-1,-8.509102464E-1,-8.860339522E-1
5.433066880E-1,6.726955175E-1,-8.301414251E-1,-8.457180262E-1
5.457285630E-1,6.959077120E-1,-8.167027831E-1,-8.090671897E-1
5.481497090E-1,7.093463540E-1,-8.105943203E-1,-7.736380696E-1
5.505715840E-1,7.093463540E-1,-8.118160367E-1,-7.406523228E-1
5.529943440E-1,7.032378912E-1,-8.252546191E-1,-7.088882327E-1
5.554162190E-1,6.861341596E-1,-8.411366940E-1,-6.795675755E-1
5.578373130E-1,6.641436815E-1,-8.729007244E-1,-6.539120078E-1
5.602592400E-1,6.372663975E-1,-9.119949341E-1,-6.319214702E-1
5.626820000E-1,6.042806506E-1,-9.620844126E-1,-6.123743653E-1
5.651038750E-1,5.676298141E-1,-1.015838981E0,-5.952706337E-1
5.675249690E-1,5.273138881E-1,-1.083032131E0,-5.806103349E-1
5.699468960E-1,4.833329022E-1,-1.162442327E0,-5.683933496E-1
5.723696570E-1,4.405735731E-1,-1.246739268E0,-5.598415136E-1
5.747915320E-1,3.953709006E-1,-1.318819284E0,-5.549547076E-1
5.772126250E-1,3.489464819E-1,-1.370130420E0,-5.488462448E-1
5.796345520E-1,2.976353168E-1,-1.405559540E0,-5.464028716E-1
5.820573130E-1,2.524326444E-1,-1.429993391E0,-5.415160656E-1
5.844791880E-1,2.060082406E-1,-1.449540496E0,-5.427377820E-1
5.869002820E-1,1.620272398E-1,-1.465422630E0,-5.427377820E-1
5.893222090E-1,1.192679256E-1,-1.469087601E0,-5.402944088E-1
5.917449690E-1,7.895200700E-2,-1.467865944E0,-5.341859460E-1
5.941667920E-1,4.230117425E-2,-1.467865944E0,-5.292991400E-1
5.965879380E-1,1.175880991E-2,-1.462979198E0,-5.231906772E-1
5.990098650E-1,-1.023169141E-2,-1.451983929E0,-5.158604980E-1
6.014325730E-1,-2.489202656E-2,-1.448318839E0,-5.085303187E-1
6.038544480E-1,-3.100049868E-2,-1.438545346E0,-4.999784827E-1
6.062755940E-1,-2.855710872E-2,-1.408002973E0,-4.926483035E-1
6.086975210E-1,-1.267508045E-2,-1.357913494E0,-4.816530645E-1
6.111202290E-1,9.315420873E-3,-1.284611821E0,-4.706578255E-1
6.135421040E-1,4.107947648E-2,-1.203979969E0,-4.584408700E-1
6.159632500E-1,8.139539510E-2,-1.119683027E0,-4.450022280E-1
6.183851250E-1,1.253764033E-1,-1.028055906E0,-4.327852726E-1
6.208078860E-1,1.754658818E-1,-9.510892034E-1,-4.193466306E-1
6.232297610E-1,2.243336588E-1,-8.924478292E-1,-4.010212123E-1
6.256509070E-1,2.719797492E-1,-8.472451568E-1,-3.802524209E-1
6.280727820E-1,3.159607351E-1,-8.081509471E-1,-3.582619131E-1
6.304955420E-1,3.562766612E-1,-7.715001106E-1,-3.326063454E-1
6.329174170E-1,3.965925872E-1,-7.519529462E-1,-3.069507480E-1
6.353385110E-1,4.320217371E-1,-7.385143638E-1,-2.849602401E-1
6.377604380E-1,4.637857676E-1,-7.385143638E-1,-2.641914487E-1
6.401831980E-1,4.821111858E-1,-7.421793938E-1,-2.495311052E-1
6.426050730E-1,4.918847680E-1,-7.421793938E-1,-2.360924631E-1
6.450261670E-1,4.882196784E-1,-7.336275578E-1,-2.226538211E-1
6.474480940E-1,4.772244096E-1,-7.116370797E-1,-2.079934925E-1
6.498708540E-1,4.564556181E-1,-6.896465421E-1,-1.921114624E-1
6.522927290E-1,4.320217371E-1,-6.566607952E-1,-1.762294322E-1
6.547138230E-1,4.039227366E-1,-6.090146899E-1,-1.579040140E-1
6.571357500E-1,3.758237660E-1,-5.503733754E-1,-1.395785958E-1
6.595585110E-1,3.513898849E-1,-4.844018817E-1,-1.188097894E-1
6.619803340E-1,3.245126009E-1,-4.086568058E-1,-9.804098308E-2
6.644014790E-1,3.025220931E-1,-3.109212518E-1,-7.727217674E-2
6.668234070E-1,2.866400778E-1,-1.997470558E-1,-5.405998230E-2
6.692461670E-1,2.768665254E-1,-8.857285231E-2,-3.329117596E-2
6.716679900E-1,2.695363462E-1,2.626643144E-2,-1.007897966E-2
6.740891360E-1,2.646495700E-1,1.435490996E-1,1.557660475E-2
6.765110630E-1,2.585411072E-1,2.571666837E-1,4.123219103E-2
6.789338230E-1,2.536543310E-1,3.707842827E-1,6.688777357E-2
6.813556460E-1,2.451024652E-1,4.807367921E-1,9.376505762E-2
6.837767920E-1,2.353289127E-1,5.931326747E-1,1.194206402E-1
6.861987190E-1,2.218902707E-1,6.859814525E-1,1.414111406E-1
6.886214270E-1,2.060082406E-1,7.556180358E-1,1.585148573E-1
6.910433020E-1,1.803526580E-1,8.044858575E-1,1.695101112E-1
6.934644480E-1,1.620272398E-1,8.069292307E-1,1.719534993E-1
6.958863230E-1,1.400367320E-1,7.824953198E-1,1.670667231E-1
6.983090840E-1,1.180462316E-1,7.397360206E-1,1.560714692E-1
7.007309590E-1,9.116895497E-2,7.043069005E-1,1.377460510E-1
7.031521040E-1,6.062658876E-2,6.737645268E-1,1.181989461E-1
7.055739790E-1,2.886253223E-2,6.395570636E-1,9.743013978E-2
7.079967400E-1,-1.023169141E-2,6.200099587E-1,7.910472155E-2
7.104186150E-1,-5.176930502E-2,6.090146899E-1,6.322269142E-2
7.128397090E-1,-9.697200358E-2,5.980194807E-1,5.222744122E-2
7.152616360E-1,-1.519482583E-1,5.906893015E-1,4.367557913E-2
7.176843960E-1,-2.069245130E-1,5.882459283E-1,4.001049697E-2
7.201062710E-1,-2.692309320E-1,5.870242119E-1,4.123219103E-2
7.225273650E-1,-3.364241421E-1,5.870242119E-1,4.367557913E-2
7.249492920E-1,-4.036173224E-1,5.723638535E-1,4.856235534E-2
7.273720520E-1,-4.708105326E-1,5.589252710E-1,5.344913527E-2
7.297939270E-1,-5.355603099E-1,5.454866290E-1,5.589252338E-2
7.322150210E-1,-5.978667736E-1,5.381564498E-1,5.589252338E-2
7.346369480E-1,-6.528429985E-1,5.357130170E-1,5.589252338E-2
7.370597090E-1,-7.053758502E-1,5.344913602E-1,5.222744122E-2
7.394815320E-1,-7.566870451E-1,5.564818382E-1,4.978405312E-2
7.419026770E-1,-8.055548072E-1,6.090146899E-1,4.489727318E-2
7.443246040E-1,-8.483141065E-1,6.823163629E-1,4.001049697E-2
7.467473650E-1,-8.849649429E-1,7.739434838E-1,3.512371704E-2
7.491691880E-1,-9.130639434E-1,8.900044560E-1,2.657185495E-2
7.515903340E-1,-9.326110482E-1,1.032942772E0,1.801999472E-2
7.540122610E-1,-9.399412274E-1,1.190541267E0,2.137965523E-3
7.564349690E-1,-9.301676750E-1,1.361578584E0,-1.618745178E-2
7.588568440E-1,-8.947384953E-1,1.555827975E0,-3.695625812E-2
7.612779900E-1,-8.153283596E-1,1.768402815E0,-5.528167635E-2
7.636998650E-1,-6.638382673E-1,1.962652206E0,-6.016845629E-2
7.661226250E-1,-4.475983381E-1,2.024958611E0,-4.306473210E-2
7.685445000E-1,-2.130329758E-1,1.904010892E0,-6.413896102E-3
7.709656460E-1,-1.756185852E-2,1.703652978E0,3.634541109E-2
7.733875210E-1,1.070509851E-1,1.546054363E0,5.955760926E-2
7.758102820E-1,1.754658818E-1,1.462979198E0,6.688777357E-2
7.782321570E-1,2.096733153E-1,1.418998241E0,6.566607952E-2
7.806533020E-1,2.292204350E-1,1.398229361E0,6.810946763E-2
7.830751770E-1,2.499892414E-1,1.394564271E0,6.933116168E-2
7.854979380E-1,2.841966748E-1,1.416554809E0,8.399149776E-2
7.879198130E-1,3.293993771E-1,1.431215167E0,9.743013978E-2
7.903409070E-1,3.709369898E-1,1.426328301E0,1.059819981E-1
7.927628340E-1,3.953709006E-1,1.405559540E0,1.035386100E-1
7.951855940E-1,4.100312293E-1,1.377460599E0,8.887827396E-2
7.976074690E-1,4.136963189E-1,1.343253136E0,6.933116168E-2
8.000285630E-1,4.088095427E-1,1.300493836E0,4.367557913E-2
8.024504900E-1,3.917058110E-1,1.262621284E0,1.557660475E-2
8.048732500E-1,3.733803928E-1,1.218640327E0,-1.007897966E-2
8.072951250E-1,3.599417508E-1,1.168550849E0,-3.695625812E-2
8.097162190E-1,3.538332880E-1,1.131899953E0,-6.261184067E-2
8.121381460E-1,3.587200642E-1,1.109909415E0,-8.460234851E-2
8.145609070E-1,3.782671690E-1,1.101357579E0,-1.065928489E-1
8.169827290E-1,4.039227366E-1,1.100135922E0,-1.273616552E-1
8.194038750E-1,4.320217371E-1,1.100135922E0,-1.481304616E-1
8.218258020E-1,4.552339315E-1,1.094027400E0,-1.676775664E-1
8.242485110E-1,4.723376334E-1,1.081810474E0,-1.872246861E-1
8.266703860E-1,4.845545888E-1,1.061041713E0,-1.994416267E-1
8.290915320E-1,4.918847680E-1,1.026834249E0,-2.104368806E-1
8.315134590E-1,4.943281412E-1,9.804098606E-1,-2.189887464E-1
8.339361670E-1,4.943281412E-1,9.181034565E-1,-2.263189107E-1
8.363580420E-1,4.894413650E-1,8.448017836E-1,-2.397575527E-1
8.387791880E-1,4.833329022E-1,7.641699314E-1,-2.568612695E-1
8.412010630E-1,4.760027230E-1,6.786513329E-1,-2.764083743E-1
8.436238230E-1,4.698942602E-1,5.943543911E-1,-3.020639718E-1
8.460456980E-1,4.601207078E-1,5.173876286E-1,-3.216110766E-1
8.484668440E-1,4.454603493E-1,4.514161348E-1,-3.374931216E-1
8.508887190E-1,4.295783341E-1,4.001049399E-1,-3.484883606E-1
8.533114790E-1,4.088095427E-1,3.658975065E-1,-3.570402265E-1
8.557333540E-1,3.904841244E-1,3.365768492E-1,-3.594835997E-1
8.581544480E-1,3.782671690E-1,3.133646548E-1,-3.594835997E-1
8.605763750E-1,3.648285270E-1,3.060344756E-1,-3.533751369E-1
8.629991360E-1,3.562766612E-1,3.109212518E-1,-3.460449576E-1
8.654210110E-1,3.574983478E-1,3.292466700E-1,-3.374931216E-1
8.678421040E-1,3.648285270E-1,3.585673273E-1,-3.313846290E-1
8.702640320E-1,3.831539452E-1,3.939964771E-1,-3.264978528E-1
8.726867920E-1,4.039227366E-1,4.355340898E-1,-3.228327632E-1
8.751086670E-1,4.283566475E-1,4.868452549E-1,-3.179459870E-1
8.775297610E-1,4.588989913E-1,5.381564498E-1,-3.142809272E-1
8.799516880E-1,4.882196784E-1,5.882459283E-1,-3.106158376E-1
8.823744480E-1,5.150969625E-1,6.322268844E-1,-3.045073450E-1
8.847962710E-1,5.383091569E-1,6.713211536E-1,-2.959555089E-1
8.872174170E-1,5.554128885E-1,7.006418109E-1,-2.874036431E-1
8.896393440E-1,5.700731874E-1,7.299624681E-1,-2.776300907E-1
8.920621040E-1,5.859552622E-1,7.653915882E-1,-2.666348219E-1
8.944839270E-1,6.067240238E-1,8.020424247E-1,-2.556395829E-1
8.969050730E-1,6.287145615E-1,8.484668136E-1,-2.483094037E-1
8.993270000E-1,6.592568755E-1,8.997780085E-1,-2.470877171E-1
9.017497090E-1,6.934643388E-1,9.571976662E-1,-2.483094037E-1
9.041715840E-1,7.313368917E-1,1.013395548E0,-2.544178963E-1
9.065927290E-1,7.704311013E-1,1.069593549E0,-2.617480457E-1
9.090146040E-1,8.095253110E-1,1.120904684E0,-2.715215981E-1
9.114373650E-1,8.473978639E-1,1.158777237E0,-2.800734639E-1
9.138592400E-1,8.816053271E-1,1.180767775E0,-2.861819267E-1
9.162803340E-1,9.084826112E-1,1.174659252E0,-2.874036431E-1
9.187022610E-1,9.316948056E-1,1.129456639E0,-2.861819267E-1
9.211250210E-1,9.463551044E-1,1.045159698E0,-2.874036431E-1
9.235468960E-1,9.524635673E-1,9.339854717E-1,-2.861819267E-1
9.259679900E-1,9.536852837E-1,7.995990515E-1,-2.861819267E-1
9.283899170E-1,9.439117312E-1,6.481089592E-1,-2.898470163E-1
9.308126770E-1,9.280297160E-1,4.880669713E-1,-2.971771955E-1
9.332345520E-1,9.023740888E-1,3.194731176E-1,-3.057290614E-1
9.356556460E-1,8.645015955E-1,1.508792788E-1,-3.155026138E-1
9.380775730E-1,8.217422962E-1,-1.893626526E-2,-3.240544796E-1
9.405003340E-1,7.728744745E-1,-1.899735034E-1,-3.326063454E-1
9.429221570E-1,7.178982496E-1,-3.402419090E-1,-3.338280320E-1
9.453433020E-1,6.555918455E-1,-4.575245976E-1,-3.277195692E-1
9.477652290E-1,5.920637250E-1,-5.430431962E-1,-3.155026138E-1
9.501879900E-1,5.297572613E-1,-5.967977643E-1,-2.983988822E-1
9.526098130E-1,4.723376334E-1,-6.187883019E-1,-2.751866877E-1
9.550309590E-1,4.283566475E-1,-6.212316751E-1,-2.519744933E-1
9.574528860E-1,3.941491842E-1,-5.943543911E-1,-2.275405973E-1
9.598755940E-1,3.794888556E-1,-5.491516590E-1,-2.043284029E-1
9.622974690E-1,3.758237660E-1,-4.856235683E-1,-1.798945218E-1
9.647186150E-1,3.855973184E-1,-4.074351192E-1,-1.579040140E-1
9.671405420E-1,4.051444530E-1,-3.158080280E-1,-1.359135211E-1
9.695632500E-1,4.332434237E-1,-2.180724740E-1,-1.139230132E-1
9.719851250E-1,4.711159468E-1,-1.227803007E-1,-9.315420687E-2
9.744062710E-1,5.150969625E-1,-2.626643144E-2,-7.238540053E-2
9.768281460E-1,5.639647245E-1,6.169557199E-2,-5.283828825E-2
9.792509070E-1,6.164975762E-1,1.447708011E-1,-3.084778599E-2
9.816727820E-1,6.702521443E-1,2.156290859E-1,-1.130067464E-2
9.840938750E-1,7.240067124E-1,2.779355049E-1,7.024743594E-3
9.865158020E-1,7.704311013E-1,3.329117596E-1,2.657185495E-2
9.889385630E-1,8.205205798E-1,3.683409095E-1,4.489727318E-2
9.913604380E-1,8.657232523E-1,3.854446113E-1,5.589252338E-2
9.937815320E-1,9.035958052E-1,3.964398801E-1,6.688777357E-2
9.962034590E-1,9.329164624E-1,3.964398801E-1,7.910472155E-2
9.986262190E-1,9.573503733E-1,3.891097009E-1,9.009996802E-2
1.001048042E0,9.732323885E-1,3.720059693E-1,9.743013978E-2
1.003469188E0,9.768974781E-1,3.463504016E-1,1.059819981E-1
1.005891115E0,9.744541049E-1,3.243598938E-1,1.157555580E-1
1.008313875E0,9.671239257E-1,2.999260128E-1,1.243074164E-1
1.010735698E0,9.536852837E-1,2.754921019E-1,1.304158866E-1
1.013156844E0,9.353598356E-1,2.535016239E-1,1.377460510E-1
1.015578771E0,9.194778204E-1,2.351761907E-1,1.414111406E-1
1.018001532E0,9.035958052E-1,2.168507725E-1,1.475196183E-1
1.020423354E0,8.877137899E-1,1.973036677E-1,1.511846930E-1
1.022844500E0,8.718317747E-1,1.875301152E-1,1.536280811E-1
1.025266427E0,8.522846103E-1,1.863084137E-1,1.597365588E-1
1.027689136E0,8.437327743E-1,1.801999360E-1,1.609582454E-1
1.030111011E0,8.315158486E-1,1.753131598E-1,1.634016484E-1
1.032532157E0,8.229639530E-1,1.740914732E-1,1.634016484E-1
1.034954084E0,8.144121170E-1,1.692046970E-1,1.658450365E-1
1.037376792E0,8.058602214E-1,1.655396074E-1,1.658450365E-1
1.039798667E0,7.960866690E-1,1.606528312E-1,1.646233350E-1
1.042219761E0,7.875348330E-1,1.594311297E-1,1.609582454E-1
1.044641688E0,7.802046537E-1,1.569877416E-1,1.524063945E-1
1.047064448E0,7.753179073E-1,1.582094431E-1,1.401894391E-1
1.049486323E0,7.728744745E-1,1.716480851E-1,1.267508119E-1
1.051907417E0,7.728744745E-1,1.875301152E-1,1.169772521E-1
1.054329344E0,7.728744745E-1,2.058555335E-1,1.072036922E-1
1.056752104E0,7.679877281E-1,2.241809368E-1,1.035386100E-1
1.059173979E0,7.679877281E-1,2.327328026E-1,1.010952219E-1
1.061595073E0,7.643226385E-1,2.425063550E-1,9.987352788E-2
1.064017000E0,7.655443549E-1,2.510582209E-1,9.865183383E-2
1.066439761E0,7.667660117E-1,2.559449971E-1,9.743013978E-2
1.068861584E0,7.692093849E-1,2.583884001E-1,9.376505762E-2
1.071282729E0,7.704311013E-1,2.583884001E-1,9.009996802E-2
1.073704657E0,7.753179073E-1,2.559449971E-1,8.887827396E-2
1.076127365E0,7.789829373E-1,2.498365343E-1,8.887827396E-2
1.078549240E0,7.814263701E-1,2.388412803E-1,8.765657991E-2
1.080970386E0,7.814263701E-1,2.266243398E-1,8.276980370E-2
1.083392313E0,7.802046537E-1,2.046338320E-1,7.910472155E-2
1.085815021E0,7.765395641E-1,1.789782494E-1,7.299624383E-2
1.088236896E0,7.716528177E-1,1.496575773E-1,6.444438547E-2
1.090658042E0,7.667660117E-1,1.252236813E-1,5.711421743E-2
1.093079969E0,7.606575489E-1,1.032331884E-1,4.856235534E-2
1.095502677E0,7.557707429E-1,8.735115826E-2,3.756710514E-2
1.097924552E0,7.533273697E-1,7.391251624E-2,2.657185495E-2
1.100345698E0,7.521057129E-1,6.658235192E-2,1.191152167E-2
1.102767573E0,7.557707429E-1,6.169557199E-2,-2.748812549E-3
1.105190334E0,7.618792653E-1,5.436540768E-2,-1.740914769E-2
1.107612209E0,7.740961909E-1,4.337015375E-2,-3.329117596E-2
1.110033302E0,7.924215794E-1,3.848337755E-2,-5.039490014E-2
1.112455229E0,8.131904006E-1,5.070032179E-2,-6.261184067E-2
1.114877990E0,8.327375054E-1,7.391251624E-2,-7.116370648E-2
1.117299865E0,8.559496999E-1,1.020114943E-1,-7.849387079E-2
1.119720959E0,8.767185211E-1,1.349972486E-1,-8.582404256E-2
1.122142886E0,8.974873424E-1,1.740914732E-1,-9.315420687E-2
1.124565646E0,9.182561636E-1,2.082989216E-1,-1.065928489E-1
1.126987521E0,9.402466416E-1,2.388412803E-1,-1.163664013E-1
1.129408615E0,9.634588361E-1,2.644968629E-1,-1.334701329E-1
1.131830542E0,9.854493141E-1,2.864873707E-1,-1.493521482E-1
1.134253302E0,1.009883285E0,3.023693860E-1,-1.676775664E-1
1.136675125E0,1.030652046E0,3.109212518E-1,-1.872246861E-1
1.139096271E0,1.050199151E0,3.121429384E-1,-2.092151791E-1
1.141518198E0,1.066081166E0,3.109212518E-1,-2.324273884E-1
1.143940907E0,1.081963181E0,3.072561622E-1,-2.568612695E-1
1.146362782E0,1.095401883E0,3.060344756E-1,-2.812951505E-1
1.148783927E0,1.108840466E0,3.023693860E-1,-3.032856584E-1
1.151205802E0,1.119835734E0,3.084778786E-1,-3.240544796E-1
1.153628563E0,1.128387570E0,3.231382072E-1,-3.423798978E-1
1.156050438E0,1.127165914E0,3.536805511E-1,-3.570402265E-1
1.158471584E0,1.107618809E0,4.135435820E-1,-3.753656447E-1
1.160893459E0,1.085628271E0,4.550811946E-1,-3.924693763E-1
1.163316219E0,1.072189689E0,4.672981501E-1,-4.034646153E-1
1.165738094E0,1.058750987E0,4.660764635E-1,-4.034646153E-1
1.168159188E0,1.039203882E0,4.453076422E-1,-3.851391971E-1
1.170581115E0,1.017213345E0,4.257605374E-1,-3.826957941E-1
1.173003875E0,9.940012097E-1,4.135435820E-1,-4.156815708E-1
1.175425750E0,9.683456421E-1,4.074351192E-1,-4.645493329E-1
1.177846844E0,9.414683580E-1,4.001049399E-1,-5.195255876E-1
1.180268771E0,9.182561636E-1,4.049917459E-1,-5.696150661E-1
1.182691532E0,8.974873424E-1,4.220954478E-1,-6.184828281E-1
1.185113354E0,8.901571631E-1,4.428642690E-1,-6.624638438E-1
1.187534500E0,8.926005363E-1,4.624113739E-1,-6.991146803E-1
1.189956427E0,9.072608948E-1,4.844018817E-1,-7.308787704E-1
1.192379188E0,9.292513728E-1,4.966188073E-1,-7.565343380E-1
1.194801011E0,9.610154629E-1,4.953971207E-1,-7.760814428E-1
1.197222157E0,9.964445829E-1,4.844018817E-1,-7.895200849E-1
1.199644084E0,1.029430389E0,4.660764635E-1,-7.956285477E-1
1.202066792E0,1.061194420E0,4.330907166E-1,-7.980719209E-1
1.204488667E0,1.085628271E0,3.830012381E-1,-7.809682488E-1
1.206909813E0,1.097845197E0,3.194731176E-1,-7.577560544E-1
1.209331688E0,1.107618809E0,2.596100867E-1,-7.455390692E-1
1.211754448E0,1.114948988E0,2.009687424E-1,-7.406523228E-1
1.214176323E0,1.125944257E0,1.435490996E-1,-7.394306064E-1
1.216597469E0,1.133274436E0,9.101624042E-2,-7.443174124E-1
1.219019344E0,1.139382839E0,4.337015375E-2,-7.479824424E-1
1.221442104E0,1.145491362E0,1.832541777E-3,-7.528692484E-1
1.223863979E0,1.149156451E0,-2.137965336E-2,-7.528692484E-1
1.226285073E0,1.129609346E0,-3.054236295E-3,-7.259919643E-1
1.228707000E0,1.105175376E0,2.015795931E-2,-6.966713071E-1
1.231129761E0,1.085628271E0,3.603998944E-2,-6.783458591E-1
1.233551636E0,1.073411345E0,4.459185153E-2,-6.673506498E-1
1.235972729E0,1.067302823E0,4.581354558E-2,-6.587987542E-1
1.238394657E0,1.062416077E0,3.726168349E-2,-6.465818286E-1
1.240817417E0,1.058750987E0,2.382304333E-2,-6.282563806E-1
1.243239240E0,1.057529330E0,6.719320081E-3,-6.038225293E-1
1.245660386E0,1.055085897E0,-7.941014133E-3,-5.769452453E-1
1.248082313E0,1.053864241E0,-2.015795931E-2,-5.488462448E-1
1.250505021E0,1.056307673E0,-2.504473738E-2,-5.219689608E-1
1.252926896E0,1.059972763E0,-2.748812735E-2,-4.975350797E-1
1.255348042E0,1.064859509E0,-2.626643144E-2,-4.718795121E-1
1.257769969E0,1.068524599E0,-2.504473738E-2,-4.498890042E-1
1.260192677E0,1.079519868E0,-2.382304333E-2,-4.291202128E-1
1.262614552E0,1.090515018E0,-2.504473738E-2,-4.107947946E-1
1.265035698E0,1.102732062E0,-2.137965336E-2,-3.949127495E-1
1.267457573E0,1.119835734E0,-2.260134928E-2,-3.802524209E-1
1.269880334E0,1.143047929E0,-2.504473738E-2,-3.680354655E-1
1.272302209E0,1.169925213E0,-2.993151546E-2,-3.582619131E-1
1.274723302E0,1.198024154E0,-2.870982140E-2,-3.484883606E-1
1.277145229E0,1.228566527E0,-3.359659761E-2,-3.436015844E-1
1.279567990E0,1.257887244E0,-3.848337755E-2,-3.387148082E-1
1.281989865E0,1.284764528E0,-4.459185153E-2,-3.362714052E-1
1.284410959E0,1.311641812E0,-5.192201585E-2,-3.350497186E-1
1.286832886E0,1.340962410E0,-5.925218388E-2,-3.387148082E-1
1.289255646E0,1.366618037E0,-6.413896382E-2,-3.436015844E-1
1.291677469E0,1.386165142E0,-6.780404598E-2,-3.521534503E-1
1.294098615E0,1.404490590E0,-6.536065787E-2,-3.619270027E-1
1.296520542E0,1.417929173E0,-5.803048983E-2,-3.753656447E-1
1.298943302E0,1.424037695E0,-4.459185153E-2,-3.888042867E-1
1.301365125E0,1.428924441E0,-3.603998944E-2,-4.034646153E-1
1.303786271E0,1.427702785E0,-3.359659761E-2,-4.193466306E-1
1.306208146E0,1.425259352E0,-3.115320951E-2,-4.364503622E-1
1.308630907E0,1.425259352E0,-3.115320951E-2,-4.535540938E-1
1.311052782E0,1.420372605E0,-2.504473738E-2,-4.718795121E-1
1.313473927E0,1.419150949E0,-1.649287529E-2,-4.889832437E-1
1.315895802E0,1.420372605E0,-1.160609815E-2,-5.036435723E-1
1.318318563E0,1.422815919E0,-1.038440317E-2,-5.195255876E-1
1.320740438E0,1.428924441E0,-6.719320081E-3,-5.280774832E-1
1.323161532E0,1.432589531E0,1.832541777E-3,-5.354076028E-1
1.325583459E0,1.442363143E0,7.941014133E-3,-5.366293192E-1
1.328006219E0,1.453358293E0,1.038440317E-2,-5.354076028E-1
1.330428094E0,1.468018651E0,1.527118124E-2,-5.280774832E-1
1.332849188E0,1.486344099E0,1.527118124E-2,-5.170822144E-1
1.335271115E0,1.509556293E0,1.649287529E-2,-5.036435723E-1
1.337693875E0,1.537655234E0,1.527118124E-2,-4.889832437E-1
1.340115750E0,1.569419265E0,2.137965336E-2,-4.731011987E-1
1.342536844E0,1.609735250E0,2.993151546E-2,-4.572191834E-1
1.344958771E0,1.654937983E0,4.459185153E-2,-4.413371384E-1
1.347381532E0,1.700140595E0,5.803048983E-2,-4.266768098E-1
1.349803354E0,1.747786760E0,7.635590434E-2,-4.083513916E-1
1.352224500E0,1.799097896E0,8.979454637E-2,-3.912476599E-1
1.354646427E0,1.846743941E0,1.068982705E-1,-3.790307343E-1
1.357069136E0,1.891946673E0,1.203369126E-1,-3.680354655E-1
1.359491011E0,1.935927629E0,1.325538605E-1,-3.619270027E-1
1.361912157E0,1.973800182E0,1.423274130E-1,-3.558185399E-1
1.364334032E0,2.004342556E0,1.545443535E-1,-3.533751369E-1
1.366756792E0,2.028776407E0,1.692046970E-1,-3.497100472E-1
1.369178667E0,2.049545288E0,1.850867122E-1,-3.460449576E-1
1.371599761E0,2.060540438E0,2.009687424E-1,-3.423798978E-1
1.374021688E0,2.062983990E0,2.131856978E-1,-3.411581814E-1
1.376444448E0,2.061762094E0,2.205158621E-1,-3.374931216E-1
1.378866323E0,2.058097124E0,2.241809368E-1,-3.350497186E-1
1.381287417E0,2.050766945E0,2.229592502E-1,-3.350497186E-1
1.383709344E0,2.042215109E0,2.180724740E-1,-3.338280320E-1
1.386132104E0,2.033663273E0,2.070772201E-1,-3.326063454E-1
1.388553979E0,2.022667885E0,1.960819662E-1,-3.289412558E-1
1.390975073E0,2.017781258E0,1.789782494E-1,-3.216110766E-1
1.393397000E0,2.009229422E0,1.655396074E-1,-3.118375242E-1
1.395819761E0,1.999455810E0,1.533226669E-1,-3.032856584E-1
1.398241584E0,1.993347287E0,1.386623234E-1,-2.947337925E-1
1.400662729E0,1.988460541E0,1.227803007E-1,-2.861819267E-1
1.403084657E0,1.979908705E0,1.081199646E-1,-2.788517773E-1
1.405507365E0,1.975021958E0,9.223793447E-2,-2.715215981E-1
1.407929240E0,1.965248346E0,8.246438205E-2,-2.629697323E-1
1.410350386E0,1.953031421E0,7.269082218E-2,-2.544178963E-1
1.412772261E0,1.938371062E0,6.902574003E-2,-2.458660156E-1
1.415195021E0,1.918823957E0,6.902574003E-2,-2.385358512E-1
1.417616896E0,1.895611763E0,7.513421029E-2,-2.336490750E-1
1.420038042E0,1.869956136E0,8.979454637E-2,-2.275405973E-1
1.422459917E0,1.841857195E0,1.093416587E-1,-2.238755226E-1
1.424882677E0,1.813758254E0,1.301104724E-1,-2.226538211E-1
1.427304552E0,1.784437537E0,1.521009654E-1,-2.226538211E-1
1.429725646E0,1.753895164E0,1.789782494E-1,-2.226538211E-1
1.432147573E0,1.722131133E0,2.021904439E-1,-2.250972092E-1
1.434570334E0,1.689145327E0,2.229592502E-1,-2.287622988E-1
1.436992209E0,1.657381296E0,2.363978922E-1,-2.336490750E-1
1.439413302E0,1.619508743E0,2.498365343E-1,-2.373141646E-1
1.441835229E0,1.580414534E0,2.596100867E-1,-2.409792393E-1
1.444257990E0,1.540098667E0,2.657185495E-1,-2.434226274E-1
1.446679813E0,1.502226114E0,2.730487287E-1,-2.446443290E-1
1.449100959E0,1.465575337E0,2.803788781E-1,-2.458660156E-1
1.451522886E0,1.430146098E0,2.938175201E-1,-2.483094037E-1
1.453945594E0,1.392273664E0,3.121429384E-1,-2.483094037E-1
1.456367469E0,1.353179336E0,3.390202224E-1,-2.434226274E-1
1.458788615E0,1.310420036E0,3.671191931E-1,-2.360924631E-1
1.461210490E0,1.271325827E0,3.854446113E-1,-2.250972092E-1
1.463633250E0,1.227344871E0,3.976615667E-1,-2.116585821E-1
1.466055125E0,1.182142138E0,4.013266563E-1,-1.969982386E-1
1.468476271E0,1.139382839E0,3.878880143E-1,-1.823379099E-1
1.470898146E0,1.097845197E0,3.671191931E-1,-1.627907902E-1
1.473320907E0,1.062416077E0,3.353551328E-1,-1.432436854E-1
1.475742782E0,1.026986957E0,3.023693860E-1,-1.224748790E-1
1.478163875E0,9.964445829E-1,2.620534599E-1,-1.017060652E-1
1.480585802E0,9.683456421E-1,2.339545041E-1,-7.849387079E-2
1.483008563E0,9.463551044E-1,2.131856978E-1,-5.528167635E-2
1.485430386E0,9.292513728E-1,1.997470558E-1,-3.573456407E-2
1.487851532E0,9.145910740E-1,2.021904439E-1,-1.252236869E-2
1.490273459E0,9.011524320E-1,2.156290859E-1,7.024743594E-3
1.492696219E0,8.901571631E-1,2.363978922E-1,2.779355086E-2
1.495118042E0,8.816053271E-1,2.571666837E-1,4.611896724E-2
1.497539188E0,8.706100583E-1,2.877090573E-1,6.566607952E-2
1.499961115E0,8.571714163E-1,3.206948042E-1,8.643488586E-2
1.502383823E0,8.437327743E-1,3.475720882E-1,1.072036922E-1
1.504805698E0,8.241856694E-1,3.671191931E-1,1.291942000E-1
1.507226844E0,8.034168482E-1,3.744493723E-1,1.548497826E-1
1.509648719E0,7.777612805E-1,3.707842827E-1,1.780619770E-1
1.512071479E0,7.545490861E-1,3.512371778E-1,2.037175596E-1
1.514493354E0,7.301151752E-1,3.231382072E-1,2.269297540E-1
1.516914500E0,7.069029808E-1,2.901524603E-1,2.513636351E-1
1.519336375E0,6.849125028E-1,2.547233105E-1,2.684673667E-1
1.521759136E0,6.629219651E-1,2.229592502E-1,2.843494117E-1
1.524181011E0,6.433748603E-1,1.960819662E-1,2.977880239E-1
1.526602104E0,6.250494719E-1,1.753131598E-1,3.075616062E-1
1.529024032E0,6.091674566E-1,1.655396074E-1,3.112266660E-1
1.531446792E0,5.969504714E-1,1.643179059E-1,3.087832928E-1
1.533868667E0,5.859552622E-1,1.679829955E-1,3.014531136E-1
1.536289761E0,5.774033666E-1,1.789782494E-1,2.904578745E-1
1.538711688E0,5.700731874E-1,1.899735034E-1,2.745758295E-1
1.541134448E0,5.664080977E-1,2.058555335E-1,2.562504113E-1
1.543556271E0,5.712949038E-1,2.156290859E-1,2.342599183E-1
1.545977417E0,5.749599934E-1,2.254026383E-1,2.122694254E-1
1.548399344E0,5.835118294E-1,2.351761907E-1,1.890572309E-1
1.550822052E0,5.993938446E-1,2.400629669E-1,1.646233350E-1
1.553243927E0,6.213843822E-1,2.425063550E-1,1.401894391E-1
1.555665073E0,6.458182931E-1,2.425063550E-1,1.181989461E-1
1.558086948E0,6.702521443E-1,2.425063550E-1,9.620844573E-2
1.560509709E0,6.946860552E-1,2.388412803E-1,7.421794534E-2
1.562931584E0,7.215633392E-1,2.363978922E-1,5.589252338E-2
1.565352677E0,7.459971905E-1,2.266243398E-1,4.001049697E-2
1.567774604E0,7.704311013E-1,2.180724740E-1,2.779355086E-2
1.570197365E0,7.899782062E-1,2.131856978E-1,1.924168877E-2
1.572619240E0,8.095253110E-1,2.095206082E-1,1.313321572E-2
1.575040334E0,8.217422962E-1,2.119639963E-1,8.246437646E-3
1.577462261E0,8.364025950E-1,2.131856978E-1,4.581354558E-3
1.579885021E0,8.473978639E-1,2.168507725E-1,3.359660041E-3
1.582306844E0,8.559496999E-1,2.217375487E-1,4.581354558E-3
1.584727990E0,8.596147895E-1,2.278460264E-1,9.468132630E-3
1.587149917E0,8.620582223E-1,2.339545041E-1,1.435491070E-2
1.589572625E0,8.608365059E-1,2.400629669E-1,2.901524492E-2
1.591994500E0,8.583931327E-1,2.437280566E-1,4.489727318E-2
1.594415646E0,8.522846103E-1,2.461714447E-1,6.322269142E-2
1.596837521E0,8.461761475E-1,2.522799075E-1,8.643488586E-2
1.599260282E0,8.425110579E-1,2.486148328E-1,1.072036922E-1
1.601682157E0,8.388460279E-1,2.486148328E-1,1.291942000E-1
1.604103302E0,8.364025950E-1,2.412846684E-1,1.524063945E-1
1.606525177E0,8.364025950E-1,2.388412803E-1,1.743968874E-1
1.608947938E0,8.376243114E-1,2.302894145E-1,1.951656938E-1
1.611369813E0,8.425110579E-1,2.205158621E-1,2.159345001E-1
1.613790907E0,8.486195803E-1,2.144073844E-1,2.318165302E-1
1.616212834E0,8.608365059E-1,2.034121305E-1,2.428117841E-1
1.618635594E0,8.730534315E-1,1.850867122E-1,2.501419485E-1
1.621057417E0,8.877137899E-1,1.667613089E-1,2.538070381E-1
1.623478563E0,9.023740888E-1,1.435490996E-1,2.525853515E-1
1.625900490E0,9.194778204E-1,1.178935245E-1,2.489202619E-1
1.628323250E0,9.365815520E-1,9.345962852E-2,2.415900975E-1
1.630745073E0,9.573503733E-1,7.269082218E-2,2.318165302E-1
1.633166219E0,9.732323885E-1,5.680879578E-2,2.171562016E-1
1.635588094E0,9.915578365E-1,4.459185153E-2,1.976090819E-1
1.638010854E0,1.008661509E0,2.993151546E-2,1.756185889E-1
1.640432729E0,1.029430389E0,1.527118124E-2,1.487413049E-1
1.642853875E0,1.045312405E0,9.162709117E-3,1.194206402E-1
1.645275750E0,1.057529330E0,5.497625098E-3,9.132166207E-2
1.647698511E0,1.066081166E0,5.497625098E-3,6.200099736E-2
1.650120386E0,1.072189689E0,3.054236295E-3,3.512371704E-2
1.652541479E0,1.073411345E0,-6.108472589E-4,7.024743594E-3
1.654963407E0,1.069746256E0,-1.832541777E-3,-2.229592577E-2
1.657386167E0,1.063637733E0,-7.941014133E-3,-5.039490014E-2
1.659808042E0,1.055085897E0,-1.649287529E-2,-7.849387079E-2
1.662229136E0,1.042868972E0,-2.260134928E-2,-1.053711548E-1
1.664651063E0,1.025765300E0,-2.137965336E-2,-1.261399537E-1
1.667073823E0,1.009883285E0,-2.015795931E-2,-1.469087601E-1
1.669495646E0,9.964445829E-1,-1.893626526E-2,-1.591257155E-1
1.671916792E0,9.830059409E-1,-1.527118124E-2,-1.688992679E-1
1.674338719E0,9.756757617E-1,-1.282779220E-2,-1.774511337E-1
1.676761427E0,9.732323885E-1,-7.941014133E-3,-1.811162084E-1
1.679183302E0,9.756757617E-1,-5.497625098E-3,-1.823379099E-1
1.681604448E0,9.805625677E-1,-3.054236295E-3,-1.774511337E-1
1.684026323E0,9.903361201E-1,-4.275931045E-3,-1.713426560E-1
1.686449084E0,9.988879561E-1,-5.497625098E-3,-1.640124917E-1
1.688870959E0,1.013548255E0,-1.282779220E-2,-1.566823274E-1
1.691292104E0,1.028208613E0,-2.015795931E-2,-1.456870735E-1
1.693713979E0,1.045312405E0,-2.504473738E-2,-1.334701329E-1
1.696136740E0,1.066081166E0,-3.359659761E-2,-1.188097894E-1
1.698558615E0,1.085628271E0,-3.726168349E-2,-1.017060652E-1
1.700979709E0,1.106397152E0,-3.603998944E-2,-8.215895295E-2
1.703401636E0,1.127165914E0,-2.870982140E-2,-5.894676223E-2
1.705824396E0,1.151599765E0,-2.137965336E-2,-3.573456407E-2
1.708246219E0,1.171146870E0,-1.038440317E-2,-1.007897966E-2
1.710667365E0,1.185807228E0,3.054236295E-3,1.557660475E-2
1.713089292E0,1.198024154E0,1.282779220E-2,4.123219103E-2
1.715512000E0,1.201689243E0,1.893626526E-2,6.810946763E-2
1.717933875E0,1.201689243E0,1.649287529E-2,9.254335612E-2
1.720355021E0,1.193137407E0,6.719320081E-3,1.133121699E-1
1.722776896E0,1.180920482E0,-7.941014133E-3,1.353026628E-1
1.725199657E0,1.161373377E0,-2.504473738E-2,1.536280811E-1
1.727621532E0,1.141826272E0,-4.337015375E-2,1.695101112E-1
1.730042677E0,1.121057391E0,-5.925218388E-2,1.841704547E-1
1.732464552E0,1.097845197E0,-6.902574003E-2,1.951656938E-1
1.734887313E0,1.080741525E0,-7.391251624E-2,2.049392611E-1
1.737309188E0,1.063637733E0,-7.024743408E-2,2.110477239E-1
1.739730282E0,1.048977494E0,-5.925218388E-2,2.171562016E-1
1.742152209E0,1.034317136E0,-4.092676565E-2,2.232646793E-1
1.744574969E0,1.019656777E0,-1.771457121E-2,2.269297540E-1
1.746996792E0,1.006218195E0,5.497625098E-3,2.244863659E-1
1.749417938E0,9.878927469E-1,2.870982140E-2,2.171562016E-1
1.751839865E0,9.695672989E-1,4.581354558E-2,2.049392611E-1
1.754262625E0,9.487984776E-1,5.803048983E-2,1.902789176E-1
1.756684448E0,9.268079996E-1,6.169557199E-2,1.743968874E-1
1.759105594E0,9.035958052E-1,5.925218388E-2,1.572931707E-1
1.761527521E0,8.754968047E-1,5.558710173E-2,1.414111406E-1
1.763950229E0,8.486195803E-1,4.459185153E-2,1.243074164E-1
1.766372104E0,8.180772066E-1,3.603998944E-2,1.059819981E-1
1.768793250E0,7.863131166E-1,2.626643144E-2,8.887827396E-2
1.771215125E0,7.533273697E-1,1.771457121E-2,7.177454978E-2
1.773637886E0,7.252284288E-1,1.160609815E-2,5.467082933E-2
1.776059761E0,6.971294284E-1,9.162709117E-3,3.756710514E-2
1.778480854E0,6.629219651E-1,1.527118124E-2,2.290677279E-2
1.780902782E0,6.323796511E-1,1.771457121E-2,9.468132630E-3
1.783325542E0,6.030589342E-1,1.893626526E-2,-2.748812549E-3
1.785747417E0,5.761816502E-1,2.015795931E-2,-1.374406368E-2
1.788168511E0,5.541911721E-1,2.626643144E-2,-1.985253580E-2
1.790590438E0,5.370874405E-1,3.359659761E-2,-2.351761982E-2
1.793013198E0,5.212054253E-1,4.825693369E-2,-2.351761982E-2
1.795435021E0,5.126535892E-1,6.047387794E-2,-1.985253580E-2
1.797856167E0,5.028799772E-1,7.391251624E-2,-1.374406368E-2
1.800278094E0,4.931064546E-1,8.490777016E-2,-6.413896102E-3
1.802700802E0,4.845545888E-1,9.712471068E-2,2.137965523E-3
1.805122677E0,4.723376334E-1,1.068982705E-1,1.557660475E-2
1.807543823E0,4.637857676E-1,1.093416587E-1,2.779355086E-2
1.809965698E0,4.527905285E-1,1.105633527E-1,4.001049697E-2
1.812388459E0,4.417952895E-1,1.130067408E-1,5.467082933E-2
1.814810334E0,4.308000207E-1,1.166718230E-1,7.177454978E-2
1.817231427E0,4.173613787E-1,1.154501289E-1,8.643488586E-2
1.819653354E0,4.088095427E-1,1.178935245E-1,9.865183383E-2
1.822076115E0,4.002576768E-1,1.215586066E-1,1.157555580E-1
1.824497990E0,3.941491842E-1,1.203369126E-1,1.316375881E-1
1.826919084E0,3.965925872E-1,1.215586066E-1,1.487413049E-1
1.829341011E0,4.002576768E-1,1.252236813E-1,1.670667231E-1
1.831763771E0,4.088095427E-1,1.288887709E-1,1.841704547E-1
1.834185594E0,4.210264683E-1,1.313321590E-1,2.012741715E-1
1.836606740E0,4.393518865E-1,1.374406368E-1,2.195995897E-1
1.839028667E0,4.552339315E-1,1.447708011E-1,2.342599183E-1
1.841451375E0,4.711159468E-1,1.557660550E-1,2.476985604E-1
1.843873250E0,4.869979918E-1,1.655396074E-1,2.574721277E-1
1.846294396E0,4.992149174E-1,1.728697717E-1,2.672456801E-1
1.848716271E0,5.053234100E-1,1.789782494E-1,2.782409191E-1
1.851139032E0,5.163186193E-1,1.814216375E-1,2.867927849E-1
1.853560907E0,5.224271417E-1,1.838650256E-1,2.916795611E-1
1.855982052E0,5.248705149E-1,1.863084137E-1,2.990097404E-1
1.858403927E0,5.297572613E-1,1.850867122E-1,3.026748300E-1
1.860826688E0,5.322006941E-1,1.838650256E-1,3.038965166E-1
1.863248563E0,5.346440673E-1,1.863084137E-1,3.087832928E-1
1.865669657E0,5.407525301E-1,1.924168915E-1,3.112266660E-1
1.868091584E0,5.407525301E-1,2.021904439E-1,3.197785318E-1
1.870514344E0,5.444176197E-1,2.119639963E-1,3.246653080E-1
1.872936167E0,5.419742465E-1,2.217375487E-1,3.307738006E-1
1.875357313E0,5.419742465E-1,2.241809368E-1,3.344388604E-1
1.877779240E0,5.383091569E-1,2.254026383E-1,3.344388604E-1
1.880202000E0,5.346440673E-1,2.229592502E-1,3.332171738E-1
1.882623823E0,5.260922313E-1,2.205158621E-1,3.307738006E-1
1.885044969E0,5.163186193E-1,2.131856978E-1,3.246653080E-1
1.887466844E0,5.065450668E-1,2.046338320E-1,3.173351586E-1
1.889889604E0,4.955498278E-1,2.021904439E-1,3.087832928E-1
1.892311479E0,4.833329022E-1,2.009687424E-1,3.002314270E-1
1.894732625E0,4.784461260E-1,1.973036677E-1,2.892361879E-1
1.897154500E0,4.686725736E-1,2.009687424E-1,2.806843221E-1
1.899577261E0,4.625640810E-1,2.034121305E-1,2.733541429E-1
1.901999136E0,4.576773047E-1,2.058555335E-1,2.684673667E-1
1.904420229E0,4.564556181E-1,2.082989216E-1,2.635805905E-1
1.906842157E0,4.564556181E-1,2.107423097E-1,2.586938143E-1
1.909264917E0,4.576773047E-1,2.180724740E-1,2.550287247E-1
1.911686740E0,4.576773047E-1,2.229592502E-1,2.501419485E-1
1.914107886E0,4.564556181E-1,2.339545041E-1,2.452551723E-1
1.916529813E0,4.552339315E-1,2.437280566E-1,2.452551723E-1
1.918952521E0,4.503471553E-1,2.547233105E-1,2.452551723E-1
1.921374396E0,4.430169761E-1,2.620534599E-1,2.476985604E-1
1.923795542E0,4.356867969E-1,2.608317733E-1,2.513636351E-1
1.926217469E0,4.320217371E-1,2.510582209E-1,2.574721277E-1
1.928640177E0,4.283566475E-1,2.351761907E-1,2.635805905E-1
1.931062052E0,4.234698713E-1,2.156290859E-1,2.696890533E-1
1.933483146E0,4.234698713E-1,1.899735034E-1,2.757975459E-1
1.935905073E0,4.259132445E-1,1.655396074E-1,2.794626355E-1
1.938327834E0,4.344651103E-1,1.435490996E-1,2.831276953E-1
1.940749709E0,4.466820657E-1,1.264453828E-1,2.892361879E-1
1.943170802E0,4.576773047E-1,1.178935245E-1,2.916795611E-1
1.945592729E0,4.723376334E-1,1.191152185E-1,2.941229641E-1
1.948015490E0,4.906630516E-1,1.301104724E-1,2.965663373E-1
1.950437313E0,5.114318728E-1,1.496575773E-1,2.965663373E-1
1.952858459E0,5.358657837E-1,1.716480851E-1,2.941229641E-1
1.955280386E0,5.615213513E-1,1.997470558E-1,2.904578745E-1
1.957703094E0,5.920637250E-1,2.254026383E-1,2.892361879E-1
1.960124969E0,6.213843822E-1,2.522799075E-1,2.867927849E-1
1.962546115E0,6.543701291E-1,2.706053257E-1,2.867927849E-1
1.964967990E0,6.836907864E-1,2.901524603E-1,2.880144715E-1
1.967390750E0,7.142331600E-1,3.011476994E-1,2.904578745E-1
1.969812625E0,7.398887277E-1,3.096995652E-1,2.929012477E-1
1.972233771E0,7.618792653E-1,3.182514310E-1,2.965663373E-1
1.974655646E0,7.863131166E-1,3.255815804E-1,3.051182032E-1
1.977078407E0,8.046385646E-1,3.329117596E-1,3.136700690E-1
1.979500282E0,8.205205798E-1,3.414636254E-1,3.246653080E-1
1.981921375E0,8.327375054E-1,3.524588645E-1,3.368822634E-1
1.984343302E0,8.364025950E-1,3.634541333E-1,3.466558158E-1
1.986766063E0,8.412894011E-1,3.695625961E-1,3.588727713E-1
1.989187886E0,8.400676847E-1,3.756710589E-1,3.698680103E-1
1.991609032E0,8.339592218E-1,3.744493723E-1,3.833066523E-1
1.994030959E0,8.278507590E-1,3.695625961E-1,3.979669809E-1
1.996453719E0,8.205205798E-1,3.610107303E-1,4.138490260E-1
1.998875542E0,8.119687438E-1,3.512371778E-1,4.309527278E-1
2.001296688E0,8.046385646E-1,3.402419090E-1,4.456130862E-1
2.003718563E0,7.997517586E-1,3.341334462E-1,4.578300118E-1
2.006141323E0,7.960866690E-1,3.316900730E-1,4.663818777E-1
2.008563198E0,7.899782062E-1,3.365768492E-1,4.737120569E-1
2.010984292E0,7.850914598E-1,3.475720882E-1,4.773771465E-1
2.013406219E0,7.777612805E-1,3.622324169E-1,4.737120569E-1
2.015828979E0,7.692093849E-1,3.756710589E-1,4.627167881E-1
2.018250854E0,7.606575489E-1,3.891097009E-1,4.456130862E-1
2.020671948E0,7.484406233E-1,4.001049399E-1,4.236225784E-1
2.023093875E0,7.362236381E-1,4.098785222E-1,4.016320705E-1
2.025516636E0,7.264500856E-1,4.196520746E-1,3.771981895E-1
2.027938459E0,7.093463540E-1,4.269822240E-1,3.515425920E-1
2.030359604E0,6.946860552E-1,4.282039404E-1,3.295520842E-1
2.032781532E0,6.788040400E-1,4.269822240E-1,3.075616062E-1
2.035204292E0,6.641436815E-1,4.282039404E-1,2.904578745E-1
2.037626115E0,6.507050395E-1,4.208737612E-1,2.782409191E-1
2.040047261E0,6.348230243E-1,4.208737612E-1,2.709107697E-1
2.042469136E0,6.287145615E-1,4.196520746E-1,2.684673667E-1
2.044891896E0,6.226060390E-1,4.208737612E-1,2.684673667E-1
2.047313771E0,6.079457402E-1,4.233171642E-1,2.709107697E-1
2.049734865E0,5.908420086E-1,4.306473136E-1,2.721324563E-1
2.052156792E0,5.688515306E-1,4.404208660E-1,2.733541429E-1
2.054579552E0,5.480827093E-1,4.563029110E-1,2.782409191E-1
2.057001427E0,5.285356045E-1,4.709632397E-1,2.892361879E-1
2.059422521E0,5.150969625E-1,4.844018817E-1,3.026748300E-1
2.061844448E0,5.065450668E-1,4.990622103E-1,3.222219348E-1
2.064267209E0,5.065450668E-1,5.076140761E-1,3.503209054E-1
2.066689032E0,5.114318728E-1,5.149442554E-1,3.833066523E-1
2.069110177E0,5.138752460E-1,5.149442554E-1,4.162923992E-1
2.071532104E0,5.175403357E-1,5.088357925E-1,4.504998624E-1
2.073954813E0,5.224271417E-1,4.978405237E-1,4.847072959E-1
2.076376688E0,5.224271417E-1,4.807367921E-1,5.164713860E-1
2.078797834E0,5.212054253E-1,4.599680007E-1,5.445703268E-1
2.081219709E0,5.187620521E-1,4.416425824E-1,5.751127005E-1
2.083642469E0,5.150969625E-1,4.220954478E-1,5.995466113E-1
2.086064344E0,5.126535892E-1,4.086568058E-1,6.203153729E-1
2.088485438E0,5.114318728E-1,3.976615667E-1,6.386408210E-1
2.090907365E0,5.065450668E-1,3.988832533E-1,6.545228362E-1
2.093330125E0,5.041016936E-1,4.001049399E-1,6.655181050E-1
2.095752000E0,5.004366040E-1,4.025483429E-1,6.728482842E-1
2.098173094E0,4.918847680E-1,4.074351192E-1,6.740699410E-1
2.100595021E0,4.845545888E-1,4.098785222E-1,6.716265678E-1
2.103017782E0,4.784461260E-1,4.086568058E-1,6.667397618E-1
2.105439604E0,4.711159468E-1,4.049917459E-1,6.581879258E-1
2.107860750E0,4.601207078E-1,4.049917459E-1,6.484143734E-1
2.110282677E0,4.454603493E-1,3.988832533E-1,6.349757314E-1
2.112705386E0,4.320217371E-1,3.915531039E-1,6.215370893E-1
2.115127261E0,4.161396921E-1,3.842229247E-1,6.068767309E-1
2.117548407E0,4.039227366E-1,3.805578351E-1,5.897729993E-1
2.119970282E0,3.941491842E-1,3.793361485E-1,5.714476109E-1
2.122393042E0,3.868190348E-1,3.842229247E-1,5.555655956E-1
2.124814917E0,3.807105422E-1,3.915531039E-1,5.421269536E-1
2.127236011E0,3.758237660E-1,4.001049399E-1,5.299099684E-1
2.129657938E0,3.697153032E-1,4.086568058E-1,5.201364160E-1
2.132080698E0,3.623851240E-1,4.135435820E-1,5.140279531E-1
2.134502573E0,3.513898849E-1,4.147652984E-1,5.042544007E-1
2.136923667E0,3.318427801E-1,4.196520746E-1,4.969242513E-1
2.139345594E0,3.122956753E-1,4.196520746E-1,4.883723855E-1
2.141768354E0,2.939702570E-1,4.184303582E-1,4.810422063E-1
2.144190177E0,2.744231224E-1,4.159869850E-1,4.749337435E-1
2.146611323E0,2.573194206E-1,4.074351192E-1,4.700469673E-1
2.149033250E0,2.426590770E-1,3.952181637E-1,4.700469673E-1
2.151455959E0,2.341072112E-1,3.854446113E-1,4.712686539E-1
2.153877834E0,2.304421216E-1,3.768927455E-1,4.737120569E-1
2.156298979E0,2.279987335E-1,3.610107303E-1,4.785988331E-1
2.158720854E0,1.913478971E-1,3.182514310E-1,5.091412067E-1
2.161143615E0,1.265980899E-1,2.571666837E-1,5.555655956E-1
2.163565490E0,4.352286831E-2,1.875301152E-1,6.032116413E-1
2.165986584E0,-5.543438718E-2,1.105633527E-1,6.386408210E-1
2.168408511E0,-1.592784226E-1,5.436540768E-2,6.679614782E-1
2.170831271E0,-2.509055138E-1,2.382304333E-2,6.850652099E-1
2.173253094E0,-3.400892019E-1,2.137965336E-2,6.875085831E-1
2.175674240E0,-4.243861437E-1,5.070032179E-2,6.765133142E-1
2.178096167E0,-4.891359508E-1,9.956810623E-2,6.557445526E-1
2.180518875E0,-5.355603099E-1,1.655396074E-1,6.252021790E-1
2.182940750E0,-5.624375939E-1,2.351761907E-1,5.971031785E-1
2.185361896E0,-5.661026835E-1,2.901524603E-1,5.787777901E-1
2.187783771E0,-5.551074743E-1,3.219164908E-1,5.690042377E-1
2.190206532E0,-5.318952799E-1,3.206948042E-1,5.641174316E-1
2.192628407E0,-5.025745630E-1,2.840439677E-1,5.628957748E-1
2.195049500E0,-4.708105326E-1,2.315111160E-1,5.628957748E-1
2.197471427E0,-4.414898455E-1,1.618745178E-1,5.665608048E-1
2.199894188E0,-4.207210541E-1,9.712471068E-2,5.714476109E-1
2.202316063E0,-4.023956358E-1,4.092676565E-2,5.738909841E-1
2.204737157E0,-3.938437700E-1,-1.832541777E-3,5.714476109E-1
2.207159084E0,-3.901786804E-1,-2.260134928E-2,5.677825212E-1
2.209581844E0,-3.852919042E-1,-2.626643144E-2,5.604523420E-1
2.212003667E0,-3.816268146E-1,-2.260134928E-2,5.506787896E-1
2.214424813E0,-3.767400384E-1,-1.404948719E-2,5.372401476E-1
2.216846740E0,-3.657447994E-1,-4.275931045E-3,5.262449384E-1
2.219269448E0,-3.584146202E-1,3.054236295E-3,5.140279531E-1
2.221691323E0,-3.486410677E-1,-6.108472589E-4,5.005893111E-1
2.224112469E0,-3.376458287E-1,-1.771457121E-2,4.883723855E-1
2.226534344E0,-3.266505599E-1,-4.337015375E-2,4.700469673E-1
2.228957104E0,-3.168770075E-1,-7.391251624E-2,4.492781460E-1
2.231378979E0,-3.107685447E-1,-1.068982705E-1,4.236225784E-1
2.233800073E0,-3.083251417E-1,-1.313321590E-1,3.991886973E-1
2.236222000E0,-3.071034551E-1,-1.447708011E-1,3.710896969E-1
2.238644761E0,-3.095468581E-1,-1.521009654E-1,3.405473530E-1
2.241066584E0,-3.193204105E-1,-1.447708011E-1,3.112266660E-1
2.243487729E0,-3.315373361E-1,-1.349972486E-1,2.855710983E-1
2.245909657E0,-3.547495604E-1,-1.154501289E-1,2.611372173E-1
2.248332365E0,-3.852919042E-1,-9.101624042E-2,2.391466945E-1
2.250754240E0,-4.170559645E-1,-7.269082218E-2,2.183778882E-1
2.253175386E0,-4.524851143E-1,-5.314370990E-2,1.988307834E-1
2.255597261E0,-4.842491746E-1,-3.970507160E-2,1.841704547E-1
2.258020021E0,-5.099047422E-1,-2.504473738E-2,1.719534993E-1
2.260441896E0,-5.270084739E-1,-1.893626526E-2,1.646233350E-1
2.262862990E0,-5.392253995E-1,-1.160609815E-2,1.670667231E-1
2.265284917E0,-5.477772951E-1,-1.527118124E-2,1.805053651E-1
2.267707677E0,-5.563291311E-1,-2.748812735E-2,1.976090819E-1
2.270129552E0,-5.697677732E-1,-3.970507160E-2,2.159345001E-1
2.272550646E0,-5.856497884E-1,-6.047387794E-2,2.318165302E-1
2.274972573E0,-6.088619828E-1,-7.146912813E-2,2.464768738E-1
2.277395334E0,-6.308525205E-1,-7.757759839E-2,2.586938143E-1
2.279817157E0,-6.491779089E-1,-7.757759839E-2,2.819060087E-1
2.282238302E0,-6.601731777E-1,-7.757759839E-2,3.087832928E-1
2.284660229E0,-6.638382673E-1,-8.124268800E-2,3.344388604E-1
2.287082938E0,-6.638382673E-1,-9.101624042E-2,3.576510847E-1
2.289504813E0,-6.589514613E-1,-1.007898003E-1,3.808632791E-1
2.291925959E0,-6.479562521E-1,-1.154501289E-1,4.004103839E-1
2.294347834E0,-6.271874309E-1,-1.276670843E-1,4.175141156E-1
2.296770594E0,-5.929799676E-1,-1.398840249E-1,4.346178174E-1
2.299192469E0,-5.441122055E-1,-1.496575773E-1,4.431696832E-1
2.301613563E0,-4.805840850E-1,-1.472141892E-1,4.456130862E-1
2.304035490E0,-4.060607255E-1,-1.264453828E-1,4.468347728E-1
2.306458250E0,-3.327590525E-1,-8.368607610E-2,4.492781460E-1
2.308880073E0,-2.557922900E-1,-2.504473738E-2,4.468347728E-1
2.311301219E0,-1.763821393E-1,3.237490356E-2,4.468347728E-1
2.313723146E0,-8.842013776E-2,7.146912813E-2,4.407263100E-1
2.316145907E0,7.635590737E-4,1.032331884E-1,4.224008918E-1
2.318567729E0,8.628217876E-2,1.374406368E-1,4.089622498E-1
2.320988875E0,1.608055383E-1,1.789782494E-1,4.089622498E-1
2.323410750E0,2.402156889E-1,2.254026383E-1,4.052971601E-1
2.325833511E0,3.269560039E-1,2.730487287E-1,3.930802047E-1
2.328255386E0,4.112529159E-1,3.219164908E-1,3.845283389E-1
2.330676532E0,4.857762754E-1,3.744493723E-1,3.833066523E-1
2.333098407E0,5.468609929E-1,4.220954478E-1,3.918585181E-1
2.335521167E0,5.896202922E-1,4.538595080E-1,4.089622498E-1
2.337943042E0,6.226060390E-1,4.709632397E-1,4.285093546E-1
2.340364136E0,6.507050395E-1,4.734066129E-1,4.407263100E-1
2.342786063E0,6.739172339E-1,4.660764635E-1,4.541649222E-1
2.345208823E0,6.800256968E-1,4.526378214E-1,4.700469673E-1
2.347630646E0,6.849125028E-1,4.391991794E-1,4.810422063E-1
2.350051792E0,6.861341596E-1,4.330907166E-1,4.798205197E-1
2.352473719E0,6.885775924E-1,4.391991794E-1,4.688252807E-1
2.354896427E0,6.910209656E-1,4.489727318E-1,4.517215490E-1
2.357318302E0,6.873558760E-1,4.624113739E-1,4.309527278E-1
2.359739448E0,6.775823236E-1,4.734066129E-1,4.052971601E-1
2.362161323E0,6.678087711E-1,4.758500159E-1,3.735330999E-1
2.364584084E0,6.629219651E-1,4.734066129E-1,3.283303976E-1
2.367005959E0,6.629219651E-1,4.660764635E-1,2.770192325E-1
2.369427052E0,6.653653979E-1,4.599680007E-1,2.159345001E-1
2.371848979E0,6.592568755E-1,4.721849263E-1,1.499630064E-1
2.374271740E0,6.543701291E-1,4.856235683E-1,8.276980370E-2
2.376693563E0,6.433748603E-1,5.076140761E-1,1.801999472E-2
2.379114709E0,6.238277555E-1,5.259394646E-1,-5.528167635E-2
2.381536636E0,6.079457402E-1,5.393781066E-1,-1.395785958E-1
2.383959344E0,5.969504714E-1,5.418215394E-1,-2.336490750E-1
2.386381219E0,5.896202922E-1,5.381564498E-1,-3.252761662E-1
2.388802365E0,5.749599934E-1,5.479300022E-1,-4.034646153E-1
2.391224240E0,5.615213513E-1,5.540384650E-1,-4.828747511E-1
2.393647000E0,5.541911721E-1,5.515950918E-1,-5.659499764E-1
2.396068875E0,5.493044257E-1,5.503733754E-1,-6.514685750E-1
2.398489969E0,5.444176197E-1,5.650337338E-1,-7.272136807E-1
2.400911896E0,5.370874405E-1,5.906893015E-1,-8.017370105E-1
2.403334657E0,5.322006941E-1,6.175665855E-1,-8.640434742E-1
2.405756532E0,5.285356045E-1,6.395570636E-1,-9.104678631E-1
2.408177625E0,5.273138881E-1,6.493306160E-1,-9.544488192E-1
2.410599552E0,5.309789777E-1,6.432221532E-1,-9.923213720E-1
2.413022313E0,5.309789777E-1,6.224533319E-1,-1.015533566E0
2.415444136E0,5.212054253E-1,5.870242119E-1,-1.020420313E0
2.417865282E0,4.992149174E-1,5.283828974E-1,-1.005759954E0
2.420287209E0,4.735593498E-1,4.306473136E-1,-9.813261032E-1
2.422709917E0,4.393518865E-1,3.158080280E-1,-9.458969831E-1
2.425131792E0,3.965925872E-1,1.960819662E-1,-8.945857882E-1
2.427552938E0,3.416163325E-1,7.757759839E-2,-8.347227573E-1
2.429974813E0,2.780882120E-1,-2.260134928E-2,-7.699729800E-1
2.432397573E0,2.047865391E-1,-1.032331884E-1,-7.027797699E-1
2.434819448E0,1.278197914E-1,-1.618745178E-1,-6.380299330E-1
2.437240542E0,6.062658876E-2,-1.899735034E-1,-5.769452453E-1
2.439662469E0,1.053711493E-2,-1.753131598E-1,-5.207473040E-1
2.442085229E0,-2.855710872E-2,-1.374406368E-1,-4.743228853E-1
2.444507052E0,-6.154286116E-2,-8.612946421E-2,-4.352286756E-1
2.446928198E0,-8.842013776E-2,-3.970507160E-2,-4.034646153E-1
2.449350125E0,-1.055238619E-1,1.832541777E-3,-3.826957941E-1
2.451772834E0,-1.152974218E-1,3.848337755E-2,-3.655920923E-1
2.454194709E0,-1.226275861E-1,6.658235192E-2,-3.545968235E-1
2.456615854E0,-1.214058921E-1,8.857285231E-2,-3.448232710E-1
2.459037729E0,-1.128540337E-1,1.068982705E-1,-3.362714052E-1
2.461460490E0,-9.819369763E-2,1.252236813E-1,-3.252761662E-1
2.463882365E0,-7.742489129E-2,1.386623234E-1,-3.118375242E-1
2.466303459E0,-4.932591692E-2,1.557660550E-1,-2.910687327E-1
2.468725386E0,-2.000524849E-2,1.789782494E-1,-2.678565085E-1
2.471148146E0,1.542389300E-2,2.021904439E-1,-2.434226274E-1
2.473569969E0,5.696150661E-2,2.180724740E-1,-2.189887464E-1
2.475991115E0,9.605573118E-2,2.351761907E-1,-1.921114624E-1
2.478413042E0,1.363716573E-1,2.522799075E-1,-1.615691036E-1
2.480835750E0,1.718007922E-1,2.681619525E-1,-1.310267299E-1
2.483257625E0,2.084516287E-1,2.791571915E-1,-9.804098308E-2
2.485678771E0,2.426590770E-1,2.877090573E-1,-6.383354217E-2
2.488100646E0,2.744231224E-1,2.962609231E-1,-2.840439789E-2
2.490523407E0,3.013004065E-1,3.011476994E-1,3.359660041E-3
2.492945282E0,3.281776905E-1,3.060344756E-1,3.756710514E-2
2.495366375E0,3.489464819E-1,3.133646548E-1,7.177454978E-2
2.497788302E0,3.672719002E-1,3.219164908E-1,1.059819981E-1
2.500211063E0,3.794888556E-1,3.316900730E-1,1.377460510E-1
2.502632938E0,3.880407214E-1,3.390202224E-1,1.658450365E-1
2.505054032E0,3.929274976E-1,3.377985358E-1,1.890572309E-1
2.507475959E0,3.917058110E-1,3.304683566E-1,2.049392611E-1
2.509898719E0,3.831539452E-1,3.194731176E-1,2.159345001E-1
2.512320542E0,3.660502136E-1,3.109212518E-1,2.195995897E-1
2.514741688E0,3.416163325E-1,3.048127890E-1,2.183778882E-1
2.517163563E0,3.122956753E-1,2.938175201E-1,2.086043358E-1
2.519586323E0,2.780882120E-1,2.803788781E-1,1.951656938E-1
2.522008198E0,2.438807636E-1,2.620534599E-1,1.756185889E-1
2.524429292E0,2.072299272E-1,2.412846684E-1,1.560714692E-1
2.526851219E0,1.705790907E-1,2.192941606E-1,1.340809762E-1
2.529273979E0,1.400367320E-1,1.973036677E-1,1.194206402E-1
2.531695854E0,1.082726792E-1,1.716480851E-1,1.023169160E-1
2.534116948E0,7.895200700E-2,1.398840249E-1,9.009996802E-2
2.536538875E0,5.207473040E-2,1.081199646E-1,8.032641560E-2
2.538961636E0,2.641914412E-2,7.635590434E-2,7.543963939E-2
2.541383459E0,-4.581354442E-4,4.581354558E-2,7.177454978E-2
2.543804604E0,-2.855710872E-2,2.015795931E-2,7.299624383E-2
2.546226532E0,-5.543438718E-2,-3.054236295E-3,7.543963939E-2
2.548649240E0,-8.108997345E-2,-2.382304333E-2,8.399149776E-2
2.551071115E0,-1.043021679E-1,-4.214845970E-2,9.376505762E-2
2.553492209E0,-1.250709742E-1,-6.047387794E-2,1.059819981E-1
2.555914136E0,-1.348445266E-1,-8.735115826E-2,1.194206402E-1
2.558336896E0,-1.409530044E-1,-1.240019947E-1,1.353026628E-1
2.560758771E0,-1.409530044E-1,-1.655396074E-1,1.499630064E-1
2.563179865E0,-1.324011385E-1,-2.144073844E-1,1.682884246E-1
2.565601792E0,-1.287360638E-1,-2.535016239E-1,1.915006191E-1
2.568024552E0,-1.238492802E-1,-2.864873707E-1,2.147128135E-1
2.570446375E0,-1.091889441E-1,-3.255815804E-1,2.452551723E-1
2.572867521E0,-7.620319724E-2,-3.805578351E-1,2.794626355E-1
2.575289448E0,-3.710897267E-2,-4.294256270E-1,3.112266660E-1
2.577712157E0,4.428642802E-3,-4.611896873E-1,3.319954872E-1
2.580134032E0,2.764083818E-2,-4.440859556E-1,3.429907262E-1
2.582555125E0,4.230117425E-2,-3.927747905E-1,3.478775024E-1
2.584977052E0,3.619270027E-2,-3.194731176E-1,3.503209054E-1
2.587399813E0,2.031067200E-2,-2.449497581E-1,3.552076817E-1
2.589821688E0,5.650337320E-3,-1.973036677E-1,3.564293683E-1
2.592242782E0,-1.634016447E-2,-1.655396074E-1,3.539859951E-1
2.594664709E0,-4.810422286E-2,-1.386623234E-1,3.490992188E-1
2.597087469E0,-8.475505561E-2,-1.166718230E-1,3.405473530E-1
2.599509292E0,-1.275143623E-1,-9.590301663E-2,3.332171738E-1
2.601930438E0,-1.751604527E-1,-8.490777016E-2,3.234436214E-1
2.604352365E0,-2.313583940E-1,-8.124268800E-2,3.161134422E-1
2.606775073E0,-2.912214398E-1,-8.002099395E-2,3.100049794E-1
2.609196948E0,-3.535278440E-1,-8.857285231E-2,3.051182032E-1
2.611618094E0,-4.146125913E-1,-1.056765765E-1,2.990097404E-1
2.614039969E0,-4.805840850E-1,-1.264453828E-1,2.880144715E-1
2.616462729E0,-5.428904891E-1,-1.472141892E-1,2.757975459E-1
2.618884604E0,-6.027535200E-1,-1.704263836E-1,2.623589039E-1
2.621305698E0,-6.577298045E-1,-2.046338320E-1,2.550287247E-1
2.623727625E0,-7.102626562E-1,-2.498365343E-1,2.538070381E-1
2.626150386E0,-7.493568659E-1,-3.109212518E-1,2.574721277E-1
2.628572209E0,-7.762341499E-1,-3.756710589E-1,2.599155009E-1
2.630993354E0,-7.896727920E-1,-4.355340898E-1,2.611372173E-1
2.633415282E0,-7.945595980E-1,-4.782933891E-1,2.611372173E-1
2.635838042E0,-7.921161652E-1,-4.953971207E-1,2.611372173E-1
2.638259865E0,-7.884510756E-1,-4.905103445E-1,2.586938143E-1
2.640681011E0,-7.835643291E-1,-4.611896873E-1,2.574721277E-1
2.643102886E0,-7.750124335E-1,-4.184303582E-1,2.611372173E-1
2.645525646E0,-7.664605975E-1,-3.756710589E-1,2.635805905E-1
2.647947521E0,-7.542436719E-1,-3.426853120E-1,2.696890533E-1
2.650368615E0,-7.420266867E-1,-3.158080280E-1,2.855710983E-1
2.652790542E0,-7.310314775E-1,-3.023693860E-1,3.038965166E-1
2.655213302E0,-7.237012982E-1,-2.889307439E-1,3.222219348E-1
2.657635177E0,-7.273663878E-1,-2.608317733E-1,3.332171738E-1
2.660056271E0,-7.469134927E-1,-2.461714447E-1,3.356605768E-1
2.662478198E0,-7.689039707E-1,-2.180724740E-1,3.332171738E-1
2.664900959E0,-7.970029712E-1,-1.447708011E-1,3.319954872E-1
2.667322782E0,-8.189934492E-1,-7.146912813E-2,3.344388604E-1
2.669743927E0,-8.312104344E-1,-1.527118124E-2,3.405473530E-1
2.672165802E0,-8.251019120E-1,6.719320081E-3,3.356605768E-1
2.674588563E0,-8.116632700E-1,3.054236295E-3,3.222219348E-1
2.677010438E0,-7.872294188E-1,-3.237490356E-2,3.051182032E-1
2.679431532E0,-7.530219555E-1,-8.857285231E-2,2.916795611E-1
2.681853459E0,-7.188144922E-1,-1.411057115E-1,2.892361879E-1
2.684276219E0,-6.784985662E-1,-1.777565479E-1,3.002314270E-1
2.686698094E0,-6.308525205E-1,-1.899735034E-1,3.136700690E-1
2.689119188E0,-5.856497884E-1,-1.960819662E-1,3.197785318E-1
2.691541115E0,-5.404471159E-1,-2.058555335E-1,3.051182032E-1
2.693963875E0,-4.940227270E-1,-2.070772201E-1,2.745758295E-1
2.696385698E0,-4.463766217E-1,-1.985253543E-1,2.379250079E-1
2.698806844E0,-4.060607255E-1,-1.801999360E-1,2.049392611E-1
2.701228719E0,-3.730749488E-1,-1.508792788E-1,1.768402755E-1
2.703651479E0,-3.461976945E-1,-1.252236813E-1,1.548497826E-1
2.706073354E0,-3.217637837E-1,-1.068982705E-1,1.389677525E-1
2.708494448E0,-3.058817685E-1,-9.345962852E-2,1.255291104E-1
2.710916375E0,-2.887780368E-1,-8.979454637E-2,1.096470803E-1
2.713339136E0,-2.704526186E-1,-9.101624042E-2,9.743013978E-2
2.715761011E0,-2.545706034E-1,-9.590301663E-2,8.887827396E-2
2.718182104E0,-2.435753495E-1,-1.020114943E-1,8.399149776E-2
2.720604032E0,-2.338017821E-1,-1.081199646E-1,8.276980370E-2
2.723026792E0,-2.228065431E-1,-1.117850468E-1,8.399149776E-2
2.725448615E0,-2.118112892E-1,-1.093416587E-1,8.887827396E-2
2.727869761E0,-1.959292591E-1,-1.105633527E-1,9.009996802E-2
2.730291688E0,-1.837123185E-1,-1.044548824E-1,9.498675168E-2
2.732714396E0,-1.666085869E-1,-1.044548824E-1,1.010952219E-1
2.735136271E0,-1.495048702E-1,-1.032331884E-1,1.047603041E-1
2.737557365E0,-1.324011385E-1,-1.020114943E-1,1.072036922E-1
2.739979292E0,-1.128540337E-1,-1.020114943E-1,1.096470803E-1
2.742402052E0,-9.208522737E-2,-9.834641218E-2,1.120904684E-1
2.744823875E0,-7.009471953E-2,-9.468132257E-2,1.145338640E-1
2.747245021E0,-4.688252881E-2,-9.223793447E-2,1.145338640E-1
2.749666948E0,-2.489202656E-2,-9.590301663E-2,1.157555580E-1
2.752089709E0,4.428642802E-3,-1.240019947E-1,1.133121699E-1
2.754511532E0,3.619270027E-2,-1.887518018E-1,1.010952219E-1
2.756932677E0,5.696150661E-2,-2.412846684E-1,9.376505762E-2
2.759354552E0,7.162184268E-2,-2.767138183E-1,8.887827396E-2
2.761777313E0,7.406523079E-2,-2.816005945E-1,9.009996802E-2
2.764199188E0,7.162184268E-2,-2.596100867E-1,9.865183383E-2
2.766620282E0,6.795676053E-2,-2.266243398E-1,1.084253863E-1
2.769042209E0,6.551336497E-2,-1.911951900E-1,1.133121699E-1
2.771464969E0,6.429167092E-2,-1.630962193E-1,1.157555580E-1
2.773886844E0,7.040014863E-2,-1.472141892E-1,1.084253863E-1
2.776307938E0,7.528692484E-2,-1.325538605E-1,9.498675168E-2
2.778729865E0,8.506047726E-2,-1.240019947E-1,7.788302749E-2
2.781152625E0,9.727742523E-2,-1.154501289E-1,5.467082933E-2
2.783574448E0,1.119377613E-1,-1.044548824E-1,3.634541109E-2
2.785995594E0,1.265980899E-1,-1.032331884E-1,1.924168877E-2
2.788417469E0,1.534753740E-1,-1.472141892E-1,-1.527118147E-3
2.790840229E0,1.766875684E-1,-2.021904439E-1,-1.740914769E-2
2.793262104E0,1.876828223E-1,-2.437280566E-1,-2.718270384E-2
2.795683198E0,1.950129867E-1,-2.596100867E-1,-2.473931387E-2
2.798105125E0,1.962346882E-1,-2.522799075E-1,-1.985253580E-2
2.800527886E0,1.925695986E-1,-2.290677279E-1,-1.252236869E-2
2.802949761E0,1.889045089E-1,-1.973036677E-1,-7.635590620E-3
2.805370854E0,1.901262105E-1,-1.606528312E-1,-5.192201585E-3
2.807792782E0,1.962346882E-1,-1.215586066E-1,-7.635590620E-3
2.810215542E0,2.072299272E-1,-8.735115826E-2,-1.374406368E-2
2.812637365E0,2.304421216E-1,-6.536065787E-2,-2.229592577E-2
2.815058511E0,2.560977042E-1,-5.558710173E-2,-2.962609194E-2
2.817480386E0,2.878617644E-1,-5.436540768E-2,-3.939964995E-2
2.819903146E0,3.110739589E-1,-5.192201585E-2,-4.550812021E-2
2.822325021E0,3.403946459E-1,-5.558710173E-2,-4.672981426E-2
2.824746115E0,3.684936166E-1,-6.536065787E-2,-4.428642616E-2
2.827168042E0,3.953709006E-1,-7.269082218E-2,-3.939964995E-2
2.829590802E0,4.198047817E-1,-7.757759839E-2,-3.573456407E-2
2.832012677E0,4.466820657E-1,-7.879929990E-2,-3.329117596E-2
2.834433771E0,4.674508572E-1,-7.635590434E-2,-3.451287001E-2
2.836855698E0,4.931064546E-1,-8.979454637E-2,-4.062134400E-2
2.839278459E0,5.334223509E-1,-1.692046970E-1,-6.261184067E-2
2.841700282E0,5.664080977E-1,-2.498365343E-1,-8.582404256E-2
2.844121427E0,5.896202922E-1,-3.096995652E-1,-1.004843712E-1
2.846543302E0,6.067240238E-1,-3.463504016E-1,-1.102579311E-1
2.848966063E0,6.213843822E-1,-3.500154912E-1,-1.139230132E-1
2.851387938E0,6.323796511E-1,-3.353551328E-1,-1.139230132E-1
2.853809084E0,6.409314871E-1,-3.035911024E-1,-1.090362370E-1
2.856230959E0,6.482616663E-1,-2.632751763E-1,-1.090362370E-1
2.858653719E0,6.580352187E-1,-2.351761907E-1,-1.102579311E-1
2.861075594E0,6.690304875E-1,-2.095206082E-1,-1.127013192E-1
2.863496688E0,6.800256968E-1,-1.826433241E-1,-1.139230132E-1
2.865918615E0,6.897992492E-1,-1.630962193E-1,-1.151447073E-1
2.868341375E0,7.020162344E-1,-1.484358907E-1,-1.188097894E-1
2.870763198E0,7.142331600E-1,-1.386623234E-1,-1.212531775E-1
2.873184344E0,7.227849960E-1,-1.337755471E-1,-1.261399537E-1
2.875606219E0,7.313368917E-1,-1.301104724E-1,-1.322484314E-1
2.878028979E0,7.398887277E-1,-1.191152185E-1,-1.334701329E-1
2.880450854E0,7.484406233E-1,-1.032331884E-1,-1.334701329E-1
2.882872000E0,7.545490861E-1,-7.757759839E-2,-1.322484314E-1
2.885293875E0,7.582141757E-1,-4.214845970E-2,-1.298050433E-1
2.887716636E0,7.594358325E-1,7.941014133E-3,-1.273616552E-1
2.890138511E0,7.557707429E-1,6.536065787E-2,-1.188097894E-1
2.892559604E0,7.521057129E-1,1.240019947E-1,-1.114796251E-1
2.894981532E0,7.435538173E-1,1.814216375E-1,-1.053711548E-1
2.897404292E0,7.423321605E-1,2.425063550E-1,-1.065928489E-1
2.899826115E0,7.398887277E-1,3.084778786E-1,-1.151447073E-1
2.902247261E0,7.374453545E-1,3.878880143E-1,-1.261399537E-1
2.904669136E0,7.301151752E-1,4.746283293E-1,-1.359135211E-1
2.907091896E0,7.191199064E-1,5.711421967E-1,-1.395785958E-1
2.909513771E0,7.117897868E-1,6.664343476E-1,-1.408002973E-1
2.911934865E0,7.020162344E-1,7.556180358E-1,-1.383569092E-1
2.914356792E0,6.971294284E-1,8.191461563E-1,-1.444653720E-1
2.916779552E0,6.959077120E-1,8.594620824E-1,-1.615691036E-1
2.919201427E0,7.154548764E-1,7.898254991E-1,-2.067717910E-1
2.921622521E0,7.398887277E-1,6.908682585E-1,-2.568612695E-1
2.924044448E0,7.667660117E-1,5.821374655E-1,-2.971771955E-1
2.926467209E0,7.911999226E-1,4.672981501E-1,-3.252761662E-1
2.928889032E0,8.119687438E-1,3.658975065E-1,-3.411581814E-1
2.931310177E0,8.278507590E-1,2.779355049E-1,-3.472666740E-1
2.933732052E0,8.412894011E-1,1.960819662E-1,-3.460449576E-1
2.936154813E0,8.522846103E-1,1.313321590E-1,-3.350497186E-1
2.938576688E0,8.681666851E-1,8.735115826E-2,-3.216110766E-1
2.940997782E0,8.840487003E-1,6.169557199E-2,-3.093941510E-1
2.943419709E0,8.962656260E-1,6.291726977E-2,-2.874036431E-1
2.945842469E0,9.048175216E-1,9.468132257E-2,-2.556395829E-1
2.948264344E0,9.048175216E-1,1.582094431E-1,-2.250972092E-1
2.950685438E0,8.987090588E-1,2.425063550E-1,-1.945548505E-1
2.953107365E0,8.889354467E-1,3.414636254E-1,-1.652341783E-1
2.955530125E0,8.730534315E-1,4.440859556E-1,-1.395785958E-1
2.957951948E0,8.522846103E-1,5.393781066E-1,-1.139230132E-1
2.960373094E0,8.254073858E-1,6.310052276E-1,-8.704573661E-2
2.962794969E0,7.936432958E-1,7.238540053E-1,-5.161659420E-2
2.965217729E0,7.631009221E-1,8.081509471E-1,-1.007897966E-2
2.967639604E0,7.362236381E-1,8.765658140E-1,2.901524492E-2
2.970060698E0,7.215633392E-1,9.156600237E-1,6.077930331E-2
2.972482625E0,7.142331600E-1,9.352071285E-1,8.276980370E-2
2.974905386E0,7.142331600E-1,9.315420985E-1,1.010952219E-1
2.977327261E0,7.178982496E-1,9.107732773E-1,1.096470803E-1
2.979748354E0,7.276718020E-1,8.790091872E-1,1.145338640E-1
2.982170282E0,7.350019813E-1,8.460234404E-1,1.194206402E-1
2.984592990E0,7.411104441E-1,8.179244995E-1,1.267508119E-1
2.987014865E0,7.435538173E-1,7.971556783E-1,1.414111406E-1
2.989436011E0,7.374453545E-1,7.763868570E-1,1.572931707E-1
2.991857938E0,7.301151752E-1,7.641699314E-1,1.743968874E-1
2.994280646E0,7.178982496E-1,7.617265582E-1,1.951656938E-1
2.996702521E0,7.032378912E-1,7.629482150E-1,2.208212912E-1
2.999123615E0,6.800256968E-1,7.751652002E-1,2.440334857E-1
3.001545542E0,6.519267559E-1,7.898254991E-1,2.696890533E-1
3.003968302E0,6.250494719E-1,8.020424247E-1,2.941229641E-1
3.006390177E0,5.932853818E-1,8.179244995E-1,3.210002482E-1
3.008811271E0,5.602996349E-1,8.362498879E-1,3.515425920E-1
3.011233198E0,5.260922313E-1,8.496885300E-1,3.869717419E-1
3.013655907E0,4.906630516E-1,8.631271720E-1,4.236225784E-1
3.016077782E0,4.588989913E-1,8.838959932E-1,4.676035643E-1
3.018498927E0,4.295783341E-1,9.339854717E-1,5.396835804E-1
3.020920854E0,3.770454824E-1,9.339854717E-1,6.349757314E-1
3.023343563E0,3.196258247E-1,8.826742768E-1,7.058340311E-1
3.025765438E0,2.707580328E-1,8.435800672E-1,7.473716140E-1
3.028186532E0,2.341072112E-1,8.240329623E-1,7.730271816E-1
3.030608459E0,2.060082406E-1,8.044858575E-1,7.876875401E-1
3.033031219E0,1.864611208E-1,7.837170362E-1,7.925743461E-1
3.035453094E0,1.656923145E-1,7.763868570E-1,7.913526297E-1
3.037874188E0,1.473668963E-1,7.690566778E-1,7.864658237E-1
3.040296115E0,1.253764033E-1,7.653915882E-1,7.779139876E-1
3.042718875E0,1.058292910E-1,7.531746626E-1,7.705838084E-1
3.045140698E0,8.383878320E-2,7.470661998E-1,7.644753456E-1
3.047561844E0,5.940489471E-2,7.348492742E-1,7.559235096E-1
3.049983719E0,3.008422814E-2,7.226322889E-1,7.498149872E-1
3.052406479E0,-2.901524538E-3,7.189671993E-1,7.461498976E-1
3.054828354E0,-4.199574888E-2,7.177455425E-1,7.412631512E-1
3.057249448E0,-7.742489129E-2,7.104153633E-1,7.302678823E-1
3.059671375E0,-1.128540337E-1,7.018635273E-1,7.156075835E-1
3.062094136E0,-1.495048702E-1,6.981984377E-1,6.948387623E-1
3.064515959E0,-1.824906170E-1,6.908682585E-1,6.667397618E-1
3.066937104E0,-2.105895877E-1,6.835380793E-1,6.374191046E-1
3.069359032E0,-2.362451702E-1,6.664343476E-1,6.007682681E-1
3.071781740E0,-2.545706034E-1,6.334486008E-1,5.616740584E-1
3.074203615E0,-2.680092454E-1,5.943543911E-1,5.262449384E-1
3.076624761E0,-2.790044844E-1,5.479300022E-1,4.969242513E-1
3.079046636E0,-2.899997234E-1,4.978405237E-1,4.749337435E-1
3.081469396E0,-2.997733057E-1,4.489727318E-1,4.602734149E-1
3.083891271E0,-3.107685447E-1,3.988832533E-1,4.529432356E-1
3.086312365E0,-3.205420971E-1,3.500154912E-1,4.492781460E-1
3.088734292E0,-3.327590525E-1,3.035911024E-1,4.443913698E-1
3.091157052E0,-3.388675153E-1,2.620534599E-1,4.382829070E-1
3.093578875E0,-3.449759781E-1,2.327328026E-1,4.297310412E-1
3.096000021E0,-3.523061574E-1,2.119639963E-1,4.199574888E-1
3.098421948E0,-3.559712470E-1,1.948602796E-1,4.089622498E-1
3.100844657E0,-3.608580232E-1,1.801999360E-1,3.979669809E-1
3.103266532E0,-3.645231128E-1,1.655396074E-1,3.857500553E-1
3.105687677E0,-3.681881726E-1,1.423274130E-1,3.771981895E-1
3.108109552E0,-3.730749488E-1,1.117850468E-1,3.710896969E-1
3.110532313E0,-3.767400384E-1,7.635590434E-2,3.710896969E-1
3.112954188E0,-3.804051280E-1,4.092676565E-2,3.698680103E-1
3.115375282E0,-3.840702176E-1,9.162709117E-3,3.662029207E-1
3.117797209E0,-3.938437700E-1,-3.359659761E-2,3.649812341E-1
3.120219969E0,-4.060607255E-1,-8.368607610E-2,3.698680103E-1
3.122641792E0,-4.194993675E-1,-1.521009654E-1,3.771981895E-1
3.125062938E0,-4.414898455E-1,-2.302894145E-1,3.820849657E-1
3.127484865E0,-4.475983381E-1,-3.439069986E-1,3.735330999E-1
3.129907573E0,-4.561502039E-1,-4.477510452E-1,3.686463237E-1
3.132329448E0,-4.695888162E-1,-5.540384650E-1,3.637595475E-1
3.134750594E0,-4.879142344E-1,-6.652126908E-1,3.600944579E-1
3.137172469E0,-5.099047422E-1,-7.641699314E-1,3.527642787E-1
3.139595229E0,-5.282301903E-1,-8.411366940E-1,3.429907262E-1
3.142017104E0,-5.392253995E-1,-8.997780085E-1,3.258870244E-1
3.144438198E0,-5.465555787E-1,-9.474241138E-1,3.014531136E-1
3.146860125E0,-5.514423847E-1,-9.889616966E-1,2.745758295E-1
3.149282886E0,-5.526640415E-1,-1.017060637E0,2.391466945E-1
3.151704709E0,-5.514423847E-1,-1.039051175E0,2.000524700E-1
3.154125854E0,-5.563291311E-1,-1.078145385E0,1.658450365E-1
3.156547782E0,-5.661026835E-1,-1.120904684E0,1.365243644E-1
3.158970490E0,-5.795413256E-1,-1.162442327E0,1.194206402E-1
3.161392365E0,-6.003101468E-1,-1.195428133E0,1.059819981E-1
3.163813511E0,-6.210789680E-1,-1.229635477E0,9.376505762E-2
3.166235386E0,-6.479562521E-1,-1.256512761E0,8.887827396E-2
3.168658146E0,-6.772769094E-1,-1.255291104E0,9.009996802E-2
3.171080021E0,-7.090409398E-1,-1.240630746E0,9.376505762E-2
3.173501115E0,-7.334748507E-1,-1.205201626E0,9.743013978E-2
3.175923042E0,-7.542436719E-1,-1.149003744E0,9.743013978E-2
3.178345802E0,-7.652388811E-1,-1.069593549E0,9.865183383E-2
3.180767625E0,-7.676823139E-1,-9.559759498E-1,9.620844573E-2
3.183188771E0,-7.640172243E-1,-8.240329623E-1,8.643488586E-2
3.185610646E0,-7.505785823E-1,-6.847597957E-1,7.299624383E-2
3.188033407E0,-7.237012982E-1,-5.369347334E-1,5.589252338E-2
3.190455282E0,-6.907155514E-1,-3.939964771E-1,3.145863488E-2
3.192876375E0,-6.516213417E-1,-2.608317733E-1,9.162708884E-4
3.195298302E0,-6.064186096E-1,-1.398840249E-1,-3.329117596E-2
3.197721063E0,-5.489989519E-1,-3.237490356E-2,-6.627693027E-2
3.200142938E0,-4.842491746E-1,6.536065787E-2,-9.804098308E-2
3.202564032E0,-4.121691883E-1,1.423274130E-1,-1.236965731E-1
3.204985959E0,-3.425326049E-1,1.985253543E-1,-1.420219839E-1
3.207408719E0,-2.704526186E-1,2.192941606E-1,-1.566823274E-1
3.209830542E0,-2.044811249E-1,2.144073844E-1,-1.640124917E-1
3.212251688E0,-1.385096163E-1,1.850867122E-1,-1.664558798E-1
3.214673563E0,-7.498150319E-2,1.459924877E-1,-1.640124917E-1
3.217096323E0,-1.145338640E-2,1.117850468E-1,-1.566823274E-1
3.219518198E0,5.085303262E-2,8.002099395E-2,-1.505738497E-1
3.221939292E0,1.119377613E-1,5.925218388E-2,-1.444653720E-1
3.224361219E0,1.730224788E-1,3.481829539E-2,-1.432436854E-1
3.226783979E0,2.304421216E-1,1.649287529E-2,-1.444653720E-1
3.229205854E0,2.841966748E-1,-3.054236295E-3,-1.493521482E-1
3.231626948E0,3.306210935E-1,-1.771457121E-2,-1.554606259E-1
3.234048875E0,3.721587062E-1,-3.970507160E-2,-1.640124917E-1
3.236471584E0,4.100312293E-1,-6.291726977E-2,-1.676775664E-1
3.238893459E0,4.381301999E-1,-8.124268800E-2,-1.688992679E-1
3.241314604E0,4.588989913E-1,-1.068982705E-1,-1.676775664E-1
3.243736479E0,4.723376334E-1,-1.411057115E-1,-1.762294322E-1
3.246159240E0,4.747810364E-1,-1.838650256E-1,-1.933331639E-1
3.248581115E0,4.735593498E-1,-2.278460264E-1,-2.153236568E-1
3.251002209E0,4.625640810E-1,-2.706053257E-1,-2.434226274E-1
3.253424136E0,4.454603493E-1,-3.133646548E-1,-2.776300907E-1
3.255846896E0,4.185830951E-1,-3.524588645E-1,-3.167243004E-1
3.258268719E0,3.904841244E-1,-3.915531039E-1,-3.594835997E-1
3.260689865E0,3.611634374E-1,-4.086568058E-1,-3.949127495E-1
3.263111792E0,3.342861533E-1,-3.903313875E-1,-4.230117202E-1
3.265534552E0,3.110739589E-1,-3.536805511E-1,-4.462239146E-1
3.267956375E0,2.903051674E-1,-3.109212518E-1,-4.682144225E-1
3.270377521E0,2.695363462E-1,-2.547233105E-1,-4.889832437E-1
3.272799396E0,2.548760176E-1,-1.924168915E-1,-5.073086619E-1
3.275222157E0,2.377723008E-1,-1.203369126E-1,-5.219689608E-1
3.277644032E0,2.292204350E-1,-5.070032179E-2,-5.366293192E-1
3.280065125E0,2.231119573E-1,1.893626526E-2,-5.512896776E-1
3.282487052E0,2.194468826E-1,8.002099395E-2,-5.671716928E-1
3.284909813E0,2.145601064E-1,1.325538605E-1,-5.830537081E-1
3.287331636E0,2.096733153E-1,1.789782494E-1,-6.038225293E-1
3.289752782E0,2.084516287E-1,2.095206082E-1,-6.245913506E-1
3.292174709E0,2.060082406E-1,2.278460264E-1,-6.465818286E-1
3.294597417E0,1.998997629E-1,2.437280566E-1,-6.685723066E-1
3.297019292E0,1.913478971E-1,2.571666837E-1,-6.991146803E-1
3.299440386E0,1.815743446E-1,2.718270421E-1,-7.394306064E-1
3.301862313E0,1.693574041E-1,2.864873707E-1,-7.760814428E-1
3.304285073E0,1.534753740E-1,2.987042964E-1,-8.090671897E-1
3.306706948E0,1.339282542E-1,3.109212518E-1,-8.359444737E-1
3.309128042E0,1.119377613E-1,3.231382072E-1,-8.616000414E-1
3.311549969E0,9.361234307E-2,3.329117596E-1,-8.823688626E-1
3.313972729E0,7.528692484E-2,3.414636254E-1,-8.933641315E-1
3.316394552E0,6.062658876E-2,3.475720882E-1,-8.933641315E-1
3.318815698E0,5.573981255E-2,3.549022675E-1,-8.872556686E-1
3.321237573E0,6.062658876E-2,3.683409095E-1,-8.799254894E-1
3.323660334E0,8.139539510E-2,3.793361485E-1,-8.713735938E-1
3.326082209E0,1.046075895E-1,3.866663277E-1,-8.677085042E-1
3.328503302E0,1.278197914E-1,3.915531039E-1,-8.628217578E-1
3.330925229E0,1.473668963E-1,3.939964771E-1,-8.603783846E-1
3.333347990E0,1.656923145E-1,3.927747905E-1,-8.591566682E-1
3.335769865E0,1.840177327E-1,3.927747905E-1,-8.567132950E-1
3.338190959E0,1.986780763E-1,3.878880143E-1,-8.530482054E-1
3.340612886E0,2.121167034E-1,3.903313875E-1,-8.481613994E-1
3.343035646E0,2.255553454E-1,3.891097009E-1,-8.457180262E-1
3.345457469E0,2.402156889E-1,3.695625961E-1,-8.420529366E-1
3.347878615E0,2.536543310E-1,3.402419090E-1,-8.359444737E-1
3.350300490E0,2.634278834E-1,3.096995652E-1,-8.249492049E-1
3.352723250E0,2.707580328E-1,2.864873707E-1,-8.127322793E-1
3.355145125E0,2.768665254E-1,2.754921019E-1,-7.992936373E-1
3.357566219E0,2.805316150E-1,2.742704153E-1,-7.858549953E-1
3.359988146E0,2.878617644E-1,2.803788781E-1,-7.760814428E-1
3.362410907E0,2.890834510E-1,2.925958335E-1,-7.675296068E-1
3.364832782E0,2.927485406E-1,3.023693860E-1,-7.626428008E-1
3.367253875E0,2.964136302E-1,3.048127890E-1,-7.614210844E-1
3.369675802E0,2.988570333E-1,3.048127890E-1,-7.601994276E-1
3.372098511E0,3.013004065E-1,3.072561622E-1,-7.601994276E-1
3.374520386E0,3.025220931E-1,3.084778786E-1,-7.589777112E-1
3.376941532E0,3.025220931E-1,3.072561622E-1,-7.540909648E-1
3.379363407E0,3.025220931E-1,3.084778786E-1,-7.479824424E-1
3.381786167E0,2.988570333E-1,3.072561622E-1,-7.406523228E-1
3.384208042E0,2.976353168E-1,3.023693860E-1,-7.345438004E-1
3.386629136E0,3.342861533E-1,2.742704153E-1,-7.565343380E-1
3.389051063E0,4.662291706E-1,2.376195788E-1,-8.408312798E-1
3.391473823E0,6.177192926E-1,2.070772201E-1,-9.422318935E-1
3.393895646E0,7.386670709E-1,1.948602796E-1,-1.037524104E0
3.396316792E0,8.400676847E-1,2.095206082E-1,-1.123042703E0
3.398738719E0,9.365815520E-1,2.363978922E-1,-1.204896212E0
3.401161427E0,1.028208613E0,2.779355049E-1,-1.278197885E0
3.403583302E0,1.097845197E0,3.377985358E-1,-1.334395885E0
3.406004448E0,1.147934675E0,4.147652984E-1,-1.371046662E0
3.408426323E0,1.177255392E0,5.173876286E-1,-1.385707021E0
3.410849084E0,1.188250661E0,6.334486008E-1,-1.379598498E0
3.413270959E0,1.188250661E0,7.360709310E-1,-1.360051394E0
3.415692052E0,1.183363795E0,8.118160367E-1,-1.345391035E0
3.418113979E0,1.169925213E0,8.594620824E-1,-1.338060975E0
3.420536740E0,1.147934675E0,8.863393664E-1,-1.339282632E0
3.422958563E0,1.116170645E0,8.973346353E-1,-1.346612811E0
3.425379709E0,1.047755718E0,8.399149776E-1,-1.341725945E0
3.427801636E0,9.316948056E-1,6.835380793E-1,-1.307518601E0
3.430224344E0,7.814263701E-1,4.599680007E-1,-1.230551839E0
3.432646219E0,6.018372774E-1,2.156290859E-1,-1.114490867E0
3.435067365E0,4.234698713E-1,-1.282779220E-2,-9.825478196E-1
3.437489240E0,2.609844804E-1,-1.838650256E-1,-8.677085042E-1
3.439912000E0,1.168245375E-1,-2.925958335E-1,-7.699729800E-1
3.442333875E0,-1.389677543E-2,-3.512371778E-1,-6.881194115E-1
3.444754969E0,-1.348445266E-1,-3.756710589E-1,-6.184828281E-1
3.447176896E0,-2.570139766E-1,-3.768927455E-1,-5.525113344E-1
3.449599657E0,-3.779617548E-1,-3.646758199E-1,-4.902049303E-1
3.452021479E0,-4.891359508E-1,-3.475720882E-1,-4.388937652E-1
3.454442625E0,-5.844281316E-1,-3.145863414E-1,-3.997995257E-1
3.456864500E0,-6.662816405E-1,-2.632751763E-1,-3.765873313E-1
3.459287261E0,-7.310314775E-1,-1.948602796E-1,-3.668137789E-1
3.461709136E0,-7.811209559E-1,-1.215586066E-1,-3.655920923E-1
3.464130229E0,-8.226585388E-1,-4.947862774E-2,-3.692571819E-1
3.466552157E0,-8.593093753E-1,1.282779220E-2,-3.753656447E-1
3.468974917E0,-8.837432861E-1,6.291726977E-2,-3.814741075E-1
3.471396792E0,-9.008470178E-1,9.345962852E-2,-3.839175105E-1
3.473817886E0,-9.093988538E-1,1.081199646E-1,-3.826957941E-1
3.476239813E0,-9.167290330E-1,1.093416587E-1,-3.765873313E-1
3.478662573E0,-9.142856598E-1,9.834641218E-2,-3.631486893E-1
3.481084396E0,-9.106205702E-1,7.757759839E-2,-3.448232710E-1
3.483505542E0,-9.020686746E-1,5.680879578E-2,-3.155026138E-1
3.485927417E0,-8.910734653E-1,4.703523964E-2,-2.898470163E-1
3.488350177E0,-8.776348233E-1,5.558710173E-2,-2.641914487E-1
3.490772052E0,-8.593093753E-1,7.635590434E-2,-2.360924631E-1
3.493193146E0,-8.470924497E-1,1.203369126E-1,-2.067717910E-1
3.495615073E0,-8.263236284E-1,1.728697717E-1,-1.750077456E-1
3.498037834E0,-8.031114340E-1,2.400629669E-1,-1.395785958E-1
3.500459657E0,-7.786775231E-1,3.096995652E-1,-8.948912472E-2
3.502880802E0,-7.420266867E-1,3.781144619E-1,-3.573456407E-2
3.505302729E0,-7.053758502E-1,4.501944184E-1,1.435491070E-2
3.507725438E0,-6.552863717E-1,5.173876286E-1,6.200099736E-2
3.510147313E0,-6.076403260E-1,5.796940327E-1,9.743013978E-2
3.512568459E0,-5.551074743E-1,6.297835112E-1,1.206423342E-1
3.514990334E0,-5.013529062E-1,6.700994372E-1,1.340809762E-1
3.517413094E0,-4.475983381E-1,6.920899153E-1,1.353026628E-1
3.519834969E0,-4.036173224E-1,6.969767213E-1,1.230857223E-1
3.522256063E0,-3.608580232E-1,6.810947061E-1,1.010952219E-1
3.524677990E0,-3.278722763E-1,6.481089592E-1,7.299624383E-2
3.527100750E0,-3.058817685E-1,6.077930331E-1,3.390202299E-2
3.529522573E0,-2.985515893E-1,5.564818382E-1,-7.635590620E-3
3.531943719E0,-2.887780368E-1,4.941754341E-1,-4.428642616E-2
3.534365646E0,-2.728960216E-1,4.257605374E-1,-7.727217674E-2
3.536788354E0,-2.570139766E-1,3.549022675E-1,-1.078145429E-1
3.539210229E0,-2.423536479E-1,2.877090573E-1,-1.236965731E-1
3.541631375E0,-2.276933193E-1,2.351761907E-1,-1.285833418E-1
3.544053250E0,-2.105895877E-1,1.887518018E-1,-1.285833418E-1
3.546476011E0,-1.910424829E-1,1.569877416E-1,-1.163664013E-1
3.548897886E0,-1.751604527E-1,1.337755471E-1,-9.804098308E-2
3.551318979E0,-1.605001241E-1,1.240019947E-1,-7.238540053E-2
3.553740907E0,-1.495048702E-1,1.276670843E-1,-4.306473210E-2
3.556163615E0,-1.324011385E-1,1.447708011E-1,-1.252236869E-2
3.558585490E0,-1.201841980E-1,1.679829955E-1,2.412846684E-2
3.561006636E0,-1.055238619E-1,1.960819662E-1,5.955760926E-2
3.563428563E0,-8.719844371E-2,2.217375487E-1,9.009996802E-2
3.565851271E0,-6.887302548E-2,2.449497581E-1,1.181989461E-1
3.568273146E0,-4.810422286E-2,2.596100867E-1,1.389677525E-1
3.570694240E0,-2.611372061E-2,2.767138183E-1,1.560714692E-1
3.573116167E0,-2.901524538E-3,2.950392365E-1,1.695101112E-1
3.575538927E0,1.786728203E-2,3.182514310E-1,1.731752008E-1
3.577960802E0,3.741439432E-2,3.439069986E-1,1.695101112E-1
3.580381896E0,6.062658876E-2,3.707842827E-1,1.682884246E-1
3.582803823E0,9.361234307E-2,3.927747905E-1,1.585148573E-1
3.585226532E0,1.204896197E-1,4.257605374E-1,1.597365588E-1
3.587648407E0,1.498102844E-1,4.599680007E-1,1.572931707E-1
3.590069552E0,1.766875684E-1,4.978405237E-1,1.536280811E-1
3.592491427E0,2.096733153E-1,5.381564498E-1,1.609582454E-1
3.594914188E0,2.414373755E-1,5.894675851E-1,1.768402755E-1
3.597336063E0,2.719797492E-1,6.505523324E-1,1.927223057E-1
3.599757157E0,3.074088693E-1,7.214106321E-1,2.122694254E-1
3.602179084E0,3.513898849E-1,7.788302302E-1,2.354816198E-1
3.604601844E0,4.100312293E-1,8.362498879E-1,2.721324563E-1
3.607023667E0,4.869979918E-1,9.107732773E-1,3.283303976E-1
3.609444813E0,5.810684562E-1,9.914051294E-1,4.089622498E-1
3.611866740E0,6.739172339E-1,1.070815206E0,5.005893111E-1
3.614289448E0,7.618792653E-1,1.136786699E0,5.958815217E-1
3.616711323E0,8.400676847E-1,1.197871447E0,6.936170459E-1
3.619132469E0,9.194778204E-1,1.238187432E0,7.974610925E-1
3.621554344E0,9.866710305E-1,1.261399627E0,9.086353183E-1
3.623977104E0,1.034317136E0,1.254069448E0,1.021031141E0
3.626398979E0,1.052642584E0,1.228413820E0,1.133427143E0
3.628820073E0,1.048977494E0,1.186876178E0,1.237271070E0
3.631242000E0,1.023321867E0,1.127013206E0,1.333784938E0
3.633664761E0,9.768974781E-1,1.056154966E0,1.426633716E0
3.636086584E0,9.084826112E-1,9.791881442E-1,1.517039180E0
3.638507729E0,8.217422962E-1,8.912261724E-1,1.601336122E0
3.640929604E0,7.166765332E-1,7.861604095E-1,1.674790502E0
3.643352365E0,5.957288146E-1,6.688777208E-1,1.734653473E0
3.645774240E0,4.650074840E-1,5.369347334E-1,1.778634548E0
3.648195334E0,3.281776905E-1,3.939964771E-1,1.803068399E0
3.650617261E0,1.889045089E-1,2.363978922E-1,1.814063668E0
3.653040021E0,5.329642445E-2,6.902574003E-2,1.812842011E0
3.655462104E0,-7.620319724E-2,-9.223793447E-2,1.800624967E0
3.657882990E0,-2.020377368E-1,-2.339545041E-1,1.777412772E0
3.660304917E0,-3.205420971E-1,-3.622324169E-1,1.743205309E0
3.662727677E0,-4.243861437E-1,-4.770717025E-1,1.704111099E0
3.665149500E0,-5.160132051E-1,-5.711421967E-1,1.658908486E0
3.667570646E0,-5.905365944E-1,-6.578825116E-1,1.621035933E0
3.669992521E0,-6.455128193E-1,-7.397360206E-1,1.583010674E0
3.672415282E0,-6.772769094E-1,-7.995990515E-1,1.547581553E0
3.674837157E0,-6.894938350E-1,-8.386932611E-1,1.512152433E0
3.677258250E0,-6.821636558E-1,-8.545753360E-1,1.476723194E0
3.679680177E0,-6.601731777E-1,-8.448017836E-1,1.448624253E0
3.682102938E0,-6.198572516E-1,-8.313631415E-1,1.430298805E0
3.684524813E0,-5.685460567E-1,-8.057075143E-1,1.422968745E0
3.686945907E0,-5.099047422E-1,-7.666133046E-1,1.416860223E0
3.689367834E0,-4.390464723E-1,-7.201889157E-1,1.410751700E0
3.691790542E0,-3.657447994E-1,-6.652126908E-1,1.404643297E0
3.694212417E0,-2.875563502E-1,-6.114581227E-1,1.396091461E0
3.696633563E0,-2.118112892E-1,-5.577035546E-1,1.386317849E0
3.699055438E0,-1.397313178E-1,-5.015056133E-1,1.372879267E0
3.701478198E0,-7.131642103E-2,-4.489727318E-1,1.353332043E0
3.703900073E0,-9.009997360E-3,-4.025483429E-1,1.328898191E0
3.706321167E0,4.596625641E-2,-3.549022675E-1,1.292247415E0
3.708743094E0,1.046075895E-1,-3.145863414E-1,1.243379593E0
3.711165854E0,1.461452097E-1,-2.718270421E-1,1.178629756E0
3.713587677E0,1.840177327E-1,-2.327328026E-1,1.102884769E0
3.716008823E0,2.108950168E-1,-1.985253543E-1,1.019809484E0
3.718430750E0,2.292204350E-1,-1.765348613E-1,9.269607067E-1
3.720853459E0,2.426590770E-1,-1.679829955E-1,8.231166601E-1
3.723275334E0,2.438807636E-1,-1.704263836E-1,7.082774043E-1
3.725696427E0,2.365505993E-1,-1.801999360E-1,5.848862529E-1
3.728118354E0,2.194468826E-1,-1.911951900E-1,4.517215490E-1
3.730541115E0,1.962346882E-1,-2.021904439E-1,3.197785318E-1
3.732962990E0,1.644706279E-1,-2.046338320E-1,1.939440072E-1
3.735384084E0,1.290414780E-1,-1.997470558E-1,8.643488586E-2
3.737806011E0,9.239064902E-2,-1.973036677E-1,1.679829881E-2
3.740228771E0,6.184828654E-2,-2.058555335E-1,-7.635590620E-3
3.742650594E0,3.374931216E-2,-2.119639963E-1,-3.054236295E-4
3.745071740E0,1.175880991E-2,-2.034121305E-1,1.557660475E-2
3.747493615E0,-7.788302377E-3,-1.838650256E-1,2.412846684E-2
3.749916375E0,-2.122694254E-2,-1.630962193E-1,2.412846684E-2
3.752338250E0,-2.611372061E-2,-1.472141892E-1,2.046338283E-2
3.754759344E0,-2.367033064E-2,-1.349972486E-1,1.313321572E-2
3.757181271E0,-1.878355257E-2,-1.264453828E-1,1.068982668E-2
3.759604032E0,-7.788302377E-3,-1.154501289E-1,8.246437646E-3
3.762025854E0,4.428642802E-3,-1.068982705E-1,1.068982668E-2
3.764447000E0,1.542389300E-2,-1.020114943E-1,1.313321572E-2
3.766868927E0,2.519745007E-2,-9.712471068E-2,2.046338283E-2
3.769291636E0,3.374931216E-2,-8.735115826E-2,2.535016090E-2
3.771713511E0,3.863608837E-2,-8.490777016E-2,2.779355086E-2
3.774134657E0,3.985778242E-2,-8.002099395E-2,3.023693897E-2
3.776556532E0,4.230117425E-2,-8.124268800E-2,2.901524492E-2
3.778979292E0,3.863608837E-2,-7.757759839E-2,2.901524492E-2
3.781401167E0,3.252761811E-2,-7.391251624E-2,2.657185495E-2
3.783822261E0,2.886253223E-2,-7.635590434E-2,2.290677279E-2
3.786244188E0,2.275406010E-2,-7.635590434E-2,2.168507688E-2
3.788666948E0,1.908897609E-2,-7.879929990E-2,2.046338283E-2
3.791088771E0,1.420219894E-2,-8.002099395E-2,2.046338283E-2
3.793509917E0,1.175880991E-2,-8.124268800E-2,2.290677279E-2
3.795931792E0,1.298050396E-2,-8.368607610E-2,2.412846684E-2
3.798354552E0,1.298050396E-2,-8.246438205E-2,2.657185495E-2
3.800776427E0,1.420219894E-2,-8.246438205E-2,3.023693897E-2
3.803197573E0,1.786728203E-2,-8.246438205E-2,3.268032894E-2
3.805619448E0,1.908897609E-2,-7.757759839E-2,3.390202299E-2
3.808042209E0,1.664558798E-2,-7.391251624E-2,3.512371704E-2
3.810464084E0,1.908897609E-2,-7.024743408E-2,3.634541109E-2
3.812885177E0,2.031067200E-2,-6.658235192E-2,4.001049697E-2
3.815307104E0,2.031067200E-2,-5.925218388E-2,4.367557913E-2
3.817729865E0,2.031067200E-2,-5.803048983E-2,4.489727318E-2
3.820151688E0,1.786728203E-2,-5.314370990E-2,4.978405312E-2
3.822572834E0,1.664558798E-2,-4.459185153E-2,5.344913527E-2
3.824994709E0,1.298050396E-2,-4.337015375E-2,5.711421743E-2
3.827417469E0,1.053711493E-2,-3.726168349E-2,5.833591148E-2
3.829839344E0,5.650337320E-3,-3.481829539E-2,6.200099736E-2
3.832260438E0,3.206948051E-3,-3.481829539E-2,6.322269142E-2
3.834682365E0,-1.679830020E-3,-3.359659761E-2,6.688777357E-2
3.837105125E0,-5.344913341E-3,-3.481829539E-2,6.810946763E-2
3.839526948E0,-1.145338640E-2,-4.214845970E-2,6.933116168E-2
3.841948094E0,-1.634016447E-2,-5.314370990E-2,6.688777357E-2
3.844370021E0,-2.367033064E-2,-7.146912813E-2,7.177454978E-2
3.846792782E0,-3.344388679E-2,-6.413896382E-2,8.276980370E-2
3.849214604E0,-4.443913698E-2,-6.291726977E-2,9.987352788E-2
3.851635750E0,-5.787777901E-2,-7.024743408E-2,1.194206402E-1
3.854057625E0,-7.498150319E-2,-7.635590434E-2,1.316375881E-1
3.856480386E0,-9.697200358E-2,-1.032331884E-1,1.438545287E-1
3.858902261E0,-1.360662282E-1,-1.166718230E-1,1.597365588E-1
3.861323354E0,-1.702736765E-1,-1.337755471E-1,1.695101112E-1
3.863745282E0,-2.020377368E-1,-1.618745178E-1,1.768402755E-1
3.866168042E0,-2.472404242E-1,-2.156290859E-1,1.890572309E-1
3.868589865E0,-3.254288733E-1,-3.487937748E-1,2.110477239E-1
3.871011011E0,-4.952444136E-1,-5.418215394E-1,2.525853515E-1
3.873432938E0,-6.051968932E-1,-5.967977643E-1,2.819060087E-1
3.875855646E0,-6.308525205E-1,-6.395570636E-1,3.014531136E-1
3.878277521E0,-6.271874309E-1,-6.554391384E-1,3.087832928E-1
3.880698667E0,-6.174138784E-1,-6.175665855E-1,3.100049794E-1
3.883120542E0,-6.051968932E-1,-5.674771070E-1,3.063398898E-1
3.885543302E0,-5.844281316E-1,-5.063923597E-1,2.953446507E-1
3.887965177E0,-5.428904891E-1,-4.355340898E-1,2.806843221E-1
3.890386271E0,-4.842491746E-1,-3.585673273E-1,2.611372173E-1
3.892808198E0,-4.133908749E-1,-2.901524603E-1,2.379250079E-1
3.895230959E0,-3.376458287E-1,-2.241809368E-1,2.122694254E-1
3.897652782E0,-2.643441558E-1,-1.533226669E-1,1.841704547E-1
3.900073927E0,-1.959292591E-1,-8.368607610E-2,1.560714692E-1
3.902495802E0,-1.336228400E-1,-1.893626526E-2,1.291942000E-1
3.904918563E0,-7.620319724E-2,3.970507160E-2,1.035386100E-1
3.907340438E0,-2.244863659E-2,8.490777016E-2,8.032641560E-2
3.909761532E0,2.031067200E-2,1.215586066E-1,6.077930331E-2
3.912183459E0,4.963133857E-2,1.508792788E-1,4.367557913E-2
3.914606219E0,6.673506647E-2,1.667613089E-1,2.657185495E-2
3.917028042E0,7.040014863E-2,1.704263836E-1,1.557660475E-2
3.919449188E0,6.673506647E-2,1.667613089E-1,4.581354558E-3
3.921869687E0,5.207473040E-2,1.643179059E-1,-3.970507067E-3
3.924292395E0,3.619270027E-2,1.508792788E-1,-1.130067464E-2
3.926714270E0,1.786728203E-2,1.349972486E-1,-1.496575773E-2
3.929135416E0,-4.581354442E-4,1.166718230E-1,-1.985253580E-2
3.931557291E0,-1.511846948E-2,9.834641218E-2,-1.985253580E-2
3.933980051E0,-2.855710872E-2,8.368607610E-2,-2.229592577E-2
3.936401926E0,-3.344388679E-2,6.902574003E-2,-2.351761982E-2
3.938823020E0,-3.466558084E-2,5.803048983E-2,-2.473931387E-2
3.941244947E0,-3.222219273E-2,5.558710173E-2,-2.473931387E-2
3.943667708E0,-2.611372061E-2,4.581354558E-2,-2.840439789E-2
3.946089531E0,-1.634016447E-2,4.337015375E-2,-2.718270384E-2
3.948510676E0,-7.788302377E-3,4.581354558E-2,-2.718270384E-2
3.950932604E0,7.635590737E-4,4.581354558E-2,-2.840439789E-2
3.953355312E0,9.315420873E-3,4.581354558E-2,-2.840439789E-2
3.955777187E0,1.542389300E-2,4.459185153E-2,-3.084778599E-2
3.958198333E0,1.908897609E-2,4.825693369E-2,-3.084778599E-2
3.960620208E0,2.153236605E-2,5.314370990E-2,-3.084778599E-2
3.963042968E0,2.153236605E-2,5.436540768E-2,-3.206948191E-2
3.965464843E0,2.153236605E-2,5.680879578E-2,-3.206948191E-2
3.967885937E0,1.908897609E-2,5.925218388E-2,-3.084778599E-2
3.970307864E0,1.664558798E-2,6.413896382E-2,-3.084778599E-2
3.972730624E0,1.298050396E-2,7.024743408E-2,-3.084778599E-2
3.975152447E0,1.175880991E-2,7.513421029E-2,-3.084778599E-2
3.977573593E0,1.420219894E-2,8.246438205E-2,-3.084778599E-2
3.979995468E0,1.420219894E-2,9.345962852E-2,-3.206948191E-2
3.982418229E0,1.420219894E-2,1.056765765E-1,-3.206948191E-2
3.984840104E0,1.664558798E-2,1.130067408E-1,-3.206948191E-2
3.987261197E0,1.786728203E-2,1.191152185E-1,-3.329117596E-2
3.989683124E0,1.786728203E-2,1.240019947E-1,-3.084778599E-2
3.992105885E0,2.031067200E-2,1.264453828E-1,-3.206948191E-2
3.994527708E0,2.031067200E-2,1.252236813E-1,-3.329117596E-2
3.996948854E0,1.908897609E-2,1.276670843E-1,-3.084778599E-2
3.999370781E0,1.664558798E-2,1.313321590E-1,-3.084778599E-2
4.001793489E0,1.420219894E-2,1.325538605E-1,-2.962609194E-2
4.004215364E0,1.542389300E-2,1.313321590E-1,-2.718270384E-2
4.006636510E0,1.175880991E-2,1.276670843E-1,-2.718270384E-2
4.009058385E0,1.053711493E-2,1.252236813E-1,-2.473931387E-2
4.011481145E0,6.872031838E-3,1.264453828E-1,-2.229592577E-2
4.013903020E0,6.872031838E-3,1.191152185E-1,-2.107422985E-2
4.016324114E0,3.206948051E-3,1.154501289E-1,-1.740914769E-2
4.018746041E0,4.428642802E-3,1.081199646E-1,-1.496575773E-2
4.021168801E0,3.206948051E-3,9.956810623E-2,-1.252236869E-2
4.023590624E0,7.635590737E-4,9.101624042E-2,-8.857285604E-3
4.026011770E0,3.206948051E-3,8.124268800E-2,-7.635590620E-3
4.028433645E0,-4.581354442E-4,7.146912813E-2,-7.635590620E-3
4.030856406E0,-1.679830020E-3,6.291726977E-2,-8.857285604E-3
4.033278281E0,-2.901524538E-3,5.558710173E-2,-1.252236869E-2
4.035699374E0,-6.566607859E-3,4.581354558E-2,-1.740914769E-2
4.038121301E0,-1.023169141E-2,3.237490356E-2,-1.985253580E-2
4.040544062E0,-1.511846948E-2,2.626643144E-2,-2.229592577E-2
4.042965937E0,-2.000524849E-2,2.137965336E-2,-2.229592577E-2
4.045387031E0,-2.244863659E-2,1.527118124E-2,-2.229592577E-2
4.047808958E0,-2.489202656E-2,1.282779220E-2,-1.985253580E-2
4.050231718E0,-2.611372061E-2,5.497625098E-3,-1.740914769E-2
4.052653541E0,-2.489202656E-2,-1.832541777E-3,-1.618745178E-2
4.055074687E0,-2.244863659E-2,-7.941014133E-3,-1.374406368E-2
4.057496562E0,-2.122694254E-2,-1.282779220E-2,-1.252236869E-2
4.059919322E0,-1.389677543E-2,-1.527118124E-2,-1.130067464E-2
4.062341197E0,-1.023169141E-2,-1.160609815E-2,-8.857285604E-3
4.064762291E0,-4.123218823E-3,-1.404948719E-2,-6.413896102E-3
4.067184218E0,-4.581354442E-4,-1.160609815E-2,-2.748812549E-3
4.069606979E0,3.206948051E-3,-1.038440317E-2,-1.527118147E-3
4.072028801E0,5.650337320E-3,-6.719320081E-3,-3.054236295E-4
4.074449947E0,9.315420873E-3,-5.497625098E-3,2.137965523E-3
4.076871874E0,1.175880991E-2,-3.054236295E-3,2.137965523E-3
4.079294583E0,1.542389300E-2,-4.275931045E-3,2.137965523E-3
4.081716458E0,1.542389300E-2,-6.108472589E-4,3.359660041E-3
4.084137551E0,1.542389300E-2,3.054236295E-3,9.162708884E-4
4.086559479E0,1.664558798E-2,7.941014133E-3,9.162708884E-4
4.088982239E0,1.542389300E-2,1.527118124E-2,-1.527118147E-3
4.091404114E0,1.786728203E-2,1.527118124E-2,-3.970507067E-3
4.093825208E0,2.031067200E-2,1.649287529E-2,-3.970507067E-3
4.096247135E0,2.153236605E-2,2.137965336E-2,-5.192201585E-3
4.098669843E0,2.275406010E-2,2.504473738E-2,-7.635590620E-3
4.101091718E0,2.641914412E-2,2.748812735E-2,-8.857285604E-3
4.103512864E0,2.641914412E-2,3.115320951E-2,-8.857285604E-3
4.105934739E0,2.641914412E-2,3.481829539E-2,-8.857285604E-3
4.108357499E0,2.641914412E-2,4.092676565E-2,-8.857285604E-3
4.110779374E0,2.519745007E-2,4.459185153E-2,-8.857285604E-3
4.113200468E0,2.397575416E-2,4.337015375E-2,-8.857285604E-3
4.115622395E0,2.153236605E-2,4.459185153E-2,-8.857285604E-3
4.118045156E0,2.275406010E-2,4.459185153E-2,-6.413896102E-3
4.120466979E0,2.397575416E-2,4.337015375E-2,-3.970507067E-3
4.122888124E0,1.908897609E-2,4.459185153E-2,-3.970507067E-3
4.125310051E0,2.153236605E-2,4.337015375E-2,-2.748812549E-3
4.127732760E0,2.275406010E-2,4.337015375E-2,-3.054236295E-4
4.130154635E0,2.153236605E-2,4.337015375E-2,2.137965523E-3
4.132575781E0,2.031067200E-2,3.970507160E-2,3.359660041E-3
4.134997656E0,2.153236605E-2,3.603998944E-2,3.359660041E-3
4.137420416E0,2.153236605E-2,3.481829539E-2,5.803049076E-3
4.139842291E0,2.031067200E-2,3.481829539E-2,9.468132630E-3
4.142263385E0,2.153236605E-2,2.993151546E-2,1.068982668E-2
4.144685312E0,2.031067200E-2,2.748812735E-2,1.191152167E-2
4.147108072E0,2.031067200E-2,2.137965336E-2,1.191152167E-2
4.149529895E0,1.786728203E-2,2.382304333E-2,1.313321572E-2
4.151951041E0,1.786728203E-2,1.893626526E-2,1.435491070E-2
4.154372916E0,1.664558798E-2,1.893626526E-2,1.679829881E-2
4.156795676E0,1.664558798E-2,1.527118124E-2,1.801999472E-2
4.159217551E0,1.664558798E-2,1.160609815E-2,1.924168877E-2
4.161638645E0,1.420219894E-2,7.941014133E-3,2.046338283E-2
4.164060572E0,1.175880991E-2,6.719320081E-3,2.168507688E-2
4.166483333E0,1.298050396E-2,4.275931045E-3,2.168507688E-2
4.168905208E0,1.053711493E-2,-6.108472589E-4,2.290677279E-2
4.171326301E0,1.053711493E-2,-5.497625098E-3,2.535016090E-2
4.173748229E0,1.175880991E-2,-1.160609815E-2,2.779355086E-2
4.176170937E0,1.053711493E-2,-1.649287529E-2,2.657185495E-2
4.178592812E0,1.175880991E-2,-1.527118124E-2,2.657185495E-2
4.181013958E0,1.053711493E-2,-1.771457121E-2,2.657185495E-2
4.183435833E0,1.175880991E-2,-2.504473738E-2,2.779355086E-2
4.185858593E0,1.175880991E-2,-2.993151546E-2,2.901524492E-2
4.188280468E0,1.542389300E-2,-3.603998944E-2,3.023693897E-2
4.190701562E0,1.542389300E-2,-3.237490356E-2,3.145863488E-2
4.193123489E0,1.298050396E-2,-2.382304333E-2,3.023693897E-2
4.195546249E0,1.298050396E-2,-1.771457121E-2,2.779355086E-2
4.197968072E0,1.298050396E-2,-1.771457121E-2,2.779355086E-2
4.200389218E0,1.420219894E-2,-2.260134928E-2,3.023693897E-2
4.202811093E0,1.542389300E-2,-2.748812735E-2,3.145863488E-2
4.205233854E0,1.664558798E-2,-2.748812735E-2,3.145863488E-2
4.207655729E0,1.542389300E-2,-2.015795931E-2,3.145863488E-2
4.210076822E0,1.298050396E-2,-1.038440317E-2,2.779355086E-2
4.212498749E0,1.175880991E-2,-1.832541777E-3,2.412846684E-2
4.214921510E0,9.315420873E-3,5.497625098E-3,2.046338283E-2
4.217343385E0,5.650337320E-3,1.649287529E-2,1.557660475E-2
4.219764479E0,4.428642802E-3,1.893626526E-2,9.468132630E-3
4.222186406E0,1.985253533E-3,2.382304333E-2,3.359660041E-3
4.224609166E0,1.985253533E-3,2.748812735E-2,-2.748812549E-3
4.227030989E0,1.985253533E-3,2.993151546E-2,-6.413896102E-3
4.229452135E0,3.206948051E-3,3.481829539E-2,-1.130067464E-2
4.231874010E0,4.428642802E-3,3.970507160E-2,-1.740914769E-2
4.234296770E0,7.635590737E-4,4.581354558E-2,-2.229592577E-2
4.236718645E0,-1.679830020E-3,5.192201585E-2,-2.840439789E-2
4.239139739E0,-1.679830020E-3,5.925218388E-2,-3.084778599E-2
4.241561666E0,-2.901524538E-3,6.291726977E-2,-3.206948191E-2
4.243984426E0,-6.566607859E-3,6.536065787E-2,-3.573456407E-2
4.246406249E0,-5.344913341E-3,6.902574003E-2,-3.817795217E-2
4.248827395E0,-5.344913341E-3,7.269082218E-2,-3.939964995E-2
4.251249270E0,-5.344913341E-3,7.269082218E-2,-4.184303805E-2
4.253672031E0,-2.901524538E-3,6.413896382E-2,-4.550812021E-2
4.256093906E0,3.206948051E-3,5.314370990E-2,-4.550812021E-2
4.258514999E0,8.093725890E-3,4.581354558E-2,-4.672981426E-2
4.260936926E0,1.175880991E-2,3.970507160E-2,-4.428642616E-2
4.263359687E0,1.908897609E-2,3.237490356E-2,-4.306473210E-2
4.265781562E0,2.397575416E-2,2.870982140E-2,-4.062134400E-2
4.268202656E0,2.641914412E-2,2.504473738E-2,-3.573456407E-2
4.270624583E0,3.008422814E-2,1.893626526E-2,-3.206948191E-2
4.273047291E0,2.886253223E-2,1.160609815E-2,-2.718270384E-2
4.275469166E0,2.764083818E-2,1.832541777E-3,-2.473931387E-2
4.277890312E0,2.641914412E-2,-1.160609815E-2,-2.229592577E-2
4.280312187E0,2.275406010E-2,-2.748812735E-2,-1.863084175E-2
4.282734947E0,2.031067200E-2,-4.337015375E-2,-1.618745178E-2
4.285156822E0,1.542389300E-2,-5.314370990E-2,-1.374406368E-2
4.287577916E0,1.298050396E-2,-6.047387794E-2,-1.252236869E-2
4.289999843E0,1.175880991E-2,-6.413896382E-2,-1.374406368E-2
4.292422604E0,1.298050396E-2,-6.658235192E-2,-1.618745178E-2
4.294844426E0,9.315420873E-3,-6.536065787E-2,-1.618745178E-2
4.297265572E0,1.053711493E-2,-6.169557199E-2,-1.740914769E-2
4.299687499E0,1.175880991E-2,-5.680879578E-2,-1.496575773E-2
4.302110208E0,1.298050396E-2,-5.558710173E-2,-1.007897966E-2
4.304532083E0,1.664558798E-2,-5.436540768E-2,-3.970507067E-3
4.306953229E0,1.786728203E-2,-5.436540768E-2,-3.054236295E-4
4.309375104E0,1.908897609E-2,-5.192201585E-2,4.581354558E-3
4.311797864E0,2.031067200E-2,-4.947862774E-2,5.803049076E-3
4.314219739E0,2.031067200E-2,-4.459185153E-2,5.803049076E-3
4.316640833E0,1.908897609E-2,-3.726168349E-2,5.803049076E-3
4.319062760E0,1.298050396E-2,-2.504473738E-2,4.581354558E-3
4.321485520E0,9.315420873E-3,-1.527118124E-2,9.162708884E-4
4.323907343E0,1.985253533E-3,-6.719320081E-3,-2.748812549E-3
4.326328489E0,-2.901524538E-3,5.497625098E-3,-3.970507067E-3
4.328750364E0,-7.788302377E-3,1.527118124E-2,-7.635590620E-3
4.331173124E0,-1.511846948E-2,2.626643144E-2,-8.857285604E-3
4.333594999E0,-1.634016447E-2,3.359659761E-2,-1.007897966E-2
4.336016093E0,-2.000524849E-2,4.092676565E-2,-1.130067464E-2
4.338438020E0,-2.000524849E-2,4.825693369E-2,-1.252236869E-2
4.340860781E0,-2.244863659E-2,5.436540768E-2,-1.252236869E-2
4.343282604E0,-2.489202656E-2,5.925218388E-2,-1.374406368E-2
4.345703749E0,-2.611372061E-2,6.291726977E-2,-1.374406368E-2
4.348125676E0,-2.855710872E-2,6.780404598E-2,-1.374406368E-2
4.350548385E0,-3.100049868E-2,6.658235192E-2,-1.130067464E-2
4.352970260E0,-3.100049868E-2,6.169557199E-2,-1.007897966E-2
4.355391406E0,-3.100049868E-2,6.169557199E-2,-8.857285604E-3
4.357813281E0,-3.100049868E-2,5.803048983E-2,-1.007897966E-2
4.360236041E0,-3.100049868E-2,5.436540768E-2,-7.635590620E-3
4.362657916E0,-2.855710872E-2,4.825693369E-2,-6.413896102E-3
4.365079010E0,-2.611372061E-2,4.459185153E-2,-5.192201585E-3
4.367500937E0,-2.489202656E-2,3.970507160E-2,-3.970507067E-3
4.369923697E0,-2.000524849E-2,3.481829539E-2,-1.527118147E-3
4.372345520E0,-1.511846948E-2,2.870982140E-2,-2.748812549E-3
4.374766666E0,-1.023169141E-2,2.260134928E-2,-2.748812549E-3
4.377188541E0,-5.344913341E-3,2.015795931E-2,-3.970507067E-3
4.379611301E0,-4.581354442E-4,2.015795931E-2,-7.635590620E-3
4.382033176E0,3.206948051E-3,2.015795931E-2,-7.635590620E-3
4.384454270E0,8.093725890E-3,2.382304333E-2,-1.130067464E-2
4.386876197E0,9.315420873E-3,2.870982140E-2,-1.252236869E-2
4.389298958E0,1.053711493E-2,3.115320951E-2,-1.496575773E-2
4.391720781E0,1.175880991E-2,3.481829539E-2,-1.740914769E-2
4.394141926E0,1.542389300E-2,3.848337755E-2,-1.863084175E-2
4.396563854E0,1.420219894E-2,4.459185153E-2,-1.985253580E-2
4.398986562E0,1.420219894E-2,4.947862774E-2,-2.229592577E-2
4.401408437E0,1.542389300E-2,5.314370990E-2,-2.229592577E-2
4.403829583E0,1.664558798E-2,5.803048983E-2,-2.229592577E-2
4.406251458E0,1.664558798E-2,6.413896382E-2,-1.985253580E-2
4.408674218E0,1.542389300E-2,6.902574003E-2,-2.229592577E-2
4.411096093E0,1.908897609E-2,7.146912813E-2,-2.107422985E-2
4.413517187E0,2.031067200E-2,7.879929990E-2,-1.985253580E-2
4.415939114E0,2.031067200E-2,8.490777016E-2,-1.863084175E-2
4.418361874E0,2.153236605E-2,8.857285231E-2,-2.229592577E-2
4.420783697E0,2.031067200E-2,9.223793447E-2,-2.229592577E-2
4.423204843E0,2.031067200E-2,9.590301663E-2,-2.229592577E-2
4.425626718E0,2.153236605E-2,9.834641218E-2,-2.351761982E-2
4.428049479E0,2.031067200E-2,9.956810623E-2,-2.596100792E-2
4.430471354E0,1.908897609E-2,9.834641218E-2,-3.206948191E-2
4.432892447E0,1.786728203E-2,1.007898003E-1,-3.329117596E-2
4.435314374E0,1.542389300E-2,1.007898003E-1,-3.329117596E-2
4.437737135E0,1.542389300E-2,1.007898003E-1,-3.451287001E-2
4.440159010E0,1.664558798E-2,9.590301663E-2,-3.329117596E-2
4.442580104E0,1.542389300E-2,9.590301663E-2,-3.329117596E-2
4.445002031E0,1.664558798E-2,9.468132257E-2,-3.084778599E-2
4.447424739E0,1.542389300E-2,8.979454637E-2,-2.840439789E-2
4.449846614E0,1.786728203E-2,8.735115826E-2,-2.596100792E-2
4.452267760E0,1.908897609E-2,8.002099395E-2,-2.229592577E-2
4.454689635E0,1.786728203E-2,7.391251624E-2,-1.863084175E-2
4.457112395E0,1.542389300E-2,6.658235192E-2,-1.374406368E-2
4.459534270E0,1.542389300E-2,5.558710173E-2,-1.007897966E-2
4.461955364E0,1.542389300E-2,4.459185153E-2,-5.192201585E-3
4.464377291E0,1.542389300E-2,3.481829539E-2,-3.054236295E-4
4.466800051E0,1.420219894E-2,2.504473738E-2,5.803049076E-3
4.469221874E0,1.420219894E-2,1.649287529E-2,9.468132630E-3
4.471643020E0,1.298050396E-2,1.160609815E-2,1.313321572E-2
4.474064895E0,1.786728203E-2,7.941014133E-3,1.557660475E-2
4.476487656E0,1.908897609E-2,6.719320081E-3,1.801999472E-2
4.478909531E0,2.153236605E-2,9.162709117E-3,2.046338283E-2
4.481330624E0,2.397575416E-2,1.038440317E-2,2.046338283E-2
4.483752551E0,2.641914412E-2,1.038440317E-2,1.924168877E-2
4.486175312E0,2.886253223E-2,9.162709117E-3,1.801999472E-2
4.488597135E0,2.764083818E-2,1.527118124E-2,1.801999472E-2
4.491018281E0,3.252761811E-2,1.038440317E-2,1.924168877E-2
4.493440208E0,3.374931216E-2,4.275931045E-3,2.046338283E-2
4.495862968E0,3.619270027E-2,3.054236295E-3,2.168507688E-2
4.498284791E0,3.619270027E-2,3.054236295E-3,2.290677279E-2
4.500705937E0,3.741439432E-2,4.275931045E-3,2.412846684E-2
4.503127812E0,3.985778242E-2,-1.832541777E-3,2.290677279E-2
4.505550572E0,3.863608837E-2,-3.054236295E-3,2.290677279E-2
4.507972447E0,3.619270027E-2,-1.832541777E-3,2.290677279E-2
4.510393541E0,3.619270027E-2,-6.719320081E-3,2.535016090E-2
4.512815468E0,3.252761811E-2,-1.160609815E-2,2.412846684E-2
4.515238229E0,3.252761811E-2,-1.404948719E-2,2.412846684E-2
4.517660051E0,3.008422814E-2,-1.649287529E-2,2.412846684E-2
4.520081197E0,3.008422814E-2,-2.137965336E-2,2.290677279E-2
4.522503072E0,2.764083818E-2,-2.504473738E-2,2.168507688E-2
4.524925833E0,2.641914412E-2,-2.748812735E-2,1.924168877E-2
4.527347708E0,2.519745007E-2,-2.748812735E-2,1.924168877E-2
4.529768801E0,2.397575416E-2,-2.993151546E-2,1.679829881E-2
4.532190729E0,2.397575416E-2,-3.237490356E-2,1.435491070E-2
4.534613489E0,2.031067200E-2,-2.993151546E-2,1.191152167E-2
4.537035364E0,1.908897609E-2,-2.993151546E-2,8.246437646E-3
4.539456458E0,1.786728203E-2,-2.870982140E-2,7.024743594E-3
4.541878385E0,1.542389300E-2,-2.748812735E-2,2.137965523E-3
4.544301093E0,1.664558798E-2,-2.870982140E-2,9.162708884E-4
4.546722968E0,1.420219894E-2,-2.748812735E-2,-3.054236295E-4
4.549144114E0,1.542389300E-2,-2.748812735E-2,-2.748812549E-3
4.551565989E0,1.542389300E-2,-2.626643144E-2,-5.192201585E-3
4.553988749E0,1.664558798E-2,-2.626643144E-2,-8.857285604E-3
4.556410624E0,1.786728203E-2,-2.260134928E-2,-8.857285604E-3
4.558831718E0,1.786728203E-2,-2.260134928E-2,-1.252236869E-2
4.561253645E0,1.908897609E-2,-1.649287529E-2,-1.130067464E-2
4.563676406E0,2.031067200E-2,-1.404948719E-2,-1.252236869E-2
4.566098229E0,1.786728203E-2,-1.160609815E-2,-1.374406368E-2
4.568519374E0,1.908897609E-2,-9.162709117E-3,-1.252236869E-2
4.570941249E0,1.908897609E-2,-5.497625098E-3,-1.130067464E-2
4.573364010E0,2.031067200E-2,-1.832541777E-3,-1.007897966E-2
4.575785885E0,2.153236605E-2,6.108472589E-4,-1.130067464E-2
4.578206979E0,2.153236605E-2,6.719320081E-3,-1.007897966E-2
4.580628906E0,2.275406010E-2,1.282779220E-2,-6.413896102E-3
4.583051666E0,2.519745007E-2,1.282779220E-2,-6.413896102E-3
4.585473541E0,2.397575416E-2,1.771457121E-2,-1.527118147E-3
4.587894635E0,2.397575416E-2,2.626643144E-2,4.581354558E-3
4.590316562E0,2.397575416E-2,3.115320951E-2,1.435491070E-2
4.592739322E0,3.008422814E-2,2.870982140E-2,2.168507688E-2
4.595161145E0,3.252761811E-2,3.115320951E-2,2.657185495E-2
4.597582291E0,3.252761811E-2,3.115320951E-2,3.145863488E-2
4.600004166E0,3.130592033E-2,3.237490356E-2,3.390202299E-2
4.602426926E0,3.008422814E-2,2.993151546E-2,3.634541109E-2
4.604848801E0,3.008422814E-2,2.748812735E-2,3.634541109E-2
4.607269895E0,3.008422814E-2,2.626643144E-2,4.001049697E-2
4.609691822E0,2.641914412E-2,2.626643144E-2,4.245388508E-2
4.612114583E0,2.641914412E-2,2.626643144E-2,4.245388508E-2
4.614536406E0,2.764083818E-2,2.382304333E-2,4.245388508E-2
4.616957551E0,2.764083818E-2,2.504473738E-2,4.367557913E-2
4.619379426E0,2.764083818E-2,2.382304333E-2,4.245388508E-2
4.621802187E0,2.519745007E-2,2.260134928E-2,4.001049697E-2
4.624224062E0,2.641914412E-2,2.137965336E-2,3.634541109E-2
4.626645156E0,2.886253223E-2,1.771457121E-2,3.023693897E-2
4.629067083E0,3.008422814E-2,1.649287529E-2,2.657185495E-2
4.631489843E0,3.130592033E-2,1.160609815E-2,2.412846684E-2
4.633911666E0,3.008422814E-2,6.719320081E-3,1.924168877E-2
4.636332812E0,3.252761811E-2,6.108472589E-4,1.679829881E-2
4.638754739E0,3.741439432E-2,-2.137965336E-2,1.435491070E-2
4.641177447E0,4.718795046E-2,-5.558710173E-2,1.801999472E-2
4.643599322E0,5.573981255E-2,-5.925218388E-2,1.679829881E-2
4.646020468E0,5.940489471E-2,-1.771457121E-2,3.359660041E-3
4.648442343E0,6.062658876E-2,3.726168349E-2,-2.351761982E-2
4.650865104E0,6.184828654E-2,6.658235192E-2,-5.039490014E-2
4.653286979E0,5.940489471E-2,6.780404598E-2,-6.749862432E-2
4.655708072E0,5.329642445E-2,5.558710173E-2,-7.116370648E-2
4.658129999E0,4.107947648E-2,4.092676565E-2,-6.627693027E-2
4.660552760E0,2.641914412E-2,3.359659761E-2,-5.772506446E-2
4.662974583E0,9.315420873E-3,3.603998944E-2,-4.795150831E-2
4.665395729E0,-5.344913341E-3,3.970507160E-2,-3.939964995E-2
4.667817656E0,-1.878355257E-2,4.581354558E-2,-3.329117596E-2
4.670240364E0,-2.489202656E-2,4.947862774E-2,-3.206948191E-2
4.672662239E0,-2.977880463E-2,5.192201585E-2,-2.962609194E-2
4.675083333E0,-3.344388679E-2,5.192201585E-2,-3.206948191E-2
4.677505260E0,-3.466558084E-2,5.314370990E-2,-3.084778599E-2
4.679928020E0,-3.222219273E-2,5.192201585E-2,-3.206948191E-2
4.682349843E0,-3.344388679E-2,5.436540768E-2,-3.451287001E-2
4.684770989E0,-3.222219273E-2,5.803048983E-2,-3.817795217E-2
4.687192916E0,-3.100049868E-2,6.291726977E-2,-4.062134400E-2
4.689615624E0,-3.466558084E-2,6.902574003E-2,-4.428642616E-2
4.692037499E0,-3.710897267E-2,7.513421029E-2,-4.795150831E-2
4.694458645E0,-3.955236077E-2,8.246438205E-2,-5.283828825E-2
4.696880520E0,-4.199574888E-2,8.979454637E-2,-5.528167635E-2
4.699303281E0,-4.566083103E-2,9.712471068E-2,-5.894676223E-2
4.701725156E0,-4.932591692E-2,1.020114943E-1,-6.016845629E-2
4.704146249E0,-4.932591692E-2,1.068982705E-1,-6.383354217E-2
4.706568176E0,-4.810422286E-2,1.130067408E-1,-6.383354217E-2
4.708990885E0,-5.054761097E-2,1.154501289E-1,-6.749862432E-2
4.711412760E0,-5.054761097E-2,1.191152185E-1,-6.749862432E-2
4.713833906E0,-4.810422286E-2,1.215586066E-1,-6.872031838E-2
4.716255781E0,-4.566083103E-2,1.227803007E-1,-6.749862432E-2
4.718678541E0,-4.443913698E-2,1.227803007E-1,-6.505523622E-2
4.721100416E0,-4.077405483E-2,1.166718230E-1,-6.383354217E-2
4.723521510E0,-3.710897267E-2,1.142284349E-1,-6.383354217E-2
4.725943437E0,-3.344388679E-2,1.068982705E-1,-6.139015034E-2
4.728366197E0,-2.977880463E-2,9.956810623E-2,-5.894676223E-2
4.730788020E0,-2.489202656E-2,9.590301663E-2,-5.650337040E-2
4.733209166E0,-2.244863659E-2,8.735115826E-2,-5.405998230E-2
4.735631041E0,-2.000524849E-2,8.246438205E-2,-5.039490014E-2
4.738053801E0,-1.511846948E-2,7.635590434E-2,-4.672981426E-2
4.740475676E0,-1.511846948E-2,6.658235192E-2,-4.306473210E-2
4.742896822E0,-1.389677543E-2,5.680879578E-2,-3.939964995E-2
4.745318697E0,-1.389677543E-2,4.825693369E-2,-3.695625812E-2
4.747741458E0,-1.267508045E-2,3.970507160E-2,-3.329117596E-2
4.750163333E0,-1.634016447E-2,3.481829539E-2,-3.084778599E-2
4.752584426E0,-1.878355257E-2,3.237490356E-2,-2.962609194E-2
4.755006354E0,-2.122694254E-2,2.993151546E-2,-2.840439789E-2
4.757429062E0,-2.611372061E-2,2.626643144E-2,-2.596100792E-2
4.759850937E0,-3.100049868E-2,2.260134928E-2,-2.351761982E-2
4.762272083E0,-3.344388679E-2,1.771457121E-2,-2.351761982E-2
4.764693958E0,-3.710897267E-2,1.282779220E-2,-2.229592577E-2
4.767116718E0,-4.077405483E-2,7.941014133E-3,-2.229592577E-2
4.769538593E0,-4.443913698E-2,5.497625098E-3,-2.351761982E-2
4.771959687E0,-4.443913698E-2,4.275931045E-3,-2.229592577E-2
4.774381614E0,-4.688252881E-2,4.275931045E-3,-2.473931387E-2
4.776804374E0,-5.054761097E-2,9.162709117E-3,-2.596100792E-2
4.779226197E0,-5.299099907E-2,1.160609815E-2,-2.596100792E-2
4.781647343E0,-5.299099907E-2,1.404948719E-2,-2.596100792E-2
4.784069270E0,-5.176930502E-2,1.038440317E-2,-2.718270384E-2
4.786491979E0,-4.932591692E-2,1.282779220E-2,-2.840439789E-2
4.788913854E0,-4.566083103E-2,9.162709117E-3,-2.962609194E-2
4.791334947E0,-4.321744293E-2,9.162709117E-3,-2.962609194E-2
4.793756874E0,-4.321744293E-2,1.160609815E-2,-3.084778599E-2
4.796179635E0,-4.077405483E-2,1.282779220E-2,-3.206948191E-2
4.798601458E0,-3.710897267E-2,1.404948719E-2,-3.329117596E-2
4.801022604E0,-3.344388679E-2,1.404948719E-2,-3.573456407E-2
4.803444531E0,-3.100049868E-2,1.282779220E-2,-3.451287001E-2
4.805867239E0,-3.100049868E-2,1.160609815E-2,-3.329117596E-2
4.808289114E0,-2.855710872E-2,1.038440317E-2,-3.206948191E-2
4.810710260E0,-2.611372061E-2,7.941014133E-3,-3.084778599E-2
4.813132135E0,-2.244863659E-2,6.108472589E-4,-2.840439789E-2
4.815554895E0,-2.122694254E-2,-1.160609815E-2,-1.863084175E-2
4.817976770E0,-1.756185852E-2,-2.626643144E-2,-7.635590620E-3
4.820397864E0,-1.511846948E-2,-3.726168349E-2,-1.527118147E-3
4.822819791E0,-9.009997360E-3,-4.337015375E-2,3.359660041E-3
4.825242551E0,-4.581354442E-4,-5.192201585E-2,7.024743594E-3
4.827664374E0,1.053711493E-2,-6.047387794E-2,9.468132630E-3
4.830085520E0,2.153236605E-2,-6.902574003E-2,1.191152167E-2
4.832507395E0,3.008422814E-2,-7.879929990E-2,1.191152167E-2
4.834930156E0,4.230117425E-2,-8.735115826E-2,1.313321572E-2
4.837352031E0,5.451811850E-2,-9.223793447E-2,1.191152167E-2
4.839773124E0,6.062658876E-2,-9.345962852E-2,1.313321572E-2
4.842195051E0,6.795676053E-2,-9.590301663E-2,1.557660475E-2
4.844617812E0,7.162184268E-2,-9.712471068E-2,1.801999472E-2
4.847039635E0,7.406523079E-2,-9.834641218E-2,2.412846684E-2
4.849460781E0,7.528692484E-2,-1.032331884E-1,2.779355086E-2
4.851882708E0,7.284353673E-2,-9.834641218E-2,2.901524492E-2
4.854305416E0,7.162184268E-2,-9.345962852E-2,3.023693897E-2
4.856727291E0,6.917845458E-2,-8.612946421E-2,3.023693897E-2
4.859148385E0,6.184828654E-2,-7.635590434E-2,2.901524492E-2
4.861570312E0,5.696150661E-2,-6.780404598E-2,2.535016090E-2
4.863993072E0,5.207473040E-2,-5.925218388E-2,2.168507688E-2
4.866414895E0,4.963133857E-2,-5.070032179E-2,1.801999472E-2
4.868836041E0,4.596625641E-2,-4.214845970E-2,1.557660475E-2
4.871257968E0,4.474456236E-2,-3.481829539E-2,1.313321572E-2
4.873680729E0,4.107947648E-2,-2.504473738E-2,9.468132630E-3
4.876102551E0,4.230117425E-2,-1.771457121E-2,4.581354558E-3
4.878523697E0,3.741439432E-2,-3.054236295E-3,2.137965523E-3
4.880945572E0,3.741439432E-2,7.941014133E-3,-2.748812549E-3
4.883368333E0,3.619270027E-2,1.771457121E-2,-5.192201585E-3
4.885790208E0,3.374931216E-2,2.993151546E-2,-1.130067464E-2
4.888211301E0,3.252761811E-2,4.337015375E-2,-1.374406368E-2
4.890633229E0,3.130592033E-2,5.436540768E-2,-1.740914769E-2
4.893055989E0,3.252761811E-2,6.047387794E-2,-1.985253580E-2
4.895477812E0,3.252761811E-2,6.413896382E-2,-2.107422985E-2
4.897898958E0,3.130592033E-2,6.780404598E-2,-2.596100792E-2
4.900320833E0,3.008422814E-2,7.269082218E-2,-2.718270384E-2
4.902743593E0,3.130592033E-2,7.879929990E-2,-2.962609194E-2
4.905165468E0,3.130592033E-2,8.490777016E-2,-3.084778599E-2
4.907586562E0,3.374931216E-2,8.857285231E-2,-3.084778599E-2
4.910008489E0,3.619270027E-2,8.735115826E-2,-3.206948191E-2
4.912431249E0,3.619270027E-2,8.490777016E-2,-3.206948191E-2
4.914853072E0,3.497100621E-2,8.368607610E-2,-3.206948191E-2
4.917274218E0,3.619270027E-2,8.002099395E-2,-3.084778599E-2
4.919696145E0,3.497100621E-2,7.635590434E-2,-3.084778599E-2
4.922118854E0,3.619270027E-2,7.146912813E-2,-3.084778599E-2
4.924540729E0,3.497100621E-2,6.902574003E-2,-2.962609194E-2
4.926961874E0,3.497100621E-2,6.536065787E-2,-2.840439789E-2
4.929383749E0,3.497100621E-2,6.413896382E-2,-2.596100792E-2
4.931806510E0,3.497100621E-2,6.047387794E-2,-2.351761982E-2
4.934228385E0,3.374931216E-2,5.680879578E-2,-2.107422985E-2
4.936649479E0,3.130592033E-2,5.680879578E-2,-1.863084175E-2
4.939071406E0,2.886253223E-2,5.558710173E-2,-1.740914769E-2
4.941494166E0,2.641914412E-2,5.314370990E-2,-1.496575773E-2
4.943915989E0,2.641914412E-2,4.947862774E-2,-1.374406368E-2
4.946337135E0,2.275406010E-2,4.947862774E-2,-1.130067464E-2
4.948759010E0,2.153236605E-2,5.192201585E-2,-1.007897966E-2
4.951181770E0,1.786728203E-2,5.192201585E-2,-8.857285604E-3
4.953603645E0,1.664558798E-2,5.314370990E-2,-8.857285604E-3
4.956024739E0,1.664558798E-2,5.070032179E-2,-7.635590620E-3
4.958446666E0,1.420219894E-2,5.070032179E-2,-5.192201585E-3
4.960869426E0,1.420219894E-2,5.192201585E-2,-5.192201585E-3
4.963291249E0,1.053711493E-2,5.558710173E-2,-3.970507067E-3
4.965712395E0,1.053711493E-2,5.314370990E-2,-3.970507067E-3
4.968134322E0,1.053711493E-2,5.558710173E-2,-2.748812549E-3
