"Time (s)","Acceleration x (m/s^2)","Acceleration y (m/s^2)","Acceleration z (m/s^2)"
4.249832950E-1,-5.006575108E0,6.445490360E0,6.416759968E0
4.269832950E-1,-5.006575108E0,6.445490360E0,6.416759968E0
4.289832950E-1,-5.006575108E0,6.445490360E0,6.416759968E0
4.309832950E-1,-5.006575108E0,6.445490360E0,6.416759968E0
4.329832950E-1,1.132457376E0,-6.991068721E-1,6.912359715E0
4.349832950E-1,9.074024558E-1,-8.595184088E-1,7.415142059E0
4.369829610E-1,5.554547906E-1,-1.012747288E0,7.755118370E0
4.389826750E-1,3.591302633E-1,-1.082179189E0,7.860463619E0
4.409824250E-1,-1.819593310E-1,-1.312022567E0,8.035240173E0
4.429822020E-1,-7.374141216E-1,-1.546654344E0,8.066365242E0
4.449820020E-1,-9.552865028E-1,-1.671152830E0,8.013691902E0
4.469818200E-1,-1.505952835E0,-1.948880196E0,7.886799812E0
4.489816530E-1,-1.623268723E0,-2.166752577E0,7.841310024E0
4.509814990E-1,-1.699883223E0,-2.245761156E0,7.812579632E0
4.529812130E-1,-1.857900500E0,-2.382230759E0,7.805397034E0
4.549809460E-1,-1.939303398E0,-2.492363930E0,7.747935772E0
4.569806960E-1,-1.934514999E0,-2.540247917E0,7.721599579E0
4.589804600E-1,-1.905784607E0,-2.595314741E0,7.733570576E0
4.609802370E-1,-1.584961534E0,-2.422932148E0,8.384793282E0
4.629800260E-1,-1.079784989E0,-2.070984364E0,9.905111313E0
4.649798260E-1,-8.379705995E-2,-1.012747288E0,1.456183434E1
4.669795400E-1,-9.576806799E-3,-5.506663918E-1,1.550544834E1
4.689790850E-1,-1.101332754E-1,-6.153098345E-1,1.393455315E1
4.709788240E-1,-1.675941199E-1,-6.991068721E-1,1.068562126E1
4.729785740E-1,1.795651317E-1,-3.711012602E-1,9.158121109E0
4.749783340E-1,5.339069963E-1,-9.337386489E-2,8.980949402E0
4.769781030E-1,1.580173135E0,6.224924326E-1,9.476549149E0
4.789778800E-1,2.813186884E0,1.027112484E0,9.926659584E0
4.809776650E-1,3.383007050E0,1.824381709E0,1.077420712E1
4.829773890E-1,4.386177540E0,2.497152328E0,1.114770222E1
4.849771220E-1,4.867412090E0,2.794033289E0,1.118600941E1
4.869768550E-1,5.827786446E0,3.332728863E0,1.121234608E1
4.889765880E-1,6.799831867E0,3.773261786E0,1.143740082E1
4.909763210E-1,7.237970829E0,3.938461781E0,1.159781265E1
4.929760540E-1,7.953837395E0,4.094084740E0,1.180850220E1
4.949757870E-1,8.370428085E0,3.938461781E0,1.173906994E1
4.969755870E-1,8.444648743E0,3.718195200E0,1.160738945E1
4.989753200E-1,8.190863609E0,3.011905670E0,1.129135418E1
5.009750530E-1,6.897994518E0,1.977610588E0,1.096813679E1
5.029747860E-1,5.949890614E0,1.434126854E0,1.083645630E1
5.049745190E-1,4.055777550E0,3.447650373E-1,1.066407394E1
5.069742520E-1,2.432508945E0,-6.703764796E-1,1.064013195E1
5.089739850E-1,1.733402014E0,-1.144428372E0,1.063773727E1
5.109737180E-1,6.775590777E-1,-2.059013367E0,1.058027649E1
5.129735180E-1,1.101332754E-1,-2.906560898E0,1.048211479E1
5.149732510E-1,-1.221042871E-1,-3.251325846E0,1.044859505E1
5.169729840E-1,-7.517793179E-1,-3.780444384E0,1.044141293E1
5.189727170E-1,-1.515529633E0,-4.082113743E0,1.047972012E1
5.209724500E-1,-1.795651317E0,-4.235342979E0,1.045817184E1
5.229721830E-1,-2.308010340E0,-4.568136692E0,1.032649136E1
5.249719160E-1,-2.710236311E0,-4.884171486E0,1.008946514E1
5.269717160E-1,-2.846705914E0,-5.018546104E0,9.936236382E0
5.289716490E-1,-3.002328873E0,-5.205293655E0,9.478943825E0
5.309713820E-1,-3.033453465E0,-5.260360241E0,8.729558945E0
5.329711150E-1,-2.999934673E0,-5.305850029E0,8.315361977E0
5.349708480E-1,-2.870647907E0,-5.198111057E0,7.460631847E0
5.369705810E-1,-2.767697096E0,-5.135861874E0,6.969820499E0
5.389703140E-1,-2.712630510E0,-5.052064896E0,5.954679012E0
5.409700470E-1,-2.547430515E0,-5.018546104E0,5.061641693E0
5.429698470E-1,-2.382230759E0,-5.001786709E0,4.704606533E0
5.449695800E-1,-1.886630893E0,-4.879383087E0,4.163516521E0
5.469693130E-1,-1.300051570E0,-4.592078686E0,3.842693806E0
5.489690460E-1,-9.457096457E-1,-4.386177540E0,3.754108191E0
5.509687790E-1,-1.053448766E-1,-3.885789394E0,3.643975019E0
5.529685120E-1,8.068459630E-1,-3.191470861E0,3.608062029E0
5.549682450E-1,1.254561663E0,-2.825158119E0,3.610456228E0
5.569679780E-1,2.027888775E0,-2.114080191E0,3.682282209E0
5.589677780E-1,2.676717520E0,-1.199495077E0,3.818751812E0
5.609675110E-1,3.076549292E0,-1.604115069E-1,3.694253206E0
5.629672440E-1,3.564966440E0,8.762778044E-1,3.497928619E0
5.649669770E-1,3.732560396E0,1.074996591E0,3.574543238E0
5.669667100E-1,3.854664803E0,5.195417404E-1,3.971980572E0
5.689664430E-1,3.904942989E0,1.268926859E-1,4.302380562E0
5.709661760E-1,4.367023945E0,3.950432837E-1,4.486733913E0
5.729659090E-1,4.651933670E0,3.232172430E-1,4.575319290E0
5.749657090E-1,5.231629848E0,5.506663769E-2,4.925172329E0
5.769654420E-1,5.990592003E0,6.751648784E-1,5.087977886E0
5.789651750E-1,6.249165535E0,6.416460276E-1,5.286696434E0
5.809649080E-1,6.591536522E0,8.451532125E-1,5.945102215E0
5.829646410E-1,6.830956936E0,1.237802267E0,6.534075737E0
5.849643740E-1,6.795043468E0,1.086967587E0,6.974608898E0
5.869641070E-1,6.785466671E0,1.146822572E0,7.776666164E0
5.889638400E-1,6.857293129E0,1.283292055E0,8.368034363E0
5.909636400E-1,6.864475727E0,8.164227605E-1,8.818143845E0
5.929633730E-1,7.060800076E0,9.648633003E-1,9.663297653E0
5.949631060E-1,6.763918877E0,1.333570361E0,1.002961063E1
5.969628390E-1,5.906795025E0,1.144428372E0,1.104235744E1
5.989625720E-1,6.443096161E0,7.876923680E-1,1.221551609E1
6.009623050E-1,7.079953671E0,6.248866320E-1,1.281167221E1
6.029620380E-1,8.183680534E0,-3.280056417E-1,1.413806057E1
6.049618380E-1,8.854057312E0,-9.840168953E-1,1.517983723E1
6.069616380E-1,9.019257545E0,-1.323993564E0,1.546953583E1
6.089613710E-1,8.925883293E0,-2.463633537E0,1.650143623E1
6.109611040E-1,8.538022995E0,-3.150769472E0,1.791641045E1
6.129608370E-1,8.363245964E0,-3.122039080E0,1.848383522E1
6.149605700E-1,7.836521626E0,-3.505111217E0,1.945827484E1
6.169603030E-1,7.405565262E0,-3.790021181E0,2.053087807E1
6.189591360E-1,7.321768284E0,-3.603273630E0,2.097620010E1
6.209589360E-1,7.048829079E0,-3.514688015E0,2.158193207E1
6.229587020E-1,6.467038155E0,-3.655946016E0,2.193148613E1
6.249584680E-1,6.237194538E0,-3.478775024E0,2.175192070E1
6.269582340E-1,5.988197803E0,-3.303998232E0,2.108872795E1
6.289580000E-1,5.825392246E0,-3.828328609E0,2.054284859E1
6.309577660E-1,5.811026573E0,-4.027047157E0,2.024118042E1
6.329575320E-1,5.911583424E0,-3.957615376E0,1.943912125E1
6.349572980E-1,5.856516838E0,-4.367023945E0,1.893873405E1
6.369571310E-1,5.796661377E0,-4.534617901E0,1.882381248E1
6.389568970E-1,5.734412193E0,-4.189853191E0,1.853411484E1
6.409566630E-1,5.755959988E0,-3.734954596E0,1.829948235E1
6.429564290E-1,5.727229595E0,-3.665522814E0,1.827314568E1
6.449561950E-1,5.631461620E0,-3.584120035E0,1.821329117E1
6.469559610E-1,5.653009415E0,-3.423708439E0,1.796908188E1
6.489557270E-1,5.724835396E0,-2.700659513E0,1.783500671E1
6.509554930E-1,5.820603371E0,-2.358288765E0,1.764586449E1
6.529553260E-1,5.796661377E0,-2.317587137E0,1.756925011E1
6.549550920E-1,5.676951408E0,-2.312798738E0,1.739926147E1
6.569548580E-1,5.559635639E0,-2.152387381E0,1.723406219E1
6.589546240E-1,5.550058842E0,-1.915361404E0,1.711914062E1
6.609543900E-1,5.545270443E0,-1.503558636E0,1.684141350E1
6.629541560E-1,5.437531471E0,-1.357512355E0,1.662354088E1
6.649539220E-1,5.353734493E0,-1.309628367E0,1.651101303E1
6.669542550E-1,5.135861874E0,-1.278503656E0,1.631947708E1
6.689540880E-1,4.932354927E0,-1.101332784E0,1.615427780E1
6.709538540E-1,4.838681698E0,-1.012747288E0,1.604174995E1
6.729536200E-1,4.539406300E0,-9.504981041E-1,1.584542561E1
6.749533860E-1,4.129997730E0,-6.344634295E-1,1.571135044E1
6.769531520E-1,3.754108191E0,-3.734954596E-1,1.578557014E1
6.789538180E-1,3.344699860E0,-2.202665508E-1,1.581430054E1
6.809535840E-1,3.086126089E0,-2.705447972E-1,1.543362236E1
6.829533840E-1,2.937685490E0,-3.711012602E-1,1.515828991E1
6.849527500E-1,2.691082716E0,-6.392518282E-1,1.461211205E1
6.869524830E-1,2.444479942E0,-8.906430602E-1,1.389385128E1
6.889522160E-1,2.293645144E0,-1.029506683E0,1.342219353E1
6.909519490E-1,1.932120800E0,-1.376665950E0,1.243817711E1
6.929516820E-1,1.515529633E0,-1.680729628E0,1.141585255E1
6.949514150E-1,1.297657371E0,-1.771709204E0,1.097531986E1
6.969511480E-1,9.074024558E-1,-1.745373011E0,1.029536629E1
6.989509480E-1,5.219359994E-1,-1.661576033E0,9.847650528E0
7.009507480E-1,2.896983922E-1,-1.673547029E0,9.668086052E0
7.029504810E-1,-1.604115069E-1,-1.539471745E0,9.419088364E0
7.049502140E-1,-5.722141862E-1,-1.422155857E0,9.198822021E0
7.069499470E-1,-7.757213712E-1,-1.383848548E0,9.047987938E0
7.089496800E-1,-1.072602391E0,-1.450886250E0,8.712799072E0
7.109494130E-1,-1.151610970E0,-1.510741234E0,8.545205116E0
7.129491460E-1,-1.199495077E0,-1.721431017E0,8.202834129E0
7.149489460E-1,-1.194706678E0,-2.013523579E0,7.910741806E0
7.169486790E-1,-1.204283476E0,-2.166752577E0,7.791031837E0
7.189484120E-1,-1.237802267E0,-2.480392933E0,7.623437405E0
7.209481450E-1,-1.419761658E0,-2.932897091E0,7.235576630E0
7.229478780E-1,-1.503558636E0,-3.213018656E0,7.082347870E0
7.249476110E-1,-1.482010841E0,-3.509899616E0,7.343316078E0
7.269467770E-1,-1.611297727E0,-3.646369219E0,7.776666164E0
7.289465100E-1,-1.754949808E0,-3.660734415E0,8.037634850E0
7.309463100E-1,-2.142810583E0,-3.768473387E0,8.619425774E0
7.329460430E-1,-2.535459518E0,-3.883395195E0,9.253889084E0
7.349457760E-1,-2.746149302E0,-3.986345768E0,9.555558205E0
7.369455090E-1,-3.172317266E0,-4.295197964E0,1.002721596E1
7.389452420E-1,-3.612850428E0,-4.711789131E0,1.026424217E1
7.409449750E-1,-3.780444384E0,-4.764461517E0,1.028578949E1
7.429447080E-1,-3.699041605E0,-3.998316765E0,1.021396351E1
7.449448740E-1,-3.512293816E0,-3.378218651E0,1.005355263E1
7.469446740E-1,-3.521870613E0,-3.363853455E0,9.596260071E0
7.489444070E-1,-3.543418407E0,-3.754108191E0,9.356839180E0
7.509441400E-1,-3.493140221E0,-3.555389643E0,8.727164268E0
7.529438730E-1,-3.550601006E0,-3.555389643E0,8.265083313E0
7.549436060E-1,-3.794809580E0,-3.778050184E0,7.503727436E0
7.569433390E-1,-3.902548790E0,-4.000710964E0,6.828562737E0
7.589430720E-1,-3.904942989E0,-4.091690540E0,6.569988728E0
7.609428050E-1,-3.653551817E0,-3.809175014E0,6.285078526E0
7.629426050E-1,-3.359065056E0,-3.586514235E0,6.146214962E0
7.649423380E-1,-3.277662039E0,-3.402160645E0,5.866093636E0
7.669420710E-1,-3.124433279E0,-3.359065056E0,5.621884823E0
7.689416370E-1,-3.047818661E0,-3.344699860E0,5.490203857E0
7.709413700E-1,-2.813186884E0,-3.198653460E0,5.229235649E0
7.729411030E-1,-2.504334927E0,-3.004723072E0,5.028122902E0
7.749408360E-1,-2.358288765E0,-2.980781078E0,4.896441936E0
7.769406360E-1,-2.063801765E0,-2.971204281E0,4.663905144E0
7.789404360E-1,-1.771709204E0,-3.055001259E0,4.441244125E0
7.809401690E-1,-1.630451322E0,-3.102885485E0,4.357447147E0
7.829399020E-1,-1.381454349E0,-3.239354849E0,4.299986362E0
7.849396350E-1,-1.187524080E0,-3.514688015E0,4.283226967E0
7.869393680E-1,-1.120486379E0,-3.667917013E0,4.254496574E0
7.889391010E-1,-1.094150186E0,-4.101267338E0,4.031835556E0
7.909388340E-1,-8.499416113E-1,-3.813963413E0,3.787626982E0
7.929386340E-1,-6.177040339E-1,-3.315969467E0,3.452438831E0
7.949383670E-1,-3.399766386E-1,-2.779668093E0,2.561795712E0
7.969381000E-1,-9.337386489E-2,-2.293645144E0,1.987187386E0
7.989378330E-1,1.915361360E-2,-2.164358377E0,1.953668594E0
8.009375660E-1,3.040636182E-1,-2.114080191E0,2.434903145E0
8.029372990E-1,6.488286853E-1,-2.262520552E0,3.179499865E0
8.049370320E-1,8.619126081E-1,-2.011129379E0,3.332728863E0
8.069367650E-1,1.489193439E0,-1.118092179E0,2.573766708E0
8.089365650E-1,2.070984364E0,-1.173158810E-1,1.953668594E0
8.109362980E-1,2.087743998E0,1.149216816E-1,1.922544003E0
8.129360310E-1,1.733402014E0,-2.992752194E-1,2.444479942E0
8.149357640E-1,1.438915253E0,-7.206547260E-1,3.440467834E0
8.169354970E-1,1.553836942E0,-9.648633003E-1,3.790021181E0
8.189352300E-1,1.491587639E0,-1.139639974E0,3.687070608E0
8.209349630E-1,1.072602391E0,-1.673547029E0,3.392583847E0
8.229346960E-1,1.036689281E0,-2.195482969E0,3.224989653E0
8.249344960E-1,9.911994934E-1,-2.339135170E0,3.936067581E0
8.269342290E-1,9.265560508E-1,-2.485181332E0,4.273650169E0
8.289341290E-1,9.074024558E-1,-2.715024710E0,4.788403511E0
8.309338620E-1,7.972691655E-1,-3.059789658E0,4.805162907E0
8.329335950E-1,6.943184733E-1,-3.332728863E0,4.671087742E0
8.349333280E-1,7.685387731E-1,-3.344699860E0,4.879383087E0
8.369330610E-1,5.865794420E-1,-3.550601006E0,5.303455830E0
8.389327940E-1,4.644751251E-1,-3.663128614E0,5.447108269E0
8.409325940E-1,3.351882398E-1,-3.713406801E0,5.504569054E0
8.429323270E-1,2.130839527E-1,-4.029441357E0,5.265148640E0
8.449320600E-1,1.244984865E-1,-4.125209332E0,5.305850029E0
8.469317930E-1,-2.394201700E-3,-4.031835556E0,5.755959988E0
8.489315260E-1,-1.244984865E-1,-4.364629745E0,6.105513573E0
8.509312590E-1,-2.178723514E-1,-4.548983097E0,6.227617741E0
8.529309920E-1,-7.134721279E-1,-5.454290867E0,6.488585949E0
8.549307920E-1,-7.972691655E-1,-5.145438671E0,6.943484306E0
8.569305920E-1,-8.116343617E-1,-5.025728703E0,7.077559471E0
8.589303250E-1,-9.888052940E-1,-5.310638428E0,7.266701221E0
8.609300580E-1,-1.343147159E0,-6.069600582E0,7.448660851E0
8.629297910E-1,-1.345541358E0,-6.177339554E0,7.580341816E0
8.649295240E-1,-9.097966552E-1,-5.815814972E0,8.128614426E0
8.669292570E-1,-2.561795712E-1,-5.415983677E0,8.408735275E0
8.689289900E-1,-1.388636976E-1,-5.550058842E0,8.573935509E0
8.709287900E-1,-4.070143029E-2,-5.645826817E0,9.028834343E0
8.729285230E-1,6.057330370E-1,-5.418377876E0,9.682451248E0
8.749282560E-1,9.145850539E-1,-5.200505257E0,1.005355263E1
8.769279890E-1,1.565807939E0,-5.116708279E0,1.089631081E1
8.789277220E-1,1.889025092E0,-4.946720123E0,1.099926186E1
8.809274550E-1,2.293645144E0,-4.292803764E0,1.105193424E1
8.829271880E-1,2.669534922E0,-4.237737179E0,1.145655441E1
8.849269210E-1,2.820369720E0,-4.491522312E0,1.181329060E1
8.869267210E-1,3.643975019E0,-3.780444384E0,1.165527344E1
8.889264540E-1,4.522646904E0,-2.391807556E0,1.032170296E1
8.909261870E-1,4.393360138E0,-2.626439333E0,1.043901825E1
8.929259200E-1,4.101267338E0,-3.744531393E0,1.126741219E1
8.949256530E-1,4.951508522E0,-3.016694069E0,1.067125607E1
8.969253860E-1,5.674557209E0,-2.226607561E0,9.957783699E0
8.989251190E-1,5.827786446E0,-2.286462545E0,9.613018990E0
9.009248520E-1,5.320215225E0,-3.380612850E0,9.605836868E0
9.029246520E-1,5.636250019E0,-2.849100113E0,9.036016464E0
9.049243850E-1,6.536469936E0,-1.312022567E0,8.083124161E0
9.069241180E-1,6.117484570E0,-1.903390408E0,8.449437141E0
9.089238510E-1,5.866093636E0,-2.274491549E0,8.533234596E0
9.109235840E-1,6.534075737E0,-9.481038451E-1,7.673715591E0
9.129233170E-1,6.553229332E0,-7.350199223E-1,7.901165009E0
9.149230500E-1,6.160580158E0,-1.216254473E0,7.817368031E0
9.169227830E-1,6.294655323E0,-4.477157295E-1,6.914753914E0
9.189225830E-1,6.143820763E0,-4.405331016E-1,6.680121899E0
9.209223160E-1,5.703287601E0,-8.427590132E-1,6.378452778E0
9.229220490E-1,5.384859085E0,-5.075707436E-1,4.934749126E0
9.249217820E-1,4.290409565E0,-1.692700624E0,4.280832767E0
9.269215150E-1,3.648763418E0,-2.092532396E0,3.711012602E0
9.289212480E-1,3.126827478E0,-2.240972757E0,2.698265314E0
9.309209810E-1,2.109291792E0,-2.877830505E0,2.154781580E0
9.329207810E-1,1.814804912E0,-3.224989653E0,1.731007814E0
9.349205810E-1,5.889736414E-1,-4.141968727E0,1.192312479E0
9.369203140E-1,-4.213795066E-1,-4.759673119E0,9.600749016E-1
9.389200470E-1,-1.376665950E0,-4.939537525E0,-1.436521020E-2
9.409197800E-1,-2.085349798E0,-5.760748386E0,-1.079784989E0
9.429195130E-1,-2.166752577E0,-5.834969044E0,-9.816226959E-1
9.449192460E-1,-2.585737944E0,-6.821380138E0,-1.221042871E-1
9.469189790E-1,-2.987963676E0,-7.017704487E0,5.746083856E-1
9.489187790E-1,-3.344699860E0,-7.594707012E0,6.560112834E-1
9.509185790E-1,-3.938461781E0,-8.344092369E0,6.105214357E-1
9.529183120E-1,-4.237737179E0,-9.203610420E0,1.254561663E0
9.549180450E-1,-4.118026733E0,-9.206005096E0,1.486799240E0
9.569177780E-1,-3.835511208E0,-9.385569572E0,2.070984364E0
9.589175110E-1,-3.677493811E0,-9.330503464E0,2.817975283E0
9.609172440E-1,-3.509899616E0,-9.387964249E0,3.280056238E0
9.629169770E-1,-3.380612850E0,-9.562741280E0,4.127603531E0
9.649167770E-1,-3.069366693E0,-9.493309021E0,4.999392509E0
9.669165100E-1,-3.081337690E0,-9.641749382E0,5.451896667E0
9.689162430E-1,-2.815581083E0,-9.443030357E0,6.196493149E0
9.709159760E-1,-2.492363930E0,-9.656114578E0,7.000945091E0
9.729157090E-1,-2.248155355E0,-9.569923401E0,7.276278019E0
9.749154420E-1,-1.551442742E0,-9.488520622E0,7.822156429E0
9.769151750E-1,-9.792284966E-1,-9.474155426E0,8.432677269E0
9.789149080E-1,-6.344634295E-1,-9.383175850E0,8.600272179E0
9.809147080E-1,-4.070143029E-2,-9.258677483E0,9.083900452E0
9.829144410E-1,3.016694188E-1,-9.057564735E0,9.495702744E0
9.849141740E-1,4.237737060E-1,-8.983344078E0,9.668086052E0
9.869139070E-1,4.979939461E-1,-8.906729698E0,1.015171432E1
9.889136400E-1,4.620809257E-1,-8.837297440E0,1.029297256E1
9.909133730E-1,4.285621047E-1,-8.741529465E0,1.033606815E1
9.929131060E-1,3.447650373E-1,-8.727164268E0,1.047253704E1
9.949128390E-1,3.184288144E-1,-8.672098160E0,1.041986465E1
9.969126390E-1,3.184288144E-1,-8.557176590E0,1.009904194E1
9.989123720E-1,2.873041928E-1,-8.676886559E0,9.905111313E0
1.000912105E0,3.064578176E-1,-8.672098160E0,9.790189743E0
1.002911838E0,3.663128614E-1,-8.688857079E0,9.541193008E0
1.004911571E0,4.022258818E-1,-8.763077736E0,9.435848236E0
1.006911304E0,4.525041282E-1,-8.794201851E0,9.443030357E0
1.008911037E0,4.548983276E-1,-8.854057312E0,9.543587685E0
1.010910770E0,4.309563041E-1,-8.933065414E0,9.562741280E0
1.012910570E0,4.022258818E-1,-8.978555679E0,9.524434090E0
1.014910303E0,2.418143749E-1,-9.129390717E0,9.428665161E0
1.016910036E0,-3.591302410E-2,-9.373599052E0,9.342473984E0
1.018909769E0,-2.106897533E-1,-9.526827812E0,9.258677483E0
1.020909502E0,-5.219359994E-1,-9.845256805E0,9.071929932E0
1.022909235E0,-7.110779285E-1,-1.016129112E1,8.834903717E0
1.024908968E0,-7.374141216E-1,-1.030494308E1,8.676886559E0
1.026908768E0,-7.254431248E-1,-1.056351757E1,8.332120895E0
1.028908568E0,-6.153098345E-1,-1.084363842E1,8.049605370E0
1.030908334E0,-5.410895944E-1,-1.099686813E1,8.044816971E0
1.032908100E0,-4.285621047E-1,-1.137754536E1,8.133402824E0
1.034907866E0,-5.410895944E-1,-1.191863537E1,8.131008148E0
1.036907632E0,-6.560112834E-1,-1.218678570E1,8.092700958E0
1.038907398E0,-8.451532125E-1,-1.268238544E1,7.953837395E0
1.040907164E0,-1.051054597E0,-1.330727196E1,7.549217224E0
1.042906997E0,-1.230619669E0,-1.370231533E1,7.010521889E0
1.044906763E0,-1.484405041E0,-1.418115616E1,6.100725174E0
1.046906529E0,-1.491587639E0,-1.459295845E1,6.258742332E0
1.048906295E0,-1.520318031E0,-1.486140823E1,6.433519363E0
1.050906061E0,-1.795651317E0,-1.538573837E1,6.761524677E0
1.052905827E0,-1.987187386E0,-1.565867805E1,6.886023521E0
1.054905593E0,-2.372653961E0,-1.618300819E1,7.096713066E0
1.056905359E0,-2.806004286E0,-1.661875343E1,7.242759228E0
1.058905192E0,-2.966415882E0,-1.679352951E1,7.254730225E0
1.060904958E0,-3.047818661E0,-1.695872879E1,7.204452038E0
1.062904724E0,-2.908955097E0,-1.699464226E1,7.223605633E0
1.064904490E0,-2.810792685E0,-1.698027611E1,7.199663639E0
1.066904256E0,-2.576161146E0,-1.675522232E1,7.170933247E0
1.068903589E0,-2.346317768E0,-1.641285133E1,7.290643215E0
1.070903355E0,-2.262520552E0,-1.624046898E1,7.343316078E0
1.072903121E0,-2.102109194E0,-1.587176132E1,7.374440670E0
1.074902954E0,-1.893813491E0,-1.549108315E1,7.225999832E0
1.076902720E0,-1.778891921E0,-1.528757668E1,7.041646481E0
1.078902486E0,-1.453280449E0,-1.487577343E1,6.464643955E0
1.080902252E0,-8.762778044E-1,-1.453549767E1,6.004957199E0
1.082902018E0,-4.740519226E-1,-1.436311531E1,5.961861610E0
1.084901784E0,5.602431893E-1,-1.387469769E1,6.407183170E0
1.086901117E0,1.642422318E0,-1.325699425E1,7.185298443E0
1.088900883E0,2.135627985E0,-1.289068127E1,7.637802601E0
1.090900683E0,2.995146275E0,-1.211017132E1,8.497321129E0
1.092900416E0,3.634398222E0,-1.142542934E1,9.241917610E0
1.094900149E0,3.890577793E0,-1.110939503E1,9.502885818E0
1.096899882E0,4.137180328E0,-1.065449715E1,9.529222488E0
1.098899615E0,4.264073372E0,-1.041986465E1,9.560346603E0
1.100899348E0,4.323928356E0,-1.039113426E1,9.493309021E0
1.102899081E0,4.422090530E0,-1.039831734E1,9.131784439E0
1.104898881E0,4.580107689E0,-1.043422985E1,8.870816231E0
1.106898681E0,4.699818134E0,-1.049169159E1,8.277054787E0
1.108898414E0,4.946720123E0,-1.050605679E1,7.647379398E0
1.110898147E0,5.114314079E0,-1.049647999E1,7.391200066E0
1.112897880E0,5.210082054E0,-1.057309437E1,6.888417721E0
1.114897613E0,5.289090633E0,-1.069998646E1,6.493374348E0
1.116897346E0,5.387253284E0,-1.075026512E1,6.347328186E0
1.118897079E0,5.779901981E0,-1.076702404E1,6.194098949E0
1.120896879E0,6.984185696E0,-1.044141293E1,6.536469936E0
1.122896612E0,8.399158478E0,-9.900322914E0,7.237970829E0
1.124896345E0,1.149965000E1,-8.329727173E0,9.165303230E0
1.126896078E0,1.361373043E1,-6.809409142E0,1.097771454E1
1.128896244E0,1.432720184E1,-6.158185959E0,1.155950546E1
1.130895977E0,1.535221958E1,-5.111919880E0,1.230649567E1
1.132895710E0,1.618540192E1,-4.534617901E0,1.275899982E1
1.134895443E0,1.657805061E1,-4.443638325E0,1.287152767E1
1.136895243E0,1.782064247E1,-4.340687752E0,1.314446640E1
1.138894976E0,1.872565079E1,-4.297592163E0,1.355148125E1
1.140894709E0,1.892197418E1,-4.218583584E0,1.388427448E1
1.142894442E0,1.856044960E1,-4.223371983E0,1.420749187E1
1.144894175E0,1.747587585E1,-4.584896088E0,1.389385128E1
1.146894341E0,1.676240540E1,-4.884171486E0,1.353472137E1
1.148894074E0,1.524208641E1,-5.545270443E0,1.252915668E1
1.150893807E0,1.375498772E1,-6.227617741E0,1.160020638E1
1.152893607E0,1.311094761E1,-6.517316341E0,1.124107647E1
1.154893340E0,1.208622932E1,-6.888417721E0,1.080293751E1
1.156893073E0,1.190666389E1,-6.924330711E0,1.036479855E1
1.158892806E0,1.190427017E1,-6.565200329E0,1.011340714E1
1.160892539E0,1.036719227E1,-6.883629322E0,1.002721596E1
1.162892272E0,8.727164268E0,-7.089530468E0,9.823708534E0
1.164892005E0,8.001721382E0,-7.434295654E0,9.016862869E0
1.166891738E0,6.632237911E0,-7.762300968E0,8.703222275E0
1.168891538E0,6.060023785E0,-7.913136005E0,8.746317863E0
1.170890838E0,5.035305500E0,-8.229170799E0,8.877999306E0
1.172890571E0,4.560954094E0,-8.372822762E0,9.253889084E0
1.174890304E0,4.515464306E0,-8.415918350E0,9.447818756E0
1.176890037E0,4.517858505E0,-8.499714851E0,9.636960983E0
1.178889770E0,4.299986362E0,-8.708010674E0,8.971372604E0
1.180889503E0,4.019864559E0,-8.942642212E0,8.253112793E0
1.182889303E0,3.102885485E0,-9.603442192E0,7.000945091E0
1.184889103E0,1.944091797E0,-1.038155746E1,6.263530731E0
1.186888836E0,1.259350061E0,-1.080772591E1,6.043264389E0
1.188888569E0,7.182605099E-3,-1.157147598E1,5.976226807E0
1.190888302E0,-8.810662031E-1,-1.218199730E1,6.129455566E0
1.192888035E0,-1.254561663E0,-1.244057083E1,6.234800339E0
1.194887768E0,-2.087743998E0,-1.292659378E1,6.368875980E0
1.196887501E0,-3.007117271E0,-1.337670422E1,6.313809395E0
1.198887301E0,-3.447650433E0,-1.356824017E1,6.210858345E0
1.200887101E0,-4.331110954E0,-1.399919701E1,5.856516838E0
1.202886834E0,-5.157409668E0,-1.441818237E1,5.504569054E0
1.204886567E0,-5.540482044E0,-1.460253525E1,5.284302235E0
1.206886300E0,-6.067206383E0,-1.475366974E1,4.937143326E0
1.208886033E0,-6.416759968E0,-1.470788002E1,4.570530891E0
1.210885766E0,-6.548440933E0,-1.463366032E1,4.340687752E0
1.212885499E0,-6.581959724E0,-1.437748051E1,4.034229755E0
1.214885299E0,-6.277895927E0,-1.420270348E1,3.773261786E0
1.216885032E0,-6.086359978E0,-1.374780560E1,3.622427225E0
1.218884765E0,-5.825392246E0,-1.324262905E1,3.351882458E0
1.220884498E0,-5.854122639E0,-1.302236271E1,3.167528868E0
1.222884231E0,-6.079177380E0,-1.262492466E1,2.832340717E0
1.224883964E0,-6.294655323E0,-1.224903488E1,2.568978310E0
1.226883697E0,-6.222829342E0,-1.170794582E1,2.303221941E0
1.228883430E0,-6.146214962E0,-1.143261242E1,2.226607561E0
1.230883663E0,-6.095936775E0,-1.099447346E1,2.185906172E0
1.232883429E0,-5.992986202E0,-1.075026512E1,2.200271368E0
1.234883195E0,-5.722441196E0,-1.028578949E1,2.193088770E0
1.236882961E0,-5.492598057E0,-9.878775597E0,2.296039343E0
1.238882727E0,-5.399224281E0,-9.703998566E0,2.370259762E0
1.240882493E0,-5.061641693E0,-9.294589996E0,2.504334927E0
1.242882259E0,-4.209006786E0,-8.549993515E0,3.069366693E0
1.244882025E0,-4.017470360E0,-8.233959198E0,3.004723072E0
1.246881858E0,-3.349488258E0,-7.812579632E0,2.439691544E0
1.248881658E0,-2.968810081E0,-7.084742069E0,3.354276657E0
1.250881458E0,-3.045424461E0,-6.749553680E0,3.916913986E0
1.252881258E0,-3.148375273E0,-6.388029575E0,4.446032524E0
1.254881058E0,-1.640028119E0,-5.181351662E0,4.917989731E0
1.256880858E0,-6.584054828E-1,-4.333505154E0,5.576395035E0
1.258880658E0,1.125274822E-1,-3.256114244E0,5.909189224E0
1.260880458E0,-7.972691655E-1,-3.196259260E0,5.590760231E0
1.262880324E0,-1.309628367E0,-3.318363667E0,5.681739807E0
1.264880190E0,-1.431732655E0,-3.677493811E0,5.832574844E0
1.266880056E0,-8.355764151E-1,-3.976768970E0,5.753565788E0
1.268879922E0,-6.320692301E-1,-4.120420933E0,5.940313816E0
1.270879788E0,3.184288144E-1,-4.611232281E0,6.045658588E0
1.272879654E0,3.711012602E-1,-4.980238914E0,5.834969044E0
1.274879520E0,-2.011129409E-1,-5.916371822E0,5.605125427E0
1.276879453E0,-1.546654344E0,-7.127837658E0,5.614702225E0
1.278879386E0,-2.023100376E0,-7.690474987E0,5.789478779E0
1.280879252E0,-2.748543501E0,-8.729558945E0,6.265924931E0
1.282879118E0,-3.186682463E0,-9.672874451E0,6.689698696E0
1.284878984E0,-3.763684988E0,-1.027142429E1,6.993762493E0
1.286878850E0,-5.712864399E0,-1.159541798E1,7.776666164E0
1.288878716E0,-7.937077999E0,-1.288828659E1,8.423100471E0
1.290878582E0,-8.911518097E0,-1.353472137E1,8.645761490E0
1.292878482E0,-1.026184750E1,-1.472733307E1,9.172486305E0
1.294878315E0,-1.098968506E1,-1.564191818E1,9.720758438E0
1.296878148E0,-1.108066463E1,-1.590528011E1,9.964966774E0
1.298877981E0,-1.095137787E1,-1.604174995E1,1.050126839E1
1.300877814E0,-1.155471706E1,-1.624765205E1,1.123628807E1
1.302877647E0,-1.179653072E1,-1.628116989E1,1.146373749E1
1.304877480E0,-1.281406689E1,-1.659002304E1,1.173188782E1
1.306877313E0,-1.297208405E1,-1.671212578E1,1.184680939E1
1.308877179E0,-1.234480286E1,-1.651580238E1,1.189229870E1
1.310876979E0,-1.114770222E1,-1.584303093E1,1.220354557E1
1.312876779E0,-1.067125607E1,-1.528039360E1,1.222509289E1
1.314876579E0,-1.059703636E1,-1.495957088E1,1.208862400E1
1.316876379E0,-1.107587624E1,-1.464563084E1,1.147331429E1
1.318876179E0,-1.141345882E1,-1.480155373E1,1.104475212E1
1.320875979E0,-1.131050777E1,-1.488535023E1,1.126023006E1
1.322875779E0,-1.015889740E1,-1.481352425E1,1.187075138E1
1.324875579E0,-8.518868446E0,-1.447803688E1,1.219636250E1
1.326875312E0,-7.779060364E0,-1.422904015E1,1.240944672E1
1.328875045E0,-6.158185959E0,-1.348444366E1,1.272787571E1
1.330874778E0,-4.616020679E0,-1.307264042E1,1.317319679E1
1.332874511E0,-3.617638826E0,-1.203834534E1,1.356105804E1
1.334874244E0,1.221042871E-1,-1.017086792E1,1.485183144E1
1.336873977E0,7.038952708E-1,-9.706393242E0,1.520377922E1
1.338873710E0,5.147533417E-1,-9.253889084E0,1.399201393E1
1.340873510E0,3.691859007E0,-7.604283810E0,1.444930649E1
1.342873243E0,1.328781962E0,-8.559570312E0,1.477282333E1
1.344872976E0,-3.296815634E0,-1.068322754E1,1.466478443E1
1.346872709E0,-3.153163671E0,-1.141106415E1,1.516547203E1
1.348872442E0,-1.924938202E0,-1.134881496E1,1.524687481E1
1.350872175E0,7.182605267E-1,-1.087476349E1,1.520377922E1
1.352871908E0,1.893813491E0,-1.046056652E1,1.508167553E1
1.354871708E0,2.066195965E0,-1.018044472E1,1.502900219E1
1.356871508E0,2.288856745E0,-9.541193008E0,1.514871311E1
1.358871241E0,2.636016130E0,-9.055170059E0,1.508167553E1
1.360870974E0,2.827552319E0,-8.885181427E0,1.505773258E1
1.362870707E0,3.289633036E0,-8.652944565E0,1.506730938E1
1.364870440E0,3.787626982E0,-8.526051521E0,1.509843445E1
1.366870173E0,4.027047157E0,-8.504503250E0,1.512955952E1
1.368869906E0,4.448426723E0,-8.502109528E0,1.516307831E1
1.370869706E0,4.826710701E0,-8.514080048E0,1.513195324E1
1.372869772E0,5.073612690E0,-8.533234596E0,1.501224327E1
1.374869472E0,5.511751652E0,-8.621819496E0,1.470309162E1
1.376869205E0,5.636250019E0,-8.832509041E0,1.454507446E1
1.378868938E0,5.518934250E0,-8.997709274E0,1.454028606E1
1.380868671E0,5.593154430E0,-9.014469147E0,1.432480812E1
1.382868404E0,1.458817005E1,-5.234024048E0,1.177498341E1
1.384868137E0,1.455704594E1,-5.047276497E0,1.101602173E1
1.386867937E0,8.016086578E0,-7.051223278E0,1.121952820E1
1.388867670E0,3.823540211E0,-8.210017204E0,1.171033955E1
1.390867403E0,3.873818398E0,-9.507674217E0,1.202637482E1
1.392867136E0,6.704063892E0,-9.431059837E0,1.166724396E1
1.394866869E0,7.290643215E0,-9.577106476E0,1.167442703E1
1.396866602E0,6.148609161E0,-1.051563358E1,1.095616627E1
1.398866335E0,4.944325924E0,-1.101362705E1,8.763077736E0
1.400866068E0,4.680664539E0,-1.092264748E1,8.351274490E0
1.402865868E0,4.888959885E0,-1.068083286E1,8.159738541E0
1.404865601E0,5.437531471E0,-1.034085655E1,7.281066418E0
1.406865334E0,6.158185959E0,-9.895534515E0,5.676951408E0
1.408865067E0,5.866093636E0,-9.873987198E0,5.327397823E0
1.410864800E0,5.408801079E0,-9.557952881E0,4.872200489E0
1.412864533E0,5.032911301E0,-9.450213432E0,4.666299343E0
1.414864266E0,3.974374771E0,-9.624990463E0,4.853046894E0
1.416863999E0,3.890577793E0,-9.610625267E0,5.303455830E0
1.418863799E0,3.751713991E0,-9.794978142E0,6.584353924E0
1.420863532E0,3.919308186E0,-9.931447983E0,1.002961063E1
1.422863265E0,4.352658749E0,-9.586683273E0,1.182286739E1
1.424862998E0,5.018546104E0,-9.294589996E0,1.113094330E1
1.426862731E0,6.526893139E0,-8.875604630E0,8.921094894E0
1.428862464E0,8.277054787E0,-8.308178902E0,6.232406139E0
1.430862197E0,9.033622742E0,-7.949048996E0,5.174169064E0
1.432861663E0,8.806173325E0,-7.515698433E0,4.484339714E0
1.434861496E0,8.456619263E0,-6.886023521E0,4.647145271E0
1.436861229E0,8.638579369E0,-6.510133743E0,4.460397720E0
1.438860962E0,8.985737801E0,-6.107907772E0,4.587290287E0
1.440860695E0,8.475772858E0,-6.562806129E0,7.044040680E0
1.442860428E0,7.735964775E0,-6.965032101E0,1.002242756E1
1.444860161E0,6.907571316E0,-6.941090107E0,1.443254757E1
1.446859894E0,9.682451248E0,-6.512527943E0,1.255070496E1
1.448859694E0,1.093701267E1,-5.574000835E0,7.721599579E0
1.450859494E0,1.260098267E1,-4.304774761E0,3.986345768E0
1.452859227E0,1.265365505E1,-3.876212597E0,3.564966440E0
1.454858960E0,1.193300056E1,-3.581725836E0,4.604049683E0
1.456858693E0,1.293617153E1,-2.738966703E0,3.873818398E0
1.458858426E0,1.318995667E1,-2.638410330E0,3.411737442E0
1.460858159E0,1.211974812E1,-3.117250681E0,4.170699596E0
1.462857892E0,1.231367874E1,-1.709460020E0,2.875436306E0
1.464857692E0,1.373344040E1,3.663128614E-1,1.185129881E0
1.466857425E0,1.765783691E1,4.532223701E0,-9.145850539E-1
1.468857158E0,1.876395798E1,5.097554684E0,-9.840168953E-1
1.470856891E0,1.879986954E1,4.560954094E0,-1.144428372E0
1.472856624E0,1.769135475E1,3.050212860E0,-6.296750307E-1
1.474856357E0,1.517026043E1,7.206547260E-1,6.368576288E-1
1.476856090E0,1.336233902E1,-8.906430602E-1,1.237802267E0
1.478855823E0,8.866027832E0,-4.879383087E0,2.904166698E0
1.480855623E0,5.928342819E0,-8.119037628E0,4.149151325E0
1.482855356E0,5.143044472E0,-9.419088364E0,4.491522312E0
1.484855089E0,4.651933670E0,-1.094898319E1,4.812345505E0
1.486854822E0,6.874052525E0,-9.665691376E0,1.915361404E0
1.488854555E0,7.120655060E0,-9.124602318E0,1.544260144E0
1.490854288E0,8.166921616E0,-7.223605633E0,1.089361787E0
1.492854021E0,8.001721382E0,-5.526116848E0,3.926490843E-1
1.494853754E0,7.202057838E0,-5.169380665E0,3.423708379E-1
1.496853554E0,5.578789234E0,-5.183745861E0,1.661576033E0
1.498853287E0,6.129455566E0,-4.937143326E0,2.590526342E0
1.500853020E0,6.905177116E0,-3.691859007E0,2.224213362E0
1.502852753E0,7.889194012E0,-2.655169725E0,1.223437071E0
1.504852486E0,8.042423248E0,-2.427720547E0,9.696516991E-1
1.506852219E0,8.162133217E0,-2.205059767E0,9.121908545E-1
1.508851952E0,8.992920876E0,-1.733402014E0,5.722141862E-1
1.510851685E0,9.443030357E0,-1.438915253E0,1.580173075E-1
1.512851485E0,9.605836868E0,-1.156399369E0,-7.757213712E-1
1.514851218E0,9.433453560E0,-1.074996591E0,-1.412579060E0
1.516850951E0,9.210793495E0,-1.091755986E0,-1.642422318E0
1.518850684E0,8.561964989E0,-1.321599364E0,-1.745373011E0
1.520850417E0,7.530063629E0,-1.991975784E0,-1.489193439E0
1.522850150E0,6.871658325E0,-2.573766708E0,-1.221042871E0
1.524849883E0,5.284302235E0,-3.885789394E0,-4.453215301E-1
1.526849683E0,3.871424198E0,-4.790797710E0,4.405331016E-1
1.528849483E0,3.318363667E0,-5.078401089E0,7.948749661E-1
1.530849216E0,2.530671120E0,-5.377676487E0,1.300051570E0
1.532848949E0,1.984793186E0,-5.439925671E0,1.592144132E0
1.534848682E0,1.769315004E0,-5.401618481E0,1.625662923E0
1.536848415E0,1.371877551E0,-5.226841450E0,1.589749932E0
1.538848148E0,9.744400978E-1,-4.961085320E0,1.606509328E0
1.540847881E0,7.661445141E-1,-4.841075897E0,1.637633920E0
1.542847681E0,3.543418646E-1,-4.635174274E0,1.673547029E0
1.544847414E0,4.548983276E-2,-4.414907932E0,1.611297727E0
1.546847147E0,-6.703764945E-2,-4.311957359E0,1.551442742E0
1.548846880E0,-1.939303428E-1,-4.079719543E0,1.338358760E0
1.550846613E0,-1.939303428E-1,-3.825934410E0,9.816226959E-1
1.552846346E0,-1.556231081E-1,-3.730166197E0,8.092401624E-1
1.554846079E0,-2.394201607E-2,-3.612850428E0,5.219359994E-1
1.556845812E0,-1.053448766E-1,-3.655946016E0,3.615244627E-1
1.558845612E0,-1.628057212E-1,-3.775655985E0,2.681505978E-1
1.560845345E0,-1.125274822E-1,-3.931279182E0,-1.915361285E-1
1.562845078E0,-4.070143029E-2,-4.012681961E0,-4.118026793E-1
1.564844811E0,-2.777273953E-1,-4.012681961E0,-3.758896589E-1
1.566844544E0,-5.291185975E-1,-3.943250179E0,-3.112462163E-1
1.568844277E0,-6.536170840E-1,-3.919308186E0,-2.801215947E-1
1.570844010E0,-7.852981687E-1,-3.742137194E0,-4.429273009E-1
1.572843743E0,-4.788403511E-1,-2.710236311E0,-8.882488012E-1
1.574843543E0,8.619125932E-2,-1.316810966E0,-1.082179189E0
1.576843276E0,2.154781580E0,3.172317266E0,-6.631938815E-1
1.578843009E0,3.313575268E0,5.375282288E0,4.381389022E-1
1.580842742E0,3.536235809E0,5.727229595E0,1.290474772E0
1.582842475E0,3.646369219E0,6.048052788E0,4.651933670E0
1.584842208E0,2.008735180E0,1.244984865E-1,-2.037465572E0
1.586841941E0,1.024718285E0,-4.809951305E0,-7.542034626E0
1.588841674E0,8.571242094E-1,-5.820603371E0,-7.276278019E0
1.590841474E0,1.939303428E-1,-6.519710541E0,-4.560954094E0
1.592841207E0,-3.351882398E-1,-6.696881294E0,-3.598485231E0
1.594840940E0,-1.383848548E0,-6.919542313E0,-1.960851192E0
1.596840673E0,-2.604891539E0,-7.515698433E0,-2.011129409E-1
1.598840406E0,-3.122039080E0,-7.886799812E0,3.902548850E-1
1.600840139E0,-3.847482204E0,-8.748712540E0,1.596932530E0
1.602839872E0,-4.563348293E0,-1.014213753E1,2.406172752E0
1.604839672E0,-4.872200489E0,-1.076702404E1,2.729389906E0
1.606839472E0,-5.262754440E0,-1.199046135E1,3.454833031E0
1.608839205E0,-5.219658852E0,-1.294814205E1,2.748543501E0
1.610838938E0,-5.080795288E0,-1.336233902E1,2.624045134E0
1.612838671E0,-4.925172329E0,-1.425777054E1,2.564189911E0
1.614838404E0,-4.616020679E0,-1.458577633E1,2.305616140E0
1.616838137E0,-4.314351559E0,-1.465760231E1,2.240972757E0
1.618837870E0,-3.890577793E0,-1.430086613E1,1.956062794E0
1.620837670E0,-3.667917013E0,-1.413327217E1,1.568202138E0
1.622837470E0,-2.849100113E0,-1.379568958E1,7.733271718E-1
1.624837203E0,-2.224213362E0,-1.318756199E1,1.168370485E0
1.626836003E0,-1.984793186E0,-1.290265179E1,1.549048543E0
1.628835736E0,-1.489193439E0,-1.239268684E1,2.097320795E0
1.630835469E0,-4.501099288E-1,-1.154274559E1,2.489969730E0
1.632835202E0,2.873042040E-2,-1.144697762E1,2.736572504E0
1.634834935E0,7.326257229E-1,-1.130571938E1,3.210624456E0
1.636834735E0,1.589749932E0,-1.116925049E1,2.461239338E0
1.638834468E0,1.984793186E0,-1.109742451E1,2.202665567E0
1.640834201E0,2.600103140E0,-1.115009689E1,2.616862535E0
1.642833934E0,3.421314240E0,-1.124347019E1,2.676717520E0
1.644833667E0,3.768473387E0,-1.113573170E1,2.990357876E0
1.646833400E0,4.252102375E0,-1.097292614E1,3.878606796E0
1.648833133E0,4.618414879E0,-1.097531986E1,4.407725334E0
1.650832866E0,4.862623692E0,-1.098010826E1,4.704606533E0
1.652832666E0,5.274725437E0,-1.118122101E1,5.279513836E0
1.654832432E0,5.538087845E0,-1.119079781E1,5.894824028E0
1.656832198E0,5.643432617E0,-1.118361568E1,6.019322395E0
1.658831964E0,5.633855820E0,-1.154753399E1,6.033687592E0
1.660831730E0,5.523722649E0,-1.269914532E1,5.334580898E0
1.662831496E0,5.413589478E0,-1.323544598E1,5.032911301E0
1.664831262E0,5.008969307E0,-1.395849514E1,4.522646904E0
1.666831028E0,4.934749126E0,-1.418833828E1,3.632004023E0
1.668830861E0,5.035305500E0,-1.388427448E1,3.227383852E0
1.670830627E0,5.262754440E0,-1.333121395E1,2.765302896E0
1.672830393E0,5.427954674E0,-1.326178265E1,1.884236693E0
1.674830159E0,5.480627060E0,-1.196651936E1,2.104503393E0
1.676829925E0,5.480627060E0,-1.141345882E1,1.994369984E0
1.678829691E0,5.435137272E0,-1.151880360E1,1.242590666E0
1.680829457E0,5.236418247E0,-1.190427017E1,2.537853718E-1
1.682829223E0,4.886565685E0,-1.231607246E1,-3.567360640E-1
1.684829056E0,4.735731125E0,-1.244057083E1,-6.009446383E-1
1.686829756E0,4.304774761E0,-1.285476780E1,-1.637633920E0
1.688829522E0,3.916913986E0,-1.279251862E1,-2.214636564E0
1.690829288E0,3.737348795E0,-1.261295414E1,-2.183511972E0
1.692829054E0,3.303998232E0,-1.227058315E1,-2.078166962E0
1.694828820E0,2.870647907E0,-1.222748756E1,-1.865083098E0
1.696828586E0,2.650381327E0,-1.233283234E1,-1.927332401E0
1.698828419E0,2.394201756E0,-1.262731934E1,-1.326387763E0
1.700828252E0,2.097320795E0,-1.317798519E1,-1.470039845E0
1.702828018E0,2.020706177E0,-1.342458820E1,-1.845929503E0
1.704828084E0,1.769315004E0,-1.378132439E1,-2.329558372E0
1.706827850E0,1.549048543E0,-1.412608910E1,-2.782062292E0
1.708827616E0,1.441309452E0,-1.421706867E1,-3.145981073E0
1.710827382E0,1.065419793E0,-1.449240208E1,-4.565742493E0
1.712827148E0,1.793257117E0,-1.411411858E1,-4.443638325E0
1.714826948E0,2.044648170E0,-1.420749187E1,-3.119644880E0
1.716826681E0,1.417367458E0,-1.547192955E1,-3.543418646E-1
1.718826414E0,6.631938815E-1,-1.661635780E1,4.309563041E-1
1.720826147E0,6.823474765E-1,-1.697309494E1,6.464344859E-1
1.722825880E0,9.097966552E-1,-1.760995293E1,1.039083481E0
1.724825613E0,8.595184088E-1,-1.781345940E1,1.635239720E0
1.726825346E0,8.882488012E-1,-1.773205566E1,1.824381709E0
1.728824912E0,1.309628367E0,-1.745911789E1,2.044648170E0
1.730824712E0,1.800439715E0,-1.743038750E1,2.178723574E0
1.732824445E0,2.073378563E0,-1.736574364E1,2.461239338E0
1.734824178E0,2.619256735E0,-1.705689240E1,2.439691544E0
1.736823911E0,2.810792685E0,-1.684141350E1,2.446874142E0
1.738823644E0,3.270479441E0,-1.637215042E1,2.681505919E0
1.740823377E0,3.864241600E0,-1.591006851E1,3.107673883E0
1.742823110E0,4.156333923E0,-1.563473606E1,3.342305660E0
1.744822843E0,4.627991676E0,-1.493562889E1,3.828328609E0
1.746822643E0,4.980238914E0,-1.415481949E1,4.347870350E0
1.748822376E0,5.159803867E0,-1.373822880E1,4.575319290E0
1.750822109E0,5.425560474E0,-1.297208405E1,5.040093899E0
1.752821842E0,5.686528206E0,-1.236395645E1,5.150227070E0
1.754821575E0,5.784690380E0,-1.208144093E1,5.135861874E0
1.756821308E0,5.815814972E0,-1.157865906E1,5.102343082E0
1.758821041E0,5.748777390E0,-1.108066463E1,4.881777287E0
1.760820774E0,5.693710804E0,-1.080533123E1,4.754884720E0
1.762820574E0,5.621884823E0,-1.028100109E1,4.448426723E0
1.764820007E0,5.669768810E0,-9.636960983E0,4.151545525E0
1.766819740E0,5.540482044E0,-9.083900452E0,4.216189384E0
1.768819473E0,5.502174854E0,-8.854057312E0,4.347870350E0
1.770819206E0,5.538087845E0,-8.396764755E0,4.103661537E0
1.772818939E0,5.483021259E0,-8.231564522E0,3.694253206E0
1.774818672E0,5.581183434E0,-7.891588211E0,2.748543501E0
1.776818472E0,5.703287601E0,-7.470208645E0,2.197877169E0
1.778818272E0,5.796661377E0,-7.106289864E0,1.958456993E0
1.780818005E0,6.024110794E0,-6.440701962E0,1.304839969E0
1.782817738E0,5.818209171E0,-5.602731228E0,8.140285611E-1
1.784817471E0,5.164592266E0,-4.874594688E0,6.153098345E-1
1.786817204E0,4.697423935E0,-3.976768970E0,3.256114423E-1
1.788817104E0,5.073612690E0,-3.507505417E0,1.628057212E-1
1.790816837E0,4.800374508E0,-3.253720045E0,-1.197100803E-2
1.792816637E0,1.549048543E0,-7.343316078E0,2.839523315E0
1.794816370E0,1.192312479E0,-8.078335762E0,2.923320293E0
1.796816103E0,1.824381709E0,-7.695263386E0,1.798045516E0
1.798815836E0,2.784456491E0,-6.546046734E0,5.458779931E-1
1.800815569E0,3.253720045E0,-5.906795025E0,1.292868853E-1
1.802815302E0,4.077325344E0,-4.673481941E0,-3.447650373E-1
1.804815035E0,4.228160381E0,-3.600879431E0,-3.639186621E-1
1.806814768E0,4.185064793E0,-3.131615877E0,-3.495534360E-1
1.808814568E0,4.204218388E0,-2.501940727E0,-6.416460276E-1
1.810814301E0,4.405331135E0,-2.176329374E0,-6.272808313E-1
1.812814034E0,4.441244125E0,-2.161964178E0,-5.961562395E-1
1.814813767E0,4.235342979E0,-2.442085743E0,-6.679822803E-1
1.816813500E0,3.861847401E0,-2.782062292E0,-7.230489254E-1
1.818813233E0,3.579331636E0,-2.978386879E0,-6.392518282E-1
1.820812966E0,2.844311714E0,-3.423708439E0,-3.806780577E-1
1.822812699E0,2.075772762E0,-3.885789394E0,5.027823523E-2
1.824812499E0,1.654393315E0,-4.173093796E0,3.519476354E-1
1.826812232E0,8.643068075E-1,-4.764461517E0,9.959878922E-1
1.828811965E0,2.298433632E-1,-5.181351662E0,1.659181833E0
1.830811698E0,1.197100803E-2,-5.274725437E0,1.975216389E0
1.832811431E0,-2.394201756E-1,-5.308244228E0,2.470816135E0
1.834811164E0,-3.974374831E-1,-5.224447250E0,2.832340717E0
1.836810897E0,-4.979939461E-1,-5.181351662E0,2.947262287E0
1.838810630E0,-6.177040339E-1,-4.824316502E0,3.026270866E0
1.840810430E0,-5.003881454E-1,-4.537012100E0,2.683900118E0
1.842810163E0,-4.094084799E-1,-4.034229755E0,2.367865562E0
1.844809896E0,-2.585737705E-1,-3.701435804E0,1.568202138E0
1.846809629E0,-2.082955539E-1,-3.543418407E0,1.115697980E0
1.848809362E0,-1.388636976E-1,-3.296815634E0,2.849099934E-1
1.850809095E0,2.394201700E-3,-3.311181068E0,-3.902548850E-1
1.852808828E0,-2.154781483E-2,-3.222595453E0,-6.799532771E-1
1.854808628E0,-1.268926859E-1,-2.889801502E0,-8.858546019E-1
1.856808428E0,-2.753331959E-1,-2.671929121E0,-6.727706790E-1
1.858808161E0,-3.375824392E-1,-2.626439333E0,-5.195417404E-1
1.860807894E0,-3.615244627E-1,-2.487575531E0,-2.202665508E-1
1.862807627E0,-3.280056417E-1,-2.377442360E0,3.591302410E-2
1.864807360E0,-3.950432837E-1,-2.396595955E0,1.819593310E-1
1.866807093E0,-5.841852427E-1,-2.463633537E0,3.974374831E-1
1.868806826E0,-6.320692301E-1,-2.525882721E0,5.793967843E-1
1.870806626E0,-5.985504389E-1,-2.573766708E0,7.015010715E-1
1.872806159E0,-5.123591423E-1,-2.655169725E0,9.265560508E-1
1.874805892E0,-3.998316824E-1,-2.813186884E0,1.072602391E0
1.876805625E0,-3.734954596E-1,-2.904166698E0,1.127668977E0
1.878805358E0,-4.429273009E-1,-3.179499865E0,1.223437071E0
1.880805091E0,-5.267243981E-1,-3.526659012E0,1.367089152E0
1.882804824E0,-5.315127969E-1,-3.694253206E0,1.496376038E0
1.884804557E0,-6.703764796E-1,-4.019864559E0,1.831564307E0
1.886804357E0,-7.852981687E-1,-4.477157116E0,2.324769735E0
1.888804090E0,-8.283938169E-1,-4.690241337E0,2.588132143E0
1.890803823E0,-9.002198577E-1,-5.035305500E0,3.059789658E0
1.892803556E0,-9.504981041E-1,-5.253177643E0,3.299209833E0
1.894803289E0,-9.481038451E-1,-5.334580898E0,3.332728863E0
1.896803022E0,-8.786720037E-1,-5.442319870E0,3.375824451E0
1.898802755E0,-7.326257229E-1,-5.444714069E0,3.445256233E0
1.900802488E0,-6.775590777E-1,-5.447108269E0,3.481169224E0
1.902802288E0,-5.841852427E-1,-5.585971832E0,3.538630009E0
1.904802021E0,-5.674257874E-1,-5.655403614E0,3.574543238E0
1.906801754E0,-4.429273009E-1,-5.983409405E0,4.005499363E0
1.908801487E0,-2.609679997E-1,-6.306626320E0,4.690241337E0
1.910801220E0,-1.628057212E-1,-6.404788971E0,4.906018734E0
1.912800953E0,7.182604820E-2,-6.584353924E0,5.107131481E0
1.914800319E0,3.136404157E-1,-6.780678272E0,5.145438671E0
1.916800052E0,4.381389022E-1,-6.859687328E0,5.176563263E0
1.918799852E0,6.895300746E-1,-7.079953671E0,5.269937038E0
1.920799585E0,8.331822157E-1,-7.489362240E0,5.286696434E0
1.922799318E0,9.074024558E-1,-7.692869186E0,5.310638428E0
1.924799051E0,9.959878922E-1,-8.075942039E0,5.317821026E0
1.926798784E0,9.792284966E-1,-8.356062889E0,5.313032627E0
1.928798517E0,9.600749016E-1,-8.449437141E0,5.272331238E0
1.930798250E0,9.504981041E-1,-8.626607895E0,5.181351662E0
1.932798250E0,8.882488012E-1,-8.875604630E0,4.975450516E0
1.934798050E0,8.738836050E-1,-8.992920876E0,4.855441093E0
1.936797783E0,8.906430602E-1,-9.055170059E0,4.496310711E0
1.938797516E0,9.935936928E-1,-8.952219009E0,4.060565948E0
1.940797249E0,1.022324085E0,-8.937853813E0,3.871424198E0
1.942796982E0,1.048660398E0,-9.021651268E0,3.521870613E0
1.944796715E0,1.070208192E0,-9.251494408E0,3.181894064E0
1.946796448E0,1.055842996E0,-9.328108788E0,2.983175278E0
1.948796248E0,1.058237195E0,-9.500492096E0,2.420537949E0
1.950796048E0,1.082179189E0,-9.747094154E0,1.529894829E0
1.952795781E0,1.122880578E0,-9.854833603E0,9.433154464E-1
1.954795514E0,1.235408068E0,-9.988908768E0,-4.979939461E-1
1.956795247E0,1.359906554E0,-1.002961063E1,-1.790862918E0
1.958794980E0,1.391031146E0,-9.981725693E0,-2.329558372E0
1.960794713E0,1.367089152E0,-9.960178375E0,-3.215412855E0
1.962794446E0,1.374271750E0,-9.912294388E0,-3.627215624E0
1.964794246E0,1.460463047E0,-9.859622002E0,-4.283226967E0
1.966793979E0,1.541865945E0,-1.019241619E1,-4.627991676E0
1.968793712E0,1.549048543E0,-1.036719227E1,-4.661510944E0
1.970793445E0,1.577778935E0,-1.046774864E1,-4.458003521E0
1.972793178E0,1.699883223E0,-1.066646767E1,-4.094084740E0
1.974793278E0,1.757344007E0,-1.083645630E1,-3.845088005E0
1.976793011E0,1.721431017E0,-1.131529617E1,-3.198653460E0
1.978792744E0,1.747767210E0,-1.168639755E1,-2.327163935E0
1.980792544E0,1.805228114E0,-1.185399151E1,-1.917755604E0
1.982792277E0,1.958456993E0,-1.225861168E1,-1.240196466E0
1.984792010E0,2.061407566E0,-1.272308731E1,-6.847416759E-1
1.986791743E0,2.111685991E0,-1.294095993E1,-3.902548850E-1
1.988791476E0,2.255337954E0,-1.349402046E1,2.106897533E-1
1.990791209E0,2.264914751E0,-1.414284897E1,7.326257229E-1
1.992790942E0,2.224213362E0,-1.448043156E1,9.983820915E-1
1.994790675E0,2.209848166E0,-1.494281101E1,1.414973259E0
1.996790475E0,2.226607561E0,-1.535940266E1,1.742978811E0
1.998790208E0,2.231395960E0,-1.565388966E1,1.908178806E0
2.000789941E0,2.147598982E0,-1.630750656E1,2.128445387E0
2.002789674E0,1.994369984E0,-1.705210304E1,2.154781580E0
2.004789407E0,1.814804912E0,-1.748784828E1,2.149993181E0
2.006789140E0,1.228225470E0,-1.856763268E1,2.248155355E0
2.008788873E0,6.416460276E-1,-1.957080269E1,2.274491549E0
2.010788606E0,4.788403511E-1,-1.992993355E1,2.269703150E0
2.012788406E0,1.436520964E-1,-2.048060036E1,2.365471363E0
2.014788139E0,-2.681505978E-1,-2.073199081E1,2.398990154E0
2.016787872E0,-3.687070608E-1,-2.083494186E1,2.528276920E0
2.018787605E0,-5.626373887E-1,-2.111506271E1,2.688688517E0
2.020787338E0,-6.248866320E-1,-2.156996155E1,2.734178305E0
2.022787071E0,-7.398083210E-1,-2.287958908E1,2.691082716E0
2.024786804E0,-9.672574997E-1,-2.453188896E1,2.317587137E0
2.026786604E0,-9.576807022E-1,-2.524057198E1,2.087743998E0
2.028785970E0,-8.762778044E-1,-2.652625847E1,1.431732655E0
2.030785703E0,-7.733271718E-1,-2.745999718E1,7.206547260E-1
2.032785436E0,-6.679822803E-1,-2.782630920E1,3.327940404E-1
2.034785169E0,-5.339069963E-1,-2.832430458E1,-4.333505034E-1
2.036784902E0,-5.363011956E-1,-2.863554955E1,-1.240196466E0
2.038784635E0,-4.955997467E-1,-2.859484863E1,-1.606509328E0
2.040784368E0,-2.801215947E-1,-2.728761482E1,-2.082955360E0
2.042784168E0,-7.900865376E-2,-2.389712524E1,-1.805228114E0
2.044783901E0,-4.548983276E-2,-2.193866920E1,-1.383848548E0
2.046783634E0,8.619125932E-2,-1.826835823E1,-2.250549644E-1
2.048783367E0,3.232172430E-1,-1.503857899E1,8.690952063E-1
2.050783100E0,4.381389022E-1,-1.372625732E1,1.297657371E0
2.052782833E0,6.823474765E-1,-1.169118595E1,1.896207690E0
2.054782566E0,9.217676520E-1,-1.025945377E1,2.128445387E0
2.056782299E0,1.027112484E0,-9.727940559E0,2.149993181E0
2.058782099E0,1.189918280E0,-8.954613686E0,2.075772762E0
2.060781865E0,1.307234168E0,-8.542811394E0,1.932120800E0
2.062781631E0,1.331176162E0,-8.442254066E0,1.855506301E0
2.064781397E0,1.314416766E0,-8.365639687E0,1.747767210E0
2.066781163E0,1.206677675E0,-8.456619263E0,1.654393315E0
2.068780929E0,1.130063176E0,-8.506897926E0,1.611297727E0
2.070780695E0,9.720458984E-1,-8.626607895E0,1.539471745E0
2.072780461E0,8.690952063E-1,-8.696040154E0,1.517923832E0
2.074780294E0,8.331822157E-1,-8.894758224E0,1.503558636E0
2.076780060E0,7.565677166E-1,-9.074323654E0,1.580173135E0
2.078779826E0,7.350199223E-1,-9.158121109E0,1.623268723E0
2.080779592E0,7.015010715E-1,-9.311349869E0,1.673547029E0
2.082779358E0,7.278373241E-1,-9.411906242E0,1.702277422E0
2.084779124E0,7.374141216E-1,-9.452607155E0,1.716642618E0
2.086778890E0,7.230489254E-1,-9.495702744E0,1.766920805E0
2.088779090E0,7.230489254E-1,-9.474155426E0,1.783680320E0
2.090779756E0,7.158663273E-1,-9.440636635E0,1.788468719E0
2.092779522E0,6.799532771E-1,-9.361627579E0,1.778891921E0
2.094779288E0,6.272808313E-1,-9.344868660E0,1.788468719E0
2.096779054E0,5.937620401E-1,-9.342473984E0,1.793257117E0
2.098778820E0,5.099649429E-1,-9.364022255E0,1.810016513E0
2.100778586E0,3.902548850E-1,-9.481337547E0,1.805228114E0
2.102778352E0,3.351882398E-1,-9.541193008E0,1.766920805E0
2.104778185E0,2.849099934E-1,-9.684844971E0,1.716642618E0
2.106778518E0,3.160346150E-1,-9.838073730E0,1.714248419E0
2.108778284E0,3.567360640E-1,-9.981725693E0,1.699883223E0
2.110778050E0,4.046200812E-1,-1.050845051E1,1.702277422E0
2.112777816E0,5.075707436E-1,-1.137036324E1,1.601720929E0
2.114777582E0,6.153098345E-1,-1.182047272E1,1.534683347E0
2.116777348E0,9.265560508E-1,-1.254591656E1,1.388636947E0
2.118777114E0,1.223437071E0,-1.274702930E1,1.290474772E0
2.120776914E0,1.331176162E0,-1.265126133E1,1.242590666E0
2.122776714E0,1.438915253E0,-1.207904720E1,1.127668977E0
2.124776447E0,1.470039845E0,-1.166485023E1,1.091755986E0
2.126776180E0,1.441309452E0,-1.086518669E1,1.074996591E0
2.128775913E0,1.278503656E0,-1.027621269E1,1.070208192E0
2.130775646E0,1.074996591E0,-1.006312943E1,1.070208192E0
2.132775379E0,9.720458984E-1,-9.742305756E0,1.058237195E0
2.134775112E0,8.188169599E-1,-9.519645691E0,1.017535686E0
2.136774912E0,7.565677166E-1,-9.404723167E0,9.696516991E-1
2.138774645E0,6.727706790E-1,-9.196428299E0,8.499416113E-1
2.140774378E0,6.248866320E-1,-9.076718330E0,6.799532771E-1
2.142774111E0,6.248866320E-1,-9.043199539E0,5.722141862E-1
2.144773844E0,6.344634295E-1,-9.059958458E0,2.944868207E-1
2.146773577E0,7.541735172E-1,-8.985737801E0,-1.197100878E-1
2.148773310E0,8.379706144E-1,-8.980949402E0,-4.596867263E-1
2.150772210E0,1.096544385E0,-8.916306496E0,-1.067813993E0
2.152772010E0,1.328781962E0,-8.882787704E0,-1.264138460E0
2.154771743E0,1.431732655E0,-8.866027832E0,-1.194706678E0
2.156771476E0,1.484405041E0,-8.935460091E0,-9.337386489E-1
2.158771209E0,1.359906554E0,-9.119813919E0,-6.512228847E-1
2.160770942E0,1.252167463E0,-9.215581894E0,-4.429273009E-1
2.162770675E0,1.012747288E0,-9.462183952E0,5.267243832E-2
2.164770408E0,7.517793179E-1,-9.878775597E0,3.567360640E-1
2.166769641E0,6.943184733E-1,-1.006552315E1,5.506663918E-1
2.168769441E0,7.182605267E-1,-1.036001015E1,1.051054597E0
2.170769174E0,8.547300100E-1,-1.058745956E1,1.539471745E0
2.172768907E0,9.504981041E-1,-1.072153473E1,1.750161409E0
2.174768640E0,1.211466074E0,-1.101841545E1,2.015917778E0
2.176768373E0,1.527500629E0,-1.106390572E1,2.212242365E0
2.178768106E0,1.668758631E0,-1.091067600E1,2.322375536E0
2.180767839E0,1.759738207E0,-1.028818417E1,2.554613113E0
2.182767572E0,1.405396342E0,-9.945813179E0,2.444479942E0
2.184767372E0,1.118092179E0,-9.557952881E0,2.329558372E0
2.186767105E0,6.009446383E-1,-9.455001831E0,2.130839586E0
2.188766838E0,3.950432837E-1,-9.414299965E0,2.087743998E0
2.190766571E0,1.795651317E-1,-9.335291862E0,2.130839586E0
2.192766304E0,2.442085743E-1,-9.244312286E0,2.319981337E0
2.194766037E0,3.351882398E-1,-9.206005096E0,2.458845139E0
2.196765770E0,5.841852427E-1,-9.201216698E0,2.841917515E0
2.198765570E0,8.331822157E-1,-9.098265648E0,3.256114244E0
2.200765370E0,9.265560508E-1,-9.043199539E0,3.466804028E0
2.202765103E0,1.007958889E0,-8.937853813E0,3.756502390E0
2.204764836E0,6.153098345E-1,-8.399158478E0,3.950432777E0
2.206764569E0,1.843535304E-1,-7.132626057E0,3.605667830E0
2.208764302E0,-1.486799240E0,-1.549048543E0,2.446874142E0
2.210764035E0,-2.590526342E0,4.711789131E0,1.915361404E0
2.212763768E0,-2.142810583E0,6.318597794E0,1.759738207E0
2.214763568E0,-1.142034173E0,7.151779652E0,1.244984865E0
2.216763301E0,-1.003170490E0,5.935525417E0,5.602431893E-1
2.218763034E0,-8.643068075E-1,4.556165695E0,5.674257874E-1
2.220762767E0,-2.896983922E-1,6.009446383E-1,1.290474772E0
2.222762500E0,4.237737060E-1,-3.878606796E0,2.458845139E0
2.224762233E0,7.733271718E-1,-5.992986202E0,3.069366693E0
2.226761966E0,1.410184860E0,-9.512462616E0,4.084507942E0
2.228761699E0,1.951274395E0,-1.218439198E1,4.786009312E0
2.230761499E0,2.126051188E0,-1.334318542E1,4.762067318E0
2.232761232E0,2.456450939E0,-1.484464931E1,4.216189384E0
2.234760965E0,2.719813108E0,-1.512716484E1,3.189076662E0
2.236760698E0,2.750937700E0,-1.495478249E1,2.633621931E0
2.238760431E0,2.607285738E0,-1.436550903E1,1.489193439E0
2.240760164E0,2.334346771E0,-1.402313900E1,6.153098345E-1
2.242759897E0,2.154781580E0,-1.345571327E1,3.208230138E-1
2.244759630E0,1.778891921E0,-1.324262905E1,-5.746084079E-2
2.246759430E0,1.436521053E0,-1.342219353E1,-1.675941199E-1
2.248759163E0,1.290474772E0,-1.364485455E1,-1.628057212E-1
2.250759029E0,8.547300100E-1,-1.423143387E1,-2.633621916E-2
2.252758762E0,6.200982332E-1,-1.450437355E1,8.140286058E-2
2.254758495E0,1.628057212E-1,-1.488295650E1,2.753331959E-1
2.256758228E0,-2.681505978E-1,-1.498590660E1,4.836287498E-1
2.258757961E0,-4.788403511E-1,-1.498590660E1,6.009446383E-1
2.260757694E0,-8.667010069E-1,-1.500027180E1,8.714894056E-1
2.262757494E0,-1.086967587E0,-1.482549572E1,1.237802267E0
2.264757227E0,-1.058237195E0,-1.454028606E1,1.304839969E0
2.266756960E0,-7.637503147E-1,-1.386033249E1,1.094150186E0
2.268756693E0,-4.046200812E-1,-1.339346313E1,1.041477680E0
2.270756426E0,-2.609679997E-1,-1.324502277E1,1.007958889E0
2.272756159E0,-3.830722719E-2,-1.303912163E1,1.086967587E0
2.274755892E0,9.816227108E-2,-1.291462326E1,1.237802267E0
2.276755692E0,1.173158810E-1,-1.289068127E1,1.345541358E0
2.278755492E0,1.292868853E-1,-1.286913300E1,1.510741234E0
2.280755258E0,1.053448766E-1,-1.287152767E1,1.515529633E0
2.282755024E0,9.097966552E-2,-1.278294182E1,1.436521053E0
2.284754790E0,4.309562966E-2,-1.239986992E1,1.218648672E0
2.286754556E0,-4.788403399E-3,-1.200003815E1,9.720458984E-1
2.288754322E0,-3.351882473E-2,-1.182047272E1,8.427590132E-1
2.290754088E0,-1.125274822E-1,-1.148767948E1,6.560112834E-1
2.292753921E0,-1.628057212E-1,-1.126501846E1,5.291185975E-1
2.294753787E0,-1.819593310E-1,-1.120755768E1,5.339069963E-1
2.296753653E0,-2.250549644E-1,-1.113812542E1,5.602431893E-1
2.298753519E0,-2.729389966E-1,-1.111657810E1,6.320692301E-1
2.300753385E0,-2.537853718E-1,-1.098729134E1,6.081272364E-1
2.302753251E0,-2.082955539E-1,-1.086518669E1,5.147533417E-1
2.304753117E0,-1.747767180E-1,-1.081969643E1,4.932055473E-1
2.306752983E0,-1.508347094E-1,-1.077899551E1,5.530605912E-1
2.308752916E0,-1.604115069E-1,-1.081011963E1,5.913678408E-1
2.310752482E0,-1.747767180E-1,-1.087955189E1,6.081272364E-1
2.312752415E0,-1.771709323E-1,-1.100644493E1,6.943184733E-1
2.314752348E0,-1.268926859E-1,-1.106629944E1,8.331822157E-1
2.316752281E0,-9.816227108E-2,-1.112136650E1,8.475474119E-1
2.318752214E0,-6.703764945E-2,-1.120995140E1,8.259995580E-1
2.320752147E0,-4.788403213E-2,-1.127698898E1,8.978256583E-1
2.322752080E0,-6.224924326E-2,-1.131050777E1,9.720458984E-1
2.324752080E0,-1.244984865E-1,-1.137994003E1,1.108515382E0
2.326752046E0,-1.388636976E-1,-1.134881496E1,1.312022567E0
2.328752012E0,-1.484405100E-1,-1.131769085E1,1.431732655E0
2.330751978E0,-1.939303428E-1,-1.126023006E1,1.661576033E0
2.332751944E0,-1.963245422E-1,-1.114291382E1,1.786074519E0
2.334751910E0,-1.723825186E-1,-1.104475212E1,1.821987510E0
2.336751876E0,-7.661445439E-2,-1.079336071E1,1.855506301E0
2.338751842E0,-5.746084079E-2,-1.073829365E1,1.953668594E0
2.340751842E0,-7.661445439E-2,-1.078138924E1,2.030282974E0
2.342751808E0,-1.077390760E-1,-1.093701267E1,2.157175779E0
2.344751774E0,-1.364694983E-1,-1.110221291E1,2.236184359E0
2.346751740E0,-1.747767180E-1,-1.117882729E1,2.250549555E0
2.348751706E0,-2.250549644E-1,-1.126262379E1,2.233790159E0
2.350751672E0,-2.920926213E-1,-1.127459526E1,2.176329374E0
2.352751638E0,-3.303998411E-1,-1.125783539E1,2.135627985E0
2.354751571E0,-4.141969085E-1,-1.117164421E1,2.075772762E0
2.356751504E0,-4.740519226E-1,-1.109742451E1,2.044648170E0
2.358751404E0,-4.979939461E-1,-1.085321522E1,2.015917778E0
2.360751304E0,-4.908113480E-1,-1.045098972E1,1.709460020E0
2.362751204E0,-5.147533417E-1,-1.007988834E1,1.328781962E0
2.364751104E0,-6.823474765E-1,-9.414299965E0,1.187524080E0
2.366751004E0,-8.092401624E-1,-8.851662636E0,1.386242747E0
2.368750904E0,-8.475474119E-1,-8.614637375E0,1.474828243E0
2.370751037E0,-8.954314590E-1,-8.169315338E0,1.647210717E0
2.372750937E0,-9.241618514E-1,-7.774271965E0,1.786074519E0
2.374750837E0,-9.145850539E-1,-7.611466408E0,1.824381709E0
2.376750737E0,-9.074024558E-1,-7.314585686E0,1.912967205E0
2.378750637E0,-8.810662031E-1,-7.041646481E0,2.027888775E0
2.380750537E0,-8.403648138E-1,-6.929119110E0,2.085349798E0
2.382750437E0,-7.685387731E-1,-6.759130478E0,2.123656988E0
2.384750337E0,-6.967126727E-1,-6.689698696E0,2.138022184E0
2.386750270E0,-6.560112834E-1,-6.660968304E0,2.161964178E0
2.388750136E0,-5.578489900E-1,-6.620266914E0,2.291250944E0
2.390750002E0,-4.572925270E-1,-6.572382927E0,2.492363930E0
2.392749868E0,-4.022258818E-1,-6.550835133E0,2.588132143E0
2.394749734E0,-2.681505978E-1,-6.562806129E0,2.729389906E0
2.396749600E0,-1.867477298E-1,-6.658574104E0,2.703053713E0
2.398749466E0,-1.364694983E-1,-6.737582684E0,2.643198729E0
2.400749332E0,-9.816227108E-2,-6.941090107E0,2.473210335E0
2.402749232E0,-1.388636976E-1,-7.158962250E0,2.281674147E0
2.404749065E0,-1.771709323E-1,-7.288249016E0,2.185906172E0
2.406748465E0,-2.801215947E-1,-7.534852028E0,2.011129379E0
2.408748298E0,-3.687070608E-1,-7.788637638E0,1.927332401E0
2.410748131E0,-4.165911078E-1,-7.910741806E0,1.917755604E0
2.412747964E0,-5.003881454E-1,-8.171710014E0,1.958456993E0
2.414747797E0,-5.770025849E-1,-8.286631584E0,2.006340981E0
2.416747630E0,-6.009446383E-1,-8.492532730E0,2.099714994E0
2.418747496E0,-6.057330370E-1,-8.657732964E0,2.135627985E0
2.420747296E0,-6.009446383E-1,-8.727164268E0,2.130839586E0
2.422747096E0,-5.746083856E-1,-8.861239433E0,2.130839586E0
2.424746462E0,-5.650315881E-1,-8.995314598E0,2.123656988E0
2.426746262E0,-5.554547906E-1,-9.105448723E0,2.082955360E0
2.428746062E0,-5.410895944E-1,-9.158121109E0,2.061407566E0
2.430745862E0,-5.410895944E-1,-9.265859604E0,2.047042370E0
2.432745662E0,-5.291185975E-1,-9.306561470E0,2.054224968E0
2.434745462E0,-5.386953950E-1,-9.409511566E0,2.049436569E0
2.436745195E0,-5.267243981E-1,-9.510068893E0,2.042253971E0
2.438744928E0,-5.195417404E-1,-9.548376083E0,2.039859772E0
2.440744661E0,-5.171475410E-1,-9.620202065E0,2.035071373E0
2.442744394E0,-4.788403511E-1,-9.682451248E0,1.994369984E0
2.444744127E0,-4.764461517E-1,-9.730335236E0,1.958456993E0
2.446743860E0,-4.955997467E-1,-9.828496933E0,1.874659896E0
2.448743660E0,-4.860229492E-1,-9.881169319E0,1.800439715E0
2.450743460E0,-4.884171486E-1,-9.931447983E0,1.764526606E0
2.452743193E0,-4.692635238E-1,-1.001285076E1,1.663970232E0
2.454742926E0,-4.668693244E-1,-1.007031155E1,1.553836942E0
2.456742659E0,-4.596867263E-1,-1.009904194E1,1.501164436E0
2.458742392E0,-4.165911078E-1,-1.015171432E1,1.434126854E0
2.460742125E0,-4.501099288E-1,-1.023311710E1,1.391031146E0
2.462741858E0,-4.764461517E-1,-1.027142429E1,1.357512355E0
2.464741658E0,-4.979939461E-1,-1.033606815E1,1.292868972E0
2.466741824E0,-5.195417404E-1,-1.036958694E1,1.230619669E0
2.468741557E0,-5.386953950E-1,-1.037916374E1,1.199495077E0
2.470741290E0,-5.458779931E-1,-1.041268253E1,1.156399369E0
2.472740256E0,-5.626373887E-1,-1.041507626E1,1.137245774E0
2.474739989E0,-6.057330370E-1,-1.041747093E1,1.113303781E0
2.476739722E0,-6.153098345E-1,-1.041507626E1,1.086967587E0
2.478739455E0,-6.320692301E-1,-1.041507626E1,1.079784989E0
2.480739255E0,-6.488286853E-1,-1.041986465E1,1.077390790E0
2.482738988E0,-6.440402865E-1,-1.039352894E1,1.041477680E0
2.484739154E0,-6.368576288E-1,-1.037437534E1,1.031900883E0
2.486738887E0,-6.129156351E-1,-1.035043335E1,1.029506683E0
2.488738620E0,-6.272808313E-1,-1.031930828E1,1.000776291E0
2.490738353E0,-6.248866320E-1,-1.031451988E1,9.935936928E-1
2.492738086E0,-6.200982332E-1,-1.031212616E1,9.888052940E-1
2.494737819E0,-5.865794420E-1,-1.028100109E1,9.816226959E-1
2.496737619E0,-5.746083856E-1,-1.027142429E1,9.911994934E-1
2.498737352E0,-5.171475410E-1,-1.024987698E1,1.017535686E0
2.500737085E0,-4.860229492E-1,-1.023551178E1,1.070208192E0
2.502736818E0,-4.644751251E-1,-1.023072338E1,1.096544385E0
2.504736551E0,-4.022258818E-1,-1.023072338E1,1.120486379E0
2.506736284E0,-3.399766386E-1,-1.023790550E1,1.161187768E0
2.508736017E0,-3.136404157E-1,-1.024748230E1,1.180341482E0
2.510734850E0,-2.633621991E-1,-1.023790550E1,1.209071875E0
2.512734650E0,-2.178723514E-1,-1.024030018E1,1.233013868E0
2.514734383E0,-1.795651317E-1,-1.024030018E1,1.247379065E0
2.516734116E0,-1.292868853E-1,-1.024508858E1,1.276109457E0
2.518733849E0,-1.053448766E-1,-1.024987698E1,1.297657371E0
2.520733582E0,-9.816227108E-2,-1.025466537E1,1.309628367E0
2.522733315E0,-6.224924326E-2,-1.024987698E1,1.335964561E0
2.524733048E0,-2.394201700E-3,-1.024987698E1,1.352723956E0
2.526732848E0,1.915361360E-2,-1.024508858E1,1.367089152E0
2.528732648E0,3.830722719E-2,-1.024748230E1,1.379060149E0
2.530732381E0,8.619125932E-2,-1.024748230E1,1.379060149E0
2.532732881E0,1.005564705E-1,-1.024269390E1,1.386242747E0
2.534732614E0,1.244984865E-1,-1.027142429E1,1.403002143E0
2.536732347E0,1.340752989E-1,-1.028100109E1,1.410184860E0
2.538732080E0,1.699883193E-1,-1.029536629E1,1.443703651E0
2.540731813E0,1.819593310E-1,-1.030015469E1,1.455674648E0
2.542731613E0,1.819593310E-1,-1.030015469E1,1.467645645E0
2.544731413E0,1.963245422E-1,-1.030254936E1,1.501164436E0
2.546731146E0,2.154781520E-1,-1.029297256E1,1.539471745E0
2.548730879E0,2.226607651E-1,-1.027860737E1,1.551442742E0
2.550730612E0,2.322375625E-1,-1.025466537E1,1.580173135E0
2.552730345E0,2.489969730E-1,-1.023072338E1,1.616086125E0
2.554730078E0,2.561795712E-1,-1.021396351E1,1.635239720E0
2.556729811E0,2.513911724E-1,-1.016368580E1,1.649604917E0
2.558729611E0,2.657563984E-1,-1.010383034E1,1.661576033E0
2.560729344E0,2.753331959E-1,-1.007031155E1,1.685518026E0
2.562729077E0,3.136404157E-1,-1.000327396E1,1.697489023E0
2.564728810E0,3.112462163E-1,-9.950601578E0,1.716642618E0
2.566728543E0,3.136404157E-1,-9.907505989E0,1.723825216E0
2.568728276E0,3.615244627E-1,-9.826103210E0,1.731007814E0
2.570728909E0,3.830722570E-1,-9.761459351E0,1.747767210E0
2.572728642E0,3.974374831E-1,-9.727940559E0,1.762132406E0
2.574728442E0,4.620809257E-1,-9.663297653E0,1.793257117E0
2.576728175E0,5.027823448E-1,-9.601048470E0,1.819593310E0
2.578727908E0,5.243301988E-1,-9.577106476E0,1.838746905E0
2.580727641E0,5.650315881E-1,-9.541193008E0,1.867477298E0
2.582727374E0,6.105214357E-1,-9.522039413E0,1.877054095E0
2.584727107E0,6.320692301E-1,-9.507674217E0,1.865083098E0
2.586726840E0,6.607996821E-1,-9.490914345E0,1.857900500E0
2.588726573E0,6.823474765E-1,-9.478943825E0,1.850717902E0
2.590726373E0,7.206547260E-1,-9.486125946E0,1.807622313E0
2.592726106E0,7.637503147E-1,-9.486125946E0,1.774103403E0
2.594725839E0,7.948749661E-1,-9.486125946E0,1.762132406E0
2.596725572E0,8.523358107E-1,-9.498097420E0,1.754949808E0
2.598725305E0,9.097966552E-1,-9.502885818E0,1.747767210E0
2.600725038E0,9.409212470E-1,-9.514857292E0,1.750161409E0
2.602724771E0,1.012747288E0,-9.526827812E0,1.735796213E0
2.604724504E0,1.065419793E0,-9.538799286E0,1.726219416E0
2.606724304E0,1.091755986E0,-9.548376083E0,1.704671621E0
2.608724037E0,1.096544385E0,-9.560346603E0,1.692700624E0
2.610723770E0,1.106121182E0,-9.569923401E0,1.654393315E0
2.612723503E0,1.118092179E0,-9.584288597E0,1.642422318E0
2.614723236E0,1.127668977E0,-9.605836868E0,1.623268723E0
2.616722969E0,1.098938584E0,-9.636960983E0,1.599326730E0
2.618722702E0,1.094150186E0,-9.651326180E0,1.589749932E0
2.620722502E0,1.074996591E0,-9.680056572E0,1.556231141E0
2.622722302E0,1.027112484E0,-9.715970039E0,1.529894829E0
2.624722035E0,1.003170490E0,-9.723152161E0,1.508347034E0
2.626721768E0,9.672574997E-1,-9.768642426E0,1.489193439E0
2.628721068E0,9.481038451E-1,-9.818920135E0,1.491587639E0
2.630720801E0,9.313444495E-1,-9.840468407E0,1.493981838E0
2.632720534E0,8.834604025E-1,-9.893140793E0,1.493981838E0
2.634720267E0,8.331822157E-1,-9.917082787E0,1.503558636E0
2.636720067E0,8.092401624E-1,-9.931447983E0,1.508347034E0
2.638719800E0,7.589619160E-1,-9.933841705E0,1.522712231E0
2.640719533E0,7.206547260E-1,-9.941024780E0,1.527500629E0
2.642719266E0,6.895300746E-1,-9.964966774E0,1.532289028E0
2.644718999E0,6.057330370E-1,-9.964966774E0,1.544260144E0
2.646718732E0,5.698199868E-1,-9.957783699E0,1.553836942E0
2.648718465E0,5.291185975E-1,-9.929053307E0,1.544260144E0
2.650718198E0,5.003881454E-1,-9.905111313E0,1.546654344E0
2.652717998E0,4.812345505E-1,-9.893140793E0,1.551442742E0
2.654717731E0,4.237737060E-1,-9.866804123E0,1.539471745E0
2.656717464E0,4.046200812E-1,-9.840468407E0,1.520318031E0
2.658716664E0,3.902548850E-1,-9.821314812E0,1.517923832E0
2.660716397E0,3.615244627E-1,-9.773430824E0,1.520318031E0
2.662716130E0,3.399766386E-1,-9.730335236E0,1.534683347E0
2.664715863E0,3.327940404E-1,-9.725546837E0,1.534683347E0
2.666715596E0,3.088520169E-1,-9.708786964E0,1.515529633E0
2.668715396E0,2.920926213E-1,-9.687239647E0,1.513135433E0
2.670715129E0,2.849099934E-1,-9.684844971E0,1.520318031E0
2.672714862E0,2.681505978E-1,-9.684844971E0,1.546654344E0
2.674714595E0,2.466027737E-1,-9.687239647E0,1.575384736E0
2.676714328E0,2.442085743E-1,-9.687239647E0,1.592144132E0
2.678714428E0,2.442085743E-1,-9.706393242E0,1.620874524E0
2.680714161E0,2.466027737E-1,-9.699210167E0,1.649604917E0
2.682713894E0,2.466027737E-1,-9.708786964E0,1.649604917E0
2.684713694E0,2.753331959E-1,-9.677662849E0,1.668758631E0
2.686713427E0,2.873041928E-1,-9.653720856E0,1.702277422E0
2.688713593E0,2.681505978E-1,-9.651326180E0,1.714248419E0
2.690713326E0,2.466027737E-1,-9.675268173E0,1.731007814E0
2.692713059E0,2.466027737E-1,-9.577106476E0,1.798045516E0
2.694712792E0,2.202665508E-1,-9.526827812E0,1.814804912E0
2.696712525E0,1.556231081E-1,-9.471760750E0,1.824381709E0
2.698712325E0,1.005564705E-1,-9.447818756E0,1.853112102E0
2.700712125E0,7.900865376E-2,-9.385569572E0,1.855506301E0
2.702711858E0,-7.182605099E-3,-9.347262383E0,1.831564307E0
2.704711591E0,-4.309562966E-2,-9.330503464E0,1.817199111E0
2.706711324E0,-1.077390760E-1,-9.301773071E0,1.795651317E0
2.708711057E0,-1.628057212E-1,-9.285013199E0,1.735796213E0
2.710710790E0,-1.771709323E-1,-9.273042679E0,1.719036818E0
2.712710523E0,-2.202665508E-1,-9.258677483E0,1.735796213E0
2.714710323E0,-2.226607651E-1,-9.246706009E0,1.778891921E0
2.716710089E0,-2.250549644E-1,-9.239523888E0,1.793257117E0
2.718710389E0,-2.489969730E-1,-9.246706009E0,1.826775908E0
2.720710155E0,-3.136404157E-1,-9.249100685E0,1.857900500E0
2.722709921E0,-3.327940404E-1,-9.265859604E0,1.869871497E0
2.724709687E0,-3.591302633E-1,-9.280224800E0,1.920149803E0
2.726709453E0,-3.830722570E-1,-9.289801598E0,1.960851192E0
2.728709219E0,-3.878606856E-1,-9.304166794E0,1.980004787E0
2.730709052E0,-3.998316824E-1,-9.285013199E0,2.001552582E0
2.732708818E0,-4.141969085E-1,-9.258677483E0,1.991975784E0
2.734708584E0,-4.070142806E-1,-9.244312286E0,1.982398987E0
2.736708350E0,-3.902548850E-1,-9.186851501E0,1.994369984E0
2.738707750E0,-4.118026793E-1,-9.136572838E0,2.032677174E0
2.740707516E0,-4.261679053E-1,-9.122207642E0,2.051830769E0
2.742707282E0,-4.453215301E-1,-9.069535255E0,2.082955360E0
2.744707048E0,-4.261679053E-1,-9.019257545E0,2.118868589E0
2.746706881E0,-4.333505034E-1,-8.995314598E0,2.126051188E0
2.748706647E0,-4.261679053E-1,-8.947430611E0,2.140416384E0
2.750706413E0,-4.261679053E-1,-8.909123421E0,2.142810583E0
2.752706179E0,-4.213795066E-1,-8.897152901E0,2.152387381E0
2.754705945E0,-4.668693244E-1,-8.877999306E0,2.195482969E0
2.756705711E0,-5.243301988E-1,-8.854057312E0,2.226607561E0
2.758705477E0,-5.171475410E-1,-8.856451035E0,2.284068346E0
2.760705243E0,-4.572925270E-1,-8.940248489E0,2.334346771E0
2.762705076E0,-4.932055473E-1,-8.985737801E0,2.363077164E0
2.764704842E0,-6.177040339E-1,-9.160514832E0,2.377442360E0
2.766704608E0,-6.799532771E-1,-9.395146370E0,2.358288765E0
2.768704374E0,-6.751648784E-1,-9.534010887E0,2.310404539E0
2.770704140E0,-7.206547260E-1,-9.799766541E0,2.161964178E0
2.772703906E0,-7.374141216E-1,-1.001524544E1,1.989581585E0
2.774703672E0,-7.374141216E-1,-1.007270622E1,1.929726601E0
2.776703472E0,-7.062895298E-1,-1.012059021E1,1.874659896E0
2.778703272E0,-6.440402865E-1,-1.014453220E1,1.857900500E0
2.780703005E0,-5.458779931E-1,-1.013256073E1,1.865083098E0
2.782702738E0,-1.747767180E-1,-1.004158115E1,1.903390408E0
2.784702471E0,2.657563984E-1,-9.907505989E0,1.934514999E0
2.786702204E0,5.434837937E-1,-9.775824547E0,2.025494576E0
2.788701937E0,6.081272364E-1,-9.706393242E0,2.106897593E0
2.790701670E0,6.464344859E-1,-9.572318077E0,2.269703150E0
2.792701470E0,6.344634295E-1,-9.512462616E0,2.336740971E0
2.794701270E0,6.177040339E-1,-9.428665161E0,2.415749550E0
2.796701003E0,6.033388376E-1,-9.364022255E0,2.427720547E0
2.798700736E0,5.674257874E-1,-9.352050781E0,2.415749550E0
2.800700469E0,4.620809257E-1,-9.366415977E0,2.336740971E0
2.802700202E0,3.639186621E-1,-9.399934769E0,2.190694571E0
2.804699935E0,3.280056417E-1,-9.423876762E0,2.128445387E0
2.806699668E0,2.849099934E-1,-9.459790230E0,2.049436569E0
2.808699468E0,2.346317619E-1,-9.505280495E0,1.999158382E0
2.810699201E0,1.987187415E-1,-9.536404610E0,1.965639591E0
2.812698934E0,1.604115069E-1,-9.586683273E0,1.920149803E0
2.814698667E0,1.628057212E-1,-9.603442192E0,1.903390408E0
2.816698400E0,1.532289088E-1,-9.627384186E0,1.893813491E0
2.818698133E0,1.388636976E-1,-9.648932457E0,1.881842494E0
2.820697866E0,1.268926859E-1,-9.668086052E0,1.874659896E0
2.822697599E0,1.149216816E-1,-9.665691376E0,1.874659896E0
2.824697399E0,8.858546615E-2,-9.699210167E0,1.898601890E0
2.826697132E0,8.619125932E-2,-9.706393242E0,1.898601890E0
2.828696865E0,6.943184882E-2,-9.708786964E0,1.886630893E0
2.830696598E0,5.746084079E-2,-9.708786964E0,1.843535304E0
2.832696331E0,4.070143029E-2,-9.713575363E0,1.826775908E0
2.834696064E0,-4.788403399E-3,-9.708786964E0,1.814804912E0
2.836695797E0,-2.154781483E-2,-9.687239647E0,1.793257117E0
2.838695530E0,-2.633621916E-2,-9.696816444E0,1.781286120E0
2.840695330E0,-3.351882473E-2,-9.711181641E0,1.774103403E0
2.842695063E0,-4.070143029E-2,-9.692028046E0,1.776497602E0
2.844694796E0,-5.506663769E-2,-9.694421768E0,1.771709204E0
2.846694529E0,-5.746084079E-2,-9.692028046E0,1.766920805E0
2.848694262E0,-4.309562966E-2,-9.692028046E0,1.774103403E0
2.850693995E0,-2.633621916E-2,-9.689633369E0,1.778891921E0
2.852693728E0,-2.154781483E-2,-9.689633369E0,1.790862918E0
2.854693461E0,-4.548983276E-2,-9.703998566E0,1.807622313E0
2.856693261E0,-5.506663769E-2,-9.708786964E0,1.824381709E0
2.858692994E0,-9.097966552E-2,-9.715970039E0,1.831564307E0
2.860692727E0,-1.388636976E-1,-9.711181641E0,1.845929503E0
2.862692460E0,-1.580173075E-1,-9.713575363E0,1.845929503E0
2.864692193E0,-1.891419291E-1,-9.723152161E0,1.838746905E0
2.866691926E0,-2.226607651E-1,-9.723152161E0,1.843535304E0
2.868691659E0,-2.418143749E-1,-9.720758438E0,1.848323703E0
2.870691459E0,-2.777273953E-1,-9.735123634E0,1.860294700E0
2.872691259E0,-2.896983922E-1,-9.737517357E0,1.862688899E0
2.874690992E0,-3.208230138E-1,-9.744700432E0,1.853112102E0
2.876690725E0,-3.447650373E-1,-9.761459351E0,1.850717902E0
2.878690458E0,-3.447650373E-1,-9.761459351E0,1.857900500E0
2.880690191E0,-3.303998411E-1,-9.783007622E0,1.850717902E0
2.882689924E0,-3.232172430E-1,-9.794978142E0,1.862688899E0
2.884689657E0,-3.375824392E-1,-9.809343338E0,1.865083098E0
2.886689457E0,-3.208230138E-1,-9.823708534E0,1.879448295E0
2.888689190E0,-3.327940404E-1,-9.835680008E0,1.872265697E0
2.890688923E0,-3.375824392E-1,-9.828496933E0,1.881842494E0
2.892688656E0,-3.351882398E-1,-9.806949615E0,1.910573006E0
2.894688389E0,-3.160346150E-1,-9.806949615E0,1.900996208E0
2.896688122E0,-3.327940404E-1,-9.823708534E0,1.903390408E0
2.898687855E0,-3.423708379E-1,-9.833285332E0,1.893813491E0
2.900687588E0,-3.280056417E-1,-9.828496933E0,1.877054095E0
2.902687388E0,-3.232172430E-1,-9.828496933E0,1.869871497E0
2.904687121E0,-2.944868207E-1,-9.821314812E0,1.850717902E0
2.906686854E0,-2.825157940E-1,-9.835680008E0,1.836352706E0
2.908686587E0,-2.705447972E-1,-9.850045204E0,1.826775908E0
2.910685920E0,-2.561795712E-1,-9.862015724E0,1.810016513E0
2.912685653E0,-2.370259613E-1,-9.881169319E0,1.810016513E0
2.914685386E0,-2.370259613E-1,-9.883563995E0,1.807622313E0
2.916685119E0,-2.106897533E-1,-9.895534515E0,1.802833915E0
2.918684919E0,-2.130839527E-1,-9.883563995E0,1.793257117E0
2.920684652E0,-2.226607651E-1,-9.883563995E0,1.798045516E0
2.922684385E0,-2.633621991E-1,-9.917082787E0,1.821987510E0
2.924684118E0,-2.681505978E-1,-9.924264908E0,1.826775908E0
2.926683851E0,-2.657563984E-1,-9.902717590E0,1.829170108E0
2.928683584E0,-2.609679997E-1,-9.854833603E0,1.836352706E0
2.930682817E0,-2.657563984E-1,-9.809343338E0,1.838746905E0
2.932682550E0,-2.825157940E-1,-9.802161217E0,1.824381709E0
2.934682350E0,-3.160346150E-1,-9.775824547E0,1.805228114E0
2.936682083E0,-3.399766386E-1,-9.759065628E0,1.800439715E0
2.938681816E0,-3.734954596E-1,-9.727940559E0,1.783680320E0
2.940681549E0,-3.782838583E-1,-9.715970039E0,1.798045516E0
2.942681282E0,-3.806780577E-1,-9.696816444E0,1.810016513E0
2.944681015E0,-3.902548850E-1,-9.675268173E0,1.812410712E0
2.946680748E0,-3.974374831E-1,-9.644144058E0,1.807622313E0
2.948680548E0,-4.070142806E-1,-9.634567261E0,1.802833915E0
2.950680348E0,-4.309563041E-1,-9.629778862E0,1.790862918E0
2.952680081E0,-4.285621047E-1,-9.608230591E0,1.762132406E0
2.954679814E0,-4.381389022E-1,-9.596260071E0,1.762132406E0
2.956679547E0,-4.261679053E-1,-9.593865395E0,1.778891921E0
2.958679280E0,-4.357447028E-1,-9.572318077E0,1.821987510E0
2.960679013E0,-4.405331016E-1,-9.569923401E0,1.841141105E0
2.962678746E0,-4.381389022E-1,-9.596260071E0,1.881842494E0
2.964677612E0,-4.668693244E-1,-9.605836868E0,1.869871497E0
2.966677345E0,-4.908113480E-1,-9.622595787E0,1.869871497E0
2.968677078E0,-5.195417404E-1,-9.622595787E0,1.862688899E0
2.970677211E0,-5.746083856E-1,-9.670479774E0,1.855506301E0
2.972676944E0,-5.985504389E-1,-9.689633369E0,1.853112102E0
2.974676677E0,-6.464344859E-1,-9.708786964E0,1.831564307E0
2.976676410E0,-6.991068721E-1,-9.732728958E0,1.836352706E0
2.978676143E0,-7.134721279E-1,-9.747094154E0,1.821987510E0
2.980675943E0,-7.278373241E-1,-9.763854027E0,1.812410712E0
2.982675676E0,-7.326257229E-1,-9.773430824E0,1.826775908E0
2.984675409E0,-7.469909191E-1,-9.771036148E0,1.838746905E0
2.986675142E0,-7.589619160E-1,-9.773430824E0,1.841141105E0
2.988674875E0,-7.709329724E-1,-9.785401344E0,1.833958507E0
2.990675108E0,-7.709329724E-1,-9.806949615E0,1.826775908E0
2.992674841E0,-8.164227605E-1,-9.838073730E0,1.793257117E0
2.994674574E0,-8.259995580E-1,-9.838073730E0,1.786074519E0
2.996674374E0,-8.643068075E-1,-9.833285332E0,1.752555609E0
2.998674107E0,-8.810662031E-1,-9.838073730E0,1.759738207E0
3.000673840E0,-8.834604025E-1,-9.835680008E0,1.752555609E0
3.002673573E0,-9.145850539E-1,-9.859622002E0,1.738190413E0
3.004673306E0,-9.313444495E-1,-9.871592522E0,1.735796213E0
3.006673039E0,-9.265560508E-1,-9.873987198E0,1.735796213E0
3.008672772E0,-9.552865028E-1,-9.866804123E0,1.733402014E0
3.010672505E0,-9.648633003E-1,-9.854833603E0,1.721431017E0
3.012672305E0,-9.600749016E-1,-9.845256805E0,1.721431017E0
3.014672038E0,-9.433154464E-1,-9.845256805E0,1.707065821E0
3.016671771E0,-9.313444495E-1,-9.857227325E0,1.709460020E0
3.018671037E0,-9.193734527E-1,-9.845256805E0,1.711854219E0
3.020670770E0,-9.050082564E-1,-9.840468407E0,1.711854219E0
3.022670503E0,-9.121908545E-1,-9.830891609E0,1.723825216E0
3.024671169E0,-9.026140571E-1,-9.816526413E0,1.731007814E0
3.026670969E0,-8.906430602E-1,-9.785401344E0,1.762132406E0
3.028670769E0,-8.930372596E-1,-9.773430824E0,1.759738207E0
3.030671335E0,-8.954314590E-1,-9.756670952E0,1.766920805E0
3.032671068E0,-8.906430602E-1,-9.711181641E0,1.798045516E0
3.034670801E0,-8.762778044E-1,-9.677662849E0,1.812410712E0
3.036670534E0,-8.690952063E-1,-9.658509254E0,1.817199111E0
3.038670267E0,-8.643068075E-1,-9.641749382E0,1.836352706E0
3.040670000E0,-8.547300100E-1,-9.634567261E0,1.831564307E0
3.042669800E0,-8.547300100E-1,-9.617807388E0,1.838746905E0
3.044669600E0,-8.547300100E-1,-9.591471672E0,1.865083098E0
3.046669333E0,-8.547300100E-1,-9.569923401E0,1.867477298E0
3.048669066E0,-8.547300100E-1,-9.529222488E0,1.886630893E0
3.050668799E0,-8.451532125E-1,-9.512462616E0,1.903390408E0
3.052668532E0,-8.403648138E-1,-9.505280495E0,1.917755604E0
3.054668265E0,-8.092401624E-1,-9.507674217E0,1.917755604E0
3.056667998E0,-8.020575643E-1,-9.500492096E0,1.915361404E0
3.058667798E0,-8.020575643E-1,-9.493309021E0,1.910573006E0
3.060667531E0,-8.116343617E-1,-9.469367027E0,1.912967205E0
3.062667264E0,-8.020575643E-1,-9.462183952E0,1.900996208E0
3.064666997E0,-8.020575643E-1,-9.466972351E0,1.889025092E0
3.066666730E0,-7.781155705E-1,-9.471760750E0,1.874659896E0
3.068666463E0,-7.924807668E-1,-9.459790230E0,1.860294700E0
3.070666196E0,-7.781155705E-1,-9.455001831E0,1.841141105E0
3.072665929E0,-7.829039693E-1,-9.445425034E0,1.826775908E0
3.074665729E0,-7.829039693E-1,-9.447818756E0,1.814804912E0
3.076665462E0,-7.757213712E-1,-9.457395554E0,1.805228114E0
3.078665662E0,-7.589619160E-1,-9.483732224E0,1.802833915E0
3.080666495E0,-7.661445141E-1,-9.486125946E0,1.788468719E0
3.082666228E0,-7.805097699E-1,-9.495702744E0,1.783680320E0
3.084665961E0,-7.924807668E-1,-9.486125946E0,1.781286120E0
3.086665694E0,-7.924807668E-1,-9.490914345E0,1.793257117E0
3.088665427E0,-8.092401624E-1,-9.495702744E0,1.776497602E0
3.090664393E0,-8.331822157E-1,-9.490914345E0,1.759738207E0
3.092664126E0,-8.547300100E-1,-9.510068893E0,1.740584612E0
3.094663859E0,-8.690952063E-1,-9.517251015E0,1.735796213E0
3.096663592E0,-8.643068075E-1,-9.514857292E0,1.728613615E0
3.098663325E0,-8.690952063E-1,-9.514857292E0,1.714248419E0
3.100663058E0,-8.834604025E-1,-9.522039413E0,1.716642618E0
3.102662791E0,-8.834604025E-1,-9.534010887E0,1.707065821E0
3.104662524E0,-8.834604025E-1,-9.529222488E0,1.709460020E0
3.106662324E0,-8.882488012E-1,-9.548376083E0,1.699883223E0
3.108662057E0,-9.074024558E-1,-9.567529678E0,1.699883223E0
3.110661790E0,-9.002198577E-1,-9.567529678E0,1.704671621E0
3.112661523E0,-8.930372596E-1,-9.586683273E0,1.709460020E0
3.114661256E0,-8.954314590E-1,-9.613018990E0,1.702277422E0
3.116660989E0,-8.978256583E-1,-9.620202065E0,1.692700624E0
3.118660722E0,-9.145850539E-1,-9.639355659E0,1.690306425E0
3.120660522E0,-9.217676520E-1,-9.646537781E0,1.690306425E0
3.122660322E0,-9.193734527E-1,-9.653720856E0,1.685518026E0
3.124660088E0,-9.074024558E-1,-9.665691376E0,1.687912226E0
3.126659854E0,-9.169792533E-1,-9.682451248E0,1.683123827E0
3.128658687E0,-9.169792533E-1,-9.687239647E0,1.673547029E0
3.130658453E0,-9.097966552E-1,-9.696816444E0,1.654393315E0
3.132658219E0,-9.050082564E-1,-9.699210167E0,1.642422318E0
3.134657985E0,-9.026140571E-1,-9.708786964E0,1.642422318E0
3.136657818E0,-9.002198577E-1,-9.742305756E0,1.649604917E0
3.138657584E0,-8.810662031E-1,-9.759065628E0,1.654393315E0
3.140656250E0,-8.762778044E-1,-9.759065628E0,1.649604917E0
3.142656016E0,-8.834604025E-1,-9.771036148E0,1.663970232E0
3.144655349E0,-8.906430602E-1,-9.787796021E0,1.661576033E0
3.146655115E0,-8.834604025E-1,-9.792584419E0,1.663970232E0
3.148654881E0,-8.786720037E-1,-9.814131737E0,1.673547029E0
3.150654647E0,-8.547300100E-1,-9.833285332E0,1.671152830E0
3.152654480E0,-8.451532125E-1,-9.852438927E0,1.668758631E0
3.154654246E0,-8.475474119E-1,-9.864410400E0,1.678335428E0
3.156654012E0,-8.451532125E-1,-9.876380920E0,1.673547029E0
3.158653778E0,-8.499416113E-1,-9.878775597E0,1.695094824E0
3.160653544E0,-8.667010069E-1,-9.902717590E0,1.719036818E0
3.162653310E0,-8.786720037E-1,-9.902717590E0,1.723825216E0
3.164653076E0,-8.858546019E-1,-9.888352394E0,1.742978811E0
3.166652842E0,-8.954314590E-1,-9.900322914E0,1.747767210E0
3.168652675E0,-8.978256583E-1,-9.890746117E0,1.750161409E0
3.170652441E0,-9.145850539E-1,-9.881169319E0,1.752555609E0
3.172652207E0,-9.313444495E-1,-9.833285332E0,1.776497602E0
3.174651540E0,-9.337386489E-1,-9.811738014E0,1.790862918E0
3.176651306E0,-9.600749016E-1,-9.794978142E0,1.805228114E0
3.178651072E0,-9.648633003E-1,-9.754277229E0,1.833958507E0
3.180650838E0,-9.792284966E-1,-9.730335236E0,1.838746905E0
3.182650604E0,-9.840168953E-1,-9.703998566E0,1.841141105E0
3.184650404E0,-9.983820915E-1,-9.682451248E0,1.853112102E0
3.186649704E0,-9.935936928E-1,-9.668086052E0,1.857900500E0
3.188650370E0,-9.696516991E-1,-9.641749382E0,1.867477298E0
3.190650103E0,-9.720458984E-1,-9.613018990E0,1.886630893E0
3.192649836E0,-9.696516991E-1,-9.586683273E0,1.893813491E0
3.194649569E0,-9.672574997E-1,-9.565135002E0,1.869871497E0
3.196649302E0,-9.768342972E-1,-9.560346603E0,1.872265697E0
3.198649102E0,-9.744400978E-1,-9.557952881E0,1.862688899E0
3.200648902E0,-9.648633003E-1,-9.550769806E0,1.860294700E0
3.202648635E0,-9.552865028E-1,-9.562741280E0,1.862688899E0
3.204648801E0,-9.552865028E-1,-9.562741280E0,1.848323703E0
3.206648534E0,-9.552865028E-1,-9.572318077E0,1.831564307E0
3.208648267E0,-9.481038451E-1,-9.584288597E0,1.812410712E0
3.210648000E0,-9.528923035E-1,-9.601048470E0,1.812410712E0
3.212647733E0,-9.457096457E-1,-9.603442192E0,1.793257117E0
3.214647533E0,-9.433154464E-1,-9.613018990E0,1.769315004E0
3.216647266E0,-9.528923035E-1,-9.636960983E0,1.747767210E0
3.218646999E0,-9.361328483E-1,-9.648932457E0,1.747767210E0
3.220646732E0,-9.289502501E-1,-9.658509254E0,1.745373011E0
3.222646465E0,-9.337386489E-1,-9.675268173E0,1.738190413E0
3.224646198E0,-9.409212470E-1,-9.680056572E0,1.726219416E0
3.226645931E0,-9.409212470E-1,-9.687239647E0,1.721431017E0
3.228645664E0,-9.576807022E-1,-9.706393242E0,1.699883223E0
3.230645464E0,-9.696516991E-1,-9.715970039E0,1.690306425E0
3.232645197E0,-9.672574997E-1,-9.725546837E0,1.697489023E0
3.234645363E0,-9.600749016E-1,-9.754277229E0,1.707065821E0
3.236645096E0,-9.744400978E-1,-9.756670952E0,1.704671621E0
3.238644829E0,-9.744400978E-1,-9.749488831E0,1.697489023E0
3.240644562E0,-9.624691010E-1,-9.732728958E0,1.692700624E0
3.242644295E0,-9.768342972E-1,-9.744700432E0,1.702277422E0
3.244644028E0,-9.792284966E-1,-9.744700432E0,1.702277422E0
3.246643861E0,-9.864110947E-1,-9.732728958E0,1.699883223E0
3.248643594E0,-9.720458984E-1,-9.725546837E0,1.695094824E0
3.250643327E0,-9.864110947E-1,-9.708786964E0,1.702277422E0
3.252643060E0,-9.840168953E-1,-9.715970039E0,1.728613615E0
3.254642793E0,-9.935936928E-1,-9.711181641E0,1.733402014E0
3.256642526E0,-9.888052940E-1,-9.703998566E0,1.738190413E0
3.258642259E0,-9.744400978E-1,-9.701604843E0,1.735796213E0
3.260641992E0,-9.528923035E-1,-9.696816444E0,1.738190413E0
3.262641792E0,-9.504981041E-1,-9.689633369E0,1.738190413E0
3.264641525E0,-9.409212470E-1,-9.696816444E0,1.750161409E0
3.266641258E0,-9.504981041E-1,-9.675268173E0,1.757344007E0
3.268640991E0,-9.504981041E-1,-9.677662849E0,1.750161409E0
3.270640724E0,-9.385270476E-1,-9.665691376E0,1.738190413E0
3.272640457E0,-9.385270476E-1,-9.665691376E0,1.733402014E0
3.274640190E0,-9.289502501E-1,-9.694421768E0,1.733402014E0
3.276639990E0,-8.930372596E-1,-9.699210167E0,1.723825216E0
3.278639790E0,-8.858546019E-1,-9.696816444E0,1.726219416E0
3.280639523E0,-8.978256583E-1,-9.692028046E0,1.731007814E0
3.282639256E0,-8.810662031E-1,-9.682451248E0,1.721431017E0
3.284638989E0,-8.690952063E-1,-9.684844971E0,1.711854219E0
3.286638722E0,-8.451532125E-1,-9.694421768E0,1.690306425E0
3.288638455E0,-8.355764151E-1,-9.689633369E0,1.685518026E0
3.290638188E0,-8.212111592E-1,-9.694421768E0,1.687912226E0
3.292637988E0,-7.805097699E-1,-9.699210167E0,1.697489023E0
3.294637788E0,-7.613561153E-1,-9.696816444E0,1.702277422E0
3.296637521E0,-7.565677166E-1,-9.696816444E0,1.704671621E0
3.298637254E0,-7.445967197E-1,-9.708786964E0,1.685518026E0
3.300636987E0,-7.278373241E-1,-9.711181641E0,1.675941229E0
3.302636720E0,-7.158663273E-1,-9.706393242E0,1.680729628E0
3.304636453E0,-6.943184733E-1,-9.718363762E0,1.699883223E0
3.306636586E0,-6.895300746E-1,-9.730335236E0,1.697489023E0
3.308636386E0,-6.775590777E-1,-9.720758438E0,1.697489023E0
3.310636119E0,-6.631938815E-1,-9.718363762E0,1.704671621E0
3.312635852E0,-6.536170840E-1,-9.744700432E0,1.726219416E0
3.314635585E0,-6.488286853E-1,-9.739912033E0,1.721431017E0
3.316635318E0,-6.560112834E-1,-9.754277229E0,1.731007814E0
3.318635051E0,-6.536170840E-1,-9.763854027E0,1.738190413E0
3.320634784E0,-6.560112834E-1,-9.754277229E0,1.745373011E0
3.322634517E0,-6.488286853E-1,-9.761459351E0,1.752555609E0
3.324634317E0,-6.607996821E-1,-9.761459351E0,1.766920805E0
3.326634050E0,-6.823474765E-1,-9.759065628E0,1.769315004E0
3.328633783E0,-6.895300746E-1,-9.761459351E0,1.778891921E0
3.330633516E0,-6.967126727E-1,-9.761459351E0,1.783680320E0
3.332633249E0,-7.015010715E-1,-9.751882553E0,1.793257117E0
3.334632982E0,-7.206547260E-1,-9.754277229E0,1.790862918E0
3.336632715E0,-7.350199223E-1,-9.754277229E0,1.793257117E0
3.338632448E0,-7.613561153E-1,-9.742305756E0,1.790862918E0
3.340632248E0,-7.733271718E-1,-9.742305756E0,1.783680320E0
3.342631981E0,-7.852981687E-1,-9.732728958E0,1.788468719E0
3.344631714E0,-7.972691655E-1,-9.723152161E0,1.788468719E0
3.346631447E0,-7.805097699E-1,-9.713575363E0,1.774103403E0
3.348631180E0,-7.781155705E-1,-9.713575363E0,1.769315004E0
3.350630913E0,-7.900865674E-1,-9.723152161E0,1.788468719E0
3.352630646E0,-7.876923680E-1,-9.720758438E0,1.805228114E0
3.354630379E0,-7.852981687E-1,-9.718363762E0,1.802833915E0
3.356630179E0,-7.900865674E-1,-9.735123634E0,1.807622313E0
3.358629912E0,-7.805097699E-1,-9.718363762E0,1.817199111E0
3.360629645E0,-7.757213712E-1,-9.708786964E0,1.812410712E0
3.362629378E0,-7.781155705E-1,-9.725546837E0,1.805228114E0
3.364629111E0,-7.733271718E-1,-9.720758438E0,1.817199111E0
3.366628844E0,-7.661445141E-1,-9.715970039E0,1.817199111E0
3.368628577E0,-7.757213712E-1,-9.701604843E0,1.810016513E0
3.370628377E0,-7.900865674E-1,-9.684844971E0,1.798045516E0
3.372628177E0,-7.876923680E-1,-9.682451248E0,1.795651317E0
3.374627943E0,-7.781155705E-1,-9.677662849E0,1.793257117E0
3.376627709E0,-7.805097699E-1,-9.682451248E0,1.778891921E0
3.378627509E0,-7.757213712E-1,-9.680056572E0,1.766920805E0
3.380627275E0,-7.709329724E-1,-9.672874451E0,1.764526606E0
3.382627041E0,-7.876923680E-1,-9.653720856E0,1.766920805E0
3.384626974E0,-7.924807668E-1,-9.644144058E0,1.778891921E0
3.386626807E0,-7.852981687E-1,-9.653720856E0,1.769315004E0
3.388627107E0,-7.852981687E-1,-9.648932457E0,1.764526606E0
3.390626973E0,-8.020575643E-1,-9.632172585E0,1.764526606E0
3.392626839E0,-8.092401624E-1,-9.629778862E0,1.764526606E0
3.394626705E0,-8.116343617E-1,-9.636960983E0,1.771709204E0
3.396626571E0,-8.092401624E-1,-9.617807388E0,1.774103403E0
3.398626437E0,-7.972691655E-1,-9.622595787E0,1.790862918E0
3.400626303E0,-8.020575643E-1,-9.627384186E0,1.783680320E0
3.402626236E0,-7.805097699E-1,-9.627384186E0,1.783680320E0
3.404626169E0,-7.709329724E-1,-9.624990463E0,1.778891921E0
3.406626102E0,-7.757213712E-1,-9.627384186E0,1.774103403E0
3.408626035E0,-7.805097699E-1,-9.615413666E0,1.788468719E0
3.410625968E0,-7.852981687E-1,-9.634567261E0,1.810016513E0
3.412625901E0,-7.757213712E-1,-9.648932457E0,1.807622313E0
3.414625834E0,-7.709329724E-1,-9.646537781E0,1.798045516E0
3.416625767E0,-7.852981687E-1,-9.665691376E0,1.798045516E0
3.418625767E0,-7.876923680E-1,-9.670479774E0,1.807622313E0
3.420625733E0,-7.757213712E-1,-9.665691376E0,1.819593310E0
3.422625699E0,-7.709329724E-1,-9.675268173E0,1.821987510E0
3.424625665E0,-7.709329724E-1,-9.687239647E0,1.819593310E0
3.426625631E0,-7.757213712E-1,-9.684844971E0,1.807622313E0
3.428625597E0,-7.852981687E-1,-9.677662849E0,1.819593310E0
3.430625563E0,-7.829039693E-1,-9.680056572E0,1.819593310E0
3.432625529E0,-7.852981687E-1,-9.677662849E0,1.812410712E0
3.434625529E0,-7.781155705E-1,-9.694421768E0,1.805228114E0
3.436625495E0,-7.709329724E-1,-9.692028046E0,1.802833915E0
3.438625428E0,-7.661445141E-1,-9.684844971E0,1.802833915E0
3.440625394E0,-7.829039693E-1,-9.689633369E0,1.807622313E0
3.442625360E0,-7.733271718E-1,-9.703998566E0,1.845929503E0
3.444625160E0,-7.781155705E-1,-9.706393242E0,1.843535304E0
3.446625126E0,-7.829039693E-1,-9.708786964E0,1.855506301E0
3.448624626E0,-7.733271718E-1,-9.696816444E0,1.865083098E0
3.450624559E0,-7.685387731E-1,-9.696816444E0,1.855506301E0
3.452624492E0,-7.781155705E-1,-9.689633369E0,1.848323703E0
3.454768730E0,-7.829039693E-1,-9.682451248E0,1.857900500E0
3.456768663E0,-7.733271718E-1,-9.689633369E0,1.877054095E0
3.458768596E0,-7.709329724E-1,-9.687239647E0,1.881842494E0
3.460768529E0,-7.517793179E-1,-9.670479774E0,1.874659896E0
3.462768462E0,-7.469909191E-1,-9.672874451E0,1.867477298E0
3.464768395E0,-7.422025204E-1,-9.665691376E0,1.869871497E0
3.466768261E0,-7.350199223E-1,-9.648932457E0,1.855506301E0
3.468768127E0,-7.350199223E-1,-9.651326180E0,1.869871497E0
3.470767993E0,-7.278373241E-1,-9.648932457E0,1.865083098E0
3.472767859E0,-7.086837292E-1,-9.641749382E0,1.853112102E0
3.474767725E0,-7.182605267E-1,-9.627384186E0,1.857900500E0
3.476767591E0,-7.182605267E-1,-9.627384186E0,1.855506301E0
3.478767457E0,-7.254431248E-1,-9.629778862E0,1.860294700E0
3.480767357E0,-7.158663273E-1,-9.639355659E0,1.841141105E0
3.482767190E0,-7.158663273E-1,-9.646537781E0,1.838746905E0
3.484767023E0,-7.038952708E-1,-9.646537781E0,1.829170108E0
3.486766856E0,-6.847416759E-1,-9.636960983E0,1.807622313E0
3.488766689E0,-6.775590777E-1,-9.660902977E0,1.800439715E0
3.490766522E0,-6.775590777E-1,-9.675268173E0,1.795651317E0
3.492766355E0,-7.062895298E-1,-9.670479774E0,1.786074519E0
3.494766188E0,-7.182605267E-1,-9.677662849E0,1.783680320E0
3.496766054E0,-7.278373241E-1,-9.696816444E0,1.793257117E0
3.498765854E0,-7.278373241E-1,-9.708786964E0,1.798045516E0
3.500765654E0,-7.350199223E-1,-9.725546837E0,1.790862918E0
3.502765454E0,-7.445967197E-1,-9.730335236E0,1.800439715E0
3.504765254E0,-7.541735172E-1,-9.739912033E0,1.795651317E0
3.506765054E0,-7.852981687E-1,-9.756670952E0,1.771709204E0
3.508764854E0,-7.876923680E-1,-9.763854027E0,1.771709204E0
3.510764654E0,-7.924807668E-1,-9.763854027E0,1.771709204E0
3.512764454E0,-8.020575643E-1,-9.751882553E0,1.783680320E0
3.514764187E0,-8.188169599E-1,-9.751882553E0,1.790862918E0
3.516763920E0,-8.188169599E-1,-9.754277229E0,1.800439715E0
3.518763653E0,-8.403648138E-1,-9.744700432E0,1.800439715E0
3.520763386E0,-8.379706144E-1,-9.742305756E0,1.795651317E0
3.522763119E0,-8.307880163E-1,-9.727940559E0,1.795651317E0
3.524762852E0,-8.331822157E-1,-9.708786964E0,1.795651317E0
3.526762652E0,-8.355764151E-1,-9.703998566E0,1.805228114E0
3.528762452E0,-8.379706144E-1,-9.696816444E0,1.812410712E0
3.530762185E0,-8.259995580E-1,-9.672874451E0,1.826775908E0
3.532761918E0,-7.996633649E-1,-9.658509254E0,1.838746905E0
3.534761651E0,-7.900865674E-1,-9.656114578E0,1.836352706E0
3.536761384E0,-8.020575643E-1,-9.644144058E0,1.831564307E0
3.538761117E0,-7.757213712E-1,-9.632172585E0,1.819593310E0
3.540760850E0,-7.685387731E-1,-9.639355659E0,1.824381709E0
3.542760650E0,-7.541735172E-1,-9.634567261E0,1.819593310E0
3.544760450E0,-7.541735172E-1,-9.620202065E0,1.826775908E0
3.546760183E0,-7.565677166E-1,-9.634567261E0,1.829170108E0
3.548759916E0,-7.374141216E-1,-9.653720856E0,1.824381709E0
3.550759649E0,-7.086837292E-1,-9.648932457E0,1.812410712E0
3.552759382E0,-7.062895298E-1,-9.663297653E0,1.817199111E0
3.554759115E0,-6.943184733E-1,-9.653720856E0,1.824381709E0
3.556758848E0,-6.871358752E-1,-9.653720856E0,1.821987510E0
3.558758648E0,-6.919242740E-1,-9.675268173E0,1.812410712E0
3.560758381E0,-6.799532771E-1,-9.684844971E0,1.826775908E0
3.562758114E0,-6.703764796E-1,-9.696816444E0,1.826775908E0
3.564757847E0,-6.727706790E-1,-9.701604843E0,1.805228114E0
3.566757580E0,-6.751648784E-1,-9.689633369E0,1.812410712E0
3.568757313E0,-6.751648784E-1,-9.692028046E0,1.817199111E0
3.570757046E0,-6.440402865E-1,-9.708786964E0,1.812410712E0
3.572756779E0,-6.536170840E-1,-9.718363762E0,1.805228114E0
3.574756579E0,-6.560112834E-1,-9.720758438E0,1.807622313E0
3.576756312E0,-6.584054828E-1,-9.749488831E0,1.786074519E0
3.578756045E0,-6.703764796E-1,-9.761459351E0,1.786074519E0
3.580755778E0,-6.823474765E-1,-9.761459351E0,1.786074519E0
3.582755511E0,-6.631938815E-1,-9.749488831E0,1.783680320E0
3.584755244E0,-6.823474765E-1,-9.737517357E0,1.781286120E0
3.586754977E0,-6.871358752E-1,-9.742305756E0,1.786074519E0
3.588754710E0,-6.775590777E-1,-9.747094154E0,1.795651317E0
3.590754510E0,-6.895300746E-1,-9.732728958E0,1.817199111E0
3.592754243E0,-6.895300746E-1,-9.730335236E0,1.814804912E0
3.594753976E0,-6.919242740E-1,-9.725546837E0,1.812410712E0
3.596753709E0,-6.775590777E-1,-9.692028046E0,1.810016513E0
3.598753442E0,-6.775590777E-1,-9.682451248E0,1.810016513E0
3.600753175E0,-6.751648784E-1,-9.680056572E0,1.819593310E0
3.602752908E0,-6.655880809E-1,-9.672874451E0,1.817199111E0
3.604752641E0,-6.440402865E-1,-9.675268173E0,1.819593310E0
3.606752441E0,-6.296750307E-1,-9.665691376E0,1.821987510E0
3.608752174E0,-6.368576288E-1,-9.651326180E0,1.821987510E0
3.610751907E0,-6.296750307E-1,-9.656114578E0,1.824381709E0
3.612751640E0,-6.248866320E-1,-9.651326180E0,1.826775908E0
3.614751373E0,-6.224924326E-1,-9.651326180E0,1.824381709E0
3.616751106E0,-6.033388376E-1,-9.665691376E0,1.831564307E0
3.618750839E0,-6.081272364E-1,-9.680056572E0,1.841141105E0
3.620750639E0,-6.033388376E-1,-9.682451248E0,1.848323703E0
3.622750439E0,-6.033388376E-1,-9.699210167E0,1.841141105E0
3.624750172E0,-6.009446383E-1,-9.699210167E0,1.819593310E0
3.626749905E0,-5.913678408E-1,-9.720758438E0,1.833958507E0
3.628749638E0,-5.841852427E-1,-9.725546837E0,1.838746905E0
3.630749371E0,-6.081272364E-1,-9.713575363E0,1.829170108E0
3.632749104E0,-6.105214357E-1,-9.723152161E0,1.819593310E0
3.634748837E0,-5.985504389E-1,-9.730335236E0,1.798045516E0
3.636748637E0,-5.889736414E-1,-9.730335236E0,1.783680320E0
3.638748370E0,-5.841852427E-1,-9.735123634E0,1.783680320E0
3.640748103E0,-5.841852427E-1,-9.742305756E0,1.793257117E0
3.642747836E0,-5.770025849E-1,-9.732728958E0,1.790862918E0
3.644747569E0,-5.865794420E-1,-9.732728958E0,1.783680320E0
3.646747302E0,-5.913678408E-1,-9.737517357E0,1.795651317E0
3.648747035E0,-6.105214357E-1,-9.708786964E0,1.778891921E0
3.650746768E0,-6.153098345E-1,-9.699210167E0,1.771709204E0
3.652746568E0,-6.224924326E-1,-9.708786964E0,1.769315004E0
3.654746301E0,-6.344634295E-1,-9.701604843E0,1.750161409E0
3.656746034E0,-6.296750307E-1,-9.696816444E0,1.750161409E0
3.658745767E0,-6.224924326E-1,-9.675268173E0,1.742978811E0
3.660745500E0,-6.248866320E-1,-9.658509254E0,1.747767210E0
3.662745233E0,-6.320692301E-1,-9.658509254E0,1.747767210E0
3.664744966E0,-6.512228847E-1,-9.646537781E0,1.742978811E0
3.666744266E0,-6.536170840E-1,-9.634567261E0,1.740584612E0
3.668744066E0,-6.488286853E-1,-9.627384186E0,1.738190413E0
3.670743799E0,-6.344634295E-1,-9.634567261E0,1.709460020E0
3.672743532E0,-6.320692301E-1,-9.639355659E0,1.714248419E0
3.674743265E0,-6.248866320E-1,-9.629778862E0,1.733402014E0
3.676742998E0,-6.248866320E-1,-9.632172585E0,1.740584612E0
3.678742731E0,-6.272808313E-1,-9.641749382E0,1.735796213E0
3.680742464E0,-6.344634295E-1,-9.651326180E0,1.726219416E0
3.682742197E0,-6.129156351E-1,-9.644144058E0,1.726219416E0
3.684741997E0,-6.105214357E-1,-9.646537781E0,1.723825216E0
3.686741730E0,-6.248866320E-1,-9.651326180E0,1.726219416E0
3.688741463E0,-6.272808313E-1,-9.651326180E0,1.728613615E0
3.690740263E0,-6.248866320E-1,-9.658509254E0,1.721431017E0
3.692739996E0,-6.081272364E-1,-9.677662849E0,1.711854219E0
3.694739729E0,-6.177040339E-1,-9.696816444E0,1.716642618E0
3.696739029E0,-6.153098345E-1,-9.696816444E0,1.716642618E0
3.698738829E0,-6.009446383E-1,-9.699210167E0,1.719036818E0
3.700738629E0,-6.177040339E-1,-9.706393242E0,1.735796213E0
3.702738362E0,-6.177040339E-1,-9.701604843E0,1.733402014E0
3.704738095E0,-6.177040339E-1,-9.718363762E0,1.709460020E0
3.706737828E0,-6.200982332E-1,-9.718363762E0,1.728613615E0
3.708737561E0,-6.224924326E-1,-9.713575363E0,1.747767210E0
3.710737294E0,-6.488286853E-1,-9.718363762E0,1.742978811E0
3.712737027E0,-6.440402865E-1,-9.711181641E0,1.754949808E0
3.714736827E0,-6.392518282E-1,-9.703998566E0,1.757344007E0
3.716736627E0,-6.440402865E-1,-9.701604843E0,1.750161409E0
3.718736360E0,-6.631938815E-1,-9.699210167E0,1.759738207E0
3.720736093E0,-6.799532771E-1,-9.703998566E0,1.754949808E0
3.722735826E0,-6.607996821E-1,-9.715970039E0,1.747767210E0
3.724735559E0,-6.512228847E-1,-9.713575363E0,1.747767210E0
3.726735725E0,-6.560112834E-1,-9.713575363E0,1.759738207E0
3.728735458E0,-6.607996821E-1,-9.708786964E0,1.750161409E0
3.730735258E0,-6.727706790E-1,-9.708786964E0,1.759738207E0
3.732734991E0,-6.775590777E-1,-9.718363762E0,1.771709204E0
3.734734724E0,-6.727706790E-1,-9.703998566E0,1.778891921E0
3.736734457E0,-6.871358752E-1,-9.701604843E0,1.778891921E0
3.738734190E0,-6.823474765E-1,-9.708786964E0,1.783680320E0
3.740733923E0,-6.919242740E-1,-9.699210167E0,1.793257117E0
3.742733656E0,-6.895300746E-1,-9.708786964E0,1.790862918E0
3.744733389E0,-6.799532771E-1,-9.699210167E0,1.793257117E0
3.746733189E0,-6.751648784E-1,-9.701604843E0,1.798045516E0
3.748732922E0,-6.775590777E-1,-9.699210167E0,1.800439715E0
3.750733588E0,-6.823474765E-1,-9.692028046E0,1.810016513E0
3.752733321E0,-6.967126727E-1,-9.703998566E0,1.831564307E0
3.754733054E0,-6.967126727E-1,-9.703998566E0,1.838746905E0
3.756733220E0,-7.110779285E-1,-9.711181641E0,1.836352706E0
3.758732953E0,-6.967126727E-1,-9.706393242E0,1.824381709E0
3.760732686E0,-6.991068721E-1,-9.689633369E0,1.821987510E0
3.762731952E0,-7.038952708E-1,-9.699210167E0,1.821987510E0
3.764731685E0,-7.015010715E-1,-9.699210167E0,1.831564307E0
3.766731418E0,-7.062895298E-1,-9.696816444E0,1.836352706E0
3.768731151E0,-7.038952708E-1,-9.703998566E0,1.829170108E0
3.770730884E0,-7.038952708E-1,-9.703998566E0,1.833958507E0
3.772730617E0,-7.015010715E-1,-9.711181641E0,1.836352706E0
3.774730350E0,-7.015010715E-1,-9.701604843E0,1.831564307E0
3.776730083E0,-7.015010715E-1,-9.694421768E0,1.841141105E0
3.778729883E0,-6.967126727E-1,-9.696816444E0,1.841141105E0
3.780729616E0,-7.110779285E-1,-9.682451248E0,1.838746905E0
3.782729349E0,-7.015010715E-1,-9.680056572E0,1.829170108E0
3.784729082E0,-6.967126727E-1,-9.668086052E0,1.812410712E0
3.786728815E0,-6.847416759E-1,-9.675268173E0,1.790862918E0
3.788728548E0,-6.799532771E-1,-9.672874451E0,1.788468719E0
3.790728281E0,-6.871358752E-1,-9.677662849E0,1.786074519E0
3.792728081E0,-6.943184733E-1,-9.672874451E0,1.793257117E0
3.794727881E0,-6.847416759E-1,-9.668086052E0,1.807622313E0
3.796727614E0,-6.775590777E-1,-9.675268173E0,1.790862918E0
3.798727347E0,-6.655880809E-1,-9.668086052E0,1.776497602E0
3.800727080E0,-6.799532771E-1,-9.668086052E0,1.771709204E0
3.802726813E0,-6.775590777E-1,-9.677662849E0,1.781286120E0
3.804726546E0,-6.775590777E-1,-9.692028046E0,1.788468719E0
3.806726279E0,-6.751648784E-1,-9.711181641E0,1.783680320E0
3.808726079E0,-6.703764796E-1,-9.708786964E0,1.783680320E0
3.810725812E0,-6.943184733E-1,-9.699210167E0,1.783680320E0
3.812725545E0,-6.895300746E-1,-9.706393242E0,1.793257117E0
3.814725278E0,-6.560112834E-1,-9.703998566E0,1.788468719E0
3.816725011E0,-6.679822803E-1,-9.730335236E0,1.795651317E0
3.818724744E0,-6.727706790E-1,-9.732728958E0,1.802833915E0
3.820724477E0,-6.703764796E-1,-9.742305756E0,1.807622313E0
3.822724743E0,-6.895300746E-1,-9.749488831E0,1.800439715E0
3.824724543E0,-6.895300746E-1,-9.744700432E0,1.805228114E0
3.826724276E0,-6.847416759E-1,-9.759065628E0,1.814804912E0
3.828724009E0,-6.823474765E-1,-9.759065628E0,1.826775908E0
3.830723742E0,-6.823474765E-1,-9.766247749E0,1.826775908E0
3.832723475E0,-6.871358752E-1,-9.756670952E0,1.848323703E0
3.834723208E0,-6.799532771E-1,-9.768642426E0,1.865083098E0
3.836722941E0,-6.799532771E-1,-9.763854027E0,1.869871497E0
3.838722674E0,-6.775590777E-1,-9.751882553E0,1.869871497E0
3.840722474E0,-6.679822803E-1,-9.756670952E0,1.869871497E0
3.842722240E0,-6.655880809E-1,-9.768642426E0,1.874659896E0
3.844722006E0,-6.823474765E-1,-9.742305756E0,1.889025092E0
3.846721772E0,-6.751648784E-1,-9.737517357E0,1.889025092E0
3.848721538E0,-6.727706790E-1,-9.718363762E0,1.889025092E0
3.850721304E0,-6.727706790E-1,-9.703998566E0,1.893813491E0
3.852721070E0,-6.607996821E-1,-9.694421768E0,1.889025092E0
3.854720836E0,-6.416460276E-1,-9.675268173E0,1.891419291E0
3.856720669E0,-6.177040339E-1,-9.668086052E0,1.898601890E0
3.858720435E0,-6.105214357E-1,-9.660902977E0,1.908178806E0
3.860720201E0,-5.817909837E-1,-9.668086052E0,1.898601890E0
3.862719967E0,-5.841852427E-1,-9.636960983E0,1.893813491E0
3.864719733E0,-5.793967843E-1,-9.634567261E0,1.891419291E0
3.866719499E0,-5.530605912E-1,-9.632172585E0,1.881842494E0
3.868719265E0,-5.530605912E-1,-9.641749382E0,1.891419291E0
3.870719098E0,-5.363011956E-1,-9.644144058E0,1.893813491E0
3.872718931E0,-5.099649429E-1,-9.644144058E0,1.879448295E0
3.874718697E0,-4.908113480E-1,-9.648932457E0,1.867477298E0
3.876718463E0,-4.812345505E-1,-9.651326180E0,1.865083098E0
3.878718229E0,-4.644751251E-1,-9.653720856E0,1.872265697E0
3.880717995E0,-4.453215301E-1,-9.658509254E0,1.865083098E0
3.882717761E0,-4.477157295E-1,-9.663297653E0,1.853112102E0
3.884717527E0,-4.429273009E-1,-9.670479774E0,1.836352706E0
3.886717360E0,-4.333505034E-1,-9.675268173E0,1.836352706E0
3.888717126E0,-4.309563041E-1,-9.682451248E0,1.838746905E0
3.890716892E0,-4.165911078E-1,-9.711181641E0,1.833958507E0
3.892716658E0,-4.213795066E-1,-9.720758438E0,1.838746905E0
3.894716424E0,-4.261679053E-1,-9.732728958E0,1.824381709E0
3.896716190E0,-4.309563041E-1,-9.742305756E0,1.819593310E0
3.898715956E0,-4.333505034E-1,-9.747094154E0,1.821987510E0
3.900715722E0,-4.453215301E-1,-9.747094154E0,1.814804912E0
3.902715522E0,-4.453215301E-1,-9.747094154E0,1.810016513E0
3.904715255E0,-4.548983276E-1,-9.744700432E0,1.810016513E0
3.906714988E0,-4.572925270E-1,-9.749488831E0,1.805228114E0
3.908714721E0,-4.740519226E-1,-9.759065628E0,1.810016513E0
3.910714454E0,-4.860229492E-1,-9.754277229E0,1.807622313E0
3.912714187E0,-5.051765442E-1,-9.742305756E0,1.795651317E0
3.914713920E0,-5.219359994E-1,-9.747094154E0,1.790862918E0
3.916713653E0,-5.123591423E-1,-9.735123634E0,1.800439715E0
3.918713453E0,-5.099649429E-1,-9.742305756E0,1.810016513E0
3.920713186E0,-5.003881454E-1,-9.732728958E0,1.814804912E0
3.922712919E0,-4.955997467E-1,-9.735123634E0,1.807622313E0
3.924712652E0,-4.979939461E-1,-9.723152161E0,1.810016513E0
3.926712385E0,-5.171475410E-1,-9.708786964E0,1.807622313E0
3.928712118E0,-5.075707436E-1,-9.701604843E0,1.814804912E0
3.930711651E0,-4.955997467E-1,-9.682451248E0,1.810016513E0
3.932711384E0,-4.932055473E-1,-9.672874451E0,1.812410712E0
3.934711184E0,-4.932055473E-1,-9.663297653E0,1.814804912E0
3.936710917E0,-4.908113480E-1,-9.653720856E0,1.814804912E0
3.938710650E0,-4.788403511E-1,-9.636960983E0,1.812410712E0
3.940710383E0,-4.764461517E-1,-9.636960983E0,1.817199111E0
3.942710116E0,-4.716577232E-1,-9.636960983E0,1.817199111E0
3.944709849E0,-4.453215301E-1,-9.622595787E0,1.812410712E0
3.946709582E0,-4.477157295E-1,-9.632172585E0,1.810016513E0
3.948709382E0,-4.453215301E-1,-9.646537781E0,1.821987510E0
3.950709182E0,-4.477157295E-1,-9.639355659E0,1.814804912E0
3.952708915E0,-4.429273009E-1,-9.663297653E0,1.810016513E0
3.954708648E0,-4.453215301E-1,-9.677662849E0,1.836352706E0
3.956708381E0,-4.309563041E-1,-9.670479774E0,1.850717902E0
3.958708114E0,-4.261679053E-1,-9.675268173E0,1.848323703E0
3.960707847E0,-4.141969085E-1,-9.684844971E0,1.848323703E0
3.962707580E0,-4.165911078E-1,-9.687239647E0,1.848323703E0
3.964707380E0,-4.405331016E-1,-9.706393242E0,1.845929503E0
3.966707180E0,-4.429273009E-1,-9.701604843E0,1.850717902E0
3.968706913E0,-4.357447028E-1,-9.696816444E0,1.853112102E0
3.970706646E0,-4.309563041E-1,-9.692028046E0,1.867477298E0
3.972706379E0,-4.429273009E-1,-9.703998566E0,1.867477298E0
3.974706112E0,-4.405331016E-1,-9.703998566E0,1.862688899E0
3.976705845E0,-4.596867263E-1,-9.694421768E0,1.867477298E0
3.978705011E0,-4.429273009E-1,-9.668086052E0,1.867477298E0
3.980704811E0,-4.477157295E-1,-9.668086052E0,1.867477298E0
3.982704544E0,-4.501099288E-1,-9.653720856E0,1.872265697E0
3.984704277E0,-4.596867263E-1,-9.636960983E0,1.881842494E0
3.986704010E0,-4.668693244E-1,-9.629778862E0,1.872265697E0
3.988703743E0,-4.716577232E-1,-9.615413666E0,1.869871497E0
3.990703676E0,-4.836287498E-1,-9.605836868E0,1.874659896E0
3.992703409E0,-4.884171486E-1,-9.605836868E0,1.881842494E0
3.994703142E0,-5.051765442E-1,-9.586683273E0,1.877054095E0
3.996702942E0,-5.027823448E-1,-9.572318077E0,1.855506301E0
3.998702675E0,-5.051765442E-1,-9.569923401E0,1.850717902E0
4.000702408E0,-5.123591423E-1,-9.581894875E0,1.855506301E0
4.002702141E0,-5.147533417E-1,-9.586683273E0,1.857900500E0
4.004701874E0,-5.171475410E-1,-9.581894875E0,1.845929503E0
4.006701607E0,-5.291185975E-1,-9.586683273E0,1.841141105E0
4.008701340E0,-5.434837937E-1,-9.586683273E0,1.819593310E0
4.010701073E0,-5.458779931E-1,-9.601048470E0,1.817199111E0
4.012700873E0,-5.554547906E-1,-9.617807388E0,1.814804912E0
4.014700606E0,-5.626373887E-1,-9.629778862E0,1.812410712E0
4.016700339E0,-5.722141862E-1,-9.644144058E0,1.783680320E0
4.018700072E0,-5.793967843E-1,-9.653720856E0,1.769315004E0
4.020699805E0,-5.937620401E-1,-9.663297653E0,1.754949808E0
4.022699538E0,-6.129156351E-1,-9.670479774E0,1.752555609E0
4.024699271E0,-6.200982332E-1,-9.684844971E0,1.742978811E0
4.026699004E0,-6.320692301E-1,-9.694421768E0,1.735796213E0
4.028698804E0,-6.536170840E-1,-9.701604843E0,1.723825216E0
4.030698537E0,-6.631938815E-1,-9.692028046E0,1.719036818E0
4.032698170E0,-6.703764796E-1,-9.694421768E0,1.719036818E0
4.034697903E0,-6.799532771E-1,-9.715970039E0,1.711854219E0
4.036697636E0,-6.943184733E-1,-9.701604843E0,1.704671621E0
4.038697936E0,-6.871358752E-1,-9.701604843E0,1.707065821E0
4.040697669E0,-6.895300746E-1,-9.708786964E0,1.702277422E0
4.042697469E0,-7.086837292E-1,-9.720758438E0,1.709460020E0
4.044697269E0,-7.134721279E-1,-9.713575363E0,1.709460020E0
4.046697002E0,-7.158663273E-1,-9.718363762E0,1.709460020E0
4.048696735E0,-7.422025204E-1,-9.708786964E0,1.702277422E0
4.050696468E0,-7.541735172E-1,-9.713575363E0,1.707065821E0
4.052696201E0,-7.541735172E-1,-9.711181641E0,1.709460020E0
4.054695934E0,-7.589619160E-1,-9.715970039E0,1.714248419E0
4.056695667E0,-7.685387731E-1,-9.713575363E0,1.716642618E0
4.058695467E0,-7.685387731E-1,-9.715970039E0,1.733402014E0
4.060695200E0,-7.613561153E-1,-9.723152161E0,1.752555609E0
4.062694933E0,-7.661445141E-1,-9.723152161E0,1.752555609E0
4.064694666E0,-7.757213712E-1,-9.723152161E0,1.762132406E0
4.066694399E0,-7.637503147E-1,-9.715970039E0,1.769315004E0
4.068694132E0,-7.613561153E-1,-9.701604843E0,1.764526606E0
4.070693865E0,-7.589619160E-1,-9.670479774E0,1.774103403E0
4.072693598E0,-7.469909191E-1,-9.668086052E0,1.776497602E0
4.074693398E0,-7.517793179E-1,-9.684844971E0,1.795651317E0
4.076693131E0,-7.757213712E-1,-9.687239647E0,1.812410712E0
4.078692864E0,-7.781155705E-1,-9.677662849E0,1.812410712E0
4.080692864E0,-7.948749661E-1,-9.670479774E0,1.826775908E0
4.082692597E0,-8.068459630E-1,-9.672874451E0,1.807622313E0
4.084692330E0,-8.092401624E-1,-9.663297653E0,1.817199111E0
4.086692063E0,-7.972691655E-1,-9.634567261E0,1.821987510E0
4.088691796E0,-8.020575643E-1,-9.617807388E0,1.833958507E0
4.090691596E0,-7.972691655E-1,-9.617807388E0,1.829170108E0
4.092691429E0,-7.948749661E-1,-9.622595787E0,1.829170108E0
4.094691162E0,-7.781155705E-1,-9.617807388E0,1.831564307E0
4.096690895E0,-7.781155705E-1,-9.605836868E0,1.841141105E0
4.098690628E0,-7.757213712E-1,-9.586683273E0,1.845929503E0
4.100690361E0,-7.661445141E-1,-9.572318077E0,1.855506301E0
4.102690094E0,-7.685387731E-1,-9.579500198E0,1.865083098E0
4.104689827E0,-7.709329724E-1,-9.574711800E0,1.860294700E0
4.106689627E0,-7.637503147E-1,-9.562741280E0,1.850717902E0
4.108689360E0,-7.613561153E-1,-9.560346603E0,1.845929503E0
4.110689093E0,-7.661445141E-1,-9.577106476E0,1.836352706E0
4.112688826E0,-7.661445141E-1,-9.567529678E0,1.843535304E0
4.114688559E0,-7.685387731E-1,-9.562741280E0,1.843535304E0
4.116688292E0,-7.565677166E-1,-9.586683273E0,1.831564307E0
4.118688025E0,-7.565677166E-1,-9.589076996E0,1.829170108E0
4.120687825E0,-7.637503147E-1,-9.596260071E0,1.833958507E0
4.122687625E0,-7.805097699E-1,-9.610625267E0,1.829170108E0
4.124687358E0,-7.661445141E-1,-9.610625267E0,1.826775908E0
4.126687091E0,-7.685387731E-1,-9.632172585E0,1.810016513E0
4.128686824E0,-7.733271718E-1,-9.656114578E0,1.802833915E0
4.130686557E0,-7.805097699E-1,-9.663297653E0,1.786074519E0
4.132686290E0,-7.852981687E-1,-9.699210167E0,1.774103403E0
4.134686023E0,-7.757213712E-1,-9.715970039E0,1.754949808E0
4.136685823E0,-7.709329724E-1,-9.718363762E0,1.754949808E0
4.138685556E0,-7.852981687E-1,-9.747094154E0,1.754949808E0
4.140685022E0,-8.020575643E-1,-9.737517357E0,1.742978811E0
4.142684755E0,-8.068459630E-1,-9.735123634E0,1.745373011E0
4.144684488E0,-8.140285611E-1,-9.732728958E0,1.738190413E0
4.146684221E0,-8.140285611E-1,-9.727940559E0,1.728613615E0
4.148683954E0,-8.092401624E-1,-9.737517357E0,1.726219416E0
4.150683687E0,-8.068459630E-1,-9.737517357E0,1.714248419E0
4.152683487E0,-8.331822157E-1,-9.711181641E0,1.702277422E0
4.154683220E0,-8.283938169E-1,-9.711181641E0,1.690306425E0
4.156682953E0,-8.331822157E-1,-9.703998566E0,1.697489023E0
4.158682686E0,-8.236053586E-1,-9.694421768E0,1.711854219E0
4.160682419E0,-8.116343617E-1,-9.706393242E0,1.707065821E0
4.162682152E0,-8.164227605E-1,-9.687239647E0,1.709460020E0
4.164681885E0,-8.188169599E-1,-9.692028046E0,1.707065821E0
4.166681618E0,-8.164227605E-1,-9.689633369E0,1.716642618E0
4.168681418E0,-8.068459630E-1,-9.689633369E0,1.719036818E0
4.170681151E0,-7.972691655E-1,-9.687239647E0,1.731007814E0
4.172680451E0,-7.852981687E-1,-9.684844971E0,1.735796213E0
4.174680184E0,-7.661445141E-1,-9.696816444E0,1.747767210E0
4.176679917E0,-7.589619160E-1,-9.682451248E0,1.735796213E0
4.178679650E0,-7.398083210E-1,-9.672874451E0,1.738190413E0
4.180679383E0,-7.302315235E-1,-9.687239647E0,1.759738207E0
4.182679116E0,-7.230489254E-1,-9.687239647E0,1.766920805E0
4.184678916E0,-7.182605267E-1,-9.699210167E0,1.764526606E0
4.186678649E0,-7.015010715E-1,-9.723152161E0,1.764526606E0
4.188678382E0,-6.967126727E-1,-9.725546837E0,1.766920805E0
4.190678115E0,-6.823474765E-1,-9.718363762E0,1.771709204E0
4.192677848E0,-6.895300746E-1,-9.747094154E0,1.778891921E0
4.194677581E0,-6.847416759E-1,-9.759065628E0,1.776497602E0
4.196677314E0,-6.655880809E-1,-9.775824547E0,1.781286120E0
4.198677114E0,-6.607996821E-1,-9.773430824E0,1.778891921E0
4.200676914E0,-6.607996821E-1,-9.787796021E0,1.774103403E0
4.202676647E0,-6.536170840E-1,-9.778219223E0,1.762132406E0
4.204676380E0,-6.272808313E-1,-9.766247749E0,1.778891921E0
4.206676113E0,-6.153098345E-1,-9.763854027E0,1.774103403E0
4.208675846E0,-6.009446383E-1,-9.763854027E0,1.759738207E0
4.210675579E0,-5.937620401E-1,-9.739912033E0,1.752555609E0
4.212675312E0,-5.889736414E-1,-9.742305756E0,1.754949808E0
4.214675112E0,-5.770025849E-1,-9.744700432E0,1.745373011E0
4.216674912E0,-5.746083856E-1,-9.725546837E0,1.745373011E0
4.218674645E0,-5.722141862E-1,-9.723152161E0,1.742978811E0
4.220674378E0,-5.482721925E-1,-9.708786964E0,1.723825216E0
4.222674111E0,-5.626373887E-1,-9.715970039E0,1.726219416E0
4.224673844E0,-5.482721925E-1,-9.715970039E0,1.731007814E0
4.226673577E0,-5.339069963E-1,-9.692028046E0,1.738190413E0
4.228673310E0,-5.051765442E-1,-9.682451248E0,1.733402014E0
4.230673110E0,-5.099649429E-1,-9.684844971E0,1.742978811E0
4.232673276E0,-5.171475410E-1,-9.701604843E0,1.742978811E0
4.234673009E0,-5.267243981E-1,-9.701604843E0,1.776497602E0
4.236672742E0,-5.219359994E-1,-9.699210167E0,1.781286120E0
4.238672475E0,-5.171475410E-1,-9.701604843E0,1.795651317E0
4.240672208E0,-5.027823448E-1,-9.689633369E0,1.798045516E0
4.242671941E0,-4.979939461E-1,-9.699210167E0,1.788468719E0
4.244671674E0,-4.979939461E-1,-9.682451248E0,1.807622313E0
4.246671474E0,-5.003881454E-1,-9.684844971E0,1.807622313E0
4.248671240E0,-4.955997467E-1,-9.696816444E0,1.819593310E0
4.250671006E0,-4.932055473E-1,-9.692028046E0,1.824381709E0
4.252670772E0,-4.955997467E-1,-9.699210167E0,1.829170108E0
4.254670538E0,-5.099649429E-1,-9.706393242E0,1.838746905E0
4.256670304E0,-4.955997467E-1,-9.677662849E0,1.838746905E0
4.258669937E0,-4.979939461E-1,-9.670479774E0,1.843535304E0
4.260669703E0,-4.908113480E-1,-9.663297653E0,1.831564307E0
4.262669536E0,-4.788403511E-1,-9.663297653E0,1.843535304E0
4.264669302E0,-4.788403511E-1,-9.665691376E0,1.848323703E0
4.266669068E0,-4.836287498E-1,-9.675268173E0,1.867477298E0
4.268668834E0,-4.668693244E-1,-9.684844971E0,1.867477298E0
4.270668600E0,-4.572925270E-1,-9.684844971E0,1.865083098E0
4.272668366E0,-4.572925270E-1,-9.694421768E0,1.867477298E0
4.274668132E0,-4.668693244E-1,-9.711181641E0,1.881842494E0
4.276667898E0,-4.548983276E-1,-9.718363762E0,1.879448295E0
4.278667731E0,-4.525041282E-1,-9.735123634E0,1.889025092E0
4.280667497E0,-4.501099288E-1,-9.771036148E0,1.891419291E0
4.282667263E0,-4.453215301E-1,-9.768642426E0,1.898601890E0
4.284667029E0,-4.165911078E-1,-9.761459351E0,1.908178806E0
4.286666795E0,-4.237737060E-1,-9.766247749E0,1.908178806E0
4.288666561E0,-4.285621047E-1,-9.771036148E0,1.900996208E0
4.290666327E0,-4.070142806E-1,-9.783007622E0,1.917755604E0
4.292666160E0,-3.926490843E-1,-9.785401344E0,1.932120800E0
4.294665126E0,-3.902548850E-1,-9.787796021E0,1.929726601E0
4.296664892E0,-3.974374831E-1,-9.790189743E0,1.908178806E0
4.298665125E0,-3.974374831E-1,-9.792584419E0,1.900996208E0
4.300664891E0,-3.926490843E-1,-9.775824547E0,1.903390408E0
4.302664657E0,-3.854664862E-1,-9.761459351E0,1.893813491E0
4.304664423E0,-3.878606856E-1,-9.759065628E0,1.891419291E0
4.306664189E0,-4.046200812E-1,-9.754277229E0,1.908178806E0
4.308663989E0,-3.830722570E-1,-9.730335236E0,1.889025092E0
4.310663722E0,-3.711012602E-1,-9.730335236E0,1.877054095E0
4.312663455E0,-3.663128614E-1,-9.708786964E0,1.879448295E0
4.314663188E0,-3.639186621E-1,-9.703998566E0,1.898601890E0
4.316662921E0,-3.615244627E-1,-9.699210167E0,1.896207690E0
4.318662787E0,-3.639186621E-1,-9.694421768E0,1.886630893E0
4.320662520E0,-3.519476354E-1,-9.670479774E0,1.881842494E0
4.322662253E0,-3.399766386E-1,-9.663297653E0,1.869871497E0
4.324661619E0,-3.136404157E-1,-9.660902977E0,1.865083098E0
4.326661352E0,-3.256114423E-1,-9.648932457E0,1.850717902E0
4.328661085E0,-3.208230138E-1,-9.665691376E0,1.838746905E0
4.330660818E0,-3.351882398E-1,-9.689633369E0,1.829170108E0
4.332660551E0,-3.256114423E-1,-9.708786964E0,1.807622313E0
4.334660284E0,-3.280056417E-1,-9.730335236E0,1.798045516E0
4.336660017E0,-3.447650373E-1,-9.773430824E0,1.783680320E0
4.338659750E0,-3.519476354E-1,-9.787796021E0,1.793257117E0
4.340659550E0,-3.615244627E-1,-9.790189743E0,1.795651317E0
4.342659283E0,-3.782838583E-1,-9.792584419E0,1.769315004E0
4.344659016E0,-3.806780577E-1,-9.830891609E0,1.757344007E0
4.346658749E0,-3.711012602E-1,-9.842862129E0,1.757344007E0
4.348658482E0,-3.423708379E-1,-9.854833603E0,1.733402014E0
4.350658215E0,-2.920926213E-1,-9.864410400E0,1.709460020E0
4.352657948E0,-2.585737705E-1,-9.902717590E0,1.704671621E0
4.354658548E0,-1.891419291E-1,-9.921871185E0,1.742978811E0
4.356658348E0,-1.699883193E-1,-9.917082787E0,1.790862918E0
4.358657614E0,-1.364694983E-1,-9.895534515E0,1.874659896E0
4.360657347E0,-1.292868853E-1,-9.902717590E0,1.908178806E0
4.362657080E0,-1.364694983E-1,-9.912294388E0,1.900996208E0
4.364656813E0,-1.651999205E-1,-9.914688110E0,1.896207690E0
4.366656513E0,-1.699883193E-1,-9.876380920E0,1.939303398E0
4.368656246E0,-1.843535304E-1,-9.866804123E0,1.968033791E0
4.370656046E0,-2.082955539E-1,-9.826103210E0,2.011129379E0
4.372655846E0,-2.466027737E-1,-9.799766541E0,2.037465572E0
4.374655579E0,-2.753331959E-1,-9.778219223E0,2.042253971E0
4.376655312E0,-3.256114423E-1,-9.754277229E0,2.020706177E0
4.378655045E0,-3.591302633E-1,-9.742305756E0,1.982398987E0
4.380654778E0,-3.806780577E-1,-9.742305756E0,1.972822189E0
4.382654511E0,-3.830722570E-1,-9.742305756E0,1.958456993E0
4.384654677E0,-3.615244627E-1,-9.744700432E0,1.944091797E0
4.386654477E0,-3.423708379E-1,-9.749488831E0,1.946485996E0
4.388654210E0,-3.112462163E-1,-9.773430824E0,1.960851192E0
4.390653943E0,-2.873041928E-1,-9.785401344E0,1.970427990E0
4.392653676E0,-2.753331959E-1,-9.775824547E0,1.965639591E0
4.394653409E0,-2.106897533E-1,-9.773430824E0,1.999158382E0
4.396653142E0,-1.699883193E-1,-9.763854027E0,2.015917778E0
4.398652875E0,-1.484405100E-1,-9.756670952E0,2.018311977E0
4.400652608E0,-1.101332754E-1,-9.759065628E0,2.013523579E0
4.402652408E0,-1.101332754E-1,-9.759065628E0,2.013523579E0
4.404652141E0,-1.077390760E-1,-9.763854027E0,2.011129379E0
4.406651874E0,-9.816227108E-2,-9.756670952E0,2.006340981E0
4.408652474E0,-8.619125932E-2,-9.744700432E0,1.996764183E0
4.410652207E0,-8.858546615E-2,-9.730335236E0,1.982398987E0
4.412651940E0,-8.858546615E-2,-9.723152161E0,1.977610588E0
4.414651673E0,-8.379705995E-2,-9.725546837E0,1.968033791E0
4.416651406E0,-7.182604820E-2,-9.703998566E0,1.960851192E0
4.418651206E0,-7.182604820E-2,-9.680056572E0,1.953668594E0
4.420650939E0,-7.900865376E-2,-9.677662849E0,1.944091797E0
4.422650672E0,-8.858546615E-2,-9.663297653E0,1.939303398E0
4.424650405E0,-1.005564705E-1,-9.656114578E0,1.939303398E0
4.426650171E0,-1.029506698E-1,-9.658509254E0,1.932120800E0
4.428649904E0,-1.125274822E-1,-9.644144058E0,1.927332401E0
4.430649637E0,-1.244984865E-1,-9.651326180E0,1.912967205E0
4.432649370E0,-1.244984865E-1,-9.641749382E0,1.893813491E0
4.434649170E0,-1.268926859E-1,-9.598653793E0,1.872265697E0
4.436648903E0,-1.316810995E-1,-9.603442192E0,1.872265697E0
4.438648636E0,-1.364694983E-1,-9.591471672E0,1.865083098E0
4.440648369E0,-1.460463107E-1,-9.565135002E0,1.869871497E0
4.442648102E0,-1.580173075E-1,-9.572318077E0,1.867477298E0
4.444647835E0,-1.699883193E-1,-9.579500198E0,1.862688899E0
4.446647568E0,-2.106897533E-1,-9.598653793E0,1.857900500E0
4.448647368E0,-2.178723514E-1,-9.603442192E0,1.862688899E0
4.450647168E0,-2.298433632E-1,-9.617807388E0,1.862688899E0
4.452646901E0,-2.585737705E-1,-9.636960983E0,1.860294700E0
4.454646634E0,-2.705447972E-1,-9.670479774E0,1.853112102E0
4.456646367E0,-2.753331959E-1,-9.699210167E0,1.867477298E0
4.458646100E0,-2.968810201E-1,-9.744700432E0,1.891419291E0
4.460645833E0,-3.280056417E-1,-9.763854027E0,1.905784607E0
4.462645133E0,-3.256114423E-1,-9.778219223E0,1.910573006E0
4.464644933E0,-3.375824392E-1,-9.802161217E0,1.917755604E0
4.466644733E0,-3.375824392E-1,-9.830891609E0,1.915361404E0
4.468643633E0,-3.447650373E-1,-9.842862129E0,1.920149803E0
4.470643399E0,-3.471592367E-1,-9.845256805E0,1.951274395E0
4.472643165E0,-3.519476354E-1,-9.847650528E0,1.956062794E0
4.474642931E0,-3.519476354E-1,-9.876380920E0,1.941697598E0
4.476642697E0,-3.280056417E-1,-9.883563995E0,1.939303398E0
4.478642463E0,-3.303998411E-1,-9.873987198E0,1.941697598E0
4.480642296E0,-3.208230138E-1,-9.869198799E0,1.960851192E0
4.482641696E0,-3.184288144E-1,-9.866804123E0,1.977610588E0
4.484641496E0,-3.112462163E-1,-9.871592522E0,1.987187386E0
4.486641296E0,-2.753331959E-1,-9.873987198E0,2.001552582E0
4.488641096E0,-2.561795712E-1,-9.881169319E0,2.011129379E0
4.490640896E0,-2.370259613E-1,-9.883563995E0,2.018311977E0
4.492640696E0,-2.178723514E-1,-9.900322914E0,2.039859772E0
4.494640496E0,-2.226607651E-1,-9.917082787E0,2.066195965E0
4.496640362E0,-2.035071403E-1,-9.933841705E0,2.080561161E0
4.498640228E0,-1.771709323E-1,-9.938630104E0,2.087743998E0
4.500640094E0,-1.508347094E-1,-9.960178375E0,2.109291792E0
4.502639960E0,-1.388636976E-1,-9.976937294E0,2.118868589E0
4.504639826E0,-1.125274822E-1,-9.984120369E0,2.140416384E0
4.506639692E0,-7.661445439E-2,-9.969755173E0,2.133233786E0
4.508639558E0,-7.900865376E-2,-9.964966774E0,2.128445387E0
4.510639424E0,-7.182604820E-2,-9.955389977E0,2.140416384E0
4.512639357E0,-5.027823523E-2,-9.964966774E0,2.133233786E0
4.514639223E0,-5.267243832E-2,-9.962572098E0,2.145204782E0
