"Time (s)","Acceleration x (m/s^2)","Acceleration y (m/s^2)","Acceleration z (m/s^2)"
1.892509500E-2,-1.873641968E0,3.591201782E0,9.088272095E0
2.139701900E-2,-1.825759888E0,3.684570312E0,9.156509399E0
2.386894300E-2,-1.779067993E0,3.684570312E0,9.152908325E0
2.634086700E-2,-1.691680908E0,3.748016357E0,9.175659180E0
2.878227300E-2,-1.581542969E0,3.829421997E0,9.289382935E0
3.125419700E-2,-1.520492554E0,3.872512817E0,9.281005859E0
3.372612100E-2,-1.418746948E0,3.898849487E0,9.318115234E0
3.619804400E-2,-1.312194824E0,3.952728271E0,9.252273560E0
3.866996800E-2,-1.215225220E0,3.974273682E0,9.205581665E0
4.114189200E-2,-1.106292725E0,3.975463867E0,9.151718140E0
4.358329800E-2,-1.042846680E0,3.998214722E0,9.114608765E0
4.605522200E-2,-1.045242310E0,4.018569946E0,9.103836060E0
4.852714600E-2,-9.758148193E-1,4.066452026E0,9.108627319E0
5.099907000E-2,-9.411010742E-1,4.036514282E0,9.113418579E0
5.347099400E-2,-1.002151489E0,4.065246582E0,9.133758545E0
5.594291700E-2,-1.058410645E0,4.071228027E0,9.288192749E0
5.838432400E-2,-1.135025024E0,4.110733032E0,9.440216064E0
6.085624700E-2,-1.240371704E0,4.151443481E0,9.611404419E0
6.332817100E-2,-1.309799194E0,4.121520996E0,9.739501953E0
6.580009500E-2,-1.391204834E0,4.076019287E0,9.834060669E0
6.827201900E-2,-1.508529663E0,4.056869507E0,9.825683594E0
7.071342500E-2,-1.583938599E0,4.024551392E0,9.813720703E0
7.318534900E-2,-1.605484009E0,3.968292236E0,9.704772949E0
7.565727300E-2,-1.617462158E0,3.916809082E0,9.577880859E0
7.812919700E-2,-1.610275269E0,3.872512817E0,9.452194214E0
8.060112100E-2,-1.624633789E0,3.816253662E0,9.354034424E0
8.304252700E-2,-1.624633789E0,3.744430542E0,9.292968750E0
8.548393300E-2,-1.621047974E0,3.731262207E0,9.245086670E0
8.795585700E-2,-1.615066528E0,3.701324463E0,9.255859375E0
9.042778100E-2,-1.746749878E0,3.684570312E0,9.339660645E0
9.289970500E-2,-1.743148804E0,3.707321167E0,9.415084839E0
9.537162800E-2,-1.783859253E0,3.733657837E0,9.537185669E0
9.784355200E-2,-1.860473633E0,3.715698242E0,9.622177124E0
1.003154760E-1,-1.908355713E0,3.696548462E0,9.758651733E0
1.027568820E-1,-1.907150269E0,3.666610718E0,9.835266113E0
1.052288060E-1,-1.946655273E0,3.701324463E0,9.852020264E0
1.077007300E-1,-2.034042358E0,3.607955933E0,9.926239014E0
1.101726540E-1,-2.086715698E0,3.587600708E0,9.889129639E0
1.126445780E-1,-2.029266357E0,3.601974487E0,9.883148193E0
1.151165010E-1,-1.926315308E0,3.575637817E0,9.782592773E0
1.175884250E-1,-1.840118408E0,3.563659668E0,9.705978394E0
1.200298310E-1,-1.769485474E0,3.509796143E0,9.616195679E0
1.225017550E-1,-1.694076538E0,3.520568848E0,9.549148560E0
1.249736790E-1,-1.654571533E0,3.516983032E0,9.537185669E0
1.274456030E-1,-1.625839233E0,3.479873657E0,9.483322144E0
1.299175270E-1,-1.580352783E0,3.455932617E0,9.403106689E0
1.323589330E-1,-1.554016113E0,3.463104248E0,9.405502319E0
1.348308570E-1,-1.570770264E0,3.508590698E0,9.424652100E0
1.372722630E-1,-1.573165894E0,3.514587402E0,9.392333984E0
1.397441870E-1,-1.503738403E0,3.610351562E0,9.348037720E0
1.422161110E-1,-1.488174438E0,3.629501343E0,9.336074829E0
1.446880350E-1,-1.498947144E0,3.651046753E0,9.321701050E0
1.471599580E-1,-1.515701294E0,3.697738647E0,9.315719604E0
1.496318820E-1,-1.551620483E0,3.726470947E0,9.294174194E0
1.520732880E-1,-1.537246704E0,3.776748657E0,9.300155640E0
1.545452120E-1,-1.595916748E0,3.830612183E0,9.295364380E0
1.570171360E-1,-1.598312378E0,3.793502808E0,9.255859375E0
1.594890600E-1,-1.679702759E0,3.800689697E0,9.170867920E0
1.619304660E-1,-1.955047607E0,3.680984497E0,8.864410400E0
1.644023900E-1,-2.281845093E0,3.451141357E0,8.525634766E0
1.668743140E-1,-2.601470947E0,3.217697144E0,8.332901001E0
1.693462380E-1,-2.686462402E0,3.028564453E0,8.252700806E0
1.718181620E-1,-2.450637817E0,2.863357544E0,8.244308472E0
1.742595680E-1,-1.958633423E0,2.736465454E0,8.306564331E0
1.767314920E-1,-1.521697998E0,2.623947144E0,8.320922852E0
1.792034150E-1,-1.203262329E0,2.582046509E0,8.348464966E0
1.816753390E-1,-1.060806274E0,2.566482544E0,8.463378906E0
1.841472630E-1,-1.081161499E0,2.512603760E0,8.433456421E0
1.866191870E-1,-1.100311279E0,2.526977539E0,8.397552490E0
1.890911110E-1,-1.129043579E0,2.547332764E0,8.359237671E0
1.915325170E-1,-1.088333130E0,2.592819214E0,8.192840576E0
1.940044410E-1,-1.125457764E0,2.556900024E0,8.083908081E0
1.964763650E-1,-1.194885254E0,2.620346069E0,8.069534302E0
1.989177710E-1,-1.252349854E0,2.673019409E0,8.039611816E0
2.013896950E-1,-1.372055054E0,2.741256714E0,8.130584717E0
2.038616190E-1,-1.449859619E0,2.766387939E0,8.271850586E0
2.063335420E-1,-1.516906738E0,2.880126953E0,8.414306641E0
2.088054660E-1,-1.548019409E0,2.969909668E0,8.563934326E0
2.112773900E-1,-1.563583374E0,2.989059448E0,8.654922485E0
2.137187960E-1,-1.607879639E0,3.021377563E0,8.799774170E0
2.161907200E-1,-1.623443604E0,3.097991943E0,8.984130859E0
2.186626440E-1,-1.661758423E0,3.179397583E0,9.205581665E0
2.211345680E-1,-1.763504028E0,3.299102783E0,9.345642090E0
2.235759740E-1,-1.819763184E0,3.356567383E0,9.501266479E0
2.260478980E-1,-1.849700928E0,3.471481323E0,9.624572754E0
2.285198220E-1,-1.892791748E0,3.585205078E0,9.804138184E0
2.309917460E-1,-1.909545898E0,3.597183228E0,9.903503418E0
2.334636690E-1,-1.932296753E0,3.672607422E0,1.013812256E1
2.359050760E-1,-1.990951538E0,3.743225098E0,1.027101135E1
2.383769990E-1,-2.063980103E0,3.815048218E0,1.049366760E1
2.408489230E-1,-2.079544067E0,3.870117188E0,1.061816406E1
2.433208470E-1,-2.111862183E0,3.889282227E0,1.080850220E1
2.457927710E-1,-2.125030518E0,3.981445312E0,1.096891785E1
2.482341770E-1,-2.097503662E0,4.020950317E0,1.102757263E1
2.507061010E-1,-2.110656738E0,4.024551392E0,1.110778809E1
2.531780250E-1,-2.142990112E0,4.025741577E0,1.110060120E1
2.556499490E-1,-2.117843628E0,3.993423462E0,1.104672241E1
2.581218720E-1,-2.098693848E0,3.939559937E0,1.094737244E1
2.605937960E-1,-2.080734253E0,3.892868042E0,1.077976990E1
2.630657200E-1,-1.998138428E0,3.774353027E0,1.065766907E1
2.655376440E-1,-1.915542603E0,3.651046753E0,1.057028198E1
2.680095680E-1,-1.765899658E0,3.582824707E0,1.039669800E1
2.704509740E-1,-1.611480713E0,3.497817993E0,1.024227905E1
2.729228980E-1,-1.388809204E0,3.399658203E0,1.011657715E1
2.753948220E-1,-1.191284180E0,3.345794678E0,9.987289429E0
2.778667460E-1,-9.722137451E-1,3.267974854E0,9.867584229E0
2.803386690E-1,-7.734985352E-1,3.248825073E0,9.853225708E0
2.827800760E-1,-6.561889648E-1,3.227279663E0,9.834060669E0
2.852519990E-1,-5.364837646E-1,3.258407593E0,9.825683594E0
2.877239230E-1,-4.407043457E-1,3.282348633E0,9.869979858E0
2.901958470E-1,-4.191589355E-1,3.323043823E0,9.899902344E0
2.926677710E-1,-3.808593750E-1,3.380508423E0,9.990890503E0
2.951091770E-1,-3.940277100E-1,3.451141357E0,1.003279114E1
2.975811010E-1,-4.227447510E-1,3.574432373E0,1.001483154E1
3.000530250E-1,-4.838104248E-1,3.637878418E0,1.002919006E1
3.025249490E-1,-5.436553955E-1,3.721679688E0,9.948989868E0
3.049968720E-1,-5.843658447E-1,3.791107178E0,9.850830078E0
3.074382790E-1,-6.382293701E-1,3.866531372E0,9.729919434E0
3.099102030E-1,-7.100524902E-1,3.901245117E0,9.637741089E0
3.123821260E-1,-6.837158203E-1,3.969482422E0,9.473739624E0
3.148540500E-1,-7.304077148E-1,4.038909912E0,9.386352539E0
3.173259740E-1,-8.106079102E-1,4.104751587E0,9.322906494E0
3.197673800E-1,-7.818756104E-1,4.162216187E0,9.246292114E0
3.222393040E-1,-7.770996094E-1,4.187347412E0,9.164886475E0
3.247112280E-1,-8.118133545E-1,4.196929932E0,9.119400024E0
3.271831520E-1,-8.489227295E-1,4.161010742E0,9.103836060E0
3.296550760E-1,-9.171600342E-1,4.181365967E0,9.066726685E0
3.320964820E-1,-8.537139893E-1,4.134674072E0,9.024826050E0
3.345684060E-1,-8.932189941E-1,4.114334106E0,9.021240234E0
3.370403300E-1,-8.860321045E-1,4.076019287E0,8.956588745E0
3.395122530E-1,-8.716583252E-1,4.005401611E0,8.915893555E0
3.419841770E-1,-8.549041748E-1,3.991027832E0,8.852447510E0
3.444255830E-1,-8.955993652E-1,3.951522827E0,8.885955811E0
3.468975070E-1,-9.063873291E-1,3.926391602E0,8.870407104E0
3.493694310E-1,-9.925689697E-1,3.926391602E0,8.799774170E0
3.518413550E-1,-1.035675049E0,3.917999268E0,8.856033325E0
3.543132790E-1,-1.071578979E0,3.900054932E0,8.834487915E0
3.567546850E-1,-1.132629395E0,3.889282227E0,8.853637695E0
3.592266090E-1,-1.180511475E0,3.923995972E0,8.900329590E0
3.616985330E-1,-1.236785889E0,3.908432007E0,8.927856445E0
3.641704560E-1,-1.300231934E0,3.880889893E0,9.004470825E0
3.666423800E-1,-1.351699829E0,3.900054932E0,9.064331055E0
3.690837870E-1,-1.356491089E0,3.900054932E0,9.102630615E0
3.715557100E-1,-1.351699829E0,3.944335938E0,9.140945435E0
3.740276340E-1,-1.393600464E0,3.946731567E0,9.088272095E0
3.764995580E-1,-1.336135864E0,3.940750122E0,9.027221680E0
3.789714820E-1,-1.264312744E0,3.880889893E0,8.889556885E0
3.814128880E-1,-1.247558594E0,3.874908447E0,8.773437500E0
3.838848120E-1,-1.233184814E0,3.810272217E0,8.684844971E0
3.863567360E-1,-1.170944214E0,3.685775757E0,8.634567261E0
3.888286600E-1,-1.084747314E0,3.631896973E0,8.589080811E0
3.913005830E-1,-1.033279419E0,3.599578857E0,8.626190186E0
3.937419900E-1,-1.017715454E0,3.481063843E0,8.622604370E0
3.962139130E-1,-1.024887085E0,3.442764282E0,8.635772705E0
3.986858370E-1,-9.698333740E-1,3.393676758E0,8.651336670E0
4.011577610E-1,-9.387054443E-1,3.296707153E0,8.800964355E0
4.036296850E-1,-9.506683350E-1,3.254806519E0,8.829696655E0
4.060710910E-1,-9.255371094E-1,3.212921143E0,8.816528320E0
4.085430150E-1,-9.351043701E-1,3.206924438E0,8.826110840E0
4.110149390E-1,-9.841918945E-1,3.182983398E0,8.856033325E0
4.134868630E-1,-9.662322998E-1,3.119537354E0,8.791397095E0
4.159587870E-1,-9.913787842E-1,3.103973389E0,8.789001465E0
4.184001930E-1,-9.901733398E-1,3.082427979E0,8.760269165E0
4.208721170E-1,-1.020111084E0,3.045318604E0,8.670486450E0
4.233440400E-1,-1.061996460E0,3.015396118E0,8.668090820E0
4.258159640E-1,-1.120666504E0,3.001022339E0,8.638168335E0
4.282878880E-1,-1.115875244E0,2.968704224E0,8.666885376E0
4.307292940E-1,-1.217620850E0,2.916030884E0,8.713577271E0
4.332012180E-1,-1.259521484E0,2.926803589E0,8.708786011E0
4.356731420E-1,-1.228393555E0,2.913635254E0,8.779418945E0
4.381450660E-1,-1.217620850E0,2.883712769E0,8.773437500E0
4.406169900E-1,-1.278686523E0,2.869338989E0,8.755477905E0
4.430583960E-1,-1.260726929E0,2.852584839E0,8.779418945E0
4.455303200E-1,-1.288253784E0,2.832229614E0,8.840469360E0
4.480022440E-1,-1.283462524E0,2.825057983E0,8.824905396E0
4.504741670E-1,-1.273895264E0,2.820266724E0,8.890747070E0
4.529460910E-1,-1.272689819E0,2.797515869E0,8.900329590E0
4.553874970E-1,-1.258331299E0,2.808288574E0,8.932647705E0
4.578594210E-1,-1.230789185E0,2.775970459E0,8.968566895E0
4.603313450E-1,-1.253540039E0,2.809494019E0,8.998489380E0
4.628032690E-1,-1.296630859E0,2.799911499E0,9.083480835E0
4.652751930E-1,-1.272689819E0,2.851394653E0,9.190032959E0
4.677165990E-1,-1.313400269E0,2.920822144E0,9.322906494E0
4.701885230E-1,-1.358886719E0,2.944763184E0,9.425857544E0
4.726604470E-1,-1.393600464E0,2.961517334E0,9.515640259E0
4.751323710E-1,-1.390014648E0,3.015396118E0,9.588653564E0
4.776042940E-1,-1.382827759E0,3.013000488E0,9.661682129E0
4.800457010E-1,-1.326568604E0,3.024963379E0,9.676055908E0
4.825176240E-1,-1.241561890E0,3.082427979E0,9.630554199E0
4.849895480E-1,-1.247558594E0,3.062072754E0,9.599441528E0
4.874614720E-1,-1.226013184E0,3.088409424E0,9.640136719E0
4.899028780E-1,-1.220016479E0,3.132705688E0,9.659286499E0
4.923748020E-1,-1.168548584E0,3.066864014E0,9.616195679E0
4.948467260E-1,-1.137420654E0,3.096801758E0,9.649719238E0
4.973186500E-1,-1.145797729E0,3.133911133E0,9.635345459E0
4.997905740E-1,-1.265518188E0,3.090805054E0,9.480926514E0
5.022624970E-1,-1.459442139E0,2.979476929E0,9.045181274E0
5.047039040E-1,-1.597106934E0,2.902862549E0,8.773437500E0
5.071758280E-1,-1.728790283E0,2.844207764E0,8.657318115E0
5.096477510E-1,-1.840118408E0,2.731674194E0,8.666885376E0
5.121196750E-1,-1.899978638E0,2.680206299E0,8.755477905E0
5.145915990E-1,-1.965820312E0,2.634719849E0,8.935043335E0
5.170330050E-1,-1.959823608E0,2.537750244E0,9.134963989E0
5.195049290E-1,-2.006515503E0,2.536544800E0,9.279815674E0
5.219768530E-1,-1.994552612E0,2.480285645E0,9.306137085E0
5.244487770E-1,-1.898773193E0,2.459930420E0,9.382751465E0
5.268901830E-1,-1.907150269E0,2.409652710E0,9.504867554E0
5.293621070E-1,-1.854492188E0,2.409652710E0,9.524017334E0
5.318340310E-1,-1.750335693E0,2.433593750E0,9.641326904E0
5.343059550E-1,-1.721603394E0,2.509017944E0,9.711959839E0
5.367778780E-1,-1.697662354E0,2.510223389E0,9.666473389E0
5.392192850E-1,-1.692871094E0,2.582046509E0,9.666473389E0
5.416912080E-1,-1.761108398E0,2.615554810E0,9.666473389E0
5.441631320E-1,-1.723999023E0,2.693374634E0,9.604217529E0
5.466350560E-1,-1.714416504E0,2.761611938E0,9.629364014E0
5.491069800E-1,-1.731185913E0,2.815475464E0,9.587463379E0
5.515789040E-1,-1.747940063E0,2.872940063E0,9.673660278E0
5.540508280E-1,-1.716812134E0,2.965118408E0,9.792160034E0
5.565227510E-1,-1.594711304E0,2.954345703E0,9.880752563E0
5.589946750E-1,-1.531265259E0,2.992645264E0,9.919067383E0
5.614665990E-1,-1.437896729E0,3.040527344E0,1.001123047E1
5.639080050E-1,-1.412750244E0,3.090805054E0,1.010461426E1
5.663799290E-1,-1.320571899E0,3.107574463E0,1.018122864E1
5.688518530E-1,-1.278686523E0,3.112350464E0,1.021115112E1
5.713237770E-1,-1.295440674E0,3.162628174E0,1.014051819E1
5.737957010E-1,-1.249954224E0,3.246429443E0,1.012734985E1
5.762371070E-1,-1.078765869E0,3.214111328E0,1.009503174E1
5.787090310E-1,-1.042846680E0,3.238052368E0,1.007946777E1
5.811809550E-1,-1.127838135E0,3.285934448E0,1.012257385E1
5.836528780E-1,-1.179321289E0,3.357757568E0,1.012257385E1
5.861248020E-1,-1.118270874E0,3.412826538E0,1.007946777E1
5.885967260E-1,-1.073974609E0,3.472686768E0,1.004714966E1
5.910381320E-1,-1.084747314E0,3.527755737E0,9.987289429E0
5.935100560E-1,-9.662322998E-1,3.580429077E0,9.947784424E0
5.959819800E-1,-8.968048096E-1,3.604370117E0,9.723937988E0
5.984539040E-1,-8.405456543E-1,3.629501343E0,9.653305054E0
6.008953100E-1,-8.022308350E-1,3.642669678E0,9.476135254E0
6.033672340E-1,-7.483673096E-1,3.676193237E0,9.336074829E0
6.058391580E-1,-7.758941650E-1,3.700134277E0,9.167282104E0
6.083110810E-1,-7.914581299E-1,3.678588867E0,9.000885010E0
6.107830050E-1,-8.644866943E-1,3.730056763E0,8.829696655E0
6.132244120E-1,-9.243316650E-1,3.718093872E0,8.683654785E0
6.156963350E-1,-9.985504150E-1,3.774353027E0,8.630981445E0
6.181682590E-1,-1.136230469E0,3.810272217E0,8.562744141E0
6.206401830E-1,-1.251144409E0,3.861740112E0,8.592666626E0
6.231121070E-1,-1.307403564E0,3.850967407E0,8.640563965E0
6.255535130E-1,-1.360076904E0,3.836608887E0,8.755477905E0
6.280254370E-1,-1.403182983E0,3.833007812E0,8.844070435E0
6.304973610E-1,-1.454650879E0,3.770767212E0,8.974548340E0
6.329692850E-1,-1.445083618E0,3.765975952E0,9.005676270E0
6.354412080E-1,-1.434295654E0,3.659439087E0,9.059539795E0
6.378826150E-1,-1.531265259E0,3.574432373E0,9.130172729E0
6.403545380E-1,-1.704849243E0,3.515777588E0,9.115798950E0
6.428264620E-1,-1.794631958E0,3.442764282E0,9.212768555E0
6.452983860E-1,-1.836532593E0,3.357757568E0,9.239105225E0
6.477703100E-1,-1.909545898E0,3.319458008E0,9.248687744E0
6.502117160E-1,-1.947860718E0,3.258407593E0,9.283401489E0
6.526836400E-1,-1.886810303E0,3.209320068E0,9.309738159E0
6.551555640E-1,-1.861663818E0,3.143478394E0,9.360015869E0
6.576274880E-1,-1.763504028E0,3.090805054E0,9.448593140E0
6.600994120E-1,-1.731185913E0,3.058486938E0,9.488098145E0
6.625408180E-1,-1.691680908E0,3.045318604E0,9.551544189E0
6.650127420E-1,-1.688095093E0,2.993850708E0,9.575485229E0
6.674846650E-1,-1.708435059E0,3.033355713E0,9.525207520E0
6.699565890E-1,-1.752731323E0,3.051300049E0,9.467758179E0
6.724285130E-1,-1.836532593E0,3.103973389E0,9.461761475E0
6.748699190E-1,-1.856872559E0,3.142288208E0,9.495285034E0
6.773418430E-1,-1.970596313E0,3.185379028E0,9.500076294E0
6.798137670E-1,-2.069961548E0,3.192565918E0,9.484512329E0
6.822856910E-1,-2.078338623E0,3.258407593E0,9.482116699E0
6.847576150E-1,-2.108276367E0,3.306289673E0,9.435424805E0
6.872295380E-1,-2.115447998E0,3.331420898E0,9.388748169E0
6.896709450E-1,-2.098693848E0,3.346984863E0,9.334869385E0
6.921428690E-1,-2.053207397E0,3.333816528E0,9.373184204E0
6.946147920E-1,-2.086715698E0,3.283538818E0,9.411483765E0
6.970867160E-1,-2.055603027E0,3.275161743E0,9.501266479E0
6.995281220E-1,-1.989761353E0,3.190170288E0,9.528808594E0
7.020000460E-1,-1.920318604E0,3.143478394E0,9.571899414E0
7.044719700E-1,-1.943069458E0,3.142288208E0,9.668869019E0
7.069438940E-1,-1.937088013E0,3.159042358E0,9.563522339E0
7.094158180E-1,-1.932296753E0,3.131515503E0,9.436630249E0
7.118572240E-1,-1.848495483E0,3.197357178E0,9.383956909E0
7.143291480E-1,-1.807800293E0,3.214111328E0,9.345642090E0
7.168010720E-1,-1.807800293E0,3.265579224E0,9.400711060E0
7.192729960E-1,-1.765899658E0,3.392486572E0,9.441421509E0
7.217449190E-1,-1.855682373E0,3.469100952E0,9.433044434E0
7.241863260E-1,-1.923919678E0,3.493041992E0,9.424652100E0
7.266582490E-1,-2.013702393E0,3.496627808E0,9.324096680E0
7.291301730E-1,-2.172912598E0,3.549301147E0,9.289382935E0
7.316020970E-1,-2.359664917E0,3.573242188E0,9.259460449E0
7.340740210E-1,-2.503311157E0,3.581619263E0,9.194808960E0
7.365154270E-1,-2.601470947E0,3.558883667E0,9.219955444E0
7.389873510E-1,-2.661331177E0,3.544509888E0,9.324096680E0
7.414592750E-1,-2.705627441E0,3.488250732E0,9.437820435E0
7.439311990E-1,-2.649353027E0,3.448745728E0,9.494094849E0
7.464031220E-1,-2.619430542E0,3.400863647E0,9.441421509E0
7.488445290E-1,-2.532043457E0,3.386489868E0,9.462966919E0
7.513164530E-1,-2.406341553E0,3.394866943E0,9.425857544E0
7.537883760E-1,-2.090316772E0,3.346984863E0,9.428253174E0
7.562603000E-1,-1.842514038E0,3.341003418E0,9.413879395E0
7.587322240E-1,-1.582748413E0,3.242843628E0,9.392333984E0
7.611736300E-1,-1.391204834E0,3.151855469E0,9.436630249E0
7.636455540E-1,-1.251144409E0,3.135101318E0,9.567108154E0
7.661174780E-1,-1.235580444E0,3.100387573E0,9.622177124E0
7.685894020E-1,-1.206848145E0,2.986663818E0,9.790969849E0
7.710308080E-1,-1.200866699E0,2.991455078E0,9.975326538E0
7.735027320E-1,-1.209243774E0,2.996246338E0,9.984893799E0
7.759746560E-1,-1.243957520E0,3.004623413E0,1.012136841E1
7.784465800E-1,-1.346908569E0,3.121932983E0,1.021713257E1
7.809185030E-1,-1.403182983E0,3.175796509E0,1.022671509E1
7.833599100E-1,-1.554016113E0,3.223693848E0,1.029374695E1
7.858318330E-1,-1.617462158E0,3.290725708E0,1.032368469E1
7.883037570E-1,-1.660552979E0,3.355361938E0,1.028057861E1
7.907756810E-1,-1.696472168E0,3.414031982E0,1.010940552E1
7.932476050E-1,-1.716812134E0,3.461914062E0,1.006510925E1
7.957195290E-1,-1.818572998E0,3.499023438E0,9.993286133E0
7.981609350E-1,-1.832931519E0,3.524154663E0,9.951385498E0
8.006328590E-1,-1.884414673E0,3.554092407E0,9.826889038E0
8.031047830E-1,-1.903564453E0,3.566055298E0,9.704772949E0
8.055767060E-1,-1.944259644E0,3.593597412E0,9.479721069E0
8.080181130E-1,-2.016098022E0,3.646270752E0,9.344451904E0
8.104900370E-1,-2.063980103E0,3.719284058E0,9.283401489E0
8.129619600E-1,-2.178894043E0,3.767166138E0,9.303756714E0
8.154338840E-1,-2.164535522E0,3.822235107E0,9.188827515E0
8.179058080E-1,-2.188476562E0,3.856948853E0,9.022430420E0
8.203472140E-1,-2.211227417E0,3.758789062E0,8.990112305E0
8.228191380E-1,-2.050811768E0,3.744430542E0,9.004470825E0
8.252910620E-1,-2.065170288E0,3.779144287E0,9.058349609E0
8.277629860E-1,-2.135803223E0,3.669006348E0,9.212768555E0
8.302349100E-1,-1.911941528E0,3.639083862E0,9.328887939E0
8.327068330E-1,-1.921524048E0,3.669006348E0,9.419876099E0
8.351787570E-1,-1.914337158E0,3.563659668E0,9.595840454E0
8.376506810E-1,-1.685699463E0,3.580429077E0,9.473739624E0
8.401226050E-1,-1.612670898E0,3.600769043E0,9.424652100E0
8.425945290E-1,-1.686889648E0,3.489440918E0,9.696395874E0
8.450359350E-1,-1.531265259E0,3.532546997E0,9.757446289E0
8.475078590E-1,-1.391204834E0,3.704925537E0,9.722732544E0
8.499797830E-1,-1.355300903E0,3.718093872E0,9.588653564E0
8.524517060E-1,-1.401977539E0,3.567260742E0,9.689224243E0
8.549236300E-1,-1.276290894E0,3.610351562E0,1.002320862E1
8.573955540E-1,-1.235580444E0,3.714492798E0,1.010461426E1
8.598369600E-1,-1.287063599E0,3.798294067E0,9.952575684E0
8.623088840E-1,-1.278686523E0,3.730056763E0,9.757446289E0
8.647808080E-1,-1.348114014E0,3.677383423E0,9.528808594E0
8.672527320E-1,-1.289459229E0,3.727661133E0,9.577880859E0
8.697246560E-1,-1.331344604E0,3.877304077E0,9.667663574E0
8.721660620E-1,-1.564788818E0,3.982650757E0,9.595840454E0
8.746379860E-1,-1.615066528E0,3.877304077E0,9.442611694E0
8.771099100E-1,-1.617462158E0,3.861740112E0,9.252273560E0
8.795818330E-1,-1.624633789E0,3.818649292E0,9.043975830E0
8.820232400E-1,-1.607879639E0,3.702529907E0,8.969757080E0
8.844951630E-1,-1.598312378E0,3.661819458E0,9.119400024E0
8.869670870E-1,-1.616256714E0,3.714492798E0,9.247482300E0
8.894390110E-1,-1.719207764E0,3.835403442E0,9.346847534E0
8.919109350E-1,-1.856872559E0,3.995819092E0,9.229522705E0
8.943523410E-1,-1.872436523E0,4.047286987E0,9.243896484E0
8.968242650E-1,-1.637802124E0,3.854553223E0,9.303756714E0
8.992961890E-1,-1.526473999E0,3.733657837E0,9.391143799E0
9.017681130E-1,-1.653366089E0,3.726470947E0,9.319305420E0
9.042400370E-1,-1.785049438E0,3.720489502E0,9.443817139E0
9.066814430E-1,-1.953842163E0,3.696548462E0,9.571899414E0
9.091533670E-1,-2.055603027E0,3.628311157E0,9.579086304E0
9.116252900E-1,-2.110656738E0,3.604370117E0,9.529998779E0
9.140972140E-1,-2.086715698E0,3.645065308E0,9.478530884E0
9.165691380E-1,-2.080734253E0,3.639083862E0,9.514434814E0
9.190105440E-1,-2.152557373E0,3.679779053E0,9.473739624E0
9.214824680E-1,-2.188476562E0,3.691757202E0,9.439025879E0
9.239543920E-1,-2.308181763E0,3.794708252E0,9.387542725E0
9.264263160E-1,-2.360855103E0,3.968292236E0,9.260650635E0
9.288982400E-1,-2.241149902E0,4.120315552E0,8.969757080E0
9.313396460E-1,-2.263900757E0,4.265167236E0,8.805755615E0
9.338115700E-1,-2.194458008E0,4.374099731E0,8.806945801E0
9.362834940E-1,-2.072357178E0,4.435150146E0,8.824905396E0
9.387554170E-1,-2.008911133E0,4.587188721E0,8.599853516E0
9.412273410E-1,-2.018493652E0,4.698516846E0,8.441833496E0
9.436687470E-1,-2.119049072E0,4.771545410E0,8.413101196E0
9.461406710E-1,-2.172912598E0,4.736816406E0,8.490921021E0
9.486125950E-1,-2.183685303E0,4.746398926E0,8.660903931E0
9.510845190E-1,-2.187271118E0,4.760772705E0,8.773437500E0
9.535564430E-1,-2.184890747E0,4.672180176E0,8.859619141E0
9.559978490E-1,-2.111862183E0,4.575210571E0,8.921875000E0
9.584697730E-1,-1.995742798E0,4.455505371E0,8.931457520E0
9.609416970E-1,-1.947860718E0,4.338195801E0,9.051162720E0
9.634136210E-1,-1.820968628E0,4.265167236E0,9.136154175E0
9.658855440E-1,-1.780258179E0,4.182571411E0,9.107421875E0
9.683269510E-1,-1.704849243E0,4.149047852E0,9.194808960E0
9.707988740E-1,-1.665344238E0,4.076019287E0,9.217559814E0
9.732707980E-1,-1.676116943E0,4.068847656E0,9.176864624E0
9.757427220E-1,-1.719207764E0,4.020950317E0,9.265441895E0
9.782146460E-1,-1.782653809E0,4.047286987E0,9.334869385E0
9.806560520E-1,-1.899978638E0,4.140670776E0,9.433044434E0
9.831279760E-1,-2.093902588E0,4.263961792E0,9.437820435E0
9.855999000E-1,-2.168121338E0,4.345367432E0,9.477325439E0
9.880718240E-1,-2.186080933E0,4.325027466E0,9.409088135E0
9.905437470E-1,-2.126220703E0,4.326217651E0,9.407897949E0
9.929851540E-1,-2.102279663E0,4.304672241E0,9.458175659E0
9.954570780E-1,-2.146575928E0,4.346572876E0,9.502471924E0
9.979290010E-1,-2.144180298E0,4.410018921E0,9.484512329E0
1.000400925E0,-2.132217407E0,4.512969971E0,9.415084839E0
1.002872849E0,-2.105880737E0,4.539306641E0,9.417480469E0
1.005344773E0,-2.105880737E0,4.559646606E0,9.369598389E0
1.007786179E0,-2.129821777E0,4.550079346E0,9.398315430E0
1.010258103E0,-2.227981567E0,4.571624756E0,9.532394409E0
1.012730027E0,-2.382400513E0,4.675765991E0,9.587463379E0
1.015201951E0,-2.500915527E0,4.773941040E0,9.535980225E0
1.017643357E0,-2.554794312E0,4.848159790E0,9.588653564E0
1.020115281E0,-2.585906982E0,4.900833130E0,9.668869019E0
1.022587205E0,-2.567962646E0,5.021728516E0,9.573104858E0
1.025059128E0,-2.517684937E0,5.100738525E0,9.412689209E0
1.027500535E0,-2.444656372E0,5.146224976E0,9.358810425E0
1.029972458E0,-2.320159912E0,5.127075195E0,9.413879395E0
1.032444382E0,-2.278259277E0,5.189331055E0,9.351638794E0
1.034916306E0,-2.243545532E0,5.212066650E0,9.184036255E0
1.037388230E0,-2.274673462E0,5.214462280E0,9.090667725E0
1.039829636E0,-2.267486572E0,5.203689575E0,8.992507935E0
1.042301560E0,-2.157348633E0,5.131866455E0,9.017639160E0
1.044773484E0,-2.192062378E0,5.093566895E0,9.027221680E0
1.047245408E0,-2.222000122E0,5.006164551E0,9.100250244E0
1.049717331E0,-2.201644897E0,4.940322876E0,9.272628784E0
1.052189255E0,-2.220794678E0,4.893646240E0,9.295364380E0
1.054630662E0,-2.205230713E0,4.840972900E0,9.235519409E0
1.057102585E0,-2.259109497E0,4.769149780E0,9.075103760E0
1.059574509E0,-2.336914062E0,4.717666626E0,8.896728516E0
1.062046433E0,-2.415924072E0,4.591979980E0,8.800964355E0
1.064518357E0,-2.534439087E0,4.603942871E0,8.893142700E0
1.066959763E0,-2.746322632E0,4.655426025E0,8.658508301E0
1.069431687E0,-2.803787231E0,4.602752686E0,8.559158325E0
1.071903611E0,-2.903152466E0,4.614715576E0,8.541198730E0
1.074375535E0,-3.031234741E0,4.656616211E0,8.528030396E0
1.076816941E0,-3.148544312E0,4.727249146E0,8.628585815E0
1.079288865E0,-3.318542480E0,4.863708496E0,8.404724121E0
1.081760788E0,-3.425079346E0,4.951110840E0,8.062362671E0
1.084232712E0,-3.390365601E0,4.930755615E0,7.940246582E0
1.086704636E0,-3.405929565E0,4.973846436E0,7.913909912E0
1.089146042E0,-3.386779785E0,4.995391846E0,8.049194336E0
1.091617966E0,-3.311355591E0,4.970260620E0,8.262268066E0
1.094089890E0,-3.348464966E0,5.013351440E0,8.468170166E0
1.096561814E0,-3.420288086E0,5.101943970E0,8.422683716E0
1.099033738E0,-3.366424561E0,5.237213135E0,8.341278076E0
1.101475144E0,-3.324523926E0,5.401214600E0,8.362823486E0
1.103947068E0,-3.239532471E0,5.451492310E0,8.495712280E0
1.106418992E0,-3.239532471E0,5.522125244E0,8.590270996E0
1.108890915E0,-3.261077881E0,5.633453369E0,8.554367065E0
1.111362839E0,-3.338882446E0,5.736404419E0,8.623794556E0
1.113834763E0,-3.348464966E0,5.838150024E0,8.706390381E0
1.116306687E0,-3.468170166E0,5.966247559E0,8.721954346E0
1.118778611E0,-3.556762695E0,6.066802979E0,8.646545410E0
1.121250535E0,-3.701614380E0,6.158981323E0,8.603439331E0
1.123722458E0,-3.820129395E0,6.299041748E0,8.559158325E0
1.126163865E0,-3.834487915E0,6.459457397E0,8.528030396E0
1.128635788E0,-3.907516479E0,6.618667603E0,8.459793091E0
1.131107712E0,-4.069122314E0,6.859283447E0,8.340087891E0
1.133579636E0,-4.106231689E0,6.987365723E0,8.106643677E0
1.136051560E0,-4.146926880E0,7.035263062E0,8.051589966E0
1.138523484E0,-4.134963989E0,7.110671997E0,8.020462036E0
1.140964890E0,-4.188827515E0,7.183700562E0,7.970184326E0
1.143436814E0,-4.100250244E0,7.125045776E0,8.225158691E0
1.145908738E0,-3.991302490E0,7.211227417E0,8.362823486E0
1.148380662E0,-3.936248779E0,7.266296387E0,8.466979980E0
1.150852585E0,-3.998489380E0,7.193267822E0,8.512466431E0
1.153293992E0,-3.881179810E0,7.154968262E0,8.431060791E0
1.155765915E0,-3.743515015E0,7.225601196E0,8.362823486E0
1.158237839E0,-3.687240601E0,7.117858887E0,8.490921021E0
1.160709763E0,-3.621398926E0,7.073562622E0,8.502883911E0
1.163151169E0,-3.514862061E0,7.129821777E0,8.405929565E0
1.165623093E0,-3.700408936E0,6.866470337E0,8.512466431E0
1.168095017E0,-3.633377075E0,6.649795532E0,8.619003296E0
1.170566941E0,-3.563949585E0,6.464233398E0,8.519653320E0
1.173038865E0,-3.506484985E0,6.202072144E0,8.411911011E0
1.175480271E0,-3.623794556E0,6.081161499E0,8.217987061E0
1.177952195E0,-3.640563965E0,6.008148193E0,7.915115356E0
1.180424119E0,-3.572326660E0,5.913574219E0,7.770263672E0
1.182896042E0,-3.652526855E0,5.877655029E0,7.579925537E0
1.185367966E0,-3.587890625E0,5.863296509E0,7.406341553E0
1.187839890E0,-3.298187256E0,5.750762939E0,7.387191772E0
1.190281296E0,-3.185653687E0,5.817810059E0,7.286636353E0
1.192753220E0,-3.126998901E0,5.947097778E0,7.384796143E0
1.195225144E0,-2.970184326E0,5.954269409E0,7.476974487E0
1.197697068E0,-2.784637451E0,5.973434448E0,7.455429077E0
1.200138474E0,-2.480575562E0,6.030883789E0,7.437469482E0
1.202610398E0,-2.437469482E0,6.060821533E0,7.589508057E0
1.205082322E0,-2.456619263E0,6.044052124E0,7.704421997E0
1.207554246E0,-2.347686768E0,6.142227173E0,7.904342651E0
1.210026169E0,-2.245941162E0,6.178131104E0,8.092285156E0
1.212467576E0,-2.046020508E0,6.202072144E0,8.106643677E0
1.214939499E0,-1.701248169E0,6.362487793E0,8.025253296E0
1.217411423E0,-1.425918579E0,6.506134033E0,7.752304077E0
1.219883347E0,-1.350509644E0,6.496566772E0,7.654144287E0
1.222355271E0,-1.327758789E0,6.524093628E0,7.563171387E0
1.224796677E0,-1.361282349E0,6.460647583E0,7.468597412E0
1.227268601E0,-1.368469238E0,6.418746948E0,7.424301147E0
1.229740525E0,-1.382827759E0,6.360092163E0,7.396774292E0
1.232212449E0,-1.413955688E0,6.317001343E0,7.330932617E0
1.234684372E0,-1.570770264E0,6.296646118E0,7.285430908E0
1.237125779E0,-1.701248169E0,6.235595703E0,7.169326782E0
1.239597703E0,-1.864059448E0,6.173339844E0,7.019683838E0
1.242069626E0,-2.016098022E0,6.168548584E0,6.910751343E0
1.244541550E0,-2.117843628E0,6.160171509E0,6.927505493E0
1.247013474E0,-2.291427612E0,6.175735474E0,6.903564453E0
1.249454880E0,-2.429092407E0,6.205673218E0,6.783859253E0
1.251926804E0,-2.685272217E0,6.343338013E0,6.642593384E0
1.254398728E0,-2.959411621E0,7.005325317E0,6.540847778E0
1.256870652E0,-3.192840576E0,7.257919312E0,6.445068359E0
1.259342576E0,-3.379592896E0,7.097503662E0,6.642593384E0
1.261783982E0,-3.512466431E0,7.265106201E0,6.750335693E0
1.264255906E0,-3.493316650E0,7.403961182E0,6.644989014E0
1.266727830E0,-3.451416016E0,7.374038696E0,6.618652344E0
1.269199753E0,-3.462188721E0,7.474594116E0,6.650970459E0
1.271671677E0,-3.566345215E0,7.640991211E0,6.497741699E0
1.274113083E0,-3.748291016E0,7.804992676E0,6.378036499E0
1.276585007E0,-3.879974365E0,7.957031250E0,6.245162964E0
1.279056931E0,-4.033203125E0,8.081527710E0,6.149383545E0
1.281528855E0,-4.102645874E0,8.127014160E0,6.090728760E0
1.284000779E0,-4.196014404E0,8.155746460E0,5.990173340E0
1.286442185E0,-4.229537964E0,8.136596680E0,5.856094360E0
1.288914109E0,-4.339660645E0,8.142578125E0,5.718429565E0
1.291386033E0,-4.296569824E0,8.162933350E0,5.560409546E0
1.293857956E0,-4.264251709E0,8.097091675E0,5.542465210E0
1.296329880E0,-4.120590210E0,7.991744995E0,5.507736206E0
1.298771287E0,-3.914688110E0,7.828933716E0,5.458663940E0
1.301243210E0,-3.784210205E0,7.686477661E0,5.410781860E0
1.303715134E0,-3.720764160E0,7.557189941E0,5.335357666E0
1.306187058E0,-3.713577271E0,7.429107666E0,5.293457031E0
1.308658982E0,-3.720764160E0,7.393188477E0,5.195297241E0
1.311100388E0,-3.857238770E0,7.402770996E0,5.259948730E0
1.313572312E0,-3.911102295E0,7.424316406E0,5.228820801E0
1.316044236E0,-4.058349609E0,7.499725342E0,5.233612061E0
1.318516160E0,-4.158905029E0,7.575149536E0,5.241989136E0
1.320957566E0,-4.095458984E0,7.587127686E0,5.334167480E0
1.323429490E0,-4.260650635E0,7.664932251E0,5.172561646E0
1.325901413E0,-4.377975464E0,7.782241821E0,4.955886841E0
1.328373337E0,-4.297760010E0,7.825347900E0,4.821807861E0
1.330845261E0,-4.252273560E0,7.852874756E0,4.728424072E0
1.333286667E0,-4.164886475E0,7.845687866E0,4.656600952E0
1.335758591E0,-3.993698120E0,7.806182861E0,4.609924316E0
1.338230515E0,-3.690841675E0,7.691268921E0,4.720046997E0
1.340702439E0,-3.422683716E0,7.680496216E0,4.825393677E0
1.343174363E0,-3.140167236E0,7.540435791E0,5.069610596E0
1.345615769E0,-2.883987427E0,7.419525146E0,5.350921631E0
1.348087693E0,-2.687667847E0,7.393188477E0,5.366485596E0
1.350559617E0,-2.722381592E0,7.321365356E0,5.373672485E0
1.353031540E0,-2.928283691E0,7.193267822E0,5.372467041E0
1.355503464E0,-2.925888062E0,7.350097656E0,5.325790405E0
1.357975388E0,-2.800201416E0,7.547622681E0,5.186920166E0
1.360416794E0,-2.816955566E0,7.527267456E0,5.128265381E0
1.362888718E0,-2.833709717E0,7.688873291E0,4.928344727E0
1.365360642E0,-2.788223267E0,7.886398315E0,4.765533447E0
1.367832566E0,-2.937866211E0,7.867248535E0,4.668579102E0
1.370273972E0,-3.159317017E0,7.729568481E0,4.675750732E0
1.372745896E0,-3.171295166E0,7.718795776E0,4.551254272E0
1.375217820E0,-3.099472046E0,7.779846191E0,4.443527222E0
1.377689744E0,-3.170104980E0,7.654159546E0,4.390853882E0
1.380161667E0,-3.245513916E0,7.560791016E0,4.263961792E0
1.382603074E0,-3.350860596E0,7.461425781E0,4.328598022E0
1.385074997E0,-3.368820190E0,7.481781006E0,4.460281372E0
1.387546921E0,-3.183273315E0,7.625427246E0,4.410003662E0
1.390018845E0,-3.103057861E0,7.633804321E0,4.443527222E0
1.392490769E0,-3.216781616E0,7.645782471E0,4.462677002E0
1.394932175E0,-3.389175415E0,7.821746826E0,4.485412598E0
1.397404099E0,-3.548385620E0,8.007308960E0,4.448303223E0
1.399876023E0,-3.557952881E0,8.105468750E0,4.489013672E0
1.402347947E0,-3.519653320E0,8.190460205E0,4.505767822E0
1.404819871E0,-3.409515381E0,8.222778320E0,4.466262817E0
1.407291794E0,-3.237136841E0,8.238342285E0,4.645828247E0
1.409763718E0,-3.097076416E0,8.240737915E0,4.782302856E0
1.412235642E0,-2.971374512E0,8.209609985E0,4.892440796E0
1.414707566E0,-2.905532837E0,8.089904785E0,4.988204956E0
1.417179490E0,-2.846878052E0,8.113845825E0,4.982223511E0
1.419620896E0,-2.878005981E0,8.146163940E0,4.942718506E0
1.422092820E0,-2.837310791E0,8.276657104E0,4.959472656E0
1.424564744E0,-2.785827637E0,8.393966675E0,4.833770752E0
1.427036667E0,-2.617034912E0,8.450225830E0,4.784698486E0
1.429508591E0,-2.382400513E0,8.460998535E0,4.785888672E0
1.431949997E0,-1.980178833E0,8.426284790E0,4.898422241E0
1.434421921E0,-1.494155884E0,8.222778320E0,5.225234985E0
1.436893845E0,-1.022506714E0,8.076736450E0,5.496963501E0
1.439365769E0,-5.831604004E-1,7.942657471E0,5.779479980E0
1.441837693E0,-1.474151611E-1,7.850479126E0,5.900390625E0
1.444279099E0,7.284545898E-2,7.825347900E0,5.905181885E0
1.446751023E0,9.678649902E-2,7.919921875E0,5.706466675E0
1.449222947E0,1.267242432E-1,8.085113525E0,5.549636841E0
1.451694871E0,1.777648926E-2,8.237152100E0,5.457458496E0
1.454166794E0,-2.467803955E-1,8.416717529E0,5.380844116E0
1.456608201E0,-5.604248047E-1,8.592681885E0,5.279098511E0
1.459080124E0,-8.070220947E-1,8.785415649E0,5.147415161E0
1.461552048E0,-9.422912598E-1,8.938644409E0,5.020523071E0
1.464023972E0,-1.093124390E0,9.054763794E0,4.940322876E0
1.466495896E0,-1.179321289E0,9.123001099E0,4.856521606E0
1.468967820E0,-1.218826294E0,9.156524658E0,4.837371826E0
1.471409226E0,-1.224807739E0,9.156524658E0,4.842147827E0
1.473881150E0,-1.182907104E0,9.066741943E0,4.943908691E0
1.476353074E0,-1.111083984E0,8.926681519E0,4.928344727E0
1.478824997E0,-9.830017090E-1,8.762680054E0,4.943908691E0
1.481266404E0,-8.177947998E-1,8.566345215E0,4.860107422E0
1.483738328E0,-7.088623047E-1,8.419113159E0,4.803848267E0
1.486210251E0,-6.849212646E-1,8.264678955E0,4.790679932E0
1.488682175E0,-6.609802246E-1,8.226379395E0,4.852935791E0
1.491154099E0,-7.220306396E-1,8.209609985E0,4.840957642E0
1.493626023E0,-7.747039795E-1,8.204818726E0,4.845748901E0
1.496067429E0,-7.627258301E-1,8.176101685E0,4.753570557E0
1.498539353E0,-7.100524902E-1,8.228759766E0,4.588363647E0
1.501011277E0,-7.220306396E-1,8.285034180E0,4.481826782E0
1.503483201E0,-8.094177246E-1,8.311370850E0,4.398025513E0
1.505924607E0,-9.063873291E-1,8.395156860E0,4.286697388E0
1.508396531E0,-1.023696899E0,8.500503540E0,4.307052612E0
1.510868455E0,-1.054824829E0,8.510086060E0,4.310638428E0
1.513340378E0,-1.083557129E0,8.544799805E0,4.396835327E0
1.515812302E0,-1.073974609E0,8.537612915E0,4.533309937E0
1.518253708E0,-1.029678345E0,8.538818359E0,4.644638062E0
1.520725632E0,-9.889831543E-1,8.447830200E0,4.632659912E0
1.523197556E0,-8.728637695E-1,8.368820190E0,4.686538696E0
1.525669480E0,-8.189849854E-1,8.261093140E0,4.682937622E0
1.528141404E0,-8.022308350E-1,8.172500610E0,4.625473022E0
1.530582810E0,-8.130035400E-1,8.132995605E0,4.647033691E0
1.533054734E0,-7.483673096E-1,8.095886230E0,4.697311401E0
1.535526658E0,-7.088623047E-1,8.125808716E0,4.755966187E0
1.537998581E0,-7.016754150E-1,8.136596680E0,4.734420776E0
1.540470505E0,-7.292022705E-1,8.229965210E0,4.675750732E0
1.542942429E0,-7.184295654E-1,8.295806885E0,4.643432617E0
1.545383835E0,-6.944885254E-1,8.306579590E0,4.699707031E0
1.547855759E0,-6.717529297E-1,8.374816895E0,4.858917236E0
1.550327683E0,-6.932983398E-1,8.328125000E0,4.760757446E0
1.552799607E0,-6.406250000E-1,8.279037476E0,4.668579102E0
1.555241013E0,-5.520324707E-1,8.264678955E0,4.621887207E0
1.557712937E0,-4.897918701E-1,8.269470215E0,4.651809692E0
1.560184861E0,-4.467010498E-1,8.296997070E0,4.751174927E0
1.562656785E0,-3.042449951E-1,8.270660400E0,4.832580566E0
1.565128708E0,-1.150970459E-1,8.186874390E0,4.953491211E0
1.567570115E0,7.044982910E-2,8.058776855E0,4.923553467E0
1.570042038E0,1.937561035E-1,7.954635620E0,4.907989502E0
1.572513962E0,2.452239990E-1,7.930694580E0,4.922363281E0
1.574985886E0,2.955017090E-1,7.970199585E0,4.897216797E0
1.577427292E0,3.948669434E-1,7.972579956E0,4.983413696E0
1.579899216E0,5.050048828E-1,7.996536255E0,4.972640991E0
1.582371140E0,6.306915283E-1,7.948638916E0,4.945098877E0
1.584843064E0,7.432250977E-1,7.923507690E0,4.856521606E0
1.587314988E0,9.179992676E-1,7.927093506E0,4.782302856E0
1.589756394E0,9.203948975E-1,7.960617065E0,4.726043701E0
1.592228318E0,1.004196167E0,7.945053101E0,4.758361816E0
1.594700242E0,1.012573242E0,7.961807251E0,4.741592407E0
1.597172165E0,1.030532837E0,7.961807251E0,4.667373657E0
1.599644089E0,1.023345947E0,7.929489136E0,4.591964722E0
1.602085496E0,9.539184570E-1,7.923507690E0,4.510559082E0
1.604557419E0,7.743530273E-1,7.881607056E0,4.494995117E0
1.607029343E0,6.989288330E-1,7.846893311E0,4.641036987E0
1.609501267E0,6.929473877E-1,7.945053101E0,4.680541992E0
1.611973191E0,6.582336426E-1,7.951034546E0,4.651809692E0
1.614414597E0,4.930267334E-1,7.806182861E0,4.789489746E0
1.616886521E0,4.116210938E-1,7.863647461E0,4.800262451E0
1.619358445E0,4.295806885E-1,7.916320801E0,4.637451172E0
1.621830369E0,4.355621338E-1,7.888793945E0,4.697311401E0
1.624302292E0,4.020538330E-1,7.929489136E0,4.715255737E0
1.626743699E0,3.589477539E-1,8.012084961E0,4.815826416E0
1.629215622E0,3.326110840E-1,8.082717896E0,4.856521606E0
1.631687546E0,4.774627686E-1,8.221588135E0,4.884048462E0
1.634159470E0,6.390838623E-1,8.250320435E0,4.875671387E0
1.636631394E0,6.534423828E-1,8.159332275E0,4.862503052E0
1.639072800E0,7.192840576E-1,8.095886230E0,4.836166382E0
1.641544724E0,8.725128174E-1,8.180877686E0,4.678146362E0
1.644016648E0,1.014968872E0,8.189254761E0,4.661392212E0
1.646488572E0,1.113128662E0,8.179687500E0,4.699707031E0
1.648960496E0,1.296279907E0,8.086318970E0,4.726043701E0
1.651401902E0,1.491409302E0,7.945053101E0,4.788284302E0
1.653873826E0,1.659011841E0,7.816970825E0,4.776321411E0
1.656345749E0,1.789489746E0,7.739151001E0,4.862503052E0
1.658817673E0,1.919967651E0,7.613449097E0,4.814620972E0
1.661289597E0,2.064819336E0,7.468612671E0,4.723648071E0
1.663717220E0,2.202484131E0,7.389602661E0,4.736816406E0
1.666189144E0,2.247985840E0,7.335723877E0,4.735610962E0
1.668661068E0,2.182144165E0,7.309387207E0,4.784698486E0
1.671132992E0,2.177352905E0,7.336929321E0,4.687728882E0
1.673604916E0,2.230026245E0,7.353683472E0,4.576400757E0
1.676046322E0,2.194107056E0,7.432693481E0,4.460281372E0
1.678518246E0,2.249176025E0,7.431503296E0,4.424362183E0
1.680990170E0,2.216857910E0,7.405166626E0,4.370498657E0
1.683462093E0,2.188125610E0,7.387207031E0,4.335784912E0
1.685934017E0,2.176147461E0,7.354888916E0,4.247192383E0
1.688405941E0,2.113906860E0,7.297424316E0,4.246002197E0
1.690877865E0,2.020538330E0,7.243545532E0,4.314239502E0
1.693349789E0,1.922363281E0,7.247146606E0,4.359725952E0
1.695821713E0,1.843353271E0,7.374038696E0,4.529708862E0
1.698293636E0,1.753570557E0,7.437484741E0,4.516540527E0
1.700735043E0,1.826599121E0,7.606277466E0,4.370498657E0
1.703206966E0,1.918777466E0,7.784637451E0,4.278320312E0
1.705678890E0,2.003768921E0,7.885192871E0,4.207687378E0
1.708150814E0,2.088760376E0,7.978576660E0,4.125091553E0
1.710622738E0,2.034896851E0,8.079132080E0,4.056854248E0
1.713064144E0,1.924758911E0,8.118637085E0,4.140655518E0
1.715536068E0,1.978637695E0,8.093490601E0,4.253189087E0
1.718007992E0,2.070816040E0,8.028854370E0,4.246002197E0
1.720479916E0,2.166580200E0,8.002517700E0,4.232833862E0
1.722951839E0,2.270721436E0,7.992935181E0,4.035308838E0
1.725393246E0,2.353317261E0,7.916320801E0,4.019744873E0
1.727865170E0,2.476623535E0,7.851684570E0,3.958694458E0
1.730337093E0,2.532882690E0,7.766693115E0,3.914398193E0
1.732809017E0,2.616683960E0,7.742736816E0,3.931167603E0
1.735280941E0,2.712448120E0,7.761901855E0,3.912002563E0
1.737722347E0,2.760345459E0,7.667327881E0,3.913208008E0
1.740194271E0,2.866882324E0,7.625427246E0,3.909606934E0
1.742666195E0,2.985397339E0,7.673309326E0,3.776733398E0
1.745138119E0,3.084747314E0,7.645782471E0,3.785110474E0
1.747610043E0,3.125457764E0,7.551208496E0,3.873703003E0
1.750051449E0,3.105102539E0,7.479385376E0,3.931167603E0
1.752523373E0,3.187698364E0,7.479385376E0,3.878494263E0
1.754995297E0,3.428314209E0,7.493743896E0,3.871307373E0
1.757467220E0,3.475006104E0,7.443466187E0,3.906021118E0
1.759939144E0,3.407974243E0,7.386001587E0,3.937149048E0
1.762380550E0,3.336151123E0,7.389602661E0,3.894058228E0
1.764852474E0,3.309814453E0,7.317779541E0,3.882080078E0
1.767324398E0,3.302627563E0,7.409942627E0,3.896438599E0
1.769796322E0,3.429519653E0,7.482971191E0,3.868911743E0
1.772268246E0,3.521697998E0,7.578735352E0,3.837783813E0
1.774709652E0,3.476211548E0,7.633804321E0,3.919189453E0
1.777181576E0,3.386428833E0,7.712814331E0,4.035308838E0
1.779653500E0,3.270309448E0,7.846893311E0,4.151428223E0
1.782125423E0,3.217636108E0,7.968994141E0,4.222061157E0
1.784597347E0,3.103912354E0,8.026458740E0,4.281906128E0
1.787038754E0,2.963851929E0,8.112640381E0,4.207687378E0
1.789510677E0,2.992584229E0,8.281433105E0,4.038894653E0
1.791982601E0,3.223617554E0,9.217575073E0,2.967498779E0
1.794454525E0,3.886810303E0,1.149206543E1,1.198181152E0
1.796926449E0,4.508102417E0,1.298484802E1,1.583648682E0
1.799367855E0,4.755905151E0,1.123348999E1,4.348953247E0
1.801839779E0,4.572753906E0,1.000047302E1,5.450286865E0
1.804311703E0,3.737167358E0,9.972946167E0,7.395568848E0
1.806783627E0,3.509719849E0,9.688034058E0,8.265869141E0
1.809255550E0,3.795837402E0,9.515655518E0,7.621826172E0
1.811696957E0,4.150177002E0,9.458190918E0,6.949050903E0
1.814168880E0,4.674499512E0,9.302566528E0,6.561187744E0
1.816640804E0,5.240737915E0,9.064346313E0,5.951873779E0
1.819112728E0,5.460998535E0,8.476562500E0,5.682525635E0
1.821554134E0,5.658523560E0,8.140182495E0,5.402404785E0
1.824026058E0,5.658523560E0,7.790634155E0,5.269515991E0
1.826497982E0,5.524444580E0,7.511703491E0,5.202484131E0
1.828969906E0,5.613037109E0,7.435089111E0,4.899612427E0
1.831441830E0,5.809356689E0,7.443466187E0,4.584777832E0
1.833883236E0,5.982940674E0,7.505722046E0,4.408798218E0
1.836355160E0,6.130172729E0,7.535644531E0,4.418380737E0
1.838827084E0,6.175674438E0,7.539230347E0,4.570419312E0
1.841299007E0,6.151733398E0,7.550003052E0,4.624282837E0
1.843770931E0,6.155319214E0,7.487762451E0,4.929550171E0
1.846212338E0,6.103836060E0,7.371643066E0,5.166564941E0
1.848684261E0,6.103836060E0,7.279464722E0,5.311416626E0
1.851156185E0,6.139755249E0,7.202850342E0,5.402404785E0
1.853628109E0,6.173278809E0,7.083145142E0,5.258743286E0
1.856100033E0,6.168487549E0,6.996948242E0,5.243179321E0
1.858571957E0,6.222351074E0,7.011322021E0,5.151000977E0
1.861013363E0,6.218765259E0,7.002929688E0,5.098327637E0
1.863485287E0,6.196014404E0,6.965820312E0,4.991790771E0
1.865957211E0,6.132568359E0,6.982589722E0,4.803848267E0
1.868429134E0,6.113418579E0,6.970611572E0,4.708084106E0
1.870870541E0,6.064331055E0,6.941879272E0,4.664978027E0
1.873342464E0,5.905120850E0,6.969421387E0,4.660202026E0
1.875814388E0,5.690841675E0,6.931106567E0,4.661392212E0
1.878286312E0,5.511276245E0,6.988571167E0,4.663787842E0
1.880758236E0,5.275451660E0,7.022094727E0,4.653015137E0
1.883199642E0,5.026443481E0,7.078353882E0,4.572814941E0
1.885671566E0,4.923507690E0,7.206436157E0,4.455490112E0
1.888143490E0,4.790618896E0,7.315383911E0,4.405212402E0
1.890615414E0,4.674499512E0,7.457839966E0,4.368103027E0
1.893087338E0,4.478179932E0,7.565567017E0,4.289093018E0
1.895528744E0,4.195663452E0,7.725982666E0,4.305847168E0
1.898000668E0,3.822174072E0,7.819351196E0,4.480636597E0
1.900472591E0,3.629440308E0,8.034835815E0,4.420776367E0
1.902944515E0,3.609085083E0,8.111450195E0,4.374084473E0
1.905416439E0,3.677322388E0,8.130599976E0,4.126281738E0
1.907888363E0,3.865264893E0,8.188064575E0,3.782714844E0
1.910329769E0,4.069961548E0,8.229965210E0,3.586395264E0
1.912801693E0,4.254318237E0,8.330520630E0,3.406829834E0
1.915273617E0,4.335723877E0,8.379608154E0,3.184173584E0
1.917745541E0,4.400360107E0,8.420303345E0,3.047698975E0
1.920186947E0,4.447052002E0,8.346084595E0,3.086013794E0
1.922658871E0,4.508102417E0,8.160537720E0,3.054885864E0
1.925130795E0,4.629013062E0,8.094696045E0,3.034530640E0
1.927602718E0,4.651763916E0,8.006103516E0,3.054885864E0
1.930074642E0,4.682876587E0,7.966598511E0,3.144668579E0
1.932516048E0,4.648162842E0,7.916320801E0,3.144668579E0
1.934987972E0,4.661331177E0,7.893585205E0,3.202133179E0
1.937459896E0,4.649368286E0,7.930694580E0,3.360137939E0
1.939901302E0,4.602676392E0,7.905548096E0,3.562454224E0
1.942373226E0,4.479370117E0,7.861251831E0,3.716873169E0
1.944845150E0,4.372833252E0,7.800201416E0,3.842575073E0
1.947317074E0,4.273468018E0,7.760696411E0,3.938339233E0
1.949788998E0,4.163345337E0,7.739151001E0,3.850952148E0
1.952260922E0,4.053207397E0,7.729568481E0,3.749206543E0
1.954732845E0,4.036453247E0,7.810974121E0,3.659423828E0
1.957174252E0,3.950256348E0,7.864852905E0,3.508590698E0
1.959646175E0,3.956237793E0,7.910339355E0,3.339797974E0
1.962118099E0,4.049621582E0,7.917526245E0,3.291915894E0
1.964590023E0,4.067565918E0,7.965408325E0,3.277542114E0
1.967061947E0,4.121444702E0,7.904357910E0,3.180572510E0
1.969503353E0,4.171722412E0,7.972579956E0,2.978271484E0
1.971975277E0,4.317764282E0,7.940261841E0,2.874114990E0
1.974477718E0,4.400360107E0,7.808578491E0,2.978271484E0
1.976949642E0,4.433883667E0,7.687683105E0,3.155441284E0
1.979421566E0,4.596694946E0,7.603881836E0,3.235641479E0
1.981862972E0,4.655349731E0,7.510513306E0,3.402038574E0
1.984334896E0,4.812164307E0,7.487762451E0,3.497817993E0
1.986806820E0,4.912719727E0,7.399169922E0,3.631881714E0
1.989278744E0,4.970184326E0,7.324951172E0,3.736038208E0
1.991750668E0,5.074340820E0,7.260314941E0,3.755187988E0
1.994192074E0,5.165313721E0,7.154968262E0,3.616317749E0
1.996663998E0,5.273056030E0,7.061599731E0,3.549285889E0
1.999135922E0,5.428680420E0,7.012512207E0,3.509780884E0
2.001607845E0,5.587890625E0,6.950256348E0,3.404434204E0
2.004079769E0,5.645355225E0,6.890411377E0,3.423583984E0
2.006551693E0,5.690841675E0,6.774291992E0,3.345779419E0
2.008993099E0,5.698028564E0,6.674926758E0,3.278747559E0
2.011465023E0,5.684860229E0,6.613876343E0,3.312255859E0
2.013936947E0,5.646545410E0,6.611480713E0,3.287124634E0
2.016408871E0,5.507690430E0,6.545639038E0,3.311065674E0
2.018880795E0,5.398742676E0,6.488174438E0,3.335006714E0
2.021322201E0,5.341293335E0,6.482192993E0,3.312255859E0
2.023794125E0,5.331710815E0,6.526489258E0,3.410415649E0
2.026266048E0,5.350860596E0,6.565994263E0,3.424789429E0
2.028737972E0,5.317352295E0,6.534866333E0,3.512176514E0
2.031179379E0,5.330520630E0,6.546844482E0,3.679763794E0
2.033651302E0,5.359237671E0,6.580352783E0,3.714492798E0
2.036123226E0,5.366424561E0,6.628250122E0,3.847366333E0
2.038595150E0,5.335296631E0,6.597122192E0,3.962280273E0
2.041067074E0,5.331710815E0,6.660568237E0,3.929962158E0
2.043508480E0,5.335296631E0,6.735977173E0,4.006576538E0
2.045980404E0,5.360443115E0,6.795837402E0,3.967071533E0
2.048452328E0,5.326919556E0,6.825759888E0,4.050872803E0
2.050924252E0,5.291015625E0,6.895202637E0,4.181350708E0
2.053396175E0,5.204818726E0,7.007720947E0,4.178955078E0
2.055837582E0,5.153350830E0,7.128631592E0,4.077209473E0
2.058309505E0,5.100677490E0,7.236373901E0,4.084396362E0
2.060781429E0,5.073135376E0,7.328552246E0,4.096359253E0
2.063253353E0,4.980957031E0,7.466217041E0,4.113113403E0
2.065725277E0,4.931884766E0,7.563171387E0,3.981445312E0
2.068166683E0,4.898361206E0,7.599090576E0,3.573226929E0
2.070638607E0,4.970184326E0,7.705627441E0,2.933975220E0
2.073110531E0,5.209609985E0,7.875625610E0,2.435989380E0
2.075582455E0,5.304183960E0,7.927093506E0,2.383316040E0
2.078054379E0,5.395156860E0,7.942657471E0,2.294723511E0
2.080495785E0,5.472976685E0,7.910339355E0,2.389297485E0
2.082967709E0,5.524444580E0,7.797805786E0,2.579635620E0
2.085439632E0,5.689651489E0,7.782241821E0,2.811874390E0
2.087911556E0,5.684860229E0,7.627822876E0,2.845397949E0
2.090383480E0,5.687255859E0,7.408752441E0,2.832229614E0
2.092824886E0,5.668090820E0,7.347702026E0,2.711318970E0
2.095296810E0,5.518463135E0,7.249542236E0,2.541320801E0
2.097768734E0,5.385574341E0,7.219604492E0,2.354583740E0
2.100240658E0,5.334106445E0,7.289047241E0,2.209732056E0
2.102682064E0,5.296997070E0,7.291442871E0,2.215713501E0
2.105153988E0,5.115036011E0,7.310592651E0,2.244445801E0
2.107625912E0,5.148559570E0,7.266296387E0,2.273178101E0
2.110097836E0,5.178482056E0,7.182495117E0,2.427597046E0
2.112569759E0,5.130599976E0,7.132217407E0,2.631103516E0
2.115011166E0,5.184463501E0,7.086730957E0,2.840606689E0
2.117483089E0,5.267074585E0,7.067581177E0,3.003402710E0
2.119955013E0,5.238342285E0,7.067581177E0,3.071640015E0
2.122426937E0,5.237136841E0,7.078353882E0,3.120727539E0
2.124898861E0,5.198837280E0,7.050811768E0,3.132690430E0
2.127340267E0,5.140182495E0,7.147781372E0,3.187759399E0
2.129812191E0,5.085113525E0,7.357284546E0,3.199737549E0
2.132284115E0,4.983352661E0,7.521286011E0,3.155441284E0
2.134756039E0,4.980957031E0,7.643386841E0,3.141067505E0
2.137227963E0,5.040817261E0,7.709228516E0,3.188964844E0
2.139669369E0,5.283828735E0,7.676910400E0,3.182968140E0
2.142141293E0,5.471771240E0,7.581130981E0,3.240432739E0
2.144613216E0,5.642959595E0,7.548812866E0,3.343383789E0
2.147085140E0,5.614227295E0,7.620635986E0,3.372116089E0
2.149557064E0,5.693237305E0,7.673309326E0,3.346969604E0
2.152028988E0,5.832092285E0,7.684082031E0,3.442749023E0
2.154470394E0,5.954208374E0,7.692459106E0,3.510986328E0
2.156942318E0,6.043991089E0,7.599090576E0,3.508590698E0
2.159414242E0,6.160110474E0,7.511703491E0,3.597167969E0
2.161886166E0,6.227142334E0,7.407562256E0,3.557662964E0
2.164358089E0,6.290588379E0,7.266296387E0,3.499008179E0
2.166799496E0,6.424667358E0,7.170532227E0,3.384078979E0
2.169271420E0,6.441421509E0,7.038848877E0,3.317047119E0
2.171743343E0,6.460571289E0,6.762313843E0,3.557662964E0
2.174215267E0,6.524017334E0,6.537261963E0,3.709701538E0
2.176656673E0,6.595855713E0,6.411560059E0,3.783920288E0
2.179128597E0,6.585083008E0,6.285873413E0,3.649841309E0
2.181600521E0,6.597045898E0,6.033279419E0,3.601959229E0
2.184072445E0,6.613800049E0,5.803436279E0,3.652236938E0
2.186544369E0,6.629364014E0,5.654998779E0,3.736038208E0
2.188985775E0,6.620986938E0,5.555633545E0,3.841384888E0
2.191457699E0,6.686828613E0,5.513748169E0,3.799484253E0
2.193929623E0,6.713165283E0,5.343750000E0,3.795883179E0
2.196401547E0,6.769424438E0,5.275512695E0,3.962280273E0
2.198873470E0,6.834075928E0,5.183334351E0,4.123901367E0
2.201314877E0,6.886749268E0,5.125885010E0,4.149032593E0
2.203786800E0,6.927444458E0,5.089965820E0,4.176574707E0
2.206258724E0,6.941818237E0,4.985824585E0,4.234024048E0
2.208730648E0,6.988494873E0,4.811050415E0,4.439926147E0
2.211202572E0,7.007659912E0,4.824218750E0,4.527313232E0
2.213643978E0,6.988494873E0,4.906814575E0,4.509368896E0
2.216115902E0,6.965759277E0,4.991806030E0,4.551254272E0
2.218587826E0,6.940612793E0,5.147430420E0,4.536895752E0
2.221059750E0,6.970535278E0,5.301849365E0,4.571609497E0
2.223531673E0,6.963363647E0,5.485015869E0,4.662597656E0
2.225973080E0,7.019622803E0,5.530502319E0,4.779907227E0
2.228445004E0,7.031600952E0,5.547256470E0,4.852935791E0
2.230916927E0,7.060317993E0,5.579589844E0,5.012145996E0
2.233388851E0,7.098632812E0,5.652603149E0,5.122283936E0
2.235860775E0,7.117782593E0,5.680145264E0,5.218048096E0
2.238302181E0,7.133346558E0,5.680145264E0,5.136642456E0
2.240774105E0,7.043563843E0,5.678939819E0,5.042068481E0
2.243246029E0,6.994491577E0,5.596343994E0,4.982223511E0
2.245717953E0,6.910690308E0,5.530502319E0,4.954681396E0
2.248189877E0,6.825698853E0,5.519729614E0,4.822998047E0
2.250661800E0,6.670074463E0,5.386856079E0,4.764343262E0
2.253103207E0,6.541976929E0,5.336578369E0,4.636260986E0
2.255575130E0,6.412689209E0,5.271926880E0,4.453094482E0
2.258047054E0,6.320510864E0,5.242004395E0,4.251983643E0
2.260518978E0,6.215179443E0,5.264739990E0,4.113113403E0
2.262990902E0,6.179260254E0,5.279113770E0,3.963485718E0
2.265462826E0,6.108627319E0,5.298263550E0,3.828216553E0
2.267934750E0,6.005676270E0,5.348541260E0,3.684555054E0
2.270406673E0,6.027221680E0,5.350936890E0,3.572036743E0
2.272878597E0,5.990112305E0,5.301849365E0,3.490631104E0
2.275320004E0,5.974548340E0,5.263549805E0,3.410415649E0
2.277791927E0,6.009277344E0,5.227630615E0,3.240432739E0
2.280263851E0,6.067932129E0,5.121093750E0,3.138687134E0
2.282735775E0,6.115814209E0,4.960678101E0,3.133895874E0
2.285207699E0,6.157714844E0,4.919982910E0,3.002212524E0
2.287679623E0,6.236724854E0,4.855331421E0,2.979461670E0
2.290121029E0,6.249893188E0,4.744003296E0,3.024963379E0
2.292592953E0,6.338470459E0,4.637466431E0,2.959121704E0
2.295064877E0,6.453399658E0,4.659011841E0,2.803497314E0
2.297536800E0,6.501281738E0,4.637466431E0,2.765182495E0
2.299978207E0,6.576690674E0,4.601547241E0,2.881301880E0
2.302450130E0,6.707183838E0,4.575210571E0,2.980667114E0
2.304922054E0,6.764648438E0,4.551269531E0,3.021362305E0
2.307393978E0,6.879562378E0,4.582397461E0,2.935180664E0
2.309865902E0,6.968154907E0,4.578811646E0,2.969894409E0
2.312307308E0,7.042373657E0,4.533309937E0,3.051300049E0
2.314779232E0,7.093841553E0,4.560852051E0,3.024963379E0
2.317251156E0,7.159683228E0,4.664993286E0,2.960311890E0
2.319723080E0,7.205169678E0,4.672180176E0,2.947143555E0
2.322195004E0,7.241088867E0,4.636260986E0,3.017776489E0
2.324636410E0,7.342834473E0,4.611129761E0,3.053680420E0
2.327108334E0,7.420654297E0,4.662597656E0,2.935180664E0
2.329580257E0,7.421844482E0,4.706893921E0,2.789123535E0
2.332052181E0,7.460159302E0,4.721267700E0,2.638290405E0
2.334524105E0,7.441009521E0,4.791885376E0,2.452743530E0
2.336965511E0,7.511627197E0,4.714080811E0,2.465911865E0
2.339437435E0,7.506851196E0,4.591979980E0,2.458724976E0
2.341909359E0,7.564300537E0,4.588378906E0,2.239654541E0
2.344381283E0,7.553527832E0,4.564437866E0,2.070861816E0
2.346853207E0,7.601409912E0,4.447128296E0,2.093612671E0
2.349294613E0,7.662460327E0,4.322631836E0,1.994247437E0
2.351766537E0,7.673248291E0,4.259185791E0,1.765609741E0
2.354238461E0,7.637329102E0,4.165802002E0,1.736877441E0
2.356710384E0,7.651687622E0,4.049682617E0,1.777572632E0
2.359151791E0,7.682815552E0,4.023345947E0,1.632720947E0
2.361623714E0,7.616973877E0,3.976669312E0,1.434005737E0
2.364095638E0,7.638519287E0,3.825836182E0,1.545333862E0
2.366567562E0,7.657684326E0,3.725280762E0,1.553726196E0
2.369039486E0,7.565505981E0,3.736053467E0,1.442382812E0
2.371480892E0,7.601409912E0,3.641479492E0,1.388519287E0
2.373952816E0,7.640914917E0,3.435577393E0,1.542938232E0
2.376424740E0,7.640914917E0,3.341003418E0,1.562103271E0
2.378896664E0,7.595428467E0,3.351776123E0,1.438796997E0
2.381368588E0,7.578674316E0,3.145874023E0,1.559707642E0
2.383809994E0,7.650497437E0,2.896881104E0,1.852996826E0
2.386281918E0,7.697189331E0,2.898071289E0,1.899688721E0
2.388753841E0,7.699569702E0,2.911239624E0,1.957138062E0
2.391225765E0,7.783370972E0,2.741256714E0,2.248031616E0
2.393697689E0,7.877944946E0,2.598800659E0,2.501815796E0
2.396139095E0,7.971313477E0,2.620346069E0,2.585617065E0
2.398611019E0,7.967727661E0,2.730484009E0,2.492248535E0
2.401082943E0,7.985687256E0,2.684997559E0,2.645477295E0
2.403554867E0,8.108978271E0,2.604782104E0,2.969894409E0
2.406026791E0,8.203552246E0,2.637115479E0,3.100372314E0
2.408468197E0,8.226303101E0,2.686187744E0,3.094390869E0
2.410940121E0,8.185592651E0,2.846603394E0,3.004608154E0
2.413412045E0,8.240661621E0,2.900466919E0,2.917221069E0
2.415883968E0,8.320877075E0,2.785552979E0,3.139877319E0
2.418355892E0,8.445373535E0,2.705337524E0,3.229660034E0
2.420797298E0,8.562683105E0,2.790344238E0,3.289520264E0
2.423269222E0,8.573455811E0,2.956741333E0,3.089599609E0
2.425741146E0,8.562683105E0,3.127914429E0,2.819061279E0
2.428213070E0,8.626129150E0,3.066864014E0,2.904052734E0
2.430684994E0,8.701553345E0,2.984268188E0,2.999816895E0
2.433126400E0,8.729080200E0,3.100387573E0,2.963897705E0
2.435598324E0,8.720703125E0,3.360153198E0,2.559280396E0
2.438070248E0,8.668029785E0,3.392486572E0,2.416824341E0
2.440542172E0,8.701553345E0,3.224884033E0,2.552108765E0
2.443014095E0,8.715911865E0,3.223693848E0,2.530548096E0
2.445455502E0,8.592620850E0,3.314666748E0,2.367752075E0
2.447927425E0,8.393890381E0,3.398468018E0,2.112762451E0
2.450399349E0,8.294540405E0,3.148269653E0,2.212127686E0
2.452871273E0,8.143707275E0,3.040527344E0,2.207336426E0
2.455343197E0,7.952163696E0,3.029754639E0,2.063690186E0
2.457784603E0,7.680419922E0,3.017791748E0,1.645889282E0
2.460256527E0,7.514022827E0,2.895675659E0,1.705749512E0
2.462728451E0,7.458953857E0,2.779556274E0,1.932006836E0
2.465200375E0,7.388336182E0,2.724502563E0,1.971511841E0
2.467672298E0,7.203979492E0,2.702941895E0,1.753631592E0
2.470113705E0,7.005264282E0,2.718505859E0,1.587234497E0
2.472585629E0,6.887939453E0,2.643096924E0,1.462738037E0
2.475057552E0,7.133346558E0,2.370147705E0,1.441192627E0
2.477529476E0,8.531555176E0,1.951171875E0,1.092834473E0
2.480001400E0,1.084077454E1,1.267623901E0,3.338775635E-1
2.482442806E0,1.341213989E1,6.164093018E-1,-7.243652344E-1
2.484914730E0,1.537300110E1,1.339721680E-1,-1.980117798E0
2.487386654E0,1.601225281E1,-5.636596680E-2,-2.667251587E0
2.489858578E0,1.546995544E1,2.743530273E-2,-2.701980591E0
2.492330502E0,1.454579163E1,2.680511475E-1,-2.308120728E0
2.494771908E0,1.382154846E1,4.703521729E-1,-1.667678833E0
2.497243832E0,1.332714844E1,6.247863770E-1,-8.811798096E-1
2.499715755E0,1.291773987E1,7.289276123E-1,-3.041839600E-1
2.502187679E0,1.269148254E1,7.612457275E-1,4.656982422E-2
2.504659603E0,1.236946106E1,7.899780273E-1,5.290069580E-1
2.507131527E0,1.206300354E1,7.025909424E-1,8.785552979E-1
2.509572933E0,1.175056458E1,7.133636475E-1,1.520202637E0
2.512044857E0,1.156741333E1,7.097778320E-1,2.136703491E0
2.514516781E0,1.138066101E1,7.217407227E-1,2.437179565E0
2.516988705E0,1.125497437E1,7.516784668E-1,2.742446899E0
2.519430111E0,1.107180786E1,8.139190674E-1,2.947143555E0
2.521902035E0,1.096766663E1,7.935791016E-1,3.272750854E0
2.524373959E0,1.067556763E1,8.402557373E-1,3.464294434E0
2.526845882E0,1.044093323E1,9.037017822E-1,3.595977783E0
2.529317806E0,1.036911011E1,8.438568115E-1,3.709701538E0
2.531759213E0,1.024580383E1,7.385101318E-1,3.871307373E0
2.534231136E0,1.013568115E1,6.846313477E-1,4.061645508E0
2.536703060E0,1.008779907E1,6.475219727E-1,4.180160522E0
2.539174984E0,9.983642578E0,5.780944824E-1,4.265151978E0
2.541646908E0,9.904632568E0,5.074615479E-1,4.335784912E0
2.544118832E0,9.826828003E0,4.990844727E-1,4.480636597E0
2.546590755E0,9.660430908E0,4.607849121E-1,4.375289917E0
2.549062679E0,9.327636719E0,5.912628174E-1,4.044891357E0
2.551534603E0,9.023574829E0,5.649261475E-1,3.862930298E0
2.554006527E0,8.882308960E0,5.421752930E-1,3.836593628E0
2.556447933E0,8.788940430E0,5.924530029E-1,3.799484253E0
2.558919857E0,8.893081665E0,5.697174072E-1,3.743209839E0
2.561391781E0,9.004409790E0,5.397949219E-1,3.794692993E0
2.563863705E0,9.017578125E0,5.242309570E-1,3.920394897E0
2.566335629E0,8.963714600E0,5.517578125E-1,4.059249878E0
2.568807552E0,8.838012695E0,5.409851074E-1,4.002990723E0
2.571279476E0,8.824859619E0,5.397949219E-1,3.939544678E0
2.573720882E0,8.841613770E0,5.481719971E-1,3.934753418E0
2.576192806E0,8.934982300E0,5.565490723E-1,3.937149048E0
2.578664730E0,9.023574829E0,5.433807373E-1,3.949111938E0
2.581106136E0,9.151657104E0,5.110626221E-1,3.730041504E0
2.583578060E0,9.279754639E0,4.787292480E-1,3.209304810E0
2.586049984E0,9.377914429E0,4.895019531E-1,2.771163940E0
2.588521908E0,9.485656738E0,4.954986572E-1,2.488662720E0
2.590993832E0,9.532333374E0,4.978942871E-1,2.440765381E0
2.593465755E0,9.611343384E0,5.158386230E-1,2.391693115E0
2.595907162E0,9.711898804E0,5.254211426E-1,2.506607056E0
2.598379086E0,9.741836548E0,5.517578125E-1,2.593994141E0
2.600851009E0,9.711898804E0,5.242309570E-1,2.643081665E0
2.603322933E0,9.708312988E0,5.804901123E-1,2.629913330E0
2.605794857E0,9.734649658E0,5.469665527E-1,2.652664185E0
2.608236263E0,9.601776123E0,5.254211426E-1,2.688568115E0
2.610708187E0,9.543106079E0,5.278167725E-1,2.813064575E0
2.613180111E0,9.465301514E0,5.278167725E-1,2.850173950E0
2.615621517E0,9.385101318E0,4.739532471E-1,2.933975220E0
2.618093441E0,9.412628174E0,4.715576172E-1,2.896865845E0
2.620565365E0,9.496429443E0,4.727478027E-1,2.918411255E0
2.623037289E0,9.444946289E0,4.416198730E-1,3.114746094E0
2.625509213E0,9.362350464E0,3.973388672E-1,3.382888794E0
2.627981136E0,9.352767944E0,4.667663574E-1,3.551681519E0
2.630422543E0,9.375518799E0,4.272613525E-1,3.652236938E0
2.632894466E0,9.361160278E0,3.997344971E-1,3.709701538E0
2.635366390E0,9.277359009E0,4.284515381E-1,3.692932129E0
2.637838314E0,9.101379395E0,5.086669922E-1,3.728851318E0
2.640310238E0,8.919418335E0,6.104125977E-1,3.654632568E0
2.642751644E0,8.871536255E0,6.439361572E-1,3.582809448E0
2.645223568E0,8.899078369E0,7.001953125E-1,3.478652954E0
2.647695492E0,8.964920044E0,7.169647217E-1,3.499008179E0
2.650167416E0,8.988861084E0,6.894226074E-1,3.402038574E0
2.652639339E0,8.990051270E0,6.499176025E-1,3.248809814E0
2.655080746E0,8.962524414E0,6.331634521E-1,3.126708984E0
2.657552670E0,8.878723145E0,7.014007568E-1,3.188964844E0
2.660024593E0,8.778167725E0,8.522338867E-1,3.385284424E0
2.662496517E0,8.620147705E0,1.015029907E0,3.433166504E0
2.664937923E0,8.539947510E0,1.102432251E0,3.366134644E0
2.667409847E0,8.501632690E0,1.071304321E0,3.273956299E0
2.669881771E0,8.559097290E0,1.096435547E0,3.072845459E0
2.672353695E0,8.583038330E0,1.135940552E0,3.007003784E0
2.674825619E0,8.668029785E0,1.103622437E0,2.846588135E0
2.677267025E0,8.731475830E0,1.060531616E0,2.791519165E0
2.679738949E0,8.788940430E0,1.032989502E0,2.795120239E0
2.682210873E0,8.830841064E0,1.007858276E0,2.856170654E0
2.684682797E0,8.847595215E0,9.982757568E-1,2.954330444E0
2.687154720E0,8.913436890E0,9.492034912E-1,3.136291504E0
2.689596127E0,8.994842529E0,8.570251465E-1,3.223678589E0
2.692068050E0,9.077438354E0,8.426513672E-1,3.416412354E0
2.694539974E0,9.107360840E0,7.887878418E-1,3.670196533E0
2.697011898E0,9.150466919E0,7.433013916E-1,3.765960693E0
2.699483822E0,9.172012329E0,6.846313477E-1,3.921585083E0
2.701925228E0,9.137298584E0,5.816802979E-1,4.056854248E0
2.704397152E0,9.134902954E0,5.421752930E-1,4.110733032E0
2.706869076E0,9.118148804E0,4.715576172E-1,4.159805298E0
2.709341000E0,9.091812134E0,3.877563477E-1,4.169387817E0
2.711812923E0,9.045120239E0,3.697967529E-1,4.078399658E0
2.714254330E0,9.045120239E0,2.955780029E-1,4.119110107E0
2.716726254E0,8.985260010E0,3.255004883E-1,4.214874268E0
2.719198177E0,8.908645630E0,4.320526123E-1,4.147842407E0
2.721670101E0,8.741058350E0,5.745086670E-1,4.138259888E0
2.724142025E0,8.530364990E0,6.331634521E-1,4.030517578E0
2.726583431E0,8.295730591E0,7.133636475E-1,3.921585083E0
2.729055355E0,8.092224121E0,7.911834717E-1,3.748001099E0
2.731527279E0,7.943786621E0,8.857574463E-1,3.555267334E0
2.733999203E0,7.796539307E0,9.599761963E-1,3.368530273E0
2.736471127E0,7.596633911E0,1.061721802E0,3.271560669E0
2.738912533E0,7.485290527E0,1.122772217E0,3.182968140E0
2.741384457E0,7.344039917E0,1.231704712E0,3.097976685E0
2.743856380E0,7.317703247E0,1.299942017E0,3.087203979E0
2.746328304E0,7.290161133E0,1.285583496E0,2.999816895E0
2.748800228E0,7.225524902E0,1.331069946E0,2.942352295E0
2.751241634E0,7.273406982E0,1.345443726E0,2.725677490E0
2.753713558E0,7.359603882E0,1.381347656E0,2.520980835E0
2.756185482E0,7.126159668E0,1.444793701E0,2.345001221E0
2.758657406E0,7.096237183E0,1.600418091E0,2.260009766E0
2.761129330E0,7.138137817E0,1.663864136E0,2.101989746E0
2.763570736E0,7.016036987E0,1.776397705E0,1.945175171E0
2.766042660E0,6.962158203E0,1.929626465E0,1.750045776E0
2.768514584E0,7.010040283E0,2.080459595E0,1.637512207E0
2.770986507E0,6.990890503E0,2.250442505E0,1.647094727E0
2.773458431E0,6.951385498E0,2.371353149E0,1.599212646E0
2.775899838E0,7.029205322E0,2.424026489E0,1.738067627E0
2.778371761E0,7.008850098E0,2.602386475E0,1.844619751E0
2.780843685E0,6.995681763E0,2.712524414E0,2.026580811E0
2.783315609E0,7.029205322E0,2.744842529E0,2.143890381E0
2.785787533E0,7.080673218E0,2.723297119E0,2.028961182E0
2.788259457E0,7.202774048E0,2.647888184E0,2.237258911E0
2.790700863E0,7.329666138E0,2.565277100E0,2.526962280E0
2.793172787E0,7.345230103E0,2.536544800E0,2.485061646E0
2.795644711E0,7.394317627E0,2.553314209E0,2.356979370E0
2.798116634E0,7.344039917E0,2.598800659E0,2.509002686E0
2.800558041E0,7.309326172E0,2.634719849E0,2.576049805E0
2.803029964E0,7.239883423E0,2.687393188E0,2.386901855E0
2.805501888E0,7.275802612E0,2.707733154E0,2.231277466E0
2.807973812E0,7.257843018E0,2.711334229E0,2.098403931E0
2.810445736E0,7.227920532E0,2.699356079E0,2.038543701E0
2.812887142E0,7.201583862E0,2.702941895E0,1.948760986E0
2.815359066E0,7.115386963E0,2.658660889E0,1.953552246E0
2.817830990E0,7.016036987E0,2.614364624E0,1.921234131E0
2.820302914E0,6.891540527E0,2.535354614E0,1.945175171E0
2.822774838E0,6.788589478E0,2.471908569E0,1.930801392E0
2.825216244E0,6.626968384E0,2.383316040E0,1.971511841E0
2.827688168E0,6.594650269E0,2.372543335E0,2.034957886E0
2.830160091E0,6.527618408E0,2.267211914E0,2.014602661E0
2.832632015E0,6.425857544E0,2.195373535E0,2.022979736E0
2.835103939E0,6.360015869E0,2.139114380E0,2.051712036E0
2.837575863E0,6.275024414E0,2.082855225E0,2.049316406E0
2.840047787E0,6.202011108E0,2.073272705E0,2.082839966E0
2.842519711E0,6.106231689E0,2.054122925E0,2.157058716E0
2.844991634E0,6.043991089E0,2.012222290E0,2.209732056E0
2.847463558E0,6.017654419E0,2.050521851E0,2.192977905E0
2.849904964E0,6.027221680E0,2.018203735E0,2.270782471E0
2.852376888E0,6.119400024E0,2.024200439E0,2.420425415E0
2.854848812E0,6.245101929E0,1.934417725E0,2.518585205E0
2.857320736E0,6.337280273E0,1.981094360E0,2.571258545E0
2.859792660E0,6.437835693E0,1.941589355E0,2.742446899E0
2.862234066E0,6.579086304E0,1.955963135E0,2.840606689E0
2.864705990E0,6.632965088E0,1.960739136E0,2.859756470E0
2.867177914E0,6.668869019E0,1.936798096E0,2.840606689E0
2.869649838E0,6.698806763E0,1.972717285E0,2.798706055E0
2.872121761E0,6.788589478E0,2.072082520E0,2.714904785E0
2.874563168E0,6.802947998E0,2.178619385E0,2.604766846E0
2.877035091E0,6.795761108E0,2.276779175E0,2.488662720E0
2.879507015E0,6.881958008E0,2.376144409E0,2.404861450E0
2.881978939E0,6.923858643E0,2.512603760E0,2.397674561E0
2.884450863E0,6.917877197E0,2.650283813E0,2.261199951E0
2.886892269E0,6.866394043E0,2.785552979E0,2.100799561E0
2.889364193E0,6.859207153E0,2.905258179E0,1.926010132E0
2.891836117E0,6.937026978E0,3.007019043E0,1.754837036E0
2.894308041E0,6.935821533E0,3.112350464E0,1.609985352E0
2.896779964E0,6.963363647E0,3.246429443E0,1.655471802E0
2.899221371E0,7.027999878E0,3.348190308E0,1.636322021E0
2.901693295E0,7.000473022E0,3.376922607E0,1.479492188E0
2.904165218E0,7.032791138E0,3.406845093E0,1.392105103E0
2.906637142E0,7.031600952E0,3.373321533E0,1.389709473E0
2.909109066E0,7.045959473E0,3.330230713E0,1.399291992E0
2.911550472E0,7.090255737E0,3.329025269E0,1.484283447E0
2.914022396E0,7.130950928E0,3.275161743E0,1.599212646E0
2.916494320E0,7.224334717E0,3.193756104E0,1.717727661E0
2.918966244E0,7.394317627E0,3.160247803E0,1.797927856E0
2.921438168E0,7.484100342E0,3.120742798E0,1.958343506E0
2.923879574E0,7.627746582E0,3.050109863E0,2.177413940E0
2.926351498E0,7.763031006E0,3.013000488E0,2.336624146E0
2.928823422E0,7.942581177E0,2.980682373E0,2.629913330E0
2.931295345E0,8.117370605E0,2.939971924E0,2.912429810E0
2.933736752E0,8.263412476E0,2.941177368E0,3.206909180E0
2.936208675E0,8.450164795E0,2.859771729E0,3.487030029E0
2.938680599E0,8.593811035E0,2.799911499E0,3.680969238E0
2.941152523E0,8.754226685E0,2.759216309E0,3.908416748E0
2.943624447E0,8.925415039E0,2.664642334E0,3.995803833E0
2.946065853E0,9.046310425E0,2.592819214E0,4.044891357E0
2.948537777E0,9.158843994E0,2.511413574E0,4.249588013E0
2.951009701E0,9.367141724E0,2.469512939E0,4.413589478E0
2.953481625E0,9.461715698E0,2.402481079E0,4.460281372E0
2.955953548E0,9.535934448E0,2.330657959E0,4.538085938E0
2.958394955E0,9.589797974E0,2.237274170E0,4.588363647E0
2.960866879E0,9.667617798E0,2.192977905E0,4.539291382E0
2.963338802E0,9.713104248E0,2.117568970E0,4.419586182E0
2.965810726E0,9.701126099E0,2.085250854E0,4.325012207E0
2.968282650E0,9.608947754E0,2.173828125E0,4.155014038E0
2.970724056E0,9.507202148E0,2.215728760E0,3.912002563E0
2.973195980E0,9.473678589E0,2.365371704E0,3.767166138E0
2.975667904E0,9.422210693E0,2.503036499E0,3.648651123E0
2.978139828E0,9.394668579E0,2.651473999E0,3.475067139E0
2.980611752E0,9.294113159E0,2.780761719E0,3.336196899E0
2.983053158E0,9.278549194E0,2.941177368E0,3.174591064E0
2.985525082E0,9.234252930E0,3.080032349E0,3.005798340E0
2.987997005E0,9.219894409E0,3.214111328E0,2.815460205E0
2.990468929E0,9.138488770E0,3.376922607E0,2.662231445E0
2.992940853E0,9.059478760E0,3.483459473E0,2.483871460E0
2.995382259E0,9.005615234E0,3.586410522E0,2.287536621E0
2.997854183E0,8.896682739E0,3.665420532E0,2.076858521E0
3.000326107E0,8.798522949E0,3.770767212E0,1.973907471E0
3.002798031E0,8.706344604E0,3.944335938E0,1.888900757E0
3.005269955E0,8.579452515E0,4.121520996E0,1.626739502E0
3.007711361E0,8.556701660E0,4.138275146E0,1.222122192E0
3.010183285E0,8.642898560E0,4.038909912E0,1.188598633E0
3.012655209E0,8.566284180E0,4.162216187E0,1.162261963E0
3.015127132E0,8.480087280E0,4.333404541E0,1.055725098E0
3.017599056E0,8.557891846E0,4.357345581E0,1.042556763E0
3.020040463E0,8.670425415E0,4.287918091E0,1.187408447E0
3.022512386E0,8.866744995E0,4.198135376E0,1.297546387E0
3.024984310E0,9.157638550E0,4.101165771E0,1.577667236E0
3.027456234E0,9.498825073E0,3.975463867E0,1.921234131E0
3.029928158E0,9.760986328E0,3.843780518E0,2.287536621E0
3.032369564E0,1.001477051E1,3.748016357E0,2.693359375E0
3.034841488E0,1.024580383E1,3.666610718E0,3.117126465E0
3.037313412E0,1.046847534E1,3.572036743E0,3.422393799E0
3.039785336E0,1.067556763E1,3.509796143E0,3.698928833E0
3.042257259E0,1.087907410E1,3.409240723E0,4.013763428E0
3.044698666E0,1.103948975E1,3.344589233E0,4.296279907E0
3.047170589E0,1.109335327E1,3.357757568E0,4.629074097E0
3.049642513E0,1.109695435E1,3.461914062E0,4.658996582E0
3.052114437E0,1.122624207E1,3.449935913E0,4.237625122E0
3.054586361E0,1.140460205E1,3.260803223E0,4.462677002E0
3.057027767E0,1.149917603E1,3.165023804E0,4.998977661E0
3.059499691E0,1.138545227E1,3.233261108E0,4.767929077E0
3.061971615E0,1.135911560E1,3.408035278E0,4.502182007E0
3.064443539E0,1.141058350E1,3.384094238E0,4.285507202E0
3.066915463E0,1.140939331E1,3.370925903E0,4.676956177E0
3.069356869E0,1.118194580E1,3.538528442E0,4.621887207E0
3.071828793E0,1.111370850E1,3.647460938E0,4.325012207E0
3.074300716E0,1.100596619E1,3.734848022E0,4.072418213E0
3.076772640E0,1.093055725E1,3.805480957E0,3.947921753E0
3.079244564E0,1.084556580E1,3.859344482E0,3.916793823E0
3.081685970E0,1.079049683E1,3.974273682E0,3.798278809E0
3.084157894E0,1.077612305E1,4.071228027E0,3.336196899E0
3.086629818E0,1.099400330E1,3.830612183E0,3.445144653E0
3.089101742E0,1.115081787E1,3.584014893E0,4.018554688E0
3.091573666E0,1.083717346E1,3.807876587E0,3.852157593E0
3.094015072E0,1.063127136E1,4.058059692E0,3.187759399E0
3.096486996E0,1.082041931E1,3.898849487E0,3.038131714E0
3.098958920E0,1.098921204E1,3.667816162E0,4.013763428E0
3.101430843E0,1.058699036E1,3.956314087E0,4.253189087E0
3.103902767E0,1.027095032E1,4.416000366E0,3.493026733E0
3.106344173E0,1.042178345E1,4.490219116E0,3.136291504E0
3.108816097E0,1.056542969E1,4.405227661E0,3.366134644E0
3.111288021E0,1.057980347E1,4.413604736E0,4.036499023E0
3.113759945E0,1.041101074E1,4.596755981E0,4.139450073E0
3.116231869E0,1.038946533E1,4.716476440E0,3.605545044E0
3.118703793E0,1.047804260E1,4.678161621E0,3.562454224E0
3.121175716E0,1.058338928E1,4.593170166E0,3.775543213E0
3.123647640E0,1.066120911E1,4.578811646E0,3.829406738E0
3.126119564E0,1.082400513E1,4.535705566E0,3.878494263E0
3.128591488E0,1.096166992E1,4.475860596E0,4.029327393E0
3.131032894E0,1.105984497E1,4.421981812E0,4.242401123E0
3.133504818E0,1.108618164E1,4.418395996E0,4.303466797E0
3.135976742E0,1.113525391E1,4.358535767E0,4.419586182E0
3.138448666E0,1.115560913E1,4.327407837E0,4.502182007E0
3.140920589E0,1.112568665E1,4.372909546E0,4.688919067E0
3.143361996E0,1.111370850E1,4.459091187E0,4.728424072E0
3.145833920E0,1.118913269E1,4.529724121E0,4.667373657E0
3.148305843E0,1.125616455E1,4.526138306E0,4.619491577E0
3.150777767E0,1.117356873E1,4.778717041E0,4.273529053E0
3.153249691E0,1.098800659E1,5.155807495E0,4.008972168E0
3.155691097E0,1.084436035E1,5.417968750E0,3.493026733E0
3.158163021E0,1.099639893E1,5.201293945E0,3.269165039E0
3.160634945E0,1.087428284E1,5.154617310E0,3.239242554E0
3.163106869E0,1.049241638E1,5.574798584E0,3.266769409E0
3.165578793E0,1.032122803E1,5.824981689E0,2.822647095E0
3.168020199E0,1.033439636E1,5.838150024E0,2.580825806E0
3.170492123E0,1.025897217E1,5.693313599E0,2.661041260E0
3.172964047E0,1.019075012E1,5.638244629E0,3.009399414E0
3.175435970E0,9.982452393E0,5.596343994E0,2.864547729E0
3.177877377E0,9.818450928E0,5.558029175E0,2.619140625E0
3.180349300E0,9.673599243E0,5.483810425E0,2.762786865E0
3.182821224E0,9.477264404E0,5.457473755E0,2.992630005E0
3.185293148E0,9.351577759E0,5.428741455E0,3.040512085E0
3.187765072E0,9.288131714E0,5.449096680E0,3.082412720E0
3.190236996E0,9.228271484E0,5.427551270E0,3.039321899E0
3.192678402E0,9.166030884E0,5.338958740E0,2.937561035E0
3.195150326E0,9.040328979E0,5.222839355E0,3.255996704E0
3.197622250E0,8.809295654E0,5.147430420E0,3.659423828E0
3.200094173E0,8.516006470E0,5.057647705E0,3.908416748E0
3.202535580E0,8.208343506E0,5.007369995E0,4.104736328E0
3.205007504E0,8.003646851E0,4.928359985E0,4.266357422E0
3.207479427E0,7.911468506E0,4.696121216E0,4.181350708E0
3.209951351E0,7.498458862E0,4.681762695E0,4.413589478E0
3.212423275E0,7.351226807E0,4.814636230E0,4.842147827E0
3.214895199E0,7.107009888E0,5.111511230E0,5.222839355E0
3.217367123E0,7.059127808E0,5.253967285E0,5.390426636E0
3.219808529E0,7.133346558E0,5.125885010E0,5.344940186E0
3.222280453E0,7.308120728E0,4.796676636E0,5.249176025E0
3.224752377E0,7.490081787E0,4.441146851E0,5.115097046E0
3.227193783E0,7.627746582E0,4.140670776E0,5.122283936E0
3.229665707E0,7.704360962E0,3.956314087E0,5.143829346E0
3.232137630E0,7.691192627E0,3.989837646E0,5.164169312E0
3.234609554E0,7.521209717E0,4.098770142E0,5.173751831E0
3.237081478E0,7.512832642E0,4.243621826E0,5.170166016E0
3.239522884E0,7.616973877E0,4.335800171E0,5.007354736E0
3.241994808E0,7.663665771E0,4.455505371E0,4.777511597E0
3.244466732E0,7.731903076E0,4.540496826E0,4.653015137E0
3.246938656E0,7.806121826E0,4.578811646E0,4.493804932E0
3.249410580E0,7.834854126E0,4.681762695E0,4.374084473E0
3.251851986E0,7.790557861E0,4.744003296E0,4.158615112E0
3.254323910E0,7.705566406E0,4.878082275E0,4.085586548E0
3.256795834E0,7.742675781E0,4.997787476E0,3.846160889E0
3.259267757E0,7.712738037E0,5.081588745E0,3.538513184E0
3.261739681E0,7.820480347E0,5.146224976E0,3.344589233E0
3.264181088E0,7.839645386E0,5.176162720E0,3.199737549E0
3.266653011E0,7.846817017E0,5.276718140E0,3.160232544E0
3.269124935E0,7.813308716E0,5.450302124E0,3.057281494E0
3.271596859E0,7.802520752E0,5.522125244E0,2.963897705E0
3.274068783E0,7.813308716E0,5.534088135E0,2.792724609E0
3.276510189E0,7.824081421E0,5.542465210E0,2.689773560E0
3.278982113E0,7.894699097E0,5.556838989E0,2.526962280E0
3.281454037E0,7.960540771E0,5.522125244E0,2.395278931E0
3.283925961E0,8.085037231E0,5.525711060E0,2.366546631E0
3.286397884E0,8.110183716E0,5.501770020E0,2.269592285E0
3.288839291E0,8.095825195E0,5.552047729E0,2.172622681E0
3.291311214E0,8.041946411E0,5.553253174E0,2.052917480E0
3.293783138E0,8.061096191E0,5.514938354E0,1.973907471E0
3.296255062E0,8.086242676E0,5.475433350E0,1.939178467E0
3.298726986E0,8.083847046E0,5.410797119E0,1.839828491E0
3.301168392E0,8.167648315E0,5.321014404E0,1.815887451E0
3.303640316E0,8.204757690E0,5.242004395E0,1.845809937E0
3.306112240E0,8.233489990E0,5.172561646E0,1.908065796E0
3.308584164E0,8.259826660E0,5.067230225E0,2.011016846E0
3.311056088E0,8.234680176E0,4.987014771E0,2.016998291E0
3.313497494E0,8.176025391E0,4.976242065E0,2.045730591E0
3.315969418E0,8.192779541E0,4.989410400E0,2.119949341E0
3.318441341E0,8.225097656E0,5.034896851E0,2.133117676E0
3.320913265E0,8.160461426E0,5.020538330E0,2.025375366E0
3.323385189E0,8.155670166E0,5.056442261E0,2.014602661E0
3.325857113E0,8.113769531E0,5.103134155E0,2.028961182E0
3.328298519E0,8.040756226E0,5.152221680E0,1.896087646E0
3.330770443E0,8.056320190E0,5.092361450E0,1.848205566E0
3.333242367E0,8.022796631E0,5.085174561E0,1.708145142E0
3.335714291E0,8.015609741E0,5.147430420E0,1.649490356E0
3.338186214E0,7.968917847E0,4.629089355E0,1.107208252E0
3.340627621E0,7.033996582E0,3.271575928E0,-1.796875000E-1
3.343099545E0,5.931457520E0,2.998626709E0,2.129669189E-1
3.345571468E0,4.942657471E0,2.939971924E0,1.088256836E-1
3.348043392E0,4.025680542E0,3.925186157E0,6.666717529E-1
3.350484798E0,4.001739502E0,5.319808960E0,1.295150757E0
3.352956722E0,4.515289307E0,6.801818848E0,1.851791382E0
3.355428646E0,5.256301880E0,8.352066040E0,2.008621216E0
3.357900570E0,6.395935059E0,8.721969604E0,1.026992798E0
3.360372494E0,7.265029907E0,8.340103149E0,-4.919433594E-2
3.362844418E0,7.944976807E0,7.714019775E0,-8.213348389E-1
3.365285824E0,8.158065796E0,7.014907837E0,-1.224746704E0
3.367757748E0,8.112579346E0,6.500152588E0,-9.577941895E-1
3.370229672E0,8.033569336E0,6.317001343E0,-3.017883301E-1
3.372701595E0,8.021591187E0,6.118270874E0,5.852661133E-1
3.375143002E0,8.059906006E0,5.923156738E0,1.621948242E0
3.377614925E0,8.281372070E0,5.743591309E0,2.258804321E0
3.380086849E0,8.657257080E0,5.361709595E0,2.465911865E0
3.382558773E0,8.822463989E0,4.927169800E0,2.576049805E0
3.385030697E0,8.847595215E0,4.629089355E0,2.704132080E0
3.387472103E0,8.861968994E0,4.558456421E0,2.813064575E0
3.389944027E0,8.848800659E0,4.536911011E0,2.945953369E0
3.392415951E0,8.694366455E0,4.605148315E0,3.046508789E0
3.394887875E0,8.627334595E0,4.691329956E0,3.029739380E0
3.397359798E0,8.580642700E0,4.749984741E0,3.001007080E0
3.399831722E0,8.422622681E0,4.821823120E0,2.955520630E0
3.402303646E0,8.397491455E0,4.904418945E0,2.798706055E0
3.404775570E0,8.606979370E0,5.000183105E0,2.631103516E0
3.407247494E0,8.557891846E0,5.083984375E0,2.524566650E0
3.409719418E0,8.624938965E0,5.216857910E0,2.607162476E0
3.412160824E0,8.513610840E0,5.337768555E0,2.489852905E0
3.414632748E0,8.480087280E0,5.452682495E0,2.386901855E0
3.417104672E0,8.381927490E0,5.580780029E0,2.330642700E0
3.419576595E0,8.336441040E0,5.683731079E0,2.200149536E0
3.422048519E0,8.209548950E0,5.780700684E0,2.137908936E0
3.424489925E0,8.044342041E0,5.845336914E0,1.867355347E0
3.426961849E0,8.246658325E0,5.801040649E0,1.977493286E0
3.429433773E0,8.182006836E0,5.783096313E0,2.056503296E0
3.431905697E0,7.917449951E0,5.781890869E0,1.967910767E0
3.434377621E0,8.021591187E0,5.718444824E0,1.876937866E0
3.436819027E0,8.035964966E0,5.621475220E0,1.872146606E0
3.439290951E0,8.053924561E0,5.725631714E0,2.081634521E0
3.441762875E0,8.350799561E0,6.629440308E0,2.705337524E0
3.444234798E0,8.413055420E0,7.117858887E0,2.390487671E0
3.446706722E0,8.417831421E0,6.974197388E0,2.019393921E0
3.449148129E0,8.136520386E0,6.666549683E0,1.554916382E0
3.451620052E0,7.765411377E0,7.103485107E0,6.391296387E-1
3.454091976E0,7.476913452E0,7.571563721E0,-2.179870605E-1
3.456563900E0,7.238693237E0,7.892379761E0,-1.127792358E0
3.459035824E0,7.035186768E0,7.906753540E0,-1.789779663E0
3.461477230E0,6.691619873E0,7.502120972E0,-1.709579468E0
3.463949154E0,6.343261719E0,6.636627197E0,-1.461776733E0
3.466421078E0,6.215179443E0,6.053634644E0,-1.395935059E0
3.468893002E0,6.111022949E0,6.214050293E0,-1.377975464E0
3.471334408E0,6.063140869E0,6.461853027E0,-1.172073364E0
3.473806332E0,6.130172729E0,6.761123657E0,-9.063262939E-1
3.476278255E0,6.273834229E0,6.874847412E0,-6.238098145E-1
3.478750179E0,6.324111938E0,6.967025757E0,-3.089752197E-1
3.481222103E0,6.318115234E0,6.804214478E0,6.932067871E-2
3.483663509E0,6.239120483E0,6.466629028E0,6.127929688E-1
3.486135433E0,6.241500854E0,6.235595703E0,1.262817383E0
3.488607357E0,6.272628784E0,6.023712158E0,1.861373901E0
3.491079281E0,6.333679199E0,5.783096313E0,2.362960815E0
3.493551205E0,6.345657349E0,5.702880859E0,2.476684570E0
3.495992611E0,6.638946533E0,5.621475220E0,2.625122070E0
3.498464535E0,6.796966553E0,5.672958374E0,2.781951904E0
3.500936459E0,6.794570923E0,5.706481934E0,2.822647095E0
3.503408382E0,6.774215698E0,5.750762939E0,2.807083130E0
3.505880306E0,6.848434448E0,5.783096313E0,2.738845825E0
3.508321713E0,6.696411133E0,5.917160034E0,2.802291870E0
3.510793636E0,6.826889038E0,5.933929443E0,2.813064575E0
3.513265560E0,6.987304688E0,6.020111084E0,2.634704590E0
3.515737484E0,7.059127808E0,6.131439209E0,2.711318970E0
3.518209408E0,7.188415527E0,6.003356934E0,2.828628540E0
3.520650814E0,7.330871582E0,6.000961304E0,2.711318970E0
3.523122738E0,7.419448853E0,6.017715454E0,2.762786865E0
3.525594662E0,7.411071777E0,6.095535278E0,2.884902954E0
3.528066586E0,7.287780762E0,6.352905273E0,2.939956665E0
3.530538509E0,7.144119263E0,6.357696533E0,2.829833984E0
3.532979916E0,7.251861572E0,6.352905273E0,2.735260010E0
3.535451839E0,7.315307617E0,6.372070312E0,2.651458740E0
3.537923763E0,7.328475952E0,6.419952393E0,2.596389771E0
3.540395687E0,7.230316162E0,6.289459229E0,2.516189575E0
3.542867611E0,7.277008057E0,6.229614258E0,2.510208130E0
3.545309017E0,7.165664673E0,6.251159668E0,2.534149170E0
3.547780941E0,7.054336548E0,6.226013184E0,2.463516235E0
3.550252865E0,6.994491577E0,6.079971313E0,2.317474365E0
3.552724789E0,6.899917603E0,6.026107788E0,2.161849976E0
3.555196713E0,6.761047363E0,6.094329834E0,1.996643066E0
3.557638119E0,6.741897583E0,6.270309448E0,1.851791382E0
3.560110043E0,6.563522339E0,6.410369873E0,1.617172241E0
3.562581966E0,6.534805298E0,6.591125488E0,1.496261597E0
3.565053890E0,6.575500488E0,6.891601562E0,1.473510742E0
3.567525814E0,6.702392578E0,7.122650146E0,1.292755127E0
3.569967220E0,6.808929443E0,7.055603027E0,1.140716553E0
3.572439144E0,6.981323242E0,6.759918213E0,1.103607178E0
3.574911068E0,7.187225342E0,6.483398438E0,1.052139282E0
3.577382992E0,7.208770752E0,6.406784058E0,1.077270508E0
3.579854916E0,7.429031372E0,6.403182983E0,1.185012817E0
3.582296322E0,7.581069946E0,6.287063599E0,1.174240112E0
3.584768246E0,7.583465576E0,6.282287598E0,1.248458862E0
3.587240170E0,7.891113281E0,6.210449219E0,1.401687622E0
3.589712093E0,8.190383911E0,6.118270874E0,1.511825562E0
3.592184017E0,8.280166626E0,6.294250488E0,1.783569336E0
3.594625423E0,8.381927490E0,6.433120728E0,1.917633057E0
3.597097347E0,8.747039795E0,6.127853394E0,1.921234131E0
3.599569271E0,8.900268555E0,5.894424438E0,1.905670166E0
3.602041195E0,8.766189575E0,5.986602783E0,2.209732056E0
3.604513119E0,8.707534790E0,6.099121094E0,2.402465820E0
3.606954525E0,8.454940796E0,6.002151489E0,2.391693115E0
3.609426449E0,8.165252686E0,5.974624634E0,2.412033081E0
3.611898373E0,7.906677246E0,6.033279419E0,2.437179565E0
3.614370297E0,7.486495972E0,6.193695068E0,2.537734985E0
3.616842220E0,7.358398438E0,6.311004639E0,2.477874756E0
3.619283627E0,7.463745117E0,6.199676514E0,2.340209961E0
3.621755550E0,7.316497803E0,6.198486328E0,2.099594116E0
3.624227474E0,7.090255737E0,6.114685059E0,2.066085815E0
3.626699398E0,6.820907593E0,6.067993164E0,2.079254150E0
3.629171322E0,6.543182373E0,6.166168213E0,1.927215576E0
3.631612728E0,6.391143799E0,6.332565308E0,1.778778076E0
3.634084652E0,6.310943604E0,6.279891968E0,1.827850342E0
3.636556576E0,6.219955444E0,6.142227173E0,1.824264526E0
3.639028500E0,6.168487549E0,5.996170044E0,2.008621216E0
3.641500423E0,6.470153809E0,5.919555664E0,2.066085815E0
3.643972347E0,6.296569824E0,5.865692139E0,1.863769531E0
3.646413754E0,6.101440430E0,5.886047363E0,2.107971191E0
3.648885677E0,5.980545044E0,5.908782959E0,2.232482910E0
3.651357601E0,5.787811279E0,5.827377319E0,2.267196655E0
3.653829525E0,5.536422729E0,5.804641724E0,2.183395386E0
3.656270931E0,5.864425659E0,5.700485229E0,2.201354980E0
3.658742855E0,5.891952515E0,5.865692139E0,2.328247070E0
3.661214779E0,5.954208374E0,5.858505249E0,2.064880371E0
3.663686703E0,5.842880249E0,5.693313599E0,1.852996826E0
3.666158627E0,5.848861694E0,5.846542358E0,1.803909302E0
3.668600033E0,5.836883545E0,5.894424438E0,2.082839966E0
3.671071957E0,5.736328125E0,5.747177124E0,1.874542236E0
3.673543880E0,5.754287720E0,5.410797119E0,1.776382446E0
3.676015804E0,5.672882080E0,5.200103760E0,1.874542236E0
3.678487728E0,5.428680420E0,5.079193115E0,1.973907471E0
3.680929134E0,5.469375610E0,4.823013306E0,2.244445801E0
3.683401058E0,5.820129395E0,4.888854980E0,2.301910400E0
3.685872982E0,6.021240234E0,5.014556885E0,2.234863281E0
3.688344906E0,6.178054810E0,4.733230591E0,2.221694946E0
3.690816830E0,6.014053345E0,4.558456421E0,2.468307495E0
3.693288754E0,5.698028564E0,4.662597656E0,2.761596680E0
3.695760677E0,5.809356689E0,5.019332886E0,3.040512085E0
3.698232601E0,5.873992920E0,5.493392944E0,2.895675659E0
3.700704525E0,6.113418579E0,5.564025879E0,2.382110596E0
3.703176449E0,6.878372192E0,5.196502686E0,2.097198486E0
3.705617855E0,6.962158203E0,5.136657715E0,1.993057251E0
3.708089779E0,7.012435913E0,5.028915405E0,1.605194092E0
3.710561703E0,6.932235718E0,5.215667725E0,1.623153687E0
3.713033627E0,6.911880493E0,5.340164185E0,1.768005371E0
3.715505550E0,7.187225342E0,5.310241699E0,1.706954956E0
3.717946957E0,7.154891968E0,5.639434814E0,1.469924927E0
3.720418880E0,7.080673218E0,5.979415894E0,1.589630127E0
3.722890804E0,6.856811523E0,6.278686523E0,1.841018677E0
3.725362728E0,7.011245728E0,6.384033203E0,2.011016846E0
3.727834652E0,7.217147827E0,6.214050293E0,2.130722046E0
3.730276058E0,7.035186768E0,6.136230469E0,2.352188110E0
3.732747982E0,6.842453003E0,6.259536743E0,2.353378296E0
3.735219906E0,6.751480103E0,6.697677612E0,2.170227051E0
3.737691830E0,6.898712158E0,6.926315308E0,2.037353516E0
3.740163754E0,6.931045532E0,7.087936401E0,1.929611206E0
3.742605160E0,6.919067383E0,6.884414673E0,1.717727661E0
3.745077084E0,6.959762573E0,6.957443237E0,1.958343506E0
3.747549007E0,6.855621338E0,7.156158447E0,1.942779541E0
3.750020931E0,6.901107788E0,7.368057251E0,1.748840332E0
3.752462338E0,6.931045532E0,7.503326416E0,2.328247070E0
3.754934261E0,6.678451538E0,7.624237061E0,3.255996704E0
3.757406185E0,6.496490479E0,7.488952637E0,3.090789795E0
3.759878109E0,6.626968384E0,6.965820312E0,3.081222534E0
3.762350033E0,6.464172363E0,6.888015747E0,3.628295898E0
3.764821957E0,6.538391113E0,6.952651978E0,3.433166504E0
3.767263363E0,6.491699219E0,7.121444702E0,3.522949219E0
3.769735287E0,6.182846069E0,7.419525146E0,4.050872803E0
3.772207211E0,5.978149414E0,7.609863281E0,4.150238037E0
3.774679134E0,5.677673340E0,7.731964111E0,4.035308838E0
3.777120541E0,5.852447510E0,7.565567017E0,4.113113403E0
3.779592464E0,5.692031860E0,7.927093506E0,4.008972168E0
3.782064388E0,5.743515015E0,8.079132080E0,3.805465698E0
3.784536312E0,5.619018555E0,8.183273315E0,4.084396362E0
3.787008236E0,5.246719360E0,8.597473145E0,3.593582153E0
3.789449642E0,5.391571045E0,8.599868774E0,3.023757935E0
3.791921566E0,5.523254395E0,8.599868774E0,3.399642944E0
3.794393490E0,5.617813110E0,8.486145020E0,3.337402344E0
3.796865414E0,5.453811646E0,8.455017090E0,2.960311890E0
3.799337338E0,5.488525391E0,8.706405640E0,2.692169189E0
3.801778744E0,5.417907715E0,8.954208374E0,2.652664185E0
3.804250668E0,5.525634766E0,9.020050049E0,2.554489136E0
3.806722591E0,5.566345215E0,9.277420044E0,2.439575195E0
3.809194515E0,5.457412720E0,9.446212769E0,2.512603760E0
3.811666439E0,5.338897705E0,9.684448242E0,2.474288940E0
3.814107845E0,5.148559570E0,1.049487305E1,2.658645630E0
3.816579769E0,5.209609985E0,1.102877808E1,2.374923706E0
3.819051693E0,5.233551025E0,1.147171021E1,1.779968262E0
3.821523617E0,5.459808350E0,1.163571167E1,1.565689087E0
3.823995541E0,5.523254395E0,1.176141357E1,1.583648682E0
3.826436947E0,5.575927734E0,1.196012878E1,1.484283447E0
3.828908871E0,5.446640015E0,1.205349731E1,1.508224487E0
3.831380795E0,5.378402710E0,1.198287964E1,1.242477417E0
3.833852718E0,5.556762695E0,1.188111877E1,1.117980957E0
3.836324642E0,5.605850220E0,1.199005127E1,1.212539673E0
3.838766048E0,5.599868774E0,1.205589294E1,1.326263428E0
3.841237972E0,5.960189819E0,1.174824524E1,9.970703125E-1
3.843709896E0,6.131378174E0,1.144178772E1,1.158676147E0
3.846181820E0,6.224746704E0,1.126580811E1,1.289154053E0
3.848653744E0,6.126586914E0,1.075225830E1,1.293945312E0
3.851095150E0,5.864425659E0,1.015130615E1,1.190994263E0
3.853567074E0,5.632186890E0,9.562332153E0,1.133529663E0
3.856038998E0,5.622604370E0,8.845275879E0,8.534088135E-1
3.858510922E0,5.864425659E0,8.217987061E0,7.241210938E-1
3.860982845E0,6.034408569E0,8.040817261E0,3.530273438E-1
3.863424252E0,6.164886475E0,7.895965576E0,1.183929443E-1
3.865896175E0,6.377975464E0,7.771469116E0,7.769775391E-2
3.868368099E0,6.163696289E0,7.767883301E0,3.961181641E-1
3.870840023E0,5.657318115E0,7.808578491E0,7.372894287E-1
3.873311947E0,5.032440186E0,7.991744995E0,1.103607178E0
3.875783871E0,4.346496582E0,8.251510620E0,1.564498901E0
3.878225277E0,3.668945312E0,8.529235840E0,2.155868530E0
3.880697201E0,3.150588989E0,8.871612549E0,2.663436890E0
3.883169125E0,2.884841919E0,9.091873169E0,3.020172119E0
3.885641048E0,2.737594604E0,9.131378174E0,3.336196899E0
3.888082455E0,2.684921265E0,9.053573608E0,3.689346313E0
3.890554379E0,2.621475220E0,9.016464233E0,3.793487549E0
3.893026302E0,2.572387695E0,9.053573608E0,3.904830933E0
3.895498226E0,2.457473755E0,9.109832764E0,4.071228027E0
3.897970150E0,2.243194580E0,9.209197998E0,4.207687378E0
3.900411556E0,2.158203125E0,8.996109009E0,4.313034058E0
3.902883480E0,2.397613525E0,8.676483154E0,4.496200562E0
3.905355404E0,3.227203369E0,8.198837280E0,4.514144897E0
3.907827328E0,4.239959717E0,7.866043091E0,4.365707397E0
3.910299252E0,5.105453491E0,7.728378296E0,4.013763428E0
3.912740658E0,5.701614380E0,7.664932251E0,3.628295898E0
3.915212582E0,6.054763794E0,7.624237061E0,3.253601074E0
3.917684505E0,6.077499390E0,7.626617432E0,2.843002319E0
3.920156429E0,5.891952515E0,7.723587036E0,2.438369751E0
3.922628353E0,5.551971436E0,7.740356445E0,2.098403931E0
3.925069759E0,5.296997070E0,7.816970825E0,1.861373901E0
3.927541683E0,5.152145386E0,7.875625610E0,1.705749512E0
3.930013607E0,5.250305176E0,7.966598511E0,1.530975342E0
3.932485531E0,5.526840210E0,7.643386841E0,1.432815552E0
3.934957455E0,5.276641846E0,7.748733521E0,1.569274902E0
3.937398861E0,5.104263306E0,7.855270386E0,1.797927856E0
3.939870785E0,4.925888062E0,8.026458740E0,1.961929321E0
3.942342709E0,4.564376831E0,8.143768311E0,1.964324951E0
3.944814632E0,4.280654907E0,8.165313721E0,1.881729126E0
3.947286556E0,4.273468018E0,8.255096436E0,1.710540771E0
3.949727963E0,4.484161377E0,8.341293335E0,1.564498901E0
3.952199886E0,4.660140991E0,8.488540649E0,1.396896362E0
3.954671810E0,4.668518066E0,8.465789795E0,1.304718018E0
3.957143734E0,4.533248901E0,8.399948120E0,1.177825928E0
3.959615658E0,4.716400146E0,8.419113159E0,1.012634277E0
3.962057064E0,4.854064941E0,8.518463135E0,8.414459229E-1
3.964528988E0,4.587112427E0,8.507690430E0,7.791900635E-1
3.967000912E0,4.187286377E0,8.433471680E0,7.037811279E-1
3.969472836E0,4.296218872E0,8.490936279E0,6.391296387E-1
3.971944759E0,4.308197021E0,8.487335205E0,6.103973389E-1
3.974416683E0,4.540420532E0,8.421493530E0,6.906127930E-1
3.976888607E0,4.802597046E0,8.403549194E0,8.294677734E-1
3.979360531E0,4.930679321E0,8.403549194E0,9.850921631E-1
3.981832455E0,4.962997437E0,8.307769775E0,1.158676147E0
3.984304379E0,5.071945190E0,8.259887695E0,1.305923462E0
3.986745785E0,5.298187256E0,8.282638550E0,1.511825562E0
3.989217709E0,5.255096436E0,8.311370850E0,1.671035767E0
3.991689632E0,5.117431641E0,8.314956665E0,1.776382446E0
3.994161556E0,5.208404541E0,8.298202515E0,1.852996826E0
3.996633480E0,5.221572876E0,8.323333740E0,1.926010132E0
3.999074886E0,5.083908081E0,8.190460205E0,2.013412476E0
4.001546810E0,4.905548096E0,8.233551025E0,2.043334961E0
4.004018734E0,4.894775391E0,8.350875854E0,2.045730591E0
4.006490658E0,4.846893311E0,8.389175415E0,2.076858521E0
4.008962582E0,4.827728271E0,8.398757935E0,2.024185181E0
4.011403988E0,4.866043091E0,8.403549194E0,2.042129517E0
4.013875912E0,4.798995972E0,8.420303345E0,2.075653076E0
4.016347836E0,4.803787231E0,8.414321899E0,2.133117676E0
4.018819759E0,4.721191406E0,8.354461670E0,2.329437256E0
4.021261166E0,4.679290771E0,8.343688965E0,2.481475830E0
4.023733089E0,4.573944092E0,8.325729370E0,2.495834351E0
4.026205013E0,4.703231812E0,8.452621460E0,2.492248535E0
4.028676937E0,4.772659302E0,8.404739380E0,2.552108765E0
4.031148861E0,4.717605591E0,8.427490234E0,2.572448730E0
4.033590267E0,4.704437256E0,8.373611450E0,2.590408325E0
4.036062191E0,4.754714966E0,8.367630005E0,2.549713135E0
4.038534115E0,4.566757202E0,8.271865845E0,2.517379761E0
4.041006039E0,4.632598877E0,8.343688965E0,2.511398315E0
4.043477963E0,4.630203247E0,8.318542480E0,2.584426880E0
4.045919369E0,4.719985962E0,8.373611450E0,2.573654175E0
4.048391293E0,4.833724976E0,8.475372314E0,2.544921875E0
4.050863216E0,4.779846191E0,8.374816895E0,2.567657471E0
4.053335140E0,4.868438721E0,8.395156860E0,2.519775391E0
4.055807064E0,4.856460571E0,8.374816895E0,2.452743530E0
4.058278988E0,4.849273682E0,8.286224365E0,2.429992676E0
4.060720394E0,4.935470581E0,8.401153564E0,2.325851440E0
4.063192318E0,4.961807251E0,8.408325195E0,2.292327881E0
4.065664242E0,4.892379761E0,8.281433105E0,2.279159546E0
4.068136166E0,4.880401611E0,8.209609985E0,2.214523315E0
4.070577572E0,4.982162476E0,8.317352295E0,2.094802856E0
4.073049496E0,4.976165771E0,8.326934814E0,1.995452881E0
4.075521420E0,4.967788696E0,8.294601440E0,1.897293091E0
4.077993343E0,4.957015991E0,8.239547729E0,1.879333496E0
4.080465267E0,5.022857666E0,8.164123535E0,1.930801392E0
4.082906673E0,5.121017456E0,8.179687500E0,1.856582642E0
4.085378597E0,5.252700806E0,8.275451660E0,1.762008667E0
4.087850521E0,5.274246216E0,8.227569580E0,1.703353882E0
4.090322445E0,5.336502075E0,8.160537720E0,1.775177002E0
4.092794369E0,5.374801636E0,8.116241455E0,1.918838501E0
4.095235775E0,5.343688965E0,8.113845825E0,1.983474731E0
4.097707699E0,5.313751221E0,8.116241455E0,2.061294556E0
4.100179623E0,5.249114990E0,8.122222900E0,2.099594116E0
4.102651547E0,5.217987061E0,8.140182495E0,2.160644531E0
4.105123470E0,5.152145386E0,8.184478760E0,2.200149536E0
4.107564877E0,5.058776855E0,8.209609985E0,2.227691650E0
4.110036800E0,5.014480591E0,8.190460205E0,2.322265625E0
4.112508724E0,4.996520996E0,8.244323730E0,2.352188110E0
4.114980648E0,4.917510986E0,8.172500610E0,2.402465820E0
4.117452572E0,4.924697876E0,8.123428345E0,2.580825806E0
4.119893978E0,4.959411621E0,8.132995605E0,2.700546265E0
4.122365902E0,5.038421631E0,8.137786865E0,2.787933350E0
4.124837826E0,5.088699341E0,8.167709351E0,2.837005615E0
4.127309750E0,5.154541016E0,8.149765015E0,2.926788330E0
4.129781673E0,5.137786865E0,8.124618530E0,3.040512085E0
4.132223080E0,5.104263306E0,8.131805420E0,2.953125000E0
4.134695004E0,5.106658936E0,8.166519165E0,2.919616699E0
4.137166927E0,5.095886230E0,8.229965210E0,2.853775024E0
4.139638851E0,5.086303711E0,8.185668945E0,2.674209595E0
4.142110775E0,5.031234741E0,8.203628540E0,2.555694580E0
4.144552181E0,4.927093506E0,8.178482056E0,2.421615601E0
4.147024105E0,4.895965576E0,8.198837280E0,2.386901855E0
4.149496029E0,4.941452026E0,8.202423096E0,2.322265625E0
4.151967953E0,4.895965576E0,8.171310425E0,2.238464355E0
4.154439877E0,4.899551392E0,8.204818726E0,2.209732056E0
4.156881283E0,4.942657471E0,8.172500610E0,2.151077271E0
4.159353207E0,5.046798706E0,8.197647095E0,2.157058716E0
4.161825130E0,5.094680786E0,8.195251465E0,2.024185181E0
4.164297054E0,5.152145386E0,8.203628540E0,1.999038696E0
4.166768978E0,5.198837280E0,8.144973755E0,1.987075806E0
4.169210384E0,5.298187256E0,8.164123535E0,1.923629761E0
4.171682308E0,5.281433105E0,8.093490601E0,1.955947876E0
4.174154232E0,5.299392700E0,8.117431641E0,1.909255981E0
4.176626156E0,5.380798340E0,8.155746460E0,1.847015381E0
4.179098080E0,5.477752686E0,8.178482056E0,1.873352051E0
4.181539486E0,5.581909180E0,8.123428345E0,1.885314941E0
4.184011410E0,5.644149780E0,8.144973755E0,1.933197021E0
4.186483334E0,5.732742310E0,8.076736450E0,1.953552246E0
4.188955257E0,5.488525391E0,7.299819946E0,2.079254150E0
4.191427181E0,5.170104980E0,6.801818848E0,1.906860352E0
4.193868588E0,5.221572876E0,7.400375366E0,1.595611572E0
4.196340511E0,5.226364136E0,8.314956665E0,1.592025757E0
4.198812435E0,5.726760864E0,8.607055664E0,1.905670166E0
4.201284359E0,6.012863159E0,8.174896240E0,1.584838867E0
4.203756283E0,5.948211670E0,7.887588501E0,1.073684692E0
4.206197689E0,5.824920654E0,8.002517700E0,6.522979736E-1
4.208669613E0,5.669296265E0,8.202423096E0,5.110473633E-1
4.211141537E0,5.427474976E0,8.283828735E0,4.799194336E-1
4.213613461E0,5.088699341E0,8.221588135E0,5.541381836E-1
4.216085384E0,4.862442017E0,8.155746460E0,8.115234375E-1
4.218526791E0,4.898361206E0,8.207214355E0,1.176635742E0
4.220998714E0,5.053985596E0,8.239547729E0,1.474716187E0
4.223470638E0,5.209609985E0,8.160537720E0,1.599212646E0
4.225942562E0,5.319747925E0,8.135391235E0,1.724899292E0
4.228414486E0,5.459808350E0,8.153350830E0,1.712936401E0
4.230855892E0,5.501693726E0,8.140182495E0,1.709335327E0
4.233327816E0,5.490921021E0,8.130599976E0,1.612380981E0
4.235799740E0,5.517257690E0,8.164123535E0,1.509429932E0
4.238271664E0,5.452621460E0,8.129409790E0,1.439987183E0
4.240743588E0,5.378402710E0,8.129409790E0,1.380142212E0
4.243184994E0,5.178482056E0,8.166519165E0,1.465133667E0
4.245656918E0,4.846893311E0,8.225173950E0,1.638717651E0
4.248128841E0,4.715209961E0,8.277847290E0,1.945175171E0
4.250600765E0,4.715209961E0,8.238342285E0,2.349792480E0
4.253072689E0,4.795410156E0,8.135391235E0,2.605972290E0
4.255544613E0,5.036026001E0,8.033645630E0,2.646667480E0
4.257986019E0,5.253906250E0,7.958221436E0,2.574844360E0
4.260457943E0,5.350860596E0,7.936676025E0,2.479080200E0
4.262929867E0,5.370025635E0,7.907943726E0,2.403656006E0
4.265401791E0,5.404739380E0,7.994140625E0,2.347396851E0
4.267873714E0,5.336502075E0,7.985748291E0,2.275573730E0
4.270345638E0,5.244323730E0,7.958221436E0,2.257614136E0
4.272817562E0,5.174896240E0,7.963012695E0,2.068466187E0
4.275289486E0,5.221572876E0,7.819351196E0,1.987075806E0
4.277761410E0,5.488525391E0,7.569168091E0,1.793136597E0
4.280202816E0,5.312561035E0,7.886398315E0,1.772781372E0
4.282674740E0,5.174896240E0,8.042022705E0,1.762008667E0
4.285146664E0,5.141372681E0,8.089904785E0,1.775177002E0
4.287618588E0,5.034835815E0,8.177291870E0,1.726104736E0
4.290090511E0,5.118621826E0,8.048004150E0,1.601608276E0
4.292531918E0,5.422698975E0,7.674514771E0,1.661453247E0
4.295003841E0,5.472976685E0,7.819351196E0,1.833847046E0
4.297475765E0,5.490921021E0,7.923507690E0,2.075653076E0
4.299947689E0,5.435852051E0,7.995330811E0,2.329437256E0
4.302419613E0,5.457412720E0,7.913925171E0,2.734054565E0
4.304861019E0,5.402343750E0,7.720001221E0,3.021362305E0
4.307332943E0,5.596267700E0,7.529663086E0,3.099182129E0
4.309804867E0,6.071517944E0,7.553604126E0,3.119522095E0
4.312276791E0,6.137359619E0,7.615844727E0,3.178192139E0
4.314748714E0,5.998489380E0,7.605072021E0,3.333801270E0
4.317190121E0,5.890762329E0,7.572753906E0,3.429580688E0
4.319662045E0,5.763870239E0,7.585922241E0,3.423583984E0
4.322133968E0,5.881179810E0,7.524871826E0,3.355361938E0
4.324605892E0,5.997299194E0,7.481781006E0,3.272750854E0
4.327077816E0,6.036804199E0,7.510513306E0,3.227264404E0
4.329549740E0,6.028427124E0,7.503326416E0,3.125518799E0
4.331991146E0,5.876388550E0,7.669723511E0,3.045303345E0
4.334463070E0,5.726760864E0,7.686477661E0,2.918411255E0
4.336934994E0,5.796188354E0,7.571563721E0,2.862152100E0
4.339376400E0,5.693237305E0,7.615844727E0,2.783142090E0
4.341848324E0,5.596267700E0,7.629013062E0,2.838211060E0
4.344320248E0,5.560363770E0,7.550003052E0,2.819061279E0
4.346792172E0,5.481353760E0,7.517684937E0,2.755615234E0
4.349264095E0,5.414306641E0,7.601486206E0,2.634704590E0
4.351705502E0,5.464584351E0,7.573959351E0,2.586822510E0
4.354177425E0,5.452621460E0,7.606277466E0,2.519775391E0
4.356649349E0,5.439453125E0,7.579940796E0,2.431198120E0
4.359121273E0,5.392761230E0,7.619445801E0,2.318664551E0
4.361593197E0,5.356857300E0,7.584732056E0,2.261199951E0
4.364034603E0,5.420303345E0,7.558395386E0,2.243255615E0
4.366506527E0,5.386779785E0,7.527267456E0,2.313873291E0
4.368978451E0,5.311355591E0,7.638595581E0,2.349792480E0
4.371450375E0,5.252700806E0,7.673309326E0,2.352188110E0
4.373922298E0,5.232345581E0,7.572753906E0,2.360565186E0
4.376394222E0,5.117431641E0,7.698455811E0,2.392883301E0
4.378866146E0,5.086303711E0,7.692459106E0,2.389297485E0
4.381307552E0,5.103057861E0,7.743942261E0,2.352188110E0
4.383779476E0,5.103057861E0,7.753524780E0,2.270782471E0
4.386251400E0,5.074340820E0,7.752319336E0,2.238464355E0
4.388692806E0,4.949829102E0,7.711624146E0,2.323455811E0
4.391164730E0,4.775054932E0,7.773864746E0,2.336624146E0
4.393636654E0,4.710418701E0,7.816970825E0,2.341415405E0
4.396108578E0,4.697250366E0,7.781051636E0,2.362960815E0
4.398580502E0,4.687667847E0,7.879211426E0,2.489852905E0
4.401021908E0,4.703231812E0,7.912734985E0,2.376129150E0
4.403493832E0,4.765487671E0,7.953430176E0,2.131912231E0
4.405965755E0,4.717605591E0,8.012084961E0,1.896087646E0
4.408437679E0,4.743942261E0,7.875625610E0,1.832641602E0
4.410909603E0,4.712814331E0,7.717605591E0,1.825454712E0
4.413351009E0,4.587112427E0,7.770278931E0,1.874542236E0
4.415822933E0,4.576339722E0,7.735565186E0,1.845809937E0
4.418294857E0,4.717605591E0,7.741546631E0,1.867355347E0
4.420766781E0,4.845687866E0,7.718795776E0,1.935592651E0
4.423238705E0,4.930679321E0,7.588317871E0,2.063690186E0
4.425710629E0,5.039611816E0,7.400375366E0,2.069671631E0
4.428152035E0,5.043212891E0,7.314178467E0,2.256423950E0
4.430623959E0,5.024063110E0,7.350097656E0,2.297119141E0
4.433095882E0,4.957015991E0,7.093917847E0,2.313873291E0
4.435567806E0,2.991027832E-1,9.557540894E0,-1.167297363E0
4.438009213E0,-3.237136841E0,1.204512024E1,-5.715072632E0
4.440481136E0,-8.549041748E-1,1.018601990E1,-5.390655518E0
4.442953060E0,2.647811890E0,7.728378296E0,-3.105392456E0
4.445424984E0,5.322128296E0,6.362487793E0,-3.602600098E-2
4.447896908E0,6.635360718E0,5.637039185E0,3.452316284E0
4.450338314E0,6.672470093E0,5.549652100E0,6.033264160E0
4.452810238E0,5.988922119E0,5.787872314E0,6.788635254E0
4.455282162E0,5.006103516E0,6.200881958E0,5.957855225E0
4.457754086E0,4.111862183E0,6.642608643E0,5.049255371E0
4.460226009E0,3.585144043E0,6.988571167E0,4.637451172E0
4.462667416E0,3.373260498E0,7.168136597E0,4.171783447E0
4.465139339E0,2.948287964E0,7.453048706E0,3.974258423E0
4.467611263E0,2.579574585E0,7.566772461E0,4.054458618E0
4.470083187E0,2.471832275E0,7.540435791E0,4.071228027E0
4.472555111E0,1.595565796E0,7.524871826E0,4.605133057E0
4.474996517E0,-3.329620361E-1,6.872451782E0,6.380432129E0
4.477468441E0,-5.879516602E-1,6.872451782E0,5.511337280E0
4.479940365E0,1.722106934E-1,6.650985718E0,2.869338989E0
4.482412289E0,-6.362915039E-2,7.046035767E0,2.191772461E0
4.484884213E0,1.674194336E-1,7.327346802E0,2.367752075E0
4.487325619E0,1.366912842E0,6.545639038E0,1.505828857E0
4.489797543E0,2.094757080E0,6.083557129E0,1.522598267E0
4.492269466E0,2.664566040E0,5.962661743E0,1.870956421E0
4.494741390E0,2.996170044E0,5.923156738E0,1.996643066E0
4.497213314E0,3.196090698E0,5.803436279E0,1.971511841E0
4.499654720E0,3.148193359E0,5.951873779E0,1.855392456E0
4.502126644E0,2.678939819E0,6.586349487E0,1.970306396E0
4.504598568E0,2.408386230E0,7.153762817E0,2.018188477E0
4.507070492E0,2.402404785E0,7.492553711E0,1.899688721E0
4.509542416E0,2.461059570E0,7.714019775E0,1.866165161E0
4.512014339E0,2.688507080E0,7.850479126E0,1.866165161E0
4.514455746E0,2.832168579E0,8.125808716E0,1.803909302E0
4.516927670E0,2.966247559E0,8.630996704E0,1.886520386E0
4.519399593E0,2.725616455E0,9.301376343E0,1.927215576E0
4.521871517E0,3.006942749E0,9.850845337E0,1.533370972E0
4.524312923E0,3.124252319E0,1.051522827E1,1.229309082E0
4.526784847E0,3.423538208E0,1.108026123E1,1.228103638E0
4.529256771E0,3.658157349E0,1.140946960E1,1.334655762E0
4.531728695E0,3.970611572E0,1.178535461E1,1.402877808E0
4.534200619E0,4.057998657E0,1.191583252E1,1.366973877E0
4.536642025E0,4.652954102E0,1.185238647E1,1.335845947E0
4.539113949E0,4.761886597E0,1.183084106E1,1.577667236E0
4.541585873E0,4.403961182E0,1.187992859E1,1.518997192E0
4.544057797E0,4.496139526E0,1.189788818E1,1.163467407E0
4.546529720E0,4.827728271E0,1.203674316E1,9.839019775E-1
4.549001644E0,4.692459106E0,1.216961670E1,1.103607178E0
4.551473568E0,4.466201782E0,1.210258484E1,1.169448853E0
4.553945492E0,4.527267456E0,1.207026672E1,1.262817383E0
4.556417416E0,4.424316406E0,1.194337463E1,1.283172607E0
4.558889339E0,4.170516968E0,1.184521484E1,1.320281982E0
4.561330746E0,4.181304932E0,1.203195190E1,1.495056152E0
4.563802670E0,4.334533691E0,1.199723816E1,1.784759521E0
4.566274593E0,4.326141357E0,1.205111694E1,1.765609741E0
4.568746517E0,4.014907837E0,1.226898193E1,1.698562622E0
4.571218441E0,3.886810303E0,1.223306274E1,2.003829956E0
4.573659847E0,4.074752808E0,1.173986816E1,2.105575562E0
4.576131771E0,4.055603027E0,1.140228271E1,1.942779541E0
4.578603695E0,3.832946777E0,1.102758789E1,1.934402466E0
4.581075619E0,3.463043213E0,1.068881226E1,2.269592285E0
4.583547543E0,3.073974609E0,1.021954346E1,2.435989380E0
4.585988949E0,3.018905640E0,9.428268433E0,2.263595581E0
4.588460873E0,2.789062500E0,9.310943604E0,2.465911865E0
4.590932797E0,2.616683960E0,9.235534668E0,2.379714966E0
4.593404720E0,2.598724365E0,9.206802368E0,2.319869995E0
4.595846127E0,2.720840454E0,8.809356689E0,2.196563721E0
4.598318050E0,2.634643555E0,8.642959595E0,1.942779541E0
4.600789974E0,2.247985840E0,9.336090088E0,2.396484375E0
4.603261898E0,2.268325806E0,9.458190918E0,2.316268921E0
4.605733822E0,2.154602051E0,9.271438599E0,2.295928955E0
4.608205746E0,2.109115601E0,9.621002197E0,2.620330811E0
4.610647152E0,2.487396240E0,9.441436768E0,2.303100586E0
4.613119076E0,2.620285034E0,9.486923218E0,2.321060181E0
4.615591000E0,2.862091064E0,9.320526123E0,2.538940430E0
4.618062923E0,3.045242310E0,9.188842773E0,2.231277466E0
4.620534847E0,3.030883789E0,9.239120483E0,2.112762451E0
4.623006771E0,2.789062500E0,9.363616943E0,2.092407227E0
4.625448177E0,2.753158569E0,9.473754883E0,2.038543701E0
4.627920101E0,3.082351685E0,9.255874634E0,1.967910767E0
4.630392025E0,3.287063599E0,9.217575073E0,1.765609741E0
4.632833431E0,3.125457764E0,9.407913208E0,1.841018677E0
4.635305355E0,2.905181885E0,9.575500488E0,2.074462891E0
4.637777279E0,2.896804810E0,9.483322144E0,2.151077271E0
4.640249203E0,2.905181885E0,9.406707764E0,1.884124756E0
4.642721127E0,2.980606079E0,9.290588379E0,1.869750977E0
4.645162533E0,3.015319824E0,9.123001099E0,1.948760986E0
4.647634457E0,3.111083984E0,8.992523193E0,2.160644531E0
4.650106380E0,2.961456299E0,8.998504639E0,1.965515137E0
4.652578304E0,2.908782959E0,8.942245483E0,1.881729126E0
4.655050228E0,2.838150024E0,8.878799438E0,1.957138062E0
4.657491634E0,2.823791504E0,9.058364868E0,1.898483276E0
4.659963558E0,3.058410645E0,8.929077148E0,1.981079102E0
4.662435482E0,3.046447754E0,8.789016724E0,1.899688721E0
4.664907406E0,3.181716919E0,8.433471680E0,1.976303101E0
4.667379330E0,2.907577515E0,8.589096069E0,1.803909302E0
4.669820736E0,2.870468140E0,8.857238770E0,1.854187012E0
4.672292660E0,2.893218994E0,8.852462769E0,1.934402466E0
4.674764584E0,2.974624634E0,8.967376709E0,1.830245972E0
4.677236507E0,3.067993164E0,8.822525024E0,1.991851807E0
4.679708431E0,3.046447754E0,8.839294434E0,2.015792847E0
4.682149838E0,2.983001709E0,9.157714844E0,1.955947876E0
4.684621761E0,3.063201904E0,9.128982544E0,1.967910767E0
4.687093685E0,3.144607544E0,9.134979248E0,1.967910767E0
4.689565609E0,3.139816284E0,8.840484619E0,1.995452881E0
4.692037533E0,2.994964600E0,8.750701904E0,2.113967896E0
4.694478939E0,2.937515259E0,9.131378174E0,2.034957886E0
4.696950863E0,2.974624634E0,9.139755249E0,1.858978271E0
4.699422787E0,2.875259399E0,9.500091553E0,1.894897461E0
4.701894711E0,2.882446289E0,9.732330322E0,2.052917480E0
4.704366634E0,2.913574219E0,9.637756348E0,1.863769531E0
4.706808041E0,2.991378784E0,9.054763794E0,1.893692017E0
4.709279964E0,3.076370239E0,8.621414185E0,2.055297852E0
4.711751888E0,2.619079590E0,9.546768188E0,2.231277466E0
4.714223812E0,5.720367432E-1,1.140586853E1,3.009399414E0
4.716695736E0,1.421981812E0,1.109103394E1,2.663436890E0
4.719137142E0,3.610275269E0,9.026031494E0,1.180221558E0
4.721609066E0,3.532470703E0,9.656906128E0,1.661453247E0
4.724080990E0,3.424728394E0,9.981323242E0,2.054107666E0
4.726552914E0,3.525283813E0,9.891540527E0,1.758422852E0
4.729024838E0,3.467819214E0,9.644943237E0,1.818283081E0
4.731466244E0,3.425933838E0,9.506072998E0,2.098403931E0
4.733938168E0,3.364868164E0,9.649719238E0,2.018188477E0
4.736410091E0,3.139816284E0,9.758666992E0,1.942779541E0
4.738882015E0,3.065597534E0,9.721557617E0,2.373733521E0
4.741353939E0,3.066802979E0,9.609024048E0,2.286346436E0
4.743795345E0,3.441482544E0,9.178070068E0,2.309097290E0
4.746267269E0,3.488174438E0,9.237915039E0,2.090026855E0
4.748739193E0,3.522888184E0,9.138565063E0,2.238464355E0
4.751211117E0,3.601898193E0,8.917098999E0,2.183395386E0
4.753683041E0,3.571975708E0,8.781829834E0,2.049316406E0
4.756124447E0,3.548034668E0,8.486145020E0,2.240859985E0
4.758596371E0,3.275085449E0,8.854843140E0,2.121139526E0
4.761068295E0,2.975814819E0,9.358825684E0,2.248031616E0
4.763540218E0,3.029693604E0,9.413894653E0,2.133117676E0
4.766012142E0,3.243972778E0,9.255874634E0,1.911651611E0
4.768453548E0,3.313400269E0,9.076309204E0,2.001434326E0
4.770925472E0,3.170944214E0,9.303756714E0,2.230087280E0
4.773397396E0,3.036865234E0,9.671279907E0,1.965515137E0
4.775869320E0,3.172134399E0,9.349258423E0,1.791946411E0
4.778341244E0,3.077575684E0,9.193634033E0,1.930801392E0
4.780782650E0,2.842941284E0,9.252288818E0,1.904464722E0
4.783254574E0,2.909973145E0,9.200805664E0,1.808700562E0
4.785726498E0,3.054824829E0,8.851257324E0,1.860183716E0
4.788198422E0,2.803436279E0,8.960189819E0,2.050521851E0
4.790670345E0,2.640625000E0,9.106246948E0,2.159454346E0
4.793111752E0,2.850128174E0,9.215179443E0,1.922424316E0
4.795583675E0,3.003356934E0,9.039199829E0,1.972702026E0
4.798055599E0,2.813018799E0,8.874008179E0,2.175018311E0
4.800527523E0,2.523315430E0,8.920684814E0,2.273178101E0
4.802999447E0,2.371276855E0,9.174468994E0,2.400070190E0
4.805440853E0,2.336563110E0,9.366012573E0,2.365356445E0
4.807912777E0,2.593948364E0,9.106246948E0,2.485061646E0
4.810384701E0,2.692108154E0,8.913513184E0,2.655044556E0
4.812856625E0,2.640625000E0,8.890762329E0,2.772369385E0
4.815328548E0,2.485000610E0,9.210388184E0,2.451538086E0
4.817769955E0,2.708862305E0,9.020050049E0,2.413238525E0
4.820241879E0,2.797454834E0,8.791397095E0,2.522171021E0
4.822713802E0,2.730407715E0,8.844070435E0,2.713714600E0
4.825185726E0,2.753158569E0,8.526840210E0,2.700546265E0
4.827657650E0,2.756744385E0,8.195251465E0,2.564071655E0
4.830099056E0,2.597534180E0,7.976181030E0,2.763992310E0
4.832570980E0,2.425155640E0,8.528045654E0,2.789123535E0
4.835042904E0,2.328186035E0,9.318130493E0,2.492248535E0
4.837514828E0,2.496978760E0,9.434249878E0,2.264801025E0
4.839986752E0,3.009338379E0,9.370803833E0,2.526962280E0
4.842458675E0,3.302627563E0,8.997299194E0,2.372543335E0
4.844930599E0,3.197280884E0,8.997299194E0,2.407257080E0
4.847402523E0,3.169754028E0,9.003295898E0,2.452743530E0
4.849874447E0,2.903991699E0,9.694015503E0,2.289932251E0
4.852346371E0,3.276290894E0,9.557540894E0,2.170227051E0
4.854787777E0,3.443878174E0,9.285812378E0,2.286346436E0
4.857259701E0,3.307418823E0,8.994903564E0,2.511398315E0
4.859731625E0,3.266708374E0,9.076309204E0,2.712509155E0
4.862203548E0,3.059616089E0,9.484527588E0,2.586822510E0
4.864675472E0,3.070388794E0,9.412704468E0,2.443161011E0
4.867116879E0,3.196090698E0,9.662887573E0,2.501815796E0
4.869588802E0,3.229598999E0,9.626983643E0,2.471893311E0
4.872060726E0,3.387619019E0,9.128982544E0,2.649063110E0
4.874532650E0,3.393600464E0,9.192428589E0,3.032135010E0
4.877004574E0,3.200866699E0,9.269042969E0,2.680191040E0
4.879476498E0,3.355300903E0,8.962585449E0,3.277542114E0
4.881917904E0,3.249954224E0,9.051177979E0,3.631881714E0
4.884389828E0,3.147003174E0,9.343261719E0,3.012985229E0
4.886861752E0,3.148193359E0,9.287002563E0,3.078826904E0
4.889333675E0,2.932723999E0,9.017654419E0,3.137481689E0
4.891775082E0,2.338958740E0,9.272644043E0,2.426406860E0
4.894247005E0,1.691329956E0,9.697616577E0,1.530975342E0
4.896718929E0,1.322616577E0,1.013455200E1,1.387329102E0
4.899190853E0,1.664993286E0,9.597045898E0,1.322677612E0
4.901662777E0,2.091156006E0,9.142150879E0,1.709335327E0
4.904104183E0,2.113906860E0,9.406707764E0,2.456329346E0
4.906576107E0,2.194107056E0,9.258270264E0,2.567657471E0
4.909048031E0,2.038482666E0,9.697616577E0,2.498229980E0
4.911519955E0,1.749984741E0,1.005554199E1,2.673004150E0
4.913991879E0,1.614715576E0,1.016687012E1,2.514984131E0
4.916433285E0,1.254379272E0,1.059184265E1,2.111572266E0
4.918905209E0,1.672180176E0,1.011898804E1,1.902069092E0
4.921377132E0,1.581192017E0,9.904708862E0,1.976303101E0
4.923849056E0,1.368118286E0,1.000407410E1,2.331832886E0
4.926320980E0,1.114318848E0,1.003758240E1,2.052917480E0
4.928762386E0,6.330871582E-1,1.027819824E1,2.128326416E0
4.931234310E0,5.145721436E-1,1.020637512E1,2.100799561E0
4.933706234E0,-2.336120605E-1,1.049607849E1,2.188186646E0
4.936178158E0,-4.407897949E0,1.400477600E1,4.026931763E0
4.938650082E0,-3.105453491E0,1.305667114E1,2.999816895E0
4.941091488E0,-2.503662109E-1,1.054275513E1,6.487121582E-1
4.943563412E0,7.911071777E-1,1.010223389E1,1.599212646E0
4.946035336E0,1.406417847E0,9.806549072E0,2.408447266E0
4.948507259E0,1.734420776E0,9.678451538E0,2.355773926E0
4.950979183E0,1.904418945E0,9.622192383E0,2.096008301E0
4.953420589E0,1.704498291E0,9.623382568E0,2.140304565E0
4.955892513E0,1.144256592E0,1.003758240E1,2.712509155E0
4.958364437E0,8.713073730E-1,1.023869324E1,2.621536255E0
4.960836361E0,7.492065430E-1,1.030334473E1,2.615554810E0
4.963277767E0,1.038909912E0,9.995681763E0,2.517379761E0
4.965749691E0,8.389892578E-1,1.018243408E1,2.582031250E0
4.968221615E0,6.845703125E-1,1.034164429E1,2.415634155E0
4.970693539E0,5.169677734E-1,1.037158203E1,2.238464355E0
4.973165463E0,3.314208984E-1,1.050326538E1,2.380920410E0
4.975606869E0,2.907257080E-1,1.049128723E1,2.447952271E0
4.978078793E0,6.031646729E-1,1.004237366E1,2.237258911E0
4.980550716E0,5.480957031E-1,1.008666992E1,2.319869995E0
4.983022640E0,5.588684082E-1,1.016926575E1,2.299514771E0
4.985494564E0,2.619934082E-1,1.057627869E1,2.322265625E0
4.987966488E0,3.481750488E-1,1.054635620E1,2.140304565E0
4.990438412E0,5.564727783E-1,1.041108704E1,2.143890381E0
4.992879818E0,8.377990723E-1,1.032130432E1,1.812286377E0
4.995351742E0,7.120971680E-1,1.052360535E1,1.947570801E0
4.997823666E0,2.476196289E-1,1.083724976E1,1.914047241E0
5.000265072E0,1.590423584E-1,1.065528870E1,1.757232666E0
5.002736996E0,8.162536621E-1,1.007350159E1,2.368942261E0
5.005208920E0,1.437545776E0,9.690429688E0,2.396484375E0
5.007680843E0,1.451904297E0,9.550369263E0,1.936798096E0
5.010152767E0,1.327407837E0,9.685638428E0,2.362960815E0
5.012594173E0,1.356140137E0,9.714370728E0,2.535339355E0
5.015066097E0,1.266357422E0,9.698806763E0,2.413238525E0
5.017538021E0,1.234039307E0,9.752670288E0,2.532943726E0
5.020009945E0,1.251998901E0,9.792175293E0,2.592803955E0
5.022481869E0,1.313049316E0,9.767044067E0,2.529357910E0
5.024923275E0,1.260375977E0,9.852035522E0,2.615554810E0
5.027395199E0,1.399230957E0,9.711975098E0,2.488662720E0
5.029867123E0,1.376495361E0,9.676055908E0,2.379714966E0
5.032339047E0,1.175384521E0,9.835281372E0,2.523376465E0
5.034810970E0,1.152633667E0,9.881958008E0,2.596389771E0
5.037252377E0,1.186157227E0,9.873580933E0,2.534149170E0
5.039724300E0,1.188552856E0,9.852035522E0,2.439575195E0
5.042196224E0,1.240020752E0,9.841262817E0,2.372543335E0
5.044668148E0,1.275939941E0,9.849639893E0,2.321060181E0
5.047140072E0,1.263961792E0,9.825698853E0,2.292327881E0
5.049581478E0,1.329803467E0,9.806549072E0,2.347396851E0
5.052053402E0,1.372894287E0,9.801757812E0,2.354583740E0
5.054525326E0,1.405227661E0,9.751480103E0,2.303100586E0
5.056997250E0,1.465072632E0,9.734725952E0,2.245651245E0
5.059469173E0,1.469863892E0,9.699996948E0,2.330642700E0
5.061910580E0,1.457901001E0,9.653320312E0,2.276763916E0
5.064382504E0,1.404022217E0,9.610214233E0,2.230087280E0
5.066854427E0,1.432754517E0,9.628173828E0,2.238464355E0
5.069326351E0,1.461486816E0,9.630569458E0,2.307891846E0
5.071798275E0,1.418395996E0,9.595855713E0,2.328247070E0
5.074239681E0,1.435150146E0,9.673660278E0,2.415634155E0
5.076711605E0,1.400436401E0,9.788589478E0,2.446762085E0
5.079183529E0,1.460281372E0,9.916671753E0,2.486267090E0
5.081655453E0,1.545288086E0,9.999282837E0,2.468307495E0
5.084127377E0,1.618301392E0,1.002201843E1,2.480270386E0
5.086568783E0,1.644638062E0,9.992095947E0,2.444366455E0
5.089040707E0,1.668579102E0,9.953796387E0,2.415634155E0
5.091512630E0,1.626678467E0,9.910690308E0,2.443161011E0
5.093984554E0,1.603942871E0,9.824508667E0,2.410842896E0
5.096456478E0,1.621902466E0,9.796966553E0,2.398880005E0
5.098897884E0,1.576400757E0,9.738311768E0,2.293533325E0
5.101369808E0,1.498596191E0,9.661697388E0,2.169021606E0
5.103841732E0,1.387268066E0,9.544387817E0,2.113967896E0
5.106313656E0,1.275939941E0,9.518051147E0,2.212127686E0
5.108785580E0,1.243606567E0,9.582687378E0,2.249237061E0
5.111226986E0,1.214889526E0,9.644943237E0,2.224090576E0
5.113698910E0,1.182556152E0,9.703598022E0,2.258804321E0
5.116170834E0,1.178970337E0,9.779006958E0,2.305496216E0
5.118642757E0,1.201721191E0,9.830490112E0,2.293533325E0
5.121114681E0,1.200515747E0,9.881958008E0,2.203750610E0
5.123586605E0,1.278335571E0,9.872390747E0,2.220504761E0
5.126058529E0,1.199325562E0,9.909500122E0,2.260009766E0
5.128530453E0,1.176574707E0,9.854431152E0,2.192977905E0
5.131002377E0,1.231643677E0,9.804153442E0,2.129531860E0
5.133474300E0,1.193328857E0,9.764648438E0,2.117553711E0
5.135915707E0,1.084396362E0,9.769439697E0,2.204940796E0
5.138387630E0,1.036514282E0,9.782608032E0,2.164245605E0
5.140859554E0,1.229248047E0,9.628173828E0,2.045730591E0
5.143331478E0,1.643447876E0,9.356430054E0,1.916442871E0
5.145803402E0,1.842163086E0,9.197219849E0,1.891296387E0
5.148244808E0,1.694915771E0,9.166091919E0,2.046920776E0
5.150716732E0,1.575210571E0,9.123001099E0,2.218109131E0
5.153188656E0,1.425567627E0,9.160110474E0,2.215713501E0
5.155660580E0,1.217269897E0,9.169692993E0,2.191772461E0
5.158132504E0,1.132278442E0,9.188842773E0,2.307891846E0
5.160573910E0,1.214889526E0,9.162506104E0,2.327041626E0
5.163045834E0,1.338180542E0,9.106246948E0,2.306701660E0
5.165517757E0,1.371704102E0,9.022445679E0,2.421615601E0
5.167989681E0,1.394439697E0,8.948226929E0,2.429992676E0
5.170431088E0,1.502182007E0,8.964981079E0,2.324645996E0
5.172903011E0,1.666183472E0,8.951812744E0,2.309097290E0
5.175374935E0,1.844558716E0,8.998504639E0,2.220504761E0
5.177846859E0,1.995391846E0,9.002090454E0,2.234863281E0
5.180318783E0,2.091156006E0,9.085891724E0,2.232482910E0
5.182790707E0,1.985809326E0,9.133773804E0,2.243255615E0
5.185232113E0,1.720062256E0,9.108642578E0,2.431198120E0
5.187704037E0,1.711685181E0,9.170883179E0,2.447952271E0
5.190175961E0,1.808639526E0,9.283416748E0,2.285140991E0
5.192647884E0,1.869689941E0,9.373199463E0,2.232482910E0
5.195119808E0,2.016937256E0,9.385162354E0,2.107971191E0
5.197561214E0,2.182144165E0,9.398330688E0,2.012207031E0
5.200033138E0,2.368881226E0,9.404312134E0,1.983474731E0
5.202505062E0,2.587951660E0,9.400726318E0,1.823074341E0
5.204976986E0,2.768722534E0,9.367202759E0,1.760818481E0
5.207448910E0,2.944686890E0,9.325317383E0,1.734481812E0
5.209890316E0,2.783081055E0,9.393539429E0,1.735671997E0
5.212362240E0,2.373672485E0,9.547973633E0,1.746459961E0
5.214834164E0,2.168975830E0,9.504882812E0,1.876937866E0
5.217306088E0,2.116302490E0,9.446212769E0,1.982284546E0
5.219747494E0,2.160598755E0,9.441436768E0,2.005020142E0
5.222219418E0,2.155807495E0,9.455795288E0,2.014602661E0
5.224691341E0,2.076797485E0,9.513259888E0,2.087631226E0
5.227163265E0,2.145034790E0,9.585083008E0,2.070861816E0
5.229635189E0,2.247985840E0,9.619796753E0,2.124740601E0
5.232076595E0,1.961868286E0,9.790985107E0,2.315078735E0
5.234548519E0,1.821807861E0,9.808944702E0,2.151077271E0
5.237020443E0,2.220443726E0,9.465377808E0,1.955947876E0
