"Time (s)","Gyroscope x (rad/s)","Gyroscope y (rad/s)","Gyroscope z (rad/s)"
3.025636200E-2,-3.038965166E-2,3.513898849E-1,2.046338283E-2
3.266151800E-2,-2.672456764E-2,3.684936166E-1,2.290677279E-2
3.506662300E-2,-2.183778957E-2,3.831539452E-1,2.412846684E-2
3.747172700E-2,-1.939439960E-2,3.941491842E-1,2.657185495E-2
3.987688300E-2,-1.572931744E-2,3.990359604E-1,2.657185495E-2
4.228198700E-2,-1.084253844E-2,4.002576768E-1,2.412846684E-2
4.468709100E-2,-2.290677279E-3,4.014793634E-1,2.168507688E-2
4.709219600E-2,3.817795310E-3,3.965925872E-1,1.313321572E-2
4.949735200E-2,1.603474095E-2,3.831539452E-1,3.359660041E-3
5.190245600E-2,2.580829710E-2,3.636068404E-1,-1.130067464E-2
5.430756000E-2,3.558185324E-2,3.342861533E-1,-2.718270384E-2
5.671266400E-2,5.146388337E-2,3.025220931E-1,-4.184303805E-2
5.911782100E-2,6.368082762E-2,2.683146596E-1,-6.016845629E-2
6.152292500E-2,7.711946964E-2,2.377723008E-1,-7.238540053E-2
6.392802900E-2,9.177979827E-2,2.084516287E-1,-8.460234851E-2
6.633318500E-2,1.076618284E-1,1.840177327E-1,-9.315420687E-2
6.873828900E-2,1.198787764E-1,1.656923145E-1,-9.681928903E-2
7.114339300E-2,1.357607991E-1,1.485885978E-1,-1.065928489E-1
7.354849800E-2,1.491994411E-1,1.290414780E-1,-1.163664013E-1
7.595365400E-2,1.601946950E-1,1.107160673E-1,-1.249182671E-1
7.835875800E-2,1.724116355E-1,9.727742523E-2,-1.371352077E-1
8.076386200E-2,1.760767251E-1,9.483403713E-2,-1.505738497E-1
8.316896600E-2,1.797417998E-1,7.650861889E-2,-1.640124917E-1
8.557412300E-2,1.858502775E-1,4.352286831E-2,-1.750077456E-1
8.797922700E-2,1.846285909E-1,1.175880991E-2,-1.811162084E-1
9.038433100E-2,1.821851879E-1,-2.122694254E-2,-1.896680743E-1
9.278948700E-2,1.772984117E-1,-5.176930502E-2,-1.933331639E-1
9.519459100E-2,1.626380831E-1,-7.375980914E-2,-1.982199401E-1
9.759969600E-2,1.491994411E-1,-8.231166750E-2,-2.018850148E-1
1.000048000E-1,1.296523362E-1,-8.231166750E-2,-2.018850148E-1
1.024099560E-1,1.052184403E-1,-6.765133142E-2,-2.043284029E-1
1.048150600E-1,7.834116369E-2,-3.588727489E-2,-2.067717910E-1
1.072201640E-1,4.046862945E-2,1.664558798E-2,-2.153236568E-1
1.096253210E-1,1.527118147E-4,8.261708915E-2,-2.238755226E-1
1.120304250E-1,-3.771981969E-2,1.485885978E-1,-2.373141646E-1
1.144355290E-1,-8.292251825E-2,2.145601064E-1,-2.568612695E-1
1.168406330E-1,-1.281252056E-1,2.805316150E-1,-2.800734639E-1
1.192457890E-1,-1.696628332E-1,3.538332880E-1,-3.106158376E-1
1.216508930E-1,-2.173089087E-1,4.259132445E-1,-3.423798978E-1
1.240559980E-1,-2.612899244E-1,4.979932308E-1,-3.778090179E-1
1.264611020E-1,-3.052709103E-1,5.639647245E-1,-4.144598544E-1
1.288662580E-1,-3.492519259E-1,6.213843822E-1,-4.511106908E-1
1.312713620E-1,-3.932329118E-1,6.678087711E-1,-4.889832437E-1
1.336764660E-1,-4.347705245E-1,7.020162344E-1,-5.280774832E-1
1.360815710E-1,-4.811949134E-1,7.264500856E-1,-5.673243999E-1
1.384867270E-1,-5.263976455E-1,7.435538173E-1,-6.064186096E-1
1.408918310E-1,-5.740436912E-1,7.521057129E-1,-6.430694461E-1
1.432969350E-1,-6.216897964E-1,7.594358325E-1,-6.748335361E-1
1.457020910E-1,-6.717792749E-1,7.643226385E-1,-7.041541934E-1
1.481071960E-1,-7.206470370E-1,7.679877281E-1,-7.310314775E-1
1.505123000E-1,-7.658497691E-1,7.655443549E-1,-7.530219555E-1
1.529174040E-1,-8.049439788E-1,7.496622801E-1,-7.701256871E-1
1.553225600E-1,-8.367080092E-1,7.215633392E-1,-7.872294188E-1
1.577276640E-1,-8.574768305E-1,6.812474132E-1,-8.043331504E-1
1.601327680E-1,-8.696937561E-1,6.311579347E-1,-8.214368224E-1
1.625378730E-1,-8.721371889E-1,5.786250830E-1,-8.373188972E-1
1.649430290E-1,-8.660287261E-1,5.224271417E-1,-8.544226289E-1
1.673481330E-1,-8.501466513E-1,4.686725736E-1,-8.727480173E-1
1.697532370E-1,-8.244910836E-1,4.100312293E-1,-8.910734653E-1
1.721583410E-1,-7.939487100E-1,3.526115716E-1,-9.118422270E-1
1.745634980E-1,-7.560762167E-1,2.964136302E-1,-9.301676750E-1
1.769686020E-1,-7.084301114E-1,2.377723008E-1,-9.484930634E-1
1.793737060E-1,-6.583406329E-1,1.779092699E-1,-9.692618847E-1
1.817788100E-1,-5.996993184E-1,1.156028435E-1,-9.900307059E-1
1.841839660E-1,-5.337277651E-1,4.963133857E-2,-1.009577751E0
1.865890710E-1,-4.677563012E-1,-1.389677543E-2,-1.029124975E0
1.889941750E-1,-3.956763148E-1,-8.108997345E-2,-1.048672080E0
1.913993310E-1,-3.223746419E-1,-1.470614821E-1,-1.070662498E0
1.938044350E-1,-2.454078794E-1,-2.142546773E-1,-1.090209603E0
1.962095390E-1,-1.659977436E-1,-2.814478874E-1,-1.112200141E0
1.986146430E-1,-8.414421231E-2,-3.474193811E-1,-1.134190679E0
2.010198000E-1,-1.068982761E-3,-4.121691883E-1,-1.154959440E0
2.034249040E-1,8.078455180E-2,-4.818057716E-1,-1.174506545E0
2.058300080E-1,1.626380831E-1,-5.587725043E-1,-1.194053650E0
2.082351120E-1,2.457133085E-1,-6.516213417E-1,-1.216044188E0
2.106402680E-1,3.263451457E-1,-7.493568659E-1,-1.236812949E0
2.130453730E-1,4.045335948E-1,-8.446490765E-1,-1.258803487E0
2.154504770E-1,4.839437306E-1,-9.338327646E-1,-1.282015681E0
2.178555810E-1,5.645755529E-1,-1.012021184E0,-1.308892965E0
2.202607370E-1,6.452074051E-1,-1.079214454E0,-1.336991906E0
2.226658410E-1,7.221741676E-1,-1.129303813E0,-1.366312623E0
2.250709460E-1,7.966975570E-1,-1.169619799E0,-1.402963400E0
2.274761020E-1,8.663341403E-1,-1.201383829E0,-1.439614296E0
2.298812060E-1,9.347490072E-1,-1.227039456E0,-1.475043416E0
2.322863100E-1,9.933903813E-1,-1.242921472E0,-1.511694312E0
2.346914140E-1,1.044701576E0,-1.250251651E0,-1.550788522E0
2.370965710E-1,1.089904189E0,-1.256360054E0,-1.589882731E0
2.395016750E-1,1.131441832E0,-1.258803487E0,-1.632642031E0
2.419067790E-1,1.161984205E0,-1.258803487E0,-1.672957897E0
2.443118830E-1,1.187639832E0,-1.256360054E0,-1.708387017E0
2.467170390E-1,1.205965161E0,-1.253916740E0,-1.737707734E0
2.491221430E-1,1.214517117E0,-1.249029875E0,-1.762141585E0
2.515272480E-1,1.216960430E0,-1.246586561E0,-1.781688690E0
2.539323520E-1,1.213295341E0,-1.246586561E0,-1.795127392E0
2.563375080E-1,1.202300072E0,-1.245364904E0,-1.803679228E0
2.587426120E-1,1.188861489E0,-1.249029875E0,-1.804900885E0
2.611477160E-1,1.170536041E0,-1.252694964E0,-1.801235914E0
2.635528210E-1,1.147323847E0,-1.257581830E0,-1.793905735E0
2.659579770E-1,1.125333309E0,-1.262468576E0,-1.781688690E0
2.683630810E-1,1.096012712E0,-1.266133666E0,-1.769471765E0
2.707681850E-1,1.070357084E0,-1.271020412E0,-1.749924660E0
2.731732890E-1,1.041036487E0,-1.273463845E0,-1.729155898E0
2.755784460E-1,1.010494113E0,-1.280794024E0,-1.704722047E0
2.779835500E-1,9.787300229E-1,-1.288124204E0,-1.677844763E0
2.803886540E-1,9.494093657E-1,-1.299119353E0,-1.648524046E0
2.827937580E-1,9.188669920E-1,-1.313779712E0,-1.615538239E0
2.851989140E-1,8.919897079E-1,-1.332105160E0,-1.580109119E0
2.876040180E-1,8.675557971E-1,-1.355317354E0,-1.544679999E0
2.900091230E-1,8.419002295E-1,-1.378529549E0,-1.506807446E0
2.924142790E-1,8.199097514E-1,-1.401741743E0,-1.467713237E0
2.948193830E-1,7.991409302E-1,-1.426175594E0,-1.426175594E0
2.972244870E-1,7.795938253E-1,-1.446944475E0,-1.385859728E0
2.996295910E-1,7.661551833E-1,-1.467713237E0,-1.345543742E0
3.020346960E-1,7.576032877E-1,-1.489703774E0,-1.306449533E0
3.044398520E-1,7.502731681E-1,-1.511694312E0,-1.271020412E0
3.068449560E-1,7.527165413E-1,-1.536128163E0,-1.236812949E0
3.092500600E-1,7.588250041E-1,-1.554453611E0,-1.208714008E0
3.116552160E-1,7.685985565E-1,-1.575222373E0,-1.185501814E0
3.140603210E-1,7.857022882E-1,-1.595991135E0,-1.161067963E0
3.164654250E-1,8.052493930E-1,-1.617981672E0,-1.139077425E0
3.188705290E-1,8.272398710E-1,-1.636307120E0,-1.120751977E0
3.212756330E-1,8.516737819E-1,-1.654632568E0,-1.107313395E0
3.236807890E-1,8.797727823E-1,-1.666849494E0,-1.096318126E0
3.260858930E-1,9.078717232E-1,-1.676622987E0,-1.084101200E0
3.284909980E-1,9.359707236E-1,-1.685174823E0,-1.071884274E0
3.308961540E-1,9.628480077E-1,-1.687618256E0,-1.058445573E0
3.333012580E-1,9.909469485E-1,-1.683953166E0,-1.041341901E0
3.357063620E-1,1.017824292E0,-1.649745703E0,-1.015686274E0
3.381114660E-1,1.045923233E0,-1.582552552E0,-9.802571535E-1
3.405166230E-1,1.067913771E0,-1.517802715E0,-9.448279738E-1
3.429217270E-1,1.089904189E0,-1.456717968E0,-9.069554806E-1
3.453268310E-1,1.107007980E0,-1.399298310E0,-8.715263009E-1
3.477319350E-1,1.120446563E0,-1.343100429E0,-8.324320912E-1
3.501370910E-1,1.131441832E0,-1.293010950E0,-7.908945084E-1
3.525421960E-1,1.141215444E0,-1.250251651E0,-7.481352091E-1
3.549473000E-1,1.149767280E0,-1.214822531E0,-7.053758502E-1
3.573524040E-1,1.155875683E0,-1.178171635E0,-6.675033569E-1
3.597575080E-1,1.161984205E0,-1.146407604E0,-6.332958937E-1
3.621626640E-1,1.160762548E0,-1.110978484E0,-6.051968932E-1
3.645677680E-1,1.165649295E0,-1.069440842E0,-5.770979524E-1
3.669728730E-1,1.171757698E0,-1.025459886E0,-5.563291311E-1
3.693780290E-1,1.176644564E0,-9.692618847E-1,-5.404471159E-1
3.717831330E-1,1.186418056E0,-8.996253014E-1,-5.280774832E-1
3.741882370E-1,1.194969893E0,-8.141067028E-1,-5.195255876E-1
3.765933410E-1,1.208408594E0,-7.163711190E-1,-5.170822144E-1
3.789984980E-1,1.229177356E0,-6.064186096E-1,-5.146388412E-1
3.814036020E-1,1.252389550E0,-4.744756222E-1,-5.158604980E-1
3.838087060E-1,1.284153700E0,-3.327590525E-1,-5.244123936E-1
3.862138100E-1,1.312252641E0,-2.240282297E-1,-5.428904891E-1
3.886189660E-1,1.335464835E0,-1.592784226E-1,-5.722111464E-1
3.910240710E-1,1.352568507E0,-1.372879148E-1,-6.100836992E-1
3.934291750E-1,1.363563776E0,-1.531699449E-1,-6.516213417E-1
3.958342790E-1,1.369672298E0,-1.910424829E-1,-6.980457306E-1
3.982394350E-1,1.372115612E0,-2.435753495E-1,-7.444701195E-1
4.006445390E-1,1.372115612E0,-3.034383655E-1,-7.872294188E-1
4.030496430E-1,1.367228866E0,-3.633013964E-1,-8.263236284E-1
4.054547480E-1,1.361120462E0,-4.243861437E-1,-8.654178381E-1
4.078599040E-1,1.351346850E0,-4.793623984E-1,-8.984035850E-1
4.102650080E-1,1.339129925E0,-5.294518471E-1,-9.277243018E-1
4.126701120E-1,1.322026134E0,-5.685460567E-1,-9.521581531E-1
4.150752160E-1,1.304922462E0,-5.844281316E-1,-9.753703475E-1
4.174803730E-1,1.289040446E0,-5.819846988E-1,-9.936957955E-1
4.198854770E-1,1.274380088E0,-5.636593103E-1,-1.012021184E0
4.222905810E-1,1.253611326E0,-5.270084739E-1,-1.030346632E0
4.246956850E-1,1.236507535E0,-4.818057716E-1,-1.046228647E0
4.271008410E-1,1.218182087E0,-4.329380095E-1,-1.058445573E0
4.295059460E-1,1.199856758E0,-3.816268146E-1,-1.066997409E0
4.319110500E-1,1.182752967E0,-3.303156495E-1,-1.071884274E0
4.343161540E-1,1.164427638E0,-2.802261710E-1,-1.073105931E0
4.367213100E-1,1.143658757E0,-2.338017821E-1,-1.066997409E0
4.391264140E-1,1.121668339E0,-1.959292591E-1,-1.053558826E0
4.415315180E-1,1.098456025E0,-1.666085869E-1,-1.034011722E0
4.439366230E-1,1.072800517E0,-1.470614821E-1,-1.008356094E0
4.463417790E-1,1.049588323E0,-1.372879148E-1,-9.814788103E-1
4.487468830E-1,1.025154471E0,-1.324011385E-1,-9.497147799E-1
4.511519870E-1,1.001942158E0,-1.287360638E-1,-9.118422270E-1
4.535570910E-1,9.787300229E-1,-1.275143623E-1,-8.727480173E-1
4.559622480E-1,9.579612017E-1,-1.287360638E-1,-8.299887180E-1
4.583673520E-1,9.371923804E-1,-1.299577504E-1,-7.823426127E-1
4.607724560E-1,9.188669920E-1,-1.287360638E-1,-7.371399403E-1
4.631775600E-1,8.980981708E-1,-1.238492802E-1,-6.919372082E-1
4.655827160E-1,8.773293495E-1,-1.152974218E-1,-6.455128193E-1
4.679878210E-1,8.565605879E-1,-1.067455560E-1,-5.954233408E-1
4.703929250E-1,8.345700502E-1,-9.575030953E-2,-5.477772951E-1
4.727980290E-1,8.125795722E-1,-8.353336155E-2,-5.024218559E-1
4.752031850E-1,7.893673778E-1,-7.009471953E-2,-4.633276463E-1
4.776082890E-1,7.673768401E-1,-5.665608495E-2,-4.242334068E-1
4.800133930E-1,7.453863621E-1,-5.054761097E-2,-3.863608837E-1
4.824184980E-1,7.221741676E-1,-5.054761097E-2,-3.509317636E-1
4.848236540E-1,7.014053464E-1,-5.054761097E-2,-3.252761662E-1
4.872287580E-1,6.843016148E-1,-5.909947306E-2,-3.081724346E-1
4.896338620E-1,6.684195995E-1,-8.231166750E-2,-2.910687327E-1
4.920389660E-1,6.610894203E-1,-1.177408099E-1,-2.702999115E-1
4.944441230E-1,6.525375843E-1,-1.458397806E-1,-2.483094037E-1
4.968492270E-1,6.464291215E-1,-1.507265568E-1,-2.299840003E-1
4.992543310E-1,6.403206587E-1,-1.482831687E-1,-2.165453583E-1
5.016594350E-1,6.378772259E-1,-1.495048702E-1,-2.006633282E-1
5.040645390E-1,6.427640319E-1,-1.617218107E-1,-1.884463727E-1
5.064696960E-1,6.488724947E-1,-1.763821393E-1,-1.750077456E-1
5.088748000E-1,6.623111367E-1,-1.739387512E-1,-1.640124917E-1
5.112799040E-1,6.769714952E-1,-1.580567211E-1,-1.554606259E-1
5.136850080E-1,6.879667044E-1,-1.287360638E-1,-1.591257155E-1
5.160901640E-1,7.014053464E-1,-8.231166750E-2,-1.762294322E-1
5.184952680E-1,7.221741676E-1,-2.977880463E-2,-1.872246861E-1
5.209003730E-1,7.466080785E-1,2.764083818E-2,-1.908897758E-1
5.233054770E-1,7.771504521E-1,8.506047726E-2,-1.860029846E-1
5.257106330E-1,8.076927662E-1,1.375933439E-1,-1.713426560E-1
5.281157370E-1,8.370134830E-1,1.876828223E-1,-1.481304616E-1
5.305208410E-1,8.687775135E-1,2.328855246E-1,-1.163664013E-1
5.329259460E-1,9.042066336E-1,2.793098986E-1,-7.727217674E-2
5.353311020E-1,9.384140968E-1,3.208475113E-1,-2.473931387E-2
5.377362060E-1,9.750649333E-1,3.526115716E-1,4.123219103E-2
5.401413100E-1,1.010494113E0,3.758237660E-1,1.072036922E-1
5.425464140E-1,1.041036487E0,3.868190348E-1,1.756185889E-1
5.449515710E-1,1.072800517E0,3.904841244E-1,2.367033064E-1
5.473566750E-1,1.103342891E0,3.880407214E-1,2.941229641E-1
5.497617790E-1,1.135106921E0,3.819322586E-1,3.478775024E-1
5.521668830E-1,1.168092728E0,3.611634374E-1,3.955236077E-1
5.545720390E-1,1.197413325E0,3.220692277E-1,4.504998624E-1
5.569771430E-1,1.225512266E0,2.683146596E-1,5.005893111E-1
5.593822480E-1,1.257276416E0,2.157817930E-1,5.409052372E-1
5.617873520E-1,1.290262103E0,1.718007922E-1,5.775560737E-1
5.641925080E-1,1.322026134E0,1.412584335E-1,6.129852533E-1
5.665976120E-1,1.352568507E0,1.241547018E-1,6.533011198E-1
5.690027160E-1,1.384332657E0,1.168245375E-1,6.960604787E-1
5.714078210E-1,1.412431598E0,1.143811494E-1,7.375980616E-1
5.738129770E-1,1.440530539E0,1.119377613E-1,7.803573608E-1
5.762180810E-1,1.466186166E0,1.143811494E-1,8.182299137E-1
5.786231850E-1,1.491841674E0,1.168245375E-1,8.512156606E-1
5.810282890E-1,1.515053868E0,1.156028435E-1,8.744278550E-1
5.834333930E-1,1.533379316E0,1.082726792E-1,8.903098702E-1
5.858385500E-1,1.548039675E0,9.727742523E-2,8.988617659E-1
5.882436540E-1,1.559034944E0,8.261708915E-2,9.049702287E-1
5.906487580E-1,1.561478257E0,6.062658876E-2,9.086353183E-1
5.930538620E-1,1.559034944E0,2.764083818E-2,9.098569751E-1
5.954590180E-1,1.551704764E0,-1.023169141E-2,9.025267959E-1
5.978641230E-1,1.535822749E0,-4.810422286E-2,8.939749599E-1
6.002692270E-1,1.512610555E0,-7.864658535E-2,8.805363178E-1
6.026743310E-1,1.484511495E0,-1.079672500E-1,8.683193922E-1
6.050794870E-1,1.455190897E0,-1.311794519E-1,8.597674966E-1
6.074845910E-1,1.422205091E0,-1.385096163E-1,8.499939442E-1
6.098896960E-1,1.391662717E0,-1.275143623E-1,8.353336453E-1
6.122948000E-1,1.350125194E0,-1.055238619E-1,8.231166601E-1
6.146999560E-1,1.315917730E0,-8.597674966E-2,8.170081973E-1
6.171050600E-1,1.280488610E0,-6.398624927E-2,8.096780181E-1
6.195101640E-1,1.242616057E0,-3.710897267E-2,8.072346449E-1
6.219152680E-1,1.203521848E0,-1.023169141E-2,8.084563613E-1
6.243204250E-1,1.165649295E0,2.153236605E-2,8.096780181E-1
6.267255290E-1,1.122889996E0,5.085303262E-2,8.133431077E-1
6.291306330E-1,1.078908920E0,9.361234307E-2,8.096780181E-1
6.315357370E-1,1.025154471E0,1.461452097E-1,8.072346449E-1
6.339408930E-1,9.787300229E-1,1.950129867E-1,8.060129285E-1
6.363459980E-1,9.286405444E-1,2.292204350E-1,8.035695553E-1
6.387511020E-1,8.785510659E-1,2.536543310E-1,8.023478985E-1
6.411562060E-1,8.321266770E-1,2.780882120E-1,8.035695553E-1
6.435613620E-1,7.832589149E-1,2.964136302E-1,8.096780181E-1
6.459664660E-1,7.380561829E-1,3.208475113E-1,8.194515705E-1
6.483715710E-1,6.916317940E-1,3.513898849E-1,8.304468393E-1
6.507766750E-1,6.488724947E-1,3.868190348E-1,8.475505710E-1
6.531818310E-1,6.109999418E-1,4.210264683E-1,8.658760190E-1
6.555869350E-1,5.743491650E-1,4.576773047E-1,8.890882134E-1
6.579920390E-1,5.474718809E-1,4.967715442E-1,9.159654379E-1
6.603971430E-1,5.254813433E-1,5.273138881E-1,9.452861547E-1
6.628022480E-1,4.961606860E-1,5.590779781E-1,9.794935584E-1
6.652074040E-1,4.753918648E-1,5.774033666E-1,1.018587828E0
6.676125080E-1,4.668400288E-1,5.835118294E-1,1.062568784E0
6.700176120E-1,4.534013867E-1,5.749599934E-1,1.105328083E0
6.724227160E-1,4.497362971E-1,5.627430081E-1,1.146865726E0
6.748278730E-1,4.534013867E-1,5.419742465E-1,1.185959935E0
6.772329770E-1,4.668400288E-1,5.138752460E-1,1.217723966E0
6.796380810E-1,4.815003574E-1,4.747810364E-1,1.245823026E0
6.820431850E-1,5.022691488E-1,4.369085133E-1,1.276365399E0
6.844483410E-1,5.413633585E-1,3.990359604E-1,1.298355818E0
6.868534460E-1,5.657972693E-1,3.599417508E-1,1.320346355E0
6.892585500E-1,6.012263894E-1,3.465031087E-1,1.328898191E0
6.916636540E-1,6.256603003E-1,3.513898849E-1,1.333784938E0
6.940688100E-1,6.549809575E-1,3.684936166E-1,1.331341624E0
6.964739140E-1,6.806365848E-1,3.880407214E-1,1.337450027E0
6.988790180E-1,6.989619732E-1,4.027010500E-1,1.347223639E0
7.012841230E-1,7.258392572E-1,4.271349311E-1,1.366770744E0
7.036892790E-1,7.453863621E-1,4.515688419E-1,1.389982939E0
7.060943830E-1,7.710419297E-1,4.747810364E-1,1.422968745E0
7.084994870E-1,7.881456614E-1,4.894413650E-1,1.460841179E0
7.109045910E-1,8.150229454E-1,4.955498278E-1,1.503600478E0
7.133097480E-1,8.455653191E-1,4.833329022E-1,1.542694807E0
7.157148520E-1,8.614473343E-1,4.479037523E-1,1.585454106E0
7.181199560E-1,8.809944391E-1,3.965925872E-1,1.624548316E0
7.205250600E-1,9.005415440E-1,3.220692277E-1,1.663642526E0
7.229302160E-1,9.200887084E-1,2.341072112E-1,1.699071646E0
7.253353210E-1,9.335273504E-1,1.424801201E-1,1.729614019E0
7.277404250E-1,9.408574700E-1,5.818320066E-2,1.760156393E0
7.301455290E-1,9.518527389E-1,-1.511846948E-2,1.778481841E0
7.325506850E-1,9.542961121E-1,-7.620319724E-2,1.788255334E0
7.349557890E-1,9.628480077E-1,-1.226275861E-1,1.789476991E0
7.373608930E-1,9.652913809E-1,-1.556133330E-1,1.777260065E0
7.397659980E-1,9.518527389E-1,-1.751604527E-1,1.750382781E0
7.421711540E-1,9.579612017E-1,-1.824906170E-1,1.712510347E0
7.445762580E-1,9.567395449E-1,-1.800472289E-1,1.657534003E0
7.469813620E-1,9.445225596E-1,-1.653869003E-1,1.592784286E0
7.493864660E-1,9.384140968E-1,-1.519482583E-1,1.520704269E0
7.517915710E-1,9.200887084E-1,-1.287360638E-1,1.447402596E0
7.541967270E-1,9.054283500E-1,-9.697200358E-2,1.369214177E0
7.566018310E-1,8.883246183E-1,-6.887302548E-2,1.287360549E0
7.590069350E-1,8.614473343E-1,-4.077405483E-2,1.209172130E0
7.614120910E-1,8.370134830E-1,-1.878355257E-2,1.127318621E0
7.638171960E-1,8.162446618E-1,6.872031838E-3,1.057682037E0
7.662223000E-1,7.979192138E-1,3.863608837E-2,9.892671108E-1
7.686274040E-1,7.857022882E-1,8.872556686E-2,9.269607067E-1
7.710325080E-1,7.771504521E-1,1.424801201E-1,8.670976758E-1
7.734376640E-1,7.673768401E-1,1.693574041E-1,8.194515705E-1
7.758427680E-1,7.527165413E-1,1.693574041E-1,7.779139876E-1
7.782478730E-1,7.429429889E-1,1.485885978E-1,7.437065244E-1
7.806529770E-1,7.368345261E-1,1.180462316E-1,7.131641507E-1
7.830581330E-1,7.368345261E-1,8.383878320E-2,6.838434935E-1
7.854632370E-1,7.392778993E-1,5.085303262E-2,6.606312990E-1
7.878683410E-1,7.478297353E-1,2.031067200E-2,6.410841942E-1
7.902734460E-1,7.588250041E-1,-1.389677543E-2,6.300889254E-1
7.926786020E-1,7.685985565E-1,-5.421269313E-2,6.178719997E-1
7.950837060E-1,7.795938253E-1,-9.575030953E-2,6.032116413E-1
7.974888100E-1,7.905890942E-1,-1.360662282E-1,5.946598053E-1
7.998939660E-1,8.015843034E-1,-1.763821393E-1,5.885513425E-1
8.022990710E-1,8.162446618E-1,-2.166980654E-1,5.873296261E-1
8.047041750E-1,8.345700502E-1,-2.582356930E-1,5.885513425E-1
8.071092790E-1,8.516737819E-1,-3.022166789E-1,5.934380889E-1
8.095144350E-1,8.675557971E-1,-3.523061574E-1,6.019899845E-1
8.119195390E-1,8.834378719E-1,-4.036173224E-1,6.190937161E-1
8.143246430E-1,9.042066336E-1,-4.561502039E-1,6.398624778E-1
8.167297480E-1,9.115368128E-1,-4.976878166E-1,6.740699410E-1
8.191349040E-1,8.626690507E-1,-4.304946065E-1,7.363763452E-1
8.215400080E-1,7.637118101E-1,-3.156553209E-1,8.035695553E-1
8.239451120E-1,6.598677635E-1,-2.362451702E-1,8.622109294E-1
8.263502160E-1,5.609105229E-1,-2.166980654E-1,9.074136019E-1
8.287553730E-1,4.753918648E-1,-2.435753495E-1,9.342908859E-1
8.311604770E-1,4.081986845E-1,-2.973299026E-1,9.538379908E-1
8.335655810E-1,3.581092060E-1,-3.620797098E-1,9.648332596E-1
8.359706850E-1,3.214583695E-1,-4.317162931E-1,9.746068120E-1
8.383758410E-1,2.909159958E-1,-4.940227270E-1,9.843803644E-1
8.407809460E-1,2.640387416E-1,-5.441122055E-1,9.904888272E-1
8.431860500E-1,2.371614426E-1,-5.734328628E-1,9.892671108E-1
8.455911540E-1,2.237228155E-1,-5.917583108E-1,9.868237376E-1
8.479962580E-1,2.151709497E-1,-5.978667736E-1,9.856020808E-1
8.504014140E-1,2.102841735E-1,-5.978667736E-1,9.843803644E-1
8.528065180E-1,2.017323077E-1,-5.917583108E-1,9.843803644E-1
8.552116230E-1,1.944021434E-1,-5.685460567E-1,9.856020808E-1
8.576167790E-1,1.821851879E-1,-5.306735635E-1,9.843803644E-1
8.600218830E-1,1.675248593E-1,-4.964661002E-1,9.880454540E-1
8.624269870E-1,1.540862173E-1,-4.671454430E-1,1.001484036E0
8.648320910E-1,1.443126649E-1,-4.366030693E-1,1.018587828E0
8.672372480E-1,1.308740228E-1,-4.133908749E-1,1.035691500E0
8.696423520E-1,1.137702987E-1,-3.865135908E-1,1.056460381E0
8.720474560E-1,1.052184403E-1,-3.474193811E-1,1.071120620E0
8.744525600E-1,9.910997003E-2,-3.071034551E-1,1.069898963E0
8.768576640E-1,9.055810422E-2,-2.301367074E-1,1.045465112E0
8.792628210E-1,9.300149232E-2,-1.714953631E-1,1.039356589E0
8.816679250E-1,1.137702987E-1,-1.495048702E-1,1.051573515E0
8.840730290E-1,1.504211426E-1,-1.641651988E-1,1.077229142E0
8.864781850E-1,1.944021434E-1,-2.044811249E-1,1.104106426E0
8.888832890E-1,2.396048307E-1,-2.619007528E-1,1.121210098E0
8.912883930E-1,2.848075330E-1,-3.352024257E-1,1.130983710E0
8.936934980E-1,3.263451457E-1,-4.182776511E-1,1.127318621E0
8.960986540E-1,3.568875194E-1,-5.025745630E-1,1.117545009E0
8.985037580E-1,3.825430870E-1,-5.685460567E-1,1.094332814E0
9.009088620E-1,3.959817290E-1,-6.223006248E-1,1.065012217E0
9.033139660E-1,4.033119082E-1,-6.479562521E-1,1.038134933E0
9.057191230E-1,4.106420577E-1,-6.479562521E-1,1.018587828E0
9.081242270E-1,4.155288339E-1,-6.394043565E-1,1.005149126E0
9.105293310E-1,4.143071473E-1,-6.223006248E-1,9.904888272E-1
9.129344350E-1,4.130854607E-1,-6.113054156E-1,9.746068120E-1
9.153395910E-1,4.045335948E-1,-6.051968932E-1,9.575030804E-1
9.177446960E-1,3.910949528E-1,-6.027535200E-1,9.367342591E-1
9.201498000E-1,3.776563108E-1,-6.051968932E-1,9.159654379E-1
9.225549040E-1,3.642176688E-1,-6.015318632E-1,8.988617659E-1
9.249600600E-1,3.532224298E-1,-5.893148780E-1,8.829796910E-1
9.273651640E-1,3.422271907E-1,-5.599942207E-1,8.683193922E-1
9.297702680E-1,3.251234591E-1,-5.099047422E-1,8.536590338E-1
9.321754250E-1,3.043546379E-1,-4.512633979E-1,8.414421082E-1
9.345805290E-1,2.872509360E-1,-3.975088596E-1,8.304468393E-1
9.369856330E-1,2.652604282E-1,-3.413109183E-1,8.133431077E-1
9.393907370E-1,2.444916219E-1,-2.997733057E-1,8.035695553E-1
9.417958930E-1,2.334963679E-1,-2.838912606E-1,7.986828089E-1
9.442009980E-1,2.249445021E-1,-2.582356930E-1,7.828007340E-1
9.466061020E-1,2.188360244E-1,-2.374668717E-1,7.742488980E-1
9.490112060E-1,2.249445021E-1,-2.570139766E-1,7.803573608E-1
9.514163100E-1,2.383831441E-1,-3.009949923E-1,7.986828089E-1
9.538214660E-1,2.518217862E-1,-3.657447994E-1,8.243383765E-1
9.562265710E-1,2.664821148E-1,-4.500417113E-1,8.512156606E-1
9.586316750E-1,2.811424434E-1,-5.428904891E-1,8.719844818E-1
9.610368310E-1,2.909159958E-1,-6.332958937E-1,8.866447806E-1
9.634419350E-1,2.921377122E-1,-7.065975666E-1,8.842014074E-1
9.658470390E-1,2.872509360E-1,-7.579087615E-1,8.756495714E-1
9.682521430E-1,2.774773538E-1,-7.884510756E-1,8.634325862E-1
9.706573000E-1,2.677038014E-1,-8.079982400E-1,8.524373770E-1
9.730624040E-1,2.542651594E-1,-8.141067028E-1,8.451071978E-1
9.754675080E-1,2.444916219E-1,-8.165500760E-1,8.389987350E-1
9.778726120E-1,2.347180545E-1,-8.104416132E-1,8.316685557E-1
9.802777680E-1,2.286095917E-1,-8.018897176E-1,8.206732869E-1
9.826828730E-1,2.237228155E-1,-7.847860456E-1,8.096780181E-1
9.850879770E-1,2.249445021E-1,-7.640172243E-1,7.962393761E-1
9.874930810E-1,2.261662036E-1,-7.371399403E-1,7.815790772E-1
9.898982370E-1,2.371614426E-1,-7.004891038E-1,7.656970620E-1
9.923033410E-1,2.518217862E-1,-6.577298045E-1,7.485933304E-1
9.947084460E-1,2.725905776E-1,-5.942016840E-1,7.229377031E-1
9.971135500E-1,3.031329513E-1,-5.172349215E-1,7.021689415E-1
9.995187060E-1,3.410054743E-1,-4.402681589E-1,6.838434935E-1
1.001923810E0,3.886515796E-1,-3.486410677E-1,6.594096422E-1
1.004328914E0,4.289674759E-1,-2.619007528E-1,6.398624778E-1
1.006734071E0,4.643966258E-1,-1.861557066E-1,6.300889254E-1
1.009139175E0,4.888305068E-1,-1.214058921E-1,6.239804626E-1
1.011544279E0,5.047125220E-1,-7.620319724E-2,6.203153729E-1
1.013949383E0,5.132644176E-1,-4.810422286E-2,6.178719997E-1
1.016354539E0,5.169295073E-1,-3.466558084E-2,6.105418205E-1
1.018759643E0,5.169295073E-1,-3.466558084E-2,6.007682681E-1
1.021164748E0,5.169295073E-1,-4.199574888E-2,5.824428797E-1
1.023569852E0,5.120427012E-1,-5.176930502E-2,5.616740584E-1
1.025975008E0,5.047125220E-1,-6.276455522E-2,5.372401476E-1
1.028380112E0,4.949389994E-1,-6.887302548E-2,5.115845799E-1
1.030785216E0,4.802786708E-1,-5.909947306E-2,4.798205197E-1
1.033190321E0,4.631749392E-1,-4.077405483E-2,4.468347728E-1
1.035595477E0,4.472928941E-1,-3.710897267E-2,4.162923992E-1
1.038000581E0,4.326325655E-1,-3.955236077E-2,3.857500553E-1
1.040405685E0,4.204156399E-1,-5.299099907E-2,3.600944579E-1
1.042810841E0,4.081986845E-1,-7.986827940E-2,3.393256664E-1
1.045215946E0,3.996468186E-1,-1.128540337E-1,3.185568452E-1
1.047621050E0,3.935383558E-1,-1.568350345E-1,3.087832928E-1
1.050026154E0,3.923166394E-1,-1.873773932E-1,3.051182032E-1
1.052431310E0,3.959817290E-1,-1.812689304E-1,3.112266660E-1
1.054836414E0,4.008685052E-1,-2.081461996E-1,3.112266660E-1
1.057241518E0,4.033119082E-1,-2.753393948E-1,3.063398898E-1
1.059646623E0,3.996468186E-1,-3.498627543E-1,3.014531136E-1
1.062051779E0,3.923166394E-1,-4.194993675E-1,2.929012477E-1
1.064456883E0,3.910949528E-1,-4.891359508E-1,2.867927849E-1
1.066861987E0,3.935383558E-1,-5.722111464E-1,2.867927849E-1
1.069267091E0,4.045335948E-1,-6.601731777E-1,2.892361879E-1
1.071672248E0,4.167505503E-1,-7.408050299E-1,3.002314270E-1
1.074077352E0,4.338542521E-1,-8.202151656E-1,3.112266660E-1
1.076482456E0,4.509579837E-1,-8.886300325E-1,3.210002482E-1
1.078887560E0,4.631749392E-1,-9.362761378E-1,3.368822634E-1
1.081292716E0,4.692834020E-1,-9.558232427E-1,3.552076817E-1
1.083697821E0,4.729484916E-1,-9.521581531E-1,3.686463237E-1
1.086102925E0,4.741701782E-1,-9.338327646E-1,3.857500553E-1
1.088508081E0,4.741701782E-1,-9.118422270E-1,4.016320705E-1
1.090913185E0,4.705050886E-1,-8.922951221E-1,4.187358022E-1
1.093318289E0,4.705050886E-1,-8.727480173E-1,4.321744442E-1
1.095723393E0,4.668400288E-1,-8.470924497E-1,4.456130862E-1
1.098128550E0,4.656183124E-1,-8.189934492E-1,4.529432356E-1
1.100533654E0,4.643966258E-1,-7.921161652E-1,4.602734149E-1
1.102938758E0,4.656183124E-1,-7.640172243E-1,4.700469673E-1
1.105343862E0,4.668400288E-1,-7.334748507E-1,4.822639227E-1
1.107749018E0,4.680617154E-1,-7.078192830E-1,4.920374751E-1
1.110154123E0,4.778352678E-1,-6.846070886E-1,5.079194903E-1
1.112559227E0,4.900522232E-1,-6.638382673E-1,5.250232220E-1
1.114964383E0,5.022691488E-1,-6.345176101E-1,5.433486104E-1
1.117369487E0,5.169295073E-1,-6.076403260E-1,5.641174316E-1
1.119774591E0,5.376983285E-1,-5.868715048E-1,5.824428797E-1
1.122179696E0,5.621321797E-1,-5.697677732E-1,6.019899845E-1
1.124584852E0,5.841227174E-1,-5.514423847E-1,6.166502833E-1
1.126989956E0,6.073349118E-1,-5.233433843E-1,6.252021790E-1
1.129395060E0,6.329904795E-1,-4.952444136E-1,6.239804626E-1
1.131800216E0,6.671979427E-1,-4.756973088E-1,6.166502833E-1
1.134205321E0,7.087355256E-1,-4.585935771E-1,6.080984473E-1
1.136610425E0,7.539382577E-1,-4.366030693E-1,5.958815217E-1
1.139015529E0,8.064711094E-1,-4.060607255E-1,5.799994469E-1
1.141420685E0,8.651124239E-1,-3.755183518E-1,5.641174316E-1
1.143825789E0,9.310839176E-1,-3.510844707E-1,5.421269536E-1
1.146230893E0,9.994988441E-1,-3.254288733E-1,5.189147592E-1
1.148635998E0,1.059361815E0,-2.887780368E-1,4.932591617E-1
1.151041154E0,1.113116384E0,-2.509055138E-1,4.676035643E-1
1.153446258E0,1.159540772E0,-2.289150059E-1,4.358395338E-1
1.155851362E0,1.208408594E0,-2.386885732E-1,3.759764731E-1
1.158256466E0,1.263384819E0,-2.753393948E-1,3.136700690E-1
1.160661623E0,1.313474298E0,-3.254288733E-1,2.489202619E-1
1.163066727E0,1.348903418E0,-3.804051280E-1,1.841704547E-1
1.165471831E0,1.370893955E0,-4.341596961E-1,1.181989461E-1
1.167876987E0,1.386775970E0,-4.964661002E-1,4.123219103E-2
1.170282091E0,1.405101418E0,-5.807630420E-1,-3.573456407E-2
1.172687196E0,1.424648523E0,-6.687250137E-1,-1.065928489E-1
1.175092300E0,1.440530539E0,-7.518002391E-1,-1.725643575E-1
1.177497456E0,1.457634330E0,-8.202151656E-1,-2.360924631E-1
1.179902560E0,1.478403091E0,-8.837432861E-1,-2.935121059E-1
1.182307664E0,1.511388779E0,-9.423846006E-1,-3.362714052E-1
1.184712768E0,1.540709496E0,-9.521581531E-1,-3.631486893E-1
1.187117925E0,1.567586780E0,-8.812998533E-1,-3.692571819E-1
1.189523029E0,1.596907496E0,-7.322531343E-1,-3.570402265E-1
1.191928133E0,1.623784781E0,-5.416688323E-1,-3.326063454E-1
1.194333289E0,1.654327035E0,-3.449759781E-1,-2.922904193E-1
1.196738393E0,1.667765737E0,-1.605001241E-1,-2.483094037E-1
1.199143498E0,1.666544080E0,-7.788302377E-3,-2.043284029E-1
1.201548602E0,1.657992125E0,1.033858955E-1,-1.640124917E-1
1.203953758E0,1.646996975E0,1.608055383E-1,-1.285833418E-1
1.206358862E0,1.644553542E0,1.620272398E-1,-9.315420687E-2
1.208763966E0,1.640888453E0,1.314848661E-1,-6.139015034E-2
1.211169123E0,1.634779930E0,8.383878320E-2,-3.939964995E-2
1.213574227E0,1.629893184E0,2.886253223E-2,-2.596100792E-2
1.215979331E0,1.625006437E0,-2.855710872E-2,-2.473931387E-2
1.218384435E0,1.626228094E0,-8.108997345E-2,-2.962609194E-2
1.220789591E0,1.633558273E0,-1.299577504E-1,-4.184303805E-2
1.223194696E0,1.645775199E0,-1.714953631E-1,-5.772506446E-2
1.225599800E0,1.660435557E0,-2.093679011E-1,-7.971556485E-2
1.228004956E0,1.676317573E0,-2.496838123E-1,-1.029277667E-1
1.230410060E0,1.690977931E0,-2.838912606E-1,-1.236965731E-1
1.232815164E0,1.703194857E0,-3.107685447E-1,-1.432436854E-1
1.235220268E0,1.714190125E0,-3.327590525E-1,-1.566823274E-1
1.237625425E0,1.723963618E0,-3.535278440E-1,-1.713426560E-1
1.240030529E0,1.736180663E0,-3.828485310E-1,-1.860029846E-1
1.242435633E0,1.748397589E0,-4.194993675E-1,-1.957765520E-1
1.244840789E0,1.752062678E0,-4.512633979E-1,-1.982199401E-1
1.247245893E0,1.753284335E0,-4.842491746E-1,-2.031067163E-1
1.249650998E0,1.756949425E0,-5.147915483E-1,-2.043284029E-1
1.252056102E0,1.763057947E0,-5.441122055E-1,-2.018850148E-1
1.254461258E0,1.774053097E0,-5.697677732E-1,-1.969982386E-1
1.256866362E0,1.789935231E0,-5.880932212E-1,-1.921114624E-1
1.259271466E0,1.807038903E0,-6.015318632E-1,-1.847812980E-1
1.261676571E0,1.822920918E0,-6.125270724E-1,-1.811162084E-1
1.264081727E0,1.840024710E0,-6.308525205E-1,-1.750077456E-1
1.266486831E0,1.855906725E0,-6.552863717E-1,-1.713426560E-1
1.268891935E0,1.869345307E0,-6.858287454E-1,-1.652341783E-1
1.271297091E0,1.884005666E0,-7.261446714E-1,-1.591257155E-1
1.273702196E0,1.899887681E0,-7.725690603E-1,-1.530172378E-1
1.276107300E0,1.915769696E0,-8.165500760E-1,-1.481304616E-1
1.278512456E0,1.936538577E0,-8.532009125E-1,-1.444653720E-1
1.280917560E0,1.956085682E0,-8.739697337E-1,-1.383569092E-1
1.283322664E0,1.978076100E0,-8.776348233E-1,-1.285833418E-1
1.285727768E0,2.002510071E0,-8.727480173E-1,-1.212531775E-1
1.288132925E0,2.029387236E0,-8.641961813E-1,-1.114796251E-1
1.290538029E0,2.051377773E0,-8.409839869E-1,-9.559759498E-2
1.292943133E0,2.069703341E0,-7.982246280E-1,-8.093725890E-2
1.295348237E0,2.083141804E0,-7.371399403E-1,-6.261184067E-2
1.297753393E0,2.092915535E0,-6.675033569E-1,-4.550812021E-2
1.300158498E0,2.102689028E0,-5.942016840E-1,-2.596100792E-2
1.302563602E0,2.112462521E0,-5.306735635E-1,-7.635590620E-3
1.304968758E0,2.129566193E0,-4.891359508E-1,5.803049076E-3
1.307373862E0,2.147891760E0,-4.622586668E-1,2.412846684E-2
1.309778966E0,2.161330223E0,-4.378247857E-1,4.489727318E-2
1.312184123E0,2.172325611E0,-4.048390090E-1,5.711421743E-2
1.314589227E0,2.175990582E0,-3.645231128E-1,6.566607952E-2
1.316994331E0,2.178434134E0,-3.229855001E-1,6.566607952E-2
1.319399435E0,2.185764313E0,-2.936648130E-1,6.077930331E-2
1.321804591E0,2.195537806E0,-2.912214398E-1,5.589252338E-2
1.324209696E0,2.206532955E0,-3.046600819E-1,4.489727318E-2
1.326614800E0,2.213863134E0,-3.205420971E-1,3.268032894E-2
1.329019904E0,2.212641478E0,-3.437542915E-1,1.557660475E-2
1.331425060E0,2.212641478E0,-3.791834414E-1,-3.970507067E-3
1.333830164E0,2.211419821E0,-4.304946065E-1,-2.473931387E-2
1.336235268E0,2.213863134E0,-5.062396526E-1,-4.917320609E-2
1.338640425E0,2.221193314E0,-6.064186096E-1,-6.994201243E-2
1.341045529E0,2.224858522E0,-7.188144922E-1,-9.071081877E-2
1.343450633E0,2.222414970E0,-8.189934492E-1,-1.151447073E-1
1.345855737E0,2.215084791E0,-9.020686746E-1,-1.456870735E-1
1.348260893E0,2.207754612E0,-9.765920639E-1,-1.835595965E-1
1.350665998E0,2.199202776E0,-1.059667230E0,-2.153236568E-1
1.353071102E0,2.184542418E0,-1.143964171E0,-2.434226274E-1
1.355476258E0,2.156443596E0,-1.216044188E0,-2.727433145E-1
1.357881362E0,2.129566193E0,-1.275907159E0,-3.020639718E-1
1.360286466E0,2.106353998E0,-1.350430608E0,-3.326063454E-1
1.362691571E0,2.086807013E0,-1.443279386E0,-3.472666740E-1
1.365096727E0,2.062373161E0,-1.531241417E0,-3.545968235E-1
1.367501831E0,2.026943922E0,-1.588660955E0,-3.533751369E-1
1.369906935E0,1.991514802E0,-1.614316583E0,-3.521534503E-1
1.372312091E0,1.963415861E0,-1.635085344E0,-3.460449576E-1
1.374717196E0,1.932873487E0,-1.648524046E0,-3.216110766E-1
1.377122300E0,1.888892412E0,-1.636307120E0,-2.861819267E-1
1.379527456E0,1.838802934E0,-1.593547821E0,-2.446443290E-1
1.381932560E0,1.783826709E0,-1.533684731E0,-2.018850148E-1
1.384337664E0,1.728850484E0,-1.473821759E0,-1.530172378E-1
1.386742768E0,1.673874259E0,-1.424953938E0,-9.681928903E-2
1.389147925E0,1.615232825E0,-1.374864459E0,-3.939964995E-2
1.391553029E0,1.548039675E0,-1.336991906E0,1.679829881E-2
1.393958133E0,1.477181435E0,-1.310114622E0,6.566607952E-2
1.396363289E0,1.407544851E0,-1.277128935E0,1.120904684E-1
1.398768393E0,1.345238328E0,-1.229482770E0,1.511846930E-1
1.401173498E0,1.292705536E0,-1.153737783E0,1.817270666E-1
1.403578654E0,1.237729311E0,-1.068219185E0,2.061609477E-1
1.405983758E0,1.183974743E0,-9.900307059E-1,2.208212912E-1
1.408388862E0,1.130220175E0,-9.216157794E-1,2.281514555E-1
1.410793966E0,1.078908920E0,-8.580876589E-1,2.305948436E-1
1.413199123E0,1.031262875E0,-7.994463444E-1,2.293731421E-1
1.415604227E0,9.823951125E-1,-7.566870451E-1,2.220429778E-1
1.418009331E0,9.335273504E-1,-7.334748507E-1,2.086043358E-1
1.420414487E0,8.871029615E-1,-7.322531343E-1,1.951656938E-1
1.422819591E0,8.504521251E-1,-7.530219555E-1,1.805053651E-1
1.425224696E0,8.186880350E-1,-7.847860456E-1,1.634016484E-1
1.427629800E0,7.954758406E-1,-8.238802552E-1,1.450762302E-1
1.430034956E0,7.771504521E-1,-8.507575393E-1,1.267508119E-1
1.432440060E0,7.612683773E-1,-8.580876589E-1,1.096470803E-1
1.434845164E0,7.453863621E-1,-8.483141065E-1,8.887827396E-2
1.437250321E0,7.295043468E-1,-8.287670016E-1,6.688777357E-2
1.439655425E0,7.172874212E-1,-8.104416132E-1,4.245388508E-2
1.442060529E0,7.087355256E-1,-7.945595980E-1,1.435491070E-2
1.444465685E0,7.075138092E-1,-7.835643291E-1,-1.496575773E-2
1.446870789E0,7.111788988E-1,-7.713474035E-1,-3.939964995E-2
1.449275893E0,7.172874212E-1,-7.615737915E-1,-6.139015034E-2
1.451680998E0,7.258392572E-1,-7.627955079E-1,-8.582404256E-2
1.454086154E0,7.319477201E-1,-7.652388811E-1,-1.065928489E-1
1.456491258E0,7.392778993E-1,-7.713474035E-1,-1.273616552E-1
1.458896362E0,7.429429889E-1,-7.823426127E-1,-1.444653720E-1
1.461301518E0,7.490514517E-1,-7.872294188E-1,-1.627907902E-1
1.463706623E0,7.539382577E-1,-7.908945084E-1,-1.786728203E-1
1.466111727E0,7.576032877E-1,-7.921161652E-1,-1.921114624E-1
1.468516883E0,7.600467205E-1,-7.872294188E-1,-2.018850148E-1
1.470921987E0,7.612683773E-1,-7.762341499E-1,-2.153236568E-1
1.473327091E0,7.612683773E-1,-7.676823139E-1,-2.312056869E-1
1.475732196E0,7.551599145E-1,-7.603521347E-1,-2.470877171E-1
1.478137352E0,7.466080785E-1,-7.627955079E-1,-2.629697323E-1
1.480542456E0,7.343910933E-1,-7.664605975E-1,-2.776300907E-1
1.482947560E0,7.197307944E-1,-7.701256871E-1,-2.886253297E-1
1.485352716E0,7.050704360E-1,-7.811209559E-1,-3.020639718E-1
1.487757821E0,6.855233312E-1,-7.872294188E-1,-3.130592108E-1
1.490162925E0,6.659762263E-1,-7.957812548E-1,-3.240544796E-1
1.492568081E0,6.427640319E-1,-8.006680608E-1,-3.362714052E-1
1.494973185E0,6.171084642E-1,-8.043331504E-1,-3.484883606E-1
1.497378289E0,5.902311802E-1,-8.031114340E-1,-3.631486893E-1
1.499783393E0,5.645755529E-1,-8.043331504E-1,-3.753656447E-1
1.502188550E0,5.535803437E-1,-8.360971808E-1,-3.900259733E-1
1.504593654E0,5.731274486E-1,-9.680401683E-1,-4.059080184E-1
1.506998758E0,6.476507783E-1,-1.200162172E0,-4.242334068E-1
1.509403914E0,7.722636461E-1,-1.450609565E0,-4.498890042E-1
1.511809018E0,9.127585292E-1,-1.611873150E0,-4.902049303E-1
1.514214123E0,1.033706307E0,-1.609429836E0,-5.416688323E-1
1.516619279E0,1.135106921E0,-1.510472536E0,-6.076403260E-1
1.519024383E0,1.231620789E0,-1.416402102E0,-6.723901033E-1
1.521429487E0,1.355011940E0,-1.377307892E0,-7.346965671E-1
1.523834643E0,1.504058719E0,-1.382194638E0,-7.884510756E-1
1.526239748E0,1.657992125E0,-1.385859728E0,-8.360971808E-1
1.528644852E0,1.798487067E0,-1.355317354E0,-8.874083757E-1
1.531049956E0,1.919434786E0,-1.299119353E0,-9.313893318E-1
1.533455112E0,2.019613743E0,-1.227039456E0,-9.594883323E-1
1.535860216E0,2.101467371E0,-1.168398142E0,-9.765920639E-1
1.538265321E0,2.172325611E0,-1.117086887E0,-9.851438999E-1
1.540670477E0,2.228523493E0,-1.073105931E0,-9.814788103E-1
1.543075581E0,2.270061016E0,-1.037676811E0,-9.692618847E-1
1.545480685E0,2.296938419E0,-1.019351363E0,-9.533798695E-1
1.547885841E0,2.314042091E0,-1.007134438E0,-9.277243018E-1
1.550290946E0,2.317707300E0,-9.985825419E-1,-8.935168386E-1
1.552696050E0,2.309155464E0,-1.008356094E0,-8.605310917E-1
1.555101154E0,2.290829897E0,-1.020573020E0,-8.275453448E-1
1.557506310E0,2.261509180E0,-1.024238110E0,-7.823426127E-1
1.559911414E0,2.223636627E0,-1.015686274E0,-7.359182239E-1
1.562316518E0,2.178434134E0,-9.863656163E-1,-6.809419990E-1
1.564721675E0,2.121014357E0,-9.240592122E-1,-6.174138784E-1
1.567126779E0,2.057486296E0,-8.409839869E-1,-5.367820263E-1
1.569531883E0,1.990293026E0,-7.481352091E-1,-4.425588250E-1
1.571937039E0,1.916991353E0,-6.565080881E-1,-3.448232710E-1
1.574342143E0,1.837581277E0,-5.746545792E-1,-2.605263591E-1
1.576747248E0,1.756949425E0,-4.940227270E-1,-1.811162084E-1
1.579152404E0,1.682426095E0,-4.256078303E-1,-9.926267713E-2
1.581557508E0,1.616454601E0,-3.706315756E-1,-1.863084175E-2
1.583962612E0,1.554148197E0,-3.290939629E-1,5.467082933E-2
1.586367768E0,1.496728539E0,-2.961082160E-1,1.181989461E-1
1.588772873E0,1.446639061E0,-2.777827978E-1,1.719534993E-1
1.591177977E0,1.398992896E0,-2.704526186E-1,2.208212912E-1
1.593583081E0,1.352568507E0,-2.631224692E-1,2.635805905E-1
1.595988237E0,1.311030984E0,-2.521272004E-1,2.953446507E-1
1.598393341E0,1.280488610E0,-2.557922900E-1,3.246653080E-1
1.600798446E0,1.257276416E0,-2.790044844E-1,3.454341292E-1
1.603203602E0,1.226734042E0,-3.095468581E-1,3.564293683E-1
1.605608706E0,1.203521848E0,-3.290939629E-1,3.552076817E-1
1.608013810E0,1.186418056E0,-3.608580232E-1,3.442124426E-1
1.610418966E0,1.182752967E0,-4.011739492E-1,3.258870244E-1
1.612824071E0,1.179087877E0,-4.366030693E-1,3.075616062E-1
1.615229175E0,1.175422788E0,-4.732539058E-1,2.880144715E-1
1.617634331E0,1.174201131E0,-5.184566379E-1,2.684673667E-1
1.620039435E0,1.180309653E0,-5.819846988E-1,2.538070381E-1
1.622444539E0,1.188861489E0,-6.467345357E-1,2.367033064E-1
1.624849643E0,1.210852027E0,-6.821636558E-1,2.195995897E-1
1.627254800E0,1.238950968E0,-7.139277458E-1,1.939440072E-1
1.629659904E0,1.256054640E0,-7.530219555E-1,1.548497826E-1
1.632065060E0,1.264606595E0,-7.872294188E-1,1.084253863E-1
1.634470164E0,1.271936655E0,-8.165500760E-1,5.833591148E-2
1.636875268E0,1.284153700E0,-8.544226289E-1,1.801999472E-2
1.639280373E0,1.304922462E0,-8.935168386E-1,-1.863084175E-2
1.641685529E0,1.335464835E0,-9.167290330E-1,-4.672981426E-2
1.644090633E0,1.364785433E0,-9.130639434E-1,-6.872031838E-2
1.646495737E0,1.397771239E0,-9.020686746E-1,-8.582404256E-2
1.648900893E0,1.431978703E0,-8.715263009E-1,-9.559759498E-2
1.651305998E0,1.453969240E0,-7.994463444E-1,-1.090362370E-1
1.653711102E0,1.461299300E0,-6.809419990E-1,-1.249182671E-1
1.656116258E0,1.457634330E0,-5.099047422E-1,-1.469087601E-1
1.658521362E0,1.444195628E0,-3.034383655E-1,-1.798945218E-1
1.660926466E0,1.430757046E0,-1.336228400E-1,-2.177670449E-1
1.663331571E0,1.427091956E0,-1.389677543E-2,-2.654131353E-1
1.665736727E0,1.425870180E0,6.551336497E-2,-3.106158376E-1
1.668141831E0,1.429535270E0,1.192679256E-1,-3.545968235E-1
1.670546935E0,1.438087106E0,1.571404636E-1,-3.912476599E-1
1.672952091E0,1.445417285E0,1.852394342E-1,-4.193466306E-1
1.675357196E0,1.451525807E0,2.145601064E-1,-4.364503622E-1
1.677762300E0,1.464964390E0,2.487675399E-1,-4.401154518E-1
1.680167456E0,1.471072912E0,2.976353168E-1,-4.315635860E-1
1.682572560E0,1.475959659E0,3.513898849E-1,-4.132381678E-1
1.684977664E0,1.477181435E0,4.149180055E-1,-3.851391971E-1
1.687382821E0,1.480846524E0,5.016583204E-1,-3.436015844E-1
1.689787925E0,1.489398360E0,6.042806506E-1,-2.800734639E-1
1.692193029E0,1.491841674E0,7.081246972E-1,-2.031067163E-1
1.694598185E0,1.496728539E0,8.021951914E-1,-1.139230132E-1
1.697003289E0,1.501615286E0,8.816053271E-1,-1.130067464E-2
1.699408393E0,1.511388779E0,9.549070001E-1,1.072036922E-1
1.701813550E0,1.512610555E0,1.004996419E0,2.391466945E-1
1.704218654E0,1.522384048E0,1.030652046E0,3.845283389E-1
1.706623758E0,1.534600973E0,1.035538793E0,5.396835804E-1
1.709028914E0,1.548039675E0,1.020878434E0,7.107207775E-1
1.711434018E0,1.570030212E0,1.002553105E0,8.964183331E-1
1.713839123E0,1.587133884E0,9.842276573E-1,1.088224411E0
1.716244279E0,1.600572586E0,9.610154629E-1,1.289803982E0
1.718649383E0,1.615232825E0,9.451334476E-1,1.490161896E0
1.721054487E0,1.636001706E0,9.170344472E-1,1.692963123E0
1.723459591E0,1.650662065E0,8.693883419E-1,1.888434291E0
1.725864748E0,1.670209169E0,8.168554902E-1,2.076575279E0
1.728269852E0,1.700751424E0,7.423321605E-1,2.258607626E0
1.730675008E0,1.726407051E0,6.617003083E-1,2.434531689E0
1.733080112E0,1.747175932E0,5.774033666E-1,2.621450901E0
1.735485216E0,1.764279604E0,4.869979918E-1,2.819365501E0
1.737890321E0,1.761836171E0,3.929274976E-1,3.044157267E0
1.740295477E0,1.749619246E0,3.074088693E-1,3.283609390E0
1.742700581E0,1.725185394E0,2.328855246E-1,3.529170036E0
1.745105685E0,1.682426095E0,1.876828223E-1,3.772287130E0
1.747510841E0,1.636001706E0,1.718007922E-1,4.001966000E0
1.749915946E0,1.594464064E0,1.827960461E-1,4.197436810E0
1.752321050E0,1.554148197E0,2.047865391E-1,4.356257439E0
1.754726206E0,1.516275644E0,2.365505993E-1,4.471096516E0
1.757131310E0,1.484511495E0,2.670929730E-1,4.546841621E0
1.759536414E0,1.449082375E0,3.049654961E-1,4.578605652E0
1.761941571E0,1.428313613E0,3.269560039E-1,4.578605652E0
1.764346675E0,1.409988165E0,3.196258247E-1,4.557837009E0
1.766751779E0,1.392884493E0,3.025220931E-1,4.518742561E0
1.769156935E0,1.381889224E0,2.939702570E-1,4.471096516E0
1.771562039E0,1.374559045E0,3.013004065E-1,4.416120052E0
1.773967143E0,1.373337388E0,3.281776905E-1,4.357479095E0
1.776372300E0,1.375780702E0,3.733803928E-1,4.301280975E0
1.778777404E0,1.383110881E0,4.100312293E-1,4.253634930E0
1.781182508E0,1.397771239E0,4.393518865E-1,4.204767227E0
1.783587664E0,1.412431598E0,5.004366040E-1,4.152234077E0
1.785992768E0,1.430757046E0,6.103891134E-1,4.102144718E0
1.788397873E0,1.442973971E0,7.667660117E-1,4.052055359E0
1.790803029E0,1.455190897E0,9.695672989E-1,4.008074284E0
1.793208133E0,1.467407823E0,1.185807228E0,3.981197119E0
1.795613237E0,1.491841674E0,1.372726560E0,3.966536760E0
1.798018393E0,1.523605824E0,1.507265568E0,3.961649895E0
1.800423498E0,1.541931152E0,1.520704269E0,3.929885864E0
1.802828602E0,1.524827480E0,1.350736022E0,3.767400503E0
1.805233758E0,1.466186166E0,1.122279167E0,3.471750498E0
1.807638862E0,1.442973971E0,1.042868972E0,3.239628553E0
1.810043966E0,1.460077643E0,9.915578365E-1,3.099133492E0
1.812449123E0,1.472294569E0,8.437327743E-1,2.925652981E0
1.814854227E0,1.473516345E0,7.411104441E-1,2.717964888E0
1.817259331E0,1.499171853E0,7.814263701E-1,2.553036213E0
1.819664487E0,1.559034944E0,9.097042680E-1,2.446748734E0
1.822069591E0,1.632336617E0,1.001331329E0,2.362451792E0
1.824474696E0,1.698308110E0,9.756757617E-1,2.268381357E0
1.826879852E0,1.736180663E0,8.718317747E-1,2.174310923E0
1.829284956E0,1.766723037E0,7.777612805E-1,2.098565817E0
1.831690060E0,1.811925650E0,7.521057129E-1,2.048476219E0
1.834095216E0,1.870566964E0,7.569924593E-1,2.020377398E0
1.836500321E0,1.930430055E0,7.887565494E-1,2.005717039E0
1.838905425E0,1.987849712E0,8.412894011E-1,1.992278337E0
1.841310581E0,2.033052444E0,9.011524320E-1,1.987391591E0
1.843715685E0,2.078255177E0,9.622371197E-1,1.987391591E0
1.846120789E0,2.125901222E0,1.026986957E0,1.997165084E0
1.848525946E0,2.173547268E0,1.089293361E0,2.006938696E0
1.850931050E0,2.221193314E0,1.156486630E0,2.022820711E0
1.853336154E0,2.267617702E0,1.227344871E0,2.039924383E0
1.855741310E0,2.315263748E0,1.301868200E0,2.057028055E0
1.858146414E0,2.366575003E0,1.377613306E0,2.077796936E0
1.860551518E0,2.413151979E0,1.457023382E0,2.097344160E0
1.862956675E0,2.462019920E0,1.536586285E0,2.115669489E0
1.865361779E0,2.510887623E0,1.619661450E0,2.131551504E0
1.867766883E0,2.564642191E0,1.707623482E0,2.141324997E0
1.870172039E0,2.620840073E0,1.798028946E0,2.153542042E0
1.872577143E0,2.674594641E0,1.883547544E0,2.162093878E0
1.874982248E0,2.734457731E0,1.962957621E0,2.166980743E0
1.877387404E0,2.788212299E0,2.036259413E0,2.168202400E0
1.879792508E0,2.845631838E0,2.110782623E0,2.165758848E0
1.882197612E0,2.900608301E0,2.177975893E0,2.159650564E0
1.884602768E0,2.954362869E0,2.251277685E0,2.149876833E0
1.887007873E0,2.997122049E0,2.320914268E0,2.137660027E0
1.889412977E0,3.037437916E0,2.391772509E0,2.124221325E0
1.891818133E0,3.070423841E0,2.456522226E0,2.105895996E0
1.894223237E0,3.102187872E0,2.513942003E0,2.083905458E0
1.896628341E0,3.125400066E0,2.561588049E0,2.057028055E0
1.899033498E0,3.152277231E0,2.601903915E0,2.021599054E0
1.901438602E0,3.168159246E0,2.633667946E0,1.982504725E0
1.903843706E0,3.179154634E0,2.649549961E0,1.933637023E0
1.906248862E0,3.184041262E0,2.661767006E0,1.874995708E0
1.908653966E0,3.182819605E0,2.671540499E0,1.811467528E0
1.911059071E0,3.175489426E0,2.688644171E0,1.740609288E0
1.913464227E0,3.158385754E0,2.699639559E0,1.659977436E0
1.915869331E0,3.138838530E0,2.711856365E0,1.576902151E0
1.918274435E0,3.109518051E0,2.716743231E0,1.490161896E0
1.920679591E0,3.078975677E0,2.724073410E0,1.398534775E0
1.923084696E0,3.049654961E0,2.728960037E0,1.304464340E0
1.925489800E0,3.014225721E0,2.739955425E0,1.211615562E0
1.927894956E0,2.976353168E0,2.761945963E0,1.124875188E0
1.930300060E0,2.940924168E0,2.775384426E0,1.030804753E0
1.932705164E0,2.896943092E0,2.790044785E0,9.355126023E-1
1.935110321E0,2.856627226E0,2.821808815E0,8.426637650E-1
1.937515425E0,2.804094315E0,2.853573084E0,7.473716140E-1
1.939920529E0,2.755226612E0,2.879228592E0,6.484143734E-1
1.942325685E0,2.692920208E0,2.907327414E0,5.519005060E-1
1.944730789E0,2.629391909E0,2.942756653E0,4.566083252E-1
1.947135946E0,2.562198877E0,2.983072519E0,3.674246371E-1
1.949541050E0,2.490118742E0,3.039270639E0,2.831276953E-1
1.951946154E0,2.418038845E0,3.093025208E0,2.012741715E-1
1.954351258E0,2.349471331E0,3.154109716E0,1.218640283E-1
1.956756414E0,2.270061016E0,3.237185001E0,5.222744122E-2
1.959161518E0,2.189429283E0,3.334920645E0,-8.857285604E-3
1.961566675E0,2.108797550E0,3.424104214E0,-7.238540053E-2
1.963971779E0,2.022057056E0,3.504736185E0,-1.334701329E-1
1.966376883E0,1.938981891E0,3.586589575E0,-1.945548505E-1
1.968782039E0,1.853463292E0,3.669664860E0,-2.544178963E-1
1.971187143E0,1.764279604E0,3.751518488E0,-3.106158376E-1
1.973592248E0,1.681204319E0,3.830928564E0,-3.643703759E-1
1.975997404E0,1.589577317E0,3.892013311E0,-4.193466306E-1
1.978402508E0,1.497950196E0,3.939659357E0,-4.755446017E-1
1.980807612E0,1.405101418E0,3.971423388E0,-5.305208564E-1
1.983212768E0,1.303700805E0,3.997079134E0,-5.832064152E-1
1.985617873E0,1.204743505E0,4.008074284E0,-6.271874309E-1
1.988022977E0,1.118003249E0,3.984862089E0,-6.723901033E-1
1.990428133E0,1.049588323E0,3.951876402E0,-7.188144922E-1
1.992833237E0,9.970554113E-1,3.911560535E0,-7.750124335E-1
1.995238341E0,9.567395449E-1,3.867579460E0,-8.373188972E-1
1.997643498E0,9.237537384E-1,3.821155071E0,-9.045121074E-1
2.000048602E0,9.017632604E-1,3.771065474E0,-9.704836011E-1
2.002453706E0,8.895463347E-1,3.716089249E0,-1.037676811E0
2.004858862E0,8.858812451E-1,3.651339531E0,-1.107313395E0
2.007263966E0,8.907679915E-1,3.576816082E0,-1.176949978E0
2.009669071E0,9.017632604E-1,3.498627663E0,-1.245364904E0
2.012074227E0,9.176452756E-1,3.413109064E0,-1.318666577E0
2.014479331E0,9.371923804E-1,3.326368809E0,-1.391968250E0
2.016884435E0,9.542961121E-1,3.228633165E0,-1.465269804E0
2.019289591E0,9.738432169E-1,3.129675865E0,-1.536128163E0
2.021694696E0,9.933903813E-1,3.041713953E0,-1.606986403E0
2.024099852E0,1.020267606E0,2.974520683E0,-1.671736240E0
2.026504956E0,1.045923233E0,2.902440786E0,-1.732820988E0
2.028910060E0,1.072800517E0,2.838912725E0,-1.789018869E0
2.031315216E0,1.105786204E0,2.792488337E0,-1.834221601E0
2.033720321E0,1.137550354E0,2.747285604E0,-1.874537468E0
2.036125425E0,1.175422788E0,2.713078022E0,-1.907523274E0
2.038530581E0,1.215738773E0,2.689865828E0,-1.927070379E0
2.040935685E0,1.258498073E0,2.672762156E0,-1.944174170E0
2.043340789E0,1.300035715E0,2.665431976E0,-1.950282574E0
2.045745946E0,1.344016671E0,2.659323454E0,-1.952726007E0
2.048151050E0,1.387997627E0,2.653215170E0,-1.950282574E0
2.050556154E0,1.430757046E0,2.650771618E0,-1.942952394E0
2.052961310E0,1.469851255E0,2.653215170E0,-1.936843991E0
2.055366414E0,1.501615286E0,2.662988663E0,-1.930735469E0
2.057771518E0,1.530935884E0,2.682535648E0,-1.927070379E0
2.060176675E0,1.557813168E0,2.725295067E0,-1.929513812E0
2.062581779E0,1.576138616E0,2.771719456E0,-1.940509081E0
2.064986883E0,1.588355541E0,2.818143845E0,-1.968608022E0
2.067392039E0,1.594464064E0,2.879228592E0,-2.010145664E0
2.069797143E0,1.592020631E0,2.954973698E0,-2.063900232E0
2.072202300E0,1.593242407E0,3.030718565E0,-2.128649950E0
2.074607404E0,1.603015900E0,3.078364849E0,-2.208060026E0
2.077012508E0,1.610346079E0,3.072256327E0,-2.307017326E0
2.079417664E0,1.614011168E0,3.042935610E0,-2.409639835E0
2.081822768E0,1.616454601E0,3.006284714E0,-2.507375240E0
2.084227873E0,1.616454601E0,2.943978310E0,-2.613662720E0
2.086633029E0,1.611567736E0,2.856016397E0,-2.721171856E0
2.089038133E0,1.604237556E0,2.753394127E0,-2.833567619E0
2.091443289E0,1.593242407E0,2.640998125E0,-2.949628592E0
2.093848393E0,1.574916959E0,2.516385317E0,-3.071798086E0
2.096253498E0,1.552926421E0,2.388107300E0,-3.193967581E0
2.098658602E0,1.522384048E0,2.264716148E0,-3.318580389E0
2.101063758E0,1.482068181E0,2.147433519E0,-3.437084913E0
2.103468862E0,1.435643792E0,2.043589592E0,-3.549480677E0
2.105874018E0,1.387997627E0,1.960514307E0,-3.653324842E0
2.108279123E0,1.341573238E0,1.894542813E0,-3.743730068E0
2.110684227E0,1.285375357E0,1.843231559E0,-3.823140383E0
2.113089383E0,1.230399132E0,1.809024215E0,-3.886668444E0
2.115494487E0,1.183974743E0,1.806580782E0,-3.929427624E0
2.117899591E0,1.147323847E0,1.832236409E0,-3.956305027E0
2.120304748E0,1.119224906E0,1.866443753E0,-3.972187042E0
2.122709852E0,1.113116384E0,1.948297381E0,-3.964856863E0
2.125114956E0,1.118003249E0,2.080240250E0,-3.937979460E0
2.127520112E0,1.124111652E0,2.193857908E0,-3.915989161E0
2.129925216E0,1.124111652E0,2.268381357E0,-3.885446787E0
2.132330321E0,1.122889996E0,2.296480179E0,-3.847574234E0
2.134735477E0,1.120446563E0,2.290371895E0,-3.802371502E0
2.137140581E0,1.118003249E0,2.262272835E0,-3.755947113E0
2.139545737E0,1.124111652E0,2.247612476E0,-3.707079411E0
2.141950841E0,1.130220175E0,2.243947506E0,-3.659433126E0
2.144355946E0,1.125333309E0,2.220735312E0,-3.616673946E0
2.146761102E0,1.120446563E0,2.136438370E0,-3.595905066E0
2.149166206E0,1.104564548E0,1.987391591E0,-3.593461752E0
2.151571310E0,1.082574010E0,1.782146931E0,-3.622782469E0
2.153976466E0,1.050809979E0,1.553689957E0,-3.671650171E0
2.156381571E0,1.022711039E0,1.413042426E0,-3.727848053E0
2.158786675E0,1.003163934E0,1.343405843E0,-3.797484636E0
2.161191831E0,9.897252917E-1,1.283542752E0,-3.884224892E0
2.163596935E0,9.750649333E-1,1.223679781E0,-3.991734028E0
2.166002091E0,9.640696645E-1,1.167481780E0,-4.112681866E0
2.168407196E0,9.530744553E-1,1.106397152E0,-4.245846748E0
2.170812300E0,9.408574700E-1,1.034317136E0,-4.381454468E0
2.173217456E0,9.261971712E-1,9.487984776E-1,-4.513397694E0
2.175622560E0,9.127585292E-1,8.486195803E-1,-4.635567188E0
2.178027664E0,8.993198872E-1,7.325585485E-1,-4.740633011E0
2.180432821E0,8.907679915E-1,6.006155610E-1,-4.827373028E0
2.182837925E0,8.871029615E-1,4.564556181E-1,-4.894566536E0
2.185243029E0,8.907679915E-1,3.025220931E-1,-4.940990925E0
2.187648185E0,8.980981708E-1,1.510319859E-1,-4.965424538E0
2.190053289E0,9.115368128E-1,5.650337320E-3,-4.965424538E0
2.192458446E0,9.359707236E-1,-1.605001241E-1,-4.951985836E0
2.194863550E0,9.750649333E-1,-3.376458287E-1,-4.923887253E0
2.197268654E0,1.017824292E0,-4.475983381E-1,-4.879906178E0
2.199673810E0,1.058140159E0,-5.074613690E-1,-4.822486401E0
2.202078914E0,1.097234368E0,-5.270084739E-1,-4.756515026E0
2.204484018E0,1.136328578E0,-5.135698318E-1,-4.685656548E0
2.206889175E0,1.177866220E0,-4.830274582E-1,-4.607468128E0
2.209294279E0,1.221847177E0,-4.341596961E-1,-4.523171425E0
2.211699435E0,1.267049909E0,-3.706315756E-1,-4.433987617E0
2.214104539E0,1.313474298E0,-3.022166789E-1,-4.332586765E0
2.216509643E0,1.362342119E0,-2.350234836E-1,-4.228743076E0
2.218914800E0,1.413653255E0,-1.641651988E-1,-4.118790150E0
2.221319904E0,1.464964390E0,-8.964183182E-2,-4.001507759E0
2.223725008E0,1.515053868E0,-4.123218823E-3,-3.881781578E0
2.226130164E0,1.563921690E0,8.017370105E-2,-3.762055635E0
2.228535268E0,1.611567736E0,1.669140160E-1,-3.638664484E0
2.230940425E0,1.656770468E0,2.793098986E-1,-3.506721497E0
2.233345529E0,1.699529767E0,3.684936166E-1,-3.372334957E0
2.235750633E0,1.744732499E0,4.075878263E-1,-3.242835283E0
2.238155789E0,1.789935231E0,4.210264683E-1,-3.110892296E0
2.240560893E0,1.832694530E0,4.185830951E-1,-2.986279488E0
2.242965998E0,1.871788740E0,4.027010500E-1,-2.865331888E0
2.245371154E0,1.907217860E0,3.794888556E-1,-2.746827364E0
2.247776258E0,1.945090413E0,3.623851240E-1,-2.624657869E0
2.250181362E0,2.003731728E0,4.002576768E-1,-2.473167896E0
2.252586518E0,2.059929609E0,4.100312293E-1,-2.365658760E0
2.254991623E0,2.097802162E0,3.843756318E-1,-2.285026789E0
2.257396779E0,2.123457670E0,3.623851240E-1,-2.203173399E0
2.259801883E0,2.143004894E0,3.416163325E-1,-2.133536816E0
2.262206987E0,2.155221939E0,3.098522723E-1,-2.074895382E0
2.264612143E0,2.162552118E0,2.585411072E-1,-2.027249336E0
2.267017248E0,2.162552118E0,2.011214644E-1,-1.991820216E0
2.269422352E0,2.157665253E0,1.437018216E-1,-1.964942932E0
2.271827508E0,2.151556730E0,8.261708915E-2,-1.944174170E0
2.274232612E0,2.140561581E0,2.153236605E-2,-1.929513812E0
2.276637716E0,2.129566193E0,-4.932591692E-2,-1.923405290E0
2.279042873E0,2.110019207E0,-1.238492802E-1,-1.920961976E0
2.281447977E0,2.102689028E0,-2.496838123E-1,-1.924626946E0
2.283853133E0,2.097802162E0,-4.268295169E-1,-1.941730738E0
2.286258237E0,2.085585356E0,-5.282301903E-1,-1.958834410E0
2.288663341E0,2.072146654E0,-5.783196688E-1,-1.979603291E0
2.291068498E0,2.053821087E0,-6.039752364E-1,-2.001593828E0
2.293473602E0,2.041604280E0,-6.210789680E-1,-2.019919157E0
2.295878758E0,2.025722265E0,-6.296308041E-1,-2.041909695E0
2.298283862E0,2.009840250E0,-6.394043565E-1,-2.055348396E0
2.300688966E0,1.993958116E0,-6.589514613E-1,-2.062678576E0
2.303094123E0,1.975632787E0,-6.833853722E-1,-2.059013367E0
2.305499227E0,1.948755503E0,-7.127060294E-1,-2.048018217E0
2.307904331E0,1.910882950E0,-7.542436719E-1,-2.028470993E0
2.310309487E0,1.868123651E0,-7.591304183E-1,-2.002815485E0
2.312714591E0,1.818034172E0,-7.408050299E-1,-1.974716425E0
2.315119748E0,1.760614514E0,-7.298097610E-1,-1.942952394E0
2.317524852E0,1.703194857E0,-7.371399403E-1,-1.903858185E0
2.319929956E0,1.659213901E0,-6.833853722E-1,-1.851325274E0
2.322335112E0,1.603015900E0,-5.880932212E-1,-1.795127392E0
2.324740216E0,1.532157660E0,-5.428904891E-1,-1.741372824E0
2.327145321E0,1.450304151E0,-5.551074743E-1,-1.683953166E0
2.329550477E0,1.370893955E0,-5.685460567E-1,-1.617981672E0
2.331955581E0,1.303700805E0,-5.770979524E-1,-1.550788522E0
2.334360737E0,1.242616057E0,-5.880932212E-1,-1.486038685E0
2.336765841E0,1.186418056E0,-5.954233408E-1,-1.426175594E0
2.339170946E0,1.141215444E0,-5.990884304E-1,-1.368755937E0
2.341576102E0,1.100899458E0,-6.039752364E-1,-1.319888234E0
2.343981206E0,1.070357084E0,-6.076403260E-1,-1.275907159E0
2.346386310E0,1.048366666E0,-6.161921620E-1,-1.240478039E0
2.348791466E0,1.031262875E0,-6.247440577E-1,-1.209935665E0
2.351196571E0,1.019045949E0,-6.357392669E-1,-1.184280157E0
2.353601727E0,1.014159203E0,-6.467345357E-1,-1.162289619E0
2.356006831E0,1.011715770E0,-6.613948941E-1,-1.142742515E0
2.358411935E0,1.014159203E0,-6.784985662E-1,-1.125638843E0
2.360817091E0,1.020267606E0,-7.017107606E-1,-1.107313395E0
2.363222196E0,1.027597785E0,-7.261446714E-1,-1.088987947E0
2.365627300E0,1.032484531E0,-7.530219555E-1,-1.069440842E0
2.368032456E0,1.036149621E0,-7.774558663E-1,-1.056002140E0
2.370437560E0,1.038593054E0,-8.018897176E-1,-1.040120125E0
2.372842716E0,1.037371397E0,-8.238802552E-1,-1.029124975E0
2.375247821E0,1.034927964E0,-8.470924497E-1,-1.020573020E0
2.377652925E0,1.030041218E0,-8.641961813E-1,-1.013242841E0
2.380058081E0,1.028819442E0,-8.825215697E-1,-1.005912781E0
2.382463185E0,1.025154471E0,-8.996253014E-1,-1.003469348E0
2.384868341E0,1.023932695E0,-9.179506898E-1,-1.003469348E0
2.387273446E0,1.022711039E0,-9.399412274E-1,-1.003469348E0
2.389678550E0,1.025154471E0,-9.643751383E-1,-1.002247691E0
2.392083706E0,1.026376128E0,-9.900307059E-1,-1.002247691E0
2.394488810E0,1.030041218E0,-1.014464617E0,-9.973608851E-1
2.396893914E0,1.039814711E0,-1.032789946E0,-9.924740791E-1
2.399299071E0,1.053253412E0,-1.047450304E0,-9.863656163E-1
2.401704175E0,1.069135427E0,-1.063332319E0,-9.765920639E-1
2.404109331E0,1.082574010E0,-1.080436110E0,-9.680401683E-1
2.406514435E0,1.100899458E0,-1.099983215E0,-9.582666159E-1
2.408919539E0,1.118003249E0,-1.118308663E0,-9.423846006E-1
2.411324696E0,1.133885264E0,-1.139077425E0,-9.265025854E-1
2.413729800E0,1.147323847E0,-1.158624530E0,-9.032903910E-1
2.416134904E0,1.160762548E0,-1.179393291E0,-8.788564801E-1
2.418540060E0,1.174201131E0,-1.196497083E0,-8.507575393E-1
2.420945164E0,1.188861489E0,-1.219709277E0,-8.165500760E-1
2.423350321E0,1.205965161E0,-1.242921472E0,-7.750124335E-1
2.425755425E0,1.224290609E0,-1.274685502E0,-7.298097610E-1
2.428160529E0,1.248724461E0,-1.308892965E0,-6.821636558E-1
2.430565685E0,1.270714998E0,-1.339435339E0,-6.296308041E-1
2.432970789E0,1.293927193E0,-1.362647533E0,-5.758762360E-1
2.435375946E0,1.315917730E0,-1.366312623E0,-5.219689608E-1
2.437781050E0,1.335464835E0,-1.357760787E0,-4.694361091E-1
2.440186154E0,1.353790283E0,-1.343100429E0,-4.205683470E-1
2.442591310E0,1.372115612E0,-1.323553324E0,-3.655920923E-1
2.444996414E0,1.390441060E0,-1.297897696E0,-3.130592108E-1
2.447401571E0,1.408766508E0,-1.266133666E0,-2.593046725E-1
2.449806675E0,1.423426867E0,-1.235591292E0,-2.067717910E-1
2.452211779E0,1.431978703E0,-1.207492352E0,-1.542389393E-1
2.454616935E0,1.433200359E0,-1.180615067E0,-1.029277667E-1
2.457022039E0,1.427091956E0,-1.161067963E0,-5.894676223E-2
2.459427196E0,1.418540001E0,-1.147629261E0,-1.007897966E-2
2.461832300E0,1.403879762E0,-1.139077425E0,3.756710514E-2
2.464237404E0,1.383110881E0,-1.134190679E0,8.521319181E-2
2.466642560E0,1.363563776E0,-1.125638843E0,1.279724985E-1
2.469047664E0,1.340351582E0,-1.124417067E0,1.658450365E-1
2.471452768E0,1.317139387E0,-1.163511276E0,2.086043358E-1
2.473857925E0,1.291483760E0,-1.227039456E0,2.501419485E-1
2.476263029E0,1.271936655E0,-1.235591292E0,2.721324563E-1
2.478668185E0,1.260941505E0,-1.219709277E0,2.782409191E-1
2.481073289E0,1.256054640E0,-1.195275426E0,2.745758295E-1
2.483478393E0,1.254832983E0,-1.176949978E0,2.611372173E-1
2.485883550E0,1.249946237E0,-1.176949978E0,2.379250079E-1
2.488288654E0,1.243837714E0,-1.197718740E0,2.122694254E-1
2.490693810E0,1.234064221E0,-1.231926203E0,1.841704547E-1
2.493098914E0,1.226734042E0,-1.262468576E0,1.572931707E-1
2.495504018E0,1.218182087E0,-1.280794024E0,1.316375881E-1
2.497909175E0,1.204743505E0,-1.290567517E0,1.010952219E-1
2.500314279E0,1.192526579E0,-1.290567517E0,6.810946763E-2
2.502719383E0,1.176644564E0,-1.278350592E0,3.023693897E-2
2.505124539E0,1.159540772E0,-1.256360054E0,-1.007897966E-2
2.507529643E0,1.143658757E0,-1.224596024E0,-5.405998230E-2
2.509934800E0,1.127776742E0,-1.190388560E0,-9.926267713E-2
2.512339904E0,1.114338160E0,-1.151294351E0,-1.493521482E-1
2.514745060E0,1.102121115E0,-1.110978484E0,-2.006633282E-1
2.517150164E0,1.091125965E0,-1.065775752E0,-2.519744933E-1
2.519555268E0,1.088682532E0,-1.018129706E0,-3.032856584E-1
2.521960425E0,1.094791055E0,-9.741486907E-1,-3.570402265E-1
2.524365529E0,1.103342891E0,-9.338327646E-1,-4.095730782E-1
2.526770685E0,1.110673070E0,-8.971819282E-1,-4.559974670E-1
2.529175789E0,1.119224906E0,-8.666395545E-1,-5.036435723E-1
2.531580893E0,1.127776742E0,-8.348754644E-1,-5.502206683E-1
2.533986050E0,1.139993668E0,-8.031114340E-1,-5.917583108E-1
2.536391154E0,1.149767280E0,-7.640172243E-1,-6.259657145E-1
2.538796310E0,1.160762548E0,-7.200362086E-1,-6.552863717E-1
2.541201414E0,1.166870952E0,-6.687250137E-1,-6.748335361E-1
2.543606518E0,1.169314384E0,-6.149705052E-1,-6.931589246E-1
2.546011675E0,1.165649295E0,-5.612159371E-1,-7.017107606E-1
2.548416779E0,1.158319116E0,-5.086830258E-1,-7.004891038E-1
2.550821935E0,1.131441832E0,-4.402681589E-1,-6.846070886E-1
2.553227039E0,1.028819442E0,-2.863346636E-1,-6.479562521E-1
2.555632143E0,8.663341403E-1,-1.189625040E-1,-5.893148780E-1
2.558037300E0,6.525375843E-1,5.329642445E-2,-5.085303187E-1
2.560442404E0,3.898732662E-1,2.402156889E-1,-4.132381678E-1
2.562847560E0,9.910997003E-2,4.063661397E-1,-2.983988822E-1
2.565252664E0,-2.063136548E-1,5.578562617E-1,-1.493521482E-1
2.567657768E0,-4.946335554E-1,6.580352187E-1,1.191152167E-2
2.570062925E0,-7.194253802E-1,6.836907864E-1,1.621799469E-1
2.572468029E0,-8.758022785E-1,6.873558760E-1,2.953446507E-1
2.574873133E0,-9.747595191E-1,6.849125028E-1,4.126273096E-1
2.577278289E0,-1.028514028E0,6.751389503E-1,5.054761171E-1
2.579683393E0,-1.050504565E0,6.702521443E-1,5.677825212E-1
2.582088550E0,-1.049282908E0,6.788040400E-1,5.909947157E-1
2.584493654E0,-1.039509296E0,6.995728016E-1,5.775560737E-1
2.586898810E0,-1.023627281E0,7.337802649E-1,5.384618640E-1
2.589303914E0,-1.010188699E0,7.826480269E-1,4.663818777E-1
2.591709018E0,-1.000415087E0,8.425110579E-1,3.784198761E-1
2.594114175E0,-9.955283403E-1,8.950439692E-1,2.757975459E-1
2.596519279E0,-9.943066239E-1,9.487984776E-1,1.646233350E-1
2.598924383E0,-9.955283403E-1,9.903361201E-1,5.344913527E-2
2.601329539E0,-9.894198179E-1,1.001331329E0,-6.016845629E-2
2.603734643E0,-9.478822351E-1,9.353598356E-1,-1.236965731E-1
2.606139800E0,-8.599202037E-1,8.192988634E-1,-1.200314835E-1
2.608544904E0,-7.707365155E-1,7.203416228E-1,-1.139230132E-1
2.610950008E0,-6.986565590E-1,6.445965767E-1,-1.200314835E-1
2.613355164E0,-6.583406329E-1,6.042806506E-1,-1.469087601E-1
2.615760268E0,-6.558972597E-1,5.969504714E-1,-1.811162084E-1
2.618165425E0,-6.791094542E-1,6.006155610E-1,-2.128802687E-1
2.620570529E0,-7.120952010E-1,5.981721878E-1,-2.446443290E-1
2.622975633E0,-7.377507687E-1,5.774033666E-1,-2.531961799E-1
2.625380789E0,-7.511894107E-1,5.358657837E-1,-2.507528067E-1
2.627785893E0,-7.475243211E-1,4.772244096E-1,-2.409792393E-1
2.630191050E0,-7.194253802E-1,3.917058110E-1,-2.104368806E-1
2.632596154E0,-6.620057225E-1,2.768665254E-1,-1.359135211E-1
2.635001310E0,-5.752654076E-1,1.644706279E-1,-2.596100792E-2
2.637406414E0,-4.824166298E-1,9.972081333E-2,9.376505762E-2
2.639811518E0,-3.859027624E-1,8.017370105E-2,1.890572309E-1
2.642216675E0,-2.942756712E-1,4.230117425E-2,2.269297540E-1
2.644621779E0,-2.136438340E-1,1.420219894E-2,2.159345001E-1
2.647026935E0,-1.427855492E-1,-1.634016447E-2,1.792836636E-1
2.649432039E0,-8.903098851E-2,-5.299099907E-2,1.243074164E-1
2.651837143E0,-5.360184610E-2,-9.697200358E-2,6.566607952E-2
2.654242300E0,-3.405473381E-2,-1.397313178E-1,1.557660475E-2
2.656647404E0,-2.550287358E-2,-1.812689304E-1,-2.596100792E-2
2.659052560E0,-3.161134571E-2,-2.191414535E-1,-6.627693027E-2
2.661457664E0,-4.382828996E-2,-2.570139766E-1,-1.053711548E-1
2.663862768E0,-5.848862603E-2,-2.924431264E-1,-1.408002973E-1
2.666267925E0,-8.047912270E-2,-3.217637837E-1,-1.762294322E-1
2.668673029E0,-1.085781008E-1,-3.400892019E-1,-2.031067163E-1
2.671078133E0,-1.391204596E-1,-3.498627543E-1,-2.214321345E-1
2.673483289E0,-1.696628332E-1,-3.498627543E-1,-2.348707765E-1
2.675888393E0,-2.026485801E-1,-3.400892019E-1,-2.434226274E-1
2.678293550E0,-2.307475507E-1,-3.205420971E-1,-2.470877171E-1
2.680698654E0,-2.502946556E-1,-3.009949923E-1,-2.507528067E-1
2.683103810E0,-2.625116110E-1,-2.741177082E-1,-2.519744933E-1
2.685508914E0,-2.673983872E-1,-2.399102598E-1,-2.556395829E-1
2.687914018E0,-2.673983872E-1,-1.947075576E-1,-2.531961799E-1
2.690319175E0,-2.625116110E-1,-1.482831687E-1,-2.544178963E-1
2.692724279E0,-2.551814318E-1,-9.697200358E-2,-2.470877171E-1
2.695129435E0,-2.478512824E-1,-4.443913698E-2,-2.409792393E-1
2.697534539E0,-2.429644912E-1,8.093725890E-3,-2.336490750E-1
2.699939643E0,-2.368560284E-1,6.429167092E-2,-2.214321345E-1
2.702344800E0,-2.307475507E-1,1.204896197E-1,-2.067717910E-1
2.704749904E0,-2.283041626E-1,1.889045089E-1,-1.884463727E-1
2.707155060E0,-2.246390730E-1,2.573194206E-1,-1.713426560E-1
2.709560164E0,-2.185306102E-1,3.623851240E-1,-1.530172378E-1
2.711965321E0,-2.026485801E-1,4.564556181E-1,-1.322484314E-1
2.714370425E0,-1.928750277E-1,5.236487985E-1,-1.212531775E-1
2.716775529E0,-1.843231618E-1,6.018372774E-1,-1.041494608E-1
2.719180685E0,-1.733279079E-1,6.678087711E-1,-9.071081877E-2
2.721585789E0,-1.635543555E-1,7.313368917E-1,-7.482878864E-2
2.723990946E0,-1.513374150E-1,7.948650122E-1,-5.283828825E-2
2.726396050E0,-1.403421611E-1,8.559496999E-1,-3.329117596E-2
2.728801154E0,-1.256818175E-1,9.133693576E-1,-1.007897966E-2
2.731206310E0,-1.146865711E-1,9.671239257E-1,1.068982668E-2
2.733611414E0,-1.024696305E-1,1.011104941E0,2.901524492E-2
2.736016571E0,-9.269607067E-2,1.045312405E0,5.222744122E-2
2.738421675E0,-8.658760041E-2,1.075854778E0,7.299624383E-2
2.740826779E0,-8.170082420E-2,1.101510286E0,9.376505762E-2
2.743231935E0,-7.803573459E-2,1.111283898E0,1.120904684E-1
2.745637039E0,-7.559234649E-2,1.099066973E0,1.255291104E-1
2.748042196E0,-7.803573459E-2,1.085628271E0,1.389677525E-1
2.750447300E0,-7.803573459E-2,1.057529330E0,1.450762302E-1
2.752852456E0,-8.536590636E-2,9.964445829E-1,1.414111406E-1
2.755257560E0,-9.391776472E-2,9.402466416E-1,1.365243644E-1
2.757662664E0,-1.061347127E-1,8.852704167E-1,1.279724985E-1
2.760067821E0,-1.171299592E-1,8.205205798E-1,1.096470803E-1
2.762472925E0,-1.293469071E-1,7.447755337E-1,8.521319181E-2
2.764878081E0,-1.391204596E-1,6.531484127E-1,5.344913527E-2
2.767283185E0,-1.525591016E-1,5.493044257E-1,1.313321572E-2
2.769688289E0,-1.684411317E-1,4.356867969E-1,-3.084778599E-2
2.772093446E0,-1.916533262E-1,3.122956753E-1,-8.215895295E-2
2.774498550E0,-2.185306102E-1,1.889045089E-1,-1.298050433E-1
2.776903706E0,-2.490729690E-1,8.261708915E-2,-1.713426560E-1
2.779308810E0,-2.808370292E-1,-1.679830020E-3,-2.055501044E-1
2.781713914E0,-3.064926267E-1,-6.032116711E-2,-2.324273884E-1
2.784119071E0,-3.235963285E-1,-1.055238619E-1,-2.519744933E-1
2.786524175E0,-3.333698809E-1,-1.433963925E-1,-2.666348219E-1
2.788929331E0,-3.394783735E-1,-1.727170646E-1,-2.788517773E-1
2.791334435E0,-3.370349705E-1,-1.971509457E-1,-2.922904193E-1
2.793739591E0,-3.235963285E-1,-2.215848416E-1,-3.020639718E-1
2.796144696E0,-3.052709103E-1,-2.447970361E-1,-3.093941510E-1
2.798549800E0,-2.881672084E-1,-2.643441558E-1,-3.142809272E-1
2.800954956E0,-2.698417902E-1,-2.790044844E-1,-3.179459870E-1
2.803360060E0,-2.502946556E-1,-2.875563502E-1,-3.179459870E-1
2.805765216E0,-2.356343269E-1,-2.961082160E-1,-3.179459870E-1
2.808170321E0,-2.246390730E-1,-3.058817685E-1,-3.203893900E-1
2.810575425E0,-2.112004459E-1,-3.144336343E-1,-3.179459870E-1
2.812980581E0,-1.916533262E-1,-3.107685447E-1,-3.155026138E-1
2.815385685E0,-1.696628332E-1,-3.071034551E-1,-3.093941510E-1
2.817790841E0,-1.476723254E-1,-3.046600819E-1,-2.996205688E-1
2.820195946E0,-1.232384369E-1,-3.009949923E-1,-2.886253297E-1
2.822601102E0,-9.758284688E-2,-3.046600819E-1,-2.764083743E-1
2.825006206E0,-7.681404054E-2,-3.132119179E-1,-2.605263591E-1
2.827411310E0,-4.993676394E-2,-3.107685447E-1,-2.397575527E-1
2.829816466E0,-2.183778957E-2,-3.034383655E-1,-2.177670449E-1
2.832221571E0,3.817795310E-3,-2.924431264E-1,-1.994416267E-1
2.834626727E0,2.825168520E-2,-2.802261710E-1,-1.750077456E-1
2.837031831E0,5.635065958E-2,-2.570139766E-1,-1.200314835E-1
2.839436987E0,8.444963396E-2,-2.374668717E-1,-1.740914769E-2
2.841842091E0,1.137702987E-1,-2.362451702E-1,9.498675168E-2
2.844247196E0,1.333174109E-1,-2.338017821E-1,2.086043358E-1
2.846652352E0,1.443126649E-1,-2.350234836E-1,3.234436214E-1
2.849057456E0,1.455343664E-1,-2.374668717E-1,4.419479966E-1
2.851462612E0,1.394258887E-1,-2.484621257E-1,5.567872524E-1
2.853867716E0,1.211004704E-1,-2.643441558E-1,6.667397618E-1
2.856272873E0,9.544488788E-2,-2.875563502E-1,7.632536292E-1
2.858677977E0,6.001574174E-2,-3.180987239E-1,8.438854814E-1
2.861083081E0,2.214321308E-2,-3.559712470E-1,9.110786915E-1
2.863488237E0,-1.572931744E-2,-4.060607255E-1,9.684983492E-1
2.865893341E0,-5.238015205E-2,-4.695888162E-1,1.012479305E0
2.868298498E0,-8.780929446E-2,-5.453338623E-1,1.044243336E0
2.870703602E0,-1.220167428E-1,-6.345176101E-1,1.065012217E0
2.873108758E0,-1.574458778E-1,-7.285880446E-1,1.078450799E0
2.875513862E0,-1.855448484E-1,-8.275453448E-1,1.087002754E0
2.877918966E0,-2.185306102E-1,-9.277243018E-1,1.094332814E0
2.880324123E0,-2.551814318E-1,-1.023016453E0,1.099219680E0
2.882729227E0,-2.942756712E-1,-1.113421798E0,1.100441337E0
2.885134383E0,-3.345915973E-1,-1.197718740E0,1.100441337E0
2.887539487E0,-3.712424338E-1,-1.274685502E0,1.100441337E0
2.889944643E0,-4.005630910E-1,-1.335770249E0,1.104106426E0
2.892349748E0,-4.213318825E-1,-1.383416295E0,1.104106426E0
2.894754852E0,-4.359922409E-1,-1.390746474E0,1.095554590E0
2.897160008E0,-4.579827189E-1,-1.357760787E0,1.077229142E0
2.899565112E0,-4.714213610E-1,-1.307671309E0,1.060125470E0
2.901970268E0,-4.848600030E-1,-1.250251651E0,1.045465112E0
2.904375373E0,-4.958552718E-1,-1.183058381E0,1.035691500E0
2.906780477E0,-5.092939138E-1,-1.114643574E0,1.033248186E0
2.909185633E0,-5.202891231E-1,-1.051115394E0,1.040578246E0
2.911590737E0,-5.251759291E-1,-9.888089895E-1,1.057682037E0
2.913995893E0,-5.337277651E-1,-9.191724062E-1,1.080894232E0
2.916400998E0,-5.422796607E-1,-8.617527485E-1,1.113879919E0
2.918806154E0,-5.483881235E-1,-8.214368224E-1,1.154195905E0
2.921211258E0,-5.544965863E-1,-7.933378816E-1,1.200620294E0
2.923616414E0,-5.667135715E-1,-7.652388811E-1,1.245823026E0
2.926021518E0,-5.887040496E-1,-7.334748507E-1,1.289803982E0
2.928426623E0,-6.192464232E-1,-7.017107606E-1,1.325233102E0
2.930831779E0,-6.632274389E-1,-6.687250137E-1,1.346001983E0
2.933236883E0,-7.218687534E-1,-6.271874309E-1,1.343558550E0
2.935642039E0,-7.658497691E-1,-6.161921620E-1,1.320346355E0
2.938047143E0,-7.817317843E-1,-6.210789680E-1,1.287360549E0
2.940452248E0,-7.853968740E-1,-6.100836992E-1,1.229941010E0
2.942857404E0,-7.841751575E-1,-5.795413256E-1,1.135870457E0
2.945262508E0,-7.792884111E-1,-5.355603099E-1,1.029583097E0
2.947667664E0,-7.658497691E-1,-4.781406820E-1,9.257390499E-1
2.950072768E0,-7.487460375E-1,-4.158342779E-1,8.316685557E-1
2.952477925E0,-7.291989326E-1,-3.571929336E-1,7.559235096E-1
2.954883029E0,-7.072083950E-1,-3.071034551E-1,6.936170459E-1
2.957288133E0,-6.815528274E-1,-2.594573796E-1,6.459710002E-1
2.959693289E0,-6.522321701E-1,-2.093679011E-1,6.129852533E-1
2.962098393E0,-6.192464232E-1,-1.543916464E-1,5.824428797E-1
2.964503550E0,-5.716003180E-1,-1.067455560E-1,5.494571328E-1
2.966908654E0,-5.239542127E-1,-4.566083103E-2,5.152496696E-1
2.969313810E0,-4.750864506E-1,2.153236605E-2,4.834856093E-1
2.971718914E0,-4.201101959E-1,8.383878320E-2,4.468347728E-1
2.974124071E0,-3.724641204E-1,1.522536725E-1,4.114056230E-1
2.976529175E0,-3.260397315E-1,2.096733153E-1,3.747547865E-1
2.978934279E0,-2.783936262E-1,2.732014358E-1,3.393256664E-1
2.981339435E0,-2.380777150E-1,3.342861533E-1,3.087832928E-1
2.983744539E0,-1.977618039E-1,4.027010500E-1,2.831276953E-1
2.986149696E0,-1.623326540E-1,4.747810364E-1,2.660239935E-1
2.988554800E0,-1.269035190E-1,5.383091569E-1,2.525853515E-1
2.990959956E0,-9.269607067E-2,6.067240238E-1,2.403683960E-1
2.993365060E0,-6.215370819E-2,6.788040400E-1,2.342599183E-1
2.995770216E0,-3.771981969E-2,7.337802649E-1,2.244863659E-1
2.998175321E0,-1.328592747E-2,7.777612805E-1,2.171562016E-1
3.000580425E0,5.039489828E-3,8.156337738E-1,2.147128135E-1
3.002985581E0,1.481304597E-2,8.559496999E-1,2.208212912E-1
3.005390685E0,1.969982497E-2,8.803836107E-1,2.269297540E-1
3.007795841E0,1.725643501E-2,8.938222528E-1,2.305948436E-1
3.010200946E0,1.114796288E-2,8.913788795E-1,2.293731421E-1
3.012606102E0,1.374406274E-3,8.938222528E-1,2.293731421E-1
3.015011206E0,-1.695101149E-2,8.901571631E-1,2.244863659E-1
3.017416310E0,-3.283303976E-2,8.754968047E-1,2.147128135E-1
3.019821466E0,-4.749337584E-2,8.583931327E-1,2.049392611E-1
3.022226571E0,-6.459710002E-2,8.327375054E-1,1.866138428E-1
3.024631727E0,-8.047912270E-2,8.461761475E-1,1.719534993E-1
3.027036831E0,-9.513945878E-2,8.473978639E-1,1.487413049E-1
3.029441987E0,-1.061347127E-1,8.217422962E-1,1.206423342E-1
3.031847091E0,-1.146865711E-1,7.911999226E-1,9.009996802E-2
3.034252248E0,-1.207950488E-1,7.582141757E-1,5.711421743E-2
3.036657352E0,-1.146865711E-1,7.166765332E-1,2.168507688E-2
3.039062456E0,-1.061347127E-1,6.763606071E-1,-2.229592577E-2
3.041467612E0,-9.636115283E-2,6.531484127E-1,-7.482878864E-2
3.043872716E0,-7.803573459E-2,6.397097707E-1,-1.371352077E-1
3.046277873E0,-5.115845799E-2,6.164975762E-1,-2.067717910E-1
3.048682977E0,-1.695101149E-2,5.993938446E-1,-2.727433145E-1
3.051088133E0,2.702999115E-2,5.932853818E-1,-3.326063454E-1
3.053493237E0,6.856760383E-2,6.067240238E-1,-3.875826001E-1
3.055898341E0,1.162136942E-1,6.152759194E-1,-4.352286756E-1
3.058303498E0,1.687465608E-1,6.152759194E-1,-4.902049303E-1
3.060708602E0,2.139492482E-1,6.140542030E-1,-5.538857579E-1
3.063113758E0,2.554868758E-1,6.201626658E-1,-6.137487888E-1
3.065518862E0,2.884726226E-1,6.519267559E-1,-7.029324770E-1
3.067924018E0,3.165715933E-1,7.215633392E-1,-8.214368224E-1
3.070329123E0,3.507790267E-1,8.095253110E-1,-9.167290330E-1
3.072734279E0,4.020902216E-1,9.048175216E-1,-9.509364963E-1
3.075139383E0,4.582881629E-1,9.475768209E-1,-9.692618847E-1
3.077544487E0,4.998257756E-1,9.390249252E-1,-9.998042583E-1
3.079949643E0,5.352548957E-1,8.987090588E-1,-1.046228647E0
3.082354748E0,5.633538961E-1,8.657232523E-1,-1.103648305E0
3.084759904E0,5.877877474E-1,8.596147895E-1,-1.168398142E0
3.087165008E0,6.158867478E-1,9.097042680E-1,-1.181836724E0
3.089570164E0,6.537593007E-1,9.487984776E-1,-1.158624530E0
3.091975268E0,6.855233312E-1,9.683456421E-1,-1.189166903E0
3.094380425E0,7.001836896E-1,9.768974781E-1,-1.246586561E0
3.096785529E0,7.258392572E-1,9.634588361E-1,-1.310114622E0
3.099190685E0,7.478297353E-1,9.475768209E-1,-1.382194638E0
3.101595789E0,7.612683773E-1,9.402466416E-1,-1.457939744E0
3.104000893E0,7.832589149E-1,9.121476412E-1,-1.527576327E0
3.106406050E0,7.881456614E-1,8.718317747E-1,-1.593547821E0
3.108811154E0,7.930324674E-1,8.302941322E-1,-1.654632568E0
3.111216310E0,8.015843034E-1,7.753179073E-1,-1.719382286E0
3.113621414E0,8.028060198E-1,7.301151752E-1,-1.770693541E0
3.116026571E0,8.064711094E-1,6.861341596E-1,-1.809787750E0
3.118431675E0,8.150229454E-1,6.360446811E-1,-1.837886691E0
3.120836831E0,8.199097514E-1,5.908420086E-1,-1.863542318E0
3.123241935E0,8.211314082E-1,5.322006941E-1,-1.862320542E0
3.125647039E0,7.857022882E-1,5.150969625E-1,-1.710830450E0
3.128052196E0,7.026270628E-1,5.676298141E-1,-1.362647533E0
3.130457300E0,6.439857483E-1,6.226060390E-1,-9.289459586E-1
3.132862456E0,5.853443742E-1,6.617003083E-1,-5.231906772E-1
3.135267560E0,5.108210444E-1,6.873558760E-1,-1.823379099E-1
3.137672716E0,4.265241027E-1,8.156337738E-1,5.833591148E-2
3.140077821E0,3.727695346E-1,8.669449687E-1,1.585148573E-1
3.142482925E0,3.239017725E-1,8.791618943E-1,1.304158866E-1
3.144888081E0,2.750339806E-1,8.608365059E-1,2.412846684E-2
3.147293185E0,2.139492482E-1,7.814263701E-1,-1.236965731E-1
3.149698341E0,1.430909634E-1,6.519267559E-1,-3.008422852E-1
3.152103446E0,7.711946964E-2,4.723376334E-1,-4.999784827E-1
3.154508602E0,1.481304597E-2,2.524326444E-1,-7.285880446E-1
3.156913706E0,-2.916795574E-2,3.374931216E-2,-9.680401683E-1
3.159318862E0,-4.138490185E-2,-1.824906170E-1,-1.207492352E0
3.161723966E0,-2.305948362E-2,-3.400892019E-1,-1.399298310E0
3.164129123E0,5.024218559E-2,-5.062396526E-1,-1.558118701E0
3.166534227E0,1.626380831E-1,-6.870504618E-1,-1.677844763E0
3.168939383E0,1.540862173E-1,-6.552863717E-1,-1.636307120E0
3.171344487E0,8.689302206E-2,-6.332958937E-1,-1.466491580E0
3.173749591E0,1.969982497E-2,-6.174138784E-1,-1.211157441E0
3.176154748E0,-1.817270555E-2,-5.636593103E-1,-8.727480173E-1
3.178559852E0,-2.290677279E-3,-4.842491746E-1,-5.158604980E-1
3.180965008E0,1.603474095E-2,-3.975088596E-1,-2.324273884E-1
3.183370112E0,1.847812906E-2,-2.582356930E-1,-3.939964995E-2
3.185775268E0,1.527118147E-4,1.542389300E-2,4.245388508E-2
3.188180373E0,6.261184346E-3,1.559187621E-1,-2.229592577E-2
3.190585477E0,1.527118147E-4,1.779092699E-1,-1.762294322E-1
3.192990633E0,-2.550287358E-2,1.608055383E-1,-3.216110766E-1
3.195395737E0,-5.848862603E-2,1.485885978E-1,-4.327852726E-1
3.197800893E0,-8.536590636E-2,1.412584335E-1,-5.355603099E-1
3.200205998E0,-9.269607067E-2,1.424801201E-1,-6.320741773E-1
3.202611154E0,-8.780929446E-2,1.559187621E-1,-7.310314775E-1
3.205016258E0,-7.437065244E-2,1.656923145E-1,-8.238802552E-1
3.207421414E0,-6.337540597E-2,1.522536725E-1,-8.984035850E-1
3.209826518E0,-6.093201414E-2,1.265980899E-1,-9.619317055E-1
3.212231675E0,-5.848862603E-2,8.628217876E-2,-1.004691005E0
3.214636779E0,-5.238015205E-2,4.352286831E-2,-1.027903199E0
3.217041935E0,-4.504998401E-2,1.175880991E-2,-1.038898468E0
3.219447039E0,-3.649812192E-2,-1.756185852E-2,-1.041341901E0
3.221852143E0,-2.672456764E-2,-4.932591692E-2,-1.032789946E0
3.224257300E0,-1.939439960E-2,-7.498150319E-2,-1.020573020E0
3.226662404E0,-1.328592747E-2,-9.819369763E-2,-1.002247691E0
3.229067560E0,-1.084253844E-2,-1.165191159E-1,-9.827005267E-1
3.231472664E0,-8.399149403E-3,-1.495048702E-1,-9.607100487E-1
3.233877821E0,-8.399149403E-3,-1.885990947E-1,-9.326110482E-1
3.236282925E0,-7.177455351E-3,-2.276933193E-1,-9.069554806E-1
3.238688081E0,-7.177455351E-3,-2.484621257E-1,-8.812998533E-1
3.241093185E0,-7.177455351E-3,-2.655658424E-1,-8.532009125E-1
3.243498341E0,-2.290677279E-3,-2.728960216E-1,-8.263236284E-1
3.245903446E0,-1.068982761E-3,-2.741177082E-1,-7.957812548E-1
3.248308550E0,-1.068982761E-3,-2.594573796E-1,-7.652388811E-1
3.250713706E0,-2.290677279E-3,-2.264716178E-1,-7.310314775E-1
3.253118810E0,-1.068982761E-3,-1.788255423E-1,-6.968240142E-1
3.255523966E0,6.261184346E-3,-1.495048702E-1,-6.613948941E-1
3.257929071E0,1.847812906E-2,-1.348445266E-1,-6.259657145E-1
3.260334227E0,2.336490713E-2,-1.165191159E-1,-5.893148780E-1
3.262739331E0,2.458660305E-2,-8.353336155E-2,-5.587725043E-1
3.265144487E0,2.702999115E-2,-6.032116711E-2,-5.256340504E-1
3.267549591E0,3.313846514E-2,-4.566083103E-2,-4.902049303E-1
3.269954748E0,4.413371533E-2,-2.367033064E-2,-4.523324072E-1
3.272359852E0,5.757235363E-2,2.397575416E-2,-4.181249440E-1
3.274764956E0,7.223268598E-2,8.872556686E-2,-3.839175105E-1
3.277170112E0,9.666658193E-2,1.351499557E-1,-3.448232710E-1
3.279575216E0,1.223221645E-1,1.693574041E-1,-2.983988822E-1
3.281980373E0,1.540862173E-1,2.121167034E-1,-2.531961799E-1
3.284385477E0,1.736333370E-1,2.243336588E-1,-2.531961799E-1
3.286790633E0,1.711899489E-1,2.414373755E-1,-2.556395829E-1
3.289195737E0,1.797417998E-1,2.805316150E-1,-2.434226274E-1
3.291600893E0,1.919587553E-1,3.147390485E-1,-2.495311052E-1
3.294005998E0,1.931804419E-1,3.391729295E-1,-2.812951505E-1
3.296411154E0,1.944021434E-1,3.721587062E-1,-3.069507480E-1
3.298816258E0,1.992889196E-1,3.892624080E-1,-3.472666740E-1
3.301221414E0,1.992889196E-1,3.929274976E-1,-3.888042867E-1
3.303626518E0,1.895153672E-1,4.051444530E-1,-4.291202128E-1
3.306031623E0,1.797417998E-1,4.308000207E-1,-4.706578255E-1
3.308436779E0,1.736333370E-1,4.588989913E-1,-5.048652887E-1
3.310841883E0,1.797417998E-1,4.442386627E-1,-5.441122055E-1
3.313247039E0,1.870719790E-1,4.161396921E-1,-5.844281316E-1
3.315652143E0,1.895153672E-1,4.063661397E-1,-6.113054156E-1
3.318057300E0,1.882936656E-1,4.051444530E-1,-6.430694461E-1
3.320462404E0,1.675248593E-1,4.723376334E-1,-7.298097610E-1
3.322867560E0,1.528645307E-1,4.992149174E-1,-8.299887180E-1
3.325272664E0,1.528645307E-1,4.833329022E-1,-8.959602118E-1
3.327677821E0,1.626380831E-1,4.234698713E-1,-9.167290330E-1
3.330082925E0,1.638597846E-1,3.623851240E-1,-8.935168386E-1
3.332488081E0,1.846285909E-1,3.281776905E-1,-8.483141065E-1
3.334893185E0,1.992889196E-1,3.220692277E-1,-7.872294188E-1
3.337298341E0,2.102841735E-1,3.281776905E-1,-7.163711190E-1
3.339703446E0,2.396048307E-1,3.403946459E-1,-6.259657145E-1
3.342108550E0,2.567085624E-1,3.623851240E-1,-5.575508475E-1
3.344513706E0,2.591519356E-1,4.112529159E-1,-5.280774832E-1
3.346918810E0,2.640387416E-1,4.808894992E-1,-5.329642296E-1
3.349323966E0,2.640387416E-1,5.395308137E-1,-5.551074743E-1
3.351729071E0,2.664821148E-1,5.700731874E-1,-5.893148780E-1
3.354134227E0,2.725905776E-1,5.908420086E-1,-6.039752364E-1
3.356539331E0,2.738122940E-1,6.177192926E-1,-6.357392669E-1
3.358944487E0,2.615953386E-1,6.641436815E-1,-7.041541934E-1
3.361349591E0,2.359397560E-1,7.496622801E-1,-8.189934492E-1
3.363754748E0,2.286095917E-1,7.679877281E-1,-8.861866593E-1
3.366159852E0,2.310529798E-1,7.545490861E-1,-9.008470178E-1
3.368565008E0,2.432699203E-1,7.386670709E-1,-8.788564801E-1
3.370970112E0,2.542651594E-1,7.569924593E-1,-8.409839869E-1
3.373375268E0,2.762556672E-1,7.911999226E-1,-7.982246280E-1
3.375780373E0,3.067980409E-1,8.083036542E-1,-7.566870451E-1
3.378185477E0,3.385621011E-1,8.205205798E-1,-7.298097610E-1
3.380590633E0,3.752129376E-1,8.034168482E-1,-6.956022978E-1
3.382995737E0,4.020902216E-1,8.021951914E-1,-6.784985662E-1
3.385400893E0,4.216373265E-1,8.266290426E-1,-6.846070886E-1
3.387805998E0,4.350759685E-1,8.596147895E-1,-7.053758502E-1
3.390211154E0,4.521796703E-1,8.730534315E-1,-7.298097610E-1
3.392616258E0,4.705050886E-1,8.620582223E-1,-7.493568659E-1
3.395021414E0,4.900522232E-1,8.412894011E-1,-7.627955079E-1
3.397426518E0,5.071559548E-1,8.254073858E-1,-7.737907767E-1
3.399831675E0,5.193728805E-1,8.083036542E-1,-7.823426127E-1
3.402236779E0,5.267030597E-1,7.899782062E-1,-7.994463444E-1
3.404641935E0,5.315898061E-1,7.728744745E-1,-8.177717924E-1
3.407047039E0,5.340332389E-1,7.484406233E-1,-8.483141065E-1
3.409452196E0,5.267030597E-1,7.398887277E-1,-8.971819282E-1
3.411857300E0,4.888305068E-1,7.875348330E-1,-1.015686274E0
3.414262404E0,4.668400288E-1,7.521057129E-1,-1.092653036E0
3.416667560E0,4.717268050E-1,6.445965767E-1,-1.113421798E0
3.419072664E0,4.546230733E-1,6.018372774E-1,-1.136633992E0
3.421477821E0,4.668400288E-1,5.089884996E-1,-1.151294351E0
3.423882925E0,4.570664763E-1,4.735593498E-1,-1.170841455E0
3.426288081E0,4.326325655E-1,4.686725736E-1,-1.225817680E0
3.428693185E0,4.277457893E-1,4.002576768E-1,-1.252694964E0
3.431098341E0,4.167505503E-1,3.355078697E-1,-1.266133666E0
3.433503446E0,4.033119082E-1,2.670929730E-1,-1.285680771E0
3.435908602E0,3.923166394E-1,2.011214644E-1,-1.305227876E0
3.438313706E0,3.776563108E-1,1.388150454E-1,-1.322331548E0
3.440718810E0,3.605526090E-1,7.895200700E-2,-1.335770249E0
3.443123966E0,3.434488773E-1,2.153236605E-2,-1.330883503E0
3.445529123E0,3.263451457E-1,-1.634016447E-2,-1.307671309E0
3.447934227E0,3.116848171E-1,-3.955236077E-2,-1.269798756E0
3.450339331E0,2.958027720E-1,-3.344388679E-2,-1.214822531E0
3.452744487E0,2.786990702E-1,6.872031838E-3,-1.146407604E0
3.455149643E0,2.481566966E-1,7.773031294E-2,-1.063332319E0
3.457554748E0,2.200577259E-1,1.559187621E-1,-9.741486907E-1
3.459959852E0,1.980672181E-1,2.548760176E-1,-8.788564801E-1
3.462365008E0,1.748550236E-1,3.599417508E-1,-7.701256871E-1
3.464770112E0,1.553079188E-1,4.772244096E-1,-6.491779089E-1
3.467175268E0,1.333174109E-1,6.042806506E-1,-5.268557668E-1
3.469580373E0,1.015533581E-1,7.240067124E-1,-4.120164812E-1
3.471985529E0,5.635065958E-2,8.290724158E-1,-3.093941510E-1
3.474390633E0,1.603474095E-2,9.035958052E-1,-2.165453583E-1
3.476795789E0,-2.428117767E-2,9.561286569E-1,-1.346918195E-1
3.479200893E0,-5.971032009E-2,9.878927469E-1,-6.505523622E-2
3.481606050E0,-8.903098851E-2,1.009883285E0,-5.192201585E-3
3.484011154E0,-1.110214889E-1,1.018435121E0,4.734066129E-2
3.486416310E0,-1.232384369E-1,1.001331329E0,8.643488586E-2
3.488821414E0,-1.366770715E-1,9.854493141E-1,1.035386100E-1
3.491226571E0,-1.427855492E-1,9.487984776E-1,1.084253863E-1
3.493631675E0,-1.745496094E-1,1.002553105E0,9.865183383E-2
3.496036831E0,-1.562241912E-1,9.756757617E-1,9.254335612E-2
3.498441935E0,-1.721062213E-1,9.842276573E-1,7.666133344E-2
3.500847091E0,-1.281252056E-1,9.304730892E-1,6.200099736E-2
3.503252196E0,-1.342336833E-1,9.426900148E-1,3.878879920E-2
3.505657300E0,-7.314895838E-2,8.510629535E-1,2.046338283E-2
3.508062456E0,-7.437065244E-2,8.681666851E-1,-1.130067464E-2
3.510467560E0,-2.428117767E-2,7.863131166E-1,-6.139015034E-2
3.512872716E0,6.261184346E-3,7.325585485E-1,-1.004843712E-1
3.515277821E0,2.702999115E-2,7.178982496E-1,-1.615691036E-1
3.517682977E0,9.910997003E-2,6.177192926E-1,-1.835595965E-1
3.520088081E0,1.149920002E-1,6.189410090E-1,-2.104368806E-1
3.522493237E0,1.406475753E-1,5.761816502E-1,-2.739650011E-1
3.524898341E0,2.053973973E-1,4.686725736E-1,-2.874036431E-1
3.527303498E0,2.567085624E-1,3.965925872E-1,-2.812951505E-1
3.529708602E0,2.921377122E-1,3.403946459E-1,-2.898470163E-1
3.532113758E0,3.177932799E-1,2.927485406E-1,-2.983988822E-1
3.534518862E0,3.300102353E-1,2.658712566E-1,-3.057290614E-1
3.536924018E0,3.312319219E-1,2.451024652E-1,-3.240544796E-1
3.539329123E0,3.251234591E-1,2.218902707E-1,-3.570402265E-1
3.541734279E0,3.177932799E-1,1.937913001E-1,-3.888042867E-1
3.544139383E0,3.104631305E-1,1.571404636E-1,-4.071297050E-1
3.546544539E0,2.994678617E-1,1.229330078E-1,-4.242334068E-1
3.548949643E0,2.835858464E-1,8.994726092E-2,-4.450022280E-1
3.551354800E0,2.603736520E-1,6.306997687E-2,-4.596625566E-1
3.553759904E0,2.334963679E-1,3.619270027E-2,-4.669927359E-1
3.556165060E0,2.029540092E-1,7.635590737E-4,-4.865398407E-1
3.558570164E0,1.284306347E-1,-5.543438718E-2,-5.917583108E-1
3.560975321E0,6.612421572E-2,-9.697200358E-2,-6.736118197E-1
3.563380425E0,6.856760383E-2,-2.044811249E-1,-6.320741773E-1
3.565785581E0,6.368082762E-2,-2.606790662E-1,-5.746545792E-1
3.568190685E0,4.535540938E-2,-2.680092454E-1,-5.292991400E-1
3.570595841E0,6.261184346E-3,-2.472404242E-1,-4.975350797E-1
3.573000946E0,-4.871506989E-2,-2.093679011E-1,-4.645493329E-1
3.575406102E0,-9.758284688E-2,-1.910424829E-1,-4.303418994E-1
3.577811206E0,-1.452289373E-1,-1.824906170E-1,-3.875826001E-1
3.580216310E0,-1.879882365E-1,-1.812689304E-1,-3.497100472E-1
3.582621466E0,-2.283041626E-1,-1.849340051E-1,-3.252761662E-1
3.585026571E0,-2.722851634E-1,-1.849340051E-1,-3.069507480E-1
3.587431727E0,-3.150444627E-1,-1.849340051E-1,-2.849602401E-1
3.589836831E0,-3.565820754E-1,-1.910424829E-1,-2.641914487E-1
3.592241987E0,-4.030064642E-1,-2.020377368E-1,-2.531961799E-1
3.594647091E0,-4.457657933E-1,-2.203631550E-1,-2.397575527E-1
3.597052248E0,-4.885250926E-1,-2.460187376E-1,-2.263189107E-1
3.599457352E0,-5.361711979E-1,-2.948864996E-1,-2.324273884E-1
3.601862508E0,-5.813738704E-1,-3.571929336E-1,-2.409792393E-1
3.604267612E0,-6.229115129E-1,-4.231644273E-1,-2.507528067E-1
3.606672768E0,-6.558972597E-1,-4.830274582E-1,-2.629697323E-1
3.609077873E0,-6.839962006E-1,-5.392253995E-1,-2.812951505E-1
3.611483029E0,-7.120952010E-1,-5.807630420E-1,-3.057290614E-1
3.613888133E0,-7.426375747E-1,-6.027535200E-1,-3.301629424E-1
3.616293289E0,-8.379297256E-1,-4.769189954E-1,-3.839175105E-1
3.618698393E0,-9.710944295E-1,-3.437542915E-1,-5.060869455E-1
3.621103550E0,-9.955283403E-1,-3.645231128E-1,-5.551074743E-1
3.623508654E0,-1.002858520E0,-3.865135908E-1,-5.538857579E-1
3.625913810E0,-9.857547879E-1,-4.072824121E-1,-5.392253995E-1
3.628318914E0,-9.759812355E-1,-3.938437700E-1,-5.219689608E-1
3.630724071E0,-9.918632507E-1,-3.559712470E-1,-5.085303187E-1
3.633129175E0,-1.023627281E0,-2.948864996E-1,-4.853181541E-1
3.635534331E0,-1.060278177E0,-2.301367074E-1,-4.474456310E-1
3.637939435E0,-1.094485521E0,-1.849340051E-1,-4.071297050E-1
3.640344591E0,-1.116476059E0,-1.666085869E-1,-3.778090179E-1
3.642749696E0,-1.129914761E0,-1.800472289E-1,-3.717005551E-1
3.645154852E0,-1.139688253E0,-2.044811249E-1,-3.912476599E-1
3.647559956E0,-1.151905179E0,-2.240282297E-1,-4.340069890E-1
3.649965112E0,-1.165343881E0,-2.325800955E-1,-4.950917065E-1
3.652370216E0,-1.176339149E0,-2.716743052E-1,-5.966450572E-1
3.654775373E0,-1.205659747E0,-3.278722763E-1,-7.493568659E-1
3.657180477E0,-1.318055630E0,-3.926220834E-1,-1.052337170E0
3.659585633E0,-1.456107140E0,-4.366030693E-1,-1.406628489E0
3.661990737E0,-1.561172843E0,-4.695888162E-1,-1.718160629E0
3.664395893E0,-1.654021621E0,-4.818057716E-1,-2.016254187E0
3.666800998E0,-1.716328144E0,-4.720322192E-1,-2.340003252E0
3.669206154E0,-1.650356531E0,-5.551074743E-1,-2.713841677E0
3.671611258E0,-1.348598003E0,-9.313893318E-1,-2.872661829E0
3.674016414E0,-1.010188699E0,-1.256360054E0,-2.750492573E0
3.676421518E0,-7.499676943E-1,-1.384638071E0,-2.441403866E0
3.678826675E0,-6.412369013E-1,-1.363869190E0,-2.117654800E0
3.681231779E0,-5.996993184E-1,-1.073105931E0,-1.702278614E0
3.683636935E0,-5.764871240E-1,-7.334748507E-1,-1.206270576E0
3.686042039E0,-5.300627351E-1,-5.062396526E-1,-7.188144922E-1
3.688447196E0,-4.530959427E-1,-4.292729199E-1,-3.423798978E-1
3.690852300E0,-3.578037918E-1,-4.146125913E-1,-1.420219839E-1
3.693257456E0,-2.637332976E-1,-3.681881726E-1,-8.215895295E-2
3.695662560E0,-1.904316396E-1,-3.083251417E-1,-1.175880954E-1
3.698067716E0,-1.378987730E-1,-3.254288733E-1,-2.348707765E-1
3.700472821E0,-6.948387623E-2,-4.463766217E-1,-4.169032574E-1
3.702877977E0,1.603474095E-2,-6.479562521E-1,-6.491779089E-1
3.705283081E0,9.910997003E-2,-8.544226289E-1,-8.947384953E-1
3.707688237E0,1.565296054E-1,-1.001025915E0,-1.074327588E0
3.710093393E0,1.834068894E-1,-1.071884274E0,-1.135412335E0
3.712498498E0,1.956238300E-1,-1.170841455E0,-1.086544514E0
3.714903654E0,2.066190839E-1,-1.324774981E0,-1.002247691E0
3.717308758E0,2.310529798E-1,-1.478708506E0,-9.326110482E-1
3.719713862E0,2.481566966E-1,-1.565448761E0,-8.580876589E-1
3.722119018E0,2.444916219E-1,-1.582552552E0,-7.481352091E-1
3.724524175E0,2.347180545E-1,-1.617981672E0,-6.051968932E-1
3.726929279E0,2.212794125E-1,-1.687618256E0,-4.877615273E-1
3.729334435E0,2.151709497E-1,-1.784132123E0,-4.352286756E-1
3.731739539E0,2.090624720E-1,-1.839108348E0,-4.401154518E-1
3.734144696E0,1.944021434E-1,-1.841551781E0,-4.633276463E-1
3.736549800E0,1.650814712E-1,-1.817117929E0,-4.645493329E-1
3.738954956E0,1.430909634E-1,-1.807344317E0,-4.327852726E-1
3.741360060E0,1.296523362E-1,-1.793905735E0,-3.875826001E-1
3.743765216E0,1.259872466E-1,-1.754811406E0,-3.301629424E-1
3.746170321E0,1.247655526E-1,-1.688839912E0,-2.751866877E-1
3.748575477E0,1.198787764E-1,-1.595991135E0,-2.165453583E-1
3.750980581E0,1.101052165E-1,-1.470156670E0,-1.554606259E-1
3.753385737E0,9.788827598E-2,-1.305227876E0,-1.114796251E-1
3.755790841E0,1.003316641E-1,-1.120751977E0,-9.804098308E-2
3.758195998E0,1.235438585E-1,-9.399412274E-1,-1.029277667E-1
3.760601102E0,1.663031727E-1,-7.860077024E-1,-1.151447073E-1
3.763006258E0,2.151709497E-1,-6.662816405E-1,-1.383569092E-1
3.765411362E0,2.603736520E-1,-5.868715048E-1,-1.591257155E-1
3.767816518E0,3.019112647E-1,-5.221216679E-1,-1.811162084E-1
3.770221623E0,3.312319219E-1,-4.610369802E-1,-2.018850148E-1
3.772626779E0,3.532224298E-1,-4.048390090E-1,-2.189887464E-1
3.775031883E0,3.727695346E-1,-3.510844707E-1,-2.324273884E-1
3.777437039E0,3.935383558E-1,-3.046600819E-1,-2.470877171E-1
3.779842196E0,4.106420577E-1,-2.606790662E-1,-2.715215981E-1
3.782247300E0,4.179722369E-1,-2.105895877E-1,-2.874036431E-1
3.784652456E0,4.216373265E-1,-1.922641695E-1,-2.861819267E-1
3.787057560E0,4.118637741E-1,-1.922641695E-1,-2.812951505E-1
3.789462716E0,3.849864900E-1,-1.898207814E-1,-2.690782249E-1
3.791867821E0,3.458922505E-1,-1.812689304E-1,-2.458660156E-1
3.794272977E0,2.958027720E-1,-1.751604527E-1,-2.067717910E-1
3.796678081E0,2.383831441E-1,-1.739387512E-1,-1.530172378E-1
3.799083237E0,1.772984117E-1,-1.751604527E-1,-8.826743066E-2
3.801488341E0,1.149920002E-1,-1.824906170E-1,-1.740914769E-2
3.803893498E0,5.757235363E-2,-1.910424829E-1,5.467082933E-2
3.806298602E0,-4.734066315E-3,-1.959292591E-1,1.255291104E-1
3.808703758E0,-7.314895838E-2,-1.922641695E-1,1.951656938E-1
3.811108862E0,-1.415638477E-1,-1.812689304E-1,2.648022771E-1
3.813514018E0,-2.063136548E-1,-1.678302884E-1,3.283303976E-1
3.815919123E0,-2.612899244E-1,-1.629435122E-1,3.747547865E-1
3.818324279E0,-2.368560284E-1,-2.093679011E-1,3.943018913E-1
3.820729383E0,-2.747285664E-1,-1.519482583E-1,3.784198761E-1
3.823134539E0,-3.895678520E-1,-8.353336155E-2,3.258870244E-1
3.825539643E0,-4.653128982E-1,-5.543438718E-2,2.843494117E-1
3.827944800E0,-4.225535989E-1,-1.311794519E-1,2.709107697E-1
3.830349956E0,-3.321481943E-1,-2.276933193E-1,2.941229641E-1
3.832755060E0,-1.293469071E-1,-4.573718905E-1,3.002314270E-1
3.835160216E0,4.668400288E-1,-8.006680608E-1,2.843494117E-1
3.837565321E0,7.014053464E-1,-8.385405540E-1,2.391466945E-1
3.839970477E0,4.961606860E-1,-6.894938350E-1,1.328592747E-1
3.842375581E0,-6.337540597E-2,-3.278722763E-1,-8.460234851E-2
3.844780737E0,-5.703786016E-1,-1.336228400E-1,-2.764083743E-1
3.847185841E0,-8.025006056E-1,-1.788255423E-1,-3.802524209E-1
3.849590998E0,-8.513683677E-1,-3.779617548E-1,-3.924693763E-1
3.851996102E0,-8.806890249E-1,-5.294518471E-1,-3.521534503E-1
3.854401258E0,-8.867974877E-1,-6.039752364E-1,-2.886253297E-1
3.856806362E0,-8.672503829E-1,-6.565080881E-1,-2.214321345E-1
3.859211518E0,-8.330429196E-1,-6.833853722E-1,-1.554606259E-1
3.861616623E0,-7.658497691E-1,-7.114843726E-1,-9.804098308E-2
3.864021779E0,-6.925480962E-1,-7.432484031E-1,-5.283828825E-2
3.866426935E0,-6.265766025E-1,-7.945595980E-1,-3.329117596E-2
3.868832039E0,-5.593833923E-1,-8.654178381E-1,-4.672981426E-2
3.871237196E0,-5.227325559E-1,-9.228374958E-1,-6.627693027E-2
3.873642300E0,-5.166240931E-1,-9.717052579E-1,-8.093725890E-2
3.876047456E0,-5.215108395E-1,-9.998042583E-1,-8.215895295E-2
3.878452560E0,-5.410579443E-1,-1.027903199E0,-7.727217674E-2
3.880857716E0,-5.581616759E-1,-1.052337170E0,-5.894676223E-2
3.883262821E0,-5.825955868E-1,-1.071884274E0,-2.962609194E-2
3.885667977E0,-5.972558856E-1,-1.068219185E0,-2.748812549E-3
3.888073081E0,-5.996993184E-1,-1.043785214E0,2.290677279E-2
3.890478237E0,-5.862606764E-1,-1.007134438E0,5.222744122E-2
3.892883341E0,-5.728220344E-1,-9.704836011E-1,8.276980370E-2
3.895288498E0,-5.654918551E-1,-9.301676750E-1,1.072036922E-1
3.897693654E0,-5.569399595E-1,-8.825215697E-1,1.230857223E-1
3.900098758E0,-5.447230339E-1,-8.141067028E-1,1.401894391E-1
3.902503914E0,-5.215108395E-1,-7.432484031E-1,1.634016484E-1
3.904909018E0,-5.044071078E-1,-6.784985662E-1,1.768402755E-1
3.907314175E0,-4.885250926E-1,-6.137487888E-1,1.927223057E-1
3.909719279E0,-4.750864506E-1,-5.489989519E-1,2.098260373E-1
3.912124435E0,-4.628695250E-1,-4.891359508E-1,2.232646793E-1
3.914529539E0,-4.530959427E-1,-4.219427407E-1,2.305948436E-1
3.916934696E0,-4.396573007E-1,-3.608580232E-1,2.489202619E-1
3.919339800E0,-4.433223903E-1,-2.472404242E-1,3.234436214E-1
3.921744956E0,-4.494308829E-1,-2.460187376E-1,4.028537571E-1
3.924150060E0,-4.421007037E-1,-2.545706034E-1,4.309527278E-1
3.926555216E0,-4.127800465E-1,-2.289150059E-1,4.456130862E-1
3.928960321E0,-3.736858070E-1,-2.166980654E-1,4.504998624E-1
3.931365477E0,-3.468085229E-1,-2.093679011E-1,4.492781460E-1
3.933770633E0,-3.382566571E-1,-1.910424829E-1,4.529432356E-1
3.936175737E0,-3.394783735E-1,-1.751604527E-1,4.663818777E-1
3.938580893E0,-3.480302393E-1,-1.751604527E-1,4.761554301E-1
3.940985998E0,-3.602471650E-1,-1.788255423E-1,4.859289825E-1
3.943391154E0,-3.749074936E-1,-1.861557066E-1,4.920374751E-1
3.945796258E0,-3.859027624E-1,-2.142546773E-1,4.944808483E-1
3.948201414E0,-3.956763148E-1,-2.374668717E-1,5.042544007E-1
3.950606518E0,-3.981196880E-1,-2.802261710E-1,5.128062963E-1
3.953011675E0,-4.115583301E-1,-3.180987239E-1,5.152496696E-1
3.955416831E0,-4.225535989E-1,-3.608580232E-1,5.140279531E-1
3.957821935E0,-4.347705245E-1,-4.182776511E-1,5.054761171E-1
3.960227091E0,-4.469874799E-1,-4.463766217E-1,4.895940721E-1
3.962632196E0,-4.555393457E-1,-4.915793240E-1,4.700469673E-1
3.965037352E0,-4.763081372E-1,-5.086830258E-1,4.578300118E-1
3.967442456E0,-4.873034060E-1,-5.135698318E-1,4.517215490E-1
3.969847612E0,-4.946335554E-1,-5.318952799E-1,4.517215490E-1
3.972252716E0,-5.068505406E-1,-5.306735635E-1,4.517215490E-1
3.974657873E0,-5.190674663E-1,-5.331169367E-1,4.480564594E-1
3.977062977E0,-5.312843919E-1,-5.404471159E-1,4.443913698E-1
3.979468133E0,-5.325061083E-1,-5.184566379E-1,4.443913698E-1
3.981873289E0,-5.276193023E-1,-4.671454430E-1,4.395045936E-1
3.984278393E0,-5.202891231E-1,-4.268295169E-1,4.285093546E-1
3.986683550E0,-5.141806602E-1,-4.048390090E-1,4.114056230E-1
3.989088654E0,-5.056288242E-1,-4.023956358E-1,3.906368315E-1
3.991493810E0,-5.019637346E-1,-4.463766217E-1,3.698680103E-1
3.993898966E0,-5.080721974E-1,-5.196782947E-1,3.454341292E-1
3.996304071E0,-4.946335554E-1,-5.331169367E-1,3.429907262E-1
3.998709227E0,-5.190674663E-1,-5.062396526E-1,3.393256664E-1
4.001114331E0,-6.473453641E-1,-4.952444136E-1,2.831276953E-1
4.003519487E0,-8.086090684E-1,-5.294518471E-1,2.171562016E-1
4.005924591E0,-8.953493834E-1,-4.023956358E-1,1.743968874E-1
4.008329748E0,-8.892409205E-1,-1.617218107E-1,1.524063945E-1
4.010734852E0,-8.354863524E-1,-9.009997360E-3,1.304158866E-1
4.013140008E0,-7.487460375E-1,6.429167092E-2,1.072036922E-1
4.015545112E0,-6.290199757E-1,7.650861889E-2,7.910472155E-2
4.017950268E0,-5.044071078E-1,3.252761811E-2,5.833591148E-2
4.020355425E0,-3.932329118E-1,-4.932591692E-2,3.878879920E-2
4.022760529E0,-3.138227761E-1,-1.641651988E-1,8.246437646E-3
4.025165685E0,-2.551814318E-1,-2.887780368E-1,-2.473931387E-2
4.027570789E0,-2.014268786E-1,-3.975088596E-1,-5.528167635E-2
4.029975946E0,-1.696628332E-1,-4.769189954E-1,-8.093725890E-2
4.032381050E0,-1.427855492E-1,-5.172349215E-1,-9.681928903E-2
4.034786206E0,-1.122431830E-1,-5.367820263E-1,-1.017060652E-1
4.037191362E0,-8.536590636E-2,-5.526640415E-1,-1.065928489E-1
4.039596466E0,-5.604523420E-2,-5.526640415E-1,-1.090362370E-1
4.042001623E0,-2.672456764E-2,-5.367820263E-1,-1.078145429E-1
4.044406727E0,-4.734066315E-3,-5.160132051E-1,-1.041494608E-1
4.046811883E0,1.481304597E-2,-4.842491746E-1,-9.804098308E-2
4.049216987E0,2.336490713E-2,-4.451549351E-1,-9.315420687E-2
4.051622143E0,2.596100792E-3,-4.011739492E-1,-7.482878864E-2
4.054027300E0,-2.305948362E-2,-3.852919042E-1,-5.650337040E-2
4.056432404E0,-5.115845799E-2,-3.828485310E-1,-4.672981426E-2
4.058837560E0,-8.903098851E-2,-3.791834414E-1,-3.329117596E-2
4.061242664E0,-1.183516532E-1,-3.730749488E-1,-1.985253580E-2
4.063647821E0,-1.427855492E-1,-3.718532622E-1,-8.857285604E-3
4.066052925E0,-1.611109674E-1,-3.730749488E-1,-3.054236295E-4
4.068458081E0,-1.818797737E-1,-3.804051280E-1,7.024743594E-3
4.070863185E0,-2.014268786E-1,-3.877353072E-1,1.679829881E-2
4.073268341E0,-2.209739983E-1,-3.926220834E-1,2.412846684E-2
4.075673498E0,-2.405211031E-1,-3.914003670E-1,2.779355086E-2
4.078078602E0,-2.612899244E-1,-3.962871730E-1,3.023693897E-2
4.080483758E0,-2.869454920E-1,-4.023956358E-1,3.023693897E-2
4.082888862E0,-3.126010895E-1,-4.109475017E-1,2.535016090E-2
4.085294018E0,-3.407000601E-1,-4.243861437E-1,9.468132630E-3
4.087699175E0,-3.773508966E-1,-4.598152637E-1,-1.527118147E-3
4.090104279E0,-4.176668227E-1,-5.062396526E-1,-6.413896102E-3
4.092509435E0,-4.592044353E-1,-5.318952799E-1,-2.473931387E-2
4.094914539E0,-4.982986450E-1,-5.428904891E-1,-6.505523622E-2
4.097319696E0,-5.361711979E-1,-5.612159371E-1,-1.078145429E-1
4.099724800E0,-5.716003180E-1,-5.856497884E-1,-1.444653720E-1
4.102129956E0,-5.948125124E-1,-5.966450572E-1,-1.860029846E-1
4.104535112E0,-6.204680800E-1,-6.174138784E-1,-2.263189107E-1
4.106940216E0,-6.461237073E-1,-6.589514613E-1,-2.556395829E-1
4.109345373E0,-6.668924689E-1,-6.797202826E-1,-2.800734639E-1
4.111750477E0,-6.791094542E-1,-6.503996253E-1,-3.057290614E-1
4.114155633E0,-6.876612902E-1,-5.795413256E-1,-3.350497186E-1
4.116560737E0,-6.937697530E-1,-5.099047422E-1,-3.631486893E-1
4.118965893E0,-7.010999322E-1,-4.769189954E-1,-3.826957941E-1
4.121370998E0,-7.059867382E-1,-4.683671296E-1,-4.046863019E-1
4.123776154E0,-7.182036638E-1,-3.987305462E-1,-4.425588250E-1
4.126181310E0,-7.340856791E-1,-2.899997234E-1,-4.828747511E-1
4.128586414E0,-7.475243211E-1,-1.922641695E-1,-5.207473040E-1
4.130991571E0,-7.707365155E-1,-2.367033064E-2,-5.697677732E-1
4.133396675E0,-8.244910836E-1,2.719797492E-1,-6.540647149E-1
4.135801831E0,-8.953493834E-1,5.297572613E-1,-7.298097610E-1
4.138206987E0,-9.613208771E-1,7.264500856E-1,-7.725690603E-1
4.140612091E0,-1.021183848E0,8.559496999E-1,-7.823426127E-1
4.143017248E0,-1.050504565E0,9.048175216E-1,-7.750124335E-1
4.145422352E0,-1.060278177E0,9.561286569E-1,-7.896727920E-1
4.147827508E0,-1.059056401E0,1.009883285E0,-8.128849864E-1
4.150232612E0,-1.044396043E0,1.075854778E0,-8.360971808E-1
4.152637768E0,-1.023627281E0,1.105175376E0,-8.544226289E-1
4.155042925E0,-1.001636744E0,1.105175376E0,-8.715263009E-1
4.157448029E0,-9.759812355E-1,1.084406614E0,-8.837432861E-1
4.159853185E0,-9.649859667E-1,1.017213345E0,-8.910734653E-1
4.162258289E0,-9.784246087E-1,9.072608948E-1,-8.703046441E-1
4.164663446E0,-1.017518878E0,7.948650122E-1,-8.360971808E-1
4.167068602E0,-1.056613088E0,6.775823236E-1,-7.823426127E-1
4.169473706E0,-1.082268596E0,5.566345453E-1,-7.151494026E-1
4.171878862E0,-1.101815701E0,4.295783341E-1,-6.357392669E-1
4.174283966E0,-1.103037477E0,3.074088693E-1,-5.477772951E-1
4.176689123E0,-1.094485521E0,1.901262105E-1,-4.523324072E-1
4.179094227E0,-1.066386580E0,9.116895497E-2,-3.448232710E-1
4.181499383E0,-1.021183848E0,2.764083818E-2,-2.397575527E-1
4.183904539E0,-9.723161459E-1,-1.023169141E-2,-1.310267299E-1
4.186309643E0,-9.051229358E-1,-3.222219273E-2,-2.718270384E-2
4.188714800E0,-8.293778896E-1,-5.299099907E-2,5.955760926E-2
4.191119904E0,-7.524111271E-1,-7.864658535E-2,1.230857223E-1
4.193525060E0,-6.668924689E-1,-1.030804738E-1,1.524063945E-1
4.195930216E0,-5.740436912E-1,-1.140757278E-1,1.585148573E-1
4.198335321E0,-4.775298536E-1,-1.128540337E-1,1.536280811E-1
4.200740477E0,-3.822376728E-1,-9.086353332E-2,1.340809762E-1
4.203145581E0,-2.832804024E-1,-5.176930502E-2,1.084253863E-1
4.205550737E0,-1.818797737E-1,-7.788302377E-3,7.421794534E-2
4.207955893E0,-8.292251825E-2,3.008422814E-2,4.245388508E-2
4.210360998E0,5.039489828E-3,5.696150661E-2,1.801999472E-2
4.212766154E0,9.300149232E-2,7.406523079E-2,2.137965523E-3
4.215171258E0,1.626380831E-1,8.506047726E-2,-3.970507067E-3
4.217576414E0,2.225011140E-1,9.361234307E-2,-8.857285604E-3
4.219981571E0,2.713688910E-1,9.605573118E-2,-8.857285604E-3
4.222386675E0,3.043546379E-1,9.849911928E-2,-7.635590620E-3
4.224791831E0,3.275668323E-1,9.361234307E-2,-7.635590620E-3
4.227196935E0,3.373403847E-1,8.750387281E-2,-7.635590620E-3
4.229602091E0,3.385621011E-1,7.162184268E-2,-3.970507067E-3
4.232007196E0,3.300102353E-1,5.329642445E-2,-3.970507067E-3
4.234412352E0,3.104631305E-1,3.741439432E-2,-2.748812549E-3
4.236817508E0,2.823641598E-1,3.008422814E-2,-3.970507067E-3
4.239222612E0,2.493783981E-1,3.008422814E-2,-2.748812549E-3
4.241627768E0,2.115058601E-1,3.130592033E-2,-3.970507067E-3
4.244032925E0,1.663031727E-1,3.741439432E-2,-6.413896102E-3
4.246438029E0,1.186570823E-1,4.107947648E-2,-1.007897966E-2
4.248843185E0,6.490252167E-2,4.596625641E-2,-1.130067464E-2
4.251248289E0,1.603474095E-2,4.963133857E-2,-1.496575773E-2
4.253653446E0,-3.038965166E-2,5.085303262E-2,-1.740914769E-2
4.256058602E0,-7.070557028E-2,5.329642445E-2,-1.985253580E-2
4.258463706E0,-1.097997949E-1,5.573981255E-2,-1.618745178E-2
4.260868862E0,-1.403421611E-1,5.940489471E-2,-1.496575773E-2
4.263273966E0,-1.623326540E-1,6.184828654E-2,-1.374406368E-2
4.265679123E0,-1.745496094E-1,6.429167092E-2,-1.252236869E-2
4.268084227E0,-1.794363856E-1,6.673506647E-2,-1.374406368E-2
4.270489383E0,-1.745496094E-1,5.940489471E-2,-5.192201585E-3
4.272894539E0,-1.635543555E-1,4.840964451E-2,1.068982668E-2
4.275299643E0,-1.464506239E-1,3.863608837E-2,1.924168877E-2
4.277704800E0,-1.256818175E-1,2.764083818E-2,2.168507688E-2
4.280109956E0,-1.036913246E-1,2.031067200E-2,2.046338283E-2
4.282515060E0,-7.559234649E-2,1.298050396E-2,1.679829881E-2
4.284920216E0,-4.749337584E-2,8.093725890E-3,1.557660475E-2
4.287325321E0,-2.550287358E-2,8.093725890E-3,1.557660475E-2
4.289730477E0,1.527118147E-4,7.635590737E-4,1.924168877E-2
4.292135633E0,2.092151903E-2,-7.788302377E-3,2.046338283E-2
4.294540737E0,3.680354729E-2,-1.756185852E-2,2.779355086E-2
4.296945893E0,5.268557742E-2,-2.733541466E-2,3.512371704E-2
4.299350998E0,5.757235363E-2,-3.710897267E-2,4.123219103E-2
4.301756154E0,6.612421572E-2,-4.566083103E-2,4.489727318E-2
4.304161310E0,6.490252167E-2,-4.932591692E-2,4.734066129E-2
4.306566414E0,6.123743951E-2,-4.932591692E-2,4.856235534E-2
4.308971571E0,5.757235363E-2,-4.688252881E-2,4.978405312E-2
4.311376675E0,5.024218559E-2,-4.321744293E-2,4.978405312E-2
4.313781831E0,3.802524135E-2,-3.955236077E-2,5.100574717E-2
4.316186987E0,2.825168520E-2,-3.588727489E-2,5.344913527E-2
4.318592091E0,1.481304597E-2,-3.222219273E-2,5.344913527E-2
4.320997248E0,3.817795310E-3,-2.855710872E-2,5.344913527E-2
4.323402352E0,-8.399149403E-3,-2.367033064E-2,5.467082933E-2
4.325807508E0,-1.939439960E-2,-2.000524849E-2,5.100574717E-2
4.328212664E0,-3.038965166E-2,-1.878355257E-2,4.978405312E-2
4.330617768E0,-3.894151375E-2,-1.511846948E-2,4.978405312E-2
4.333022925E0,-4.504998401E-2,-1.267508045E-2,4.856235534E-2
4.335428029E0,-4.871506989E-2,-1.023169141E-2,4.611896724E-2
4.337833185E0,-4.993676394E-2,-1.145338640E-2,4.489727318E-2
4.340238341E0,-4.871506989E-2,-1.145338640E-2,4.367557913E-2
4.342643446E0,-4.627167806E-2,-1.267508045E-2,4.245388508E-2
4.345048602E0,-4.260659590E-2,-1.634016447E-2,3.878879920E-2
4.347453706E0,-3.771981969E-2,-1.511846948E-2,3.756710514E-2
4.349858862E0,-3.038965166E-2,-1.756185852E-2,3.634541109E-2
4.352264018E0,-2.183778957E-2,-2.000524849E-2,3.634541109E-2
4.354669123E0,-9.620844387E-3,-2.733541466E-2,4.123219103E-2
4.357074279E0,1.236965694E-2,-4.443913698E-2,5.344913527E-2
4.359479383E0,3.802524135E-2,-5.665608495E-2,6.200099736E-2
4.361884539E0,6.490252167E-2,-6.887302548E-2,7.299624383E-2
4.364289696E0,8.689302206E-2,-7.864658535E-2,8.521319181E-2
4.366694800E0,9.177979827E-2,-7.864658535E-2,9.865183383E-2
4.369099956E0,8.444963396E-2,-7.498150319E-2,8.887827396E-2
4.371505112E0,7.711946964E-2,-6.887302548E-2,6.444438547E-2
4.373910216E0,6.978929788E-2,-5.054761097E-2,3.145863488E-2
4.376315373E0,6.490252167E-2,-3.344388679E-2,-3.970507067E-3
4.378720477E0,6.123743951E-2,-1.756185852E-2,-3.451287001E-2
4.381125633E0,5.757235363E-2,-7.788302377E-3,-5.894676223E-2
4.383530789E0,5.146388337E-2,-4.581354442E-4,-7.727217674E-2
4.385935893E0,4.291202128E-2,-4.581354442E-4,-9.193251282E-2
4.388341050E0,2.947338112E-2,1.985253533E-3,-1.053711548E-1
4.390746154E0,1.114796288E-2,3.206948051E-3,-1.163664013E-1
4.393151310E0,-1.206423342E-2,7.635590737E-4,-1.420219839E-1
4.395556466E0,-4.260659590E-2,-2.244863659E-2,-2.312056869E-1
4.397961571E0,-8.047912270E-2,-3.955236077E-2,-3.167243004E-1
4.400366727E0,-1.171299592E-1,4.428642802E-3,-3.741439581E-1
4.402771831E0,-1.513374150E-1,3.252761811E-2,-4.352286756E-1
4.405176987E0,-1.806580722E-1,2.397575416E-2,-5.036435723E-1
4.407582143E0,-2.002051920E-1,-4.581354442E-4,-5.709894896E-1
4.409987248E0,-2.148655206E-1,-2.244863659E-2,-6.345176101E-1
4.412392404E0,-2.246390730E-1,-3.100049868E-2,-6.894938350E-1
4.414797560E0,-2.319692522E-1,-2.733541466E-2,-7.346965671E-1
4.417202664E0,-2.454078794E-1,-5.176930502E-2,-7.530219555E-1
4.419607821E0,-2.661767006E-1,-7.620319724E-2,-7.615737915E-1
4.422012925E0,-2.759502530E-1,-8.475505561E-2,-7.774558663E-1
4.424418081E0,-2.808370292E-1,-9.208522737E-2,-7.933378816E-1
4.426823237E0,-2.796153426E-1,-9.575030953E-2,-8.031114340E-1
4.429228341E0,-2.796153426E-1,-8.353336155E-2,-8.067765236E-1
4.431633498E0,-2.845021188E-1,-7.009471953E-2,-8.079982400E-1
4.434038654E0,-2.893888950E-1,-5.665608495E-2,-8.092198968E-1
4.436443758E0,-2.979407609E-1,-4.077405483E-2,-8.116632700E-1
4.438848914E0,-3.064926267E-1,-2.122694254E-2,-8.104416132E-1
4.441254018E0,-3.113794029E-1,-5.344913341E-3,-8.067765236E-1
4.443659175E0,-3.138227761E-1,5.650337320E-3,-8.018897176E-1
4.446064331E0,-3.150444627E-1,1.420219894E-2,-7.970029712E-1
4.448469435E0,-3.126010895E-1,1.298050396E-2,-7.908945084E-1
4.450874591E0,-3.101576865E-1,1.053711493E-2,-7.835643291E-1
4.453279748E0,-3.064926267E-1,3.206948051E-3,-7.798992395E-1
4.455684852E0,-3.040492237E-1,-9.009997360E-3,-7.786775231E-1
4.458090008E0,-3.028275371E-1,-2.244863659E-2,-7.823426127E-1
4.460495112E0,-2.991624475E-1,-3.344388679E-2,-7.896727920E-1
4.462900268E0,-2.979407609E-1,-4.077405483E-2,-7.957812548E-1
4.465305425E0,-2.954973578E-1,-4.810422286E-2,-8.031114340E-1
4.467710529E0,-2.918322682E-1,-5.421269313E-2,-8.092198968E-1
4.470115685E0,-2.857238054E-1,-5.909947306E-2,-8.092198968E-1
4.472520841E0,-2.869454920E-1,-6.765133142E-2,-8.128849864E-1
4.474925946E0,-2.857238054E-1,-7.498150319E-2,-8.128849864E-1
4.477331102E0,-2.857238054E-1,-7.864658535E-2,-8.165500760E-1
4.479736258E0,-2.881672084E-1,-8.719844371E-2,-8.177717924E-1
4.482141362E0,-2.845021188E-1,-9.697200358E-2,-8.165500760E-1
4.484546518E0,-2.747285664E-1,-1.055238619E-1,-8.177717924E-1
4.486951623E0,-2.698417902E-1,-1.128540337E-1,-8.116632700E-1
4.489356779E0,-2.625116110E-1,-1.214058921E-1,-8.141067028E-1
4.491761935E0,-2.515163720E-1,-1.299577504E-1,-8.153283596E-1
4.494167039E0,-2.356343269E-1,-1.433963925E-1,-8.214368224E-1
4.496572196E0,-2.283041626E-1,-1.531699449E-1,-8.263236284E-1
4.498977300E0,-2.112004459E-1,-1.580567211E-1,-8.348754644E-1
4.501382456E0,-1.904316396E-1,-1.641651988E-1,-8.409839869E-1
4.503787612E0,-1.672194302E-1,-1.617218107E-1,-8.422056437E-1
4.506192716E0,-1.415638477E-1,-1.592784226E-1,-8.483141065E-1
4.508597873E0,-1.159082651E-1,-1.519482583E-1,-8.532009125E-1
4.511003029E0,-8.780929446E-2,-1.385096163E-1,-8.641961813E-1
4.513408133E0,-5.482354015E-2,-1.324011385E-1,-8.715263009E-1
4.515813289E0,-2.428117767E-2,-1.311794519E-1,-8.812998533E-1
4.518218446E0,8.704573847E-3,-1.348445266E-1,-9.008470178E-1
4.520623550E0,3.680354729E-2,-1.372879148E-1,-9.130639434E-1
4.523028706E0,6.856760383E-2,-1.360662282E-1,-9.228374958E-1
4.525433810E0,1.003316641E-1,-1.372879148E-1,-9.252808690E-1
4.527838966E0,1.235438585E-1,-1.360662282E-1,-9.106205702E-1
4.530244123E0,1.369825006E-1,-1.262926757E-1,-8.788564801E-1
4.532649227E0,1.785201132E-1,-1.177408099E-1,-8.263236284E-1
4.535054383E0,2.347180545E-1,-1.238492802E-1,-7.469134927E-1
4.537459539E0,2.860292196E-1,-1.372879148E-1,-6.613948941E-1
4.539864643E0,3.239017725E-1,-1.531699449E-1,-5.893148780E-1
4.542269800E0,3.385621011E-1,-1.653869003E-1,-5.392253995E-1
4.544674904E0,3.202366829E-1,-1.653869003E-1,-5.134171247E-1
4.547080060E0,2.909159958E-1,-1.519482583E-1,-4.975350797E-1
4.549485216E0,2.628170252E-1,-1.397313178E-1,-4.853181541E-1
4.551890321E0,2.176143378E-1,-1.348445266E-1,-4.743228853E-1
4.554295477E0,1.919587553E-1,-1.116323397E-1,-4.474456310E-1
4.556700633E0,1.956238300E-1,-8.842013776E-2,-4.059080184E-1
4.559105737E0,2.041756958E-1,-5.543438718E-2,-3.497100472E-1
4.561510893E0,2.200577259E-1,-1.267508045E-2,-2.825168669E-1
4.563915998E0,2.310529798E-1,3.374931216E-2,-2.128802687E-1
4.566321154E0,2.457133085E-1,7.773031294E-2,-1.469087601E-1
4.568726310E0,2.493783981E-1,1.119377613E-1,-7.727217674E-2
4.571131466E0,2.432699203E-1,1.241547018E-1,-7.635590620E-3
4.573536571E0,2.237228155E-1,1.094943732E-1,5.467082933E-2
4.575941727E0,1.956238300E-1,9.727742523E-2,1.059819981E-1
4.578346831E0,1.589729935E-1,9.361234307E-2,1.487413049E-1
4.580751987E0,1.235438585E-1,9.605573118E-2,1.902789176E-1
4.583157143E0,9.177979827E-2,9.605573118E-2,2.195995897E-1
4.585562248E0,5.757235363E-2,9.361234307E-2,2.464768738E-1
4.587967404E0,2.825168520E-2,9.361234307E-2,2.684673667E-1
4.590372560E0,8.704573847E-3,8.628217876E-2,2.806843221E-1
4.592777664E0,-9.620844387E-3,8.017370105E-2,2.892361879E-1
4.595182821E0,-1.817270555E-2,6.306997687E-2,2.843494117E-1
4.597587977E0,-2.550287358E-2,5.207473040E-2,2.745758295E-1
4.599993081E0,-3.038965166E-2,4.474456236E-2,2.672456801E-1
4.602398237E0,-3.405473381E-2,3.619270027E-2,2.550287247E-1
4.604803341E0,-3.894151375E-2,2.519745007E-2,2.489202619E-1
4.607208498E0,-3.405473381E-2,1.664558798E-2,2.342599183E-1
4.609613654E0,-3.894151375E-2,1.420219894E-2,2.086043358E-1
4.612018758E0,-4.993676394E-2,2.031067200E-2,1.780619770E-1
4.614423914E0,-4.993676394E-2,2.519745007E-2,1.426328421E-1
4.616829071E0,-2.916795574E-2,2.397575416E-2,1.035386100E-1
4.619234175E0,1.527118147E-4,2.397575416E-2,6.200099736E-2
4.621639331E0,3.436015919E-2,2.764083818E-2,2.168507688E-2
4.624044487E0,6.734590977E-2,3.374931216E-2,-1.252236869E-2
4.626449591E0,9.544488788E-2,3.497100621E-2,-4.795150831E-2
4.628854748E0,1.149920002E-1,3.497100621E-2,-6.994201243E-2
4.631259852E0,1.296523362E-1,5.207473040E-2,-7.605048269E-2
4.633665008E0,1.394258887E-1,6.917845458E-2,-7.849387079E-2
4.636070164E0,1.528645307E-1,7.895200700E-2,-8.093725890E-2
4.638475268E0,1.650814712E-1,8.628217876E-2,-8.582404256E-2
4.640880425E0,1.797417998E-1,8.994726092E-2,-8.826743066E-2
4.643285581E0,1.992889196E-1,8.872556686E-2,-8.948912472E-2
4.645690685E0,2.188360244E-1,8.750387281E-2,-8.948912472E-2
4.648095841E0,2.420482337E-1,9.116895497E-2,-9.071081877E-2
4.650500998E0,2.603736520E-1,9.605573118E-2,-9.437590092E-2
4.652906102E0,2.786990702E-1,9.849911928E-2,-9.926267713E-2
4.655311258E0,2.982461751E-1,1.009425074E-1,-9.926267713E-2
4.657716414E0,3.104631305E-1,9.972081333E-2,-1.029277667E-1
4.660121518E0,3.214583695E-1,1.119377613E-1,-1.029277667E-1
4.662526675E0,3.263451457E-1,1.217113137E-1,-1.065928489E-1
4.664931831E0,3.336753249E-1,1.217113137E-1,-1.090362370E-1
4.667336935E0,3.373403847E-1,1.217113137E-1,-1.114796251E-1
4.669742091E0,3.263451457E-1,1.217113137E-1,-1.175880954E-1
4.672147196E0,2.738122940E-1,1.412584335E-1,-1.395785958E-1
4.674552352E0,1.919587553E-1,1.742441803E-1,-1.627907902E-1
4.676957508E0,1.003316641E-1,2.060082406E-1,-1.762294322E-1
4.679362612E0,1.236965694E-2,2.267770469E-1,-1.750077456E-1
4.681767768E0,-6.459710002E-2,2.353289127E-1,-1.676775664E-1
4.684172925E0,-1.244601309E-1,2.341072112E-1,-1.591257155E-1
4.686578029E0,-1.708845198E-1,2.279987335E-1,-1.530172378E-1
4.688983185E0,-1.989834905E-1,2.231119573E-1,-1.481304616E-1
4.691388341E0,-2.136438340E-1,2.206685692E-1,-1.456870735E-1
4.693793446E0,-2.112004459E-1,2.194468826E-1,-1.408002973E-1
4.696198602E0,-1.928750277E-1,2.182251811E-1,-1.408002973E-1
4.698603758E0,-1.647760421E-1,2.145601064E-1,-1.359135211E-1
4.701008862E0,-1.305686086E-1,2.096733153E-1,-1.310267299E-1
4.703414018E0,-9.269607067E-2,2.047865391E-1,-1.261399537E-1
4.705819175E0,-5.482354015E-2,1.998997629E-1,-1.236965731E-1
4.708224279E0,-1.695101149E-2,1.901262105E-1,-1.188097894E-1
4.710629435E0,1.725643501E-2,1.815743446E-1,-1.127013192E-1
4.713034591E0,4.535540938E-2,1.693574041E-1,-1.090362370E-1
4.715439696E0,6.978929788E-2,1.595838517E-1,-1.029277667E-1
4.717844852E0,8.811471611E-2,1.485885978E-1,-9.926267713E-2
4.720250008E0,9.666658193E-2,1.388150454E-1,-9.804098308E-2
4.722655112E0,1.039967462E-1,1.253764033E-1,-9.804098308E-2
4.725060268E0,1.015533581E-1,1.204896197E-1,-9.559759498E-2
4.727465425E0,9.177979827E-2,1.253764033E-1,-9.071081877E-2
4.729870529E0,7.956285775E-2,1.290414780E-1,-8.582404256E-2
4.732275685E0,6.612421572E-2,1.314848661E-1,-8.215895295E-2
4.734680841E0,5.268557742E-2,1.314848661E-1,-7.849387079E-2
4.737085946E0,4.169032723E-2,1.327065676E-1,-7.482878864E-2
4.739491102E0,3.191677108E-2,1.278197914E-1,-7.116370648E-2
4.741896206E0,2.580829710E-2,1.314848661E-1,-6.749862432E-2
4.744301362E0,2.092151903E-2,1.290414780E-1,-6.749862432E-2
4.746706518E0,1.969982497E-2,1.265980899E-1,-6.627693027E-2
4.749111623E0,1.847812906E-2,1.241547018E-1,-6.139015034E-2
4.751516779E0,1.847812906E-2,1.204896197E-1,-5.894676223E-2
4.753921935E0,1.969982497E-2,1.204896197E-1,-5.650337040E-2
4.756327039E0,1.725643501E-2,1.204896197E-1,-5.528167635E-2
4.758732196E0,1.725643501E-2,1.204896197E-1,-5.405998230E-2
4.761137352E0,1.603474095E-2,1.204896197E-1,-5.405998230E-2
4.763542456E0,1.359135192E-2,1.180462316E-1,-5.528167635E-2
4.765947612E0,9.926267900E-3,1.180462316E-1,-5.405998230E-2
4.768352768E0,7.482878864E-3,1.204896197E-1,-5.405998230E-2
4.770757873E0,1.374406274E-3,1.229330078E-1,-5.650337040E-2
4.773163029E0,-2.290677279E-3,1.241547018E-1,-5.772506446E-2
4.775568185E0,-9.620844387E-3,1.253764033E-1,-5.772506446E-2
4.777973289E0,-1.328592747E-2,1.278197914E-1,-6.139015034E-2
4.780378446E0,-1.817270555E-2,1.302631795E-1,-6.016845629E-2
4.782783602E0,-2.305948362E-2,1.314848661E-1,-6.016845629E-2
4.785188706E0,-2.794626169E-2,1.314848661E-1,-6.139015034E-2
4.787593862E0,-3.161134571E-2,1.302631795E-1,-6.383354217E-2
4.789999018E0,-3.405473381E-2,1.314848661E-1,-6.383354217E-2
4.792404123E0,-3.771981969E-2,1.302631795E-1,-6.383354217E-2
4.794809279E0,-4.138490185E-2,1.290414780E-1,-6.505523622E-2
4.797214435E0,-4.504998401E-2,1.278197914E-1,-6.627693027E-2
4.799619539E0,-4.871506989E-2,1.253764033E-1,-6.627693027E-2
4.802024696E0,-5.115845799E-2,1.229330078E-1,-6.383354217E-2
4.804429800E0,-5.726693198E-2,1.229330078E-1,-6.505523622E-2
4.806834956E0,-6.093201414E-2,1.217113137E-1,-6.505523622E-2
4.809240112E0,-6.704048812E-2,1.217113137E-1,-6.383354217E-2
4.811645216E0,-7.192726433E-2,1.217113137E-1,-6.505523622E-2
4.814050373E0,-7.559234649E-2,1.192679256E-1,-6.139015034E-2
4.816455529E0,-7.925742865E-2,1.192679256E-1,-6.383354217E-2
4.818860685E0,-8.170082420E-2,1.192679256E-1,-6.261184067E-2
4.821265789E0,-8.658760041E-2,1.204896197E-1,-6.261184067E-2
4.823670946E0,-8.903098851E-2,1.217113137E-1,-6.261184067E-2
4.826076050E0,-9.025268257E-2,1.217113137E-1,-6.016845629E-2
4.828481206E0,-9.269607067E-2,1.241547018E-1,-6.261184067E-2
4.830886362E0,-9.391776472E-2,1.265980899E-1,-6.139015034E-2
4.833291466E0,-9.391776472E-2,1.278197914E-1,-6.261184067E-2
4.835696623E0,-9.513945878E-2,1.314848661E-1,-6.383354217E-2
4.838101779E0,-9.758284688E-2,1.339282542E-1,-6.383354217E-2
