"Time (s)","Gyroscope x (rad/s)","Gyroscope y (rad/s)","Gyroscope z (rad/s)"
3.951026800E-2,0.000000000E0,0.000000000E0,0.000000000E0
4.768897900E-2,0.000000000E0,0.000000000E0,0.000000000E0
5.775978000E-2,0.000000000E0,0.000000000E0,0.000000000E0
6.786109800E-2,0.000000000E0,0.000000000E0,0.000000000E0
7.790138100E-2,0.000000000E0,0.000000000E0,0.000000000E0
8.794166400E-2,0.000000000E0,0.000000000E0,0.000000000E0
9.795143000E-2,0.000000000E0,0.000000000E0,0.000000000E0
1.081137840E-1,0.000000000E0,0.000000000E0,0.000000000E0
1.181845840E-1,0.000000000E0,0.000000000E0,0.000000000E0
1.282553850E-1,0.000000000E0,0.000000000E0,0.000000000E0
1.383567030E-1,1.121215820E-1,-1.976623535E-1,-3.027191162E-1
1.484275040E-1,6.881713867E-2,-2.036437988E-1,-2.085723877E-1
1.584677870E-1,3.068542480E-2,-2.219390869E-1,-1.344451904E-1
1.685385880E-1,8.407592773E-3,-2.453765869E-1,-9.289550781E-2
1.786093890E-1,4.837036133E-3,-2.671051025E-1,-8.308410645E-2
1.886801900E-1,-1.882934570E-2,-2.764282227E-1,-3.878784180E-2
1.987204730E-1,-1.229705811E-1,-2.933502197E-1,1.135101318E-1
2.088217910E-1,-3.280181885E-1,-2.743225098E-1,4.159088135E-1
2.188925920E-1,-5.650939941E-1,-2.241363525E-1,7.577209473E-1
2.289633930E-1,-8.204650879E-1,-1.475677490E-1,1.167572021E0
2.389426410E-1,-1.064453125E0,-9.829711914E-2,1.525329590E0
2.491049950E-1,-1.288833618E0,-5.540466309E-2,1.859985352E0
2.591757950E-1,-1.469528198E0,-2.209472656E-2,2.141281128E0
2.692771140E-1,-1.592041016E0,-8.636474609E-3,2.354873657E0
2.793173970E-1,-1.640106201E0,-1.416015625E-2,2.478240967E0
2.893881980E-1,-1.593521118E0,-5.218505859E-2,2.449707031E0
2.994589980E-1,-1.474838257E0,-1.217956543E-1,2.278366089E0
3.095603170E-1,-1.298049927E0,-1.723632812E-1,2.044036865E0
3.196616350E-1,-1.111007690E0,-1.880950928E-1,1.890228271E0
3.298545060E-1,-9.270935059E-1,-1.735534668E-1,1.801361084E0
3.399863420E-1,-7.590484619E-1,-1.680603027E-1,1.706451416E0
3.502707660E-1,-6.155242920E-1,-1.710968018E-1,1.582382202E0
3.604941550E-1,-5.065307617E-1,-1.814575195E-1,1.517028809E0
3.707785780E-1,-4.549255371E-1,-2.022857666E-1,1.486221313E0
3.799643700E-1,-4.942474365E-1,-1.920776367E-1,1.643203735E0
3.909812150E-1,-6.131896973E-1,-1.367797852E-1,1.861145020E0
4.001975240E-1,-7.720642090E-1,-1.380920410E-2,2.183349609E0
4.102378070E-1,-9.398498535E-1,1.301879883E-1,2.475738525E0
4.203086080E-1,-1.123764038E0,2.474975586E-1,2.711090088E0
4.303794090E-1,-1.316635132E0,3.244628906E-1,2.900573730E0
4.409384910E-1,-1.442871094E0,3.800811768E-1,3.024963379E0
4.505210100E-1,-1.389602661E0,3.834381104E-1,2.838607788E0
4.606223280E-1,-1.178619385E0,3.573150635E-1,2.453048706E0
4.706931290E-1,-9.306335449E-1,3.317260742E-1,2.050598145E0
4.807639300E-1,-7.510681152E-1,3.628692627E-1,1.792114258E0
4.908042130E-1,-6.199340820E-1,3.409423828E-1,1.554077148E0
5.008750140E-1,-5.182342529E-1,4.329223633E-1,1.442474365E0
5.109458150E-1,-4.239044189E-1,6.378479004E-1,1.367309570E0
5.210166160E-1,-3.542938232E-1,8.753967285E-1,1.331253052E0
5.310874160E-1,-3.113098145E-1,1.055709839E0,1.255813599E0
5.411582170E-1,-2.933197021E-1,1.136352539E0,1.183166504E0
5.512290180E-1,-2.998962402E-1,1.100448608E0,1.105407715E0
5.612998190E-1,-3.285064697E-1,1.045166016E0,1.025695801E0
5.713706200E-1,-3.684844971E-1,9.697570801E-1,9.274749756E-1
5.814719380E-1,-4.219970703E-1,9.201202393E-1,8.937377930E-1
5.915427390E-1,-4.734954834E-1,8.793182373E-1,8.355560303E-1
6.015830220E-1,-5.343017578E-1,8.651123047E-1,8.205108643E-1
6.116538230E-1,-5.766296387E-1,8.481292725E-1,8.254241943E-1
6.217246230E-1,-5.932006836E-1,8.153686523E-1,7.837371826E-1
6.317954240E-1,-5.373535156E-1,7.610931396E-1,6.024475098E-1
6.418662250E-1,-4.819488525E-1,6.629638672E-1,3.502960205E-1
6.519370260E-1,-4.603576660E-1,5.411834717E-1,8.830261230E-2
6.620078270E-1,-4.692230225E-1,4.263000488E-1,-6.437683105E-2
6.721091450E-1,-4.602813721E-1,2.940979004E-1,-1.605224609E-1
6.821799460E-1,-5.057983398E-1,2.399139404E-1,-1.211242676E-1
6.922202290E-1,-6.409759521E-1,2.294616699E-1,3.016662598E-2
7.022910300E-1,-8.258056641E-1,2.375793457E-1,2.350769043E-1
7.123923480E-1,-9.988098145E-1,3.151397705E-1,4.007110596E-1
7.225852190E-1,-1.119354248E0,3.404541016E-1,4.910125732E-1
7.327780900E-1,-1.150100708E0,2.825012207E-1,4.320983887E-1
7.429709610E-1,-1.110183716E0,2.440185547E-1,2.729187012E-1
7.531638320E-1,-1.080078125E0,1.921234131E-1,1.454620361E-1
7.633567030E-1,-1.106521606E0,1.215362549E-1,7.141113281E-2
7.735495750E-1,-1.155654907E0,7.958984375E-2,-3.860473633E-3
7.837424460E-1,-1.196701050E0,4.345703125E-2,-8.244323730E-2
7.937522110E-1,-1.212661743E0,1.692199707E-2,-1.582641602E-1
8.030295550E-1,-1.250274658E0,-6.652832031E-2,-2.453155518E-1
8.130698380E-1,-1.415039062E0,-2.559356689E-1,-3.588256836E-1
8.231406390E-1,-2.078826904E0,-5.356292725E-1,-1.500091553E-1
8.332419570E-1,-2.384826660E0,-6.903686523E-1,-1.142120361E-1
8.447776020E-1,-2.261032104E0,-5.448455811E-1,-1.377563477E-1
8.533835590E-1,-2.402496338E0,-4.096069336E-1,-1.237487793E-2
8.634543600E-1,-2.522445679E0,-2.247009277E-1,6.932067871E-2
8.734946430E-1,-2.547683716E0,-4.307556152E-2,4.896545410E-2
8.835959610E-1,-2.450897217E0,9.733581543E-2,-1.097717285E-1
8.936667620E-1,-2.241744995E0,1.931457520E-1,-3.085479736E-1
9.037070450E-1,-2.029937744E0,3.441619873E-1,-4.889373779E-1
9.137778460E-1,-1.978073120E0,8.281402588E-1,-2.368621826E-1
9.238486470E-1,-1.694854736E0,1.106048584E0,-3.612670898E-1
9.339194480E-1,-1.313247681E0,1.269729614E0,-5.993957520E-1
9.439902480E-1,-1.028182983E0,1.415008545E0,-8.297882080E-1
9.540915670E-1,-8.820495605E-1,1.508544922E0,-9.431457520E-1
9.641623680E-1,-8.492431641E-1,1.602737427E0,-9.616699219E-1
9.742331680E-1,-9.818878174E-1,1.711837769E0,-7.821350098E-1
9.843039690E-1,-1.885223389E0,1.938507080E0,1.164550781E-1
9.943747700E-1,-2.778778076E0,2.353088379E0,1.260726929E0
1.004415053E0,-2.757598877E0,2.746551514E0,1.788803101E0
1.014516371E0,-2.596008301E0,2.990081787E0,2.077087402E0
1.024587172E0,-2.623229980E0,3.128051758E0,2.508666992E0
1.034657973E0,-2.519165039E0,3.075515747E0,2.587738037E0
1.044698256E0,-2.182113647E0,2.964935303E0,2.357284546E0
1.054769057E0,-1.776275635E0,2.947448730E0,2.219802856E0
1.064839858E0,-1.138870239E0,3.058624268E0,1.978637695E0
1.074941176E0,-1.137390137E-1,3.179428101E0,1.164688110E0
1.084981459E0,1.093383789E0,3.303634644E0,-1.579132080E-1
1.095052260E0,1.900131226E0,3.430709839E0,-9.980926514E-1
1.105123061E0,2.556762695E0,3.582214355E0,-1.740234375E0
1.115224379E0,2.754943848E0,3.665832520E0,-1.994094849E0
1.125417250E0,2.553924561E0,3.678192139E0,-1.835067749E0
1.135610121E0,2.479309082E0,3.771697998E0,-1.744476318E0
1.145802993E0,3.207427979E0,4.022338867E0,-2.358886719E0
1.156026381E0,4.774185181E0,4.550521851E0,-3.518569946E0
1.166219252E0,6.138626099E0,4.939315796E0,-4.535079956E0
1.176412123E0,6.660720825E0,4.928054810E0,-4.998748779E0
1.186513442E0,6.763961792E0,4.734146118E0,-5.186523438E0
1.196614760E0,6.466690063E0,4.359115601E0,-5.120300293E0
1.205831069E0,5.737731934E0,3.803283691E0,-4.762329102E0
1.215932387E0,4.802307129E0,3.166824341E0,-4.225936890E0
1.226003188E0,4.191467285E0,2.737640381E0,-3.843688965E0
1.236043471E0,3.567703247E0,2.356475830E0,-3.409500122E0
1.247579116E0,2.941787720E0,1.938415527E0,-3.009002686E0
1.256215590E0,2.102874756E0,1.306991577E0,-2.519683838E0
1.266286391E0,1.287048340E0,6.388549805E-1,-2.092544556E0
1.276326674E0,5.283203125E-1,1.094055176E-2,-1.724212646E0
1.286397475E0,-2.576599121E-1,-5.368499756E-1,-1.391204834E0
1.296468276E0,-1.106903076E0,-9.450836182E-1,-1.078186035E0
1.306569594E0,-1.628997803E0,-1.019577026E0,-8.572082520E-1
1.316640395E0,-1.670364380E0,-7.982635498E-1,-7.914428711E-1
1.326680678E0,-1.608596802E0,-5.811004639E-1,-7.052917480E-1
1.336751479E0,-1.359771729E0,-2.808990479E-1,-7.046356201E-1
1.346852797E0,-1.224044800E0,-8.522033691E-2,-6.576538086E-1
1.356923598E0,-1.143234253E0,-1.461791992E-2,-6.534881592E-1
1.366963881E0,-1.202682495E0,-1.179809570E-1,-6.373596191E-1
1.377034682E0,-1.443298340E0,-3.870697021E-1,-5.502929688E-1
1.387136000E0,-1.783294678E0,-7.423095703E-1,-4.532775879E-1
1.397206801E0,-2.133605957E0,-1.018508911E0,-3.730163574E-1
1.407247084E0,-2.456130981E0,-1.137908936E0,-2.505798340E-1
1.417317885E0,-2.636108398E0,-1.055770874E0,-1.021575928E-1
1.427388686E0,-2.599533081E0,-7.703094482E-1,3.332519531E-2
1.437490004E0,-2.292755127E0,-3.856658936E-1,1.100921631E-1
1.447560805E0,-1.905990601E0,-1.296539307E-1,1.447906494E-1
1.457631606E0,-1.522308350E0,1.535034180E-2,1.011505127E-1
1.467671889E0,-1.327255249E0,2.061462402E-2,1.233978271E-1
1.477773207E0,-1.210525513E0,3.952026367E-3,1.351623535E-1
1.487844008E0,-1.269729614E0,-1.661682129E-1,1.709594727E-1
1.497914809E0,-1.340545654E0,-3.260345459E-1,1.896667480E-1
1.507955092E0,-1.451049805E0,-5.196685791E-1,2.120361328E-1
1.518056411E0,-1.408584595E0,-5.446472168E-1,1.819763184E-1
1.528218764E0,-1.250183105E0,-4.700012207E-1,1.591339111E-1
1.538411635E0,-9.911804199E-1,-3.719482422E-1,1.297149658E-1
1.548604506E0,-7.066192627E-1,-2.917938232E-1,9.355163574E-2
1.558797377E0,-8.733978271E-1,-7.823181152E-1,2.296447754E-2
1.569020766E0,-1.476608276E0,-1.796630859E0,-1.964569092E-1
1.579213637E0,-2.046417236E0,-2.509414673E0,-3.003997803E-1
1.589437026E0,-1.903732300E0,-2.324401855E0,-2.420196533E-1
1.599446791E0,-1.678176880E0,-2.203536987E0,-2.831268311E-1
1.608693618E0,-1.535751343E0,-2.135757446E0,-2.908020020E-1
1.618733901E0,-1.314193726E0,-1.880661011E0,-2.486877441E-1
1.628804702E0,-1.098602295E0,-1.609634399E0,-1.642761230E-1
1.638906020E0,-9.371490479E-1,-1.409011841E0,-7.853698730E-2
1.649526137E0,-8.265228271E-1,-1.261703491E0,-2.604675293E-2
1.659047621E0,-7.617187500E-1,-1.201477051E0,-1.960754395E-2
1.669118422E0,-6.428222656E-1,-1.180541992E0,-6.605529785E-2
1.679158705E0,-4.344787598E-1,-1.086761475E0,-1.331176758E-1
1.689229506E0,-2.301025391E-1,-9.124908447E-1,-1.621398926E-1
1.699330825E0,-4.739379883E-2,-7.059020996E-1,-1.234893799E-1
1.709401625E0,1.191864014E-1,-4.780120850E-1,-5.889892578E-2
1.719472426E0,1.961975098E-1,-3.254699707E-1,4.275512695E-2
1.729512709E0,1.561889648E-1,-2.894439697E-1,7.353210449E-2
1.739583510E0,6.774902344E-3,-3.702850342E-1,4.403686523E-2
1.749684828E0,-1.717529297E-1,-4.027404785E-1,2.627563477E-2
1.759755629E0,-4.088745117E-1,-4.245910645E-1,7.080078125E-2
1.769826430E0,-5.974273682E-1,-3.976440430E-1,1.526489258E-1
1.779866713E0,-7.659759521E-1,-3.696594238E-1,2.681121826E-1
1.789937514E0,-9.662017822E-1,-2.862701416E-1,3.533020020E-1
1.800038832E0,-1.110534668E0,-1.268768311E-1,3.602142334E-1
1.810079116E0,-1.040542603E0,1.616668701E-1,2.805328369E-1
1.820149916E0,-8.838653564E-1,5.510101318E-1,2.537231445E-1
1.830220717E0,-9.933013916E-1,7.628784180E-1,3.261413574E-1
1.840322036E0,-1.393707275E0,6.111450195E-1,4.378662109E-1
1.850392836E0,-1.705230713E0,4.437561035E-1,4.697113037E-1
1.860433120E0,-1.847106934E0,3.807678223E-1,4.412078857E-1
1.870503920E0,-1.756637573E0,3.959655762E-1,3.452148438E-1
1.880605239E0,-1.341812134E0,6.232452393E-1,1.776123047E-1
1.890676039E0,-6.071319580E-1,9.815216064E-1,-6.341552734E-2
1.900716323E0,3.888549805E-1,1.418289185E0,-3.395385742E-1
1.910817641E0,9.842224121E-1,1.660614014E0,-4.891967773E-1
1.920888442E0,1.172576904E0,1.770553589E0,-5.146179199E-1
1.931081313E0,1.214797974E0,1.846633911E0,-4.971313477E-1
1.941274184E0,1.079895020E0,1.788131714E0,-4.471282959E-1
1.951467055E0,-1.759643555E-1,1.435440063E0,-1.275024414E-1
1.961629409E0,-7.871551514E-1,1.192779541E0,-5.377197266E-2
1.971852797E0,-4.346008301E-1,1.273757935E0,-1.199645996E-1
1.982137221E0,-4.293060303E-1,1.292419434E0,-8.432006836E-2
1.992269057E0,-5.851287842E-1,1.204330444E0,1.564025879E-2
2.002248305E0,-6.277618408E-1,1.138198853E0,9.707641602E-2
2.011525649E0,-6.270446777E-1,1.088821411E0,1.547088623E-1
2.021565932E0,-5.492248535E-1,1.044052124E0,2.383270264E-1
2.031636733E0,-3.190460205E-1,1.095901489E0,3.145294189E-1
2.041707534E0,-1.351165771E-1,1.137207031E0,4.127655029E-1
2.053243178E0,3.204345703E-4,1.161331177E0,4.961547852E-1
2.061879653E0,1.471862793E-1,1.158782959E0,5.481872559E-1
2.071950453E0,3.394165039E-1,1.133651733E0,5.625457764E-1
2.081990737E0,5.316467285E-1,1.173446655E0,5.726623535E-1
2.092061537E0,6.600189209E-1,1.195343018E0,5.289916992E-1
2.102132338E0,6.935272217E-1,1.139068604E0,4.542999268E-1
2.112233657E0,7.074890137E-1,1.117691040E0,3.984527588E-1
2.122304457E0,5.230560303E-1,9.733276367E-1,3.360137939E-1
2.132344741E0,9.344482422E-2,7.608032227E-1,2.891235352E-1
2.142415541E0,-1.733551025E0,9.039306641E-2,2.633666992E-1
2.152486342E0,-3.979476929E0,-1.018859863E0,2.531433105E-2
2.162587661E0,-3.318832397E0,-9.170074463E-1,-1.192626953E-1
2.172658461E0,-2.395431519E0,-5.594329834E-1,-1.060485840E-1
2.182698745E0,-1.426300049E0,-2.016448975E-1,-1.445770264E-1
2.192769545E0,-8.353729248E-1,-9.205627441E-2,-2.640533447E-1
2.202870864E0,-5.081787109E-1,-6.239318848E-2,-3.679046631E-1
2.212941664E0,-3.068237305E-1,-7.202148438E-3,-4.123229980E-1
2.223012465E0,-1.669158936E-1,5.177307129E-2,-3.976593018E-1
2.233052748E0,1.269531250E-2,1.941833496E-1,-3.203125000E-1
2.243123549E0,2.597503662E-1,3.566589355E-1,-2.672729492E-1
2.253224868E0,6.139068604E-1,5.867156982E-1,-2.673187256E-1
2.263295668E0,7.537078857E-1,6.424102783E-1,-3.149414062E-1
2.273335952E0,8.729858398E-1,7.650909424E-1,-2.746276855E-1
2.283437270E0,1.074707031E0,9.867706299E-1,-1.536254883E-1
2.293508071E0,1.334960938E0,1.266113281E0,-4.098510742E-2
2.303578871E0,1.369918823E0,1.338714600E0,-3.642272949E-2
2.313619155E0,1.059341431E0,1.105163574E0,-1.878662109E-1
2.323689955E0,5.698852539E-1,6.124420166E-1,-5.025177002E-1
2.333882827E0,5.664062500E-2,5.844116211E-3,-9.178314209E-1
2.344106215E0,-2.961730957E-1,-4.103088379E-1,-1.215103149E0
2.354268569E0,-5.002746582E-1,-6.956176758E-1,-1.383865356E0
2.364491957E0,-4.423065186E-1,-6.038818359E-1,-1.277694702E0
2.374684828E0,-3.468017578E-1,-3.569641113E-1,-1.006729126E0
2.384877700E0,-2.887725830E-1,-9.042358398E-2,-6.933135986E-1
2.395070571E0,-3.038635254E-1,8.082580566E-2,-4.621124268E-1
2.405110854E0,-4.149780273E-1,6.536865234E-2,-3.725891113E-1
2.414357680E0,-6.584625244E-1,-1.393737793E-1,-3.942718506E-1
2.424428481E0,-9.548492432E-1,-4.039764404E-1,-4.543304443E-1
2.434499282E0,-1.282699585E0,-7.803497314E-1,-6.269989014E-1
2.444539565E0,-1.936309814E0,-1.596969604E0,-1.111022949E0
2.455220717E0,-2.127746582E0,-2.057723999E0,-1.472915649E0
2.464681166E0,-1.766555786E0,-1.868133545E0,-1.506988525E0
2.474751967E0,-1.454742432E0,-1.743362427E0,-1.560470581E0
2.484853286E0,-1.272094727E0,-1.758148193E0,-1.711685181E0
2.494924086E0,-1.220458984E0,-1.914779663E0,-1.854034424E0
2.504964370E0,-1.229934692E0,-2.081939697E0,-1.918930054E0
2.515035170E0,-1.175170898E0,-2.088088989E0,-1.853439331E0
2.525136489E0,-1.063583374E0,-1.973434448E0,-1.737747192E0
2.535207289E0,-9.349212646E-1,-1.831268311E0,-1.630462646E0
2.545247573E0,-7.625885010E-1,-1.596420288E0,-1.449111938E0
2.555318373E0,-5.942840576E-1,-1.320312500E0,-1.156112671E0
2.565389174E0,-4.378509521E-1,-1.036544800E0,-8.182525635E-1
2.575490493E0,-2.848052979E-1,-8.144226074E-1,-5.470581055E-1
2.585561293E0,-1.666870117E-1,-6.913757324E-1,-4.194488525E-1
2.595601577E0,-7.333374023E-2,-5.413208008E-1,-2.548828125E-1
2.605672377E0,7.096862793E-2,-3.216552734E-1,1.908874512E-2
2.615743178E0,2.993621826E-1,-4.241943359E-3,2.404327393E-1
2.625844496E0,5.154724121E-1,1.800842285E-1,3.009033203E-1
2.635915297E0,5.964660645E-1,1.956176758E-1,1.984710693E-1
2.645955580E0,4.392547607E-1,-4.820251465E-2,5.680847168E-2
2.656026381E0,2.715911865E-1,-2.523498535E-1,-9.902954102E-3
2.666127700E0,2.039794922E-1,-3.141632080E-1,-9.765625000E-4
2.676198500E0,2.243499756E-1,-2.486572266E-1,4.460144043E-2
2.686177748E0,2.782440186E-1,-1.712493896E-1,-4.852294922E-3
2.696340102E0,2.928466797E-1,-2.431945801E-1,-1.450805664E-1
2.706410903E0,3.238067627E-1,-2.659454346E-1,-2.606048584E-1
2.716481703E0,2.527465820E-1,-2.889556885E-1,-2.938537598E-1
2.726644057E0,1.933288574E-1,-2.304687500E-1,-2.308197021E-1
2.736775893E0,1.572723389E-1,-1.302490234E-1,-1.085815430E-1
2.747029799E0,1.670227051E-1,2.551269531E-2,6.544494629E-2
2.757253188E0,2.000274658E-1,1.786041260E-1,2.158203125E-1
2.767446059E0,1.810455322E-1,1.847076416E-1,2.469482422E-1
2.777669448E0,1.670379639E-1,2.048492432E-1,3.100128174E-1
2.787862319E0,2.162017822E-1,3.669128418E-1,5.226898193E-1
2.797872084E0,2.797851562E-1,5.732727051E-1,7.663726807E-1
2.807118911E0,3.383026123E-1,7.455139160E-1,9.337310791E-1
2.817159194E0,3.905792236E-1,8.776855469E-1,1.027389526E0
2.827260512E0,4.752502441E-1,1.061965942E0,1.107055664E0
2.837331313E0,5.395660400E-1,1.181167603E0,1.076766968E0
2.847371596E0,5.817718506E-1,1.230331421E0,9.640045166E-1
2.858174819E0,7.177581787E-1,1.461410522E0,1.019439697E0
2.867513198E0,7.917327881E-1,1.569854736E0,1.007995605E0
2.877583998E0,7.260131836E-1,1.417221069E0,8.559722900E-1
2.887685317E0,6.055755615E-1,1.153091431E0,6.102905273E-1
2.897756118E0,4.769287109E-1,8.687896729E-1,3.187408447E-1
2.907826918E0,4.056091309E-1,7.006835938E-1,6.134033203E-2
2.917867202E0,4.387207031E-1,7.070159912E-1,-1.458740234E-2
2.927938002E0,4.751434326E-1,7.204132080E-1,-6.193542480E-2
2.938008803E0,5.356903076E-1,8.184509277E-1,-5.722045898E-2
2.948110121E0,6.493072510E-1,1.023468018E0,5.249023438E-3
2.958180922E0,6.918640137E-1,1.122238159E0,1.011505127E-1
2.968251723E0,6.110229492E-1,1.003143311E0,1.452636719E-1
2.978322524E0,4.920959473E-1,7.999877930E-1,1.577911377E-1
2.988393325E0,4.277954102E-1,6.863708496E-1,2.495422363E-1
2.998433608E0,3.123168945E-1,4.953765869E-1,2.923889160E-1
3.008504409E0,7.272338867E-2,7.109069824E-2,1.683197021E-1
3.018605727E0,-8.604431152E-2,-2.114257812E-1,7.373046875E-2
3.028676528E0,-2.484283447E-1,-4.262390137E-1,3.967285156E-2
3.038716811E0,-4.869842529E-1,-6.086578369E-1,3.114318848E-2
3.048787612E0,-7.677917480E-1,-7.858581543E-1,9.658813477E-3
3.058888930E0,-1.078521729E0,-9.570922852E-1,-1.361083984E-2
3.068959731E0,-1.036437988E0,-9.441070557E-1,-1.199798584E-1
3.079030532E0,-7.700042725E-1,-8.131256104E-1,-2.637329102E-1
3.089070815E0,-6.588745117E-1,-8.635864258E-1,-5.102996826E-1
3.099172133E0,-6.013488770E-1,-8.768768311E-1,-6.640319824E-1
3.109242934E0,-4.990081787E-1,-7.852783203E-1,-7.163391113E-1
3.119435805E0,-3.573455811E-1,-5.583343506E-1,-5.752410889E-1
3.129628676E0,-1.639709473E-1,-2.222442627E-1,-2.612457275E-1
3.139791030E0,-1.434326172E-3,8.273315430E-2,4.525756836E-2
3.150014418E0,4.017028809E-1,1.103866577E0,1.271820068E0
3.160207289E0,4.059753418E-1,1.389343262E0,1.699890137E0
3.170308608E0,2.460021973E-1,9.340667725E-1,1.239089966E0
3.180593032E0,1.162872314E-1,6.022949219E-1,9.261932373E-1
3.190602797E0,-8.871459961E-2,2.677612305E-1,6.715850830E-1
3.199880141E0,-3.871765137E-1,-9.046936035E-2,4.324035645E-1
3.209950942E0,-6.237640381E-1,-2.637481689E-1,3.208465576E-1
3.219991225E0,-6.995849609E-1,-2.870635986E-1,2.938537598E-1
3.230062026E0,-6.311340332E-1,-1.731872559E-1,3.410644531E-1
3.240163344E0,-4.833679199E-1,-7.919311523E-3,4.309692383E-1
3.250234145E0,-2.400054932E-1,2.662811279E-1,5.865478516E-1
3.262013930E0,8.560180664E-2,5.057983398E-1,6.344604492E-1
3.270375746E0,3.298339844E-1,6.885528564E-1,6.496582031E-1
3.280416030E0,4.161834717E-1,6.964111328E-1,5.826873779E-1
3.290486830E0,4.209747314E-1,6.645812988E-1,5.189666748E-1
3.300588149E0,4.953460693E-1,6.020660400E-1,3.887329102E-1
3.310658950E0,4.664764404E-1,5.082397461E-1,2.957305908E-1
3.320729750E0,2.646636963E-1,3.372192383E-1,2.070007324E-1
3.330770034E0,2.201843262E-2,8.860778809E-2,3.509521484E-2
3.340840834E0,-1.365966797E-1,-1.083221436E-1,-1.465606689E-1
3.350942153E0,-1.665039062E-1,-1.533203125E-1,-2.211151123E-1
3.361012953E0,-2.735443115E-1,-5.504608154E-1,-7.295074463E-1
3.371083754E0,-2.014770508E-1,-6.136932373E-1,-8.487854004E-1
3.381154555E0,-2.793121338E-1,-7.068634033E-1,-8.402252197E-1
3.391194838E0,-2.833557129E-1,-6.686248779E-1,-7.043304443E-1
3.401265639E0,-7.034301758E-2,-4.095153809E-1,-4.365997314E-1
3.411366957E0,2.803955078E-1,-7.609558105E-2,-2.730865479E-1
3.421437758E0,5.812835693E-1,2.606811523E-1,-7.283020020E-2
3.431508559E0,7.991485596E-1,6.372222900E-1,2.192230225E-1
3.441548842E0,1.113769531E0,1.175613403E0,6.220550537E-1
3.451619643E0,1.347229004E0,1.578125000E0,9.147186279E-1
3.461690444E0,1.452667236E0,1.751922607E0,1.047851562E0
3.471791762E0,1.423904419E0,1.641860962E0,9.746551514E-1
3.481862563E0,1.301895142E0,1.331451416E0,7.359313965E-1
3.491902846E0,9.905242920E-1,8.395080566E-1,4.424438477E-1
3.502004164E0,5.382537842E-1,3.301086426E-1,2.334594727E-1
3.512197036E0,1.565246582E-1,-6.318664551E-2,1.135559082E-1
3.522420424E0,-3.524780273E-2,-2.329559326E-1,9.326171875E-2
3.532582778E0,-1.892547607E-1,-4.023132324E-1,9.288024902E-2
3.542836684E0,-2.694244385E-1,-5.140075684E-1,1.263885498E-1
3.553029555E0,-3.136749268E-1,-6.000671387E-1,1.809387207E-1
3.563222426E0,-3.561859131E-1,-6.693115234E-1,2.500915527E-1
3.573293227E0,-9.002685547E-4,-2.723693848E-1,6.065826416E-1
3.582540053E0,4.349212646E-1,2.252197266E-1,1.016555786E0
3.592641371E0,1.086975098E0,1.006683350E0,1.596984863E0
3.602712172E0,1.914428711E0,2.131774902E0,2.388015747E0
3.612782973E0,1.554046631E0,1.875015259E0,2.300933838E0
3.622823256E0,1.039947510E0,1.249145508E0,1.915039062E0
3.632894057E0,4.060363770E-1,4.952545166E-1,1.469070435E0
3.642964858E0,-2.959899902E-1,-2.710876465E-1,1.000076294E0
3.653066176E0,-8.668823242E-1,-7.691497803E-1,7.389984131E-1
3.663930434E0,-1.347396851E0,-1.133132935E0,5.399169922E-1
3.673177260E0,-1.591506958E0,-1.393325806E0,3.531951904E-1
3.683248061E0,-1.555984497E0,-1.472290039E0,1.974945068E-1
3.693318862E0,-1.495697021E0,-1.530242920E0,9.683227539E-2
3.703389662E0,-1.384262085E0,-1.443161011E0,8.721923828E-2
3.713460463E0,-1.445388794E0,-1.379089355E0,7.812500000E-2
3.723531264E0,-1.523818970E0,-1.263366699E0,1.233673096E-1
3.733602065E0,-1.393264771E0,-1.035400391E0,1.609649658E-1
3.743703383E0,-1.057266235E0,-7.699432373E-1,1.867523193E-1
3.753774184E0,-4.013519287E-1,-1.862792969E-1,6.019439697E-1
3.763844985E0,1.196594238E-1,2.343902588E-1,8.460540771E-1
3.773885268E0,5.296173096E-1,5.385894775E-1,9.486999512E-1
3.783956069E0,7.521667480E-1,6.756286621E-1,1.007064819E0
3.794026870E0,9.518432617E-1,7.917022705E-1,1.134490967E0
3.804097670E0,9.992980957E-1,7.531585693E-1,1.124008179E0
3.814168471E0,8.307952881E-1,5.799407959E-1,9.913940430E-1
3.824239272E0,3.633728027E-1,2.944488525E-1,7.955322266E-1
3.834310073E0,2.555847168E-2,5.769348145E-2,6.275177002E-1
3.844411391E0,-1.872558594E-1,-1.470336914E-1,4.708709717E-1
3.854482192E0,-3.267669678E-1,-2.337341309E-1,4.157562256E-1
3.864552993E0,-3.306121826E-1,-2.034606934E-1,4.745635986E-1
3.874593276E0,-2.501525879E-1,-1.407318115E-1,5.892791748E-1
3.884664077E0,-1.046752930E-1,-6.304931641E-2,6.953430176E-1
3.894795912E0,1.049804688E-2,-2.993774414E-2,7.327117920E-1
3.904988784E0,8.811950684E-2,2.000427246E-2,7.876586914E-1
3.915212172E0,1.715698242E-1,9.794616699E-2,8.761444092E-1
3.925405043E0,2.735748291E-1,1.884307861E-1,1.036193848E0
3.935628432E0,5.175781250E-1,3.789062500E-1,1.261627197E0
3.945821303E0,6.641235352E-1,4.810485840E-1,1.412841797E0
3.955922621E0,6.237030029E-1,4.216461182E-1,1.402099609E0
3.966146010E0,5.325622559E-1,2.970428467E-1,1.277847290E0
3.975331801E0,4.236297607E-1,1.349792480E-1,1.138061523E0
3.985402602E0,4.477539062E-1,8.174133301E-2,1.060913086E0
3.995442885E0,4.637603760E-1,6.825256348E-2,1.052581787E0
4.005544203E0,4.178619385E-1,7.997131348E-2,1.046936035E0
4.015615004E0,2.098693848E-1,1.480102539E-2,1.010040283E0
4.025655287E0,-7.003784180E-3,-4.989624023E-2,9.461669922E-1
4.035726088E0,-2.671051025E-1,-1.339263916E-1,8.006439209E-1
4.045796889E0,-2.794036865E-1,-1.309356689E-1,7.462463379E-1
4.055898207E0,-4.725036621E-1,-1.383056641E-1,7.202301025E-1
4.066304702E0,-4.254455566E-1,-1.386413574E-1,7.065124512E-1
4.076009291E0,-2.358398438E-1,-1.074523926E-1,6.956024170E-1
4.086110610E0,-1.519927979E-1,-9.169006348E-2,6.489105225E-1
4.096181411E0,-1.503295898E-1,-1.043853760E-1,5.998229980E-1
4.106252211E0,-2.180786133E-1,-1.331634521E-1,5.507659912E-1
4.116292495E0,-2.272949219E-1,-1.180572510E-1,5.170135498E-1
4.126363295E0,-1.131439209E-1,-4.031372070E-2,5.586700439E-1
4.136434096E0,9.381103516E-2,8.103942871E-2,7.039489746E-1
4.146535414E0,3.518981934E-1,2.334899902E-1,9.321136475E-1
4.156606215E0,5.928497314E-1,4.019012451E-1,1.188781738E0
4.166646498E0,5.949707031E-1,4.911956787E-1,1.353561401E0
4.176717299E0,2.795867920E-1,4.997711182E-1,1.337234497E0
4.186818618E0,-2.221679688E-1,4.286651611E-1,1.175918579E0
4.196889418E0,-5.486450195E-1,3.288879395E-1,9.846954346E-1
4.206960219E0,-6.708984375E-1,2.266693115E-1,8.121948242E-1
4.217000502E0,-6.417388916E-1,1.754302979E-1,7.371826172E-1
4.227101821E0,-5.680694580E-1,1.510162354E-1,7.167968750E-1
4.237172621E0,-3.834075928E-1,1.733703613E-1,6.976623535E-1
4.247243422E0,-2.402038574E-1,2.012786865E-1,7.028350830E-1
4.257283705E0,-1.914825439E-1,2.416381836E-1,7.413024902E-1
4.267354506E0,-1.655273438E-1,2.945556641E-1,8.032836914E-1
4.277486342E0,-1.489715576E-1,2.967376709E-1,8.333282471E-1
4.287679213E0,-9.310913086E-2,2.487182617E-1,8.023681641E-1
4.297902602E0,1.052856445E-3,2.206726074E-1,7.857513428E-1
4.308095473E0,7.858276367E-2,2.024230957E-1,7.998352051E-1
4.318288344E0,9.844970703E-2,1.893920898E-1,8.225250244E-1
4.328511733E0,1.043395996E-1,2.174377441E-1,8.970336914E-1
4.338704604E0,6.674194336E-2,2.693939209E-1,9.590301514E-1
4.348744887E0,-1.219177246E-1,3.065032959E-1,9.422607422E-1
4.358022231E0,-4.075775146E-1,3.159027100E-1,8.673095703E-1
4.368093032E0,-4.796752930E-1,3.516998291E-1,8.857727051E-1
4.378133315E0,-1.927642822E-1,3.707275391E-1,1.025939941E0
4.388204116E0,9.948730469E-3,2.991943359E-1,1.025100708E0
4.398274916E0,1.722717285E-2,1.843872070E-1,9.106292725E-1
4.408376235E0,-3.651428223E-2,8.267211914E-2,7.384185791E-1
4.418447036E0,-1.622161865E-1,-1.672363281E-2,5.306091309E-1
4.428517836E0,-2.247009277E-1,-5.731201172E-2,4.202880859E-1
4.438588637E0,-1.990509033E-1,-5.952453613E-2,3.939361572E-1
4.448659438E0,-2.211151123E-1,-6.391906738E-2,3.815460205E-1
4.458730239E0,-2.250976562E-1,-4.887390137E-2,3.450775146E-1
4.469136733E0,-3.371734619E-1,-2.787780762E-2,2.922058105E-1
4.478871840E0,-5.551910400E-1,1.129150391E-2,2.349548340E-1
4.488942641E0,-6.282958984E-1,3.192138672E-2,1.868133545E-1
4.498982924E0,-5.498504639E-1,5.294799805E-3,1.352996826E-1
4.509053725E0,-5.318298340E-1,-7.168579102E-2,7.972717285E-2
4.519124526E0,-5.014648438E-1,-1.604614258E-1,4.446411133E-2
4.529225844E0,-5.792999268E-1,-2.096710205E-1,3.422546387E-2
4.539296645E0,-6.096038818E-1,-2.207641602E-1,8.483886719E-2
4.549336928E0,-3.681335449E-1,-2.497406006E-1,2.126159668E-1
4.559407729E0,1.206970215E-2,-2.768554688E-1,3.609161377E-1
4.569509047E0,3.885192871E-1,-3.587951660E-1,4.224853516E-1
4.579579848E0,4.248962402E-1,-4.147796631E-1,3.243560791E-1
4.589650649E0,2.942047119E-1,-3.865966797E-1,2.189025879E-1
4.599690932E0,1.776275635E-1,-3.336944580E-1,1.552429199E-1
4.609761733E0,4.594421387E-2,-2.721862793E-1,4.699707031E-2
4.619832534E0,-8.259582520E-2,-1.994018555E-1,-4.287719727E-2
4.629933852E0,-4.133911133E-1,-2.002105713E-1,-3.487091064E-1
4.640004653E0,-6.007995605E-1,-2.113952637E-1,-5.917663574E-1
4.650044936E0,-8.111267090E-1,-2.605133057E-1,-8.698272705E-1
4.660115737E0,-9.155120850E-1,-3.005523682E-1,-9.937133789E-1
4.670278090E0,-7.973327637E-1,-3.118438721E-1,-9.001312256E-1
4.680440444E0,-5.529174805E-1,-2.999114990E-1,-6.358947754E-1
4.690694350E0,-1.872406006E-1,-2.862243652E-1,-3.648223877E-1
4.700887221E0,1.862182617E-1,-3.111724854E-1,-1.856689453E-1
4.711080092E0,4.040222168E-1,-3.212738037E-1,-1.159210205E-1
4.721303481E0,5.675201416E-1,-3.138580322E-1,-1.154937744E-1
4.731496352E0,4.896850586E-1,-2.763366699E-1,-1.417083740E-1
4.741506118E0,3.666534424E-1,-2.364044189E-1,-1.368255615E-1
4.750783461E0,4.198150635E-1,-1.618804932E-1,-6.300354004E-2
4.760823745E0,3.235626221E-1,-9.744262695E-2,-1.103210449E-2
4.770894545E0,1.650543213E-1,-5.168151855E-2,-3.329467773E-2
4.780965346E0,3.620910645E-2,-4.684448242E-2,-4.942321777E-2
4.791066664E0,-4.777526855E-2,-4.327392578E-2,-5.908203125E-2
4.801137465E0,-9.318542480E-2,-2.085876465E-2,-3.871154785E-2
4.811177748E0,-8.850097656E-2,2.806091309E-2,9.582519531E-3
4.821248549E0,-9.257507324E-2,5.424499512E-2,4.327392578E-2
4.831349868E0,-2.473449707E-2,5.581665039E-2,4.713439941E-2
4.841390151E0,-1.846313477E-3,3.402709961E-2,1.068115234E-2
4.851399916E0,-9.109497070E-3,1.605224609E-2,-2.258300781E-2
4.861562270E0,2.371215820E-2,1.832580566E-2,-1.940917969E-2
4.871968764E0,9.527587891E-2,3.808593750E-2,1.676940918E-2
4.881703871E0,1.415710449E-1,4.684448242E-2,2.684020996E-2
4.891744155E0,2.521209717E-1,7.402038574E-2,8.775329590E-2
4.901814955E0,3.812561035E-1,1.101989746E-1,2.020874023E-1
4.911916274E0,5.003356934E-1,1.458282471E-1,2.985534668E-1
4.921987075E0,5.151519775E-1,1.649017334E-1,3.063964844E-1
4.932027358E0,3.062133789E-1,1.793060303E-1,2.241058350E-1
4.942128676E0,1.069183350E-1,2.083892822E-1,1.813201904E-1
4.952199477E0,-3.231811523E-2,2.309112549E-1,1.726989746E-1
4.962270278E0,-1.796875000E-1,2.280578613E-1,1.594848633E-1
4.972341078E0,-2.630767822E-1,2.127532959E-1,1.236724854E-1
4.982411879E0,-3.125762939E-1,2.092285156E-1,8.525085449E-2
4.992482680E0,-3.255310059E-1,1.985321045E-1,5.276489258E-2
5.002522963E0,-3.114624023E-1,1.878356934E-1,4.296875000E-2
5.012624282E0,-2.278747559E-1,1.810913086E-1,5.732727051E-2
5.022695082E0,-2.398986816E-1,1.644287109E-1,6.199645996E-2
5.032735366E0,-2.696990967E-1,1.522521973E-1,6.359863281E-2
5.042806166E0,-3.571624756E-1,1.363677979E-1,3.805541992E-2
5.052876967E0,-4.697570801E-1,1.180114746E-1,-9.597778320E-3
5.063008803E0,-5.244293213E-1,1.164550781E-1,-3.195190430E-2
5.073201674E0,-5.371246338E-1,1.106109619E-1,-2.586364746E-2
5.083425063E0,-6.730041504E-1,5.822753906E-2,-1.275939941E-1
5.093617934E0,-8.585510254E-1,-2.339172363E-2,-3.233184814E-1
5.103810805E0,-1.043594360E0,-1.232299805E-1,-5.297851562E-1
5.114003676E0,-1.101959229E0,-1.951904297E-1,-7.408905029E-1
5.124227065E0,-1.221405029E0,-2.588043213E-1,-9.481353760E-1
5.134297866E0,-1.187210083E0,-2.681884766E-1,-9.078979492E-1
5.144429702E0,-9.952392578E-1,-2.269897461E-1,-7.606964111E-1
5.153615493E0,-7.677307129E-1,-1.766815186E-1,-5.825042725E-1
5.163655776E0,-6.334686279E-1,-1.521759033E-1,-4.706268311E-1
5.173726577E0,-5.861511230E-1,-1.499176025E-1,-4.382476807E-1
5.183797377E0,-6.066589355E-1,-1.620025635E-1,-4.639129639E-1
5.193898696E0,-6.796264648E-1,-1.873168945E-1,-5.009918213E-1
5.203969496E0,-6.689453125E-1,-1.790313721E-1,-5.088043213E-1
5.214009780E0,-7.010498047E-1,-1.784973145E-1,-4.743652344E-1
5.224080580E0,-6.687011719E-1,-1.555633545E-1,-4.106597900E-1
5.234181899E0,-6.835479736E-1,-1.419525146E-1,-3.437957764E-1
5.244222182E0,-6.956176758E-1,-1.195526123E-1,-2.839355469E-1
5.254292983E0,-6.411895752E-1,-7.513427734E-2,-2.388763428E-1
5.264363784E0,-5.774230957E-1,-4.904174805E-2,-2.274627686E-1
5.274709243E0,-5.262603760E-1,-3.823852539E-2,-2.312316895E-1
5.284505385E0,-4.466094971E-1,-2.276611328E-2,-2.243041992E-1
5.294576186E0,-3.752593994E-1,-1.576232910E-2,-1.878204346E-1
5.304646987E0,-2.338714600E-1,6.103515625E-3,-1.086425781E-1
5.314717787E0,-1.187438965E-1,1.567077637E-2,-2.343750000E-2
5.324788588E0,-3.991699219E-2,2.030944824E-2,3.125000000E-2
5.334889907E0,-1.693725586E-2,1.376342773E-2,1.939392090E-2
5.344960707E0,2.590942383E-2,2.697753906E-2,2.285766602E-2
5.355031508E0,5.418395996E-2,3.802490234E-2,5.937194824E-2
5.365071791E0,3.927612305E-2,3.381347656E-2,6.932067871E-2
5.375142592E0,2.998352051E-2,2.680969238E-2,5.932617188E-2
5.385213393E0,5.395507812E-2,2.891540527E-2,8.213806152E-2
5.395284194E0,8.564758301E-2,3.724670410E-2,1.278686523E-1
5.405385512E0,1.470184326E-1,6.527709961E-2,2.122650146E-1
5.415425795E0,1.911773682E-1,9.234619141E-2,2.983093262E-1
5.425527114E0,2.333984375E-1,1.100921631E-1,3.563232422E-1
5.435567397E0,2.474822998E-1,1.125183105E-1,3.616790771E-1
5.445638198E0,2.477874756E-1,1.080627441E-1,3.224945068E-1
5.455708998E0,2.335815430E-1,1.091003418E-1,2.612304688E-1
5.465779799E0,1.808624268E-1,1.127166748E-1,1.999969482E-1
5.475881118E0,1.332244873E-1,1.189422607E-1,1.609039307E-1
5.486104506E0,1.567230225E-1,1.349334717E-1,1.361694336E-1
5.496297377E0,1.286010742E-1,1.185760498E-1,1.035614014E-1
5.506459731E0,1.229400635E-1,9.526062012E-2,7.247924805E-2
5.516683120E0,1.101531982E-1,6.298828125E-2,4.843139648E-2
5.526875991E0,6.018066406E-2,2.525329590E-2,2.847290039E-2
5.537068862E0,5.429077148E-2,1.219177246E-2,1.676940918E-2
5.547261733E0,1.860046387E-2,-1.251220703E-3,-8.605957031E-3
5.557271498E0,-3.845214844E-2,-2.149963379E-2,-6.623840332E-2
5.566518325E0,-1.367950439E-1,-6.042480469E-2,-1.276855469E-1
5.576589125E0,-1.526794434E-1,-8.110046387E-2,-1.346435547E-1
5.586659926E0,-9.860229492E-2,-7.835388184E-2,-7.896423340E-2
5.596700209E0,-1.126556396E-1,-8.372497559E-2,-2.656555176E-2
5.606771010E0,-3.565979004E-2,-4.875183105E-2,1.329040527E-2
5.616841811E0,-5.029296875E-2,-4.309082031E-2,1.696777344E-2
5.626943129E0,-1.324462891E-1,-7.046508789E-2,3.631591797E-3
5.637013930E0,-1.652832031E-1,-9.339904785E-2,-8.850097656E-3
5.647084731E0,-1.822662354E-1,-1.144714355E-1,-2.043151855E-2
5.657125014E0,-9.629821777E-2,-9.471130371E-2,-3.611755371E-2
5.667195815E0,-1.793060303E-1,-1.221618652E-1,-1.496887207E-1
5.677632827E0,-2.999420166E-1,-1.623535156E-1,-3.237457275E-1
5.687337416E0,-3.880157471E-1,-1.989288330E-1,-4.317169189E-1
5.697438735E0,-2.967224121E-1,-1.927337646E-1,-4.119720459E-1
5.707509536E0,-1.935119629E-1,-1.839904785E-1,-3.388519287E-1
5.717580336E0,-1.064605713E-1,-1.840209961E-1,-3.082733154E-1
5.727620620E0,-9.953308105E-2,-1.981811523E-1,-3.097534180E-1
5.737721938E0,-1.638793945E-1,-2.141723633E-1,-2.996826172E-1
5.747792739E0,-1.331939697E-1,-1.752166748E-1,-2.630767822E-1
5.757863539E0,-8.036804199E-2,-1.323699951E-1,-2.129669189E-1
5.767903823E0,-6.210327148E-3,-8.106994629E-2,-1.512451172E-1
5.778005141E0,4.762268066E-2,-3.701782227E-2,-1.034088135E-1
5.788075942E0,1.003875732E-1,-5.523681641E-3,-7.574462891E-2
5.798146743E0,1.658172607E-1,2.168273926E-2,-3.684997559E-2
5.808217543E0,2.159576416E-1,4.235839844E-2,-2.975463867E-3
5.818288344E0,2.199707031E-1,4.145812988E-2,6.317138672E-3
5.828359145E0,2.247314453E-1,2.615356445E-2,-4.455566406E-3
5.838429946E0,2.394866943E-1,-2.563476562E-3,-3.227233887E-2
5.848470229E0,3.457183838E-1,-8.575439453E-3,-2.568054199E-2
5.858541030E0,4.775848389E-1,-2.655029297E-3,-2.708435059E-2
5.868642348E0,5.359497070E-1,-7.171630859E-4,-5.270385742E-2
5.878713149E0,6.149597168E-1,2.442932129E-2,-8.662414551E-2
5.888753432E0,6.089477539E-1,2.705383301E-2,-1.377410889E-1
5.898885268E0,5.367889404E-1,9.445190430E-3,-1.991577148E-1
5.909047621E0,4.954528809E-1,-1.470947266E-2,-2.777557373E-1
5.919271010E0,5.058135986E-1,-1.976013184E-2,-3.361816406E-1
5.929463881E0,5.927429199E-1,1.136779785E-2,-3.458099365E-1
5.939656752E0,6.092834473E-1,1.213073730E-2,-3.271331787E-1
5.949910659E0,6.199493408E-1,9.750366211E-3,-2.605438232E-1
5.960011977E0,6.621856689E-1,2.583312988E-2,-1.626434326E-1
5.970235366E0,6.908569336E-1,5.960083008E-2,-8.000183105E-2
5.980214614E0,5.984191895E-1,4.368591309E-2,-8.744812012E-2
5.989522475E0,4.576721191E-1,3.295898438E-3,-1.237945557E-1
5.999501723E0,4.369201660E-1,3.036499023E-3,-1.559906006E-1
6.009511489E0,4.280242920E-1,-8.483886719E-3,-1.715240479E-1
6.019704360E0,4.889221191E-1,-3.936767578E-3,-1.705169678E-1
6.029775161E0,4.429473877E-1,-9.857177734E-3,-2.182312012E-1
6.039845961E0,2.389984131E-1,-5.929565430E-2,-3.274383545E-1
6.049916762E0,1.983642578E-3,-1.252593994E-1,-4.741668701E-1
6.059957045E0,-1.155853271E-1,-1.684417725E-1,-5.813293457E-1
6.070027846E0,-1.415405273E-1,-1.814422607E-1,-6.461486816E-1
6.080098647E0,-1.766510010E-1,-2.032012939E-1,-7.024383545E-1
6.090199965E0,-1.810150146E-1,-2.743377686E-1,-7.889709473E-1
6.100270766E0,2.456665039E-2,-3.385467529E-1,-8.562927246E-1
6.110341567E0,7.377624512E-2,-4.064025879E-1,-9.364624023E-1
6.120381850E0,-9.986877441E-2,-4.646911621E-1,-9.895019531E-1
6.130483168E0,-2.200317383E-1,-4.722747803E-1,-9.965362549E-1
6.140553969E0,-1.582489014E-1,-4.337921143E-1,-9.751892090E-1
6.150624770E0,-1.227416992E-1,-4.128265381E-1,-9.158172607E-1
6.160665053E0,-1.759796143E-1,-4.331970215E-1,-8.817901611E-1
6.170766371E0,-2.841339111E-1,-4.827117920E-1,-8.687438965E-1
6.180837172E0,-3.119659424E-1,-4.841766357E-1,-8.311614990E-1
6.190877455E0,-2.356719971E-1,-4.374542236E-1,-7.672576904E-1
6.200948256E0,-1.318511963E-1,-4.009094238E-1,-6.677398682E-1
6.211019057E0,8.142089844E-2,-3.579711914E-1,-5.267333984E-1
6.221120375E0,4.931030273E-1,-2.294921875E-1,-3.106536865E-1
6.231160659E0,9.079589844E-1,-1.076354980E-1,-1.078948975E-1
6.241261977E0,1.058319092E0,-5.252075195E-2,4.672241211E-2
6.251332778E0,8.972015381E-1,-3.941345215E-2,1.054077148E-1
6.261403578E0,6.061706543E-1,-5.561828613E-2,7.861328125E-2
6.271443862E0,4.817657471E-1,-8.407592773E-3,1.976928711E-1
6.281514662E0,4.514312744E-1,7.905578613E-2,4.162292480E-1
6.291615981E0,2.480163574E-1,1.441345215E-1,5.680694580E-1
6.301686782E0,-6.069946289E-2,1.457214355E-1,5.833740234E-1
6.311727065E0,-5.363464355E-2,1.728973389E-1,6.410217285E-1
6.321858901E0,4.846191406E-2,2.215270996E-1,7.189941406E-1
6.332051772E0,4.489135742E-2,2.117309570E-1,7.182312012E-1
6.342244643E0,9.536743164E-3,2.024536133E-1,6.973266602E-1
6.352437514E0,-1.234436035E-2,1.960754395E-1,6.602172852E-1
6.362630385E0,6.774902344E-3,1.833801270E-1,5.993957520E-1
6.372823256E0,-4.264831543E-2,1.564788818E-1,5.313720703E-1
6.383016127E0,-1.467742920E-1,1.227874756E-1,4.674835205E-1
6.393208998E0,-2.929687500E-1,8.125305176E-2,4.234771729E-1
6.403188246E0,-3.363037109E-1,8.549499512E-2,3.892211914E-1
6.412465590E0,-3.383483887E-1,9.815979004E-2,3.526306152E-1
6.422536391E0,-3.155059814E-1,1.174621582E-1,3.153533936E-1
6.432576674E0,-3.465118408E-1,1.181182861E-1,2.873840332E-1
6.442677993E0,-4.055023193E-1,1.210479736E-1,2.642059326E-1
6.452748793E0,-4.871520996E-1,1.240081787E-1,2.276763916E-1
6.462789077E0,-5.941772461E-1,1.095123291E-1,1.642456055E-1
6.472859877E0,-6.904907227E-1,8.065795898E-2,7.189941406E-2
6.483846205E0,-6.907653809E-1,3.684997559E-2,-8.911132812E-3
6.493001479E0,-4.265747070E-1,3.555297852E-2,-2.775573730E-2
6.503072280E0,-2.341003418E-1,2.238464355E-2,-1.222229004E-2
6.513173598E0,-2.024841309E-1,-7.827758789E-3,-9.403991699E-2
6.523244399E0,-2.649078369E-1,-5.383300781E-2,-2.402954102E-1
6.533284682E0,-3.643646240E-1,-1.206970215E-1,-4.054260254E-1
6.543355483E0,-3.862762451E-1,-1.539306641E-1,-5.039520264E-1
6.553426284E0,-3.357391357E-1,-1.417236328E-1,-4.433746338E-1
6.563527602E0,-1.726531982E-1,-7.167053223E-2,-2.593231201E-1
6.573598403E0,-3.355407715E-2,-9.506225586E-3,-7.037353516E-2
6.583638686E0,8.744812012E-2,4.602050781E-2,7.743835449E-2
6.593709487E0,1.817169189E-1,8.874511719E-2,1.830902100E-1
6.603780287E0,2.649688721E-1,1.269378662E-1,2.676696777E-1
6.613881606E0,3.027038574E-1,1.471405029E-1,3.131408691E-1
6.623952407E0,2.621154785E-1,1.371154785E-1,2.996978760E-1
6.634023207E0,2.216491699E-1,1.332092285E-1,2.595977783E-1
6.644063491E0,1.921539307E-1,1.365051270E-1,2.076263428E-1
6.654134291E0,1.725463867E-1,1.424713135E-1,1.639556885E-1
6.664235610E0,1.315917969E-1,1.295471191E-1,1.372375488E-1
6.674306411E0,1.015930176E-1,1.083679199E-1,1.185607910E-1
6.684377211E0,1.185150146E-1,9.660339355E-2,9.555053711E-2
6.694417495E0,1.483917236E-1,9.008789062E-2,6.394958496E-2
6.704488295E0,1.140136719E-1,6.748962402E-2,4.220581055E-2
6.714589614E0,1.231994629E-1,5.125427246E-2,3.323364258E-2
6.724660414E0,2.305450439E-1,6.962585449E-2,3.274536133E-2
6.734731215E0,2.501983643E-1,7.363891602E-2,4.298400879E-2
6.744893569E0,2.524566650E-1,7.077026367E-2,4.400634766E-2
6.755116957E0,2.672424316E-1,3.924560547E-2,2.487182617E-2
6.765279311E0,3.731536865E-1,4.191589355E-2,4.525756836E-2
6.775502700E0,4.169464111E-1,6.634521484E-2,9.928894043E-2
6.785695571E0,3.694458008E-1,8.082580566E-2,1.295166016E-1
6.795857924E0,2.420349121E-1,6.340026855E-2,1.141662598E-1
6.806081313E0,1.051483154E-1,2.648925781E-2,6.703186035E-2
6.816091078E0,1.145935059E-2,-5.264282227E-3,7.217407227E-3
6.825368422E0,-1.029968262E-1,-3.411865234E-2,-3.739929199E-2
6.835439223E0,-1.921234131E-1,-2.021789551E-2,-5.323791504E-2
6.845479506E0,-2.428894043E-1,5.569458008E-3,-5.326843262E-2
6.855550307E0,-2.039794922E-1,3.530883789E-2,-4.228210449E-2
6.865560073E0,-1.466217041E-1,3.224182129E-2,-4.618835449E-2
6.875722426E0,-9.030151367E-2,1.510620117E-2,-4.508972168E-2
6.887441176E0,-2.563476562E-2,1.037597656E-2,-3.349304199E-2
6.895864028E0,4.414367676E-2,2.305603027E-2,-1.681518555E-2
6.905934828E0,4.341125488E-2,1.434326172E-2,-5.950927734E-3
6.915975112E0,1.134338379E-1,9.429931641E-3,-4.028320312E-3
6.926045912E0,1.443939209E-1,-2.395629883E-2,-1.649475098E-2
6.936147231E0,1.710052490E-1,-5.149841309E-2,-3.848266602E-2
6.946218032E0,2.065734863E-1,-5.596923828E-2,-6.275939941E-2
6.956258315E0,2.025909424E-1,-6.230163574E-2,-9.196472168E-2
6.966329116E0,1.654510498E-1,-7.545471191E-2,-1.308746338E-1
6.976430434E0,1.536712646E-1,-8.616638184E-2,-1.557617188E-1
6.986501235E0,2.541351318E-1,-5.824279785E-2,-1.225280762E-1
6.996541518E0,3.444824219E-1,-1.947021484E-2,-5.920410156E-2
7.006642836E0,3.696289062E-1,5.645751953E-3,-1.579284668E-2
7.016622084E0,3.635711670E-1,6.835937500E-3,1.593017578E-2
7.026814955E0,3.777770996E-1,2.331542969E-2,3.463745117E-2
7.036855239E0,4.054107666E-1,5.537414551E-2,6.588745117E-2
7.046895522E0,4.608306885E-1,9.030151367E-2,1.581420898E-1
7.056996840E0,5.797882080E-1,1.499328613E-1,2.830810547E-1
7.067067641E0,6.732025146E-1,2.041320801E-1,3.708038330E-1
7.077107924E0,6.330413818E-1,2.037506104E-1,3.767089844E-1
7.087178725E0,5.386352539E-1,1.796875000E-1,3.294067383E-1
7.097280043E0,4.240112305E-1,1.470489502E-1,2.621459961E-1
7.107350844E0,3.396606445E-1,1.226043701E-1,1.948242188E-1
7.117421645E0,2.355346680E-1,9.547424316E-2,1.385803223E-1
7.127492446E0,1.476745605E-1,9.498596191E-2,9.399414062E-2
7.137532729E0,8.392333984E-4,9.182739258E-2,5.523681641E-2
7.147603530E0,-1.451110840E-1,1.105804443E-1,2.728271484E-2
7.157704848E0,-3.341674805E-1,1.220550537E-1,1.138305664E-2
7.167897719E0,-5.052185059E-1,1.411743164E-1,7.247924805E-3
7.178090590E0,-7.176055908E-1,1.352996826E-1,-9.475708008E-3
7.188283461E0,-9.536895752E-1,9.675598145E-2,-4.692077637E-2
7.198445815E0,-1.133651733E0,7.226562500E-2,-9.020996094E-2
7.208669203E0,-1.279861450E0,5.703735352E-2,-1.327209473E-1
7.218831557E0,-1.426986694E0,3.515625000E-2,-1.806640625E-1
7.229054946E0,-1.595199585E0,-1.261901855E-2,-2.487335205E-1
7.239064711E0,-1.702362061E0,-6.103515625E-2,-3.353881836E-1
7.248342055E0,-1.724472046E0,-8.100891113E-2,-4.091033936E-1
7.258382338E0,-1.669067383E0,-6.610107422E-2,-4.468841553E-1
7.268453139E0,-1.622772217E0,-7.934570312E-2,-4.645385742E-1
7.278554457E0,-1.497009277E0,-8.012390137E-2,-4.725341797E-1
7.290029067E0,-1.352615356E0,-9.101867676E-2,-4.787292480E-1
7.298696059E0,-1.217803955E0,-1.021270752E-1,-4.782257080E-1
7.308766860E0,-1.037002563E0,-1.130065918E-1,-4.503326416E-1
7.318807143E0,-8.068237305E-1,-1.118927002E-1,-3.847045898E-1
7.328877944E0,-5.544433594E-1,-9.443664551E-2,-2.894287109E-1
7.338979262E0,-3.357391357E-1,-6.486511230E-2,-2.009735107E-1
7.349050063E0,-2.294464111E-1,-4.727172852E-2,-1.310882568E-1
7.359120864E0,-6.439208984E-3,-3.065490723E-2,-6.742858887E-2
7.369161147E0,3.265533447E-1,-2.732849121E-2,5.126953125E-3
7.379231948E0,7.104644775E-1,-2.870178223E-2,7.963562012E-2
7.389302748E0,1.035598755E0,-3.071594238E-2,1.429443359E-1
7.399404067E0,1.243011475E0,-1.593017578E-2,1.819152832E-1
7.409474868E0,1.358978271E0,5.935668945E-3,2.142028809E-1
7.419545668E0,1.487060547E0,4.122924805E-2,2.500152588E-1
7.429616469E0,1.542160034E0,8.200073242E-2,3.039550781E-1
7.439656752E0,1.584960938E0,1.328887939E-1,3.841247559E-1
7.449758071E0,1.609405518E0,1.769561768E-1,4.744567871E-1
7.459828871E0,1.651702881E0,2.182312012E-1,5.706329346E-1
7.469899672E0,1.731079102E0,2.818603516E-1,6.611480713E-1
7.479939955E0,1.736419678E0,3.121490479E-1,7.044982910E-1
7.490010756E0,1.593399048E0,2.883758545E-1,6.871948242E-1
7.500112075E0,1.439102173E0,2.539062500E-1,6.250762939E-1
7.510182875E0,1.294036865E0,2.153167725E-1,5.485687256E-1
7.520253676E0,1.157684326E0,1.692047119E-1,4.740142822E-1
7.530324477E0,1.030456543E0,1.329040527E-1,3.970794678E-1
7.540364760E0,8.312988281E-1,8.398437500E-2,3.042144775E-1
7.550435561E0,5.972595215E-1,4.766845703E-2,1.985168457E-1
7.560506362E0,3.320007324E-1,1.831054688E-2,1.054534912E-1
7.570607680E0,9.333801270E-2,-2.746582031E-4,4.829406738E-2
7.580708998E0,-1.359100342E-1,-2.908325195E-2,2.624511719E-3
7.590901870E0,-3.915710449E-1,-9.800720215E-2,-1.200714111E-1
7.601094741E0,-6.531372070E-1,-2.033996582E-1,-2.975921631E-1
7.611287612E0,-8.752746582E-1,-2.870788574E-1,-4.698486328E-1
7.621480483E0,-1.135498047E0,-3.106689453E-1,-5.619049072E-1
7.631673354E0,-1.309646606E0,-2.735595703E-1,-5.282897949E-1
7.641774672E0,-1.347488403E0,-2.308807373E-1,-4.486999512E-1
7.651967543E0,-1.276473999E0,-1.772918701E-1,-3.482360840E-1
7.661977309E0,-1.215454102E0,-1.341094971E-1,-2.372741699E-1
7.671315688E0,-1.084365845E0,-8.338928223E-2,-1.492004395E-1
7.681386489E0,-9.204559326E-1,-5.845642090E-2,-1.004333496E-1
7.692555922E0,-7.178039551E-1,-2.320861816E-2,-3.439331055E-2
7.701497573E0,-5.750885010E-1,9.155273438E-4,4.968261719E-2
7.711568373E0,-4.886169434E-1,1.953125000E-3,1.078033447E-1
7.721639174E0,-4.140472412E-1,1.388549805E-3,1.422119141E-1
7.731709975E0,-2.838745117E-1,2.104187012E-2,1.675415039E-1
7.741811293E0,-2.161560059E-1,1.924133301E-2,1.837768555E-1
7.751882094E0,-1.175842285E-1,3.601074219E-2,2.038269043E-1
7.761952895E0,-1.083374023E-2,6.193542480E-2,2.211303711E-1
7.772023696E0,5.746459961E-2,7.882690430E-2,2.295074463E-1
7.782063979E0,1.041107178E-1,9.106445312E-2,2.348480225E-1
7.792134780E0,1.258544922E-1,9.584045410E-2,2.519531250E-1
7.802205580E0,1.805877686E-1,1.142883301E-1,2.869110107E-1
7.812276381E0,2.462005615E-1,1.372985840E-1,3.193817139E-1
7.822347182E0,2.893066406E-1,1.538085938E-1,3.205871582E-1
7.832448500E0,2.872009277E-1,1.616973877E-1,2.802886963E-1
7.842519301E0,2.191009521E-1,1.512756348E-1,2.136993408E-1
7.852559584E0,7.365417480E-2,1.151275635E-1,1.355895996E-1
7.862630385E0,-1.036529541E-1,7.667541504E-2,6.536865234E-2
7.872701186E0,-2.395324707E-1,5.253601074E-2,1.654052734E-2
7.882771987E0,-3.100128174E-1,4.562377930E-2,-1.556396484E-3
7.892873305E0,-4.350585938E-1,7.339477539E-3,-6.697082520E-2
7.902944106E0,-5.646820068E-1,-5.253601074E-2,-2.036285400E-1
7.912984389E0,-2.159576416E-1,-4.110717773E-2,-1.261138916E-1
7.923085707E0,-2.809295654E-1,-7.145690918E-2,-2.064056396E-1
7.933156508E0,-9.962921143E-1,-3.011474609E-1,-8.505859375E-1
7.943196791E0,-8.890533447E-1,-3.065490723E-1,-8.605804443E-1
7.953298110E0,-7.925109863E-1,-3.007659912E-1,-8.496398926E-1
7.963368911E0,-7.183227539E-1,-2.892456055E-1,-8.212432861E-1
7.973409194E0,-6.031799316E-1,-2.723236084E-1,-7.737884521E-1
7.983479995E0,-4.420928955E-1,-2.498168945E-1,-7.088165283E-1
7.993581313E0,-2.543487549E-1,-2.241210938E-1,-6.337280273E-1
8.003774184E0,-4.429626465E-2,-1.851043701E-1,-5.480957031E-1
8.013967055E0,1.275787354E-1,-1.488800049E-1,-4.499206543E-1
8.024159926E0,2.378082275E-1,-1.185302734E-1,-3.435363770E-1
8.034352797E0,3.152313232E-1,-7.672119141E-2,-2.359771729E-1
8.044545668E0,3.026885986E-1,-5.357360840E-2,-1.444396973E-1
8.054738539E0,2.601165771E-1,-3.753662109E-2,-7.919311523E-2
8.064961928E0,2.229309082E-1,-2.352905273E-2,-4.512023926E-2
8.074941176E0,2.227935791E-1,3.677368164E-3,3.775024414E-2
8.084218520E0,2.581634521E-1,4.321289062E-2,1.770324707E-1
8.095418471E0,1.041259766E-1,2.911376953E-2,1.132965088E-1
8.104329604E0,1.428222656E-1,4.751586914E-2,1.836395264E-1
8.114430922E0,5.321960449E-1,1.935272217E-1,7.217864990E-1
8.124471205E0,4.981689453E-1,1.910400391E-1,7.022857666E-1
8.134542006E0,4.895477295E-1,1.959075928E-1,6.707305908E-1
8.144643325E0,5.023040771E-1,2.070007324E-1,6.404876709E-1
8.154714125E0,4.960632324E-1,2.079315186E-1,6.086425781E-1
8.164723891E0,1.619873047E-1,6.852722168E-2,1.898193359E-1
8.174703139E0,1.902923584E-1,8.131408691E-2,2.090911865E-1
8.184926528E0,6.052093506E-1,2.695617676E-1,6.462097168E-1
8.194966811E0,4.788513184E-1,2.384338379E-1,5.121765137E-1
8.205037612E0,3.359527588E-1,2.096405029E-1,4.046783447E-1
8.215138930E0,1.854400635E-1,1.804962158E-1,3.182830811E-1
8.225209731E0,7.597351074E-2,1.617584229E-1,2.463836670E-1
8.235250014E0,-3.959655762E-2,1.273498535E-1,1.805419922E-1
8.245320815E0,-4.302978516E-2,3.004455566E-2,4.054260254E-2
8.255422133E0,-7.144165039E-2,2.308654785E-2,3.295898438E-2
8.265492934E0,-8.619689941E-2,1.544189453E-2,2.769470215E-2
8.275533217E0,-9.446716309E-2,6.195068359E-3,1.782226562E-2
8.285634536E0,-9.924316406E-2,-3.463745117E-3,-4.699707031E-3
8.295705336E0,-1.118011475E-1,-1.672363281E-2,-4.069519043E-2
8.305776137E0,-1.367034912E-1,-3.363037109E-2,-8.386230469E-2
8.315755385E0,-1.572723389E-1,-4.679870605E-2,-1.231384277E-1
8.325917739E0,-1.663360596E-1,-5.307006836E-2,-1.500091553E-1
8.335958022E0,-1.559143066E-1,-5.172729492E-2,-1.653442383E-1
8.346028823E0,-1.322784424E-1,-4.541015625E-2,-1.711425781E-1
8.356099623E0,-9.660339355E-2,-3.443908691E-2,-1.716613770E-1
8.366200942E0,-2.147827148E-1,-8.674621582E-2,-5.066680908E-1
8.376271743E0,-8.174133301E-2,-4.751586914E-2,-3.838043213E-1
8.386312026E0,-2.371215820E-2,-3.660583496E-2,-2.891387939E-1
8.396413344E0,4.425048828E-2,-2.250671387E-2,-2.115478516E-1
8.406606215E0,1.135864258E-1,-1.203918457E-2,-1.461334229E-1
8.416799086E0,1.807708740E-1,-4.394531250E-3,-8.938598633E-2
8.427022475E0,2.364959717E-1,3.601074219E-3,-4.605102539E-2
8.437215346E0,8.163452148E-2,-2.029418945E-3,-5.691528320E-3
8.447408217E0,1.029968262E-1,-2.471923828E-3,8.392333984E-4
8.457601088E0,1.256256104E-1,4.577636719E-4,1.626586914E-2
8.467702407E0,1.487426758E-1,6.500244141E-3,3.883361816E-2
8.477803725E0,1.711273193E-1,1.535034180E-2,6.224060059E-2
8.487020034E0,1.848144531E-1,2.252197266E-2,8.052062988E-2
8.498250502E0,5.628509521E-1,8.392333984E-2,2.739868164E-1
8.507192153E0,4.456024170E-1,8.181762695E-2,2.424468994E-1
8.517232436E0,3.545837402E-1,8.041381836E-2,2.138519287E-1
8.527303237E0,2.972869873E-1,7.771301270E-2,1.877593994E-1
8.537374037E0,2.092285156E-1,7.374572754E-2,1.613616943E-1
8.547475356E0,8.380126953E-2,7.197570801E-2,1.356811523E-1
8.557546157E0,-5.516052246E-2,7.347106934E-2,1.112213135E-1
8.567586440E0,-1.772308350E-1,7.119750977E-2,9.034729004E-2
8.577657241E0,-2.276458740E-1,7.073974609E-2,7.221984863E-2
8.587728041E0,-7.817077637E-2,2.114868164E-2,1.956176758E-2
8.597829360E0,-8.700561523E-2,2.075195312E-2,2.008056641E-2
8.607900161E0,-8.799743652E-2,1.881408691E-2,2.005004883E-2
8.617940444E0,-8.415222168E-2,1.542663574E-2,1.889038086E-2
8.628011245E0,-8.673095703E-2,8.148193359E-3,1.722717285E-2
8.638082045E0,-1.006774902E-1,-3.616333008E-3,1.296997070E-2
8.648183364E0,-1.099700928E-1,-1.208496094E-2,5.203247070E-3
8.658254164E0,-1.176452637E-1,-1.898193359E-2,-6.439208984E-3
8.668294448E0,-1.307373047E-1,-2.772521973E-2,-2.073669434E-2
8.678365248E0,-1.321411133E-1,-3.131103516E-2,-3.494262695E-2
8.688436049E0,-1.334075928E-1,-3.451538086E-2,-4.780578613E-2
8.698537368E0,-1.327514648E-1,-3.665161133E-2,-5.706787109E-2
8.708608168E0,-1.309661865E-1,-3.785705566E-2,-6.320190430E-2
8.718648452E0,-1.271514893E-1,-3.808593750E-2,-6.669616699E-2
8.728719252E0,-1.211547852E-1,-3.753662109E-2,-6.777954102E-2
8.738820571E0,-3.404846191E-1,-1.079559326E-1,-2.013854980E-1
8.748891371E0,-2.304077148E-1,-7.633972168E-2,-1.547546387E-1
8.758962172E0,-1.385803223E-1,-5.813598633E-2,-1.171722412E-1
8.769002455E0,-6.678771973E-2,-5.834960938E-2,-8.621215820E-2
8.779073256E0,6.439208984E-3,-1.968383789E-2,-2.052307129E-2
8.789174575E0,3.919982910E-2,-2.154541016E-2,-1.766967773E-2
8.799275893E0,6.144714355E-2,-2.488708496E-2,-1.524353027E-2
8.809438246E0,7.112121582E-2,-2.574157715E-2,-1.325988770E-2
8.819661635E0,7.119750977E-2,-2.653503418E-2,-1.182556152E-2
8.829885024E0,7.174682617E-2,-2.482604980E-2,-1.094055176E-2
8.840077895E0,7.096862793E-2,-2.156066895E-2,-1.084899902E-2
8.850270766E0,7.060241699E-2,-1.704406738E-2,-1.129150391E-2
8.860494155E0,6.980895996E-2,-1.216125488E-2,-1.171875000E-2
8.870534438E0,6.658935547E-2,-8.773803711E-3,-1.348876953E-2
8.880696791E0,5.850219727E-2,-8.102416992E-3,-1.763916016E-2
8.889852065E0,4.858398438E-2,-9.109497070E-3,-2.458190918E-2
8.901113051E0,4.043579102E-2,-9.811401367E-3,-3.280639648E-2
8.910024184E0,3.384399414E-2,-1.031494141E-2,-4.037475586E-2
8.920094985E0,2.734375000E-2,-1.075744629E-2,-4.544067383E-2
8.930165786E0,2.246093750E-2,-1.077270508E-2,-4.730224609E-2
8.940236586E0,1.741027832E-2,-1.077270508E-2,-4.718017578E-2
8.950276870E0,1.231384277E-2,-1.103210449E-2,-4.673767090E-2
8.960347670E0,6.225585938E-3,-1.116943359E-2,-4.612731934E-2
8.970448989E0,-4.074096680E-3,-1.104736328E-2,-4.588317871E-2
8.980519789E0,-1.641845703E-2,-8.529663086E-3,-4.571533203E-2
8.990560073E0,-3.280639648E-2,-5.035400391E-3,-4.492187500E-2
9.000661391E0,-4.110717773E-2,1.770019531E-3,-4.357910156E-2
9.010732192E0,-3.906250000E-2,9.506225586E-3,-4.168701172E-2
9.020772475E0,-2.702331543E-2,1.568603516E-2,-3.939819336E-2
9.030873793E0,-9.948730469E-3,2.047729492E-2,-3.639221191E-2
9.040944594E0,8.758544922E-3,2.357482910E-2,-3.196716309E-2
9.050984877E0,2.593994141E-2,2.667236328E-2,-2.729797363E-2
9.061086196E0,3.588867188E-2,2.815246582E-2,-2.238464355E-2
9.071156996E0,4.368591309E-2,2.960205078E-2,-1.791381836E-2
9.081227797E0,5.322265625E-2,2.911376953E-2,-1.452636719E-2
9.091268080E0,6.039428711E-2,2.659606934E-2,-1.168823242E-2
9.101369399E0,6.311035156E-2,2.401733398E-2,-7.476806641E-3
9.111440200E0,6.118774414E-2,2.252197266E-2,-2.182006836E-3
9.121480483E0,5.508422852E-2,2.140808105E-2,2.624511719E-3
9.131581801E0,4.692077637E-2,2.003479004E-2,6.500244141E-3
9.141622084E0,4.205322266E-2,1.930236816E-2,1.014709473E-2
9.151692885E0,4.138183594E-2,1.899719238E-2,1.399230957E-2
9.161794203E0,3.840637207E-2,1.957702637E-2,1.776123047E-2
9.171865004E0,3.382873535E-2,2.081298828E-2,2.133178711E-2
9.181905287E0,2.975463867E-2,2.201843262E-2,2.435302734E-2
9.191976088E0,3.071594238E-2,2.267456055E-2,2.720642090E-2
9.202199477E0,3.413391113E-2,2.273559570E-2,2.944946289E-2
9.212392348E0,3.837585449E-2,2.262878418E-2,3.140258789E-2
9.222585219E0,4.142761230E-2,2.227783203E-2,3.295898438E-2
9.232808608E0,4.209899902E-2,2.169799805E-2,3.416442871E-2
9.243001479E0,4.255676270E-2,2.101135254E-2,3.565979004E-2
9.253133315E0,4.481506348E-2,2.024841309E-2,3.691101074E-2
9.263387221E0,4.673767090E-2,1.971435547E-2,3.819274902E-2
9.273396987E0,4.765319824E-2,1.904296875E-2,3.865051270E-2
9.282643813E0,4.522705078E-2,1.821899414E-2,3.868103027E-2
9.292714614E0,3.979492188E-2,1.661682129E-2,3.739929199E-2
9.303060073E0,3.407287598E-2,1.464843750E-2,3.555297852E-2
9.312825698E0,2.923583984E-2,1.261901855E-2,3.404235840E-2
9.322927016E0,2.340698242E-2,1.089477539E-2,3.216552734E-2
9.332967299E0,1.803588867E-2,9.689331055E-3,3.083801270E-2
9.343038100E0,1.313781738E-2,8.819580078E-3,2.972412109E-2
9.353139418E0,9.170532227E-3,8.193969727E-3,2.857971191E-2
9.363210219E0,7.186889648E-3,8.026123047E-3,2.795410156E-2
9.373250502E0,6.820678711E-3,7.919311523E-3,2.764892578E-2
9.383321303E0,6.240844727E-3,7.751464844E-3,2.740478516E-2
9.393422621E0,3.921508789E-3,7.049560547E-3,2.581787109E-2
9.403493422E0,9.002685547E-4,6.149291992E-3,2.398681641E-2
9.413564223E0,-1.953125000E-3,4.867553711E-3,2.163696289E-2
9.423604506E0,-3.967285156E-3,3.448486328E-3,1.992797852E-2
9.433705825E0,-5.844116211E-3,1.953125000E-3,1.777648926E-2
9.443776625E0,-7.019042969E-3,7.476806641E-4,1.603698730E-2
9.453847426E0,-7.476806641E-3,1.678466797E-4,1.586914062E-2
9.463887709E0,-5.432128906E-3,-2.746582031E-4,1.519775391E-2
9.473958510E0,-1.586914062E-3,-8.697509766E-4,1.528930664E-2
9.484059828E0,3.417968750E-3,-1.708984375E-3,1.492309570E-2
9.494130629E0,9.445190430E-3,-2.899169922E-3,1.368713379E-2
9.504170912E0,1.309204102E-2,-4.135131836E-3,1.202392578E-2
9.514241713E0,1.603698730E-2,-5.508422852E-3,1.081848145E-2
9.524312514E0,1.852416992E-2,-6.408691406E-3,9.384155273E-3
9.534413832E0,2.104187012E-2,-7.781982422E-3,7.965087891E-3
9.544455888E0,2.023315430E-2,-9.048461914E-3,5.462646484E-3
9.554557206E0,1.895141602E-2,-1.033020020E-2,2.517700195E-3
9.564628007E0,1.800537109E-2,-1.113891602E-2,6.561279297E-4
9.574698808E0,1.757812500E-2,-1.181030273E-2,-6.103515625E-5
9.584739091E0,1.683044434E-2,-1.191711426E-2,-9.155273438E-5
9.594901444E0,1.548767090E-2,-1.173400879E-2,-4.272460938E-4
9.605094315E0,1.445007324E-2,-1.287841797E-2,-1.647949219E-3
9.615287186E0,1.335144043E-2,-1.364135742E-2,-3.479003906E-3
9.625510575E0,1.400756836E-2,-1.541137695E-2,-6.072998047E-3
9.635703446E0,1.510620117E-2,-1.675415039E-2,-8.850097656E-3
9.645896317E0,1.766967773E-2,-1.858520508E-2,-1.185607910E-2
9.656089188E0,2.047729492E-2,-1.966857910E-2,-1.422119141E-2
9.666159989E0,2.381896973E-2,-2.064514160E-2,-1.649475098E-2
9.675376298E0,2.774047852E-2,-2.107238770E-2,-1.791381836E-2
9.685447099E0,3.140258789E-2,-2.085876465E-2,-1.805114746E-2
9.695517899E0,3.367614746E-2,-1.979064941E-2,-1.710510254E-2
9.705954911E0,3.488159180E-2,-1.846313477E-2,-1.596069336E-2
9.715659501E0,3.598022461E-2,-1.725769043E-2,-1.499938965E-2
9.725730302E0,3.448486328E-2,-1.571655273E-2,-1.390075684E-2
9.735801102E0,3.096008301E-2,-1.440429688E-2,-1.342773438E-2
9.745871903E0,2.696228027E-2,-1.293945312E-2,-1.295471191E-2
9.755942704E0,2.339172363E-2,-1.184082031E-2,-1.272583008E-2
9.766044022E0,1.971435547E-2,-1.042175293E-2,-1.182556152E-2
9.776084306E0,1.765441895E-2,-9.246826172E-3,-1.104736328E-2
9.786155106E0,1.484680176E-2,-8.193969727E-3,-1.066589355E-2
9.796225907E0,9.109497070E-3,-6.835937500E-3,-1.029968262E-2
9.806296708E0,2.105712891E-3,-5.081176758E-3,-9.368896484E-3
9.816367509E0,-3.448486328E-3,-4.531860352E-3,-1.045227051E-2
9.826438309E0,-5.950927734E-3,-3.860473633E-3,-1.071166992E-2
9.836539628E0,-6.484985352E-3,-3.768920898E-3,-1.150512695E-2
9.846610429E0,-5.645751953E-3,-4.104614258E-3,-1.280212402E-2
9.856681229E0,-4.959106445E-3,-4.516601562E-3,-1.383972168E-2
9.866721513E0,-6.057739258E-3,-5.386352539E-3,-1.631164551E-2
9.876822831E0,-7.324218750E-3,-5.874633789E-3,-1.774597168E-2
9.886863114E0,-9.765625000E-3,-6.851196289E-3,-2.067565918E-2
9.896933915E0,-1.177978516E-2,-8.071899414E-3,-2.359008789E-2
9.907035233E0,-1.472473145E-2,-9.902954102E-3,-2.790832520E-2
9.917106034E0,-1.844787598E-2,-1.252746582E-2,-3.398132324E-2
9.927146317E0,-2.302551270E-2,-1.556396484E-2,-4.072570801E-2
9.937247636E0,-2.851867676E-2,-1.896667480E-2,-4.817199707E-2
9.947287919E0,-3.285217285E-2,-2.243041992E-2,-5.531311035E-2
9.957358720E0,-3.576660156E-2,-2.603149414E-2,-6.224060059E-2
9.967460038E0,-3.785705566E-2,-3.033447266E-2,-7.046508789E-2
9.977561356E0,-3.681945801E-2,-3.430175781E-2,-7.769775391E-2
9.987601640E0,-3.121948242E-2,-3.759765625E-2,-8.288574219E-2
9.997733475E0,-2.085876465E-2,-3.996276855E-2,-8.525085449E-2
1.000795686E1,-6.454467773E-3,-4.179382324E-2,-8.580017090E-2
1.001814974E1,1.013183594E-2,-4.324340820E-2,-8.518981934E-2
1.002834261E1,2.815246582E-2,-4.441833496E-2,-8.392333984E-2
1.003853548E1,4.550170898E-2,-4.527282715E-2,-8.221435547E-2
1.004872835E1,5.915832520E-2,-4.595947266E-2,-8.091735840E-2
1.005892122E1,6.994628906E-2,-4.673767090E-2,-8.018493652E-2
1.006896150E1,7.699584961E-2,-4.756164551E-2,-8.001708984E-2
1.007823885E1,8.110046387E-2,-4.850769043E-2,-8.044433594E-2
1.008830965E1,8.389282227E-2,-4.913330078E-2,-8.042907715E-2
1.009838045E1,8.660888672E-2,-4.924011230E-2,-7.968139648E-2
1.010973299E1,9.220886230E-2,-4.873657227E-2,-7.740783691E-2
1.011852205E1,1.011199951E-1,-4.829406738E-2,-7.470703125E-2
1.012859285E1,1.080017090E-1,-4.701232910E-2,-7.063293457E-2
1.013863313E1,1.122741699E-1,-4.516601562E-2,-6.575012207E-2
1.014870393E1,1.158599854E-1,-4.335021973E-2,-6.092834473E-2
1.015880525E1,3.588256836E-1,-1.239166260E-1,-1.610870361E-1
1.016887605E1,2.856597900E-1,-1.009826660E-1,-8.740234375E-2
1.017894685E1,2.861022949E-1,-6.550598145E-2,-1.094055176E-2
1.018898714E1,3.234100342E-1,-2.641296387E-2,6.425476074E-2
1.019905794E1,3.803405762E-1,9.597778320E-3,1.251678467E-1
1.020912874E1,1.435241699E-1,1.541137695E-2,5.632019043E-2
1.021923006E1,1.868286133E-1,3.013610840E-2,7.699584961E-2
1.022930086E1,6.446685791E-1,1.247253418E-1,2.854919434E-1
1.023934114E1,6.157989502E-1,1.520233154E-1,2.756958008E-1
1.024941194E1,5.988159180E-1,1.744689941E-1,2.666015625E-1
1.025951326E1,5.163269043E-1,1.654663086E-1,2.615051270E-1
1.026958406E1,4.595947266E-1,1.619567871E-1,2.606048584E-1
1.027965486E1,4.084472656E-1,1.567535400E-1,2.687683105E-1
1.028972566E1,3.643951416E-1,1.428985596E-1,2.800750732E-1
1.029979646E1,3.159942627E-1,1.363983154E-1,2.944183350E-1
1.030983675E1,2.395324707E-1,1.472015381E-1,3.145294189E-1
1.031990755E1,1.053314209E-1,1.653594971E-1,3.352813721E-1
1.032991731E1,-9.274291992E-2,1.887969971E-1,3.486633301E-1
1.034007967E1,-3.170318604E-1,2.223510742E-1,3.568420410E-1
1.035011995E1,-5.032501221E-1,2.494812012E-1,3.635406494E-1
1.036019075E1,-5.628356934E-1,2.917175293E-1,3.735198975E-1
1.037026155E1,-5.415649414E-1,3.301544189E-1,4.030914307E-1
1.038033235E1,-4.531250000E-1,3.778839111E-1,4.431610107E-1
1.039040315E1,-2.502288818E-1,3.962860107E-1,4.821472168E-1
1.040050447E1,-6.652832031E-3,3.927612305E-1,4.974822998E-1
1.041069734E1,2.182922363E-1,3.668975830E-1,4.828338623E-1
1.042092073E1,3.801422119E-1,3.243103027E-1,4.467620850E-1
1.043111360E1,4.518890381E-1,2.760162354E-1,3.983459473E-1
1.044130647E1,4.972381592E-1,2.490081787E-1,3.501434326E-1
1.045149934E1,4.567260742E-1,2.092285156E-1,3.023223877E-1
1.046169222E1,4.122161865E-1,1.778564453E-1,2.534179688E-1
1.047170198E1,3.175811768E-1,1.391906738E-1,2.009429932E-1
1.048104036E1,1.189880371E-1,9.323120117E-2,1.537322998E-1
1.049111116E1,-9.811401367E-2,8.847045898E-2,1.199340820E-1
1.050118196E1,-3.593444824E-1,1.162719727E-1,1.069793701E-1
1.051164949E1,-5.958404541E-1,1.608428955E-1,1.224822998E-1
1.052132356E1,-6.049804688E-1,2.018890381E-1,1.858367920E-1
1.053142488E1,-4.133453369E-1,2.347259521E-1,2.986602783E-1
1.054149568E1,1.756286621E-2,2.733459473E-1,4.479064941E-1
1.055153597E1,4.678344727E-1,2.904205322E-1,6.026611328E-1
1.056160677E1,8.004150391E-1,2.898406982E-1,7.195587158E-1
1.057167757E1,1.016220093E0,2.933349609E-1,7.732849121E-1
1.058177889E1,1.035583496E0,2.993927002E-1,7.415008545E-1
1.059184969E1,1.155471802E0,2.201995850E-1,6.414489746E-1
1.060188997E1,1.414093018E0,7.858276367E-2,5.116424561E-1
1.061196077E1,1.647903442E0,-8.682250977E-2,3.803710938E-1
1.062203157E1,1.849273682E0,-2.277526855E-1,2.762908936E-1
1.063213289E1,1.874084473E0,-3.105926514E-1,2.115783691E-1
1.064220369E1,1.743118286E0,-3.376770020E-1,1.677093506E-1
1.065224397E1,1.477050781E0,-3.285980225E-1,1.272583008E-1
1.066231477E1,1.107376099E0,-2.995910645E-1,9.857177734E-2
1.067238558E1,8.689727783E-1,-2.442779541E-1,9.619140625E-2
1.068248689E1,7.687988281E-1,-1.876220703E-1,1.271972656E-1
1.069255769E1,7.895202637E-1,-1.444091797E-1,1.871490479E-1
1.070262850E1,9.174957275E-1,-1.178741455E-1,2.668151855E-1
1.071266878E1,1.156982422E0,-9.907531738E-2,3.509063721E-1
1.072273958E1,1.418930054E0,-1.011047363E-1,4.211883545E-1
1.073284090E1,1.673782349E0,-1.294250488E-1,4.644927979E-1
1.074288118E1,1.838226318E0,-1.756744385E-1,4.676971436E-1
1.075295198E1,1.806015015E0,-2.106323242E-1,4.250946045E-1
1.076305330E1,1.528701782E0,-1.834869385E-1,3.410034180E-1
1.077312410E1,1.032318115E0,-1.115264893E-1,2.315063477E-1
1.078316438E1,5.596008301E-1,-4.788208008E-2,1.313171387E-1
1.079323518E1,2.680206299E-1,-1.708984375E-3,6.501770020E-2
1.080339754E1,1.923370361E-1,6.423950195E-3,4.020690918E-2
1.081362093E1,-8.401489258E-2,5.116271973E-2,-2.247619629E-2
1.082381380E1,-5.248413086E-1,1.567382812E-1,-9.793090820E-2
1.083400667E1,-9.044189453E-1,3.053131104E-1,-1.541442871E-1
1.084419954E1,-1.124710083E0,4.190063477E-1,-1.743774414E-1
1.085439241E1,-9.981536865E-1,4.447784424E-1,-1.434020996E-1
1.086458528E1,-8.551177979E-1,4.318389893E-1,-7.075500488E-2
1.087462556E1,-6.625671387E-1,4.399414062E-1,1.443481445E-2
1.088390291E1,-3.769226074E-1,4.575805664E-1,9.329223633E-2
1.089397371E1,-6.159973145E-2,4.731445312E-1,1.500396729E-1
1.090401399E1,2.080688477E-1,4.701843262E-1,1.959991455E-1
1.091539705E1,4.031982422E-1,4.489746094E-1,2.344207764E-1
1.092418611E1,5.942382812E-1,4.102935791E-1,2.549438477E-1
1.093422640E1,8.962402344E-1,3.597717285E-1,2.378234863E-1
1.094432771E1,1.017929077E0,2.794342041E-1,1.616821289E-1
1.095439852E1,1.037216187E0,1.634674072E-1,4.920959473E-2
1.096446932E1,1.244522095E0,3.323364258E-2,-3.880310059E-2
1.097450960E1,1.544494629E0,-1.568450928E-1,-1.014556885E-1
1.098461092E1,1.948135376E0,-3.853302002E-1,-1.348419189E-1
1.099468172E1,2.271209717E0,-5.044555664E-1,-1.088714600E-1
1.100472200E1,2.243850708E0,-5.018005371E-1,-4.876708984E-2
1.101482332E1,2.101593018E0,-4.301757812E-1,2.792358398E-3
1.102489412E1,1.989288330E0,-4.012908936E-1,2.317810059E-2
1.103496492E1,1.673889160E0,-4.056091309E-1,4.974365234E-3
1.104500520E1,1.116546631E0,-4.340209961E-1,-6.153869629E-2
1.105510652E1,3.041687012E-1,-4.770202637E-1,-1.668395996E-1
1.106517732E1,-5.447387695E-1,-4.924011230E-1,-2.724304199E-1
1.107521761E1,-1.209884644E0,-5.008697510E-1,-3.146209717E-1
1.108528841E1,-1.550170898E0,-4.803161621E-1,-2.886505127E-1
1.109535921E1,-1.988937378E0,-5.271453857E-1,-3.503112793E-1
1.110546053E1,-2.528854370E0,-6.240692139E-1,-4.636535645E-1
1.111553133E1,-2.992614746E0,-7.443389893E-1,-5.411987305E-1
1.112557161E1,-3.277420044E0,-8.452453613E-1,-5.315399170E-1
1.113564241E1,-3.378952026E0,-8.867340088E-1,-4.572753906E-1
1.114574373E1,-3.412750244E0,-8.970184326E-1,-3.304290771E-1
1.115578401E1,-3.554244995E0,-9.120330811E-1,-1.684417725E-1
1.116588533E1,-3.795700073E0,-9.432220459E-1,1.647949219E-3
1.117595613E1,-4.456695557E0,-1.015945435E0,6.771850586E-2
1.118602693E1,-4.993774414E0,-1.052398682E0,1.686096191E-1
1.119606722E1,-5.403503418E0,-1.113708496E0,2.685699463E-1
1.120626009E1,-6.069656372E0,-1.217239380E0,2.660064697E-1
1.121645296E1,-7.068649292E0,-1.255401611E0,1.522979736E-1
1.122664583E1,-8.228118896E0,-1.291030884E0,-1.110992432E-1
1.123683870E1,-8.595916748E0,-1.367477417E0,-4.156799316E-1
1.124703157E1,-8.236312866E0,-1.399215698E0,-6.933441162E-1
1.125725496E1,-7.456558228E0,-1.427276611E0,-9.157714844E-1
1.126744783E1,-6.556472778E0,-1.448959351E0,-1.073577881E0
1.127742708E1,-5.699768066E0,-1.484924316E0,-1.176376343E0
1.128673494E1,-4.859085083E0,-1.520690918E0,-1.242858887E0
1.129677522E1,-3.983901978E0,-1.551559448E0,-1.287002563E0
1.130684602E1,-3.165054321E0,-1.642272949E0,-1.311599731E0
1.131825960E1,-2.514404297E0,-1.754776001E0,-1.302719116E0
1.132698763E1,-1.836318970E0,-1.850296021E0,-1.246917725E0
1.133708894E1,-1.239349365E0,-1.983291626E0,-1.077087402E0
1.134715974E1,-5.967712402E-1,-2.151748657E0,-1.015640259E0
1.135720003E1,2.240905762E-1,-2.298004150E0,-1.211471558E0
1.136727083E1,1.100982666E0,-2.502853394E0,-1.685363770E0
1.137734163E1,1.913894653E0,-2.756896973E0,-2.354141235E0
1.138744295E1,3.001800537E0,-3.112472534E0,-3.238693237E0
1.139751375E1,4.108032227E0,-3.532775879E0,-4.192337036E0
1.140755403E1,4.972412109E0,-3.920822144E0,-5.071044922E0
1.141762483E1,5.115570068E0,-4.025802612E0,-5.030105591E0
1.142772615E1,4.705261230E0,-3.860916138E0,-4.294052124E0
1.143779695E1,4.728881836E0,-3.680175781E0,-3.547378540E0
1.144783724E1,5.735824585E0,-3.604461670E0,-3.046539307E0
1.145790804E1,6.542053223E0,-3.292358398E0,-2.455337524E0
1.146800935E1,6.541091919E0,-2.791946411E0,-1.869720459E0
1.147801912E1,6.500839233E0,-2.204803467E0,-1.356414795E0
1.148815096E1,6.037277222E0,-1.503311157E0,-6.167297363E-1
1.149822176E1,5.262634277E0,-6.940612793E-1,1.572875977E-1
1.150826204E1,4.116210938E0,9.732055664E-2,9.591979980E-1
1.151836336E1,2.907211304E0,7.252655029E-1,1.622177124E0
1.152843416E1,1.912307739E0,1.111557007E0,1.995285034E0
1.153847444E1,1.365020752E0,1.219650269E0,1.918930054E0
1.154857576E1,9.034576416E-1,1.152008057E0,1.669860840E0
1.155861604E1,5.205230713E-1,1.090438843E0,1.511215210E0
1.156871736E1,2.634277344E-1,1.084243774E0,1.403945923E0
1.157878816E1,2.504577637E-1,1.078994751E0,1.136688232E0
1.158885896E1,3.009490967E-1,1.157653809E0,8.408050537E-1
1.159889925E1,3.075408936E-1,1.288986206E0,6.371002197E-1
1.160909212E1,2.430419922E-1,1.456863403E0,5.326080322E-1
1.161931551E1,-5.630493164E-3,1.673706055E0,6.128234863E-1
1.162950838E1,-7.290954590E-1,2.107910156E0,1.164260864E0
1.163967073E1,-1.330276489E0,2.314208984E0,1.437484741E0
1.164989412E1,-1.711898804E0,2.413650513E0,1.466918945E0
1.166008699E1,-1.741500854E0,2.394454956E0,1.253372192E0
1.167031038E1,-1.522583008E0,2.394882202E0,9.393005371E-1
1.168028963E1,-1.320632935E0,2.416519165E0,6.959075928E-1
1.168956697E1,-1.229324341E0,2.447219849E0,5.293121338E-1
1.169960726E1,-1.402069092E0,2.555541992E0,5.709686279E-1
1.170967806E1,-1.930374146E0,2.870040894E0,8.130950928E-1
1.172109163E1,-2.050994873E0,3.021850586E0,8.283386230E-1
1.172985018E1,-1.880172729E0,3.106781006E0,6.726989746E-1
1.173989046E1,-1.788650513E0,3.134460449E0,5.601196289E-1
1.174996126E1,-1.403640747E0,2.999038696E0,4.056854248E-1
1.176003206E1,-1.099578857E0,2.886138916E0,3.086090088E-1
1.177013338E1,-7.362976074E-1,2.826492310E0,2.173461914E-1
1.178020418E1,-3.394470215E-1,2.841857910E0,1.557769775E-1
1.179024446E1,2.495574951E-1,2.781570435E0,7.334899902E-2
1.180031526E1,8.390808105E-1,2.670867920E0,1.492309570E-2
1.181038606E1,1.288345337E0,2.579803467E0,9.030151367E-2
1.182048738E1,1.656280518E0,2.477706909E0,2.602844238E-1
1.183055818E1,2.010421753E0,2.331008911E0,3.422393799E-1
1.184059847E1,2.520355225E0,2.208816528E0,2.901611328E-1
1.185066927E1,3.018737793E0,2.088470459E0,3.045043945E-1
1.186077059E1,3.470581055E0,1.949203491E0,3.363800049E-1
1.187084139E1,3.955245972E0,1.833129883E0,3.510437012E-1
1.188091219E1,4.386489868E0,1.689926147E0,3.684539795E-1
1.189095247E1,4.681411743E0,1.524444580E0,3.363494873E-1
1.190102327E1,4.837951660E0,1.361572266E0,3.666076660E-1
1.191112459E1,4.799438477E0,1.171035767E0,3.544158936E-1
1.192119539E1,4.796661377E0,1.024826050E0,2.902984619E-1
1.193123567E1,4.626876831E0,8.699798584E-1,2.294006348E-1
1.194130647E1,4.482467651E0,7.465972900E-1,1.467437744E-1
1.195140779E1,4.144699097E0,6.299743652E-1,7.470703125E-2
1.196144808E1,3.807723999E0,5.145263672E-1,3.097534180E-3
1.197154939E1,3.491806030E0,3.596954346E-1,-5.232238770E-2
1.198158968E1,3.409072876E0,1.822509766E-1,-8.779907227E-2
1.199166048E1,3.401565552E0,7.614135742E-3,-9.202575684E-2
1.200176180E1,3.437728882E0,-1.116638184E-1,-7.368469238E-2
1.201192415E1,3.352691650E0,-1.908721924E-1,-3.358459473E-2
1.202211702E1,3.140090942E0,-2.254943848E-1,-1.464843750E-3
1.203227937E1,2.791290283E0,-2.328643799E-1,-5.691528320E-3
1.204250276E1,2.336380005E0,-2.273559570E-1,-5.960083008E-2
1.205269563E1,1.903991699E0,-1.755676270E-1,-1.389617920E-1
1.206291902E1,1.565261841E0,-1.075897217E-1,-1.988067627E-1
1.207311189E1,1.303878784E0,-3.106689453E-2,-2.349395752E-1
1.208312166E1,9.088287354E-1,3.681945801E-2,-3.563232422E-1
1.209236849E1,5.090332031E-1,1.011047363E-1,-4.943084717E-1
1.210243929E1,1.122589111E-1,1.963806152E-1,-5.877990723E-1
1.211254060E1,-2.121276855E-1,2.993774414E-1,-6.274719238E-1
1.212392366E1,-3.592376709E-1,3.903045654E-1,-6.340484619E-1
1.213265169E1,-3.535308838E-1,3.725433350E-1,-5.877075195E-1
1.214275301E1,-3.255157471E-1,3.209991455E-1,-5.867156982E-1
1.215282381E1,-4.123229980E-1,2.971343994E-1,-6.148986816E-1
1.216289461E1,-5.146942139E-1,2.651214600E-1,-6.461944580E-1
1.217293489E1,-5.000457764E-1,1.985321045E-1,-6.716918945E-1
1.218303621E1,-4.913330078E-1,8.003234863E-2,-6.922454834E-1
1.219310701E1,-4.928894043E-1,-1.073608398E-1,-7.477569580E-1
1.220317781E1,-4.790649414E-1,-3.085479736E-1,-7.656860352E-1
1.221321810E1,-4.968566895E-1,-4.581604004E-1,-7.231597900E-1
1.222328890E1,-5.021514893E-1,-5.438385010E-1,-6.758880615E-1
1.223339021E1,-4.783935547E-1,-6.241912842E-1,-6.323547363E-1
1.224346102E1,-3.964385986E-1,-6.665039062E-1,-5.847167969E-1
1.225353182E1,-3.403778076E-1,-5.959625244E-1,-4.785308838E-1
1.226357210E1,-4.621582031E-1,-5.166473389E-1,-3.606262207E-1
1.227367342E1,-7.640075684E-1,-4.818115234E-1,-2.487792969E-1
1.228374422E1,-1.168884277E0,-4.501190186E-1,-1.294097900E-1
1.229381502E1,-1.427780151E0,-4.392547607E-1,-1.992797852E-2
1.230385530E1,-1.689682007E0,-2.775115967E-1,8.634948730E-2
1.231392610E1,-2.119873047E0,3.591918945E-2,2.296447754E-1
1.232399690E1,-2.493621826E0,1.623382568E-1,3.489990234E-1
1.233409822E1,-2.745391846E0,9.771728516E-2,4.002685547E-1
1.234416902E1,-3.073120117E0,-7.553100586E-3,4.162292480E-1
1.235423982E1,-3.510299683E0,-1.163024902E-1,3.940734863E-1
1.236431062E1,-3.804626465E0,-3.039093018E-1,3.598480225E-1
1.237438143E1,-3.754394531E0,-4.974060059E-1,3.678588867E-1
1.238442171E1,-3.787597656E0,-6.856079102E-1,4.336090088E-1
1.239449251E1,-3.890518188E0,-8.659667969E-1,4.826812744E-1
1.240456331E1,-4.250091553E0,-1.070434570E0,5.004425049E-1
1.241472566E1,-4.761703491E0,-1.259338379E0,4.972381592E-1
1.242491853E1,-5.223831177E0,-1.370574951E0,4.624176025E-1
1.243511140E1,-5.790740967E0,-1.437118530E0,4.343566895E-1
1.244530428E1,-6.288665771E0,-1.489852905E0,3.585205078E-1
1.245546663E1,-6.728195190E0,-1.524108887E0,2.047119141E-1
1.246569002E1,-7.157760620E0,-1.568435669E0,3.051757812E-5
1.247588289E1,-7.419006348E0,-1.584182739E0,-2.757873535E-1
1.248595369E1,-7.373352051E0,-1.576065063E0,-5.853271484E-1
1.249608553E1,-6.994842529E0,-1.602981567E0,-8.770294189E-1
1.250530184E1,-6.150070190E0,-1.692398071E0,-1.190521240E0
1.251537264E1,-4.721786499E0,-1.968093872E0,-1.432144165E0
1.252666414E1,-2.372253418E0,-2.484191895E0,-1.525192261E0
1.253548372E1,1.284484863E-1,-3.086151123E0,-1.708557129E0
1.254558504E1,2.540054321E0,-3.633590698E0,-2.055557251E0
1.255565584E1,4.436660767E0,-4.096374512E0,-2.616897583E0
1.256569612E1,5.436798096E0,-4.388687134E0,-3.083602905E0
1.257576692E1,5.904739380E0,-4.542755127E0,-3.343307495E0
1.258586824E1,5.978607178E0,-4.572036743E0,-3.377731323E0
1.259593904E1,5.660110474E0,-4.374145508E0,-3.191986084E0
1.260597933E1,5.290802002E0,-4.121536255E0,-2.966201782E0
1.261605013E1,5.013824463E0,-3.944961548E0,-2.781051636E0
1.262615144E1,4.779800415E0,-3.703430176E0,-2.580917358E0
1.263622224E1,4.716156006E0,-3.399993896E0,-2.327056885E0
1.264629305E1,5.161239624E0,-3.072067261E0,-2.163208008E0
1.265633333E1,4.983657837E0,-2.423385620E0,-1.679153442E0
1.266640413E1,4.113388062E0,-1.752624512E0,-1.135009766E0
1.267650545E1,3.245788574E0,-1.463226318E0,-9.994354248E-1
1.268654573E1,2.552810669E0,-1.117370605E0,-8.087921143E-1
1.269661653E1,2.103271484E0,-8.245391846E-1,-6.426544189E-1
1.270668733E1,1.414825439E0,2.212524414E-2,3.820800781E-2
1.271678865E1,7.228088379E-1,3.248901367E-1,3.421783447E-1
1.272685945E1,-1.932525635E-1,1.053787231E0,1.085601807E0
1.273689974E1,-9.266357422E-1,1.870620728E0,1.813919067E0
1.274697054E1,-1.035797119E0,2.291000366E0,1.987930298E0
1.275707185E1,-8.428955078E-1,2.344665527E0,1.745346069E0
1.276711214E1,-4.203796387E-1,2.097335815E0,1.154281616E0
1.277718294E1,-1.373901367E-1,1.912384033E0,7.730560303E-1
1.278725374E1,-1.013183594E-2,1.724121094E0,5.526733398E-1
1.279735506E1,9.552001953E-2,1.521072388E0,3.266601562E-1
1.280742586E1,1.215209961E-1,1.366241455E0,1.441040039E-1
1.281749666E1,-8.876800537E-1,1.608306885E0,3.305816650E-1
1.282768953E1,-1.773437500E0,2.028167725E0,5.855102539E-1
1.283788240E1,-1.898620605E0,2.207366943E0,6.278839111E-1
1.284807527E1,-1.886352539E0,2.315856934E0,6.722564697E-1
1.285826814E1,-2.139266968E0,2.682388306E0,8.398284912E-1
1.286849153E1,-2.255477905E0,2.929885864E0,8.931732178E-1
1.287868440E1,-2.277725220E0,3.049423218E0,8.491821289E-1
1.288887727E1,-2.256225586E0,3.132675171E0,7.389068604E-1
1.289885652E1,-2.065231323E0,3.128021240E0,5.401611328E-1
1.290810335E1,-1.449569702E0,2.864135742E0,2.625579834E-1
1.291820467E1,-8.790740967E-1,2.608459473E0,9.501647949E-2
1.292946565E1,-3.436889648E-1,2.485870361E0,-2.711486816E-2
1.293834627E1,-1.575012207E-1,2.533187866E0,2.395629883E-2
1.294841707E1,-7.411956787E-1,2.986465454E0,5.045776367E-1
1.295845735E1,-1.112762451E0,3.279190063E0,8.112487793E-1
1.296852815E1,-6.009826660E-1,3.117401123E0,7.542419434E-1
1.297862947E1,3.204498291E-1,2.758453369E0,4.819793701E-1
1.298870027E1,7.476654053E-1,2.520004272E0,2.698822021E-1
1.299874056E1,1.104537964E0,2.345443726E0,1.233215332E-1
1.300881136E1,1.104003906E0,2.321929932E0,6.486511230E-2
1.301891268E1,1.121017456E0,2.308639526E0,8.804321289E-3
1.302898348E1,1.304824829E0,2.228225708E0,-1.724243164E-3
1.303902376E1,1.693115234E0,2.093353271E0,6.765747070E-2
1.304909456E1,2.244522095E0,1.955490112E0,2.186279297E-1
1.305916536E1,2.749496460E0,1.786682129E0,4.325408936E-1
1.306926668E1,3.402633667E0,1.636123657E0,6.422882080E-1
1.307933748E1,3.963088989E0,1.465972900E0,8.036346436E-1
1.308937776E1,4.328643799E0,1.292541504E0,8.531799316E-1
1.309944856E1,4.267425537E0,1.100143433E0,7.793579102E-1
1.310951936E1,4.037948608E0,9.152679443E-1,5.826110840E-1
1.311959016E1,3.831771851E0,7.088775635E-1,3.341979980E-1
1.312966097E1,3.531082153E0,5.491638184E-1,1.654052734E-1
1.313976228E1,3.182006836E0,4.362792969E-1,5.250549316E-2
1.314983309E1,2.967056274E0,3.441009521E-1,-1.464843750E-3
1.315990389E1,2.787658691E0,2.791595459E-1,2.171325684E-2
1.316997469E1,2.705078125E0,2.600250244E-1,9.915161133E-2
1.318001497E1,2.684509277E0,2.638092041E-1,2.006835938E-1
1.319008577E1,2.687652588E0,2.571411133E-1,3.203125000E-1
1.320015657E1,2.715209961E0,2.386322021E-1,4.315032959E-1
1.321022737E1,2.717330933E0,2.381591797E-1,5.269165039E-1
1.322029817E1,2.607208252E0,2.056274414E-1,5.768432617E-1
1.323049104E1,2.483551025E0,1.803436279E-1,5.606994629E-1
1.324068392E1,2.229156494E0,1.397705078E-1,4.792938232E-1
1.325087679E1,1.874038696E0,6.756591797E-2,3.548583984E-1
1.326106966E1,1.522827148E0,-3.814697266E-3,2.258605957E-1
1.327129305E1,1.241806030E0,-3.385925293E-2,1.343994141E-1
1.328157747E1,1.061767578E0,-1.248168945E-2,8.805847168E-2
1.329161775E1,7.368011475E-1,2.548217773E-2,-4.374694824E-2
1.330086458E1,3.819732666E-1,7.852172852E-2,-2.610473633E-1
1.331093538E1,1.686096191E-2,1.227569580E-1,-4.902343750E-1
1.332103670E1,-3.695068359E-1,1.859893799E-1,-6.533813477E-1
1.333144319E1,-6.084136963E-1,2.652587891E-1,-7.418365479E-1
1.334117830E1,-6.384887695E-1,3.193359375E-1,-7.591247559E-1
1.335124910E1,-5.960845947E-1,3.193817139E-1,-7.168579102E-1
1.336131990E1,-5.005950928E-1,2.872314453E-1,-6.542510986E-1
1.337136018E1,-3.845672607E-1,2.475280762E-1,-6.449584961E-1
1.338143099E1,-2.199554443E-1,2.084655762E-1,-6.242065430E-1
1.339150179E1,-8.982849121E-2,1.480255127E-1,-5.281677246E-1
1.340160310E1,1.479339600E-1,1.339874268E-1,-3.757476807E-1
1.341167390E1,2.667236328E-1,1.159820557E-1,-2.582397461E-1
1.342174471E1,2.585754395E-1,1.093597412E-1,-2.175445557E-1
1.343178499E1,2.024383545E-1,5.000305176E-2,-2.492370605E-1
1.344185579E1,2.485656738E-2,-1.054534912E-1,-3.176116943E-1
1.345195711E1,-1.117553711E-1,-5.789337158E-1,-5.042877197E-1
1.346202791E1,-1.558532715E-1,-9.024963379E-1,-6.529998779E-1
1.347209871E1,-2.326965332E-1,-9.189453125E-1,-6.328125000E-1
1.348216951E1,-3.445434570E-1,-9.394836426E-1,-5.994567871E-1
1.349220979E1,-4.352874756E-1,-9.840850830E-1,-5.811920166E-1
1.350228060E1,-5.053253174E-1,-1.001525879E0,-5.425262451E-1
1.351238191E1,-5.711212158E-1,-9.271697998E-1,-4.713134766E-1
1.352245271E1,-6.755981445E-1,-7.270507812E-1,-3.721313477E-1
1.353252352E1,-7.479400635E-1,-4.770965576E-1,-2.562561035E-1
1.354256380E1,-8.130645752E-1,-2.997283936E-1,-1.279754639E-1
1.355263460E1,-8.387298584E-1,-2.357482910E-1,-1.295471191E-2
1.356273592E1,-9.719390869E-1,-1.905059814E-1,9.159851074E-2
1.357277620E1,-1.275588989E0,-1.041259766E-1,1.769256592E-1
1.358284700E1,-1.558151245E0,-1.123046875E-2,3.157958984E-1
1.359291780E1,-1.748977661E0,8.590698242E-3,4.697113037E-1
1.360301912E1,-1.958709717E0,-6.072998047E-2,5.809173584E-1
1.361308992E1,-2.395080566E0,-1.529846191E-1,5.743560791E-1
1.362316072E1,-3.087265015E0,-3.348388672E-1,4.177703857E-1
1.363335359E1,-3.641021729E0,-5.588226318E-1,2.504577637E-1
1.364354646E1,-3.964660645E0,-7.687988281E-1,1.714324951E-1
1.365373934E1,-4.121414185E0,-9.983215332E-1,1.132659912E-1
1.366393221E1,-4.108810425E0,-1.246398926E0,1.212463379E-1
1.367412508E1,-4.128433228E0,-1.368499756E0,2.210845947E-1
1.368434847E1,-4.380477905E0,-1.411590576E0,2.883758545E-1
1.369454134E1,-4.732101440E0,-1.342376709E0,3.561706543E-1
1.370452059E1,-5.406127930E0,-1.286880493E0,3.986968994E-1
1.371376741E1,-6.005722046E0,-1.325393677E0,3.593292236E-1
1.372383821E1,-6.450393677E0,-1.387268066E0,3.105316162E-1
1.373509920E1,-6.618682861E0,-1.493286133E0,2.248077393E-1
1.374401033E1,-6.453582764E0,-1.646530151E0,1.269683838E-1
1.375408113E1,-5.608673096E0,-1.882232666E0,-3.964233398E-2
1.376412142E1,-4.124114990E0,-2.265075684E0,-3.469696045E-1
1.377419222E1,-2.381713867E0,-2.763671875E0,-7.626495361E-1
1.378429353E1,-8.385009766E-1,-3.223785400E0,-1.205261230E0
1.379436434E1,4.683074951E-1,-3.590988159E0,-1.627243042E0
1.380440462E1,1.171707153E0,-3.698303223E0,-1.854232788E0
1.381447542E1,1.385757446E0,-3.682998657E0,-1.888412476E0
1.382457674E1,1.678298950E0,-3.717987061E0,-2.037948608E0
1.383464754E1,2.078445435E0,-3.882431030E0,-2.307632446E0
1.384468782E1,2.493194580E0,-3.994461060E0,-2.495742798E0
1.385478914E1,2.778778076E0,-3.890243530E0,-2.441070557E0
1.386485994E1,2.920791626E0,-3.655532837E0,-2.265106201E0
1.387493074E1,3.152328491E0,-3.490219116E0,-2.147598267E0
1.388497102E1,3.385375977E0,-3.335586548E0,-2.088500977E0
1.389507234E1,3.349334717E0,-3.071701050E0,-1.910430908E0
1.390514314E1,3.173263550E0,-2.773895264E0,-1.740341187E0
1.391521394E1,3.004348755E0,-2.511108398E0,-1.654785156E0
1.392525423E1,2.956939697E0,-2.321289062E0,-1.642639160E0
1.393532503E1,3.000167847E0,-2.146392822E0,-1.597702026E0
1.394542635E1,2.908920288E0,-1.854110718E0,-1.451965332E0
1.395549715E1,2.629058838E0,-1.506500244E0,-1.265014648E0
1.396556795E1,2.226669312E0,-1.016021729E0,-9.694213867E-1
1.397563875E1,1.730941772E0,-4.420928955E-1,-5.559234619E-1
1.398567903E1,1.196304321E0,9.016418457E-2,-9.721374512E-2
1.399574983E1,9.057922363E-1,7.206573486E-1,3.961944580E-1
1.400585115E1,8.322296143E-1,1.375885010E0,7.876434326E-1
1.401592195E1,9.422912598E-1,1.811141968E0,9.061126709E-1
1.402596224E1,1.009780884E0,1.809432983E0,6.866302490E-1
1.403609407E1,8.605651855E-1,1.788650513E0,5.680847168E-1
1.404628694E1,7.067718506E-1,1.729553223E0,4.480895996E-1
1.405647981E1,6.020050049E-1,1.592178345E0,3.013458252E-1
1.406664217E1,5.257568359E-1,1.432907104E0,1.792297363E-1
1.407686556E1,4.138793945E-1,1.389663696E0,1.084594727E-1
1.408705843E1,6.697082520E-2,1.522583008E0,2.029571533E-1
1.409725130E1,-4.543609619E-1,1.793701172E0,3.977508545E-1
1.410747469E1,-1.116241455E0,2.254180908E0,7.158813477E-1
1.411745393E1,-1.638137817E0,2.573791504E0,8.717803955E-1
1.412670076E1,-1.758773804E0,2.617507935E0,7.541351318E-1
1.413790071E1,-1.774230957E0,2.625564575E0,6.307678223E-1
1.414684236E1,-2.083053589E0,2.816833496E0,6.646881104E-1
1.415688265E1,-2.220169067E0,2.947387695E0,6.764373779E-1
1.416698396E1,-2.201187134E0,3.027770996E0,6.686706543E-1
1.417705477E1,-2.171722412E0,3.172668457E0,6.266021729E-1
1.418709505E1,-1.710449219E0,3.011016846E0,4.414825439E-1
1.419716585E1,-1.211944580E0,2.843185425E0,2.673950195E-1
1.420723665E1,-9.506835938E-1,2.878967285E0,2.850646973E-1
1.421733797E1,-9.167480469E-1,3.236785889E0,5.917205811E-1
1.422740877E1,-8.572235107E-1,3.401763916E0,7.785186768E-1
1.423747957E1,-5.757293701E-1,3.260757446E0,6.436614990E-1
1.424751985E1,-3.061218262E-1,2.988296509E0,4.029541016E-1
1.425759065E1,-1.340179443E-1,2.805892944E0,2.293548584E-1
1.426769197E1,9.248352051E-2,2.687835693E0,1.013488770E-1
1.427776277E1,5.099029541E-1,2.542739868E0,7.583618164E-3
1.428780306E1,1.036651611E0,2.357803345E0,-2.136230469E-2
1.429787386E1,1.571426392E0,2.214843750E0,3.839111328E-2
1.430794466E1,2.318740845E0,2.156570435E0,3.130340576E-1
1.431804598E1,2.874694824E0,2.070999146E0,5.412292480E-1
1.432811678E1,3.206878662E0,1.961212158E0,5.973663330E-1
1.433815706E1,3.492858887E0,1.844436646E0,6.908569336E-1
1.434822786E1,3.773406982E0,1.685150146E0,7.644653320E-1
1.435832918E1,3.978759766E0,1.472686768E0,7.891540527E-1
1.436839998E1,4.027969360E0,1.244201660E0,7.559967041E-1
1.437847078E1,3.922821045E0,1.036529541E0,6.710357666E-1
1.438854158E1,3.693725586E0,8.187713623E-1,5.092315674E-1
1.439858186E1,3.391021729E0,6.392211914E-1,3.514556885E-1
1.440868318E1,3.085494995E0,4.914093018E-1,1.909790039E-1
1.441875398E1,2.785598755E0,4.015808105E-1,9.397888184E-2
1.442879427E1,2.624328613E0,3.110504150E-1,6.123352051E-2
1.443889559E1,2.485260010E0,2.346649170E-1,6.953430176E-2
1.444908846E1,2.311141968E0,1.746826172E-1,9.153747559E-2
1.445928133E1,2.121627808E0,1.056671143E-1,1.243286133E-1
1.446947420E1,2.020126343E0,2.536010742E-2,1.779327393E-1
1.447966707E1,2.017852783E0,-5.967712402E-2,2.478942871E-1
1.448989046E1,2.016693115E0,-1.383361816E-1,3.184814453E-1
1.450008333E1,1.967041016E0,-1.860504150E-1,3.494110107E-1
1.451027620E1,1.764526367E0,-2.049713135E-1,3.263702393E-1
1.452028597E1,1.461639404E0,-1.864471436E-1,2.383270264E-1
1.452953279E1,1.152023315E0,-1.411590576E-1,1.248168945E-1
1.454073274E1,8.920593262E-1,-5.683898926E-2,1.144409180E-2
1.454967439E1,7.359008789E-1,3.016662598E-2,-3.486633301E-2
1.455971468E1,6.572113037E-1,7.411193848E-2,-7.476806641E-2
1.456978548E1,3.396453857E-1,1.936645508E-1,-2.164611816E-1
1.457988680E1,-9.059143066E-2,3.832550049E-1,-4.579925537E-1
1.458995760E1,-3.508758545E-1,4.227905273E-1,-5.565643311E-1
1.460002840E1,-3.215332031E-1,3.830261230E-1,-5.343170166E-1
1.461006868E1,-2.031402588E-1,3.308715820E-1,-4.652099609E-1
1.462017000E1,-1.433105469E-1,3.079833984E-1,-4.060363770E-1
1.463024080E1,-1.463623047E-1,3.216400146E-1,-3.691253662E-1
1.464031160E1,-1.048583984E-1,3.355255127E-1,-3.445892334E-1
1.465035188E1,-5.662536621E-2,3.010559082E-1,-3.134307861E-1
1.466042268E1,-1.031494141E-2,2.493438721E-1,-2.933044434E-1
1.467052400E1,-8.209228516E-3,1.526794434E-1,-2.953948975E-1
1.468059480E1,5.703735352E-2,2.304077148E-2,-2.754058838E-1
1.469066560E1,1.575012207E-1,-1.651763916E-1,-2.700195312E-1
1.470070589E1,1.818695068E-1,-4.644165039E-1,-3.045654297E-1
1.471080721E1,1.083984375E-1,-7.272338867E-1,-3.526916504E-1
1.472087801E1,-2.597045898E-2,-8.017425537E-1,-3.903808594E-1
1.473091829E1,-2.021942139E-1,-7.616424561E-1,-4.184112549E-1
1.474098909E1,-4.299316406E-1,-7.259674072E-1,-4.489898682E-1
1.475109041E1,-6.047821045E-1,-7.380218506E-1,-4.872741699E-1
1.476116121E1,-7.869567871E-1,-7.584533691E-1,-5.437316895E-1
1.477123201E1,-9.572448730E-1,-7.343902588E-1,-5.810852051E-1
1.478127229E1,-1.087646484E0,-6.238098145E-1,-5.541076660E-1
1.479128206E1,-1.211883545E0,-4.754486084E-1,-4.758148193E-1
1.480144441E1,-1.374130249E0,-3.736267090E-1,-3.847961426E-1
1.481148470E1,-1.564620972E0,-3.591461182E-1,-3.000488281E-1
1.482158602E1,-1.819564819E0,-3.686981201E-1,-2.135009766E-1
1.483165682E1,-2.110565186E0,-2.992553711E-1,-1.248321533E-1
1.484178865E1,-2.451309204E0,-2.018890381E-1,-3.536987305E-2
1.485201204E1,-2.874969482E0,-1.919555664E-1,5.020141602E-3
1.486220491E1,-3.353729248E0,-2.621307373E-1,-3.912353516E-2
1.487239778E1,-3.800918579E0,-4.752655029E-1,-1.372833252E-1
1.488259065E1,-3.918899536E0,-7.462310791E-1,-1.450958252E-1
1.489278352E1,-4.155059814E0,-9.467010498E-1,-1.313018799E-1
1.490297640E1,-4.380340576E0,-1.097396851E0,-8.654785156E-2
1.491301668E1,-4.548645020E0,-1.197494507E0,5.889892578E-3
1.492229402E1,-4.927062988E0,-1.263641357E0,1.014709473E-1
1.493233431E1,-5.475173950E0,-1.260696411E0,1.730651855E-1
1.494368684E1,-6.179214478E0,-1.254776001E0,1.857452393E-1
1.495250643E1,-6.829055786E0,-1.326599121E0,1.441955566E-1
1.496257722E1,-7.212509155E0,-1.448272705E0,6.230163574E-2
1.497264803E1,-7.285400391E0,-1.596908569E0,2.177429199E-2
1.498271883E1,-7.178222656E0,-1.717071533E0,6.072998047E-3
1.499278963E1,-6.971115112E0,-1.860824585E0,-8.607482910E-2
1.500286043E1,-6.270111084E0,-2.086288452E0,-3.325805664E-1
1.501293123E1,-5.004943848E0,-2.339523315E0,-7.029876709E-1
1.502297151E1,-3.231079102E0,-2.704589844E0,-1.142822266E0
1.503304231E1,-1.372406006E0,-3.120086670E0,-1.584884644E0
1.504314363E1,4.041137695E-1,-3.521362305E0,-1.976928711E0
1.505321443E1,1.793624878E0,-3.881134033E0,-2.330902100E0
1.506325472E1,2.849075317E0,-4.194885254E0,-2.673324585E0
1.507332552E1,3.471618652E0,-4.356002808E0,-2.961715698E0
1.508339632E1,3.460525513E0,-4.260772705E0,-2.921600342E0
1.509349764E1,3.279235840E0,-4.090850830E0,-2.718719482E0
1.510356844E1,3.535079956E0,-4.032623291E0,-2.607513428E0
1.511363924E1,3.847702026E0,-3.901336670E0,-2.429290771E0
1.512367952E1,3.844879150E0,-3.515991211E0,-2.029586792E0
1.513375032E1,3.983444214E0,-3.147872925E0,-1.778381348E0
1.514382112E1,4.021682739E0,-2.818496704E0,-1.572235107E0
1.515389192E1,3.858596802E0,-2.490936279E0,-1.400756836E0
1.516396272E1,3.653930664E0,-2.166625977E0,-1.262573242E0
1.517403352E1,3.577682495E0,-1.886352539E0,-1.185928345E0
1.518410433E1,3.744567871E0,-1.700088501E0,-1.246841431E0
1.519417513E1,3.416473389E0,-1.370773315E0,-1.119644165E0
1.520427644E1,2.768173218E0,-1.036926270E0,-9.156036377E-1
1.521434724E1,2.239120483E0,-8.541412354E-1,-8.250885010E-1
1.522441805E1,1.424819946E0,-4.061737061E-1,-4.467620850E-1
1.523445833E1,7.629089355E-1,3.625488281E-2,-7.168579102E-2
1.524455965E1,4.308319092E-1,4.234466553E-1,2.274780273E-1
1.525472200E1,1.152191162E-1,9.915008545E-1,7.332000732E-1
1.526491487E1,-4.121398926E-2,1.484939575E0,1.116775513E0
1.527510774E1,1.156616211E-2,1.611221313E0,1.070968628E0
1.528530061E1,9.963989258E-2,1.629699707E0,8.640899658E-1
1.529552400E1,1.676330566E-1,1.687271118E0,6.972961426E-1
1.530571687E1,2.475280762E-1,1.689407349E0,5.069427490E-1
1.531572664E1,2.682189941E-1,1.634490967E0,3.935852051E-1
1.532512605E1,2.791442871E-1,1.626693726E0,3.098449707E-1
1.533519685E1,1.401519775E-1,1.752410889E0,3.780517578E-1
1.534548128E1,-2.058563232E-1,2.024414062E0,5.740966797E-1
1.535530794E1,-5.992279053E-1,2.310882568E0,7.334442139E-1
1.536537874E1,-9.352569580E-1,2.441101074E0,7.492065430E-1
1.537544954E1,-1.398391724E0,2.613159180E0,8.301391602E-1
1.538552034E1,-1.922271729E0,2.868408203E0,9.775085449E-1
1.539559114E1,-1.935409546E0,2.943542480E0,9.088897705E-1
1.540566194E1,-1.757904053E0,2.941589355E0,7.707214355E-1
1.541573274E1,-2.034912109E0,3.155776978E0,8.475189209E-1
1.542583406E1,-2.306655884E0,3.352630615E0,8.629455566E-1
1.543590486E1,-2.067779541E0,3.264266968E0,6.650695801E-1
1.544597566E1,-1.297332764E0,2.935134888E0,3.429107666E-1
1.545601595E1,-7.915649414E-1,2.805816650E0,1.689453125E-1
1.546608675E1,-4.932861328E-1,2.846511841E0,2.472534180E-1
1.547615755E1,-2.337799072E-1,3.100753784E0,5.021209717E-1
1.548622835E1,-4.029998779E-1,3.416152954E0,7.240600586E-1
1.549629915E1,4.103088379E-2,3.205413818E0,5.296173096E-1
1.550636995E1,5.677642822E-1,2.907287598E0,2.505340576E-1
1.551634920E1,8.359832764E-1,2.716842651E0,1.146240234E-1
1.552654207E1,1.101272583E0,2.631164551E0,7.916259766E-2
1.553658235E1,1.466949463E0,2.554397583E0,1.263885498E-1
1.554665315E1,2.037582397E0,2.452743530E0,2.225952148E-1
1.555672395E1,2.669021606E0,2.304672241E0,3.451690674E-1
1.556679476E1,3.197540283E0,2.110397339E0,4.814605713E-1
1.557689607E1,3.697708130E0,1.940155029E0,5.801239014E-1
1.558693636E1,4.049575806E0,1.785583496E0,6.432800293E-1
1.559700716E1,4.182525635E0,1.613128662E0,6.515045166E-1
1.560707796E1,4.150558472E0,1.387817383E0,6.051788330E-1
1.561714876E1,4.068191528E0,1.139663696E0,5.207824707E-1
1.562721956E1,3.831314087E0,8.779144287E-1,3.935394287E-1
1.563729036E1,3.517395020E0,5.918884277E-1,2.237396240E-1
1.564736116E1,3.177459717E0,4.076843262E-1,8.793640137E-2
1.565755403E1,2.786453247E0,3.300476074E-1,-2.299499512E-2
1.566777742E1,2.546279907E0,2.454528809E-1,-8.998107910E-2
1.567797029E1,2.499633789E0,1.647186279E-1,-9.745788574E-2
1.568816316E1,2.473846436E0,1.130676270E-1,-3.836059570E-2
1.569835603E1,2.500839233E0,1.242523193E-1,7.685852051E-2
1.570854890E1,2.556961060E0,1.626281738E-1,2.445983887E-1
1.571858919E1,2.684020996E0,2.073669434E-1,4.486846924E-1
1.572875154E1,2.811157227E0,2.066955566E-1,6.468505859E-1
1.573799837E1,2.898010254E0,1.930694580E-1,7.866821289E-1
1.574922884E1,2.736328125E0,1.910705566E-1,7.750091553E-1
1.575813997E1,2.431747437E0,1.929016113E-1,6.671600342E-1
1.576824129E1,2.019027710E0,1.749572754E-1,4.796905518E-1
1.577828157E1,1.583114624E0,1.382293701E-1,2.815856934E-1
1.578835237E1,1.177337646E0,1.014099121E-1,1.135406494E-1
1.579842317E1,9.600067139E-1,1.034240723E-1,3.375244141E-2
1.580852449E1,7.071990967E-1,1.235351562E-1,-6.243896484E-2
1.581859529E1,3.067016602E-3,1.806335449E-1,-4.694824219E-1
1.582863558E1,-4.939575195E-1,2.615356445E-1,-7.296905518E-1
1.583870638E1,-7.191619873E-1,3.373413086E-1,-8.557891846E-1
1.584880769E1,-7.268676758E-1,4.097137451E-1,-8.879852295E-1
1.585887850E1,-5.539703369E-1,4.913177490E-1,-8.274078369E-1
1.586894930E1,-2.736358643E-1,5.720367432E-1,-7.059936523E-1
1.587898958E1,-3.773498535E-2,6.282043457E-1,-5.714416504E-1
1.588906038E1,1.301116943E-1,6.299743652E-1,-4.257354736E-1
1.589913118E1,3.720703125E-1,5.744323730E-1,-2.794647217E-1
1.590923250E1,5.479888916E-1,4.589538574E-1,-1.616363525E-1
1.591930330E1,6.184539795E-1,3.053741455E-1,-9.011840820E-2
1.592937410E1,6.468811035E-1,1.347198486E-1,-7.551574707E-2
1.593941438E1,5.763854980E-1,-2.716064453E-2,-1.009979248E-1
1.594951570E1,4.672088623E-1,-1.640625000E-1,-1.529693604E-1
1.595958650E1,3.113098145E-1,-3.327789307E-1,-2.530212402E-1
1.596965730E1,1.487274170E-1,-5.441741943E-1,-4.171600342E-1
1.597972810E1,-1.227264404E-1,-8.165130615E-1,-6.018218994E-1
1.598976839E1,-2.918853760E-1,-1.021804810E0,-6.762542725E-1
1.599983919E1,-3.147125244E-1,-1.023651123E0,-6.220245361E-1
1.600994051E1,-4.258728027E-1,-9.878845215E-1,-5.919342041E-1
1.602001131E1,-5.874633789E-1,-9.276580811E-1,-5.959625244E-1
1.603005159E1,-7.429504395E-1,-8.432006836E-1,-5.993957520E-1
1.604012239E1,-8.678131104E-1,-7.112731934E-1,-5.791168213E-1
1.605022371E1,-9.637603760E-1,-5.160980225E-1,-5.191955566E-1
1.606041658E1,-9.674682617E-1,-3.120117188E-1,-4.143981934E-1
1.607060945E1,-8.643035889E-1,-2.001495361E-1,-2.790069580E-1
1.608080232E1,-8.043670654E-1,-5.203247070E-3,-1.224822998E-1
1.609099519E1,-8.332519531E-1,2.411804199E-1,2.940368652E-2
1.610118807E1,-9.950714111E-1,3.773040771E-1,1.523590088E-1
1.611138094E1,-1.257476807E0,3.968200684E-1,2.519989014E-1
1.612157381E1,-1.338439941E0,3.034515381E-1,4.439849854E-1
1.613158357E1,-1.503692627E0,8.779907227E-2,5.410308838E-1
1.614086092E1,-2.016708374E0,-2.097625732E-1,4.599761963E-1
1.615206087E1,-2.904251099E0,-4.841461182E-1,2.173156738E-1
1.616097200E1,-3.863510132E0,-6.905364990E-1,1.388549805E-3
1.617104280E1,-4.860153198E0,-8.463592529E-1,-2.073059082E-1
1.618114412E1,-5.672119141E0,-1.005233765E0,-2.880859375E-1
1.619121492E1,-6.035140991E0,-1.156402588E0,-2.290039062E-1
1.620125520E1,-6.268569946E0,-1.318237305E0,-1.825103760E-1
1.621135652E1,-6.592498779E0,-1.459671021E0,-1.045532227E-1
1.622142732E1,-6.921447754E0,-1.596817017E0,-2.368164062E-2
1.623149812E1,-7.279418945E0,-1.718414307E0,2.215576172E-2
1.624153841E1,-7.564834595E0,-1.888488770E0,4.100036621E-2
1.625160921E1,-7.458923340E0,-2.058547974E0,1.461791992E-2
1.626168001E1,-7.122634888E0,-2.190231323E0,2.148437500E-2
1.627178133E1,-6.480850220E0,-2.317428589E0,5.699157715E-2
1.628185213E1,-5.314086914E0,-2.502624512E0,6.632995605E-2
1.629192293E1,-3.761306763E0,-2.730148315E0,-6.214904785E-2
1.630196321E1,-1.921783447E0,-3.105514526E0,-4.236450195E-1
1.631203401E1,-3.792114258E-1,-3.494140625E0,-9.372253418E-1
1.632213533E1,7.765502930E-1,-3.882415771E0,-1.578659058E0
1.633220613E1,1.540145874E0,-4.266983032E0,-2.213378906E0
1.634224642E1,1.878189087E0,-4.546096802E0,-2.686187744E0
1.635231722E1,1.980163574E0,-4.709701538E0,-3.069717407E0
1.636241853E1,1.706420898E0,-4.524749756E0,-2.926254272E0
1.637248934E1,1.463134766E0,-4.220275879E0,-2.693405151E0
1.638252962E1,1.524795532E0,-3.983734131E0,-2.590591431E0
1.639260042E1,1.791137695E0,-3.782592773E0,-2.414443970E0
1.640270174E1,2.143951416E0,-3.511413574E0,-2.195098877E0
1.641277254E1,2.630508423E0,-3.264007568E0,-2.036010742E0
1.642281282E1,3.162063599E0,-3.061828613E0,-1.994232178E0
1.643288362E1,3.416778564E0,-2.812744141E0,-1.850677490E0
1.644295442E1,3.361785889E0,-2.490676880E0,-1.608871460E0
1.645302522E1,3.193862915E0,-2.194290161E0,-1.420532227E0
1.646318758E1,2.933486938E0,-1.908828735E0,-1.284225464E0
1.647338045E1,2.664749146E0,-1.687301636E0,-1.191375732E0
1.648357332E1,2.464355469E0,-1.503738403E0,-1.170455933E0
1.649376619E1,2.373199463E0,-1.326477051E0,-1.209472656E0
1.650398958E1,2.282394409E0,-1.030212402E0,-1.138183594E0
1.651418245E1,2.012252808E0,-5.131225586E-1,-8.295440674E-1
1.652437532E1,1.386489868E0,3.009033203E-2,-4.239959717E-1
1.653441560E1,7.499237061E-1,5.682067871E-1,7.791137695E-2
1.654369295E1,3.799133301E-1,1.101562500E0,4.825134277E-1
1.655498445E1,3.686676025E-1,1.830856323E0,9.025115967E-1
1.656383455E1,4.098358154E-1,2.349029541E0,1.098724365E0
1.657390535E1,4.274139404E-1,2.589126587E0,1.127243042E0
1.658397615E1,3.945159912E-1,2.516540527E0,9.552612305E-1
1.659404695E1,3.488464355E-1,2.275482178E0,7.231292725E-1
1.660408724E1,3.786926270E-1,2.023925781E0,4.672393799E-1
1.661415804E1,4.438781738E-1,1.720092773E0,1.954193115E-1
1.662422884E1,3.984680176E-1,1.514694214E0,3.677368164E-3
1.663433016E1,2.297515869E-1,1.456710815E0,-9.877014160E-2
1.664440096E1,-2.655029297E-3,1.505081177E0,-1.156463623E-1
1.665447176E1,-3.496551514E-1,1.679016113E0,-5.642700195E-2
1.666451204E1,-1.122497559E0,2.220870972E0,2.627105713E-1
1.667458284E1,-1.754013062E0,2.685256958E0,5.380096436E-1
1.668468416E1,-1.897888184E0,2.963287354E0,6.509857178E-1
1.669475496E1,-1.786727905E0,3.202041626E0,7.484130859E-1
1.670479524E1,-1.506042480E0,3.376007080E0,8.222808838E-1
1.671486604E1,-1.119857788E0,3.496292114E0,8.535156250E-1
1.672496736E1,-7.619323730E-1,3.549606323E0,8.326110840E-1
1.673503816E1,-5.353240967E-1,3.516677856E0,8.013153076E-1
1.674510896E1,-4.659729004E-1,3.525375366E0,7.555084229E-1
1.675514925E1,-4.194946289E-1,3.580596924E0,7.314910889E-1
1.676522005E1,-6.004333496E-2,3.537307739E0,7.100830078E-1
1.677532137E1,2.337646484E-1,3.518173218E0,6.996307373E-1
1.678539217E1,2.431182861E-1,3.590026855E0,7.011566162E-1
1.679543245E1,2.747650146E-1,3.268890381E0,3.300476074E-1
1.680550325E1,4.846496582E-1,2.943756104E0,6.108093262E-2
1.681557405E1,6.181335449E-1,2.786270142E0,-7.887268066E-2
1.682567537E1,8.793029785E-1,2.603713989E0,-1.623840332E-1
1.683574617E1,1.306503296E0,2.390426636E0,-1.943206787E-1
1.684578645E1,1.774429321E0,2.151794434E0,-1.656799316E-1
1.685585726E1,2.395095825E0,1.972167969E0,-3.813171387E-2
1.686605013E1,3.335556030E0,1.916885376E0,3.523712158E-1
1.687621248E1,3.786376953E0,1.796295166E0,4.957733154E-1
1.688640535E1,3.808822632E0,1.624801636E0,4.575042725E-1
1.689662874E1,3.909072876E0,1.469589233E0,4.884948730E-1
1.690679109E1,4.041213989E0,1.260971069E0,5.352783203E-1
1.691701448E1,4.122512817E0,1.038269043E0,5.483398438E-1
1.692732942E1,4.017684937E0,7.543640137E-1,4.872283936E-1
1.693721712E1,3.813125610E0,2.973480225E-1,3.195190430E-1
1.694649446E1,3.296203613E0,-2.290344238E-2,1.045837402E-1
1.695781648E1,2.726623535E0,-5.429077148E-2,-2.227783203E-2
1.696666658E1,2.317855835E0,-5.764770508E-2,-1.339416504E-1
1.697670686E1,2.004959106E0,-9.001159668E-2,-1.940155029E-1
1.698680818E1,1.830657959E0,-9.014892578E-2,-1.939849854E-1
1.699687898E1,1.711288452E0,-4.020690918E-2,-1.605529785E-1
1.700691927E1,1.667510986E0,3.326416016E-2,-1.077880859E-1
1.701699007E1,1.696807861E0,9.857177734E-2,-1.557922363E-2
1.702706087E1,1.799407959E0,1.396636963E-1,1.300354004E-1
1.703716219E1,1.913055420E0,1.623535156E-1,2.916564941E-1
1.704723299E1,1.911178589E0,1.660461426E-1,3.856201172E-1
1.705727327E1,1.757827759E0,1.669311523E-1,3.540802002E-1
1.706734407E1,1.431808472E0,1.623535156E-1,2.149505615E-1
1.707744539E1,1.041687012E0,1.529388428E-1,3.500366211E-2
1.708751619E1,7.427825928E-1,1.665954590E-1,-1.043090820E-1
1.709755647E1,6.014862061E-1,2.765655518E-1,-1.580505371E-1
1.710762727E1,6.619262695E-2,5.892639160E-1,-4.273223877E-1
1.711772859E1,-3.966979980E-1,8.329010010E-1,-6.738128662E-1
1.712779939E1,-5.106048584E-1,8.316955566E-1,-7.019195557E-1
1.713783968E1,-3.094940186E-1,6.616516113E-1,-6.068115234E-1
1.714791048E1,-1.020965576E-1,5.327453613E-1,-5.303192139E-1
1.715798128E1,-6.933593750E-2,4.644775391E-1,-4.938354492E-1
1.716808260E1,-8.918762207E-2,4.160156250E-1,-4.887847900E-1
1.717815340E1,-1.018371582E-1,3.337097168E-1,-4.768524170E-1
1.718819368E1,-3.668212891E-2,2.341461182E-1,-4.830932617E-1
1.719826448E1,-6.890869141E-2,7.284545898E-2,-5.365447998E-1
1.720836580E1,-3.268432617E-2,-2.529907227E-2,-4.755859375E-1
1.721843660E1,8.566284180E-2,-7.922363281E-2,-3.778381348E-1
1.722850740E1,2.106781006E-1,-1.365509033E-1,-2.949066162E-1
1.723854768E1,2.940063477E-1,-2.600555420E-1,-2.374725342E-1
1.724861848E1,3.080139160E-1,-4.299011230E-1,-1.728515625E-1
1.725868929E1,3.612213135E-1,-5.277557373E-1,-1.138610840E-1
1.726879060E1,2.830352783E-1,-5.289916992E-1,-7.426452637E-2
1.727895296E1,1.781463623E-1,-5.718231201E-1,-6.158447266E-2
1.728914583E1,4.675292969E-2,-6.364440918E-1,-6.883239746E-2
1.729933870E1,-1.193847656E-1,-6.645355225E-1,-1.087799072E-1
1.730953157E1,-3.299560547E-1,-6.157531738E-1,-1.785430908E-1
1.731972444E1,-5.890197754E-1,-5.350952148E-1,-2.669830322E-1
1.732994783E1,-9.129943848E-1,-4.307556152E-1,-3.365020752E-1
1.734014070E1,-1.246688843E0,-3.598785400E-1,-3.535766602E-1
1.735015047E1,-1.492782593E0,-3.565063477E-1,-3.134918213E-1
1.736067903E1,-1.750976562E0,-2.259368896E-1,-2.356872559E-1
1.736949861E1,-2.142974854E0,-8.087158203E-3,-1.836395264E-1
1.737953890E1,-2.625366211E0,9.149169922E-2,-1.291961670E-1
1.738964021E1,-3.075149536E0,-1.231384277E-2,-7.255554199E-2
1.739971102E1,-3.418945312E0,-2.334442139E-1,-7.244873047E-2
1.740978182E1,-3.609710693E0,-5.176391602E-1,-4.554748535E-2
1.741982210E1,-3.835983276E0,-7.245025635E-1,2.284240723E-2
1.742989290E1,-4.150634766E0,-8.370513916E-1,9.605407715E-2
1.743996370E1,-4.512969971E0,-8.936920166E-1,1.678924561E-1
1.745006502E1,-4.895874023E0,-9.723663330E-1,2.120819092E-1
1.746013582E1,-5.428909302E0,-1.098052979E0,1.961822510E-1
1.747017610E1,-6.239425659E0,-1.264801025E0,7.255554199E-2
1.748024690E1,-7.044204712E0,-1.580795288E0,-1.425018311E-1
1.749031770E1,-7.651840210E0,-1.924530029E0,-3.462066650E-1
1.750041902E1,-8.110641479E0,-2.215835571E0,-5.411376953E-1
1.751048982E1,-8.193542480E0,-2.473907471E0,-8.113555908E-1
1.752053011E1,-8.093353271E0,-2.638427734E0,-1.002517700E0
1.753060091E1,-7.503326416E0,-2.795272827E0,-1.208862305E0
1.754070222E1,-6.255676270E0,-3.016113281E0,-1.406585693E0
1.755077303E1,-4.916671753E0,-3.165115356E0,-1.466567993E0
1.756084383E1,-3.392608643E0,-3.305877686E0,-1.427490234E0
1.757091463E1,-1.319854736E0,-3.522933960E0,-1.539932251E0
1.758095491E1,6.669311523E-1,-3.821487427E0,-1.804122925E0
1.759105623E1,2.218704224E0,-4.166549683E0,-2.153121948E0
1.760112703E1,3.214370728E0,-4.450469971E0,-2.553771973E0
1.761119783E1,3.660903931E0,-4.596771240E0,-2.858367920E0
1.762123811E1,3.506637573E0,-4.502990723E0,-2.851638794E0
1.763130892E1,3.129943848E0,-4.220611572E0,-2.569976807E0
1.764141023E1,3.041671753E0,-3.944763184E0,-2.347854614E0
1.765148103E1,3.168823242E0,-3.662109375E0,-2.143737793E0
1.766155184E1,3.328735352E0,-3.374847412E0,-1.956832886E0
1.767162264E1,3.380035400E0,-3.090560913E0,-1.778060913E0
1.768181551E1,3.291076660E0,-2.807373047E0,-1.598022461E0
1.769203890E1,3.152862549E0,-2.519073486E0,-1.439407349E0
1.770223177E1,2.992782593E0,-2.206741333E0,-1.249786377E0
1.771242464E1,2.883071899E0,-1.882080078E0,-1.053298950E0
1.772261751E1,2.827224731E0,-1.558776855E0,-8.937835693E-1
1.773281038E1,3.132369995E0,-1.394348145E0,-9.882354736E-1
1.774300325E1,3.094161987E0,-1.170959473E0,-9.482727051E-1
1.775301302E1,2.753982544E0,-7.592468262E-1,-7.085723877E-1
1.776351106E1,2.188812256E0,-2.890167236E-1,-4.092559814E-1
1.777233064E1,1.761657715E0,9.199523926E-2,-1.729278564E-1
1.778237093E1,1.307998657E0,5.050048828E-1,1.196289062E-1
1.779244173E1,9.379272461E-1,7.507934570E-1,3.032684326E-1
1.780254305E1,6.660766602E-1,8.729248047E-1,4.073333740E-1
1.781261385E1,4.974060059E-1,9.636077881E-1,4.394226074E-1
1.782265413E1,3.837280273E-1,1.186874390E0,4.964599609E-1
1.783272493E1,3.353271484E-1,1.345703125E0,4.400634766E-1
1.784282625E1,2.928619385E-1,1.392333984E0,3.495178223E-1
1.785289705E1,2.848663330E-1,1.357925415E0,2.108917236E-1
1.786293733E1,2.975463867E-1,1.304519653E0,7.835388184E-2
1.787300813E1,2.645111084E-1,1.317733765E0,3.321838379E-2
1.788307893E1,-1.092681885E-1,1.554946899E0,2.033386230E-1
1.789318025E1,-4.645996094E-1,1.835556030E0,3.821716309E-1
1.790325105E1,-6.914367676E-1,2.074783325E0,5.098266602E-1
1.791329134E1,-9.597473145E-1,2.275146484E0,6.484069824E-1
1.792339266E1,-1.314254761E0,2.522674561E0,7.813110352E-1
1.793346346E1,-1.600234985E0,2.725082397E0,8.728179932E-1
1.794350374E1,-1.582061768E0,2.800888062E0,8.114013672E-1
1.795357454E1,-1.364715576E0,2.836135864E0,6.781463623E-1
1.796364534E1,-1.319503784E0,3.009124756E0,6.871795654E-1
1.797374666E1,-1.553192139E0,3.296463013E0,8.403167725E-1
1.798381746E1,-1.599655151E0,3.425262451E0,8.239898682E-1
1.799388826E1,-1.457031250E0,3.448989868E0,7.509918213E-1
1.800392854E1,-9.299468994E-1,3.185348511E0,5.459136963E-1
1.801399935E1,-6.406555176E-1,3.087112427E0,4.921417236E-1
1.802407014E1,-7.224731445E-1,3.428146362E0,7.841644287E-1
1.803417146E1,-4.403076172E-1,3.495361328E0,8.578948975E-1
1.804421175E1,2.217102051E-2,3.266738892E0,6.780548096E-1
1.805428255E1,2.283935547E-1,3.076126099E0,4.749603271E-1
1.806435335E1,5.334320068E-1,2.920562744E0,3.243255615E-1
1.807445467E1,9.069976807E-1,2.840377808E0,2.912139893E-1
1.808458650E1,1.581619263E0,2.778594971E0,4.197692871E-1
1.809484041E1,2.442779541E0,2.762863159E0,7.396850586E-1
1.810503328E1,3.144088745E0,2.693939209E0,9.310760498E-1
1.811525667E1,3.415100098E0,2.337142944E0,7.481231689E-1
1.812541902E1,3.634994507E0,2.027099609E0,6.569976807E-1
1.813564241E1,3.699310303E0,1.757797241E0,5.828552246E-1
1.814583528E1,3.627410889E0,1.524291992E0,4.898834229E-1
1.815581453E1,3.511108398E0,1.315078735E0,4.046783447E-1
1.816628206E1,3.411834717E0,1.110275269E0,3.545837402E-1
1.817516268E1,3.262039185E0,8.430175781E-1,2.281951904E-1
1.818520296E1,3.055130005E0,5.875396729E-1,1.185607910E-1
1.819530428E1,2.754074097E0,4.033050537E-1,1.269531250E-2
1.820537508E1,2.428710938E0,2.595672607E-1,-1.034698486E-1
1.821544588E1,2.141555786E0,1.872711182E-1,-1.779632568E-1
1.822548616E1,1.938308716E0,1.228637695E-1,-1.966094971E-1
1.823555696E1,1.867599487E0,1.072692871E-2,-1.929779053E-1
1.824565828E1,1.801315308E0,-1.134338379E-1,-1.691741943E-1
1.825572908E1,1.735321045E0,-1.928253174E-1,-1.320190430E-1
1.826579988E1,1.720520020E0,-2.218780518E-1,-9.103393555E-2
1.827584016E1,1.657287598E0,-1.979217529E-1,-2.392578125E-2
1.828591097E1,1.641601562E0,-1.399230957E-1,4.971313477E-2
1.829601228E1,1.591369629E0,-9.942626953E-2,1.279602051E-1
1.830608308E1,1.552520752E0,-8.956909180E-2,1.794433594E-1
1.831612337E1,1.476318359E0,-1.178436279E-1,1.918182373E-1
1.832619417E1,1.290008545E0,-1.479187012E-1,1.545104980E-1
1.833629549E1,1.032852173E0,-1.516113281E-1,5.598449707E-2
1.834636629E1,7.528533936E-1,-1.094512939E-1,-5.465698242E-2
1.835643709E1,5.695648193E-1,-4.347229004E-2,-1.048583984E-1
1.836647737E1,4.741821289E-1,1.684570312E-2,-1.088562012E-1
1.837657869E1,2.214050293E-1,9.402465820E-2,-2.436370850E-1
1.838664949E1,-1.977996826E-1,2.976684570E-1,-4.593811035E-1
1.839668977E1,-4.573822021E-1,4.567108154E-1,-6.434020996E-1
1.840676058E1,-6.602935791E-1,5.478363037E-1,-7.565460205E-1
1.841686189E1,-7.118530273E-1,5.370635986E-1,-7.869567871E-1
1.842693269E1,-6.236419678E-1,4.955902100E-1,-7.389526367E-1
1.843697298E1,-4.348602295E-1,5.279693604E-1,-6.384429932E-1
1.844704378E1,-3.992614746E-1,6.818389893E-1,-5.863800049E-1
1.845714510E1,-4.058532715E-1,9.290924072E-1,-5.214843750E-1
1.846721590E1,-3.098449707E-1,1.058959961E0,-4.516601562E-1
1.847731722E1,-1.644897461E-1,1.008773804E0,-3.545684814E-1
1.848754060E1,-2.537536621E-2,8.927917480E-1,-2.809600830E-1
1.849773348E1,9.385681152E-2,7.480010986E-1,-2.418518066E-1
1.850792635E1,8.874511719E-2,5.929565430E-1,-2.698822021E-1
1.851811922E1,4.379272461E-3,4.268951416E-1,-3.345489502E-1
1.852831209E1,-8.502197266E-2,2.504425049E-1,-4.059143066E-1
1.853850496E1,-1.465606689E-1,4.159545898E-2,-4.761047363E-1
1.854857576E1,-1.929168701E-1,-1.564178467E-1,-5.388488770E-1
1.855782259E1,-2.725677490E-1,-2.799835205E-1,-5.865936279E-1
1.856914461E1,-2.927093506E-1,-2.882690430E-1,-5.774230957E-1
1.857799471E1,-2.228698730E-1,-3.309020996E-1,-5.130615234E-1
1.858806551E1,-1.559143066E-1,-4.127502441E-1,-3.970031738E-1
1.859810579E1,-6.147766113E-2,-4.716491699E-1,-2.788696289E-1
1.860817659E1,-2.059936523E-3,-4.810333252E-1,-1.754913330E-1
1.861824739E1,1.184082031E-2,-4.403991699E-1,-1.004943848E-1
1.862834871E1,-3.889465332E-2,-3.857879639E-1,-5.723571777E-2
1.863841951E1,-9.538269043E-2,-3.540649414E-1,-2.458190918E-2
1.864845979E1,-1.497802734E-1,-3.350830078E-1,2.038574219E-2
1.865853060E1,-3.388824463E-1,-2.992706299E-1,4.119873047E-2
1.866860140E1,-6.329803467E-1,-2.252807617E-1,-1.029968262E-2
1.867870271E1,-1.369964600E0,-1.068572998E-1,-2.840728760E-1
1.868877352E1,-2.557281494E0,5.424499512E-2,-7.510375977E-1
1.869884432E1,-3.075820923E0,-3.651428223E-2,-9.013824463E-1
1.870888460E1,-3.001541138E0,-2.289276123E-1,-7.601318359E-1
1.871895540E1,-3.016387939E0,-4.528961182E-1,-6.940765381E-1
1.872905672E1,-3.007827759E0,-6.563110352E-1,-6.239013672E-1
1.873912752E1,-2.923767090E0,-8.343963623E-1,-5.155181885E-1
1.874916780E1,-2.856735229E0,-9.476165771E-1,-4.211120605E-1
1.875923860E1,-2.846618652E0,-9.957122803E-1,-3.677825928E-1
1.876930940E1,-3.042480469E0,-9.836120605E-1,-3.458709717E-1
1.877941072E1,-3.503173828E0,-8.831329346E-1,-3.599853516E-1
1.878948152E1,-4.104080200E0,-7.727661133E-1,-4.432373047E-1
1.879952181E1,-4.600387573E0,-8.149108887E-1,-5.896148682E-1
1.880959261E1,-4.837265015E0,-9.672088623E-1,-6.891021729E-1
1.881969393E1,-4.892288208E0,-1.099594116E0,-7.647552490E-1
1.882976472E1,-4.885131836E0,-1.181045532E0,-8.167266846E-1
1.883980501E1,-4.738525391E0,-1.238372803E0,-8.338775635E-1
1.884987581E1,-4.524581909E0,-1.303649902E0,-8.472442627E-1
1.885997713E1,-4.317260742E0,-1.371154785E0,-8.728790283E-1
1.887001741E1,-4.060928345E0,-1.427337646E0,-9.015045166E-1
1.888014925E1,-3.718917847E0,-1.430160522E0,-9.068145752E-1
1.889034212E1,-3.362716675E0,-1.406402588E0,-8.707733154E-1
1.890056551E1,-2.977630615E0,-1.392044067E0,-7.744598389E-1
1.891088045E1,-2.167816162E0,-1.347122192E0,-4.779510498E-1
1.892095125E1,7.106475830E-1,-1.379150391E0,4.317321777E-1
1.893117464E1,4.219375610E0,-1.756149292E0,8.998718262E-1
1.894136751E1,5.098037720E0,-1.941284180E0,7.464904785E-1
1.895140779E1,4.100601196E0,-1.738876343E0,5.431671143E-1
1.896068514E1,3.829574585E0,-1.751205444E0,2.970886230E-1
1.897200716E1,3.642776489E0,-1.757141113E0,4.977416992E-2
1.898082674E1,3.343612671E0,-1.718063354E0,-1.334533691E-1
1.899089754E1,2.979309082E0,-1.579132080E0,-2.146148682E-1
1.900096834E1,2.625122070E0,-1.285308838E0,-8.706665039E-2
1.901103914E1,2.456604004E0,-9.021148682E-1,1.389007568E-1
1.902107942E1,2.583206177E0,-6.267547607E-1,3.247680664E-1
1.903115022E1,2.642410278E0,-4.727172852E-1,4.087066650E-1
1.904125154E1,2.548095703E0,-3.764190674E-1,4.284057617E-1
1.905132234E1,2.530136108E0,-3.203125000E-1,4.426879883E-1
1.906136263E1,2.695434570E0,-4.148864746E-1,3.505706787E-1
1.907146394E1,2.738220215E0,-4.990997314E-1,2.097930908E-1
1.908153475E1,2.621902466E0,-5.219879150E-1,8.181762695E-2
1.909160555E1,2.530990601E0,-5.473327637E-1,-4.583740234E-2
1.910164583E1,2.291000366E0,-5.157470703E-1,-8.462524414E-2
1.911171663E1,2.017395020E0,-4.051971436E-1,-9.333801270E-2
1.912169588E1,1.721954346E0,-2.729187012E-1,-9.242248535E-2
1.913188875E1,1.499069214E0,-1.562957764E-1,-8.541870117E-2
1.914192903E1,1.253494263E0,1.530456543E-2,-9.208679199E-2
1.915203035E1,8.725128174E-1,2.259216309E-1,-1.139526367E-1
1.916210115E1,4.815368652E-1,4.982910156E-1,-1.090393066E-1
1.917214143E1,-3.242492676E-2,8.037414551E-1,-1.185607910E-1
1.918221224E1,-5.088195801E-1,1.111068726E0,-1.191406250E-1
1.919231355E1,-6.223754883E-1,1.248077393E0,-9.999084473E-2
1.920235384E1,-3.715667725E-1,1.119674683E0,-9.440612793E-2
1.921242464E1,-2.694854736E-1,9.840698242E-1,-1.343994141E-1
1.922252596E1,-3.047637939E-1,1.007690430E0,-1.754760742E-1
1.923259676E1,-7.130126953E-1,1.242248535E0,-1.961669922E-1
1.924263704E1,-1.347869873E0,1.483963013E0,-2.856750488E-1
1.925270784E1,-1.596893311E0,1.471267700E0,-3.908386230E-1
1.926280916E1,-1.521011353E0,1.409591675E0,-4.095001221E-1
1.927287996E1,-1.702194214E0,1.536407471E0,-3.889160156E-1
1.928307283E1,-1.967559814E0,1.687774658E0,-4.175262451E-1
1.929329622E1,-2.090194702E0,1.872558594E0,-3.372955322E-1
1.930348909E1,-2.121994019E0,2.023284912E0,-1.823577881E-1
1.931368196E1,-1.948394775E0,2.105560303E0,-4.621887207E-2
1.932387483E1,-1.730972290E0,2.069107056E0,4.583740234E-2
1.933409822E1,-1.503616333E0,1.912933350E0,6.860351562E-2
1.934419954E1,-1.195816040E0,1.730392456E0,6.204223633E-2
1.935430086E1,-9.993591309E-1,1.577209473E0,5.842590332E-2
1.936351717E1,-9.886474609E-1,1.484985352E0,5.139160156E-2
1.937474764E1,-1.057220459E0,1.456634521E0,2.578735352E-2
1.938365877E1,-1.155548096E0,1.407669067E0,7.934570312E-4
1.939372957E1,-1.075042725E0,1.323898315E0,1.499938965E-2
1.940380037E1,-7.761230469E-1,1.218963623E0,9.060668945E-2
1.941384065E1,-3.009643555E-1,1.117172241E0,2.049407959E-1
1.942391145E1,1.309661865E-1,1.007827759E0,3.011932373E-1
1.943401277E1,2.680358887E-1,8.682098389E-1,2.666473389E-1
1.944408357E1,3.081512451E-1,7.746276855E-1,2.323455811E-1
1.945415437E1,3.789215088E-1,7.306976318E-1,2.653961182E-1
1.946419466E1,3.446350098E-1,6.570434570E-1,2.753295898E-1
1.947426546E1,3.727416992E-1,5.824890137E-1,2.610321045E-1
1.948436678E1,4.437408447E-1,4.923858643E-1,2.287445068E-1
1.949443758E1,8.806915283E-1,4.417114258E-1,4.219207764E-1
1.950450838E1,1.163330078E0,3.383789062E-1,5.179901123E-1
1.951454866E1,1.265396118E0,2.747192383E-1,5.512237549E-1
1.952461946E1,1.195312500E0,2.408752441E-1,5.248718262E-1
1.953472078E1,1.120498657E0,1.020965576E-1,4.063262939E-1
1.954479158E1,1.195358276E0,-1.493835449E-1,2.388610840E-1
1.955489676E1,1.213470459E0,-3.743438721E-1,9.629821777E-2
1.956493705E1,1.134628296E0,-4.473266602E-1,1.786804199E-2
1.957500785E1,9.363861084E-1,-3.831787109E-1,-9.811401367E-3
1.958510917E1,5.870513916E-1,-2.943420410E-1,-1.152343750E-1
1.959517997E1,2.592468262E-1,-2.276153564E-1,-2.495117188E-1
1.960522025E1,2.761840820E-3,-1.954650879E-1,-3.663177490E-1
1.961529105E1,-1.360168457E-1,-1.853942871E-1,-4.047851562E-1
1.962539237E1,-1.046295166E-1,-1.502227783E-1,-3.682556152E-1
1.963546317E1,1.005554199E-2,-1.128387451E-1,-2.873382568E-1
1.964553397E1,1.017761230E-1,-1.111450195E-1,-2.046356201E-1
1.965557425E1,2.114868164E-1,-1.302032471E-1,-1.411132812E-1
1.966564505E1,2.998199463E-1,-1.601257324E-1,-1.002044678E-1
1.967577689E1,3.763427734E-1,-1.787719727E-1,-8.190917969E-2
1.968596976E1,4.393768311E-1,-1.918945312E-1,-8.166503906E-2
1.969619315E1,5.080413818E-1,-2.150268555E-1,-7.115173340E-2
1.970641654E1,5.948028564E-1,-2.418212891E-1,-4.745483398E-2
1.971660941E1,6.542510986E-1,-2.467346191E-1,-2.070617676E-2
1.972680228E1,6.282653809E-1,-2.337493896E-1,2.441406250E-3
1.973702567E1,5.551605225E-1,-2.055358887E-1,1.135253906E-2
1.974700492E1,4.881134033E-1,-1.589508057E-1,-1.296997070E-3
1.975631278E1,4.124755859E-1,-1.059112549E-1,-2.720642090E-2
1.976638358E1,3.365020752E-1,-4.556274414E-2,-4.899597168E-2
1.977761405E1,2.789306641E-1,6.835937500E-3,-4.631042480E-2
1.978652518E1,2.876434326E-1,3.974914551E-2,-2.670288086E-2
1.979659598E1,2.618255615E-1,8.932495117E-2,1.571655273E-3
1.980663626E1,1.756439209E-1,1.902618408E-1,2.349853516E-2
1.981670707E1,3.887939453E-2,3.372192383E-1,2.897644043E-2
1.982680838E1,-1.916046143E-1,4.599761963E-1,2.076721191E-2
1.983687918E1,-3.480682373E-1,5.252990723E-1,4.501342773E-3
1.984691947E1,-3.660888672E-1,5.332336426E-1,-1.490783691E-2
1.985699027E1,-3.925781250E-1,4.756774902E-1,-6.468200684E-2
1.986706107E1,-4.161987305E-1,3.926544189E-1,-1.687316895E-1
1.987716239E1,-4.812469482E-1,2.872772217E-1,-3.188781738E-1
1.988723319E1,-5.694885254E-1,1.835327148E-1,-4.762725830E-1
1.989727347E1,-6.781616211E-1,7.603454590E-2,-6.016235352E-1
1.990737479E1,-6.713714600E-1,1.202392578E-2,-6.694641113E-1
1.991744559E1,-6.204071045E-1,-2.760314941E-2,-6.782684326E-1
1.992751639E1,-5.865325928E-1,-6.016540527E-2,-6.493530273E-1
1.993755668E1,-5.003204346E-1,-5.856323242E-2,-6.107482910E-1
1.994765799E1,-4.376068115E-1,-4.808044434E-2,-5.780334473E-1
1.995772879E1,-4.305114746E-1,-4.553222656E-2,-5.520172119E-1
1.996779960E1,-3.648834229E-1,-2.000427246E-2,-5.373382568E-1
1.997783988E1,-3.198089600E-1,-4.684448242E-3,-5.302886963E-1
1.998791068E1,-3.158569336E-1,-6.134033203E-3,-5.316619873E-1
1.999801200E1,-3.230743408E-1,-1.484680176E-2,-5.416259766E-1
2.000808280E1,-3.347930908E-1,-3.448486328E-2,-5.643463135E-1
2.001812308E1,-3.349609375E-1,-6.312561035E-2,-6.007385254E-1
2.002819388E1,-3.516387939E-1,-1.084136963E-1,-6.342163086E-1
2.003829520E1,-3.750610352E-1,-1.501007080E-1,-6.697998047E-1
2.004836600E1,-4.031829834E-1,-1.707153320E-1,-6.926269531E-1
2.005840628E1,-3.654479980E-1,-1.972045898E-1,-6.857299805E-1
2.006847708E1,-1.916351318E-1,-2.154541016E-1,-6.350250244E-1
2.007866996E1,8.091735840E-2,-2.212829590E-1,-5.440216064E-1
2.008886283E1,3.265075684E-1,-2.203063965E-1,-4.256134033E-1
2.009905570E1,4.944000244E-1,-1.807250977E-1,-3.083343506E-1
2.010924857E1,4.972229004E-1,-1.409912109E-1,-2.170562744E-1
2.011947196E1,4.272003174E-1,-9.011840820E-2,-1.455230713E-1
2.012966483E1,3.931732178E-1,-2.609252930E-3,-8.329772949E-2
2.013985770E1,3.702392578E-1,8.792114258E-2,-2.578735352E-2
2.014986747E1,3.340911865E-1,1.459350586E-1,2.001953125E-2
2.015914481E1,3.283081055E-1,1.714324951E-1,5.058288574E-2
2.016918509E1,3.244323730E-1,1.973419189E-1,6.402587891E-2
2.018044608E1,2.069702148E-1,2.488861084E-1,6.440734863E-2
2.018932669E1,6.486511230E-2,3.162841797E-1,5.473327637E-2
2.019942801E1,-1.614379883E-2,3.518218994E-1,3.828430176E-2
2.020949881E1,-2.569580078E-2,3.347167969E-1,2.212524414E-2
2.021953910E1,9.399414062E-3,2.844696045E-1,1.045227051E-2
2.022960990E1,6.877136230E-2,2.290649414E-1,1.168823242E-2
2.023971122E1,1.398010254E-1,1.868438721E-1,2.751159668E-2
2.024978202E1,1.949615479E-1,1.575927734E-1,4.850769043E-2
