"Time (s)","Gyroscope x (rad/s)","Gyroscope y (rad/s)","Gyroscope z (rad/s)"
4.539881800E-2,2.035648525E-1,1.936385781E-1,-5.405998230E-2
4.782152600E-2,2.035648525E-1,1.936385781E-1,-5.405998230E-2
5.024345300E-2,2.035648525E-1,1.936385781E-1,-5.405998230E-2
5.266454700E-2,2.035648525E-1,1.936385781E-1,-5.405998230E-2
5.508652600E-2,2.035648525E-1,1.936385781E-1,-5.405998230E-2
5.750923400E-2,2.035648525E-1,1.936385781E-1,-5.405998230E-2
5.993116100E-2,2.035648525E-1,1.936385781E-1,-5.405998230E-2
6.235220300E-2,2.035648525E-1,1.936385781E-1,-5.405998230E-2
6.477418200E-2,2.035648525E-1,1.936385781E-1,-5.405998230E-2
6.719689100E-2,2.035648525E-1,1.936385781E-1,-5.405998230E-2
6.961881800E-2,2.035648525E-1,1.936385781E-1,-5.405998230E-2
7.203991100E-2,2.035648525E-1,1.936385781E-1,-5.405998230E-2
7.446189100E-2,2.035648525E-1,1.936385781E-1,-5.405998230E-2
7.688459900E-2,2.035648525E-1,1.936385781E-1,-5.405998230E-2
7.930652600E-2,2.035648525E-1,1.936385781E-1,-5.405998230E-2
8.172762000E-2,2.035648525E-1,1.936385781E-1,-5.405998230E-2
8.414959900E-2,2.035648525E-1,1.936385781E-1,-5.405998230E-2
8.657230700E-2,2.035648525E-1,1.936385781E-1,-5.405998230E-2
8.899423400E-2,2.035648525E-1,1.936385781E-1,-5.405998230E-2
9.141532800E-2,-5.648810267E-1,-4.856235683E-1,-4.917320609E-2
9.383725500E-2,-5.612159371E-1,-4.782933891E-1,-4.550812021E-2
9.625996300E-2,-5.526640415E-1,-4.770717025E-1,-3.939964995E-2
9.868189100E-2,-5.428904891E-1,-4.758500159E-1,-3.084778599E-2
1.011029840E-1,-5.318952799E-1,-4.734066129E-1,-2.107422985E-2
1.035249630E-1,-5.184566379E-1,-4.709632397E-1,-1.618745178E-2
1.059476720E-1,-5.074613690E-1,-4.636330605E-1,-1.007897966E-2
1.083695990E-1,-4.928010404E-1,-4.575245976E-1,-1.527118147E-3
1.107906930E-1,-4.781406820E-1,-4.550811946E-1,5.803049076E-3
1.132126720E-1,-4.659237564E-1,-4.526378214E-1,1.313321572E-2
1.156353800E-1,-4.537068009E-1,-4.526378214E-1,2.168507688E-2
1.180573070E-1,-4.427115619E-1,-4.526378214E-1,3.023693897E-2
1.204784010E-1,-4.317162931E-1,-4.538595080E-1,3.756710514E-2
1.229003800E-1,-4.256078303E-1,-4.624113739E-1,4.489727318E-2
1.253230880E-1,-4.231644273E-1,-4.697415531E-1,5.222744122E-2
1.277450160E-1,-4.170559645E-1,-4.844018817E-1,5.711421743E-2
1.301660570E-1,-4.146125913E-1,-5.002838969E-1,6.077930331E-2
1.325880360E-1,-4.158342779E-1,-5.100574493E-1,6.322269142E-2
1.350107450E-1,-4.219427407E-1,-5.222744346E-1,6.566607952E-2
1.374326720E-1,-4.256078303E-1,-5.369347334E-1,7.177454978E-2
1.398537660E-1,-4.329380095E-1,-5.503733754E-1,7.299624383E-2
1.422757450E-1,-4.402681589E-1,-5.625903010E-1,7.666133344E-2
1.446984530E-1,-4.475983381E-1,-5.760289431E-1,8.032641560E-2
1.471203800E-1,-4.585935771E-1,-5.772506595E-1,8.643488586E-2
1.495414740E-1,-4.659237564E-1,-5.833591223E-1,9.132166207E-2
1.519634530E-1,-4.659237564E-1,-5.796940327E-1,1.035386100E-1
1.543861610E-1,-4.781406820E-1,-5.601469278E-1,1.377460510E-1
1.568080880E-1,-4.915793240E-1,-5.479300022E-1,1.756185889E-1
1.592291300E-1,-5.037962794E-1,-5.393781066E-1,2.122694254E-1
1.616511090E-1,-5.196782947E-1,-5.283828974E-1,2.428117841E-1
1.640738180E-1,-5.331169367E-1,-5.100574493E-1,2.709107697E-1
1.664957450E-1,-5.453338623E-1,-5.002838969E-1,2.904578745E-1
1.689168380E-1,-5.477772951E-1,-5.063923597E-1,3.026748300E-1
1.713388180E-1,-5.538857579E-1,-5.100574493E-1,3.100049794E-1
1.737615260E-1,-5.575508475E-1,-5.137225389E-1,3.173351586E-1
1.761834530E-1,-5.587725043E-1,-5.186093450E-1,3.173351586E-1
1.786045470E-1,-5.612159371E-1,-5.259394646E-1,3.148917556E-1
1.810265260E-1,-5.612159371E-1,-5.283828974E-1,3.100049794E-1
1.834492340E-1,-5.563291311E-1,-5.393781066E-1,3.002314270E-1
1.858711610E-1,-5.489989519E-1,-5.467082858E-1,2.892361879E-1
1.882922550E-1,-5.441122055E-1,-5.589252710E-1,2.745758295E-1
1.907142340E-1,-5.416688323E-1,-5.711421967E-1,2.623589039E-1
1.931368910E-1,-5.380037427E-1,-5.772506595E-1,2.501419485E-1
1.955588180E-1,-5.392253995E-1,-5.686988235E-1,2.403683960E-1
1.979799110E-1,-5.355603099E-1,-5.577035546E-1,2.293731421E-1
2.004018910E-1,-5.380037427E-1,-5.381564498E-1,2.183778882E-1
2.028245990E-1,-5.392253995E-1,-5.186093450E-1,2.073826492E-1
2.052465260E-1,-5.380037427E-1,-4.966188073E-1,1.976090819E-1
2.076676200E-1,-5.331169367E-1,-4.868452549E-1,1.853921413E-1
2.100895990E-1,-5.294518471E-1,-4.770717025E-1,1.743968874E-1
2.125123070E-1,-5.257867575E-1,-4.758500159E-1,1.646233350E-1
2.149342340E-1,-5.221216679E-1,-4.758500159E-1,1.572931707E-1
2.173553280E-1,-5.160132051E-1,-4.831801951E-1,1.511846930E-1
2.197773070E-1,-5.147915483E-1,-4.831801951E-1,1.475196183E-1
2.222000160E-1,-5.172349215E-1,-4.782933891E-1,1.450762302E-1
2.246219430E-1,-5.074613690E-1,-4.917320311E-1,1.401894391E-1
2.270429840E-1,-5.099047422E-1,-4.905103445E-1,1.365243644E-1
2.294649630E-1,-5.037962794E-1,-5.015056133E-1,1.291942000E-1
2.318876720E-1,-5.074613690E-1,-4.978405237E-1,1.230857223E-1
2.343095990E-1,-5.111264586E-1,-4.880669713E-1,1.133121699E-1
2.367306930E-1,-5.135698318E-1,-4.782933891E-1,1.023169160E-1
2.391526720E-1,-5.160132051E-1,-4.636330605E-1,9.009996802E-2
2.415753800E-1,-5.221216679E-1,-4.453076422E-1,7.543963939E-2
2.439973070E-1,-5.270084739E-1,-4.233171642E-1,6.200099736E-2
2.464184010E-1,-5.245651007E-1,-4.172086716E-1,4.978405312E-2
2.488403800E-1,-5.233433843E-1,-4.159869850E-1,4.123219103E-2
2.512630880E-1,-5.184566379E-1,-4.257605374E-1,3.390202299E-2
2.536850160E-1,-5.160132051E-1,-4.330907166E-1,2.779355086E-2
2.561061090E-1,-4.989095032E-1,-4.575245976E-1,2.290677279E-2
2.585280360E-1,-4.903576374E-1,-4.697415531E-1,2.046338283E-2
2.609507450E-1,-4.756973088E-1,-4.892886579E-1,1.801999472E-2
2.633726720E-1,-4.610369802E-1,-5.076140761E-1,1.435491070E-2
2.657937660E-1,-4.402681589E-1,-5.296045542E-1,1.191152167E-2
2.682157450E-1,-4.194993675E-1,-5.491516590E-1,9.468132630E-3
2.706384530E-1,-3.950654566E-1,-5.699204803E-1,7.024743594E-3
2.730603800E-1,-3.620797098E-1,-5.882459283E-1,3.359660041E-3
2.754814740E-1,-3.315373361E-1,-6.041279435E-1,-3.054236295E-4
2.779034530E-1,-2.997733057E-1,-6.102364063E-1,-2.748812549E-3
2.803261610E-1,-2.631224692E-1,-6.151232123E-1,-5.192201585E-3
2.827480880E-1,-2.313583940E-1,-6.065713167E-1,-7.635590620E-3
2.851691820E-1,-1.995943487E-1,-5.882459283E-1,-1.618745178E-2
2.875911610E-1,-1.714953631E-1,-5.540384650E-1,-3.084778599E-2
2.900138700E-1,-1.421747059E-1,-5.088357925E-1,-4.672981426E-2
2.924357450E-1,-1.128540337E-1,-4.526378214E-1,-6.872031838E-2
2.948568380E-1,-8.964183182E-2,-3.781144619E-1,-9.315420687E-2
2.972788180E-1,-6.520794332E-2,-2.913741469E-1,-1.200314835E-1
2.997015260E-1,-4.443913698E-2,-1.936385781E-1,-1.481304616E-1
3.021234530E-1,-2.244863659E-2,-8.857285231E-2,-1.774511337E-1
3.045445470E-1,-4.123218823E-3,2.260134928E-2,-2.067717910E-1
3.069665260E-1,1.908897609E-2,1.337755471E-1,-2.373141646E-1
3.093892340E-1,4.474456236E-2,2.449497581E-1,-2.702999115E-1
3.118111610E-1,6.551336497E-2,3.634541333E-1,-3.045073450E-1
3.142322550E-1,8.750387281E-2,4.721849263E-1,-3.374931216E-1
3.166542340E-1,1.156028435E-1,5.625903010E-1,-3.668137789E-1
3.190769430E-1,1.461452097E-1,6.358919740E-1,-3.949127495E-1
3.214988700E-1,1.718007922E-1,7.006418109E-1,-4.156815708E-1
3.239199110E-1,1.962346882E-1,7.458444834E-1,-4.291202128E-1
3.263418910E-1,2.279987335E-1,7.617265582E-1,-4.327852726E-1
3.287645990E-1,2.560977042E-1,7.629482150E-1,-4.340069890E-1
3.311865260E-1,2.793098986E-1,7.507312894E-1,-4.303418994E-1
3.336076200E-1,3.013004065E-1,7.324058414E-1,-4.230117202E-1
3.360295990E-1,3.220692277E-1,7.140804529E-1,-4.132381678E-1
3.384523070E-1,3.318427801E-1,7.030851841E-1,-4.034646153E-1
3.408742340E-1,3.416163325E-1,6.994200945E-1,-3.949127495E-1
3.432953280E-1,3.428380191E-1,7.140804529E-1,-3.839175105E-1
3.457173070E-1,3.403946459E-1,7.482879162E-1,-3.778090179E-1
3.481400160E-1,3.330644667E-1,8.057075143E-1,-3.741439581E-1
3.505619430E-1,3.208475113E-1,8.900044560E-1,-3.765873313E-1
3.529830360E-1,3.000787199E-1,1.002400398E0,-3.826957941E-1
3.554049630E-1,2.841966748E-1,1.112352848E0,-3.924693763E-1
3.578276720E-1,2.707580328E-1,1.214975238E0,-4.034646153E-1
3.602495990E-1,2.597627938E-1,1.309045672E0,-4.144598544E-1
3.626706930E-1,2.487675399E-1,1.390899181E0,-4.254551232E-1
3.650926720E-1,2.548760176E-1,1.388455868E0,-4.242334068E-1
3.675153800E-1,2.890834510E-1,1.256512761E0,-3.973561525E-1
3.699373070E-1,3.391729295E-1,1.047603011E0,-3.387148082E-1
3.723584010E-1,3.880407214E-1,8.191461563E-1,-2.617480457E-1
3.747803800E-1,4.234698713E-1,6.395570636E-1,-1.835595965E-1
3.772030880E-1,4.417952895E-1,5.259394646E-1,-1.114796251E-1
3.796250160E-1,4.540122151E-1,4.795151055E-1,-5.528167635E-2
3.820461090E-1,4.698942602E-1,4.758500159E-1,-1.618745178E-2
3.844680880E-1,4.882196784E-1,4.941754341E-1,1.191152167E-2
3.868907970E-1,5.138752460E-1,5.149442554E-1,3.756710514E-2
3.893126720E-1,5.407525301E-1,5.393781066E-1,6.077930331E-2
3.917337660E-1,5.725166202E-1,5.772506595E-1,8.032641560E-2
3.941557450E-1,5.993938446E-1,6.310052276E-1,9.743013978E-2
3.965784530E-1,6.262711287E-1,6.994200945E-1,1.120904684E-1
3.990003800E-1,6.507050395E-1,7.751652002E-1,1.243074164E-1
4.014214740E-1,6.788040400E-1,8.521319032E-1,1.304158866E-1
4.038434530E-1,7.032378912E-1,9.388722181E-1,1.304158866E-1
4.062661610E-1,7.240067124E-1,1.026834249E0,1.230857223E-1
4.086880880E-1,7.447755337E-1,1.116017938E0,1.096470803E-1
4.111091820E-1,7.631009221E-1,1.196649790E0,9.498675168E-2
4.135311610E-1,7.826480269E-1,1.263842940E0,8.032641560E-2
4.159538700E-1,7.973083854E-1,1.317597508E0,7.055285573E-2
4.183757450E-1,8.144121170E-1,1.356691718E0,6.077930331E-2
4.207968380E-1,8.217422962E-1,1.384790778E0,5.589252338E-2
4.232188180E-1,8.290724158E-1,1.401894450E0,5.589252338E-2
4.256415260E-1,8.339592218E-1,1.406781197E0,5.711421743E-2
4.280634530E-1,8.339592218E-1,1.404337883E0,6.322269142E-2
4.304845470E-1,8.290724158E-1,1.398229361E0,6.933116168E-2
4.329065260E-1,8.205205798E-1,1.392120957E0,7.666133344E-2
4.353292340E-1,8.046385646E-1,1.394564271E0,8.521319181E-2
4.377511610E-1,7.887565494E-1,1.395785928E0,9.376505762E-2
4.401722550E-1,7.704311013E-1,1.397007704E0,1.010952219E-1
4.425942340E-1,7.484406233E-1,1.404337883E0,1.108687744E-1
4.450169430E-1,7.288935184E-1,1.409224629E0,1.206423342E-1
4.474388700E-1,7.081246972E-1,1.411668062E0,1.304158866E-1
4.498599110E-1,6.849125028E-1,1.420219898E0,1.401894391E-1
4.522818910E-1,6.641436815E-1,1.428771734E0,1.462979168E-1
4.547045990E-1,6.421532035E-1,1.438545346E0,1.499630064E-1
4.571265260E-1,6.201626658E-1,1.448318839E0,1.536280811E-1
4.595476200E-1,5.981721878E-1,1.455649018E0,1.536280811E-1
4.619695990E-1,5.786250830E-1,1.455649018E0,1.560714692E-1
4.643923070E-1,5.578562617E-1,1.451983929E0,1.572931707E-1
4.668142340E-1,5.395308137E-1,1.443432093E0,1.548497826E-1
4.692353280E-1,5.175403357E-1,1.436101913E0,1.548497826E-1
4.716573070E-1,4.955498278E-1,1.421441555E0,1.548497826E-1
4.740800160E-1,4.735593498E-1,1.403116107E0,1.560714692E-1
4.765019430E-1,4.515688419E-1,1.383569002E0,1.536280811E-1
4.789230360E-1,4.295783341E-1,1.354248405E0,1.499630064E-1
4.813449630E-1,4.075878263E-1,1.326149344E0,1.426328421E-1
4.837676720E-1,3.868190348E-1,1.295607090E0,1.377460510E-1
4.861895990E-1,3.599417508E-1,1.266286373E0,1.291942000E-1
4.886106930E-1,3.428380191E-1,1.225970507E0,1.181989461E-1
4.910326720E-1,3.232909143E-1,1.189319611E0,1.047603041E-1
4.934553800E-1,3.000787199E-1,1.151447058E0,8.643488586E-2
4.958773070E-1,2.768665254E-1,1.113574505E0,6.444438547E-2
4.982984010E-1,2.536543310E-1,1.073258638E0,4.001049697E-2
5.007203800E-1,2.243336588E-1,1.042716265E0,1.679829881E-2
5.031430880E-1,2.011214644E-1,1.006065488E0,-1.130067464E-2
5.055650160E-1,1.730224788E-1,9.706363082E-1,-3.573456407E-2
5.079861090E-1,1.437018216E-1,9.376505613E-1,-6.261184067E-2
5.104080880E-1,1.143811494E-1,9.071081877E-1,-8.948912472E-2
5.128307450E-1,8.506047726E-2,8.716790676E-1,-1.163664013E-1
5.152526720E-1,5.696150661E-2,8.386932611E-1,-1.444653720E-1
5.176737660E-1,3.008422814E-2,8.020424247E-1,-1.725643575E-1
5.200957450E-1,7.635590737E-4,7.715001106E-1,-2.031067163E-1
5.225184530E-1,-3.588727489E-2,7.067502737E-1,-2.336490750E-1
5.249403800E-1,-9.575030953E-2,5.638120174E-1,-2.629697323E-1
5.273614740E-1,-1.995943487E-1,3.390202224E-1,-2.959555089E-1
5.297834530E-1,-3.498627543E-1,7.635590434E-2,-3.350497186E-1
5.322061610E-1,-5.209000111E-1,-1.386623234E-1,-3.741439581E-1
5.346280880E-1,-6.968240142E-1,-2.681619525E-1,-4.095730782E-1
5.370491820E-1,-8.544226289E-1,-3.048127890E-1,-4.486673176E-1
5.394711610E-1,-9.863656163E-1,-2.852656841E-1,-4.853181541E-1
5.418938700E-1,-1.076771021E0,-2.376195788E-1,-5.183038712E-1
5.443157450E-1,-1.139077425E0,-1.692046970E-1,-5.488462448E-1
5.467368380E-1,-1.173284888E0,-7.269082218E-2,-5.720584393E-1
5.491588180E-1,-1.191610336E0,3.359659761E-2,-5.891621709E-1
5.515815260E-1,-1.195275426E0,1.472141892E-1,-6.001574397E-1
5.540034530E-1,-1.190388560E0,2.632751763E-1,-6.038225293E-1
5.564245470E-1,-1.181836724E0,3.817795515E-1,-6.050441861E-1
5.588465260E-1,-1.173284888E0,4.990622103E-1,-6.050441861E-1
5.612692340E-1,-1.164733052E0,5.980194807E-1,-6.074876189E-1
5.636911610E-1,-1.157402873E0,6.737645268E-1,-6.038225293E-1
5.661122550E-1,-1.150072694E0,7.287407517E-1,-6.001574397E-1
5.685342340E-1,-1.150072694E0,7.678350210E-1,-5.928272605E-1
5.709569430E-1,-1.158624530E0,8.020424247E-1,-5.818319917E-1
5.733788700E-1,-1.168398142E0,8.276980519E-1,-5.683933496E-1
5.757999110E-1,-1.180615067E0,8.460234404E-1,-5.512896776E-1
5.782218910E-1,-1.189166903E0,8.521319032E-1,-5.317425132E-1
5.806445990E-1,-1.195275426E0,8.484668136E-1,-5.073086619E-1
5.830665260E-1,-1.192831993E0,8.435800672E-1,-4.816530645E-1
5.854876200E-1,-1.180615067E0,8.386932611E-1,-4.559974670E-1
5.879095990E-1,-1.168398142E0,8.374716043E-1,-4.340069890E-1
5.903323070E-1,-1.147629261E0,8.374716043E-1,-4.193466306E-1
5.927542340E-1,-1.121973753E0,8.301414251E-1,-4.107947946E-1
5.951753280E-1,-1.096318126E0,8.191461563E-1,-4.095730782E-1
5.975973070E-1,-1.071884274E0,8.057075143E-1,-4.132381678E-1
6.000200160E-1,-1.053558826E0,7.959339619E-1,-4.242334068E-1
6.024419430E-1,-1.037676811E0,7.886037827E-1,-4.352286756E-1
6.048629840E-1,-1.021794796E0,7.715001106E-1,-4.474456310E-1
6.072849630E-1,-1.007134438E0,7.580614686E-1,-4.584408700E-1
6.097076720E-1,-9.900307059E-1,7.470661998E-1,-4.718795121E-1
6.121295990E-1,-9.680401683E-1,7.250757217E-1,-4.804313779E-1
6.145506930E-1,-9.411629438E-1,6.945333481E-1,-4.853181541E-1
6.169726720E-1,-9.130639434E-1,6.578825116E-1,-4.877615273E-1
6.193953800E-1,-8.861866593E-1,6.163448691E-1,-4.853181541E-1
6.218173070E-1,-8.629744649E-1,5.711421967E-1,-4.804313779E-1
6.242384010E-1,-8.397622705E-1,5.222744346E-1,-4.731011987E-1
6.266603800E-1,-8.238802552E-1,4.734066129E-1,-4.706578255E-1
6.290830880E-1,-8.128849864E-1,4.367557764E-1,-4.755446017E-1
6.315050160E-1,-8.043331504E-1,4.049917459E-1,-4.889832437E-1
6.339260570E-1,-8.006680608E-1,3.695625961E-1,-5.097520351E-1
6.363480360E-1,-7.957812548E-1,3.353551328E-1,-5.378510356E-1
6.387707450E-1,-7.884510756E-1,2.864873707E-1,-5.610632300E-1
6.411926720E-1,-7.798992395E-1,2.254026383E-1,-5.806103349E-1
6.436137660E-1,-7.701256871E-1,1.692046970E-1,-6.026008129E-1
6.460357450E-1,-7.579087615E-1,1.178935245E-1,-6.184828281E-1
6.484584530E-1,-7.420266867E-1,8.368607610E-2,-6.319214702E-1
6.508803800E-1,-7.285880446E-1,5.925218388E-2,-6.392516494E-1
6.533014740E-1,-7.114843726E-1,5.192201585E-2,-6.368082762E-1
6.557234530E-1,-6.907155514E-1,5.558710173E-2,-6.282563806E-1
6.581461610E-1,-6.675033569E-1,6.780404598E-2,-6.123743653E-1
6.605680880E-1,-6.442911625E-1,8.002099395E-2,-5.854970813E-1
6.629891300E-1,-6.186355352E-1,9.712471068E-2,-5.561764240E-1
6.654111090E-1,-5.856497884E-1,1.264453828E-1,-5.195255876E-1
6.678338180E-1,-5.465555787E-1,1.667613089E-1,-4.755446017E-1
6.702557450E-1,-4.989095032E-1,2.070772201E-1,-4.291202128E-1
6.726768380E-1,-4.475983381E-1,2.535016239E-1,-3.765873313E-1
6.750988180E-1,-3.889569938E-1,3.072561622E-1,-3.203893900E-1
6.775215260E-1,-3.266505599E-1,3.817795515E-1,-2.617480457E-1
6.799434530E-1,-2.631224692E-1,4.697415531E-1,-2.018850148E-1
6.823645470E-1,-1.995943487E-1,5.638120174E-1,-1.432436854E-1
6.847865260E-1,-1.348445266E-1,6.652126908E-1,-8.826743066E-2
6.872092340E-1,-6.398624927E-2,7.653915882E-1,-3.451287001E-2
6.896311610E-1,3.206948051E-3,8.460234404E-1,1.313321572E-2
6.920522030E-1,7.284353673E-2,9.058864713E-1,5.467082933E-2
6.944741820E-1,1.375933439E-1,9.376505613E-1,9.132166207E-2
6.968968910E-1,1.974563748E-1,9.474241138E-1,1.230857223E-1
6.993188180E-1,2.451024652E-1,9.413156509E-1,1.499630064E-1
7.017399110E-1,2.829749882E-1,9.181034565E-1,1.731752008E-1
7.041618910E-1,3.098522723E-1,8.814526200E-1,1.866138428E-1
7.065845990E-1,3.220692277E-1,8.338065147E-1,1.927223057E-1
7.090065260E-1,3.220692277E-1,7.690566778E-1,1.866138428E-1
7.114276200E-1,3.147390485E-1,6.884248853E-1,1.695101112E-1
7.138495990E-1,2.890834510E-1,5.967977643E-1,1.414111406E-1
7.162723070E-1,2.499892414E-1,4.905103445E-1,1.059819981E-1
7.186942340E-1,1.998997629E-1,3.768927455E-1,6.322269142E-2
7.211152760E-1,1.388150454E-1,2.559449971E-1,1.679829881E-2
7.235372550E-1,6.795676053E-2,1.398840249E-1,-2.962609194E-2
7.259599630E-1,-7.788302377E-3,2.626643144E-2,-7.360709459E-2
7.283818910E-1,-8.719844371E-2,-8.002099395E-2,-1.139230132E-1
7.308029840E-1,-1.641651988E-1,-1.850867122E-1,-1.517955512E-1
7.332249630E-1,-2.386885732E-1,-2.803788781E-1,-1.860029846E-1
7.356476720E-1,-3.095468581E-1,-3.634541333E-1,-2.153236568E-1
7.380695990E-1,-3.718532622E-1,-4.428642690E-1,-2.397575527E-1
7.404906930E-1,-4.353813827E-1,-5.002838969E-1,-2.593046725E-1
7.429126720E-1,-4.830274582E-1,-5.467082858E-1,-2.702999115E-1
7.453353800E-1,-5.209000111E-1,-5.760289431E-1,-2.666348219E-1
7.477573070E-1,-5.404471159E-1,-5.882459283E-1,-2.519744933E-1
7.501783490E-1,-5.441122055E-1,-5.845808387E-1,-2.275405973E-1
7.526003280E-1,-5.282301903E-1,-5.711421967E-1,-1.982199401E-1
7.550230360E-1,-4.976878166E-1,-5.357130170E-1,-1.652341783E-1
7.574449630E-1,-4.573718905E-1,-4.831801951E-1,-1.310267299E-1
7.598660570E-1,-4.097257853E-1,-4.123218954E-1,-9.315420687E-2
7.622880360E-1,-3.596363366E-1,-3.365768492E-1,-5.405998230E-2
7.647107450E-1,-3.009949923E-1,-2.559449971E-1,-1.618745178E-2
7.671326720E-1,-2.399102598E-1,-1.765348613E-1,2.046338283E-2
7.695537660E-1,-1.763821393E-1,-1.007898003E-1,5.344913527E-2
7.719757450E-1,-1.091889441E-1,-2.748812735E-2,8.521319181E-2
7.743984530E-1,-4.688252881E-2,4.337015375E-2,1.096470803E-1
7.768203800E-1,1.175880991E-2,1.130067408E-1,1.279724985E-1
7.792414220E-1,6.429167092E-2,1.777565479E-1,1.426328421E-1
7.816634010E-1,1.143811494E-1,2.400629669E-1,1.511846930E-1
7.840861090E-1,1.571404636E-1,2.999260128E-1,1.560714692E-1
7.865080360E-1,1.974563748E-1,3.439069986E-1,1.560714692E-1
7.889291300E-1,2.316638231E-1,3.830012381E-1,1.511846930E-1
7.913511090E-1,2.634278834E-1,4.013266563E-1,1.426328421E-1
7.937738180E-1,2.988570333E-1,4.037700295E-1,1.328592747E-1
7.961957450E-1,3.293993771E-1,3.964398801E-1,1.218640283E-1
7.986168380E-1,3.623851240E-1,3.707842827E-1,1.133121699E-1
8.010388180E-1,3.941491842E-1,3.304683566E-1,1.010952219E-1
8.034615260E-1,4.246915579E-1,2.803788781E-1,8.643488586E-2
8.058834530E-1,4.491254389E-1,2.278460264E-1,7.055285573E-2
8.083045470E-1,4.698942602E-1,1.704263836E-1,5.100574717E-2
8.107264740E-1,4.882196784E-1,1.105633527E-1,3.145863488E-2
8.131491820E-1,5.028799772E-1,4.947862774E-2,1.313321572E-2
8.155711090E-1,5.150969625E-1,-3.054236295E-3,-7.635590620E-3
8.179922030E-1,5.236487985E-1,-4.337015375E-2,-2.229592577E-2
8.204141820E-1,5.370874405E-1,-8.368607610E-2,-3.695625812E-2
8.228368910E-1,5.468609929E-1,-1.056765765E-1,-5.161659420E-2
8.252588180E-1,5.480827093E-1,-1.130067408E-1,-6.383354217E-2
8.276799110E-1,5.480827093E-1,-1.105633527E-1,-6.994201243E-2
8.301018910E-1,5.456393361E-1,-9.956810623E-2,-7.360709459E-2
8.325245990E-1,5.407525301E-1,-8.490777016E-2,-7.238540053E-2
8.349465260E-1,5.370874405E-1,-7.024743408E-2,-6.872031838E-2
8.373675680E-1,5.309789777E-1,-5.070032179E-2,-5.772506446E-2
8.397895470E-1,5.236487985E-1,-2.870982140E-2,-4.795150831E-2
8.422122550E-1,5.187620521E-1,-4.275931045E-3,-3.695625812E-2
8.446341820E-1,5.114318728E-1,3.237490356E-2,-2.229592577E-2
8.470552760E-1,5.163186193E-1,1.068982705E-1,-6.413896102E-3
8.494772550E-1,5.419742465E-1,2.400629669E-1,1.313321572E-2
8.518999630E-1,5.786250830E-1,3.707842827E-1,2.535016090E-2
8.543218910E-1,6.116108298E-1,4.734066129E-1,3.268032894E-2
8.567429840E-1,6.372663975E-1,5.723638535E-1,4.001049697E-2
8.591649630E-1,6.678087711E-1,6.981984377E-1,5.100574717E-2
8.615876720E-1,6.995728016E-1,8.399149776E-1,6.322269142E-2
8.640095990E-1,7.288935184E-1,9.791881442E-1,7.421794534E-2
8.664306410E-1,7.667660117E-1,1.125791550E0,8.521319181E-2
8.688526200E-1,8.058602214E-1,1.272394896E0,9.620844573E-2
8.712753280E-1,8.498412371E-1,1.423884988E0,1.084253863E-1
8.736972550E-1,9.060391784E-1,1.598587275E0,1.230857223E-1
8.761183490E-1,9.585720897E-1,1.751299143E0,1.353026628E-1
8.785403280E-1,1.008661509E0,1.889350533E0,1.462979168E-1
8.809630360E-1,1.046534061E0,1.998081326E0,1.572931707E-1
8.833849630E-1,1.080741525E0,2.094595194E0,1.707318127E-1
8.858060570E-1,1.106397152E0,2.160566807E0,1.817270666E-1
8.882280360E-1,1.117392302E0,2.178892136E0,1.939440072E-1
8.906507450E-1,1.111283898E0,2.161788464E0,2.049392611E-1
8.930726720E-1,1.096623540E0,2.122694254E0,2.147128135E-1
8.954937130E-1,1.075854778E0,2.070161343E0,2.220429778E-1
8.979156930E-1,1.047755718E0,1.998081326E0,2.257080674E-1
9.003384010E-1,1.020878434E0,1.921114683E0,2.281514555E-1
9.027603280E-1,9.915578365E-1,1.847813010E0,2.269297540E-1
9.051814220E-1,9.646805525E-1,1.762294292E0,2.244863659E-1
9.076034010E-1,9.341381788E-1,1.658450365E0,2.183778882E-1
9.100261090E-1,8.926005363E-1,1.536280870E0,2.134911120E-1
9.124480360E-1,8.400676847E-1,1.389677525E0,2.086043358E-1
9.148691300E-1,7.765395641E-1,1.234522343E0,2.024958730E-1
9.172911090E-1,7.020162344E-1,1.058598280E0,1.951656938E-1
9.197138180E-1,6.213843822E-1,8.924478292E-1,1.866138428E-1
9.221357450E-1,5.370874405E-1,7.262973785E-1,1.756185889E-1
9.245567860E-1,4.564556181E-1,5.589252710E-1,1.609582454E-1
9.269787660E-1,3.746020794E-1,4.049917459E-1,1.450762302E-1
9.294014740E-1,2.964136302E-1,2.510582209E-1,1.255291104E-1
9.318234010E-1,2.243336588E-1,1.068982705E-1,1.096470803E-1
9.342444950E-1,1.595838517E-1,-1.771457121E-2,9.620844573E-2
9.366664740E-1,1.046075895E-1,-1.105633527E-1,8.765657991E-2
9.390891820E-1,6.184828654E-2,-1.618745178E-1,8.887827396E-2
9.415111090E-1,3.374931216E-2,-1.801999360E-1,1.010952219E-1
9.439322030E-1,2.275406010E-2,-1.655396074E-1,1.194206402E-1
9.463541820E-1,2.519745007E-2,-1.240019947E-1,1.438545287E-1
9.487768910E-1,3.619270027E-2,-6.413896382E-2,1.707318127E-1
9.511987660E-1,5.085303262E-2,1.404948719E-2,2.024958730E-1
9.536198590E-1,6.551336497E-2,1.007898003E-1,2.367033064E-1
9.560418380E-1,8.017370105E-2,1.753131598E-1,2.770192325E-1
9.584645470E-1,9.361234307E-2,2.241809368E-1,3.222219348E-1
9.608864740E-1,1.033858955E-1,2.498365343E-1,3.710896969E-1
9.633075680E-1,1.119377613E-1,2.608317733E-1,4.187358022E-1
9.657295470E-1,1.156028435E-1,2.620534599E-1,4.639385045E-1
9.681522550E-1,1.168245375E-1,2.596100867E-1,5.042544007E-1
9.705741820E-1,1.143811494E-1,2.498365343E-1,5.372401476E-1
9.729952760E-1,1.058292910E-1,2.363978922E-1,5.653391480E-1
9.754172030E-1,9.849911928E-2,2.131856978E-1,5.873296261E-1
9.778399630E-1,9.116895497E-2,1.863084137E-1,6.019899845E-1
9.802618380E-1,8.628217876E-2,1.582094431E-1,6.105418205E-1
9.826829320E-1,8.261708915E-2,1.264453828E-1,6.203153729E-1
9.851049110E-1,8.750387281E-2,9.223793447E-2,6.300889254E-1
9.875276200E-1,9.239064902E-2,6.047387794E-2,6.398624778E-1
9.899495470E-1,1.009425074E-1,3.603998944E-2,6.545228362E-1
9.923706410E-1,1.046075895E-1,2.504473738E-2,6.728482842E-1
9.947926200E-1,9.972081333E-2,4.337015375E-2,6.911736727E-1
9.972153280E-1,1.021642014E-1,6.169557199E-2,7.070556879E-1
9.996372550E-1,1.168245375E-1,8.368607610E-2,7.229377031E-1
1.002058349E0,1.461452097E-1,9.590301663E-2,7.437065244E-1
1.004480276E0,1.840177327E-1,1.130067408E-1,7.656970620E-1
1.006902984E0,2.304421216E-1,1.240019947E-1,7.925743461E-1
1.009324911E0,2.854183912E-1,1.252236813E-1,8.206732869E-1
1.011746005E0,3.526115716E-1,1.166718230E-1,8.524373770E-1
1.014167984E0,4.344651103E-1,9.834641218E-2,8.878664970E-1
1.016590693E0,5.358657837E-1,7.024743408E-2,9.196305275E-1
1.019012620E0,6.617003083E-1,4.092676565E-2,9.575030804E-1
1.021433713E0,8.241856694E-1,6.719320081E-3,9.978190064E-1
1.023855693E0,1.033095479E0,-3.848337755E-2,1.043021679E0
1.026278401E0,1.285986185E0,-8.490777016E-2,1.085780978E0
1.028700328E0,1.564532518E0,-1.117850468E-1,1.130983710E0
1.031121422E0,1.855295897E0,-1.154501289E-1,1.182294846E0
1.033543349E0,2.149724245E0,-1.081199646E-1,1.239714503E0
1.035966057E0,2.433157444E0,-9.468132257E-2,1.303242683E0
1.038387984E0,2.705595255E0,-8.002099395E-2,1.367992401E0
1.040809078E0,2.957264185E0,-7.757759839E-2,1.433963895E0
1.043231057E0,3.186942816E0,-7.879929990E-2,1.501157165E0
1.045653766E0,3.401961088E0,-8.368607610E-2,1.568350315E0
1.048075693E0,3.600028276E0,-8.735115826E-2,1.632031202E0
1.050496786E0,3.793056011E0,-7.879929990E-2,1.696780920E0
1.052918766E0,3.973866940E0,-7.513421029E-2,1.763974190E0
1.055341474E0,4.142460823E0,-9.468132257E-2,1.838497519E0
1.057763401E0,4.298837662E0,-1.276670843E-1,1.922794461E0
1.060184443E0,4.442997456E0,-1.484358907E-1,2.025416851E0
1.062606422E0,4.567610264E0,-1.496575773E-1,2.145142794E0
1.065029130E0,4.672676086E0,-1.496575773E-1,2.278307676E0
1.067451057E0,4.752086163E0,-1.557660550E-1,2.415137291E0
1.069872151E0,4.799732208E0,-1.716480851E-1,2.545858622E0
1.072294130E0,4.820501328E0,-2.107423097E-1,2.664363146E0
1.074716838E0,4.815614223E0,-2.779355049E-1,2.764541864E0
1.077138766E0,4.798510551E0,-3.817795515E-1,2.845173836E0
1.079559859E0,4.760638237E0,-4.990622103E-1,2.902593374E0
1.081981838E0,4.712992191E0,-6.090146899E-1,2.941687584E0
1.084404547E0,4.653129101E0,-7.079719901E-1,2.963678122E0
1.086826474E0,4.578605652E0,-7.983773947E-1,2.972229958E0
1.089247516E0,4.486978531E0,-8.765658140E-1,2.972229958E0
1.091669495E0,4.384356022E0,-9.364288449E-1,2.967343330E0
1.094092203E0,4.271960258E0,-9.755230546E-1,2.952682972E0
1.096514130E0,4.157121181E0,-9.950701594E-1,2.928249121E0
1.098935224E0,4.030064583E0,-9.816315174E-1,2.894041538E0
1.101357203E0,3.904230356E0,-9.559759498E-1,2.845173836E0
1.103779911E0,3.774730682E0,-9.242119193E-1,2.779202223E0
1.106201838E0,3.640344143E0,-8.887827396E-1,2.690018654E0
1.108622932E0,3.501070976E0,-8.655705452E-1,2.577622652E0
1.111044911E0,3.356758356E0,-8.338065147E-1,2.444458008E0
1.113467620E0,3.213820219E0,-8.032641411E-1,2.296633005E0
1.115889547E0,3.078212023E0,-7.641699314E-1,2.140256166E0
1.118310588E0,2.946269035E0,-7.018635273E-1,1.983879209E0
1.120732568E0,2.828986406E0,-6.200099587E-1,1.829945683E0
1.123155276E0,2.721477270E0,-5.161659122E-1,1.678455591E0
1.125577203E0,2.631071806E0,-3.988832533E-1,1.534142852E0
1.127998297E0,2.557770252E0,-2.718270421E-1,1.393648028E0
1.130420276E0,2.500350475E0,-1.423274130E-1,1.260483265E0
1.132842984E0,2.460034609E0,-1.282779220E-2,1.134648800E0
1.135264911E0,2.435600758E0,1.093416587E-1,1.013701081E0
1.137686005E0,2.425827265E0,2.180724740E-1,8.988617659E-1
1.140107932E0,2.424605370E0,3.194731176E-1,7.925743461E-1
1.142530693E0,2.433157444E0,4.111002088E-1,6.911736727E-1
1.144952620E0,2.446595907E0,4.892886579E-1,5.922164321E-1
1.147373661E0,2.460034609E0,5.479300022E-1,4.932591617E-1
1.149795641E0,2.469808102E0,5.833591223E-1,3.979669809E-1
1.152218349E0,2.478359938E0,6.029062271E-1,3.026748300E-1
1.154640276E0,2.483246803E0,6.163448691E-1,2.061609477E-1
1.157061370E0,2.489355326E0,6.248967648E-1,1.096470803E-1
1.159483349E0,2.491798639E0,6.297835112E-1,2.168507688E-2
1.161906057E0,2.493020296E0,6.334486008E-1,-5.772506446E-2
1.164327984E0,2.488133669E0,6.358919740E-1,-1.236965731E-1
1.166749078E0,2.474694967E0,6.310052276E-1,-1.701209545E-1
1.169171005E0,2.453926086E0,6.334486008E-1,-1.994416267E-1
1.171593713E0,2.422162056E0,6.371136904E-1,-2.079934925E-1
1.174015641E0,2.387954712E0,6.395570636E-1,-1.969982386E-1
1.176436734E0,2.350082159E0,6.444438696E-1,-1.664558798E-1
1.178858713E0,2.308544397E0,6.676560640E-1,-1.224748790E-1
1.181281422E0,2.274337053E0,6.945333481E-1,-6.872031838E-2
1.183703349E0,2.246237993E0,7.091936469E-1,-8.857285604E-3
1.186124443E0,2.219360828E0,7.091936469E-1,5.711421743E-2
1.188546422E0,2.192483425E0,6.884248853E-1,1.255291104E-1
1.190969130E0,2.172936440E0,6.566607952E-1,1.988307834E-1
1.193391057E0,2.153389215E0,6.200099587E-1,2.684673667E-1
1.195812099E0,2.139950752E0,5.723638535E-1,3.381039500E-1
1.198234078E0,2.126512051E0,5.100574493E-1,4.126273096E-1
1.200656838E0,2.111851692E0,4.404208660E-1,4.895940721E-1
1.203078713E0,2.093526363E0,3.707842827E-1,5.677825212E-1
1.205499807E0,2.073979139E0,2.999260128E-1,6.447492838E-1
1.207921786E0,2.054432154E0,2.376195788E-1,7.266027927E-1
1.210344495E0,2.037328243E0,1.924168915E-1,8.060129285E-1
1.212766422E0,2.025111437E0,1.667613089E-1,8.878664970E-1
1.215187516E0,2.019002914E0,1.569877416E-1,9.697200060E-1
1.217609495E0,2.019002914E0,1.533226669E-1,1.052795291E0
1.220032203E0,2.023889780E0,1.569877416E-1,1.133427143E0
1.222454130E0,2.037328243E0,1.557660550E-1,1.211615562E0
1.224875172E0,2.059318781E0,1.533226669E-1,1.283695459E0
1.227297151E0,2.087417841E0,1.435490996E-1,1.347223639E0
1.229719859E0,2.117960215E0,1.178935245E-1,1.402199864E0
1.232141786E0,2.152167559E0,7.879929990E-2,1.446180940E0
1.234562880E0,2.182709932E0,4.459185153E-2,1.473058224E0
1.236984859E0,2.208365440E0,1.404948719E-2,1.486496806E0
1.239407568E0,2.214473963E0,-1.832541777E-3,1.487718463E0
1.241829495E0,2.210808992E0,-2.015795931E-2,1.475501537E0
1.244250588E0,2.191261768E0,-4.459185153E-2,1.453511000E0
1.246672568E0,2.154611111E0,-6.902574003E-2,1.421746969E0
1.249095276E0,2.109408379E0,-9.468132257E-2,1.381431103E0
1.251517203E0,2.056875467E0,-1.215586066E-1,1.332563281E0
1.253938245E0,1.998234153E0,-1.411057115E-1,1.277587056E0
1.256360224E0,1.940814495E0,-1.582094431E-1,1.217723966E0
1.258782932E0,1.880951405E0,-1.716480851E-1,1.154195905E0
1.261204859E0,1.823531747E0,-1.777565479E-1,1.088224411E0
1.263625953E0,1.774664044E0,-1.765348613E-1,1.017366052E0
1.266047932E0,1.725796223E0,-1.777565479E-1,9.440644383E-1
1.268470641E0,1.680593491E0,-1.753131598E-1,8.707627654E-1
1.270892568E0,1.641499281E0,-1.765348613E-1,7.986828089E-1
1.273313661E0,1.606070161E0,-1.814216375E-1,7.278245091E-1
1.275735588E0,1.576749444E0,-1.850867122E-1,6.557445526E-1
1.278158349E0,1.552315593E0,-1.863084137E-1,5.848862529E-1
1.280580224E0,1.533990145E0,-1.875301152E-1,5.164713860E-1
1.283001318E0,1.519329786E0,-1.997470558E-1,4.504998624E-1
1.285423297E0,1.509556293E0,-2.180724740E-1,3.869717419E-1
1.287846005E0,1.503447771E0,-2.376195788E-1,3.258870244E-1
1.290267932E0,1.501004457E0,-2.510582209E-1,2.696890533E-1
1.292689026E0,1.499782681E0,-2.583884001E-1,2.171562016E-1
1.295111005E0,1.498561025E0,-2.608317733E-1,1.695101112E-1
1.297533713E0,1.499782681E0,-2.596100867E-1,1.279724985E-1
1.299955641E0,1.498561025E0,-2.522799075E-1,8.765657991E-2
1.302376734E0,1.493674278E0,-2.412846684E-1,5.100574717E-2
1.304798661E0,1.485122442E0,-2.241809368E-1,1.924168877E-2
1.307221422E0,1.474127173E0,-2.107423097E-1,-1.007897966E-2
1.309643297E0,1.454580069E0,-1.960819662E-1,-3.329117596E-2
1.312064391E0,1.433811188E0,-1.863084137E-1,-5.772506446E-2
1.314486370E0,1.400825500E0,-1.814216375E-1,-7.605048269E-2
1.316909078E0,1.361731291E0,-1.801999360E-1,-9.315420687E-2
1.319331005E0,1.316528559E0,-1.753131598E-1,-1.065928489E-1
1.321752099E0,1.262773991E0,-1.679829955E-1,-1.200314835E-1
1.324174078E0,1.204132676E0,-1.533226669E-1,-1.310267299E-1
1.326596786E0,1.138161182E0,-1.386623234E-1,-1.371352077E-1
1.329018713E0,1.070967913E0,-1.215586066E-1,-1.371352077E-1
1.331439755E0,1.002553105E0,-1.007898003E-1,-1.334701329E-1
1.333861734E0,9.329164624E-1,-8.124268800E-2,-1.273616552E-1
1.336284443E0,8.583931327E-1,-5.925218388E-2,-1.175880954E-1
1.338706370E0,7.838697433E-1,-2.870982140E-2,-1.065928489E-1
1.341127463E0,7.056813240E-1,7.941014133E-3,-9.071081877E-2
1.343549443E0,6.311579347E-1,4.459185153E-2,-7.238540053E-2
1.345972151E0,5.590779781E-1,8.368607610E-2,-4.917320609E-2
1.348394078E0,4.906630516E-1,1.227803007E-1,-2.107422985E-2
1.350815172E0,4.308000207E-1,1.557660550E-1,1.191152167E-2
1.353237151E0,3.758237660E-1,1.838650256E-1,4.856235534E-2
1.355659859E0,3.293993771E-1,2.021904439E-1,8.765657991E-2
1.358081786E0,2.939702570E-1,2.082989216E-1,1.267508119E-1
1.360502828E0,2.670929730E-1,2.131856978E-1,1.634016484E-1
1.362924807E0,2.548760176E-1,2.131856978E-1,1.963873953E-1
1.365347516E0,2.524326444E-1,2.180724740E-1,2.269297540E-1
1.367769443E0,2.597627938E-1,2.217375487E-1,2.550287247E-1
1.370190536E0,2.756448388E-1,2.156290859E-1,2.794626355E-1
1.372612516E0,2.988570333E-1,2.058555335E-1,3.014531136E-1
1.375035224E0,3.208475113E-1,1.948602796E-1,3.234436214E-1
1.377457151E0,3.428380191E-1,1.887518018E-1,3.405473530E-1
1.379878245E0,3.623851240E-1,1.899735034E-1,3.564293683E-1
1.382300224E0,3.807105422E-1,2.034121305E-1,3.674246371E-1
1.384722932E0,4.027010500E-1,2.254026383E-1,3.723114133E-1
1.387144807E0,4.210264683E-1,2.522799075E-1,3.735330999E-1
1.389565901E0,4.381301999E-1,2.803788781E-1,3.698680103E-1
1.391987880E0,4.564556181E-1,3.158080280E-1,3.637595475E-1
1.394410588E0,4.796678126E-1,3.536805511E-1,3.527642787E-1
1.396832516E0,5.053234100E-1,4.025483429E-1,3.405473530E-1
1.399253609E0,5.395308137E-1,4.501944184E-1,3.271087110E-1
1.401675588E0,5.786250830E-1,5.002838969E-1,3.124483824E-1
1.404098297E0,6.201626658E-1,5.479300022E-1,2.990097404E-1
1.406520224E0,6.702521443E-1,5.821374655E-1,2.867927849E-1
1.408941318E0,7.252284288E-1,6.029062271E-1,2.770192325E-1
1.411363245E0,7.887565494E-1,6.065713167E-1,2.733541429E-1
1.413785953E0,8.596147895E-1,6.004628539E-1,2.721324563E-1
1.416207880E0,9.378032684E-1,5.894675851E-1,2.733541429E-1
1.418628974E0,1.017213345E0,5.784723759E-1,2.733541429E-1
1.421050953E0,1.102732062E0,5.662553906E-1,2.733541429E-1
1.423473661E0,1.190693974E0,5.552601814E-1,2.696890533E-1
1.425895588E0,1.276212692E0,5.454866290E-1,2.599155009E-1
1.428316682E0,1.359287858E0,5.332696438E-1,2.501419485E-1
1.430738661E0,1.438698053E0,5.198310018E-1,2.367033064E-1
1.433161370E0,1.507112861E0,5.173876286E-1,2.257080674E-1
1.435583297E0,1.569419265E0,5.137225389E-1,2.147128135E-1
1.438004338E0,1.619508743E0,5.173876286E-1,2.037175596E-1
1.440426318E0,1.662268162E0,5.259394646E-1,1.976090819E-1
1.442849026E0,1.695253849E0,5.332696438E-1,1.915006191E-1
1.445270953E0,1.723352790E0,5.405998230E-1,1.902789176E-1
1.447692047E0,1.742899895E0,5.454866290E-1,1.915006191E-1
1.450114026E0,1.760003686E0,5.454866290E-1,1.927223057E-1
1.452536734E0,1.769777179E0,5.405998230E-1,1.963873953E-1
1.454958661E0,1.774664044E0,5.283828974E-1,2.000524700E-1
1.457379755E0,1.778329134E0,5.137225389E-1,2.073826492E-1
1.459801734E0,1.784437537E0,5.002838969E-1,2.147128135E-1
1.462224443E0,1.784437537E0,4.941754341E-1,2.257080674E-1
1.464646370E0,1.789324284E0,4.807367921E-1,2.367033064E-1
1.467067411E0,1.788102627E0,4.685198367E-1,2.464768738E-1
1.469489391E0,1.784437537E0,4.489727318E-1,2.574721277E-1
1.471912099E0,1.777107358E0,4.184303582E-1,2.684673667E-1
1.474334026E0,1.760003686E0,3.817795515E-1,2.806843221E-1
1.476755120E0,1.736791492E0,3.390202224E-1,2.953446507E-1
1.479177099E0,1.702584028E0,2.974826097E-1,3.124483824E-1
1.481599807E0,1.662268162E0,2.535016239E-1,3.295520842E-1
1.484021734E0,1.610956907E0,2.156290859E-1,3.442124426E-1
1.486442828E0,1.558424115E0,1.789782494E-1,3.539859951E-1
1.488864807E0,1.499782681E0,1.423274130E-1,3.600944579E-1
1.491287516E0,1.435032964E0,1.081199646E-1,3.625378609E-1
1.493709443E0,1.366618037E0,7.513421029E-2,3.662029207E-1
1.496130484E0,1.295759797E0,3.970507160E-2,3.686463237E-1
1.498552463E0,1.221236348E0,6.108472589E-4,3.723114133E-1
1.500975172E0,1.150378108E0,-4.703523964E-2,3.784198761E-1
1.503397099E0,1.079519868E0,-9.834641218E-2,3.869717419E-1
1.505818193E0,1.004996419E0,-1.472141892E-1,3.943018913E-1
1.508240172E0,9.243646264E-1,-1.887518018E-1,4.028537571E-1
1.510662880E0,8.461761475E-1,-2.241809368E-1,4.089622498E-1
1.513084807E0,7.618792653E-1,-2.547233105E-1,4.138490260E-1
1.515505849E0,6.702521443E-1,-2.730487287E-1,4.150707126E-1
1.517927828E0,5.847335458E-1,-2.974826097E-1,4.114056230E-1
1.520350536E0,4.955498278E-1,-3.194731176E-1,4.065188468E-1
1.522772463E0,4.063661397E-1,-3.390202224E-1,3.991886973E-1
1.525193557E0,3.208475113E-1,-3.622324169E-1,3.918585181E-1
1.527615536E0,2.377723008E-1,-3.866663277E-1,3.857500553E-1
1.530038245E0,1.583621502E-1,-4.098785222E-1,3.771981895E-1
1.532460172E0,8.383878320E-2,-4.355340898E-1,3.686463237E-1
1.534881266E0,1.420219894E-2,-4.563029110E-1,3.600944579E-1
1.537303245E0,-5.054761097E-2,-4.770717025E-1,3.478775024E-1
1.539725953E0,-1.091889441E-1,-4.917320311E-1,3.319954872E-1
1.542147880E0,-1.666085869E-1,-5.027272701E-1,3.112266660E-1
1.544568922E0,-2.252499312E-1,-4.978405237E-1,2.794626355E-1
1.546990901E0,-2.863346636E-1,-4.685198367E-1,2.195995897E-1
1.549413609E0,-3.657447994E-1,-3.927747905E-1,9.132166207E-2
1.551835536E0,-4.451549351E-1,-3.133646548E-1,-1.004843712E-1
1.554256630E0,-4.964661002E-1,-3.109212518E-1,-2.996205688E-1
1.556678609E0,-5.037962794E-1,-3.952181637E-1,-4.694361091E-1
1.559101318E0,-4.866925478E-1,-5.234960914E-1,-5.952706337E-1
1.561523245E0,-4.524851143E-1,-6.664343476E-1,-6.722373962E-1
1.563944338E0,-4.182776511E-1,-8.044858575E-1,-7.149966955E-1
1.566366318E0,-3.987305462E-1,-9.144383669E-1,-7.321004272E-1
1.568789026E0,-4.097257853E-1,-9.608627558E-1,-7.528692484E-1
1.571210901E0,-4.500417113E-1,-9.510892034E-1,-7.980719209E-1
1.573631995E0,-5.135698318E-1,-8.948912621E-1,-8.518264890E-1
1.576053974E0,-5.917583108E-1,-8.154810667E-1,-9.116895199E-1
1.578476682E0,-6.736118197E-1,-7.275190949E-1,-9.593356252E-1
1.580898609E0,-7.554653287E-1,-6.383354068E-1,-9.984298348E-1
1.583319703E0,-8.226585388E-1,-5.686988235E-1,-1.030193925E0
1.585741682E0,-8.825215697E-1,-5.112791657E-1,-1.053406119E0
1.588164391E0,-9.301676750E-1,-4.770717025E-1,-1.065623045E0
1.590586318E0,-9.546015263E-1,-4.037700295E-1,-1.071731567E0
1.593007359E0,-9.558232427E-1,-2.327328026E-1,-1.079061627E0
1.595429338E0,-9.497147799E-1,-1.850867122E-1,-1.088835239E0
1.597852047E0,-9.338327646E-1,-2.192941606E-1,-1.091278672E0
1.600273974E0,-9.045121074E-1,-2.229592502E-1,-1.085170150E0
1.602695068E0,-8.629744649E-1,-2.388412803E-1,-1.066844702E0
1.605117047E0,-8.055548072E-1,-2.950392365E-1,-1.037524104E0
1.607539755E0,-7.395833135E-1,-3.634541333E-1,-1.000873208E0
1.609961682E0,-6.699467301E-1,-4.404208660E-1,-9.630007148E-1
1.612382776E0,-5.978667736E-1,-5.234960914E-1,-9.239065051E-1
1.614804755E0,-5.282301903E-1,-5.882459283E-1,-8.872556686E-1
1.617227463E0,-4.610369802E-1,-5.943543911E-1,-8.518264890E-1
1.619649391E0,-3.975088596E-1,-5.442649126E-1,-8.139539957E-1
1.622070432E0,-3.364241421E-1,-4.709632397E-1,-7.760814428E-1
1.624492411E0,-2.777827978E-1,-3.842229247E-1,-7.333221436E-1
1.626915120E0,-2.203631550E-1,-2.864873707E-1,-6.856760383E-1
1.629337047E0,-1.580567211E-1,-1.875301152E-1,-6.319214702E-1
1.631758141E0,-8.842013776E-2,-1.020114943E-1,-5.769452453E-1
1.634180120E0,-1.023169141E-2,-3.603998944E-2,-5.146388412E-1
1.636602828E0,7.650861889E-2,5.497625098E-3,-4.450022280E-1
1.639024755E0,1.754658818E-1,2.504473738E-2,-3.692571819E-1
1.641445849E0,2.817533016E-1,2.870982140E-2,-2.874036431E-1
1.643867828E0,3.917058110E-1,1.771457121E-2,-2.031067163E-1
1.646290536E0,5.028799772E-1,-5.497625098E-3,-1.188097894E-1
1.648712411E0,6.103891134E-1,-3.970507160E-2,-3.573456407E-2
1.651133505E0,7.056813240E-1,-7.635590434E-2,4.367557913E-2
1.653555484E0,7.875348330E-1,-1.081199646E-1,1.169772521E-1
1.655978193E0,8.571714163E-1,-1.301104724E-1,1.866138428E-1
1.658400120E0,9.133693576E-1,-1.398840249E-1,2.501419485E-1
1.660821213E0,9.536852837E-1,-1.435490996E-1,3.038965166E-1
1.663243193E0,9.830059409E-1,-1.362189353E-1,3.503209054E-1
1.665665901E0,1.001331329E0,-1.203369126E-1,3.869717419E-1
1.668087828E0,1.012326598E0,-1.020114943E-1,4.211791754E-1
1.670508870E0,1.018435121E0,-8.979454637E-2,4.541649222E-1
1.672930849E0,1.025765300E0,-9.223793447E-2,4.895940721E-1
1.675353557E0,1.034317136E0,-9.712471068E-2,5.250232220E-1
1.677775484E0,1.047755718E0,-1.142284349E-1,5.628957748E-1
1.680196578E0,1.058750987E0,-1.447708011E-1,5.934380889E-1
1.682618557E0,1.081963181E0,-2.009687424E-1,6.190937161E-1
1.685041266E0,1.102732062E0,-2.608317733E-1,6.349757314E-1
1.687463193E0,1.122279167E0,-3.158080280E-1,6.398624778E-1
1.689884286E0,1.133274436E0,-3.549022675E-1,6.361974478E-1
1.692306266E0,1.135717750E0,-3.744493723E-1,6.252021790E-1
1.694728974E0,1.127165914E0,-3.781144619E-1,6.117635369E-1
1.697150849E0,1.116170645E0,-3.683409095E-1,5.971031785E-1
1.699571943E0,1.100288630E0,-3.512371778E-1,5.836645365E-1
1.701993922E0,1.086849928E0,-3.316900730E-1,5.702258945E-1
1.704416630E0,1.077076435E0,-3.170297146E-1,5.543438792E-1
1.706838557E0,1.072189689E0,-3.011476994E-1,5.335750580E-1
1.709259651E0,1.074633002E0,-2.901524603E-1,5.128062963E-1
1.711681630E0,1.078298092E0,-2.828222811E-1,4.859289825E-1
1.714104338E0,1.086849928E0,-2.816005945E-1,4.566083252E-1
1.716526266E0,1.095401883E0,-2.779355049E-1,4.236225784E-1
1.718947359E0,1.102732062E0,-2.767138183E-1,3.943018913E-1
1.721369286E0,1.108840466E0,-2.767138183E-1,3.662029207E-1
1.723791995E0,1.117392302E0,-2.816005945E-1,3.368822634E-1
1.726213922E0,1.117392302E0,-2.852656841E-1,3.112266660E-1
1.728635016E0,1.117392302E0,-3.011476994E-1,2.892361879E-1
1.731056995E0,1.113727212E0,-3.158080280E-1,2.684673667E-1
1.733479703E0,1.106397152E0,-3.255815804E-1,2.501419485E-1
1.735901630E0,1.099066973E0,-3.341334462E-1,2.305948436E-1
1.738322724E0,1.088071704E0,-3.365768492E-1,2.122694254E-1
1.740744703E0,1.079519868E0,-3.292466700E-1,1.915006191E-1
1.743167359E0,1.069746256E0,-3.170297146E-1,1.695101112E-1
1.745589338E0,1.053864241E0,-2.987042964E-1,1.475196183E-1
1.748010380E0,1.039203882E0,-2.864873707E-1,1.230857223E-1
1.750432359E0,1.022100210E0,-2.803788781E-1,1.023169160E-1
1.752855068E0,1.001331329E0,-2.803788781E-1,8.399149776E-2
1.755276995E0,9.768974781E-1,-2.816005945E-1,6.933116168E-2
1.757698088E0,9.549070001E-1,-2.877090573E-1,5.833591148E-2
1.760120068E0,9.292513728E-1,-2.913741469E-1,5.100574717E-2
1.762542776E0,9.023740888E-1,-2.938175201E-1,4.734066129E-2
1.764964703E0,8.730534315E-1,-2.901524603E-1,4.856235534E-2
1.767385745E0,8.522846103E-1,-2.974826097E-1,4.978405312E-2
1.769807724E0,8.229639530E-1,-2.974826097E-1,5.222744122E-2
1.772230432E0,7.973083854E-1,-2.974826097E-1,5.467082933E-2
1.774652359E0,7.777612805E-1,-3.035911024E-1,5.467082933E-2
1.777073453E0,7.618792653E-1,-3.109212518E-1,5.344913527E-2
1.779495432E0,7.533273697E-1,-3.243598938E-1,4.856235534E-2
1.781918141E0,7.435538173E-1,-3.487937748E-1,4.611896724E-2
1.784340068E0,7.288935184E-1,-3.842229247E-1,4.367557913E-2
1.786761161E0,7.081246972E-1,-4.123218954E-1,4.611896724E-2
1.789183141E0,6.849125028E-1,-4.379774928E-1,4.856235534E-2
1.791605849E0,6.568135023E-1,-4.575245976E-1,5.222744122E-2
1.794027776E0,6.226060390E-1,-4.599680007E-1,5.955760926E-2
1.796448818E0,5.835118294E-1,-4.550811946E-1,6.444438547E-2
1.798870797E0,5.431959033E-1,-4.367557764E-1,7.299624383E-2
1.801293505E0,5.016583204E-1,-4.147652984E-1,8.276980370E-2
1.803715432E0,4.564556181E-1,-3.878880143E-1,9.498675168E-2
1.806136526E0,4.112529159E-1,-3.597890437E-1,1.059819981E-1
1.808558505E0,3.672719002E-1,-3.341334462E-1,1.218640283E-1
1.810981213E0,3.232909143E-1,-3.048127890E-1,1.414111406E-1
1.813403141E0,2.878617644E-1,-2.767138183E-1,1.634016484E-1
1.815824182E0,2.560977042E-1,-2.473931462E-1,1.841704547E-1
1.818246213E0,2.279987335E-1,-2.144073844E-1,2.049392611E-1
1.820668922E0,2.108950168E-1,-1.887518018E-1,2.208212912E-1
1.823090797E0,1.974563748E-1,-1.655396074E-1,2.354816198E-1
1.825511891E0,1.889045089E-1,-1.435490996E-1,2.476985604E-1
1.827933870E0,1.901262105E-1,-1.288887709E-1,2.562504113E-1
1.830356578E0,1.937913001E-1,-1.166718230E-1,2.648022771E-1
1.832778505E0,1.998997629E-1,-1.117850468E-1,2.709107697E-1
1.835199599E0,2.084516287E-1,-1.130067408E-1,2.745758295E-1
1.837621578E0,2.170034945E-1,-1.203369126E-1,2.770192325E-1
1.840044286E0,2.279987335E-1,-1.264453828E-1,2.770192325E-1
1.842466161E0,2.353289127E-1,-1.362189353E-1,2.733541429E-1
1.844887255E0,2.402156889E-1,-1.435490996E-1,2.696890533E-1
1.847309234E0,2.438807636E-1,-1.459924877E-1,2.635805905E-1
1.849731943E0,2.451024652E-1,-1.447708011E-1,2.513636351E-1
1.852153870E0,2.487675399E-1,-1.411057115E-1,2.367033064E-1
1.854574963E0,2.475458533E-1,-1.349972486E-1,2.195995897E-1
1.856996943E0,2.463241518E-1,-1.325538605E-1,1.976090819E-1
1.859419651E0,2.414373755E-1,-1.325538605E-1,1.780619770E-1
1.861841578E0,2.365505993E-1,-1.362189353E-1,1.572931707E-1
1.864262620E0,2.292204350E-1,-1.398840249E-1,1.340809762E-1
1.866684599E0,2.231119573E-1,-1.386623234E-1,1.145338640E-1
1.869107307E0,2.145601064E-1,-1.337755471E-1,9.498675168E-2
1.871529234E0,2.072299272E-1,-1.276670843E-1,7.910472155E-2
1.873950328E0,1.986780763E-1,-1.252236813E-1,6.566607952E-2
1.876372307E0,1.937913001E-1,-1.215586066E-1,5.589252338E-2
1.878795016E0,1.913478971E-1,-1.227803007E-1,4.734066129E-2
1.881216943E0,1.925695986E-1,-1.264453828E-1,4.245388508E-2
1.883638036E0,1.962346882E-1,-1.252236813E-1,4.001049697E-2
1.886060016E0,2.023431510E-1,-1.215586066E-1,4.245388508E-2
1.888482724E0,2.096733153E-1,-1.130067408E-1,4.611896724E-2
1.890904651E0,2.170034945E-1,-1.020114943E-1,5.344913527E-2
1.893325693E0,2.194468826E-1,-8.368607610E-2,6.444438547E-2
1.895747672E0,2.231119573E-1,-7.024743408E-2,7.788302749E-2
1.898170380E0,2.218902707E-1,-5.803048983E-2,9.132166207E-2
1.900592307E0,2.206685692E-1,-4.459185153E-2,1.059819981E-1
1.903013401E0,2.194468826E-1,-3.848337755E-2,1.194206402E-1
1.905435380E0,2.182251811E-1,-3.359659761E-2,1.340809762E-1
1.907858088E0,2.182251811E-1,-2.870982140E-2,1.475196183E-1
1.910280016E0,2.206685692E-1,-2.382304333E-2,1.572931707E-1
1.912701109E0,2.279987335E-1,-2.015795931E-2,1.646233350E-1
1.915123036E0,2.341072112E-1,-1.771457121E-2,1.682884246E-1
1.917545745E0,2.438807636E-1,-1.160609815E-2,1.731752008E-1
1.919967672E0,2.548760176E-1,-6.719320081E-3,1.768402755E-1
1.922388766E0,2.658712566E-1,-3.054236295E-3,1.792836636E-1
1.924810745E0,2.768665254E-1,3.054236295E-3,1.829487532E-1
1.927233453E0,2.878617644E-1,9.162709117E-3,1.829487532E-1
1.929655380E0,3.000787199E-1,1.282779220E-2,1.841704547E-1
1.932076474E0,3.110739589E-1,1.771457121E-2,1.829487532E-1
1.934498453E0,3.184041381E-1,1.527118124E-2,1.792836636E-1
1.936921161E0,3.245126009E-1,6.719320081E-3,1.743968874E-1
1.939343036E0,3.293993771E-1,-5.497625098E-3,1.682884246E-1
1.941764130E0,3.257342875E-1,-1.893626526E-2,1.597365588E-1
1.944186109E0,3.196258247E-1,-2.748812735E-2,1.548497826E-1
1.946608818E0,3.122956753E-1,-2.870982140E-2,1.524063945E-1
1.949030745E0,2.976353168E-1,-1.893626526E-2,1.511846930E-1
1.951451838E0,2.829749882E-1,3.054236295E-3,1.524063945E-1
1.953873818E0,2.732014358E-1,1.893626526E-2,1.499630064E-1
1.956296526E0,2.609844804E-1,3.603998944E-2,1.450762302E-1
1.958718453E0,2.426590770E-1,5.558710173E-2,1.389677525E-1
1.961139495E0,2.279987335E-1,6.169557199E-2,1.353026628E-1
1.963561474E0,2.084516287E-1,6.536065787E-2,1.340809762E-1
1.965984182E0,1.901262105E-1,6.291726977E-2,1.365243644E-1
1.968406109E0,1.742441803E-1,4.947862774E-2,1.401894391E-1
1.970827203E0,1.595838517E-1,3.603998944E-2,1.450762302E-1
1.973249182E0,1.449235082E-1,1.649287529E-2,1.524063945E-1
1.975671891E0,1.375933439E-1,-5.497625098E-3,1.585148573E-1
1.978093818E0,1.388150454E-1,-3.359659761E-2,1.658450365E-1
1.980514911E0,1.522536725E-1,-6.658235192E-2,1.707318127E-1
1.982936891E0,1.815743446E-1,-1.117850468E-1,1.707318127E-1
1.985359547E0,2.353289127E-1,-1.814216375E-1,1.707318127E-1
1.987781474E0,2.964136302E-1,-2.412846684E-1,1.853921413E-1
1.990202568E0,3.526115716E-1,-2.803788781E-1,1.951656938E-1
1.992624547E0,3.917058110E-1,-3.133646548E-1,1.951656938E-1
1.995047255E0,4.234698713E-1,-3.463504016E-1,1.841704547E-1
1.997469182E0,4.625640810E-1,-3.964398801E-1,1.646233350E-1
1.999890276E0,4.979932308E-1,-4.465293586E-1,1.353026628E-1
2.002312255E0,5.248705149E-1,-4.844018817E-1,1.035386100E-1
2.004734963E0,5.395308137E-1,-4.953971207E-1,7.788302749E-2
2.007156891E0,5.468609929E-1,-4.807367921E-1,6.077930331E-2
2.009577932E0,5.480827093E-1,-4.440859556E-1,5.344913527E-2
2.011999911E0,5.370874405E-1,-3.561239541E-1,5.833591148E-2
2.014422620E0,5.175403357E-1,-2.363978922E-1,7.177454978E-2
2.016844547E0,4.906630516E-1,-1.325538605E-1,8.521319181E-2
2.019265641E0,4.576773047E-1,-4.947862774E-2,1.010952219E-1
2.021687620E0,4.259132445E-1,1.160609815E-2,1.194206402E-1
2.024110328E0,3.941491842E-1,5.803048983E-2,1.328592747E-1
2.026532255E0,3.697153032E-1,8.612946421E-2,1.401894391E-1
2.028953349E0,3.489464819E-1,1.020114943E-1,1.438545287E-1
2.031375276E0,3.342861533E-1,8.735115826E-2,1.414111406E-1
2.033797984E0,3.171824515E-1,5.680879578E-2,1.316375881E-1
2.036219911E0,2.976353168E-1,2.626643144E-2,1.206423342E-1
2.038641005E0,2.780882120E-1,3.054236295E-3,1.133121699E-1
2.041062984E0,2.487675399E-1,-1.527118124E-2,1.157555580E-1
2.043485693E0,2.108950168E-1,-2.504473738E-2,1.255291104E-1
2.045907620E0,1.681357026E-1,-2.504473738E-2,1.450762302E-1
2.048328713E0,1.204896197E-1,-9.162709117E-3,1.719534993E-1
2.050750693E0,7.406523079E-2,9.162709117E-3,2.024958730E-1
2.053173401E0,3.130592033E-2,2.382304333E-2,2.342599183E-1
2.055595328E0,-4.123218823E-3,4.214845970E-2,2.648022771E-1
2.058016370E0,-2.977880463E-2,7.391251624E-2,2.904578745E-1
2.060438349E0,-4.932591692E-2,1.044548824E-1,3.087832928E-1
2.062861057E0,-6.032116711E-2,1.313321590E-1,3.210002482E-1
2.065282984E0,-6.642963737E-2,1.496575773E-1,3.307738006E-1
2.067704078E0,-7.131642103E-2,1.643179059E-1,3.381039500E-1
2.070126057E0,-7.498150319E-2,1.765348613E-1,3.429907262E-1
2.072548766E0,-7.986827940E-2,1.850867122E-1,3.454341292E-1
2.074970693E0,-8.719844371E-2,1.960819662E-1,3.527642787E-1
2.077391734E0,-9.819369763E-2,2.082989216E-1,3.625378609E-1
2.079813713E0,-1.104106456E-1,2.205158621E-1,3.747547865E-1
2.082236422E0,-1.238492802E-1,2.327328026E-1,3.881934285E-1
2.084658349E0,-1.385096163E-1,2.473931462E-1,4.065188468E-1
2.087079443E0,-1.568350345E-1,2.535016239E-1,4.285093546E-1
2.089501422E0,-1.714953631E-1,2.742704153E-1,4.566083252E-1
2.091924130E0,-1.812689304E-1,2.889307439E-1,4.871506989E-1
2.094346057E0,-1.947075576E-1,3.084778786E-1,5.152496696E-1
2.096767151E0,-2.057028115E-1,3.365768492E-1,5.421269536E-1
2.099189130E0,-2.179197669E-1,3.622324169E-1,5.714476109E-1
2.101611838E0,-2.338017821E-1,3.830012381E-1,5.971031785E-1
2.104033766E0,-2.545706034E-1,3.927747905E-1,6.190937161E-1
2.106454807E0,-2.790044844E-1,4.025483429E-1,6.435275674E-1
2.108876786E0,-3.095468581E-1,4.086568058E-1,6.691831946E-1
2.111299495E0,-3.413109183E-1,4.147652984E-1,6.985038519E-1
2.113721422E0,-3.742966652E-1,4.269822240E-1,7.327113152E-1
2.116142516E0,-4.097257853E-1,4.343124032E-1,7.681404352E-1
2.118564495E0,-4.427115619E-1,4.489727318E-1,8.084563613E-1
2.120987203E0,-4.769189954E-1,4.636330605E-1,8.512156606E-1
2.123409130E0,-5.086830258E-1,4.844018817E-1,8.903098702E-1
2.125830172E0,-5.355603099E-1,5.039489865E-1,9.269607067E-1
2.128252151E0,-5.599942207E-1,5.271611810E-1,9.587247968E-1
2.130674859E0,-5.807630420E-1,5.540384650E-1,9.831586480E-1
2.133096786E0,-5.905365944E-1,5.833591223E-1,1.007592559E0
2.135517880E0,-5.807630420E-1,5.980194807E-1,1.025918007E0
2.137939859E0,-5.563291311E-1,6.004628539E-1,1.043021679E0
2.140362568E0,-5.135698318E-1,5.821374655E-1,1.061347127E0
2.142784495E0,-4.451549351E-1,5.430431962E-1,1.079672575E0
2.145205588E0,-3.559712470E-1,4.795151055E-1,1.096776247E0
2.147627516E0,-2.460187376E-1,4.111002088E-1,1.104106426E0
2.150050224E0,-1.360662282E-1,3.487937748E-1,1.106549859E0
2.152472151E0,-2.733541466E-2,2.901524603E-1,1.107771516E0
2.154893245E0,7.040014863E-2,2.473931462E-1,1.116323352E0
2.157315224E0,1.656923145E-1,2.363978922E-1,1.135870457E0
2.159737932E0,2.304421216E-1,1.618745178E-1,1.192068458E0
2.162159859E0,2.548760176E-1,9.590301663E-2,1.304464340E0
2.164580953E0,2.573194206E-1,2.015795931E-2,1.424190402E0
2.167002932E0,1.803526580E-1,-7.635590434E-2,1.587897420E0
2.169425641E0,6.429167092E-2,-1.240019947E-1,1.754200578E0
2.171847516E0,-7.009471953E-2,-1.496575773E-1,1.870261550E0
2.174268609E0,-1.739387512E-1,-1.117850468E-1,1.913020849E0
2.176690588E0,-2.460187376E-1,-6.780404598E-2,1.900803924E0
2.179113297E0,-2.912214398E-1,-4.581354558E-2,1.838497519E0
2.181535224E0,-3.034383655E-1,-1.893626526E-2,1.744427085E0
2.183956318E0,-3.022166789E-1,-1.404948719E-2,1.636917949E0
2.186378297E0,-3.022166789E-1,-2.993151546E-2,1.523147583E0
2.188801005E0,-2.973299026E-1,-4.337015375E-2,1.408308387E0
2.191222932E0,-2.924431264E-1,-5.070032179E-2,1.292247415E0
2.193643974E0,-2.851129472E-1,-6.413896382E-2,1.171299577E0
2.196065953E0,-2.753393948E-1,-7.391251624E-2,1.050351858E0
2.198488661E0,-2.655658424E-1,-9.223793447E-2,9.281824231E-1
2.200910588E0,-2.545706034E-1,-1.154501289E-1,8.157865405E-1
2.203331682E0,-2.399102598E-1,-1.435490996E-1,7.204943299E-1
2.205753661E0,-2.240282297E-1,-1.679829955E-1,6.533011198E-1
2.208176370E0,-2.020377368E-1,-1.899735034E-1,6.129852533E-1
2.210598297E0,-1.763821393E-1,-2.058555335E-1,5.995466113E-1
2.213019391E0,-1.470614821E-1,-2.192941606E-1,6.056550741E-1
2.215441318E0,-1.091889441E-1,-2.278460264E-1,6.239804626E-1
2.217864078E0,-6.887302548E-2,-2.437280566E-1,6.447492838E-1
2.220285953E0,-1.756185852E-2,-2.596100867E-1,6.704048514E-1
2.222707047E0,3.374931216E-2,-2.730487287E-1,6.936170459E-1
2.225129026E0,8.750387281E-2,-2.864873707E-1,7.168292403E-1
2.227551734E0,1.449235082E-1,-2.925958335E-1,7.351546884E-1
2.229973661E0,1.974563748E-1,-2.913741469E-1,7.498149872E-1
2.232394755E0,2.463241518E-1,-2.938175201E-1,7.583668828E-1
2.234816734E0,2.939702570E-1,-2.877090573E-1,7.620319724E-1
2.237239443E0,3.342861533E-1,-2.779355049E-1,7.583668828E-1
2.239661318E0,3.697153032E-1,-2.632751763E-1,7.534800768E-1
2.242082411E0,4.014793634E-1,-2.449497581E-1,7.473716140E-1
2.244504391E0,4.259132445E-1,-2.290677279E-1,7.437065244E-1
2.246927099E0,4.466820657E-1,-2.082989216E-1,7.449282408E-1
2.249349026E0,4.601207078E-1,-1.936385781E-1,7.498149872E-1
2.251770120E0,4.637857676E-1,-1.728697717E-1,7.595885396E-1
2.254192099E0,4.637857676E-1,-1.521009654E-1,7.742488980E-1
2.256614807E0,4.576773047E-1,-1.288887709E-1,7.901309133E-1
2.259036734E0,4.430169761E-1,-1.007898003E-1,8.084563613E-1
2.261457776E0,4.222481549E-1,-7.635590434E-2,8.243383765E-1
2.263879755E0,3.929274976E-1,-4.947862774E-2,8.402203918E-1
2.266302463E0,3.587200642E-1,-2.993151546E-2,8.524373770E-1
2.268724391E0,3.184041381E-1,-1.282779220E-2,8.573241234E-1
2.271145484E0,2.768665254E-1,1.832541777E-3,8.585458398E-1
2.273567463E0,2.292204350E-1,1.771457121E-2,8.536590338E-1
2.275990172E0,1.791309565E-1,2.137965336E-2,8.377770185E-1
2.278412099E0,1.302631795E-1,2.260134928E-2,8.145648241E-1
2.280833141E0,8.628217876E-2,1.649287529E-2,7.864658237E-1
2.283255172E0,3.863608837E-2,7.941014133E-3,7.473716140E-1
2.285677828E0,-7.788302377E-3,-5.497625098E-3,6.985038519E-1
2.288099755E0,-5.421269313E-2,-2.382304333E-2,6.410841942E-1
2.290520849E0,-9.941539168E-2,-4.581354558E-2,5.751127005E-1
2.292942828E0,-1.482831687E-1,-6.780404598E-2,5.054761171E-1
2.295365536E0,-1.971509457E-1,-8.735115826E-2,4.419479966E-1
2.297787463E0,-2.411319613E-1,-9.712471068E-2,3.857500553E-1
2.300208557E0,-2.838912606E-1,-1.227803007E-1,3.344388604E-1
2.302630536E0,-3.217637837E-1,-1.557660550E-1,2.831276953E-1
2.305053193E0,-3.559712470E-1,-1.753131598E-1,2.305948436E-1
2.307475120E0,-3.889569938E-1,-1.948602796E-1,1.768402755E-1
2.309896213E0,-4.292729199E-1,-2.058555335E-1,1.230857223E-1
2.312318193E0,-4.695888162E-1,-2.156290859E-1,6.810946763E-2
2.314740901E0,-5.099047422E-1,-2.229592502E-1,2.046338283E-2
2.317162828E0,-5.502206683E-1,-2.266243398E-1,-1.740914769E-2
2.319583922E0,-5.868715048E-1,-2.241809368E-1,-4.306473210E-2
2.322005901E0,-6.247440577E-1,-2.095206082E-1,-5.894676223E-2
2.324428609E0,-6.589514613E-1,-1.924168915E-1,-6.261184067E-2
2.326850536E0,-6.956022978E-1,-1.643179059E-1,-5.772506446E-2
2.329271578E0,-7.298097610E-1,-1.301104724E-1,-4.795150831E-2
2.331693557E0,-7.591304183E-1,-9.590301663E-2,-3.084778599E-2
2.334116266E0,-7.896727920E-1,-6.169557199E-2,-1.007897966E-2
2.336538193E0,-8.153283596E-1,-3.115320951E-2,1.313321572E-2
2.338959286E0,-8.287670016E-1,-9.162709117E-3,3.756710514E-2
2.341381266E0,-8.385405540E-1,2.015795931E-2,6.933116168E-2
2.343803974E0,-8.422056437E-1,5.680879578E-2,1.072036922E-1
2.346225901E0,-8.397622705E-1,8.246438205E-2,1.524063945E-1
2.348646943E0,-8.360971808E-1,1.215586066E-1,2.012741715E-1
2.351068922E0,-8.251019120E-1,1.728697717E-1,2.550287247E-1
2.353491630E0,-8.141067028E-1,2.082989216E-1,3.124483824E-1
2.355913557E0,-7.970029712E-1,2.473931462E-1,3.710896969E-1
2.358334651E0,-7.750124335E-1,2.852656841E-1,4.285093546E-1
2.360756630E0,-7.444701195E-1,3.145863414E-1,4.822639227E-1
2.363179338E0,-7.090409398E-1,3.390202224E-1,5.347967744E-1
2.365601266E0,-6.736118197E-1,3.634541333E-1,5.885513425E-1
2.368022359E0,-6.332958937E-1,3.756710589E-1,6.423059106E-1
2.370444338E0,-5.954233408E-1,3.866663277E-1,7.021689415E-1
2.372867047E0,-5.599942207E-1,4.147652984E-1,7.632536292E-1
2.375288922E0,-5.270084739E-1,4.538595080E-1,8.255600929E-1
2.377710016E0,-4.928010404E-1,4.844018817E-1,8.976400495E-1
2.380131995E0,-4.598152637E-1,5.015056133E-1,9.684983492E-1
2.382554703E0,-4.207210541E-1,5.051707029E-1,1.032026410E0
2.384976630E0,-3.840702176E-1,5.173876286E-1,1.085780978E0
2.387397724E0,-3.498627543E-1,5.149442554E-1,1.129762053E0
2.389819703E0,-3.132119179E-1,5.015056133E-1,1.161526084E0
2.392242411E0,-2.814478874E-1,4.856235683E-1,1.181073189E0
2.394664338E0,-2.521272004E-1,4.685198367E-1,1.188403368E0
2.397085380E0,-2.228065431E-1,4.599680007E-1,1.192068458E0
2.399507359E0,-1.947075576E-1,4.501944184E-1,1.189625025E0
2.401930068E0,-1.727170646E-1,4.465293586E-1,1.187181592E0
2.404351995E0,-1.543916464E-1,4.428642690E-1,1.187181592E0
2.406773088E0,-1.360662282E-1,4.355340898E-1,1.188403368E0
2.409195068E0,-1.201841980E-1,4.416425824E-1,1.190846682E0
2.411617776E0,-9.941539168E-2,4.685198367E-1,1.192068458E0
2.414039703E0,-7.986827940E-2,4.978405237E-1,1.192068458E0
2.416460797E0,-5.909947306E-2,5.063923597E-1,1.188403368E0
2.418882724E0,-3.222219273E-2,5.112791657E-1,1.174964666E0
2.421305432E0,-2.901524538E-3,5.112791657E-1,1.152974248E0
2.423727359E0,3.252761811E-2,5.051707029E-1,1.129762053E0
2.426148453E0,6.795676053E-2,4.941754341E-1,1.101662993E0
2.428570432E0,1.009425074E-1,4.953971207E-1,1.068677306E0
2.430993141E0,1.327065676E-1,4.917320311E-1,1.038134933E0
2.433415068E0,1.644706279E-1,4.844018817E-1,1.002705812E0
2.435836161E0,1.950129867E-1,4.636330605E-1,9.648332596E-1
2.438258141E0,2.182251811E-1,4.489727318E-1,9.232956171E-1
2.440680849E0,2.426590770E-1,4.391991794E-1,8.793146014E-1
2.443102724E0,2.634278834E-1,4.343124032E-1,8.365553021E-1
2.445523818E0,2.805316150E-1,4.282039404E-1,7.999044657E-1
2.447945797E0,3.013004065E-1,4.049917459E-1,7.669187188E-1
2.450368505E0,3.196258247E-1,3.805578351E-1,7.388197780E-1
2.452790432E0,3.416163325E-1,3.487937748E-1,7.058340311E-1
2.455211526E0,3.611634374E-1,3.268032968E-1,6.728482842E-1
2.457633505E0,3.782671690E-1,3.133646548E-1,6.398624778E-1
2.460056213E0,3.941491842E-1,2.950392365E-1,6.056550741E-1
2.462478141E0,4.088095427E-1,2.669402659E-1,5.726693273E-1
2.464899182E0,4.185830951E-1,2.388412803E-1,5.384618640E-1
2.467321161E0,4.308000207E-1,2.107423097E-1,5.018110275E-1
2.469743870E0,4.381301999E-1,1.875301152E-1,4.602734149E-1
2.472165797E0,4.454603493E-1,1.692046970E-1,4.236225784E-1
2.474586891E0,4.479037523E-1,1.557660550E-1,3.894151151E-1
2.477008870E0,4.430169761E-1,1.508792788E-1,3.576510847E-1
2.479431578E0,4.344651103E-1,1.533226669E-1,3.307738006E-1
2.481853505E0,4.198047817E-1,1.484358907E-1,3.087832928E-1
2.484274547E0,3.904841244E-1,1.533226669E-1,2.904578745E-1
2.486696526E0,3.538332880E-1,1.521009654E-1,2.721324563E-1
2.489119234E0,3.171824515E-1,1.484358907E-1,2.538070381E-1
2.491541161E0,2.780882120E-1,1.472141892E-1,2.379250079E-1
2.493962255E0,2.377723008E-1,1.459924877E-1,2.208212912E-1
2.496384234E0,2.035648525E-1,1.435490996E-1,2.061609477E-1
2.498806943E0,1.730224788E-1,1.398840249E-1,1.951656938E-1
2.501228870E0,1.437018216E-1,1.325538605E-1,1.829487532E-1
2.503649963E0,1.168245375E-1,1.288887709E-1,1.707318127E-1
2.506071943E0,9.239064902E-2,1.227803007E-1,1.585148573E-1
2.508494651E0,6.673506647E-2,1.117850468E-1,1.450762302E-1
2.510916526E0,4.474456236E-2,9.712471068E-2,1.304158866E-1
2.513337620E0,2.641914412E-2,7.757759839E-2,1.120904684E-1
2.515759599E0,5.650337320E-3,5.436540768E-2,9.376505762E-2
2.518182307E0,-1.023169141E-2,2.748812735E-2,7.055285573E-2
2.520604234E0,-2.611372061E-2,6.108472589E-4,4.734066129E-2
2.523025328E0,-4.199574888E-2,-2.504473738E-2,2.412846684E-2
2.525447307E0,-5.054761097E-2,-5.558710173E-2,-1.527118147E-3
2.527870016E0,-6.520794332E-2,-8.368607610E-2,-2.473931387E-2
2.530291943E0,-7.620319724E-2,-1.142284349E-1,-4.795150831E-2
2.532712984E0,-8.842013776E-2,-1.374406368E-1,-6.872031838E-2
2.535134963E0,-1.018587798E-1,-1.545443535E-1,-8.460234851E-2
2.537557672E0,-1.140757278E-1,-1.667613089E-1,-9.559759498E-2
2.539979599E0,-1.238492802E-1,-1.740914732E-1,-1.004843712E-1
2.542400693E0,-1.360662282E-1,-1.814216375E-1,-1.029277667E-1
2.544822672E0,-1.470614821E-1,-1.887518018E-1,-1.017060652E-1
2.547245380E0,-1.556133330E-1,-2.009687424E-1,-1.004843712E-1
2.549667307E0,-1.641651988E-1,-2.156290859E-1,-9.559759498E-2
2.552088401E0,-1.714953631E-1,-2.278460264E-1,-8.826743066E-2
2.554510328E0,-1.837123185E-1,-2.388412803E-1,-7.605048269E-2
2.556933036E0,-1.959292591E-1,-2.473931462E-1,-6.505523622E-2
2.559354963E0,-2.057028115E-1,-2.571666837E-1,-5.161659420E-2
2.561776057E0,-2.191414535E-1,-2.681619525E-1,-4.184303805E-2
2.564198036E0,-2.325800955E-1,-2.718270421E-1,-2.962609194E-2
2.566620745E0,-2.472404242E-1,-2.706053257E-1,-2.229592577E-2
2.569042672E0,-2.606790662E-1,-2.681619525E-1,-1.496575773E-2
2.571463766E0,-2.753393948E-1,-2.596100867E-1,-8.857285604E-3
2.573885745E0,-2.912214398E-1,-2.461714447E-1,-2.748812549E-3
2.576308453E0,-3.034383655E-1,-2.339545041E-1,-3.054236295E-4
2.578730328E0,-3.180987239E-1,-2.168507725E-1,-3.054236295E-4
2.581151422E0,-3.315373361E-1,-2.070772201E-1,-5.192201585E-3
2.583573401E0,-3.449759781E-1,-2.009687424E-1,-1.496575773E-2
2.585996109E0,-3.608580232E-1,-1.985253543E-1,-2.840439789E-2
2.588418036E0,-3.742966652E-1,-1.997470558E-1,-4.062134400E-2
2.590839130E0,-3.877353072E-1,-1.997470558E-1,-5.528167635E-2
2.593261109E0,-3.999522328E-1,-1.997470558E-1,-6.872031838E-2
2.595683818E0,-4.109475017E-1,-2.034121305E-1,-8.460234851E-2
2.598105693E0,-4.256078303E-1,-2.107423097E-1,-9.437590092E-2
2.600526786E0,-4.402681589E-1,-2.156290859E-1,-1.017060652E-1
2.602948766E0,-4.537068009E-1,-2.095206082E-1,-1.053711548E-1
2.605371474E0,-4.634803534E-1,-2.046338320E-1,-1.065928489E-1
2.607793401E0,-4.744756222E-1,-1.973036677E-1,-1.053711548E-1
2.610214495E0,-4.805840850E-1,-1.911951900E-1,-1.029277667E-1
2.612636474E0,-4.903576374E-1,-1.887518018E-1,-1.004843712E-1
2.615059182E0,-4.964661002E-1,-1.948602796E-1,-1.017060652E-1
2.617481109E0,-5.037962794E-1,-2.192941606E-1,-1.065928489E-1
2.619902151E0,-5.147915483E-1,-2.718270421E-1,-1.151447073E-1
2.622324130E0,-5.257867575E-1,-3.268032968E-1,-1.114796251E-1
2.624746838E0,-5.428904891E-1,-3.512371778E-1,-9.315420687E-2
2.627168766E0,-5.587725043E-1,-3.390202224E-1,-7.116370648E-2
2.629589859E0,-5.795413256E-1,-3.133646548E-1,-4.550812021E-2
2.632011838E0,-6.027535200E-1,-2.742704153E-1,-2.596100792E-2
2.634434547E0,-6.247440577E-1,-2.278460264E-1,-1.252236869E-2
2.636856474E0,-6.503996253E-1,-1.753131598E-1,-6.413896102E-3
2.639277568E0,-6.723901033E-1,-1.459924877E-1,-3.970507067E-3
2.641699547E0,-6.894938350E-1,-1.435490996E-1,-1.527118147E-3
2.644122203E0,-7.029324770E-1,-1.508792788E-1,3.359660041E-3
2.646544130E0,-7.114843726E-1,-1.667613089E-1,4.581354558E-3
2.648965224E0,-7.212579250E-1,-1.740914732E-1,8.246437646E-3
2.651387203E0,-7.224795818E-1,-1.826433241E-1,1.313321572E-2
2.653809911E0,-7.249229550E-1,-1.887518018E-1,2.168507688E-2
2.656231838E0,-7.261446714E-1,-1.936385781E-1,3.268032894E-2
2.658652932E0,-7.200362086E-1,-2.046338320E-1,4.489727318E-2
2.661074859E0,-7.114843726E-1,-2.205158621E-1,5.833591148E-2
2.663497620E0,-7.041541934E-1,-2.241809368E-1,7.177454978E-2
2.665919547E0,-6.956022978E-1,-2.266243398E-1,8.521319181E-2
2.668340588E0,-6.833853722E-1,-2.302894145E-1,9.498675168E-2
2.670762568E0,-6.723901033E-1,-2.315111160E-1,1.023169160E-1
2.673185276E0,-6.589514613E-1,-2.388412803E-1,1.023169160E-1
2.675607203E0,-6.467345357E-1,-2.473931462E-1,9.743013978E-2
2.678028297E0,-6.332958937E-1,-2.571666837E-1,9.498675168E-2
2.680450276E0,-6.247440577E-1,-2.669402659E-1,8.765657991E-2
2.682872984E0,-6.210789680E-1,-2.681619525E-1,8.399149776E-2
2.685294911E0,-6.161921620E-1,-2.657185495E-1,8.154810965E-2
2.687715953E0,-6.149705052E-1,-2.693836391E-1,7.788302749E-2
2.690137932E0,-6.137487888E-1,-2.669402659E-1,6.810946763E-2
2.692560641E0,-6.088619828E-1,-2.730487287E-1,5.467082933E-2
2.694982568E0,-6.088619828E-1,-2.803788781E-1,4.367557913E-2
2.697403661E0,-6.064186096E-1,-2.889307439E-1,3.145863488E-2
2.699825641E0,-6.076403260E-1,-2.974826097E-1,2.168507688E-2
2.702248349E0,-6.039752364E-1,-3.109212518E-1,1.679829881E-2
2.704670276E0,-5.966450572E-1,-3.268032968E-1,1.435491070E-2
2.707091370E0,-5.868715048E-1,-3.377985358E-1,1.557660475E-2
2.709513297E0,-5.795413256E-1,-3.463504016E-1,1.801999472E-2
2.711936005E0,-5.661026835E-1,-3.536805511E-1,2.046338283E-2
2.714357932E0,-5.502206683E-1,-3.573456407E-1,2.046338283E-2
2.716779026E0,-5.294518471E-1,-3.597890437E-1,1.801999472E-2
2.719201005E0,-5.050179958E-1,-3.622324169E-1,1.679829881E-2
2.721623713E0,-4.805840850E-1,-3.597890437E-1,1.435491070E-2
2.724045641E0,-4.488200247E-1,-3.573456407E-1,9.468132630E-3
2.726466734E0,-4.109475017E-1,-3.634541333E-1,9.468132630E-3
2.728888661E0,-3.730749488E-1,-3.610107303E-1,9.468132630E-3
2.731311422E0,-3.339807391E-1,-3.561239541E-1,1.191152167E-2
2.733733297E0,-2.936648130E-1,-3.573456407E-1,1.557660475E-2
2.736154391E0,-2.484621257E-1,-3.573456407E-1,1.679829881E-2
2.738576370E0,-1.983726472E-1,-3.561239541E-1,1.557660475E-2
2.740999078E0,-1.433963925E-1,-3.512371778E-1,5.803049076E-3
2.743421005E0,-8.964183182E-2,-3.451287150E-1,-1.527118147E-3
2.745842099E0,-3.833066672E-2,-3.365768492E-1,-8.857285604E-3
2.748264078E0,3.206948051E-3,-3.182514310E-1,-1.740914769E-2
2.750686786E0,3.741439432E-2,-2.962609231E-1,-2.107422985E-2
2.753108713E0,6.306997687E-2,-2.693836391E-1,-2.718270384E-2
2.755529755E0,7.406523079E-2,-2.327328026E-1,-3.939964995E-2
2.757951734E0,6.551336497E-2,-1.801999360E-1,-5.650337040E-2
2.760374443E0,4.474456236E-2,-1.252236813E-1,-7.116370648E-2
2.762796370E0,2.031067200E-2,-7.635590434E-2,-8.338065445E-2
2.765217463E0,-6.566607859E-3,-3.359659761E-2,-9.193251282E-2
2.767639443E0,-3.222219273E-2,9.162709117E-3,-9.315420687E-2
2.770062151E0,-5.176930502E-2,4.947862774E-2,-9.193251282E-2
2.772484078E0,-6.887302548E-2,9.956810623E-2,-8.826743066E-2
2.774905120E0,-7.864658535E-2,1.423274130E-1,-8.704573661E-2
2.777327099E0,-7.864658535E-2,1.740914732E-1,-9.193251282E-2
2.779749807E0,-7.620319724E-2,1.973036677E-1,-9.681928903E-2
2.782171734E0,-6.398624927E-2,2.082989216E-1,-1.053711548E-1
2.784592828E0,-5.176930502E-2,2.144073844E-1,-1.090362370E-1
2.787014807E0,-3.710897267E-2,2.192941606E-1,-1.127013192E-1
2.789437516E0,-2.122694254E-2,2.217375487E-1,-1.139230132E-1
2.791859443E0,-5.344913341E-3,2.266243398E-1,-1.127013192E-1
2.794280484E0,3.206948051E-3,2.339545041E-1,-1.065928489E-1
2.796702463E0,1.175880991E-2,2.339545041E-1,-1.004843712E-1
2.799125172E0,2.153236605E-2,2.290677279E-1,-9.193251282E-2
2.801547099E0,2.886253223E-2,2.217375487E-1,-8.460234851E-2
2.803968193E0,3.252761811E-2,2.095206082E-1,-7.849387079E-2
2.806390172E0,3.130592033E-2,1.777565479E-1,-6.505523622E-2
2.808812880E0,2.519745007E-2,1.203369126E-1,-4.062134400E-2
2.811234807E0,1.175880991E-2,3.603998944E-2,-7.635590620E-3
2.813655901E0,-9.009997360E-3,-5.925218388E-2,1.191152167E-2
2.816077880E0,-2.977880463E-2,-1.349972486E-1,1.801999472E-2
2.818500588E0,-4.443913698E-2,-1.911951900E-1,1.801999472E-2
2.820922463E0,-5.543438718E-2,-2.156290859E-1,1.924168877E-2
2.823343557E0,-5.299099907E-2,-2.180724740E-1,1.924168877E-2
2.825765536E0,-4.443913698E-2,-2.144073844E-1,1.924168877E-2
2.828188245E0,-2.489202656E-2,-2.144073844E-1,1.557660475E-2
2.830610172E0,1.985253533E-3,-2.302894145E-1,2.168507688E-2
2.833031266E0,3.497100621E-2,-2.498365343E-1,2.290677279E-2
2.835453245E0,6.917845458E-2,-2.486148328E-1,1.679829881E-2
2.837875953E0,1.033858955E-1,-2.302894145E-1,7.024743594E-3
2.840297828E0,1.437018216E-1,-1.997470558E-1,-7.635590620E-3
2.842718922E0,1.864611208E-1,-1.569877416E-1,-2.107422985E-2
2.845140901E0,2.365505993E-1,-1.032331884E-1,-3.573456407E-2
2.847563609E0,2.951919436E-1,-5.436540768E-2,-4.672981426E-2
2.849985536E0,3.599417508E-1,-2.626643144E-2,-4.917320609E-2
2.852406630E0,4.344651103E-1,-1.404948719E-2,-5.039490014E-2
2.854828609E0,5.065450668E-1,-5.497625098E-3,-5.405998230E-2
2.857251318E0,5.871769190E-1,-6.719320081E-3,-6.016845629E-2
2.859673245E0,6.678087711E-1,-7.941014133E-3,-6.627693027E-2
2.862094286E0,7.411104441E-1,-3.054236295E-3,-7.360709459E-2
2.864516266E0,8.083036542E-1,3.054236295E-3,-7.849387079E-2
2.866938974E0,8.632798791E-1,1.771457121E-2,-8.338065445E-2
2.869360901E0,9.097042680E-1,3.848337755E-2,-9.071081877E-2
2.871781995E0,9.402466416E-1,7.024743408E-2,-1.004843712E-1
2.874203974E0,9.659022093E-1,1.056765765E-1,-1.127013192E-1
2.876626682E0,9.817842841E-1,1.374406368E-1,-1.236965731E-1
2.879048609E0,9.915578365E-1,1.667613089E-1,-1.322484314E-1
2.881469703E0,9.940012097E-1,1.911951900E-1,-1.395785958E-1
2.883891630E0,9.891144037E-1,2.131856978E-1,-1.481304616E-1
2.886314338E0,9.781191945E-1,2.363978922E-1,-1.566823274E-1
2.888736266E0,9.622371197E-1,2.571666837E-1,-1.627907902E-1
2.891157359E0,9.402466416E-1,2.913741469E-1,-1.701209545E-1
2.893579338E0,9.194778204E-1,3.206948042E-1,-1.786728203E-1
2.896002047E0,8.938222528E-1,3.585673273E-1,-1.860029846E-1
2.898423974E0,8.706100583E-1,3.891097009E-1,-1.933331639E-1
2.900845068E0,8.425110579E-1,4.282039404E-1,-1.982199401E-1
2.903266995E0,8.168554902E-1,4.599680007E-1,-1.957765520E-1
2.905689703E0,7.887565494E-1,4.929537475E-1,-1.921114624E-1
2.908111630E0,7.667660117E-1,5.210527182E-1,-1.872246861E-1
2.910532724E0,7.459971905E-1,5.430431962E-1,-1.774511337E-1
2.912954703E0,7.313368917E-1,5.564818382E-1,-1.664558798E-1
2.915377411E0,7.142331600E-1,5.662553906E-1,-1.505738497E-1
2.917799338E0,7.020162344E-1,5.638120174E-1,-1.298050433E-1
2.920220432E0,6.922426820E-1,5.515950918E-1,-1.029277667E-1
2.922642411E0,6.800256968E-1,5.283828974E-1,-7.116370648E-2
2.925065120E0,6.726955175E-1,4.892886579E-1,-2.962609194E-2
2.927486995E0,6.653653979E-1,4.477510452E-1,1.435491070E-2
2.929908088E0,6.641436815E-1,4.245388508E-1,5.711421743E-2
2.932330068E0,6.641436815E-1,3.988832533E-1,8.765657991E-2
2.934752776E0,6.665870547E-1,3.720059693E-1,1.120904684E-1
2.937174703E0,6.714738607E-1,3.487937748E-1,1.304158866E-1
2.939595797E0,6.788040400E-1,3.329117596E-1,1.475196183E-1
2.942017776E0,6.849125028E-1,3.292466700E-1,1.609582454E-1
2.944440484E0,6.910209656E-1,3.316900730E-1,1.707318127E-1
2.946862411E0,6.983511448E-1,3.231382072E-1,1.829487532E-1
2.949283453E0,7.020162344E-1,2.999260128E-1,2.024958730E-1
2.951705432E0,7.032378912E-1,2.632751763E-1,2.269297540E-1
2.954128141E0,7.032378912E-1,2.217375487E-1,2.525853515E-1
2.956550068E0,7.007945180E-1,1.887518018E-1,2.782409191E-1
2.958971161E0,6.959077120E-1,1.606528312E-1,3.087832928E-1
2.961393141E0,6.885775924E-1,1.325538605E-1,3.454341292E-1
2.963815849E0,6.763606071E-1,1.056765765E-1,3.881934285E-1
2.966237776E0,6.641436815E-1,7.757759839E-2,4.321744442E-1
2.968658818E0,6.458182931E-1,5.070032179E-2,4.834856093E-1
2.971080797E0,6.250494719E-1,3.603998944E-2,5.360184908E-1
2.973503505E0,6.006155610E-1,2.748812735E-2,5.897729993E-1
2.975925432E0,5.712949038E-1,2.260134928E-2,6.459710002E-1
2.978346526E0,5.456393361E-1,1.771457121E-2,7.046123147E-1
2.980768505E0,5.138752460E-1,1.649287529E-2,7.669187188E-1
2.983191213E0,4.857762754E-1,1.404948719E-2,8.328902125E-1
2.985613141E0,4.564556181E-1,1.282779220E-2,8.988617659E-1
2.988034234E0,4.234698713E-1,6.719320081E-3,9.575030804E-1
2.990456161E0,3.904841244E-1,6.108472589E-4,1.012479305E0
2.992878870E0,3.562766612E-1,-4.275931045E-3,1.065012217E0
2.995300797E0,3.208475113E-1,-5.497625098E-3,1.113879919E0
2.997721891E0,2.841966748E-1,-3.054236295E-3,1.160304427E0
3.000143870E0,2.475458533E-1,1.832541777E-3,1.203063726E0
3.002566578E0,2.084516287E-1,9.162709117E-3,1.244601250E0
3.004988505E0,1.705790907E-1,6.719320081E-3,1.283695459E0
3.007409599E0,1.363716573E-1,-1.832541777E-3,1.322789788E0
3.009831578E0,1.009425074E-1,-1.649287529E-2,1.359440565E0
3.012254234E0,6.673506647E-2,-3.848337755E-2,1.394869685E0
3.014676161E0,3.741439432E-2,-7.146912813E-2,1.429077148E0
3.017097255E0,5.650337320E-3,-1.130067408E-1,1.460841179E0
3.019519234E0,-2.122694254E-2,-1.606528312E-1,1.491383553E0
3.021941943E0,-5.054761097E-2,-2.107423097E-1,1.524369359E0
3.024363870E0,-7.742489129E-2,-2.486148328E-1,1.559798479E0
3.026784963E0,-1.018587798E-1,-2.767138183E-1,1.592784286E0
3.029206943E0,-1.250709742E-1,-2.938175201E-1,1.622257590E0
3.031629651E0,-1.458397806E-1,-3.023693860E-1,1.651578307E0
3.034051526E0,-1.666085869E-1,-3.035911024E-1,1.678455591E0
3.036472620E0,-1.885990947E-1,-2.974826097E-1,1.705332875E0
3.038894599E0,-2.081461996E-1,-2.938175201E-1,1.730988383E0
3.041317307E0,-2.313583940E-1,-2.938175201E-1,1.763974190E0
3.043739234E0,-2.496838123E-1,-2.938175201E-1,1.795738220E0
3.046160328E0,-2.692309320E-1,-3.035911024E-1,1.829945683E0
3.048582307E0,-2.863346636E-1,-3.316900730E-1,1.864153147E0
3.051005016E0,-2.985515893E-1,-3.891097009E-1,1.899582267E0
3.053426891E0,-3.107685447E-1,-4.648547769E-1,1.942341566E0
3.055847984E0,-3.168770075E-1,-5.149442554E-1,1.989987612E0
3.058269963E0,-3.193204105E-1,-5.332696438E-1,2.031525373E0
3.060692672E0,-3.254288733E-1,-5.296045542E-1,2.074284554E0
3.063114599E0,-3.315373361E-1,-5.149442554E-1,2.114600420E0
3.065535693E0,-3.352024257E-1,-5.051707029E-1,2.154916525E0
3.067957672E0,-3.388675153E-1,-5.125008225E-1,2.192788839E0
3.070380380E0,-3.413109183E-1,-5.589252710E-1,2.231883287E0
3.072802307E0,-3.376458287E-1,-6.163448691E-1,2.274642467E0
3.075223349E0,-3.339807391E-1,-6.261184216E-1,2.318623543E0
3.077645328E0,-3.303156495E-1,-6.004628539E-1,2.358939409E0
3.080068036E0,-3.266505599E-1,-5.674771070E-1,2.399255276E0
3.082489963E0,-3.217637837E-1,-5.503733754E-1,2.437127829E0
3.084911057E0,-3.168770075E-1,-5.833591223E-1,2.477443695E0
3.087333036E0,-3.071034551E-1,-6.273401380E-1,2.517759800E0
3.089755745E0,-2.936648130E-1,-6.713211536E-1,2.560518980E0
3.092177672E0,-2.753393948E-1,-9.229902029E-1,2.593504667E0
3.094598713E0,-2.008160353E-1,-1.354248405E0,2.615495205E0
3.097020693E0,-1.495048702E-1,-1.431215167E0,2.652146101E0
3.099443401E0,-8.475505561E-2,-1.434880257E0,2.672914982E0
3.101865328E0,-1.878355257E-2,-1.520398855E0,2.697348833E0
3.104286422E0,7.528692484E-2,-1.752520800E0,2.718117476E0
3.106708401E0,1.412584335E-1,-1.830709219E0,2.735221386E0
3.109131109E0,1.937913001E-1,-1.772067904E0,2.749881744E0
3.111553036E0,2.414373755E-1,-1.764737725E0,2.753546715E0
3.113974130E0,2.829749882E-1,-1.818492293E0,2.741329670E0
3.116396057E0,3.110739589E-1,-1.829487562E0,2.720561028E0
3.118818766E0,3.196258247E-1,-1.784284830E0,2.698570490E0
3.121240693E0,3.135173619E-1,-1.753742456E0,2.666806459E0
3.123661786E0,2.939702570E-1,-1.747634053E0,2.621603727E0
3.126083766E0,2.597627938E-1,-1.725643516E0,2.572736025E0
3.128506474E0,2.145601064E-1,-1.687770963E0,2.516537905E0
3.130928401E0,1.546970755E-1,-1.662115335E0,2.449344873E0
3.133349495E0,7.650861889E-2,-1.629129648E0,2.377264738E0
3.135771422E0,-4.123218823E-3,-1.561936498E0,2.301519871E0
3.138194130E0,-8.719844371E-2,-1.477639556E0,2.230661392E0
3.140616057E0,-1.666085869E-1,-1.366465330E0,2.163468361E0
3.143037151E0,-2.435753495E-1,-1.217418551E0,2.096275091E0
3.145459130E0,-3.229855001E-1,-1.078145385E0,2.024195194E0
3.147881838E0,-4.011739492E-1,-9.681929350E-1,1.949671745E0
3.150303766E0,-4.732539058E-1,-8.790091872E-1,1.878813505E0
3.152724859E0,-5.306735635E-1,-8.167027831E-1,1.811620235E0
3.155146838E0,-5.758762360E-1,-7.434011102E-1,1.749313831E0
3.157569495E0,-6.064186096E-1,-6.591041684E-1,1.693115830E0
3.159991422E0,-6.284091473E-1,-6.016845703E-1,1.633252859E0
3.162412516E0,-6.442911625E-1,-5.625903010E-1,1.573237062E0
3.164834495E0,-6.540647149E-1,-5.357130170E-1,1.507265568E0
3.167257203E0,-6.589514613E-1,-5.259394646E-1,1.437628984E0
3.169679130E0,-6.540647149E-1,-5.283828974E-1,1.366770744E0
3.172100224E0,-6.345176101E-1,-5.357130170E-1,1.291025639E0
3.174522203E0,-6.076403260E-1,-5.418215394E-1,1.204285383E0
3.176944911E0,-5.746545792E-1,-5.405998230E-1,1.101662993E0
3.179366786E0,-5.318952799E-1,-5.418215394E-1,9.880454540E-1
3.181787880E0,-4.903576374E-1,-5.625903010E-1,8.597674966E-1
3.184209859E0,-4.500417113E-1,-5.931326747E-1,7.241594195E-1
3.186632568E0,-4.133908749E-1,-6.248967648E-1,5.836645365E-1
3.189054495E0,-3.694098890E-1,-6.493306160E-1,4.443913698E-1
3.191475588E0,-3.193204105E-1,-6.664343476E-1,3.051182032E-1
3.193897568E0,-2.606790662E-1,-6.774296165E-1,1.682884246E-1
3.196320276E0,-2.032594234E-1,-6.725428104E-1,3.756710514E-2
3.198742151E0,-1.409530044E-1,-6.468872428E-1,-8.215895295E-2
3.201163245E0,-7.253811508E-2,-6.053496599E-1,-1.908897758E-1
3.203585224E0,7.635590737E-4,-5.540384650E-1,-2.886253297E-1
3.206007932E0,7.162184268E-2,-4.929537475E-1,-3.778090179E-1
3.208429859E0,1.314848661E-1,-4.294256270E-1,-4.694361091E-1
3.210850953E0,1.889045089E-1,-3.720059693E-1,-5.586197972E-1
3.213272932E0,2.353289127E-1,-3.231382072E-1,-6.404733658E-1
3.215695641E0,2.683146596E-1,-2.742704153E-1,-7.052231431E-1
3.218117568E0,2.756448388E-1,-2.254026383E-1,-7.467607856E-1
3.220538609E0,2.707580328E-1,-1.789782494E-1,-7.638645172E-1
3.222960588E0,2.597627938E-1,-1.362189353E-1,-7.540909648E-1
3.225383297E0,2.487675399E-1,-9.345962852E-2,-7.235485911E-1
3.227805224E0,2.328855246E-1,-4.703523964E-2,-6.783458591E-1
3.230226318E0,2.157817930E-1,5.497625098E-3,-6.282563806E-1
3.232648297E0,2.072299272E-1,5.070032179E-2,-5.793886185E-1
3.235071005E0,1.901262105E-1,9.590301663E-2,-5.329642296E-1
3.237492932E0,1.693574041E-1,1.313321590E-1,-4.926483035E-1
3.239913974E0,1.449235082E-1,1.582094431E-1,-4.523324072E-1
3.242335953E0,1.143811494E-1,1.643179059E-1,-4.107947946E-1
3.244758661E0,8.017370105E-2,1.569877416E-1,-3.607053161E-1
3.247180588E0,4.963133857E-2,1.447708011E-1,-3.057290614E-1
3.249601682E0,2.031067200E-2,1.166718230E-1,-2.458660156E-1
3.252023661E0,-7.788302377E-3,7.269082218E-2,-1.750077456E-1
3.254446370E0,-3.588727489E-2,1.404948719E-2,-9.437590092E-2
3.256868297E0,-6.520794332E-2,-3.481829539E-2,-1.252236869E-2
3.259289391E0,-8.719844371E-2,-4.092676565E-2,3.512371704E-2
3.261711318E0,-1.079672500E-1,-6.108472589E-4,3.145863488E-2
3.264134026E0,-1.238492802E-1,4.581354558E-2,3.359660041E-3
3.266555953E0,-1.372879148E-1,8.002099395E-2,-3.206948191E-2
3.268977047E0,-1.458397806E-1,1.032331884E-1,-5.283828825E-2
3.271399026E0,-1.495048702E-1,1.032331884E-1,-5.161659420E-2
3.273821734E0,-1.495048702E-1,9.223793447E-2,-3.573456407E-2
3.276243661E0,-1.507265568E-1,7.513421029E-2,-1.863084175E-2
3.278664755E0,-1.519482583E-1,5.925218388E-2,-7.635590620E-3
3.281086682E0,-1.495048702E-1,4.581354558E-2,-5.192201585E-3
3.283509391E0,-1.458397806E-1,4.214845970E-2,-7.635590620E-3
3.285931318E0,-1.421747059E-1,4.337015375E-2,-1.252236869E-2
3.288352411E0,-1.348445266E-1,4.092676565E-2,-1.985253580E-2
3.290774391E0,-1.311794519E-1,4.459185153E-2,-2.718270384E-2
3.293197099E0,-1.299577504E-1,5.070032179E-2,-3.573456407E-2
3.295619026E0,-1.262926757E-1,4.703523964E-2,-4.306473210E-2
3.298040120E0,-1.250709742E-1,4.337015375E-2,-5.039490014E-2
3.300462047E0,-1.287360638E-1,4.214845970E-2,-5.650337040E-2
3.302884755E0,-1.311794519E-1,4.581354558E-2,-6.383354217E-2
3.305306682E0,-1.348445266E-1,5.070032179E-2,-6.872031838E-2
3.307727776E0,-1.372879148E-1,5.558710173E-2,-7.605048269E-2
3.310149755E0,-1.409530044E-1,6.047387794E-2,-7.971556485E-2
3.312572463E0,-1.446180940E-1,6.413896382E-2,-8.215895295E-2
3.314994391E0,-1.433963925E-1,6.658235192E-2,-8.460234851E-2
3.317415484E0,-1.446180940E-1,6.536065787E-2,-8.826743066E-2
3.319837463E0,-1.446180940E-1,6.536065787E-2,-8.826743066E-2
3.322260172E0,-1.433963925E-1,6.169557199E-2,-8.948912472E-2
3.324682047E0,-1.470614821E-1,5.803048983E-2,-8.948912472E-2
3.327103141E0,-1.446180940E-1,5.192201585E-2,-8.948912472E-2
3.329525120E0,-1.409530044E-1,4.459185153E-2,-8.948912472E-2
3.331947828E0,-1.360662282E-1,3.481829539E-2,-9.071081877E-2
3.334369755E0,-1.311794519E-1,2.260134928E-2,-9.193251282E-2
3.336790849E0,-1.262926757E-1,1.038440317E-2,-9.071081877E-2
3.339212828E0,-1.226275861E-1,6.108472589E-4,-9.071081877E-2
3.341635536E0,-1.177408099E-1,-1.282779220E-2,-9.071081877E-2
3.344057411E0,-1.128540337E-1,-2.260134928E-2,-9.071081877E-2
3.346478505E0,-1.067455560E-1,-3.726168349E-2,-8.826743066E-2
3.348900484E0,-9.941539168E-2,-4.825693369E-2,-8.582404256E-2
3.351323193E0,-9.452861547E-2,-5.803048983E-2,-8.460234851E-2
3.353745120E0,-8.719844371E-2,-6.902574003E-2,-8.093725890E-2
3.356166213E0,-8.353336155E-2,-7.757759839E-2,-7.605048269E-2
3.358588193E0,-8.231166750E-2,-8.368607610E-2,-7.360709459E-2
3.361010901E0,-7.742489129E-2,-8.979454637E-2,-7.360709459E-2
3.363432828E0,-7.253811508E-2,-9.712471068E-2,-6.872031838E-2
3.365853870E0,-7.131642103E-2,-9.834641218E-2,-6.383354217E-2
3.368275849E0,-6.765133142E-2,-1.007898003E-1,-6.016845629E-2
3.370698557E0,-6.398624927E-2,-1.056765765E-1,-5.528167635E-2
3.373120484E0,-5.909947306E-2,-1.056765765E-1,-5.161659420E-2
3.375541578E0,-5.665608495E-2,-1.068982705E-1,-4.672981426E-2
3.377963557E0,-5.176930502E-2,-1.056765765E-1,-4.184303805E-2
3.380386266E0,-4.688252881E-2,-1.081199646E-1,-3.573456407E-2
3.382808193E0,-4.810422286E-2,-1.032331884E-1,-3.084778599E-2
3.385229234E0,-4.443913698E-2,-1.044548824E-1,-2.596100792E-2
3.387651213E0,-4.199574888E-2,-1.007898003E-1,-2.107422985E-2
3.390073922E0,-4.199574888E-2,-1.007898003E-1,-1.863084175E-2
3.392495849E0,-4.077405483E-2,-9.956810623E-2,-1.740914769E-2
3.394916943E0,-4.077405483E-2,-9.834641218E-2,-1.618745178E-2
3.397338922E0,-4.321744293E-2,-9.345962852E-2,-1.374406368E-2
3.399761630E0,-4.321744293E-2,-9.468132257E-2,-1.374406368E-2
3.402183557E0,-4.321744293E-2,-9.223793447E-2,-1.374406368E-2
3.404604599E0,-4.321744293E-2,-9.345962852E-2,-1.374406368E-2
3.407026578E0,-4.688252881E-2,-9.590301663E-2,-1.374406368E-2
3.409449286E0,-4.566083103E-2,-9.223793447E-2,-1.130067464E-2
3.411871213E0,-4.443913698E-2,-9.223793447E-2,-1.252236869E-2
3.414292307E0,-4.077405483E-2,-8.368607610E-2,-1.496575773E-2
3.416714286E0,-4.077405483E-2,-7.635590434E-2,-1.496575773E-2
3.419136995E0,-3.833066672E-2,-8.002099395E-2,-1.374406368E-2
3.421558922E0,-3.833066672E-2,-8.368607610E-2,-8.857285604E-3
3.423979963E0,-3.833066672E-2,-9.223793447E-2,-6.413896102E-3
3.426401943E0,-4.321744293E-2,-9.590301663E-2,-2.748812549E-3
3.428824651E0,-4.321744293E-2,-1.032331884E-1,9.162708884E-4
3.431246578E0,-4.199574888E-2,-1.081199646E-1,2.137965523E-3
3.433667672E0,-4.199574888E-2,-1.142284349E-1,5.803049076E-3
3.436089651E0,-4.199574888E-2,-1.191152185E-1,8.246437646E-3
3.438512359E0,-4.077405483E-2,-1.166718230E-1,1.068982668E-2
3.440934286E0,-4.077405483E-2,-1.130067408E-1,1.191152167E-2
3.443355328E0,-4.199574888E-2,-1.105633527E-1,1.191152167E-2
3.445777307E0,-4.199574888E-2,-1.032331884E-1,1.191152167E-2
3.448200016E0,-4.199574888E-2,-9.834641218E-2,1.313321572E-2
3.450621943E0,-4.321744293E-2,-9.345962852E-2,1.557660475E-2
3.453043036E0,-4.443913698E-2,-8.857285231E-2,1.557660475E-2
3.455465016E0,-4.566083103E-2,-8.246438205E-2,1.679829881E-2
3.457887724E0,-4.932591692E-2,-7.635590434E-2,1.801999472E-2
3.460309651E0,-5.054761097E-2,-7.269082218E-2,2.168507688E-2
3.462730745E0,-5.054761097E-2,-7.024743408E-2,2.290677279E-2
3.465152672E0,-5.054761097E-2,-6.536065787E-2,2.535016090E-2
3.467575380E0,-5.421269313E-2,-6.413896382E-2,2.779355086E-2
3.469997307E0,-5.787777901E-2,-5.803048983E-2,3.268032894E-2
3.472418401E0,-5.787777901E-2,-5.680879578E-2,3.512371704E-2
3.474840380E0,-6.154286116E-2,-5.680879578E-2,4.123219103E-2
3.477263088E0,-6.398624927E-2,-5.925218388E-2,4.734066129E-2
3.479685016E0,-6.154286116E-2,-6.902574003E-2,5.344913527E-2
3.482106109E0,-6.520794332E-2,-7.757759839E-2,5.955760926E-2
3.484528088E0,-6.642963737E-2,-8.124268800E-2,6.688777357E-2
3.486950745E0,-6.642963737E-2,-9.223793447E-2,7.177454978E-2
3.489372672E0,-6.642963737E-2,-1.032331884E-1,7.666133344E-2
3.491793766E0,-6.642963737E-2,-1.142284349E-1,7.910472155E-2
3.494215745E0,-7.009471953E-2,-1.227803007E-1,8.154810965E-2
3.496638453E0,-7.131642103E-2,-1.362189353E-1,8.399149776E-2
3.499060380E0,-7.375980914E-2,-1.508792788E-1,8.399149776E-2
3.501481474E0,-7.742489129E-2,-1.630962193E-1,8.399149776E-2
3.503903401E0,-7.864658535E-2,-1.765348613E-1,8.521319181E-2
3.506326109E0,-8.108997345E-2,-1.826433241E-1,8.521319181E-2
3.508748036E0,-8.231166750E-2,-1.948602796E-1,8.399149776E-2
3.511169130E0,-8.597674966E-2,-2.009687424E-1,8.276980370E-2
3.513591109E0,-8.597674966E-2,-2.095206082E-1,8.154810965E-2
3.516013818E0,-8.719844371E-2,-2.119639963E-1,8.032641560E-2
3.518435745E0,-8.597674966E-2,-2.131856978E-1,7.788302749E-2
3.520856838E0,-8.475505561E-2,-2.156290859E-1,7.543963939E-2
3.523278766E0,-8.475505561E-2,-2.144073844E-1,7.177454978E-2
3.525701474E0,-8.108997345E-2,-2.192941606E-1,7.299624383E-2
3.528123401E0,-7.986827940E-2,-2.278460264E-1,7.299624383E-2
3.530544495E0,-7.742489129E-2,-2.376195788E-1,7.421794534E-2
3.532966474E0,-7.620319724E-2,-2.449497581E-1,7.543963939E-2
3.535389182E0,-7.253811508E-2,-2.498365343E-1,7.421794534E-2
3.537811109E0,-6.398624927E-2,-2.498365343E-1,7.421794534E-2
3.540232203E0,-5.665608495E-2,-2.473931462E-1,7.055285573E-2
3.542654182E0,-4.810422286E-2,-2.400629669E-1,6.933116168E-2
3.545076891E0,-3.833066672E-2,-2.388412803E-1,7.177454978E-2
3.547498766E0,-3.222219273E-2,-2.461714447E-1,7.788302749E-2
3.549919859E0,-2.733541466E-2,-2.669402659E-1,8.521319181E-2
3.552341838E0,-2.611372061E-2,-2.816005945E-1,9.254335612E-2
3.554764547E0,-2.367033064E-2,-2.987042964E-1,9.620844573E-2
3.557186474E0,-2.489202656E-2,-3.206948042E-1,9.743013978E-2
3.559607568E0,-2.733541466E-2,-3.377985358E-1,9.987352788E-2
3.562029547E0,-3.100049868E-2,-3.549022675E-1,1.047603041E-1
3.564452255E0,-3.955236077E-2,-3.561239541E-1,1.047603041E-1
3.566874130E0,-4.443913698E-2,-3.524588645E-1,9.865183383E-2
3.569295224E0,-5.176930502E-2,-3.561239541E-1,9.865183383E-2
3.571717203E0,-6.276455522E-2,-3.695625961E-1,1.072036922E-1
3.574139911E0,-7.375980914E-2,-3.878880143E-1,1.181989461E-1
3.576561838E0,-8.475505561E-2,-4.111002088E-1,1.304158866E-1
3.578982932E0,-9.575030953E-2,-4.245388508E-1,1.353026628E-1
3.581404911E0,-1.043021679E-1,-4.245388508E-1,1.365243644E-1
3.583827620E0,-1.091889441E-1,-4.208737612E-1,1.340809762E-1
3.586249495E0,-1.091889441E-1,-4.013266563E-1,1.243074164E-1
3.588670588E0,-1.018587798E-1,-3.634541333E-1,1.145338640E-1
3.591092568E0,-8.964183182E-2,-3.072561622E-1,9.865183383E-2
3.593515276E0,-7.986827940E-2,-2.486148328E-1,8.276980370E-2
3.595937203E0,-6.765133142E-2,-2.095206082E-1,6.933116168E-2
3.598358297E0,-6.032116711E-2,-1.838650256E-1,6.077930331E-2
3.600780276E0,-5.787777901E-2,-1.655396074E-1,4.611896724E-2
3.603202984E0,-6.398624927E-2,-1.594311297E-1,3.634541109E-2
3.605624859E0,-7.375980914E-2,-1.240019947E-1,3.145863488E-2
3.608045953E0,-8.108997345E-2,-7.269082218E-2,2.657185495E-2
3.610467932E0,-7.742489129E-2,-4.214845970E-2,2.046338283E-2
3.612890641E0,-5.909947306E-2,-1.649287529E-2,1.435491070E-2
3.615312568E0,-4.321744293E-2,6.108472589E-4,9.468132630E-3
3.617733661E0,-3.100049868E-2,-6.108472589E-4,3.359660041E-3
3.620155641E0,-2.489202656E-2,-6.108472589E-4,-2.748812549E-3
3.622578349E0,-2.367033064E-2,4.275931045E-3,-5.192201585E-3
3.625000224E0,-1.878355257E-2,5.497625098E-3,-7.635590620E-3
3.627421318E0,-7.788302377E-3,1.160609815E-2,-1.130067464E-2
3.629843297E0,3.206948051E-3,1.527118124E-2,-1.374406368E-2
3.632266005E0,9.315420873E-3,2.015795931E-2,-1.618745178E-2
3.634687932E0,9.315420873E-3,1.893626526E-2,-1.985253580E-2
3.637109026E0,1.420219894E-2,2.137965336E-2,-2.351761982E-2
3.639531005E0,1.664558798E-2,2.626643144E-2,-2.596100792E-2
3.641953713E0,2.153236605E-2,2.748812735E-2,-2.718270384E-2
3.644375641E0,2.153236605E-2,3.115320951E-2,-2.962609194E-2
3.646796682E0,2.397575416E-2,3.481829539E-2,-2.962609194E-2
3.649218661E0,2.519745007E-2,3.848337755E-2,-3.084778599E-2
3.651641370E0,2.886253223E-2,3.726168349E-2,-3.084778599E-2
3.654063297E0,3.130592033E-2,3.970507160E-2,-3.084778599E-2
3.656484391E0,3.374931216E-2,3.848337755E-2,-2.962609194E-2
3.658906370E0,3.619270027E-2,3.603998944E-2,-2.962609194E-2
3.661329078E0,4.107947648E-2,3.359659761E-2,-2.840439789E-2
3.663751005E0,4.474456236E-2,3.115320951E-2,-2.596100792E-2
3.666172047E0,4.963133857E-2,2.748812735E-2,-2.473931387E-2
3.668594026E0,5.329642445E-2,2.137965336E-2,-2.473931387E-2
3.671016734E0,5.818320066E-2,1.893626526E-2,-2.229592577E-2
3.673438661E0,6.306997687E-2,1.649287529E-2,-2.107422985E-2
3.675859755E0,6.673506647E-2,9.162709117E-3,-1.985253580E-2
3.678281734E0,6.917845458E-2,6.719320081E-3,-1.740914769E-2
3.680704443E0,7.284353673E-2,3.054236295E-3,-1.496575773E-2
3.683126370E0,7.406523079E-2,-1.832541777E-3,-1.496575773E-2
3.685547411E0,7.895200700E-2,-1.160609815E-2,-1.374406368E-2
3.687969391E0,8.017370105E-2,-1.282779220E-2,-1.252236869E-2
3.690392099E0,8.261708915E-2,-1.649287529E-2,-1.130067464E-2
3.692814026E0,8.506047726E-2,-1.893626526E-2,-8.857285604E-3
3.695235120E0,8.506047726E-2,-2.137965336E-2,-6.413896102E-3
3.697657099E0,8.506047726E-2,-2.504473738E-2,-6.413896102E-3
3.700079807E0,8.383878320E-2,-2.626643144E-2,-5.192201585E-3
3.702501734E0,8.139539510E-2,-2.382304333E-2,-3.970507067E-3
3.704922776E0,7.895200700E-2,-2.382304333E-2,-1.527118147E-3
3.707344755E0,7.528692484E-2,-2.015795931E-2,-3.054236295E-4
3.709767463E0,6.917845458E-2,-1.527118124E-2,9.162708884E-4
3.712189391E0,6.429167092E-2,-9.162709117E-3,9.162708884E-4
3.714610484E0,5.818320066E-2,-7.941014133E-3,2.137965523E-3
3.717032463E0,5.085303262E-2,-4.275931045E-3,3.359660041E-3
3.719455172E0,4.352286831E-2,-1.832541777E-3,5.803049076E-3
3.721877099E0,3.741439432E-2,3.054236295E-3,7.024743594E-3
3.724298141E0,3.252761811E-2,7.941014133E-3,8.246437646E-3
3.726720120E0,2.641914412E-2,1.160609815E-2,1.068982668E-2
3.729142828E0,1.908897609E-2,1.527118124E-2,1.191152167E-2
3.731564755E0,1.420219894E-2,1.649287529E-2,1.313321572E-2
3.733985849E0,1.175880991E-2,2.015795931E-2,1.435491070E-2
3.736407828E0,9.315420873E-3,1.893626526E-2,1.679829881E-2
3.738830536E0,8.093725890E-3,1.771457121E-2,2.046338283E-2
3.741252463E0,6.872031838E-3,1.771457121E-2,2.046338283E-2
3.743673505E0,3.206948051E-3,1.893626526E-2,2.168507688E-2
3.746095484E0,4.428642802E-3,1.649287529E-2,2.290677279E-2
3.748518193E0,5.650337320E-3,1.527118124E-2,2.290677279E-2
3.750940120E0,4.428642802E-3,1.404948719E-2,2.412846684E-2
3.753361213E0,5.650337320E-3,1.282779220E-2,2.535016090E-2
3.755783193E0,8.093725890E-3,1.160609815E-2,2.535016090E-2
3.758205901E0,1.053711493E-2,1.404948719E-2,2.657185495E-2
3.760627828E0,1.298050396E-2,1.282779220E-2,2.901524492E-2
3.763048870E0,1.298050396E-2,9.162709117E-3,2.901524492E-2
3.765470849E0,1.786728203E-2,5.497625098E-3,2.779355086E-2
3.767893557E0,1.908897609E-2,4.275931045E-3,2.779355086E-2
3.770315484E0,2.275406010E-2,1.832541777E-3,2.779355086E-2
3.772736578E0,2.519745007E-2,1.832541777E-3,2.779355086E-2
3.775158557E0,2.764083818E-2,3.054236295E-3,2.412846684E-2
3.777581266E0,3.252761811E-2,3.054236295E-3,2.168507688E-2
3.780003193E0,3.374931216E-2,3.054236295E-3,1.924168877E-2
3.782424286E0,3.497100621E-2,3.054236295E-3,1.557660475E-2
3.784846213E0,3.741439432E-2,3.054236295E-3,1.191152167E-2
3.787268922E0,4.107947648E-2,3.054236295E-3,9.468132630E-3
3.789690849E0,4.352286831E-2,5.497625098E-3,7.024743594E-3
3.792111943E0,4.596625641E-2,6.719320081E-3,3.359660041E-3
3.794533922E0,5.085303262E-2,1.038440317E-2,9.162708884E-4
3.796956630E0,5.329642445E-2,1.038440317E-2,-1.527118147E-3
3.799378557E0,5.573981255E-2,1.282779220E-2,-7.635590620E-3
3.801799651E0,5.940489471E-2,1.404948719E-2,-8.857285604E-3
3.804221630E0,6.062658876E-2,1.649287529E-2,-1.252236869E-2
3.806644286E0,6.429167092E-2,2.015795931E-2,-1.618745178E-2
3.809066213E0,6.429167092E-2,2.870982140E-2,-1.863084175E-2
3.811487307E0,6.551336497E-2,3.481829539E-2,-2.229592577E-2
3.813909286E0,6.429167092E-2,3.970507160E-2,-2.596100792E-2
3.816331995E0,6.551336497E-2,4.459185153E-2,-2.962609194E-2
3.818753922E0,6.673506647E-2,5.192201585E-2,-3.451287001E-2
3.821175016E0,6.306997687E-2,5.680879578E-2,-3.817795217E-2
3.823596943E0,6.062658876E-2,6.169557199E-2,-4.184303805E-2
3.826019651E0,5.818320066E-2,6.780404598E-2,-4.306473210E-2
3.828441578E0,5.573981255E-2,7.391251624E-2,-4.306473210E-2
3.830862672E0,5.451811850E-2,8.002099395E-2,-4.062134400E-2
3.833284651E0,5.696150661E-2,8.490777016E-2,-3.573456407E-2
3.835707359E0,5.451811850E-2,8.490777016E-2,-2.718270384E-2
3.838129286E0,5.329642445E-2,7.879929990E-2,-1.863084175E-2
3.840550380E0,5.329642445E-2,7.513421029E-2,-1.252236869E-2
3.842972307E0,5.207473040E-2,6.902574003E-2,-1.374406368E-2
3.845395016E0,4.840964451E-2,7.146912813E-2,-1.740914769E-2
3.847816943E0,4.596625641E-2,7.391251624E-2,-1.985253580E-2
3.850238036E0,4.230117425E-2,7.635590434E-2,-1.985253580E-2
3.852660016E0,3.985778242E-2,7.879929990E-2,-2.107422985E-2
3.855082724E0,3.863608837E-2,7.635590434E-2,-2.229592577E-2
3.857504651E0,3.374931216E-2,7.879929990E-2,-2.229592577E-2
3.859925745E0,3.008422814E-2,8.124268800E-2,-2.107422985E-2
3.862347672E0,2.886253223E-2,8.246438205E-2,-2.107422985E-2
3.864770380E0,2.519745007E-2,8.246438205E-2,-2.107422985E-2
3.867192307E0,2.519745007E-2,8.002099395E-2,-1.863084175E-2
3.869613401E0,2.153236605E-2,7.635590434E-2,-1.618745178E-2
3.872035380E0,2.153236605E-2,7.146912813E-2,-1.374406368E-2
3.874458088E0,2.031067200E-2,6.780404598E-2,-1.007897966E-2
3.876880016E0,1.908897609E-2,6.047387794E-2,-6.413896102E-3
3.879301109E0,1.908897609E-2,5.436540768E-2,-2.748812549E-3
3.881723088E0,1.786728203E-2,4.947862774E-2,2.137965523E-3
3.884145797E0,1.786728203E-2,4.092676565E-2,4.581354558E-3
3.886567672E0,1.908897609E-2,3.237490356E-2,7.024743594E-3
3.888988766E0,1.786728203E-2,2.748812735E-2,1.191152167E-2
3.891410745E0,2.153236605E-2,2.137965336E-2,1.435491070E-2
3.893833453E0,2.275406010E-2,1.282779220E-2,1.801999472E-2
3.896255380E0,2.397575416E-2,6.719320081E-3,1.924168877E-2
3.898676474E0,2.397575416E-2,1.832541777E-3,2.290677279E-2
3.901098453E0,2.641914412E-2,-4.275931045E-3,2.779355086E-2
3.903521161E0,2.764083818E-2,-1.038440317E-2,2.901524492E-2
3.905943036E0,3.008422814E-2,-1.649287529E-2,3.023693897E-2
3.908364130E0,3.008422814E-2,-1.893626526E-2,3.023693897E-2
3.910786109E0,3.008422814E-2,-2.504473738E-2,2.901524492E-2
3.913208818E0,3.130592033E-2,-2.504473738E-2,2.901524492E-2
3.915630745E0,3.374931216E-2,-2.748812735E-2,2.779355086E-2
3.918051838E0,3.374931216E-2,-2.504473738E-2,2.657185495E-2
3.920473818E0,3.252761811E-2,-2.504473738E-2,2.412846684E-2
3.922896526E0,3.008422814E-2,-2.137965336E-2,2.168507688E-2
3.925318401E0,3.008422814E-2,-1.893626526E-2,2.046338283E-2
3.927739495E0,3.008422814E-2,-1.771457121E-2,1.801999472E-2
3.930161474E0,3.130592033E-2,-1.649287529E-2,1.557660475E-2
3.932584182E0,2.764083818E-2,-1.527118124E-2,1.313321572E-2
3.935006109E0,2.641914412E-2,-1.282779220E-2,1.191152167E-2
3.937427203E0,2.519745007E-2,-1.038440317E-2,8.246437646E-3
3.939849182E0,2.397575416E-2,-5.497625098E-3,3.359660041E-3
3.942271891E0,2.397575416E-2,-6.108472589E-4,-3.054236295E-4
3.944693766E0,2.275406010E-2,5.497625098E-3,-2.748812549E-3
3.947114859E0,2.153236605E-2,1.282779220E-2,-7.635590620E-3
3.949536838E0,1.908897609E-2,1.649287529E-2,-1.007897966E-2
3.951959547E0,1.786728203E-2,2.137965336E-2,-1.252236869E-2
3.954381474E0,1.542389300E-2,2.748812735E-2,-1.740914769E-2
3.956802568E0,1.542389300E-2,3.115320951E-2,-1.863084175E-2
3.959224547E0,1.175880991E-2,3.603998944E-2,-2.107422985E-2
3.961647255E0,1.175880991E-2,3.848337755E-2,-2.473931387E-2
3.964069182E0,1.053711493E-2,4.214845970E-2,-2.718270384E-2
3.966490224E0,6.872031838E-3,5.192201585E-2,-2.840439789E-2
3.968912203E0,5.650337320E-3,5.803048983E-2,-3.206948191E-2
3.971334911E0,6.872031838E-3,6.413896382E-2,-3.451287001E-2
3.973756838E0,6.872031838E-3,6.780404598E-2,-3.695625812E-2
3.976177932E0,8.093725890E-3,7.146912813E-2,-3.817795217E-2
3.978599911E0,4.428642802E-3,8.124268800E-2,-3.695625812E-2
3.981022620E0,9.315420873E-3,8.246438205E-2,-3.939964995E-2
3.983444547E0,1.298050396E-2,8.124268800E-2,-3.939964995E-2
3.985865588E0,1.664558798E-2,7.757759839E-2,-4.184303805E-2
3.988287568E0,1.908897609E-2,7.635590434E-2,-4.184303805E-2
3.990710276E0,2.153236605E-2,7.635590434E-2,-3.939964995E-2
3.993132203E0,2.397575416E-2,7.513421029E-2,-3.573456407E-2
3.995553297E0,2.764083818E-2,7.024743408E-2,-3.451287001E-2
3.997975276E0,3.130592033E-2,6.780404598E-2,-3.084778599E-2
4.000397984E0,3.619270027E-2,6.291726977E-2,-2.596100792E-2
4.002819911E0,3.863608837E-2,5.925218388E-2,-2.351761982E-2
4.005240953E0,4.230117425E-2,5.436540768E-2,-1.985253580E-2
4.007662932E0,4.840964451E-2,4.947862774E-2,-1.863084175E-2
4.010085641E0,4.963133857E-2,4.825693369E-2,-1.496575773E-2
4.012507568E0,4.963133857E-2,4.581354558E-2,-1.007897966E-2
4.014928661E0,5.329642445E-2,4.459185153E-2,-7.635590620E-3
4.017350641E0,5.451811850E-2,3.970507160E-2,-5.192201585E-3
4.019773349E0,5.573981255E-2,3.848337755E-2,-3.970507067E-3
4.022195276E0,5.696150661E-2,3.726168349E-2,-2.748812549E-3
4.024616318E0,5.940489471E-2,3.848337755E-2,-3.054236295E-4
4.027038297E0,5.696150661E-2,4.092676565E-2,-1.527118147E-3
4.029461005E0,5.940489471E-2,4.092676565E-2,-3.054236295E-4
4.031882932E0,5.818320066E-2,4.337015375E-2,-3.054236295E-4
4.034304026E0,5.818320066E-2,4.825693369E-2,-1.527118147E-3
4.036726005E0,5.940489471E-2,5.192201585E-2,-3.970507067E-3
4.039148713E0,5.818320066E-2,5.680879578E-2,-8.857285604E-3
4.041570641E0,5.696150661E-2,6.536065787E-2,-1.130067464E-2
4.043991734E0,5.696150661E-2,7.146912813E-2,-1.496575773E-2
4.046413661E0,5.329642445E-2,8.002099395E-2,-1.863084175E-2
4.048836370E0,5.085303262E-2,8.612946421E-2,-2.351761982E-2
4.051258297E0,4.840964451E-2,9.345962852E-2,-2.718270384E-2
4.053679391E0,4.474456236E-2,1.032331884E-1,-3.206948191E-2
4.056101370E0,3.985778242E-2,1.117850468E-1,-3.695625812E-2
4.058524078E0,3.497100621E-2,1.191152185E-1,-3.939964995E-2
4.060946005E0,3.130592033E-2,1.252236813E-1,-4.306473210E-2
4.063367047E0,2.764083818E-2,1.313321590E-1,-4.428642616E-2
4.065789026E0,2.397575416E-2,1.386623234E-1,-4.795150831E-2
4.068211734E0,1.664558798E-2,1.472141892E-1,-5.161659420E-2
4.070633661E0,1.298050396E-2,1.533226669E-1,-5.161659420E-2
4.073054755E0,9.315420873E-3,1.569877416E-1,-5.650337040E-2
4.075476734E0,6.872031838E-3,1.606528312E-1,-5.894676223E-2
4.077899443E0,5.650337320E-3,1.655396074E-1,-6.139015034E-2
4.080321370E0,5.650337320E-3,1.716480851E-1,-6.261184067E-2
4.082742463E0,6.872031838E-3,1.753131598E-1,-6.505523622E-2
4.085164391E0,6.872031838E-3,1.765348613E-1,-6.749862432E-2
4.087587099E0,1.175880991E-2,1.789782494E-1,-6.994201243E-2
4.090009026E0,1.542389300E-2,1.801999360E-1,-7.116370648E-2
4.092430120E0,2.031067200E-2,1.789782494E-1,-7.238540053E-2
4.094852099E0,2.519745007E-2,1.777565479E-1,-7.360709459E-2
4.097274807E0,2.886253223E-2,1.789782494E-1,-7.482878864E-2
4.099696734E0,3.497100621E-2,1.765348613E-1,-7.849387079E-2
4.102117828E0,3.985778242E-2,1.716480851E-1,-7.971556485E-2
4.104539755E0,4.230117425E-2,1.728697717E-1,-8.093725890E-2
4.106962463E0,4.840964451E-2,1.704263836E-1,-8.093725890E-2
4.109384391E0,5.207473040E-2,1.667613089E-1,-8.338065445E-2
4.111805484E0,5.696150661E-2,1.655396074E-1,-8.460234851E-2
4.114227463E0,6.062658876E-2,1.618745178E-1,-8.582404256E-2
4.116650172E0,6.429167092E-2,1.606528312E-1,-8.826743066E-2
4.119072099E0,6.673506647E-2,1.569877416E-1,-8.948912472E-2
4.121493193E0,6.795676053E-2,1.582094431E-1,-9.071081877E-2
4.123915120E0,7.284353673E-2,1.533226669E-1,-9.193251282E-2
4.126337880E0,7.406523079E-2,1.521009654E-1,-9.437590092E-2
4.128759755E0,7.406523079E-2,1.533226669E-1,-9.437590092E-2
4.131180849E0,7.528692484E-2,1.557660550E-1,-9.315420687E-2
4.133602828E0,7.895200700E-2,1.496575773E-1,-9.315420687E-2
4.136025536E0,7.895200700E-2,1.472141892E-1,-9.193251282E-2
4.138447463E0,7.650861889E-2,1.459924877E-1,-8.948912472E-2
4.140868557E0,7.895200700E-2,1.423274130E-1,-8.948912472E-2
4.143290484E0,8.017370105E-2,1.386623234E-1,-8.582404256E-2
4.145713245E0,7.895200700E-2,1.386623234E-1,-8.338065445E-2
4.148135120E0,7.650861889E-2,1.386623234E-1,-8.338065445E-2
4.150556213E0,8.017370105E-2,1.337755471E-1,-7.971556485E-2
4.152978193E0,7.895200700E-2,1.301104724E-1,-7.849387079E-2
4.155400901E0,7.773031294E-2,1.288887709E-1,-7.605048269E-2
4.157822828E0,7.773031294E-2,1.264453828E-1,-7.360709459E-2
4.160243922E0,7.650861889E-2,1.227803007E-1,-6.994201243E-2
4.162665901E0,7.650861889E-2,1.191152185E-1,-6.749862432E-2
4.165088609E0,7.284353673E-2,1.178935245E-1,-6.749862432E-2
4.167510484E0,7.406523079E-2,1.154501289E-1,-6.749862432E-2
4.169931578E0,7.040014863E-2,1.178935245E-1,-6.872031838E-2
4.172353557E0,7.040014863E-2,1.166718230E-1,-6.749862432E-2
4.174776266E0,6.795676053E-2,1.142284349E-1,-6.749862432E-2
4.177198193E0,6.551336497E-2,1.154501289E-1,-6.749862432E-2
4.179619286E0,6.551336497E-2,1.117850468E-1,-6.505523622E-2
4.182041266E0,6.184828654E-2,1.105633527E-1,-6.627693027E-2
4.184463974E0,5.940489471E-2,1.093416587E-1,-6.749862432E-2
4.186885849E0,5.818320066E-2,1.093416587E-1,-6.383354217E-2
4.189306943E0,5.573981255E-2,1.068982705E-1,-6.261184067E-2
4.191728922E0,5.451811850E-2,1.056765765E-1,-6.139015034E-2
4.194151630E0,5.085303262E-2,1.081199646E-1,-5.772506446E-2
4.196573557E0,4.840964451E-2,1.044548824E-1,-5.528167635E-2
4.198994651E0,4.718795046E-2,9.834641218E-2,-5.283828825E-2
4.201416630E0,4.474456236E-2,9.590301663E-2,-4.917320609E-2
4.203839338E0,4.230117425E-2,9.345962852E-2,-4.550812021E-2
4.206261213E0,4.107947648E-2,8.857285231E-2,-4.306473210E-2
4.208682307E0,3.985778242E-2,8.490777016E-2,-3.939964995E-2
4.211104286E0,3.863608837E-2,7.879929990E-2,-3.695625812E-2
4.213526995E0,3.619270027E-2,7.635590434E-2,-3.451287001E-2
4.215948922E0,3.374931216E-2,7.513421029E-2,-3.084778599E-2
4.218370016E0,3.252761811E-2,6.780404598E-2,-2.840439789E-2
4.220791995E0,3.374931216E-2,6.169557199E-2,-2.718270384E-2
4.223214703E0,3.374931216E-2,5.436540768E-2,-2.473931387E-2
4.225636630E0,3.130592033E-2,5.070032179E-2,-2.107422985E-2
4.228057672E0,3.130592033E-2,4.214845970E-2,-1.985253580E-2
4.230479651E0,3.252761811E-2,3.481829539E-2,-1.740914769E-2
4.232902359E0,3.008422814E-2,3.115320951E-2,-1.496575773E-2
4.235324286E0,2.641914412E-2,2.870982140E-2,-1.130067464E-2
4.237745380E0,2.519745007E-2,2.260134928E-2,-1.007897966E-2
4.240167359E0,2.275406010E-2,1.893626526E-2,-8.857285604E-3
4.242590068E0,1.908897609E-2,1.527118124E-2,-7.635590620E-3
4.245011995E0,1.786728203E-2,1.038440317E-2,-5.192201585E-3
4.247433036E0,1.420219894E-2,5.497625098E-3,-3.970507067E-3
4.249855016E0,1.175880991E-2,1.832541777E-3,-2.748812549E-3
4.252277724E0,8.093725890E-3,-3.054236295E-3,-2.748812549E-3
4.254699651E0,4.428642802E-3,-7.941014133E-3,-3.054236295E-4
4.257120745E0,1.985253533E-3,-1.160609815E-2,-3.054236295E-4
4.259542724E0,-4.581354442E-4,-1.649287529E-2,3.359660041E-3
4.261965432E0,-2.901524538E-3,-2.137965336E-2,4.581354558E-3
4.264387359E0,-7.788302377E-3,-2.626643144E-2,4.581354558E-3
4.266808401E0,-1.145338640E-2,-2.993151546E-2,7.024743594E-3
4.269230380E0,-1.267508045E-2,-3.603998944E-2,8.246437646E-3
4.271653088E0,-1.634016447E-2,-4.337015375E-2,9.468132630E-3
4.274075016E0,-1.878355257E-2,-4.825693369E-2,1.191152167E-2
4.276496109E0,-2.244863659E-2,-5.314370990E-2,1.191152167E-2
4.278918088E0,-2.367033064E-2,-6.047387794E-2,1.435491070E-2
4.281340797E0,-2.611372061E-2,-6.902574003E-2,1.557660475E-2
4.283762724E0,-2.733541466E-2,-7.635590434E-2,1.679829881E-2
4.286183766E0,-2.977880463E-2,-8.246438205E-2,1.801999472E-2
4.288605745E0,-2.977880463E-2,-8.735115826E-2,2.046338283E-2
4.291028453E0,-3.344388679E-2,-9.101624042E-2,2.290677279E-2
4.293450380E0,-3.344388679E-2,-9.712471068E-2,2.412846684E-2
4.295871474E0,-3.466558084E-2,-1.032331884E-1,2.412846684E-2
4.298293453E0,-3.466558084E-2,-1.105633527E-1,2.412846684E-2
4.300716161E0,-3.466558084E-2,-1.142284349E-1,2.535016090E-2
4.303138088E0,-3.466558084E-2,-1.166718230E-1,2.779355086E-2
4.305559182E0,-3.710897267E-2,-1.178935245E-1,2.779355086E-2
4.307981109E0,-3.833066672E-2,-1.215586066E-1,2.779355086E-2
4.310403818E0,-3.955236077E-2,-1.191152185E-1,3.023693897E-2
4.312825745E0,-3.833066672E-2,-1.227803007E-1,3.023693897E-2
4.315246838E0,-3.710897267E-2,-1.288887709E-1,3.023693897E-2
4.317668818E0,-3.710897267E-2,-1.288887709E-1,3.145863488E-2
4.320091526E0,-3.955236077E-2,-1.264453828E-1,3.268032894E-2
4.322513453E0,-3.710897267E-2,-1.288887709E-1,3.268032894E-2
4.324934547E0,-3.833066672E-2,-1.301104724E-1,3.390202299E-2
4.327356474E0,-3.833066672E-2,-1.301104724E-1,3.512371704E-2
4.329779182E0,-3.955236077E-2,-1.288887709E-1,3.634541109E-2
4.332201109E0,-3.955236077E-2,-1.301104724E-1,3.756710514E-2
4.334622203E0,-3.955236077E-2,-1.325538605E-1,3.634541109E-2
4.337044182E0,-3.710897267E-2,-1.362189353E-1,3.756710514E-2
4.339466891E0,-3.833066672E-2,-1.374406368E-1,3.756710514E-2
4.341888818E0,-4.077405483E-2,-1.374406368E-1,3.878879920E-2
4.344309911E0,-4.077405483E-2,-1.386623234E-1,4.001049697E-2
4.346731838E0,-4.077405483E-2,-1.435490996E-1,4.001049697E-2
4.349154547E0,-4.566083103E-2,-1.411057115E-1,4.245388508E-2
4.351576474E0,-4.566083103E-2,-1.447708011E-1,4.367557913E-2
4.353997568E0,-4.688252881E-2,-1.472141892E-1,4.489727318E-2
4.356419547E0,-4.810422286E-2,-1.459924877E-1,4.734066129E-2
4.358842255E0,-5.054761097E-2,-1.472141892E-1,4.734066129E-2
4.361264182E0,-5.176930502E-2,-1.496575773E-1,4.978405312E-2
4.363685276E0,-5.421269313E-2,-1.496575773E-1,4.978405312E-2
4.366107255E0,-5.421269313E-2,-1.508792788E-1,4.978405312E-2
4.368529911E0,-5.665608495E-2,-1.533226669E-1,5.100574717E-2
4.370951838E0,-5.787777901E-2,-1.545443535E-1,5.344913527E-2
4.373372932E0,-5.909947306E-2,-1.545443535E-1,5.467082933E-2
4.375794911E0,-5.909947306E-2,-1.557660550E-1,5.467082933E-2
4.378217620E0,-5.909947306E-2,-1.533226669E-1,5.711421743E-2
4.380639547E0,-5.909947306E-2,-1.569877416E-1,5.833591148E-2
4.383060641E0,-5.909947306E-2,-1.569877416E-1,5.711421743E-2
4.385482620E0,-5.665608495E-2,-1.582094431E-1,5.711421743E-2
4.387905328E0,-5.787777901E-2,-1.569877416E-1,5.833591148E-2
4.390327203E0,-5.909947306E-2,-1.533226669E-1,5.711421743E-2
4.392748297E0,-5.543438718E-2,-1.533226669E-1,5.711421743E-2
4.395170276E0,-5.543438718E-2,-1.521009654E-1,5.711421743E-2
4.397592984E0,-5.299099907E-2,-1.521009654E-1,5.589252338E-2
4.400014911E0,-5.054761097E-2,-1.496575773E-1,5.711421743E-2
4.402436005E0,-4.810422286E-2,-1.484358907E-1,5.467082933E-2
4.404857984E0,-4.566083103E-2,-1.484358907E-1,5.222744122E-2
4.407280693E0,-4.566083103E-2,-1.459924877E-1,5.100574717E-2
4.409702568E0,-4.321744293E-2,-1.423274130E-1,5.100574717E-2
4.412123661E0,-4.077405483E-2,-1.386623234E-1,5.100574717E-2
4.414545641E0,-3.710897267E-2,-1.374406368E-1,4.856235534E-2
4.416968349E0,-3.466558084E-2,-1.362189353E-1,4.611896724E-2
4.419390276E0,-3.466558084E-2,-1.325538605E-1,4.489727318E-2
4.421811370E0,-3.222219273E-2,-1.313321590E-1,4.367557913E-2
4.424233349E0,-3.222219273E-2,-1.288887709E-1,4.001049697E-2
4.426656057E0,-3.100049868E-2,-1.264453828E-1,3.878879920E-2
4.429077984E0,-2.977880463E-2,-1.227803007E-1,3.756710514E-2
4.431499026E0,-2.977880463E-2,-1.215586066E-1,3.390202299E-2
4.433921005E0,-2.733541466E-2,-1.203369126E-1,3.268032894E-2
4.436343713E0,-2.489202656E-2,-1.154501289E-1,3.145863488E-2
4.438765641E0,-2.489202656E-2,-1.130067408E-1,2.901524492E-2
4.441186734E0,-2.489202656E-2,-1.105633527E-1,2.779355086E-2
4.443608713E0,-2.489202656E-2,-1.068982705E-1,2.535016090E-2
4.446031422E0,-2.489202656E-2,-1.032331884E-1,2.412846684E-2
4.448453349E0,-2.367033064E-2,-1.007898003E-1,2.168507688E-2
4.450874391E0,-2.611372061E-2,-9.468132257E-2,2.168507688E-2
4.453296370E0,-2.611372061E-2,-9.468132257E-2,1.924168877E-2
4.455719078E0,-2.611372061E-2,-8.857285231E-2,1.435491070E-2
4.458141005E0,-2.733541466E-2,-8.246438205E-2,1.435491070E-2
4.460562099E0,-2.855710872E-2,-8.124268800E-2,1.435491070E-2
4.462984078E0,-2.977880463E-2,-7.879929990E-2,1.191152167E-2
4.465406786E0,-3.100049868E-2,-7.391251624E-2,1.313321572E-2
4.467828713E0,-3.466558084E-2,-7.024743408E-2,1.191152167E-2
4.470249755E0,-3.710897267E-2,-6.902574003E-2,1.068982668E-2
4.472671734E0,-3.833066672E-2,-6.536065787E-2,1.191152167E-2
4.475094443E0,-3.955236077E-2,-6.291726977E-2,1.191152167E-2
4.477516370E0,-3.833066672E-2,-6.658235192E-2,1.068982668E-2
4.479937463E0,-4.199574888E-2,-6.413896382E-2,9.468132630E-3
4.482359443E0,-4.321744293E-2,-6.047387794E-2,9.468132630E-3
4.484782151E0,-4.321744293E-2,-5.925218388E-2,9.468132630E-3
4.487204078E0,-4.566083103E-2,-6.047387794E-2,1.068982668E-2
4.489625172E0,-4.199574888E-2,-6.169557199E-2,9.468132630E-3
4.492047099E0,-4.199574888E-2,-6.169557199E-2,9.468132630E-3
4.494469807E0,-4.321744293E-2,-6.047387794E-2,9.468132630E-3
4.496891734E0,-4.321744293E-2,-5.803048983E-2,9.468132630E-3
4.499312828E0,-4.199574888E-2,-5.925218388E-2,9.468132630E-3
4.501734807E0,-4.199574888E-2,-5.803048983E-2,9.468132630E-3
4.504157516E0,-4.077405483E-2,-6.047387794E-2,9.468132630E-3
4.506579443E0,-3.833066672E-2,-5.925218388E-2,8.246437646E-3
4.509000536E0,-3.466558084E-2,-6.169557199E-2,9.468132630E-3
4.511422516E0,-3.344388679E-2,-6.169557199E-2,9.468132630E-3
4.513845172E0,-3.466558084E-2,-5.803048983E-2,8.246437646E-3
4.516267099E0,-3.466558084E-2,-5.925218388E-2,7.024743594E-3
4.518688193E0,-3.344388679E-2,-6.047387794E-2,7.024743594E-3
4.521110172E0,-3.100049868E-2,-6.047387794E-2,8.246437646E-3
4.523532880E0,-2.855710872E-2,-6.047387794E-2,5.803049076E-3
4.525954807E0,-2.489202656E-2,-6.169557199E-2,4.581354558E-3
4.528375901E0,-2.367033064E-2,-6.291726977E-2,4.581354558E-3
4.530797828E0,-2.244863659E-2,-6.291726977E-2,4.581354558E-3
4.533220536E0,-2.122694254E-2,-6.169557199E-2,2.137965523E-3
4.535642463E0,-1.878355257E-2,-6.047387794E-2,9.162708884E-4
4.538063557E0,-1.878355257E-2,-6.047387794E-2,9.162708884E-4
4.540485536E0,-1.756185852E-2,-6.047387794E-2,-1.527118147E-3
4.542908245E0,-1.511846948E-2,-6.291726977E-2,-3.054236295E-4
4.545330172E0,-1.634016447E-2,-6.169557199E-2,-3.054236295E-4
4.547751266E0,-1.634016447E-2,-6.047387794E-2,-2.748812549E-3
4.550173245E0,-1.756185852E-2,-6.047387794E-2,-3.970507067E-3
4.552595953E0,-1.511846948E-2,-6.169557199E-2,-6.413896102E-3
4.555017828E0,-1.389677543E-2,-6.413896382E-2,-8.857285604E-3
4.557438922E0,-1.511846948E-2,-6.169557199E-2,-8.857285604E-3
4.559860901E0,-1.634016447E-2,-6.291726977E-2,-1.130067464E-2
4.562283609E0,-1.634016447E-2,-6.047387794E-2,-1.252236869E-2
4.564705536E0,-1.756185852E-2,-6.047387794E-2,-1.374406368E-2
4.567126630E0,-2.000524849E-2,-6.047387794E-2,-1.374406368E-2
4.569548609E0,-2.122694254E-2,-6.047387794E-2,-1.496575773E-2
4.571971318E0,-2.367033064E-2,-6.169557199E-2,-1.618745178E-2
4.574393245E0,-2.489202656E-2,-6.169557199E-2,-1.618745178E-2
4.576814286E0,-2.733541466E-2,-6.047387794E-2,-1.496575773E-2
4.579236266E0,-2.977880463E-2,-5.558710173E-2,-1.740914769E-2
4.581658974E0,-3.344388679E-2,-5.558710173E-2,-1.618745178E-2
4.584080901E0,-3.466558084E-2,-5.680879578E-2,-1.618745178E-2
4.586501995E0,-3.588727489E-2,-5.803048983E-2,-1.618745178E-2
4.588923974E0,-3.833066672E-2,-5.558710173E-2,-1.496575773E-2
4.591346682E0,-3.955236077E-2,-5.680879578E-2,-1.618745178E-2
4.593768609E0,-4.199574888E-2,-5.558710173E-2,-1.374406368E-2
4.596189651E0,-4.199574888E-2,-5.314370990E-2,-1.252236869E-2
4.598611630E0,-4.321744293E-2,-5.314370990E-2,-1.130067464E-2
4.601034338E0,-4.199574888E-2,-5.314370990E-2,-8.857285604E-3
4.603456266E0,-4.199574888E-2,-5.314370990E-2,-7.635590620E-3
4.605877359E0,-4.321744293E-2,-5.070032179E-2,-5.192201585E-3
4.608299338E0,-4.443913698E-2,-4.703523964E-2,-2.748812549E-3
4.610722047E0,-4.321744293E-2,-4.825693369E-2,-1.527118147E-3
4.613143974E0,-4.321744293E-2,-4.703523964E-2,9.162708884E-4
4.615565016E0,-4.443913698E-2,-4.092676565E-2,4.581354558E-3
4.617986995E0,-4.199574888E-2,-4.337015375E-2,4.581354558E-3
4.620409703E0,-4.199574888E-2,-4.459185153E-2,7.024743594E-3
4.622831630E0,-3.955236077E-2,-4.703523964E-2,9.468132630E-3
4.625252724E0,-3.955236077E-2,-4.825693369E-2,1.068982668E-2
4.627674703E0,-3.955236077E-2,-4.703523964E-2,1.313321572E-2
4.630097411E0,-4.077405483E-2,-4.703523964E-2,1.679829881E-2
4.632519338E0,-3.710897267E-2,-5.314370990E-2,1.679829881E-2
4.634940432E0,-3.466558084E-2,-5.680879578E-2,2.046338283E-2
4.637362359E0,-3.466558084E-2,-5.803048983E-2,2.046338283E-2
4.639785068E0,-3.100049868E-2,-6.413896382E-2,2.168507688E-2
4.642206995E0,-2.977880463E-2,-6.780404598E-2,2.535016090E-2
4.644628088E0,-2.733541466E-2,-7.269082218E-2,2.657185495E-2
4.647050068E0,-2.489202656E-2,-7.635590434E-2,2.901524492E-2
4.649472776E0,-2.489202656E-2,-8.002099395E-2,2.901524492E-2
4.651894703E0,-2.367033064E-2,-8.490777016E-2,3.023693897E-2
4.654315797E0,-2.122694254E-2,-8.979454637E-2,3.145863488E-2
4.656737724E0,-2.122694254E-2,-9.468132257E-2,3.145863488E-2
4.659160432E0,-2.000524849E-2,-9.834641218E-2,3.145863488E-2
4.661582359E0,-1.756185852E-2,-1.032331884E-1,3.145863488E-2
4.664003453E0,-1.756185852E-2,-1.068982705E-1,3.145863488E-2
4.666425432E0,-1.878355257E-2,-1.093416587E-1,3.145863488E-2
4.668848141E0,-1.634016447E-2,-1.117850468E-1,3.145863488E-2
4.671270068E0,-1.511846948E-2,-1.154501289E-1,3.145863488E-2
4.673691161E0,-1.389677543E-2,-1.191152185E-1,3.023693897E-2
4.676113141E0,-1.267508045E-2,-1.203369126E-1,3.023693897E-2
4.678535849E0,-1.389677543E-2,-1.191152185E-1,2.901524492E-2
4.680957724E0,-1.634016447E-2,-1.191152185E-1,2.779355086E-2
4.683378818E0,-1.389677543E-2,-1.203369126E-1,2.657185495E-2
4.685800797E0,-1.267508045E-2,-1.227803007E-1,2.535016090E-2
4.688223505E0,-1.145338640E-2,-1.215586066E-1,2.535016090E-2
4.690645432E0,-1.023169141E-2,-1.227803007E-1,2.412846684E-2
4.693066526E0,-1.267508045E-2,-1.227803007E-1,2.290677279E-2
4.695488505E0,-1.389677543E-2,-1.215586066E-1,2.168507688E-2
4.697911213E0,-1.511846948E-2,-1.191152185E-1,2.168507688E-2
4.700333088E0,-1.634016447E-2,-1.191152185E-1,2.046338283E-2
4.702754182E0,-1.511846948E-2,-1.203369126E-1,2.046338283E-2
4.705176161E0,-1.756185852E-2,-1.203369126E-1,2.046338283E-2
4.707598870E0,-1.756185852E-2,-1.191152185E-1,2.046338283E-2
4.710020797E0,-2.000524849E-2,-1.178935245E-1,1.924168877E-2
4.712441891E0,-2.489202656E-2,-1.178935245E-1,2.046338283E-2
4.714863870E0,-2.733541466E-2,-1.203369126E-1,2.168507688E-2
4.717286578E0,-2.977880463E-2,-1.227803007E-1,2.290677279E-2
4.719708505E0,-3.100049868E-2,-1.240019947E-1,2.412846684E-2
4.722129547E0,-3.344388679E-2,-1.288887709E-1,2.535016090E-2
4.724551526E0,-3.588727489E-2,-1.325538605E-1,2.535016090E-2
4.726974234E0,-3.710897267E-2,-1.337755471E-1,2.779355086E-2
4.729396161E0,-3.955236077E-2,-1.374406368E-1,2.901524492E-2
4.731817255E0,-4.077405483E-2,-1.411057115E-1,3.023693897E-2
4.734239234E0,-4.321744293E-2,-1.447708011E-1,3.145863488E-2
4.736661943E0,-4.321744293E-2,-1.496575773E-1,3.390202299E-2
4.739083870E0,-4.566083103E-2,-1.496575773E-1,3.634541109E-2
4.741504911E0,-4.566083103E-2,-1.545443535E-1,3.756710514E-2
4.743926891E0,-4.443913698E-2,-1.557660550E-1,4.123219103E-2
4.746349599E0,-4.566083103E-2,-1.594311297E-1,4.245388508E-2
4.748771526E0,-4.566083103E-2,-1.630962193E-1,4.367557913E-2
4.751192620E0,-4.321744293E-2,-1.692046970E-1,4.611896724E-2
4.753614599E0,-4.443913698E-2,-1.704263836E-1,4.856235534E-2
4.756037307E0,-4.321744293E-2,-1.728697717E-1,5.222744122E-2
4.758459234E0,-4.321744293E-2,-1.740914732E-1,5.467082933E-2
4.760880328E0,-3.955236077E-2,-1.814216375E-1,5.467082933E-2
4.763302255E0,-3.955236077E-2,-1.814216375E-1,5.833591148E-2
4.765724963E0,-4.077405483E-2,-1.838650256E-1,6.077930331E-2
4.768146891E0,-3.955236077E-2,-1.838650256E-1,6.444438547E-2
4.770567984E0,-3.955236077E-2,-1.850867122E-1,6.566607952E-2
4.772989963E0,-3.710897267E-2,-1.887518018E-1,6.810946763E-2
4.775412672E0,-3.955236077E-2,-1.887518018E-1,7.055285573E-2
4.777834599E0,-4.077405483E-2,-1.887518018E-1,7.177454978E-2
4.780255693E0,-4.199574888E-2,-1.875301152E-1,7.421794534E-2
4.782677672E0,-4.566083103E-2,-1.863084137E-1,7.543963939E-2
4.785100328E0,-4.688252881E-2,-1.875301152E-1,7.666133344E-2
4.787522255E0,-4.688252881E-2,-1.887518018E-1,7.666133344E-2
4.789943349E0,-4.810422286E-2,-1.875301152E-1,7.910472155E-2
4.792365328E0,-5.054761097E-2,-1.875301152E-1,8.032641560E-2
4.794788036E0,-5.421269313E-2,-1.801999360E-1,7.910472155E-2
4.797209963E0,-5.787777901E-2,-1.728697717E-1,7.666133344E-2
4.799631057E0,-6.154286116E-2,-1.716480851E-1,7.666133344E-2
4.802052984E0,-6.398624927E-2,-1.679829955E-1,7.421794534E-2
4.804475745E0,-6.642963737E-2,-1.643179059E-1,7.299624383E-2
4.806897620E0,-7.253811508E-2,-1.569877416E-1,7.299624383E-2
4.809318713E0,-7.498150319E-2,-1.508792788E-1,7.055285573E-2
4.811740693E0,-7.620319724E-2,-1.447708011E-1,6.933116168E-2
4.814163401E0,-8.353336155E-2,-1.362189353E-1,6.688777357E-2
4.816585328E0,-8.475505561E-2,-1.252236813E-1,6.322269142E-2
4.819006422E0,-8.719844371E-2,-1.191152185E-1,5.833591148E-2
4.821428401E0,-8.964183182E-2,-1.081199646E-1,5.344913527E-2
4.823851109E0,-9.330692142E-2,-9.712471068E-2,4.978405312E-2
4.826272984E0,-9.575030953E-2,-8.612946421E-2,4.489727318E-2
4.828694078E0,-9.819369763E-2,-7.635590434E-2,3.878879920E-2
4.831116057E0,-9.819369763E-2,-6.658235192E-2,3.268032894E-2
4.833538766E0,-9.941539168E-2,-5.314370990E-2,2.779355086E-2
4.835960693E0,-1.006370857E-1,-4.214845970E-2,2.168507688E-2
4.838381786E0,-1.018587798E-1,-2.870982140E-2,1.435491070E-2
4.840803766E0,-1.030804738E-1,-1.649287529E-2,7.024743594E-3
4.843226474E0,-1.018587798E-1,-5.497625098E-3,-1.527118147E-3
4.845648401E0,-1.030804738E-1,7.941014133E-3,-6.413896102E-3
4.848069443E0,-1.067455560E-1,2.504473738E-2,-1.374406368E-2
4.850491422E0,-1.030804738E-1,3.237490356E-2,-2.107422985E-2
4.852914130E0,-9.941539168E-2,4.459185153E-2,-2.718270384E-2
4.855336057E0,-9.941539168E-2,5.314370990E-2,-3.451287001E-2
4.857757151E0,-9.819369763E-2,6.413896382E-2,-3.817795217E-2
