"Time (s)","Gyroscope x (rad/s)","Gyroscope y (rad/s)","Gyroscope z (rad/s)"
1.526080910E-1,-5.184566379E-1,-6.896465421E-1,-6.337540597E-2
1.551456430E-1,-4.622586668E-1,-6.297835112E-1,-6.581879407E-2
1.576831950E-1,-4.036173224E-1,-5.796940327E-1,-7.437065244E-2
1.602207470E-1,-3.474193811E-1,-5.332696438E-1,-8.170082420E-2
1.627582990E-1,-2.838912606E-1,-4.941754341E-1,-9.269607067E-2
1.652958510E-1,-2.240282297E-1,-4.563029110E-1,-9.880454093E-2
1.678334030E-1,-1.653869003E-1,-4.184303582E-1,-1.073564067E-1
1.703709550E-1,-1.152974218E-1,-3.804051280E-1,-1.110214889E-1
1.729085070E-1,-6.032116711E-2,-3.413109183E-1,-1.110214889E-1
1.754460590E-1,-1.389677543E-2,-2.985515893E-1,-1.073564067E-1
1.779836110E-1,2.886253223E-2,-2.606790662E-1,-1.000262350E-1
1.805211630E-1,6.917845458E-2,-2.191414535E-1,-9.513945878E-2
1.830587160E-1,1.021642014E-1,-1.800472289E-1,-8.658760041E-2
1.855962680E-1,1.278197914E-1,-1.433963925E-1,-7.925742865E-2
1.881338200E-1,1.485885978E-1,-1.152974218E-1,-7.559234649E-2
1.906713720E-1,1.632489264E-1,-9.452861547E-2,-7.437065244E-2
1.931740280E-1,1.742441803E-1,-7.864658535E-2,-7.925742865E-2
1.956611630E-1,1.779092699E-1,-6.520794332E-2,-8.536590636E-2
1.981491840E-1,1.815743446E-1,-5.665608495E-2,-9.513945878E-2
2.006379860E-1,1.766875684E-1,-5.421269313E-2,-1.110214889E-1
2.031259550E-1,1.669140160E-1,-5.054761097E-2,-1.269035190E-1
2.056130910E-1,1.534753740E-1,-4.688252881E-2,-1.452289373E-1
2.081011110E-1,1.339282542E-1,-3.710897267E-2,-1.647760421E-1
2.105899130E-1,1.119377613E-1,-2.611372061E-2,-1.806580722E-1
2.130779340E-1,8.383878320E-2,-1.756185852E-2,-2.002051920E-1
2.155650180E-1,5.207473040E-2,-9.009997360E-3,-2.185306102E-1
2.180530910E-1,2.031067200E-2,-1.679830020E-3,-2.356343269E-1
2.205418930E-1,-1.634016447E-2,5.650337320E-3,-2.527380586E-1
2.230298610E-1,-5.543438718E-2,1.053711493E-2,-2.673983872E-1
2.255169970E-1,-9.330692142E-2,1.298050396E-2,-2.735068500E-1
2.280050180E-1,-1.299577504E-1,1.053711493E-2,-2.796153426E-1
2.304938200E-1,-1.653869003E-1,4.428642802E-3,-2.796153426E-1
2.329817880E-1,-1.947075576E-1,-7.788302377E-3,-2.796153426E-1
2.354689240E-1,-2.215848416E-1,-2.489202656E-2,-2.747285664E-1
2.379569450E-1,-2.472404242E-1,-4.566083103E-2,-2.686200738E-1
2.404457470E-1,-2.692309320E-1,-6.765133142E-2,-2.612899244E-1
2.429337160E-1,-2.912214398E-1,-9.330692142E-2,-2.515163720E-1
2.454208510E-1,-3.107685447E-1,-1.214058921E-1,-2.417428046E-1
2.479089240E-1,-3.266505599E-1,-1.580567211E-1,-2.331909388E-1
2.503976740E-1,-3.400892019E-1,-2.044811249E-1,-2.307475507E-1
2.528856950E-1,-3.510844707E-1,-2.533488870E-1,-2.221956849E-1
2.553727780E-1,-3.633013964E-1,-2.997733057E-1,-2.112004459E-1
2.578608510E-1,-3.718532622E-1,-3.437542915E-1,-1.977618039E-1
2.603496530E-1,-3.804051280E-1,-3.852919042E-1,-1.806580722E-1
2.628376220E-1,-3.852919042E-1,-4.233171642E-1,-1.586675793E-1
2.653247570E-1,-3.901786804E-1,-4.587462842E-1,-1.342336833E-1
2.678127780E-1,-3.889569938E-1,-4.880669713E-1,-1.036913246E-1
2.703015800E-1,-3.889569938E-1,-5.173876286E-1,-6.948387623E-2
2.727895490E-1,-3.804051280E-1,-5.369347334E-1,-2.916795574E-2
2.752766840E-1,-3.706315756E-1,-5.467082858E-1,8.704573847E-3
2.777647050E-1,-3.535278440E-1,-5.418215394E-1,5.024218559E-2
2.802535070E-1,-3.303156495E-1,-5.186093450E-1,8.444963396E-2
2.827414760E-1,-2.924431264E-1,-4.636330605E-1,1.137702987E-1
2.852286110E-1,-2.435753495E-1,-3.914003670E-1,1.320957243E-1
2.877166840E-1,-1.910424829E-1,-3.156553209E-1,1.455343664E-1
2.902054340E-1,-1.385096163E-1,-2.435753495E-1,1.504211426E-1
2.926934550E-1,-7.986827940E-2,-1.739387512E-1,1.491994411E-1
2.951805910E-1,-2.122694254E-2,-1.067455560E-1,1.418692768E-1
2.976686110E-1,3.619270027E-2,-3.833066672E-2,1.284306347E-1
3.001574130E-1,9.483403713E-2,2.886253223E-2,1.076618284E-1
3.026453820E-1,1.522536725E-1,9.972081333E-2,8.078455180E-2
3.051325180E-1,2.072299272E-1,1.693574041E-1,4.779879749E-2
3.076205380E-1,2.609844804E-1,2.365505993E-1,1.603474095E-2
3.101093410E-1,3.110739589E-1,3.000787199E-1,-1.939439960E-2
3.125973090E-1,3.538332880E-1,3.562766612E-1,-5.360184610E-2
3.150844450E-1,3.892624080E-1,4.027010500E-1,-8.414421231E-2
3.175724660E-1,4.185830951E-1,4.442386627E-1,-1.110214889E-1
3.200612680E-1,4.430169761E-1,4.808894992E-1,-1.378987730E-1
3.225492880E-1,4.650074840E-1,5.114318728E-1,-1.647760421E-1
3.250363720E-1,4.796678126E-1,5.358657837E-1,-1.892099380E-1
3.275244450E-1,4.943281412E-1,5.480827093E-1,-2.160872221E-1
3.300132470E-1,5.053234100E-1,5.578562617E-1,-2.454078794E-1
3.325012160E-1,5.126535892E-1,5.590779781E-1,-2.808370292E-1
3.349883510E-1,5.175403357E-1,5.493044257E-1,-3.174878657E-1
3.374763720E-1,5.212054253E-1,5.383091569E-1,-3.590254784E-1
3.399651740E-1,5.224271417E-1,5.199837089E-1,-4.030064642E-1
3.424531430E-1,5.212054253E-1,4.992149174E-1,-4.543176591E-1
3.449402780E-1,5.187620521E-1,4.833329022E-1,-5.068505406E-1
3.474282990E-1,5.199837089E-1,4.747810364E-1,-5.654918551E-1
3.499171010E-1,5.224271417E-1,4.735593498E-1,-6.241331697E-1
3.524050700E-1,5.212054253E-1,4.808894992E-1,-6.839962006E-1
3.548922050E-1,5.224271417E-1,4.821111858E-1,-7.450809479E-1
3.573802780E-1,5.163186193E-1,4.821111858E-1,-8.061656952E-1
3.598690280E-1,5.077667832E-1,4.747810364E-1,-8.684720993E-1
3.623570490E-1,4.943281412E-1,4.662291706E-1,-9.283351302E-1
3.648441840E-1,4.784461260E-1,4.588989913E-1,-9.869764447E-1
3.673322050E-1,4.625640810E-1,4.491254389E-1,-1.041952729E0
3.698210070E-1,4.417952895E-1,4.430169761E-1,-1.092194915E0
3.723089760E-1,4.185830951E-1,4.393518865E-1,-1.137397647E0
3.747961110E-1,3.953709006E-1,4.356867969E-1,-1.178935170E0
3.772841320E-1,3.746020794E-1,4.356867969E-1,-1.214364409E0
3.797729340E-1,3.501681983E-1,4.356867969E-1,-1.247350097E0
3.822609030E-1,3.281776905E-1,4.320217371E-1,-1.277892470E0
3.847480380E-1,3.098522723E-1,4.185830951E-1,-1.310878277E0
3.872360590E-1,2.927485406E-1,3.904841244E-1,-1.347529054E0
3.897248610E-1,2.793098986E-1,3.660502136E-1,-1.382958174E0
3.922128820E-1,2.719797492E-1,3.379512429E-1,-1.409835458E0
3.946999660E-1,2.634278834E-1,3.049654961E-1,-1.435491085E0
3.971880380E-1,2.573194206E-1,2.732014358E-1,-1.456259847E0
3.996767880E-1,2.499892414E-1,2.426590770E-1,-1.468476772E0
4.021648090E-1,2.438807636E-1,2.157817930E-1,-1.474585295E0
4.046519450E-1,2.365505993E-1,1.913478971E-1,-1.472141862E0
4.071399660E-1,2.316638231E-1,1.681357026E-1,-1.463590026E0
4.096287680E-1,2.292204350E-1,1.534753740E-1,-1.447708011E0
4.121167360E-1,2.255553454E-1,1.400367320E-1,-1.423274159E0
4.146038720E-1,2.267770469E-1,1.290414780E-1,-1.396396875E0
4.170918930E-1,2.279987335E-1,1.168245375E-1,-1.368297815E0
4.195806950E-1,2.316638231E-1,1.070509851E-1,-1.342642307E0
4.220686630E-1,2.316638231E-1,9.972081333E-2,-1.315765023E0
4.245557990E-1,2.353289127E-1,8.750387281E-2,-1.291331053E0
4.270438200E-1,2.328855246E-1,7.406523079E-2,-1.266897202E0
4.295326220E-1,2.292204350E-1,5.940489471E-2,-1.241241574E0
4.320206430E-1,2.243336588E-1,3.863608837E-2,-1.213142633E0
4.345077260E-1,2.108950168E-1,9.315420873E-3,-1.183822036E0
4.369957990E-1,1.950129867E-1,-3.344388679E-2,-1.153279662E0
4.394846010E-1,1.742441803E-1,-8.353336155E-2,-1.114185452E0
4.419725700E-1,1.449235082E-1,-1.397313178E-1,-1.070204377E0
4.444597050E-1,1.119377613E-1,-1.995943487E-1,-1.024848938E0
4.469477260E-1,7.162184268E-2,-2.631224692E-1,-9.772028923E-1
4.494365280E-1,2.641914412E-2,-3.278722763E-1,-9.283351302E-1
4.519244970E-1,-2.733541466E-2,-3.950654566E-1,-8.794673681E-1
4.544116320E-1,-8.231166750E-2,-4.587462842E-1,-8.354863524E-1
4.568996530E-1,-1.397313178E-1,-5.186093450E-1,-7.939487100E-1
4.593884550E-1,-1.995943487E-1,-5.723638535E-1,-7.560762167E-1
4.618764240E-1,-2.594573796E-1,-6.151232123E-1,-7.230904698E-1
4.643635590E-1,-3.168770075E-1,-6.432221532E-1,-6.913263798E-1
4.668516320E-1,-3.718532622E-1,-6.566607952E-1,-6.644490957E-1
4.693403820E-1,-4.219427407E-1,-6.481089592E-1,-6.387935281E-1
4.718284030E-1,-4.659237564E-1,-6.248967648E-1,-6.168029904E-1
4.743155380E-1,-5.013529062E-1,-5.833591223E-1,-5.996993184E-1
4.768035590E-1,-5.270084739E-1,-5.283828974E-1,-5.850389600E-1
4.792923610E-1,-5.453338623E-1,-4.697415531E-1,-5.777087808E-1
4.817803300E-1,-5.538857579E-1,-4.062134326E-1,-5.728220344E-1
4.842674660E-1,-5.526640415E-1,-3.449759781E-1,-5.728220344E-1
4.867554860E-1,-5.441122055E-1,-2.875563502E-1,-5.801522136E-1
4.892442880E-1,-5.233433843E-1,-2.362451702E-1,-5.911474228E-1
4.917322570E-1,-4.940227270E-1,-1.947075576E-1,-6.045860648E-1
4.942193930E-1,-4.549284875E-1,-1.605001241E-1,-6.229115129E-1
4.967074130E-1,-4.085040987E-1,-1.324011385E-1,-6.436802745E-1
4.991962160E-1,-3.584146202E-1,-1.067455560E-1,-6.668924689E-1
5.016841840E-1,-2.997733057E-1,-8.108997345E-2,-6.901046634E-1
5.041713200E-1,-2.386885732E-1,-5.665608495E-2,-7.145385742E-1
5.066593930E-1,-1.727170646E-1,-3.100049868E-2,-7.365291119E-1
5.091481430E-1,-1.067455560E-1,-4.581354442E-4,-7.597413063E-1
5.116361630E-1,-4.077405483E-2,3.741439432E-2,-7.866185308E-1
5.141232990E-1,2.397575416E-2,7.773031294E-2,-8.183826208E-1
5.166113200E-1,8.506047726E-2,1.229330078E-1,-8.513683677E-1
5.191001220E-1,1.412584335E-1,1.754658818E-1,-8.892409205E-1
5.215880910E-1,1.950129867E-1,2.304421216E-1,-9.222266674E-1
5.240752260E-1,2.438807636E-1,2.903051674E-1,-9.539906979E-1
5.265632470E-1,2.829749882E-1,3.452814221E-1,-9.808679819E-1
5.290520490E-1,3.171824515E-1,3.965925872E-1,-1.000415087E0
5.315400180E-1,3.416163325E-1,4.356867969E-1,-1.013853788E0
5.340271530E-1,3.587200642E-1,4.588989913E-1,-1.019962192E0
5.365151740E-1,3.684936166E-1,4.698942602E-1,-1.019962192E0
5.390039760E-1,3.770454824E-1,4.625640810E-1,-1.012632012E0
5.414919970E-1,3.770454824E-1,4.369085133E-1,-1.001636744E0
5.439790800E-1,3.709369898E-1,3.978142738E-1,-9.833113551E-1
5.464671530E-1,3.623851240E-1,3.440597057E-1,-9.625425935E-1
5.489559550E-1,3.465031087E-1,2.793098986E-1,-9.393303990E-1
5.514439240E-1,3.318427801E-1,2.035648525E-1,-9.112313986E-1
5.539310590E-1,3.122956753E-1,1.229330078E-1,-8.794673681E-1
5.564190800E-1,2.927485406E-1,4.474456236E-2,-8.464815617E-1
5.589078820E-1,2.756448388E-1,-2.611372061E-2,-8.086090684E-1
5.613958510E-1,2.585411072E-1,-8.719844371E-2,-7.682931423E-1
5.638829860E-1,2.524326444E-1,-1.409530044E-1,-7.291989326E-1
5.663710070E-1,2.463241518E-1,-1.837123185E-1,-6.888830066E-1
5.688598090E-1,2.475458533E-1,-2.179197669E-1,-6.461237073E-1
5.713477780E-1,2.499892414E-1,-2.447970361E-1,-6.070294380E-1
5.738349130E-1,2.585411072E-1,-2.692309320E-1,-5.703786016E-1
5.763229860E-1,2.732014358E-1,-2.887780368E-1,-5.361711979E-1
5.788117360E-1,2.866400778E-1,-3.095468581E-1,-5.056288242E-1
5.812997570E-1,3.037438095E-1,-3.266505599E-1,-4.811949134E-1
5.837868410E-1,3.220692277E-1,-3.474193811E-1,-4.592044353E-1
5.862749130E-1,3.416163325E-1,-3.608580232E-1,-4.384356141E-1
5.887637160E-1,3.623851240E-1,-3.718532622E-1,-4.213318825E-1
5.912516840E-1,3.868190348E-1,-3.779617548E-1,-4.042281806E-1
5.937388200E-1,4.136963189E-1,-3.791834414E-1,-3.871244490E-1
5.962268410E-1,4.442386627E-1,-3.706315756E-1,-3.675773442E-1
5.987156430E-1,4.735593498E-1,-3.608580232E-1,-3.480302393E-1
6.012036110E-1,5.089884996E-1,-3.425326049E-1,-3.260397315E-1
6.036907470E-1,5.468609929E-1,-3.254288733E-1,-3.040492237E-1
6.061787680E-1,5.835118294E-1,-3.083251417E-1,-2.796153426E-1
6.086675700E-1,6.238277555E-1,-2.936648130E-1,-2.564031482E-1
6.111555380E-1,6.653653979E-1,-2.851129472E-1,-2.319692522E-1
6.136426740E-1,7.069029808E-1,-2.826695740E-1,-2.148655206E-1
6.161307470E-1,7.496622801E-1,-2.875563502E-1,-1.977618039E-1
6.186194970E-1,7.911999226E-1,-2.973299026E-1,-1.928750277E-1
6.211075180E-1,8.315158486E-1,-3.034383655E-1,-1.904316396E-1
6.235946530E-1,8.742751479E-1,-3.132119179E-1,-1.940967143E-1
6.260826740E-1,9.121476412E-1,-3.119902313E-1,-2.002051920E-1
6.285714760E-1,9.475768209E-1,-3.095468581E-1,-2.075353563E-1
6.310594450E-1,9.830059409E-1,-3.034383655E-1,-2.124221325E-1
6.335465800E-1,1.015991688E0,-2.912214398E-1,-2.173089087E-1
6.360346010E-1,1.041647315E0,-2.790044844E-1,-2.209739983E-1
6.385234030E-1,1.062416077E0,-2.631224692E-1,-2.270824611E-1
6.410113720E-1,1.081963181E0,-2.484621257E-1,-2.344126403E-1
6.434985070E-1,1.097845197E0,-2.362451702E-1,-2.454078794E-1
6.459865280E-1,1.112505555E0,-2.215848416E-1,-2.539597452E-1
6.484753300E-1,1.118614078E0,-2.093679011E-1,-2.637332976E-1
6.509633510E-1,1.119835734E0,-1.983726472E-1,-2.783936262E-1
6.534504340E-1,1.119835734E0,-1.885990947E-1,-2.942756712E-1
6.559385070E-1,1.112505555E0,-1.788255423E-1,-3.113794029E-1
6.584273090E-1,1.106397152E0,-1.678302884E-1,-3.297048211E-1
6.609152780E-1,1.097845197E0,-1.519482583E-1,-3.431434333E-1
6.634024130E-1,1.088071704E0,-1.409530044E-1,-3.578037918E-1
6.658904340E-1,1.077076435E0,-1.275143623E-1,-3.675773442E-1
6.683792360E-1,1.062416077E0,-1.177408099E-1,-3.761292100E-1
6.708672050E-1,1.050199151E0,-1.104106456E-1,-3.810159862E-1
6.733543410E-1,1.037982225E0,-1.091889441E-1,-3.810159862E-1
6.758423610E-1,1.025765300E0,-1.116323397E-1,-3.773508966E-1
6.783311630E-1,1.017213345E0,-1.189625040E-1,-3.724641204E-1
6.808191320E-1,1.007439852E0,-1.299577504E-1,-3.675773442E-1
6.833062680E-1,1.001331329E0,-1.482831687E-1,-3.590254784E-1
6.857942880E-1,9.927794933E-1,-1.678302884E-1,-3.516952991E-1
6.882830910E-1,9.866710305E-1,-1.922641695E-1,-3.468085229E-1
6.907711110E-1,9.817842841E-1,-2.166980654E-1,-3.382566571E-1
6.932581950E-1,9.817842841E-1,-2.411319613E-1,-3.321481943E-1
6.957462680E-1,9.805625677E-1,-2.594573796E-1,-3.248180151E-1
6.982350700E-1,9.830059409E-1,-2.704526186E-1,-3.162661791E-1
7.007230380E-1,9.830059409E-1,-2.728960216E-1,-3.052709103E-1
7.032101740E-1,9.854493141E-1,-2.643441558E-1,-2.918322682E-1
7.056981950E-1,9.903361201E-1,-2.423536479E-1,-2.783936262E-1
7.081869970E-1,9.952229261E-1,-2.154763639E-1,-2.649549842E-1
7.106749660E-1,1.001331329E0,-1.812689304E-1,-2.490729690E-1
7.131621010E-1,1.003774762E0,-1.421747059E-1,-2.368560284E-1
7.156501220E-1,1.008661509E0,-1.055238619E-1,-2.258607745E-1
7.181389240E-1,1.009883285E0,-7.131642103E-2,-2.197522968E-1
7.206268930E-1,1.007439852E0,-4.199574888E-2,-2.148655206E-1
7.231140280E-1,1.002553105E0,-1.511846948E-2,-2.112004459E-1
7.256021010E-1,9.915578365E-1,9.315420873E-3,-2.099787444E-1
7.280908510E-1,9.781191945E-1,3.374931216E-2,-2.087570578E-1
7.305788720E-1,9.610154629E-1,5.451811850E-2,-2.087570578E-1
7.330660070E-1,9.365815520E-1,7.406523079E-2,-2.026485801E-1
7.355540280E-1,9.097042680E-1,8.383878320E-2,-1.928750277E-1
7.380428300E-1,8.803836107E-1,9.116895497E-2,-1.831014603E-1
7.405307990E-1,8.498412371E-1,8.750387281E-2,-1.672194302E-1
7.430179340E-1,8.168554902E-1,7.895200700E-2,-1.476723254E-1
7.455059550E-1,7.814263701E-1,6.551336497E-2,-1.244601309E-1
7.479947570E-1,7.496622801E-1,5.085303262E-2,-1.024696305E-1
7.504827260E-1,7.215633392E-1,3.130592033E-2,-7.803573459E-2
7.529698610E-1,6.910209656E-1,6.872031838E-3,-5.360184610E-2
7.554578820E-1,6.665870547E-1,-2.855710872E-2,-3.161134571E-2
7.579466840E-1,6.445965767E-1,-6.154286116E-2,-1.084253844E-2
7.604347050E-1,6.201626658E-1,-9.452861547E-2,1.359135192E-2
7.629217880E-1,5.822901726E-1,-1.592784226E-1,2.825168520E-2
7.654098610E-1,4.833329022E-1,-3.132119179E-1,1.969982497E-2
7.678986630E-1,2.780882120E-1,-6.297835112E-1,-2.305948362E-2
7.703866320E-1,-1.006370857E-1,-1.135565042E0,-1.073564067E-1
7.728737680E-1,-6.332958937E-1,-1.717091680E0,-2.319692522E-1
7.753617880E-1,-1.242921472E0,-2.210656166E0,-3.785725832E-1
7.778505910E-1,-1.825669765E0,-2.412235737E0,-5.337277651E-1
7.803385590E-1,-2.325342894E0,-2.316943645E0,-6.876612902E-1
7.828256950E-1,-2.699181318E0,-1.940661788E0,-8.171609044E-1
7.853137160E-1,-2.925194740E0,-1.324927688E0,-9.075663090E-1
7.878025180E-1,-3.016821861E0,-5.821374655E-1,-9.613208771E-1
7.902904860E-1,-3.003383160E0,1.449235082E-1,-9.943066239E-1
7.927776220E-1,-2.914199591E0,7.484406233E-1,-1.019962192E0
7.952656430E-1,-2.779813051E0,1.193137407E0,-1.037065983E0
7.977544450E-1,-2.629544735E0,1.469240427E0,-1.016297102E0
8.002424660E-1,-2.474389553E0,1.575527787E0,-9.710944295E-1
8.027295490E-1,-2.324120998E0,1.524216652E0,-9.124531150E-1
8.052176220E-1,-2.187291384E0,1.339740753E0,-8.391514421E-1
8.077064240E-1,-2.056570053E0,1.047755718E0,-7.524111271E-1
8.101943930E-1,-1.935622215E0,6.959077120E-1,-6.571189165E-1
8.126815280E-1,-1.817117929E0,3.220692277E-1,-5.569399595E-1
8.151695490E-1,-1.698613524E0,-3.955236077E-2,-4.592044353E-1
8.176583510E-1,-1.577665806E0,-3.596363366E-1,-3.626905680E-1
8.201463200E-1,-1.453052878E0,-6.090146899E-1,-2.710634768E-1
8.226334550E-1,-1.328440070E0,-7.739434838E-1,-1.818797737E-1
8.251214760E-1,-1.201383829E0,-8.570187092E-1,-1.024696305E-1
8.276102780E-1,-1.063332319E0,-8.814526200E-1,-3.649812192E-2
8.300982470E-1,-9.301676750E-1,-8.570187092E-1,1.847812906E-2
8.325853820E-1,-7.884510756E-1,-7.873821259E-1,6.368082762E-2
8.350734550E-1,-6.491779089E-1,-6.920899153E-1,9.666658193E-2
8.375622050E-1,-5.245651007E-1,-5.845808387E-1,1.174353883E-1
8.400502260E-1,-4.182776511E-1,-4.782933891E-1,1.259872466E-1
8.425373610E-1,-3.327590525E-1,-3.840702176E-1,1.259872466E-1
8.450253820E-1,-2.790044844E-1,-3.083251417E-1,1.259872466E-1
8.475141840E-1,-2.533488870E-1,-2.521272004E-1,1.186570823E-1
8.500021530E-1,-2.594573796E-1,-2.154763639E-1,1.101052165E-1
8.524892880E-1,-2.924431264E-1,-2.032594234E-1,1.003316641E-1
8.549773090E-1,-3.535278440E-1,-2.081461996E-1,8.811471611E-2
8.574661110E-1,-4.243861437E-1,-2.154763639E-1,7.223268598E-2
8.599540800E-1,-5.025745630E-1,-2.240282297E-1,5.635065958E-2
8.624412160E-1,-5.709894896E-1,-2.276933193E-1,4.291202128E-2
8.649292360E-1,-6.210789680E-1,-2.240282297E-1,3.558185324E-2
8.674180380E-1,-6.540647149E-1,-2.154763639E-1,3.680354729E-2
8.699060590E-1,-6.662816405E-1,-2.032594234E-1,4.779879749E-2
8.723931430E-1,-6.675033569E-1,-1.739387512E-1,7.345438004E-2
8.748812160E-1,-6.601731777E-1,-1.311794519E-1,1.076618284E-1
8.773700180E-1,-6.430694461E-1,-9.819369763E-2,1.430909634E-1
8.798579860E-1,-6.186355352E-1,-7.986827940E-2,1.711899489E-1
8.823451220E-1,-5.929799676E-1,-8.475505561E-2,1.919587553E-1
8.848331430E-1,-5.636593103E-1,-1.140757278E-1,2.029540092E-1
8.873219450E-1,-5.343386531E-1,-1.592784226E-1,2.041756958E-1
8.898099130E-1,-4.964661002E-1,-2.215848416E-1,1.895153672E-1
8.922970490E-1,-4.585935771E-1,-2.936648130E-1,1.687465608E-1
8.947850700E-1,-4.133908749E-1,-3.669664860E-1,1.382041872E-1
8.972738720E-1,-3.669664860E-1,-4.355340898E-1,1.101052165E-1
8.997618410E-1,-3.132119179E-1,-4.917320311E-1,7.345438004E-2
9.022489760E-1,-2.533488870E-1,-5.283828974E-1,3.558185324E-2
9.047369970E-1,-1.910424829E-1,-5.589252710E-1,1.374406274E-3
9.072257990E-1,-1.299577504E-1,-5.845808387E-1,-1.817270555E-2
9.097138200E-1,-8.475505561E-2,-6.090146899E-1,-2.550287358E-2
9.122009030E-1,-5.421269313E-2,-6.444438696E-1,-1.939439960E-2
9.146889760E-1,-3.588727489E-2,-7.104153633E-1,-9.620844387E-3
9.171777780E-1,-2.733541466E-2,-7.959339619E-1,1.603474095E-2
9.196657470E-1,-1.756185852E-2,-8.838959932E-1,5.268557742E-2
9.221528820E-1,-1.023169141E-2,-9.779664874E-1,1.015533581E-1
9.246409030E-1,1.985253533E-3,-1.064706802E0,1.577513069E-1
9.271297050E-1,1.786728203E-2,-1.135565042E0,2.163926363E-1
9.296176740E-1,3.985778242E-2,-1.172215939E0,2.774773538E-1
9.321048090E-1,7.406523079E-2,-1.181989431E0,3.275668323E-1
9.345928300E-1,1.131594554E-1,-1.168550849E0,3.691044450E-1
9.370816320E-1,1.571404636E-1,-1.119683027E0,3.996468186E-1
9.395696010E-1,1.950129867E-1,-1.036607742E0,4.253024161E-1
9.420567360E-1,2.304421216E-1,-9.364288449E-1,4.362976551E-1
9.445447570E-1,2.573194206E-1,-8.289197087E-1,4.326325655E-1
9.470335590E-1,2.756448388E-1,-7.189671993E-1,4.228590131E-1
9.495215800E-1,2.829749882E-1,-6.090146899E-1,4.155288339E-1
9.520086630E-1,2.829749882E-1,-5.027272701E-1,4.155288339E-1
9.544967360E-1,2.805316150E-1,-4.098785222E-1,4.265241027E-1
9.569855380E-1,2.756448388E-1,-3.327590525E-1,4.472928941E-1
9.594735070E-1,2.744231224E-1,-2.728960216E-1,4.790569544E-1
9.619606430E-1,2.817533016E-1,-2.301367074E-1,5.132644176E-1
9.644486630E-1,2.927485406E-1,-2.044811249E-1,5.450284481E-1
9.669374660E-1,3.086305857E-1,-1.873773932E-1,5.694623590E-1
9.694254340E-1,3.330644667E-1,-1.776038408E-1,5.890094638E-1
9.719125700E-1,3.611634374E-1,-1.702736765E-1,6.024481058E-1
9.744005910E-1,3.929274976E-1,-1.714953631E-1,6.158867478E-1
9.768893930E-1,4.271349311E-1,-1.910424829E-1,6.256603003E-1
9.793773610E-1,4.588989913E-1,-2.325800955E-1,6.366555691E-1
9.818644970E-1,4.869979918E-1,-2.961082160E-1,6.452074051E-1
9.843525700E-1,5.163186193E-1,-3.694098890E-1,6.513158679E-1
9.868413720E-1,5.383091569E-1,-4.501944184E-1,6.549809575E-1
9.893293410E-1,5.566345453E-1,-5.332696438E-1,6.586460471E-1
9.918164760E-1,5.664080977E-1,-6.053496599E-1,6.610894203E-1
9.943044970E-1,5.761816502E-1,-6.627692580E-1,6.586460471E-1
9.967932990E-1,5.798467398E-1,-7.116370797E-1,6.574243903E-1
9.992812680E-1,5.761816502E-1,-7.482879162E-1,6.549809575E-1
1.001768403E0,5.712949038E-1,-7.800519466E-1,6.525375843E-1
1.004256424E0,5.627430081E-1,-8.044858575E-1,6.476507783E-1
1.006745226E0,5.493044257E-1,-8.203678727E-1,6.488724947E-1
1.009233195E0,5.358657837E-1,-8.240329623E-1,6.549809575E-1
1.011720330E0,5.187620521E-1,-8.179244995E-1,6.671979427E-1
1.014208351E0,5.004366040E-1,-7.947123051E-1,6.818582416E-1
1.016697153E0,4.784461260E-1,-7.592831254E-1,6.989619732E-1
1.019185174E0,4.564556181E-1,-7.116370797E-1,7.172874212E-1
1.021672257E0,4.332434237E-1,-6.566607952E-1,7.404996157E-1
1.024160330E0,4.088095427E-1,-5.955760479E-1,7.710419297E-1
1.026649080E0,3.917058110E-1,-5.344913602E-1,8.040276766E-1
1.029137101E0,3.733803928E-1,-4.709632397E-1,8.419002295E-1
1.031624236E0,3.636068404E-1,-3.950654566E-1,8.932114244E-1
1.034112257E0,3.587200642E-1,-3.022166789E-1,9.579612017E-1
1.036601059E0,3.574983478E-1,-1.934858710E-1,1.033706307E0
1.039089028E0,3.660502136E-1,-6.154286116E-2,1.138772011E0
1.041576163E0,3.794888556E-1,7.773031294E-2,1.260941505E0
1.044064184E0,3.868190348E-1,2.108950168E-1,1.391662717E0
1.046552986E0,3.904841244E-1,3.318427801E-1,1.515053868E0
1.049040955E0,3.855973184E-1,4.405735731E-1,1.629893184E0
1.051528091E0,3.733803928E-1,5.346440673E-1,1.734958887E0
1.054016111E0,3.587200642E-1,6.091674566E-1,1.827807665E0
1.056504913E0,3.403946459E-1,6.690304875E-1,1.912104607E0
1.058992934E0,3.184041381E-1,7.117897868E-1,1.985406280E0
1.061480018E0,2.951919436E-1,7.423321605E-1,2.051377773E0
1.063968091E0,2.756448388E-1,7.582141757E-1,2.112462521E0
1.066456841E0,2.585411072E-1,7.594358325E-1,2.175990582E0
1.068944861E0,2.426590770E-1,7.508839965E-1,2.240740538E0
1.071431997E0,2.353289127E-1,7.288935184E-1,2.303046942E0
1.073920018E0,2.292204350E-1,6.983511448E-1,2.361688137E0
1.076408820E0,2.218902707E-1,6.580352187E-1,2.419107914E0
1.078896788E0,2.194468826E-1,6.152759194E-1,2.480192661E0
1.081383924E0,2.170034945E-1,5.725166202E-1,2.536390543E0
1.083871945E0,2.133384049E-1,5.309789777E-1,2.587701797E0
1.086360747E0,2.072299272E-1,4.943281412E-1,2.628017664E0
1.088848716E0,2.096733153E-1,4.601207078E-1,2.645121336E0
1.091335851E0,2.084516287E-1,4.295783341E-1,2.653673172E0
1.093823924E0,2.084516287E-1,3.953709006E-1,2.652451515E0
1.096312674E0,2.133384049E-1,3.574983478E-1,2.646342993E0
1.098800695E0,2.096733153E-1,3.159607351E-1,2.637791157E0
1.101287778E0,2.060082406E-1,2.719797492E-1,2.624352455E0
1.103775851E0,1.974563748E-1,2.304421216E-1,2.607248783E0
1.106264653E0,1.852394342E-1,1.925695986E-1,2.588923454E0
1.108752622E0,1.669140160E-1,1.571404636E-1,2.573041439E0
1.111239757E0,1.412584335E-1,1.351499557E-1,2.557159424E0
1.113727778E0,1.180462316E-1,1.241547018E-1,2.542499065E0
1.116216580E0,8.261708915E-2,1.314848661E-1,2.529060364E0
1.118704549E0,4.596625641E-2,1.620272398E-1,2.518065214E0
1.121191684E0,3.206948051E-3,2.096733153E-1,2.507069826E0
1.123679705E0,-3.833066672E-2,2.817533016E-1,2.498517990E0
1.126168507E0,-8.108997345E-2,3.709369898E-1,2.493631124E0
1.128656476E0,-1.287360638E-1,4.747810364E-1,2.488744497E0
1.131143611E0,-1.788255423E-1,5.908420086E-1,2.485079288E0
1.133631684E0,-2.325800955E-1,7.117897868E-1,2.482635975E0
1.136120434E0,-2.875563502E-1,8.339592218E-1,2.482635975E0
1.138608455E0,-3.413109183E-1,9.549070001E-1,2.480192661E0
1.141095538E0,-3.987305462E-1,1.069746256E0,2.475305796E0
1.143583611E0,-4.561502039E-1,1.180920482E0,2.471640825E0
1.146072413E0,-5.135698318E-1,1.281099439E0,2.474084139E0
1.148560382E0,-5.648810267E-1,1.375169873E0,2.478971004E0
1.151047518E0,-6.125270724E-1,1.465575337E0,2.492409468E0
1.153535538E0,-6.577298045E-1,1.544985414E0,2.514400005E0
1.156024341E0,-6.894938350E-1,1.623173833E0,2.541277409E0
1.158512309E0,-7.163711190E-1,1.695253849E0,2.570597887E0
1.160999445E0,-7.310314775E-1,1.761225343E0,2.603583813E0
1.163487466E0,-7.371399403E-1,1.825975180E0,2.639012814E0
1.165976268E0,-7.334748507E-1,1.885838151E0,2.674442053E0
1.168464236E0,-7.298097610E-1,1.942036152E0,2.707427740E0
1.170951372E0,-7.249229550E-1,1.988460541E0,2.739191771E0
1.173439445E0,-7.175928354E-1,2.025111437E0,2.768512487E0
1.175928195E0,-7.114843726E-1,2.048323631E0,2.796611547E0
1.178416216E0,-7.065975666E-1,2.060540438E0,2.825932026E0
1.180903351E0,-7.004891038E-1,2.058097124E0,2.852809429E0
1.183391372E0,-6.968240142E-1,2.049545288E0,2.880908489E0
1.185880174E0,-6.980457306E-1,2.038549900E0,2.906563997E0
1.188368143E0,-6.992673874E-1,2.025111437E0,2.930997849E0
1.190855278E0,-6.968240142E-1,2.004342556E0,2.952988386E0
1.193343299E0,-6.943806410E-1,1.984795451E0,2.970092058E0
1.195832101E0,-6.956022978E-1,1.959139824E0,2.982309103E0
1.198320070E0,-6.931589246E-1,1.929819226E0,2.990860939E0
1.200807205E0,-6.992673874E-1,1.899276853E0,2.995747566E0
1.203295226E0,-7.065975666E-1,1.865069389E0,2.995747566E0
1.205784028E0,-7.175928354E-1,1.829640269E0,2.995747566E0
1.208272049E0,-7.322531343E-1,1.792989373E0,2.993304253E0
1.210759132E0,-7.456917763E-1,1.750230074E0,2.995747566E0
1.213247205E0,-7.664605975E-1,1.702584028E0,3.000634432E0
1.215735955E0,-7.847860456E-1,1.652494550E0,3.006742954E0
1.218223976E0,-8.092198968E-1,1.598739982E0,3.012851477E0
1.220711111E0,-8.348754644E-1,1.536433578E0,3.017738104E0
1.223199132E0,-8.617527485E-1,1.470462084E0,3.018959761E0
1.225687934E0,-8.910734653E-1,1.397160411E0,3.018959761E0
1.228175903E0,-9.203941226E-1,1.318971992E0,3.011629581E0
1.230663038E0,-9.594883323E-1,1.232231617E0,3.004299641E0
1.233151059E0,-9.998042583E-1,1.141826272E0,2.992082596E0
1.235639861E0,-1.042563558E0,1.048977494E0,2.979865551E0
1.238127830E0,-1.088987947E0,9.573503733E-1,2.971313715E0
1.240614966E0,-1.135412335E0,8.596147895E-1,2.962761879E0
1.243102986E0,-1.176949978E0,7.631009221E-1,2.962761879E0
1.245591788E0,-1.218487620E0,6.653653979E-1,2.968870401E0
1.248079809E0,-1.252694964E0,5.712949038E-1,2.977422237E0
1.250566893E0,-1.286902428E0,4.833329022E-1,2.989639282E0
1.253054966E0,-1.317444801E0,4.075878263E-1,3.005521297E0
1.255543768E0,-1.341878772E0,3.489464819E-1,3.015294790E0
1.258031736E0,-1.365090966E0,3.086305857E-1,3.026289940E0
1.260518872E0,-1.383416295E0,2.878617644E-1,3.034841776E0
1.263006893E0,-1.396854997E0,2.854183912E-1,3.039728642E0
1.265495695E0,-1.398076653E0,3.049654961E-1,3.048280478E0
1.267983663E0,-1.394411564E0,3.428380191E-1,3.056832314E0
1.270470799E0,-1.376086116E0,3.978142738E-1,3.067827702E0
1.272958820E0,-1.352873921E0,4.662291706E-1,3.081266403E0
1.275447622E0,-1.322331548E0,5.370874405E-1,3.097148418E0
1.277935591E0,-1.285680771E0,6.103891134E-1,3.111808538E0
1.280422726E0,-1.252694964E0,6.824691296E-1,3.127690792E0
1.282910747E0,-1.213600755E0,7.472189069E-1,3.142350912E0
1.285399549E0,-1.172063231E0,8.083036542E-1,3.154567957E0
1.287887570E0,-1.126860499E0,8.669449687E-1,3.161898136E0
1.290374653E0,-1.074327588E0,9.316948056E-1,3.163119793E0
1.292862726E0,-1.031568289E0,1.028208613E0,3.157011271E0
1.295351528E0,-9.790354371E-1,1.121057391E0,3.146016121E0
1.297839497E0,-9.350544214E-1,1.281099439E0,3.124025583E0
1.300326632E0,-9.045121074E-1,1.469240427E0,3.098370075E0
1.302814653E0,-8.434273601E-1,1.575527787E0,3.082488060E0
1.305303455E0,-7.627955079E-1,1.645164371E0,3.071492672E0
1.307791424E0,-6.736118197E-1,1.691588759E0,3.066606045E0
1.310278559E0,-5.856497884E-1,1.727017879E0,3.060497522E0
1.312766580E0,-5.074613690E-1,1.753895164E0,3.051945686E0
1.315255382E0,-4.366030693E-1,1.785659194E0,3.042171955E0
1.317743351E0,-3.767400384E-1,1.807649732E0,3.026289940E0
1.320230486E0,-3.242071867E-1,1.819866657E0,3.004299641E0
1.322718559E0,-2.851129472E-1,1.843078852E0,2.973757267E0
1.325207309E0,-2.570139766E-1,1.860182643E0,2.934663057E0
1.327695330E0,-2.350234836E-1,1.871177912E0,2.891903639E0
1.330182466E0,-2.215848416E-1,1.877286315E0,2.844257593E0
1.332670486E0,-2.105895877E-1,1.876064658E0,2.796611547E0
1.335159288E0,-2.105895877E-1,1.866291046E0,2.744078636E0
1.337647257E0,-2.228065431E-1,1.854074121E0,2.695210934E0
1.340134393E0,-2.411319613E-1,1.836970448E0,2.645121336E0
1.342622413E0,-2.716743052E-1,1.821088433E0,2.592588425E0
1.345111216E0,-3.510844707E-1,1.879729748E0,2.524173498E0
1.347599184E0,-4.390464723E-1,1.927375793E0,2.458202124E0
1.350086320E0,-5.160132051E-1,1.948144674E0,2.402004242E0
1.352574341E0,-5.917583108E-1,1.954253078E0,2.359244823E0
1.355063143E0,-6.662816405E-1,1.945701241E0,2.329924107E0
1.357551163E0,-7.420266867E-1,1.928597450E0,2.307933569E0
1.360038247E0,-8.202151656E-1,1.904163599E0,2.290829897E0
1.362526320E0,-8.959602118E-1,1.868734479E0,2.279834747E0
1.365015070E0,-9.753703475E-1,1.827196836E0,2.272504568E0
1.367503091E0,-1.049893737E0,1.778329134E0,2.268839359E0
1.369990226E0,-1.121973753E0,1.729461312E0,2.265174389E0
1.372478247E0,-1.192831993E0,1.684258580E0,2.267617702E0
1.374967049E0,-1.256360054E0,1.635390878E0,2.272504568E0
1.377455018E0,-1.313779712E0,1.588966489E0,2.276169538E0
1.379942153E0,-1.366312623E0,1.543763757E0,2.282278061E0
1.382430174E0,-1.415180445E0,1.497339368E0,2.284721375E0
1.384918976E0,-1.459161401E0,1.447249889E0,2.287164927E0
1.387406945E0,-1.498255610E0,1.395938754E0,2.290829897E0
1.389894080E0,-1.527576327E0,1.333632231E0,2.292051554E0
1.392382101E0,-1.554453611E0,1.271325827E0,2.298160076E0
1.394870903E0,-1.575222373E0,1.205354333E0,2.305490255E0
1.397358924E0,-1.595991135E0,1.139382839E0,2.311598778E0
1.399846007E0,-1.615538239E0,1.068524599E0,2.317707300E0
1.402334080E0,-1.632642031E0,9.817842841E-1,2.320150614E0
1.404822882E0,-1.653410792E0,8.889354467E-1,2.322593927E0
1.407310851E0,-1.676622987E0,7.814263701E-1,2.321372271E0
1.409797986E0,-1.699835181E0,6.617003083E-1,2.316485405E0
1.412286007E0,-1.725490808E0,5.297572613E-1,2.305490255E0
1.414774809E0,-1.751146436E0,3.868190348E-1,2.290829897E0
1.417262778E0,-1.776801944E0,2.377723008E-1,2.267617702E0
1.419749913E0,-1.802457571E0,8.994726092E-2,2.235853672E0
1.422237934E0,-1.823226333E0,-5.054761097E-2,2.194316149E0
1.424726736E0,-1.841551781E0,-1.739387512E-1,2.145448208E0
1.427214705E0,-1.862320542E0,-2.826695740E-1,2.089250326E0
1.429701841E0,-1.876980901E0,-3.779617548E-1,2.024500608E0
1.432189861E0,-1.889197826E0,-4.538595080E-1,1.954863906E0
1.434678663E0,-1.900193095E0,-5.173876286E-1,1.880340576E0
1.437166684E0,-1.914853454E0,-5.686988235E-1,1.799708724E0
1.439653768E0,-1.929513812E0,-6.077930331E-1,1.714190125E0
1.442141841E0,-1.944174170E0,-6.358919740E-1,1.625006437E0
1.444630643E0,-1.969829679E0,-6.346703172E-1,1.524827480E0
1.447118611E0,-1.995485306E0,-5.454866290E-1,1.414874911E0
1.449605747E0,-2.033357859E0,-4.758500159E-1,1.301257372E0
1.452093768E0,-2.072452068E0,-4.282039404E-1,1.186418056E0
1.454582570E0,-2.110324621E0,-3.901786804E-1,1.077687263E0
1.457070538E0,-2.153083801E0,-3.474193811E-1,9.689564705E-1
1.459557674E0,-2.139645338E0,-2.252499312E-1,8.590039611E-1
1.462045695E0,-1.881867647E0,2.890834510E-1,7.172874212E-1
1.464534497E0,-1.319888234E0,1.274990916E0,5.022691488E-1
1.467022466E0,-6.589514613E-1,2.276780367E0,2.689255178E-1
1.469509601E0,-1.091889441E-1,2.967037916E0,8.811471611E-2
1.471997622E0,2.634278834E-1,3.292008638E0,-8.399149403E-3
1.474486424E0,4.698942602E-1,3.323772669E0,-4.504998401E-2
1.476974445E0,5.505260825E-1,3.164952278E0,-4.260659590E-2
1.479461528E0,5.578562617E-1,2.945047379E0,-1.939439960E-2
1.481949601E0,5.041016936E-1,2.720255613E0,1.603474095E-2
1.484438351E0,3.990359604E-1,2.402615070E0,6.001574174E-2
1.486926372E0,2.609844804E-1,2.072757483E0,1.162136942E-1
1.489413507E0,1.229330078E-1,1.777107358E0,1.772984117E-1
1.491901528E0,-1.679830020E-3,1.518108130E0,2.444916219E-1
1.494390330E0,-9.941539168E-2,1.301868200E0,3.067980409E-1
1.496878299E0,-1.629435122E-1,1.117392302E0,3.348970115E-1
1.499365434E0,-1.898207814E-1,9.585720897E-1,3.568875194E-1
1.501853455E0,-2.020377368E-1,7.814263701E-1,3.837648034E-1
1.504342257E0,-2.057028115E-1,5.761816502E-1,4.081986845E-1
1.506830226E0,-2.130329758E-1,3.709369898E-1,4.240806997E-1
1.509317361E0,-2.276933193E-1,1.791309565E-1,4.240806997E-1
1.511805382E0,-2.533488870E-1,3.206948051E-3,4.081986845E-1
1.514294184E0,-2.887780368E-1,-1.543916464E-1,3.715478480E-1
1.516782205E0,-3.303156495E-1,-3.022166789E-1,3.177932799E-1
1.519269288E0,-3.791834414E-1,-4.575245976E-1,2.652604282E-1
1.521757361E0,-4.292729199E-1,-6.297835112E-1,2.359397560E-1
1.524246163E0,-4.830274582E-1,-8.179244995E-1,2.286095917E-1
1.526734132E0,-5.392253995E-1,-1.012173891E0,2.371614426E-1
1.529221268E0,-5.978667736E-1,-1.205201626E0,2.420482337E-1
1.531709288E0,-6.699467301E-1,-1.386012435E0,2.579302490E-1
1.534198091E0,-7.395833135E-1,-1.550941229E0,2.982461751E-1
1.536686059E0,-8.055548072E-1,-1.702431321E0,3.923166394E-1
1.539173195E0,-8.532009125E-1,-1.829487562E0,5.425850749E-1
1.541661216E0,-8.788564801E-1,-1.939440012E0,7.429429889E-1
1.544150018E0,-8.874083757E-1,-2.004189968E0,9.665130973E-1
1.546637986E0,-8.629744649E-1,-1.927223086E0,1.214517117E0
1.549125122E0,-8.360971808E-1,-1.754964232E0,1.427091956E0
1.551613195E0,-8.153283596E-1,-1.548497796E0,1.579803705E0
1.554101945E0,-7.982246280E-1,-1.346918225E0,1.683647752E0
1.556589966E0,-7.860077024E-1,-1.164885759E0,1.748397589E0
1.559077049E0,-7.933378816E-1,-9.950701594E-1,1.783826709E0
1.561565122E0,-8.079982400E-1,-8.411366940E-1,1.805817246E0
1.564053924E0,-8.373188972E-1,-7.018635273E-1,1.821699262E0
1.566541893E0,-8.751913905E-1,-5.638120174E-1,1.842468023E0
1.569029028E0,-9.130639434E-1,-4.184303582E-1,1.870566964E0
1.571517049E0,-9.509364963E-1,-2.716743052E-1,1.908439517E0
1.574005851E0,-9.790354371E-1,-1.238492802E-1,1.948755503E0
1.576493820E0,-1.001025915E0,2.031067200E-2,1.989071369E0
1.578980955E0,-1.009577751E0,1.608055383E-1,2.028165579E0
1.581468976E0,-1.013242841E0,2.964136302E-1,2.066038132E0
1.583957778E0,-1.008356094E0,4.259132445E-1,2.095358849E0
1.586445747E0,-9.998042583E-1,5.493044257E-1,2.121014357E0
1.588932882E0,-9.924740791E-1,6.580352187E-1,2.136896372E0
1.591420955E0,-9.827005267E-1,7.423321605E-1,2.145448208E0
1.593909705E0,-9.790354371E-1,7.936432958E-1,2.143004894E0
1.596397726E0,-9.790354371E-1,8.131904006E-1,2.130787849E0
1.598884809E0,-9.839222431E-1,8.058602214E-1,2.108797550E0
1.601372882E0,-9.888089895E-1,7.838697433E-1,2.075811625E0
1.603861684E0,-9.924740791E-1,7.582141757E-1,2.035495758E0
1.606349653E0,-9.900307059E-1,7.288935184E-1,1.986628056E0
1.608836788E0,-9.863656163E-1,7.007945180E-1,1.929208398E0
1.611324809E0,-9.778137207E-1,6.849125028E-1,1.858350039E0
1.613813611E0,-9.814788103E-1,6.922426820E-1,1.774053097E0
1.616301580E0,-9.912523627E-1,7.056813240E-1,1.682426095E0
1.618788716E0,-9.961391687E-1,7.276718020E-1,1.585912228E0
1.621276736E0,-1.005912781E0,7.545490861E-1,1.490620017E0
1.623765538E0,-1.021794796E0,7.899782062E-1,1.394106150E0
1.626253507E0,-1.038898468E0,8.339592218E-1,1.298813939E0
1.628740643E0,-1.062110662E0,8.889354467E-1,1.213295341E0
1.631228663E0,-1.088987947E0,9.610154629E-1,1.136328578E0
1.633717466E0,-1.112200141E0,1.057529330E0,1.077687263E0
1.636205486E0,-1.128082156E0,1.166260123E0,1.037371397E0
1.638692570E0,-1.143964171E0,1.284764528E0,1.010494113E0
1.641180643E0,-1.156181097E0,1.405712247E0,9.933903813E-1
1.643669445E0,-1.159846187E0,1.519329786E0,9.823951125E-1
1.646157413E0,-1.159846187E0,1.603626728E0,9.750649333E-1
1.648644549E0,-1.157402873E0,1.643942714E0,9.677347541E-1
1.651132570E0,-1.153737783E0,1.650051117E0,9.677347541E-1
1.653621372E0,-1.147629261E0,1.636612535E0,9.701781869E-1
1.656109341E0,-1.145185947E0,1.621952176E0,9.750649333E-1
1.658596476E0,-1.139077425E0,1.621952176E0,9.787300229E-1
1.661084497E0,-1.134190679E0,1.628060699E0,9.775083065E-1
1.663573299E0,-1.132968903E0,1.632947445E0,9.713998437E-1
1.666061268E0,-1.115865231E0,1.648829460E0,9.591829181E-1
1.668548403E0,-1.091431379E0,1.663489819E0,9.481876493E-1
1.671036476E0,-1.056002140E0,1.664711475E0,9.396358132E-1
1.673525226E0,-1.014464617E0,1.642720938E0,9.298622608E-1
1.676013247E0,-9.704836011E-1,1.591409802E0,9.200887084E-1
1.678500330E0,-9.203941226E-1,1.522994876E0,9.115368128E-1
1.680988403E0,-8.605310917E-1,1.446028233E0,9.066500664E-1
1.683477205E0,-7.945595980E-1,1.365396380E0,9.054283500E-1
1.685965174E0,-7.346965671E-1,1.277434349E0,9.090934396E-1
1.688452309E0,-6.687250137E-1,1.189472318E0,9.139801860E-1
1.690940330E0,-6.015318632E-1,1.111283898E0,9.200887084E-1
1.693429132E0,-5.355603099E-1,1.040425539E0,9.274188280E-1
1.695917101E0,-4.683671296E-1,9.842276573E-1,9.347490072E-1
1.698404236E0,-3.987305462E-1,9.512419105E-1,9.433009028E-1
1.700892257E0,-3.254288733E-1,9.414683580E-1,9.555178285E-1
1.703381059E0,-2.399102598E-1,9.597937465E-1,9.713998437E-1
1.705869028E0,-1.519482583E-1,9.878927469E-1,9.897252917E-1
1.708356163E0,-4.932591692E-2,1.033095479E0,1.012937427E0
1.710844236E0,6.795676053E-2,1.108840466E0,1.044701576E0
1.713332986E0,2.072299272E-1,1.207797766E0,1.086239100E0
1.715821007E0,3.697153032E-1,1.316528559E0,1.142437100E0
1.718308091E0,5.407525301E-1,1.414264083E0,1.205965161E0
1.720796163E0,7.081246972E-1,1.480235577E0,1.278045177E0
1.723284966E0,8.608365059E-1,1.502226114E0,1.348903418E0
1.725772934E0,9.903361201E-1,1.483900666E0,1.420983434E0
1.728260070E0,1.114948988E0,1.433811188E0,1.489398360E0
1.730748091E0,1.218793035E0,1.353179336E0,1.557813168E0
1.733236893E0,1.288429618E0,1.320193648E0,1.631114841E0
1.735724861E0,1.293316364E0,1.393495321E0,1.697086453E0
1.738211997E0,1.301868200E0,1.437476277E0,1.742289066E0
1.740700018E0,1.288429618E0,1.316528559E0,1.774053097E0
1.743188820E0,1.240783453E0,1.012326598E0,1.798487067E0
1.745676788E0,1.107618809E0,4.161396921E-1,1.786270142E0
1.748163924E0,8.278507590E-1,-3.938437700E-1,1.711746693E0
1.750651945E0,4.308000207E-1,-9.926267862E-1,1.584690452E0
1.753140747E0,4.718795046E-2,-1.180767775E0,1.445417285E0
1.755628768E0,-2.240282297E-1,-1.028055906E0,1.335464835E0
1.758115851E0,-3.657447994E-1,-6.664343476E-1,1.270714998E0
1.760603924E0,-4.133908749E-1,-2.240282297E-1,1.242616057E0
1.763092726E0,-3.926220834E-1,2.255553454E-1,1.232842445E0
1.765580695E0,-3.535278440E-1,6.250494719E-1,1.221847177E0
1.768067830E0,-3.229855001E-1,9.536852837E-1,1.198634982E0
1.770555851E0,-3.168770075E-1,1.187028885E0,1.158319116E0
1.773044653E0,-3.315373361E-1,1.325080395E0,1.108229637E0
1.775532622E0,-3.718532622E-1,1.383721709E0,1.055696726E0
1.778019757E0,-4.317162931E-1,1.377613306E0,1.005607247E0
1.780507778E0,-5.086830258E-1,1.311641812E0,9.542961121E-1
1.782996580E0,-5.990884304E-1,1.211462855E0,9.029849768E-1
1.785484549E0,-6.846070886E-1,1.092958450E0,8.553388715E-1
1.787971684E0,-7.676823139E-1,9.793408513E-1,8.138012886E-1
1.790459705E0,-8.360971808E-1,8.913788795E-1,7.747070193E-1
1.792948507E0,-8.849649429E-1,8.449544907E-1,7.441646457E-1
1.795436528E0,-9.203941226E-1,8.388460279E-1,7.160657048E-1
1.797923611E0,-9.448279738E-1,8.364025950E-1,6.867450476E-1
1.800411684E0,-9.497147799E-1,8.021951914E-1,6.464291215E-1
1.802900486E0,-9.655967951E-1,8.144121170E-1,6.219952106E-1
1.805388455E0,-9.888089895E-1,8.840487003E-1,6.073349118E-1
1.807875591E0,-1.016907930E0,9.976662993E-1,5.902311802E-1
1.810363611E0,-1.054780483E0,1.157708287E0,5.706840754E-1
1.812852413E0,-1.088987947E0,1.353179336E0,5.535803437E-1
1.815340382E0,-1.121973753E0,1.559645772E0,5.340332389E-1
1.817827518E0,-1.145185947E0,1.766112089E0,5.144860744E-1
1.820315538E0,-1.161067963E0,1.942036152E0,4.973823726E-1
1.822804341E0,-1.163511276E0,2.070314169E0,4.778352678E-1
1.825292309E0,-1.150072694E0,2.137507200E0,4.631749392E-1
1.827779445E0,-1.121973753E0,2.159497738E0,4.558447599E-1
1.830267466E0,-1.069440842E0,2.144837379E0,4.570664763E-1
1.832756268E0,-9.961391687E-1,2.098412991E0,4.656183124E-1
1.835244288E0,-9.130639434E-1,2.021446228E0,4.827220440E-1
1.837731372E0,-8.202151656E-1,1.912715435E0,5.047125220E-1
1.840219445E0,-7.334748507E-1,1.773442268E0,5.279247165E-1
1.842708247E0,-6.516213417E-1,1.626838923E0,5.560237169E-1
1.845196216E0,-5.734328628E-1,1.488787532E0,5.865660906E-1
1.847683351E0,-5.001311898E-1,1.359287858E0,6.195518374E-1
1.850171372E0,-4.292729199E-1,1.246891975E0,6.476507783E-1
1.852660174E0,-3.547495604E-1,1.149156451E0,6.745280623E-1
1.855148143E0,-2.838912606E-1,1.053864241E0,6.940752268E-1
1.857635278E0,-2.154763639E-1,9.634588361E-1,7.001836896E-1
1.860123299E0,-1.495048702E-1,8.926005363E-1,7.026270628E-1
1.862612101E0,-8.475505561E-2,8.473978639E-1,6.965186000E-1
1.865100070E0,-1.756185852E-2,8.290724158E-1,6.830799580E-1
1.867587205E0,4.718795046E-2,8.254073858E-1,6.647545099E-1
1.870075278E0,1.143811494E-1,8.498412371E-1,6.439857483E-1
1.872564028E0,1.852394342E-1,9.084826112E-1,6.219952106E-1
1.875052049E0,2.560977042E-1,9.622371197E-1,5.963396430E-1
1.877539132E0,3.159607351E-1,9.940012097E-1,5.719057322E-1
1.880027205E0,3.672719002E-1,1.007439852E0,5.474718809E-1
1.882516007E0,4.027010500E-1,1.012326598E0,5.242596865E-1
1.885003976E0,4.356867969E-1,1.018435121E0,5.059342384E-1
1.887491111E0,4.552339315E-1,1.020878434E0,4.888305068E-1
1.889979132E0,4.613423944E-1,1.007439852E0,4.753918648E-1
1.892467934E0,4.466820657E-1,9.744541049E-1,4.643966258E-1
1.894955903E0,4.051444530E-1,9.145910740E-1,4.534013867E-1
1.897443038E0,3.379512429E-1,8.388460279E-1,4.387410581E-1
1.899931059E0,2.487675399E-1,7.863131166E-1,4.204156399E-1
1.902419861E0,1.485885978E-1,7.692093849E-1,4.045335948E-1
1.904907830E0,3.863608837E-2,7.924215794E-1,3.910949528E-1
1.907394966E0,-6.765133142E-2,8.571714163E-1,3.837648034E-1
1.909882986E0,-1.727170646E-1,9.585720897E-1,3.776563108E-1
1.912371788E0,-2.667875290E-1,1.083184958E0,3.764346242E-1
1.914859809E0,-3.535278440E-1,1.212684512E0,3.800997138E-1
1.917346893E0,-4.207210541E-1,1.339740753E0,3.886515796E-1
1.919834966E0,-4.793623984E-1,1.453358293E0,4.033119082E-1
1.922323768E0,-5.282301903E-1,1.542542100E0,4.253024161E-1
1.924811736E0,-5.673243999E-1,1.599961638E0,4.485146105E-1
1.927298872E0,-6.137487888E-1,1.626838923E0,4.741701782E-1
1.929786893E0,-6.516213417E-1,1.636612535E0,5.034908652E-1
1.932275695E0,-7.004891038E-1,1.615843654E0,5.328115225E-1
1.934763663E0,-7.542436719E-1,1.586523056E0,5.670189857E-1
1.937250799E0,-8.031114340E-1,1.565754294E0,6.024481058E-1
1.939738820E0,-8.470924497E-1,1.562089205E0,6.415423155E-1
1.942227622E0,-8.812998533E-1,1.575527787E0,6.806365848E-1
1.944715591E0,-9.045121074E-1,1.601183414E0,7.221741676E-1
1.947202726E0,-9.228374958E-1,1.634169102E0,7.600467205E-1
1.949690747E0,-9.326110482E-1,1.670819998E0,7.966975570E-1
1.952179549E0,-9.448279738E-1,1.698918939E0,8.260182142E-1
1.954667570E0,-9.521581531E-1,1.720909476E0,8.492304087E-1
1.957154653E0,-9.546015263E-1,1.725796223E0,8.602256775E-1
1.959642726E0,-9.594883323E-1,1.733126402E0,8.712208867E-1
1.962131528E0,-9.668185115E-1,1.753895164E0,8.773293495E-1
1.964619497E0,-9.717052579E-1,1.790546060E0,8.785510659E-1
1.967106632E0,-9.753703475E-1,1.835748672E0,8.761076927E-1
1.969594653E0,-9.717052579E-1,1.893168330E0,8.712208867E-1
1.972083455E0,-9.655967951E-1,1.954253078E0,8.638907075E-1
1.974571424E0,-9.570449591E-1,2.005564213E0,8.541171551E-1
1.977058559E0,-9.436063170E-1,2.056875467E0,8.431219459E-1
1.979546580E0,-9.277243018E-1,2.105743170E0,8.321266770E-1
1.982035382E0,-9.142856598E-1,2.148502588E0,8.211314082E-1
1.984523351E0,-8.996253014E-1,2.176601410E0,8.125795722E-1
1.987010486E0,-8.715263009E-1,2.161941051E0,8.174663186E-1
1.989498507E0,-8.312104344E-1,2.095969677E0,8.382351398E-1
1.991987309E0,-7.847860456E-1,2.019002914E0,8.663341403E-1
1.994475330E0,-7.383615971E-1,1.935927629E0,8.944330812E-1
1.996962413E0,-6.760551929E-1,1.814979911E0,9.213103652E-1
1.999450486E0,-6.039752364E-1,1.692810416E0,9.457442760E-1
2.001939236E0,-5.441122055E-1,1.592631459E0,9.616262913E-1
2.004427257E0,-4.879142344E-1,1.514443040E0,9.689564705E-1
2.006914393E0,-4.219427407E-1,1.435032964E0,9.713998437E-1
2.009402413E0,-3.437542915E-1,1.336075664E0,9.713998437E-1
2.011891216E0,-2.594573796E-1,1.229788303E0,9.701781869E-1
2.014379184E0,-1.727170646E-1,1.110062122E0,9.750649333E-1
2.016866320E0,-7.620319724E-2,9.695672989E-1,9.799517393E-1
2.019354341E0,1.175880991E-2,8.241856694E-1,9.848384857E-1
2.021843143E0,8.628217876E-2,6.873558760E-1,9.897252917E-1
2.024331111E0,1.449235082E-1,5.700731874E-1,9.933903813E-1
2.026818247E0,1.791309565E-1,4.698942602E-1,9.885035753E-1
2.029306268E0,1.974563748E-1,3.892624080E-1,9.750649333E-1
2.031795070E0,2.023431510E-1,3.403946459E-1,9.530744553E-1
2.034283091E0,1.986780763E-1,3.318427801E-1,9.323056340E-1
2.036770174E0,1.962346882E-1,3.489464819E-1,9.078717232E-1
2.039258247E0,1.889045089E-1,3.843756318E-1,8.871029615E-1
2.041746997E0,1.803526580E-1,4.259132445E-1,8.590039611E-1
2.044235018E0,1.754658818E-1,4.821111858E-1,8.321266770E-1
2.046722153E0,1.693574041E-1,5.419742465E-1,8.064711094E-1
2.049210174E0,1.620272398E-1,5.859552622E-1,7.808154821E-1
2.051698976E0,1.559187621E-1,6.201626658E-1,7.563816309E-1
2.054186945E0,1.473668963E-1,6.384881139E-1,7.319477201E-1
2.056674080E0,1.375933439E-1,6.507050395E-1,7.062921524E-1
2.059162101E0,1.314848661E-1,6.617003083E-1,6.806365848E-1
2.061650903E0,1.217113137E-1,6.763606071E-1,6.525375843E-1
2.064138872E0,1.143811494E-1,6.983511448E-1,6.244385839E-1
2.066626007E0,1.070509851E-1,7.227849960E-1,5.938962698E-1
2.069114028E0,9.483403713E-2,7.398887277E-1,5.584670901E-1
2.071602830E0,8.017370105E-2,7.459971905E-1,5.205945969E-1
2.074090799E0,6.551336497E-2,7.582141757E-1,4.790569544E-1
2.076577934E0,5.696150661E-2,7.679877281E-1,4.362976551E-1
2.079066007E0,4.963133857E-2,7.997517586E-1,3.959817290E-1
2.081554757E0,4.840964451E-2,8.461761475E-1,3.544441164E-1
2.084042778E0,4.963133857E-2,8.889354467E-1,3.202366829E-1
2.086529861E0,4.963133857E-2,9.255862832E-1,2.884726226E-1
2.089017934E0,4.474456236E-2,9.610154629E-1,2.628170252E-1
2.091506736E0,3.863608837E-2,1.000109673E0,2.420482337E-1
2.093994705E0,2.519745007E-2,1.041647315E0,2.310529798E-1
2.096481841E0,3.206948051E-3,1.080741525E0,2.237228155E-1
2.098969861E0,-2.244863659E-2,1.117392302E0,2.237228155E-1
2.101458663E0,-6.032116711E-2,1.149156451E0,2.237228155E-1
2.103946632E0,-1.006370857E-1,1.183363795E0,2.249445021E-1
2.106433768E0,-1.409530044E-1,1.227344871E0,2.237228155E-1
2.108921788E0,-1.837123185E-1,1.256665468E0,2.176143378E-1
2.111410591E0,-2.350234836E-1,1.270104170E0,2.115058601E-1
2.113898559E0,-2.899997234E-1,1.268882513E0,1.980672181E-1
2.116385695E0,-3.474193811E-1,1.254222155E0,1.785201132E-1
2.118873768E0,-4.048390090E-1,1.232231617E0,1.528645307E-1
2.121362518E0,-4.683671296E-1,1.210241079E0,1.223221645E-1
2.123850538E0,-5.331169367E-1,1.204132676E0,8.933641016E-2
2.126337674E0,-6.027535200E-1,1.210241079E0,5.146388337E-2
2.128825695E0,-6.833853722E-1,1.231009960E0,1.481304597E-2
2.131314497E0,-7.689039707E-1,1.262773991E0,-2.061609551E-2
2.133802466E0,-8.727480173E-1,1.296981454E0,-5.482354015E-2
2.136289601E0,-9.851438999E-1,1.325080395E0,-9.758284688E-2
2.138777622E0,-1.093874693E0,1.354401112E0,-1.476723254E-1
2.141266424E0,-1.205048919E0,1.377613306E0,-2.075353563E-1
2.143754393E0,-1.311336398E0,1.399603724E0,-2.759502530E-1
2.146241528E0,-1.418845415E0,1.425259352E0,-3.516952991E-1
2.148729549E0,-1.527576327E0,1.465575337E0,-4.359922409E-1
2.151218351E0,-1.637528777E0,1.514443040E0,-5.227325559E-1
2.153706320E0,-1.757254839E0,1.571862698E0,-6.131379604E-1
2.156193455E0,-1.878202558E0,1.640277624E0,-6.986565590E-1
2.158681528E0,-2.000372171E0,1.723352790E0,-7.695148587E-1
2.161170278E0,-2.113989592E0,1.817423344E0,-8.257128000E-1
2.163658299E0,-2.220277071E0,1.909050345E0,-8.745805621E-1
2.166145382E0,-2.314347506E0,1.989682198E0,-9.197832346E-1
2.168633455E0,-2.392535925E0,2.055653811E0,-9.515473247E-1
2.171122257E0,-2.442625523E0,2.113073349E0,-9.747595191E-1
2.173610226E0,-2.476832867E0,2.159497738E0,-9.881981611E-1
2.176097361E0,-2.490271568E0,2.196148634E0,-9.881981611E-1
2.178585382E0,-2.490271568E0,2.227912664E0,-9.759812355E-1
2.181074184E0,-2.480498075E0,2.249903202E0,-9.539906979E-1
2.183562153E0,-2.451177359E0,2.263341904E0,-9.258917570E-1
2.186049288E0,-2.409639835E0,2.264563560E0,-8.941276670E-1
2.188537309E0,-2.358328581E0,2.265785217E0,-8.586985469E-1
2.191026111E0,-2.293578863E0,2.253568172E0,-8.208259940E-1
2.193514080E0,-2.220277071E0,2.234021187E0,-7.805100679E-1
2.196001216E0,-2.131093264E0,2.207143784E0,-7.438592315E-1
2.198489236E0,-2.034579515E0,2.174158096E0,-7.084301114E-1
2.200978038E0,-1.929513812E0,2.132620573E0,-6.778877378E-1
2.203466059E0,-1.813452840E0,2.083752632E0,-6.510104537E-1
2.205953143E0,-1.692505002E0,2.032441616E0,-6.290199757E-1
2.208441216E0,-1.561783671E0,1.986017108E0,-6.082511544E-1
2.210930018E0,-1.429840684E0,1.943257809E0,-5.960342288E-1
2.213417986E0,-1.295454383E0,1.920045614E0,-5.838172436E-1
2.215905122E0,-1.162289619E0,1.905385256E0,-5.789304972E-1
2.218393143E0,-1.026681542E0,1.888281584E0,-5.862606764E-1
2.220881945E0,-8.971819282E-1,1.862625957E0,-6.131379604E-1
2.223369913E0,-7.652388811E-1,1.832083583E0,-6.546755433E-1
2.225857049E0,-6.345176101E-1,1.802762985E0,-7.096518278E-1
2.228345070E0,-5.099047422E-1,1.785659194E0,-7.780666947E-1
2.230833872E0,-3.852919042E-1,1.768555522E0,-8.550334573E-1
2.233321841E0,-2.667875290E-1,1.760003686E0,-9.405520558E-1
2.235808976E0,-1.531699449E-1,1.753895164E0,-1.028514028E0
2.238296997E0,-5.421269313E-2,1.755116940E0,-1.117850542E0
2.240785799E0,3.741439432E-2,1.762447000E0,-1.208255887E0
2.243273820E0,1.192679256E-1,1.775885701E0,-1.298661232E0
2.245760903E0,1.876828223E-1,1.790546060E0,-1.390288353E0
2.248248976E0,2.499892414E-1,1.808871388E0,-1.483137131E0
2.250737778E0,2.976353168E-1,1.829640269E0,-1.573542595E0
2.253225747E0,3.391729295E-1,1.851630807E0,-1.661504507E0
2.255712882E0,3.758237660E-1,1.863847733E0,-1.743358135E0
2.258200903E0,4.088095427E-1,1.876064658E0,-1.817881465E0
2.260689705E0,4.381301999E-1,1.879729748E0,-1.882631302E0
2.263177674E0,4.588989913E-1,1.872399569E0,-1.938829184E0
2.265664809E0,4.711159468E-1,1.849187374E0,-1.984031916E0
2.268152830E0,4.735593498E-1,1.813758254E0,-2.020682812E0
2.270641632E0,4.698942602E-1,1.766112089E0,-2.047559977E0
2.273129601E0,4.613423944E-1,1.708692551E0,-2.065885544E0
2.275616736E0,4.442386627E-1,1.650051117E0,-2.073215485E0
2.278104757E0,4.234698713E-1,1.588966489E0,-2.074437380E0
2.280593559E0,4.014793634E-1,1.522994876E0,-2.068328857E0
2.283081580E0,3.758237660E-1,1.446028233E0,-2.058555365E0
2.285568663E0,3.501681983E-1,1.353179336E0,-2.041451454E0
2.288056736E0,3.208475113E-1,1.251778722E0,-2.017017603E0
2.290545486E0,2.890834510E-1,1.145491362E0,-1.985253572E0
2.293033507E0,2.536543310E-1,1.034317136E0,-1.951046109E0
2.295520643E0,2.157817930E-1,9.280297160E-1,-1.909508586E0
2.298008663E0,1.779092699E-1,8.168554902E-1,-1.865527511E0
2.300497466E0,1.400367320E-1,7.117897868E-1,-1.822768211E0
2.302985434E0,9.727742523E-2,6.079457402E-1,-1.778787255E0
2.305472570E0,5.573981255E-2,5.077667832E-1,-1.734806180E0
2.307960591E0,1.664558798E-2,4.136963189E-1,-1.694490314E0
2.310449393E0,-2.733541466E-2,3.281776905E-1,-1.657839417E0
2.312937361E0,-7.009471953E-2,2.475458533E-1,-1.623632073E0
2.315424497E0,-1.128540337E-1,1.718007922E-1,-1.599198103E0
2.317912518E0,-1.556133330E-1,1.046075895E-1,-1.580872655E0
2.320401320E0,-2.008160353E-1,4.230117425E-2,-1.569877505E0
2.322889288E0,-2.496838123E-1,-1.145338640E-2,-1.564990640E0
2.325376424E0,-2.997733057E-1,-5.909947306E-2,-1.566212416E0
2.327864497E0,-3.571929336E-1,-9.941539168E-2,-1.575985909E0
2.330353247E0,-4.207210541E-1,-1.262926757E-1,-1.590646267E0
2.332841268E0,-4.854708612E-1,-1.433963925E-1,-1.608971715E0
2.335328351E0,-5.538857579E-1,-1.470614821E-1,-1.627297044E0
2.337816424E0,-6.284091473E-1,-1.397313178E-1,-1.644400835E0
2.340305226E0,-7.078192830E-1,-1.238492802E-1,-1.657839417E0
2.342793195E0,-7.896727920E-1,-1.079672500E-1,-1.668834686E0
2.345280330E0,-8.788564801E-1,-9.330692142E-2,-1.676164865E0
2.347768351E0,-9.741486907E-1,-8.475505561E-2,-1.676164865E0
2.350257153E0,-1.071884274E0,-8.353336155E-2,-1.677386522E0
2.352745122E0,-1.173284888E0,-9.086353332E-2,-1.670056462E0
2.355232257E0,-1.283237338E0,-1.055238619E-1,-1.660282850E0
2.357720278E0,-1.393189907E0,-1.250709742E-1,-1.643179178E0
2.360209080E0,-1.509250879E0,-1.482831687E-1,-1.619966984E0
2.362697049E0,-1.627755284E0,-1.690519750E-1,-1.590646267E0
2.365184184E0,-1.741372824E0,-1.910424829E-1,-1.552773714E0
2.367672257E0,-1.858655453E0,-2.130329758E-1,-1.508792758E0
2.370161007E0,-1.971051335E0,-2.276933193E-1,-1.457481503E0
2.372649028E0,-2.074895382E0,-2.423536479E-1,-1.401283622E0
2.375136163E0,-2.168965816E0,-2.570139766E-1,-1.345085621E0
2.377624184E0,-2.258149624E0,-2.716743052E-1,-1.286444306E0
2.380112986E0,-2.337559700E0,-2.863346636E-1,-1.225359559E0
2.382600955E0,-2.413304806E0,-2.997733057E-1,-1.169161677E0
2.385088091E0,-2.478054523E0,-3.022166789E-1,-1.111742020E0
2.387576111E0,-2.537917614E0,-2.924431264E-1,-1.055391312E0
2.390064913E0,-2.588007212E0,-2.680092454E-1,-1.007745266E0
2.392552882E0,-2.630766392E0,-2.289150059E-1,-9.588775039E-1
2.395040018E0,-2.661308765E0,-1.800472289E-1,-9.173398614E-1
2.397528038E0,-2.689407825E0,-1.226275861E-1,-8.794673681E-1
2.400016841E0,-2.708954811E0,-6.032116711E-2,-8.477032781E-1
2.402504809E0,-2.724836826E0,6.872031838E-3,-8.208259940E-1
2.404991945E0,-2.735832214E0,8.017370105E-2,-8.000571728E-1
2.407479966E0,-2.744384050E0,1.632489264E-1,-7.829535007E-1
2.409968768E0,-2.751714230E0,2.573194206E-1,-7.707365155E-1
2.412456788E0,-2.752935886E0,3.526115716E-1,-7.621846795E-1
2.414943872E0,-2.755379200E0,4.466820657E-1,-7.597413063E-1
2.417431945E0,-2.751714230E0,5.370874405E-1,-7.585195899E-1
2.419920747E0,-2.748049021E0,6.213843822E-1,-7.560762167E-1
2.422408716E0,-2.738275528E0,7.032378912E-1,-7.548545003E-1
2.424895851E0,-2.728502035E0,7.814263701E-1,-7.536327839E-1
2.427383872E0,-2.721171856E0,8.510629535E-1,-7.487460375E-1
2.429872674E0,-2.707733154E0,9.145910740E-1,-7.438592315E-1
2.432360643E0,-2.691851139E0,9.634588361E-1,-7.340856791E-1
2.434847778E0,-2.674747467E0,9.976662993E-1,-7.218687534E-1
2.437335799E0,-2.655200243E0,1.020878434E0,-6.998782754E-1
2.439824601E0,-2.630766392E0,1.034317136E0,-6.717792749E-1
2.442312570E0,-2.611219406E0,1.036760569E0,-6.351284385E-1
2.444799705E0,-2.591672182E0,1.029430389E0,-5.911474228E-1
2.447287726E0,-2.573346853E0,1.015991688E0,-5.410579443E-1
2.449776528E0,-2.557464838E0,9.915578365E-1,-4.811949134E-1
2.452264549E0,-2.545247793E0,9.597937465E-1,-4.115583301E-1
2.454751632E0,-2.531809092E0,9.182561636E-1,-3.358132839E-1
2.457239705E0,-2.520813942E0,8.632798791E-1,-2.564031482E-1
2.459728455E0,-2.504931927E0,8.034168482E-1,-1.757712960E-1
2.462216476E0,-2.496380091E0,7.386670709E-1,-9.391776472E-2
2.464703611E0,-2.486606598E0,6.751389503E-1,-1.328592747E-2
2.467191632E0,-2.476832867E0,6.140542030E-1,6.245913357E-2
2.469680434E0,-2.469502687E0,5.651864409E-1,1.369825006E-1
2.472168403E0,-2.465837717E0,5.260922313E-1,2.090624720E-1
2.474655538E0,-2.458507538E0,4.918847680E-1,2.701472044E-1
2.477143559E0,-2.452399015E0,4.601207078E-1,3.275668323E-1
2.479632361E0,-2.441403866E0,4.356867969E-1,3.776563108E-1
2.482120330E0,-2.425521851E0,4.149180055E-1,4.179722369E-1
2.484607466E0,-2.408417940E0,4.075878263E-1,4.570664763E-1
2.487095486E0,-2.388870955E0,4.112529159E-1,4.888305068E-1
2.489584288E0,-2.366880417E0,4.283566475E-1,5.169295073E-1
2.492072309E0,-2.346111536E0,4.564556181E-1,5.438067913E-1
2.494559393E0,-2.325342894E0,4.906630516E-1,5.670189857E-1
2.497047413E0,-2.302130699E0,5.260922313E-1,5.890094638E-1
2.499536216E0,-2.280140162E0,5.627430081E-1,6.085565686E-1
2.502024236E0,-2.255706310E0,5.969504714E-1,6.268820167E-1
2.504511372E0,-2.234937429E0,6.336013079E-1,6.476507783E-1
2.506999393E0,-2.214168549E0,6.714738607E-1,6.684195995E-1
2.509488195E0,-2.192178011E0,7.093463540E-1,6.867450476E-1
2.511976163E0,-2.175074339E0,7.423321605E-1,7.075138092E-1
2.514463299E0,-2.153083801E0,7.753179073E-1,7.307260633E-1
2.516951320E0,-2.133536816E0,8.009734750E-1,7.588250041E-1
2.519440122E0,-2.115211248E0,8.192988634E-1,7.942541242E-1
2.521928091E0,-2.096885920E0,8.315158486E-1,8.345700502E-1
2.524415226E0,-2.078560591E0,8.388460279E-1,8.785510659E-1
2.526903247E0,-2.059013367E0,8.351809382E-1,9.249754548E-1
2.529392049E0,-2.040688038E0,8.302941322E-1,9.701781869E-1
2.531880018E0,-2.024806023E0,8.156337738E-1,1.012937427E0
2.534367153E0,-2.008924007E0,7.887565494E-1,1.049588323E0
2.536855226E0,-1.990598559E0,7.521057129E-1,1.078908920E0
2.539343976E0,-1.977159858E0,6.995728016E-1,1.103342891E0
2.541831997E0,-1.939287305E0,6.213843822E-1,1.120446563E0
2.544319080E0,-1.715717196E0,4.075878263E-1,1.076465607E0
2.546807153E0,-1.258803487E0,1.779092699E-1,9.604045749E-1
2.549295955E0,-7.420266867E-1,1.107160673E-1,8.492304087E-1
2.551783924E0,-2.179197669E-1,1.791309565E-1,7.588250041E-1
2.554271059E0,2.548760176E-1,3.611634374E-1,7.026270628E-1
2.556759080E0,6.238277555E-1,6.042806506E-1,6.745280623E-1
2.559247882E0,8.767185211E-1,8.351809382E-1,6.623111367E-1
2.561735851E0,1.048977494E0,1.009883285E0,6.342121959E-1
2.564222986E0,1.152821541E0,1.110062122E0,5.926745534E-1
2.566711007E0,1.196802497E0,1.135717750E0,5.389199853E-1
2.569199809E0,1.204132676E0,1.136939406E0,4.729484916E-1
2.571687778E0,1.166260123E0,1.114948988E0,4.081986845E-1
2.574174913E0,1.075854778E0,1.086849928E0,3.520007432E-1
2.576662934E0,9.378032684E-1,1.053864241E0,3.055763543E-1
2.579151736E0,7.618792653E-1,1.019656777E0,2.774773538E-1
2.581639705E0,5.602996349E-1,9.671239257E-1,2.652604282E-1
2.584126841E0,3.477247953E-1,8.901571631E-1,2.872509360E-1
2.586614913E0,1.327065676E-1,8.168554902E-1,3.116848171E-1
2.589103663E0,-7.864658535E-2,7.264500856E-1,3.348970115E-1
2.591591684E0,-2.838912606E-1,6.323796511E-1,3.507790267E-1
2.594078820E0,-4.622586668E-1,5.505260825E-1,3.544441164E-1
2.596566841E0,-6.247440577E-1,4.796678126E-1,3.593308926E-1
2.599055643E0,-7.689039707E-1,4.149180055E-1,3.678827584E-1
2.601543611E0,-9.020686746E-1,3.562766612E-1,3.947600424E-1
2.604030747E0,-1.013242841E0,3.025220931E-1,4.338542521E-1
2.606518768E0,-1.102426648E0,2.451024652E-1,4.839437306E-1
2.609007570E0,-1.164733052E0,1.730224788E-1,5.315898061E-1
2.611495538E0,-1.209935665E0,1.119377613E-1,5.890094638E-1
2.613982674E0,-1.247808218E0,7.895200700E-2,6.574243903E-1
2.616470695E0,-1.284459114E0,5.451811850E-2,7.295043468E-1
2.618959497E0,-1.308892965E0,3.374931216E-2,7.991409302E-1
2.621447518E0,-1.323553324E0,1.298050396E-2,8.663341403E-1
2.623934601E0,-1.308892965E0,-3.588727489E-2,9.139801860E-1
2.626422674E0,-1.250251651E0,-9.941539168E-2,9.371923804E-1
2.628911424E0,-1.164733052E0,-1.433963925E-1,9.433009028E-1
2.631399445E0,-1.075549364E0,-1.531699449E-1,9.457442760E-1
2.633886580E0,-9.912523627E-1,-1.287360638E-1,9.481876493E-1
2.636374601E0,-9.289459586E-1,-8.108997345E-2,9.579612017E-1
2.638863403E0,-8.751913905E-1,-2.489202656E-2,9.628480077E-1
2.641351372E0,-8.422056437E-1,2.275406010E-2,9.616262913E-1
2.643838507E0,-8.214368224E-1,5.818320066E-2,9.481876493E-1
2.646326528E0,-7.994463444E-1,9.483403713E-2,9.200887084E-1
2.648815330E0,-7.847860456E-1,1.192679256E-1,8.797727823E-1
2.651303299E0,-7.811209559E-1,1.314848661E-1,8.333483934E-1
2.653790434E0,-7.921161652E-1,1.485885978E-1,7.869240046E-1
2.656278455E0,-8.165500760E-1,1.608055383E-1,7.417212725E-1
2.658767257E0,-8.483141065E-1,1.608055383E-1,6.989619732E-1
2.661255226E0,-8.898517489E-1,1.571404636E-1,6.574243903E-1
2.663742361E0,-9.448279738E-1,1.546970755E-1,6.244385839E-1
2.666230382E0,-1.012021184E0,1.583621502E-1,5.987830162E-1
2.668719184E0,-1.076771021E0,1.314848661E-1,5.743491650E-1
2.671207205E0,-1.123195410E0,7.895200700E-2,5.486935377E-1
2.673694288E0,-1.189166903E0,7.284353673E-2,5.376983285E-1
2.676182361E0,-1.268577099E0,5.573981255E-2,5.267030597E-1
2.678671163E0,-1.363869190E0,5.573981255E-2,5.254813433E-1
2.681159132E0,-1.493368864E0,6.184828654E-2,5.340332389E-1
2.683646268E0,-1.647302389E0,5.329642445E-2,5.303681493E-1
2.686134288E0,-1.829334855E0,2.153236605E-2,5.071559548E-1
2.688623091E0,-2.005258799E0,-5.421269313E-2,4.631749392E-1
2.691111059E0,-2.148197174E0,-1.641651988E-1,4.057552814E-1
2.693598195E0,-2.243489265E0,-3.009949923E-1,3.385621011E-1
2.696086216E0,-2.248376131E0,-4.672981501E-1,2.579302490E-1
2.698575018E0,-2.161635637E0,-6.358919740E-1,1.736333370E-1
2.701062986E0,-2.023584366E0,-7.299624681E-1,9.177979827E-2
2.703550122E0,-1.873315811E0,-7.470661998E-1,2.825168520E-2
2.706038143E0,-1.721825719E0,-7.275190949E-1,-2.183778957E-2
2.708526945E0,-1.577665806E0,-6.994200945E-1,-6.459710002E-2
2.711014913E0,-1.432284117E0,-6.981984377E-1,-1.207950488E-1
2.713502049E0,-1.296676040E0,-7.336275578E-1,-1.977618039E-1
2.715990122E0,-1.176949978E0,-7.873821259E-1,-2.893888950E-1
2.718478924E0,-1.073105931E0,-8.521319032E-1,-3.883461356E-1
2.720966893E0,-9.888089895E-1,-9.095515609E-1,-4.921901822E-1
2.723454028E0,-9.301676750E-1,-9.523108602E-1,-5.972558856E-1
2.725942049E0,-8.910734653E-1,-9.828532338E-1,-6.986565590E-1
2.728430851E0,-8.654178381E-1,-1.006065488E0,-7.902836204E-1
2.730918820E0,-8.532009125E-1,-1.026834249E0,-8.684720993E-1
2.733405955E0,-8.507575393E-1,-1.053711534E0,-9.368869662E-1
2.735893976E0,-8.641961813E-1,-1.064706802E0,-9.686510563E-1
2.738382778E0,-9.008470178E-1,-1.069593549E0,-9.491039515E-1
2.740870747E0,-9.436063170E-1,-1.092805743E0,-8.965710402E-1
2.743357882E0,-9.827005267E-1,-1.150225401E0,-8.379297256E-1
2.745845903E0,-1.015686274E0,-1.227192163E0,-7.792884111E-1
2.748334705E0,-1.034011722E0,-1.294385314E0,-7.206470370E-1
2.750822674E0,-1.056002140E0,-1.337144613E0,-6.656708121E-1
2.753309809E0,-1.069440842E0,-1.350583315E0,-6.094728708E-1
2.755797882E0,-1.081657767E0,-1.331036210E0,-5.557183027E-1
2.758286632E0,-1.080436110E0,-1.293163657E0,-5.117372870E-1
2.760774653E0,-1.066997409E0,-1.236965656E0,-4.726430774E-1
2.763261736E0,-1.041341901E0,-1.161220670E0,-4.494308829E-1
2.765749809E0,-1.007134438E0,-1.074480295E0,-4.262186885E-1
2.768238611E0,-9.668185115E-1,-9.743013978E-1,-4.103366435E-1
2.770726580E0,-9.216157794E-1,-8.631271720E-1,-3.956763148E-1
2.773213716E0,-8.751913905E-1,-7.519529462E-1,-3.859027624E-1
2.775701736E0,-8.263236284E-1,-6.322268844E-1,-3.761292100E-1
2.778190538E0,-7.860077024E-1,-5.186093450E-1,-3.675773442E-1
2.780678507E0,-7.481352091E-1,-4.123218954E-1,-3.602471650E-1
2.783165643E0,-7.163711190E-1,-3.156553209E-1,-3.565820754E-1
2.785653663E0,-6.931589246E-1,-2.240282297E-1,-3.516952991E-1
2.788142466E0,-6.760551929E-1,-1.433963925E-1,-3.516952991E-1
2.790630434E0,-6.613948941E-1,-6.520794332E-2,-3.492519259E-1
2.793117570E0,-6.528429985E-1,5.650337320E-3,-3.492519259E-1
2.795605591E0,-6.406260729E-1,7.773031294E-2,-3.468085229E-1
2.798094393E0,-6.320741773E-1,1.388150454E-1,-3.419217467E-1
2.800582413E0,-6.259657145E-1,1.925695986E-1,-3.370349705E-1
2.803069497E0,-6.174138784E-1,2.377723008E-1,-3.297048211E-1
2.805557570E0,-6.076403260E-1,2.670929730E-1,-3.260397315E-1
2.808046320E0,-5.966450572E-1,2.829749882E-1,-3.199312389E-1
2.810534341E0,-5.880932212E-1,2.890834510E-1,-3.089359999E-1
2.813021476E0,-5.697677732E-1,2.805316150E-1,-2.893888950E-1
2.815509497E0,-5.612159371E-1,2.609844804E-1,-2.686200738E-1
2.817998299E0,-5.538857579E-1,2.389939874E-1,-2.502946556E-1
2.820486268E0,-5.526640415E-1,2.157817930E-1,-2.344126403E-1
2.822973403E0,-5.526640415E-1,1.937913001E-1,-2.173089087E-1
2.825461424E0,-5.489989519E-1,1.693574041E-1,-2.002051920E-1
2.827950226E0,-5.465555787E-1,1.510319859E-1,-1.831014603E-1
2.830438195E0,-5.441122055E-1,1.339282542E-1,-1.659977436E-1
2.832925330E0,-5.416688323E-1,1.168245375E-1,-1.525591016E-1
2.835413351E0,-5.416688323E-1,1.046075895E-1,-1.415638477E-1
2.837902153E0,-5.380037427E-1,9.239064902E-2,-1.378987730E-1
2.840390174E0,-5.294518471E-1,8.872556686E-2,-1.305686086E-1
2.842877257E0,-5.233433843E-1,8.628217876E-2,-1.269035190E-1
2.845365330E0,-5.074613690E-1,8.383878320E-2,-1.256818175E-1
2.847854080E0,-4.879142344E-1,8.017370105E-2,-1.244601309E-1
2.850342101E0,-4.598152637E-1,7.528692484E-2,-1.269035190E-1
2.852829184E0,-4.268295169E-1,7.773031294E-2,-1.354553849E-1
2.855317257E0,-3.999522328E-1,8.383878320E-2,-1.452289373E-1
2.857806059E0,-3.742966652E-1,9.239064902E-2,-1.574458778E-1
2.860294028E0,-3.474193811E-1,1.021642014E-1,-1.708845198E-1
2.862781163E0,-3.266505599E-1,1.058292910E-1,-1.611109674E-1
2.865269184E0,-3.071034551E-1,9.972081333E-2,-1.635543555E-1
2.867757986E0,-2.790044844E-1,1.119377613E-1,-1.928750277E-1
2.870245955E0,-2.570139766E-1,1.351499557E-1,-2.368560284E-1
2.872733091E0,-2.276933193E-1,1.852394342E-1,-2.869454920E-1
2.875221111E0,-1.947075576E-1,2.426590770E-1,-3.358132839E-1
2.877709913E0,-1.666085869E-1,2.780882120E-1,-3.724641204E-1
2.880197882E0,-1.421747059E-1,2.866400778E-1,-3.920112252E-1
2.882685018E0,-1.152974218E-1,3.098522723E-1,-4.042281806E-1
2.885173038E0,-9.208522737E-2,3.477247953E-1,-4.152234197E-1
2.887661841E0,-7.375980914E-2,3.953709006E-1,-4.286620617E-1
2.890149861E0,-5.299099907E-2,4.515688419E-1,-4.408790171E-1
2.892636945E0,-2.733541466E-2,5.077667832E-1,-4.530959427E-1
2.895125018E0,7.635590737E-4,5.554128885E-1,-4.714213610E-1
2.897613820E0,2.764083818E-2,5.957288146E-1,-4.885250926E-1
2.900101788E0,4.963133857E-2,6.299362183E-1,-5.068505406E-1
2.902588924E0,6.306997687E-2,6.568135023E-1,-5.251759291E-1
2.905076945E0,7.528692484E-2,6.800256968E-1,-5.410579443E-1
2.907565747E0,8.994726092E-2,7.007945180E-1,-5.520532131E-1
2.910053716E0,1.009425074E-1,7.178982496E-1,-5.630484819E-1
2.912540851E0,1.082726792E-1,7.252284288E-1,-5.716003180E-1
2.915028872E0,1.119377613E-1,7.288935184E-1,-5.801522136E-1
2.917517674E0,1.168245375E-1,7.288935184E-1,-5.887040496E-1
2.920005643E0,1.229330078E-1,7.276718020E-1,-5.948125124E-1
2.922492778E0,1.278197914E-1,7.240067124E-1,-5.996993184E-1
2.924980799E0,1.351499557E-1,7.203416228E-1,-6.045860648E-1
2.927469601E0,1.388150454E-1,7.105680704E-1,-6.033644080E-1
2.929957570E0,1.461452097E-1,6.946860552E-1,-5.838172436E-1
2.932444705E0,1.485885978E-1,6.824691296E-1,-5.838172436E-1
2.934932778E0,1.485885978E-1,6.592568755E-1,-5.850389600E-1
2.937421528E0,1.473668963E-1,6.274928451E-1,-5.972558856E-1
2.939909549E0,1.449235082E-1,5.810684562E-1,-6.143596172E-1
2.942396684E0,1.375933439E-1,5.138752460E-1,-6.339067221E-1
2.944884705E0,1.290414780E-1,4.210264683E-1,-6.436802745E-1
2.947373507E0,1.082726792E-1,3.171824515E-1,-6.522321701E-1
2.949861476E0,8.628217876E-2,2.231119573E-1,-6.620057225E-1
2.952348611E0,6.429167092E-2,1.302631795E-1,-6.766660213E-1
2.954836632E0,4.352286831E-2,4.963133857E-2,-6.962131858E-1
2.957325434E0,3.130592033E-2,-3.222219273E-2,-7.084301114E-1
2.959813403E0,1.786728203E-2,-1.214058921E-1,-6.876612902E-1
2.962300538E0,1.786728203E-2,-1.861557066E-1,-6.974348426E-1
2.964788559E0,2.031067200E-2,-2.557922900E-1,-7.072083950E-1
2.967277361E0,3.863608837E-2,-2.985515893E-1,-7.182036638E-1
2.969765330E0,6.673506647E-2,-3.254288733E-1,-6.803311110E-1
2.972252466E0,8.750387281E-2,-3.694098890E-1,-6.131379604E-1
2.974740486E0,8.139539510E-2,-4.355340898E-1,-5.141806602E-1
2.977229288E0,6.184828654E-2,-5.051707029E-1,-4.176668227E-1
2.979717257E0,3.252761811E-2,-5.405998230E-1,-3.468085229E-1
2.982204393E0,-1.145338640E-2,-5.308262706E-1,-3.028275371E-1
2.984692466E0,-4.688252881E-2,-4.966188073E-1,-2.722851634E-1
2.987181216E0,-6.887302548E-2,-4.355340898E-1,-2.710634768E-1
2.989669236E0,-7.375980914E-2,-3.681881726E-1,-2.869454920E-1
2.992156372E0,-6.520794332E-2,-3.034383655E-1,-3.174878657E-1
2.994644393E0,-4.932591692E-2,-2.374668717E-1,-3.565820754E-1
2.997133195E0,-2.855710872E-2,-1.873773932E-1,-4.042281806E-1
2.999621163E0,-1.511846948E-2,-1.348445266E-1,-4.555393457E-1
3.002108299E0,-1.267508045E-2,-8.231166750E-2,-5.031854510E-1
3.004596320E0,-1.023169141E-2,-4.810422286E-2,-5.410579443E-1
3.007085122E0,-7.788302377E-3,-2.244863659E-2,-5.764871240E-1
3.009573091E0,-2.000524849E-2,-1.267508045E-2,-6.070294380E-1
3.012060226E0,-3.833066672E-2,-1.756185852E-2,-6.290199757E-1
3.014548247E0,-6.154286116E-2,-2.855710872E-2,-6.449019909E-1
3.017037049E0,-8.231166750E-2,-5.543438718E-2,-6.534538269E-1
3.019525018E0,-9.819369763E-2,-7.742489129E-2,-6.595623493E-1
3.022012153E0,-1.152974218E-1,-1.067455560E-1,-6.668924689E-1
3.024500226E0,-1.250709742E-1,-1.324011385E-1,-6.766660213E-1
3.026988976E0,-1.409530044E-1,-1.519482583E-1,-6.864396334E-1
3.029476997E0,-1.556133330E-1,-1.751604527E-1,-6.901046634E-1
3.031964132E0,-1.592784226E-1,-2.020377368E-1,-6.913263798E-1
3.034452153E0,-1.605001241E-1,-2.325800955E-1,-6.901046634E-1
3.036940903E0,-1.678302884E-1,-2.570139766E-1,-6.913263798E-1
3.039428924E0,-1.763821393E-1,-2.692309320E-1,-6.913263798E-1
3.041916059E0,-1.873773932E-1,-3.022166789E-1,-7.035433054E-1
3.044404080E0,-1.922641695E-1,-3.791834414E-1,-7.133168578E-1
3.046892882E0,-1.983726472E-1,-4.770717025E-1,-7.169819474E-1
3.049380851E0,-2.166980654E-1,-5.919110179E-1,-7.206470370E-1
3.051867986E0,-2.240282297E-1,-6.627692580E-1,-7.487460375E-1
3.054356007E0,-2.142546773E-1,-6.896465421E-1,-7.817317843E-1
3.056844809E0,-1.837123185E-1,-6.774296165E-1,-8.232693672E-1
3.059332778E0,-1.421747059E-1,-6.529957056E-1,-8.623636365E-1
3.061819913E0,-1.067455560E-1,-6.407787800E-1,-8.953493834E-1
3.064307934E0,-7.498150319E-2,-6.114581227E-1,-9.246700406E-1
3.066796736E0,-4.810422286E-2,-5.577035546E-1,-9.515473247E-1
3.069284705E0,-2.733541466E-2,-4.807367921E-1,-9.759812355E-1
3.071771841E0,-1.634016447E-2,-4.062134326E-1,-9.930849075E-1
3.074259913E0,-4.123218823E-3,-3.535278440E-1,-9.991934299E-1
3.076748663E0,5.650337320E-3,-3.144336343E-1,-1.007745266E0
3.079236684E0,-2.901524538E-3,-2.716743052E-1,-1.006523609E0
3.081723820E0,-3.955236077E-2,-2.166980654E-1,-1.027292371E0
3.084211841E0,-5.176930502E-2,-1.690519750E-1,-1.056613088E0
3.086700643E0,-2.244863659E-2,-1.214058921E-1,-1.082421303E0
3.089188611E0,3.252761811E-2,-9.452861547E-2,-1.097081661E0
3.091675747E0,7.895200700E-2,-1.128540337E-1,-1.112963676E0
3.094163768E0,1.156028435E-1,-1.324011385E-1,-1.123958945E0
3.096652570E0,1.375933439E-1,-1.275143623E-1,-1.143506050E0
3.099140538E0,1.510319859E-1,-1.030804738E-1,-1.165496588E0
3.101627674E0,1.534753740E-1,-8.475505561E-2,-1.191152096E0
3.104115695E0,1.473668963E-1,-7.131642103E-2,-1.222916245E0
3.106604497E0,1.400367320E-1,-7.009471953E-2,-1.253458619E0
3.109092466E0,1.217113137E-1,-7.986827940E-2,-1.277892470E0
3.111579601E0,9.483403713E-2,-9.208522737E-2,-1.298661232E0
3.114067674E0,6.062658876E-2,-1.091889441E-1,-1.307213187E0
3.116556424E0,2.397575416E-2,-1.238492802E-1,-1.302326322E0
3.119044445E0,-6.566607859E-3,-1.409530044E-1,-1.293774486E0
3.121531528E0,-3.833066672E-2,-1.531699449E-1,-1.285222650E0
3.124019601E0,-5.787777901E-2,-1.592784226E-1,-1.269340634E0
3.126508403E0,-6.887302548E-2,-1.568350345E-1,-1.253458619E0
3.128996372E0,-7.131642103E-2,-1.421747059E-1,-1.235133171E0
3.131483507E0,-5.543438718E-2,-1.140757278E-1,-1.218029380E0
3.133971528E0,-3.100049868E-2,-7.620319724E-2,-1.200925708E0
3.136460330E0,-1.679830020E-3,-2.244863659E-2,-1.178935170E0
3.138948299E0,2.153236605E-2,5.329642445E-2,-1.152057886E0
3.141435434E0,4.840964451E-2,1.351499557E-1,-1.120293856E0
3.143923455E0,8.994726092E-2,1.962346882E-1,-1.086086392E0
3.146412257E0,1.375933439E-1,2.365505993E-1,-1.054169655E0
3.148900226E0,1.754658818E-1,2.548760176E-1,-1.026070714E0
3.151387361E0,2.072299272E-1,2.609844804E-1,-9.991934299E-1
3.153875382E0,2.267770469E-1,2.548760176E-1,-9.710944295E-1
3.156364184E0,2.377723008E-1,2.426590770E-1,-9.478822351E-1
3.158852153E0,2.402156889E-1,2.206685692E-1,-9.295567870E-1
3.161339288E0,2.365505993E-1,2.035648525E-1,-9.197832346E-1
3.163827361E0,2.255553454E-1,1.876828223E-1,-9.112313986E-1
3.166316111E0,2.145601064E-1,1.827960461E-1,-9.075663090E-1
3.168804132E0,2.096733153E-1,1.815743446E-1,-9.075663090E-1
3.171291216E0,1.998997629E-1,1.864611208E-1,-9.063445926E-1
3.173779288E0,1.913478971E-1,2.011214644E-1,-9.112313986E-1
3.176268091E0,1.779092699E-1,2.292204350E-1,-9.173398614E-1
3.178756059E0,1.644706279E-1,2.695363462E-1,-9.124531150E-1
3.181243195E0,1.510319859E-1,3.147390485E-1,-9.051229358E-1
3.183731216E0,1.351499557E-1,3.636068404E-1,-8.977927566E-1
3.186220018E0,1.180462316E-1,4.136963189E-1,-9.014578462E-1
3.188707986E0,1.021642014E-1,4.576773047E-1,-8.904625773E-1
3.191195122E0,8.872556686E-2,4.906630516E-1,-8.574768305E-1
3.193683143E0,8.506047726E-2,5.102101564E-1,-8.220477104E-1
3.196171945E0,8.017370105E-2,5.248705149E-1,-7.915053368E-1
3.198659913E0,7.528692484E-2,5.334223509E-1,-7.499676943E-1
3.201147049E0,6.917845458E-2,5.419742465E-1,-6.998782754E-1
3.203635070E0,6.062658876E-2,5.700731874E-1,-6.620057225E-1
3.206123872E0,4.718795046E-2,6.067240238E-1,-6.424586177E-1
3.208611893E0,3.863608837E-2,6.458182931E-1,-6.326850653E-1
3.211098976E0,3.252761811E-2,6.678087711E-1,-6.363501549E-1
3.213587049E0,2.641914412E-2,6.836907864E-1,-6.400152445E-1
3.216075799E0,2.031067200E-2,6.983511448E-1,-6.363501549E-1
3.218563820E0,1.298050396E-2,6.983511448E-1,-6.302416325E-1
3.221050903E0,8.093725890E-3,6.849125028E-1,-6.180247068E-1
3.223538976E0,-4.581354442E-4,6.726955175E-1,-6.119162440E-1
3.226027778E0,-1.267508045E-2,6.592568755E-1,-6.119162440E-1
3.228515747E0,-2.611372061E-2,6.323796511E-1,-6.119162440E-1
3.231002882E0,-3.833066672E-2,6.018372774E-1,-6.119162440E-1
3.233490903E0,-5.909947306E-2,5.639647245E-1,-6.082511544E-1
3.235979705E0,-8.108997345E-2,5.212054253E-1,-6.070294380E-1
3.238467674E0,-1.104106456E-1,4.674508572E-1,-6.033644080E-1
3.240954809E0,-1.336228400E-1,4.027010500E-1,-5.948125124E-1
3.243442830E0,-1.556133330E-1,3.330644667E-1,-5.777087808E-1
3.245931632E0,-1.812689304E-1,2.597627938E-1,-5.569399595E-1
3.248419601E0,-2.044811249E-1,1.889045089E-1,-5.373928547E-1
3.250906736E0,-2.289150059E-1,1.168245375E-1,-5.154023767E-1
3.253394757E0,-2.545706034E-1,5.329642445E-2,-4.958552718E-1
3.255883559E0,-2.802261710E-1,-1.679830020E-3,-4.921901822E-1
3.258371528E0,-3.058817685E-1,-4.932591692E-2,-4.946335554E-1
3.260858663E0,-3.327590525E-1,-8.719844371E-2,-5.019637346E-1
3.263346736E0,-3.486410677E-1,-1.250709742E-1,-5.031854510E-1
3.265835486E0,-3.645231128E-1,-1.666085869E-1,-4.921901822E-1
3.268323507E0,-3.742966652E-1,-2.105895877E-1,-4.787515402E-1
3.270810591E0,-3.852919042E-1,-2.484621257E-1,-4.689779878E-1
3.273298663E0,-3.914003670E-1,-2.765611112E-1,-4.677563012E-1
3.275787466E0,-3.999522328E-1,-2.875563502E-1,-4.836383164E-1
3.278275434E0,-4.011739492E-1,-2.961082160E-1,-5.044071078E-1
3.280762570E0,-3.975088596E-1,-3.071034551E-1,-5.166240931E-1
3.283250591E0,-3.791834414E-1,-3.156553209E-1,-5.373928547E-1
3.285739393E0,-3.498627543E-1,-3.168770075E-1,-5.667135715E-1
3.288227361E0,-3.156553209E-1,-3.083251417E-1,-5.935907960E-1
3.290714497E0,-2.692309320E-1,-2.924431264E-1,-6.180247068E-1
3.293202518E0,-2.142546773E-1,-2.875563502E-1,-6.229115129E-1
3.295691320E0,-1.580567211E-1,-2.765611112E-1,-6.204680800E-1
3.298179288E0,-1.018587798E-1,-2.619007528E-1,-6.326850653E-1
3.300666424E0,-4.932591692E-2,-2.484621257E-1,-6.461237073E-1
3.303154445E0,5.650337320E-3,-2.447970361E-1,-6.461237073E-1
3.305643247E0,5.085303262E-2,-2.386885732E-1,-6.424586177E-1
3.308131268E0,8.872556686E-2,-2.179197669E-1,-6.558972597E-1
3.310618351E0,1.253764033E-1,-1.971509457E-1,-6.901046634E-1
3.313106424E0,1.534753740E-1,-1.776038408E-1,-7.182036638E-1
3.315595226E0,1.815743446E-1,-1.666085869E-1,-7.511894107E-1
3.318083195E0,2.084516287E-1,-1.507265568E-1,-7.829535007E-1
3.320570330E0,2.389939874E-1,-1.287360638E-1,-8.293778896E-1
3.323058351E0,3.061871827E-1,-8.353336155E-2,-8.867974877E-1
3.325547153E0,3.440597057E-1,-7.009471953E-2,-9.393303990E-1
3.328035122E0,3.318427801E-1,-1.311794519E-1,-9.723161459E-1
3.330522257E0,3.135173619E-1,-2.276933193E-1,-9.845330715E-1
3.333010278E0,3.013004065E-1,-3.327590525E-1,-9.894198179E-1
3.335499080E0,2.976353168E-1,-4.159869850E-1,-9.906415343E-1
3.337987049E0,2.976353168E-1,-4.892886579E-1,-9.894198179E-1
3.340474184E0,3.025220931E-1,-5.650337338E-1,-9.845330715E-1
3.342962205E0,3.049654961E-1,-6.151232123E-1,-9.967499971E-1
3.345451007E0,3.037438095E-1,-6.224533319E-1,-1.023627281E0
3.347938976E0,3.037438095E-1,-5.992411375E-1,-1.063943267E0
3.350426111E0,3.000787199E-1,-5.467082858E-1,-1.123958945E0
3.352914132E0,2.878617644E-1,-4.892886579E-1,-1.176491857E0
3.355402934E0,2.878617644E-1,-4.367557764E-1,-1.188708782E0
3.357890955E0,2.976353168E-1,-3.730749488E-1,-1.175270081E0
3.360378038E0,3.196258247E-1,-3.046600819E-1,-1.152057886E0
3.362866111E0,3.428380191E-1,-2.447970361E-1,-1.126402378E0
3.365354913E0,3.611634374E-1,-1.776038408E-1,-1.077534556E0
3.367842882E0,3.770454824E-1,-1.311794519E-1,-1.002858520E0
3.370330018E0,3.978142738E-1,-1.201841980E-1,-9.136747718E-1
3.372818038E0,4.039227366E-1,-1.275143623E-1,-8.269344568E-1
3.375306841E0,4.027010500E-1,-1.360662282E-1,-7.524111271E-1
3.377794809E0,3.965925872E-1,-1.189625040E-1,-6.974348426E-1
3.380281945E0,3.819322586E-1,-9.819369763E-2,-6.705575585E-1
3.382769966E0,3.636068404E-1,-6.276455522E-2,-6.730009913E-1
3.385258768E0,3.428380191E-1,-2.855710872E-2,-6.998782754E-1
3.387746736E0,3.232909143E-1,-1.023169141E-2,-7.059867382E-1
3.390233872E0,3.086305857E-1,-7.788302377E-3,-6.986565590E-1
3.392721893E0,2.939702570E-1,-1.389677543E-2,-6.852179170E-1
3.395210695E0,2.670929730E-1,-2.977880463E-2,-6.717792749E-1
3.397698663E0,2.402156889E-1,-6.032116711E-2,-6.632274389E-1
3.400185799E0,2.072299272E-1,-8.964183182E-2,-6.668924689E-1
3.402673820E0,1.705790907E-1,-1.214058921E-1,-6.742226481E-1
3.405162622E0,1.363716573E-1,-1.690519750E-1,-6.730009913E-1
3.407650643E0,9.727742523E-2,-2.228065431E-1,-6.632274389E-1
3.410137726E0,6.673506647E-2,-2.704526186E-1,-6.363501549E-1
3.412625799E0,3.741439432E-2,-3.193204105E-1,-6.058077812E-1
3.415114549E0,1.175880991E-2,-3.645231128E-1,-5.752654076E-1
3.417602570E0,-1.634016447E-2,-3.987305462E-1,-5.483881235E-1
3.420089705E0,-4.810422286E-2,-4.257605374E-1,-5.312843919E-1
3.422577726E0,-7.620319724E-2,-4.428642690E-1,-5.251759291E-1
3.425066528E0,-1.030804738E-1,-4.453076422E-1,-5.288410187E-1
3.427554497E0,-1.226275861E-1,-4.428642690E-1,-5.300627351E-1
3.430041632E0,-1.336228400E-1,-4.367557764E-1,-5.312843919E-1
3.432529653E0,-1.348445266E-1,-4.318690002E-1,-5.263976455E-1
3.435018455E0,-1.250709742E-1,-4.220954478E-1,-5.105155706E-1
3.437506424E0,-1.091889441E-1,-3.962871730E-1,-5.019637346E-1
3.439993559E0,-8.597674966E-2,-3.694098890E-1,-4.970769584E-1
3.442481580E0,-5.909947306E-2,-3.413109183E-1,-4.897467792E-1
3.444970382E0,-2.611372061E-2,-3.009949923E-1,-4.873034060E-1
3.447458351E0,1.420219894E-2,-2.460187376E-1,-4.775298536E-1
3.449945486E0,4.474456236E-2,-1.788255423E-1,-4.726430774E-1
3.452433559E0,6.795676053E-2,-1.067455560E-1,-4.640912116E-1
3.454922309E0,9.116895497E-2,-2.489202656E-2,-4.567610323E-1
3.457410330E0,1.094943732E-1,5.451811850E-2,-4.506525695E-1
3.459897413E0,1.229330078E-1,1.241547018E-1,-4.592044353E-1
3.462385486E0,1.278197914E-1,1.950129867E-1,-4.714213610E-1
3.464874288E0,1.388150454E-1,2.548760176E-1,-4.848600030E-1
3.467362257E0,1.449235082E-1,3.000787199E-1,-4.995203316E-1
3.469849393E0,1.498102844E-1,3.318427801E-1,-5.166240931E-1
3.472337413E0,1.522536725E-1,3.636068404E-1,-5.239542127E-1
3.474826216E0,1.559187621E-1,3.794888556E-1,-5.239542127E-1
3.477314184E0,1.620272398E-1,3.917058110E-1,-5.117372870E-1
3.479801320E0,1.681357026E-1,4.014793634E-1,-4.995203316E-1
3.482289341E0,1.681357026E-1,4.088095427E-1,-4.946335554E-1
3.484778143E0,1.583621502E-1,4.234698713E-1,-5.031854510E-1
3.487266111E0,1.388150454E-1,4.369085133E-1,-5.263976455E-1
3.489753247E0,1.229330078E-1,4.442386627E-1,-5.435013771E-1
3.492241268E0,1.192679256E-1,4.381301999E-1,-5.447230339E-1
3.494730070E0,1.278197914E-1,4.369085133E-1,-5.227325559E-1
3.497218038E0,1.485885978E-1,4.356867969E-1,-4.934118688E-1
3.499705174E0,1.669140160E-1,4.320217371E-1,-4.726430774E-1
3.502193247E0,1.803526580E-1,4.246915579E-1,-4.604261220E-1
3.504681997E0,1.876828223E-1,4.063661397E-1,-4.555393457E-1
3.507170018E0,1.889045089E-1,3.892624080E-1,-4.555393457E-1
3.509657101E0,1.852394342E-1,3.684936166E-1,-4.628695250E-1
3.512145174E0,1.754658818E-1,3.489464819E-1,-4.750864506E-1
3.514633976E0,1.718007922E-1,3.220692277E-1,-4.860817194E-1
3.517121945E0,1.669140160E-1,2.878617644E-1,-4.982986450E-1
3.519609080E0,1.669140160E-1,2.609844804E-1,-5.044071078E-1
3.522097101E0,1.730224788E-1,2.414373755E-1,-5.080721974E-1
3.524585903E0,1.815743446E-1,2.218902707E-1,-5.117372870E-1
3.527073872E0,1.889045089E-1,1.950129867E-1,-5.080721974E-1
3.529561007E0,2.023431510E-1,1.779092699E-1,-4.995203316E-1
3.532049028E0,2.035648525E-1,1.705790907E-1,-4.934118688E-1
3.534537830E0,2.060082406E-1,1.461452097E-1,-4.860817194E-1
3.537025799E0,2.231119573E-1,1.107160673E-1,-4.897467792E-1
3.539512934E0,2.267770469E-1,9.605573118E-2,-5.141806602E-1
3.542000955E0,2.121167034E-1,1.156028435E-1,-5.532749295E-1
3.544489757E0,2.011214644E-1,1.278197914E-1,-5.862606764E-1
3.546977778E0,2.096733153E-1,1.180462316E-1,-5.935907960E-1
3.549464861E0,2.402156889E-1,1.156028435E-1,-5.752654076E-1
3.551952934E0,2.597627938E-1,1.510319859E-1,-5.716003180E-1
3.554441684E0,2.597627938E-1,1.864611208E-1,-5.838172436E-1
3.556929705E0,2.707580328E-1,2.108950168E-1,-5.752654076E-1
3.559416788E0,2.988570333E-1,2.389939874E-1,-5.532749295E-1
3.561904861E0,3.379512429E-1,2.744231224E-1,-5.227325559E-1
3.564393663E0,3.807105422E-1,3.281776905E-1,-4.897467792E-1
3.566881632E0,4.051444530E-1,4.002576768E-1,-4.689779878E-1
3.569368768E0,3.929274976E-1,4.674508572E-1,-4.628695250E-1
3.571856788E0,3.550549746E-1,5.285356045E-1,-4.665345848E-1
3.574345591E0,3.147390485E-1,5.712949038E-1,-4.604261220E-1
3.576833559E0,2.756448388E-1,6.006155610E-1,-4.433223903E-1
3.579320695E0,2.377723008E-1,6.519267559E-1,-4.555393457E-1
3.581808716E0,1.925695986E-1,6.885775924E-1,-4.824166298E-1
3.584297518E0,1.534753740E-1,6.971294284E-1,-4.738647640E-1
3.586785486E0,1.180462316E-1,6.873558760E-1,-4.457657933E-1
3.589272622E0,8.628217876E-2,6.763606071E-1,-4.152234197E-1
3.591760643E0,5.696150661E-2,6.617003083E-1,-3.871244490E-1
3.594249445E0,2.519745007E-2,6.519267559E-1,-3.675773442E-1
3.596737413E0,-5.344913341E-3,6.384881139E-1,-3.553603888E-1
3.599224549E0,-2.244863659E-2,6.152759194E-1,-3.431434333E-1
3.601712622E0,-3.466558084E-2,6.152759194E-1,-3.394783735E-1
3.604201372E0,-6.154286116E-2,6.372663975E-1,-3.516952991E-1
3.606689393E0,-9.452861547E-2,6.409314871E-1,-3.602471650E-1
3.609176476E0,-1.385096163E-1,6.409314871E-1,-3.712424338E-1
3.611664549E0,-1.922641695E-1,6.531484127E-1,-3.981196880E-1
3.614153351E0,-2.179197669E-1,6.189410090E-1,-4.176668227E-1
3.616641320E0,-2.240282297E-1,6.323796511E-1,-4.335488379E-1
3.619128455E0,-1.959292591E-1,6.287145615E-1,-4.445441067E-1
3.621616476E0,-1.214058921E-1,6.519267559E-1,-4.396573007E-1
3.624105278E0,-4.443913698E-2,6.861341596E-1,-4.518742561E-1
3.626593247E0,-4.123218823E-3,7.203416228E-1,-4.750864506E-1
3.629080382E0,2.519745007E-2,7.496622801E-1,-5.031854510E-1
3.631568403E0,6.306997687E-2,7.655443549E-1,-5.154023767E-1
3.634057205E0,8.261708915E-2,7.875348330E-1,-5.276193023E-1
3.636545174E0,9.972081333E-2,8.083036542E-1,-5.251759291E-1
3.639032309E0,1.278197914E-1,8.217422962E-1,-5.337277651E-1
3.641520330E0,1.595838517E-1,8.522846103E-1,-5.557183027E-1
3.644009132E0,1.815743446E-1,8.559496999E-1,-5.716003180E-1
3.646497101E0,2.170034945E-1,8.632798791E-1,-5.716003180E-1
3.648984236E0,2.548760176E-1,8.645015955E-1,-5.728220344E-1
3.651472257E0,2.780882120E-1,8.681666851E-1,-5.838172436E-1
3.653961059E0,3.013004065E-1,8.779402375E-1,-5.874823332E-1
3.656449080E0,3.269560039E-1,8.816053271E-1,-5.825955868E-1
3.658936163E0,3.550549746E-1,8.938222528E-1,-5.740436912E-1
3.661424236E0,3.733803928E-1,9.023740888E-1,-5.667135715E-1
3.663913038E0,3.794888556E-1,8.828269839E-1,-5.606050491E-1
3.666401007E0,3.770454824E-1,8.669449687E-1,-5.496098399E-1
3.668888143E0,3.746020794E-1,8.364025950E-1,-5.276193023E-1
3.671376163E0,3.611634374E-1,7.924215794E-1,-5.031854510E-1
3.673864966E0,3.440597057E-1,7.350019813E-1,-4.799732268E-1
3.676352934E0,3.269560039E-1,6.739172339E-1,-4.530959427E-1
3.678840070E0,3.098522723E-1,6.226060390E-1,-4.127800465E-1
3.681328091E0,2.903051674E-1,5.920637250E-1,-3.614688516E-1
3.683816893E0,2.756448388E-1,5.651864409E-1,-3.113794029E-1
3.686304861E0,2.499892414E-1,5.407525301E-1,-2.527380586E-1
3.688791997E0,2.231119573E-1,5.248705149E-1,-1.928750277E-1
3.691280018E0,1.998997629E-1,5.236487985E-1,-1.391204596E-1
3.693768820E0,1.754658818E-1,5.334223509E-1,-1.073564067E-1
3.696256788E0,1.498102844E-1,5.627430081E-1,-8.170082420E-2
3.698743924E0,1.265980899E-1,6.006155610E-1,-4.382828996E-2
3.701231997E0,1.046075895E-1,6.384881139E-1,9.926267900E-3
3.703720747E0,8.017370105E-2,6.702521443E-1,6.734590977E-2
3.706208768E0,6.184828654E-2,6.995728016E-1,1.198787764E-1
3.708695851E0,4.718795046E-2,7.301151752E-1,1.675248593E-1
3.711183924E0,4.596625641E-2,7.692093849E-1,2.115058601E-1
3.713672726E0,5.696150661E-2,8.144121170E-1,2.652604282E-1
3.716160695E0,7.284353673E-2,8.669449687E-1,3.300102353E-1
3.718647830E0,9.116895497E-2,8.987090588E-1,3.800997138E-1
3.721135851E0,1.046075895E-1,9.219212532E-1,4.155288339E-1
3.723624653E0,1.192679256E-1,9.402466416E-1,4.375193417E-1
3.726112622E0,1.339282542E-1,9.573503733E-1,4.534013867E-1
3.728599757E0,1.437018216E-1,9.561286569E-1,4.631749392E-1
3.731087778E0,1.314848661E-1,9.035958052E-1,4.668400288E-1
3.733576580E0,1.388150454E-1,8.926005363E-1,4.436278343E-1
3.736064549E0,1.632489264E-1,9.035958052E-1,4.240806997E-1
3.738551684E0,1.693574041E-1,8.645015955E-1,4.167505503E-1
3.741039705E0,1.620272398E-1,8.229639530E-1,4.057552814E-1
3.743528507E0,1.803526580E-1,8.083036542E-1,3.715478480E-1
3.746016476E0,2.060082406E-1,8.021951914E-1,3.385621011E-1
3.748503611E0,2.231119573E-1,7.631009221E-1,3.043546379E-1
3.750991684E0,2.377723008E-1,7.044596076E-1,2.603736520E-1
3.753480434E0,2.634278834E-1,6.470399499E-1,2.115058601E-1
3.755968403E0,2.951919436E-1,5.859552622E-1,1.650814712E-1
3.758455538E0,3.355078697E-1,5.041016936E-1,1.101052165E-1
3.760943611E0,3.684936166E-1,3.917058110E-1,4.902049154E-2
3.763432413E0,3.855973184E-1,2.622061968E-1,-2.428117767E-2
3.765920382E0,4.027010500E-1,1.241547018E-1,-8.903098851E-2
3.768407518E0,3.721587062E-1,-1.091889441E-1,-6.704048812E-2
3.770895538E0,3.367295563E-1,-2.912214398E-1,-4.016320780E-2
3.773384341E0,3.220692277E-1,-4.123218954E-1,-4.871506989E-2
3.775872309E0,3.269560039E-1,-5.405998230E-1,-1.134648770E-1
3.778359445E0,4.100312293E-1,-7.165238261E-1,-2.637332976E-1
3.780847466E0,5.236487985E-1,-8.276980519E-1,-4.237752855E-1
3.783336268E0,6.458182931E-1,-9.022213817E-1,-5.630484819E-1
3.785824236E0,7.569924593E-1,-1.003622055E0,-6.668924689E-1
3.788311372E0,8.645015955E-1,-1.080588818E0,-7.585195899E-1
3.790799393E0,9.487984776E-1,-1.135565042E0,-8.269344568E-1
3.793288195E0,1.011104941E0,-1.185654521E0,-8.880192041E-1
3.795776163E0,1.053864241E0,-1.229635477E0,-9.393303990E-1
3.798263299E0,1.053864241E0,-1.229635477E0,-9.808679819E-1
3.800751372E0,1.007439852E0,-1.190541267E0,-1.008966923E0
3.803240122E0,9.182561636E-1,-1.109909415E0,-1.010188699E0
3.805728143E0,8.034168482E-1,-1.006065488E0,-9.881981611E-1
3.808215226E0,6.617003083E-1,-8.667922616E-1,-9.454388618E-1
3.810703299E0,4.992149174E-1,-7.214106321E-1,-8.843541145E-1
3.813192049E0,3.257342875E-1,-5.711421967E-1,-7.915053368E-1
3.815680070E0,1.608055383E-1,-4.367557764E-1,-6.827745438E-1
3.818167205E0,8.093725890E-3,-3.242071867E-1,-5.667135715E-1
3.820655226E0,-1.311794519E-1,-2.325800955E-1,-4.518742561E-1
3.823144028E0,-2.447970361E-1,-1.666085869E-1,-3.419217467E-1
3.825631997E0,-3.315373361E-1,-1.165191159E-1,-2.466295809E-1
3.828119132E0,-3.865135908E-1,-7.864658535E-2,-1.574458778E-1
3.830607153E0,-4.085040987E-1,-4.566083103E-2,-9.025268257E-2
3.833095955E0,-4.146125913E-1,-2.855710872E-2,-4.993676394E-2
3.835583924E0,-3.999522328E-1,-2.244863659E-2,-2.550287358E-2
3.838071059E0,-3.730749488E-1,-2.489202656E-2,-2.061609551E-2
3.840559080E0,-3.327590525E-1,-3.100049868E-2,-2.672456764E-2
3.843047882E0,-2.936648130E-1,-4.321744293E-2,-4.138490185E-2
3.845535851E0,-2.643441558E-1,-5.909947306E-2,-5.482354015E-2
3.848022986E0,-2.362451702E-1,-7.375980914E-2,-6.826218218E-2
3.850511059E0,-2.203631550E-1,-8.842013776E-2,-7.803573459E-2
3.852999809E0,-2.130329758E-1,-9.941539168E-2,-8.414421231E-2
3.855487830E0,-2.118112892E-1,-1.128540337E-1,-8.658760041E-2
3.857974913E0,-2.203631550E-1,-1.238492802E-1,-8.536590636E-2
3.860462986E0,-2.313583940E-1,-1.397313178E-1,-8.047912270E-2
3.862951788E0,-2.435753495E-1,-1.495048702E-1,-7.681404054E-2
3.865439757E0,-2.557922900E-1,-1.617218107E-1,-7.437065244E-2
3.867926893E0,-2.667875290E-1,-1.702736765E-1,-7.070557028E-2
3.870414913E0,-2.728960216E-1,-1.776038408E-1,-6.826218218E-2
3.872903716E0,-2.716743052E-1,-1.727170646E-1,-6.704048812E-2
3.875391684E0,-2.606790662E-1,-1.556133330E-1,-6.337540597E-2
3.877878820E0,-2.460187376E-1,-1.336228400E-1,-6.215370819E-2
3.880366841E0,-2.179197669E-1,-1.018587798E-1,-6.581879407E-2
3.882855643E0,-1.898207814E-1,-7.131642103E-2,-6.704048812E-2
3.885343611E0,-1.629435122E-1,-4.688252881E-2,-7.192726433E-2
3.887830747E0,-1.372879148E-1,-3.222219273E-2,-7.559234649E-2
3.890318768E0,-1.189625040E-1,-1.756185852E-2,-8.047912270E-2
3.892807570E0,-9.941539168E-2,-5.344913341E-3,-8.658760041E-2
3.895295538E0,-7.986827940E-2,1.786728203E-2,-9.513945878E-2
3.897782674E0,-6.642963737E-2,2.641914412E-2,-1.000262350E-1
3.900270747E0,-5.909947306E-2,1.908897609E-2,-1.000262350E-1
3.902759497E0,-4.688252881E-2,3.008422814E-2,-1.000262350E-1
3.905247518E0,-3.955236077E-2,3.863608837E-2,-9.147437662E-2
3.907734601E0,-3.955236077E-2,3.497100621E-2,-7.925742865E-2
3.910222674E0,-3.833066672E-2,2.641914412E-2,-6.704048812E-2
3.912711476E0,-3.710897267E-2,1.664558798E-2,-5.115845799E-2
3.915199445E0,-3.710897267E-2,4.428642802E-3,-3.649812192E-2
3.917686580E0,-2.855710872E-2,1.298050396E-2,-2.183778957E-2
3.920174601E0,-1.756185852E-2,2.031067200E-2,-1.084253844E-2
3.922663403E0,-1.267508045E-2,1.175880991E-2,-1.206423342E-2
3.925151372E0,-1.023169141E-2,4.428642802E-3,-1.939439960E-2
3.927638507E0,7.635590737E-4,2.031067200E-2,-2.672456764E-2
3.930126528E0,5.650337320E-3,2.886253223E-2,-2.794626169E-2
3.932615330E0,4.428642802E-3,1.786728203E-2,-3.161134571E-2
3.935103299E0,4.428642802E-3,4.428642802E-3,-3.405473381E-2
3.937590434E0,7.635590737E-4,-1.679830020E-3,-3.649812192E-2
3.940078455E0,1.985253533E-3,-4.581354442E-4,-3.771981969E-2
3.942567257E0,4.428642802E-3,4.428642802E-3,-3.649812192E-2
3.945055278E0,1.985253533E-3,1.053711493E-2,-3.405473381E-2
3.947542361E0,3.206948051E-3,2.153236605E-2,-3.283303976E-2
3.950030434E0,8.093725890E-3,3.130592033E-2,-2.916795574E-2
3.952519184E0,1.542389300E-2,4.718795046E-2,-2.305948362E-2
3.955007205E0,2.397575416E-2,7.162184268E-2,-1.572931744E-2
3.957494288E0,3.863608837E-2,9.972081333E-2,-8.399149403E-3
3.959982361E0,5.207473040E-2,1.192679256E-1,2.596100792E-3
3.962471163E0,6.673506647E-2,1.363716573E-1,1.236965694E-2
3.964959132E0,7.284353673E-2,1.461452097E-1,1.969982497E-2
3.967446268E0,8.628217876E-2,1.632489264E-1,2.580829710E-2
3.969934288E0,1.021642014E-1,1.852394342E-1,3.436015919E-2
3.972423091E0,1.156028435E-1,2.011214644E-1,4.291202128E-2
3.974911059E0,1.265980899E-1,2.035648525E-1,4.902049154E-2
3.977398195E0,1.302631795E-1,2.011214644E-1,5.390727147E-2
3.979886216E0,1.327065676E-1,1.962346882E-1,5.512896553E-2
3.982375018E0,1.290414780E-1,1.852394342E-1,5.268557742E-2
3.984862986E0,1.217113137E-1,1.705790907E-1,4.535540938E-2
3.987350122E0,1.131594554E-1,1.546970755E-1,4.046862945E-2
3.989838143E0,1.082726792E-1,1.498102844E-1,3.069507517E-2
3.992326945E0,1.070509851E-1,1.485885978E-1,2.092151903E-2
3.994814913E0,1.094943732E-1,1.461452097E-1,1.359135192E-2
3.997302049E0,1.094943732E-1,1.400367320E-1,3.817795310E-3
3.999790122E0,1.094943732E-1,1.290414780E-1,-4.734066315E-3
4.002278872E0,1.046075895E-1,1.217113137E-1,-8.399149403E-3
4.004766893E0,1.058292910E-1,1.278197914E-1,-5.955760833E-3
4.007254028E0,1.192679256E-1,1.375933439E-1,3.817795310E-3
4.009742049E0,1.461452097E-1,1.608055383E-1,1.847812906E-2
4.012230851E0,1.766875684E-1,1.852394342E-1,3.558185324E-2
4.014718820E0,1.986780763E-1,2.035648525E-1,4.169032723E-2
4.017205955E0,1.840177327E-1,2.182251811E-1,2.596100792E-3
4.019693976E0,1.485885978E-1,2.182251811E-1,-6.826218218E-2
4.022182778E0,1.156028435E-1,2.194468826E-1,-1.440072358E-1
4.024670747E0,9.116895497E-2,2.548760176E-1,-2.002051920E-1
4.027157882E0,7.773031294E-2,3.269560039E-1,-2.295258641E-1
4.029645903E0,7.528692484E-2,4.063661397E-1,-2.417428046E-1
4.032134705E0,7.650861889E-2,4.784461260E-1,-2.551814318E-1
4.034622674E0,8.139539510E-2,5.517477989E-1,-2.893888950E-1
4.037109809E0,8.750387281E-2,6.140542030E-1,-3.309265077E-1
4.039597830E0,8.750387281E-2,6.555918455E-1,-3.651339412E-1
4.042086632E0,7.162184268E-2,6.494833231E-1,-3.895678520E-1
4.044574653E0,5.329642445E-2,6.103891134E-1,-4.152234197E-1
4.047061736E0,4.352286831E-2,6.079457402E-1,-4.164451063E-1
4.049549809E0,4.107947648E-2,6.348230243E-1,-4.030064642E-1
4.052038611E0,2.764083818E-2,6.311579347E-1,-3.932329118E-1
4.054526580E0,-9.009997360E-3,5.749599934E-1,-3.883461356E-1
4.057013716E0,-5.909947306E-2,4.808894992E-1,-3.724641204E-1
4.059501736E0,-1.091889441E-1,4.100312293E-1,-3.394783735E-1
4.061990538E0,-1.556133330E-1,3.636068404E-1,-3.003841341E-1
4.064478507E0,-1.983726472E-1,3.293993771E-1,-2.637332976E-1
4.066965643E0,-2.386885732E-1,2.939702570E-1,-2.380777150E-1
4.069453663E0,-2.765611112E-1,2.451024652E-1,-2.136438340E-1
4.071942466E0,-3.119902313E-1,1.937913001E-1,-1.953184158E-1
4.074430434E0,-3.474193811E-1,1.412584335E-1,-1.733279079E-1
4.076917570E0,-3.791834414E-1,8.628217876E-2,-1.513374150E-1
4.079405591E0,-3.987305462E-1,3.252761811E-2,-1.354553849E-1
4.081894393E0,-4.158342779E-1,-3.466558084E-2,-1.207950488E-1
4.084382361E0,-4.304946065E-1,-1.201841980E-1,-1.049130186E-1
4.086869497E0,-4.341596961E-1,-1.702736765E-1,-1.049130186E-1
4.089357518E0,-4.182776511E-1,-1.666085869E-1,-1.134648770E-1
4.091846320E0,-3.926220834E-1,-1.592784226E-1,-1.232384369E-1
4.094334288E0,-3.633013964E-1,-1.592784226E-1,-1.256818175E-1
4.096821424E0,-3.266505599E-1,-1.605001241E-1,-1.183516532E-1
4.099309497E0,-2.716743052E-1,-1.580567211E-1,-1.073564067E-1
4.101798247E0,-2.093679011E-1,-1.568350345E-1,-9.513945878E-2
4.104286268E0,-1.372879148E-1,-1.580567211E-1,-8.047912270E-2
4.106773403E0,-6.642963737E-2,-1.568350345E-1,-6.948387623E-2
4.109261424E0,5.650337320E-3,-1.568350345E-1,-6.337540597E-2
4.111750226E0,7.040014863E-2,-1.531699449E-1,-5.848862603E-2
4.114238195E0,1.241547018E-1,-1.458397806E-1,-5.360184610E-2
4.116725330E0,1.644706279E-1,-1.409530044E-1,-4.749337584E-2
4.119213351E0,1.937913001E-1,-1.348445266E-1,-4.016320780E-2
4.121702153E0,2.145601064E-1,-1.336228400E-1,-3.405473381E-2
4.124190122E0,2.279987335E-1,-1.360662282E-1,-3.161134571E-2
4.126677257E0,2.377723008E-1,-1.397313178E-1,-2.794626169E-2
4.129165278E0,2.438807636E-1,-1.336228400E-1,-3.038965166E-2
4.131654080E0,2.499892414E-1,-1.226275861E-1,-3.161134571E-2
4.134142049E0,2.499892414E-1,-1.055238619E-1,-3.283303976E-2
4.136629184E0,2.499892414E-1,-8.475505561E-2,-3.405473381E-2
4.139117205E0,2.451024652E-1,-6.765133142E-2,-3.894151375E-2
4.141606007E0,2.389939874E-1,-4.443913698E-2,-4.627167806E-2
4.144094028E0,2.316638231E-1,-1.389677543E-2,-4.871506989E-2
4.146581111E0,2.206685692E-1,1.053711493E-2,-4.871506989E-2
4.149069184E0,2.023431510E-1,3.252761811E-2,-4.627167806E-2
4.151557986E0,1.815743446E-1,5.329642445E-2,-5.115845799E-2
4.154045955E0,1.534753740E-1,7.773031294E-2,-5.604523420E-2
4.156533091E0,1.241547018E-1,1.046075895E-1,-6.948387623E-2
4.159021111E0,7.895200700E-2,1.253764033E-1,-1.232384369E-1
4.161509913E0,4.474456236E-2,1.669140160E-1,-2.637332976E-1
4.163997882E0,2.275406010E-2,2.341072112E-1,-3.895678520E-1
4.166485018E0,8.093725890E-3,3.245126009E-1,-4.885250926E-1
4.168973038E0,-2.901524538E-3,3.965925872E-1,-5.630484819E-1
4.171461841E0,-2.367033064E-2,4.198047817E-1,-6.314633489E-1
4.173949809E0,-4.932591692E-2,3.599417508E-1,-6.827745438E-1
4.176436945E0,-6.154286116E-2,2.756448388E-1,-7.353073955E-1
4.178924966E0,-4.932591692E-2,2.438807636E-1,-7.890619636E-1
4.181413768E0,-1.679830020E-3,2.402156889E-1,-8.354863524E-1
4.183901736E0,7.162184268E-2,2.426590770E-1,-8.745805621E-1
4.186388872E0,1.559187621E-1,2.377723008E-1,-9.112313986E-1
4.188876945E0,2.389939874E-1,2.133384049E-1,-9.600991607E-1
4.191365695E0,3.171824515E-1,1.608055383E-1,-1.026070714E0
4.193853716E0,3.770454824E-1,8.017370105E-2,-1.104411840E0
4.196340799E0,4.185830951E-1,-1.878355257E-2,-1.187487125E0
4.198828872E0,4.430169761E-1,-1.091889441E-1,-1.270562291E0
4.201317674E0,4.491254389E-1,-1.653869003E-1,-1.347529054E0
4.203805643E0,4.393518865E-1,-1.849340051E-1,-1.409835458E0
4.206292726E0,4.173613787E-1,-1.983726472E-1,-1.463590026E0
4.208780799E0,3.855973184E-1,-2.130329758E-1,-1.508792758E0
4.211269601E0,3.501681983E-1,-2.264716178E-1,-1.541778445E0
4.213757570E0,3.147390485E-1,-2.154763639E-1,-1.563768983E0
4.216244705E0,2.732014358E-1,-1.995943487E-1,-1.589424610E0
4.218732726E0,2.377723008E-1,-1.947075576E-1,-1.617523551E0
4.221221528E0,2.035648525E-1,-1.947075576E-1,-1.637070656E0
4.223709497E0,1.730224788E-1,-1.861557066E-1,-1.648065925E0
4.226196632E0,1.388150454E-1,-1.922641695E-1,-1.645622492E0
4.228684653E0,1.033858955E-1,-2.032594234E-1,-1.623632073E0
4.231173455E0,7.040014863E-2,-2.166980654E-1,-1.567434072E0
4.233661424E0,2.886253223E-2,-2.447970361E-1,-1.499019146E0
4.236148559E0,1.985253533E-3,-2.570139766E-1,-1.411057115E0
4.238636632E0,-2.733541466E-2,-2.521272004E-1,-1.318208337E0
4.241125382E0,-4.810422286E-2,-2.081461996E-1,-1.220472813E0
4.243613403E0,-5.543438718E-2,-1.311794519E-1,-1.117850542E0
4.246100486E0,-1.511846948E-2,-7.375980914E-2,-1.001636744E0
4.248588559E0,5.451811850E-2,-1.878355257E-2,-8.758022785E-1
4.251077361E0,1.314848661E-1,3.619270027E-2,-7.560762167E-1
4.253565330E0,2.011214644E-1,7.895200700E-2,-6.449019909E-1
4.256052466E0,2.512109280E-1,1.192679256E-1,-5.557183027E-1
4.258540486E0,2.622061968E-1,1.302631795E-1,-4.848600030E-1
4.261029288E0,2.389939874E-1,1.278197914E-1,-4.201101959E-1
4.263517257E0,1.705790907E-1,8.017370105E-2,-3.614688516E-1
4.266004393E0,1.094943732E-1,-4.077405483E-2,-3.138227761E-1
4.268492413E0,8.994726092E-2,-1.580567211E-1,-2.796153426E-1
4.270981216E0,7.773031294E-2,-1.995943487E-1,-2.344126403E-1
4.273469184E0,6.429167092E-2,-2.142546773E-1,-1.892099380E-1
4.275956320E0,5.451811850E-2,-2.228065431E-1,-1.562241912E-1
4.278444341E0,5.573981255E-2,-2.362451702E-1,-1.403421611E-1
4.280933143E0,4.718795046E-2,-2.545706034E-1,-1.378987730E-1
4.283421111E0,4.963133857E-2,-2.887780368E-1,-1.537808031E-1
4.285908247E0,5.329642445E-2,-3.119902313E-1,-1.708845198E-1
4.288396320E0,5.940489471E-2,-3.376458287E-1,-1.879882365E-1
4.290885070E0,6.429167092E-2,-3.657447994E-1,-1.989834905E-1
4.293373091E0,7.650861889E-2,-3.779617548E-1,-2.050919682E-1
4.295860174E0,9.239064902E-2,-3.633013964E-1,-2.063136548E-1
4.298348247E0,1.009425074E-1,-3.254288733E-1,-2.050919682E-1
4.300836997E0,8.994726092E-2,-3.144336343E-1,-2.038702667E-1
4.303325018E0,6.795676053E-2,-3.376458287E-1,-2.136438340E-1
4.305812153E0,4.596625641E-2,-3.437542915E-1,-2.112004459E-1
4.308300174E0,2.153236605E-2,-3.413109183E-1,-2.087570578E-1
4.310788976E0,1.786728203E-2,-3.510844707E-1,-2.148655206E-1
4.313276945E0,1.542389300E-2,-3.523061574E-1,-2.295258641E-1
4.315764080E0,9.315420873E-3,-3.681881726E-1,-2.454078794E-1
4.318252101E0,1.420219894E-2,-4.025483429E-1,-2.600682080E-1
4.320740903E0,1.664558798E-2,-4.404208660E-1,-2.759502530E-1
4.323228872E0,2.886253223E-2,-4.685198367E-1,-2.771719396E-1
4.325716007E0,2.886253223E-2,-4.782933891E-1,-2.893888950E-1
4.328204028E0,2.275406010E-2,-4.721849263E-1,-3.113794029E-1
4.330692830E0,1.053711493E-2,-4.575245976E-1,-3.480302393E-1
4.333180799E0,-1.679830020E-3,-4.269822240E-1,-3.810159862E-1
4.335667934E0,-2.000524849E-2,-3.852919042E-1,-4.188885093E-1
4.338155955E0,-3.466558084E-2,-3.425326049E-1,-4.506525695E-1
4.340644757E0,-5.299099907E-2,-2.924431264E-1,-4.763081372E-1
4.343132778E0,-7.620319724E-2,-2.447970361E-1,-4.885250926E-1
4.345619861E0,-9.941539168E-2,-1.947075576E-1,-5.044071078E-1
4.348107934E0,-1.152974218E-1,-1.629435122E-1,-5.141806602E-1
4.350596684E0,-1.299577504E-1,-1.275143623E-1,-5.227325559E-1
4.353084705E0,-1.397313178E-1,-1.055238619E-1,-5.263976455E-1
4.355571841E0,-1.421747059E-1,-8.719844371E-2,-5.202891231E-1
4.358059861E0,-1.507265568E-1,-7.620319724E-2,-5.031854510E-1
4.360548663E0,-1.605001241E-1,-7.253811508E-2,-4.787515402E-1
4.363036632E0,-1.727170646E-1,-5.543438718E-2,-4.396573007E-1
4.365523768E0,-1.910424829E-1,-4.566083103E-2,-4.078932703E-1
4.368011788E0,-2.032594234E-1,-2.611372061E-2,-3.736858070E-1
4.370500591E0,-2.154763639E-1,-1.267508045E-2,-3.480302393E-1
4.372988559E0,-2.228065431E-1,-5.344913341E-3,-3.260397315E-1
4.375475695E0,-2.325800955E-1,6.872031838E-3,-3.138227761E-1
4.377963716E0,-2.362451702E-1,2.641914412E-2,-3.028275371E-1
4.380452518E0,-2.399102598E-1,3.741439432E-2,-2.979407609E-1
4.382940486E0,-2.447970361E-1,5.818320066E-2,-2.857238054E-1
4.385427622E0,-2.435753495E-1,8.506047726E-2,-2.625116110E-1
4.387915643E0,-2.423536479E-1,9.727742523E-2,-2.307475507E-1
4.390404445E0,-2.399102598E-1,1.046075895E-1,-1.806580722E-1
4.392892466E0,-2.374668717E-1,1.143811494E-1,-1.171299592E-1
4.395379549E0,-2.435753495E-1,1.070509851E-1,-7.314895838E-2
4.397867622E0,-2.460187376E-1,8.750387281E-2,-4.382828996E-2
4.400356372E0,-2.423536479E-1,7.284353673E-2,-2.183778957E-2
4.402844393E0,-2.423536479E-1,6.551336497E-2,-3.512371797E-3
4.405331528E0,-2.460187376E-1,4.718795046E-2,7.482878864E-3
4.407819549E0,-2.533488870E-1,4.718795046E-2,2.092151903E-2
4.410308351E0,-2.631224692E-1,6.184828654E-2,5.024218559E-2
4.412796320E0,-2.899997234E-1,6.795676053E-2,8.200624585E-2
4.415283455E0,-3.266505599E-1,6.306997687E-2,1.039967462E-1
4.417771476E0,-3.547495604E-1,7.284353673E-2,1.259872466E-1
4.420260278E0,-3.767400384E-1,9.361234307E-2,1.467560530E-1
4.422748247E0,-3.889569938E-1,1.143811494E-1,1.467560530E-1
4.425235382E0,-3.938437700E-1,1.388150454E-1,1.406475753E-1
4.427723403E0,-3.926220834E-1,1.571404636E-1,1.491994411E-1
4.430212205E0,-3.962871730E-1,1.693574041E-1,1.565296054E-1
4.432700174E0,-3.987305462E-1,1.852394342E-1,1.577513069E-1
4.435187309E0,-4.072824121E-1,2.121167034E-1,1.614163816E-1
4.437675382E0,-4.048390090E-1,2.316638231E-1,1.406475753E-1
4.440164132E0,-3.962871730E-1,2.475458533E-1,1.247655526E-1
4.442652153E0,-3.975088596E-1,2.585411072E-1,9.788827598E-2
4.445139288E0,-3.718532622E-1,2.573194206E-1,6.490252167E-2
4.447627309E0,-3.620797098E-1,2.389939874E-1,2.336490713E-2
4.450116111E0,-3.327590525E-1,2.096733153E-1,-2.672456764E-2
4.452604080E0,-3.046600819E-1,1.644706279E-1,-7.437065244E-2
4.455091216E0,-2.802261710E-1,1.204896197E-1,-1.244601309E-1
4.457579236E0,-2.509055138E-1,8.750387281E-2,-1.818797737E-1
4.460068038E0,-2.276933193E-1,3.863608837E-2,-2.539597452E-1
4.462556007E0,-2.069245130E-1,-1.679830020E-3,-3.333698809E-1
4.465043143E0,-1.971509457E-1,-3.710897267E-2,-4.152234197E-1
4.467531163E0,-1.788255423E-1,-5.054761097E-2,-4.873034060E-1
4.470019966E0,-1.751604527E-1,-5.299099907E-2,-5.593833923E-1
4.472507934E0,-1.605001241E-1,-5.054761097E-2,-6.229115129E-1
4.474995070E0,-1.568350345E-1,-4.199574888E-2,-6.937697530E-1
4.477483091E0,-1.568350345E-1,-1.756185852E-2,-7.609629631E-1
4.479971893E0,-1.568350345E-1,2.031067200E-2,-8.232693672E-1
4.482459861E0,-1.421747059E-1,4.474456236E-2,-8.990144730E-1
4.484946997E0,-1.152974218E-1,5.818320066E-2,-9.686510563E-1
4.487435070E0,-8.842013776E-2,3.619270027E-2,-1.021183848E0
4.489923820E0,-5.909947306E-2,7.635590737E-4,-1.061499834E0
4.492411841E0,-2.489202656E-2,-5.054761097E-2,-1.115407109E0
4.494898924E0,6.872031838E-3,-1.043021679E-1,-1.155722976E0
4.497386997E0,3.497100621E-2,-1.458397806E-1,-1.191152096E0
4.499875799E0,4.474456236E-2,-1.934858710E-1,-1.210699320E0
4.502363768E0,5.451811850E-2,-2.142546773E-1,-1.238798261E0
4.504850903E0,8.017370105E-2,-2.044811249E-1,-1.252236843E0
4.507338924E0,1.033858955E-1,-2.069245130E-1,-1.269340634E0
4.509827726E0,1.131594554E-1,-2.252499312E-1,-1.286444306E0
4.512315695E0,1.143811494E-1,-2.692309320E-1,-1.298661232E0
4.514802830E0,1.290414780E-1,-3.144336343E-1,-1.298661232E0
4.517290851E0,1.388150454E-1,-3.657447994E-1,-1.305991411E0
4.519779653E0,1.754658818E-1,-4.135435820E-1,-1.305991411E0
4.522267622E0,2.084516287E-1,-4.611896873E-1,-1.305991411E0
4.524754757E0,2.438807636E-1,-5.210527182E-1,-1.286444306E0
4.527242778E0,2.719797492E-1,-5.845808387E-1,-1.271783948E0
4.529731580E0,2.817533016E-1,-6.542174220E-1,-1.247350097E0
4.532219601E0,2.719797492E-1,-6.859814525E-1,-1.230246425E0
4.534706684E0,2.622061968E-1,-6.981984377E-1,-1.218029380E0
4.537194757E0,2.243336588E-1,-7.067502737E-1,-1.202147365E0
4.539683507E0,2.023431510E-1,-6.749862432E-1,-1.197260618E0
4.542171528E0,1.718007922E-1,-6.346703172E-1,-1.229024649E0
4.544658611E0,1.327065676E-1,-5.858024955E-1,-1.269340634E0
4.547146684E0,1.070509851E-1,-5.283828974E-1,-1.284000993E0
4.549635486E0,6.551336497E-2,-4.807367921E-1,-1.293774486E0
4.552123455E0,2.886253223E-2,-4.233171642E-1,-1.305991411E0
4.554610591E0,6.872031838E-3,-3.559712470E-1,-1.305991411E0
4.557098611E0,-1.389677543E-2,-2.863346636E-1,-1.303548098E0
4.559587413E0,-2.122694254E-2,-2.386885732E-1,-1.288887739E0
4.562075382E0,-3.100049868E-2,-2.215848416E-1,-1.282779217E0
4.564562518E0,-3.588727489E-2,-2.105895877E-1,-1.291331053E0
4.567050538E0,-6.032116711E-2,-2.557922900E-1,-1.325538516E0
4.569539341E0,-7.864658535E-2,-3.119902313E-1,-1.360967636E0
4.572027309E0,-8.964183182E-2,-3.889569938E-1,-1.400061965E0
4.574514445E0,-1.116323397E-1,-4.758500159E-1,-1.445264578E0
4.577002466E0,-1.165191159E-1,-5.442649126E-1,-1.463590026E0
4.579491268E0,-8.964183182E-2,-5.686988235E-1,-1.456259847E0
4.581979236E0,-7.742489129E-2,-6.273401380E-1,-1.461146593E0
4.584466372E0,-7.131642103E-2,-7.287407517E-1,-1.474585295E0
4.586954445E0,-5.665608495E-2,-7.800519466E-1,-1.486802220E0
4.589443195E0,-1.389677543E-2,-7.641699314E-1,-1.475806952E0
4.591931216E0,4.718795046E-2,-7.226322889E-1,-1.477028728E0
4.594418299E0,8.017370105E-2,-7.140804529E-1,-1.483137131E0
4.596906372E0,1.119377613E-1,-7.666133046E-1,-1.486802220E0
4.599395174E0,1.485885978E-1,-8.301414251E-1,-1.466033459E0
4.601883143E0,1.742441803E-1,-8.997780085E-1,-1.434269309E0
4.604370278E0,2.170034945E-1,-9.743013978E-1,-1.429382563E0
4.606858299E0,2.634278834E-1,-1.048824787E0,-1.419609070E0
4.609347101E0,3.355078697E-1,-1.129456639E0,-1.411057115E0
4.611835070E0,4.051444530E-1,-1.222305417E0,-1.403727055E0
4.614322205E0,4.625640810E-1,-1.366465330E0,-1.392731786E0
4.616810226E0,4.992149174E-1,-1.530172348E0,-1.387844920E0
4.619299028E0,5.700731874E-1,-1.664558768E0,-1.398840189E0
4.621786997E0,6.800256968E-1,-1.780619740E0,-1.396396875E0
4.624274132E0,7.643226385E-1,-1.924779654E0,-1.404948711E0
4.626762153E0,8.559496999E-1,-2.082378387E0,-1.397618532E0
4.629250955E0,9.072608948E-1,-2.222873211E0,-1.375627995E0
4.631738976E0,9.097042680E-1,-2.336490870E0,-1.348750710E0
4.634226059E0,9.035958052E-1,-2.403683901E0,-1.345085621E0
4.636714132E0,9.280297160E-1,-2.409792423E0,-1.338977218E0
4.639202934E0,9.304730892E-1,-2.411014080E0,-1.340198874E0
4.641690903E0,8.217422962E-1,-2.369476557E0,-1.348750710E0
4.644178038E0,6.849125028E-1,-2.181335449E0,-1.334090471E0
4.646666059E0,4.992149174E-1,-1.958987117E0,-1.301104665E0
4.649154861E0,3.159607351E-1,-1.814827204E0,-1.305991411E0
4.651642830E0,2.267770469E-1,-1.625464559E0,-1.310878277E0
4.654129966E0,1.473668963E-1,-1.440988660E0,-1.305991411E0
4.656617986E0,1.143811494E-1,-1.210088372E0,-1.294996142E0
4.659106788E0,4.718795046E-2,-1.035386086E0,-1.279114127E0
4.661594757E0,-6.887302548E-2,-9.547542930E-1,-1.241241574E0
4.664081893E0,-1.140757278E-1,-7.678350210E-1,-1.153279662E0
4.666569913E0,-1.055238619E-1,-5.992411375E-1,-1.049282908E0
4.669058716E0,-1.189625040E-1,-5.332696438E-1,-9.600991607E-1
4.671546684E0,-1.519482583E-1,-5.589252710E-1,-8.990144730E-1
4.674033820E0,-2.276933193E-1,-6.603258848E-1,-8.611419201E-1
4.676521841E0,-2.655658424E-1,-7.067502737E-1,-8.122741580E-1
4.679010643E0,-2.912214398E-1,-7.287407517E-1,-7.780666947E-1
4.681498663E0,-3.168770075E-1,-7.556180358E-1,-7.670714259E-1
4.683985747E0,-3.303156495E-1,-7.886037827E-1,-7.682931423E-1
4.686473820E0,-3.425326049E-1,-8.167027831E-1,-7.829535007E-1
4.688962570E0,-3.461976945E-1,-8.496885300E-1,-8.061656952E-1
4.691450591E0,-3.327590525E-1,-8.924478292E-1,-8.232693672E-1
4.693937726E0,-3.352024257E-1,-9.523108602E-1,-8.477032781E-1
4.696425747E0,-3.486410677E-1,-1.042716265E0,-8.880192041E-1
4.698914549E0,-3.804051280E-1,-1.186876178E0,-9.417737722E-1
4.701402518E0,-3.987305462E-1,-1.290720224E0,-9.943066239E-1
4.703889653E0,-3.999522328E-1,-1.350583315E0,-1.034622550E0
4.706377674E0,-3.975088596E-1,-1.375017166E0,-1.061499834E0
4.708866476E0,-3.926220834E-1,-1.379903913E0,-1.086086392E0
4.711354445E0,-3.950654566E-1,-1.403116107E0,-1.115407109E0
4.713841580E0,-4.256078303E-1,-1.420219898E0,-1.150836229E0
4.716329601E0,-4.500417113E-1,-1.355470061E0,-1.172826767E0
4.718818403E0,-4.756973088E-1,-1.296828747E0,-1.199704051E0
4.721306372E0,-4.915793240E-1,-1.252847672E0,-1.236354828E0
4.723793507E0,-4.989095032E-1,-1.197871447E0,-1.257123709E0
4.726281528E0,-4.940227270E-1,-1.134343386E0,-1.264453769E0
4.728770330E0,-4.793623984E-1,-1.063485026E0,-1.269340634E0
4.731258351E0,-4.598152637E-1,-9.816315174E-1,-1.265675545E0
4.733745434E0,-4.512633979E-1,-9.327637553E-1,-1.269340634E0
4.736233507E0,-4.414898455E-1,-8.997780085E-1,-1.275449038E0
4.738722309E0,-4.402681589E-1,-9.083298445E-1,-1.297439575E0
4.741210278E0,-4.537068009E-1,-9.510892034E-1,-1.321873426E0
4.743697413E0,-4.647020400E-1,-9.804098606E-1,-1.359745979E0
4.746185434E0,-4.647020400E-1,-9.645278454E-1,-1.398840189E0
4.748674236E0,-4.695888162E-1,-9.364288449E-1,-1.451373100E0
4.751162205E0,-4.744756222E-1,-8.985562921E-1,-1.497797489E0
4.753649341E0,-4.915793240E-1,-8.961129189E-1,-1.547886968E0
4.756137361E0,-5.196782947E-1,-9.498674870E-1,-1.617523551E0
4.758626163E0,-5.416688323E-1,-9.877400398E-1,-1.693268657E0
4.761114132E0,-5.612159371E-1,-9.938485026E-1,-1.789782524E0
4.763601268E0,-5.868715048E-1,-9.938485026E-1,-1.875301123E0
4.766089288E0,-6.271874309E-1,-1.031720996E0,-1.959598064E0
4.768578091E0,-6.565080881E-1,-1.063485026E0,-2.047559977E0
4.771066111E0,-6.784985662E-1,-1.089140654E0,-2.125748396E0
4.773553195E0,-6.968240142E-1,-1.152668834E0,-2.191720009E0
4.776041268E0,-7.127060294E-1,-1.258956194E0,-2.252804756E0
4.778530018E0,-7.078192830E-1,-1.333479524E0,-2.307780981E0
4.781018038E0,-6.821636558E-1,-1.353026628E0,-2.348096848E0
4.783505122E0,-6.699467301E-1,-1.367686987E0,-2.388412714E0
4.785993195E0,-6.430694461E-1,-1.400672793E0,-2.445832491E0
4.788481997E0,-6.174138784E-1,-1.438545346E0,-2.528907537E0
4.790969966E0,-5.917583108E-1,-1.480082870E0,-2.609539509E0
4.793457101E0,-5.587725043E-1,-1.525285602E0,-2.675510883E0
4.795945122E0,-5.318952799E-1,-1.593700528E0,-2.726822138E0
4.798433924E0,-5.050179958E-1,-1.657228589E0,-2.739039183E0
4.800921893E0,-4.842491746E-1,-1.712204814E0,-2.737817526E0
4.803409028E0,-4.671454430E-1,-1.748855710E0,-2.748812675E0
4.805897049E0,-4.573718905E-1,-1.753742456E0,-2.761029720E0
4.808385851E0,-4.744756222E-1,-1.757407546E0,-2.763473034E0
4.810873820E0,-5.074613690E-1,-1.764737725E0,-2.759807825E0
4.813360955E0,-5.575508475E-1,-1.764737725E0,-2.753699541E0
4.815848976E0,-6.259657145E-1,-1.770846248E0,-2.753699541E0
4.818337778E0,-6.846070886E-1,-1.768402815E0,-2.756142855E0
4.820825747E0,-7.175928354E-1,-1.742747188E0,-2.745147467E0
4.823312882E0,-7.261446714E-1,-1.709761500E0,-2.709718466E0
4.825800955E0,-7.200362086E-1,-1.657228589E0,-2.633973360E0
4.828289705E0,-6.882721782E-1,-1.586370349E0,-2.538681269E0
4.830777726E0,-6.406260729E-1,-1.487413049E0,-2.433615446E0
4.833264809E0,-5.673243999E-1,-1.367686987E0,-2.289455414E0
4.835752882E0,-4.720322192E-1,-1.218640327E0,-2.098871231E0
4.838241684E0,-3.694098890E-1,-9.938485026E-1,-1.863084197E0
4.840729653E0,-2.704526186E-1,-7.531746626E-1,-1.650509238E0
4.843216788E0,-1.617218107E-1,-5.760289431E-1,-1.488023877E0
4.845704809E0,-6.642963737E-2,-5.027272701E-1,-1.356080890E0
4.848193611E0,1.786728203E-2,-5.247178078E-1,-1.248571754E0
4.850681580E0,8.017370105E-2,-6.346703172E-1,-1.159388065E0
4.853168716E0,1.156028435E-1,-7.702783942E-1,-1.066386580E0
4.855656736E0,1.278197914E-1,-9.071081877E-1,-9.625425935E-1
4.858145538E0,1.131594554E-1,-1.037829518E0,-8.183826208E-1
4.860633507E0,8.383878320E-2,-1.103801012E0,-6.119162440E-1
4.863120643E0,5.696150661E-2,-1.053711534E0,-4.995203316E-1
4.865608663E0,4.963133857E-2,-9.400939345E-1,-4.213318825E-1
4.868097466E0,6.184828654E-2,-8.105943203E-1,-3.235963285E-1
4.870585434E0,7.528692484E-2,-6.957550049E-1,-2.124221325E-1
4.873072570E0,1.058292910E-1,-5.894675851E-1,-1.195733473E-1
4.875560643E0,1.302631795E-1,-5.100574493E-1,-1.068982761E-3
4.878049393E0,1.351499557E-1,-4.538595080E-1,1.162136942E-1
4.880537413E0,1.253764033E-1,-4.196520746E-1,2.115058601E-1
4.883024497E0,1.156028435E-1,-4.037700295E-1,2.896943092E-1
4.885512570E0,1.082726792E-1,-3.962871730E-1,3.605526090E-1
4.888001372E0,1.058292910E-1,-3.987305462E-1,4.179722369E-1
4.890489341E0,1.119377613E-1,-4.013266563E-1,4.753918648E-1
4.892976476E0,1.217113137E-1,-4.013266563E-1,5.254813433E-1
4.895464497E0,1.363716573E-1,-3.950654566E-1,5.694623590E-1
4.897953299E0,1.620272398E-1,-3.865135908E-1,6.000047326E-1
4.900441268E0,1.974563748E-1,-3.657447994E-1,6.207735538E-1
4.902928403E0,2.585411072E-1,-3.474193811E-1,6.562026739E-1
4.905416424E0,3.623851240E-1,-3.278722763E-1,6.916317940E-1
4.907905226E0,4.821111858E-1,-3.180987239E-1,7.111788988E-1
4.910393195E0,5.602996349E-1,-3.107685447E-1,7.172874212E-1
4.912880330E0,5.383091569E-1,-2.924431264E-1,7.356128097E-1
4.915368351E0,4.356867969E-1,-2.582356930E-1,7.905890942E-1
4.917857153E0,3.196258247E-1,-1.885990947E-1,8.687775135E-1
4.920345122E0,2.389939874E-1,-9.208522737E-2,9.408574700E-1
4.922832257E0,2.243336588E-1,1.786728203E-2,9.921686649E-1
4.925320330E0,2.695363462E-1,1.119377613E-1,1.032484531E0
4.927809080E0,3.538332880E-1,1.925695986E-1,1.059361815E0
4.930297101E0,4.479037523E-1,2.719797492E-1,1.063026905E0
4.932784184E0,5.431959033E-1,3.196258247E-1,1.083795786E0
4.935272257E0,6.152759194E-1,3.574983478E-1,1.118003249E0
4.937761059E0,6.531484127E-1,3.807105422E-1,1.137550354E0
4.940249028E0,6.507050395E-1,3.807105422E-1,1.069135427E0
4.942736163E0,6.128324866E-1,3.465031087E-1,9.115368128E-1
4.945224184E0,5.627430081E-1,2.829749882E-1,7.124006152E-1
4.947712986E0,5.028799772E-1,1.876828223E-1,4.851654470E-1
4.950200955E0,4.405735731E-1,6.184828654E-2,2.078407854E-1
4.952688091E0,3.807105422E-1,-7.131642103E-2,-8.047912270E-2
4.955176111E0,3.379512429E-1,-1.568350345E-1,-2.612899244E-1
4.957664913E0,3.000787199E-1,-1.666085869E-1,-3.455868363E-1
4.960152882E0,2.573194206E-1,-1.409530044E-1,-3.578037918E-1
4.962640018E0,2.157817930E-1,-1.091889441E-1,-3.333698809E-1
4.965128038E0,1.803526580E-1,-9.330692142E-2,-2.869454920E-1
4.967616841E0,1.498102844E-1,-9.330692142E-2,-2.478512824E-1
4.970104809E0,1.278197914E-1,-1.116323397E-1,-2.221956849E-1
4.972591945E0,1.107160673E-1,-1.507265568E-1,-2.038702667E-1
4.975079966E0,1.094943732E-1,-2.044811249E-1,-2.185306102E-1
4.977568768E0,1.192679256E-1,-2.704526186E-1,-2.490729690E-1
4.980056788E0,1.265980899E-1,-3.278722763E-1,-2.735068500E-1
4.982543872E0,1.314848661E-1,-3.779617548E-1,-2.783936262E-1
4.985031945E0,1.241547018E-1,-4.233171642E-1,-2.783936262E-1
4.987520695E0,1.119377613E-1,-4.636330605E-1,-2.686200738E-1
4.990008716E0,9.972081333E-2,-4.868452549E-1,-2.796153426E-1
4.992495851E0,1.070509851E-1,-4.782933891E-1,-2.942756712E-1
4.994983872E0,9.605573118E-2,-4.990622103E-1,-2.564031482E-1
4.997472674E0,8.628217876E-2,-5.393781066E-1,-2.270824611E-1
4.999960643E0,6.062658876E-2,-5.870242119E-1,-2.099787444E-1
5.002447778E0,3.130592033E-2,-6.029062271E-1,-1.916533262E-1
5.004935799E0,5.650337320E-3,-5.906893015E-1,-1.721062213E-1
5.007424601E0,-1.389677543E-2,-5.601469278E-1,-1.330119967E-1
5.009912570E0,-2.611372061E-2,-5.381564498E-1,-8.292251825E-2
5.012399705E0,-3.833066672E-2,-5.369347334E-1,-5.848862603E-2
5.014887726E0,-4.199574888E-2,-5.467082858E-1,-5.726693198E-2
5.017376528E0,-4.199574888E-2,-5.515950918E-1,-4.993676394E-2
5.019864497E0,-3.955236077E-2,-5.650337338E-1,-3.283303976E-2
5.022351632E0,-3.710897267E-2,-5.955760479E-1,-2.061609551E-2
5.024839653E0,-2.367033064E-2,-6.297835112E-1,-1.817270555E-2
5.027328455E0,6.872031838E-3,-6.139014959E-1,-2.672456764E-2
5.029816476E0,2.153236605E-2,-5.845808387E-1,-3.405473381E-2
5.032303559E0,2.764083818E-2,-5.613686442E-1,-4.260659590E-2
5.034791632E0,2.397575416E-2,-5.344913602E-1,-4.749337584E-2
5.037280382E0,5.650337320E-3,-5.234960914E-1,-5.360184610E-2
5.039768403E0,-1.023169141E-2,-5.418215394E-1,-5.482354015E-2
5.042255538E0,-2.611372061E-2,-5.589252710E-1,-5.238015205E-2
5.044743559E0,-2.855710872E-2,-5.674771070E-1,-4.871506989E-2
5.047232361E0,-3.222219273E-2,-5.809157491E-1,-4.993676394E-2
5.049720330E0,-3.222219273E-2,-5.845808387E-1,-5.482354015E-2
5.052207466E0,-2.855710872E-2,-5.858024955E-1,-6.215370819E-2
5.054695486E0,-2.489202656E-2,-5.894675851E-1,-6.581879407E-2
5.057184288E0,-1.878355257E-2,-5.992411375E-1,-7.070557028E-2
5.059672257E0,-1.267508045E-2,-6.053496599E-1,-7.192726433E-2
5.062159393E0,-6.566607859E-3,-6.114581227E-1,-7.314895838E-2
5.064647413E0,-1.679830020E-3,-6.163448691E-1,-7.925742865E-2
5.067136216E0,7.635590737E-4,-6.151232123E-1,-8.536590636E-2
5.069624184E0,6.872031838E-3,-6.090146899E-1,-8.903098851E-2
5.072111320E0,1.420219894E-2,-5.967977643E-1,-9.513945878E-2
5.074599341E0,2.031067200E-2,-5.784723759E-1,-1.036913246E-1
5.077088143E0,2.886253223E-2,-5.662553906E-1,-1.110214889E-1
5.079576111E0,3.985778242E-2,-5.552601814E-1,-1.085781008E-1
5.082063247E0,5.451811850E-2,-5.405998230E-1,-1.061347127E-1
5.084551320E0,6.429167092E-2,-5.210527182E-1,-1.073564067E-1
5.087040070E0,6.673506647E-2,-5.137225389E-1,-1.073564067E-1
5.089528091E0,8.506047726E-2,-5.137225389E-1,-1.061347127E-1
5.092015226E0,1.107160673E-1,-5.186093450E-1,-1.049130186E-1
5.094503247E0,1.412584335E-1,-5.357130170E-1,-1.207950488E-1
5.096992049E0,1.681357026E-1,-6.444438696E-1,-1.391204596E-1
5.099480018E0,1.901262105E-1,-7.140804529E-1,-1.672194302E-1
5.101967153E0,1.779092699E-1,-6.591041684E-1,-1.928750277E-1
5.104455174E0,1.534753740E-1,-5.784723759E-1,-1.574458778E-1
5.106943976E0,1.107160673E-1,-5.222744346E-1,-8.658760041E-2
5.109431945E0,3.619270027E-2,-5.027272701E-1,-3.771981969E-2
