"Time (s)","Acceleration x (m/s^2)","Acceleration y (m/s^2)","Acceleration z (m/s^2)"
2.076751900E-2,-2.646743774E0,1.953689575E0,8.622863770E0
2.574188400E-2,-2.608154297E0,1.942062378E0,8.642379761E0
3.071625000E-2,-1.105560303E0,1.490539551E0,9.397186279E0
3.569061500E-2,-9.552459717E-1,1.468872070E0,9.387023926E0
4.066498000E-2,-8.111572266E-1,1.510330200E0,9.494003296E0
4.563934500E-2,-7.003479004E-1,1.533767700E0,9.657165527E0
5.061371100E-2,-6.497344971E-1,1.445098877E0,9.829254150E0
5.558807600E-2,-6.880950928E-1,1.325027466E0,1.000932312E1
6.056244100E-2,-8.061065674E-1,1.208175659E0,1.021435547E1
6.553680600E-2,-9.501800537E-1,1.141540527E0,1.040487671E1
7.051117200E-2,-1.168579102E0,1.067398071E0,1.055511475E1
7.548553700E-2,-1.511688232E0,1.002166748E0,1.062265015E1
8.045990200E-2,-1.820388794E0,9.524536133E-1,1.060180664E1
8.543426700E-2,-2.017883301E0,9.461059570E-1,1.046520996E1
9.040863200E-2,-2.070587158E0,9.906463623E-1,1.026669312E1
9.538299800E-2,-1.983764648E0,1.029159546E0,1.008283997E1
1.003573630E-1,-1.775360107E0,1.090728760E0,9.899322510E0
1.053317280E-1,-1.538635254E0,1.128738403E0,9.719818115E0
1.103060930E-1,-1.302124023E0,1.103515625E0,9.590606689E0
1.152804590E-1,-1.085952759E0,1.064941406E0,9.457351685E0
1.202548240E-1,-9.765625000E-1,1.006118774E0,9.263473511E0
1.252291890E-1,-1.161041260E0,9.994354248E-1,8.641891479E0
1.302035540E-1,-1.175628662E0,9.950256348E-1,8.062194824E0
1.351779200E-1,-9.986877441E-1,9.769134521E-1,8.053024292E0
1.401522850E-1,-8.920898438E-1,9.810333252E-1,8.118606567E0
1.451266500E-1,-7.848358154E-1,9.752044678E-1,8.132904053E0
1.501010150E-1,-6.679840088E-1,1.036865234E0,8.227294922E0
1.550753810E-1,-4.854278564E-1,1.120925903E0,8.382385254E0
1.600497460E-1,-3.311309814E-1,1.179504395E0,8.513565063E0
1.650241110E-1,-1.822967529E-1,1.238296509E0,8.585784912E0
1.699984760E-1,-5.409240723E-2,1.286453247E0,8.544403076E0
1.749728410E-1,2.136535645E-1,1.233535767E0,8.317962646E0
1.799472070E-1,1.041534424E0,8.383941650E-1,7.577880859E0
1.849215720E-1,1.022476196E0,8.769226074E-1,8.112579346E0
1.898959370E-1,9.932403564E-1,9.492340088E-1,8.512878418E0
1.948703020E-1,1.082809448E0,8.240509033E-1,8.555297852E0
1.998446680E-1,1.072769165E0,5.572357178E-1,8.826751709E0
2.048190330E-1,1.043701172E0,2.783813477E-1,9.202178955E0
2.097933980E-1,1.263122559E0,5.935668945E-3,9.666137695E0
2.147677630E-1,1.546707153E0,-3.642730713E-1,1.001229858E1
2.197421290E-1,1.406433105E0,-5.370788574E-1,1.018261719E1
2.247164940E-1,1.352264404E0,-8.161468506E-1,1.052711487E1
2.296908590E-1,1.295257568E0,-9.618682861E-1,1.101148987E1
2.346652240E-1,1.240509033E0,-1.074005127E0,1.149833679E1
2.396395900E-1,1.222549438E0,-1.082733154E0,1.181385803E1
2.446139550E-1,1.257919312E0,-9.898223877E-1,1.204275513E1
2.495883200E-1,1.330993652E0,-8.261871338E-1,1.217431641E1
2.545626850E-1,1.504196167E0,-6.736907959E-1,1.214018250E1
2.595370500E-1,1.747634888E0,-6.237487793E-1,1.196353149E1
2.645114160E-1,2.040359497E0,-6.072692871E-1,1.173005676E1
2.694857810E-1,2.312454224E0,-5.744934082E-1,1.150289917E1
2.744601460E-1,2.552597046E0,-4.925689697E-1,1.120964050E1
2.794345110E-1,2.692764282E0,-4.579772949E-1,1.084770203E1
2.844088770E-1,2.775161743E0,-5.222625732E-1,1.050254822E1
2.893832420E-1,2.800186157E0,-5.528717041E-1,1.018215942E1
2.943576070E-1,2.751831055E0,-5.419311523E-1,9.953994751E0
2.993319720E-1,2.652847290E0,-5.510406494E-1,9.828155518E0
3.043063380E-1,2.549011230E0,-6.537017822E-1,9.819442749E0
3.092807030E-1,2.442779541E0,-8.543548584E-1,9.888580322E0
3.142550680E-1,2.291580200E0,-1.126113892E0,9.956100464E0
3.192294330E-1,2.072479248E0,-1.329605103E0,1.000314331E1
3.242037990E-1,1.844482422E0,-1.425430298E0,1.003482056E1
3.291781640E-1,1.724563599E0,-1.450424194E0,1.004725647E1
3.341525290E-1,1.759475708E0,-1.395996094E0,1.007427979E1
3.391268940E-1,1.983108521E0,-1.233047485E0,1.004627991E1
3.441012590E-1,2.340576172E0,-9.893798828E-1,9.927124023E0
3.490756250E-1,2.745864868E0,-7.168579102E-1,9.717956543E0
3.540499900E-1,3.025802612E0,-4.747314453E-1,9.629592896E0
3.590243550E-1,3.289749146E0,-2.820739746E-1,9.664291382E0
3.639987200E-1,3.425079346E0,-2.257537842E-1,9.820495605E0
3.689730860E-1,3.459106445E0,-3.403778076E-1,1.001815796E1
3.739474510E-1,3.401504517E0,-5.987243652E-1,1.013050842E1
3.789218160E-1,3.275100708E0,-9.066925049E-1,1.009527588E1
3.838961810E-1,3.063369751E0,-1.119400024E0,9.907318115E0
3.888705470E-1,2.799713135E0,-1.176086426E0,9.733062744E0
3.938449120E-1,2.641250610E0,-9.606628418E-1,9.732849121E0
3.988192770E-1,2.591140747E0,-5.372314453E-1,9.812103271E0
4.037936420E-1,2.580184937E0,-3.331451416E-1,9.819503784E0
4.087680070E-1,2.529174805E0,-4.073638916E-1,9.729278564E0
4.137423730E-1,2.564544678E0,-5.941162109E-1,9.599914551E0
4.187167380E-1,2.059417725E0,-9.029235840E-1,9.331176758E0
4.236911030E-1,-1.022308350E0,-1.687561035E0,8.074340820E0
4.286654680E-1,-2.331771851E0,-2.142868042E0,7.420593262E0
4.336398340E-1,-2.606277466E0,-2.195526123E0,6.836502075E0
4.386141990E-1,-2.174514771E0,-1.886108398E0,5.770446777E0
4.435885640E-1,-1.753067017E0,-1.459533691E0,5.494262695E0
4.485629290E-1,-1.363342285E0,-1.026428223E0,5.742050171E0
4.535372950E-1,-7.356109619E-1,-7.700347900E-1,6.182739258E0
4.585116600E-1,4.082641602E-1,-8.582763672E-1,6.775466919E0
4.634860250E-1,1.941513062E0,-1.172073364E0,7.560745239E0
4.684603900E-1,3.449844360E0,-1.624465942E0,8.561035156E0
4.734347560E-1,4.838943481E0,-2.139434814E0,9.596572876E0
4.784091210E-1,5.998382568E0,-2.388046265E0,1.045286560E1
4.833834860E-1,7.062103271E0,-2.325897217E0,1.101325989E1
4.883578510E-1,7.693176270E0,-2.061782837E0,1.114871216E1
4.933322160E-1,7.718948364E0,-1.783905029E0,1.089247131E1
4.983065820E-1,7.342742920E0,-1.600830078E0,1.034422302E1
5.032809470E-1,6.622970581E0,-1.298217773E0,9.630935669E0
5.082553120E-1,5.706771851E0,-9.996337891E-1,8.951278687E0
5.132296770E-1,4.767562866E0,-8.638000488E-1,8.387481689E0
5.182040430E-1,3.948410034E0,-8.451995850E-1,7.998321533E0
5.231784080E-1,3.304595947E0,-1.007949829E0,7.947509766E0
5.281527730E-1,2.834793091E0,-1.192565918E0,8.112075806E0
5.331271380E-1,2.594436646E0,-1.293441772E0,8.259765625E0
5.381015040E-1,2.583282471E0,-1.358932495E0,8.511642456E0
5.430758690E-1,2.742523193E0,-1.427871704E0,8.721313477E0
5.480502340E-1,2.897323608E0,-1.408096313E0,8.697189331E0
5.530245990E-1,2.996566772E0,-1.226486206E0,8.568786621E0
5.579989650E-1,3.288543701E0,-8.452758789E-1,8.249481201E0
5.629733300E-1,3.616302490E0,-3.701171875E-1,7.683685303E0
5.679476950E-1,3.903488159E0,-1.290893555E-2,7.100570679E0
5.729220600E-1,4.167816162E0,3.211517334E-1,6.262695312E0
5.778964250E-1,4.562103271E0,6.297607422E-1,5.485412598E0
5.828707910E-1,5.316741943E0,9.643859863E-1,4.852783203E0
5.878451560E-1,6.180374146E0,1.307632446E0,3.798934937E0
5.928195210E-1,6.046508789E0,1.506454468E0,2.917861938E0
5.977938860E-1,5.300903320E0,1.509613037E0,2.868179321E0
6.027682520E-1,5.093765259E0,1.456970215E0,2.251724243E0
6.077426170E-1,5.300811768E0,1.599670410E0,1.533569336E0
6.127169820E-1,5.880065918E0,1.924575806E0,9.106597900E-1
6.176913470E-1,7.089828491E0,2.712219238E0,1.103668213E-1
6.226657130E-1,7.576324463E0,2.512741089E0,1.236236572E0
6.276400780E-1,7.512008667E0,2.055709839E0,2.663269043E0
6.326144430E-1,7.175659180E0,1.753128052E0,4.043212891E0
6.375888080E-1,7.296600342E0,1.594421387E0,5.117111206E0
6.425631740E-1,7.371398926E0,1.399337769E0,5.530548096E0
6.475375390E-1,7.384323120E0,1.178268433E0,5.630630493E0
6.525119040E-1,7.573455811E0,1.001739502E0,5.658355713E0
6.574862690E-1,7.898315430E0,8.691406250E-1,5.597595215E0
6.624606340E-1,8.098999023E0,8.337097168E-1,5.328903198E0
6.674350000E-1,8.203338623E0,8.654632568E-1,4.847549438E0
6.724093650E-1,8.476379395E0,9.669342041E-1,4.236114502E0
6.773837300E-1,9.093246460E0,1.257232666E0,3.560256958E0
6.823580950E-1,9.839111328E0,1.710418701E0,2.779678345E0
6.873324610E-1,1.045787048E1,2.192016602E0,2.034088135E0
6.923068260E-1,1.086987305E1,2.503372192E0,1.413925171E0
6.972811910E-1,1.115470886E1,2.621002197E0,1.004470825E0
7.022555560E-1,1.127577209E1,2.687103271E0,7.920227051E-1
7.072299220E-1,1.093989563E1,2.813934326E0,1.047378540E0
7.122042870E-1,1.078588867E1,2.793777466E0,1.548843384E0
7.171786520E-1,1.098838806E1,2.562606812E0,1.418792725E0
7.221530170E-1,1.119305420E1,2.186218262E0,9.847869873E-1
7.271273820E-1,1.137387085E1,1.832595825E0,6.199645996E-1
7.321017480E-1,1.137330627E1,1.614974976E0,3.488311768E-1
7.370761130E-1,1.127514648E1,1.448287964E0,4.496765137E-2
7.420504780E-1,1.118663025E1,1.239227295E0,-2.723693848E-1
7.470248430E-1,1.119599915E1,9.055175781E-1,-5.484771729E-1
7.519992090E-1,1.133757019E1,5.577697754E-1,-6.434936523E-1
7.569735740E-1,1.155290222E1,2.460784912E-1,-6.730804443E-1
7.619479390E-1,1.189015198E1,3.057861328E-2,-7.220611572E-1
7.669223040E-1,1.240226746E1,-1.912994385E-1,-7.895202637E-1
7.718966700E-1,1.264028931E1,-2.302398682E-1,-1.021484375E0
7.768710350E-1,1.244477844E1,-3.170928955E-1,-1.190093994E0
7.818454000E-1,1.190814209E1,-5.608673096E-1,-1.250930786E0
7.868197650E-1,1.118786621E1,-9.445190430E-1,-1.086975098E0
7.917941310E-1,1.025320435E1,-1.430999756E0,-7.281646729E-1
7.967684960E-1,9.170700073E0,-1.915756226E0,-2.962646484E-1
8.017428610E-1,8.069885254E0,-2.288345337E0,-6.642150879E-2
8.067172260E-1,7.212463379E0,-2.523864746E0,-1.237487793E-1
8.116915910E-1,6.649215698E0,-2.727722168E0,-5.541381836E-1
8.166659570E-1,6.492034912E0,-2.806350708E0,-1.478088379E0
8.216403220E-1,6.731643677E0,-2.696319580E0,-2.676269531E0
8.266146870E-1,7.117767334E0,-2.511016846E0,-3.929138184E0
8.315890520E-1,7.403671265E0,-2.305358887E0,-4.964385986E0
8.365634180E-1,7.635742188E0,-2.085433960E0,-5.855911255E0
8.415377830E-1,7.843338013E0,-1.940551758E0,-6.596893311E0
8.465121480E-1,8.008926392E0,-1.945693970E0,-7.138092041E0
8.514865130E-1,8.060852051E0,-2.048065186E0,-7.453689575E0
8.564608790E-1,7.967758179E0,-2.169708252E0,-7.583724976E0
8.614352440E-1,7.778091431E0,-2.341659546E0,-7.479690552E0
8.664096090E-1,7.475601196E0,-2.648239136E0,-7.159561157E0
8.713839740E-1,7.104049683E0,-2.993270874E0,-6.688385010E0
8.763583400E-1,6.754013062E0,-3.282943726E0,-6.130630493E0
8.813327050E-1,6.497268677E0,-3.484085083E0,-5.518371582E0
8.863070700E-1,6.294906616E0,-3.647781372E0,-4.897430420E0
8.912814350E-1,6.142868042E0,-3.855987549E0,-4.346481323E0
8.962558000E-1,6.614288330E0,-4.236450195E0,-3.319458008E0
9.012301660E-1,7.260971069E0,-4.274475098E0,-2.310211182E0
9.062045310E-1,7.393508911E0,-4.034500122E0,-2.256698608E0
9.111788960E-1,7.246749878E0,-3.877670288E0,-2.545822144E0
9.161532610E-1,7.117401123E0,-3.931762695E0,-2.633422852E0
9.211276270E-1,6.920730591E0,-4.280838013E0,-2.694656372E0
9.261019920E-1,6.691253662E0,-4.580612183E0,-2.820007324E0
9.310763570E-1,6.559906006E0,-4.635726929E0,-3.035354614E0
9.360507220E-1,6.651382446E0,-4.542694092E0,-3.579483032E0
9.410250880E-1,7.172927856E0,-4.377563477E0,-4.545516968E0
9.459994530E-1,7.727233887E0,-4.220611572E0,-5.612075806E0
9.509738180E-1,8.238433838E0,-3.897659302E0,-6.486755371E0
9.559481830E-1,7.940383911E0,-3.697799683E0,-6.772872925E0
9.609225490E-1,7.549133301E0,-3.686248779E0,-6.527923584E0
9.658969140E-1,7.472503662E0,-3.827362061E0,-6.392089844E0
9.708712790E-1,7.255325317E0,-4.164093018E0,-5.990493774E0
9.758456440E-1,7.481689453E0,-4.425949097E0,-5.918853760E0
9.808200090E-1,7.868041992E0,-4.618286133E0,-6.029174805E0
9.857943750E-1,8.238998413E0,-4.695343018E0,-6.144348145E0
9.907687400E-1,8.081802368E0,-4.785629272E0,-6.131439209E0
9.957431050E-1,7.778839111E0,-4.905838013E0,-6.099975586E0
1.000717470E0,7.718887329E0,-5.031875610E0,-6.000457764E0
1.005691836E0,7.723541260E0,-5.173965454E0,-5.800704956E0
1.010666201E0,7.360763550E0,-5.305435181E0,-5.212310791E0
1.015640566E0,6.960205078E0,-5.508132935E0,-5.214538574E0
1.020614931E0,6.712631226E0,-5.610961914E0,-5.055084229E0
1.025589297E0,6.474472046E0,-5.676925659E0,-4.579071045E0
1.030563662E0,6.367935181E0,-5.712097168E0,-4.153442383E0
1.035538027E0,6.317520142E0,-5.670578003E0,-3.719619751E0
1.040512392E0,6.213638306E0,-5.577255249E0,-3.415512085E0
1.045486757E0,5.967544556E0,-5.513031006E0,-3.105743408E0
1.050461123E0,5.920440674E0,-5.459060669E0,-2.989013672E0
1.055435488E0,6.163360596E0,-5.422775269E0,-3.062332153E0
1.060409853E0,6.238891602E0,-5.523406982E0,-2.969924927E0
1.065384218E0,6.320785522E0,-5.827224731E0,-3.349578857E0
1.070358584E0,6.439468384E0,-6.127441406E0,-3.928115845E0
1.075332949E0,6.316040039E0,-6.255844116E0,-4.056716919E0
1.080307314E0,5.934646606E0,-6.156051636E0,-3.453521729E0
1.085281679E0,5.719711304E0,-5.730300903E0,-2.198608398E0
1.090256045E0,5.643280029E0,-5.294815063E0,-9.112243652E-1
1.095230410E0,5.622222900E0,-5.002304077E0,-8.657226562E-1
1.100204775E0,6.035964966E0,-5.510269165E0,-2.282470703E0
1.105179140E0,7.099838257E0,-6.811279297E0,-4.374221802E0
1.110153506E0,8.664810181E0,-7.402420044E0,-7.044570923E0
1.115127871E0,8.978210449E0,-7.768844604E0,-9.188385010E0
1.120102236E0,7.847640991E0,-6.168716431E0,-8.278762817E0
1.125076601E0,6.862655640E0,-4.373733521E0,-7.440170288E0
1.130050966E0,6.621932983E0,-4.156951904E0,-7.360870361E0
1.135025332E0,7.015167236E0,-4.756332397E0,-7.507751465E0
1.139999697E0,7.308700562E0,-5.063919067E0,-6.747406006E0
1.144974062E0,7.226669312E0,-4.929077148E0,-5.861373901E0
1.149948427E0,6.629699707E0,-5.028884888E0,-4.881195068E0
1.154922793E0,6.433975220E0,-4.933944702E0,-4.581314087E0
1.159897158E0,6.040542603E0,-5.114532471E0,-4.682373047E0
1.164871523E0,5.692367554E0,-5.334274292E0,-4.884841919E0
1.169845888E0,5.292785645E0,-5.409759521E0,-5.249176025E0
1.174820254E0,4.737411499E0,-5.481002808E0,-5.804611206E0
1.179794619E0,4.047164917E0,-5.579238892E0,-6.686996460E0
1.184768984E0,3.369873047E0,-5.741531372E0,-7.876037598E0
1.189743349E0,2.591415405E0,-5.922592163E0,-9.032775879E0
1.194717715E0,1.631362915E0,-6.190917969E0,-1.010751343E1
1.199692080E0,6.134033203E-1,-6.522369385E0,-1.106491089E1
1.204666445E0,-1.758270264E-1,-6.873870850E0,-1.167309570E1
1.209640810E0,-5.422668457E-1,-7.132537842E0,-1.178128052E1
1.214615175E0,-2.193908691E-1,-7.327575684E0,-1.051049805E1
1.219589541E0,7.536010742E-1,-7.391143799E0,-7.607437134E0
1.224563906E0,1.379425049E0,-7.119583130E0,-6.068450928E0
1.229538271E0,2.180755615E0,-6.847396851E0,-5.269241333E0
1.234512636E0,3.174270630E0,-6.673217773E0,-4.476928711E0
1.239487002E0,4.227508545E0,-6.726470947E0,-3.561874390E0
1.244461367E0,5.323348999E0,-6.860061646E0,-2.814010620E0
1.249435732E0,5.948135376E0,-6.958663940E0,-2.331878662E0
1.254410097E0,6.338256836E0,-7.006439209E0,-1.710235596E0
1.259384463E0,6.311767578E0,-7.028366089E0,-8.945312500E-1
1.264358828E0,5.975051880E0,-6.968566895E0,-5.873565674E-1
1.269333193E0,5.809783936E0,-6.829788208E0,-9.007110596E-1
1.274307558E0,6.197006226E0,-6.694778442E0,-1.635299683E0
1.279281924E0,5.753005981E0,-6.525268555E0,-2.406768799E0
1.284256289E0,5.111602783E0,-6.286346436E0,-3.214874268E0
1.289230654E0,4.632247925E0,-6.102111816E0,-3.614669800E0
1.294205019E0,4.290817261E0,-6.164428711E0,-3.983306885E0
1.299179384E0,4.330810547E0,-6.382827759E0,-4.522201538E0
1.304153750E0,4.428680420E0,-6.538452148E0,-4.880050659E0
1.309128115E0,4.394699097E0,-6.308471680E0,-5.060943604E0
1.314102480E0,4.290603638E0,-6.138366699E0,-5.077911377E0
1.319076845E0,4.772781372E0,-6.152832031E0,-4.867050171E0
1.324051211E0,5.361663818E0,-6.086959839E0,-4.395599365E0
1.329025576E0,6.153900146E0,-6.298034668E0,-4.419219971E0
1.333999941E0,6.354751587E0,-6.479522705E0,-4.645614624E0
1.338974306E0,6.145278931E0,-6.555831909E0,-4.829910278E0
1.343948672E0,6.242034912E0,-7.006118774E0,-5.408065796E0
1.348923037E0,6.540603638E0,-7.564270020E0,-5.698867798E0
1.353897402E0,6.700820923E0,-7.830429077E0,-5.764617920E0
1.358871767E0,6.203445435E0,-7.703643799E0,-5.238693237E0
1.363846132E0,5.717681885E0,-7.664672852E0,-4.757843018E0
1.368820498E0,5.322052002E0,-7.809982300E0,-4.322891235E0
1.373794863E0,5.156860352E0,-7.866516113E0,-4.192169189E0
1.378769228E0,4.612701416E0,-7.748031616E0,-4.146621704E0
1.383743593E0,4.232711792E0,-7.798370361E0,-4.316589355E0
1.388717959E0,3.670410156E0,-7.858367920E0,-4.401107788E0
1.393692324E0,3.335372925E0,-7.607681274E0,-4.427520752E0
1.398666689E0,3.157653809E0,-7.591979980E0,-4.952743530E0
1.403641054E0,3.513854980E0,-7.981674194E0,-5.784210205E0
1.408615420E0,3.967666626E0,-8.424331665E0,-6.375534058E0
1.413589785E0,3.733306885E0,-8.334594727E0,-5.959121704E0
1.418564150E0,3.406036377E0,-8.012939453E0,-5.015304565E0
1.423538515E0,3.474243164E0,-7.984924316E0,-4.412872314E0
1.428512881E0,3.670883179E0,-8.247192383E0,-4.097091675E0
1.433487246E0,3.489593506E0,-8.549987793E0,-3.831466675E0
1.438461611E0,2.866165161E0,-8.796005249E0,-3.653076172E0
1.443435976E0,2.274322510E0,-8.962951660E0,-3.656356812E0
1.448410341E0,1.973052979E0,-8.775360107E0,-3.771041870E0
1.453384707E0,1.993515015E0,-8.397537231E0,-3.884323120E0
1.458359072E0,2.343887329E0,-7.983505249E0,-3.721893311E0
1.463333437E0,2.803771973E0,-7.571945190E0,-3.787796021E0
1.468307802E0,2.536895752E0,-7.036148071E0,-3.641921997E0
1.473282168E0,2.819580078E0,-6.788803101E0,-3.845336914E0
1.478256533E0,3.544692993E0,-6.987747192E0,-4.740097046E0
1.483230898E0,4.234588623E0,-7.152572632E0,-5.543243408E0
1.488205263E0,4.521286011E0,-7.183410645E0,-5.906311035E0
1.493179629E0,4.267044067E0,-7.184494019E0,-5.680419922E0
1.498153994E0,4.791671753E0,-7.306732178E0,-4.986663818E0
1.503128359E0,5.782806396E0,-7.410064697E0,-3.821426392E0
1.508102724E0,5.984420776E0,-7.574401855E0,-3.460144043E0
1.513077090E0,4.752593994E0,-7.840789795E0,-3.789718628E0
1.518051455E0,3.863143921E0,-8.173812866E0,-4.809204102E0
1.523025820E0,4.177215576E0,-8.201217651E0,-5.407318115E0
1.528000185E0,4.516281128E0,-8.122146606E0,-5.439620972E0
1.532974550E0,3.878479004E0,-7.943023682E0,-5.525894165E0
1.537948916E0,3.535568237E0,-7.909500122E0,-5.455062866E0
1.542923281E0,3.220764160E0,-7.751419067E0,-5.116836548E0
1.547897646E0,3.244186401E0,-7.588699341E0,-5.137496948E0
1.552872011E0,2.981872559E0,-7.586486816E0,-5.347351074E0
1.557846377E0,2.828338623E0,-7.581726074E0,-5.359542847E0
1.562820742E0,2.830032349E0,-7.572906494E0,-5.230484009E0
1.567795107E0,2.841567993E0,-7.737121582E0,-5.019500732E0
1.572769472E0,2.851196289E0,-7.980224609E0,-4.659454346E0
1.577743838E0,2.649047852E0,-8.096115112E0,-4.404251099E0
1.582718203E0,2.760742188E0,-8.198883057E0,-4.163497925E0
1.587692568E0,3.297409058E0,-8.485717773E0,-4.048858643E0
1.592666933E0,3.312057495E0,-8.805526733E0,-4.215148926E0
1.597641299E0,3.210891724E0,-8.801696777E0,-4.035202026E0
1.602615664E0,3.186172485E0,-8.663208008E0,-3.811904907E0
1.607590029E0,3.075881958E0,-8.381393433E0,-3.667053223E0
1.612564394E0,3.023223877E0,-8.162475586E0,-3.929412842E0
1.617538759E0,3.140075684E0,-8.204803467E0,-4.415130615E0
1.622513125E0,2.939910889E0,-8.255020142E0,-4.614334106E0
1.627487490E0,2.650970459E0,-8.170974731E0,-4.626449585E0
1.632461855E0,2.389266968E0,-7.892272949E0,-4.680709839E0
1.637436220E0,2.240097046E0,-7.616806030E0,-4.804626465E0
1.642410586E0,2.720611572E0,-7.586044312E0,-4.999145508E0
1.647384951E0,3.434967041E0,-7.636459351E0,-5.091156006E0
1.652359316E0,3.605972290E0,-7.718414307E0,-5.076507568E0
1.657333681E0,3.202514648E0,-7.764358521E0,-4.861312866E0
1.662308047E0,3.086029053E0,-8.050689697E0,-4.841293335E0
1.667282412E0,3.179992676E0,-8.355957031E0,-4.827682495E0
1.672256777E0,3.034988403E0,-8.470779419E0,-4.809814453E0
1.677231142E0,2.767074585E0,-8.508239746E0,-4.481796265E0
1.682205507E0,2.888687134E0,-8.703826904E0,-4.456542969E0
1.687179873E0,2.977096558E0,-9.017944336E0,-4.652862549E0
1.692154238E0,3.122070312E0,-9.440536499E0,-4.477462769E0
1.697128603E0,2.951721191E0,-9.712646484E0,-4.192703247E0
1.702102968E0,2.945266724E0,-9.878005981E0,-4.032379150E0
1.707077334E0,2.849716187E0,-9.761840820E0,-4.131942749E0
1.712051699E0,2.689117432E0,-9.541564941E0,-4.451538086E0
1.717026064E0,2.266525269E0,-9.423873901E0,-4.731155396E0
1.722000429E0,1.810195923E0,-9.308303833E0,-4.942596436E0
1.726974795E0,2.063842773E0,-9.140777588E0,-5.034591675E0
1.731949160E0,2.486816406E0,-8.947937012E0,-5.158737183E0
1.736923525E0,2.625442505E0,-8.708221436E0,-5.152587891E0
1.741897890E0,2.433425903E0,-8.449417114E0,-4.873855591E0
1.746872256E0,2.441940308E0,-8.417755127E0,-4.806991577E0
1.751846621E0,2.531005859E0,-8.504852295E0,-4.602081299E0
1.756820986E0,2.238296509E0,-8.504318237E0,-4.090164185E0
1.761795351E0,2.855651855E0,-8.385482788E0,-3.782501221E0
1.766769716E0,4.121856689E0,-8.572158813E0,-4.458694458E0
1.771744082E0,3.844009399E0,-8.976196289E0,-4.941131592E0
1.776718447E0,3.127075195E0,-9.279815674E0,-4.882568359E0
1.781692812E0,2.517593384E0,-9.465103149E0,-4.739074707E0
1.786667177E0,1.687423706E0,-9.946899414E0,-5.225982666E0
1.791641543E0,6.799926758E-1,-1.004536438E1,-5.626739502E0
1.796615908E0,1.227111816E0,-8.744445801E0,-4.927642822E0
1.801590273E0,2.129257202E0,-8.890274048E0,-5.286071777E0
1.806564638E0,1.953369141E0,-9.639633179E0,-5.713180542E0
1.811539004E0,1.488800049E0,-9.599655151E0,-5.916595459E0
1.816513369E0,1.393310547E0,-8.701431274E0,-5.588989258E0
1.821487734E0,2.136367798E0,-7.710922241E0,-4.529434204E0
1.826462099E0,2.293121338E0,-7.261383057E0,-4.138595581E0
1.831436465E0,1.919967651E0,-7.273269653E0,-3.993072510E0
1.836410830E0,1.633697510E0,-7.408767700E0,-3.767105103E0
1.841385195E0,1.474899292E0,-7.396484375E0,-3.702743530E0
1.846359560E0,1.407730103E0,-7.360000610E0,-3.959381104E0
1.851333925E0,1.538345337E0,-7.461532593E0,-4.292495728E0
1.856308291E0,1.700683594E0,-7.600173950E0,-4.580093384E0
1.861282656E0,1.739288330E0,-7.796569824E0,-5.014236450E0
1.866257021E0,1.761322021E0,-8.026519775E0,-5.220855713E0
1.871231386E0,1.785064697E0,-8.081314087E0,-5.266769409E0
1.876205752E0,1.761978149E0,-8.176315308E0,-5.232864380E0
1.881180117E0,1.514266968E0,-8.267776489E0,-5.401138306E0
1.886154482E0,1.197265625E0,-8.326446533E0,-5.436752319E0
1.891128847E0,1.269744873E0,-8.333053589E0,-5.196319580E0
1.896103213E0,1.140670776E0,-8.273330688E0,-5.089721680E0
1.901077578E0,8.821411133E-1,-8.106094360E0,-5.016891479E0
1.906051943E0,8.612976074E-1,-7.945968628E0,-4.835388184E0
1.911026308E0,8.259735107E-1,-7.898818970E0,-4.671020508E0
1.916000674E0,9.419555664E-1,-8.095779419E0,-4.573760986E0
1.920975039E0,9.294128418E-1,-8.007171631E0,-4.584259033E0
1.925949404E0,9.842224121E-1,-7.951354980E0,-4.659362793E0
1.930923769E0,9.233703613E-1,-7.842391968E0,-4.835800171E0
1.935898134E0,9.884948730E-1,-7.679595947E0,-5.161392212E0
1.940872500E0,1.261291504E0,-7.801635742E0,-7.324417114E0
1.945846865E0,1.155883789E0,-8.259765625E0,-9.634231567E0
1.950821230E0,9.957885742E-1,-8.462112427E0,-9.573181152E0
1.955795595E0,9.361114502E-1,-8.237838745E0,-7.611251831E0
1.960769961E0,8.662109375E-1,-7.889953613E0,-5.286926270E0
1.965744326E0,7.348327637E-1,-7.796081543E0,-3.787963867E0
1.970718691E0,5.926208496E-1,-8.204162598E0,-3.563079834E0
1.975693056E0,4.677276611E-1,-8.674713135E0,-4.125289917E0
1.980667422E0,5.491180420E-1,-9.035202026E0,-4.860183716E0
1.985641787E0,8.169097900E-1,-9.077255249E0,-5.275100708E0
1.990616152E0,9.200897217E-1,-8.904296875E0,-5.578369141E0
1.995590517E0,7.162170410E-1,-8.494262695E0,-5.678359985E0
2.000564882E0,3.314666748E-1,-8.134780884E0,-5.645202637E0
2.005539248E0,-3.095550537E-1,-8.049850464E0,-5.658264160E0
2.010513613E0,-8.545379639E-1,-8.178283691E0,-5.863189697E0
2.015487978E0,-1.050354004E0,-8.314361572E0,-6.014877319E0
2.020462343E0,-7.284851074E-1,-8.468368530E0,-6.069076538E0
2.025436709E0,5.264282227E-3,-8.433044434E0,-5.904922485E0
2.030411074E0,5.335388184E-1,-8.452880859E0,-5.722045898E0
2.035385439E0,8.387908936E-1,-8.534057617E0,-5.572143555E0
2.040359804E0,6.805419922E-1,-8.366134644E0,-5.494049072E0
2.045334170E0,3.326721191E-1,-7.942703247E0,-5.084671021E0
2.050308535E0,-3.907775879E-1,-7.793518066E0,-5.417190552E0
2.055282900E0,-3.801925659E0,-8.637130737E0,-5.769729614E0
2.060257265E0,-4.438018799E0,-8.784500122E0,-5.431274414E0
2.065231631E0,-2.739913940E0,-8.429748535E0,-5.387268066E0
2.070205996E0,-1.047836304E0,-8.036346436E0,-5.818191528E0
2.075180361E0,1.126098633E-1,-7.574676514E0,-5.853775024E0
2.080154726E0,9.649505615E-1,-7.339630127E0,-5.757904053E0
2.085129091E0,7.176361084E-1,-7.514678955E0,-5.574691772E0
2.090103457E0,-1.230010986E-1,-7.840179443E0,-5.177474976E0
2.095077822E0,-1.360260010E0,-8.753646851E0,-4.570510864E0
2.100052187E0,-7.881011963E-1,-8.643859863E0,-4.401931763E0
2.105026552E0,-1.105804443E-1,-8.219528198E0,-4.535491943E0
2.110000918E0,2.533874512E-1,-8.115097046E0,-5.361450195E0
2.114975283E0,2.593841553E-1,-8.159271240E0,-5.469940186E0
2.119949648E0,-1.403808594E-1,-8.243621826E0,-5.169219971E0
2.124924013E0,-2.569427490E-1,-8.211639404E0,-4.805999756E0
2.129898379E0,-2.738494873E-1,-8.285293579E0,-5.015151978E0
2.134872744E0,4.850769043E-2,-8.325836182E0,-5.121139526E0
2.139847109E0,2.990722656E-2,-8.651855469E0,-5.353210449E0
2.144821474E0,-2.029571533E-1,-8.818405151E0,-5.567871094E0
2.149795840E0,-3.657836914E-1,-8.703567505E0,-5.353790283E0
2.154770205E0,-4.939270020E-1,-8.464599609E0,-5.018142700E0
2.159744570E0,-4.073486328E-1,-8.380691528E0,-4.839279175E0
2.164718935E0,-2.479248047E-1,-8.248672485E0,-4.785552979E0
2.169693300E0,-4.158782959E-1,-8.298263550E0,-4.759460449E0
2.174667666E0,-6.629791260E-1,-8.492843628E0,-4.757492065E0
2.179642031E0,-7.987060547E-1,-8.537246704E0,-4.824737549E0
2.184616396E0,-7.174224854E-1,-8.350891113E0,-4.856750488E0
2.189590761E0,-4.302062988E-1,-8.175430298E0,-4.730621338E0
2.194565127E0,-5.244903564E-1,-8.222213745E0,-4.601257324E0
2.199539492E0,-7.000579834E-1,-8.316970825E0,-4.756362915E0
2.204513857E0,-7.693023682E-1,-8.138366699E0,-4.702728271E0
2.209488222E0,-8.377685547E-1,-8.046875000E0,-4.784103394E0
2.214462588E0,-8.010559082E-1,-8.234970093E0,-4.892089844E0
2.219436953E0,-8.408966064E-1,-8.266876221E0,-4.697967529E0
2.224411318E0,-9.239196777E-1,-8.021987915E0,-4.058288574E0
2.229385683E0,-6.085052490E-1,-7.329040527E0,-3.237625122E0
2.234360049E0,-5.997161865E-1,-6.830505371E0,-2.242843628E0
2.239334414E0,-6.487731934E-1,-6.429672241E0,-1.124176025E0
2.244308779E0,-5.778656006E-1,-6.053375244E0,-6.085815430E-1
2.249283144E0,-7.737884521E-1,-6.000503540E0,-8.220977783E-1
2.254257509E0,-7.158355713E-1,-6.178756714E0,-1.262039185E0
2.259231875E0,-4.114532471E-1,-6.168685913E0,-1.239257812E0
2.264206240E0,-3.384552002E-1,-6.265640259E0,-1.856918335E0
2.269180605E0,-1.532592773E-1,-6.904144287E0,-3.423950195E0
2.274154970E0,7.388000488E-1,-7.706375122E0,-6.511444092E0
2.279129336E0,3.278961182E-1,-7.832092285E0,-9.346359253E0
2.284103701E0,-2.175292969E-1,-7.720321655E0,-9.300186157E0
2.289078066E0,-6.759185791E-1,-7.384933472E0,-6.938476562E0
2.294052431E0,-1.557312012E-1,-7.335159302E0,-4.131408691E0
2.299026797E0,4.756927490E-1,-7.223007202E0,-2.797424316E0
2.304001162E0,7.349090576E-1,-7.396377563E0,-2.737060547E0
2.308975527E0,4.358367920E-1,-7.340484619E0,-2.955276489E0
2.313949892E0,-4.356384277E-2,-7.592437744E0,-3.046203613E0
2.318924257E0,-2.993927002E-1,-7.872787476E0,-3.204574585E0
2.323898623E0,-2.676696777E-1,-8.198394775E0,-3.288269043E0
2.328872988E0,-1.530151367E-1,-8.232711792E0,-3.505432129E0
2.333847353E0,-9.922790527E-2,-8.014953613E0,-3.558807373E0
2.338821718E0,2.784576416E-1,-8.051376343E0,-3.635833740E0
2.343796084E0,4.505004883E-1,-7.802932739E0,-3.690139771E0
2.348770449E0,6.844940186E-1,-7.710983276E0,-3.604583740E0
2.353744814E0,8.126983643E-1,-7.902816772E0,-3.618743896E0
2.358719179E0,6.914062500E-1,-8.115066528E0,-3.735961914E0
2.363693545E0,6.831359863E-1,-8.172378540E0,-3.880462646E0
2.368667910E0,1.094345093E0,-8.317214966E0,-4.070999146E0
2.373642275E0,1.427825928E0,-8.518585205E0,-4.316024780E0
2.378616640E0,1.689453125E0,-8.717819214E0,-4.299819946E0
2.383591006E0,1.668945312E0,-8.937805176E0,-4.085250854E0
2.388565371E0,1.494659424E0,-9.204025269E0,-3.253540039E0
2.393539736E0,1.516510010E0,-9.280349731E0,-1.872283936E0
2.398514101E0,1.513320923E0,-9.271499634E0,-8.453521729E-1
2.403488466E0,1.054168701E0,-9.120452881E0,-6.878662109E-2
2.408462832E0,2.950134277E-1,-8.999710083E0,3.496856689E-1
2.413437197E0,-5.697937012E-1,-9.153808594E0,5.774078369E-1
2.418411562E0,-1.309585571E0,-9.205352783E0,4.072113037E-1
2.423385927E0,-2.403991699E0,-9.447708130E0,-2.462768555E-1
2.428360293E0,-3.550613403E0,-9.498886108E0,-1.266494751E0
2.433334658E0,-4.192245483E0,-9.267288208E0,-2.623794556E0
2.438309023E0,-4.367095947E0,-8.932647705E0,-3.807418823E0
2.443283388E0,-4.383941650E0,-8.489685059E0,-4.473098755E0
2.448257754E0,-4.044647217E0,-7.806228638E0,-4.585006714E0
2.453232119E0,-3.235473633E0,-7.012847900E0,-4.368255615E0
2.458206484E0,-2.549484253E0,-6.433349609E0,-4.191558838E0
2.463180849E0,-2.339599609E0,-6.612319946E0,-4.085006714E0
2.468155215E0,-2.207275391E0,-6.700286865E0,-4.279525757E0
2.473129580E0,-1.652343750E0,-6.734069824E0,-3.861511230E0
2.478103945E0,-1.171218872E0,-8.304473877E0,-4.188095093E0
2.483078310E0,-8.846130371E-1,-1.347111511E1,-4.145675659E0
2.488052675E0,2.372589111E-1,-2.068675232E1,-3.985519409E0
2.493027041E0,1.179260254E0,-2.737698364E1,-5.171081543E0
2.498001406E0,2.260147095E0,-3.109507751E1,-6.245498657E0
2.502975771E0,6.575775146E0,-3.061650085E1,-6.222335815E0
2.507950136E0,1.788507080E1,-2.225813293E1,-6.650802612E0
2.512924502E0,9.174911499E0,-1.428942871E1,-1.870925903E0
2.517898867E0,4.671325684E-1,-1.178392029E1,-3.674438477E0
2.522873232E0,-2.317443848E0,-1.135780334E1,-2.264282227E0
2.527847597E0,-3.031814575E0,-9.131286621E0,-8.737335205E-1
2.532821963E0,-3.371154785E0,-7.580322266E0,-2.889556885E-1
2.537796328E0,-3.723175049E0,-6.821228027E0,2.304077148E-2
2.542770693E0,-4.120666504E0,-6.909988403E0,1.722869873E-1
2.547745058E0,-4.071380615E0,-7.742309570E0,2.694396973E-1
2.552719424E0,-3.273895264E0,-8.804138184E0,1.331634521E-1
2.557693789E0,-2.283599854E0,-9.566574097E0,-2.126464844E-1
2.562668154E0,-1.428924561E0,-1.001576233E1,-7.108764648E-1
2.567642519E0,-7.639160156E-1,-1.016069031E1,-1.321487427E0
2.572616884E0,-2.985382080E-1,-9.997406006E0,-1.907302856E0
2.577591250E0,-2.615356445E-2,-9.766098022E0,-2.428375244E0
2.582565615E0,2.160644531E-2,-9.635208130E0,-2.881729126E0
2.587539980E0,-1.842956543E-1,-9.581893921E0,-3.192733765E0
2.592514345E0,-5.617065430E-1,-9.505264282E0,-3.449356079E0
2.597488711E0,-9.538574219E-1,-9.408065796E0,-3.675292969E0
2.602463076E0,-1.251190186E0,-9.323364258E0,-3.819473267E0
2.607437441E0,-1.429992676E0,-9.270645142E0,-3.845672607E0
2.612411806E0,-1.426879883E0,-9.186386108E0,-3.773834229E0
2.617386172E0,-1.388183594E0,-9.090530396E0,-3.638778687E0
2.622360537E0,-1.349487305E0,-9.043594360E0,-3.452117920E0
2.627334902E0,-1.282577515E0,-9.073089600E0,-3.281295776E0
2.632309267E0,-1.242675781E0,-9.155517578E0,-3.073516846E0
2.637283632E0,-1.180084229E0,-9.207382202E0,-2.920684814E0
2.642257998E0,-1.126144409E0,-9.259963989E0,-2.785079956E0
2.647232363E0,-1.074340820E0,-9.272811890E0,-2.697387695E0
2.652206728E0,-9.891662598E-1,-9.275680542E0,-2.600692749E0
2.657181093E0,-9.561157227E-1,-9.282745361E0,-2.493362427E0
2.662155459E0,-9.243164062E-1,-9.337356567E0,-2.397232056E0
2.667129824E0,-8.782958984E-1,-9.425262451E0,-2.275848389E0
2.672104189E0,-8.524932861E-1,-9.598861694E0,-2.180404663E0
2.677078554E0,-8.635253906E-1,-9.725265503E0,-2.109207153E0
2.682052920E0,-8.385925293E-1,-9.804199219E0,-1.942779541E0
2.687027285E0,-3.353881836E-1,-9.914901733E0,-5.692138672E-1
2.692001650E0,-6.971740723E-1,-9.643295288E0,-8.572845459E-1
2.696976015E0,-1.378097534E0,-9.576141357E0,-1.517074585E0
2.701950381E0,-1.722473145E0,-9.560348511E0,-2.086105347E0
2.706924746E0,-1.680969238E0,-9.489349365E0,-2.511642456E0
2.711899111E0,-1.329208374E0,-9.368789673E0,-2.773559570E0
2.716873476E0,-9.234161377E-1,-9.324386597E0,-2.897232056E0
2.721847841E0,-6.900482178E-1,-9.333984375E0,-3.000305176E0
2.726822207E0,-5.849304199E-1,-9.444030762E0,-3.091659546E0
2.731796572E0,-6.177215576E-1,-9.594665527E0,-3.191711426E0
2.736770937E0,-6.868133545E-1,-9.730377197E0,-3.205566406E0
2.741745302E0,-7.100524902E-1,-9.777755737E0,-3.141937256E0
2.746719668E0,-7.333984375E-1,-9.761169434E0,-3.109039307E0
2.751694033E0,-7.355499268E-1,-9.743408203E0,-3.019363403E0
2.756668398E0,-7.097930908E-1,-9.678314209E0,-2.888961792E0
2.761642763E0,-8.280181885E-1,-9.516738892E0,-2.905563354E0
2.766617129E0,-9.739532471E-1,-9.378570557E0,-2.915893555E0
2.771591494E0,-1.000488281E0,-9.330001831E0,-2.830657959E0
2.776565859E0,-1.108001709E0,-9.302352905E0,-2.726791382E0
2.781540224E0,-1.350479126E0,-9.263092041E0,-2.683761597E0
2.786514590E0,-1.406005859E0,-9.304595947E0,-2.555130005E0
2.791488955E0,-1.308364868E0,-9.393875122E0,-2.402450562E0
2.796463320E0,-1.246627808E0,-9.423461914E0,-2.297607422E0
2.801437685E0,-1.247116089E0,-9.377456665E0,-2.257125854E0
2.806412050E0,-1.264282227E0,-9.355987549E0,-2.229217529E0
2.811386416E0,-1.303665161E0,-9.351089478E0,-2.225097656E0
2.816360781E0,-1.407608032E0,-9.317520142E0,-2.256774902E0
2.821335146E0,-1.470886230E0,-9.313293457E0,-2.286300659E0
2.826309511E0,-1.397186279E0,-9.359130859E0,-2.325576782E0
2.831283877E0,-1.269561768E0,-9.444717407E0,-2.424163818E0
2.836258242E0,-1.130615234E0,-9.468307495E0,-2.651290894E0
2.841232607E0,-9.743041992E-1,-9.429306030E0,-2.904495239E0
2.846206972E0,-8.103332520E-1,-9.392044067E0,-3.067459106E0
2.851181338E0,-6.105346680E-1,-9.385955811E0,-3.127578735E0
2.856155703E0,-3.983612061E-1,-9.405548096E0,-3.130096436E0
2.861130068E0,-2.734069824E-1,-9.446990967E0,-3.080657959E0
2.866104433E0,-1.582946777E-1,-9.482208252E0,-2.956634521E0
2.871078799E0,-1.318511963E-1,-9.526138306E0,-2.823715210E0
2.876053164E0,-1.885070801E-1,-9.560684204E0,-2.687484741E0
2.881027529E0,-2.869567871E-1,-9.542785645E0,-2.560607910E0
2.886001894E0,-4.097137451E-1,-9.533370972E0,-2.449707031E0
2.890976259E0,-5.675659180E-1,-9.513656616E0,-2.395996094E0
2.895950625E0,-7.012023926E-1,-9.495101929E0,-2.354721069E0
2.900924990E0,-7.930908203E-1,-9.487014771E0,-2.395584106E0
2.905899355E0,-8.889007568E-1,-9.507232666E0,-2.471633911E0
2.910873720E0,-9.308929443E-1,-9.537368774E0,-2.562362671E0
2.915848086E0,-9.510345459E-1,-9.547805786E0,-2.679214478E0
2.920822451E0,-9.813385010E-1,-9.572219849E0,-2.769622803E0
2.925796816E0,-9.850158691E-1,-9.572570801E0,-2.848419189E0
2.930771181E0,-9.967956543E-1,-9.546554565E0,-2.907363892E0
2.935745547E0,-1.007369995E0,-9.520965576E0,-2.921142578E0
2.940719912E0,-1.001159668E0,-9.498535156E0,-2.940307617E0
2.945694277E0,-9.956207275E-1,-9.477188110E0,-2.978378296E0
2.950668642E0,-1.005432129E0,-9.445343018E0,-2.992965698E0
2.955643007E0,-1.010055542E0,-9.426040649E0,-2.988204956E0
2.960617373E0,-1.019500732E0,-9.401885986E0,-2.972274780E0
2.965591738E0,-1.035308838E0,-9.393951416E0,-2.948043823E0
2.970566103E0,-1.038223267E0,-9.378692627E0,-2.942184448E0
2.975540468E0,-1.051727295E0,-9.374435425E0,-2.924072266E0
2.980514834E0,-1.071487427E0,-9.372344971E0,-2.908126831E0
2.985489199E0,-1.065399170E0,-9.394134521E0,-2.842437744E0
2.990463564E0,-1.058578491E0,-9.394668579E0,-2.818283081E0
2.995437929E0,-1.074035645E0,-9.399642944E0,-2.794525146E0
3.000412295E0,-1.092422485E0,-9.417465210E0,-2.771286011E0
3.005386660E0,-1.101943970E0,-9.402679443E0,-2.765045166E0
3.010361025E0,-1.093460083E0,-9.409774780E0,-2.748703003E0
3.015335390E0,-1.089370728E0,-9.399948120E0,-2.763839722E0
3.020309756E0,-1.105895996E0,-9.414733887E0,-2.769073486E0
3.025284121E0,-1.086502075E0,-9.421340942E0,-2.756347656E0
3.030258486E0,-1.095382690E0,-9.417343140E0,-2.748306274E0
3.035232851E0,-1.107727051E0,-9.430816650E0,-2.717895508E0
3.040207216E0,-1.124710083E0,-9.438461304E0,-2.714340210E0
3.045181582E0,-1.153335571E0,-9.438842773E0,-2.692459106E0
3.050155947E0,-1.130065918E0,-9.462112427E0,-2.665740967E0
3.055130312E0,-1.136245728E0,-9.449874878E0,-2.647460938E0
3.060104677E0,-1.095489502E0,-9.408416748E0,-2.654907227E0
3.065079043E0,-1.131637573E0,-9.440078735E0,-2.707611084E0
3.070053408E0,-1.104324341E0,-9.435836792E0,-2.723831177E0
3.075027773E0,-1.060989380E0,-9.445678711E0,-2.695175171E0
3.080002138E0,-1.024047852E0,-9.435638428E0,-2.700332642E0
3.084976504E0,-1.001800537E0,-9.440628052E0,-2.724197388E0
3.089950869E0,-9.980926514E-1,-9.430160522E0,-2.735275269E0
3.094925234E0,-9.908142090E-1,-9.425262451E0,-2.744613647E0
3.099899599E0,-9.725036621E-1,-9.423233032E0,-2.765838623E0
3.104873965E0,-9.788970947E-1,-9.423431396E0,-2.790100098E0
3.109848330E0,-9.868164062E-1,-9.419586182E0,-2.794494629E0
3.114822695E0,-9.828186035E-1,-9.427856445E0,-2.801574707E0
3.119797060E0,-9.852600098E-1,-9.435714722E0,-2.802520752E0
3.124771425E0,-9.971618652E-1,-9.426086426E0,-2.799957275E0
3.129745791E0,-1.003067017E0,-9.419769287E0,-2.794769287E0
3.134720156E0,-9.993133545E-1,-9.429016113E0,-2.807647705E0
3.139694521E0,-9.956359863E-1,-9.426574707E0,-2.805175781E0
3.144668886E0,-9.997863770E-1,-9.440826416E0,-2.813201904E0
3.149643252E0,-1.017471313E0,-9.450195312E0,-2.816574097E0
3.154617617E0,-1.015426636E0,-9.450958252E0,-2.803878784E0
3.159591982E0,-1.006179810E0,-9.458862305E0,-2.793594360E0
3.164566347E0,-9.944305420E-1,-9.468673706E0,-2.772277832E0
3.169540713E0,-9.998016357E-1,-9.460769653E0,-2.770217896E0
3.174515078E0,-9.701995850E-1,-9.438583374E0,-2.762451172E0
3.179489443E0,-9.445800781E-1,-9.429626465E0,-2.757400513E0
3.184463808E0,-9.334564209E-1,-9.425369263E0,-2.768234253E0
3.189438174E0,-9.161834717E-1,-9.407394409E0,-2.749359131E0
3.194412539E0,-8.927001953E-1,-9.412292480E0,-2.733398438E0
3.199386904E0,-9.257812500E-1,-9.428512573E0,-2.709213257E0
3.204361269E0,-9.314270020E-1,-9.454010010E0,-2.700622559E0
3.209335634E0,-9.120025635E-1,-9.485275269E0,-2.719055176E0
3.214310000E0,-9.597625732E-1,-9.521514893E0,-2.745498657E0
3.219284365E0,-1.038604736E0,-9.594207764E0,-2.743331909E0
3.224258730E0,-1.064285278E0,-9.647216797E0,-2.717712402E0
3.229233095E0,-1.048446655E0,-9.677658081E0,-2.673904419E0
3.234207461E0,-1.048843384E0,-9.714035034E0,-2.649169922E0
3.239181826E0,-1.073410034E0,-9.730453491E0,-2.619842529E0
3.244156191E0,-1.045806885E0,-9.729858398E0,-2.591506958E0
3.249130556E0,-1.039962769E0,-9.720260620E0,-2.541030884E0
3.254104922E0,-9.991760254E-1,-9.713714600E0,-2.505569458E0
3.259079287E0,-9.696960449E-1,-9.718215942E0,-2.503768921E0
3.264053652E0,-9.566040039E-1,-9.745223999E0,-2.520141602E0
3.269028017E0,-9.451751709E-1,-9.750946045E0,-2.531005859E0
3.274002382E0,-9.058837891E-1,-9.775375366E0,-2.538558960E0
3.278976748E0,-8.748626709E-1,-9.824493408E0,-2.555206299E0
3.283951113E0,-8.832092285E-1,-9.886367798E0,-2.581192017E0
3.288925478E0,-9.208526611E-1,-9.905105591E0,-2.611602783E0
3.293899843E0,-9.358825684E-1,-9.865692139E0,-2.585983276E0
3.298874209E0,-9.231719971E-1,-9.802886963E0,-2.553329468E0
3.303848574E0,-8.981628418E-1,-9.724884033E0,-2.494766235E0
3.308822939E0,-8.717346191E-1,-9.589981079E0,-2.490249634E0
3.313797304E0,-8.429718018E-1,-9.446670532E0,-2.526092529E0
3.318771670E0,-8.156890869E-1,-9.330505371E0,-2.558319092E0
3.323746035E0,-7.942199707E-1,-9.301788330E0,-2.603637695E0
3.328724852E0,-8.681488037E-1,-9.399185181E0,-2.651626587E0
3.333699217E0,-9.514923096E-1,-9.608840942E0,-2.699523926E0
3.338673583E0,-9.830322266E-1,-9.833312988E0,-2.721496582E0
3.343647948E0,-9.394531250E-1,-9.974670410E0,-2.763931274E0
3.348622313E0,-8.641357422E-1,-1.006475830E1,-2.788818359E0
3.353596678E0,-8.036804199E-1,-1.015081787E1,-2.778350830E0
3.358571043E0,-7.980194092E-1,-1.022380066E1,-2.754821777E0
3.363545409E0,-8.243255615E-1,-1.028836060E1,-2.758789062E0
3.368519774E0,-8.728027344E-1,-1.038328552E1,-2.731689453E0
3.373494139E0,-9.691314697E-1,-1.053317261E1,-2.677658081E0
3.378468504E0,-1.102081299E0,-1.071456909E1,-2.576354980E0
3.383442870E0,-1.186035156E0,-1.081237793E1,-2.466857910E0
3.388417235E0,-1.216979980E0,-1.077473450E1,-2.345016479E0
3.393391600E0,-1.226776123E0,-1.062702942E1,-2.240371704E0
3.398365965E0,-1.251129150E0,-1.042997742E1,-2.041732788E0
3.403340331E0,-1.153762817E0,-1.018505859E1,-1.747421265E0
3.408314696E0,-1.065582275E0,-9.869827271E0,-1.519485474E0
3.413289061E0,-1.025772095E0,-9.606048584E0,-1.367797852E0
3.418263426E0,-1.059860229E0,-9.405090332E0,-1.227691650E0
3.423237792E0,-1.052871704E0,-9.307037354E0,-1.270309448E0
3.428212157E0,-1.035522461E0,-9.182449341E0,-1.338165283E0
3.433186522E0,-9.526824951E-1,-9.064987183E0,-1.393173218E0
3.438160887E0,-7.715454102E-1,-8.884582520E0,-1.530548096E0
3.443135252E0,-5.396728516E-1,-8.716354370E0,-1.672912598E0
3.448109618E0,-2.700195312E-1,-8.555679321E0,-1.857635498E0
3.453083983E0,-6.214904785E-2,-8.400939941E0,-2.082077026E0
3.458058348E0,1.124114990E-1,-8.294235229E0,-2.369613647E0
3.463032713E0,2.880706787E-1,-8.250839233E0,-2.642761230E0
3.468007079E0,3.724670410E-1,-8.237930298E0,-2.895782471E0
3.472981444E0,3.589477539E-1,-8.221725464E0,-3.142761230E0
3.477955809E0,1.701660156E-1,-8.215667725E0,-3.335052490E0
3.482930174E0,-1.733703613E-1,-8.306732178E0,-3.489593506E0
3.487904540E0,-4.838256836E-1,-8.435760498E0,-3.668151855E0
3.492878905E0,-7.102661133E-1,-8.611373901E0,-3.890060425E0
3.497853270E0,-8.410339355E-1,-8.936401367E0,-4.090332031E0
3.502827635E0,-8.801727295E-1,-9.412063599E0,-4.181976318E0
3.507802001E0,-8.318023682E-1,-9.972244263E0,-4.110458374E0
3.512776366E0,-7.630157471E-1,-1.051531982E1,-3.924850464E0
3.517750731E0,-7.673645020E-1,-1.094137573E1,-3.702285767E0
3.522725096E0,-8.804473877E-1,-1.112950134E1,-3.562545776E0
3.527699461E0,-1.086990356E0,-1.098374939E1,-3.447570801E0
3.532673827E0,-1.358413696E0,-1.056269836E1,-3.126403809E0
3.537648192E0,-1.560379028E0,-1.004066467E1,-2.676528931E0
3.542622557E0,-1.672607422E0,-9.642822266E0,-2.264465332E0
3.547596922E0,-1.819931030E0,-9.271789551E0,-1.856719971E0
3.552571288E0,-2.058349609E0,-8.893661499E0,-1.454742432E0
3.557545653E0,-2.329193115E0,-8.498016357E0,-1.198272705E0
3.562520018E0,-2.583572388E0,-8.124847412E0,-1.062240601E0
3.567494383E0,-2.778488159E0,-7.796051025E0,-1.069946289E0
3.572468749E0,-2.862884521E0,-7.517715454E0,-1.149368286E0
3.577443114E0,-2.814468384E0,-7.383422852E0,-1.303222656E0
3.582417479E0,-2.634460449E0,-7.325424194E0,-1.509323120E0
3.587391844E0,-2.410140991E0,-7.413314819E0,-1.790161133E0
3.592366209E0,-2.130569458E0,-7.679153442E0,-2.170928955E0
3.597340575E0,-1.756179810E0,-7.999740601E0,-2.574630737E0
3.602314940E0,-1.366592407E0,-8.390304565E0,-2.838928223E0
3.607289305E0,-9.694824219E-1,-8.735626221E0,-3.018432617E0
3.612263670E0,-5.994873047E-1,-9.066055298E0,-3.075653076E0
3.617238036E0,-2.960662842E-1,-9.323699951E0,-3.077285767E0
3.622212401E0,-1.020660400E-1,-9.539489746E0,-3.053161621E0
3.627186766E0,1.606140137E-1,-9.647125244E0,-2.927093506E0
3.632161131E0,3.972778320E-1,-9.694396973E0,-2.734252930E0
3.637135497E0,5.878753662E-1,-9.661849976E0,-2.468429565E0
3.642109862E0,6.186828613E-1,-9.565261841E0,-2.178131104E0
3.647084227E0,4.042968750E-1,-9.462310791E0,-1.950775146E0
3.652058592E0,1.935729980E-1,-9.359710693E0,-1.768981934E0
3.657032958E0,-1.629638672E-2,-9.377197266E0,-1.619491577E0
3.662007323E0,-2.875823975E-1,-9.552734375E0,-1.548431396E0
3.666981688E0,-5.049133301E-1,-9.715423584E0,-1.495437622E0
3.671956053E0,-6.567230225E-1,-9.785507202E0,-1.475631714E0
3.676930418E0,-6.882476807E-1,-9.818725586E0,-1.507614136E0
3.681904784E0,-7.063446045E-1,-9.880950928E0,-1.627471924E0
3.686879149E0,-7.378387451E-1,-9.959152222E0,-1.812423706E0
3.691853514E0,-8.165588379E-1,-1.004988098E1,-2.051559448E0
3.696827879E0,-8.830871582E-1,-1.013287354E1,-2.283508301E0
3.701802245E0,-9.091186523E-1,-1.018704224E1,-2.473541260E0
3.706776610E0,-9.507598877E-1,-1.023240662E1,-2.595947266E0
3.711750975E0,-9.630889893E-1,-1.029899597E1,-2.657501221E0
3.716725340E0,-9.228363037E-1,-1.037248230E1,-2.762313843E0
3.721699706E0,-8.737640381E-1,-1.040950012E1,-2.912551880E0
3.726674071E0,-7.937622070E-1,-1.040528870E1,-3.034408569E0
3.731648436E0,-6.780853271E-1,-1.033451843E1,-3.124389648E0
3.736622801E0,-5.346984863E-1,-1.018814087E1,-3.147338867E0
3.741597167E0,-3.680419922E-1,-1.002362061E1,-3.092773438E0
3.746571532E0,-2.644195557E-1,-9.851242065E0,-2.999267578E0
3.751545897E0,-2.226867676E-1,-9.770324707E0,-2.900497437E0
3.756520262E0,-1.074218750E-1,-9.654678345E0,-2.765060425E0
3.761494627E0,-1.292114258E-1,-9.543762207E0,-2.646224976E0
3.766468993E0,-1.634826660E-1,-9.508682251E0,-2.503692627E0
3.771443358E0,-1.348114014E-1,-9.451950073E0,-2.316955566E0
3.776417723E0,-1.486053467E-1,-9.417877197E0,-2.114669800E0
3.781392088E0,-2.732391357E-1,-9.477890015E0,-1.989608765E0
3.786366454E0,-4.272003174E-1,-9.583282471E0,-1.783401489E0
3.791340819E0,-3.060150146E-1,-9.631011963E0,-1.676528931E0
3.796315184E0,-1.876525879E-1,-9.534881592E0,-1.659164429E0
3.801289549E0,-3.209838867E-1,-9.504058838E0,-1.764953613E0
3.806263915E0,-5.734558105E-1,-9.549835205E0,-1.796966553E0
3.811238280E0,-5.978546143E-1,-9.521087646E0,-1.831130981E0
3.816212645E0,-5.543518066E-1,-9.478179932E0,-1.877548218E0
3.821187010E0,-4.951477051E-1,-9.500335693E0,-2.090560913E0
3.826161376E0,-4.632720947E-1,-9.582031250E0,-2.285186768E0
3.831135741E0,-3.830413818E-1,-9.677230835E0,-2.487930298E0
3.836110106E0,-3.027343750E-1,-9.733825684E0,-2.628799438E0
3.841084471E0,-2.986297607E-1,-9.755889893E0,-2.741989136E0
3.846058836E0,-3.366851807E-1,-9.804763794E0,-2.796875000E0
3.851033202E0,-4.559173584E-1,-9.887237549E0,-2.775283813E0
3.856007567E0,-4.958496094E-1,-9.939910889E0,-2.660095215E0
3.860981932E0,-4.270172119E-1,-9.881225586E0,-2.518112183E0
3.865956297E0,-3.605194092E-1,-9.797195435E0,-2.434936523E0
3.870930663E0,-3.521728516E-1,-9.717483521E0,-2.360443115E0
3.875905028E0,-3.498840332E-1,-9.631622314E0,-2.249176025E0
3.880879393E0,-2.516326904E-1,-9.552856445E0,-2.112594604E0
3.885853758E0,-1.535186768E-1,-9.502868652E0,-2.027496338E0
3.890828124E0,-1.069335938E-1,-9.497009277E0,-1.972900391E0
3.895802489E0,-6.262207031E-2,-9.505538940E0,-1.890457153E0
3.900776854E0,-1.866149902E-2,-9.501663208E0,-1.761474609E0
3.905751219E0,1.046295166E-1,-9.430221558E0,-1.662628174E0
3.910725584E0,6.388854980E-2,-9.428771973E0,-1.614181519E0
3.915699950E0,-2.825469971E-1,-9.635299683E0,-1.543548584E0
3.920674315E0,-5.630187988E-1,-9.828399658E0,-1.429275513E0
3.925648680E0,-5.861206055E-1,-9.834564209E0,-1.384689331E0
3.930623045E0,-4.523773193E-1,-9.775543213E0,-1.469635010E0
3.935597411E0,-3.104248047E-1,-9.699829102E0,-1.591476440E0
3.940571776E0,-2.267150879E-1,-9.666992188E0,-1.666519165E0
3.945546141E0,-9.143066406E-2,-9.583236694E0,-1.839233398E0
3.950520506E0,3.921508789E-3,-9.508575439E0,-1.986099243E0
3.955494872E0,-2.513122559E-2,-9.441986084E0,-2.104782104E0
3.960469237E0,-1.162719727E-1,-9.379821777E0,-2.174835205E0
3.965443602E0,-2.780456543E-1,-9.358810425E0,-2.227676392E0
3.970417967E0,-3.668365479E-1,-9.274261475E0,-2.316284180E0
3.975392333E0,-4.699859619E-1,-9.223663330E0,-2.467788696E0
3.980366698E0,-6.873168945E-1,-9.204574585E0,-2.658157349E0
3.985341063E0,-9.034576416E-1,-9.166000366E0,-2.697357178E0
3.990315428E0,-7.552032471E-1,-9.268737793E0,-2.713912964E0
3.995289793E0,-9.500579834E-1,-9.532302856E0,-2.822372437E0
4.000264159E0,-1.153793335E0,-9.759445190E0,-2.926284790E0
4.005238524E0,-1.137252808E0,-9.904754639E0,-2.796981812E0
4.010212889E0,-9.447021484E-1,-1.003468323E1,-2.604171753E0
4.015187254E0,-7.413940430E-1,-1.007530212E1,-2.502075195E0
4.020161620E0,-5.162658691E-1,-1.010249329E1,-2.373184204E0
4.025135985E0,-2.465820312E-1,-1.008348083E1,-2.214675903E0
4.030110350E0,5.966186523E-3,-1.001637268E1,-2.006179810E0
4.035084715E0,1.719665527E-1,-9.940902710E0,-1.789718628E0
4.040059081E0,2.480163574E-1,-9.857421875E0,-1.592895508E0
4.045033446E0,2.871856689E-1,-9.823608398E0,-1.412353516E0
4.050007811E0,2.043762207E-1,-9.815734863E0,-1.258499146E0
4.054982176E0,4.934692383E-2,-9.806869507E0,-1.192672729E0
4.059956542E0,-9.747314453E-2,-9.808685303E0,-1.208511353E0
4.064930907E0,-2.367858887E-1,-9.761398315E0,-1.312881470E0
4.069905272E0,-4.148864746E-1,-9.734390259E0,-1.453048706E0
4.074879637E0,-6.028594971E-1,-9.647293091E0,-1.605621338E0
4.079854002E0,-6.797943115E-1,-9.538085938E0,-1.817459106E0
4.084828368E0,-6.756896973E-1,-9.410919189E0,-2.044067383E0
4.089802733E0,-5.518188477E-1,-9.216964722E0,-2.264190674E0
4.094777098E0,-3.898773193E-1,-9.040512085E0,-2.522460938E0
4.099751463E0,-3.162384033E-1,-8.957672119E0,-2.791687012E0
4.104725829E0,-3.196716309E-1,-8.934295654E0,-3.018920898E0
4.109700194E0,-4.157562256E-1,-8.984664917E0,-3.178482056E0
4.114674559E0,-5.168609619E-1,-9.097137451E0,-3.219161987E0
4.119648924E0,-5.651855469E-1,-9.167114258E0,-3.094863892E0
4.124623290E0,-5.275573730E-1,-9.195785522E0,-2.965499878E0
4.129597655E0,-4.973297119E-1,-9.282928467E0,-2.790573120E0
4.134572020E0,-4.559020996E-1,-9.393310547E0,-2.580688477E0
4.139546385E0,-4.992980957E-1,-9.476730347E0,-2.430831909E0
4.144520751E0,-5.723266602E-1,-9.567153931E0,-2.353668213E0
4.149495116E0,-6.851654053E-1,-9.637786865E0,-2.277450562E0
4.154469481E0,-8.478088379E-1,-9.735839844E0,-2.281707764E0
4.159443846E0,-1.058532715E0,-9.801773071E0,-2.340347290E0
4.164418211E0,-1.314758301E0,-9.907943726E0,-2.457931519E0
4.169392577E0,-1.452743530E0,-9.935440063E0,-2.647369385E0
4.174366942E0,-1.783264160E0,-1.016926575E1,-2.980224609E0
4.179341307E0,-1.989959717E0,-1.030181885E1,-3.061416626E0
4.184315672E0,-1.911849976E0,-1.027185059E1,-2.935806274E0
4.189290038E0,-1.510147095E0,-1.022700500E1,-2.742828369E0
4.194264403E0,-1.062347412E0,-1.014112854E1,-2.530242920E0
4.199238768E0,-7.505187988E-1,-1.007736206E1,-2.352874756E0
4.204213133E0,-5.139465332E-1,-1.000718689E1,-2.197326660E0
4.209187499E0,-5.641021729E-1,-9.977523804E0,-2.054367065E0
4.214161864E0,-7.494506836E-1,-9.933013916E0,-1.938339233E0
4.219136229E0,-9.731140137E-1,-9.974594116E0,-1.820098877E0
4.224110594E0,-1.011199951E0,-1.000895691E1,-1.628921509E0
4.229084959E0,-1.070159912E0,-1.004660034E1,-1.574081421E0
4.234059325E0,-1.002014160E0,-1.006251526E1,-1.638290405E0
4.239033690E0,-7.087554932E-1,-1.003984070E1,-1.652786255E0
4.244008055E0,-4.274597168E-1,-1.001152039E1,-1.699172974E0
4.248982420E0,-7.580566406E-2,-9.965347290E0,-1.756179810E0
4.253956786E0,5.594024658E-1,-9.831954956E0,-1.828018188E0
4.258931151E0,1.204925537E0,-9.704406738E0,-1.901916504E0
4.263905516E0,1.695709229E0,-9.544555664E0,-1.935821533E0
4.268879881E0,2.236114502E0,-9.351165771E0,-1.953338623E0
4.273854247E0,2.708908081E0,-9.185394287E0,-1.968185425E0
4.278828612E0,2.864227295E0,-9.081253052E0,-1.964233398E0
4.283802977E0,2.724624634E0,-9.018035889E0,-1.926010132E0
4.288777342E0,2.443618774E0,-9.009201050E0,-1.859786987E0
4.293751708E0,2.190338135E0,-9.024307251E0,-1.782501221E0
4.298726073E0,2.005493164E0,-9.045761108E0,-1.765747070E0
4.303700438E0,1.776046753E0,-9.075195312E0,-1.797546387E0
4.308674803E0,1.615310669E0,-9.069244385E0,-1.860397339E0
4.313649168E0,1.533935547E0,-9.036529541E0,-1.936065674E0
4.318623534E0,1.405685425E0,-9.008758545E0,-2.066864014E0
4.323597899E0,1.295547485E0,-8.969192505E0,-2.186401367E0
4.328572264E0,1.178009033E0,-8.965805054E0,-2.292907715E0
4.333546629E0,1.177444458E0,-8.941146851E0,-2.362350464E0
4.338520995E0,1.158935547E0,-8.902862549E0,-2.413650513E0
4.343495360E0,1.193908691E0,-8.931961060E0,-2.430694580E0
4.348469725E0,1.110610962E0,-8.975601196E0,-2.438552856E0
4.353444090E0,1.041839600E0,-9.055877686E0,-2.463973999E0
4.358418456E0,9.431762695E-1,-9.150863647E0,-2.451553345E0
4.363392821E0,7.462768555E-1,-9.297363281E0,-2.525299072E0
4.368367186E0,5.294494629E-1,-9.454483032E0,-2.550216675E0
4.373341551E0,3.761901855E-1,-9.613739014E0,-2.491760254E0
4.378315917E0,3.008422852E-1,-9.717514038E0,-2.395980835E0
4.383290282E0,2.925567627E-1,-9.767578125E0,-2.320358276E0
4.388264647E0,2.451782227E-1,-9.801971436E0,-2.165374756E0
4.393239012E0,1.487426758E-1,-9.816253662E0,-2.059906006E0
4.398213377E0,8.984375000E-2,-9.815475464E0,-1.967056274E0
4.403187743E0,-2.188110352E-2,-9.820907593E0,-1.933731079E0
4.408162108E0,-6.036376953E-2,-9.810821533E0,-1.888977051E0
4.413136473E0,-1.071929932E-1,-9.783096313E0,-1.826736450E0
4.418110838E0,-1.496429443E-1,-9.779037476E0,-1.755432129E0
4.423085204E0,-1.471557617E-1,-9.766540527E0,-1.650939941E0
4.428059569E0,-1.119537354E-1,-9.760772705E0,-1.568145752E0
4.433033934E0,-6.446838379E-2,-9.747955322E0,-1.499176025E0
4.438008299E0,2.400207520E-2,-9.717819214E0,-1.456100464E0
4.442982665E0,9.617614746E-2,-9.679901123E0,-1.465438843E0
4.447957030E0,8.526611328E-2,-9.635421753E0,-1.508255005E0
4.452931395E0,-2.861022949E-2,-9.613555908E0,-1.596115112E0
4.457905760E0,-2.133483887E-1,-9.655685425E0,-1.677795410E0
4.462880126E0,-4.242095947E-1,-9.727874756E0,-1.762939453E0
4.467854491E0,-7.470855713E-1,-9.769241333E0,-1.884460449E0
4.472828856E0,-1.232406616E0,-9.844390869E0,-2.037979126E0
4.477803221E0,-1.510452271E0,-9.912689209E0,-2.107971191E0
4.482777586E0,-1.290878296E0,-9.863098145E0,-2.134414673E0
4.487751952E0,-9.648132324E-1,-9.772140503E0,-2.207519531E0
4.492726317E0,-8.355255127E-1,-9.676559448E0,-2.282028198E0
4.497700682E0,-8.017883301E-1,-9.583648682E0,-2.360061646E0
4.502675047E0,-7.702636719E-1,-9.502334595E0,-2.434738159E0
4.507649413E0,-6.776123047E-1,-9.381668091E0,-2.531646729E0
4.512623778E0,-5.269927979E-1,-9.227737427E0,-2.578964233E0
4.517598143E0,-3.359680176E-1,-9.091583252E0,-2.534637451E0
4.522572508E0,-1.472778320E-1,-8.989593506E0,-2.464843750E0
4.527546874E0,2.677917480E-2,-8.933105469E0,-2.368972778E0
4.532521239E0,1.738128662E-1,-8.917938232E0,-2.289199829E0
4.537495604E0,4.348297119E-1,-8.877349854E0,-2.180145264E0
4.542469969E0,8.066253662E-1,-8.783554077E0,-2.094390869E0
4.547444334E0,9.620361328E-1,-8.764221191E0,-2.103698730E0
4.552418700E0,1.071029663E0,-8.885025024E0,-2.170730591E0
4.557393065E0,1.174392700E0,-9.008926392E0,-2.204589844E0
4.562367430E0,1.063018799E0,-9.156753540E0,-2.203689575E0
4.567341795E0,8.286743164E-1,-9.406982422E0,-2.231689453E0
4.572316161E0,4.729461670E-1,-9.597793579E0,-2.240539551E0
4.577290526E0,1.860046387E-2,-9.804046631E0,-2.234176636E0
4.582264891E0,-2.836456299E-1,-9.987152100E0,-2.171844482E0
4.587239256E0,-2.550964355E-1,-1.009480286E1,-2.046417236E0
4.592213622E0,2.626037598E-2,-1.002455139E1,-1.920135498E0
4.597187987E0,3.374023438E-1,-9.931121826E0,-1.880218506E0
4.602162352E0,4.517669678E-1,-9.844512939E0,-1.817535400E0
4.607136717E0,3.718261719E-1,-9.773803711E0,-1.762298584E0
4.612111083E0,1.237335205E-1,-9.756774902E0,-1.741394043E0
4.617085448E0,-1.648559570E-1,-9.751907349E0,-1.696365356E0
4.622059813E0,-5.182037354E-1,-9.746826172E0,-1.659149170E0
4.627034178E0,-9.354858398E-1,-9.757247925E0,-1.615188599E0
4.632008543E0,-1.241348267E0,-9.745437622E0,-1.580993652E0
4.636982909E0,-1.420578003E0,-9.696578979E0,-1.602081299E0
4.641957274E0,-1.531799316E0,-9.638641357E0,-1.680984497E0
4.646931639E0,-1.585479736E0,-9.585861206E0,-1.774780273E0
4.651906004E0,-1.551055908E0,-9.545501709E0,-1.872848511E0
4.656880370E0,-1.414810181E0,-9.519943237E0,-1.955368042E0
4.661854735E0,-1.188354492E0,-9.507553101E0,-2.049835205E0
4.666829100E0,-1.053451538E0,-9.517105103E0,-2.177429199E0
4.671803465E0,-1.067794800E0,-9.584503174E0,-2.333557129E0
4.676777831E0,-1.116271973E0,-9.631317139E0,-2.493515015E0
4.681752196E0,-1.156478882E0,-9.679412842E0,-2.616714478E0
4.686726561E0,-1.215194702E0,-9.731384277E0,-2.727233887E0
4.691700926E0,-1.276885986E0,-9.755294800E0,-2.826126099E0
4.696675292E0,-1.276168823E0,-9.759170532E0,-2.866958618E0
4.701649657E0,-1.240829468E0,-9.757293701E0,-2.879760742E0
4.706624022E0,-1.166595459E0,-9.727661133E0,-2.868225098E0
4.711598387E0,-1.063171387E0,-9.692871094E0,-2.841049194E0
4.716572752E0,-9.696655273E-1,-9.639984131E0,-2.716766357E0
4.721547118E0,-8.534393311E-1,-9.642974854E0,-2.536300659E0
4.726521483E0,-7.655029297E-1,-9.670684814E0,-2.405914307E0
4.731495848E0,-6.707916260E-1,-9.697875977E0,-2.247085571E0
4.736470213E0,-6.353759766E-1,-9.736450195E0,-2.085189819E0
4.741444579E0,-4.655609131E-1,-9.759048462E0,-1.894744873E0
4.746418944E0,-3.580322266E-1,-9.785995483E0,-1.775192261E0
4.751393309E0,-2.936401367E-1,-9.812423706E0,-1.711090088E0
4.756367674E0,-2.249450684E-1,-9.826309204E0,-1.598724365E0
4.761342040E0,-1.613159180E-1,-9.855117798E0,-1.465927124E0
4.766316405E0,-1.441497803E-1,-9.831527710E0,-1.371856689E0
4.771290770E0,-1.345977783E-1,-9.796798706E0,-1.273620605E0
4.776265135E0,-1.773986816E-1,-9.767669678E0,-1.290603638E0
4.781239501E0,-2.528991699E-1,-9.781478882E0,-1.330001831E0
4.786213866E0,-3.263549805E-1,-9.813491821E0,-1.430557251E0
4.791188231E0,-4.556884766E-1,-9.829498291E0,-1.570358276E0
4.796162596E0,-5.614624023E-1,-9.877410889E0,-1.712600708E0
4.801136961E0,-6.908874512E-1,-9.936950684E0,-1.877883911E0
4.806111327E0,-8.111877441E-1,-9.986007690E0,-2.018630981E0
4.811085692E0,-8.996582031E-1,-1.002983093E1,-2.115554810E0
4.816060057E0,-9.751586914E-1,-1.007629395E1,-2.187408447E0
4.821034422E0,-1.021881104E0,-1.012570190E1,-2.232604980E0
4.826008788E0,-1.025909424E0,-1.012467957E1,-2.268783569E0
4.830983153E0,-9.879455566E-1,-1.008808899E1,-2.291641235E0
4.835957518E0,-9.670562744E-1,-1.003813171E1,-2.286071777E0
4.840931883E0,-9.636688232E-1,-9.998046875E0,-2.246566772E0
4.845906249E0,-9.996948242E-1,-9.970443726E0,-2.177917480E0
4.850880614E0,-9.967346191E-1,-9.927703857E0,-2.093963623E0
4.855854979E0,-9.520111084E-1,-9.833862305E0,-2.006668091E0
4.860829344E0,-9.072875977E-1,-9.765945435E0,-1.962005615E0
4.865803709E0,-8.121643066E-1,-9.688659668E0,-1.919799805E0
4.870778075E0,-7.118988037E-1,-9.596649170E0,-1.910568237E0
4.875752440E0,-6.540222168E-1,-9.478317261E0,-1.937225342E0
4.880726805E0,-5.359344482E-1,-9.359939575E0,-1.960311890E0
4.885701170E0,-4.142456055E-1,-9.227081299E0,-2.034561157E0
4.890675536E0,-3.145599365E-1,-9.087249756E0,-2.150344849E0
4.895649901E0,-2.203674316E-1,-8.931091309E0,-2.267761230E0
4.900624266E0,-1.089019775E-1,-8.809799194E0,-2.403335571E0
4.905598631E0,-2.061462402E-2,-8.719787598E0,-2.545242310E0
4.910572997E0,1.791381836E-2,-8.676681519E0,-2.687515259E0
4.915547362E0,8.056640625E-2,-8.661865234E0,-2.831985474E0
4.920521727E0,9.494018555E-2,-8.640426636E0,-2.968475342E0
4.925496092E0,1.070861816E-1,-8.611358643E0,-3.089431763E0
4.930470458E0,7.867431641E-2,-8.608230591E0,-3.214431763E0
4.935444823E0,2.107238770E-2,-8.609786987E0,-3.355072021E0
4.940419188E0,9.704589844E-3,-8.582702637E0,-3.431854248E0
4.945393553E0,-8.244323730E-2,-8.695617676E0,-3.517471313E0
4.950367918E0,-2.073516846E-1,-8.804931641E0,-3.528411865E0
4.955342284E0,-2.819366455E-1,-8.943634033E0,-3.448669434E0
4.960316649E0,-3.078918457E-1,-9.059387207E0,-3.249954224E0
4.965291014E0,-3.056182861E-1,-9.176239014E0,-2.982101440E0
4.970265379E0,-3.183593750E-1,-9.265991211E0,-2.687225342E0
4.975239745E0,-2.999572754E-1,-9.368682861E0,-2.388519287E0
4.980214110E0,-3.017883301E-1,-9.509140015E0,-2.083068848E0
4.985188475E0,-3.017883301E-1,-9.651229858E0,-1.770187378E0
4.990162840E0,-3.010559082E-1,-9.735900879E0,-1.516632080E0
4.995137206E0,-3.002166748E-1,-9.785095215E0,-1.286743164E0
5.000111571E0,-3.070373535E-1,-9.860214233E0,-1.063476562E0
5.005085936E0,-3.245544434E-1,-9.958694458E0,-8.716583252E-1
5.010060301E0,-3.625183105E-1,-1.005278015E1,-7.059783936E-1
5.015034667E0,-4.102172852E-1,-1.012440491E1,-6.078796387E-1
5.020009032E0,-4.307250977E-1,-1.017558289E1,-5.963897705E-1
5.024983397E0,-4.667053223E-1,-1.020539856E1,-6.430664062E-1
5.029957762E0,-4.617767334E-1,-1.022755432E1,-7.551574707E-1
5.034932127E0,-4.574127197E-1,-1.026632690E1,-9.357299805E-1
5.039906493E0,-4.647216797E-1,-1.031417847E1,-1.132766724E0
5.044880858E0,-4.525299072E-1,-1.034068298E1,-1.341201782E0
5.049855223E0,-4.058837891E-1,-1.034994507E1,-1.560302734E0
5.054829588E0,-3.814849854E-1,-1.035572815E1,-1.784667969E0
5.059803954E0,-3.782653809E-1,-1.035089111E1,-1.974624634E0
5.064778319E0,-3.233947754E-1,-1.036138916E1,-2.131042480E0
5.069752684E0,-2.947387695E-1,-1.032998657E1,-2.272140503E0
5.074727049E0,-2.940368652E-1,-1.028756714E1,-2.369445801E0
5.079701415E0,-2.833251953E-1,-1.021446228E1,-2.400177002E0
5.084675780E0,-2.957916260E-1,-1.015823364E1,-2.368301392E0
5.089650145E0,-3.114929199E-1,-1.004246521E1,-2.293701172E0
5.094624510E0,-3.760528564E-1,-9.897781372E0,-2.233459473E0
5.099598876E0,-4.881134033E-1,-9.789077759E0,-2.155670166E0
5.104573241E0,-5.575256348E-1,-9.697036743E0,-2.125244141E0
5.109547606E0,-6.190490723E-1,-9.579177856E0,-2.084915161E0
5.114521971E0,-5.944366455E-1,-9.509582520E0,-2.115264893E0
5.119496336E0,-5.290985107E-1,-9.417007446E0,-2.197479248E0
5.124470702E0,-4.533081055E-1,-9.355560303E0,-2.284103394E0
5.129445067E0,-3.885192871E-1,-9.289932251E0,-2.400283813E0
5.134419432E0,-3.544311523E-1,-9.238845825E0,-2.485992432E0
5.139393797E0,-3.582763672E-1,-9.225326538E0,-2.571151733E0
5.144368163E0,-3.963317871E-1,-9.222869873E0,-2.661132812E0
5.149342528E0,-4.436798096E-1,-9.220428467E0,-2.710021973E0
5.154316893E0,-4.934539795E-1,-9.219711304E0,-2.738677979E0
5.159291258E0,-5.407104492E-1,-9.225082397E0,-2.740142822E0
5.164265624E0,-6.057281494E-1,-9.223175049E0,-2.726806641E0
5.169239989E0,-6.496429443E-1,-9.223175049E0,-2.682800293E0
5.174214354E0,-6.814270020E-1,-9.219726562E0,-2.632598877E0
5.179188719E0,-7.160186768E-1,-9.221755981E0,-2.549896240E0
5.184163084E0,-7.307128906E-1,-9.265167236E0,-2.508117676E0
5.189137450E0,-8.019409180E-1,-9.327621460E0,-2.451950073E0
5.194111815E0,-8.501586914E-1,-9.383819580E0,-2.390075684E0
5.199086180E0,-8.768463135E-1,-9.442092896E0,-2.335235596E0
5.204060545E0,-9.040222168E-1,-9.522720337E0,-2.289367676E0
5.209034911E0,-9.267272949E-1,-9.599563599E0,-2.261169434E0
5.214009276E0,-9.250030518E-1,-9.658828735E0,-2.241653442E0
5.218983641E0,-9.084320068E-1,-9.705368042E0,-2.204559326E0
5.223958006E0,-9.055938721E-1,-9.738922119E0,-2.172515869E0
5.228932372E0,-8.913116455E-1,-9.760696411E0,-2.143203735E0
5.233906737E0,-9.050598145E-1,-9.774566650E0,-2.094635010E0
5.238881102E0,-9.282531738E-1,-9.790481567E0,-2.068481445E0
5.243855467E0,-9.413452148E-1,-9.778625488E0,-2.078414917E0
5.248829833E0,-9.454498291E-1,-9.768753052E0,-2.096374512E0
5.253804198E0,-9.774932861E-1,-9.775497437E0,-2.101760864E0
5.258778563E0,-1.006729126E0,-9.766021729E0,-2.124588013E0
5.263752928E0,-1.025207520E0,-9.761566162E0,-2.149246216E0
5.268727293E0,-1.057434082E0,-9.750289917E0,-2.154403687E0
5.273701659E0,-1.068984985E0,-9.716156006E0,-2.123336792E0
5.278676024E0,-1.059875488E0,-9.662887573E0,-2.108108521E0
5.283650389E0,-1.057907104E0,-9.641448975E0,-2.060897827E0
5.288624754E0,-1.049377441E0,-9.575424194E0,-1.989791870E0
5.293599120E0,-1.035156250E0,-9.545791626E0,-1.918395996E0
5.298573485E0,-1.009155273E0,-9.537048340E0,-1.872085571E0
5.303547850E0,-9.633636475E-1,-9.520324707E0,-1.811355591E0
5.308522215E0,-9.167327881E-1,-9.524673462E0,-1.757202148E0
5.313496581E0,-8.748016357E-1,-9.522476196E0,-1.716690063E0
5.318470946E0,-8.229217529E-1,-9.531402588E0,-1.724655151E0
5.323445311E0,-7.642364502E-1,-9.567214966E0,-1.748977661E0
5.328419676E0,-7.092437744E-1,-9.565673828E0,-1.832412720E0
5.333394042E0,-6.616210938E-1,-9.607986450E0,-1.920715332E0
5.338368407E0,-5.776519775E-1,-9.590042114E0,-2.026031494E0
5.343342772E0,-5.088500977E-1,-9.590148926E0,-2.068954468E0
5.348317137E0,-4.637451172E-1,-9.574539185E0,-2.135620117E0
5.353291502E0,-4.216308594E-1,-9.585479736E0,-2.183074951E0
5.358265868E0,-3.717651367E-1,-9.604690552E0,-2.219268799E0
5.363240233E0,-3.283081055E-1,-9.637954712E0,-2.236129761E0
5.368214598E0,-2.873535156E-1,-9.669494629E0,-2.252716064E0
5.373188963E0,-2.326660156E-1,-9.704544067E0,-2.274856567E0
5.378163329E0,-1.404724121E-1,-9.755996704E0,-2.281707764E0
5.383137694E0,-3.610229492E-2,-9.778732300E0,-2.285110474E0
5.388112059E0,7.038879395E-2,-9.779205322E0,-2.278442383E0
5.393086424E0,1.622924805E-1,-9.760757446E0,-2.283355713E0
5.398060790E0,2.279663086E-1,-9.727249146E0,-2.255340576E0
5.403035155E0,2.773895264E-1,-9.666885376E0,-2.215377808E0
5.408009520E0,2.989349365E-1,-9.609191895E0,-2.217025757E0
5.412983885E0,2.866363525E-1,-9.560928345E0,-2.234390259E0
5.417958251E0,2.707366943E-1,-9.542449951E0,-2.265075684E0
5.422932616E0,2.299041748E-1,-9.525436401E0,-2.285583496E0
5.427906981E0,1.720428467E-1,-9.537918091E0,-2.300552368E0
5.432881346E0,9.437561035E-2,-9.550994873E0,-2.353363037E0
5.437855711E0,2.166748047E-2,-9.580535889E0,-2.413024902E0
5.442830077E0,-4.382324219E-2,-9.599182129E0,-2.482284546E0
5.447804442E0,-1.241455078E-1,-9.610061646E0,-2.509033203E0
5.452778807E0,-1.664276123E-1,-9.600402832E0,-2.547576904E0
5.457753172E0,-2.635955811E-1,-9.623016357E0,-2.553085327E0
5.462727538E0,-3.148193359E-1,-9.653442383E0,-2.549652100E0
5.467701903E0,-3.995819092E-1,-9.674819946E0,-2.533081055E0
5.472676268E0,-5.388641357E-1,-9.713134766E0,-2.486450195E0
5.477650633E0,-6.266326904E-1,-9.735702515E0,-2.456161499E0
5.482624999E0,-6.852722168E-1,-9.748703003E0,-2.382705688E0
5.487599364E0,-7.553253174E-1,-9.758697510E0,-2.333740234E0
5.492573729E0,-8.078155518E-1,-9.763854980E0,-2.263824463E0
5.497548094E0,-8.234405518E-1,-9.763977051E0,-2.249908447E0
5.502522459E0,-8.253631592E-1,-9.766220093E0,-2.216232300E0
5.507496825E0,-8.113250732E-1,-9.761306763E0,-2.205047607E0
5.512471190E0,-8.120117188E-1,-9.756774902E0,-2.211441040E0
5.517445555E0,-8.441925049E-1,-9.756011963E0,-2.207290649E0
5.522419920E0,-8.424072266E-1,-9.744644165E0,-2.208770752E0
5.527394286E0,-8.833312988E-1,-9.712554932E0,-2.211257935E0
5.532368651E0,-9.541778564E-1,-9.704360962E0,-2.248382568E0
5.537343016E0,-1.005233765E0,-9.685134888E0,-2.266540527E0
5.542317381E0,-1.072601318E0,-9.638473511E0,-2.291458130E0
5.547291747E0,-1.157333374E0,-9.590377808E0,-2.330383301E0
5.552266112E0,-1.212310791E0,-9.538864136E0,-2.386047363E0
5.557240477E0,-1.276840210E0,-9.491867065E0,-2.450027466E0
5.562214842E0,-1.329254150E0,-9.451812744E0,-2.517837524E0
5.567189208E0,-1.360870361E0,-9.391052246E0,-2.607406616E0
5.572163573E0,-1.386230469E0,-9.304870605E0,-2.687316895E0
5.577137938E0,-1.389389038E0,-9.213958740E0,-2.753387451E0
5.582112303E0,-1.368850708E0,-9.100875854E0,-2.844268799E0
5.587086668E0,-1.319549561E0,-8.971801758E0,-2.955001831E0
5.592061034E0,-1.273269653E0,-8.861877441E0,-3.049316406E0
5.597035399E0,-1.210571289E0,-8.772171021E0,-3.104431152E0
5.602009764E0,-1.173080444E0,-8.707504272E0,-3.182815552E0
5.606984129E0,-1.173904419E0,-8.660888672E0,-3.273086548E0
5.611958495E0,-1.178512573E0,-8.627288818E0,-3.389144897E0
5.616932860E0,-1.197250366E0,-8.602661133E0,-3.522872925E0
5.621907225E0,-1.210250854E0,-8.562286377E0,-3.664947510E0
5.626881590E0,-1.242233276E0,-8.531265259E0,-3.804733276E0
5.631855956E0,-1.265029907E0,-8.515975952E0,-3.910751343E0
5.636830321E0,-1.275543213E0,-8.493148804E0,-4.019805908E0
5.641804686E0,-1.301879883E0,-8.451385498E0,-4.111816406E0
5.646779051E0,-1.297790527E0,-8.419891357E0,-4.142242432E0
5.651753417E0,-1.241989136E0,-8.375289917E0,-4.170669556E0
5.656727782E0,-1.210037231E0,-8.370590210E0,-4.194488525E0
5.661702147E0,-1.150207520E0,-8.321502686E0,-4.222793579E0
5.666676512E0,-1.034149170E0,-8.275207520E0,-4.224426270E0
5.671650877E0,-9.025726318E-1,-8.250930786E0,-4.248519897E0
5.676625243E0,-7.814636230E-1,-8.197052002E0,-4.289138794E0
5.681599608E0,-7.055969238E-1,-8.149948120E0,-4.312179565E0
5.686573973E0,-6.750640869E-1,-8.117691040E0,-4.291198730E0
5.691548338E0,-6.757507324E-1,-8.080902100E0,-4.280029297E0
5.696522704E0,-6.997222900E-1,-8.052139282E0,-4.225540161E0
5.701497069E0,-7.622070312E-1,-8.036743164E0,-4.120254517E0
5.706471434E0,-8.951721191E-1,-8.048294067E0,-4.010070801E0
5.711445799E0,-1.030441284E0,-8.119903564E0,-3.852844238E0
5.716420165E0,-1.159103394E0,-8.211135864E0,-3.787002563E0
5.721394530E0,-1.299453735E0,-8.301467896E0,-3.699081421E0
5.726368895E0,-1.332199097E0,-8.418426514E0,-3.671783447E0
5.731343260E0,-1.490051270E0,-8.664108276E0,-3.692855835E0
5.736317626E0,-1.781646729E0,-8.973617554E0,-3.823989868E0
5.741291991E0,-1.980743408E0,-9.298614502E0,-3.994064331E0
5.746266356E0,-2.131484985E0,-9.640304565E0,-4.157913208E0
5.751240721E0,-2.322769165E0,-9.923477173E0,-4.191802979E0
5.756215086E0,-2.482086182E0,-1.021974182E1,-4.064651489E0
5.761189452E0,-2.695114136E0,-1.043852234E1,-3.700759888E0
5.766163817E0,-3.228546143E0,-1.056892395E1,-3.491821289E0
5.771138182E0,-3.612548828E0,-1.089144897E1,-3.672027588E0
5.776112547E0,-3.273422241E0,-1.151223755E1,-3.477584839E0
5.781086913E0,-2.896362305E0,-1.182302856E1,-3.060607910E0
5.786061278E0,-2.847839355E0,-1.173738098E1,-2.975067139E0
5.791035643E0,-2.873580933E0,-1.158033752E1,-2.995910645E0
5.796010008E0,-2.822875977E0,-1.135655212E1,-3.136215210E0
5.800984374E0,-3.162689209E0,-1.103450012E1,-3.585372925E0
5.805958739E0,-3.739685059E0,-1.061567688E1,-4.301177979E0
5.810933104E0,-4.101852417E0,-1.023762512E1,-5.091949463E0
5.815907469E0,-4.052841187E0,-1.001655579E1,-5.595581055E0
5.820881834E0,-3.670120239E0,-9.934356689E0,-5.828475952E0
5.825856200E0,-2.993438721E0,-1.001698303E1,-5.659301758E0
5.830830565E0,-2.038162231E0,-1.015853882E1,-4.896255493E0
5.835804930E0,-9.080657959E-1,-1.018470764E1,-3.848281860E0
5.840779295E0,-7.597351074E-2,-1.044879150E1,-2.571914673E0
5.845753661E0,4.604492188E-1,-1.093566895E1,-1.083938599E0
5.850728026E0,8.596649170E-1,-1.120648193E1,-1.317443848E-1
5.855702391E0,1.141906738E0,-1.108596802E1,4.819488525E-1
5.860676756E0,1.145477295E0,-1.078503418E1,7.987976074E-1
5.865651122E0,1.157104492E0,-1.046862793E1,7.562408447E-1
5.870625487E0,1.083190918E0,-9.977233887E0,4.169921875E-1
5.875599852E0,1.138702393E0,-9.603637695E0,-4.153442383E-2
5.880574217E0,9.372711182E-1,-9.251663208E0,-8.379821777E-1
5.885548583E0,5.310516357E-1,-9.045623779E0,-1.795608521E0
5.890522948E0,1.516876221E-1,-8.825820923E0,-2.698730469E0
5.895497313E0,-1.200714111E-1,-8.682159424E0,-3.470993042E0
5.900471678E0,-2.636413574E-1,-8.610092163E0,-4.018005371E0
5.905446043E0,-2.681274414E-1,-8.523559570E0,-4.316162109E0
5.910420409E0,-1.928558350E-1,-8.396942139E0,-4.419418335E0
5.915394774E0,-1.508636475E-1,-8.280319214E0,-4.457824707E0
5.920369139E0,-1.889495850E-1,-8.134109497E0,-4.477767944E0
5.925343504E0,-2.639160156E-1,-8.001083374E0,-4.547943115E0
5.930317870E0,-3.087310791E-1,-7.898376465E0,-4.620101929E0
5.935292235E0,-3.648681641E-1,-7.867401123E0,-4.609390259E0
5.940266600E0,-3.649139404E-1,-7.841888428E0,-4.517425537E0
5.945240965E0,-4.226837158E-1,-7.786834717E0,-4.353805542E0
5.950215331E0,-5.725402832E-1,-7.754898071E0,-4.160354614E0
5.955189696E0,-7.602233887E-1,-7.760528564E0,-3.965499878E0
5.960164061E0,-9.853363037E-1,-7.770477295E0,-3.812393188E0
5.965138426E0,-1.243026733E0,-7.830963135E0,-3.729614258E0
5.970112792E0,-1.502471924E0,-7.947052002E0,-3.686843872E0
5.975087157E0,-1.721908569E0,-8.090652466E0,-3.623947144E0
5.980061522E0,-1.939834595E0,-8.247665405E0,-3.547454834E0
5.985035887E0,-2.140548706E0,-8.416671753E0,-3.505126953E0
5.990010252E0,-2.363479614E0,-8.617584229E0,-3.580902100E0
5.994984618E0,-2.544357300E0,-8.809478760E0,-3.877883911E0
5.999958983E0,-2.644668579E0,-8.933074951E0,-4.271224976E0
6.004933348E0,-2.705352783E0,-8.982925415E0,-4.706649780E0
6.009907713E0,-2.727798462E0,-8.948196411E0,-5.123565674E0
6.014882079E0,-2.687881470E0,-8.881546021E0,-5.482574463E0
6.019856444E0,-2.539047241E0,-8.765121460E0,-5.719497681E0
6.024830809E0,-2.354293823E0,-8.606124878E0,-5.823944092E0
6.029805174E0,-2.220077515E0,-8.426651001E0,-5.829498291E0
6.034779540E0,-2.124130249E0,-8.269317627E0,-5.748153687E0
6.039753905E0,-2.043823242E0,-8.167434692E0,-5.562530518E0
6.044728270E0,-1.846954346E0,-8.041931152E0,-5.303283691E0
6.049702635E0,-1.644622803E0,-7.918548584E0,-5.022628784E0
6.054677001E0,-1.465164185E0,-7.872940063E0,-4.679412842E0
6.059651366E0,-1.434051514E0,-7.789077759E0,-4.382751465E0
6.064625731E0,-1.424011230E0,-7.775192261E0,-4.194458008E0
6.069600096E0,-1.426803589E0,-7.719970703E0,-4.030853271E0
6.074574461E0,-1.517196655E0,-7.701965332E0,-3.894805908E0
6.079548827E0,-1.616027832E0,-7.672637939E0,-3.828109741E0
6.084523192E0,-1.870895386E0,-7.682128906E0,-3.818801880E0
6.089497557E0,-2.155899048E0,-7.766326904E0,-3.867050171E0
6.094471922E0,-2.781906128E0,-7.855957031E0,-4.036895752E0
6.099446288E0,-3.440536499E0,-8.037353516E0,-4.405410767E0
6.104420653E0,-4.060134888E0,-8.255874634E0,-4.921600342E0
6.109395018E0,-4.683273315E0,-8.524124146E0,-5.549148560E0
6.114369383E0,-5.304321289E0,-8.916091919E0,-6.221206665E0
6.119343749E0,-5.772750854E0,-9.384887695E0,-6.857589722E0
6.124318114E0,-5.932922363E0,-9.833084106E0,-7.388793945E0
6.129292479E0,-5.730102539E0,-1.012901306E1,-7.818847656E0
6.134266844E0,-5.263412476E0,-1.021882629E1,-8.161102295E0
6.139241209E0,-4.684265137E0,-1.011729431E1,-8.384811401E0
6.144215575E0,-4.146530151E0,-9.976257324E0,-8.443099976E0
6.149189940E0,-3.693771362E0,-9.933486938E0,-8.228012085E0
6.154164305E0,-3.333251953E0,-1.007185364E1,-7.666091919E0
6.159138670E0,-3.133300781E0,-1.038363647E1,-6.938980103E0
6.164113036E0,-2.945144653E0,-1.069857788E1,-6.230957031E0
6.169087401E0,-2.735397339E0,-1.101362610E1,-5.532928467E0
6.174061766E0,-2.491912842E0,-1.133714294E1,-4.764999390E0
6.179036131E0,-2.216308594E0,-1.155880737E1,-3.975875854E0
6.184010497E0,-2.000030518E0,-1.159582520E1,-3.202224731E0
6.188984862E0,-1.944763184E0,-1.142210388E1,-2.552780151E0
6.193959227E0,-1.785369873E0,-1.129132080E1,-1.998672485E0
6.198933592E0,-1.016342163E0,-1.097911072E1,-1.494750977E0
6.203907958E0,7.324218750E-3,-1.052194214E1,-9.568634033E-1
6.208882323E0,1.049835205E0,-1.011460876E1,-2.403106689E-1
6.213856688E0,1.914672852E0,-9.814804077E0,4.275512695E-1
6.218831053E0,2.568161011E0,-9.559631348E0,8.951263428E-1
6.223805418E0,2.896438599E0,-9.285797119E0,1.169509888E0
6.228779784E0,2.887588501E0,-8.991607666E0,1.044052124E0
6.233754149E0,2.508377075E0,-8.742141724E0,5.259094238E-1
6.238728514E0,2.070709229E0,-8.541320801E0,-1.710052490E-1
6.243702879E0,1.656616211E0,-8.374618530E0,-8.960266113E-1
6.248677245E0,1.300720215E0,-8.260925293E0,-1.729766846E0
6.253651610E0,1.012817383E0,-8.392883301E0,-2.435424805E0
6.258625975E0,7.698059082E-1,-8.785537720E0,-2.995407104E0
6.263600340E0,2.997131348E-1,-9.255065918E0,-3.436996460E0
6.268574706E0,4.701232910E-2,-9.615051270E0,-4.120712280E0
6.273549071E0,1.914520264E-1,-9.974029541E0,-4.639266968E0
6.278523436E0,3.082427979E-1,-1.037031555E1,-4.799850464E0
6.283497801E0,2.011413574E-1,-1.069070435E1,-4.953506470E0
6.288472167E0,2.127990723E-1,-1.095713806E1,-5.145202637E0
6.293446532E0,3.404846191E-1,-1.109646606E1,-5.462219238E0
6.298420897E0,5.484771729E-1,-1.112440491E1,-5.703765869E0
6.303395262E0,9.016113281E-1,-1.106492615E1,-5.780685425E0
6.308369627E0,1.249282837E0,-1.088954163E1,-5.821884155E0
6.313343993E0,1.532775879E0,-1.064036560E1,-5.799468994E0
6.318318358E0,1.893997192E0,-1.032150269E1,-5.703948975E0
6.323292723E0,2.236175537E0,-9.978179932E0,-5.553070068E0
6.328267088E0,2.392395020E0,-9.621459961E0,-5.415512085E0
6.333241454E0,2.510726929E0,-9.297286987E0,-5.231460571E0
6.338215819E0,2.616363525E0,-9.048187256E0,-4.894454956E0
6.343190184E0,2.668334961E0,-8.866012573E0,-4.443664551E0
6.348164549E0,2.587570190E0,-8.743850708E0,-3.982070923E0
6.353138915E0,2.398605347E0,-8.555557251E0,-3.572387695E0
6.358113280E0,2.150619507E0,-8.261627197E0,-2.970062256E0
6.363087645E0,1.853042603E0,-8.001068115E0,-2.110427856E0
6.368062010E0,1.360290527E0,-7.818084717E0,-1.513671875E0
6.373036376E0,7.448730469E-1,-7.692092896E0,-1.469314575E0
6.378010741E0,4.916381836E-2,-7.532257080E0,-1.936645508E0
6.382985106E0,-3.449401855E-1,-7.412048340E0,-2.632431030E0
6.387959471E0,-5.404052734E-1,-7.399139404E0,-3.599151611E0
6.392933836E0,-1.289459229E0,-7.124679565E0,-3.963165283E0
6.397908202E0,-9.172058105E-1,-6.927429199E0,-4.126281738E0
6.402882567E0,1.061096191E-1,-6.958038330E0,-4.377731323E0
6.407856932E0,1.007919312E0,-7.343704224E0,-4.590835571E0
6.412831297E0,1.519180298E0,-7.799255371E0,-4.664489746E0
6.417805663E0,1.617492676E0,-8.157257080E0,-5.022750854E0
6.422780028E0,1.548873901E0,-8.526168823E0,-5.336181641E0
6.427754393E0,1.642440796E0,-8.892395020E0,-5.907562256E0
6.432728758E0,1.623474121E0,-9.162445068E0,-6.574462891E0
6.437703124E0,1.458755493E0,-9.347946167E0,-6.868698120E0
6.442677489E0,1.650009155E0,-9.540069580E0,-6.670196533E0
6.447651854E0,1.914352417E0,-9.703872681E0,-5.978195190E0
6.452626219E0,2.004165649E0,-9.768218994E0,-5.203720093E0
6.457600584E0,2.066421509E0,-9.757217407E0,-4.486831665E0
6.462574950E0,1.954177856E0,-9.716201782E0,-3.854965210E0
6.467549315E0,1.476226807E0,-9.517791748E0,-3.550094604E0
6.472523680E0,1.054595947E0,-9.215774536E0,-3.427642822E0
6.477498045E0,6.844177246E-1,-8.891677856E0,-3.493652344E0
6.482472411E0,4.430694580E-1,-8.547470093E0,-3.620712280E0
6.487446776E0,9.835815430E-2,-8.277160645E0,-3.658615112E0
6.492421141E0,-1.474609375E-1,-8.098159790E0,-3.698211670E0
6.497395506E0,-3.553161621E-1,-7.987762451E0,-3.721267700E0
6.502369872E0,-4.744415283E-1,-7.921905518E0,-3.764892578E0
6.507344237E0,-6.010437012E-1,-7.938873291E0,-3.721176147E0
6.512318602E0,-7.142639160E-1,-7.955444336E0,-3.711090088E0
6.517292967E0,-7.080383301E-1,-8.042861938E0,-3.652648926E0
6.522267333E0,-6.873931885E-1,-8.173294067E0,-3.646774292E0
6.527241698E0,-6.967468262E-1,-8.290939331E0,-3.752532959E0
6.532216063E0,-7.583770752E-1,-8.414367676E0,-3.939590454E0
6.537190428E0,-8.043670654E-1,-8.564773560E0,-4.156127930E0
6.542164793E0,-8.703002930E-1,-8.668304443E0,-4.315078735E0
6.547139159E0,-9.818115234E-1,-8.725372314E0,-4.425918579E0
6.552113524E0,-1.051605225E0,-8.722640991E0,-4.518829346E0
6.557087889E0,-1.064559937E0,-8.660247803E0,-4.587799072E0
6.562062254E0,-1.062698364E0,-8.537673950E0,-4.561172485E0
6.567036620E0,-1.077056885E0,-8.342636108E0,-4.529678345E0
6.572010985E0,-1.104110718E0,-8.088760376E0,-4.486694336E0
6.576985350E0,-1.150695801E0,-7.825775146E0,-4.466537476E0
6.581959715E0,-1.194183350E0,-7.602096558E0,-4.428329468E0
6.586934081E0,-1.227951050E0,-7.415466309E0,-4.413757324E0
6.591908446E0,-1.290420532E0,-7.257431030E0,-4.411315918E0
6.596882811E0,-1.404922485E0,-7.097457886E0,-4.424621582E0
6.601857176E0,-1.481262207E0,-6.939620972E0,-4.429611206E0
6.606831542E0,-1.589965820E0,-6.777572632E0,-4.408920288E0
6.611805907E0,-1.718338013E0,-6.645904541E0,-4.393035889E0
6.616780272E0,-1.781539917E0,-6.520568848E0,-4.393920898E0
6.621754637E0,-1.803634644E0,-6.374877930E0,-4.348342896E0
6.626729002E0,-1.804473877E0,-6.288726807E0,-4.240585327E0
6.631703368E0,-1.768875122E0,-6.214782715E0,-4.075515747E0
6.636677733E0,-1.597534180E0,-6.163635254E0,-3.859085083E0
6.641652098E0,-1.435638428E0,-6.121032715E0,-3.760406494E0
6.646626463E0,-1.269943237E0,-6.055328369E0,-3.730422974E0
6.651600829E0,-1.073547363E0,-5.887039185E0,-3.717071533E0
6.656575194E0,-9.714355469E-1,-5.661315918E0,-3.655059814E0
6.661549559E0,-9.531250000E-1,-5.253860474E0,-3.476364136E0
6.666523924E0,-8.368225098E-1,-4.698226929E0,-3.338745117E0
6.671498290E0,-7.364654541E-1,-4.037338257E0,-3.275894165E0
6.676472655E0,-9.980773926E-1,-3.384429932E0,-3.275024414E0
6.681447020E0,-1.347854614E0,-2.904342651E0,-3.386032104E0
6.686421385E0,-1.708694458E0,-2.698883057E0,-3.690628052E0
6.691395751E0,-1.939880371E0,-2.694488525E0,-3.890869141E0
6.696370116E0,-2.212921143E0,-2.952484131E0,-3.809799194E0
6.701344481E0,-2.709716797E0,-3.646865845E0,-3.768859863E0
6.706318846E0,-3.252487183E0,-4.495986938E0,-3.801101685E0
6.711293211E0,-3.525100708E0,-5.199691772E0,-3.840209961E0
6.716267577E0,-3.557388306E0,-5.701553345E0,-3.963363647E0
6.721241942E0,-3.274414062E0,-6.089645386E0,-4.035049438E0
6.726216307E0,-2.820861816E0,-6.425613403E0,-4.066619873E0
6.731190672E0,-2.355239868E0,-6.810317993E0,-4.141021729E0
6.736165038E0,-1.914367676E0,-7.279327393E0,-4.171737671E0
6.741139403E0,-1.441009521E0,-7.796890259E0,-4.112579346E0
6.746113768E0,-9.425201416E-1,-8.355468750E0,-3.966354370E0
6.751088133E0,-4.634094238E-1,-8.865356445E0,-3.853546143E0
6.756062499E0,-2.685546875E-3,-9.270248413E0,-3.815017700E0
6.761036864E0,4.419860840E-1,-9.602584839E0,-3.667129517E0
6.766011229E0,8.656311035E-1,-9.830795288E0,-3.451766968E0
6.770985594E0,1.272003174E0,-1.001679993E1,-3.245864868E0
6.775959959E0,1.602294922E0,-1.005567932E1,-3.023437500E0
6.780934325E0,1.847640991E0,-1.003630066E1,-2.770156860E0
6.785908690E0,1.888488770E0,-9.919586182E0,-2.594894409E0
6.790883055E0,2.419937134E0,-9.600982666E0,-2.476928711E0
6.795857420E0,3.047973633E0,-9.157440186E0,-2.498321533E0
6.800831786E0,3.393264771E0,-8.793640137E0,-2.510253906E0
6.805806151E0,3.330123901E0,-8.447326660E0,-2.562149048E0
6.810780516E0,2.952758789E0,-8.106018066E0,-2.684921265E0
6.815754881E0,2.461471558E0,-7.706375122E0,-2.915756226E0
6.820729247E0,1.897140503E0,-7.267990112E0,-3.233230591E0
6.825703612E0,1.498825073E0,-6.837417603E0,-3.564895630E0
6.830677977E0,1.214752197E0,-6.519699097E0,-3.785903931E0
6.835652342E0,1.041961670E0,-6.388183594E0,-3.942291260E0
6.840626708E0,7.591857910E-1,-6.471984863E0,-4.178268433E0
6.845601073E0,3.160095215E-1,-6.753784180E0,-4.477142334E0
6.850575438E0,-1.568603516E-1,-7.147888184E0,-4.814086914E0
6.855549803E0,-8.867950439E-1,-7.565246582E0,-5.345932007E0
6.860524168E0,-1.592163086E0,-7.979248047E0,-5.831985474E0
6.865498534E0,-2.148239136E0,-8.306869507E0,-6.269241333E0
6.870472899E0,-2.526992798E0,-8.537200928E0,-6.519073486E0
6.875447264E0,-2.663650513E0,-8.717224121E0,-6.538009644E0
6.880421629E0,-2.593139648E0,-8.761337280E0,-6.339645386E0
6.885395995E0,-2.496780396E0,-8.745101929E0,-6.047729492E0
6.890370360E0,-2.395828247E0,-8.652160645E0,-5.740463257E0
6.895344725E0,-2.189514160E0,-8.524963379E0,-5.422515869E0
6.900319090E0,-1.851562500E0,-8.442443848E0,-5.172103882E0
6.905293456E0,-1.468856812E0,-8.350112915E0,-4.991760254E0
6.910267821E0,-1.079864502E0,-8.216751099E0,-4.820312500E0
6.915242186E0,-7.888946533E-1,-8.113510132E0,-4.637603760E0
6.920216551E0,-5.233459473E-1,-8.063796997E0,-4.466125488E0
6.925190917E0,-3.517608643E-1,-8.147186279E0,-4.380218506E0
6.930165282E0,-3.638000488E-1,-8.433776855E0,-4.459716797E0
6.935139647E0,-4.806518555E-1,-8.881851196E0,-4.684051514E0
6.940114012E0,-6.398162842E-1,-9.409286499E0,-4.988265991E0
6.945088377E0,-8.129730225E-1,-9.862136841E0,-5.407348633E0
6.950062743E0,-8.839263916E-1,-1.020008850E1,-5.917816162E0
6.955037108E0,-7.986907959E-1,-1.032673645E1,-6.484008789E0
6.960011473E0,-6.212310791E-1,-1.024632263E1,-6.980850220E0
6.964985838E0,-3.261566162E-1,-1.008529663E1,-7.318283081E0
6.969960204E0,7.093811035E-2,-9.941360474E0,-7.608367920E0
6.974934569E0,4.741821289E-1,-9.985687256E0,-7.945007324E0
6.979908934E0,6.891479492E-1,-1.024465942E1,-8.403045654E0
6.984883299E0,1.051940918E0,-1.049090576E1,-8.894287109E0
6.989857665E0,1.365112305E0,-1.081062317E1,-9.432540894E0
6.994832030E0,1.597305298E0,-1.120823669E1,-9.944595337E0
6.999806395E0,1.893829346E0,-1.166331482E1,-1.058740234E1
7.004780760E0,1.756530762E0,-1.205628967E1,-1.154743958E1
7.009755126E0,7.835235596E-1,-1.233976746E1,-1.222465515E1
7.014729491E0,-1.658020020E-1,-1.252642822E1,-1.243301392E1
7.019703856E0,-1.237472534E0,-1.281683350E1,-1.272772217E1
7.024678221E0,-2.994857788E0,-1.341111755E1,-1.320904541E1
7.029652586E0,-4.692535400E0,-1.419024658E1,-1.344738770E1
7.034626952E0,-5.717819214E0,-1.515379333E1,-1.292173767E1
7.039601317E0,-6.167724609E0,-1.621554565E1,-1.104243469E1
7.044575682E0,-6.994552612E0,-1.728474426E1,-1.005053711E1
7.049550047E0,-7.646972656E0,-1.816491699E1,-9.324951172E0
7.054524413E0,-7.447387695E0,-1.874255371E1,-7.522033691E0
7.059498778E0,-7.167129517E0,-1.901177979E1,-5.145446777E0
7.064473143E0,-7.391769409E0,-1.894512939E1,-1.900146484E0
7.069447508E0,-8.052917480E0,-1.860473633E1,1.103164673E0
7.074421874E0,-8.460098267E0,-1.798907471E1,3.357452393E0
7.079396239E0,-7.980316162E0,-1.718089294E1,4.777252197E0
7.084370604E0,-6.302291870E0,-1.628739929E1,4.976531982E0
7.089344969E0,-3.782150269E0,-1.538902283E1,4.158630371E0
7.094319334E0,-1.536026001E0,-1.458703613E1,2.797470093E0
7.099293700E0,-2.418823242E-1,-1.394308472E1,1.426498413E0
7.104268065E0,1.785278320E-1,-1.345944214E1,2.140045166E-1
7.109242430E0,6.716918945E-2,-1.297590637E1,-8.352661133E-1
7.114216795E0,-1.860809326E-1,-1.232028198E1,-1.713516235E0
7.119191161E0,-2.817687988E-1,-1.158209229E1,-2.355010986E0
7.124165526E0,-2.292022705E-1,-1.093074036E1,-2.779617310E0
7.129139891E0,-1.681976318E-1,-1.038899231E1,-3.100006104E0
7.134114256E0,-1.287078857E-1,-9.919494629E0,-3.317306519E0
7.139088622E0,-2.758789062E-2,-9.615280151E0,-3.322372437E0
7.144062987E0,1.241607666E-1,-9.297012329E0,-3.153457642E0
7.149037352E0,3.104705811E-1,-8.913330078E0,-2.894805908E0
7.154011717E0,4.696960449E-1,-8.488769531E0,-2.667587280E0
7.158986083E0,6.015777588E-1,-8.104278564E0,-2.466186523E0
7.163960448E0,8.428802490E-1,-7.728027344E0,-2.238708496E0
7.168934813E0,9.979705811E-1,-7.376876831E0,-2.007476807E0
7.173909178E0,1.113571167E0,-7.073135376E0,-1.821121216E0
7.178883543E0,1.254592896E0,-6.832672119E0,-1.724411011E0
7.183857909E0,1.495086670E0,-6.597412109E0,-1.676422119E0
7.188832274E0,1.617858887E0,-6.480239868E0,-1.705657959E0
7.193806639E0,1.728363037E0,-6.296661377E0,-1.891235352E0
7.198781004E0,1.716720581E0,-6.190170288E0,-2.319442749E0
7.203755370E0,1.632507324E0,-6.081420898E0,-3.095504761E0
7.208729735E0,1.524261475E0,-5.953170776E0,-3.904281616E0
7.213704100E0,1.399734497E0,-5.837570190E0,-4.849395752E0
7.218678465E0,1.527343750E0,-5.583999634E0,-5.727645874E0
7.223652831E0,1.607025146E0,-5.362854004E0,-6.259170532E0
7.228627196E0,1.614822388E0,-5.165328979E0,-6.455612183E0
7.233601561E0,1.549850464E0,-5.028045654E0,-6.455825806E0
7.238575926E0,1.314636230E0,-4.940353394E0,-6.283187866E0
7.243550292E0,1.115356445E0,-4.963363647E0,-6.003845215E0
7.248524657E0,5.907897949E-1,-5.020828247E0,-5.570434570E0
7.253499022E0,2.225952148E-1,-5.085678101E0,-5.169433594E0
7.258473387E0,2.993774414E-2,-5.177185059E0,-4.955596924E0
7.263447752E0,-5.412292480E-2,-5.343978882E0,-4.749847412E0
7.268422118E0,-1.900482178E-1,-5.497283936E0,-4.640457153E0
7.273396483E0,-2.574920654E-1,-5.543258667E0,-4.873748779E0
7.278370848E0,-1.589660645E-1,-5.656738281E0,-5.185760498E0
7.283345213E0,-1.674957275E-1,-5.772399902E0,-5.551269531E0
7.288319579E0,-2.462310791E-1,-5.844924927E0,-5.841537476E0
7.293293944E0,-2.440032959E-1,-5.901321411E0,-5.951538086E0
7.298268309E0,-2.623138428E-1,-5.943466187E0,-5.748123169E0
7.303242674E0,-2.986297607E-1,-5.977371216E0,-5.352935791E0
7.308217040E0,-3.820648193E-1,-6.030487061E0,-4.808380127E0
7.313191405E0,-5.016021729E-1,-6.112609863E0,-4.160629272E0
7.318165770E0,-7.375640869E-1,-6.142272949E0,-3.540969849E0
7.323140135E0,-1.120132446E0,-6.146820068E0,-3.017410278E0
7.328114501E0,-1.450210571E0,-6.049835205E0,-2.739440918E0
7.333088866E0,-1.814453125E0,-5.832199097E0,-2.569931030E0
7.338063231E0,-2.192153931E0,-5.597229004E0,-2.496627808E0
7.343037596E0,-2.708786011E0,-5.398101807E0,-2.583251953E0
7.348011961E0,-3.318847656E0,-5.283767700E0,-2.869445801E0
7.352986327E0,-3.937973022E0,-5.218139648E0,-3.251846313E0
7.357960692E0,-4.596176147E0,-5.175323486E0,-3.728607178E0
7.362935057E0,-5.250656128E0,-5.235061646E0,-4.306030273E0
7.367909422E0,-5.898834229E0,-5.263427734E0,-5.159423828E0
7.372883788E0,-6.435058594E0,-5.294418335E0,-6.245651245E0
7.377858153E0,-6.699234009E0,-5.358322144E0,-7.342803955E0
7.382832518E0,-6.551483154E0,-5.458038330E0,-7.900207520E0
7.387806883E0,-6.147796631E0,-5.541641235E0,-8.188751221E0
7.392781249E0,-5.980468750E0,-5.815490723E0,-8.557861328E0
7.397755614E0,-5.728652954E0,-6.001922607E0,-9.072921753E0
7.402729979E0,-4.377960205E0,-6.176376343E0,-9.325347900E0
7.407704344E0,-2.835372925E0,-6.201507568E0,-8.795974731E0
7.412678709E0,-1.735473633E0,-6.069641113E0,-8.250198364E0
7.417653075E0,-6.747894287E-1,-5.989898682E0,-7.345962524E0
7.422627440E0,-9.538269043E-2,-5.946304321E0,-6.005722046E0
7.427601805E0,4.208679199E-1,-5.965515137E0,-4.580902100E0
7.432576170E0,1.158966064E0,-5.939010620E0,-2.625625610E0
7.437550536E0,1.749740601E0,-6.009826660E0,1.526977539E0
7.442524901E0,1.472885132E0,-6.477218628E0,5.432250977E0
7.447499266E0,2.605590820E-1,-7.248733521E0,5.053329468E0
7.452473631E0,-3.850250244E-1,-7.857345581E0,4.162719727E0
7.457447997E0,-3.750915527E-1,-8.148361206E0,3.102355957E0
7.462422362E0,-4.174804688E-2,-8.191680908E0,1.713836670E0
7.467396727E0,4.450836182E-1,-8.080963135E0,1.076354980E-1
7.472371092E0,8.643951416E-1,-7.819015503E0,-1.577056885E0
7.477345458E0,9.686279297E-1,-7.543289185E0,-3.196823120E0
7.482319823E0,6.829986572E-1,-7.335006714E0,-4.685577393E0
7.487294188E0,1.531066895E-1,-7.230606079E0,-6.087158203E0
7.492268553E0,-5.177307129E-1,-7.324600220E0,-7.197433472E0
7.497242918E0,-1.347824097E0,-7.599731445E0,-7.992279053E0
7.502217284E0,-2.281143188E0,-7.982437134E0,-8.678665161E0
7.507191649E0,-3.209014893E0,-8.400360107E0,-9.068679810E0
7.512166014E0,-3.826873779E0,-8.868911743E0,-9.170379639E0
7.517140379E0,-4.115097046E0,-9.397827148E0,-8.592437744E0
7.522114745E0,-4.084045410E0,-9.864501953E0,-7.241943359E0
7.527089110E0,-3.773223877E0,-1.017994690E1,-5.557662964E0
7.532063475E0,-3.200698853E0,-1.030612183E1,-4.175018311E0
7.537037840E0,-2.701400757E0,-1.016142273E1,-3.393234253E0
7.542012206E0,-2.254028320E0,-9.773529053E0,-3.460250854E0
7.546986571E0,-1.818161011E0,-9.205673218E0,-3.905853271E0
7.551960936E0,-1.623718262E0,-8.842147827E0,-4.619781494E0
7.556935301E0,-1.859420776E0,-8.761093140E0,-5.359817505E0
7.561909667E0,-2.148651123E0,-9.003814697E0,-6.320922852E0
7.566884032E0,-2.401504517E0,-9.488830566E0,-6.970611572E0
7.571858397E0,-1.970474243E0,-9.994644165E0,-7.117950439E0
7.576832762E0,-1.276794434E0,-1.070040894E1,-6.716720581E0
7.581807127E0,-7.904205322E-1,-1.155032349E1,-6.077133179E0
7.586781493E0,-4.721221924E-1,-1.244645691E1,-5.745498657E0
7.591755858E0,-1.108093262E-1,-1.357273865E1,-5.868423462E0
7.596730223E0,-3.953552246E-1,-1.459983826E1,-5.355041504E0
7.601704588E0,-6.820373535E-1,-1.542045593E1,-5.246856689E0
7.606678954E0,-9.482116699E-1,-1.610368347E1,-5.897811890E0
7.611653319E0,-1.123657227E0,-1.677082825E1,-7.243423462E0
7.616627684E0,-8.865966797E-1,-1.764575195E1,-9.016296387E0
7.621602049E0,-2.926330566E-1,-1.867222595E1,-1.077874756E1
7.626576415E0,2.946929932E-1,-1.967053223E1,-1.225512695E1
7.631550780E0,1.096694946E0,-2.041316223E1,-1.328254700E1
7.636525145E0,2.048736572E0,-2.031799316E1,-1.352944946E1
7.641499510E0,2.946502686E0,-1.891308594E1,-1.280911255E1
7.646473876E0,2.856628418E0,-1.678620911E1,-1.137854004E1
7.651448241E0,2.076324463E0,-1.464601135E1,-9.570831299E0
7.656422606E0,1.611389160E0,-1.269892883E1,-7.410034180E0
7.661396971E0,1.348205566E0,-1.094444275E1,-4.663253784E0
7.666371336E0,7.605590820E-1,-9.456695557E0,-1.953964233E0
7.671345702E0,-3.462524414E-1,-8.289413452E0,-1.075134277E-1
7.676320067E0,-1.847381592E0,-7.357421875E0,1.106353760E0
7.681294432E0,-3.664016724E0,-6.619888306E0,2.493957520E0
7.686268797E0,-5.462066650E0,-6.195983887E0,4.054763794E0
7.691243163E0,-6.909317017E0,-6.420227051E0,4.525634766E0
7.696217528E0,-7.524063110E0,-7.169219971E0,2.338333130E0
7.701191893E0,-6.094299316E0,-7.875030518E0,-2.063629150E0
7.706166258E0,-2.293945312E0,-8.297760010E0,-6.764633179E0
7.711140624E0,1.641098022E0,-8.568344116E0,-1.059082031E1
7.716114989E0,2.666030884E0,-9.288742065E0,-1.357009888E1
7.721089354E0,3.147003174E0,-1.041194153E1,-1.493928528E1
7.726063719E0,4.690322876E0,-1.169517517E1,-1.383374023E1
7.731038084E0,7.169265747E0,-1.285958862E1,-1.104870605E1
7.736012450E0,9.964279175E0,-1.374893188E1,-7.563644409E0
7.740986815E0,1.249172974E1,-1.434046936E1,-4.816482544E0
7.745961180E0,1.450241089E1,-1.457583618E1,-3.509002686E0
7.750935545E0,1.428890991E1,-1.465771484E1,-2.634780884E0
7.755909911E0,1.259399414E1,-1.423609924E1,-2.688629150E0
7.760884276E0,9.097824097E0,-1.325540161E1,-3.302368164E0
7.765858641E0,5.252792358E0,-1.136610413E1,-3.578170776E0
7.770833006E0,2.208038330E0,-9.248092651E0,-3.297760010E0
7.775807372E0,-1.189727783E-1,-7.603820801E0,-2.499755859E0
7.780781737E0,-1.384109497E0,-6.858627319E0,-1.622192383E0
7.785756102E0,-2.321731567E0,-6.761596680E0,-1.117614746E0
7.790730467E0,-3.167388916E0,-6.971359253E0,-1.063995361E0
7.795704833E0,-3.686752319E0,-7.284622192E0,-1.374008179E0
7.800679198E0,-3.716629028E0,-7.533126831E0,-1.944747925E0
7.805653563E0,-3.512145996E0,-7.696838379E0,-2.761169434E0
7.810627928E0,-3.162948608E0,-7.728637695E0,-3.832183838E0
7.815602293E0,-2.715774536E0,-7.656860352E0,-4.908004761E0
7.820576659E0,-2.195556641E0,-7.579360962E0,-5.794860840E0
7.825551024E0,-1.772872925E0,-7.480926514E0,-6.338546753E0
7.830525389E0,-1.510986328E0,-7.386566162E0,-6.534912109E0
7.835499754E0,-1.340698242E0,-7.245559692E0,-6.511672974E0
7.840474120E0,-1.237823486E0,-7.088287354E0,-6.343414307E0
7.845448485E0,-1.198638916E0,-6.931457520E0,-6.115554810E0
7.850422850E0,-1.179809570E0,-6.740020752E0,-5.845901489E0
7.855397215E0,-1.243591309E0,-6.588409424E0,-5.620452881E0
7.860371581E0,-1.263412476E0,-6.444473267E0,-5.519393921E0
7.865345946E0,-1.194793701E0,-6.316390991E0,-5.525451660E0
7.870320311E0,-1.111236572E0,-6.211166382E0,-5.615142822E0
7.875294676E0,-1.038970947E0,-6.150573730E0,-5.773162842E0
7.880269042E0,-9.324645996E-1,-6.076904297E0,-5.892242432E0
7.885243407E0,-7.991333008E-1,-5.973464966E0,-5.968582153E0
7.890217772E0,-7.065582275E-1,-5.850891113E0,-5.988449097E0
7.895192137E0,-6.980133057E-1,-5.760177612E0,-5.973617554E0
7.900166502E0,-8.266601562E-1,-5.709808350E0,-5.951248169E0
7.905140868E0,-9.847106934E-1,-5.694976807E0,-5.914184570E0
7.910115233E0,-1.090942383E0,-5.645355225E0,-5.784744263E0
7.915089598E0,-1.139465332E0,-5.560287476E0,-5.631378174E0
7.920063963E0,-1.225906372E0,-5.535079956E0,-5.461410522E0
7.925038329E0,-1.371109009E0,-5.512985229E0,-5.248367310E0
7.930012694E0,-1.584640503E0,-5.477935791E0,-5.082366943E0
7.934987059E0,-1.820022583E0,-5.425659180E0,-4.902694702E0
7.939961424E0,-1.959228516E0,-5.331298828E0,-4.738998413E0
7.944935790E0,-2.024765015E0,-5.217071533E0,-4.593231201E0
7.949910155E0,-1.991577148E0,-5.089950562E0,-4.481567383E0
7.954884520E0,-1.899139404E0,-5.003646851E0,-4.401763916E0
7.959858885E0,-1.812545776E0,-4.921997070E0,-4.444137573E0
7.964833251E0,-1.722778320E0,-4.835632324E0,-4.485565186E0
7.969807616E0,-1.648315430E0,-4.746704102E0,-4.392868042E0
7.974781981E0,-1.584579468E0,-4.704681396E0,-4.349899292E0
7.979756346E0,-1.527114868E0,-4.707412720E0,-4.267547607E0
7.984730711E0,-1.723342896E0,-4.767318726E0,-4.124710083E0
7.989705077E0,-1.874526978E0,-4.806091309E0,-4.014892578E0
7.994679442E0,-2.022186279E0,-4.839080811E0,-3.864593506E0
7.999653807E0,-2.115875244E0,-4.847274780E0,-3.569595337E0
8.004628172E0,-2.018859863E0,-4.844223022E0,-3.111007690E0
8.009602538E0,-2.193710327E0,-4.882232666E0,-2.758895874E0
8.014576903E0,-2.377166748E0,-4.866653442E0,-2.453506470E0
8.019551268E0,-2.381103516E0,-4.868118286E0,-2.171783447E0
8.024525633E0,-2.312789917E0,-4.891433716E0,-1.853225708E0
8.029499999E0,-2.189346313E0,-4.901748657E0,-1.500579834E0
8.034474364E0,-1.988662720E0,-4.863830566E0,-1.152389526E0
8.039448729E0,-1.715438843E0,-4.744338989E0,-8.806915283E-1
8.044423094E0,-1.539916992E0,-4.568557739E0,-7.421875000E-1
8.049397459E0,-1.464111328E0,-4.437728882E0,-6.464233398E-1
8.054371825E0,-1.454681396E0,-4.406433105E0,-5.786437988E-1
8.059346190E0,-1.444503784E0,-4.557083130E0,-6.436309814E-1
8.064320555E0,-1.505538940E0,-4.991333008E0,-8.663787842E-1
8.069294920E0,-1.627136230E0,-5.750335693E0,-1.279571533E0
8.074269286E0,-1.778991699E0,-6.796691895E0,-1.800781250E0
8.079243651E0,-1.789367676E0,-8.000366211E0,-2.405822754E0
8.084218016E0,-1.540344238E0,-9.230865479E0,-3.022964478E0
8.089192381E0,-1.085952759E0,-1.029501343E1,-3.644561768E0
8.094166747E0,-4.668579102E-1,-1.113627625E1,-4.348388672E0
8.099141112E0,2.396697998E-1,-1.168611145E1,-5.120437622E0
8.104115477E0,1.041763306E0,-1.184992981E1,-5.793685913E0
8.109089842E0,2.030853271E0,-1.155696106E1,-6.376770020E0
8.114064208E0,2.933822632E0,-1.101506042E1,-6.747344971E0
8.119038573E0,3.567611694E0,-1.040943909E1,-6.983703613E0
8.124012938E0,3.842666626E0,-9.896163940E0,-7.007263184E0
8.128987303E0,3.722915649E0,-9.536315918E0,-6.877044678E0
8.133961668E0,3.485412598E0,-9.218093872E0,-6.690963745E0
8.138936034E0,3.322906494E0,-8.856750488E0,-6.379226685E0
8.143910399E0,3.100738525E0,-8.515380859E0,-6.119827271E0
8.148884764E0,2.688812256E0,-8.164779663E0,-5.980789185E0
8.153859129E0,1.839553833E0,-7.877182007E0,-6.209442139E0
8.158833495E0,1.070373535E0,-7.510879517E0,-6.819824219E0
8.163807860E0,1.023712158E-1,-7.218032837E0,-7.611206055E0
8.168782225E0,-8.744354248E-1,-7.003417969E0,-8.305480957E0
8.173756590E0,-2.263916016E0,-6.836059570E0,-8.699691772E0
8.178730956E0,-3.433975220E0,-6.561050415E0,-8.611450195E0
8.183705321E0,-4.022094727E0,-6.307830811E0,-8.466262817E0
8.188679686E0,-3.991943359E0,-6.231521606E0,-8.312728882E0
8.193654051E0,-3.867385864E0,-6.190353394E0,-7.725799561E0
8.198628417E0,-3.718917847E0,-6.137817383E0,-6.907867432E0
8.203602782E0,-3.446762085E0,-6.135650635E0,-5.998870850E0
8.208577147E0,-2.869979858E0,-6.169998169E0,-5.229034424E0
8.213551512E0,-2.354553223E0,-6.215362549E0,-4.716125488E0
8.218525877E0,-1.989303589E0,-6.344665527E0,-4.450027466E0
8.223500243E0,-1.557998657E0,-6.646560669E0,-4.355178833E0
8.228474608E0,-1.250778198E0,-7.174743652E0,-4.342758179E0
8.233448973E0,-9.721832275E-1,-7.966918945E0,-4.341064453E0
8.238423338E0,-8.469543457E-1,-8.853500366E0,-4.392669678E0
8.243397704E0,-8.324584961E-1,-9.744415283E0,-4.354202271E0
8.248372069E0,-7.122650146E-1,-1.070022583E1,-4.241455078E0
8.253346434E0,-4.647827148E-1,-1.158006287E1,-4.195968628E0
8.258320799E0,-6.832885742E-2,-1.222225952E1,-4.391235352E0
8.263295165E0,5.907287598E-1,-1.266336060E1,-4.858551025E0
8.268269530E0,1.552749634E0,-1.303559875E1,-5.659225464E0
8.273243895E0,2.639770508E0,-1.338922119E1,-7.146759033E0
8.278218260E0,3.763748169E0,-1.368336487E1,-9.466232300E0
8.283192626E0,4.404037476E0,-1.414526367E1,-1.242732239E1
8.288166991E0,4.664245605E0,-1.523495483E1,-1.512290955E1
8.293141356E0,4.192062378E0,-1.711328125E1,-1.758282471E1
8.298115721E0,3.117935181E0,-1.923956299E1,-2.025212097E1
8.303090086E0,1.339248657E0,-2.097750854E1,-2.221249390E1
8.308064452E0,-9.725036621E-1,-2.165574646E1,-2.291583252E1
8.313038817E0,-3.897216797E0,-2.179664612E1,-2.242007446E1
8.318013182E0,-6.809143066E0,-2.141448975E1,-2.105480957E1
8.322987547E0,-9.000900269E0,-2.013243103E1,-1.774137878E1
8.327961913E0,-9.268814087E0,-1.843408203E1,-1.283998108E1
8.332936278E0,-8.449783325E0,-1.661222839E1,-8.581665039E0
8.337910643E0,-7.064147949E0,-1.533804321E1,-5.373291016E0
8.342885008E0,-6.165740967E0,-1.466473389E1,-2.855819702E0
8.347859374E0,-5.931106567E0,-1.432260132E1,2.902526855E-1
8.352833739E0,-6.298080444E0,-1.407363892E1,6.283813477E0
8.357808104E0,-6.746337891E0,-1.392282104E1,1.095358276E1
8.362782469E0,-5.970352173E0,-1.360169983E1,9.594238281E0
8.367756834E0,-4.206832886E0,-1.287368774E1,7.635864258E0
8.372731200E0,-2.740386963E0,-1.214344788E1,6.497863770E0
8.377705565E0,-1.971588135E0,-1.191972351E1,6.089309692E0
8.382679930E0,-1.636306763E0,-1.197091675E1,5.692840576E0
8.387654295E0,-1.247558594E0,-1.163491821E1,4.435058594E0
8.392628661E0,-6.236724854E-1,-1.096252441E1,2.404296875E0
8.397603026E0,-2.110443115E-1,-1.055883789E1,2.815399170E-1
8.402577391E0,1.774597168E-2,-1.042352295E1,-1.536041260E0
8.407551756E0,1.587066650E-1,-1.033479309E1,-3.193267822E0
8.412526122E0,1.972656250E-1,-1.015710449E1,-4.664321899E0
8.417500487E0,2.357177734E-1,-9.805343628E0,-5.681411743E0
8.422474852E0,4.205627441E-1,-9.243591309E0,-6.268966675E0
8.427449217E0,7.285308838E-1,-8.561508179E0,-6.407333374E0
8.432423583E0,9.978485107E-1,-7.891281128E0,-6.240615845E0
8.437397948E0,1.140319824E0,-7.296829224E0,-5.883819580E0
8.442372313E0,1.194503784E0,-6.832305908E0,-5.359741211E0
8.447346678E0,1.209564209E0,-6.526748657E0,-4.669525146E0
8.452321043E0,1.140716553E0,-6.296035767E0,-3.988540649E0
8.457295409E0,9.933013916E-1,-6.109085083E0,-3.391921997E0
8.462269774E0,8.493041992E-1,-5.929016113E0,-2.879440308E0
8.467244139E0,7.131195068E-1,-5.783111572E0,-2.503219604E0
8.472218504E0,5.775451660E-1,-5.665740967E0,-2.243652344E0
8.477192870E0,4.109039307E-1,-5.642471313E0,-2.133773804E0
8.482167235E0,3.306121826E-1,-5.589599609E0,-2.234085083E0
8.487141600E0,2.463684082E-1,-5.582519531E0,-2.503952026E0
8.492115965E0,2.173767090E-1,-5.561019897E0,-2.974258423E0
8.497090331E0,1.513977051E-1,-5.548889160E0,-3.481384277E0
8.502064696E0,1.236419678E-1,-5.482360840E0,-3.877868652E0
8.507039061E0,6.567382812E-2,-5.431182861E0,-4.166351318E0
8.512013426E0,-2.149963379E-2,-5.321594238E0,-4.494003296E0
8.516987792E0,-5.751037598E-2,-5.165924072E0,-4.727661133E0
8.521962157E0,-1.383972168E-2,-4.964508057E0,-5.069534302E0
8.526936522E0,-1.090698242E-1,-4.866668701E0,-5.099685669E0
8.531910887E0,-4.095458984E-1,-4.831359863E0,-4.972900391E0
8.536885252E0,-6.423339844E-1,-4.812225342E0,-4.741729736E0
8.541859618E0,-7.037200928E-1,-4.766296387E0,-4.712966919E0
8.546833983E0,-6.483459473E-1,-4.808212280E0,-4.789031982E0
8.551808348E0,-7.571868896E-1,-4.806076050E0,-4.914306641E0
8.556782713E0,-9.108428955E-1,-4.781204224E0,-4.935882568E0
8.561757079E0,-7.709350586E-1,-4.993423462E0,-4.922027588E0
8.566731444E0,-1.104293823E0,-5.184082031E0,-4.752731323E0
8.571705809E0,-1.558563232E0,-5.327362061E0,-4.525497437E0
8.576680174E0,-1.766357422E0,-5.456405640E0,-4.204162598E0
8.581654540E0,-1.682891846E0,-5.554977417E0,-3.886962891E0
8.586628905E0,-1.576095581E0,-5.613052368E0,-3.585205078E0
8.591603270E0,-1.677246094E0,-5.781280518E0,-3.304138184E0
8.596577635E0,-1.986694336E0,-5.916946411E0,-3.087417603E0
8.601552001E0,-2.380187988E0,-5.951141357E0,-2.921966553E0
8.606526366E0,-2.774749756E0,-5.859161377E0,-2.791275024E0
8.611500731E0,-3.158981323E0,-5.746719360E0,-2.784774780E0
8.616475096E0,-3.482559204E0,-5.651092529E0,-2.821487427E0
8.621449461E0,-3.741714478E0,-5.585372925E0,-2.925384521E0
8.626423827E0,-3.949661255E0,-5.551895142E0,-3.530426025E0
8.631398192E0,-4.191421509E0,-5.428421021E0,-4.574920654E0
8.636372557E0,-4.643051147E0,-5.292297363E0,-5.789825439E0
8.641346922E0,-4.959274292E0,-5.233978271E0,-7.092193604E0
8.646321288E0,-4.694610596E0,-5.308532715E0,-8.081954956E0
8.651295653E0,-4.098587036E0,-5.514389038E0,-8.469619751E0
8.656270018E0,-3.174713135E0,-5.708435059E0,-8.315032959E0
8.661244383E0,-2.113632202E0,-5.948440552E0,-7.980773926E0
8.666218749E0,-1.138183594E0,-6.278625488E0,-7.515808105E0
8.671193114E0,-2.611999512E-1,-6.468276978E0,-6.900848389E0
8.676167479E0,5.392761230E-1,-6.403884888E0,-6.408172607E0
8.681141844E0,1.458541870E0,-6.313217163E0,-5.938873291E0
8.686116209E0,2.305480957E0,-6.159378052E0,-5.230163574E0
8.691090575E0,2.940673828E0,-5.942657471E0,-4.384063721E0
8.696064940E0,3.307052612E0,-5.652160645E0,-3.532241821E0
8.701039305E0,3.493896484E0,-5.366867065E0,-2.727096558E0
8.706013670E0,3.369628906E0,-5.292190552E0,-1.958099365E0
8.710988036E0,2.837554932E0,-5.363983154E0,-1.358398438E0
8.715962401E0,1.792282104E0,-5.649017334E0,-1.030548096E0
8.720936766E0,6.907653809E-1,-6.004440308E0,-1.120346069E0
8.725911131E0,-3.338928223E-1,-6.435745239E0,-1.454071045E0
8.730885497E0,-1.254547119E0,-6.991760254E0,-2.017730713E0
8.735859862E0,-2.180191040E0,-7.616210938E0,-2.847946167E0
8.740834227E0,-3.111099243E0,-8.282745361E0,-3.713012695E0
8.745808592E0,-3.839904785E0,-8.808288574E0,-4.350723267E0
8.750782958E0,-4.322158813E0,-9.219863892E0,-4.889785767E0
8.755757323E0,-4.886550903E0,-9.628295898E0,-5.395019531E0
8.760731688E0,-5.455078125E0,-9.892730713E0,-5.898757935E0
8.765706053E0,-5.979400635E0,-1.014062500E1,-6.456604004E0
8.770680418E0,-6.243957520E0,-1.022259521E1,-7.082809448E0
8.775654784E0,-6.177047729E0,-1.017265320E1,-7.726242065E0
8.780629149E0,-5.863189697E0,-1.000675964E1,-8.168930054E0
8.785603514E0,-5.471771240E0,-9.785873413E0,-8.398666382E0
8.790577879E0,-5.202041626E0,-9.557754517E0,-8.460906982E0
8.795552245E0,-4.976394653E0,-9.379516602E0,-8.437500000E0
8.800526610E0,-4.618927002E0,-9.311721802E0,-8.412994385E0
8.805500975E0,-4.026489258E0,-9.339202881E0,-8.365936279E0
8.810475340E0,-3.260131836E0,-9.401031494E0,-8.403137207E0
8.815449706E0,-2.783981323E0,-9.472442627E0,-8.299255371E0
8.820424071E0,-2.403915405E0,-9.568923950E0,-7.314559937E0
8.825398436E0,-1.705703735E0,-9.896591187E0,-5.476943970E0
8.830372801E0,-1.303985596E0,-1.058821106E1,-3.345520020E0
8.835347167E0,-1.220092773E0,-1.155216980E1,-1.292434692E0
8.840321532E0,-1.272018433E0,-1.254429626E1,2.686920166E-1
8.845295897E0,-1.573654175E0,-1.343222046E1,1.011550903E0
8.850270262E0,-1.787597656E0,-1.415487671E1,8.504180908E-1
8.855244627E0,-1.372146606E0,-1.449707031E1,3.770446777E-2
8.860218993E0,-4.378662109E-1,-1.453556824E1,-1.298355103E0
8.865193358E0,6.135101318E-1,-1.444679260E1,-2.974441528E0
8.870167723E0,9.883422852E-1,-1.463821411E1,-5.394515991E0
8.875142088E0,6.906127930E-2,-1.544679260E1,-9.018783569E0
8.880116454E0,-7.818145752E-1,-1.649162292E1,-1.286381531E1
8.885090819E0,-1.163391113E0,-1.770501709E1,-1.556828308E1
8.890065184E0,-7.790985107E-1,-1.872758484E1,-1.659744263E1
8.895039549E0,4.006958008E-2,-1.897497559E1,-1.570123291E1
8.900013915E0,1.133743286E0,-1.788578796E1,-1.293298340E1
8.904988280E0,1.576965332E0,-1.585688782E1,-9.499710083E0
8.909962645E0,1.291870117E0,-1.375871277E1,-6.561569214E0
8.914937010E0,1.040893555E0,-1.209114075E1,-4.293395996E0
8.919911376E0,1.175186157E0,-1.084210205E1,-2.502288818E0
8.924885741E0,1.332809448E0,-1.006903076E1,-1.225448608E0
8.929860106E0,1.182571411E0,-9.823257446E0,-3.444366455E-1
8.934834471E0,5.509490967E-1,-9.640350342E0,2.474975586E-1
8.939808836E0,-6.036682129E-1,-9.517440796E0,4.900207520E-1
8.944783202E0,-1.410903931E0,-9.462539673E0,-6.349639893E-1
8.949757567E0,-1.019165039E0,-9.349014282E0,-3.414810181E0
8.954731932E0,8.186950684E-1,-9.281021118E0,-7.142654419E0
8.959706297E0,3.547439575E0,-9.414855957E0,-1.042012024E1
8.964680663E0,5.940811157E0,-1.000161743E1,-1.229197693E1
8.969655028E0,7.876754761E0,-1.090936279E1,-1.269018555E1
8.974629393E0,9.251754761E0,-1.195809937E1,-1.171067810E1
8.979603758E0,1.000389099E1,-1.299067688E1,-9.721359253E0
8.984578124E0,1.014512634E1,-1.369454956E1,-7.428741455E0
8.989552489E0,1.006175232E1,-1.393420410E1,-5.793060303E0
8.994526854E0,9.948974609E0,-1.387786865E1,-5.077911377E0
8.999501219E0,9.355606079E0,-1.352941895E1,-5.025924683E0
9.004475584E0,7.673553467E0,-1.291128540E1,-5.168395996E0
9.009449950E0,4.870208740E0,-1.204959106E1,-5.105163574E0
9.014424315E0,1.896286011E0,-1.086621094E1,-4.680191040E0
9.019398680E0,-9.684753418E-2,-9.557693481E0,-3.978347778E0
9.024373045E0,-1.151016235E0,-8.519790649E0,-3.205703735E0
9.029347411E0,-1.977676392E0,-7.927215576E0,-2.519882202E0
9.034321776E0,-2.652465820E0,-7.643447876E0,-2.082473755E0
9.039296141E0,-2.899139404E0,-7.490783691E0,-2.003738403E0
9.044270506E0,-2.793380737E0,-7.337615967E0,-2.265701294E0
9.049244872E0,-2.566574097E0,-7.218719482E0,-2.722579956E0
9.054219237E0,-2.424255371E0,-7.068756104E0,-3.162689209E0
9.059193602E0,-2.388580322E0,-7.059829712E0,-3.569290161E0
9.064167967E0,-2.311676025E0,-7.070968628E0,-3.865493774E0
9.069142333E0,-2.146286011E0,-7.043487549E0,-4.109375000E0
9.074116698E0,-1.944931030E0,-6.921295166E0,-4.313583374E0
9.079091063E0,-1.757553101E0,-6.835311890E0,-4.489227295E0
9.084065428E0,-1.592529297E0,-6.751922607E0,-4.696685791E0
9.089039793E0,-1.529342651E0,-6.707199097E0,-4.916595459E0
9.094014159E0,-1.536270142E0,-6.644653320E0,-5.094879150E0
9.098988524E0,-1.617568970E0,-6.557495117E0,-5.289718628E0
9.103962889E0,-1.550323486E0,-6.368240356E0,-5.554000854E0
9.108937254E0,-1.494552612E0,-6.246444702E0,-5.786682129E0
9.113911620E0,-1.425079346E0,-6.149688721E0,-6.149078369E0
9.118885985E0,-1.355041504E0,-6.063537598E0,-6.471252441E0
9.123860350E0,-1.298065186E0,-5.997894287E0,-6.799194336E0
9.128834715E0,-1.242401123E0,-5.973571777E0,-7.022659302E0
9.133809081E0,-1.269409180E0,-5.987091064E0,-7.176452637E0
9.138783446E0,-1.276428223E0,-6.005523682E0,-7.226211548E0
9.143757811E0,-1.191146851E0,-5.977890015E0,-7.151626587E0
9.148732176E0,-1.143478394E0,-5.870849609E0,-7.020996094E0
9.153706542E0,-1.215347290E0,-5.735610962E0,-6.833480835E0
9.158680907E0,-1.361709595E0,-5.598342896E0,-6.681350708E0
9.163655272E0,-1.488113403E0,-5.462921143E0,-6.544860840E0
9.168629637E0,-1.557601929E0,-5.319152832E0,-6.388046265E0
9.173604002E0,-1.607055664E0,-5.184234619E0,-6.216781616E0
9.178578368E0,-1.679748535E0,-5.063583374E0,-6.036071777E0
9.183552733E0,-1.799011230E0,-4.970596313E0,-5.845535278E0
9.188527098E0,-1.952819824E0,-4.898605347E0,-5.623489380E0
9.193501463E0,-2.128082275E0,-4.851257324E0,-5.383651733E0
9.198475829E0,-2.308609009E0,-4.809692383E0,-5.114227295E0
9.203450194E0,-2.473571777E0,-4.755569458E0,-4.853759766E0
9.208424559E0,-2.645324707E0,-4.713912964E0,-4.667938232E0
9.213398924E0,-2.768737793E0,-4.670440674E0,-4.508666992E0
9.218373290E0,-2.892730713E0,-4.622985840E0,-4.436569214E0
9.223347655E0,-2.957916260E0,-4.623916626E0,-4.462799072E0
9.228322020E0,-2.894561768E0,-4.605300903E0,-4.499099731E0
9.233296385E0,-2.692977905E0,-4.620437622E0,-4.497131348E0
9.238270751E0,-2.419708252E0,-4.651962280E0,-4.424255371E0
9.243245116E0,-2.030410767E0,-4.742385864E0,-4.297531128E0
9.248219481E0,-1.618408203E0,-4.882019043E0,-4.152999878E0
9.253193846E0,-1.344253540E0,-5.029067993E0,-3.982604980E0
9.258168211E0,-1.248703003E0,-5.189346313E0,-3.797531128E0
9.263142577E0,-1.169952393E0,-5.365707397E0,-3.607757568E0
9.268116942E0,-1.265243530E0,-5.547042847E0,-3.481384277E0
9.273091307E0,-1.289901733E0,-5.726181030E0,-3.334960938E0
9.278065672E0,-1.249572754E0,-5.804840088E0,-3.043045044E0
9.283040038E0,-1.135559082E0,-5.855880737E0,-2.711166382E0
9.288014403E0,-1.100982666E0,-5.850296021E0,-2.549621582E0
9.292988768E0,-9.692993164E-1,-5.935531616E0,-2.394073486E0
9.297963133E0,-8.284301758E-1,-6.090545654E0,-2.249084473E0
9.302937499E0,-7.327728271E-1,-6.310165405E0,-2.095581055E0
9.307911864E0,-6.582031250E-1,-6.593872070E0,-2.028030396E0
9.312886229E0,-7.007141113E-1,-6.957366943E0,-2.085815430E0
9.317860594E0,-8.037414551E-1,-7.367477417E0,-2.245208740E0
9.322834959E0,-9.018249512E-1,-7.772277832E0,-2.599212646E0
9.327809325E0,-9.595031738E-1,-8.213241577E0,-3.009445190E0
9.332783690E0,-8.851165771E-1,-8.692108154E0,-3.338455200E0
9.337758055E0,-6.771850586E-1,-9.228210449E0,-3.611358643E0
9.342732420E0,-4.881896973E-1,-9.730926514E0,-3.806274414E0
9.347706786E0,-2.070159912E-1,-1.006568909E1,-3.919418335E0
9.352681151E0,2.965087891E-1,-1.024505615E1,-3.952224731E0
9.357655516E0,9.536132812E-1,-1.027133179E1,-3.995422363E0
9.362629881E0,1.544921875E0,-1.008894348E1,-4.084808350E0
9.367604247E0,2.089355469E0,-9.763885498E0,-4.229614258E0
9.372578612E0,2.552642822E0,-9.397140503E0,-4.458557129E0
9.377552977E0,2.870895386E0,-9.046386719E0,-4.863510132E0
9.382527342E0,2.963806152E0,-8.736785889E0,-5.316055298E0
9.387501708E0,2.912994385E0,-8.454559326E0,-5.684127808E0
9.392476073E0,2.824020386E0,-8.130706787E0,-5.936691284E0
9.397450438E0,2.695739746E0,-7.768081665E0,-6.119537354E0
9.402424803E0,2.599487305E0,-7.378967285E0,-6.228195190E0
9.407399168E0,2.500244141E0,-7.018203735E0,-6.174377441E0
9.412373534E0,2.345840454E0,-6.718811035E0,-6.000610352E0
9.417347899E0,1.970199585E0,-6.460388184E0,-5.967620850E0
9.422322264E0,1.467315674E0,-6.249679565E0,-6.012847900E0
9.427296629E0,9.134063721E-1,-6.075393677E0,-6.199417114E0
9.432270995E0,3.897705078E-1,-5.862014771E0,-6.595886230E0
9.437245360E0,-1.793365479E-1,-5.738464355E0,-7.079895020E0
9.442219725E0,-8.907470703E-1,-5.697097778E0,-7.203262329E0
9.447194090E0,-1.650314331E0,-5.768493652E0,-6.847900391E0
9.452168456E0,-2.145050049E0,-5.959136963E0,-6.209075928E0
9.457142821E0,-2.273162842E0,-6.190551758E0,-5.430297852E0
9.462117186E0,-2.393112183E0,-6.485794067E0,-4.846328735E0
9.467091551E0,-2.578704834E0,-6.758728027E0,-4.467620850E0
9.472065917E0,-2.730834961E0,-6.946365356E0,-4.150192261E0
9.477040282E0,-2.856414795E0,-6.863357544E0,-3.872863770E0
9.482014647E0,-2.639236450E0,-6.675399780E0,-3.742721558E0
9.486989012E0,-2.212799072E0,-6.492263794E0,-3.761825562E0
9.491963377E0,-1.879348755E0,-6.465530396E0,-3.945999146E0
9.496937743E0,-1.616546631E0,-6.678390503E0,-4.152374268E0
9.501912108E0,-1.509826660E0,-7.178710938E0,-4.423141479E0
9.506886473E0,-1.479583740E0,-7.965850830E0,-4.798782349E0
9.511860838E0,-1.410934448E0,-8.907882690E0,-5.154312134E0
9.516835204E0,-1.238754272E0,-9.834350586E0,-5.504287720E0
9.521809569E0,-8.819122314E-1,-1.063928223E1,-5.927841187E0
9.526783934E0,-2.668304443E-1,-1.118606567E1,-6.549270630E0
9.531758299E0,5.564880371E-1,-1.147932434E1,-7.478927612E0
9.536732665E0,1.153839111E0,-1.175259399E1,-8.977188110E0
9.541707030E0,1.323486328E0,-1.225372314E1,-1.101701355E1
9.546681395E0,1.323272705E0,-1.314094543E1,-1.289677429E1
9.551655760E0,1.105865479E0,-1.429087830E1,-1.416505432E1
9.556630126E0,6.615905762E-1,-1.577189636E1,-1.464830017E1
9.561604491E0,1.981811523E-1,-1.769030762E1,-1.510417175E1
9.566578856E0,-1.798400879E-1,-1.986975098E1,-1.582347107E1
9.571553221E0,-8.918457031E-1,-2.224937439E1,-1.639193726E1
9.576527586E0,-2.487075806E0,-2.420953369E1,-1.642645264E1
9.581501952E0,-4.987594604E0,-2.469107056E1,-1.608219910E1
9.586476317E0,-7.813247681E0,-2.370449829E1,-1.535583496E1
9.591450682E0,-9.684280396E0,-2.187458801E1,-1.377114868E1
9.596425047E0,-1.017651367E1,-1.977204895E1,-1.108804321E1
9.601399413E0,-9.667388916E0,-1.767349243E1,-7.859054565E0
9.606373778E0,-8.487091064E0,-1.575416565E1,-3.509002686E0
9.611348143E0,-7.446685791E0,-1.423844910E1,3.011047363E0
9.616322508E0,-6.593917847E0,-1.321621704E1,8.300445557E0
9.621296874E0,-5.422592163E0,-1.268235779E1,8.742446899E0
9.626271239E0,-3.814636230E0,-1.225245667E1,7.373245239E0
9.631245604E0,-2.675933838E0,-1.193461609E1,6.284347534E0
9.636219969E0,-2.196258545E0,-1.156698608E1,5.599548340E0
9.641194334E0,-2.375595093E0,-1.150094604E1,5.125976562E0
9.646168700E0,-2.325363159E0,-1.143347168E1,4.226043701E0
9.651143065E0,-1.888229370E0,-1.101541138E1,2.413497925E0
9.656117430E0,-1.609909058E0,-1.066127014E1,3.393859863E-1
9.661091795E0,-1.389053345E0,-1.057096863E1,-1.277420044E0
9.666066161E0,-1.270874023E0,-1.063868713E1,-2.451156616E0
9.671040526E0,-1.251434326E0,-1.077645874E1,-3.355056763E0
9.676014891E0,-1.046356201E0,-1.081257629E1,-4.182464600E0
9.680989256E0,-6.960296631E-1,-1.072456360E1,-4.876174927E0
9.685963622E0,-2.467346191E-1,-1.039364624E1,-5.384185791E0
9.690937987E0,1.398315430E-1,-9.860488892E0,-5.541687012E0
9.695912352E0,3.871612549E-1,-9.274703979E0,-5.407882690E0
9.700886717E0,5.426940918E-1,-8.695816040E0,-5.175994873E0
9.705861083E0,6.384277344E-1,-8.239868164E0,-4.851791382E0
9.710835448E0,7.544097900E-1,-7.840637207E0,-4.441650391E0
9.715809813E0,7.847290039E-1,-7.577575684E0,-4.013870239E0
9.720784178E0,8.077850342E-1,-7.348205566E0,-3.643630981E0
9.725758543E0,7.981872559E-1,-7.118682861E0,-3.236129761E0
9.730732909E0,7.454986572E-1,-6.925765991E0,-2.822250366E0
9.735707274E0,6.755828857E-1,-6.752716064E0,-2.424179077E0
9.740681639E0,5.010681152E-1,-6.638595581E0,-2.039459229E0
9.745656004E0,3.284149170E-1,-6.556137085E0,-1.754089355E0
9.750630370E0,1.872406006E-1,-6.471405029E0,-1.687835693E0
9.755604735E0,3.240966797E-2,-6.383087158E0,-2.010559082E0
9.760579100E0,-6.575012207E-2,-6.256027222E0,-2.643814087E0
9.765553465E0,-1.178131104E-1,-6.112976074E0,-3.257629395E0
9.770527831E0,-1.607818604E-1,-5.934585571E0,-3.709503174E0
9.775502196E0,-2.042236328E-1,-5.717483521E0,-4.083190918E0
9.780476561E0,-1.999969482E-1,-5.402404785E0,-4.429016113E0
9.785450926E0,-1.679229736E-1,-5.063903809E0,-4.866165161E0
9.790425292E0,-3.773498535E-2,-4.806365967E0,-5.164871216E0
9.795399657E0,4.672241211E-2,-4.662322998E0,-5.025543213E0
9.800374022E0,-4.666137695E-2,-4.583053589E0,-4.649307251E0
9.805348387E0,-2.837982178E-1,-4.473281860E0,-4.437240601E0
9.810322752E0,-6.612243652E-1,-4.371246338E0,-4.442718506E0
9.815297118E0,-9.883422852E-1,-4.272598267E0,-4.612121582E0
9.820271483E0,-1.133743286E0,-4.198455811E0,-4.708465576E0
9.825245848E0,-1.317840576E0,-4.182296753E0,-4.591857910E0
9.830220213E0,-1.552047729E0,-4.233428955E0,-4.314346313E0
9.835194579E0,-1.488723755E0,-4.097488403E0,-4.242752075E0
9.840168944E0,-1.378555298E0,-4.071441650E0,-4.370162964E0
9.845143309E0,-1.323410034E0,-4.132293701E0,-4.158782959E0
9.850117674E0,-1.419647217E0,-4.266342163E0,-3.636947632E0
9.855092040E0,-1.573654175E0,-4.282821655E0,-3.090942383E0
9.860066405E0,-1.737152100E0,-4.232223511E0,-2.682723999E0
9.865040770E0,-2.061782837E0,-4.209014893E0,-2.332321167E0
9.870015135E0,-2.492843628E0,-4.176315308E0,-2.389739990E0
9.874989501E0,-3.114624023E0,-4.214370728E0,-3.093353271E0
9.879963866E0,-3.800735474E0,-4.234115601E0,-4.049835205E0
9.884938231E0,-4.363800049E0,-4.328933716E0,-4.896514893E0
9.889912596E0,-4.743637085E0,-4.573608398E0,-5.569763184E0
9.894886961E0,-5.018692017E0,-4.925796509E0,-6.156997681E0
9.899861327E0,-5.308319092E0,-5.370483398E0,-6.738998413E0
9.904835692E0,-5.614135742E0,-5.861907959E0,-7.155044556E0
9.909810057E0,-5.910202026E0,-6.389450073E0,-7.233657837E0
9.914784422E0,-6.009841919E0,-6.984634399E0,-7.002655029E0
9.919758788E0,-5.639465332E0,-7.606231689E0,-6.593933105E0
9.924733153E0,-4.897918701E0,-8.149124146E0,-6.184814453E0
9.929707518E0,-3.992065430E0,-8.411834717E0,-6.008819580E0
9.934681883E0,-2.979354858E0,-8.389282227E0,-6.063079834E0
9.939656249E0,-1.932510376E0,-8.236526489E0,-6.062957764E0
9.944630614E0,-1.014724731E0,-8.058547974E0,-5.843734741E0
9.949604979E0,-3.130645752E-1,-7.886917114E0,-5.407043457E0
9.954579344E0,2.370910645E-1,-7.689025879E0,-4.885559082E0
9.959553709E0,6.232299805E-1,-7.460006714E0,-4.548828125E0
9.964528075E0,1.069259644E0,-7.199768066E0,-4.227310181E0
9.969502440E0,1.360443115E0,-6.948822021E0,-3.856094360E0
9.974476805E0,1.444473267E0,-6.680267334E0,-3.612289429E0
9.979451170E0,1.287902832E0,-6.364715576E0,-3.476226807E0
9.984425536E0,8.662261963E-1,-6.098602295E0,-3.441024780E0
9.989399901E0,2.135314941E-1,-5.965393066E0,-3.450714111E0
9.994374266E0,-6.308593750E-1,-6.035018921E0,-3.457611084E0
9.999348631E0,-1.541732788E0,-6.188186646E0,-3.577468872E0
1.000432300E1,-2.367782593E0,-6.323089600E0,-3.948562622E0
1.000929736E1,-3.018310547E0,-6.516174316E0,-4.259719849E0
1.001427173E1,-3.473632812E0,-6.717453003E0,-4.445861816E0
1.001924609E1,-3.973892212E0,-7.036758423E0,-4.549591064E0
1.002422046E1,-4.432571411E0,-7.414459229E0,-4.782989502E0
1.002919482E1,-4.766784668E0,-7.744415283E0,-5.004257202E0
1.003416919E1,-4.978454590E0,-8.044860840E0,-5.228164673E0
1.003914355E1,-5.164779663E0,-8.323272705E0,-5.429046631E0
1.004411792E1,-5.254592896E0,-8.621932983E0,-5.620391846E0
1.004909228E1,-5.209243774E0,-8.919494629E0,-5.767578125E0
1.005406665E1,-5.089035034E0,-9.276138306E0,-6.016632080E0
1.005904101E1,-5.075149536E0,-9.734970093E0,-6.157714844E0
1.006401538E1,-4.845397949E0,-1.038523865E1,-5.748291016E0
1.006898975E1,-4.325119019E0,-1.123341370E1,-4.711303711E0
1.007396411E1,-3.958923340E0,-1.221029663E1,-3.166854858E0
1.007893848E1,-3.402130127E0,-1.317474365E1,-1.759597778E0
1.008391284E1,-2.708755493E0,-1.405738831E1,-7.619171143E-1
1.008888721E1,-1.570480347E0,-1.475701904E1,-2.880401611E-1
1.009386157E1,4.585418701E-1,-1.526303101E1,2.791137695E-1
1.009883594E1,2.277313232E0,-1.568499756E1,1.004119873E0
1.010381030E1,2.710861206E0,-1.599140930E1,1.407394409E0
1.010878467E1,3.131942749E0,-1.617485046E1,1.338043213E0
1.011375903E1,4.015899658E0,-1.596324158E1,5.138092041E-1
