"Time (s)","Acceleration x (m/s^2)","Acceleration y (m/s^2)","Acceleration z (m/s^2)"
6.084646000E-2,-2.468196630E0,9.283254623E0,2.020738840E0
6.577083500E-2,-2.452643156E0,9.276076317E0,2.006381750E0
7.060302200E-2,-2.481357098E0,9.256634712E0,1.989632010E0
7.543541800E-2,-2.495713949E0,9.259027481E0,1.978864312E0
8.026630400E-2,-2.476571321E0,9.257830620E0,1.949851394E0
8.509885600E-2,-2.477767944E0,9.272486687E0,1.941476464E0
8.992984500E-2,-2.484946251E0,9.268898010E0,1.923530340E0
9.476244900E-2,-2.483749866E0,9.291629791E0,1.919941068E0
9.959349100E-2,-2.478964329E0,9.301200867E0,1.907976985E0
1.044260430E-1,-2.470589399E0,9.300004005E0,1.923530340E0
1.092570850E-1,-2.486142635E0,9.300004005E0,1.942672849E0
1.140896890E-1,-2.486142635E0,9.289237022E0,1.952244163E0
1.189206790E-1,-2.495713949E0,9.284450531E0,1.958226204E0
1.237532830E-1,-2.493321180E0,9.282057762E0,1.971685886E0
1.285843240E-1,-2.505285263E0,9.288040161E0,1.958226204E0
1.334168770E-1,-2.493321180E0,9.276076317E0,1.963011861E0
1.382479180E-1,-2.499303341E0,9.261718750E0,1.975275040E0
1.430804700E-1,-2.489732027E0,9.261718750E0,1.988435626E0
1.479115120E-1,-2.500499725E0,9.267701149E0,1.975275040E0
1.527441160E-1,-2.504088879E0,9.267701149E0,1.975275040E0
1.575751060E-1,-2.500499725E0,9.279664993E0,1.929512382E0
1.624077100E-1,-2.514856577E0,9.295218468E0,2.001596212E0
1.672387520E-1,-2.522035122E0,9.323932648E0,1.968096614E0
1.720713040E-1,-2.502892494E0,9.332307816E0,1.929512382E0
1.769023450E-1,-2.495713949E0,9.345467567E0,1.918744683E0
1.817349490E-1,-2.484946251E0,9.339486122E0,1.924726725E0
1.865659390E-1,-2.488535643E0,9.313164711E0,1.949851394E0
1.913985430E-1,-2.475374937E0,9.327521324E0,1.958226204E0
1.962295850E-1,-2.480160713E0,9.314361572E0,1.947458506E0
2.010621370E-1,-2.470589399E0,9.300004005E0,1.918744683E0
2.058931790E-1,-2.464607239E0,9.296415329E0,1.911566138E0
2.107257830E-1,-2.468196630E0,9.291629791E0,1.927119493E0
2.155567720E-1,-2.481357098E0,9.276076317E0,1.942672849E0
2.203893770E-1,-2.472982168E0,9.271290779E0,1.929512382E0
2.252204180E-1,-2.446661234E0,9.274879456E0,1.924726725E0
2.300529700E-1,-2.449054003E0,9.282057762E0,1.916351795E0
2.348840120E-1,-2.434697151E0,9.284450531E0,1.916351795E0
2.397166160E-1,-2.431107759E0,9.285647392E0,1.939083695E0
2.445476060E-1,-2.431107759E0,9.268898010E0,1.976471543E0
2.493802100E-1,-2.433500528E0,9.267701149E0,1.984846354E0
2.542112520E-1,-2.431107759E0,9.268898010E0,1.978864312E0
2.590438040E-1,-2.445464849E0,9.267701149E0,1.947458506E0
2.638748450E-1,-2.465803623E0,9.253045082E0,1.947458506E0
2.687074490E-1,-2.469393015E0,9.248259544E0,1.949851394E0
2.735384390E-1,-2.486142635E0,9.270093918E0,1.940280080E0
2.783710430E-1,-2.475374937E0,9.268898010E0,1.937887192E0
2.832020850E-1,-2.475374937E0,9.285647392E0,1.940280080E0
2.880346370E-1,-2.467000246E0,9.297611237E0,1.929512382E0
2.928656790E-1,-2.468196630E0,9.283254623E0,1.913959026E0
2.976982830E-1,-2.476571321E0,9.292825699E0,1.945065737E0
3.025292720E-1,-2.483749866E0,9.304789543E0,1.974078655E0
3.073618770E-1,-2.467000246E0,9.321539879E0,1.968096614E0
3.121929180E-1,-2.480160713E0,9.331110954E0,1.955833435E0
3.170254700E-1,-2.476571321E0,9.340682030E0,1.937887192E0
3.218565120E-1,-2.444268227E0,9.346664429E0,1.939083695E0
3.266891160E-1,-2.445464849E0,9.320343018E0,1.949851394E0
3.315201060E-1,-2.450250387E0,9.326325417E0,1.968096614E0
3.363527100E-1,-2.452643156E0,9.325128555E0,1.976471543E0
3.411837520E-1,-2.438286304E0,9.323932648E0,1.957029819E0
3.460163040E-1,-2.422732830E0,9.323932648E0,1.930708766E0
3.508473450E-1,-2.425125837E0,9.317950249E0,1.925923109E0
3.556799490E-1,-2.421536446E0,9.302396774E0,1.951047778E0
3.605109910E-1,-2.419143677E0,9.291629791E0,1.970489502E0
3.653435430E-1,-2.419143677E0,9.295218468E0,1.965703845E0
3.701745850E-1,-2.432304144E0,9.298808098E0,1.941476464E0
3.750071890E-1,-2.432304144E0,9.303593636E0,1.916351795E0
3.798381790E-1,-2.423929453E0,9.310771942E0,1.922333837E0
3.846707830E-1,-2.428714991E0,9.327521324E0,1.952244163E0
3.895018240E-1,-2.437089920E0,9.314361572E0,1.961815476E0
3.943343770E-1,-2.428714991E0,9.334700584E0,1.966900229E0
3.991654180E-1,-2.416750908E0,9.340682030E0,1.957029819E0
4.039980220E-1,-2.417947292E0,9.341878891E0,1.930708766E0
4.088290120E-1,-2.408375978E0,9.343074799E0,1.921137452E0
4.136616160E-1,-2.408375978E0,9.340682030E0,1.933101535E0
4.184926580E-1,-2.420340061E0,9.344271660E0,1.960619092E0
4.233252620E-1,-2.422732830E0,9.341878891E0,1.978864312E0
4.281562520E-1,-2.415554523E0,9.364610672E0,1.958226204E0
4.329888560E-1,-2.408375978E0,9.395717621E0,1.969292998E0
4.378198970E-1,-2.425125837E0,9.371788979E0,1.945065737E0
4.426524490E-1,-2.426322222E0,9.329915047E0,1.960619092E0
4.474834910E-1,-2.432304144E0,9.319147110E0,1.988435626E0
4.523160950E-1,-2.425125837E0,9.311968803E0,1.981257200E0
4.571470850E-1,-2.453839540E0,9.297611237E0,1.954637051E0
4.619796890E-1,-2.468196630E0,9.311968803E0,1.942672849E0
4.668107310E-1,-2.477767944E0,9.298808098E0,1.946262121E0
4.716432830E-1,-2.482553482E0,9.302396774E0,1.948654890E0
4.764743240E-1,-2.480160713E0,9.316754341E0,1.948654890E0
4.813069290E-1,-2.492124796E0,9.326325417E0,1.963011861E0
4.861379700E-1,-2.486142635E0,9.343074799E0,1.949851394E0
4.909705220E-1,-2.459821701E0,9.358628273E0,1.959422588E0
4.958015640E-1,-2.453839540E0,9.345467567E0,1.981257200E0
5.006341680E-1,-2.444268227E0,9.332307816E0,1.999203324E0
5.054651580E-1,-2.438286304E0,9.322735786E0,1.990828395E0
5.102977620E-1,-2.434697151E0,9.304789543E0,1.987239242E0
5.151288040E-1,-2.408375978E0,9.319147110E0,1.936690807E0
5.199614080E-1,-2.405983210E0,9.310771942E0,1.919941068E0
5.247923970E-1,-2.400001049E0,9.282057762E0,1.928315997E0
5.296250020E-1,-2.398804665E0,9.290432930E0,1.961815476E0
5.344560430E-1,-2.400001049E0,9.292825699E0,1.976471543E0
5.392885950E-1,-2.413161755E0,9.292825699E0,1.990828395E0
5.441196370E-1,-2.414358139E0,9.300004005E0,1.989632010E0
5.489522410E-1,-2.417947292E0,9.295218468E0,1.994417667E0
5.537832310E-1,-2.429911375E0,9.289237022E0,2.015953064E0
5.586158350E-1,-2.449054003E0,9.265308380E0,2.045863390E0
5.634468770E-1,-2.459821701E0,9.238688469E0,2.038684845E0
5.682794810E-1,-2.470589399E0,9.241081238E0,2.024327993E0
5.731104700E-1,-2.496910334E0,9.238688469E0,2.000399828E0
5.779430740E-1,-2.483749866E0,9.231510162E0,1.974078655E0
5.827741160E-1,-2.476571321E0,9.224330902E0,1.975275040E0
5.876067200E-1,-2.478964329E0,9.220742226E0,2.003988981E0
5.924377100E-1,-2.493321180E0,9.232706070E0,2.001596212E0
5.972703140E-1,-2.508874655E0,9.256634712E0,1.998006940E0
6.021013560E-1,-2.525923491E0,9.247062683E0,1.999203324E0
6.069339080E-1,-2.516052961E0,9.233902931E0,1.990828395E0
6.117649490E-1,-2.506481647E0,9.219545364E0,2.014756680E0
6.165975540E-1,-2.501696110E0,9.215956688E0,2.014756680E0
6.214285950E-1,-2.498106956E0,9.224330902E0,1.999203324E0
6.262611470E-1,-2.496910334E0,9.241081238E0,1.989632010E0
6.310921890E-1,-2.490928411E0,9.277272224E0,1.968096614E0
6.359247930E-1,-2.470589399E0,9.280861855E0,1.975275040E0
6.407557830E-1,-2.457428932E0,9.289237022E0,2.013560295E0
6.455883870E-1,-2.449054003E0,9.288040161E0,2.060220242E0
6.504194290E-1,-2.440679073E0,9.298808098E0,2.070987940E0
6.552520330E-1,-2.453839540E0,9.305986404E0,2.035095692E0
6.600830220E-1,-2.472982168E0,9.290432930E0,2.111665964E0
6.649156270E-1,-2.464607239E0,9.280861855E0,2.030309916E0
6.697466680E-1,-2.462214470E0,9.279664993E0,2.056631088E0
6.745792720E-1,-2.457428932E0,9.284450531E0,2.031506538E0
6.794102620E-1,-2.450250387E0,9.300004005E0,2.025524378E0
6.842428660E-1,-2.440679073E0,9.300004005E0,2.013560295E0
6.890739080E-1,-2.433500528E0,9.302396774E0,1.995614052E0
6.939065120E-1,-2.421536446E0,9.282057762E0,2.009970903E0
6.987375020E-1,-2.421536446E0,9.270093918E0,2.027917147E0
7.035701060E-1,-2.419143677E0,9.273683548E0,2.024327993E0
7.084011470E-1,-2.420340061E0,9.268898010E0,2.021935225E0
7.132336990E-1,-2.449054003E0,9.271290779E0,2.019542217E0
7.180647410E-1,-2.446661234E0,9.277272224E0,2.029113531E0
7.228973450E-1,-2.445464849E0,9.283254623E0,2.030309916E0
7.277283870E-1,-2.447857618E0,9.276076317E0,2.047059774E0
7.325609390E-1,-2.444268227E0,9.259325981E0,2.062613010E0
7.373919810E-1,-2.450250387E0,9.282057762E0,2.065006018E0
7.422245850E-1,-2.461018085E0,9.297611237E0,2.056631088E0
7.470556270E-1,-2.457428932E0,9.301200867E0,2.019542217E0
7.518881790E-1,-2.462214470E0,9.301200867E0,2.026720762E0
7.567192200E-1,-2.478964329E0,9.311968803E0,2.000399828E0
7.615518240E-1,-2.468196630E0,9.305986404E0,1.976471543E0
7.663828660E-1,-2.463410854E0,9.302396774E0,1.976471543E0
7.712154180E-1,-2.483749866E0,9.319147110E0,1.983649969E0
7.760464600E-1,-2.476571321E0,9.345467567E0,1.988435626E0
7.808790640E-1,-2.464607239E0,9.339486122E0,1.980060697E0
7.857100540E-1,-2.465803623E0,9.332307816E0,1.963011861E0
7.905426580E-1,-2.450250387E0,9.328718185E0,1.976471543E0
7.953736990E-1,-2.446661234E0,9.323932648E0,1.989632010E0
8.002063040E-1,-2.440679073E0,9.331110954E0,2.009970903E0
8.050372930E-1,-2.462214470E0,9.343074799E0,2.024327993E0
8.098698970E-1,-2.467000246E0,9.347860336E0,2.027917147E0
8.147009390E-1,-2.459821701E0,9.347860336E0,2.043470621E0
8.195335430E-1,-2.452643156E0,9.338289261E0,2.012363911E0
8.243645330E-1,-2.451446772E0,9.321539879E0,1.986042738E0
8.291971370E-1,-2.447857618E0,9.317950249E0,2.021935225E0
8.340281790E-1,-2.435893536E0,9.294022560E0,2.035095692E0
8.388607830E-1,-2.432304144E0,9.294022560E0,2.027917147E0
8.436917720E-1,-2.439482689E0,9.279664993E0,2.019542217E0
8.485243770E-1,-2.427518606E0,9.265308380E0,2.026720762E0
8.533554180E-1,-2.415554523E0,9.260522842E0,2.033899307E0
8.581880220E-1,-2.416750908E0,9.255437851E0,2.030309916E0
8.630190120E-1,-2.415554523E0,9.271290779E0,2.029113531E0
8.678516160E-1,-2.407179594E0,9.267701149E0,2.043470621E0
8.726826580E-1,-2.401197433E0,9.284450531E0,2.054238319E0
8.775152620E-1,-2.403590441E0,9.271290779E0,2.059023857E0
8.823462520E-1,-2.419143677E0,9.266505241E0,2.076970100E0
8.871788560E-1,-2.434697151E0,9.278469086E0,2.070987940E0
8.920098970E-1,-2.469393015E0,9.276076317E0,2.072184324E0
8.968425020E-1,-2.463410854E0,9.265308380E0,2.023131609E0
9.016735430E-1,-2.467000246E0,9.260522842E0,1.968096614E0
9.065060950E-1,-2.489732027E0,9.247062683E0,1.942672849E0
9.113371370E-1,-2.490928411E0,9.261718750E0,1.937887192E0
9.161697410E-1,-2.492124796E0,9.291629791E0,1.936690807E0
9.210007830E-1,-2.486142635E0,9.317950249E0,1.941476464E0
9.258333350E-1,-2.476571321E0,9.326325417E0,1.948654890E0
9.306643770E-1,-2.464607239E0,9.331110954E0,1.946262121E0
9.354969810E-1,-2.447857618E0,9.326325417E0,1.986042738E0
9.403280220E-1,-2.455035925E0,9.317950249E0,2.014756680E0
9.451605740E-1,-2.474178553E0,9.305986404E0,2.035095692E0
9.499916160E-1,-2.469393015E0,9.298808098E0,2.079362869E0
9.548242200E-1,-2.487339020E0,9.290432930E0,2.090130568E0
9.596552620E-1,-2.487339020E0,9.283254623E0,2.070987940E0
9.644878140E-1,-2.487339020E0,9.272486687E0,2.067398787E0
9.693188560E-1,-2.472982168E0,9.278469086E0,2.051845312E0
9.741514600E-1,-2.470589399E0,9.283254623E0,2.041077614E0
9.789825020E-1,-2.482553482E0,9.286844254E0,2.017149448E0
9.838150540E-1,-2.505285263E0,9.290432930E0,1.972882271E0
9.886460950E-1,-2.499303341E0,9.298808098E0,1.937887192E0
9.934786990E-1,-2.483749866E0,9.309576035E0,1.928315997E0
9.983097410E-1,-2.469393015E0,9.311968803E0,1.912762642E0
1.003142345E0,-2.458625317E0,9.350254059E0,1.901994944E0
1.007973335E0,-2.441875458E0,9.347860336E0,1.900798440E0
1.012805939E0,-2.425125837E0,9.363413811E0,1.915155411E0
1.017636981E0,-2.400001049E0,9.380164146E0,1.930708766E0
1.022469585E0,-2.388036966E0,9.365806580E0,1.960619092E0
1.027300574E0,-2.378465652E0,9.340682030E0,2.006381750E0
1.032133179E0,-2.392822742E0,9.309576035E0,2.059023857E0
1.036964220E0,-2.397608280E0,9.273683548E0,2.069791555E0
1.041796824E0,-2.415554523E0,9.271290779E0,2.060220242E0
1.046627814E0,-2.419143677E0,9.253045082E0,2.031506538E0
1.051460418E0,-2.434697151E0,9.221938133E0,2.027917147E0
1.056291460E0,-2.440679073E0,9.198010445E0,1.999203324E0
1.061124064E0,-2.461018085E0,9.201599121E0,1.990828395E0
1.065955054E0,-2.475374937E0,9.206384659E0,1.984846354E0
1.070787658E0,-2.483749866E0,9.226723671E0,1.966900229E0
1.075618699E0,-2.486142635E0,9.253045082E0,1.947458506E0
1.080451304E0,-2.502892494E0,9.267701149E0,1.931905150E0
1.085282345E0,-2.488535643E0,9.291629791E0,1.901994944E0
1.090114897E0,-2.476571321E0,9.337093353E0,1.885245085E0
1.094945939E0,-2.470589399E0,9.331110954E0,1.907976985E0
1.099778543E0,-2.445464849E0,9.337093353E0,1.916351795E0
1.104609585E0,-2.451446772E0,9.345467567E0,1.933101535E0
1.109442189E0,-2.450250387E0,9.352646828E0,1.948654890E0
1.114273179E0,-2.464607239E0,9.355039597E0,1.972882271E0
1.119105783E0,-2.459821701E0,9.343074799E0,1.988435626E0
1.123936824E0,-2.451446772E0,9.327521324E0,2.007578135E0
1.128769429E0,-2.423929453E0,9.307182312E0,2.025524378E0
1.133600418E0,-2.395215511E0,9.288040161E0,2.042274237E0
1.138433022E0,-2.378465652E0,9.272486687E0,2.043470621E0
1.143264064E0,-2.364108801E0,9.266505241E0,2.051845312E0
1.148096668E0,-2.354537487E0,9.264111519E0,2.031506538E0
1.152927658E0,-2.338984251E0,9.279664993E0,2.017149448E0
1.157760262E0,-2.342573404E0,9.301200867E0,2.015953064E0
1.162591304E0,-2.330609322E0,9.311968803E0,1.992024899E0
1.167423908E0,-2.335394859E0,9.320343018E0,1.980060697E0
1.172254897E0,-2.322234392E0,9.314361572E0,1.984846354E0
1.177087502E0,-2.333002090E0,9.307182312E0,1.987239242E0
1.181918543E0,-2.366501570E0,9.311968803E0,1.970489502E0
1.186751147E0,-2.395215511E0,9.325128555E0,1.951047778E0
1.191582137E0,-2.402393818E0,9.343074799E0,1.949851394E0
1.196414741E0,-2.401197433E0,9.325128555E0,1.963011861E0
1.201245783E0,-2.449054003E0,9.321539879E0,1.978864312E0
1.206078387E0,-2.462214470E0,9.309576035E0,1.996810555E0
1.210909429E0,-2.493321180E0,9.316754341E0,1.990828395E0
1.215742033E0,-2.493321180E0,9.326325417E0,1.970489502E0
1.220573022E0,-2.504088879E0,9.322735786E0,1.958226204E0
1.225405627E0,-2.492124796E0,9.326325417E0,1.976471543E0
1.230236668E0,-2.471785784E0,9.337093353E0,1.978864312E0
1.235069272E0,-2.461018085E0,9.349057198E0,1.970489502E0
1.239900262E0,-2.425125837E0,9.378967285E0,1.964507341E0
1.244732866E0,-2.413161755E0,9.377771378E0,1.964507341E0
1.249563908E0,-2.408375978E0,9.368199348E0,1.958226204E0
1.254396512E0,-2.396411896E0,9.338289261E0,1.933101535E0
1.259227502E0,-2.380858421E0,9.322735786E0,1.917548299E0
1.264060106E0,-2.389233351E0,9.325128555E0,1.913959026E0
1.268891147E0,-2.382055044E0,9.323932648E0,1.904387712E0
1.273723752E0,-2.385644197E0,9.325128555E0,1.898405671E0
1.278554793E0,-2.364108801E0,9.334700584E0,1.888834357E0
1.283387397E0,-2.347358942E0,9.328718185E0,1.880459547E0
1.288218387E0,-2.325823545E0,9.321539879E0,1.905584097E0
1.293050991E0,-2.325823545E0,9.343074799E0,1.929512382E0
1.297882033E0,-2.317448616E0,9.356235504E0,1.939083695E0
1.302714637E0,-2.315055847E0,9.362217903E0,1.940280080E0
1.307545627E0,-2.323430777E0,9.376574516E0,1.960619092E0
1.312378231E0,-2.322234392E0,9.369396210E0,1.978864312E0
1.317209272E0,-2.325823545E0,9.357432365E0,2.007578135E0
1.322041877E0,-2.347358942E0,9.358628273E0,2.023131609E0
1.326872866E0,-2.368894339E0,9.345467567E0,2.045863390E0
1.331705470E0,-2.408375978E0,9.304789543E0,2.065006018E0
1.336536512E0,-2.423929453E0,9.289237022E0,2.030309916E0
1.341369116E0,-2.445464849E0,9.272486687E0,2.011167526E0
1.346200106E0,-2.467000246E0,9.264111519E0,1.994417667E0
1.351032710E0,-2.467000246E0,9.266505241E0,1.968096614E0
1.355863752E0,-2.464607239E0,9.282057762E0,1.946262121E0
1.360696356E0,-2.464607239E0,9.270093918E0,1.919941068E0
1.365527397E0,-2.461018085E0,9.284450531E0,1.909173369E0
1.370360002E0,-2.444268227E0,9.284450531E0,1.899602056E0
1.375190991E0,-2.452643156E0,9.285647392E0,1.901994944E0
1.380023595E0,-2.445464849E0,9.310771942E0,1.904387712E0
1.384854637E0,-2.447857618E0,9.310771942E0,1.923530340E0
1.389687241E0,-2.415554523E0,9.309576035E0,1.931905150E0
1.394518231E0,-2.402393818E0,9.308379173E0,1.960619092E0
1.399350835E0,-2.408375978E0,9.317950249E0,1.975275040E0
1.404181877E0,-2.413161755E0,9.308379173E0,2.000399828E0
1.409014481E0,-2.403590441E0,9.308379173E0,2.025524378E0
1.413845522E0,-2.404786825E0,9.289237022E0,2.021935225E0
1.418678074E0,-2.422732830E0,9.267701149E0,2.026720762E0
1.423509116E0,-2.425125837E0,9.285647392E0,2.018345833E0
1.428341720E0,-2.421536446E0,9.285647392E0,1.989632010E0
1.433172762E0,-2.428714991E0,9.266505241E0,1.981257200E0
1.438005366E0,-2.428714991E0,9.242277145E0,1.982453585E0
1.442836356E0,-2.431107759E0,9.256634712E0,1.970489502E0
1.447668960E0,-2.432304144E0,9.261718750E0,1.974078655E0
1.452500002E0,-2.446661234E0,9.283254623E0,1.943869352E0
1.457332606E0,-2.444268227E0,9.298808098E0,1.947458506E0
1.462163595E0,-2.423929453E0,9.301200867E0,1.931905150E0
1.466996199E0,-2.417947292E0,9.294022560E0,1.929512382E0
1.471827241E0,-2.426322222E0,9.291629791E0,1.936690807E0
1.476659845E0,-2.427518606E0,9.291629791E0,1.948654890E0
1.481490887E0,-2.432304144E0,9.284450531E0,1.965703845E0
1.486323439E0,-2.440679073E0,9.271290779E0,1.958226204E0
1.491154481E0,-2.445464849E0,9.289237022E0,1.957029819E0
1.495987085E0,-2.443071842E0,9.283254623E0,1.949851394E0
1.500818127E0,-2.446661234E0,9.292825699E0,1.964507341E0
1.505650731E0,-2.450250387E0,9.292825699E0,1.963011861E0
1.510481720E0,-2.447857618E0,9.315557480E0,1.965703845E0
1.515314324E0,-2.447857618E0,9.343074799E0,1.965703845E0
1.520145366E0,-2.446661234E0,9.362217903E0,1.976471543E0
1.524977970E0,-2.426322222E0,9.364610672E0,1.988435626E0
1.529808960E0,-2.428714991E0,9.353842735E0,1.998006940E0
1.534641564E0,-2.435893536E0,9.352646828E0,1.984846354E0
1.539472606E0,-2.431107759E0,9.358628273E0,1.974078655E0
1.544305210E0,-2.425125837E0,9.368199348E0,1.984846354E0
1.549136252E0,-2.416750908E0,9.355039597E0,1.976471543E0
1.553968804E0,-2.402393818E0,9.328718185E0,1.966900229E0
1.558799845E0,-2.402393818E0,9.304789543E0,1.953440547E0
1.563632449E0,-2.404786825E0,9.315557480E0,1.929512382E0
1.568463491E0,-2.402393818E0,9.309576035E0,1.927119493E0
1.573296095E0,-2.404786825E0,9.288040161E0,1.921137452E0
1.578127085E0,-2.409572363E0,9.279664993E0,1.937887192E0
1.582959689E0,-2.413161755E0,9.276076317E0,1.925923109E0
1.587790731E0,-2.423929453E0,9.291629791E0,1.931905150E0
1.592623335E0,-2.415554523E0,9.313164711E0,1.925923109E0
1.597454377E0,-2.419143677E0,9.310771942E0,1.934298038E0
1.602286929E0,-2.416750908E0,9.303593636E0,1.954637051E0
1.607117970E0,-2.420340061E0,9.295218468E0,1.946262121E0
1.611950574E0,-2.422732830E0,9.282057762E0,1.947458506E0
1.616781616E0,-2.422732830E0,9.279664993E0,1.965703845E0
1.621614168E0,-2.438286304E0,9.296415329E0,1.966900229E0
1.626445210E0,-2.439482689E0,9.321539879E0,1.940280080E0
1.631277814E0,-2.413161755E0,9.332307816E0,1.949851394E0
1.636108856E0,-2.415554523E0,9.346664429E0,1.964507341E0
1.640941460E0,-2.414358139E0,9.343074799E0,1.965703845E0
1.645772449E0,-2.417947292E0,9.321539879E0,1.993221283E0
1.650605054E0,-2.437089920E0,9.301200867E0,2.019542217E0
1.655436095E0,-2.452643156E0,9.284450531E0,2.023131609E0
1.660268699E0,-2.477767944E0,9.267701149E0,2.015953064E0
1.665099741E0,-2.498106956E0,9.273683548E0,1.986042738E0
1.669932293E0,-2.507678032E0,9.272486687E0,1.976471543E0
1.674763335E0,-2.507678032E0,9.268898010E0,1.948654890E0
1.679595939E0,-2.498106956E0,9.284450531E0,1.930708766E0
1.684426981E0,-2.482553482E0,9.295218468E0,1.939083695E0
1.689259585E0,-2.470589399E0,9.285647392E0,1.952244163E0
1.694090574E0,-2.469393015E0,9.301200867E0,1.946262121E0
1.698923179E0,-2.461018085E0,9.295218468E0,1.933101535E0
1.703754220E0,-2.461018085E0,9.278469086E0,1.957029819E0
1.708586824E0,-2.443071842E0,9.286844254E0,1.942672849E0
1.713417814E0,-2.446661234E0,9.270093918E0,1.940280080E0
1.718250418E0,-2.438286304E0,9.267701149E0,1.921137452E0
1.723081460E0,-2.439482689E0,9.302396774E0,1.919941068E0
1.727914064E0,-2.421536446E0,9.317950249E0,1.921137452E0
1.732745106E0,-2.416750908E0,9.328718185E0,1.945065737E0
1.737577658E0,-2.401197433E0,9.344271660E0,1.945065737E0
1.742408699E0,-2.397608280E0,9.357432365E0,1.953440547E0
1.747241304E0,-2.388036966E0,9.340682030E0,1.969292998E0
1.752072345E0,-2.407179594E0,9.319147110E0,1.976471543E0
1.756904949E0,-2.411965132E0,9.313164711E0,1.990828395E0
1.761735939E0,-2.421536446E0,9.297611237E0,1.975275040E0
1.766568543E0,-2.438286304E0,9.284450531E0,1.966900229E0
1.771399585E0,-2.455035925E0,9.284450531E0,1.939083695E0
1.776232189E0,-2.443071842E0,9.294022560E0,1.905584097E0
1.781063231E0,-2.453839540E0,9.296415329E0,1.909173369E0
1.785895783E0,-2.450250387E0,9.298808098E0,1.918744683E0
1.790726824E0,-2.434697151E0,9.292825699E0,1.924726725E0
1.795559429E0,-2.462214470E0,9.300004005E0,1.937887192E0
1.800390470E0,-2.469393015E0,9.307182312E0,1.974078655E0
1.805223074E0,-2.474178553E0,9.315557480E0,1.955833435E0
1.810054064E0,-2.477767944E0,9.308379173E0,1.931905150E0
1.814886668E0,-2.483749866E0,9.302396774E0,1.936690807E0
1.819717710E0,-2.475374937E0,9.307182312E0,1.937887192E0
1.824550314E0,-2.467000246E0,9.297611237E0,1.951047778E0
1.829381304E0,-2.455035925E0,9.314361572E0,1.954637051E0
1.834213908E0,-2.449054003E0,9.326325417E0,1.961815476E0
1.839044949E0,-2.459821701E0,9.332307816E0,1.952244163E0
1.843877554E0,-2.465803623E0,9.355039597E0,1.965703845E0
1.848708595E0,-2.457428932E0,9.362217903E0,1.987239242E0
1.853541147E0,-2.449054003E0,9.352646828E0,1.998006940E0
1.858372189E0,-2.437089920E0,9.335896492E0,1.994417667E0
1.863204793E0,-2.441875458E0,9.302396774E0,2.013560295E0
1.868035835E0,-2.461018085E0,9.289237022E0,2.009970903E0
1.872868439E0,-2.453839540E0,9.273683548E0,1.995614052E0
1.877699429E0,-2.455035925E0,9.259325981E0,1.983649969E0
1.882532033E0,-2.468196630E0,9.260522842E0,1.972882271E0
1.887363074E0,-2.457428932E0,9.276076317E0,1.955833435E0
1.892195679E0,-2.459821701E0,9.266505241E0,1.939083695E0
1.897026668E0,-2.476571321E0,9.276076317E0,1.940280080E0
1.901859272E0,-2.472982168E0,9.294022560E0,1.948654890E0
1.906690314E0,-2.441875458E0,9.303593636E0,1.948654890E0
1.911522918E0,-2.447857618E0,9.309576035E0,1.947458506E0
1.916353960E0,-2.456232548E0,9.320343018E0,1.934298038E0
1.921186564E0,-2.432304144E0,9.323932648E0,1.936690807E0
1.926017554E0,-2.432304144E0,9.311968803E0,1.957029819E0
1.930850158E0,-2.416750908E0,9.295218468E0,1.999203324E0
1.935681199E0,-2.421536446E0,9.300004005E0,2.011167526E0
1.940513804E0,-2.423929453E0,9.302396774E0,2.015953064E0
1.945344793E0,-2.417947292E0,9.288040161E0,2.017149448E0
1.950177397E0,-2.423929453E0,9.285647392E0,2.020738840E0
1.955008439E0,-2.422732830E0,9.317950249E0,2.007578135E0
1.959841043E0,-2.413161755E0,9.316754341E0,2.006381750E0
1.964672085E0,-2.408375978E0,9.303593636E0,2.019542217E0
1.969504637E0,-2.410768747E0,9.290432930E0,2.007578135E0
1.974335679E0,-2.415554523E0,9.290432930E0,1.993221283E0
1.979168283E0,-2.414358139E0,9.290432930E0,2.011167526E0
1.983999324E0,-2.423929453E0,9.291629791E0,1.984846354E0
1.988831929E0,-2.426322222E0,9.279664993E0,1.981257200E0
1.993662918E0,-2.422732830E0,9.267701149E0,1.976471543E0
1.998495522E0,-2.427518606E0,9.257830620E0,1.955833435E0
2.003326564E0,-2.427518606E0,9.265308380E0,1.968096614E0
2.008159168E0,-2.438286304E0,9.295218468E0,1.982453585E0
2.012990158E0,-2.452643156E0,9.291629791E0,1.965703845E0
2.017822762E0,-2.449054003E0,9.302396774E0,1.951047778E0
2.022653804E0,-2.445464849E0,9.305986404E0,1.958226204E0
2.027486408E0,-2.455035925E0,9.304789543E0,1.970489502E0
2.032317449E0,-2.449054003E0,9.310771942E0,1.987239242E0
2.037150002E0,-2.449054003E0,9.322735786E0,1.975275040E0
2.041981043E0,-2.437089920E0,9.338289261E0,1.977667928E0
2.046813647E0,-2.433500528E0,9.352646828E0,1.983649969E0
2.051644689E0,-2.420340061E0,9.363413811E0,1.994417667E0
2.056477293E0,-2.409572363E0,9.361021042E0,1.994417667E0
2.061308283E0,-2.407179594E0,9.358628273E0,2.029113531E0
2.066140887E0,-2.413161755E0,9.337093353E0,2.038684845E0
2.070971929E0,-2.422732830E0,9.321539879E0,2.039881229E0
2.075804533E0,-2.432304144E0,9.309576035E0,2.030309916E0
2.080635522E0,-2.422732830E0,9.265308380E0,2.024327993E0
2.085468127E0,-2.437089920E0,9.257830620E0,2.021935225E0
2.090299168E0,-2.433500528E0,9.232706070E0,2.009970903E0
2.095131772E0,-2.431107759E0,9.249456406E0,1.990828395E0
2.099962814E0,-2.414358139E0,9.265308380E0,1.996810555E0
2.104795366E0,-2.429911375E0,9.272486687E0,1.990828395E0
2.109626408E0,-2.422732830E0,9.295218468E0,1.992024899E0
2.114459012E0,-2.426322222E0,9.295218468E0,1.975275040E0
2.119290054E0,-2.435893536E0,9.333503723E0,1.987239242E0
2.124122658E0,-2.419143677E0,9.351449966E0,2.025524378E0
2.128953647E0,-2.417947292E0,9.351449966E0,2.031506538E0
2.133786252E0,-2.414358139E0,9.335896492E0,2.044667006E0
2.138617293E0,-2.440679073E0,9.323932648E0,2.044667006E0
2.143449897E0,-2.451446772E0,9.315557480E0,2.065006018E0
2.148280887E0,-2.459821701E0,9.300004005E0,2.053041935E0
2.153113491E0,-2.469393015E0,9.291629791E0,2.036292076E0
2.157944533E0,-2.478964329E0,9.273683548E0,2.011167526E0
2.162777137E0,-2.474178553E0,9.266505241E0,2.001596212E0
2.167608179E0,-2.483749866E0,9.279664993E0,1.996810555E0
2.172440731E0,-2.480160713E0,9.274879456E0,1.992024899E0
2.177271772E0,-2.467000246E0,9.276076317E0,1.989632010E0
2.182104377E0,-2.455035925E0,9.272486687E0,2.007578135E0
2.186935418E0,-2.446661234E0,9.276076317E0,2.013560295E0
2.191768022E0,-2.455035925E0,9.286844254E0,2.003988981E0
2.196599012E0,-2.433500528E0,9.285647392E0,2.013560295E0
2.201431616E0,-2.432304144E0,9.285647392E0,2.027917147E0
2.206262658E0,-2.416750908E0,9.290432930E0,2.031506538E0
2.211095262E0,-2.395215511E0,9.300004005E0,2.032702923E0
2.215926252E0,-2.407179594E0,9.304789543E0,2.039881229E0
2.220758856E0,-2.409572363E0,9.284450531E0,2.030309916E0
2.225589897E0,-2.419143677E0,9.270093918E0,2.025524378E0
2.230422502E0,-2.446661234E0,9.273683548E0,2.030309916E0
2.235253491E0,-2.450250387E0,9.270093918E0,2.026720762E0
2.240086095E0,-2.475374937E0,9.273683548E0,1.999203324E0
2.244917137E0,-2.475374937E0,9.282057762E0,1.982453585E0
2.249749741E0,-2.465803623E0,9.290432930E0,1.970489502E0
2.254580783E0,-2.456232548E0,9.288040161E0,1.971685886E0
2.259413335E0,-2.455035925E0,9.309576035E0,1.961815476E0
2.264244377E0,-2.445464849E0,9.313164711E0,1.984846354E0
2.269076981E0,-2.433500528E0,9.317950249E0,2.000399828E0
2.273908022E0,-2.435893536E0,9.317950249E0,2.003988981E0
2.278740627E0,-2.425125837E0,9.302396774E0,2.009970903E0
2.283571616E0,-2.432304144E0,9.298808098E0,2.014756680E0
2.288404220E0,-2.420340061E0,9.300004005E0,2.024327993E0
2.293235262E0,-2.432304144E0,9.282057762E0,2.020738840E0
2.298067866E0,-2.422732830E0,9.267701149E0,2.025524378E0
2.302898856E0,-2.426322222E0,9.288040161E0,2.015953064E0
2.307731460E0,-2.443071842E0,9.310771942E0,2.000399828E0
2.312562502E0,-2.432304144E0,9.320343018E0,1.996810555E0
2.317395106E0,-2.411965132E0,9.305986404E0,1.986042738E0
2.322226095E0,-2.425125837E0,9.294022560E0,1.983649969E0
2.327058699E0,-2.438286304E0,9.292825699E0,1.994417667E0
2.331889741E0,-2.431107759E0,9.303593636E0,1.978864312E0
2.336722345E0,-2.453839540E0,9.298808098E0,1.983649969E0
2.341553335E0,-2.461018085E0,9.315557480E0,1.976471543E0
2.346385939E0,-2.444268227E0,9.329915047E0,1.958226204E0
2.351216981E0,-2.445464849E0,9.321539879E0,1.974078655E0
2.356049585E0,-2.452643156E0,9.315557480E0,1.980060697E0
2.360880627E0,-2.451446772E0,9.319147110E0,1.987239242E0
2.365713179E0,-2.458625317E0,9.322735786E0,1.994417667E0
2.370544220E0,-2.468196630E0,9.313164711E0,1.998006940E0
2.375376824E0,-2.457428932E0,9.297611237E0,1.994417667E0
2.380207866E0,-2.449054003E0,9.292825699E0,2.005185366E0
2.385040470E0,-2.437089920E0,9.291629791E0,2.005185366E0
2.389871460E0,-2.433500528E0,9.302396774E0,2.007578135E0
2.394704064E0,-2.435893536E0,9.302396774E0,2.018345833E0
2.399535106E0,-2.434697151E0,9.305986404E0,2.031506538E0
2.404367710E0,-2.444268227E0,9.285647392E0,2.018345833E0
2.409198699E0,-2.449054003E0,9.297611237E0,2.012363911E0
2.414031304E0,-2.447857618E0,9.295218468E0,2.007578135E0
2.418862345E0,-2.452643156E0,9.286844254E0,1.998006940E0
2.423694949E0,-2.440679073E0,9.267701149E0,1.998006940E0
2.428525939E0,-2.453839540E0,9.262915611E0,1.975275040E0
2.433358543E0,-2.444268227E0,9.291629791E0,1.970489502E0
2.438189585E0,-2.439482689E0,9.334700584E0,1.963011861E0
2.443022189E0,-2.427518606E0,9.350254059E0,1.966900229E0
2.447853179E0,-2.421536446E0,9.343074799E0,1.976471543E0
2.452685783E0,-2.423929453E0,9.325128555E0,2.006381750E0
2.457516824E0,-2.422732830E0,9.297611237E0,2.001596212E0
2.462349429E0,-2.427518606E0,9.303593636E0,2.012363911E0
2.467180418E0,-2.427518606E0,9.279664993E0,1.983649969E0
2.472013022E0,-2.437089920E0,9.279664993E0,1.982453585E0
2.476844064E0,-2.438286304E0,9.280861855E0,1.976471543E0
2.481676668E0,-2.433500528E0,9.290432930E0,1.964507341E0
2.486507710E0,-2.432304144E0,9.283254623E0,1.975275040E0
2.491340262E0,-2.431107759E0,9.285647392E0,1.961815476E0
2.496171304E0,-2.434697151E0,9.291629791E0,1.963011861E0
2.501003908E0,-2.440679073E0,9.300004005E0,1.977667928E0
2.505834949E0,-2.423929453E0,9.297611237E0,1.965703845E0
2.510667502E0,-2.434697151E0,9.303593636E0,1.964507341E0
2.515498543E0,-2.438286304E0,9.303593636E0,1.951047778E0
2.520331147E0,-2.438286304E0,9.311968803E0,1.936690807E0
2.525162189E0,-2.429911375E0,9.317950249E0,1.941476464E0
2.529994741E0,-2.421536446E0,9.305986404E0,1.966900229E0
2.534825783E0,-2.428714991E0,9.309576035E0,1.966900229E0
2.539658387E0,-2.433500528E0,9.308379173E0,1.957029819E0
2.544489429E0,-2.438286304E0,9.300004005E0,1.963011861E0
2.549322033E0,-2.451446772E0,9.294022560E0,1.959422588E0
2.554153022E0,-2.437089920E0,9.327521324E0,1.961815476E0
2.558985627E0,-2.444268227E0,9.325128555E0,1.961815476E0
2.563816668E0,-2.439482689E0,9.337093353E0,1.935494423E0
2.568649220E0,-2.421536446E0,9.335896492E0,1.930708766E0
2.573480262E0,-2.404786825E0,9.350254059E0,1.939083695E0
2.578312866E0,-2.390429735E0,9.371788979E0,1.948654890E0
2.583143908E0,-2.368894339E0,9.388538361E0,1.975275040E0
2.587976460E0,-2.349751949E0,9.378967285E0,1.999203324E0
2.592807502E0,-2.355733871E0,9.343074799E0,2.014756680E0
2.597640106E0,-2.341377020E0,9.304789543E0,2.032702923E0
2.602471147E0,-2.368894339E0,9.276076317E0,2.015953064E0
2.607303752E0,-2.386840582E0,9.265308380E0,2.005185366E0
2.612134741E0,-2.402393818E0,9.249456406E0,2.002792597E0
2.616967345E0,-2.414358139E0,9.244669914E0,1.975275040E0
2.621798387E0,-2.402393818E0,9.268898010E0,1.970489502E0
2.626630991E0,-2.410768747E0,9.285647392E0,1.964507341E0
2.631461981E0,-2.414358139E0,9.277272224E0,1.945065737E0
2.636294585E0,-2.419143677E0,9.277272224E0,1.942672849E0
2.641125627E0,-2.438286304E0,9.286844254E0,1.945065737E0
2.645958231E0,-2.455035925E0,9.296415329E0,1.947458506E0
2.650789220E0,-2.462214470E0,9.311968803E0,1.953440547E0
2.655621824E0,-2.451446772E0,9.337093353E0,1.935494423E0
2.660452866E0,-2.447857618E0,9.355039597E0,1.940280080E0
2.665285470E0,-2.437089920E0,9.352646828E0,1.942672849E0
2.670116460E0,-2.450250387E0,9.345467567E0,1.958226204E0
2.674949064E0,-2.450250387E0,9.337093353E0,1.969292998E0
2.679780106E0,-2.450250387E0,9.341878891E0,1.987239242E0
2.684612710E0,-2.447857618E0,9.332307816E0,2.005185366E0
2.689443699E0,-2.450250387E0,9.315557480E0,2.020738840E0
2.694276304E0,-2.461018085E0,9.322735786E0,2.019542217E0
2.699107345E0,-2.452643156E0,9.329915047E0,2.017149448E0
2.703939949E0,-2.438286304E0,9.333503723E0,2.036292076E0
2.708770939E0,-2.444268227E0,9.316754341E0,2.024327993E0
2.713603543E0,-2.449054003E0,9.305986404E0,2.026720762E0
2.718434585E0,-2.440679073E0,9.292825699E0,1.993221283E0
2.723267189E0,-2.470589399E0,9.264111519E0,1.984846354E0
2.728098179E0,-2.480160713E0,9.259325981E0,1.968096614E0
2.732930783E0,-2.487339020E0,9.264111519E0,1.943869352E0
2.737761824E0,-2.476571321E0,9.264111519E0,1.917548299E0
2.742594429E0,-2.469393015E0,9.282057762E0,1.921137452E0
2.747425418E0,-2.471785784E0,9.309576035E0,1.906780601E0
2.752258022E0,-2.440679073E0,9.345467567E0,1.907976985E0
2.757089064E0,-2.423929453E0,9.346664429E0,1.911566138E0
2.761921616E0,-2.414358139E0,9.351449966E0,1.935494423E0
2.766752658E0,-2.432304144E0,9.353842735E0,1.947458506E0
2.771585262E0,-2.444268227E0,9.350254059E0,1.954637051E0
2.776416304E0,-2.455035925E0,9.344271660E0,1.959422588E0
2.781248908E0,-2.452643156E0,9.362217903E0,1.948654890E0
2.786079897E0,-2.453839540E0,9.369396210E0,1.947458506E0
2.790912502E0,-2.429911375E0,9.374181747E0,1.922333837E0
2.795743543E0,-2.423929453E0,9.374181747E0,1.882852316E0
2.800576095E0,-2.427518606E0,9.338289261E0,1.868495345E0
2.805407137E0,-2.421536446E0,9.331110954E0,1.863709688E0
2.810239741E0,-2.411965132E0,9.303593636E0,1.880459547E0
2.815070783E0,-2.409572363E0,9.290432930E0,1.881655931E0
2.819903335E0,-2.420340061E0,9.274879456E0,1.881655931E0
2.824734377E0,-2.396411896E0,9.264111519E0,1.886441588E0
2.829566981E0,-2.404786825E0,9.249456406E0,1.900798440E0
2.834398022E0,-2.410768747E0,9.260522842E0,1.923530340E0
2.839230574E0,-2.402393818E0,9.271290779E0,1.931905150E0
2.844061616E0,-2.410768747E0,9.284450531E0,1.934298038E0
2.848894220E0,-2.409572363E0,9.270093918E0,1.945065737E0
2.853725210E0,-2.428714991E0,9.245866776E0,1.960619092E0
2.858557814E0,-2.455035925E0,9.261718750E0,1.951047778E0
2.863388856E0,-2.464607239E0,9.255437851E0,1.941476464E0
2.868221460E0,-2.461018085E0,9.261718750E0,1.934298038E0
2.873052449E0,-2.463410854E0,9.274879456E0,1.917548299E0
2.877885054E0,-2.478964329E0,9.288040161E0,1.896012783E0
2.882716095E0,-2.476571321E0,9.297611237E0,1.890030742E0
2.887548699E0,-2.487339020E0,9.314361572E0,1.869691849E0
2.892379689E0,-2.483749866E0,9.338289261E0,1.856531262E0
2.897212293E0,-2.465803623E0,9.333503723E0,1.860120535E0
2.902043335E0,-2.447857618E0,9.326325417E0,1.869691849E0
2.906875939E0,-2.472982168E0,9.307182312E0,1.888834357E0
2.911706929E0,-2.455035925E0,9.296415329E0,1.874477386E0
2.916539533E0,-2.467000246E0,9.317950249E0,1.845763564E0
2.921370574E0,-2.452643156E0,9.337093353E0,1.844567180E0
2.926203179E0,-2.440679073E0,9.345467567E0,1.845763564E0
2.931034168E0,-2.427518606E0,9.371788979E0,1.826620936E0
2.935866772E0,-2.404786825E0,9.368199348E0,1.856531262E0
2.940697814E0,-2.370090723E0,9.335896492E0,1.867298961E0
2.945530366E0,-2.349751949E0,9.319147110E0,1.866102576E0
2.950361408E0,-2.377269268E0,9.294022560E0,1.892423630E0
2.955194012E0,-2.370090723E0,9.277272224E0,1.918744683E0
2.960025054E0,-2.362912416E0,9.273683548E0,1.924726725E0
2.964857606E0,-2.359323025E0,9.255437851E0,1.919941068E0
2.969688647E0,-2.364108801E0,9.266505241E0,1.924726725E0
2.974521252E0,-2.370090723E0,9.277272224E0,1.912762642E0
2.979352241E0,-2.353341103E0,9.296415329E0,1.881655931E0
2.984184845E0,-2.348555326E0,9.316754341E0,1.886441588E0
2.989015887E0,-2.336591244E0,9.333503723E0,1.874477386E0
2.993848491E0,-2.353341103E0,9.352646828E0,1.873281002E0
2.998679481E0,-2.346162558E0,9.371788979E0,1.863709688E0
3.003512085E0,-2.322234392E0,9.369396210E0,1.872084618E0
3.008343127E0,-2.338984251E0,9.374181747E0,1.842174292E0
3.013175731E0,-2.347358942E0,9.364610672E0,1.838585138E0
3.018006720E0,-2.355733871E0,9.377771378E0,1.815853238E0
3.022839324E0,-2.382055044E0,9.384949684E0,1.820638895E0
3.027670366E0,-2.348555326E0,9.416056633E0,1.819442511E0
3.032502918E0,-2.337787628E0,9.429216385E0,1.831406593E0
3.037333960E0,-2.336591244E0,9.424430847E0,1.862513304E0
3.042166564E0,-2.336591244E0,9.380164146E0,1.907976985E0
3.046997606E0,-2.365305185E0,9.339486122E0,1.906780601E0
3.051830158E0,-2.390429735E0,9.315557480E0,1.924726725E0
3.056661199E0,-2.447857618E0,9.298808098E0,1.885245085E0
3.061493804E0,-2.465803623E0,9.286844254E0,1.845763564E0
3.066324793E0,-2.461018085E0,9.297611237E0,1.814656854E0
3.071157397E0,-2.450250387E0,9.305986404E0,1.783550143E0
3.075988439E0,-2.433500528E0,9.327521324E0,1.765604019E0
3.080821043E0,-2.417947292E0,9.332307816E0,1.763211131E0
3.085652033E0,-2.390429735E0,9.329915047E0,1.754836321E0
3.090484637E0,-2.355733871E0,9.325128555E0,1.739282966E0
3.095315679E0,-2.336591244E0,9.338289261E0,1.736890078E0
3.100148231E0,-2.334198475E0,9.317950249E0,1.740479350E0
3.104979272E0,-2.334198475E0,9.308379173E0,1.776371717E0
3.109811877E0,-2.328216314E0,9.320343018E0,1.794317842E0
3.114642866E0,-2.315055847E0,9.361021042E0,1.803889155E0
3.119475470E0,-2.298306227E0,9.357432365E0,1.838585138E0
3.124306512E0,-2.292324066E0,9.363413811E0,1.860120535E0
3.129139116E0,-2.311466694E0,9.339486122E0,1.890030742E0
3.133970106E0,-2.305484533E0,9.338289261E0,1.885245085E0
3.138802710E0,-2.305484533E0,9.326325417E0,1.906780601E0
3.143633752E0,-2.298306227E0,9.321539879E0,1.906780601E0
3.148466356E0,-2.317448616E0,9.271290779E0,1.927119493E0
3.153297345E0,-2.317448616E0,9.232706070E0,1.945065737E0
3.158129949E0,-2.310270309E0,9.220742226E0,1.948654890E0
3.162960991E0,-2.300698996E0,9.221938133E0,1.970489502E0
3.167793543E0,-2.287538528E0,9.206384659E0,1.988435626E0
3.172624585E0,-2.306680918E0,9.206384659E0,2.013560295E0
3.177457189E0,-2.283949137E0,9.215956688E0,2.018345833E0
3.182288179E0,-2.268395901E0,9.229117393E0,2.007578135E0
3.187120783E0,-2.281556368E0,9.243474007E0,1.990828395E0
3.191951824E0,-2.269592285E0,9.272486687E0,1.947458506E0
3.196784429E0,-2.281556368E0,9.310771942E0,1.925923109E0
3.201615418E0,-2.306680918E0,9.321539879E0,1.911566138E0
3.206448022E0,-2.289931297E0,9.323932648E0,1.898405671E0
3.211279064E0,-2.301895380E0,9.328718185E0,1.880459547E0
3.216111668E0,-2.300698996E0,9.331110954E0,1.878066659E0
3.220942658E0,-2.288734913E0,9.339486122E0,1.862513304E0
3.225775262E0,-2.288734913E0,9.351449966E0,1.831406593E0
3.230606304E0,-2.267199516E0,9.337093353E0,1.813460469E0
3.235438856E0,-2.224128723E0,9.344271660E0,1.806282043E0
3.240269897E0,-2.155933142E0,9.345467567E0,1.787139416E0
3.245102502E0,-2.097309113E0,9.347860336E0,1.787139416E0
3.249933491E0,-2.051845312E0,9.362217903E0,1.781157374E0
3.254766095E0,-1.999203324E0,9.378967285E0,1.760818362E0
3.259597137E0,-1.951047778E0,9.414859772E0,1.765604019E0
3.264429689E0,-1.893620014E0,9.428020477E0,1.791925073E0
3.269260731E0,-1.849352837E0,9.401699066E0,1.852941990E0
3.274093335E0,-1.836192250E0,9.361021042E0,1.903191328E0
3.278924324E0,-1.845763564E0,9.320343018E0,1.961815476E0
3.283756929E0,-1.850549221E0,9.297611237E0,1.999203324E0
3.288587970E0,-1.899602056E0,9.251849174E0,1.981257200E0
3.293420574E0,-1.912762642E0,9.262915611E0,1.915155411E0
3.298251564E0,-1.875673890E0,9.292825699E0,1.819442511E0
3.303084168E0,-1.868495345E0,9.364610672E0,1.734497309E0
3.307915210E0,-1.825424552E0,9.448359489E0,1.671087503E0
3.312747762E0,-1.770389676E0,9.511769295E0,1.641177177E0
3.317578804E0,-1.733300924E0,9.564411163E0,1.605284929E0
3.322411408E0,-1.678265929E0,9.600303650E0,1.614856124E0
3.327242397E0,-1.680658817E0,9.615857124E0,1.633998752E0
3.332075002E0,-1.708176255E0,9.605089188E0,1.663909078E0
3.336906043E0,-1.738086581E0,9.581160545E0,1.720140338E0
3.341738595E0,-1.783550143E0,9.510572433E0,1.790728688E0
3.346569637E0,-1.832603097E0,9.471091270E0,1.850549221E0
3.351402241E0,-1.896012783E0,9.434001923E0,1.864906192E0
3.356233283E0,-1.982453585E0,9.450752258E0,1.878066659E0
3.361065835E0,-1.981257200E0,9.475876808E0,1.913959026E0
3.365896877E0,-1.971685886E0,9.501001358E0,1.879263043E0
3.370729481E0,-1.945065737E0,9.545269012E0,1.845763564E0
3.375560470E0,-1.878066659E0,9.577571869E0,1.842174292E0
3.380393074E0,-1.765604019E0,9.563215256E0,1.851745605E0
3.385224116E0,-1.718943954E0,9.515357971E0,1.830210209E0
3.390056668E0,-1.657927036E0,9.490233421E0,1.824228168E0
3.394887710E0,-1.592124343E0,9.450752258E0,1.849352837E0
3.399720314E0,-1.606481314E0,9.384949684E0,1.845763564E0
3.404551304E0,-1.582553029E0,9.338289261E0,1.927119493E0
3.409383908E0,-1.611266971E0,9.316754341E0,2.025524378E0
3.414214949E0,-1.592124343E0,9.272486687E0,2.126022816E0
3.419047554E0,-1.614856124E0,9.233902931E0,2.225325108E0
3.423878543E0,-1.654337764E0,9.202795982E0,2.316252232E0
3.428711147E0,-1.679462433E0,9.154939651E0,2.411965132E0
3.433542137E0,-1.684248090E0,9.117850304E0,2.472982168E0
3.438374741E0,-1.716551185E0,9.087940216E0,2.461018085E0
3.443205783E0,-1.727318883E0,9.154939651E0,2.462214470E0
3.448038387E0,-1.685444474E0,9.340682030E0,2.469393015E0
3.452869377E0,-1.690230131E0,9.542876244E0,2.426322222E0
3.457701981E0,-1.637588024E0,9.703194618E0,2.291127682E0
3.462532970E0,-1.649552107E0,9.800104141E0,2.115255117E0
3.467365574E0,-1.616052628E0,9.865009308E0,1.907976985E0
3.472196616E0,-1.631605983E0,9.935597420E0,1.752443433E0
3.477029220E0,-1.556231976E0,9.988240242E0,1.647159338E0
3.481860210E0,-1.628016710E0,9.999007225E0,1.596910000E0
3.486692814E0,-1.757229090E0,9.999007225E0,1.513161182E0
3.491523856E0,-1.913959026E0,1.000618649E1,1.482054472E0
3.496356408E0,-2.121237278E0,9.966704369E0,1.486840129E0
3.501187449E0,-2.471785784E0,9.854242325E0,1.566999674E0
3.506020054E0,-2.840579510E0,9.675677299E0,1.641177177E0
3.510851043E0,-3.076272726E0,9.481859207E0,1.650748491E0
3.515683647E0,-3.257229805E0,9.289237022E0,1.673480392E0
3.520514637E0,-3.307479143E0,9.107083321E0,1.589731574E0
3.525347241E0,-3.163909674E0,8.898907661E0,1.467697620E0
3.530178283E0,-2.847758055E0,8.658129692E0,1.357328653E0
3.535010887E0,-2.584547520E0,8.482256889E0,1.376471281E0
3.539841877E0,-2.318645239E0,8.420043945E0,1.384846091E0
3.544674481E0,-2.085345030E0,8.441578865E0,1.377667665E0
3.549505522E0,-1.913959026E0,8.509774208E0,1.425823212E0
3.554338074E0,-1.823031783E0,8.577970505E0,1.539482236E0
3.559169116E0,-1.801496387E0,8.668897629E0,1.620838284E0
3.564001720E0,-1.800299883E0,8.721838951E0,1.647159338E0
3.568832710E0,-1.763211131E0,8.700303078E0,1.595713615E0
3.573665314E0,-1.629213095E0,8.755337715E0,1.584945917E0
3.578496356E0,-1.528714538E0,8.790034294E0,1.628016710E0
3.583328908E0,-1.339382529E0,8.830712318E0,1.633998752E0
3.588159949E0,-1.088136077E0,8.931210518E0,2.091326952E0
3.592992554E0,-8.222336769E-1,9.078369141E0,2.880061150E0
3.597823543E0,-7.636095285E-1,9.140582085E0,3.354139090E0
3.602656147E0,-5.913262963E-1,9.163313866E0,3.702594042E0
3.607487189E0,-2.874378264E-1,9.219545364E0,4.056731701E0
3.612319741E0,-2.608176768E-1,9.206384659E0,4.226921082E0
3.617150783E0,-3.496512175E-1,9.166903496E0,4.302295208E0
3.621983387E0,-2.560320199E-1,9.079565048E0,4.432703972E0
3.626814377E0,-1.172483116E-1,8.689236641E0,4.549952030E0
3.631646981E0,3.089732230E-1,8.379365921E0,4.615755081E0
3.636478022E0,4.800600410E-1,8.087141991E0,4.333401680E0
3.641310574E0,6.320042610E-1,7.969893932E0,4.242474556E0
3.646141616E0,4.621138871E-1,7.870592117E0,4.692325115E0
3.650974220E0,4.980062246E-1,7.888537884E0,5.100600719E0
3.655805210E0,5.829514265E-1,7.962715626E0,5.475376606E0
3.660637814E0,6.236293912E-1,8.130212784E0,5.630909920E0
3.665468856E0,8.691928387E-1,8.469096184E0,5.696712494E0
3.670301408E0,7.121638656E-1,8.552845001E0,5.707480431E0
3.675132449E0,3.640081584E-1,8.548059464E0,5.788836002E0
3.679965054E0,3.469592705E-2,8.494221687E0,5.719444275E0
3.684796043E0,-1.615155339E-1,8.488239288E0,5.621338367E0
3.689628647E0,-6.487540603E-1,8.477471352E0,5.457430363E0
3.694459637E0,-1.001994491E0,8.544470787E0,5.204688549E0
3.699292241E0,-1.363310695E0,8.622237206E0,4.850550652E0
3.704123283E0,-1.574178219E0,8.662915230E0,4.537988186E0
3.708955887E0,-1.820638895E0,8.734998703E0,4.118945122E0
3.713786877E0,-2.126022816E0,8.778069496E0,3.866502285E0
3.718619481E0,-2.207378864E0,9.029315948E0,3.546761274E0
3.723450470E0,-2.310270309E0,9.237491608E0,3.297907829E0
3.728283074E0,-2.433500528E0,9.552447319E0,3.088535786E0
3.733114116E0,-2.531905413E0,9.807282448E0,3.015255690E0
3.737946668E0,-2.560619354E0,9.882955551E0,2.992523909E0
3.742777710E0,-2.659921408E0,9.910472870E0,2.931506872E0
3.747610314E0,-2.607279301E0,1.002173901E1,3.051147938E0
3.752441304E0,-2.505285263E0,1.011027431E1,3.287140131E0
3.757273908E0,-2.704188585E0,1.016650486E1,3.466601849E0
3.762104949E0,-2.767598391E0,1.012463093E1,3.748057604E0
3.766937502E0,-2.845365286E0,1.004925728E1,3.900001764E0
3.771768543E0,-3.092125177E0,1.001695347E1,3.907180309E0
3.776601147E0,-3.114856958E0,9.949954987E0,3.864109516E0
3.781432137E0,-3.303889751E0,9.843474388E0,3.713361740E0
3.786264741E0,-3.116053343E0,9.690034866E0,3.767200232E0
3.791095731E0,-3.119642496E0,9.347860336E0,3.743271828E0
3.795928335E0,-2.840579510E0,9.151350021E0,3.744468451E0
3.800759377E0,-2.694617510E0,9.108279228E0,3.653541088E0
3.805591981E0,-2.528316259E0,9.036494255E0,3.399602890E0
3.810422970E0,-2.355733871E0,9.128618240E0,3.387638569E0
3.815255574E0,-2.149951220E0,9.187242508E0,3.653541088E0
3.820086564E0,-2.092523336E0,9.174081802E0,4.154837608E0
3.824919168E0,-2.105684042E0,9.128618240E0,4.573880672E0
3.829750210E0,-1.974078655E0,9.068798065E0,4.995316505E0
3.834582762E0,-1.763211131E0,9.040083885E0,5.379663467E0
3.839413804E0,-2.017149448E0,8.855836868E0,5.445466042E0
3.844246408E0,-2.274377823E0,8.764909744E0,5.392824173E0
3.849077397E0,-2.370090723E0,8.668897629E0,5.352146149E0
3.853910002E0,-2.313859463E0,8.774480820E0,5.326722145E0
3.858741043E0,-2.378465652E0,8.892925262E0,5.217848778E0
3.863573595E0,-2.564208508E0,8.977870941E0,5.067101002E0
3.868404637E0,-2.667099953E0,9.090332985E0,4.848157883E0
3.873237241E0,-2.784348249E0,9.199206352E0,4.615755081E0
3.878068231E0,-2.851347208E0,9.289237022E0,4.509274483E0
3.882900835E0,-2.888436079E0,9.305986404E0,4.524827480E0
3.887731824E0,-2.866900682E0,9.371788979E0,4.785944462E0
3.892564429E0,-2.747259617E0,9.398110390E0,5.092225552E0
3.897395470E0,-2.632404089E0,9.396913528E0,5.281258583E0
3.902228022E0,-2.482553482E0,9.393324852E0,5.377270699E0
3.907059064E0,-2.415554523E0,9.376574516E0,5.333003521E0
3.911891668E0,-2.510071039E0,9.322735786E0,5.204688549E0
3.916722658E0,-2.608475685E0,9.311968803E0,5.051547527E0
3.921555262E0,-2.716152906E0,9.345467567E0,4.974977493E0
3.926386252E0,-2.808276415E0,9.395717621E0,4.861318111E0
3.931218856E0,-2.842972517E0,9.411270142E0,4.746163845E0
3.936049897E0,-2.803490877E0,9.411270142E0,4.728217602E0
3.940882449E0,-2.728116989E0,9.400503159E0,4.781158924E0
3.945713491E0,-2.676671267E0,9.382556915E0,4.820640087E0
3.950546095E0,-2.546262503E0,9.335896492E0,4.825426102E0
3.955377085E0,-2.453839540E0,9.199206352E0,4.824229717E0
3.960209689E0,-2.354537487E0,9.040083885E0,4.862514496E0
3.965040679E0,-2.227717876E0,8.974281311E0,4.979763031E0
3.969873283E0,-2.054238319E0,8.976674080E0,5.077868938E0
3.974704324E0,-2.011167526E0,8.994620323E0,5.265705109E0
3.979536877E0,-2.081755638E0,9.032905579E0,5.405984402E0
3.984367918E0,-2.159522533E0,9.052047729E0,5.313561916E0
3.989200522E0,-2.184647083E0,8.986245155E0,5.102993488E0
3.994031512E0,-2.140379906E0,8.892925262E0,4.923531532E0
3.998864116E0,-2.044667006E0,8.831908226E0,4.730610371E0
4.003695158E0,-1.870888233E0,8.772088051E0,4.468596458E0
4.008527710E0,-1.703390598E0,8.788837433E0,4.205086708E0
4.013358752E0,-1.562214136E0,8.841479301E0,4.066302776E0
4.018191356E0,-1.366899967E0,8.934800148E0,3.902394533E0
4.023022345E0,-1.201795220E0,9.018548965E0,3.696611881E0
4.027854949E0,-1.235294700E0,9.007781029E0,3.375674486E0
4.032685939E0,-1.344168067E0,9.062815666E0,3.003291607E0
4.037518543E0,-1.450947881E0,9.412467003E0,2.823829889E0
4.042349585E0,-1.633998752E0,9.800104141E0,2.567797899E0
4.047182137E0,-1.631605983E0,1.003729248E1,2.293520451E0
4.052013179E0,-1.561017632E0,1.003848934E1,2.484946251E0
4.056845783E0,-1.464108348E0,9.747462273E0,3.247658491E0
4.061676772E0,-1.177866936E0,9.701998711E0,4.333401680E0
4.066509377E0,-7.289136052E-1,9.920044899E0,5.371288776E0
4.071340366E0,-2.380858511E-1,1.039651489E1,5.702694416E0
4.076172970E0,-1.328016520E-1,1.094207859E1,5.535196781E0
4.081003960E0,-3.376871049E-1,1.129053402E1,5.125725269E0
4.085836564E0,-7.013961077E-1,1.124148083E1,4.831408024E0
4.090667606E0,-1.106082320E0,1.103450203E1,4.638486862E0
4.095500158E0,-1.628016710E0,1.085474110E1,4.453042984E0
4.100331199E0,-2.133201361E0,1.076740265E1,4.172783375E0
4.105163804E0,-2.487339020E0,1.073749256E1,3.827020645E0
4.109994793E0,-2.713759899E0,1.081406307E1,3.535993576E0
4.114827397E0,-2.936292410E0,1.097707367E1,3.510869026E0
4.119658387E0,-3.161516905E0,1.121037388E1,3.720540047E0
4.124490991E0,-3.549154282E0,1.144487095E1,3.983750582E0
4.129322033E0,-4.044767380E0,1.154566860E1,4.103391647E0
4.134154585E0,-4.486542225E0,1.155643559E1,4.059124470E0
4.138985627E0,-4.795515537E0,1.151934719E1,3.819842339E0
4.143818231E0,-4.892425060E0,1.136949635E1,3.558725595E0
4.148649220E0,-4.812265396E0,1.110628605E1,3.288336515E0
4.153481824E0,-4.619344234E0,1.077458096E1,3.064308405E0
4.158312814E0,-4.784748077E0,1.058195877E1,2.913560629E0
4.163145418E0,-4.767699242E0,1.065613651E1,2.801098108E0
4.167976460E0,-3.823431492E0,1.059751225E1,3.023630619E0
4.172809012E0,-3.416352510E0,1.050060272E1,3.060719252E0
4.177640054E0,-3.628117323E0,1.056520939E1,3.076272726E0
4.182472606E0,-4.121337891E0,1.084158039E1,2.993720293E0
4.187303647E0,-4.475774765E0,1.124507046E1,2.914757013E0
4.192136252E0,-4.650450706E0,1.144367409E1,2.710170746E0
4.196967241E0,-4.922335148E0,1.134317589E1,2.414358139E0
4.201799845E0,-5.317151070E0,1.092413235E1,2.216950178E0
4.206630835E0,-5.368896008E0,1.035314560E1,2.857329369E0
4.211463439E0,-5.236991405E0,9.705587387E0,3.693022728E0
4.216294481E0,-5.138885498E0,9.140582085E0,4.258028030E0
4.221127033E0,-5.269294739E0,8.604290962E0,4.573880672E0
4.225958074E0,-5.167599678E0,8.183154106E0,4.809872627E0
4.230790627E0,-5.019244671E0,7.951947689E0,5.051547527E0
4.235621668E0,-5.097011566E0,7.681559086E0,5.181956768E0
4.240454272E0,-5.166403294E0,7.541279793E0,5.178367138E0
4.245285262E0,-5.280062199E0,7.523333549E0,5.168796062E0
4.250117866E0,-5.545964718E0,7.691130161E0,4.834997177E0
4.254948856E0,-5.720640659E0,7.945965767E0,4.481756687E0
4.259781460E0,-5.660820007E0,8.630612373E0,4.279563427E0
4.264612502E0,-5.331807137E0,9.572786331E0,4.388436794E0
4.269445054E0,-4.976173878E0,1.073390293E1,4.664807796E0
4.274276095E0,-4.589433670E0,1.198834038E1,4.852943420E0
4.279108699E0,-4.050749779E0,1.311476135E1,5.094618320E0
4.283939689E0,-3.470191002E0,1.415743446E1,5.380859852E0
4.288772293E0,-2.990130901E0,1.485404491E1,5.532804012E0
4.293603283E0,-2.792723179E0,1.486002636E1,5.512465000E0
4.298435887E0,-2.961417198E0,1.445324707E1,5.385645390E0
4.303266877E0,-3.009273529E0,1.388943768E1,5.403591633E0
4.308099481E0,-2.956631422E0,1.312194061E1,5.431109428E0
4.312930522E0,-3.153141975E0,1.246241856E1,5.385645390E0
4.317763074E0,-3.660719633E0,1.167129135E1,5.271687508E0
4.322594116E0,-4.117748737E0,1.092293644E1,5.000102043E0
4.327426668E0,-4.360919476E0,1.017248726E1,4.834997177E0
4.332257710E0,-4.340580463E0,9.307182312E0,4.510470867E0
4.337090314E0,-4.284348965E0,8.471489906E0,4.231706619E0
4.341921304E0,-4.381258488E0,7.829914093E0,4.028017998E0
4.346753908E0,-4.686343193E0,7.392924786E0,3.791128397E0
4.351584897E0,-4.831408024E0,7.013363361E0,3.397209883E0
4.356417502E0,-4.886443138E0,6.522834301E0,2.791526794E0
4.361248491E0,-5.013262749E0,5.992525101E0,2.670689106E0
4.366081095E0,-5.207081318E0,5.465805054E0,2.831008196E0
4.370912137E0,-5.353342533E0,5.082654476E0,2.880061150E0
4.375744689E0,-5.175974369E0,4.807479858E0,2.970988512E0
4.380575731E0,-4.897210598E0,4.564309120E0,3.096910715E0
4.385408335E0,-4.499702930E0,4.320241451E0,3.663112402E0
4.390239324E0,-4.484149456E0,3.894019842E0,3.665505171E0
4.395071929E0,-3.385245800E0,3.648755312E0,3.018844843E0
4.399902918E0,-2.710170746E0,3.501297712E0,4.437489510E0
4.404735522E0,-3.886841297E0,3.077469110E0,5.324329376E0
4.409566512E0,-5.362913609E0,2.847758055E0,5.376074314E0
4.414399116E0,-6.066702843E0,3.135195971E0,4.683950424E0
4.419230158E0,-5.688337803E0,3.202194929E0,3.721736431E0
4.424062710E0,-5.022833824E0,3.128017426E0,3.713361740E0
4.428893752E0,-4.468596458E0,3.178266764E0,3.992125511E0
4.433726304E0,-4.069892406E0,3.344567776E0,3.696611881E0
4.438557345E0,-3.682255030E0,3.370888948E0,3.215355396E0
4.443389897E0,-3.187838078E0,3.357728481E0,2.637189627E0
4.448220939E0,-2.803490877E0,3.186641455E0,2.008774519E0
4.453053543E0,-2.426322222E0,2.933899641E0,1.398006678E0
4.457884533E0,-2.232503414E0,2.728116989E0,9.804590940E-1
4.462717137E0,-1.881655931E0,2.557030201E0,7.384848595E-1
4.467548127E0,-1.589731574E0,2.303091764E0,6.918248534E-1
4.472380731E0,-1.313061476E0,2.093719721E0,9.529415965E-1
4.477211720E0,-1.176670551E0,1.941476464E0,1.628016710E0
4.482044324E0,-1.201795220E0,2.017149448E0,2.671885490E0
4.486875366E0,-1.338186026E0,2.140379906E0,3.827020645E0
4.491707918E0,-1.459322691E0,2.324627161E0,4.738985062E0
4.496538960E0,-1.808674812E0,2.713759899E0,5.024030209E0
4.501371512E0,-2.249253273E0,3.073879719E0,5.025226593E0
4.506202554E0,-2.704188585E0,3.465405464E0,4.734199524E0
4.511035158E0,-3.081058264E0,3.804288864E0,4.139284134E0
4.515866147E0,-3.282354355E0,4.139284134E0,3.829413652E0
4.520698752E0,-3.312264681E0,4.296313286E0,3.272783279E0
4.525529741E0,-3.234498024E0,4.553541660E0,2.954238653E0
4.530362345E0,-3.166302681E0,4.583451748E0,2.842972517E0
4.535193335E0,-3.079861879E0,4.558327198E0,2.939881802E0
4.540025939E0,-3.006880760E0,4.596612453E0,3.240479946E0
4.544856981E0,-2.938685417E0,4.535595417E0,3.727718592E0
4.549689533E0,-2.980559587E0,4.492524624E0,4.311866283E0
4.554520574E0,-3.047558784E0,4.392025948E0,4.797908306E0
4.559353127E0,-2.942274570E0,4.308277130E0,5.107779026E0
4.564184168E0,-2.808276415E0,4.310669899E0,5.325525761E0
4.569016720E0,-2.726920605E0,4.362115860E0,5.409573555E0
4.573847762E0,-2.523231506E0,4.319045067E0,5.461019516E0
4.578680366E0,-2.470589399E0,4.214957237E0,5.520840168E0
4.583511356E0,-2.573779821E0,4.102195263E0,5.612963676E0
4.588343960E0,-2.704188585E0,4.120141506E0,5.746961594E0
4.593174949E0,-2.890828848E0,4.110570431E0,5.914758682E0
4.598007554E0,-3.318246841E0,4.086641788E0,6.163611889E0
4.602838543E0,-3.911965847E0,4.079463482E0,6.522834301E0
4.607671147E0,-4.526023865E0,4.053142548E0,6.762116909E0
4.612502189E0,-5.010869503E0,4.123730659E0,6.981060028E0
4.617334741E0,-5.587839127E0,4.162015915E0,7.191927433E0
4.622165783E0,-6.122933865E0,4.273581028E0,7.158428192E0
4.626998335E0,-6.399304867E0,4.587040901E0,6.746563435E0
4.631829377E0,-6.686742783E0,5.000102043E0,6.335895061E0
4.636661929E0,-6.953542709E0,5.320740223E0,6.097809315E0
4.641492970E0,-7.116553783E0,5.545964718E0,6.100202084E0
4.646325574E0,-7.108178616E0,5.829514027E0,6.205486298E0
4.651156564E0,-6.932007313E0,6.140880108E0,6.380162239E0
4.655989168E0,-6.655636311E0,6.464210510E0,6.543173313E0
4.660820158E0,-6.408876419E0,6.731009960E0,6.503692150E0
4.665652762E0,-6.166004658E0,6.865008354E0,6.571887493E0
4.670483752E0,-5.828317642E0,6.772884369E0,6.841079712E0
4.675316356E0,-5.572285652E0,6.447161674E0,7.175177574E0
4.680147345E0,-5.439484119E0,6.020042896E0,7.400103092E0
4.684979949E0,-5.449055195E0,5.733801365E0,7.422834873E0
4.689810991E0,-5.622535229E0,5.587839127E0,7.529315472E0
4.694643543E0,-5.865406513E0,5.513661385E0,7.855038643E0
4.699474585E0,-6.116951942E0,5.549553871E0,8.390133858E0
4.704307137E0,-6.521637917E0,5.681159019E0,8.915657043E0
4.709138179E0,-7.059125900E0,5.997310638E0,9.349057198E0
4.713970731E0,-7.877770424E0,6.423233509E0,9.798908234E0
4.718801772E0,-8.828319550E0,6.972685337E0,1.036032391E1
4.723634377E0,-9.719944954E0,7.525726318E0,1.071954632E1
4.728465366E0,-1.059033394E1,7.986643791E0,1.085474110E1
4.733297970E0,-1.122233772E1,8.394919395E0,1.067288589E1
4.738128960E0,-1.149153042E1,8.756534576E0,1.018086243E1
4.742961564E0,-1.138146114E1,9.025727272E0,9.545269012E0
4.747792554E0,-1.103450203E1,9.198010445E0,9.144171715E0
4.752625158E0,-1.051615620E1,9.335896492E0,9.037691116E0
4.757456147E0,-9.917651176E0,9.462716103E0,9.048459053E0
4.762288752E0,-9.322735786E0,9.596714020E0,9.006584167E0
4.767119793E0,-8.628219604E0,9.716355324E0,8.828319550E0
4.771952345E0,-8.026124954E0,9.866206169E0,8.497810364E0
4.776783387E0,-7.591827869E0,9.981060982E0,8.138887405E0
4.781615939E0,-7.105785847E0,1.012223816E1,7.762914658E0
4.786446981E0,-6.571887493E0,1.029571724E1,7.474280834E0
4.791279533E0,-6.049952984E0,1.048385334E1,7.132106781E0
4.796110574E0,-5.584249973E0,1.065733337E1,7.009773731E0
4.800943127E0,-5.158028126E0,1.072074318E1,7.051947594E0
4.805774168E0,-4.826622486E0,1.070997524E1,7.074679375E0
4.810606772E0,-4.578666210E0,1.064656544E1,6.903293133E0
4.815437762E0,-4.344169617E0,1.053888798E1,6.483353138E0
4.820270366E0,-4.028017998E0,1.032562828E1,5.974578857E0
4.825101356E0,-3.681058645E0,1.000857925E1,5.500501156E0
4.829933960E0,-3.236890793E0,9.535696983E0,5.268098354E0
4.834764949E0,-2.753241539E0,8.938388824E0,5.307579517E0
4.839597554E0,-2.299502611E0,8.219046593E0,5.456233978E0
4.844428595E0,-1.998006940E0,7.572386265E0,5.690730572E0
4.849261147E0,-1.779960990E0,6.952346325E0,5.915955067E0
4.854092189E0,-1.520339727E0,6.334698677E0,6.173183441E0
4.858924741E0,-1.192223907E0,5.864210129E0,6.583851337E0
4.863755783E0,-8.476574421E-1,5.575874805E0,6.954739094E0
4.868588335E0,-5.697908998E-1,5.400002480E0,7.347461224E0
4.873419377E0,-3.951148391E-1,5.248955727E0,7.593024254E0
4.878251929E0,-1.914258152E-1,5.102993488E0,7.516155243E0
4.883082970E0,1.746760458E-1,4.994120121E0,7.148856640E0
4.887915522E0,5.554339290E-1,5.044369221E0,6.516852379E0
4.892746564E0,6.152545214E-1,5.152046204E0,5.778068542E0
4.897579168E0,2.177468538E-1,5.257330418E0,4.907978535E0
4.902410158E0,-5.985047817E-1,5.496912003E0,4.133302212E0
4.907242762E0,-1.387238979E0,6.045167446E0,3.398406267E0
4.912073752E0,-2.130808592E0,6.716653347E0,3.139981508E0
4.916906356E0,-3.260818958E0,7.370193005E0,3.071486950E0
4.921737345E0,-4.237689018E0,8.183154106E0,3.276372433E0
4.926569949E0,-4.829015255E0,9.152546883E0,3.827020645E0
4.931400939E0,-5.379663467E0,1.025264645E1,4.287938118E0
4.936233543E0,-5.888138294E0,1.130728340E1,4.656432629E0
4.941064533E0,-6.223432541E0,1.225304699E1,5.055137157E0
4.945897137E0,-6.119344711E0,1.302981663E1,5.490929604E0
4.950728179E0,-5.912365437E0,1.363549995E1,6.316752911E0
4.955560731E0,-5.599802971E0,1.398873997E1,7.187141895E0
4.960391772E0,-5.069493771E0,1.392533016E1,8.004590034E0
4.965224324E0,-4.697110653E0,1.318684578E1,8.426025391E0
4.970055366E0,-4.949852943E0,1.182084274E1,6.898507595E0
4.974887918E0,-4.784748077E0,1.003729248E1,5.388038158E0
4.979718960E0,-3.986143351E0,8.191529274E0,4.151247978E0
4.984551564E0,-3.842574120E0,6.436393738E0,2.493321180E0
4.989382554E0,-5.152046204E0,5.543571949E0,7.537391037E-2
4.994215158E0,-5.620141983E0,5.545964718E0,1.165902853E0
4.999046147E0,-4.535595417E0,6.030810356E0,4.092624187E0
5.003878752E0,-3.404388428E0,6.412465572E0,5.775675774E0
5.008709741E0,-2.951845884E0,6.491727829E0,6.723831654E0
5.013542345E0,-2.737688303E0,6.673582554E0,6.758527756E0
5.018373335E0,-2.514856577E0,6.748956203E0,5.931508064E0
5.023205939E0,-2.299502611E0,6.896114826E0,4.566701889E0
5.028036929E0,-1.977667928E0,6.953542709E0,2.999702215E0
5.032869533E0,-1.722533226E0,6.765706062E0,1.984846354E0
5.037700522E0,-1.494018674E0,6.339484692E0,1.637588024E0
5.042533127E0,-1.316650629E0,5.912365437E0,1.577767372E0
5.047364168E0,-1.003190875E0,5.555535793E0,1.913959026E0
5.052196720E0,-7.181459069E-1,5.271687508E0,2.295913219E0
5.057027762E0,-3.747758567E-1,5.181956768E0,2.384447813E0
5.061860314E0,-1.184447184E-1,5.222634315E0,2.188236237E0
5.066691356E0,-7.178467698E-3,5.153242588E0,2.114058733E0
5.071523908E0,-2.991028316E-2,5.034798145E0,2.340180635E0
5.076354949E0,8.614161611E-2,4.935495853E0,2.840579510E0
5.081187554E0,1.495514214E-1,4.882853508E0,3.421138287E0
5.086018543E0,9.930214286E-2,4.839782715E0,3.849752426E0
5.090851147E0,2.727817893E-1,4.862514496E0,4.175176620E0
5.095682137E0,4.034897089E-1,4.886443138E0,4.237689018E0
5.100514741E0,-1.160518974E-1,4.808676243E0,4.085445404E0
5.105345731E0,-5.781657696E-1,4.731806755E0,4.023231983E0
5.110178335E0,-2.862414122E-1,4.951049328E0,4.126123428E0
5.115009324E0,-6.762714982E-1,5.026422977E0,3.993321896E0
5.119841929E0,-1.120439172E0,4.985744953E0,3.624528170E0
5.124672918E0,-1.608874083E0,4.856532574E0,3.293122053E0
5.129505522E0,-2.000399828E0,4.862514496E0,3.264408350E0
5.134336512E0,-2.084148407E0,4.746163845E0,3.473780155E0
5.139169116E0,-2.276770830E0,4.467400074E0,3.485744476E0
5.144000106E0,-2.761616468E0,4.246063709E0,3.815056562E0
5.148832710E0,-2.783151865E0,4.253242016E0,4.017250061E0
5.153663752E0,-2.682653189E0,4.437489510E0,4.473381996E0
5.158496304E0,-2.674278498E0,4.366901398E0,4.836193562E0
5.163327345E0,-2.682653189E0,4.418346882E0,4.955834866E0
5.168159897E0,-2.814258575E0,4.566701889E0,4.861318111E0
5.172990939E0,-2.953042269E0,4.838586330E0,4.674378872E0
5.177823491E0,-3.144767046E0,5.104189873E0,4.441078663E0
5.182654533E0,-3.142374277E0,5.425127029E0,4.250849247E0
5.187487085E0,-2.968595505E0,5.700301647E0,4.132105827E0
5.192318127E0,-2.653939486E0,6.023632050E0,3.993321896E0
5.197150731E0,-2.189432621E0,6.442375660E0,4.124927044E0
5.201981720E0,-1.673480392E0,6.866204739E0,4.443471432E0
5.206814324E0,-1.315454245E0,7.250551701E0,4.630111694E0
5.211645314E0,-1.246062398E0,7.646862984E0,4.453042984E0
5.216477918E0,-1.271187067E0,8.034500122E0,4.473381996E0
5.221308908E0,-1.253240824E0,8.152048111E0,4.606183529E0
5.226141512E0,-1.407876968E0,8.180761337E0,4.674378872E0
5.230972502E0,-1.540678620E0,8.394919395E0,4.412364960E0
5.235805106E0,-1.697408557E0,8.800801277E0,4.342973232E0
5.240636095E0,-1.753639936E0,9.241081238E0,4.372883320E0
5.245468699E0,-1.693819284E0,9.597910881E0,4.662415028E0
5.250299689E0,-1.624427438E0,9.985847473E0,5.083850861E0
5.255132293E0,-1.648355722E0,1.040130138E1,5.575874805E0
5.259963335E0,-1.721336842E0,1.088943672E1,6.079863071E0
5.264795887E0,-1.969292998E0,1.138983536E1,6.541976929E0
5.269626929E0,-2.312663078E0,1.173589802E1,6.851847649E0
5.274459481E0,-2.651546478E0,1.193330574E1,6.802794933E0
5.279290522E0,-2.974577665E0,1.216092300E1,6.378965855E0
5.284123074E0,-3.195016384E0,1.245284748E1,5.841478348E0
5.288954116E0,-3.336193085E0,1.281087303E1,5.376074314E0
5.293786720E0,-3.451048374E0,1.324786282E1,5.152046204E0
5.298617710E0,-3.647259951E0,1.355055428E1,4.996512890E0
5.303450314E0,-3.673880100E0,1.369292736E1,4.834997177E0
5.308281304E0,-3.073879719E0,1.380688572E1,4.735395908E0
5.313113908E0,-1.960619092E0,1.394447327E1,4.712664127E0
5.317944897E0,-1.849352837E0,1.416461277E1,4.466203690E0
5.322777502E0,-2.576172590E0,1.392891979E1,4.220939159E0
5.327608491E0,-3.008077145E0,1.309561920E1,4.608576298E0
5.332441095E0,-2.707777977E0,1.209631634E1,5.439484119E0
5.337272085E0,-1.661516190E0,1.179452229E1,6.051149368E0
5.342104689E0,-6.822535396E-1,1.192014503E1,6.037988663E0
5.346935679E0,1.351944804E-1,1.217288685E1,5.815157413E0
5.351768283E0,5.805585980E-1,1.238584805E1,5.804389477E0
5.356599272E0,6.631109715E-1,1.255573845E1,5.959025860E0
5.361431877E0,3.532404304E-1,1.272592831E1,5.932704449E0
5.366262918E0,-4.905286431E-2,1.280130196E1,5.562714577E0
5.371095470E0,-5.805585980E-1,1.257607746E1,5.130510807E0
5.375926512E0,-1.244866014E0,1.196560860E1,4.742574692E0
5.380759064E0,-1.829013824E0,1.109910774E1,4.222135544E0
5.385590106E0,-2.228914261E0,1.019521904E1,3.649951935E0
5.390422658E0,-2.496910334E0,9.365806580E0,3.208176851E0
5.395253699E0,-2.852543592E0,8.666504860E0,3.009273529E0
5.400086304E0,-3.289532900E0,8.113463402E0,3.242872953E0
5.404917293E0,-3.773182154E0,7.689933777E0,3.793521166E0
5.409749897E0,-4.365705013E0,7.463512897E0,4.555934429E0
5.414580887E0,-4.864907742E0,7.237390995E0,5.484947681E0
5.419413491E0,-5.358128071E0,7.230212688E0,5.596213818E0
5.424244481E0,-5.537590027E0,7.488637447E0,5.447858810E0
5.429077085E0,-5.563910961E0,7.780860901E0,5.227420330E0
5.433908074E0,-5.478965759E0,7.896913052E0,5.075475693E0
5.438740679E0,-5.323132992E0,7.981858253E0,4.284348965E0
5.443571668E0,-5.251348495E0,7.972286701E0,3.974179268E0
5.448404272E0,-5.385645390E0,8.174779892E0,2.827419043E0
5.453235262E0,-5.715855122E0,8.557631493E0,2.876471996E0
5.458067866E0,-5.705087185E0,8.932407379E0,3.430709362E0
5.462898856E0,-5.523232937E0,9.588339806E0,3.666701555E0
5.467731460E0,-5.401198864E0,1.034118080E1,3.707379580E0
5.472562502E0,-5.469394207E0,1.084756279E1,3.543172121E0
5.477395054E0,-5.812764645E0,1.074945641E1,3.646063566E0
5.482226095E0,-6.144469261E0,1.035912704E1,3.748057604E0
5.487058647E0,-6.527620316E0,9.772586823E0,3.937090635E0
5.491889689E0,-6.876972198E0,9.257830620E0,4.179962158E0
5.496722241E0,-6.995417118E0,9.109476089E0,4.326223373E0
5.501553283E0,-6.809973240E0,9.430413246E0,4.564309120E0
5.506385835E0,-6.516852379E0,1.019521904E1,4.830211639E0
5.511216877E0,-6.393322945E0,1.119960594E1,5.099404335E0
5.516049429E0,-6.133701801E0,1.230329609E1,5.208277702E0
5.520880470E0,-5.618945599E0,1.353739452E1,5.088636398E0
5.525713074E0,-5.019244671E0,1.480618858E1,4.921138763E0
5.530544064E0,-4.621737003E0,1.592662716E1,4.782355309E0
5.535376668E0,-4.613361835E0,1.660439491E1,4.420739651E0
5.540207658E0,-4.448257446E0,1.685923004E1,4.130908966E0
5.545040262E0,-4.042374611E0,1.682094574E1,4.220939159E0
5.549871252E0,-3.683451414E0,1.643300819E1,4.340580463E0
5.554703856E0,-3.520440340E0,1.563470268E1,4.411168575E0
5.559534845E0,-3.482155085E0,1.447119331E1,4.401597023E0
5.564367449E0,-3.205784082E0,1.323589802E1,4.258028030E0
5.569198439E0,-2.789133787E0,1.168684483E1,3.666701555E0
5.574031043E0,-2.564208508E0,1.009591675E1,2.852543592E0
5.578862033E0,-2.594118834E0,8.734998703E0,2.274377823E0
5.583694637E0,-2.970988512E0,7.606184959E0,2.097309113E0
5.588525627E0,-2.906382322E0,6.691528320E0,2.063809633E0
5.593358231E0,-2.847758055E0,5.812764645E0,2.049452543E0
5.598189272E0,-2.947060108E0,5.008476734E0,2.030309916E0
5.603021824E0,-2.574976206E0,4.415954113E0,2.266003132E0
5.607852866E0,-2.467000246E0,3.858127356E0,2.417947292E0
5.612685418E0,-2.816651344E0,3.251247883E0,2.614457846E0
5.617516460E0,-2.932703257E0,2.809472799E0,3.055933714E0
5.622349012E0,-2.948256493E0,2.633600473E0,3.357728481E0
5.627180054E0,-3.185445070E0,2.472982168E0,3.597010612E0
5.632012606E0,-3.726522207E0,2.225325108E0,4.026821613E0
5.636843647E0,-4.117748737E0,2.187039852E0,4.622933388E0
5.641676252E0,-3.776771545E0,2.294716835E0,4.360919476E0
5.646507241E0,-3.565903902E0,2.313859463E0,3.775574923E0
5.651339845E0,-3.829413652E0,2.312663078E0,3.677469254E0
5.656170835E0,-3.611367464E0,2.204986095E0,3.057130098E0
5.661003439E0,-3.160320520E0,2.154736757E0,2.194218397E0
5.665834429E0,-2.954238653E0,2.262413740E0,1.604088426E0
5.670667033E0,-2.493321180E0,2.438286304E0,1.416251898E0
5.675498022E0,-1.947458506E0,2.641975403E0,1.332203984E0
5.680330627E0,-1.430608869E0,2.780759096E0,1.259222865E0
5.685161616E0,-1.191027522E0,2.760420084E0,1.230509043E0
5.689994220E0,-1.195813060E0,2.878864765E0,1.265205026E0
5.694825210E0,-1.088136077E0,3.067897797E0,1.381256819E0
5.699657814E0,-1.100100160E0,3.205784082E0,1.711765528E0
5.704488804E0,-1.229312658E0,3.318246841E0,2.428714991E0
5.709321408E0,-1.262812138E0,3.423531055E0,3.340978622E0
5.714152449E0,-1.421037555E0,3.503690481E0,4.213760853E0
5.718985002E0,-1.872084618E0,3.521636724E0,4.959424019E0
5.723816043E0,-2.404786825E0,3.727718592E0,5.390431404E0
5.728648595E0,-2.787937403E0,3.933501244E0,5.504090309E0
5.733479637E0,-2.878864765E0,4.162015915E0,5.373681545E0
5.738312189E0,-2.945863724E0,4.371686935E0,5.049154758E0
5.743143231E0,-3.092125177E0,4.613361835E0,4.589433670E0
5.747975783E0,-3.088535786E0,4.775176525E0,3.908376694E0
5.752806824E0,-3.096910715E0,4.896014214E0,3.230908871E0
5.757639429E0,-3.054737091E0,4.882853508E0,2.717349291E0
5.762470418E0,-2.868097067E0,4.766502857E0,2.299502611E0
5.767303022E0,-2.679064035E0,4.584648132E0,2.287538528E0
5.772134012E0,-2.563012123E0,4.415954113E0,2.622832775E0
5.776966616E0,-2.543869495E0,4.262813568E0,3.343371391E0
5.781797606E0,-2.564208508E0,4.081856251E0,4.203890324E0
5.786630210E0,-2.604886532E0,3.886841297E0,5.037190914E0
5.791461199E0,-2.645564556E0,3.758825302E0,5.614160061E0
5.796293804E0,-2.792723179E0,3.658326626E0,5.901597977E0
5.801124793E0,-2.921935558E0,3.563511133E0,5.949454308E0
5.805957397E0,-3.041576624E0,3.443870068E0,5.879763603E0
5.810788387E0,-3.130410194E0,3.297907829E0,5.696712494E0
5.815620991E0,-3.244069338E0,3.185445070E0,5.462215900E0
5.820451981E0,-3.419941664E0,3.144767046E0,5.320740223E0
5.825284585E0,-3.676272869E0,3.150749207E0,5.343770981E0
5.830115627E0,-4.008875370E0,3.265604734E0,5.583053589E0
5.834948179E0,-4.413561344E0,3.451048374E0,5.895616055E0
5.839779220E0,-4.887639523E0,3.672683716E0,6.162415504E0
5.844611772E0,-5.405984402E0,3.956233025E0,6.320342064E0
5.849442814E0,-5.828317642E0,4.262813568E0,6.454638958E0
5.854275366E0,-6.121737480E0,4.588237286E0,6.593422890E0
5.859106408E0,-6.338288307E0,4.893621445E0,6.459424496E0
5.863938960E0,-6.428019047E0,5.162814140E0,6.478567123E0
5.868770002E0,-6.234200478E0,5.309972763E0,7.026822567E0
5.873602606E0,-6.037988663E0,5.367699623E0,7.579864025E0
5.878433595E0,-6.094220161E0,5.516054630E0,7.863413334E0
5.883266199E0,-6.338288307E0,5.957829475E0,7.713861942E0
5.888097189E0,-6.674778938E0,6.742974281E0,7.615756035E0
5.892929793E0,-7.025626183E0,7.621738434E0,7.906484127E0
5.897760783E0,-7.335496902E0,8.338687897E0,8.341080666E0
5.902593387E0,-7.644470215E0,8.799605370E0,8.871390343E0
5.907424377E0,-7.957930088E0,9.110671997E0,9.454340935E0
5.912256981E0,-8.542078018E0,9.617053032E0,9.923633575E0
5.917087970E0,-9.669695854E0,1.073151016E1,1.039651489E1
5.921920574E0,-1.137787151E1,1.203978634E1,1.133121204E1
5.926751564E0,-1.278455257E1,1.284317684E1,1.241216946E1
5.931584168E0,-1.300947762E1,1.298076344E1,1.264576817E1
5.936415210E0,-1.257009602E1,1.232961655E1,1.195005512E1
5.941247762E0,-1.176102257E1,1.110867882E1,1.079731274E1
5.946078804E0,-1.034477043E1,9.893723488E0,9.582357407E0
5.950911356E0,-8.788837433E0,8.880961418E0,8.466703415E0
5.955742397E0,-7.379764080E0,8.172386169E0,7.207480907E0
5.960574949E0,-5.920740604E0,7.912466049E0,6.018846035E0
5.965405991E0,-4.734199524E0,8.076375008E0,5.414359570E0
5.970238543E0,-4.096213341E0,8.459525108E0,5.685945034E0
5.975069585E0,-3.870091438E0,8.945567131E0,6.491727829E0
5.979902189E0,-4.061517239E0,9.244669914E0,7.307979584E0
5.984733179E0,-4.388436794E0,9.465108871E0,7.957930088E0
5.989565783E0,-4.681557655E0,9.710372925E0,8.321938515E0
5.994396772E0,-4.977370262E0,9.916455269E0,8.044071198E0
5.999229377E0,-5.451447964E0,1.018804073E1,7.199106216E0
6.004060366E0,-5.851049423E0,1.063699436E1,6.126523495E0
6.008892970E0,-5.805585861E0,1.091456127E1,4.913960457E0
6.013723960E0,-5.618945599E0,1.080808067E1,3.946661949E0
6.018556564E0,-5.386841774E0,1.019043350E1,3.649951935E0
6.023387554E0,-4.900799751E0,9.245866776E0,3.878466368E0
6.028220158E0,-4.008875370E0,8.207082748E0,4.549952030E0
6.033051147E0,-2.968595505E0,7.292426109E0,5.167599678E0
6.037883752E0,-2.179861546E0,6.805187702E0,5.833103180E0
6.042714793E0,-1.403091431E0,6.494120598E0,6.378965855E0
6.047547345E0,-9.445667267E-1,6.323931217E0,6.734599113E0
6.052378387E0,-9.194421172E-1,6.267699718E0,6.614958286E0
6.057210939E0,-8.751748800E-1,6.382555485E0,6.070291996E0
6.062041981E0,-7.839485407E-1,6.622136593E0,5.356931686E0
6.066874533E0,-5.338985324E-1,6.897311211E0,4.909174919E0
6.071705574E0,-3.041875660E-1,7.056733131E0,4.849354267E0
6.076538179E0,-2.982055247E-1,7.275676250E0,4.717449665E0
6.081369168E0,-9.373882413E-1,7.532904625E0,4.649254322E0
6.086201720E0,-1.899602056E0,7.865806103E0,4.619344234E0
6.091032762E0,-2.606082916E0,8.355437279E0,4.465006828E0
6.095865366E0,-3.005684376E0,8.902496338E0,4.607379913E0
6.100696356E0,-3.327818155E0,9.553643227E0,4.817050934E0
6.105528960E0,-3.793521166E0,1.022871876E1,5.185545921E0
6.110359949E0,-4.185944080E0,1.080209827E1,5.591428280E0
6.115192554E0,-4.552345276E0,1.133240795E1,5.792425632E0
6.120023543E0,-4.561916351E0,1.183639622E1,5.823532104E0
6.124856147E0,-4.559523582E0,1.217288685E1,6.447161674E0
6.129687137E0,-4.363312244E0,1.217527962E1,6.957131863E0
6.134519741E0,-3.828217030E0,1.184836006E1,7.037590504E0
6.139350731E0,-3.949054718E0,1.125464153E1,6.277271271E0
6.144183335E0,-3.976572037E0,1.047906780E1,5.736194134E0
6.149014377E0,-3.690629721E0,9.578767776E0,5.514857769E0
6.153846929E0,-3.530011654E0,8.652147293E0,5.641677380E0
6.158677970E0,-3.854538202E0,7.729415417E0,5.470590591E0
6.163510522E0,-3.277568817E0,6.733402729E0,4.715056896E0
6.168341564E0,-2.624029160E0,5.519643784E0,3.864109516E0
6.173174116E0,-3.270390272E0,4.376472473E0,1.890030742E0
6.178005158E0,-5.043172836E0,4.529613495E0,6.726822853E-1
6.182837762E0,-4.892425060E0,5.275276661E0,2.020738840E0
6.187668752E0,-4.153641224E0,6.279664040E0,3.553939819E0
6.192501356E0,-3.196212769E0,6.757331371E0,4.244867325E0
6.197332345E0,-2.941078186E0,6.735795975E0,4.486542225E0
6.202164949E0,-2.729313374E0,6.585047722E0,4.405186653E0
6.206995939E0,-2.542673111E0,6.394519329E0,4.014857292E0
6.211828543E0,-2.207378864E0,6.150451660E0,3.416352510E0
6.216659533E0,-1.467697620E0,5.927918911E0,2.966202736E0
6.221492137E0,-6.056832075E-1,5.703890800E0,2.309073925E0
6.226323127E0,-1.854437590E-1,5.498108387E0,2.184647083E0
6.231155731E0,-2.392822690E-2,5.159224510E0,2.656332254E0
6.235986720E0,-2.512463741E-2,4.791926384E0,2.939881802E0
6.240819324E0,6.221338734E-2,4.717449665E0,2.955435038E0
6.245650366E0,2.273181528E-1,4.728217602E0,2.831008196E0
6.250482918E0,2.596212626E-1,4.715056896E0,3.006880760E0
6.255313960E0,4.187439755E-2,4.679164886E0,3.082254648E0
6.260146512E0,-2.261217386E-1,4.703093052E0,3.244069338E0
6.264977554E0,-5.829514265E-1,4.715056896E0,3.331407309E0
6.269810106E0,-1.131206870E0,4.772783756E0,3.616153240E0
6.274641147E0,-1.501197100E0,4.974977493E0,3.909573078E0
6.279473699E0,-1.876870275E0,4.949852943E0,3.743271828E0
6.284304741E0,-2.032702923E0,5.018048286E0,3.565903902E0
6.289137293E0,-2.054238319E0,5.061119080E0,2.976970434E0
6.293968335E0,-2.027917147E0,5.240580559E0,2.658725023E0
6.298800939E0,-2.015953064E0,5.504090309E0,2.687438965E0
6.303631929E0,-1.983649969E0,5.872584820E0,3.006880760E0
6.308464533E0,-1.830210209E0,6.174379826E0,3.317050457E0
6.313295522E0,-1.845763564E0,6.405287266E0,3.681058645E0
6.318128127E0,-1.788335800E0,6.620940208E0,3.938287020E0
6.322959116E0,-1.727318883E0,6.680760860E0,4.134498596E0
6.327791720E0,-1.705783486E0,6.449554443E0,4.560719967E0
6.332622710E0,-2.141576290E0,6.072684765E0,4.490131855E0
6.337455314E0,-2.719742060E0,5.489733219E0,4.214957237E0
6.342286304E0,-3.287140131E0,5.452644825E0,4.054338932E0
6.347118908E0,-3.544368505E0,5.744568825E0,4.313062668E0
6.351949949E0,-3.693022728E0,5.579464436E0,4.527220249E0
6.356782502E0,-3.695415497E0,5.534000397E0,4.432703972E0
6.361613543E0,-3.585046530E0,5.748157978E0,4.214957237E0
6.366446095E0,-3.311068296E0,6.133701801E0,3.880859137E0
6.371277137E0,-3.260818958E0,6.580262184E0,3.638885021E0
6.376109689E0,-3.168695450E0,7.026822567E0,3.540779352E0
6.380940731E0,-2.979363203E0,7.413263798E0,3.634099483E0
6.385773335E0,-2.859722137E0,7.730611801E0,3.908376694E0
6.390604324E0,-2.878864765E0,8.131409645E0,4.329812527E0
6.395436929E0,-2.979363203E0,8.642576218E0,4.923531532E0
6.400267918E0,-3.345764160E0,8.894122124E0,5.592624664E0
6.405100522E0,-3.846163273E0,9.014959335E0,5.805585861E0
6.409931512E0,-4.339384079E0,9.273683548E0,5.566303730E0
6.414764116E0,-4.529613495E0,9.282057762E0,5.593821049E0
6.419595106E0,-4.557130814E0,8.977870941E0,5.699105263E0
6.424427710E0,-4.680361271E0,8.907281876E0,5.471786976E0
6.429258699E0,-4.512863636E0,9.327521324E0,5.238187790E0
6.434091304E0,-3.963411570E0,9.943972588E0,5.272883892E0
6.438922345E0,-3.427120209E0,1.048863888E1,5.554339409E0
6.443754897E0,-3.345764160E0,1.104048347E1,5.559125423E0
6.448585939E0,-3.329014540E0,1.171196938E1,5.449055195E0
6.453418491E0,-3.210569859E0,1.228774261E1,5.264508724E0
6.458249533E0,-3.216551781E0,1.256172085E1,5.355735302E0
6.463082085E0,-3.272783279E0,1.288146114E1,5.391627789E0
6.467913127E0,-3.415156126E0,1.286351585E1,5.550750256E0
6.472745731E0,-3.303889751E0,1.288624763E1,5.252544880E0
6.477576720E0,-2.863311291E0,1.299033546E1,4.710271358E0
6.482409324E0,-2.275574446E0,1.310997581E1,3.994518280E0
6.487240314E0,-1.376471281E0,1.316740417E1,3.424727440E0
6.492072918E0,-6.774678826E-1,1.312313652E1,2.795115948E0
6.496903908E0,-3.125624657E-1,1.303819180E1,2.220539331E0
6.501736512E0,-1.196411345E-2,1.286590862E1,1.901994944E0
6.506567502E0,3.879363835E-1,1.266491127E1,1.854138494E0
6.511400106E0,4.262215197E-1,1.229013538E1,2.012363911E0
6.516231095E0,2.667997181E-1,1.192253780E1,2.048256159E0
6.521063699E0,-1.423729509E-1,1.166052341E1,2.087737799E0
6.525894689E0,-4.956133962E-1,1.144247818E1,2.311466694E0
6.530727293E0,-9.732806087E-1,1.096032429E1,2.667099953E0
6.535558335E0,-1.635195136E0,1.024905777E1,2.845365286E0
6.540390887E0,-1.988435626E0,9.515357971E0,2.787937403E0
6.545221929E0,-2.604886532E0,8.756534576E0,2.791526794E0
6.550054481E0,-2.907578707E0,8.123034477E0,3.052344322E0
6.554885522E0,-3.174677372E0,7.516155243E0,3.541975737E0
6.559718074E0,-3.600599766E0,6.892525673E0,4.280759811E0
6.564549116E0,-4.024428368E0,6.203093529E0,5.330311775E0
6.569381668E0,-4.430311203E0,5.494519234E0,6.424429893E0
6.574212710E0,-4.618147850E0,5.030012131E0,7.209873676E0
6.579045314E0,-4.707878590E0,5.015655518E0,7.555636406E0
6.583876304E0,-4.333401680E0,5.407180786E0,8.109873772E0
6.588708908E0,-3.992125511E0,5.790032387E0,8.573184013E0
6.593539897E0,-4.151247978E0,6.319145679E0,7.643273830E0
6.598372502E0,-4.573880672E0,6.965506554E0,7.110571384E0
6.603203491E0,-5.199902534E0,7.886145115E0,5.919544220E0
6.608036095E0,-6.140880108E0,8.738588333E0,5.239384174E0
6.612867085E0,-7.122535706E0,9.401699066E0,4.140480518E0
6.617699689E0,-8.120641708E0,9.809675217E0,2.988934517E0
6.622530679E0,-8.581559181E0,1.006839943E1,2.199003935E0
6.627363283E0,-8.521739006E0,1.074826050E1,1.580160260E0
6.632194272E0,-8.311170578E0,1.080927753E1,1.179063320E0
6.637026877E0,-8.494221687E0,1.036032391E1,1.137188911E0
6.641857918E0,-8.634201050E0,9.887741089E0,1.776371717E0
6.646690470E0,-8.709874153E0,9.682855606E0,2.988934517E0
6.651521512E0,-8.579166412E0,9.812067986E0,4.181158543E0
6.656354064E0,-8.187939644E0,1.021436119E1,5.138885498E0
6.661185106E0,-8.107481003E0,1.097587776E1,5.761318684E0
6.666017658E0,-7.850253105E0,1.189023495E1,6.234200478E0
6.670848699E0,-7.217051983E0,1.313031483E1,6.626922131E0
6.675681252E0,-6.713063717E0,1.463151264E1,6.668796539E0
6.680512293E0,-6.283253193E0,1.596491241E1,6.506084919E0
6.685344845E0,-5.955436230E0,1.705663872E1,6.513263226E0
6.690175887E0,-5.845067501E0,1.777986908E1,6.468996048E0
6.695008439E0,-5.396413326E0,1.821775436E1,6.662814617E0
6.699839481E0,-4.707878590E0,1.806581116E1,6.782455921E0
6.704672085E0,-4.764110088E0,1.689512253E1,6.760920525E0
6.709503074E0,-4.689932346E0,1.505893040E1,6.631708145E0
6.714335679E0,-4.506881237E0,1.309442234E1,6.326323986E0
6.719166668E0,-4.599005222E0,1.136471081E1,5.880959988E0
6.723999272E0,-4.725824833E0,9.774979591E0,5.385645390E0
6.728830262E0,-4.597808838E0,8.408080101E0,5.077868938E0
6.733662866E0,-4.102195263E0,7.287640572E0,4.846961498E0
6.738493856E0,-3.715754509E0,6.280860424E0,4.968995094E0
6.743326460E0,-4.134498596E0,5.303990364E0,4.827818871E0
6.748157449E0,-4.401597023E0,4.466203690E0,4.794319153E0
6.752990054E0,-3.671487331E0,3.871287823E0,4.515256405E0
6.757821043E0,-3.339782238E0,3.276372433E0,3.896412611E0
6.762653647E0,-5.455037594E0,3.233301640E0,4.236492634E0
6.767484689E0,-6.638886452E0,3.758825302E0,5.812764645E0
6.772317241E0,-5.784050465E0,4.583451748E0,6.792026997E0
6.777148283E0,-4.269991875E0,5.321936607E0,5.482554913E0
6.781980835E0,-3.079861879E0,5.400002480E0,3.754039526E0
6.786811877E0,-3.172284603E0,4.872086048E0,2.303091764E0
6.791644429E0,-4.011268139E0,4.036392689E0,1.576570988E0
6.796475470E0,-4.229313850E0,3.575475216E0,1.141974568E0
6.801308022E0,-4.117748737E0,3.319443226E0,7.959126234E-1
6.806139064E0,-3.836591959E0,3.239283562E0,7.313064337E-1
6.810971616E0,-3.348157167E0,3.143570662E0,5.997011662E-1
6.815802658E0,-3.055933714E0,2.954238653E0,3.951148391E-1
6.820635210E0,-2.753241539E0,2.663510799E0,5.793621540E-1
6.825466252E0,-2.582154751E0,2.201396942E0,1.137188911E0
6.830298856E0,-2.514856577E0,1.673480392E0,1.827817440E0
6.835129845E0,-2.506481647E0,1.122832060E0,2.115255117E0
6.839962449E0,-2.386840582E0,6.846463680E-1,2.288734913E0
6.844793439E0,-2.031506538E0,4.274179339E-1,2.327019930E0
6.849626043E0,-1.616052628E0,2.428714931E-1,2.447857618E0
6.854457033E0,-1.110867858E0,1.758724600E-1,2.482553482E0
6.859289637E0,-7.061817646E-1,1.351944804E-1,2.640778780E0
6.864120627E0,-2.632105052E-1,1.627119333E-1,2.947060108E0
6.868953231E0,5.982056633E-2,2.392822653E-1,3.295515060E0
6.873784220E0,1.591227055E-1,3.508476317E-1,3.583850145E0
6.878616824E0,1.040877849E-1,6.714858413E-1,3.803092480E0
6.883447814E0,6.939185411E-2,1.287936807E0,3.905983925E0
6.888280418E0,-1.866401732E-1,2.075773716E0,3.794717550E0
6.893111408E0,-5.937191248E-1,2.814258575E0,3.504886866E0
6.897944012E0,-1.091725349E0,3.461816072E0,3.102892876E0
6.902775002E0,-1.356132269E0,4.055535316E0,2.728116989E0
6.907607606E0,-1.706979871E0,4.498506546E0,2.570190668E0
6.912438595E0,-2.190629244E0,4.743771076E0,2.631207705E0
6.917271199E0,-2.681456804E0,4.856532574E0,2.933899641E0
6.922102189E0,-3.052344322E0,4.866104126E0,3.439084291E0
6.926934793E0,-3.385245800E0,4.618147850E0,4.154837608E0
6.931765835E0,-3.563511133E0,4.279563427E0,4.815854549E0
6.936598387E0,-3.520440340E0,3.907180309E0,5.292026520E0
6.941429429E0,-3.222533941E0,3.613760471E0,5.556732178E0
6.946261981E0,-2.846561670E0,3.333800077E0,5.629713535E0
6.951093022E0,-2.519642353E0,3.016452074E0,5.590231895E0
6.955925574E0,-2.321038008E0,2.771187782E0,5.559125423E0
6.960756616E0,-2.208575249E0,2.645564556E0,5.553143024E0
6.965589168E0,-2.311466694E0,2.639582396E0,5.422734261E0
6.970420210E0,-2.563012123E0,2.795115948E0,5.254937649E0
6.975252762E0,-2.908775091E0,3.033201694E0,5.124528885E0
6.980083804E0,-3.340978622E0,3.321835995E0,5.083850861E0
6.984916356E0,-3.733700514E0,3.678665638E0,5.097011566E0
6.989747397E0,-4.144069672E0,4.032803535E0,5.063511848E0
6.994579949E0,-4.630111694E0,4.354937077E0,5.046761990E0
6.999410991E0,-4.985744953E0,4.515256405E0,5.330311775E0
7.004243543E0,-5.269294739E0,4.593023300E0,5.870192051E0
7.009074585E0,-5.658427238E0,4.621737003E0,6.455835342E0
7.013907189E0,-6.004489422E0,4.676771641E0,6.891329288E0
7.018738179E0,-6.371787548E0,4.776372910E0,7.114161015E0
7.023570731E0,-7.029215813E0,5.138885498E0,7.651648521E0
7.028401772E0,-8.164011955E0,5.892026424E0,8.737391472E0
7.033234377E0,-9.779765129E0,6.995417118E0,1.016650486E1
7.038065366E0,-1.152652550E1,8.482256889E0,1.130608654E1
7.042897970E0,-1.247797203E1,1.005763149E1,1.175025463E1
7.047728960E0,-1.242174053E1,1.160309601E1,1.159232807E1
7.052561564E0,-1.226740360E1,1.285394382E1,1.108475113E1
7.057392554E0,-1.244806194E1,1.358405399E1,1.080090237E1
7.062225158E0,-1.257248878E1,1.371805191E1,1.073509979E1
7.067056147E0,-1.248395348E1,1.319761372E1,1.101296616E1
7.071888752E0,-1.208195972E1,1.213819122E1,1.177657604E1
7.076719741E0,-1.145444202E1,1.092532921E1,1.260838032E1
7.081552345E0,-1.073031425E1,9.982257843E0,1.301785278E1
7.086383335E0,-1.006241703E1,9.400503159E0,1.284437275E1
7.091215939E0,-9.557232857E0,9.108279228E0,1.205533981E1
7.096046929E0,-9.321539879E0,9.049654961E0,1.082961655E1
7.100879533E0,-9.220742226E0,9.211171150E0,9.454340935E0
7.105710522E0,-9.206384659E0,9.478269577E0,8.011768341E0
7.110543127E0,-9.242277145E0,9.776176453E0,6.811169624E0
7.115374116E0,-9.202795982E0,1.002173901E1,6.206682682E0
7.120206720E0,-9.069993973E0,1.012343407E1,6.167201042E0
7.125037710E0,-8.524131775E0,1.009352398E1,6.425626278E0
7.129870314E0,-7.566404343E0,9.886545181E0,6.532405853E0
7.134701304E0,-6.388537407E0,9.552447319E0,6.376573086E0
7.139533908E0,-5.234598637E0,9.207581520E0,5.979364872E0
7.144364897E0,-4.522434711E0,8.898907661E0,5.410770416E0
7.149197502E0,-4.310669899E0,8.650951385E0,5.104189873E0
7.154028491E0,-4.166801453E0,8.557631493E0,5.068297386E0
7.158861095E0,-3.909573078E0,8.506185532E0,5.050351143E0
7.163692085E0,-3.732504129E0,8.528917313E0,5.089832783E0
7.168524689E0,-3.610171080E0,8.478668213E0,5.254937649E0
7.173355679E0,-3.507279873E0,8.398508072E0,5.517251015E0
7.178188283E0,-3.327818155E0,8.286046028E0,5.780461311E0
7.183019272E0,-3.299104214E0,8.067999840E0,6.043971062E0
7.187851877E0,-3.293122053E0,7.925626755E0,6.249753475E0
7.192682866E0,-3.157927752E0,7.784450054E0,6.187540054E0
7.197515470E0,-2.790330410E0,7.626523972E0,6.047560215E0
7.202346460E0,-2.400001049E0,7.377371311E0,6.035595894E0
7.207179064E0,-2.300698996E0,7.056733131E0,6.006882191E0
7.212010106E0,-2.728116989E0,7.075875759E0,5.663212776E0
7.216842658E0,-2.158325911E0,7.138089180E0,5.123332500E0
7.221673647E0,-1.695015788E0,7.032804966E0,4.866104126E0
7.226506252E0,-1.636391640E0,7.053143978E0,4.662415028E0
7.231337293E0,-1.606481314E0,7.218248844E0,4.408775806E0
7.236169845E0,-1.547857165E0,7.428816795E0,4.041178226E0
7.241000887E0,-1.448554993E0,7.712665558E0,3.844966888E0
7.245833439E0,-1.316650629E0,8.089534760E0,3.913162231E0
7.250664481E0,-1.236491084E0,8.506185532E0,4.126123428E0
7.255497033E0,-1.302293777E0,8.895318031E0,4.182354927E0
7.260328074E0,-1.575374603E0,9.378967285E0,3.847359657E0
7.265160627E0,-1.644766450E0,9.761818886E0,4.338187218E0
7.269991668E0,-1.346560955E0,1.003848934E1,5.110171795E0
7.274824220E0,-2.019542217E0,1.010907745E1,5.404788017E0
7.279655262E0,-2.545065880E0,1.040369415E1,5.553143024E0
7.284487814E0,-2.378465652E0,1.074467087E1,5.865406513E0
7.289318856E0,-2.065006018E0,1.091336536E1,6.073881149E0
7.294151408E0,-2.117648125E0,1.047667503E1,5.749354839E0
7.298982449E0,-2.218146563E0,9.565608025E0,4.985744953E0
7.303815002E0,-2.171486616E0,8.428419113E0,3.922733545E0
7.308646043E0,-2.760420084E0,7.390532017E0,2.886043310E0
7.313478595E0,-3.406781197E0,6.798008919E0,1.863709688E0
7.318309637E0,-3.262015581E0,6.684350014E0,1.821835399E0
7.323142189E0,-2.738884687E0,6.629314899E0,2.426322222E0
7.327973231E0,-2.488535643E0,6.307181358E0,2.959024191E0
7.332805783E0,-2.886043310E0,5.529214859E0,3.153141975E0
7.337636824E0,-2.815454960E0,4.549952030E0,2.996113062E0
7.342469377E0,-2.147558212E0,3.299104214E0,2.036292076E0
7.347300418E0,-2.341377020E0,3.003291607E0,2.017149448E0
7.352132970E0,-1.648355722E0,2.775973320E0,3.002095222E0
7.356964012E0,-7.265207767E-1,2.907578707E0,3.482155085E0
7.361796564E0,-2.129612118E-1,3.260818958E0,3.296711445E0
7.366627606E0,-4.393820465E-1,3.415156126E0,3.005684376E0
7.371460158E0,-1.048654556E0,3.551547050E0,3.085843801E0
7.376291199E0,-1.699801445E0,3.720540047E0,3.295515060E0
7.381123752E0,-2.408375978E0,3.756432533E0,3.513261795E0
7.385954793E0,-2.924328327E0,3.754039526E0,3.455834150E0
7.390787345E0,-3.367299557E0,3.870091438E0,3.024827003E0
7.395618387E0,-3.435495138E0,4.151247978E0,2.449054003E0
7.400450939E0,-3.303889751E0,4.476971149E0,2.218146563E0
7.405281981E0,-2.960220814E0,4.649254322E0,2.414358139E0
7.410114533E0,-2.270788670E0,4.887639523E0,2.767598391E0
7.414945574E0,-1.748854280E0,5.065904617E0,3.076272726E0
7.419778127E0,-1.543071508E0,5.132903576E0,3.211766243E0
7.424609168E0,-1.570588946E0,5.356931686E0,3.246462107E0
7.429441720E0,-1.377667665E0,5.956633091E0,3.495315790E0
7.434272762E0,-1.358525038E0,6.344270229E0,3.803092480E0
7.439105314E0,-1.238883972E0,6.652047157E0,3.675076485E0
7.443936356E0,-1.622034669E0,6.432804585E0,3.756432533E0
7.448768908E0,-1.964507341E0,5.816353798E0,3.760021687E0
7.453599949E0,-2.333002090E0,5.628517151E0,3.670290947E0
7.458432502E0,-2.456232548E0,5.884549141E0,3.943072557E0
7.463263543E0,-2.541476727E0,5.644070625E0,4.118945122E0
7.468096095E0,-2.692224503E0,5.158028126E0,3.921537161E0
7.472927137E0,-2.658725023E0,5.219045162E0,3.859323740E0
7.477759689E0,-2.571387053E0,5.550750256E0,4.060320854E0
7.482590731E0,-2.606082916E0,5.984150410E0,4.309473515E0
7.487423283E0,-2.826222658E0,6.488138676E0,4.481756687E0
7.492254324E0,-3.381656647E0,6.921239376E0,4.407579422E0
7.497086877E0,-4.025625229E0,7.351050377E0,4.126123428E0
7.501917918E0,-4.461417675E0,7.847859859E0,3.651148319E0
7.506750470E0,-4.601397991E0,8.282456398E0,3.186641455E0
7.511581512E0,-4.492524624E0,8.544470787E0,3.016452074E0
7.516414064E0,-4.399204254E0,8.723034859E0,3.159124136E0
7.521245106E0,-4.272384644E0,8.861818314E0,3.691826344E0
7.526077658E0,-4.392025948E0,9.162117958E0,4.242474556E0
7.530908699E0,-4.597808838E0,9.637392044E0,4.765306473E0
7.535741252E0,-4.885246754E0,1.014975548E1,5.149653435E0
7.540572293E0,-5.069493771E0,1.067288589E1,5.401198864E0
7.545404845E0,-5.161617756E0,1.112423229E1,5.362913609E0
7.550235887E0,-5.021637440E0,1.153490067E1,5.141278744E0
7.555068439E0,-4.433900356E0,1.171555901E1,4.984548569E0
7.559899481E0,-3.642474174E0,1.167129135E1,4.814658165E0
7.564732033E0,-3.290729284E0,1.168325520E1,4.481756687E0
7.569563074E0,-3.118446112E0,1.182921791E1,4.135694981E0
7.574395627E0,-2.650350094E0,1.180887890E1,4.435096741E0
7.579226668E0,-2.560619354E0,1.185673523E1,4.619344234E0
7.584059220E0,-2.692224503E0,1.213699436E1,4.875675201E0
7.588890262E0,-2.301895380E0,1.236909866E1,5.425127029E0
7.593722814E0,-2.233700037E0,1.246361542E1,5.828317642E0
7.598553856E0,-2.183450699E0,1.251625729E1,6.014060497E0
7.603386408E0,-2.197807550E0,1.255573845E1,5.851049423E0
7.608217449E0,-2.035095692E0,1.279771328E1,5.427519798E0
7.613050002E0,-1.784746647E0,1.316740417E1,4.960620403E0
7.617881043E0,-1.726122379E0,1.347996616E1,4.553541660E0
7.622713595E0,-1.797907114E0,1.369053459E1,4.490131855E0
7.627544637E0,-2.047059774E0,1.364028549E1,4.627718925E0
7.632377189E0,-2.586940289E0,1.327777290E1,4.723432064E0
7.637208231E0,-2.886043310E0,1.281924820E1,4.754538536E0
7.642040783E0,-3.078665495E0,1.224945736E1,4.785944462E0
7.646871824E0,-3.272783279E0,1.159950733E1,4.634897232E0
7.651704377E0,-3.436691523E0,1.094207859E1,4.244867325E0
7.656535418E0,-3.611367464E0,1.033639526E1,3.631706476E0
7.661367970E0,-3.968197346E0,9.761818886E0,2.925524712E0
7.666199012E0,-4.293920040E0,9.206384659E0,2.634796858E0
7.671031564E0,-4.595416069E0,8.648558617E0,2.663510799E0
7.675862606E0,-4.982155800E0,7.999804497E0,3.150749207E0
7.680695158E0,-5.122136116E0,7.365406990E0,3.970590115E0
7.685526199E0,-5.517251015E0,6.818347931E0,4.382454872E0
7.690358752E0,-5.818746567E0,6.567101955E0,4.508078098E0
7.695189793E0,-5.736194134E0,6.425626278E0,5.095814705E0
7.700022345E0,-5.641677380E0,6.253343105E0,5.736194134E0
7.704853335E0,-5.391627789E0,6.291627884E0,5.360520840E0
7.709685939E0,-5.205884933E0,6.414858341E0,5.278865814E0
7.714516929E0,-5.184349537E0,6.788437843E0,5.226223946E0
7.719349533E0,-5.258526802E0,7.251748085E0,5.050351143E0
7.724180522E0,-5.278865814E0,7.918448448E0,4.658825874E0
7.729013127E0,-5.092225552E0,8.957531929E0,3.556332588E0
7.733844116E0,-4.985744953E0,9.815657616E0,3.157927752E0
7.738676720E0,-5.050351143E0,1.014736271E1,3.417548895E0
7.743507710E0,-5.235795021E0,9.949954987E0,3.549154282E0
7.748340314E0,-5.658427238E0,9.437591553E0,3.900001764E0
7.753171304E0,-5.997310638E0,8.865407944E0,4.392025948E0
7.758003908E0,-6.390930176E0,8.487042427E0,4.704289436E0
7.762834897E0,-6.448358059E0,8.228617668E0,4.994120121E0
7.767667502E0,-6.236593246E0,8.458329201E0,5.417948723E0
7.772498491E0,-5.990132332E0,9.268898010E0,5.758925915E0
7.777331095E0,-5.787639618E0,1.030289650E1,6.034399509E0
7.782162085E0,-5.707480431E0,1.158754253E1,6.072684765E0
7.786994689E0,-5.632106304E0,1.275942802E1,5.864210129E0
7.791825679E0,-5.549553871E0,1.360439301E1,5.301597595E0
7.796658283E0,-5.134099960E0,1.451785278E1,4.793122768E0
7.801489272E0,-5.573482037E0,1.533649731E1,3.956233025E0
7.806321877E0,-5.955436230E0,1.590030670E1,3.392424345E0
7.811152866E0,-6.002096653E0,1.634686661E1,3.568296671E0
7.815985470E0,-6.195915222E0,1.638874054E1,3.712165117E0
7.820816460E0,-6.107380867E0,1.545643806E1,3.798306942E0
7.825649064E0,-5.567500114E0,1.388824177E1,3.833002806E0
7.830480054E0,-4.202693939E0,1.206760311E1,3.595814228E0
7.835312606E0,-2.944667339E0,1.034836006E1,3.421138287E0
7.840143647E0,-3.284747362E0,8.719446182E0,3.368496180E0
7.844976199E0,-4.535595417E0,7.261319637E0,3.349353552E0
7.849807241E0,-4.910371304E0,6.023632050E0,3.672683716E0
7.854639845E0,-3.868895054E0,4.903192520E0,4.750949383E0
7.859470835E0,-2.823829889E0,4.053142548E0,5.502893925E0
7.864303387E0,-2.193022013E0,3.362514019E0,6.166004658E0
7.869134429E0,-1.850549221E0,2.932703257E0,6.710670948E0
7.873966981E0,-2.260020971E0,2.622832775E0,7.191927433E0
7.878798022E0,-4.059124470E0,2.580958366E0,7.255337238E0
7.883630574E0,-5.301597595E0,2.925524712E0,7.926823139E0
7.888461616E0,-3.671487331E0,4.090231419E0,8.059624672E0
7.893294168E0,-2.244467735E0,4.928317547E0,6.160022736E0
7.898125210E0,-1.298704505E0,5.113760948E0,4.235296249E0
7.902957762E0,-1.901994944E0,4.795515537E0,2.413161755E0
7.907788804E0,-3.540779352E0,4.110570431E0,1.826620936E0
7.912621356E0,-4.824229717E0,3.306282759E0,1.916351795E0
7.917452397E0,-5.305186749E0,2.821436882E0,2.090130568E0
7.922284949E0,-5.391627789E0,2.985345364E0,2.240878344E0
7.927115991E0,-5.050351143E0,3.419941664E0,2.087737799E0
7.931948543E0,-4.345366001E0,3.927519321E0,1.925923109E0
7.936779533E0,-3.701397419E0,4.368097782E0,1.941476464E0
7.941612137E0,-3.245265722E0,4.660022259E0,2.331805706E0
7.946443179E0,-2.808276415E0,4.709074974E0,2.595315218E0
7.951275731E0,-2.810669184E0,4.570291042E0,2.816651344E0
7.956106720E0,-2.775973320E0,4.286741734E0,3.060719252E0
7.960939324E0,-2.764009237E0,3.819842339E0,3.079861879E0
7.965770314E0,-2.816651344E0,3.422334671E0,3.181855917E0
7.970602918E0,-2.832204819E0,2.999702215E0,3.277568817E0
7.975433908E0,-2.915953398E0,2.681456804E0,3.265604734E0
7.980266512E0,-2.749652386E0,2.389233351E0,3.162713289E0
7.985097502E0,-2.175075769E0,2.184647083E0,3.224926710E0
7.989930106E0,-1.644766450E0,2.000399828E0,3.259622574E0
7.994761095E0,-1.419841170E0,1.943869352E0,3.385245800E0
7.999593699E0,-1.175474167E0,2.098505497E0,3.375674486E0
8.004424689E0,-9.421738982E-1,2.377269268E0,3.421138287E0
8.009257293E0,-7.181459069E-1,2.777169704E0,3.519243956E0
8.014088283E0,-5.446662307E-1,3.199802160E0,3.527618885E0
8.018920887E0,-5.147559643E-1,3.591028690E0,3.463012457E0
8.023751877E0,-5.745765567E-1,3.846163273E0,3.415156126E0
8.028584481E0,-6.224330068E-1,3.986143351E0,3.490530014E0
8.033415470E0,-7.229315639E-1,4.029214382E0,3.683451414E0
8.038248074E0,-1.133599758E0,3.995714664E0,3.919144392E0
8.043079064E0,-1.625623941E0,3.989732742E0,4.056731701E0
8.047911668E0,-2.203789711E0,3.940679789E0,4.093820572E0
8.052742658E0,-2.545065880E0,3.770789385E0,4.164408684E0
8.057575210E0,-2.771187782E0,3.518047571E0,4.265206337E0
8.062406252E0,-3.072683334E0,3.232105255E0,4.435096741E0
8.067238804E0,-3.267997503E0,3.016452074E0,4.705485821E0
8.072069845E0,-3.296711445E0,2.975774050E0,5.144867897E0
8.076902397E0,-3.340978622E0,2.978166819E0,5.784050465E0
8.081733439E0,-3.410370588E0,3.041576624E0,6.343073845E0
8.086565991E0,-3.485744476E0,3.209373474E0,6.396912098E0
8.091397033E0,-3.672683716E0,3.422334671E0,6.020042896E0
8.096229585E0,-3.996911049E0,3.663112402E0,6.015256882E0
8.101060627E0,-4.237689018E0,3.789932013E0,6.490531445E0
8.105893179E0,-4.551148891E0,3.726522207E0,6.976274490E0
8.110724220E0,-4.782355309E0,3.526422262E0,7.250551701E0
8.115556772E0,-4.815854549E0,3.289532900E0,6.740581512E0
8.120387814E0,-5.499304771E0,3.333800077E0,6.671189308E0
8.125220366E0,-6.961917400E0,4.173980236E0,7.648059368E0
8.130051356E0,-9.405288696E0,6.072684765E0,9.317950249E0
8.134883960E0,-1.232004547E1,8.668897629E0,1.045035362E1
8.139715002E0,-1.429262829E1,1.105364418E1,1.068724346E1
8.144547554E0,-1.464227962E1,1.309561920E1,1.075663471E1
8.149378543E0,-1.459920883E1,1.468774319E1,1.121635628E1
8.154211147E0,-1.472722530E1,1.557488251E1,1.146760273E1
8.159042137E0,-1.435633755E1,1.573998737E1,1.204217911E1
8.163874741E0,-1.372164154E1,1.487946892E1,1.276660633E1
8.168705731E0,-1.275464153E1,1.307049465E1,1.219442272E1
8.173538335E0,-1.134197903E1,1.097109222E1,1.029093170E1
8.178369324E0,-9.794121742E0,9.187242508E0,8.053643227E0
8.183201929E0,-8.232207298E0,8.102695465E0,6.027221203E0
8.188032918E0,-6.692724705E0,7.780860901E0,4.741377831E0
8.192865522E0,-5.555535793E0,7.942376614E0,4.487739086E0
8.197696512E0,-5.000102043E0,8.378169060E0,5.320740223E0
8.202529116E0,-5.119743347E0,8.926424980E0,6.738188744E0
8.207360106E0,-5.590231895E0,9.469894409E0,7.923233986E0
8.212192710E0,-6.087041855E0,9.960722923E0,8.472685814E0
8.217023699E0,-6.383751869E0,1.042283630E1,8.388936996E0
8.221856252E0,-6.439982891E0,1.080329514E1,7.892127514E0
8.226687293E0,-6.265306950E0,1.104168034E1,7.117750168E0
8.231519897E0,-5.936294079E0,1.107876873E1,6.082255840E0
8.236350887E0,-5.749354839E0,1.082004452E1,5.232205868E0
8.241183439E0,-5.654838085E0,1.027777100E1,4.801497936E0
8.246014481E0,-5.434698582E0,9.534501076E0,4.897210598E0
8.250847033E0,-5.168796062E0,8.685647011E0,5.346164227E0
8.255678074E0,-4.755734921E0,7.953144073E0,5.965007782E0
8.260510627E0,-4.169194221E0,7.348657608E0,6.658029079E0
8.265341668E0,-3.342175007E0,6.930810928E0,7.217051983E0
8.270174220E0,-2.621636391E0,6.570691109E0,7.324729443E0
8.275005262E0,-1.975275040E0,6.363412857E0,7.016055107E0
8.279837814E0,-1.353739381E0,6.217450619E0,6.597012043E0
8.284668856E0,-9.637092948E-1,6.185147285E0,6.203093529E0
8.289501408E0,-9.960124493E-1,6.221039772E0,5.810371399E0
8.294332449E0,-1.231705427E0,6.247360706E0,5.364109993E0
8.299165002E0,-1.520339727E0,6.291627884E0,5.080261707E0
8.303996043E0,-1.882852316E0,6.356234074E0,4.957031250E0
8.308828595E0,-2.264806747E0,6.488138676E0,5.160421371E0
8.313659585E0,-2.603690147E0,6.638886452E0,5.571089268E0
8.318492189E0,-3.051147938E0,6.850651264E0,6.088238239E0
8.323323179E0,-3.813860178E0,7.053143978E0,6.619743824E0
8.328155783E0,-4.595416069E0,7.418049335E0,6.885347366E0
8.332986772E0,-5.111368179E0,7.918448448E0,6.782455921E0
8.337819377E0,-5.359324455E0,8.423632622E0,6.629314899E0
8.342650366E0,-5.483751297E0,8.897710800E0,6.338288307E0
8.347482970E0,-5.046761990E0,9.233902931E0,5.962615013E0
8.352313960E0,-4.733003139E0,9.238688469E0,5.687141418E0
8.357146564E0,-4.694717884E0,8.940781593E0,5.604588985E0
8.361977554E0,-4.205086708E0,8.403293610E0,5.397609711E0
8.366810158E0,-3.494119167E0,7.838288784E0,5.080261707E0
8.371641147E0,-3.457030535E0,7.159624577E0,4.487739086E0
8.376473752E0,-3.562314749E0,6.800402164E0,3.783949852E0
8.381304741E0,-3.370888948E0,6.827919483E0,3.776771545E0
8.386137345E0,-2.865704298E0,6.961917400E0,3.989732742E0
8.390968335E0,-2.746062994E0,6.920042992E0,4.087838173E0
8.395800939E0,-2.960220814E0,6.759724140E0,3.962215185E0
8.400631929E0,-3.386442184E0,6.515655994E0,3.683451414E0
8.405464533E0,-3.952643871E0,6.327520370E0,3.448655605E0
8.410295522E0,-4.305884361E0,6.260521412E0,3.273979664E0
8.415128074E0,-4.383651257E0,6.463014126E0,3.226123095E0
8.419959116E0,-3.390031576E0,6.534798622E0,3.421138287E0
8.424791668E0,-3.010469913E0,5.670391560E0,2.888436079E0
8.429622710E0,-4.682754040E0,5.397609711E0,3.338585854E0
8.434455262E0,-5.038387299E0,5.372485161E0,3.539582968E0
8.439286304E0,-4.041178226E0,5.395216942E0,3.844966888E0
8.444118856E0,-3.008077145E0,5.272883892E0,3.707379580E0
8.448949897E0,-2.417947292E0,5.068297386E0,3.406781197E0
8.453782449E0,-2.348555326E0,4.813461781E0,3.000898600E0
8.458613491E0,-2.157129526E0,4.437489510E0,2.791526794E0
8.463446043E0,-1.803889155E0,4.115355968E0,2.427518606E0
8.468277085E0,-1.687837243E0,3.931108475E0,2.037488461E0
8.473109637E0,-1.675873160E0,3.952643871E0,1.843370795E0
8.477940679E0,-1.878066659E0,3.978965044E0,1.777568102E0
8.482773231E0,-2.171486616E0,3.939483404E0,1.888834357E0
8.487604272E0,-2.463410854E0,3.900001764E0,2.170290232E0
8.492436824E0,-2.374876499E0,4.148855209E0,2.271985054E0
8.497267866E0,-2.087737799E0,4.691128731E0,2.273181438E0
8.502100418E0,-1.981257200E0,5.269294739E0,2.197807550E0
8.506931408E0,-1.687837243E0,5.756533146E0,2.347358942E0
8.511764012E0,-1.507179141E0,6.154040813E0,2.762812853E0
8.516595002E0,-1.102493048E0,6.605386734E0,3.030808926E0
8.521427606E0,-8.054839373E-1,6.763313293E0,3.363710403E0
8.526258595E0,-7.540382147E-1,6.766902447E0,3.473780155E0
8.531091199E0,-1.269990563E0,6.702296257E0,3.528815269E0
8.535922189E0,-1.999203324E0,6.585047722E0,3.563511133E0
8.540754793E0,-2.490928411E0,6.567101955E0,3.781557083E0
8.545585783E0,-2.573779821E0,6.887740135E0,4.078267097E0
8.550418387E0,-2.350948334E0,7.395317554E0,4.621737003E0
8.555249377E0,-2.123630047E0,7.165606499E0,4.964209557E0
8.560081981E0,-2.267199516E0,6.519245148E0,4.766502857E0
8.564912970E0,-2.476571321E0,5.900401592E0,4.492524624E0
8.569745574E0,-2.937488794E0,5.595017433E0,4.375276089E0
8.574576564E0,-3.545564890E0,5.807978630E0,4.412364960E0
8.579409168E0,-4.060320854E0,6.024828434E0,4.090231419E0
8.584240158E0,-4.497310162E0,6.186343670E0,3.504886866E0
8.589072762E0,-4.621737003E0,6.825526714E0,3.098107100E0
8.593903752E0,-4.671986103E0,7.506583691E0,3.046362400E0
8.598736356E0,-4.554738045E0,8.209475517E0,3.246462107E0
8.603567345E0,-4.148855209E0,8.788837433E0,3.631706476E0
8.608399897E0,-3.800699711E0,9.142974854E0,4.181158543E0
8.613230939E0,-3.742075443E0,9.289237022E0,4.735395908E0
8.618063491E0,-3.867698669E0,9.345467567E0,5.102993488E0
8.622894533E0,-4.120141506E0,9.351449966E0,5.359324455E0
8.627727085E0,-4.409972191E0,9.389735222E0,5.496912003E0
8.632558127E0,-4.527220249E0,9.474679947E0,5.422734261E0
8.637390679E0,-4.453042984E0,9.431609154E0,5.222634315E0
8.642221720E0,-4.274777889E0,9.389735222E0,4.901996136E0
8.647054272E0,-4.121337891E0,9.278469086E0,4.557130814E0
8.651885314E0,-3.905983925E0,9.268898010E0,3.994518280E0
8.656717866E0,-3.567100286E0,9.395717621E0,3.865305901E0
8.661548908E0,-2.967399120E0,9.510572433E0,4.382454872E0
8.666381460E0,-2.572583437E0,9.706784248E0,4.733003139E0
8.671212502E0,-2.346162558E0,9.971489906E0,4.953442097E0
8.676045054E0,-2.049452543E0,1.031964588E1,5.062315464E0
8.680876095E0,-1.796710730E0,1.070399284E1,5.057529926E0
8.685708647E0,-1.344168067E0,1.118285656E1,5.091029167E0
8.690539689E0,-8.584251404E-1,1.149033451E1,5.173581600E0
8.695372241E0,-8.524430394E-1,1.154207897E1,5.085047245E0
8.700203283E0,-1.214955688E0,1.134078312E1,4.971388340E0
8.705035835E0,-1.544267893E0,1.112183952E1,4.874478817E0
8.709866824E0,-1.633998752E0,1.098903847E1,4.814658165E0
8.714699429E0,-1.484447360E0,1.090499020E1,4.867300510E0
8.719530418E0,-1.226919770E0,1.107398319E1,4.781158924E0
8.724363022E0,-9.385846853E-1,1.135633659E1,4.788337231E0
8.729194012E0,-7.935197949E-1,1.150229836E1,4.743771076E0
8.734026616E0,-6.894320250E-1,1.160190010E1,4.535595417E0
8.738857606E0,-7.253243923E-1,1.172393322E1,4.326223373E0
8.743690210E0,-8.090731502E-1,1.195005512E1,4.184747696E0
8.748521199E0,-9.744769931E-1,1.213938713E1,4.084249020E0
8.753353804E0,-1.392024517E0,1.212383366E1,4.013660908E0
8.758184793E0,-1.982453585E0,1.184955692E1,3.780360699E0
8.763017397E0,-2.552244425E0,1.137069321E1,3.501297712E0
8.767848387E0,-3.222533941E0,1.074347496E1,3.338585854E0
8.772680991E0,-3.703790426E0,1.012104130E1,3.210569859E0
8.777511981E0,-3.920340776E0,9.563215256E0,3.191427231E0
8.782344585E0,-3.920340776E0,9.069993973E0,3.276372433E0
8.787175574E0,-3.958626032E0,8.581559181E0,3.468994617E0
8.792008179E0,-4.197908401E0,7.977072716E0,3.695415497E0
8.796839168E0,-4.502095699E0,7.461120129E0,4.302295208E0
8.801671772E0,-4.682754040E0,7.353443146E0,4.524827480E0
8.806502762E0,-4.595416069E0,7.445566654E0,4.833800793E0
8.811335314E0,-4.311866283E0,7.755736351E0,5.046761990E0
8.816166356E0,-4.190729618E0,8.004590034E0,5.260919571E0
8.820998908E0,-4.234099865E0,8.410472870E0,4.582255363E0
8.825829949E0,-4.604987144E0,8.646165848E0,4.285545349E0
8.830662502E0,-5.000102043E0,8.829515457E0,4.196712017E0
8.835493543E0,-5.407180786E0,8.758927345E0,4.374079704E0
8.840326095E0,-5.648856163E0,8.689236641E0,4.844568729E0
8.845157137E0,-5.592624664E0,8.967103004E0,3.850949049E0
8.849989689E0,-5.257330418E0,9.535696983E0,2.941078186E0
8.854820731E0,-4.746163845E0,1.018086243E1,2.838186741E0
8.859653283E0,-4.615755081E0,1.038215828E1,2.926721096E0
8.864484324E0,-4.887639523E0,1.010548782E1,3.392424345E0
8.869316877E0,-5.499304771E0,9.611071587E0,3.894019842E0
8.874147866E0,-6.018846035E0,8.926424980E0,4.171586990E0
8.878980470E0,-6.701099873E0,8.234600067E0,4.394418716E0
8.883811460E0,-6.942774773E0,7.889734268E0,4.775176525E0
8.888644064E0,-6.927221775E0,8.047660828E0,5.104189873E0
8.893475054E0,-6.850651264E0,8.469096184E0,5.146064281E0
8.898307658E0,-6.485745907E0,8.955139160E0,5.150849819E0
8.903138647E0,-6.305984974E0,9.600303650E0,5.453841209E0
8.907971252E0,-6.727420807E0,1.053888798E1,5.408377171E0
8.912802241E0,-6.892525673E0,1.172513008E1,5.382056236E0
8.917634845E0,-6.809973240E0,1.300110245E1,5.135296345E0
8.922465835E0,-6.952346325E0,1.415623760E1,4.820640087E0
8.927298439E0,-7.166802883E0,1.512712574E1,4.807479858E0
8.932129429E0,-7.481459141E0,1.580578995E1,4.925924301E0
8.936962033E0,-7.589435101E0,1.610878181E1,5.052743912E0
8.941793022E0,-7.420442104E0,1.597209072E1,5.313561916E0
8.946625627E0,-6.915257454E0,1.501585960E1,5.614160061E0
8.951456616E0,-6.276074886E0,1.314347553E1,5.538786411E0
8.956289220E0,-5.687141418E0,1.107876873E1,5.171188831E0
8.961120210E0,-4.664807796E0,9.663713455E0,4.876871586E0
8.965952762E0,-4.267599106E0,8.464310646E0,4.278367043E0
8.970783804E0,-4.275974274E0,7.266105175E0,4.109373569E0
8.975616356E0,-4.571487427E0,6.249753475E0,4.144069672E0
8.980447397E0,-5.320740223E0,5.302793980E0,4.024428368E0
8.985279949E0,-5.882156372E0,4.537988186E0,5.038387299E0
8.990110991E0,-5.525625706E0,4.383651257E0,6.233004093E0
8.994943543E0,-4.527220249E0,4.415954113E0,5.757729530E0
8.999774533E0,-3.090928555E0,4.319045067E0,4.737788677E0
9.004607137E0,-2.543869495E0,4.078267097E0,4.767699242E0
9.009438179E0,-3.120838881E0,4.179962158E0,5.235795021E0
9.014270731E0,-3.940679789E0,4.350151539E0,4.851747036E0
9.019101720E0,-3.598206997E0,4.423132420E0,4.504488468E0
9.023934324E0,-2.805883646E0,4.382454872E0,4.232903481E0
9.028765314E0,-2.729313374E0,4.017250061E0,4.371686935E0
9.033597918E0,-2.826222658E0,3.594617844E0,4.181158543E0
9.038428908E0,-3.150749207E0,3.159124136E0,3.742075443E0
9.043261512E0,-3.816252947E0,2.878864765E0,3.332603693E0
9.048092502E0,-4.079463482E0,2.783151865E0,3.302693367E0
9.052925106E0,-3.552743435E0,2.953042269E0,3.356531858E0
9.057756095E0,-2.943470955E0,3.198605776E0,3.333800077E0
9.062588699E0,-2.413161755E0,3.443870068E0,3.142374277E0
9.067419689E0,-1.907976985E0,3.619742393E0,2.988934517E0
9.072252293E0,-1.442572951E0,3.725325823E0,2.755634308E0
9.077083283E0,-1.244866014E0,3.703790426E0,2.350948334E0
9.081915887E0,-1.281954765E0,3.540779352E0,1.771586061E0
9.086746877E0,-1.376471281E0,3.275176048E0,1.396810174E0
9.091579429E0,-1.479661703E0,2.933899641E0,1.261615753E0
9.096410470E0,-1.428215981E0,2.607279301E0,1.358525038E0
9.101243022E0,-1.486840129E0,2.292324066E0,1.599302888E0
9.106074064E0,-1.476072431E0,2.093719721E0,1.855334878E0
9.110906616E0,-1.401595831E0,2.025524378E0,2.178664923E0
9.115737658E0,-1.234098315E0,2.019542217E0,2.571387053E0
9.120570210E0,-1.259222865E0,2.173879385E0,3.029612541E0
9.125401252E0,-1.193420291E0,2.419143677E0,3.482155085E0
9.130233804E0,-1.046261668E0,2.643171787E0,3.928715706E0
9.135064845E0,-1.041476011E0,2.825026274E0,4.202693939E0
9.139897397E0,-1.096511006E0,3.057130098E0,4.449453831E0
9.144728387E0,-1.120439172E0,3.215355396E0,4.587040901E0
9.149560991E0,-1.242473125E0,3.308675528E0,4.569094658E0
9.154391981E0,-1.516750455E0,3.366103172E0,4.505684853E0
9.159224585E0,-1.874477386E0,3.374478102E0,4.424329281E0
9.164055574E0,-2.262413740E0,3.332603693E0,4.347758770E0
9.168888179E0,-2.706581593E0,3.267997503E0,4.302295208E0
9.173719168E0,-3.110071182E0,3.124428272E0,4.346562386E0
9.178551772E0,-3.410370588E0,2.959024191E0,4.564309120E0
9.183382762E0,-3.541975737E0,2.880061150E0,4.946263313E0
9.188215366E0,-3.520440340E0,2.816651344E0,5.368896008E0
9.193046356E0,-3.410370588E0,2.850150824E0,5.742176056E0
9.197878960E0,-3.282354355E0,2.953042269E0,5.974578857E0
9.202709949E0,-3.349353552E0,3.069094181E0,6.039185047E0
9.207542502E0,-3.651148319E0,3.232105255E0,6.002096653E0
9.212373543E0,-4.211368084E0,3.442673683E0,5.905187130E0
9.217206147E0,-4.812265396E0,3.694219112E0,5.870192051E0
9.222037137E0,-5.358128071E0,3.952643871E0,5.950650692E0
9.226869689E0,-5.929115295E0,4.223331928E0,6.240182400E0
9.231700731E0,-6.399304867E0,4.398007870E0,6.610172749E0
9.236533283E0,-6.765706062E0,4.613361835E0,6.704689026E0
9.241364324E0,-7.087839603E0,4.846961498E0,6.887740135E0
9.246196877E0,-7.280461788E0,5.006083965E0,7.219445229E0
9.251027918E0,-7.465905666E0,4.922335148E0,7.597810268E0
9.255860470E0,-7.542476177E0,4.594219685E0,7.686344624E0
9.260691512E0,-7.493422985E0,4.117748737E0,7.713861942E0
9.265524064E0,-7.675576687E0,3.763610840E0,8.158029556E0
9.270355106E0,-8.599505424E0,3.879662752E0,8.841479301E0
9.275187658E0,-1.008395290E1,4.919942379E0,9.701998711E0
9.280018647E0,-1.173350525E1,6.701099873E0,1.041685390E1
9.284851252E0,-1.308485126E1,8.412865639E0,1.063460159E1
9.289682241E0,-1.379133224E1,9.940383911E0,1.053051376E1
9.294514845E0,-1.420768356E1,1.114696407E1,1.039172935E1
9.299345835E0,-1.455613804E1,1.186750317E1,1.012941647E1
9.304178439E0,-1.440180111E1,1.197039413E1,1.017846966E1
9.309009429E0,-1.391456318E1,1.136590767E1,1.105723381E1
9.313842033E0,-1.289103317E1,1.019282627E1,1.181964684E1
9.318673022E0,-1.138624668E1,8.872586250E0,1.188664532E1
9.323505627E0,-9.770194054E0,7.790432453E0,1.076620674E1
9.328336616E0,-8.197511673E0,7.013363361E0,8.760123253E0
9.333169220E0,-6.665207386E0,6.649653912E0,6.655636311E0
9.338000210E0,-5.298008442E0,6.595815659E0,5.260919571E0
9.342832762E0,-4.242474556E0,6.778866768E0,4.880460739E0
9.347663804E0,-3.461816072E0,7.202695370E0,5.371288776E0
9.352496356E0,-3.228515863E0,7.767700672E0,6.154040813E0
9.357327397E0,-3.507279873E0,8.349455833E0,6.794419765E0
9.362159949E0,-4.166801453E0,8.971888542E0,7.139285564E0
9.366990991E0,-4.985744953E0,9.552447319E0,7.118946552E0
9.371823543E0,-5.776872158E0,1.014855862E1,6.772884369E0
9.376654585E0,-6.544369698E0,1.069083214E1,6.048756599E0
9.381487137E0,-7.220641613E0,1.105005455E1,5.247759342E0
9.386318179E0,-7.883752346E0,1.110030460E1,4.826622486E0
9.391150731E0,-8.150851250E0,1.072074318E1,4.882853508E0
9.395981772E0,-8.052446365E0,9.979865074E0,5.314758301E0
9.400814324E0,-7.507780075E0,9.040083885E0,6.016453266E0
9.405645366E0,-6.550352097E0,8.175975800E0,6.857829571E0
9.410477918E0,-5.591428280E0,7.483851910E0,7.492226601E0
9.415308908E0,-4.748556614E0,7.035197735E0,7.828717709E0
9.420141512E0,-3.874877214E0,6.758527756E0,7.819146156E0
9.424972502E0,-3.120838881E0,6.735795975E0,7.372585773E0
9.429805106E0,-2.591726065E0,6.762116909E0,6.587440968E0
9.434636095E0,-2.224128723E0,6.829115868E0,5.687141418E0
9.439468699E0,-1.888834357E0,6.837490559E0,5.081458092E0
9.444299689E0,-1.897209287E0,6.786045074E0,4.627718925E0
9.449132293E0,-2.087737799E0,6.685546398E0,4.453042984E0
9.453963283E0,-2.366501570E0,6.662814617E0,4.491328239E0
9.458795887E0,-2.602493763E0,6.740581512E0,4.722235680E0
9.463626877E0,-3.199802160E0,6.669992924E0,5.247759342E0
9.468459481E0,-3.791128397E0,6.716653347E0,5.639284611E0
9.473290470E0,-4.158426762E0,6.885347366E0,6.174379826E0
9.478123022E0,-4.193122387E0,7.248158932E0,6.634100914E0
9.482954064E0,-4.195515633E0,7.707880020E0,6.887740135E0
9.487786616E0,-4.273581028E0,8.258528709E0,6.796812534E0
9.492617658E0,-4.338187218E0,8.654540062E0,6.274878502E0
9.497450210E0,-3.986143351E0,9.423234940E0,5.708676815E0
9.502281252E0,-3.732504129E0,1.010429192E1,4.979763031E0
9.507113804E0,-3.547957659E0,1.048504925E1,3.785146236E0
9.511944845E0,-3.124428272E0,1.055204868E1,3.053540707E0
9.516777397E0,-3.913162231E0,9.978668213E0,3.005684376E0
9.521608387E0,-4.164408684E0,9.552447319E0,3.752843142E0
9.526440991E0,-3.559921980E0,9.358628273E0,5.233402252E0
9.531271981E0,-2.990130901E0,9.189635277E0,6.210271835E0
9.536104585E0,-2.927917719E0,9.273683548E0,7.424031258E0
9.540935574E0,-2.518445730E0,9.514162064E0,7.239784241E0
9.545768179E0,-1.753639936E0,9.632606506E0,6.372983932E0
9.550599168E0,-8.114659786E-1,9.268898010E0,5.362913609E0
9.555431772E0,-1.984846354E0,8.246563911E0,4.301098824E0
9.560262762E0,-2.913560629E0,6.924828529E0,3.089732170E0
9.565095366E0,-3.048755169E0,5.982954025E0,1.952244163E0
9.569926356E0,-2.576172590E0,6.422036648E0,1.526321769E0
9.574758960E0,-1.977667928E0,6.836294174E0,2.289931297E0
9.579589949E0,-2.149951220E0,7.120142937E0,3.663112402E0
9.584422554E0,-2.403590441E0,7.065107822E0,4.068696022E0
9.589253543E0,-3.190230846E0,6.672386169E0,4.359723091E0
9.594086147E0,-3.977768660E0,6.077470303E0,4.281956196E0
9.598917137E0,-4.056731701E0,5.523232937E0,3.874877214E0
9.603749689E0,-3.736093521E0,5.156831741E0,3.162713289E0
9.608580731E0,-3.142374277E0,4.660022259E0,2.797508717E0
9.613413283E0,-2.216950178E0,4.074677944E0,2.614457846E0
9.618244324E0,-1.696212173E0,3.658326626E0,2.421536446E0
9.623076877E0,-1.103689432E0,3.363710403E0,2.620440006E0
9.627907918E0,-9.960124493E-1,2.956631422E0,3.288336515E0
9.632740470E0,-1.326221943E0,2.834597588E0,2.838186741E0
9.637571512E0,-1.633998752E0,2.813062191E0,2.609672308E0
9.642404064E0,-1.831406593E0,2.967399120E0,2.573779821E0
9.647235054E0,-1.845763564E0,3.284747362E0,2.674278498E0
9.652067658E0,-1.814656854E0,3.551547050E0,2.741277456E0
9.656898647E0,-1.852941990E0,3.848556042E0,2.796312332E0
9.661731252E0,-1.917548299E0,4.071088791E0,2.929114103E0
9.666562241E0,-1.863709688E0,4.488935471E0,3.263211966E0
9.671394845E0,-1.360917926E0,5.371288776E0,3.116053343E0
9.676225835E0,-9.816554785E-1,6.048756599E0,3.250051260E0
9.681058439E0,-1.090528965E0,6.728617191E0,3.743271828E0
9.685889429E0,-1.612463355E0,7.273283482E0,4.237689018E0
9.690722033E0,-1.993221283E0,7.625327587E0,4.363312244E0
9.695553022E0,-2.227717876E0,7.029215813E0,3.978965044E0
9.700385627E0,-2.350948334E0,6.325127602E0,3.598206997E0
9.705216616E0,-2.402393818E0,5.883352757E0,3.634099483E0
9.710049220E0,-2.520838737E0,5.550750256E0,4.176373005E0
9.714880210E0,-2.730509758E0,4.682754040E0,4.661218643E0
9.719712814E0,-2.756830692E0,4.673182487E0,4.820640087E0
9.724543804E0,-2.707777977E0,5.068297386E0,4.898406982E0
9.729376408E0,-2.773580551E0,5.563910961E0,4.807479858E0
9.734207397E0,-3.181855917E0,6.078666687E0,4.403990269E0
9.739039949E0,-3.704986811E0,6.580262184E0,3.856930971E0
9.743870991E0,-4.273581028E0,6.935596466E0,3.157927752E0
9.748703543E0,-4.700700283E0,7.225427151E0,2.680260420E0
9.753534585E0,-4.608576298E0,7.441977501E0,2.464607239E0
9.758367137E0,-4.206283092E0,7.675576687E0,2.444268227E0
9.763198179E0,-3.880859137E0,7.682755470E0,2.529512644E0
9.768030731E0,-3.623331785E0,7.648059368E0,2.542673111E0
9.772861772E0,-3.457030535E0,7.725826263E0,2.743670225E0
9.777694324E0,-2.896811008E0,7.734200954E0,3.148356438E0
9.782525366E0,-2.676671267E0,7.843074322E0,3.396013498E0
9.787357918E0,-2.991327524E0,8.102695465E0,3.583850145E0
9.792188960E0,-3.216551781E0,8.509774208E0,3.943072557E0
9.797021512E0,-3.338585854E0,9.046066284E0,4.247260094E0
9.801852502E0,-3.263211966E0,9.479466438E0,4.407579422E0
9.806685106E0,-3.251247883E0,9.725926399E0,4.490131855E0
9.811516095E0,-3.262015581E0,9.854242325E0,4.475774765E0
9.816348699E0,-3.203391314E0,9.843474388E0,4.435096741E0
9.821179689E0,-3.110071182E0,9.802496910E0,4.403990269E0
9.826012293E0,-3.088535786E0,9.758230209E0,4.387240410E0
9.830843283E0,-3.100499868E0,9.797711372E0,4.246063709E0
9.835675887E0,-2.935096025E0,9.922437668E0,4.176373005E0
9.840506877E0,-2.765205622E0,1.010189915E1,4.156033993E0
9.845339481E0,-2.594118834E0,1.034596729E1,4.178765774E0
9.850170470E0,-2.518445730E0,1.058913708E1,4.159623146E0
9.855003074E0,-2.514856577E0,1.078295612E1,4.060320854E0
9.859834064E0,-2.483749866E0,1.086191940E1,3.944268942E0
9.864666668E0,-2.472982168E0,1.084756279E1,3.762414455E0
9.869497658E0,-2.398804665E0,1.077458096E1,3.684647799E0
9.874330262E0,-2.250449657E0,1.060229778E1,3.699004650E0
9.879161252E0,-2.070987940E0,1.038335514E1,3.640081406E0
9.883993856E0,-1.917548299E0,1.027777100E1,3.576671600E0
9.888824845E0,-1.778764486E0,1.031007481E1,3.413959742E0
9.893657449E0,-1.666301847E0,1.042522907E1,3.129213810E0
9.898488439E0,-1.158724308E0,1.043719292E1,3.193820000E0
9.903320991E0,-1.029511929E0,1.019761181E1,3.594617844E0
9.908152033E0,-1.113260746E0,9.866206169E0,4.376472473E0
9.912984585E0,-1.228116274E0,9.623035431E0,4.995316505E0
9.917815627E0,-1.177866936E0,9.668498993E0,5.195116997E0
9.922648179E0,-1.193420291E0,9.949954987E0,5.100600719E0
9.927479220E0,-1.200598717E0,1.040728283E1,4.771587372E0
9.932311772E0,-1.314257860E0,1.082363415E1,4.162015915E0
9.937142814E0,-1.418644667E0,1.110269737E1,3.568296671E0
9.941975366E0,-1.562214136E0,1.115533924E1,3.189034462E0
9.946806408E0,-1.745265007E0,1.110030460E1,3.076272726E0
9.951638960E0,-1.910369754E0,1.110867882E1,3.029612541E0
9.956469949E0,-2.029113531E0,1.118883896E1,3.030808926E0
9.961302554E0,-2.094916344E0,1.127617645E1,3.129213810E0
9.966133543E0,-2.201396942E0,1.130608654E1,3.203391314E0
9.970966147E0,-2.257628202E0,1.130848026E1,3.184248686E0
9.975797137E0,-2.196611166E0,1.129890823E1,3.288336515E0
9.980629741E0,-2.037488461E0,1.131924725E1,3.555136204E0
9.985460731E0,-1.987239242E0,1.132762241E1,3.916751623E0
9.990293335E0,-2.082952023E0,1.135394382E1,4.033999920E0
9.995124324E0,-2.257628202E0,1.142572784E1,3.879662752E0
9.999956929E0,-2.455035925E0,1.149392319E1,3.685844183E0
1.000478792E1,-2.662314177E0,1.154447174E1,3.567100286E0
1.000962052E1,-2.920739174E0,1.155284691E1,3.448655605E0
1.001445151E1,-3.203391314E0,1.153849030E1,3.240479946E0
1.001928412E1,-3.403192043E0,1.145563793E1,2.953042269E0
1.002411511E1,-3.477369547E0,1.129890823E1,2.632404089E0
1.002894771E1,-3.301496983E0,1.110867882E1,2.323430777E0
1.003377870E1,-3.027219772E0,1.089182949E1,2.102094650E0
1.003861130E1,-2.732902527E0,1.067886829E1,1.941476464E0
1.004344229E1,-2.488535643E0,1.041565800E1,1.870888233E0
1.004827490E1,-2.286342144E0,1.014855862E1,1.941476464E0
1.005310589E1,-2.124826431E0,9.928419113E0,2.160718918E0
1.005793844E1,-2.127219439E0,9.692427635E0,2.472982168E0
1.006276948E1,-2.287538528E0,9.406484604E0,2.726920605E0
1.006760203E1,-2.604886532E0,9.055637360E0,2.825026274E0
1.007243307E1,-3.010469913E0,8.610273361E0,2.778366089E0
1.007726563E1,-3.356531858E0,8.143672943E0,2.676671267E0
1.008209667E1,-3.611367464E0,7.599006653E0,2.511267424E0
1.008692922E1,-3.903591156E0,7.104589462E0,2.199003935E0
1.009176026E1,-4.289134502E0,6.756134510E0,1.839781523E0
1.009659281E1,-4.727021217E0,6.577869415E0,1.566999674E0
1.010142386E1,-5.055137157E0,6.544369698E0,1.430608869E0
1.010625641E1,-5.295615673E0,6.686742783E0,1.230509043E0
1.011108745E1,-5.589035511E0,6.811169624E0,1.205384374E0
1.011592000E1,-5.792425632E0,6.922435760E0,1.161117196E0
1.012075104E1,-5.886941910E0,7.012166977E0,1.316650629E0
1.012558360E1,-5.878567219E0,7.136892796E0,1.418644667E0
1.013041464E1,-5.650052547E0,7.264908791E0,1.332203984E0
1.013524719E1,-5.301597595E0,7.315157890E0,1.507179141E0
1.014007818E1,-4.846961498E0,7.351050377E0,1.675873160E0
1.014491078E1,-4.402793884E0,7.339086056E0,1.611266971E0
1.014974177E1,-3.884448528E0,7.359425068E0,1.382453322E0
1.015457438E1,-3.470191002E0,7.385746002E0,1.138385415E0
1.015940537E1,-3.240479946E0,7.402495861E0,1.023529887E0
1.016423797E1,-3.087339401E0,7.333104134E0,1.468894005E0
1.016906896E1,-2.919542789E0,7.349853992E0,1.990828395E0
1.017390156E1,-2.646760941E0,7.574779034E0,2.396411896E0
1.017873255E1,-2.318645239E0,7.995018482E0,2.078166485E0
1.018356516E1,-2.376072884E0,8.313563347E0,2.184647083E0
1.018839615E1,-2.555833578E0,8.700303078E0,2.042274237E0
1.019322875E1,-2.758027315E0,9.046066284E0,2.300698996E0
