"Time (s)","Acceleration x (m/s^2)","Acceleration y (m/s^2)","Acceleration z (m/s^2)"
2.423021200E-2,4.319044948E-1,9.282656670E0,2.866601467E0
2.663844200E-2,3.984049559E-1,9.270691872E0,2.914458036E0
2.904630600E-2,4.055834413E-1,9.308977127E0,2.924029350E0
3.145375400E-2,3.720839322E-1,9.292227745E0,2.928814888E0
3.386161900E-2,3.649054468E-1,9.316155434E0,2.938386202E0
3.626943100E-2,3.744767308E-1,9.316155434E0,2.924029350E0
3.867766000E-2,3.553341627E-1,9.325727463E0,2.926422119E0
4.108552500E-2,3.601198196E-1,9.318549156E0,2.892922640E0
4.349297300E-2,3.337987661E-1,9.323334694E0,2.866601467E0
4.590120200E-2,3.505485058E-1,9.323334694E0,2.866601467E0
4.830906700E-2,3.146561682E-1,9.335298538E0,2.878565550E0
5.071651500E-2,2.931207716E-1,9.330513000E0,2.916850805E0
6.786219200E-2,5.255236626E-1,9.261120796E0,2.727518797E0
7.031354600E-2,5.159524083E-1,9.287442207E0,2.720340252E0
7.276510800E-2,5.303093195E-1,9.258728027E0,2.758625507E0
7.521682700E-2,5.087739229E-1,9.239286423E0,2.765803814E0
7.766880600E-2,4.989035130E-1,9.239286423E0,2.782553673E0
8.012099400E-2,4.677968323E-1,9.251250267E0,2.796910524E0
8.257328500E-2,4.606183469E-1,9.258728027E0,2.756232500E0
8.502568100E-2,4.390829504E-1,9.273084641E0,2.756232500E0
8.747828500E-2,4.175475538E-1,9.256035805E0,2.729911566E0
8.993109800E-2,3.936193287E-1,9.282656670E0,2.694019079E0
9.238401500E-2,3.744767308E-1,9.280263901E0,2.717947483E0
9.483703500E-2,3.792623878E-1,9.306584358E0,2.749054193E0
9.729016000E-2,3.768695593E-1,9.316155434E0,2.777767897E0
9.974344200E-2,3.984049559E-1,9.306584358E0,2.796910524E0
1.021968270E-1,4.319044948E-1,9.316155434E0,2.818445921E0
1.046502650E-1,4.725824594E-1,9.316155434E0,2.820838690E0
1.071038060E-1,4.989035130E-1,9.313762665E0,2.808874607E0
1.095575040E-1,5.087739229E-1,9.320941925E0,2.792124987E0
1.120113060E-1,4.725824594E-1,9.325727463E0,2.749054193E0
1.144651600E-1,4.510470629E-1,9.328120232E0,2.737090111E0
1.169191190E-1,4.271188378E-1,9.323334694E0,2.758625507E0
1.193731290E-1,4.319044948E-1,9.349655151E0,2.792124987E0
1.218272440E-1,4.295116663E-1,9.328120232E0,2.859423161E0
1.242813580E-1,4.654040039E-1,9.330513000E0,2.914458036E0
1.267355770E-1,4.319044948E-1,9.330513000E0,2.904886723E0
1.291899000E-1,3.936193287E-1,9.342476845E0,2.892922640E0
1.316442750E-1,3.672982752E-1,9.364012718E0,2.868994236E0
1.340987020E-1,3.625126183E-1,9.366405487E0,2.825624466E0
1.365531810E-1,3.601198196E-1,9.364012718E0,2.849552631E0
1.390077120E-1,3.840480447E-1,9.347262383E0,2.856731176E0
1.414622960E-1,3.577269912E-1,9.340084076E0,2.849552631E0
1.439169310E-1,3.864408433E-1,9.313762665E0,2.866601467E0
1.463716190E-1,3.696911037E-1,9.316155434E0,2.873780012E0
1.488263580E-1,3.768695593E-1,9.323334694E0,2.876172781E0
1.512811500E-1,3.888336718E-1,9.347262383E0,2.818445921E0
1.537359940E-1,4.031906128E-1,9.342476845E0,2.811267614E0
1.561908370E-1,4.510470629E-1,9.330513000E0,2.756232500E0
1.586457850E-1,5.012963414E-1,9.308977127E0,2.732304335E0
1.611007330E-1,5.207380056E-1,9.292227745E0,2.708376169E0
1.635556810E-1,5.566303730E-1,9.268299103E0,2.713161707E0
1.660107330E-1,5.327021480E-1,9.282656670E0,2.737090111E0
1.684657850E-1,4.965106845E-1,9.280263901E0,2.720340252E0
1.709208370E-1,4.845465720E-1,9.301798820E0,2.729911566E0
1.733758900E-1,4.558327198E-1,9.280263901E0,2.720340252E0
1.758309420E-1,4.151547253E-1,9.294620514E0,2.703590393E0
1.782860460E-1,4.103690982E-1,9.297013283E0,2.717947483E0
1.807287540E-1,3.720839322E-1,9.299406052E0,2.691626310E0
1.831478170E-1,3.888336718E-1,9.273084641E0,2.677269459E0
1.855560460E-1,3.768695593E-1,9.280263901E0,2.686840773E0
1.879642750E-1,4.247260094E-1,9.277871132E0,2.732304335E0
1.903717230E-1,4.175475538E-1,9.270691872E0,2.741875648E0
1.927791710E-1,4.175475538E-1,9.280263901E0,2.749054193E0
1.951874000E-1,4.103690982E-1,9.292227745E0,2.777767897E0
1.975956290E-1,4.223332107E-1,9.306584358E0,2.772982359E0
2.000030770E-1,4.079762697E-1,9.306584358E0,2.751446962E0
2.024105250E-1,4.414757788E-1,9.311369896E0,2.734697104E0
2.048187540E-1,4.271188378E-1,9.316155434E0,2.734697104E0
2.072269830E-1,4.223332107E-1,9.311369896E0,2.784946442E0
2.096344310E-1,4.271188378E-1,9.337691307E0,2.806481838E0
2.120418790E-1,4.079762697E-1,9.311369896E0,2.816053152E0
2.144501600E-1,4.223332107E-1,9.311369896E0,2.816053152E0
2.168583900E-1,3.720839322E-1,9.328120232E0,2.830410004E0
2.192657850E-1,3.816552162E-1,9.306584358E0,2.856731176E0
2.216732330E-1,3.696911037E-1,9.308977127E0,2.883351326E0
2.240815150E-1,3.601198196E-1,9.318549156E0,2.864208698E0
2.264897440E-1,3.888336718E-1,9.328120232E0,2.854338408E0
2.288971400E-1,3.625126183E-1,9.320941925E0,2.873780012E0
2.313045870E-1,3.720839322E-1,9.328120232E0,2.837588549E0
2.337128690E-1,3.864408433E-1,9.328120232E0,2.825624466E0
2.361210980E-1,4.055834413E-1,9.313762665E0,2.808874607E0
2.385284940E-1,4.319044948E-1,9.344869614E0,2.820838690E0
2.409359420E-1,4.247260094E-1,9.337691307E0,2.818445921E0
2.433442230E-1,4.366901219E-1,9.330513000E0,2.818445921E0
2.457524520E-1,4.103690982E-1,9.366405487E0,2.820838690E0
2.481599000E-1,4.199403822E-1,9.368798256E0,2.801696301E0
2.505673480E-1,4.007977843E-1,9.359226227E0,2.818445921E0
2.529755770E-1,4.031906128E-1,9.342476845E0,2.835195780E0
2.553838060E-1,4.725824594E-1,9.352047920E0,2.856731176E0
2.577912540E-1,4.677968323E-1,9.335298538E0,2.816053152E0
2.601987020E-1,4.486542344E-1,9.332905769E0,2.789732218E0
2.626069310E-1,4.462614357E-1,9.320941925E0,2.758625507E0
2.650151600E-1,4.869394004E-1,9.316155434E0,2.784946442E0
2.674226080E-1,5.135595798E-1,9.304191589E0,2.753839731E0
2.698300560E-1,5.207380056E-1,9.287442207E0,2.732304335E0
2.722383370E-1,5.494518876E-1,9.287442207E0,2.686840773E0
2.746465670E-1,5.350949764E-1,9.263513565E0,2.696412086E0
2.770539620E-1,5.087739229E-1,9.236893654E0,2.710768938E0
2.794614100E-1,4.271188378E-1,9.227322578E0,2.758625507E0
2.818696920E-1,3.744767308E-1,9.229715347E0,2.897708178E0
2.842779210E-1,3.840480447E-1,9.239286423E0,2.876172781E0
2.866853170E-1,4.151547253E-1,9.261120796E0,2.811267614E0
2.890927650E-1,3.936193287E-1,9.256035805E0,2.732304335E0
2.915010460E-1,3.625126183E-1,9.277871132E0,2.717947483E0
2.939092750E-1,3.481557071E-1,9.275477409E0,2.799303293E0
2.963166710E-1,3.840480447E-1,9.273084641E0,2.842374086E0
2.987241190E-1,3.936193287E-1,9.285049438E0,2.866601467E0
3.011324000E-1,4.390829504E-1,9.292227745E0,2.868994236E0
3.035406290E-1,4.701896608E-1,9.280263901E0,2.820838690E0
3.059480770E-1,4.773681164E-1,9.289834976E0,2.782553673E0
3.083555250E-1,4.869394004E-1,9.299406052E0,2.737090111E0
3.107637540E-1,5.063810945E-1,9.277871132E0,2.722733021E0
3.131719830E-1,5.207380056E-1,9.275477409E0,2.686840773E0
3.155794310E-1,5.374878049E-1,9.277871132E0,2.725125790E0
3.179868790E-1,5.446662307E-1,9.253643036E0,2.729911566E0
3.203951080E-1,5.494518876E-1,9.253643036E0,2.744268417E0
3.228033370E-1,5.422734022E-1,9.261120796E0,2.761018276E0
3.252107850E-1,5.327021480E-1,9.256035805E0,2.787339211E0
3.276182330E-1,5.231308341E-1,9.244071960E0,2.784946442E0
3.300264620E-1,4.893322289E-1,9.256035805E0,2.835195780E0
3.324346920E-1,4.965106845E-1,9.253643036E0,2.818445921E0
3.348421400E-1,4.845465720E-1,9.244071960E0,2.830410004E0
3.372495870E-1,4.845465720E-1,9.239286423E0,2.835195780E0
3.396578170E-1,4.941178858E-1,9.261120796E0,2.825624466E0
3.420660980E-1,5.135595798E-1,9.261120796E0,2.799303293E0
3.444734940E-1,5.327021480E-1,9.246464729E0,2.808874607E0
3.468809420E-1,5.159524083E-1,9.270691872E0,2.804089069E0
3.492892230E-1,5.087739229E-1,9.246464729E0,2.799303293E0
3.516974520E-1,5.159524083E-1,9.244071960E0,2.804089069E0
3.541048480E-1,4.893322289E-1,9.227322578E0,2.775375128E0
3.565122960E-1,4.701896608E-1,9.217751503E0,2.765803814E0
3.589205770E-1,4.725824594E-1,9.212965012E0,2.746661186E0
3.613288060E-1,4.558327198E-1,9.232108116E0,2.770589590E0
3.637362020E-1,4.486542344E-1,9.220144272E0,2.782553673E0
3.661436500E-1,4.462614357E-1,9.210572243E0,2.794517756E0
3.685519310E-1,4.438686073E-1,9.220144272E0,2.818445921E0
3.709601600E-1,4.223332107E-1,9.282656670E0,2.799303293E0
3.733675560E-1,4.247260094E-1,9.265906334E0,2.844767094E0
3.757750040E-1,4.247260094E-1,9.277871132E0,2.842374086E0
3.781832850E-1,4.007977843E-1,9.328120232E0,2.828017235E0
3.805915150E-1,3.840480447E-1,9.347262383E0,2.828017235E0
3.829989620E-1,3.744767308E-1,9.342476845E0,2.799303293E0
3.854064100E-1,3.912265003E-1,9.366405487E0,2.804089069E0
3.878146400E-1,3.672982752E-1,9.373583794E0,2.780160904E0
3.902228690E-1,3.720839322E-1,9.380762100E0,2.801696301E0
3.926303170E-1,3.625126183E-1,9.366405487E0,2.816053152E0
3.950377650E-1,3.936193287E-1,9.364012718E0,2.782553673E0
3.974459940E-1,3.840480447E-1,9.359226227E0,2.775375128E0
3.998542230E-1,3.960121572E-1,9.378369331E0,2.775375128E0
4.022616710E-1,3.840480447E-1,9.356833458E0,2.792124987E0
4.046691190E-1,4.462614357E-1,9.368798256E0,2.789732218E0
4.070773480E-1,4.941178858E-1,9.349655151E0,2.732304335E0
4.094855770E-1,4.821537733E-1,9.320941925E0,2.713161707E0
4.118930250E-1,4.534398913E-1,9.337691307E0,2.703590393E0
4.143004730E-1,4.271188378E-1,9.328120232E0,2.672483683E0
4.167087020E-1,4.366901219E-1,9.306584358E0,2.655734062E0
4.191169310E-1,4.725824594E-1,9.320941925E0,2.653341293E0
4.215243790E-1,5.111667514E-1,9.285049438E0,2.655734062E0
4.239318270E-1,5.374878049E-1,9.248857498E0,2.634198666E0
4.263400560E-1,5.350949764E-1,9.263513565E0,2.638984203E0
4.287483370E-1,5.470590591E-1,9.268299103E0,2.638984203E0
4.311557330E-1,5.087739229E-1,9.246464729E0,2.641377211E0
4.335631810E-1,4.989035130E-1,9.263513565E0,2.617448807E0
4.359714100E-1,5.111667514E-1,9.268299103E0,2.600699186E0
4.383796920E-1,5.111667514E-1,9.294620514E0,2.583949327E0
4.407870870E-1,5.012963414E-1,9.306584358E0,2.564806700E0
4.431945350E-1,4.917250574E-1,9.292227745E0,2.583949327E0
4.456028170E-1,4.414757788E-1,9.289834976E0,2.605484724E0
4.480110460E-1,4.295116663E-1,9.323334694E0,2.636591434E0
4.504184420E-1,4.366901219E-1,9.313762665E0,2.658126831E0
4.528258900E-1,3.960121572E-1,9.299406052E0,2.665305376E0
4.552341710E-1,3.290131092E-1,9.328120232E0,2.674876690E0
4.576424000E-1,2.644068897E-1,9.335298538E0,2.679662228E0
4.600497960E-1,2.261217386E-1,9.352047920E0,2.725125790E0
4.624572440E-1,2.452643216E-1,9.364012718E0,2.734697104E0
4.648655250E-1,2.644068897E-1,9.361619949E0,2.713161707E0
4.672737540E-1,3.026920557E-1,9.375976562E0,2.741875648E0
4.696811500E-1,3.433700502E-1,9.368798256E0,2.768196583E0
4.720885980E-1,3.696911037E-1,9.342476845E0,2.775375128E0
4.744968790E-1,3.409772217E-1,9.364012718E0,2.811267614E0
4.769051080E-1,3.433700502E-1,9.356833458E0,2.784946442E0
4.793125040E-1,3.481557071E-1,9.375976562E0,2.794517756E0
4.817199520E-1,3.481557071E-1,9.364012718E0,2.782553673E0
4.841282330E-1,3.601198196E-1,9.347262383E0,2.768196583E0
4.865364620E-1,3.960121572E-1,9.328120232E0,2.761018276E0
4.889438580E-1,4.247260094E-1,9.292227745E0,2.715554714E0
4.913513060E-1,4.342973232E-1,9.280263901E0,2.753839731E0
4.937595870E-1,4.965106845E-1,9.289834976E0,2.777767897E0
4.961678170E-1,5.494518876E-1,9.297013283E0,2.732304335E0
4.985752650E-1,5.494518876E-1,9.313762665E0,2.698804855E0
5.009827120E-1,5.063810945E-1,9.311369896E0,2.667698145E0
5.033909420E-1,4.462614357E-1,9.320941925E0,2.679662228E0
5.057991710E-1,4.486542344E-1,9.318549156E0,2.698804855E0
5.082066190E-1,4.247260094E-1,9.325727463E0,2.725125790E0
5.106140670E-1,4.223332107E-1,9.349655151E0,2.691626310E0
5.130222960E-1,4.031906128E-1,9.342476845E0,2.662912607E0
5.154305250E-1,3.553341627E-1,9.356833458E0,2.667698145E0
5.178379730E-1,3.050848842E-1,9.352047920E0,2.655734062E0
5.202454210E-1,2.261217386E-1,9.364012718E0,2.682054996E0
5.226536500E-1,1.830509305E-1,9.364012718E0,2.715554714E0
5.250618790E-1,1.926222295E-1,9.342476845E0,2.732304335E0
5.274693270E-1,1.974078715E-1,9.337691307E0,2.737090111E0
5.298767750E-1,2.069791555E-1,9.311369896E0,2.746661186E0
5.322850040E-1,2.548356056E-1,9.299406052E0,2.739482880E0
5.346932330E-1,2.859423161E-1,9.306584358E0,2.741875648E0
5.371006810E-1,3.314059377E-1,9.342476845E0,2.701197624E0
5.395081290E-1,3.529413342E-1,9.328120232E0,2.660519600E0
5.419163580E-1,3.864408433E-1,9.328120232E0,2.682054996E0
5.443245870E-1,3.505485058E-1,9.340084076E0,2.677269459E0
5.467320350E-1,3.529413342E-1,9.332905769E0,2.722733021E0
5.491394830E-1,4.199403822E-1,9.337691307E0,2.732304335E0
5.515477120E-1,4.031906128E-1,9.352047920E0,2.679662228E0
5.539559420E-1,3.601198196E-1,9.344869614E0,2.667698145E0
5.563633900E-1,3.314059377E-1,9.378369331E0,2.660519600E0
5.587708370E-1,3.457628787E-1,9.404690742E0,2.634198666E0
5.611790670E-1,3.672982752E-1,9.414261818E0,2.629412889E0
5.635872960E-1,3.888336718E-1,9.426225662E0,2.646162748E0
5.659947440E-1,3.792623878E-1,9.440582275E0,2.658126831E0
5.684021920E-1,2.859423161E-1,9.414261818E0,2.784946442E0
5.708104210E-1,4.127618968E-1,9.407083511E0,2.864208698E0
5.732187020E-1,5.685944557E-1,9.421440125E0,2.763411045E0
5.756260980E-1,6.379863620E-1,9.385547638E0,2.603091955E0
5.780335460E-1,6.762714982E-1,9.387940407E0,2.495414972E0
5.804417750E-1,6.714858413E-1,9.380762100E0,2.426023006E0
5.828500040E-1,6.284150481E-1,9.395118713E0,2.459522486E0
5.852574520E-1,6.260222197E-1,9.385547638E0,2.457129717E0
5.876649000E-1,6.068796515E-1,9.375976562E0,2.502593279E0
5.900731290E-1,5.757729411E-1,9.368798256E0,2.564806700E0
5.924813580E-1,5.518447161E-1,9.349655151E0,2.586342096E0
5.948888060E-1,5.925226808E-1,9.337691307E0,2.622234583E0
5.972962540E-1,6.236293912E-1,9.304191589E0,2.641377211E0
5.997044830E-1,5.853442550E-1,9.294620514E0,2.636591434E0
6.021127650E-1,5.036891699E-1,9.318549156E0,2.612663269E0
6.045201600E-1,4.582255483E-1,9.301798820E0,2.658126831E0
6.069276080E-1,4.342973232E-1,9.306584358E0,2.648555517E0
6.093358900E-1,4.630111754E-1,9.292227745E0,2.658126831E0
6.117441190E-1,4.941178858E-1,9.289834976E0,2.634198666E0
6.141515150E-1,5.398806334E-1,9.282656670E0,2.648555517E0
6.165589620E-1,5.877370834E-1,9.232108116E0,2.619841576E0
6.189672440E-1,5.757729411E-1,9.239286423E0,2.595913410E0
6.213754730E-1,5.853442550E-1,9.241679192E0,2.586342096E0
6.237828690E-1,5.829514265E-1,9.215357780E0,2.583949327E0
6.261903170E-1,5.829514265E-1,9.210572243E0,2.595913410E0
6.285985980E-1,6.092724800E-1,9.201001167E0,2.567199707E0
6.310068270E-1,6.308078766E-1,9.191430092E0,2.531307220E0
6.334142230E-1,6.188437343E-1,9.181859016E0,2.500200510E0
6.358216710E-1,6.140581369E-1,9.193822861E0,2.516950369E0
6.382299520E-1,6.260222197E-1,9.198608398E0,2.514557600E0
6.406381810E-1,6.284150481E-1,9.232108116E0,2.524128675E0
6.430455770E-1,6.284150481E-1,9.246464729E0,2.562413931E0
6.454530250E-1,5.877370834E-1,9.261120796E0,2.629412889E0
6.478613060E-1,5.542375445E-1,9.263513565E0,2.638984203E0
6.502695350E-1,5.303093195E-1,9.277871132E0,2.665305376E0
6.526769310E-1,5.087739229E-1,9.287442207E0,2.684448004E0
6.550843790E-1,4.725824594E-1,9.287442207E0,2.677269459E0
6.574926600E-1,4.582255483E-1,9.294620514E0,2.703590393E0
6.599008900E-1,4.462614357E-1,9.294620514E0,2.722733021E0
6.623082850E-1,4.390829504E-1,9.306584358E0,2.765803814E0
6.647157330E-1,4.486542344E-1,9.289834976E0,2.808874607E0
6.671240150E-1,4.175475538E-1,9.285049438E0,2.820838690E0
6.695322440E-1,4.199403822E-1,9.294620514E0,2.830410004E0
6.719396400E-1,3.960121572E-1,9.294620514E0,2.837588549E0
6.743470870E-1,4.031906128E-1,9.268299103E0,2.828017235E0
6.767553690E-1,4.175475538E-1,9.280263901E0,2.868994236E0
6.791635980E-1,4.127618968E-1,9.287442207E0,2.868994236E0
6.815709940E-1,4.151547253E-1,9.292227745E0,2.890529871E0
6.839784420E-1,4.319044948E-1,9.323334694E0,2.895315409E0
6.863867230E-1,4.247260094E-1,9.313762665E0,2.900100946E0
6.887949520E-1,4.677968323E-1,9.313762665E0,2.916850805E0
6.912023480E-1,4.701896608E-1,9.313762665E0,2.924029350E0
6.936097960E-1,4.773681164E-1,9.337691307E0,2.912065268E0
6.960180770E-1,4.534398913E-1,9.366405487E0,2.890529871E0
6.984263060E-1,4.534398913E-1,9.368798256E0,2.897708178E0
7.008337020E-1,4.438686073E-1,9.359226227E0,2.873780012E0
7.032411500E-1,4.677968323E-1,9.349655151E0,2.856731176E0
7.056494310E-1,4.677968323E-1,9.387940407E0,2.856731176E0
7.080576600E-1,4.630111754E-1,9.392725945E0,2.851945400E0
7.104650560E-1,4.342973232E-1,9.392725945E0,2.820838690E0
7.128725040E-1,4.271188378E-1,9.392725945E0,2.823231697E0
7.152807850E-1,4.103690982E-1,9.395118713E0,2.808874607E0
7.176890150E-1,3.672982752E-1,9.378369331E0,2.775375128E0
7.200964100E-1,3.649054468E-1,9.385547638E0,2.746661186E0
7.225038580E-1,3.409772217E-1,9.385547638E0,2.691626310E0
7.249121400E-1,3.242274821E-1,9.373583794E0,2.627020121E0
7.273203690E-1,3.266202807E-1,9.392725945E0,2.603091955E0
7.297277650E-1,3.242274821E-1,9.349655151E0,2.593520641E0
7.321352120E-1,3.146561682E-1,9.359226227E0,2.619841576E0
7.345434940E-1,3.266202807E-1,9.342476845E0,2.636591434E0
7.369517230E-1,3.026920557E-1,9.335298538E0,2.665305376E0
7.393591190E-1,2.596212626E-1,9.328120232E0,2.650948286E0
7.417665670E-1,2.691925466E-1,9.330513000E0,2.696412086E0
7.441748480E-1,2.237289101E-1,9.352047920E0,2.720340252E0
7.465830770E-1,2.524427772E-1,9.352047920E0,2.732304335E0
7.489904730E-1,2.452643216E-1,9.368798256E0,2.722733021E0
7.513979210E-1,2.356930375E-1,9.368798256E0,2.744268417E0
7.538062020E-1,2.093719840E-1,9.385547638E0,2.732304335E0
7.562144310E-1,2.069791555E-1,9.387940407E0,2.710768938E0
7.586218270E-1,2.069791555E-1,9.378369331E0,2.698804855E0
7.610292750E-1,1.806581169E-1,9.371191025E0,2.739482880E0
7.634375560E-1,1.926222295E-1,9.383154869E0,2.732304335E0
7.658457850E-1,1.974078715E-1,9.385547638E0,2.744268417E0
7.682531810E-1,1.926222295E-1,9.380762100E0,2.756232500E0
7.706606290E-1,1.878365725E-1,9.368798256E0,2.753839731E0
7.730688580E-1,1.950150430E-1,9.378369331E0,2.746661186E0
7.754771400E-1,1.830509305E-1,9.375976562E0,2.725125790E0
7.778845350E-1,1.710868180E-1,9.378369331E0,2.713161707E0
7.802919830E-1,1.686939895E-1,9.380762100E0,2.670090914E0
7.827002120E-1,1.519442350E-1,9.375976562E0,2.670090914E0
7.851084940E-1,1.567298770E-1,9.361619949E0,2.629412889E0
7.875158900E-1,1.543370634E-1,9.361619949E0,2.648555517E0
7.899233370E-1,1.567298770E-1,9.359226227E0,2.641377211E0
7.923315670E-1,1.088734269E-1,9.366405487E0,2.665305376E0
7.947397960E-1,4.666004330E-2,9.364012718E0,2.684448004E0
7.971472440E-1,5.862415582E-2,9.347262383E0,2.708376169E0
7.995546920E-1,1.316052489E-2,9.366405487E0,2.715554714E0
8.019629210E-1,4.187439755E-2,9.366405487E0,2.727518797E0
8.043711500E-1,4.666004330E-2,9.335298538E0,2.698804855E0
8.067785980E-1,6.580262631E-2,9.323334694E0,2.689233541E0
8.091860460E-1,1.208375469E-1,9.316155434E0,2.641377211E0
8.115943270E-1,1.447657645E-1,9.297013283E0,2.629412889E0
8.140025040E-1,2.356930375E-1,9.304191589E0,2.552842617E0
8.164099520E-1,3.122633696E-1,9.320941925E0,2.526521683E0
8.188174000E-1,3.577269912E-1,9.344869614E0,2.512164593E0
8.212256290E-1,3.672982752E-1,9.349655151E0,2.516950369E0
8.236338580E-1,3.888336718E-1,9.347262383E0,2.536092997E0
8.260413060E-1,3.768695593E-1,9.366405487E0,2.555235386E0
8.284487540E-1,3.744767308E-1,9.373583794E0,2.550449848E0
8.308569830E-1,3.050848842E-1,9.387940407E0,2.512164593E0
8.332652120E-1,2.811566591E-1,9.387940407E0,2.497807741E0
8.356726600E-1,2.715853751E-1,9.371191025E0,2.512164593E0
8.380801080E-1,2.644068897E-1,9.364012718E0,2.564806700E0
8.404883370E-1,3.361915946E-1,9.378369331E0,2.591127872E0
8.428965670E-1,2.691925466E-1,9.364012718E0,2.538485765E0
8.453040150E-1,1.806581169E-1,9.378369331E0,2.497807741E0
8.477114620E-1,1.112662554E-1,9.426225662E0,2.512164593E0
8.501196920E-1,5.862415582E-2,9.466903687E0,2.495414972E0
8.525279210E-1,3.469592705E-2,9.466903687E0,2.507379055E0
8.549353690E-1,4.426721856E-2,9.476474762E0,2.564806700E0
8.573428170E-1,5.623133108E-2,9.493225098E0,2.588735104E0
8.597510460E-1,9.212367237E-2,9.526723862E0,2.586342096E0
8.621592750E-1,9.451649338E-2,9.521938324E0,2.571985245E0
8.645667230E-1,8.015955985E-2,9.531510353E0,2.557628393E0
8.669741710E-1,1.040877849E-1,9.533903122E0,2.548057079E0
8.693824000E-1,1.328016520E-1,9.512367249E0,2.550449848E0
8.717906290E-1,1.591227055E-1,9.495617867E0,2.555235386E0
8.741980770E-1,1.998006850E-1,9.500403404E0,2.569592476E0
8.766055250E-1,1.950150430E-1,9.505188942E0,2.552842617E0
8.790137540E-1,2.141576260E-1,9.474081993E0,2.526521683E0
8.814219830E-1,2.213360965E-1,9.481260300E0,2.543271303E0
8.838294310E-1,2.524427772E-1,9.476474762E0,2.509771824E0
8.862368790E-1,2.452643216E-1,9.488439560E0,2.488236427E0
8.886451080E-1,2.835494876E-1,9.471689224E0,2.454736948E0
8.910533370E-1,2.572284341E-1,9.464510918E0,2.442772865E0
8.934607330E-1,2.739782035E-1,9.440582275E0,2.421237469E0
8.958681810E-1,1.950150430E-1,9.435796738E0,2.471486807E0
8.982764620E-1,2.333002090E-1,9.411869049E0,2.545664072E0
9.006846920E-1,3.194418252E-1,9.399904251E0,2.569592476E0
9.030920870E-1,3.840480447E-1,9.404690742E0,2.509771824E0
9.054995350E-1,4.223332107E-1,9.421440125E0,2.464308262E0
9.079078170E-1,4.319044948E-1,9.387940407E0,2.428415775E0
9.103160460E-1,4.366901219E-1,9.392725945E0,2.423630238E0
9.127234420E-1,4.151547253E-1,9.414261818E0,2.416451693E0
9.151308900E-1,3.888336718E-1,9.423832893E0,2.437987089E0
9.175391710E-1,3.888336718E-1,9.392725945E0,2.466701031E0
9.199474000E-1,3.912265003E-1,9.411869049E0,2.488236427E0
9.223547960E-1,3.936193287E-1,9.399904251E0,2.528914452E0
9.247622440E-1,4.007977843E-1,9.395118713E0,2.533699989E0
9.271705250E-1,3.792623878E-1,9.404690742E0,2.526521683E0
9.295787540E-1,4.031906128E-1,9.392725945E0,2.560021162E0
9.319861500E-1,4.055834413E-1,9.402297020E0,2.593520641E0
9.343935980E-1,4.127618968E-1,9.390333176E0,2.617448807E0
9.368018790E-1,3.840480447E-1,9.378369331E0,2.622234583E0
9.392101080E-1,3.625126183E-1,9.390333176E0,2.624627352E0
9.416175040E-1,3.840480447E-1,9.395118713E0,2.607877493E0
9.440249520E-1,3.840480447E-1,9.378369331E0,2.631805897E0
9.464332330E-1,3.625126183E-1,9.392725945E0,2.636591434E0
9.488414620E-1,3.816552162E-1,9.395118713E0,2.672483683E0
9.512488580E-1,4.127618968E-1,9.378369331E0,2.691626310E0
9.536563060E-1,4.271188378E-1,9.368798256E0,2.694019079E0
9.560645350E-1,4.223332107E-1,9.352047920E0,2.694019079E0
9.584727650E-1,3.984049559E-1,9.368798256E0,2.670090914E0
9.608802120E-1,3.792623878E-1,9.352047920E0,2.624627352E0
9.632876600E-1,3.696911037E-1,9.366405487E0,2.569592476E0
9.656958900E-1,3.768695593E-1,9.352047920E0,2.595913410E0
9.681041190E-1,3.912265003E-1,9.354440689E0,2.622234583E0
9.705115670E-1,4.223332107E-1,9.316155434E0,2.682054996E0
9.729190150E-1,4.319044948E-1,9.316155434E0,2.713161707E0
9.753272440E-1,4.486542344E-1,9.311369896E0,2.753839731E0
9.777354730E-1,4.151547253E-1,9.311369896E0,2.784946442E0
9.801429210E-1,4.414757788E-1,9.313762665E0,2.806481838E0
9.825503690E-1,4.438686073E-1,9.308977127E0,2.806481838E0
9.849585980E-1,4.630111754E-1,9.306584358E0,2.832803011E0
9.873668270E-1,4.414757788E-1,9.297013283E0,2.825624466E0
9.897742750E-1,4.534398913E-1,9.316155434E0,2.792124987E0
9.921817230E-1,4.749752879E-1,9.292227745E0,2.784946442E0
9.945899520E-1,4.630111754E-1,9.294620514E0,2.813660383E0
9.969981810E-1,5.036891699E-1,9.241679192E0,2.871387243E0
9.994055770E-1,5.350949764E-1,9.251250267E0,2.839981318E0
1.001813025E0,4.797609448E-1,9.261120796E0,2.806481838E0
1.004221306E0,4.366901219E-1,9.273084641E0,2.694019079E0
1.006629535E0,3.912265003E-1,9.270691872E0,2.684448004E0
1.009036931E0,3.529413342E-1,9.275477409E0,2.705983400E0
1.011444379E0,3.290131092E-1,9.261120796E0,2.741875648E0
1.013852660E0,3.050848842E-1,9.275477409E0,2.732304335E0
1.016260890E0,2.261217386E-1,9.297013283E0,2.746661186E0
1.018668285E0,1.878365725E-1,9.316155434E0,2.753839731E0
1.021075733E0,1.399801224E-1,9.323334694E0,2.768196583E0
1.023484015E0,1.256231815E-1,9.361619949E0,2.789732218E0
1.025892244E0,1.064806059E-1,9.340084076E0,2.782553673E0
1.028299640E0,1.208375469E-1,9.330513000E0,2.804089069E0
1.030707087E0,1.184447184E-1,9.344869614E0,2.808874607E0
1.033115369E0,1.016949639E-1,9.344869614E0,2.792124987E0
1.035523598E0,9.690931439E-2,9.318549156E0,2.770589590E0
1.037930994E0,8.015955985E-2,9.323334694E0,2.751446962E0
1.040338442E0,1.016949639E-1,9.301798820E0,2.758625507E0
1.042746723E0,1.232303679E-1,9.294620514E0,2.775375128E0
1.045154900E0,1.304088384E-1,9.256035805E0,2.799303293E0
1.047562348E0,6.819544733E-2,9.280263901E0,2.806481838E0
1.049969796E0,7.537391037E-2,9.297013283E0,2.842374086E0
1.052378025E0,6.580262631E-2,9.273084641E0,2.808874607E0
1.054786254E0,8.015955985E-2,9.285049438E0,2.804089069E0
1.057193702E0,1.016949639E-1,9.280263901E0,2.780160904E0
1.059601150E0,1.088734269E-1,9.297013283E0,2.796910524E0
1.062009379E0,1.136590764E-1,9.323334694E0,2.780160904E0
1.064417608E0,1.208375469E-1,9.332905769E0,2.801696301E0
1.066825056E0,1.351944804E-1,9.342476845E0,2.816053152E0
1.069232504E0,1.639083475E-1,9.364012718E0,2.811267614E0
1.071640733E0,1.471585929E-1,9.347262383E0,2.835195780E0
1.074048962E0,1.280160099E-1,9.349655151E0,2.825624466E0
1.076456410E0,1.064806059E-1,9.373583794E0,2.811267614E0
1.078863858E0,8.733802289E-2,9.380762100E0,2.808874607E0
1.081272087E0,8.973085135E-2,9.373583794E0,2.801696301E0
1.083680317E0,7.537391037E-2,9.366405487E0,2.818445921E0
1.086087712E0,8.494520187E-2,9.366405487E0,2.811267614E0
1.088495160E0,1.160518974E-1,9.356833458E0,2.832803011E0
1.090903442E0,1.256231815E-1,9.352047920E0,2.859423161E0
1.093311671E0,9.930214286E-2,9.332905769E0,2.849552631E0
1.095719067E0,1.184447184E-1,9.306584358E0,2.864208698E0
1.098126515E0,1.758724600E-1,9.306584358E0,2.900100946E0
1.100534796E0,2.428714931E-1,9.308977127E0,2.895315409E0
1.102943025E0,2.596212626E-1,9.297013283E0,2.851945400E0
1.105350421E0,2.667997181E-1,9.297013283E0,2.787339211E0
1.107757869E0,2.237289101E-1,9.287442207E0,2.672483683E0
1.110166150E0,2.189432681E-1,9.323334694E0,2.571985245E0
1.112574379E0,1.950150430E-1,9.320941925E0,2.485843658E0
1.114981775E0,1.878365725E-1,9.325727463E0,2.440380096E0
1.117389223E0,1.710868180E-1,9.273084641E0,2.423630238E0
1.119797452E0,1.854437590E-1,9.301798820E0,2.392523527E0
1.122205681E0,2.237289101E-1,9.297013283E0,2.359024048E0
1.124613129E0,2.404786795E-1,9.306584358E0,2.385344982E0
1.127020577E0,2.261217386E-1,9.306584358E0,2.351845503E0
1.129428806E0,2.045863420E-1,9.311369896E0,2.323131800E0
1.131837035E0,1.686939895E-1,9.335298538E0,2.255833626E0
1.134244483E0,8.255238086E-2,9.361619949E0,2.191227436E0
1.136651931E0,2.991028316E-2,9.383154869E0,2.186441660E0
1.139060160E0,4.187439755E-2,9.407083511E0,2.179263115E0
1.141468390E0,5.862415582E-2,9.395118713E0,2.227119684E0
1.143875837E0,7.298108935E-2,9.397511482E0,2.279761791E0
1.146283285E0,7.776673883E-2,9.378369331E0,2.323131800E0
1.148691515E0,8.255238086E-2,9.399904251E0,2.332702875E0
1.151099744E0,4.426721856E-2,9.414261818E0,2.296511650E0
1.153507140E0,7.058826834E-2,9.428618431E0,2.284547329E0
1.155914587E0,5.623133108E-2,9.423832893E0,2.301596165E0
1.158322869E0,6.101697683E-2,9.435796738E0,2.315953255E0
1.160731098E0,5.862415582E-2,9.445367813E0,2.318346024E0
1.163138494E0,9.930214286E-2,9.431011200E0,2.330310106E0
1.165545942E0,1.112662554E-1,9.450154305E0,2.354238272E0
1.167954223E0,1.304088384E-1,9.450154305E0,2.370988131E0
1.170362452E0,1.519442350E-1,9.452547073E0,2.404487610E0
1.172769848E0,1.710868180E-1,9.471689224E0,2.440380096E0
1.175177296E0,1.854437590E-1,9.474081993E0,2.433201551E0
1.177585577E0,1.686939895E-1,9.481260300E0,2.478665113E0
1.179993754E0,1.543370634E-1,9.476474762E0,2.495414972E0
1.182401202E0,1.328016520E-1,9.474081993E0,2.514557600E0
1.184808650E0,1.519442350E-1,9.498010635E0,2.524128675E0
1.187216879E0,1.088734269E-1,9.488439560E0,2.504986286E0
1.189625108E0,1.447657645E-1,9.466903687E0,2.488236427E0
1.192032556E0,1.591227055E-1,9.471689224E0,2.483450890E0
1.194440004E0,1.304088384E-1,9.457332611E0,2.449951172E0
1.196848233E0,1.304088384E-1,9.452547073E0,2.402094841E0
1.199256462E0,1.256231815E-1,9.445367813E0,2.370988131E0
1.201663910E0,9.930214286E-2,9.462118149E0,2.344667196E0
1.204071358E0,7.298108935E-2,9.431011200E0,2.342274189E0
1.206479587E0,5.862415582E-2,9.426225662E0,2.320738792E0
1.208887817E0,4.187439755E-2,9.416654587E0,2.349452734E0
1.211295212E0,2.033899166E-2,9.416654587E0,2.349452734E0
1.213702660E0,2.512463741E-2,9.399904251E0,2.385344982E0
1.216110942E0,5.144568533E-2,9.399904251E0,2.385344982E0
1.218519171E0,6.101697683E-2,9.378369331E0,2.402094841E0
1.220926567E0,7.058826834E-2,9.364012718E0,2.435594320E0
1.223334015E0,5.862415582E-2,9.354440689E0,2.469093800E0
1.225742296E0,6.580262631E-2,9.359226227E0,2.476272345E0
1.228150525E0,4.187439755E-2,9.359226227E0,2.536092997E0
1.230557921E0,5.623133108E-2,9.366405487E0,2.574378014E0
1.232965369E0,6.580262631E-2,9.364012718E0,2.571985245E0
1.235373650E0,9.451649338E-2,9.344869614E0,2.600699186E0
1.237781879E0,1.232303679E-1,9.359226227E0,2.631805897E0
1.240189275E0,1.423729509E-1,9.359226227E0,2.638984203E0
1.242596723E0,1.160518974E-1,9.337691307E0,2.634198666E0
1.245004952E0,1.567298770E-1,9.352047920E0,2.641377211E0
1.247413181E0,1.495514214E-1,9.356833458E0,2.610270500E0
1.249820629E0,1.567298770E-1,9.371191025E0,2.607877493E0
1.252228077E0,1.471585929E-1,9.378369331E0,2.583949327E0
1.254636306E0,1.519442350E-1,9.395118713E0,2.574378014E0
1.257044535E0,1.854437590E-1,9.371191025E0,2.579163790E0
1.259451931E0,1.974078715E-1,9.402297020E0,2.567199707E0
1.261859379E0,1.830509305E-1,9.390333176E0,2.595913410E0
1.264267660E0,2.093719840E-1,9.390333176E0,2.619841576E0
1.266675890E0,2.476571500E-1,9.375976562E0,2.660519600E0
1.269083285E0,2.620140910E-1,9.395118713E0,2.677269459E0
1.271490733E0,2.644068897E-1,9.414261818E0,2.679662228E0
1.273899015E0,3.026920557E-1,9.428618431E0,2.670090914E0
1.276307244E0,2.859423161E-1,9.440582275E0,2.672483683E0
1.278714640E0,2.979064286E-1,9.440582275E0,2.638984203E0
1.281122087E0,2.859423161E-1,9.469296455E0,2.607877493E0
1.283530369E0,3.170489967E-1,9.469296455E0,2.571985245E0
1.285938598E0,3.361915946E-1,9.454939842E0,2.583949327E0
1.288345994E0,3.696911037E-1,9.469296455E0,2.569592476E0
1.290753442E0,3.816552162E-1,9.452547073E0,2.548057079E0
1.293161671E0,3.960121572E-1,9.481260300E0,2.569592476E0
1.295569900E0,4.127618968E-1,9.490832329E0,2.516950369E0
1.297977348E0,3.696911037E-1,9.514760017E0,2.469093800E0
1.300384796E0,3.672982752E-1,9.531510353E0,2.435594320E0
1.302793025E0,3.792623878E-1,9.548259735E0,2.390130758E0
1.305201254E0,3.529413342E-1,9.536295891E0,2.337488651E0
1.307608702E0,3.577269912E-1,9.550652504E0,2.265404940E0
1.310016150E0,3.577269912E-1,9.574581146E0,2.193620205E0
1.312424379E0,3.529413342E-1,9.555438042E0,2.131406784E0
1.314832608E0,3.529413342E-1,9.548259735E0,2.064407825E0
1.317240004E0,3.888336718E-1,9.529116631E0,2.059622049E0
1.319647452E0,3.912265003E-1,9.493225098E0,2.052443504E0
1.322055733E0,3.864408433E-1,9.476474762E0,2.016551256E0
1.324463962E0,3.960121572E-1,9.478867531E0,1.987837434E0
1.326871358E0,4.127618968E-1,9.452547073E0,2.002194405E0
1.329278806E0,4.079762697E-1,9.411869049E0,2.011765718E0
1.331687087E0,4.366901219E-1,9.423832893E0,1.963909149E0
1.334095317E0,3.912265003E-1,9.411869049E0,1.930409670E0
1.336502712E0,3.649054468E-1,9.399904251E0,1.889731646E0
1.338910160E0,3.194418252E-1,9.438189507E0,1.784447432E0
1.341318390E0,2.476571500E-1,9.457332611E0,1.709970832E0
1.343726619E0,2.261217386E-1,9.454939842E0,1.635793328E0
1.346134067E0,2.309073806E-1,9.464510918E0,1.652543187E0
1.348541515E0,2.285145670E-1,9.454939842E0,1.631007791E0
1.350949744E0,1.950150430E-1,9.466903687E0,1.595115423E0
1.353357973E0,1.710868180E-1,9.476474762E0,1.583151340E0
1.355765421E0,1.734796464E-1,9.478867531E0,1.573580027E0
1.358172869E0,2.213360965E-1,9.474081993E0,1.616650820E0
1.360581098E0,2.452643216E-1,9.481260300E0,1.681257010E0
1.362989327E0,2.524427772E-1,9.459725380E0,1.748555183E0
1.365396723E0,2.931207716E-1,9.469296455E0,1.746162295E0
1.367804171E0,3.409772217E-1,9.457332611E0,1.770090580E0
1.370212452E0,3.601198196E-1,9.438189507E0,1.784447432E0
1.372620681E0,3.816552162E-1,9.445367813E0,1.822732687E0
1.375028077E0,3.984049559E-1,9.447761536E0,1.849053741E0
1.377435525E0,3.936193287E-1,9.464510918E0,1.827518344E0
1.379843806E0,3.888336718E-1,9.471689224E0,1.801197290E0
1.382252035E0,3.912265003E-1,9.481260300E0,1.820339799E0
1.384659431E0,3.888336718E-1,9.478867531E0,1.820339799E0
1.387066879E0,3.816552162E-1,9.509974480E0,1.844268084E0
1.389475108E0,3.720839322E-1,9.495617867E0,1.832303882E0
1.391883337E0,4.031906128E-1,9.495617867E0,1.837089539E0
1.394290785E0,4.247260094E-1,9.486045837E0,1.810768485E0
1.396698233E0,4.486542344E-1,9.474081993E0,1.803590059E0
1.399106462E0,4.701896608E-1,9.464510918E0,1.789233088E0
1.401514692E0,4.893322289E-1,9.440582275E0,1.794018745E0
1.403922087E0,4.582255483E-1,9.447761536E0,1.834696770E0
1.406329535E0,4.390829504E-1,9.490832329E0,1.877767563E0
1.408737817E0,3.984049559E-1,9.526723862E0,1.894517303E0
1.411146046E0,4.127618968E-1,9.531510353E0,1.935195327E0
1.413553442E0,4.390829504E-1,9.543474197E0,2.026122570E0
1.415960890E0,4.725824594E-1,9.536295891E0,2.064407825E0
1.418369171E0,5.183451772E-1,9.567401886E0,2.109871387E0
1.420777400E0,5.470590591E-1,9.562616348E0,2.172084808E0
1.423184796E0,5.757729411E-1,9.586544991E0,2.150549412E0
1.425592244E0,5.877370834E-1,9.579366684E0,2.176870346E0
1.428000473E0,6.068796515E-1,9.574581146E0,2.224726915E0
1.430408702E0,5.973083377E-1,9.574581146E0,2.219941139E0
1.432816150E0,5.709872842E-1,9.593723297E0,2.179263115E0
1.435223598E0,5.877370834E-1,9.605687141E0,2.129014015E0
1.437631827E0,5.853442550E-1,9.605687141E0,2.066800594E0
1.440040056E0,5.685944557E-1,9.591330528E0,2.030908108E0
1.442447504E0,5.470590591E-1,9.588937759E0,1.983051777E0
1.444854952E0,5.566303730E-1,9.543474197E0,1.951945066E0
1.447263181E0,5.757729411E-1,9.519545555E0,1.956730723E0
1.449671410E0,5.733801126E-1,9.495617867E0,1.937588096E0
1.452078806E0,5.614160299E-1,9.476474762E0,1.928016901E0
1.454486254E0,5.638088584E-1,9.457332611E0,1.937588096E0
1.456894535E0,5.685944557E-1,9.433403969E0,1.918445587E0
1.459302765E0,5.973083377E-1,9.431011200E0,1.868196249E0
1.461710160E0,5.757729411E-1,9.431011200E0,1.758126378E0
1.464117608E0,5.542375445E-1,9.426225662E0,1.681257010E0
1.466525837E0,5.518447161E-1,9.402297020E0,1.683649778E0
1.468934067E0,5.662016869E-1,9.387940407E0,1.659721613E0
1.471341515E0,5.949155092E-1,9.359226227E0,1.674078584E0
1.473748962E0,5.853442550E-1,9.342476845E0,1.702792406E0
1.476157192E0,6.164509058E-1,9.325727463E0,1.666900039E0
1.478565421E0,6.020939946E-1,9.337691307E0,1.587936878E0
1.480972817E0,5.901299119E-1,9.313762665E0,1.535294771E0
1.483380265E0,5.757729411E-1,9.297013283E0,1.516152263E0
1.485788546E0,5.757729411E-1,9.308977127E0,1.556830287E0
1.488196775E0,5.901299119E-1,9.304191589E0,1.633400559E0
1.490604171E0,6.068796515E-1,9.285049438E0,1.657328725E0
1.493011619E0,6.762714982E-1,9.287442207E0,1.681257010E0
1.495419900E0,6.714858413E-1,9.258728027E0,1.664507270E0
1.497828077E0,6.978068948E-1,9.236893654E0,1.683649778E0
1.500235525E0,7.600203156E-1,9.222537041E0,1.741376638E0
1.502642973E0,8.318049908E-1,9.220144272E0,1.753340840E0
1.505051202E0,8.509475589E-1,9.227322578E0,1.772483349E0
1.507459431E0,8.940183520E-1,9.224929810E0,1.786840320E0
1.509866879E0,9.394819736E-1,9.246464729E0,1.846660852E0
1.512274327E0,9.586246014E-1,9.261120796E0,1.851446509E0
1.514682556E0,1.020837903E0,9.285049438E0,1.901695848E0
1.517090785E0,1.054337502E0,9.280263901E0,1.930409670E0
1.519498181E0,1.083350420E0,9.313762665E0,1.911267042E0
1.521905629E0,1.100100160E0,9.335298538E0,1.880160451E0
1.524313910E0,1.140778184E0,9.340084076E0,1.937588096E0
1.526722140E0,1.152742267E0,9.366405487E0,1.959123492E0
1.529129535E0,1.179063320E0,9.387940407E0,1.987837434E0
1.531536983E0,1.171884894E0,9.392725945E0,2.076371908E0
1.533945212E0,1.181456208E0,9.421440125E0,2.078764677E0
1.536353442E0,1.222134113E0,9.447761536E0,2.078764677E0
1.538760890E0,1.231705427E0,9.457332611E0,2.131406784E0
1.541168337E0,1.293918848E0,9.447761536E0,2.088335991E0
1.543576567E0,1.351346612E0,9.428618431E0,2.042872429E0
1.545984796E0,1.392024517E0,9.344869614E0,2.076371908E0
1.548392244E0,1.451845169E0,9.265906334E0,2.131406784E0
1.550799692E0,1.368096352E0,9.069396019E0,2.198405743E0
1.553207921E0,1.542772412E0,8.832506180E0,2.119442701E0
1.555616150E0,1.641177177E0,8.856434822E0,2.109871387E0
1.558023546E0,1.509272933E0,8.885149002E0,2.114656925E0
1.560430994E0,1.425524116E0,8.942576408E0,2.114656925E0
1.562839275E0,1.430309772E0,9.043074608E0,2.078764677E0
1.565247504E0,1.451845169E0,9.112466812E0,2.030908108E0
1.567654900E0,1.547558069E0,9.057432175E0,2.210369825E0
1.570062348E0,1.748854280E0,8.937790871E0,2.497807741E0
1.572470629E0,2.162812471E0,8.698209763E0,2.993421078E0
1.574878806E0,2.194218397E0,8.708079338E0,2.943171740E0
1.577286254E0,2.031207323E0,8.763114929E0,2.689233541E0
1.579693702E0,1.897209287E0,8.863613129E0,2.464308262E0
1.582101931E0,1.765604019E0,8.882756233E0,2.303989172E0
1.584510160E0,1.669891119E0,8.944969177E0,2.196012974E0
1.586917556E0,1.588235974E0,9.009575844E0,2.095514536E0
1.589325004E0,1.504487276E0,9.071788788E0,2.023729801E0
1.591733285E0,1.418345571E0,9.114859581E0,1.930409670E0
1.594141515E0,1.401595831E0,9.174679756E0,1.877767563E0
1.596548910E0,1.356132269E0,9.203393936E0,1.844268084E0
1.598956358E0,1.356132269E0,9.217751503E0,1.851446509E0
1.601364640E0,1.358525038E0,9.261120796E0,1.870589137E0
1.603772817E0,1.382453322E0,9.275477409E0,1.918445587E0
1.606180265E0,1.497308731E0,9.320941925E0,1.935195327E0
1.608587712E0,1.528415442E0,9.325727463E0,1.973480463E0
1.610995942E0,1.466202021E0,9.335298538E0,2.047657967E0
1.613404171E0,1.403988719E0,9.318549156E0,2.112264156E0
1.615811619E0,1.447059512E0,9.316155434E0,2.176870346E0
1.618219067E0,1.492523074E0,9.349655151E0,2.243869543E0
1.620627296E0,1.442273855E0,9.349655151E0,2.313560486E0
1.623035525E0,1.497308731E0,9.325727463E0,2.380559444E0
1.625442921E0,1.573879123E0,9.332905769E0,2.445165634E0
1.627850369E0,1.621735573E0,9.311369896E0,2.454736948E0
1.630258650E0,1.660319805E0,9.308977127E0,2.512164593E0
1.632666879E0,1.700997829E0,9.256035805E0,2.550449848E0
1.635074275E0,1.724925995E0,9.253643036E0,2.593520641E0
1.637481723E0,1.722533226E0,9.246464729E0,2.643769979E0
1.639889952E0,1.698604941E0,9.227322578E0,2.722733021E0
1.642298181E0,1.691426516E0,9.196215630E0,2.792124987E0
1.644705629E0,1.691426516E0,9.201001167E0,2.847159863E0
1.647113077E0,1.662712693E0,9.193822861E0,2.878565550E0
1.649521306E0,1.715354681E0,9.208179474E0,2.859423161E0
1.651929535E0,1.739282966E0,9.198608398E0,2.864208698E0
1.654336931E0,1.796710730E0,9.177073479E0,2.849552631E0
1.656744379E0,1.849352837E0,9.150752068E0,2.830410004E0
1.659152660E0,1.846959949E0,9.129216194E0,2.725125790E0
1.661560890E0,1.875673890E0,9.107681274E0,2.662912607E0
1.663968285E0,1.892423630E0,9.074181557E0,2.593520641E0
1.666375733E0,1.899602056E0,9.088538170E0,2.507379055E0
1.668783962E0,1.904387712E0,9.100502968E0,2.430808783E0
1.671192192E0,1.906780601E0,9.117252350E0,2.366202593E0
1.673599640E0,1.906780601E0,9.100502968E0,2.282154560E0
1.676007087E0,1.959422588E0,9.100502968E0,2.263011932E0
1.678415317E0,2.000100613E0,9.100502968E0,2.188834429E0
1.680823546E0,1.971386790E0,9.129216194E0,2.172084808E0
1.683230942E0,1.988136530E0,9.169894218E0,2.143370867E0
1.685638390E0,2.002493382E0,9.212965012E0,2.152942181E0
1.688046671E0,2.007279158E0,9.261120796E0,2.117049932E0
1.690454900E0,2.052742720E0,9.347262383E0,2.138585329E0
1.692862296E0,2.079063892E0,9.414261818E0,2.136192322E0
1.695269744E0,2.021636009E0,9.474081993E0,2.162513494E0
1.697678025E0,1.992922187E0,9.543474197E0,2.102692842E0
1.700086202E0,1.973779559E0,9.620044708E0,2.081157446E0
1.702493650E0,1.937887192E0,9.672686577E0,2.064407825E0
1.704901098E0,1.846959949E0,9.746864319E0,2.009372711E0
1.707309327E0,1.789532185E0,9.792327881E0,1.997408748E0
1.709717556E0,1.767996788E0,9.842875481E0,1.937588096E0
1.712124952E0,1.734497309E0,9.890732765E0,1.923231244E0
1.714532400E0,1.655534148E0,9.938589096E0,1.901695848E0
1.716940681E0,1.614557028E0,9.969695091E0,1.880160451E0
1.719348910E0,1.566700578E0,9.974481583E0,1.865803480E0
1.721756306E0,1.516451359E0,9.988838196E0,1.865803480E0
1.724163754E0,1.494915962E0,9.960124016E0,1.839482427E0
1.726572035E0,1.449452281E0,9.969695091E0,1.827518344E0
1.728980212E0,1.425524116E0,9.948160172E0,1.827518344E0
1.731387660E0,1.411167145E0,9.907482147E0,1.858624935E0
1.733795108E0,1.399203062E0,9.897911072E0,1.837089539E0
1.736203337E0,1.387238979E0,9.854840279E0,1.820339799E0
1.738611567E0,1.363310695E0,9.830911636E0,1.777269006E0
1.741018962E0,1.310668588E0,9.821340561E0,1.801197290E0
1.743426410E0,1.310668588E0,9.773184776E0,1.779661894E0
1.745834692E0,1.277169108E0,9.734899521E0,1.774876237E0
1.748242921E0,1.277169108E0,9.672686577E0,1.767697692E0
1.750650317E0,1.296311617E0,9.629615784E0,1.774876237E0
1.753057765E0,1.293918848E0,9.576973915E0,1.810768485E0
1.755466046E0,1.289133191E0,9.536295891E0,1.815554142E0
1.757874223E0,1.303490162E0,9.493225098E0,1.839482427E0
1.760281671E0,1.291526079E0,9.452547073E0,1.877767563E0
1.762689119E0,1.298704505E0,9.414261818E0,1.889731646E0
1.765097348E0,1.286740422E0,9.347262383E0,1.932802439E0
1.767505577E0,1.281954765E0,9.311369896E0,1.947159410E0
1.769912973E0,1.320239902E0,9.265906334E0,1.995015860E0
1.772320421E0,1.305882931E0,9.222537041E0,2.004587173E0
1.774728702E0,1.341775298E0,9.162715912E0,2.040479422E0
1.777136931E0,1.329811215E0,9.145966530E0,2.088335991E0
1.779544327E0,1.358525038E0,9.112466812E0,2.112264156E0
1.781951775E0,1.298704505E0,9.114859581E0,2.136192322E0
1.784360004E0,1.272383451E0,9.110074043E0,2.131406784E0
1.786768233E0,1.246062398E0,9.117252350E0,2.155334949E0
1.789175681E0,1.267597795E0,9.102895737E0,2.162513494E0
1.791583129E0,1.226919770E0,9.110074043E0,2.176870346E0
1.793991358E0,1.246062398E0,9.129216194E0,2.188834429E0
1.796399587E0,1.226919770E0,9.102895737E0,2.193620205E0
1.798806983E0,1.246062398E0,9.143573761E0,2.193620205E0
1.801214431E0,1.243669510E0,9.169894218E0,2.210369825E0
1.803622712E0,1.217348576E0,9.167501450E0,2.212762833E0
1.806030942E0,1.217348576E0,9.191430092E0,2.217548370E0
1.808438337E0,1.248455167E0,9.205786705E0,2.207977057E0
1.810845785E0,1.238883972E0,9.261120796E0,2.176870346E0
1.813254015E0,1.253240824E0,9.280263901E0,2.193620205E0
1.815662244E0,1.279561877E0,9.297013283E0,2.219941139E0
1.818069692E0,1.293918848E0,9.304191589E0,2.227119684E0
1.820477140E0,1.310668588E0,9.335298538E0,2.253440619E0
1.822885369E0,1.334596872E0,9.373583794E0,2.265404940E0
1.825293598E0,1.317847013E0,9.380762100E0,2.296511650E0
1.827700994E0,1.370489120E0,9.407083511E0,2.315953255E0
1.830108442E0,1.387238979E0,9.421440125E0,2.323131800E0
1.832516723E0,1.423131227E0,9.433403969E0,2.323131800E0
1.834924900E0,1.430309772E0,9.438189507E0,2.359024048E0
1.837332348E0,1.430309772E0,9.440582275E0,2.375773668E0
1.839739796E0,1.444666624E0,9.464510918E0,2.385344982E0
1.842148025E0,1.459023595E0,9.454939842E0,2.404487610E0
1.844556254E0,1.468594909E0,9.474081993E0,2.421237469E0
1.846963702E0,1.459023595E0,9.486045837E0,2.433201551E0
1.849371150E0,1.451845169E0,9.498010635E0,2.433201551E0
1.851779379E0,1.449452281E0,9.505188942E0,2.414058924E0
1.854187608E0,1.442273855E0,9.548259735E0,2.406880379E0
1.856595004E0,1.490130305E0,9.557830811E0,2.404487610E0
1.859002452E0,1.482951880E0,9.553045273E0,2.397309303E0
1.861410733E0,1.523629785E0,9.567401886E0,2.409273386E0
1.863818910E0,1.530808330E0,9.581759453E0,2.418844700E0
1.866226358E0,1.564307809E0,9.596116066E0,2.423630238E0
1.868633806E0,1.597807288E0,9.598508835E0,2.428415775E0
1.871042035E0,1.612164259E0,9.620044708E0,2.442772865E0
1.873450265E0,1.619342685E0,9.620044708E0,2.449951172E0
1.875857660E0,1.672283888E0,9.624830246E0,2.447558403E0
1.878265108E0,1.698604941E0,9.603294373E0,2.437987089E0
1.880673390E0,1.727318883E0,9.603294373E0,2.445165634E0
1.883081619E0,1.789532185E0,9.605687141E0,2.440380096E0
1.885489015E0,1.820638895E0,9.586544991E0,2.430808783E0
1.887896462E0,1.863709688E0,9.598508835E0,2.418844700E0
1.890304744E0,1.906780601E0,9.579366684E0,2.433201551E0
1.892712921E0,1.976172447E0,9.572187424E0,2.411666155E0
1.895120369E0,1.997707844E0,9.536295891E0,2.399702072E0
1.897527817E0,2.055135489E0,9.519545555E0,2.399702072E0
1.899936046E0,2.088634968E0,9.512367249E0,2.378166676E0
1.902344275E0,2.091027975E0,9.502796173E0,2.392523527E0
1.904751671E0,2.150848389E0,9.471689224E0,2.354238272E0
1.907159119E0,2.191825628E0,9.433403969E0,2.313560486E0
1.909567400E0,2.218146563E0,9.433403969E0,2.303989172E0
1.911975629E0,2.256431818E0,9.395118713E0,2.313560486E0
1.914383025E0,2.275574446E0,9.371191025E0,2.313560486E0
1.916790473E0,2.289931297E0,9.375976562E0,2.267797709E0
1.919198702E0,2.287538528E0,9.375976562E0,2.241476536E0
1.921606931E0,2.318645239E0,9.366405487E0,2.224726915E0
1.924014379E0,2.294716835E0,9.375976562E0,2.186441660E0
1.926421827E0,2.246860504E0,9.383154869E0,2.155334949E0
1.928830056E0,2.256431818E0,9.407083511E0,2.121835470E0
1.931238285E0,2.201396942E0,9.428618431E0,2.109871387E0
1.933645681E0,2.169991016E0,9.454939842E0,2.093121529E0
1.936053129E0,2.138884306E0,9.474081993E0,2.052443504E0
1.938461410E0,2.093420744E0,9.476474762E0,2.030908108E0
1.940869587E0,2.057528257E0,9.514760017E0,1.990230203E0
1.943277035E0,1.992922187E0,9.498010635E0,1.997408748E0
1.945684483E0,1.980958104E0,9.529116631E0,2.006979942E0
1.948092712E0,1.925923109E0,9.531510353E0,1.954337835E0
1.950500942E0,1.894816399E0,9.533903122E0,1.966302037E0
1.952908337E0,1.904387712E0,9.541081429E0,1.985444546E0
1.955315785E0,1.878066659E0,9.541081429E0,1.973480463E0
1.957724067E0,1.897209287E0,9.555438042E0,1.975873351E0
1.960132296E0,1.949851394E0,9.502796173E0,1.980658889E0
1.962539692E0,1.990529299E0,9.490832329E0,1.999801517E0
1.964947140E0,2.016850471E0,9.490832329E0,1.999801517E0
1.967355369E0,2.062314034E0,9.493225098E0,2.052443504E0
1.969763598E0,2.019243240E0,9.481260300E0,2.066800594E0
1.972171046E0,2.050349951E0,9.519545555E0,2.112264156E0
1.974578494E0,2.071885347E0,9.526723862E0,2.145763636E0
1.976986723E0,2.119741678E0,9.521938324E0,2.191227436E0
1.979394952E0,2.148455620E0,9.517152786E0,2.241476536E0
1.981802348E0,2.169991016E0,9.505188942E0,2.291725874E0
1.984209796E0,2.225325108E0,9.507581711E0,2.337488651E0
1.986618077E0,2.249253273E0,9.512367249E0,2.378166676E0
1.989026254E0,2.318645239E0,9.500403404E0,2.399702072E0
1.991433702E0,2.366501570E0,9.500403404E0,2.430808783E0
1.993841150E0,2.392822742E0,9.481260300E0,2.464308262E0
1.996249379E0,2.426322222E0,9.464510918E0,2.485843658E0
1.998657608E0,2.445464849E0,9.440582275E0,2.457129717E0
2.001065004E0,2.490928411E0,9.428618431E0,2.500200510E0
2.003472452E0,2.488535643E0,9.423832893E0,2.485843658E0
2.005880733E0,2.500499725E0,9.411869049E0,2.512164593E0
2.008288962E0,2.510071039E0,9.378369331E0,2.490629196E0
2.010696358E0,2.493321180E0,9.366405487E0,2.493022203E0
2.013103806E0,2.522035122E0,9.359226227E0,2.481057882E0
2.015512035E0,2.510071039E0,9.364012718E0,2.483450890E0
2.017920265E0,2.486142635E0,9.373583794E0,2.464308262E0
2.020327712E0,2.500499725E0,9.364012718E0,2.461915493E0
2.022735160E0,2.493321180E0,9.366405487E0,2.464308262E0
2.025143390E0,2.481357098E0,9.356833458E0,2.473879576E0
2.027551619E0,2.471785784E0,9.354440689E0,2.461915493E0
2.029959015E0,2.462214470E0,9.325727463E0,2.461915493E0
2.032366462E0,2.459821701E0,9.318549156E0,2.452344179E0
2.034774744E0,2.464607239E0,9.282656670E0,2.433201551E0
2.037182921E0,2.488535643E0,9.277871132E0,2.459522486E0
2.039590369E0,2.548356056E0,9.263513565E0,2.399702072E0
2.041997817E0,2.584248543E0,9.239286423E0,2.406880379E0
2.044406046E0,2.634497643E0,9.215357780E0,2.404487610E0
2.046814275E0,2.682354212E0,9.189037323E0,2.406880379E0
2.049221671E0,2.761616468E0,9.143573761E0,2.397309303E0
2.051629119E0,2.802294493E0,9.129216194E0,2.426023006E0
2.054037400E0,2.869293451E0,9.122037888E0,2.397309303E0
2.056445629E0,2.924328327E0,9.098110199E0,2.433201551E0
2.058853025E0,2.991327524E0,9.105288506E0,2.430808783E0
2.061260473E0,3.022433996E0,9.093324661E0,2.466701031E0
2.063668702E0,3.082254648E0,9.081359863E0,2.509771824E0
2.066076931E0,3.142075300E0,9.081359863E0,2.531307220E0
2.068484379E0,3.189931631E0,9.098110199E0,2.564806700E0
2.070891827E0,3.261716366E0,9.100502968E0,2.600699186E0
2.073300056E0,3.309572935E0,9.098110199E0,2.610270500E0
2.075708285E0,3.350549936E0,9.102895737E0,2.660519600E0
2.078115681E0,3.379263878E0,9.107681274E0,2.701197624E0
2.080523129E0,3.388834953E0,9.090931892E0,2.737090111E0
2.082931358E0,3.422334671E0,9.081359863E0,2.770589590E0
2.085339587E0,3.451048374E0,9.102895737E0,2.784946442E0
2.087747035E0,3.479762316E0,9.074181557E0,2.801696301E0
2.090154483E0,3.474976778E0,9.057432175E0,2.825624466E0
2.092562712E0,3.498904943E0,9.047860146E0,2.859423161E0
2.094970942E0,3.506083488E0,9.047860146E0,2.868994236E0
2.097378337E0,3.525225878E0,9.040681839E0,2.866601467E0
2.099785785E0,3.510869026E0,9.055039406E0,2.866601467E0
2.102194067E0,3.484548092E0,9.047860146E0,2.888136864E0
2.104602244E0,3.451048374E0,9.076574326E0,2.907279491E0
2.107009692E0,3.477369547E0,9.071788788E0,2.871387243E0
2.109417140E0,3.474976778E0,9.074181557E0,2.888136864E0
2.111825369E0,3.441477060E0,9.074181557E0,2.897708178E0
2.114233598E0,3.403192043E0,9.124430656E0,2.950350285E0
2.116640994E0,3.355335474E0,9.124430656E0,2.974278450E0
2.119048442E0,3.329014540E0,9.143573761E0,2.986242771E0
2.121456723E0,3.276073217E0,9.150752068E0,3.012563705E0
2.123864952E0,3.252145052E0,9.160323143E0,3.024527788E0
2.126272348E0,3.221038342E0,9.165108681E0,3.062813044E0
2.128679796E0,3.154039383E0,9.193822861E0,3.067598581E0
2.131088025E0,3.087040424E0,9.208179474E0,3.062813044E0
2.133496254E0,2.984148979E0,9.232108116E0,3.050848961E0
2.135903650E0,2.909971476E0,9.253643036E0,3.053241730E0
2.138311098E0,2.790330410E0,9.263513565E0,3.012563705E0
2.140719379E0,2.708675146E0,9.308977127E0,3.005385160E0
2.143127608E0,2.605783939E0,9.316155434E0,2.964707375E0
2.145535004E0,2.524427891E0,9.354440689E0,2.916850805E0
2.147942452E0,2.426322222E0,9.373583794E0,2.885744095E0
2.150350681E0,2.318645239E0,9.392725945E0,2.835195780E0
2.152758910E0,2.237289190E0,9.407083511E0,2.770589590E0
2.155166358E0,2.155634165E0,9.450154305E0,2.701197624E0
2.157573806E0,2.031207323E0,9.483653069E0,2.588735104E0
2.159982035E0,1.894816399E0,9.565009117E0,2.476272345E0
2.162390265E0,1.734497309E0,9.615258217E0,2.368595362E0
2.164797660E0,1.554736495E0,9.720542908E0,2.231905222E0
2.167205108E0,1.353739381E0,9.821340561E0,2.076371908E0
2.169613337E0,1.116850019E0,9.945767403E0,1.942373753E0
2.172021567E0,9.179465771E-1,1.003908730E1,1.801197290E0
2.174429015E0,6.954140663E-1,1.015633583E1,1.652543187E0
2.176836462E0,5.063810945E-1,1.024247742E1,1.535294771E0
2.179244692E0,3.385843933E-1,1.032144070E1,1.430010676E0
2.181652921E0,1.902294010E-1,1.038634586E1,1.341476202E0
2.184060317E0,3.230310604E-2,1.043659496E1,1.252941728E0
2.186467765E0,-9.720841795E-2,1.046530914E1,1.226620674E0
2.188876046E0,-2.335993052E-1,1.051316547E1,1.176371455E0
2.191284223E0,-3.795614839E-1,1.056580734E1,1.144965649E0
2.193691671E0,-4.800600410E-1,1.055862904E1,1.089930773E0
2.196099119E0,-5.997011662E-1,1.056580734E1,1.066002488E0
2.198507348E0,-6.741777658E-1,1.057059288E1,1.039681435E0
2.200915577E0,-7.698906660E-1,1.055384350E1,9.774680734E-1
2.203322973E0,-8.488538265E-1,1.053470039E1,9.559326172E-1
2.205730421E0,-9.349954724E-1,1.052034378E1,8.721838593E-1
2.208138702E0,-9.708877802E-1,1.048205853E1,8.458628058E-1
2.210546879E0,-1.035493970E0,1.045573807E1,7.501499057E-1
2.212954327E0,-1.049850941E0,1.044138050E1,7.166503668E-1
2.215361775E0,-1.016351461E0,1.041745281E1,6.448656917E-1
2.217770004E0,-1.016351461E0,1.042463112E1,5.895316601E-1
2.220178233E0,-9.661021233E-1,1.039830971E1,5.177469850E-1
2.222585629E0,-8.512466550E-1,1.034776115E1,4.698905349E-1
2.224993077E0,-7.507480979E-1,1.034536839E1,3.933202326E-1
2.227401358E0,-6.717849374E-1,1.033579731E1,3.861417472E-1
2.229809587E0,-5.614160299E-1,1.029272652E1,3.478565812E-1
2.232216983E0,-4.872384965E-1,1.026161957E1,2.952145040E-1
2.234624431E0,-3.628117442E-1,1.023051357E1,2.880360186E-1
2.237032660E0,-2.527419031E-1,1.015872860E1,2.928216755E-1
2.239440890E0,-1.522433460E-1,1.007976532E1,2.808575630E-1
2.241848285E0,-4.905286431E-2,1.000558758E1,3.119642437E-1
2.244255733E0,6.580262631E-2,9.943374634E0,3.263211846E-1
2.246664015E0,1.926222295E-1,9.866804123E0,3.430709541E-1
2.249072244E0,3.242274821E-1,9.780363083E0,3.574278951E-1
2.251479640E0,4.390829504E-1,9.720542908E0,3.933202326E-1
2.253887087E0,5.494518876E-1,9.629615784E0,4.052843451E-1
2.256295317E0,6.810571551E-1,9.550652504E0,4.316053987E-1
2.258703546E0,8.150551915E-1,9.500403404E0,4.627120793E-1
2.261110942E0,9.323035479E-1,9.466903687E0,4.698905349E-1
2.263518390E0,1.071386337E0,9.402297020E0,4.818546474E-1
2.265926671E0,1.202991605E0,9.361619949E0,4.268197417E-1
2.268334900E0,1.325025558E0,9.287442207E0,3.909274042E-1
2.270742296E0,1.487737536E0,9.253643036E0,3.406781256E-1
2.273149744E0,1.602592945E0,9.191430092E0,2.736790776E-1
2.275557973E0,1.712961912E0,9.174679756E0,2.234298140E-1
2.277966202E0,1.837388635E0,9.129216194E0,1.229312643E-1
2.280373650E0,1.980958104E0,9.088538170E0,2.991028363E-3
2.282781098E0,2.067099571E0,9.057432175E0,-1.046859920E-1
2.285189327E0,2.181955099E0,9.014361382E0,-2.219343036E-1
2.287597556E0,2.270788670E0,8.959325790E0,-3.296113312E-1
2.290004952E0,2.340180635E0,8.909076691E0,-4.875376225E-1
2.292412400E0,2.397608280E0,8.854042053E0,-5.979065299E-1
2.294820629E0,2.438286304E0,8.772686005E0,-7.223333120E-1
2.297228858E0,2.440679073E0,8.710473061E0,-8.539385796E-1
2.299636306E0,2.426322222E0,8.635995865E0,-9.855438471E-1
2.302043754E0,2.423929453E0,8.564210892E0,-1.074377418E0
2.304451983E0,2.368894339E0,8.480463028E0,-1.155733347E0
2.306860212E0,2.304288149E0,8.391927719E0,-1.182054400E0
2.309267608E0,2.184347868E0,8.346464157E0,-1.213161111E0
2.311675056E0,2.067099571E0,8.293822289E0,-1.210768223E0
2.314083285E0,1.971386790E0,8.217251778E0,-1.210768223E0
2.316491515E0,1.839781523E0,8.155038834E0,-1.194018483E0
2.318898910E0,1.722533226E0,8.116454124E0,-1.138983607E0
2.321306358E0,1.614557028E0,8.066205025E0,-1.083948612E0
2.323714640E0,1.473380566E0,8.025527000E0,-1.045364380E0
2.326122869E0,1.358525038E0,8.044670105E0,-9.616156220E-1
2.328530265E0,1.212562919E0,8.039883614E0,-8.898309469E-1
2.330937712E0,1.104885817E0,8.087740898E0,-8.180462122E-1
2.333345942E0,9.658030272E-1,8.116454124E0,-7.103692293E-1
2.335754171E0,9.035896659E-1,8.181359291E0,-5.955137610E-1
2.338161619E0,7.839485407E-1,8.236394882E0,-4.875376225E-1
2.340569067E0,6.930212379E-1,8.336893082E0,-3.343969584E-1
2.342977296E0,5.853442550E-1,8.446963310E0,-2.003988922E-1
2.345385525E0,4.582255483E-1,8.571390152E0,-5.682953820E-2
2.347792921E0,3.050848842E-1,8.743971825E0,8.464609832E-2
2.350200369E0,1.734796464E-1,8.894720078E0,2.162513435E-1
2.352608598E0,5.623133108E-2,9.059824944E0,3.406781256E-1
2.355016827E0,-9.720841795E-2,9.280263901E0,4.268197417E-1
2.357424275E0,-2.431706041E-1,9.498010635E0,5.105685592E-1
2.359831723E0,-4.298107624E-1,9.737292290E0,6.038886309E-1
2.362239952E0,-6.933203340E-1,1.001755238E1,6.616154313E-1
2.364648181E0,-1.004387259E0,1.033579731E1,7.334001660E-1
2.367055577E0,-1.404287815E0,1.062802124E1,7.357929349E-1
2.369463025E0,-1.765903115E0,1.092473125E1,6.903293133E-1
2.371871254E0,-2.043470621E0,1.118824005E1,6.759724021E-1
2.374279483E0,-2.239681959E0,1.140359497E1,7.429714203E-1
2.376686931E0,-2.407478571E0,1.153549862E1,8.075776696E-1
2.379094379E0,-2.479263306E0,1.164078331E1,7.980063558E-1
2.381502608E0,-2.503191471E0,1.171974659E1,8.338986635E-1
2.383910837E0,-2.448156595E0,1.172931767E1,9.032905698E-1
2.386318233E0,-2.328515530E0,1.166231823E1,9.367900491E-1
2.388725681E0,-2.134397745E0,1.154985619E1,9.942178130E-1
2.391133910E0,-1.899901152E0,1.143948650E1,1.010967612E0
2.393542140E0,-1.629213095E0,1.128873920E1,9.822536707E-1
2.395949587E0,-1.337288737E0,1.111167049E1,9.487541914E-1
2.398357035E0,-1.016351461E0,1.092712402E1,9.104689956E-1
2.400765265E0,-7.268198729E-1,1.068305588E1,8.458628058E-1
2.403173494E0,-3.723830283E-1,1.044138050E1,7.525427341E-1
2.405580890E0,-8.763712645E-2,1.026879883E1,5.991029739E-1
2.407988337E0,6.340979785E-2,1.017787075E1,4.292125702E-1
2.410396619E0,2.380858511E-1,1.007019424E1,2.736790776E-1
2.412804796E0,3.625126183E-1,1.001994514E1,1.612164229E-1
2.415212244E0,4.342973232E-1,1.001994514E1,1.061815023E-1
2.417619692E0,5.036891699E-1,9.998409271E0,4.366901144E-2
2.420027921E0,6.068796515E-1,1.000319481E1,1.495514158E-2
2.422436150E0,6.762714982E-1,1.000080204E1,-1.136590727E-2
2.424843546E0,7.743772268E-1,9.998409271E0,-5.682953820E-2
2.427250994E0,8.820542693E-1,1.002233791E1,-8.793623000E-2
2.429659223E0,9.562317729E-1,1.004387283E1,-6.879365444E-2
2.432067452E0,1.006481051E0,9.986445427E0,-1.854437590E-2
2.434474848E0,1.044766188E0,1.000080204E1,3.888336942E-2
2.436882296E0,1.047158957E0,1.001037312E1,5.832505226E-2
2.439290577E0,1.035194874E0,1.002233791E1,8.703892678E-2
2.441698806E0,1.023230791E0,1.002233791E1,1.253240854E-1
2.444106202E0,9.993025661E-1,9.993623734E0,1.492523104E-1
2.446513650E0,9.897312522E-1,9.984052658E0,1.995015889E-1
2.448921879E0,1.001695395E0,9.960124016E0,2.018944174E-1
2.451330108E0,9.945169091E-1,9.940981865E0,1.827518344E-1
2.453737504E0,1.030409217E0,9.919445992E0,2.928216755E-1
2.456144952E0,9.777671695E-1,9.900303841E0,3.143570721E-1
2.458553233E0,1.143171072E0,9.696614265E0,3.765704632E-1
2.460961462E0,1.301097274E0,9.500403404E0,4.387838542E-1
2.463368858E0,1.485344648E0,9.344869614E0,5.464608669E-1
2.465776306E0,1.559522152E0,9.297013283E0,5.991029739E-1
2.468184535E0,1.607378602E0,9.332905769E0,7.262216806E-1
2.470592765E0,1.554736495E0,9.354440689E0,8.027920127E-1
2.473000212E0,1.506880045E0,9.364012718E0,9.080761671E-1
2.475407660E0,1.492523074E0,9.361619949E0,9.942178130E-1
2.477815890E0,1.466202021E0,9.325727463E0,1.068395257E0
2.480224119E0,1.466202021E0,9.316155434E0,1.159322619E0
2.482631515E0,1.380060434E0,9.308977127E0,1.217049360E0
2.485038962E0,1.272383451E0,9.361619949E0,1.238584876E0
2.487447192E0,1.143171072E0,9.354440689E0,1.260120273E0
2.489855421E0,1.004088163E0,9.392725945E0,1.346261859E0
2.492262817E0,9.299107194E-1,9.397511482E0,1.413260818E0
2.494670265E0,8.700901270E-1,9.447761536E0,1.532902002E0
2.497078546E0,8.270193338E-1,9.445367813E0,1.676471353E0
2.499486775E0,7.935197949E-1,9.483653069E0,1.810768485E0
2.501894171E0,8.054839373E-1,9.502796173E0,1.947159410E0
2.504301619E0,7.600203156E-1,9.507581711E0,2.038086653E0
2.506709848E0,7.767700553E-1,9.550652504E0,2.140978098E0
2.509118077E0,7.624131441E-1,9.581759453E0,2.234298229E0
2.511525473E0,7.528418303E-1,9.655936241E0,2.291725874E0
2.513932921E0,7.600203156E-1,9.682257652E0,2.294118643E0
2.516341202E0,7.432705164E-1,9.751649857E0,2.284547329E0
2.518749379E0,6.930212379E-1,9.821340561E0,2.289333105E0
2.521156827E0,5.949155092E-1,9.885947227E0,2.308774710E0
2.523564275E0,5.036891699E-1,9.921838760E0,2.303989172E0
2.525972504E0,4.390829504E-1,9.936196327E0,2.303989172E0
2.528380733E0,4.223332107E-1,9.938589096E0,2.274976015E0
2.530788129E0,4.271188378E-1,9.924231529E0,2.260619164E0
2.533195577E0,4.989035130E-1,9.850054741E0,2.217548370E0
2.535603858E0,5.518447161E-1,9.842875481E0,2.186441660E0
2.538012035E0,6.020939946E-1,9.826126099E0,2.100300074E0
2.540419483E0,6.690930128E-1,9.780363083E0,2.040479422E0
2.542826931E0,7.121638656E-1,9.751649857E0,2.016551256E0
2.545235160E0,7.145566344E-1,9.739685059E0,1.956730723E0
2.547643390E0,7.073782086E-1,9.754042625E0,1.932802439E0
2.550050785E0,6.475576162E-1,9.725328445E0,1.877767563E0
2.552458233E0,6.116653085E-1,9.739685059E0,1.846660852E0
2.554866462E0,5.494518876E-1,9.727721214E0,1.805982947E0
2.557274692E0,4.630111754E-1,9.785149574E0,1.765304923E0
2.559682140E0,4.079762697E-1,9.782755852E0,1.767697692E0
2.562089587E0,3.433700502E-1,9.821340561E0,1.712363720E0
2.564497817E0,2.452643216E-1,9.830911636E0,1.671685696E0
2.566906046E0,1.591227055E-1,9.842875481E0,1.642971873E0
2.569313442E0,7.776673883E-2,9.900303841E0,1.623829246E0
2.571720890E0,3.589233849E-3,9.900303841E0,1.607079506E0
2.574129119E0,-4.666004330E-2,9.929018021E0,1.564008713E0
2.576537348E0,-1.354935765E-1,9.957731247E0,1.537687659E0
2.578944744E0,-1.929213256E-1,9.952945709E0,1.513759375E0
2.581352192E0,-2.216351926E-1,9.976874352E0,1.520937920E0
2.583760473E0,-2.575275302E-1,9.960124016E0,1.504188180E0
2.586168702E0,-2.694916427E-1,9.979267120E0,1.520937920E0
2.588576098E0,-2.599203587E-1,9.964909554E0,1.552044630E0
2.590983546E0,-2.766701281E-1,9.962516785E0,1.568794370E0
2.593391775E0,-2.670988142E-1,9.943374634E0,1.604686737E0
2.595800004E0,-2.982055247E-1,9.938589096E0,1.650150299E0
2.598207400E0,-2.599203587E-1,9.914660454E0,1.686042666E0
2.600614848E0,-2.503490746E-1,9.854840279E0,1.741376638E0
2.603023129E0,-2.479562461E-1,9.830911636E0,1.798804402E0
2.605431306E0,-2.024926096E-1,9.792327881E0,1.856232166E0
2.607838754E0,-1.977069676E-1,9.725328445E0,1.928016901E0
2.610246202E0,-2.072782665E-1,9.677472115E0,1.997408748E0
2.612654431E0,-2.288136631E-1,9.639186859E0,2.095514536E0
2.615062660E0,-2.359921336E-1,9.608079910E0,2.193620205E0
2.617470056E0,-2.264208496E-1,9.538688660E0,2.301596165E0
2.619877504E0,-2.694916427E-1,9.478867531E0,2.385344982E0
2.622285785E0,-2.958126962E-1,9.409476280E0,2.497807741E0
2.624693962E0,-3.125624657E-1,9.364012718E0,2.557628393E0
2.627101410E0,-3.340978622E-1,9.306584358E0,2.643769979E0
2.629508858E0,-3.508476317E-1,9.232108116E0,2.739482880E0
2.631917087E0,-3.843471408E-1,9.189037323E0,2.818445921E0
2.634325317E0,-4.226323068E-1,9.181859016E0,2.890529871E0
2.636732712E0,-4.944169819E-1,9.145966530E0,2.962314367E0
2.639140160E0,-5.662016869E-1,9.107681274E0,3.067598581E0
2.641548390E0,-6.454638839E-1,9.081359863E0,3.105883837E0
2.643956619E0,-6.837490797E-1,9.050253868E0,3.175275564E0
2.646364067E0,-7.914260626E-1,9.007183075E0,3.223132133E0
2.648771515E0,-8.703892231E-1,8.966505051E0,3.285345554E0
2.651179744E0,-9.421738982E-1,8.942576408E0,3.299702406E0
2.653587973E0,-9.948160052E-1,8.928219795E0,3.347558975E0
2.655995369E0,-1.035493970E0,8.894720078E0,3.318845034E0
2.658402817E0,-1.061815023E0,8.815756798E0,3.278167009E0
2.660811046E0,-1.080957651E0,8.755936623E0,3.282952785E0
2.663219275E0,-1.076171994E0,8.717651367E0,3.268595695E0
2.665626671E0,-1.100100160E0,8.679066658E0,3.218346357E0
2.668034119E0,-1.128814101E0,8.624032021E0,3.175275564E0
2.670442400E0,-1.181755304E0,8.580961227E0,3.113062143E0
2.672850629E0,-1.188933730E0,8.554639816E0,3.072384357E0
2.675258025E0,-1.210469127E0,8.537890434E0,3.060420275E0
2.677665473E0,-1.263111234E0,8.494819641E0,3.081955671E0
2.680073702E0,-1.308574915E0,8.475676537E0,3.055634499E0
2.682481931E0,-1.322931767E0,8.434998512E0,3.101098061E0
2.684889327E0,-1.351645708E0,8.411070824E0,3.103491068E0
2.687296775E0,-1.387538075E0,8.348856926E0,3.122633457E0
2.689705056E0,-1.428215981E0,8.298607826E0,3.194418192E0
2.692113233E0,-1.476072431E0,8.260322571E0,3.239881754E0
2.694520681E0,-1.511964798E0,8.222037315E0,3.282952785E0
2.696928129E0,-1.552642822E0,8.155038834E0,3.292523861E0
2.699336358E0,-1.607677698E0,8.104490280E0,3.333201885E0
2.701744587E0,-1.667498231E0,8.061419487E0,3.357130051E0
2.704151983E0,-1.724925995E0,8.015955925E0,3.383451223E0
2.706559431E0,-1.811366796E0,7.965706348E0,3.400201082E0
2.708967660E0,-1.849651933E0,7.922635555E0,3.436392307E0
2.711375890E0,-1.926222205E0,7.874779224E0,3.481856108E0
2.713783285E0,-1.950150490E0,7.831708431E0,3.529712439E0
2.716190733E0,-2.005185366E0,7.779066563E0,3.532105207E0
2.718599015E0,-2.060220242E0,7.752745152E0,3.541676521E0
2.721007244E0,-2.108076811E0,7.712067604E0,3.572783232E0
2.723414640E0,-2.146361828E0,7.700103283E0,3.601497173E0
2.725822087E0,-2.160718918E0,7.683353424E0,3.599104404E0
2.728230317E0,-2.187039852E0,7.676175117E0,3.608675718E0
2.730638546E0,-2.254039049E0,7.673782349E0,3.596711636E0
2.733045942E0,-2.285145521E0,7.695317745E0,3.594318628E0
2.735453390E0,-2.328515530E0,7.707281590E0,3.623032570E0
2.737861671E0,-2.362015009E0,7.733603001E0,3.608675718E0
2.740269848E0,-2.381157637E0,7.771887779E0,3.618247032E0
2.742677296E0,-2.397907495E0,7.812565804E0,3.627818346E0
2.745084744E0,-2.395514488E0,7.843672752E0,3.623032570E0
2.747492973E0,-2.412264347E0,7.910671711E0,3.620639801E0
2.749901202E0,-2.426621199E0,7.944170952E0,3.649353743E0
2.752308598E0,-2.445763826E0,8.015955925E0,3.646960735E0
2.754716046E0,-2.484049082E0,8.075776100E0,3.668496132E0
2.757124275E0,-2.510370016E0,8.145467758E0,3.642175198E0
2.759532504E0,-2.541476727E0,8.205287933E0,3.587140322E0
2.761939952E0,-2.531905413E0,8.267500877E0,3.591925859E0
2.764347400E0,-2.536691189E0,8.324929237E0,3.606282711E0
2.766755629E0,-2.531905413E0,8.430212975E0,3.625425339E0
2.769163858E0,-2.541476727E0,8.501997948E0,3.670889139E0
2.771571254E0,-2.543869495E0,8.588139534E0,3.718745470E0
2.773978702E0,-2.548655272E0,8.664710045E0,3.721138239E0
2.776386931E0,-2.563012123E0,8.758329391E0,3.764209032E0
2.778795160E0,-2.579761982E0,8.825327873E0,3.745066643E0
2.781202556E0,-2.572583437E0,8.909076691E0,3.773780346E0
2.783610004E0,-2.586940289E0,8.952147484E0,3.747459412E0
2.786018285E0,-2.630011082E0,9.055039406E0,3.747459412E0
2.788426462E0,-2.637189627E0,9.131608963E0,3.704388618E0
2.790833910E0,-2.661117792E0,9.189037323E0,3.646960735E0
2.793241358E0,-2.665903568E0,9.222537041E0,3.623032570E0
2.795649587E0,-2.668296337E0,9.280263901E0,3.575176239E0
2.798057817E0,-2.682653189E0,9.313762665E0,3.524926901E0
2.800465212E0,-2.682653189E0,9.352047920E0,3.503391504E0
2.802872660E0,-2.682653189E0,9.383154869E0,3.469892025E0
2.805280890E0,-2.697010279E0,9.392725945E0,3.424428225E0
2.807689119E0,-2.682653189E0,9.380762100E0,3.385843992E0
2.810096515E0,-2.675474882E0,9.390333176E0,3.364308596E0
2.812503962E0,-2.675474882E0,9.387940407E0,3.352344513E0
2.814912244E0,-2.646760941E0,9.359226227E0,3.352344513E0
2.817320473E0,-2.637189627E0,9.340084076E0,3.364308596E0
2.819727869E0,-2.682653189E0,9.344869614E0,3.326023579E0
2.822135317E0,-2.689831734E0,9.316155434E0,3.318845034E0
2.824543546E0,-2.694617510E0,9.265906334E0,3.309273720E0
2.826951775E0,-2.692224503E0,9.196215630E0,3.302095175E0
2.829359171E0,-2.682653189E0,9.184251785E0,3.292523861E0
2.831766619E0,-2.685046196E0,9.141180992E0,3.261417150E0
2.834174900E0,-2.685046196E0,9.105288506E0,3.285345554E0
2.836583077E0,-2.682653189E0,9.055039406E0,3.244667530E0
2.838990525E0,-2.682653189E0,9.016754150E0,3.184846878E0
2.841397973E0,-2.677867651E0,8.995218277E0,3.132204771E0
2.843806202E0,-2.685046196E0,8.966505051E0,3.093919754E0
2.846214431E0,-2.673082113E0,8.913862228E0,3.053241730E0
2.848621827E0,-2.637189627E0,8.877969742E0,3.024527788E0
2.851029275E0,-2.615654230E0,8.849256516E0,2.998206854E0
2.853437504E0,-2.586940289E0,8.839685440E0,2.993421078E0
2.855845733E0,-2.548655272E0,8.799007416E0,2.979064226E0
2.858253129E0,-2.541476727E0,8.777471542E0,3.007778168E0
2.860660577E0,-2.491227388E0,8.751151085E0,3.022135019E0
2.863068858E0,-2.469691992E0,8.712865829E0,3.069991350E0
2.865477087E0,-2.407478571E0,8.691030502E0,3.077169895E0
2.867884483E0,-2.388336182E0,8.674281120E0,3.108276606E0
2.870291931E0,-2.412264347E0,8.655138969E0,3.129812002E0
2.872700160E0,-2.397907495E0,8.633603096E0,3.136990547E0
2.875108390E0,-2.390728951E0,8.616853714E0,3.165704250E0
2.877515785E0,-2.323729992E0,8.576175690E0,3.192025423E0
2.879923233E0,-2.244467735E0,8.552247047E0,3.256631613E0
2.882331515E0,-2.179861546E0,8.533104897E0,3.263810158E0
2.884739692E0,-2.148754835E0,8.511569023E0,3.239881754E0
2.887147140E0,-2.143969059E0,8.499605179E0,3.232703447E0
2.889554587E0,-2.124826431E0,8.482855797E0,3.177668571E0
2.891962817E0,-2.038684845E0,8.456534386E0,3.189632654E0
2.894371046E0,-1.974078655E0,8.442177773E0,3.263810158E0
2.896778442E0,-1.880758643E0,8.446963310E0,3.340380430E0
2.899185890E0,-1.830509305E0,8.461319923E0,3.409772158E0
2.901594119E0,-1.804188251E0,8.461319923E0,3.503391504E0
2.904002348E0,-1.761117458E0,8.487641335E0,3.560819149E0
2.906409744E0,-1.724925995E0,8.506783485E0,3.630211115E0
2.908817192E0,-1.710569143E0,8.530712128E0,3.663710594E0
2.911225473E0,-1.686640859E0,8.564210892E0,3.723531246E0
2.913633650E0,-1.667498231E0,8.564210892E0,3.752244949E0
2.916041098E0,-1.650748491E0,8.602496147E0,3.780958891E0
2.918448546E0,-1.617249012E0,8.609675407E0,3.768994808E0
2.920856775E0,-1.583749533E0,8.609675407E0,3.754637718E0
2.923265004E0,-1.528714538E0,8.624032021E0,3.690031528E0
2.925672400E0,-1.497607827E0,8.635995865E0,3.565604925E0
2.928079848E0,-1.449751377E0,8.631210327E0,3.493820190E0
2.930488077E0,-1.387538075E0,8.671888351E0,3.342773199E0
2.932896306E0,-1.334895968E0,8.693424225E0,3.199203968E0
2.935303702E0,-1.310967684E0,8.708079338E0,3.041277647E0
2.937711150E0,-1.241575837E0,8.782257080E0,2.871387243E0
2.940119431E0,-1.184148073E0,8.818149567E0,2.715554714E0
2.942527608E0,-1.138385415E0,8.868398666E0,2.536092997E0
2.944935056E0,-1.073779106E0,8.930612564E0,2.430808783E0
2.947342504E0,-1.035493970E0,9.038289070E0,2.301596165E0
2.949750733E0,-9.828519225E-1,9.110074043E0,2.160120726E0
2.952158962E0,-9.349954724E-1,9.222537041E0,2.073979139E0
2.954566358E0,-8.871390224E-1,9.325727463E0,2.016551256E0
2.956973806E0,-8.297112584E-1,9.442975044E0,1.930409670E0
2.959382035E0,-7.579265833E-1,9.509974480E0,1.904088616E0
2.961790265E0,-6.981059909E-1,9.608079910E0,1.884945989E0
2.964197660E0,-6.092724800E-1,9.679864883E0,1.899302959E0
2.966605108E0,-5.614160299E-1,9.792327881E0,1.937588096E0
2.969013390E0,-4.992026389E-1,9.869196892E0,1.956730723E0
2.971421567E0,-4.633102715E-1,9.991230965E0,1.983051777E0
2.973829015E0,-4.369892478E-1,1.011565781E1,2.028515339E0
2.976236462E0,-4.202394783E-1,1.026401234E1,2.057229280E0
2.978644692E0,-4.992026389E-1,1.038873863E1,2.066800594E0
2.981052921E0,-6.526423693E-1,1.055145073E1,1.999801517E0
2.983460317E0,-7.100701332E-1,1.069501972E1,1.983051777E0
2.985867765E0,-7.986045480E-1,1.085055351E1,1.918445587E0
2.988276046E0,-8.560323119E-1,1.092712402E1,1.925624013E0
2.990684223E0,-9.349954724E-1,1.102552891E1,1.906481385E0
2.993091619E0,-9.302098155E-1,1.111406326E1,1.889731646E0
2.995499067E0,-9.158528447E-1,1.117388344E1,1.884945989E0
2.997907348E0,-8.656035662E-1,1.120259762E1,1.846660852E0
3.000315577E0,-8.392825127E-1,1.121934700E1,1.815554142E0
3.002722973E0,-8.297112584E-1,1.122652531E1,1.777269006E0
3.005130421E0,-7.746763229E-1,1.119541931E1,1.738983870E0
3.007538650E0,-6.837490797E-1,1.115952682E1,1.702792406E0
3.009946879E0,-5.853442550E-1,1.111884880E1,1.642971873E0
3.012354275E0,-4.728815854E-1,1.103031445E1,1.573580027E0
3.014761723E0,-3.245265782E-1,1.093430233E1,1.518545032E0
3.017169952E0,-1.498505175E-1,1.079551888E1,1.482652783E0
3.019578181E0,8.015955985E-2,1.066630650E1,1.434796333E0
3.021985577E0,3.314059377E-1,1.049880886E1,1.396511078E0
3.024393025E0,6.379863620E-1,1.034297562E1,1.370190024E0
3.026801306E0,9.275178909E-1,1.018744278E1,1.319940805E0
3.029209535E0,1.176670551E0,1.004865837E1,1.288834095E0
3.031616931E0,1.368096352E0,9.945767403E0,1.312762380E0
3.034024379E0,1.511665702E0,9.847661972E0,1.248156071E0
3.036432608E0,1.677069545E0,9.758828163E0,1.209870934E0
3.038840837E0,1.830210209E0,9.655936241E0,1.168893814E0
3.041248233E0,2.007279158E0,9.529116631E0,1.142572761E0
3.043655681E0,2.143670082E0,9.407083511E0,1.106680512E0
3.046063962E0,2.270788670E0,9.342476845E0,1.077966571E0
3.048472140E0,2.435893536E0,9.232108116E0,1.030110121E0
3.050879535E0,2.586641312E0,9.090931892E0,1.006181955E0
3.053286983E0,2.744567633E0,8.990432739E0,1.001396298E0
3.055695265E0,2.895614386E0,8.894720078E0,1.056431174E0
3.058103494E0,3.051147938E0,8.827720642E0,1.137787223E0
3.060510890E0,3.189931631E0,8.775078773E0,1.209870934E0
3.062918337E0,3.326621771E0,8.712865829E0,1.317547917E0
3.065326567E0,3.436691523E0,8.710473061E0,1.458724499E0
3.067734796E0,3.503690481E0,8.736793518E0,1.604686737E0
3.070142192E0,3.553939819E0,8.770293236E0,1.789233088E0
3.072549640E0,3.544368505E0,8.820542336E0,2.011765718E0
3.074957921E0,3.458226919E0,8.947361946E0,2.255833626E0
3.077366098E0,3.317050457E0,9.098110199E0,2.504986286E0
3.079773494E0,3.177967548E0,9.294620514E0,2.701197624E0
3.082180942E0,3.072683334E0,9.387940407E0,2.909672260E0
3.084589223E0,3.089433193E0,9.378369331E0,3.136990547E0
3.086997452E0,3.103790045E0,9.383154869E0,3.361915827E0
3.089404848E0,3.139682293E0,9.378369331E0,3.584747314E0
3.091812296E0,3.144468069E0,9.387940407E0,3.768994808E0
3.094220525E0,3.087040424E0,9.407083511E0,3.977170229E0
3.096628754E0,2.998505831E0,9.433403969E0,4.166502476E0
3.099036150E0,2.948256493E0,9.464510918E0,4.353142738E0
3.101443598E0,2.921935558E0,9.490832329E0,4.511068821E0
3.103851879E0,2.926721096E0,9.509974480E0,4.662116051E0
3.106260056E0,2.912364244E0,9.524331093E0,4.798506737E0
3.108667504E0,2.900400162E0,9.529116631E0,4.918148041E0
3.111074952E0,2.871686220E0,9.588937759E0,5.011467934E0
3.113483181E0,2.821436882E0,9.651150703E0,5.078466892E0
3.115891410E0,2.778366089E0,9.725328445E0,5.124229908E0
3.118298806E0,2.759223700E0,9.785149574E0,5.164907455E0
3.120706254E0,2.799901485E0,9.847661972E0,5.205585480E0
3.123114483E0,2.821436882E0,9.883553505E0,5.133800983E0
3.125522712E0,2.838186741E0,9.979267120E0,5.059324265E0
3.127930108E0,2.821436882E0,1.003430176E1,4.939683437E0
3.130337556E0,2.864507914E0,1.008933640E1,4.793721199E0
3.132745785E0,2.785544634E0,1.017069244E1,4.602295399E0
3.135154015E0,2.823829889E0,1.026401234E1,4.372285366E0
3.137561462E0,2.850150824E0,1.037647533E1,4.166502476E0
3.139968910E0,2.943470955E0,1.043180943E1,3.941277981E0
3.142377140E0,3.015255690E0,1.049641609E1,3.735495329E0
3.144785317E0,3.113361359E0,1.058016396E1,3.534498215E0
3.147192765E0,3.233002424E0,1.065194893E1,3.292523861E0
3.149600212E0,3.348157167E0,1.069980526E1,3.041277647E0
3.152008442E0,3.477369547E0,1.073569775E1,2.813660383E0
3.154416671E0,3.589832067E0,1.078116131E1,2.619841576E0
3.156824067E0,3.618546009E0,1.080030441E1,2.469093800E0
3.159231515E0,3.668795347E0,1.078594685E1,2.284547329E0
3.161639744E0,3.656831264E0,1.073330498E1,2.155334949E0
3.164047973E0,3.585046530E0,1.068066311E1,2.030908108E0
3.166455369E0,3.367299557E0,1.061366367E1,1.990230203E0
3.168862817E0,3.096611500E0,1.049641609E1,1.959123492E0
3.171271098E0,2.826222658E0,1.034536839E1,1.954337835E0
3.173679275E0,2.505285263E0,1.020658493E1,1.939980984E0
3.176086723E0,2.220539331E0,1.007258701E1,1.966302037E0
3.178494171E0,1.959422588E0,9.929018021E0,1.985444546E0
3.180902400E0,1.700997829E0,9.792327881E0,2.033301115E0
3.183310629E0,1.499701619E0,9.655936241E0,2.126621008E0
3.185718025E0,1.375274777E0,9.526723862E0,2.176870346E0
3.188125473E0,1.291526079E0,9.419047356E0,2.263011932E0
3.190533702E0,1.183848977E0,9.304191589E0,2.347059965E0
3.192941931E0,1.051944613E0,9.198608398E0,2.411666155E0
3.195349327E0,9.705886841E-1,9.081359863E0,2.457129717E0
3.197756775E0,9.059824944E-1,8.964112282E0,2.555235386E0
3.200165056E0,8.940183520E-1,8.856434822E0,2.660519600E0
3.202573233E0,8.892326951E-1,8.746364594E0,2.715554714E0
3.204980681E0,7.983054519E-1,8.662317276E0,2.830410004E0
3.207388129E0,7.480561733E-1,8.568997383E0,2.940778971E0
3.209796358E0,6.619145870E-1,8.504390717E0,3.091526747E0
3.212204587E0,6.260222197E-1,8.430212975E0,3.220739365E0
3.214611983E0,5.973083377E-1,8.368000031E0,3.328416348E0
3.217019431E0,5.733801126E-1,8.317750931E0,3.431606770E0
3.219427660E0,5.757729411E-1,8.262715340E0,3.498605728E0
3.221835890E0,5.781657696E-1,8.205287933E0,3.570390463E0
3.224243285E0,5.709872842E-1,8.176573753E0,3.596711636E0
3.226650733E0,5.733801126E-1,8.147860527E0,3.651746511E0
3.229059015E0,6.332007051E-1,8.099704742E0,3.651746511E0
3.231467192E0,6.499504447E-1,8.066205025E0,3.673281908E0
3.233874640E0,6.786643267E-1,8.059026718E0,3.663710594E0
3.236282087E0,6.619145870E-1,8.042277336E0,3.656532049E0
3.238690317E0,6.690930128E-1,8.061419487E0,3.639782429E0
3.241098546E0,6.643074155E-1,8.109275818E0,3.608675718E0
3.243505942E0,7.097710371E-1,8.109275818E0,3.577569008E0
3.245913390E0,7.576274872E-1,8.102097511E0,3.522534132E0
3.248321619E0,8.054839373E-1,8.121239662E0,3.467499018E0
3.250729848E0,8.485547304E-1,8.133204460E0,3.404986620E0
3.253137244E0,8.988040090E-1,8.159824371E0,3.357130051E0
3.255544692E0,9.275178909E-1,8.202895164E0,3.326023579E0
3.257952921E0,9.490532875E-1,8.214859009E0,3.244667530E0
3.260361150E0,1.023230791E0,8.226823807E0,3.182454109E0
3.262768546E0,1.068993568E0,8.245965958E0,3.136990547E0
3.265175994E0,1.068993568E0,8.296215057E0,3.062813044E0
3.267584275E0,1.140778184E0,8.308178902E0,3.026920557E0
3.269992452E0,1.179063320E0,8.324929237E0,2.993421078E0
3.272399900E0,1.219741344E0,8.346464157E0,2.962314367E0
3.274807348E0,1.253240824E0,8.375178337E0,2.902493954E0
3.277215577E0,1.250848055E0,8.403892517E0,2.885744095E0
3.279623806E0,1.272383451E0,8.439785004E0,2.851945400E0
3.282031202E0,1.308275819E0,8.449356079E0,2.839981318E0
3.284438650E0,1.329811215E0,8.461319923E0,2.832803011E0
3.286846879E0,1.341775298E0,8.473283768E0,2.832803011E0
3.289255108E0,1.339382529E0,8.501997948E0,2.799303293E0
3.291662504E0,1.308275819E0,8.530712128E0,2.830410004E0
3.294069952E0,1.313061476E0,8.525926590E0,2.832803011E0
3.296478233E0,1.301097274E0,8.557032585E0,2.835195780E0
3.298886410E0,1.317847013E0,8.557032585E0,2.839981318E0
3.301293858E0,1.267597795E0,8.566604614E0,2.873780012E0
3.303701306E0,1.243669510E0,8.590532303E0,2.880958557E0
3.306109535E0,1.207777262E0,8.619246483E0,2.926422119E0
3.308517712E0,1.193420291E0,8.633603096E0,2.943171740E0
3.310925160E0,1.143171072E0,8.662317276E0,2.991028309E0
3.313332608E0,1.104885817E0,8.647959709E0,3.036491871E0
3.315740837E0,1.088136077E0,8.669495583E0,3.072384357E0
3.318149067E0,1.039980531E0,8.671888351E0,3.093919754E0
3.320556462E0,9.705886841E-1,8.669495583E0,3.139383316E0
3.322963910E0,9.370891452E-1,8.681459427E0,3.156133175E0
3.325372140E0,8.892326951E-1,8.688637733E0,3.206382275E0
3.327780369E0,8.294121623E-1,8.681459427E0,3.237488985E0
3.330187765E0,7.959126234E-1,8.681459427E0,3.256631613E0
3.332595212E0,7.767700553E-1,8.676673889E0,3.285345554E0
3.335003494E0,7.432705164E-1,8.659924507E0,3.333201885E0
3.337411671E0,6.954140663E-1,8.640781403E0,3.369094372E0
3.339819119E0,7.241279483E-1,8.614460945E0,3.381058455E0
3.342226567E0,7.121638656E-1,8.600103378E0,3.404986620E0
3.344634796E0,6.858428121E-1,8.585746765E0,3.426821232E0
3.347043025E0,7.025925517E-1,8.545068741E0,3.462713480E0
3.349450421E0,6.810571551E-1,8.530712128E0,3.481856108E0
3.351857869E0,6.882356405E-1,8.535497665E0,3.455534935E0
3.354266098E0,6.236293912E-1,8.552247047E0,3.479463339E0
3.356674327E0,5.877370834E-1,8.571390152E0,3.479463339E0
3.359081723E0,5.542375445E-1,8.583353996E0,3.479463339E0
3.361489171E0,5.350949764E-1,8.604888916E0,3.467499018E0
3.363897400E0,5.207380056E-1,8.657531738E0,3.455534935E0
3.366305629E0,5.183451772E-1,8.717651367E0,3.457927704E0
3.368713025E0,5.303093195E-1,8.732007980E0,3.450749397E0
3.371120473E0,5.327021480E-1,8.763114929E0,3.385843992E0
3.373528754E0,5.542375445E-1,8.844470978E0,3.371487141E0
3.375936931E0,5.853442550E-1,8.885149002E0,3.337987661E0
3.378344379E0,5.997011662E-1,8.944969177E0,3.314059258E0
3.380751827E0,6.284150481E-1,8.995218277E0,3.304488182E0
3.383160056E0,7.001997232E-1,9.019146919E0,3.326023579E0
3.385568285E0,7.408776879E-1,9.076574326E0,3.342773199E0
3.387975681E0,8.006982803E-1,9.110074043E0,3.369094372E0
3.390383129E0,8.724829555E-1,9.114859581E0,3.419642687E0
3.392791358E0,9.514461160E-1,9.141180992E0,3.462713480E0
3.395199587E0,1.020837903E0,9.143573761E0,3.517748356E0
3.397606983E0,1.124028444E0,9.153144836E0,3.587140322E0
3.400014431E0,1.181456208E0,9.119645119E0,3.644567966E0
3.402422712E0,1.248455167E0,9.088538170E0,3.716352701E0
3.404830890E0,1.327418327E0,9.057432175E0,3.776173353E0
3.407238337E0,1.408774376E0,9.031110764E0,3.843172312E0
3.409645785E0,1.499701619E0,8.978468895E0,3.893421650E0
3.412054015E0,1.537986755E0,8.933005333E0,3.922135353E0
3.414462244E0,1.643570065E0,8.880363464E0,3.953242064E0
3.416869640E0,1.741675735E0,8.815756798E0,3.955634832E0
3.419277087E0,1.799103498E0,8.758329391E0,3.969991922E0
3.421685317E0,1.866102576E0,8.676673889E0,3.967599154E0
3.424093546E0,1.923530340E0,8.609675407E0,3.936492443E0
3.426500942E0,1.985743642E0,8.557032585E0,3.900599957E0
3.428908390E0,1.976172447E0,8.509176254E0,3.857529163E0
3.431316619E0,2.002493382E0,8.475676537E0,3.778566122E0
3.433724848E0,2.028814554E0,8.418249130E0,3.670889139E0
3.436132244E0,2.038385868E0,8.391927719E0,3.623032570E0
3.438539692E0,2.021636009E0,8.377571106E0,3.527319670E0
3.440947973E0,2.038385868E0,8.356036186E0,3.484248877E0
3.443356150E0,1.978565216E0,8.346464157E0,3.438785315E0
3.445763598E0,1.894816399E0,8.370392799E0,3.407379389E0
3.448171046E0,1.803889155E0,8.348856926E0,3.416950703E0
3.450579275E0,1.739282966E0,8.341678619E0,3.457927704E0
3.452987504E0,1.655534148E0,8.339285851E0,3.508177042E0
3.455394900E0,1.583450437E0,8.346464157E0,3.579961777E0
3.457802348E0,1.494915962E0,8.363214493E0,3.651746511E0
3.460210577E0,1.375274777E0,8.379963875E0,3.745066643E0
3.462618806E0,1.332203984E0,8.387142181E0,3.821636915E0
3.465026202E0,1.281954765E0,8.434998512E0,3.871886253E0
3.467433650E0,1.231705427E0,8.437391281E0,3.905385733E0
3.469841879E0,1.193420291E0,8.415856361E0,3.931706667E0
3.472250108E0,1.212562919E0,8.394320488E0,3.965206146E0
3.474657504E0,1.279561877E0,8.387142181E0,4.027718544E0
3.477064952E0,1.329811215E0,8.365607262E0,4.044468403E0
3.479473233E0,1.430309772E0,8.322536469E0,4.087539196E0
3.481881410E0,1.581057549E0,8.284251213E0,4.118646145E0
3.484288858E0,1.753639936E0,8.267500877E0,4.183252335E0
3.486696306E0,1.978565216E0,8.253144264E0,4.238286972E0
3.489104535E0,2.196611166E0,8.257929802E0,4.367499352E0
3.491512765E0,2.462214470E0,8.272287369E0,4.451248169E0
3.493920160E0,2.739781857E0,8.277072906E0,4.609473705E0
3.496327608E0,2.988934517E0,8.317750931E0,4.750650406E0
3.498735837E0,3.278466225E0,8.339285851E0,4.939683437E0
3.501144067E0,3.556332588E0,8.387142181E0,5.121836662E0
3.503551462E0,3.869792461E0,8.466105461E0,5.349154949E0
3.505958910E0,4.183551311E0,8.487641335E0,5.600401402E0
3.508367140E0,4.511667252E0,8.501997948E0,5.842375755E0
3.510775369E0,4.815555573E0,8.540283203E0,6.091228962E0
3.513182765E0,5.126921654E0,8.530712128E0,6.357131481E0
3.515590212E0,5.387739182E0,8.533104897E0,6.625127792E0
3.517998494E0,5.615356445E0,8.501997948E0,6.828816891E0
3.520406671E0,5.770890236E0,8.458927155E0,6.979564667E0
3.522814119E0,5.854638577E0,8.437391281E0,7.092027187E0
3.525221567E0,5.888138294E0,8.372785568E0,7.163811684E0
3.527629796E0,5.845067501E0,8.322536469E0,7.214061260E0
3.530037973E0,5.739783287E0,8.243573189E0,7.170990467E0
3.532445421E0,5.536094189E0,8.133204460E0,7.051349163E0
3.534852869E0,5.272883892E0,7.996813297E0,6.862316132E0
3.537261098E0,4.975874901E0,7.843672752E0,6.577271461E0
3.539669327E0,4.679164886E0,7.649854183E0,6.182156563E0
3.542076723E0,4.372584343E0,7.436593533E0,5.787340641E0
3.544484171E0,4.008875370E0,7.230811119E0,5.365904808E0
3.546892400E0,3.551547050E0,7.060920715E0,4.946861744E0
3.549300629E0,3.082254648E0,6.938587666E0,4.587938309E0
3.551708025E0,2.526820660E0,6.897909641E0,4.293322086E0
3.554115473E0,1.916351795E0,6.917052269E0,3.960420609E0
3.556523754E0,1.332203984E0,6.933801651E0,3.591925859E0
3.558931931E0,8.198408484E-1,6.950551510E0,3.158525944E0
3.561339327E0,3.792623878E-1,6.924230576E0,2.684448004E0
3.563746775E0,-1.316052489E-2,6.914659023E0,2.200798512E0
3.566155056E0,-3.771686554E-1,6.893123627E0,1.777269006E0
3.568563233E0,-6.669993401E-1,6.854838848E0,1.389332652E0
3.570970681E0,-9.613165259E-1,6.792625427E0,1.051645517E0
3.573378129E0,-1.169492126E0,6.783053875E0,7.190431952E-1
3.575786358E0,-1.363609791E0,6.761518478E0,4.842474759E-1
3.578194587E0,-1.576570988E0,6.785446644E0,2.569293380E-1
3.580601983E0,-1.787438512E0,6.823731899E0,6.071787328E-2
3.583009431E0,-2.000399828E0,6.854838848E0,-1.645065546E-1
3.585417660E0,-2.182254314E0,6.926623344E0,-2.961117923E-1
3.587825890E0,-2.362015009E0,6.984051228E0,-4.109672904E-1
3.590233285E0,-2.572583437E0,7.070491791E0,-5.476573110E-1
3.592640733E0,-2.790330410E0,7.204489708E0,-5.811567903E-1
3.595048962E0,-3.015554667E0,7.348059177E0,-6.266204119E-1
3.597457192E0,-3.092125177E0,7.486843109E0,-7.103692293E-1
3.599864587E0,-3.142374277E0,7.630711555E0,-7.414759398E-1
3.602272035E0,-3.142374277E0,7.724031448E0,-8.300103545E-1
3.604680317E0,-3.068196774E0,7.889136314E0,-8.491529226E-1
3.607088494E0,-2.927020311E0,8.037490845E0,-8.826524615E-1
3.609495890E0,-2.771187782E0,8.202895164E0,-9.305089116E-1
3.611903337E0,-2.512762785E0,8.310571671E0,-9.017950296E-1
3.614311619E0,-2.208575249E0,8.470890999E0,-9.065806866E-1
3.616719848E0,-1.861616015E0,8.638388634E0,-9.305089116E-1
3.619127244E0,-1.502393484E0,8.854042053E0,-9.831510186E-1
3.621534692E0,-1.179362416E0,9.141180992E0,-1.011864901E0
3.623942921E0,-8.656035662E-1,9.423832893E0,-1.124626637E0
3.626351150E0,-6.044868231E-1,9.813862801E0,-1.301695466E0
3.628758546E0,-3.795614839E-1,1.020658493E1,-1.469193101E0
3.631165994E0,-1.546361595E-1,1.065434170E1,-1.751845241E0
3.633574223E0,1.064806059E-1,1.107338524E1,-1.998306036E0
3.635982452E0,3.385843933E-1,1.150170040E1,-2.230708838E0
3.638389848E0,5.350949764E-1,1.193988609E1,-2.398206472E0
3.640797296E0,6.547361016E-1,1.239242840E1,-2.551347256E0
3.643205525E0,7.193422914E-1,1.284018517E1,-2.589632273E0
3.645613754E0,7.336992621E-1,1.324965763E1,-2.400599241E0
3.648021150E0,6.786643267E-1,1.370668602E1,-2.165803671E0
3.650428598E0,6.212365627E-1,1.414008617E1,-1.775773525E0
3.652836879E0,5.829514265E-1,1.445145226E1,-1.320838094E0
3.655245056E0,5.518447161E-1,1.477687645E1,-8.563314080E-1
3.657652504E0,5.614160299E-1,1.501885033E1,-3.248256743E-1
3.660059952E0,5.757729411E-1,1.523898983E1,2.665006220E-1
3.662468181E0,6.332007051E-1,1.540648746E1,8.362914920E-1
3.664876410E0,6.643074155E-1,1.555274868E1,1.382154226E0
3.667283806E0,7.145566344E-1,1.561017704E1,1.889731646E0
3.669691254E0,7.911269665E-1,1.566521168E1,2.325524569E0
3.672099483E0,7.791628838E-1,1.576810265E1,2.674876690E0
3.674507712E0,7.097710371E-1,1.588295841E1,2.957528830E0
3.676915108E0,6.092724800E-1,1.604596901E1,3.177668571E0
3.679322556E0,5.590232015E-1,1.611296844E1,3.357130051E0
3.681730785E0,5.279164910E-1,1.612732506E1,3.467499018E0
3.684139015E0,5.590232015E-1,1.601964760E1,3.524926901E0
3.686546410E0,6.140581369E-1,1.586860180E1,3.603889942E0
3.688953858E0,6.690930128E-1,1.564128304E1,3.644567966E0
3.691362140E0,7.169494629E-1,1.532991695E1,3.680460215E0
3.693770317E0,7.959126234E-1,1.496620846E1,3.730709553E0
3.696177712E0,8.748757839E-1,1.456630802E1,3.687638760E0
3.698585160E0,9.323035479E-1,1.416162205E1,3.558426380E0
3.700993442E0,9.442676306E-1,1.374018574E1,3.402593851E0
3.703401619E0,1.028016448E0,1.329990673E1,3.182454109E0
3.705809067E0,1.076171994E0,1.286650658E1,2.967100143E0
3.708216515E0,1.080957651E0,1.246421337E1,2.679662228E0
3.710624744E0,1.059123158E0,1.209811115E1,2.294118643E0
3.713032973E0,1.037587762E0,1.173171043E1,1.916052699E0
3.715440369E0,1.013659477E0,1.134616661E1,1.489831209E0
3.717847817E0,1.006481051E0,1.103270721E1,1.123430252E0
3.720256046E0,9.658030272E-1,1.075244808E1,7.764709592E-1
3.722664275E0,8.270193338E-1,1.052752209E1,4.770690203E-1
3.725071671E0,7.552346587E-1,1.030947590E1,2.066800594E-1
3.727479119E0,6.212365627E-1,1.013001442E1,5.084748194E-2
3.729887348E0,5.303093195E-1,9.926624298E0,-1.621137410E-1
3.732295577E0,4.462614357E-1,9.754042625E0,-2.817548811E-1
3.734702973E0,3.625126183E-1,9.538688660E0,-3.942175210E-1
3.737110421E0,2.476571500E-1,9.352047920E0,-4.827519655E-1
3.739518702E0,2.991028316E-2,9.241679192E0,-4.707878530E-1
3.741926879E0,-2.024926096E-1,9.143573761E0,-4.205385745E-1
3.744334275E0,-4.369892478E-1,9.083752632E0,-2.745763958E-1
3.746741723E0,-6.239284873E-1,9.021539688E0,-1.501496136E-1
3.749150004E0,-7.627122402E-1,8.947361946E0,3.409772366E-2
3.751558181E0,-8.321040869E-1,8.875576973E0,2.042872310E-1
3.753965629E0,-8.656035662E-1,8.820542336E0,3.957130313E-1
3.756373077E0,-8.273184299E-1,8.712865829E0,6.592226624E-1
3.758781306E0,-7.531409264E-1,8.619246483E0,9.439685345E-1
3.761189535E0,-7.100701332E-1,8.542675972E0,1.226620674E0
3.763596931E0,-6.717849374E-1,8.497212410E0,1.468295813E0
3.766004379E0,-6.550351977E-1,8.454141617E0,1.741376638E0
3.768412608E0,-6.092724800E-1,8.473283768E0,1.959123492E0
3.770820837E0,-6.239284873E-1,8.482855797E0,2.198405743E0
3.773228233E0,-7.004988194E-1,8.643174171E0,2.471486807E0
3.775635681E0,-7.339983582E-1,8.777471542E0,2.804089069E0
3.778043910E0,-4.537389874E-1,8.590532303E0,3.034099102E0
3.780452140E0,-1.187438220E-1,8.434998512E0,3.247060299E0
3.782859535E0,1.280160099E-1,8.415856361E0,3.395415306E0
3.785266983E0,3.553341627E-1,8.372785568E0,3.539283752E0
3.787675265E0,5.614160299E-1,8.336893082E0,3.680460215E0
3.790083442E0,7.624131441E-1,8.334500313E0,3.814458370E0
3.792490837E0,9.299107194E-1,8.332107544E0,3.962813377E0
3.794898285E0,1.121635556E0,8.315358162E0,4.140181541E0
3.797306567E0,1.298704505E0,8.320143700E0,4.319643021E0
3.799714744E0,1.447059512E0,8.310571671E0,4.422534466E0
3.802122140E0,1.600200176E0,8.279465675E0,4.525425911E0
3.804529587E0,1.746461391E0,8.296215057E0,4.554438591E0
3.806937869E0,1.837388635E0,8.348856926E0,4.547260284E0
3.809346098E0,1.834995866E0,8.439785004E0,4.491926193E0
3.811753494E0,1.885245085E0,8.473283768E0,4.456034184E0
3.814160942E0,1.976172447E0,8.446963310E0,4.381856441E0
3.816569171E0,1.961815476E0,8.518747330E0,4.293322086E0
3.818977400E0,1.882852316E0,8.695816994E0,4.154538155E0
3.821384796E0,1.825424552E0,8.844470978E0,4.020540237E0
3.823792244E0,1.782353759E0,8.901898384E0,3.871886253E0
3.826200473E0,1.729711652E0,8.959325790E0,3.735495329E0
3.828608702E0,1.616949916E0,9.021539688E0,3.567997694E0
3.831016098E0,1.583450437E0,9.045467377E0,3.337987661E0
3.833423546E0,1.499701619E0,9.078967094E0,3.093919754E0
3.835831775E0,1.408774376E0,9.117252350E0,2.883351326E0
3.838240004E0,1.332203984E0,9.157930374E0,2.636591434E0
3.840647400E0,1.248455167E0,9.201001167E0,2.459522486E0
3.843054848E0,1.140778184E0,9.285049438E0,2.337488651E0
3.845463129E0,1.037587762E0,9.359226227E0,2.215155602E0
3.847871306E0,9.370891452E-1,9.438189507E0,2.100300074E0
3.850278702E0,8.294121623E-1,9.512367249E0,2.021337032E0
3.852686150E0,7.911269665E-1,9.521938324E0,1.947159410E0
3.855094431E0,7.504490018E-1,9.569794655E0,1.887338877E0
3.857502608E0,6.547361016E-1,9.598508835E0,1.829911113E0
3.859910056E0,5.781657696E-1,9.608079910E0,1.796411633E0
3.862317504E0,4.797609448E-1,9.641579628E0,1.750947952E0
3.864725733E0,3.840480447E-1,9.648757935E0,1.705185294E0
3.867133910E0,3.242274821E-1,9.691828728E0,1.647757530E0
3.869541358E0,2.117647976E-1,9.703793526E0,1.580758452E0
3.871948806E0,9.451649338E-2,9.720542908E0,1.504188180E0
3.874357035E0,2.512463741E-2,9.742077827E0,1.463510156E0
3.876765265E0,-7.806584239E-2,9.746864319E0,1.422832131E0
3.879172660E0,-1.689931005E-1,9.761220932E0,1.422832131E0
3.881580108E0,-2.335993052E-1,9.739685059E0,1.406082392E0
3.883988337E0,-2.575275302E-1,9.739685059E0,1.430010676E0
3.886396567E0,-2.982055247E-1,9.715757370E0,1.461117268E0
3.888803962E0,-3.317050338E-1,9.684650421E0,1.525723577E0
3.891211410E0,-3.939184248E-1,9.653543472E0,1.609472275E0
3.893619640E0,-4.322035909E-1,9.605687141E0,1.726720691E0
3.896027869E0,-4.776672125E-1,9.536295891E0,1.827518344E0
3.898435265E0,-4.920241535E-1,9.495617867E0,1.959123492E0
3.900842712E0,-5.350949764E-1,9.409476280E0,2.097907305E0
3.903250942E0,-5.709872842E-1,9.330513000E0,2.207977057E0
3.905659171E0,-6.287141442E-1,9.253643036E0,2.363809586E0
3.908066567E0,-6.765705943E-1,9.145966530E0,2.519343138E0
3.910474015E0,-7.172485590E-1,9.040681839E0,2.634198666E0
3.912882296E0,-7.722834945E-1,8.954540253E0,2.770589590E0
3.915290473E0,-7.962117195E-1,8.861220360E0,2.912065268E0
3.917697921E0,-8.344969153E-1,8.765507698E0,3.065205812E0
3.920105369E0,-8.273184299E-1,8.671888351E0,3.151347399E0
3.922513598E0,-8.679963946E-1,8.583353996E0,3.282952785E0
3.924921775E0,-8.321040869E-1,8.497212410E0,3.364308596E0
3.927329223E0,-8.153542876E-1,8.420641899E0,3.462713480E0
3.929736671E0,-8.033902049E-1,8.368000031E0,3.570390463E0
3.932144900E0,-7.770691514E-1,8.308178902E0,3.627818346E0
3.934553129E0,-7.507480979E-1,8.257929802E0,3.709174156E0
3.936960525E0,-7.387840152E-1,8.253144264E0,3.768994808E0
3.939367973E0,-6.885347366E-1,8.217251778E0,3.783351660E0
3.941776202E0,-6.861419082E-1,8.219644547E0,3.840779543E0
3.944184431E0,-6.909275651E-1,8.178966522E0,3.898207188E0
3.946591827E0,-6.478567123E-1,8.155038834E0,3.958027840E0
3.948999275E0,-6.526423693E-1,8.143074989E0,4.008575916E0
3.951407504E0,-6.933203340E-1,8.121239662E0,4.020540237E0
3.953815733E0,-7.627122402E-1,8.102097511E0,4.061218262E0
3.956223129E0,-8.249256015E-1,8.047062874E0,4.058825493E0
3.958630577E0,-8.416753411E-1,7.984848976E0,4.044468403E0
3.961038806E0,-8.201399446E-1,7.927421570E0,4.010969162E0
3.963447035E0,-8.297112584E-1,7.848458290E0,3.965206146E0
3.965854431E0,-8.464609981E-1,7.798209190E0,3.898207188E0
3.968261879E0,-9.445667267E-1,7.757531166E0,3.847957850E0
3.970670160E0,-1.009172916E0,7.726424217E0,3.771387577E0
3.973078337E0,-1.080957651E0,7.712067604E0,3.776173353E0
3.975485733E0,-1.135992527E0,7.673782349E0,3.800101519E0
3.977893181E0,-1.171884894E0,7.621140003E0,3.807279825E0
3.980301462E0,-1.210469127E0,7.590033531E0,3.824029684E0
3.982709640E0,-1.265504122E0,7.539484978E0,3.826422453E0
3.985117087E0,-1.318146229E0,7.513164043E0,3.828815222E0
3.987524535E0,-1.370788217E0,7.474878788E0,3.816851139E0
3.989932765E0,-1.440180182E0,7.446165085E0,3.807279825E0
3.992340994E0,-1.531107426E0,7.427022457E0,3.807279825E0
3.994748390E0,-1.602892041E0,7.412665367E0,3.759423494E0
3.997155837E0,-1.700997829E0,7.419844151E0,3.735495329E0
3.999564067E0,-1.818545222E0,7.462914944E0,3.723531246E0
4.001972296E0,-1.907079697E0,7.484450340E0,3.668496132E0
4.004379692E0,-2.031506538E0,7.520342350E0,3.596711636E0
4.006787140E0,-2.091326952E0,7.558627605E0,3.517748356E0
4.009195369E0,-2.203789711E0,7.621140003E0,3.505784273E0
4.011603598E0,-2.282752752E0,7.680960655E0,3.467499018E0
4.014010994E0,-2.342872381E0,7.769495010E0,3.455534935E0
4.016418442E0,-2.395514488E0,7.841279984E0,3.455534935E0
4.018826671E0,-2.443371058E0,7.941778183E0,3.477070332E0
4.021234900E0,-2.479263306E0,8.032705307E0,3.481856108E0
4.023642296E0,-2.522334099E0,8.111668587E0,3.448356628E0
4.026049744E0,-2.618046999E0,8.255537033E0,3.359523058E0
4.028457973E0,-2.584547520E0,8.317750931E0,3.342773199E0
4.030866202E0,-2.510370016E0,8.379963875E0,3.395415306E0
4.033273598E0,-2.467299223E0,8.442177773E0,3.477070332E0
4.035681046E0,-2.436192513E0,8.557032585E0,3.563211918E0
4.038089275E0,-2.417049885E0,8.616853714E0,3.656532049E0
4.040497504E0,-2.417049885E0,8.691030502E0,3.694817305E0
4.042904900E0,-2.395514488E0,8.765507698E0,3.812065601E0
4.045312348E0,-2.397907495E0,8.810971260E0,3.898207188E0
4.047720629E0,-2.426621199E0,8.851649284E0,3.979563236E0
4.050128806E0,-2.421835661E0,8.901898384E0,4.068396568E0
4.052536202E0,-2.429013968E0,8.925827026E0,4.144967079E0
4.054943650E0,-2.448156595E0,8.971290588E0,4.204787731E0
4.057351931E0,-2.484049082E0,8.997611046E0,4.307679176E0
4.059760108E0,-2.507977247E0,9.011968613E0,4.338785648E0
4.062167556E0,-2.510370016E0,9.059824944E0,4.362713814E0
4.064575004E0,-2.555833578E0,9.043074608E0,4.377070904E0
4.066983233E0,-2.582154751E0,9.071788788E0,4.338785648E0
4.069391410E0,-2.615654230E0,9.098110199E0,4.274179459E0
4.071798858E0,-2.685046196E0,9.095717430E0,4.204787731E0
4.074206306E0,-2.711367130E0,9.102895737E0,4.121038914E0
4.076614535E0,-2.735295296E0,9.129216194E0,4.046861172E0
4.079022765E0,-2.756830692E0,9.150752068E0,3.960420609E0
4.081430160E0,-2.775973320E0,9.114859581E0,3.871886253E0
4.083837608E0,-2.761616468E0,9.131608963E0,3.824029684E0
4.086245837E0,-2.778366089E0,9.110074043E0,3.757030725E0
4.088654067E0,-2.775973320E0,9.105288506E0,3.704388618E0
4.091061462E0,-2.749652386E0,9.090931892E0,3.663710594E0
4.093468910E0,-2.732902527E0,9.078967094E0,3.630211115E0
4.095877140E0,-2.728116989E0,9.052646637E0,3.623032570E0
4.098285369E0,-2.689831734E0,9.016754150E0,3.594318628E0
4.100692765E0,-2.689831734E0,9.011968613E0,3.587140322E0
4.103100212E0,-2.651546478E0,8.964112282E0,3.627818346E0
4.105508442E0,-2.632404089E0,8.956933022E0,3.649353743E0
4.107916671E0,-2.637189627E0,8.923434258E0,3.678067446E0
4.110324067E0,-2.591726065E0,8.906683922E0,3.713959932E0
4.112731515E0,-2.553440809E0,8.880363464E0,3.747459412E0
4.115139796E0,-2.546262503E0,8.866005898E0,3.812065601E0
4.117547973E0,-2.541476727E0,8.844470978E0,3.883850336E0
4.119955369E0,-2.498405933E0,8.830113411E0,3.917349815E0
4.122362817E0,-2.479263306E0,8.825327873E0,3.967599154E0
4.124771098E0,-2.457727909E0,8.810971260E0,4.034897327E0
4.127179275E0,-2.419442892E0,8.803792953E0,4.022933006E0
4.129586723E0,-2.393121719E0,8.787042618E0,4.056432724E0
4.131994171E0,-2.359622240E0,8.777471542E0,4.080360889E0
4.134402400E0,-2.321336985E0,8.789435387E0,4.137788773E0
4.136810577E0,-2.287538528E0,8.772686005E0,4.101896286E0
4.139218025E0,-2.234896421E0,8.777471542E0,4.046861172E0
4.141625473E0,-2.203789711E0,8.765507698E0,4.008575916E0
4.144033702E0,-2.191825628E0,8.765507698E0,4.008575916E0
4.146441931E0,-2.143969059E0,8.755936623E0,4.037290096E0
4.148849327E0,-2.129612207E0,8.770293236E0,4.099503517E0
4.151256775E0,-2.084148407E0,8.767900467E0,4.137788773E0
4.153665004E0,-2.053041935E0,8.775078773E0,4.197608948E0
4.156073233E0,-1.990828395E0,8.760722160E0,4.281357765E0
4.158480629E0,-1.947757602E0,8.779864311E0,4.319643021E0
4.160888077E0,-1.890329838E0,8.806185722E0,4.391427994E0
4.163296306E0,-1.873580098E0,8.842078209E0,4.446462631E0
4.165704535E0,-1.864008784E0,8.849256516E0,4.467998028E0
4.168111931E0,-1.787438512E0,8.851649284E0,4.482355118E0
4.170519379E0,-1.739282966E0,8.854042053E0,4.470390797E0
4.172927608E0,-1.705783486E0,8.868398666E0,4.432105541E0
4.175335837E0,-1.650748491E0,8.863613129E0,4.362713814E0
4.177743233E0,-1.605284929E0,8.889934540E0,4.247858524E0
4.180150681E0,-1.555035591E0,8.889934540E0,4.109074593E0
4.182558910E0,-1.497607827E0,8.921041489E0,3.960420609E0
4.184967140E0,-1.421037555E0,8.971290588E0,3.819244146E0
4.187374535E0,-1.380359530E0,9.007183075E0,3.654139280E0
4.189781983E0,-1.282253861E0,9.074181557E0,3.505784273E0
4.192190212E0,-1.246361494E0,9.136395454E0,3.330809116E0
4.194598442E0,-1.164706469E0,9.169894218E0,3.242274761E0
4.197005837E0,-1.057029366E0,9.236893654E0,3.163311481E0
4.199413285E0,-9.708877802E-1,9.335298538E0,3.120240688E0
4.201821567E0,-8.895317912E-1,9.433403969E0,3.053241730E0
4.204229744E0,-8.225327730E-1,9.545866966E0,3.005385160E0
4.206637140E0,-6.957131624E-1,9.658329964E0,3.005385160E0
4.209044587E0,-5.949155092E-1,9.754042625E0,3.053241730E0
4.211452869E0,-4.968098104E-1,9.862018585E0,3.134597778E0
4.213861046E0,-4.345964193E-1,1.001276588E1,3.146561861E0
4.216268442E0,-3.675973713E-1,1.014676476E1,3.165704250E0
4.218675890E0,-2.886342406E-1,1.026640511E1,3.227917671E0
4.221084171E0,-1.737787426E-1,1.040309525E1,3.256631613E0
4.223492348E0,-7.328019291E-2,1.050837994E1,3.306880951E0
4.225899796E0,4.666004330E-2,1.061844921E1,3.349951744E0
4.228307244E0,1.543370634E-1,1.074526882E1,3.422035456E0
4.230715473E0,3.050848842E-1,1.083619690E1,3.481856108E0
4.233123650E0,4.295116663E-1,1.093908787E1,3.570390463E0
4.235531098E0,5.781657696E-1,1.103509998E1,3.623032570E0
4.237938546E0,7.241279483E-1,1.112124157E1,3.721138239E0
4.240346775E0,8.509475589E-1,1.120499039E1,3.759423494E0
4.242754952E0,1.020837903E0,1.128634644E1,3.757030725E0
4.245162400E0,1.133599758E0,1.135573769E1,3.761816263E0
4.247569848E0,1.310668588E0,1.142034435E1,3.692424536E0
4.249978077E0,1.348953724E0,1.149930763E1,3.582354546E0
4.252386306E0,1.377667665E0,1.156182003E1,3.462713480E0
4.254793702E0,1.423131227E0,1.160728359E1,3.352344513E0
4.257201150E0,1.449452281E0,1.162642574E1,3.184846878E0
4.259609379E0,1.396810174E0,1.164078331E1,3.024527788E0
4.262017608E0,1.356132269E0,1.163121223E1,2.909672260E0
4.264425004E0,1.432702541E0,1.157139111E1,2.794517756E0
4.266832452E0,1.444666624E0,1.150917816E1,2.701197624E0
4.269240681E0,1.485344648E0,1.145862961E1,2.631805897E0
4.271648910E0,1.516451359E0,1.143230820E1,2.595913410E0
4.274056306E0,1.566700578E0,1.138923740E1,2.519343138E0
4.276463754E0,1.710569143E0,1.127916813E1,2.471486807E0
4.278871983E0,1.794317842E0,1.120499039E1,2.421237469E0
4.281280212E0,1.825424552E0,1.109731293E1,2.402094841E0
4.283687608E0,1.880459547E0,1.097049332E1,2.361416817E0
4.286095056E0,1.935494423E0,1.085294628E1,2.296511650E0
4.288503285E0,2.069492579E0,1.067827034E1,2.243869543E0
4.290911515E0,2.095813513E0,1.055384350E1,2.164906263E0
4.293318910E0,2.071885347E0,1.041745281E1,2.045265198E0
4.295726358E0,1.978565216E0,1.035254669E1,1.904088616E0
4.298134640E0,1.854138494E0,1.028794098E1,1.765304923E0
4.300542817E0,1.689033628E0,1.023529911E1,1.604686737E0
4.302950212E0,1.447059512E0,1.015394306E1,1.480259895E0
4.305357660E0,1.274776220E0,1.004626560E1,1.358225942E0
4.307765942E0,1.097707391E0,9.964909554E0,1.310369492E0
4.310174119E0,9.418748021E-1,9.823733330E0,1.252941728E0
4.312581515E0,8.581260443E-1,9.629615784E0,1.233799219E0
4.314988962E0,7.456633449E-1,9.433403969E0,1.188335538E0
4.317397244E0,6.355935335E-1,9.373583794E0,1.116251707E0
4.319805421E0,5.422734022E-1,9.344869614E0,1.051645517E0
4.322212817E0,4.390829504E-1,9.323334694E0,9.990034699E-1
4.324620265E0,3.601198196E-1,9.289834976E0,9.439685345E-1
4.327028546E0,3.792623878E-1,9.236893654E0,9.918249846E-1
4.329436723E0,4.223332107E-1,9.196215630E0,9.798609018E-1
4.331844171E0,4.749752879E-1,9.167501450E0,9.583254457E-1
4.334251619E0,5.566303730E-1,9.134002686E0,9.607182741E-1
4.336659848E0,6.690930128E-1,9.095717430E0,9.367900491E-1
4.339068025E0,7.528418303E-1,9.062217712E0,9.846464992E-1
4.341475473E0,8.581260443E-1,8.983254433E0,1.015753269E0
4.343882921E0,9.681958556E-1,8.952147484E0,1.082752228E0
4.346291150E0,1.066600680E0,8.925827026E0,1.154536963E0
4.348699327E0,1.188634634E0,8.887541771E0,1.214656591E0
4.351106775E0,1.248455167E0,8.894720078E0,1.300798178E0
4.353514223E0,1.334596872E0,8.894720078E0,1.396511078E0
4.355922452E0,1.411167145E0,8.933005333E0,1.489831209E0
4.358330629E0,1.451845169E0,8.956933022E0,1.611865163E0
4.360738077E0,1.523629785E0,8.983254433E0,1.746162295E0
4.363145525E0,1.585843205E0,9.035896301E0,1.872981906E0
4.365553754E0,1.604985833E0,9.026325226E0,2.105085611E0
4.367961983E0,1.703390598E0,8.997611046E0,2.327917337E0
4.370369379E0,1.681855202E0,9.045467377E0,2.469093800E0
4.372776827E0,1.724925995E0,9.083752632E0,2.524128675E0
4.375185056E0,1.753639936E0,9.102895737E0,2.504986286E0
4.377593285E0,1.832603097E0,9.081359863E0,2.516950369E0
4.380000681E0,1.949851394E0,9.023932457E0,2.605484724E0
4.382408129E0,2.043171406E0,9.019146919E0,2.739482880E0
4.384816358E0,2.141277075E0,8.947361946E0,2.823231697E0
4.387224587E0,2.222932339E0,8.839685440E0,2.979064226E0
4.389631983E0,2.301895380E0,8.763114929E0,3.165704250E0
4.392039431E0,2.383251429E0,8.681459427E0,3.333201885E0
4.394447660E0,2.478964329E0,8.592925072E0,3.469892025E0
4.396855890E0,2.572284460E0,8.494819641E0,3.594318628E0
4.399263285E0,2.624926329E0,8.434998512E0,3.728316784E0
4.401670733E0,2.687139750E0,8.353643417E0,3.824029684E0
4.404078962E0,2.691925526E0,8.368000031E0,3.950849295E0
4.406487192E0,2.739781857E0,8.348856926E0,4.080360889E0
4.408894587E0,2.783151865E0,8.353643417E0,4.221537113E0
4.411302035E0,2.871686220E0,8.360821724E0,4.322035789E0
4.413710265E0,2.938685417E0,8.358428955E0,4.429712772E0
4.416118494E0,3.027219772E0,8.372785568E0,4.511068821E0
4.418525890E0,3.106182814E0,8.384749413E0,4.561617374E0
4.420933337E0,3.237788200E0,8.418249130E0,4.571188450E0
4.423341567E0,3.379263878E0,8.444570541E0,4.616652012E0
4.425749796E0,3.472583771E0,8.466105461E0,4.556831837E0
4.428157192E0,3.532404423E0,8.501997948E0,4.499104977E0
4.430564640E0,3.568296671E0,8.573782921E0,4.412963390E0
4.432972921E0,3.577867985E0,8.681459427E0,4.312464714E0
4.435381098E0,3.585046530E0,8.775078773E0,4.166502476E0
4.437788494E0,3.544368505E0,8.892327309E0,4.032504559E0
4.440195942E0,3.522833109E0,9.023932457E0,3.874279022E0
4.442604223E0,3.463012457E0,9.184251785E0,3.709174156E0
4.445012400E0,3.369692564E0,9.364012718E0,3.515355587E0
4.447419796E0,3.247359514E0,9.524331093E0,3.318845034E0
4.449827244E0,3.130111217E0,9.710971832E0,3.146561861E0
4.452235525E0,3.010469913E0,9.885947227E0,2.998206854E0
4.454643702E0,2.890828848E0,1.007737255E1,2.861815929E0
4.457051150E0,2.795115948E0,1.026879883E1,2.708376169E0
4.459458598E0,2.675175667E0,1.045813084E1,2.617448807E0
4.461866827E0,2.598605394E0,1.057777119E1,2.548057079E0
4.464275004E0,2.543570518E0,1.067587757E1,2.514557600E0
4.466682452E0,2.500499725E0,1.073809052E1,2.447558403E0
4.469089900E0,2.414358139E0,1.081705379E1,2.392523527E0
4.471498129E0,2.354537487E0,1.081944656E1,2.337488651E0
4.473906306E0,2.270788670E0,1.083858967E1,2.286940336E0
4.476313754E0,2.234896421E0,1.081705379E1,2.260619164E0
4.478721202E0,2.146062851E0,1.081944656E1,2.200798512E0
4.481129431E0,2.059921265E0,1.076441193E1,2.174477577E0
4.483537608E0,1.997707844E0,1.066152000E1,2.188834429E0
4.485945056E0,1.937887192E0,1.055862904E1,2.198405743E0
4.488352504E0,1.890030742E0,1.046291637E1,2.227119684E0
4.490760733E0,1.854138494E0,1.032861900E1,2.239083767E0
4.493168910E0,1.758425593E0,1.016829967E1,2.260619164E0
4.495576358E0,1.696212173E0,1.005823040E1,2.311167479E0
4.497983806E0,1.629213095E0,9.902696609E0,2.344667196E0
4.500392035E0,1.588235974E0,9.756435394E0,2.373380899E0
4.502800265E0,1.499701619E0,9.634401321E0,2.368595362E0
4.505207660E0,1.401595831E0,9.519545555E0,2.375773668E0
4.507615108E0,1.248455167E0,9.390333176E0,2.414058924E0
4.510023337E0,1.140778184E0,9.251250267E0,2.459522486E0
4.512431567E0,1.100100160E0,9.119645119E0,2.476272345E0
4.514838962E0,1.051944613E0,9.016754150E0,2.516950369E0
4.517246410E0,9.610173702E-1,8.892327309E0,2.552842617E0
4.519654640E0,8.198408484E-1,8.810971260E0,2.641377211E0
4.522062869E0,7.360920906E-1,8.715258598E0,2.689233541E0
4.524470265E0,7.360920906E-1,8.592925072E0,2.696412086E0
4.526877712E0,7.265207767E-1,8.506783485E0,2.694019079E0
4.529285942E0,7.432705164E-1,8.437391281E0,2.720340252E0
4.531694171E0,6.954140663E-1,8.356036186E0,2.758625507E0
4.534101567E0,4.989035130E-1,8.305786133E0,2.828017235E0
4.536509015E0,5.036891699E-1,8.224430084E0,2.856731176E0
4.538917244E0,5.255236626E-1,8.186145782E0,2.861815929E0
4.541325473E0,4.845465720E-1,8.159824371E0,2.883351326E0
4.543732869E0,4.510470629E-1,8.114061356E0,2.892922640E0
4.546140317E0,4.223332107E-1,8.102097511E0,2.950350285E0
4.548548546E0,3.792623878E-1,8.078168869E0,2.974278450E0
4.550956775E0,3.696911037E-1,8.090133667E0,2.998206854E0
4.553364171E0,3.601198196E-1,8.097311974E0,3.029313564E0
4.555771619E0,3.577269912E-1,8.114061356E0,3.055634499E0
4.558179848E0,3.314059377E-1,8.133204460E0,3.074777126E0
4.560588077E0,3.385843933E-1,8.186145782E0,3.108276606E0
4.562995473E0,3.314059377E-1,8.245965958E0,3.160918713E0
4.565402921E0,3.146561682E-1,8.303393364E0,3.180061340E0
4.567811150E0,2.093719840E-1,8.353643417E0,3.278167009E0
4.570219379E0,2.524427772E-1,8.389534950E0,3.294916868E0
4.572626775E0,2.859423161E-1,8.442177773E0,3.302095175E0
4.575034223E0,3.170489967E-1,8.480463028E0,3.340380430E0
4.577442452E0,3.768695593E-1,8.521140099E0,3.376272678E0
4.579850681E0,4.725824594E-1,8.568997383E0,3.395415306E0
4.582258077E0,5.518447161E-1,8.609675407E0,3.354737282E0
4.584665525E0,6.690930128E-1,8.624032021E0,3.318845034E0
4.587073754E0,7.217351198E-1,8.647959709E0,3.290131092E0
4.589481983E0,7.935197949E-1,8.669495583E0,3.254238844E0
4.591889379E0,8.748757839E-1,8.688637733E0,3.218346357E0
4.594296827E0,9.514461160E-1,8.693424225E0,3.177668571E0
4.596705056E0,9.969097376E-1,8.729615211E0,3.160918713E0
4.599113285E0,1.049551845E0,8.712865829E0,3.108276606E0
4.601520681E0,1.083350420E0,8.698209763E0,3.046063185E0
4.603928129E0,1.124028444E0,8.691030502E0,3.010170937E0
4.606336358E0,1.131206870E0,8.708079338E0,2.969492912E0
4.608744587E0,1.171884894E0,8.676673889E0,2.926422119E0
4.611151983E0,1.179063320E0,8.664710045E0,2.888136864E0
4.613559431E0,1.181456208E0,8.645566940E0,2.900100946E0
4.615967660E0,1.195813060E0,8.616853714E0,2.864208698E0
4.618375890E0,1.195813060E0,8.583353996E0,2.823231697E0
4.620783285E0,1.200598717E0,8.576175690E0,2.794517756E0
4.623190733E0,1.167099237E0,8.549854279E0,2.780160904E0
4.625598962E0,1.152742267E0,8.535497665E0,2.782553673E0
4.628007192E0,1.145563841E0,8.518747330E0,2.784946442E0
4.630414587E0,1.126421213E0,8.525926590E0,2.768196583E0
4.632822035E0,1.095314622E0,8.511569023E0,2.782553673E0
4.635230265E0,1.083350420E0,8.516354561E0,2.777767897E0
4.637638494E0,1.059123158E0,8.521140099E0,2.751446962E0
4.640045890E0,1.049551845E0,8.542675972E0,2.749054193E0
4.642453337E0,1.016052365E0,8.554639816E0,2.777767897E0
4.644861619E0,1.013659477E0,8.588139534E0,2.751446962E0
4.647269796E0,1.016052365E0,8.592925072E0,2.763411045E0
4.649677192E0,9.849455953E-1,8.624032021E0,2.756232500E0
4.652084640E0,9.849455953E-1,8.667102814E0,2.761018276E0
4.654492869E0,9.729815125E-1,8.681459427E0,2.828017235E0
4.656901098E0,9.897312522E-1,8.688637733E0,2.842374086E0
4.659308494E0,9.921240807E-1,8.720044136E0,2.854338408E0
4.661715942E0,9.849455953E-1,8.777471542E0,2.861815929E0
4.664124223E0,1.011266708E0,8.822935104E0,2.924029350E0
4.666532400E0,9.993025661E-1,8.854042053E0,2.919243574E0
4.668939796E0,1.023230791E0,8.904291153E0,2.967100143E0
4.671347244E0,1.044766188E0,8.930612564E0,3.024527788E0
4.673755525E0,1.056730270E0,8.980861664E0,3.086741209E0
4.676163702E0,1.073779106E0,9.023932457E0,3.139383316E0
4.678571098E0,1.121635556E0,9.071788788E0,3.199203968E0
4.680978546E0,1.150349498E0,9.074181557E0,3.232703447E0
4.683386827E0,1.174277663E0,9.093324661E0,3.278167009E0
4.685795004E0,1.210170031E0,9.148359299E0,3.349951744E0
4.688202400E0,1.243669510E0,9.179466248E0,3.409772158E0
4.690609848E0,1.267597795E0,9.189037323E0,3.500998735E0
4.693018129E0,1.351346612E0,9.198608398E0,3.575176239E0
4.695426306E0,1.420738459E0,9.181859016E0,3.637389421E0
4.697833702E0,1.478166223E0,9.177073479E0,3.706781387E0
4.700241150E0,1.530808330E0,9.174679756E0,3.752244949E0
4.702649431E0,1.573879123E0,9.177073479E0,3.778566122E0
4.705057608E0,1.636391640E0,9.191430092E0,3.812065601E0
4.707465004E0,1.681855202E0,9.179466248E0,3.833600998E0
4.709872452E0,1.693819284E0,9.201001167E0,3.874279022E0
4.712280733E0,1.763211131E0,9.212965012E0,3.886243105E0
4.714688910E0,1.811067581E0,9.215357780E0,3.893421650E0
4.717096306E0,1.887637973E0,9.241679192E0,3.883850336E0
4.719503754E0,1.968993902E0,9.229715347E0,3.874279022E0
4.721912035E0,2.062314034E0,9.208179474E0,3.857529163E0
4.724320212E0,2.146062851E0,9.165108681E0,3.871886253E0
4.726727608E0,2.266003132E0,9.143573761E0,3.852743626E0
4.729135056E0,2.366501570E0,9.095717430E0,3.835993767E0
4.731543337E0,2.467000246E0,9.050253868E0,3.804887056E0
4.733951515E0,2.577069998E0,8.976076126E0,3.742673635E0
4.736358910E0,2.689532757E0,8.918647766E0,3.721138239E0
4.738766358E0,2.804687262E0,8.834898949E0,3.654139280E0
4.741174640E0,2.912364244E0,8.688637733E0,3.591925859E0
4.743582817E0,3.022433996E0,8.597710609E0,3.474677563E0
4.745990265E0,3.130111217E0,8.497212410E0,3.354737282E0
4.748397712E0,3.218645573E0,8.406285286E0,3.244667530E0
4.750805942E0,3.314657450E0,8.332107544E0,3.148954630E0
4.753214119E0,3.405584812E0,8.212466240E0,3.050848961E0
4.755621567E0,3.477369547E0,8.128418922E0,2.945564747E0
4.758029015E0,3.568296671E0,8.011170387E0,2.830410004E0
4.760437244E0,3.608974695E0,7.927421570E0,2.732304335E0
4.762845421E0,3.659224033E0,7.867600918E0,2.634198666E0
4.765252817E0,3.671188116E0,7.771887779E0,2.576770782E0
4.767660265E0,3.661616802E0,7.716853142E0,2.545664072E0
4.770068546E0,3.604189157E0,7.680960655E0,2.536092997E0
4.772476723E0,3.525225878E0,7.601997375E0,2.555235386E0
4.774884171E0,3.443870068E0,7.508378506E0,2.593520641E0
4.777291619E0,3.398406267E0,7.403094292E0,2.658126831E0
4.779699848E0,3.319443226E0,7.309773922E0,2.765803814E0
4.782108025E0,3.261716366E0,7.214061260E0,2.888136864E0
4.784515421E0,3.230609655E0,7.154240608E0,2.959921598E0
4.786922869E0,3.158824921E0,7.084848881E0,3.081955671E0
4.789331150E0,3.106182814E0,7.005586624E0,3.168097258E0
4.791739327E0,3.058326483E0,6.969694138E0,3.273381472E0
4.794146723E0,3.058326483E0,6.938587666E0,3.337987661E0
4.796554171E0,2.993720293E0,6.938587666E0,3.441178083E0
4.798962452E0,3.015255690E0,6.919445038E0,3.491427422E0
4.801370629E0,3.029612541E0,6.964908600E0,3.575176239E0
4.803778077E0,3.063112020E0,7.005586624E0,3.680460215E0
4.806185525E0,3.156432152E0,7.075277328E0,3.807279825E0
4.808593754E0,3.252145052E0,7.197311401E0,3.895814419E0
4.811001931E0,3.419941664E0,7.271489143E0,4.022933006E0
4.813409327E0,3.601796389E0,7.367201805E0,4.183252335E0
4.815816775E0,3.809971809E0,7.431807995E0,4.355535507E0
4.818225056E0,4.008875370E0,7.491628647E0,4.518247128E0
4.820633233E0,4.240979195E0,7.532306671E0,4.676472664E0
4.823040681E0,4.540380955E0,7.578069210E0,4.832006454E0
4.825448129E0,4.851448059E0,7.570591927E0,4.966004372E0
4.827856358E0,5.160421371E0,7.568199158E0,5.112265587E0
4.830264535E0,5.430809975E0,7.529913902E0,5.215157032E0
4.832671931E0,5.677569866E0,7.489235878E0,5.330012321E0
4.835079379E0,5.861817360E0,7.472486019E0,5.404190063E0
4.837487660E0,6.031707764E0,7.412665367E0,5.397011280E0
4.839895837E0,6.105885029E0,7.362416267E0,5.389832973E0
4.842303285E0,6.137290955E0,7.297810078E0,5.334797859E0
4.844710733E0,6.091528416E0,7.221239567E0,5.286941528E0
4.847118962E0,5.976672649E0,7.173383236E0,5.196014404E0
4.849527140E0,5.876173973E0,7.106384277E0,5.083252430E0
4.851934587E0,5.715855122E0,7.094419956E0,4.910969257E0
4.854342035E0,5.483452320E0,7.051349163E0,4.750650406E0
4.856750265E0,5.239384174E0,7.012764931E0,4.537389755E0
4.859158442E0,4.987838745E0,6.964908600E0,4.317250252E0
4.861565837E0,4.729413986E0,6.943373203E0,4.101896286E0
4.863973285E0,4.449453831E0,6.902695179E0,3.883850336E0
4.866381567E0,4.114159584E0,6.897909641E0,3.704388618E0
4.868789744E0,3.716651678E0,6.936194420E0,3.465106249E0
4.871197140E0,3.295215845E0,6.991229534E0,3.294916868E0
4.873604587E0,2.831008196E0,7.025028229E0,3.151347399E0
4.876012869E0,2.409572363E0,7.068099022E0,2.976671457E0
4.878421046E0,2.014457464E0,7.096812725E0,2.835195780E0
4.880828494E0,1.621735573E0,7.120740891E0,2.720340252E0
4.883235942E0,1.207777262E0,7.118348122E0,2.567199707E0
4.885644171E0,8.006982803E-1,7.115955353E0,2.442772865E0
4.888052348E0,4.247260094E-1,7.137490749E0,2.267797709E0
4.890459744E0,8.733802289E-2,7.156633377E0,2.109871387E0
4.892867192E0,-2.288136631E-1,7.168597698E0,1.951945066E0
4.895275473E0,-5.446662307E-1,7.199704170E0,1.762912035E0
4.897683650E0,-8.608179688E-1,7.240382195E0,1.580758452E0
4.900091046E0,-1.184148073E0,7.278667450E0,1.360618830E0
4.902498494E0,-1.440180182E0,7.304988384E0,1.137787223E0
4.904906775E0,-1.715354681E0,7.376772881E0,9.200403094E-1
4.907314952E0,-1.957328916E0,7.465307713E0,7.166503668E-1
4.909722348E0,-2.091326952E0,7.515556812E0,5.153541565E-1
4.912129796E0,-2.189432621E0,7.580461979E0,3.191427290E-1
4.914538077E0,-2.249253273E0,7.680960655E0,1.181456149E-1
4.916946254E0,-2.362015009E0,7.877171993E0,-7.836493850E-2
4.919353650E0,-2.397907495E0,7.987242222E0,-2.267199457E-1
4.921761098E0,-2.330908298E0,8.097311974E0,-4.157529473E-1
4.924169379E0,-2.208575249E0,8.205287933E0,-6.122635007E-1
4.926577556E0,-2.074577332E0,8.296215057E0,-7.558328509E-1
4.928984952E0,-1.923829436E0,8.372785568E0,-9.065806866E-1
4.931392400E0,-1.700997829E0,8.427820206E0,-1.033400297E0
4.933800681E0,-1.356431365E0,8.456534386E0,-1.127019525E0
4.936208858E0,-9.613165259E-1,8.470890999E0,-1.191625714E0
4.938616254E0,-4.896313250E-1,8.482855797E0,-1.234696507E0
4.941023702E0,-3.948157281E-2,8.490034103E0,-1.284945726E0
4.943431983E0,4.247260094E-1,8.485248566E0,-1.258624673E0
4.945840160E0,8.653044701E-1,8.497212410E0,-1.165304661E0
4.948247556E0,1.329811215E0,8.528319359E0,-1.127019525E0
4.950655004E0,1.765604019E0,8.604888916E0,-1.064507008E0
4.953063285E0,2.191825628E0,8.746364594E0,-1.042971611E0
4.955471462E0,2.560320139E0,8.880363464E0,-1.038185954E0
4.957878858E0,2.912364244E0,9.100502968E0,-1.021436214E0
4.960286306E0,3.261716366E0,9.356833458E0,-9.831510186E-1
4.962694587E0,3.570689678E0,9.612865448E0,-9.831510186E-1
4.965102765E0,3.826721668E0,9.936196327E0,-9.879366755E-1
4.967510160E0,4.037589073E0,1.026640511E1,-9.831510186E-1
4.969917608E0,4.190729618E0,1.062323570E1,-9.520443082E-1
4.972325837E0,4.351048946E0,1.101356411E1,-8.778668046E-1
4.974734067E0,4.494917393E0,1.140120125E1,-7.606185079E-1
4.977141462E0,4.528416634E0,1.179631615E1,-5.596213937E-1
4.979548910E0,4.542773724E0,1.221535969E1,-3.415754437E-1
4.981957192E0,4.504488468E0,1.271815109E1,-4.247260094E-2
4.984365369E0,4.490131855E0,1.315603828E1,2.042872310E-1
4.986772765E0,4.494917393E0,1.358465195E1,4.507479668E-1
4.989180212E0,4.396512508E0,1.402762318E1,7.286145091E-1
4.991588494E0,4.363012791E0,1.441555977E1,1.051645517E0
4.993996671E0,4.274478436E0,1.476012611E1,1.367797256E0
4.996404067E0,4.114159584E0,1.504517174E1,1.652543187E0
4.998811515E0,3.913162231E0,1.528684616E1,1.906481385E0
5.001219744E0,3.654438496E0,1.544267941E1,2.160120726E0
5.003627973E0,3.360121250E0,1.560778427E1,2.411666155E0
5.006035369E0,3.005684376E0,1.572024632E1,2.627020121E0
5.008442817E0,2.598605394E0,1.582074547E1,2.787339211E0
5.010851098E0,2.122134686E0,1.586381626E1,2.952743053E0
5.013259275E0,1.641177177E0,1.589252949E1,3.060420275E0
5.015666671E0,1.152742267E0,1.590927982E1,3.125026464E0
5.018074119E0,6.068796515E-1,1.586381626E1,3.194418192E0
5.020482348E0,7.537391037E-2,1.578485298E1,3.280559778E0
5.022890577E0,-4.298107624E-1,1.568914032E1,3.306880951E0
5.025297973E0,-9.158528447E-1,1.556471348E1,3.297309637E0
5.027705421E0,-1.392323732E0,1.541845226E1,3.280559778E0
5.030113650E0,-1.868794441E0,1.529881096E1,3.215953588E0
5.032521879E0,-2.424228430E0,1.529163265E1,3.019742250E0
5.034929275E0,-2.943770170E0,1.530359650E1,2.751446962E0
5.037336723E0,-3.348157167E0,1.525813293E1,2.361416817E0
5.039744952E0,-3.815056562E0,1.531316757E1,1.829911113E0
5.042153181E0,-4.186243057E0,1.536341667E1,1.264905930E0
5.044560577E0,-4.325026989E0,1.526291847E1,6.807580590E-1
5.046968025E0,-4.363312244E0,1.510738468E1,2.018944174E-1
5.049376254E0,-4.281956196E0,1.484626770E1,-2.673979402E-1
5.051784483E0,-3.972982883E0,1.445863056E1,-6.553342938E-1
5.054191879E0,-3.417548895E0,1.387926865E1,-9.735797048E-1
5.056599327E0,-2.730509758E0,1.323769283E1,-1.155733347E0
5.059007556E0,-2.100898266E0,1.266072369E1,-1.258624673E0
5.061415785E0,-1.440180182E0,1.211007500E1,-1.304088354E0
5.063823181E0,-8.895317912E-1,1.162642574E1,-1.304088354E0
5.066230629E0,-3.867399693E-1,1.121695423E1,-1.270588875E0
5.068638858E0,1.794617064E-2,1.080508995E1,-1.136590719E0
5.071047087E0,3.457628787E-1,1.047966576E1,-9.640084505E-1
5.073454483E0,7.815557122E-1,1.014197922E1,-7.941179872E-1
5.075861931E0,1.006481051E0,9.912267685E0,-5.237290859E-1
5.078270160E0,1.171884894E0,9.684650421E0,-2.889333367E-1
5.080678390E0,1.346560955E0,9.493225098E0,-7.836493850E-2
5.083085785E0,1.523629785E0,9.301798820E0,2.210369855E-1
5.085493233E0,1.516451359E0,9.186644554E0,5.895316601E-1
5.087901462E0,1.475773335E0,9.062217712E0,9.631111026E-1
5.090309692E0,1.492523074E0,8.944969177E0,1.310369492E0
5.092717087E0,1.470987678E0,8.882756233E0,1.700399637E0
5.095124535E0,1.447059512E0,8.837292671E0,2.030908108E0
5.097532765E0,1.370489120E0,8.751151085E0,2.313560486E0
