"Time (s)","Acceleration x (m/s^2)","Acceleration y (m/s^2)","Acceleration z (m/s^2)"
2.616832000E-3,-4.083406925E0,4.914252281E0,9.253091812E0
6.587145000E-3,-4.043021679E0,5.071915150E0,9.282204628E0
1.055902000E-2,-3.923206091E0,5.110787392E0,9.344616890E0
1.452933200E-2,-3.743410826E0,5.085677147E0,9.379955292E0
1.849964500E-2,-3.501299858E0,5.081884861E0,9.358780861E0
2.246995700E-2,-3.262339354E0,5.080429077E0,9.234819412E0
2.644027000E-2,-3.024077892E0,5.079634190E0,8.915403366E0
3.041058200E-2,-2.863292933E0,5.040599346E0,8.610199928E0
3.438089500E-2,-2.658559799E0,5.005414009E0,8.136828423E0
3.835277000E-2,-2.450178146E0,4.960919857E0,7.805806160E0
4.232152000E-2,-2.201286554E0,4.878990173E0,7.464172840E0
4.629339500E-2,-1.896935582E0,4.791861057E0,7.131953239E0
5.026370700E-2,-1.710877419E0,4.709815979E0,6.957253456E0
5.423402000E-2,-1.563145518E0,4.669105053E0,6.854187489E0
5.820433200E-2,-1.567656279E0,4.892761707E0,7.058815479E0
6.217464500E-2,-1.559132934E0,4.883740902E0,7.374696732E0
6.614495700E-2,-1.725577712E0,4.774478436E0,7.487262726E0
7.011683200E-2,-1.944302440E0,4.734016418E0,7.374169827E0
7.408714500E-2,-2.122507811E0,4.686793327E0,7.332261562E0
7.805745700E-2,-2.173053980E0,4.609498978E0,7.424141407E0
8.202777000E-2,-2.169376373E0,4.561720371E0,7.626097679E0
8.599808200E-2,-2.137438059E0,4.525500774E0,7.919664860E0
8.996839500E-2,-2.060631752E0,4.485134602E0,8.252430916E0
9.394027000E-2,-1.979487658E0,4.349048138E0,8.604406357E0
9.791058200E-2,-1.964528680E0,4.086749077E0,8.788434982E0
1.018808950E-1,-1.966424942E0,3.857643127E0,8.963546753E0
1.058512070E-1,-2.013485432E0,3.578096151E0,9.073171616E0
1.098215200E-1,-2.062307835E0,3.461057901E0,9.124963760E0
1.137918320E-1,-2.085024118E0,3.642002106E0,9.272619247E0
1.177637070E-1,-2.279538631E0,4.053804874E0,9.146463394E0
1.217340200E-1,-2.636648178E0,4.449738979E0,8.756112099E0
1.257027700E-1,-3.051314116E0,4.821022034E0,8.271737099E0
1.296746450E-1,-3.320288658E0,5.112971306E0,8.092210770E0
1.336449570E-1,-3.330535650E0,5.331379414E0,8.186924934E0
1.376152700E-1,-3.513452530E0,5.492768288E0,7.709300995E0
1.415855820E-1,-3.674017429E0,5.584906101E0,7.521039963E0
1.455558950E-1,-3.810764551E0,5.608312130E0,7.463263035E0
1.495277700E-1,-3.670684814E0,5.674468517E0,7.256537914E0
1.534980820E-1,-3.658502817E0,5.844619751E0,7.227290630E0
1.574683950E-1,-3.465616465E0,5.967566967E0,7.033436298E0
1.614512070E-1,-3.364590883E0,6.104859829E0,7.232672691E0
1.654090200E-1,-3.606539249E0,6.155214787E0,7.591208935E0
1.693793320E-1,-3.722150326E0,6.322828293E0,7.825419426E0
1.733496450E-1,-3.982381105E0,6.407305241E0,8.442003250E0
1.773215200E-1,-4.061428070E0,6.530558586E0,8.643461227E0
1.812902700E-1,-4.211688042E0,6.598860264E0,9.215224266E0
1.852621450E-1,-4.153709888E0,6.702232361E0,9.249663353E0
1.892324570E-1,-4.252915859E0,6.595231056E0,9.426700592E0
1.932027700E-1,-4.090388298E0,6.546982765E0,9.282665253E0
1.971730820E-1,-4.221130848E0,6.395879745E0,9.180355072E0
2.011433950E-1,-4.237871170E0,6.188340664E0,9.297078133E0
2.051137070E-1,-4.114866734E0,5.823454857E0,9.360964775E0
2.090855820E-1,-3.848746300E0,5.476161480E0,9.207802773E0
2.130558950E-1,-3.829027653E0,5.081874847E0,8.619614601E0
2.170262070E-1,-3.694521427E0,4.713407040E0,8.614682198E0
2.209965200E-1,-3.393733025E0,4.526659489E0,8.843721390E0
2.249668320E-1,-2.999580383E0,4.293636799E0,8.685857773E0
2.289371450E-1,-2.638640165E0,4.169981003E0,8.372054100E0
2.329090200E-1,-2.433907270E0,4.202168941E0,8.118239403E0
2.368793320E-1,-2.240867376E0,4.357945442E0,7.845626354E0
2.408496450E-1,-2.154934883E0,4.557860851E0,7.588288307E0
2.448199570E-1,-2.062259912E0,4.794628620E0,7.301769733E0
2.487902700E-1,-1.992320538E0,5.035073280E0,7.045943737E0
2.527605820E-1,-1.924488068E0,5.249459267E0,6.839640617E0
2.567308950E-1,-1.869086146E0,5.447077274E0,6.610496044E0
2.607012070E-1,-1.835136533E0,5.591724873E0,6.404125690E0
2.646715200E-1,-1.856856704E0,5.710583210E0,6.186789513E0
2.686433950E-1,-1.850938201E0,5.858630657E0,6.046613693E0
2.726137070E-1,-1.869699121E0,6.012146950E0,5.934047699E0
2.765840200E-1,-1.879352570E0,6.103059769E0,5.868485451E0
2.805543320E-1,-1.900593877E0,6.165011883E0,5.808007717E0
2.845246450E-1,-1.929774404E0,6.207332134E0,5.769288540E0
2.884949570E-1,-1.989246488E0,6.265252590E0,5.793163776E0
2.924668320E-1,-2.048287392E0,6.312829971E0,5.839467049E0
2.964355820E-1,-2.114329100E0,6.373575687E0,5.891670704E0
3.004058950E-1,-2.162414312E0,6.429523468E0,5.997370243E0
3.043777700E-1,-2.239727736E0,6.477129459E0,6.074893951E0
3.083480820E-1,-2.358547449E0,6.484503746E0,6.134202957E0
3.123183950E-1,-2.445207834E0,6.453742981E0,6.185812473E0
3.162887070E-1,-2.506097078E0,6.365425587E0,6.269456387E0
3.202590200E-1,-2.503300667E0,6.168795109E0,6.364094734E0
3.242308950E-1,-2.406584501E0,5.832744598E0,6.219638348E0
3.282012070E-1,-2.099398851E0,5.259016991E0,5.881844521E0
3.321715200E-1,-1.725367069E0,4.747108459E0,5.309439182E0
3.361418320E-1,-1.651242495E0,4.895615578E0,6.211526394E0
3.401121450E-1,-1.996266246E0,5.413864613E0,7.823935032E0
3.440824570E-1,-2.380401611E0,5.910833836E0,8.888511658E0
3.480543320E-1,-2.464591265E0,6.078801155E0,9.588758469E0
3.520246450E-1,-2.364676476E0,5.894515038E0,9.591631889E0
3.559949570E-1,-2.489883661E0,5.709472179E0,8.992486954E0
3.599652700E-1,-2.701463938E0,5.455169201E0,7.970958710E0
3.639355820E-1,-2.757200956E0,5.275288105E0,7.147630215E0
3.679058950E-1,-2.599547625E0,5.178543568E0,6.511605740E0
3.718762070E-1,-2.378486156E0,5.131865978E0,6.372138977E0
3.758465200E-1,-2.079527140E0,5.187181473E0,6.710698128E0
3.798168320E-1,-1.815954089E0,5.261708260E0,7.182786942E0
3.837871450E-1,-1.601960301E0,5.252438068E0,7.445861816E0
3.877590200E-1,-1.432230592E0,5.196892738E0,7.518214703E0
3.917293320E-1,-1.318573117E0,5.104505062E0,7.461816788E0
3.956996450E-1,-1.318228245E0,5.037342548E0,7.408512115E0
3.996699570E-1,-1.484759450E0,5.023083210E0,7.560113430E0
4.036402700E-1,-1.726123691E0,5.062261581E0,7.603611469E0
4.076121450E-1,-2.130236149E0,5.097963810E0,7.688049793E0
4.115808950E-1,-2.571037292E0,5.133120537E0,7.810230255E0
4.155527700E-1,-2.939524174E0,5.111180305E0,7.913755894E0
4.195230820E-1,-3.249726534E0,4.939832211E0,8.081187248E0
4.234933950E-1,-3.362771273E0,4.699865818E0,8.323241234E0
4.274637070E-1,-3.304573059E0,4.257848263E0,8.681394577E0
4.314355820E-1,-3.052846670E0,3.718300581E0,8.852388382E0
4.354043320E-1,-2.697087288E0,3.230572939E0,9.033658028E0
4.393746450E-1,-2.187122345E0,2.711883545E0,9.269869804E0
4.433465200E-1,-1.673480034E0,2.259609461E0,9.512968063E0
4.473168320E-1,-1.157251716E0,1.831114173E0,9.856870651E0
4.512871450E-1,-8.572678566E-1,1.557064295E0,1.016101074E1
4.552574570E-1,-5.788605213E-1,1.354639292E0,1.053044605E1
4.592277700E-1,-2.483553290E-1,1.244898677E0,1.108731842E1
4.631980820E-1,8.018659800E-2,1.109089971E0,1.130820656E1
4.671699570E-1,3.501663506E-1,1.046534300E0,1.132433510E1
4.711402700E-1,4.426687360E-1,1.096582651E0,1.116505241E1
4.751105820E-1,3.541119993E-1,1.161666632E0,1.074163342E1
4.790808950E-1,7.773493975E-2,1.333589435E0,1.014943218E1
4.830512070E-1,-3.661596477E-1,1.576256275E0,9.632581711E0
4.870215200E-1,-1.029296041E0,1.870053411E0,8.942515373E0
4.909918320E-1,-1.843334198E0,2.124068499E0,8.204450607E0
4.949637070E-1,-2.536742926E0,2.287391663E0,7.680235386E0
4.989340200E-1,-3.322931528E0,2.475901365E0,7.322876453E0
5.029043320E-1,-3.959387302E0,2.597000360E0,7.272923946E0
5.068746450E-1,-4.567303658E0,2.667715311E0,7.518626690E0
5.108449570E-1,-5.010403156E0,2.677464485E0,8.293428421E0
5.148152700E-1,-5.213269234E0,2.572244167E0,8.869156837E0
5.187855820E-1,-5.357035637E0,2.322797060E0,9.709742546E0
5.227574570E-1,-5.370874405E0,1.966750503E0,1.046155071E1
5.267277700E-1,-5.315395832E0,1.650553107E0,1.104948997E1
5.306980820E-1,-5.220068455E0,1.292342186E0,1.157154083E1
5.346683950E-1,-6.218038559E0,9.819100052E-2,1.152742004E1
5.386387070E-1,-7.906573296E0,-1.401153922E0,1.131089878E1
5.426090200E-1,-6.225077629E0,1.328925490E0,1.260402584E1
5.465793320E-1,-4.932228088E0,2.603540897E0,1.332642365E1
5.505512070E-1,-5.092974663E0,2.037417650E0,1.289381027E1
5.545215200E-1,-5.837542534E0,1.228560686E0,1.195573330E1
5.584918320E-1,-6.587885380E0,5.976023078E-1,1.082431030E1
5.624621450E-1,-6.835953712E0,4.050701857E-1,1.005564785E1
5.664324570E-1,-6.828406811E0,3.247878253E-1,9.555431366E0
5.704027700E-1,-6.709549427E0,1.441692561E-1,9.337817192E0
5.743730820E-1,-6.508666039E0,-1.433935314E-1,9.527342796E0
5.783433950E-1,-6.267914772E0,-3.971501887E-1,9.936272621E0
5.823152700E-1,-5.961638451E0,-6.392422318E-1,1.061819839E1
5.862855820E-1,-5.673491478E0,-7.374524474E-1,1.132025528E1
5.902543320E-1,-5.394959927E0,-6.928819418E-1,1.213268471E1
5.942262070E-1,-5.220882416E0,-6.271467805E-1,1.259329033E1
5.981965200E-1,-5.099908352E0,-5.575329661E-1,1.275818348E1
6.021668320E-1,-5.025956154E0,-4.548313022E-1,1.262038326E1
6.061387070E-1,-5.014961720E0,-2.911923826E-1,1.230873394E1
6.101090200E-1,-5.061189175E0,6.962338462E-3,1.179915237E1
6.140777700E-1,-5.125794411E0,3.403309882E-1,1.123545170E1
6.180496450E-1,-5.261133671E0,7.125144005E-1,1.049724293E1
6.220199570E-1,-5.359889507E0,1.082073808E0,9.712242126E0
6.259902700E-1,-5.399796486E0,1.363564968E0,9.049535751E0
6.299652700E-1,-5.341004372E0,1.652947307E0,8.382684708E0
6.339308950E-1,-5.178974152E0,1.874305487E0,7.899045944E0
6.379012070E-1,-4.943126678E0,2.119079113E0,7.449740887E0
6.418730820E-1,-4.648428917E0,2.331052303E0,7.108212471E0
6.458433950E-1,-4.347582817E0,2.446701765E0,6.896383286E0
6.498137070E-1,-3.957826138E0,2.513921499E0,6.699953079E0
6.537840200E-1,-3.548724174E0,2.575940609E0,6.501196384E0
6.577543320E-1,-3.191049576E0,2.591522217E0,6.325576782E0
6.617246450E-1,-2.803706169E0,2.627741814E0,6.119004726E0
6.656965200E-1,-2.648619175E0,2.628230333E0,6.105865955E0
6.696668320E-1,-2.410060883E0,2.736294985E0,6.041490078E0
6.736371450E-1,-2.124432564E0,3.013122082E0,5.837216854E0
6.776074570E-1,-1.926479936E0,3.193098783E0,5.482683659E0
6.815777700E-1,-1.827934742E0,3.343224764E0,5.145991802E0
6.855480820E-1,-1.768759608E0,3.432442427E0,4.921252728E0
6.895183950E-1,-1.806559205E0,3.487576246E0,4.804358482E0
6.934887070E-1,-1.937091231E0,3.473373890E0,4.835646152E0
6.974590200E-1,-2.028090000E0,3.417282581E0,4.982965946E0
7.014308950E-1,-2.135407686E0,3.308920860E0,5.332672596E0
7.054012070E-1,-2.279117107E0,3.194669485E0,5.714289188E0
7.093715200E-1,-2.422281027E0,3.024585485E0,6.281552315E0
7.133418320E-1,-2.557352304E0,2.768999577E0,6.978992462E0
7.173121450E-1,-2.688841820E0,2.513327599E0,7.586842060E0
7.212824570E-1,-2.894206762E0,2.285390139E0,8.361184120E0
7.252543320E-1,-3.128455639E0,2.176597357E0,9.069015503E0
7.292230820E-1,-3.393301964E0,2.050585985E0,9.829471588E0
7.331949570E-1,-3.594060898E0,1.875857115E0,1.057261276E1
7.371652700E-1,-3.747825861E0,1.747240424E0,1.122889233E1
7.411355820E-1,-3.876461744E0,1.780136824E0,1.238866329E1
7.451058950E-1,-4.044582367E0,1.852997184E0,1.225580406E1
7.490793320E-1,-4.201278210E0,1.971146226E0,1.166836262E1
7.530465200E-1,-4.332997322E0,2.111637831E0,1.083271885E1
7.570183950E-1,-4.402218819E0,2.268314362E0,1.009809208E1
7.609887070E-1,-4.466833591E0,2.545228004E0,9.348620415E0
7.649590200E-1,-4.536916733E0,2.868224859E0,8.697176933E0
7.689293320E-1,-4.557161808E0,3.123351097E0,8.248541832E0
7.728996450E-1,-4.521823406E0,3.309351921E0,7.887697220E0
7.768699570E-1,-4.412714958E0,3.362436056E0,7.598793983E0
7.808418320E-1,-4.187027931E0,3.298041582E0,7.390670776E0
7.848105820E-1,-3.905431509E0,3.206765175E0,7.481976032E0
7.887824570E-1,-3.676670074E0,3.147666454E0,7.540452003E0
7.927527700E-1,-3.380047798E0,3.067336082E0,7.657336712E0
7.967230820E-1,-3.163573742E0,2.928223610E0,8.091032028E0
8.006933950E-1,-4.097618580E0,2.092953682E0,1.219525909E1
8.046652700E-1,-5.738183022E0,1.433150053E0,1.764845467E1
8.086340200E-1,-5.151718616E0,2.137533665E0,1.405134010E1
8.126058950E-1,-4.209179401E0,3.060565472E0,9.828284264E0
8.165762070E-1,-4.463854790E0,2.992043495E0,9.108472824E0
8.205465200E-1,-5.324244976E0,2.277403116E0,1.028832531E1
8.245168320E-1,-5.802472115E0,1.383589983E0,1.298617840E1
8.284871450E-1,-5.631210327E0,7.304613590E-1,1.509117985E1
8.324574570E-1,-4.198079586E0,5.541235805E-1,1.347703838E1
8.364277700E-1,-2.614860773E0,6.103107333E-1,1.113382339E1
8.403996450E-1,-1.679168582E0,6.616519690E-1,9.994662285E0
8.443699570E-1,-1.562436938E0,7.528614998E-1,1.027875805E1
8.483402700E-1,-1.587221622E0,8.984577060E-1,1.074727440E1
8.523105820E-1,-1.468287230E0,1.206409574E0,1.114622593E1
8.562808950E-1,-1.302254200E0,1.473027825E0,1.120655823E1
8.602512070E-1,-1.217853785E0,1.687548399E0,1.085383606E1
8.642215200E-1,-1.138730168E0,1.842031717E0,1.066233826E1
8.681933950E-1,-1.119883060E0,1.936727166E0,1.035168552E1
8.721637070E-1,-1.270918846E0,1.921605468E0,9.881091118E0
8.761340200E-1,-1.407618165E0,1.899473429E0,9.432838440E0
8.801043320E-1,-1.423448682E0,1.836592197E0,9.022989273E0
8.840746450E-1,-1.629388332E0,1.856952429E0,8.370741844E0
8.880449570E-1,-1.906186819E0,1.912708640E0,7.794630051E0
8.920152700E-1,-2.222164154E0,2.054225206E0,7.228295803E0
8.959871450E-1,-2.500561714E0,2.178704262E0,7.005338192E0
8.999574570E-1,-2.679647923E0,1.953007817E0,7.635856628E0
9.039277700E-1,-2.379827023E0,1.540381432E0,8.825439453E0
9.078980820E-1,-2.101687670E0,2.061991930E0,8.175920486E0
9.118683950E-1,-2.217672348E0,2.312511444E0,8.021351814E0
9.158387070E-1,-2.447544336E0,2.264167786E0,8.476718903E0
9.198105820E-1,-2.574102163E0,2.236653566E0,8.751047134E0
9.237808950E-1,-2.402361155E0,2.266858816E0,8.736259460E0
9.277496450E-1,-2.156457424E0,2.235839605E0,8.593441010E0
9.317215200E-1,-1.877666950E0,2.156850100E0,8.400688171E0
9.356918320E-1,-1.642815113E0,2.122028828E0,8.182174683E0
9.396621450E-1,-1.509189844E0,2.076232672E0,7.991596222E0
9.436324570E-1,-1.431952834E0,2.018771648E0,7.740693569E0
9.476027700E-1,-1.427882671E0,1.970475793E0,7.535663605E0
9.515730820E-1,-1.453845501E0,1.932522893E0,7.304584980E0
9.555558950E-1,-1.554219961E0,1.915524125E0,7.126973629E0
9.595152700E-1,-1.660599113E0,1.940605879E0,7.026666164E0
9.634855820E-1,-1.900316119E0,2.083300352E0,7.065777779E0
9.674558950E-1,-2.250118732E0,2.257598162E0,7.123544693E0
9.714262070E-1,-2.793765068E0,2.411708117E0,7.035284996E0
9.753965200E-1,-3.813896179E0,2.542374134E0,7.140160561E0
9.793683950E-1,-6.151364803E0,2.383226633E0,9.320042610E0
9.833371450E-1,-6.935992718E0,1.951858521E0,9.580771446E0
9.873090200E-1,-6.687608719E0,2.720856905E0,7.591410160E0
9.912793320E-1,-7.110099316E0,3.429569244E0,7.223957539E0
9.952496450E-1,-9.362401009E0,3.868800163E0,8.959437370E0
9.992199570E-1,-1.359243870E1,4.521727562E0,1.100123215E1
1.003190270E0,-1.221079254E1,3.831574917E0,1.095968819E1
1.007160582E0,-9.246455193E0,3.221963406E0,1.013569069E1
1.011132457E0,-8.286110878E0,2.398894310E0,1.066933918E1
1.015102770E0,-7.552940369E0,1.142704606E0,1.199178982E1
1.019073082E0,-5.769412994E0,-5.802587047E-2,1.263814831E1
1.023043395E0,-4.476534843E0,-5.481572747E-1,1.282207966E1
1.027013707E0,-3.900116205E0,-5.643420219E-1,1.240745258E1
1.030984020E0,-3.766519785E0,-2.326972485E-1,1.139377594E1
1.034954332E0,-3.672935247E0,4.208432138E-1,1.018936825E1
1.038926207E0,-3.588171005E0,1.194639683E0,9.942047119E0
1.042894957E0,-3.419073343E0,1.667772174E0,9.498535156E0
1.046866832E0,-3.164789677E0,1.471725345E0,9.011584282E0
1.050837145E0,-2.734312534E0,1.109884858E0,8.646563530E0
1.054807457E0,-2.396021128E0,5.571211576E-1,7.910844803E0
1.058777770E0,-2.185800791E0,2.370930016E-1,7.500085831E0
1.062748082E0,-2.209445953E0,2.677675337E-2,7.220605850E0
1.066718395E0,-2.488628864E0,-9.414958954E-2,7.105205536E0
1.070690270E0,-2.839006186E0,-1.379443258E-1,7.056181431E0
1.074660582E0,-3.191221952E0,-4.031835496E-2,7.080544949E0
1.078630895E0,-3.268516302E0,7.217081636E-2,7.174780846E0
1.082601207E0,-3.116494179E0,2.480584532E-1,7.429188251E0
1.086571520E0,-2.866826773E0,5.696572065E-1,7.681135178E0
1.090541832E0,-2.598072767E0,8.514738679E-1,7.966342449E0
1.094512145E0,-2.390476227E0,1.125782371E0,8.351387978E0
1.098482457E0,-2.310902596E0,1.170831680E0,8.823006630E0
1.102452770E0,-2.401662111E0,1.138462067E0,9.346101761E0
1.106424645E0,-2.558961153E0,1.069892049E0,9.587340355E0
1.110394957E0,-2.744981050E0,1.064768553E0,9.608592033E0
1.114365270E0,-2.935425282E0,1.094648242E0,9.665843010E0
1.118335582E0,-3.075198889E0,1.117019534E0,9.773112297E0
1.122305895E0,-3.133492947E0,1.154618144E0,9.907732964E0
1.126276207E0,-3.045922518E0,1.221990943E0,9.914858818E0
1.130248082E0,-2.875033855E0,1.258507371E0,9.828351974E0
1.134218395E0,-2.634636879E0,1.267011642E0,9.728972435E0
1.138188707E0,-2.492067099E0,1.226530433E0,9.747360229E0
1.142159020E0,-2.329663515E0,1.139477134E0,9.842391014E0
1.146129332E0,-2.157453299E0,1.033366203E0,9.869943619E0
1.150099645E0,-2.130983114E0,9.979224205E-1,9.911151886E0
1.154071520E0,-2.367693186E0,1.055076838E0,9.998473167E0
1.158040270E0,-2.816510201E0,1.198250175E0,1.015040016E1
1.162012145E0,-3.114856482E0,1.309724092E0,1.023601627E1
1.165982457E0,-3.302858591E0,1.442573667E0,1.072295856E1
1.169952770E0,-3.265854120E0,1.390667200E0,1.107847881E1
1.173923082E0,-3.215853453E0,1.214607358E0,1.101926517E1
1.177893395E0,-3.311468363E0,1.101495624E0,1.060898495E1
1.181863707E0,-3.487288713E0,1.188012481E0,1.016387463E1
1.185835582E0,-3.660705566E0,1.412272573E0,9.743979454E0
1.189805895E0,-3.648514509E0,1.588964581E0,9.680523872E0
1.193776207E0,-3.430220604E0,1.615683913E0,9.901517868E0
1.197746520E0,-3.175123215E0,1.398644805E0,1.007573891E1
1.201716832E0,-3.032160759E0,1.189410686E0,1.048102093E1
1.205687145E0,-2.941113949E0,1.123713732E0,1.114985466E1
1.209657457E0,-2.872668505E0,1.209943414E0,1.114078522E1
1.213627770E0,-2.866836071E0,1.372777820E0,1.068197918E1
1.217598082E0,-2.876240730E0,1.602305174E0,1.018074894E1
1.221569957E0,-2.965793371E0,1.812650204E0,1.004663563E1
1.225549645E0,-3.118007183E0,2.049388647E0,1.019857121E1
1.229510582E0,-3.231367826E0,2.179164171E0,1.047863579E1
1.233480895E0,-3.202914953E0,2.176578283E0,1.078401089E1
1.237451207E0,-3.073034525E0,2.020562649E0,1.086910152E1
1.241421520E0,-2.882369757E0,1.826574802E0,1.070814323E1
1.245393395E0,-2.844024420E0,1.728144407E0,1.053172016E1
1.249363707E0,-2.899387836E0,1.677588344E0,1.040556431E1
1.253334020E0,-2.881268501E0,1.657477021E0,1.041492081E1
1.257304332E0,-2.827983141E0,1.625768304E0,1.049395847E1
1.261274645E0,-2.701846838E0,1.596396208E0,1.060792255E1
1.265244957E0,-2.411717892E0,1.530488610E0,1.062938404E1
1.269216832E0,-2.237554073E0,1.502897859E0,1.048985004E1
1.273185582E0,-2.301909924E0,1.583477139E0,1.032183456E1
1.277155895E0,-2.556135893E0,1.740536690E0,1.026025581E1
1.281127770E0,-2.753504276E0,1.897807121E0,1.026578140E1
1.285098082E0,-2.801637411E0,1.915236831E0,1.036042881E1
1.289068395E0,-2.807929516E0,1.829294562E0,1.004304409E1
1.293038707E0,-2.668720961E0,1.921519279E0,9.557643890E0
1.297009020E0,-2.586379290E0,2.059109211E0,9.180307388E0
1.300979332E0,-2.540640593E0,2.237917662E0,9.050436974E0
1.304951207E0,-2.570539474E0,2.419963360E0,9.083792686E0
1.308921520E0,-2.554239750E0,2.484415293E0,9.216728210E0
1.312891832E0,-2.613941669E0,2.497621536E0,9.475992203E0
1.316862145E0,-2.795239925E0,2.817238092E0,9.675803185E0
1.320832457E0,-2.752345562E0,3.100175142E0,9.768764496E0
1.324804332E0,-2.555149317E0,3.191566706E0,9.897227287E0
1.328774645E0,-2.466449261E0,3.149792433E0,9.936903954E0
1.332743395E0,-2.497995138E0,3.139258146E0,9.896548271E0
1.336715270E0,-2.553004503E0,3.078158140E0,9.520676613E0
1.340685582E0,-2.549920559E0,2.907384634E0,9.201319695E0
1.344665270E0,-2.601156473E0,2.695641279E0,8.825611115E0
1.348626207E0,-2.790154696E0,2.513815880E0,8.499846458E0
1.352596520E0,-2.960564375E0,2.396069050E0,8.412152290E0
1.356566832E0,-3.110240459E0,2.277939320E0,8.469622612E0
1.360538707E0,-3.137658596E0,2.222585201E0,8.686097145E0
1.364509020E0,-3.093136311E0,2.239277601E0,9.014054298E0
1.368479332E0,-3.051314116E0,2.372673035E0,9.300928116E0
1.372449645E0,-3.146689653E0,2.808676243E0,9.675169945E0
1.376419957E0,-3.541637182E0,4.060700417E0,9.684928894E0
1.380390270E0,-3.256114244E0,3.849675179E0,1.011250496E1
1.384360582E0,-2.866414785E0,3.351594925E0,1.000688171E1
1.388332457E0,-2.450752735E0,2.783384085E0,9.747235298E0
1.392302770E0,-2.235916376E0,2.398128271E0,9.539945602E0
1.396273082E0,-2.197541952E0,2.239086151E0,9.408139229E0
1.400243395E0,-2.200817108E0,2.398137808E0,9.429601669E0
1.404213707E0,-2.158717632E0,2.666154385E0,9.507681847E0
1.408184020E0,-2.032370806E0,3.055326939E0,9.574048996E0
1.412154332E0,-1.906071901E0,3.397850990E0,9.566722870E0
1.416124645E0,-1.703033924E0,3.696130276E0,9.433050156E0
1.420096520E0,-1.635201454E0,3.860133171E0,9.224476814E0
1.424066832E0,-1.658099651E0,3.961245060E0,9.087853432E0
1.428037145E0,-1.623192191E0,4.013534546E0,8.948146820E0
1.432007457E0,-1.479290962E0,3.999686241E0,8.753776550E0
1.435977770E0,-1.374080181E0,3.952817440E0,8.543028831E0
1.439948082E0,-1.366342187E0,3.836315632E0,8.337663651E0
1.443919957E0,-1.400023818E0,3.716088295E0,8.193704605E0
1.447890270E0,-1.484654069E0,3.577272415E0,8.031789780E0
1.451860582E0,-1.581609607E0,3.489960670E0,7.913947582E0
1.455830895E0,-1.746665835E0,3.414399624E0,7.878973007E0
1.459801207E0,-1.872562647E0,3.277652502E0,8.038331032E0
1.463771520E0,-1.907259345E0,3.062969208E0,8.289722443E0
1.467743395E0,-1.937905192E0,2.897424459E0,8.520800591E0
1.471712145E0,-1.861089587E0,2.753695726E0,8.698163033E0
1.475684020E0,-1.732406020E0,2.715350389E0,8.851535797E0
1.479654332E0,-1.582366228E0,2.793161869E0,8.936003685E0
1.483624645E0,-1.481378794E0,2.928922653E0,8.969292641E0
1.487594957E0,-1.464523554E0,3.076185226E0,9.008394241E0
1.491565270E0,-1.514773130E0,3.231865644E0,9.006488800E0
1.495535582E0,-1.526657939E0,3.358815908E0,8.938004494E0
1.499507457E0,-1.502936125E0,3.436771154E0,8.730226517E0
1.503477770E0,-1.432814837E0,3.478612423E0,8.525100708E0
1.507448082E0,-1.334700465E0,3.480633020E0,8.235153198E0
1.511418395E0,-1.242370367E0,3.473986626E0,7.978495121E0
1.515388707E0,-1.202492595E0,3.486187458E0,7.726692200E0
1.519359020E0,-1.167939425E0,3.520874739E0,7.542837143E0
1.523329332E0,-1.099637747E0,3.559852362E0,7.476268291E0
1.527301207E0,-9.834710360E-1,3.588716745E0,7.374744415E0
1.531269957E0,-9.723715186E-1,3.652287483E0,7.238945484E0
1.535241832E0,-1.004520774E0,3.744349718E0,7.211900234E0
1.539212145E0,-1.094169259E0,3.826355696E0,7.323977947E0
1.543182457E0,-1.260470629E0,3.841094494E0,7.560352325E0
1.547152770E0,-1.380324364E0,3.680902958E0,8.040131569E0
1.551123082E0,-1.331846595E0,3.456011057E0,8.514968872E0
1.555093395E0,-1.343989849E0,3.284394503E0,8.823082924E0
1.559065270E0,-1.343013048E0,3.108449459E0,9.004027367E0
1.563035582E0,-1.284814835E0,2.936287403E0,8.988034248E0
1.567005895E0,-1.204781532E0,2.798266411E0,8.917040825E0
1.570976207E0,-1.239353776E0,2.790193081E0,8.898663521E0
1.574946520E0,-1.387698531E0,2.857412577E0,8.872374535E0
1.578916832E0,-1.691877007E0,2.965104103E0,8.793366432E0
1.582887145E0,-1.998535872E0,3.025399446E0,8.695883751E0
1.586857457E0,-2.136221647E0,3.003784657E0,8.567257881E0
1.590827770E0,-2.144745111E0,2.919259787E0,8.397346497E0
1.594799645E0,-2.066694021E0,2.798476934E0,8.284273148E0
1.598769957E0,-2.112126350E0,2.693390608E0,8.153539658E0
1.602740270E0,-2.360117912E0,2.631534100E0,8.043244362E0
1.606710582E0,-2.743764639E0,2.608003855E0,7.938349247E0
1.610680895E0,-3.047569752E0,2.591771126E0,7.831730366E0
1.614651207E0,-3.178858042E0,2.582721233E0,7.744878292E0
1.618623082E0,-3.237908602E0,2.578948021E0,7.712269306E0
1.622593395E0,-3.252063274E0,2.566900253E0,7.680551052E0
1.626563707E0,-3.286607027E0,2.593887806E0,7.623090267E0
1.630534020E0,-3.392258406E0,2.638697624E0,7.644197941E0
1.634504332E0,-3.554489374E0,2.652555227E0,7.779967785E0
1.638476207E0,-3.760122538E0,2.587854147E0,8.091798782E0
1.642446520E0,-3.925188303E0,2.480383396E0,8.442184448E0
1.646416832E0,-4.096766472E0,2.280276060E0,8.878877640E0
1.650387145E0,-4.154371262E0,1.997377038E0,9.267562866E0
1.654357457E0,-4.101229191E0,1.740613461E0,9.532131195E0
1.658327770E0,-4.058593273E0,1.569159746E0,9.707990646E0
1.662298082E0,-3.999791861E0,1.436511517E0,9.869560242E0
1.666268395E0,-4.038577557E0,1.360414147E0,9.895896912E0
1.670238707E0,-4.184413433E0,1.313152552E0,9.878974915E0
1.674210582E0,-4.376083374E0,1.344880581E0,9.884777069E0
1.678180895E0,-4.593132496E0,1.498521209E0,9.867261887E0
1.682151207E0,-4.738278389E0,1.719477296E0,9.953778267E0
1.686121520E0,-4.859453678E0,1.933250904E0,1.000602055E1
1.690091832E0,-5.010824680E0,2.141172886E0,1.000663280E1
1.694062145E0,-5.246414185E0,2.302752733E0,9.937374115E0
1.698032457E0,-5.485489845E0,2.437929392E0,9.773227692E0
1.702004332E0,-5.743709087E0,2.569083691E0,9.572142601E0
1.705974645E0,-5.946727753E0,2.659565449E0,9.422610283E0
1.709944957E0,-6.162196159E0,2.809135914E0,9.288765907E0
1.713915270E0,-6.358501911E0,2.868071795E0,9.075901031E0
1.717885582E0,-6.488583565E0,2.881670713E0,8.861706734E0
1.721855895E0,-6.566576958E0,2.845556736E0,8.848528862E0
1.725826207E0,-6.565868378E0,2.795517921E0,9.002668381E0
1.729796520E0,-6.451597691E0,2.712582827E0,9.254087448E0
1.733768395E0,-6.307763577E0,2.606759071E0,9.437685013E0
1.737738707E0,-6.137574196E0,2.486713648E0,9.610593796E0
1.741709020E0,-6.049046516E0,2.431895971E0,9.713706970E0
1.745679332E0,-6.113794804E0,2.471314192E0,9.789852142E0
1.749649645E0,-6.279426098E0,2.538093328E0,9.740503311E0
1.753619957E0,-6.377291679E0,2.593361139E0,9.550221443E0
1.757591832E0,-6.438965797E0,2.677225113E0,9.213682175E0
1.761562145E0,-6.453341007E0,2.791198730E0,8.882478714E0
1.765532457E0,-6.422081947E0,2.899320841E0,8.597970963E0
1.769502770E0,-6.353397369E0,3.020467281E0,8.287768364E0
1.773473082E0,-6.289538860E0,3.118342400E0,8.005961418E0
1.777443395E0,-6.275854111E0,3.203968525E0,7.771789551E0
1.781413707E0,-6.335048199E0,3.279788017E0,7.537741661E0
1.785384020E0,-6.421114922E0,3.338474751E0,7.447173595E0
1.789354332E0,-6.467016697E0,3.370432615E0,7.406012535E0
1.793326207E0,-6.495479107E0,3.333983421E0,7.426928520E0
1.797296520E0,-6.574391365E0,3.249286175E0,7.494014263E0
1.801266832E0,-6.681987286E0,3.050797224E0,7.665142059E0
1.805237145E0,-6.721912384E0,2.830645561E0,7.817375183E0
1.809207457E0,-6.799379349E0,2.638563395E0,8.032546997E0
1.813177770E0,-6.992677689E0,2.551452875E0,8.117129326E0
1.817149645E0,-7.117186069E0,2.459793329E0,8.109505653E0
1.821119957E0,-7.175834656E0,2.336903572E0,8.043157578E0
1.825090270E0,-7.209228516E0,2.195981026E0,7.913094997E0
1.829060582E0,-7.235095501E0,2.034343719E0,7.721530437E0
1.833030895E0,-7.283037186E0,1.910860181E0,7.432310581E0
1.837001207E0,-7.299394131E0,1.860016942E0,7.209975719E0
1.840971520E0,-7.317619324E0,1.866088748E0,7.017241955E0
1.844941832E0,-7.291311741E0,1.858101726E0,6.887150764E0
1.848913707E0,-7.212206841E0,1.870110989E0,6.781748772E0
1.852884020E0,-7.107072830E0,1.927437782E0,6.626470089E0
1.856854332E0,-7.032584667E0,2.095079899E0,6.487664223E0
1.860824645E0,-7.086310387E0,2.438532829E0,6.403273582E0
1.864794957E0,-7.280374527E0,2.764297247E0,6.342776299E0
1.868765270E0,-7.511137486E0,3.072115183E0,6.273392677E0
1.872735582E0,-7.605737209E0,3.234920979E0,6.196778297E0
1.876707457E0,-7.647818089E0,3.364025831E0,6.179721832E0
1.880677770E0,-7.717747688E0,3.533152103E0,6.139624119E0
1.884648082E0,-7.856055737E0,3.706272125E0,6.103461742E0
1.888618395E0,-7.967242718E0,3.809222937E0,6.056037426E0
1.892588707E0,-7.965231419E0,3.815869093E0,6.127662659E0
1.896560582E0,-7.920095921E0,3.775177240E0,6.281513691E0
1.900529332E0,-7.878494263E0,3.748371840E0,6.381897926E0
1.904499645E0,-7.946173191E0,3.781929016E0,6.309880257E0
1.908471520E0,-8.052150726E0,3.818378210E0,6.194584846E0
1.912441832E0,-8.228066444E0,3.864231825E0,6.116045952E0
1.916412145E0,-8.341456413E0,3.888250589E0,6.042553425E0
1.920382457E0,-8.439053535E0,3.896132231E0,5.888750076E0
1.924352770E0,-8.506168365E0,3.900643110E0,5.782111645E0
1.928323082E0,-8.556992531E0,3.912508488E0,5.705440044E0
1.932294957E0,-8.618541718E0,3.939534426E0,5.657996655E0
1.936265270E0,-8.660795212E0,4.006878376E0,5.646657944E0
1.940235582E0,-8.711973190E0,4.150741100E0,5.677227020E0
1.944205895E0,-8.645078659E0,4.253902912E0,5.641744614E0
1.948176207E0,-8.513033867E0,4.380824089E0,5.522369862E0
1.952146520E0,-8.241349220E0,4.580338001E0,5.291482449E0
1.956118395E0,-7.882411003E0,4.755047321E0,5.110136032E0
1.960088707E0,-7.559749603E0,4.883137226E0,4.963132381E0
1.964057457E0,-7.530511379E0,4.938472271E0,4.930063248E0
1.968029332E0,-7.760316372E0,4.921233654E0,4.952492237E0
1.972002770E0,-8.055540085E0,4.916138649E0,4.950059891E0
1.975969957E0,-8.184856415E0,4.971741676E0,4.918887138E0
1.979940270E0,-8.149498940E0,5.085686684E0,4.990368843E0
1.983910582E0,-7.953576088E0,5.183226585E0,5.104323387E0
1.987882457E0,-7.747081280E0,5.250991821E0,5.191720963E0
1.991852770E0,-7.569814682E0,5.358922482E0,5.223630905E0
1.995823082E0,-7.524650574E0,5.498610020E0,5.086711407E0
1.999793395E0,-7.535539150E0,5.705535412E0,4.779621601E0
2.003763707E0,-7.609223366E0,5.966159344E0,4.485986710E0
2.007734020E0,-7.632782459E0,6.173822880E0,4.401356697E0
2.011704332E0,-7.623578548E0,6.339357853E0,4.451644421E0
2.015676207E0,-7.580712795E0,6.442969322E0,4.388677120E0
2.019644957E0,-7.588326454E0,6.574861050E0,4.022593975E0
2.023616832E0,-7.697071075E0,6.676020622E0,3.464840889E0
2.027587145E0,-7.855854511E0,6.695979118E0,3.072871685E0
2.031557457E0,-7.977413177E0,6.585692406E0,2.842357874E0
2.035527770E0,-7.859675884E0,6.408952236E0,2.765494347E0
2.039498082E0,-7.645490646E0,6.268441200E0,2.777254820E0
2.043468395E0,-7.376736164E0,6.111697674E0,2.841371536E0
2.047440270E0,-7.258549213E0,6.029078484E0,2.888882160E0
2.051410582E0,-7.252247334E0,5.990819454E0,2.965362549E0
2.055380895E0,-7.228985310E0,5.940186977E0,3.170823336E0
2.059351207E0,-7.110616207E0,5.867709637E0,3.450274467E0
2.063321520E0,-6.817852974E0,5.791267395E0,3.815093279E0
2.067291832E0,-6.622074604E0,5.739322662E0,4.154294491E0
2.071263707E0,-6.585750103E0,5.709022045E0,4.360540390E0
2.075234020E0,-6.606033325E0,5.708140850E0,4.448388577E0
2.079202770E0,-6.575914383E0,5.691151142E0,4.396941662E0
2.083174645E0,-6.450429916E0,5.677839756E0,4.345973969E0
2.087144957E0,-6.294835091E0,5.697520256E0,4.321600914E0
2.091115270E0,-6.117300510E0,5.783423901E0,4.304439545E0
2.095085582E0,-6.009025097E0,5.934593678E0,4.336837769E0
2.099055895E0,-5.902990818E0,6.138445854E0,4.275210857E0
2.103026207E0,-5.864347935E0,6.339261532E0,4.154418945E0
2.106998082E0,-5.887160301E0,6.568808556E0,3.962633610E0
2.110968395E0,-5.938989639E0,6.803296566E0,3.674620867E0
2.114938707E0,-5.974280357E0,7.005941868E0,3.304831505E0
2.118909020E0,-6.029557705E0,7.182758331E0,2.938489914E0
2.122879332E0,-6.121284008E0,7.426804066E0,2.540860891E0
2.126849645E0,-6.126359940E0,7.638346195E0,2.205519438E0
2.130821520E0,-6.068343639E0,7.853518009E0,1.830281019E0
2.134791832E0,-6.099238396E0,8.016265869E0,1.552812099E0
2.138762145E0,-6.258203506E0,8.106335640E0,1.486195922E0
2.142732457E0,-6.425836563E0,8.133198738E0,1.597037792E0
2.146702770E0,-6.374906540E0,8.073401451E0,1.895001054E0
2.150673082E0,-6.290592670E0,7.965298176E0,2.269042492E0
2.154643395E0,-6.210568905E0,7.836662769E0,2.672379255E0
2.158613707E0,-6.136195183E0,7.647568703E0,3.034124136E0
2.162585582E0,-6.112980843E0,7.316326141E0,3.286214113E0
2.166555895E0,-6.059245586E0,7.027834415E0,3.341635227E0
2.170526207E0,-5.976348400E0,6.924404621E0,3.350282907E0
2.174496520E0,-5.903296947E0,6.921004772E0,3.400647402E0
2.178466832E0,-5.909541130E0,6.994851589E0,3.501223087E0
2.182437145E0,-5.930533409E0,7.065097809E0,3.604920626E0
2.186407457E0,-5.916944027E0,7.094383717E0,3.673394918E0
2.190379332E0,-5.897521973E0,7.231331825E0,3.651109695E0
2.194349645E0,-5.938587189E0,7.388372421E0,3.515530825E0
2.198319957E0,-6.009608746E0,7.564929962E0,3.306153059E0
2.202290270E0,-6.147582054E0,7.699580193E0,3.131730795E0
2.206260582E0,-6.265970707E0,7.745673180E0,3.036661863E0
2.210230895E0,-6.233016491E0,7.681604385E0,3.023761749E0
2.214201207E0,-6.134729862E0,7.600891113E0,2.961866856E0
2.218171520E0,-6.071599483E0,7.705240250E0,2.829668760E0
2.222143395E0,-6.013679028E0,7.807855606E0,2.539290190E0
2.226113707E0,-5.969405651E0,7.924271584E0,2.225736141E0
2.230084020E0,-5.920238495E0,7.987104893E0,1.946313620E0
2.234054332E0,-5.810526371E0,8.123621941E0,1.756099105E0
2.238024645E0,-5.780656338E0,8.240468979E0,1.651539445E0
2.241994957E0,-5.828119278E0,8.390422821E0,1.513461113E0
2.245965270E0,-6.051143646E0,8.520053864E0,1.314838171E0
2.249937145E0,-6.355906487E0,8.547701836E0,1.312357664E0
2.253907457E0,-6.689198017E0,8.452192307E0,1.674878120E0
2.257877770E0,-6.795395374E0,8.234598160E0,2.102597475E0
2.261848082E0,-6.677649021E0,7.936347485E0,2.419580221E0
2.265818395E0,-6.509747982E0,7.554520607E0,2.732368469E0
2.269790270E0,-6.414564610E0,7.308147430E0,2.998641729E0
2.273760582E0,-6.253444195E0,7.062617302E0,3.173514366E0
2.277729332E0,-6.012654305E0,6.631546021E0,3.463107347E0
2.281701207E0,-6.084040165E0,6.404843807E0,3.622168779E0
2.285671520E0,-6.368834972E0,6.260598183E0,3.859117985E0
2.289641832E0,-6.493688107E0,6.103844643E0,3.701991320E0
2.293612145E0,-6.401032448E0,6.140945435E0,3.660945177E0
2.297582457E0,-6.144144058E0,6.476756573E0,3.625252485E0
2.301554332E0,-5.790510654E0,6.789946079E0,3.479052782E0
2.305524645E0,-4.320279121E0,9.449099541E0,4.810592651E0
2.309494957E0,-4.016695023E0,1.108311462E1,5.756676197E0
2.313465270E0,-4.691495419E0,1.105764008E1,5.038195133E0
2.317435582E0,-5.595747471E0,1.007270336E1,2.828260899E0
2.321405895E0,-6.118717670E0,9.371671677E0,7.950952053E-1
2.325376207E0,-6.088100433E0,9.049527168E0,-1.378878117E0
2.329348082E0,-5.699244022E0,9.127233505E0,-2.519609928E0
2.333316832E0,-5.320701599E0,9.417640686E0,-3.075505257E0
2.337288707E0,-5.276016235E0,9.675534248E0,-2.400340319E0
2.341259020E0,-5.514871120E0,9.626568794E0,-1.225917459E0
2.345229332E0,-5.941422462E0,9.282904625E0,-7.718906272E-3
2.349199645E0,-6.217588425E0,8.802253723E0,6.249248981E-1
2.353169957E0,-6.248645782E0,8.166612625E0,3.775656223E-1
2.357140270E0,-5.541676521E0,7.529304504E0,1.400895268E-1
2.361112145E0,-4.893652439E0,7.083552361E0,5.684313774E-1
2.365082457E0,-4.480671883E0,6.643392563E0,1.646004200E0
2.369052770E0,-4.312799931E0,5.934497833E0,2.133291245E0
2.373023082E0,-4.063353062E0,4.580653667E0,2.149466276E0
2.376993395E0,-3.854616880E0,3.184278488E0,2.045922041E0
2.380963707E0,-3.685796976E0,2.847720861E0,2.596559525E0
2.384934020E0,-3.964654207E0,2.943048477E0,3.064731359E0
2.388905895E0,-4.549280167E0,3.820992708E0,4.414563179E0
2.392874645E0,-5.259199142E0,5.214389324E0,5.636515617E0
2.396846520E0,-6.036222935E0,7.445632458E0,6.258165359E0
2.400816832E0,-6.251557827E0,9.216967583E0,7.257017136E0
2.404785582E0,-6.138790607E0,1.051991081E1,7.410581112E0
2.408757457E0,-5.446052074E0,1.095228481E1,6.958967209E0
2.412727770E0,-4.899417877E0,1.117870045E1,6.368653297E0
2.416698082E0,-4.398436069E0,1.121047592E1,5.524141788E0
2.420668395E0,-4.236530304E0,1.148070526E1,4.813868046E0
2.424640270E0,-4.088300705E0,1.150015545E1,4.104648113E0
2.428610582E0,-4.091948986E0,1.132163334E1,3.271992683E0
2.432580895E0,-4.014492035E0,1.107642937E1,2.565186024E0
2.436551207E0,-3.876950026E0,1.075654507E1,1.789139032E0
2.440521520E0,-3.788048506E0,1.049639034E1,1.441568017E0
2.444493395E0,-3.756636381E0,1.020972824E1,1.267135978E0
2.448462145E0,-3.597738266E0,9.751602173E0,1.417434454E0
2.452434020E0,-3.461240053E0,9.432254791E0,1.638381004E0
2.456404332E0,-3.298558950E0,9.285049438E0,1.824831843E0
2.460374645E0,-3.104503870E0,9.148427010E0,1.927332401E0
2.464344957E0,-2.859145880E0,8.881320000E0,1.876795530E0
2.468315270E0,-2.560196638E0,8.699915886E0,1.917525768E0
2.472285582E0,-2.382680893E0,8.346043587E0,2.031192780E0
2.476257457E0,-2.301172495E0,8.064705849E0,2.267462254E0
2.480227770E0,-2.315796375E0,7.657949924E0,2.554574966E0
2.484198082E0,-2.440304518E0,7.578136921E0,2.705313921E0
2.488168395E0,-2.534137964E0,7.377464294E0,2.803428173E0
2.492138707E0,-2.465137243E0,7.036740780E0,2.826192379E0
2.496109020E0,-2.314877033E0,6.688230991E0,2.650553703E0
2.500080895E0,-2.218668461E0,6.569900513E0,2.322423697E0
2.504051207E0,-2.154638052E0,6.601331234E0,1.911607265E0
2.508021520E0,-2.307512522E0,6.933234692E0,1.454180717E0
2.511991832E0,-2.607505798E0,7.678664684E0,1.013877392E0
2.515962145E0,-2.821058989E0,8.031177521E0,6.970095634E-1
2.519932457E0,-2.939964771E0,8.241311073E0,4.108833373E-1
2.523902770E0,-2.950298071E0,8.113661766E0,2.733029127E-1
2.527874645E0,-2.868483305E0,7.632590294E0,4.055777565E-2
2.531843395E0,-2.797433138E0,7.327818394E0,-2.743180394E-1
2.535823082E0,-2.697681189E0,7.242556095E0,-5.929288268E-1
2.539785582E0,-2.282593489E0,6.756303310E0,-6.762279272E-1
2.543755895E0,-1.306755304E0,5.577924728E0,-7.269179821E-1
2.547726207E0,-4.257752597E-1,4.033549786E0,-9.803968668E-1
2.551696520E0,1.840183437E-1,2.731966019E0,-1.186212063E0
2.555666832E0,-4.643410742E-1,4.612803459E0,-1.357675195E0
2.559638707E0,-1.167585135E0,7.339607239E0,-1.210910678E0
2.563609020E0,-1.052692175E0,7.074943066E0,3.901399672E-1
2.567577770E0,-1.659957528E0,5.878828049E0,2.173053980E0
2.571549645E0,-1.494326711E0,5.149276733E0,3.141115904E0
2.575519957E0,1.696531326E-1,4.808945656E0,3.148193359E0
2.579490270E0,1.194524646E0,4.440612316E0,2.351968050E0
2.583460582E0,3.004435599E-1,5.587683678E0,1.066683888E0
2.587430895E0,9.215760976E-2,6.218976974E0,-4.139766097E-1
2.591401207E0,-3.933194652E-2,6.685444355E0,-1.362185836E0
2.595373082E0,-1.842290312E-1,7.467773438E0,-2.136154652E0
2.599341832E0,-3.641293347E-1,8.235804558E0,-2.401489735E0
2.603313707E0,-2.782253921E-1,8.847360611E0,-2.331713200E0
2.607284020E0,-3.885789514E-1,9.857301712E0,-2.223265409E0
2.611254332E0,-5.706052780E-1,1.075546265E1,-2.607228279E0
2.615224645E0,-1.267739415E0,1.190040779E1,-2.578143358E0
2.619196520E0,-3.101793766E0,1.311738110E1,-1.849693179E0
2.623166832E0,-4.743785381E0,1.410444355E1,-8.346378803E-1
2.627137145E0,-5.930303574E0,1.458360958E1,7.652347684E-1
2.631107457E0,-4.646206856E0,1.253374100E1,5.686812878E0
2.635077770E0,-4.909473419E0,1.205537987E1,6.153366566E0
2.639048082E0,-4.259552956E0,1.170947552E1,5.976712704E0
2.643018395E0,-3.829784155E0,1.164951420E1,5.259160995E0
2.646988707E0,-3.452027082E0,1.168470955E1,4.395055294E0
2.650960582E0,-2.876029968E0,1.091717720E1,3.596646547E0
2.654935582E0,-2.306210041E0,1.044634247E1,2.139180899E0
2.658901207E0,-1.816653252E0,1.030607128E1,6.732782722E-1
2.662871520E0,-1.278953910E0,1.036413479E1,-6.331897378E-1
2.666841832E0,-5.731335878E-1,1.064179611E1,-3.133492947E0
2.670812145E0,-2.856761515E-1,1.086111450E1,-4.990052700E0
2.674782457E0,-6.595546752E-2,1.090130806E1,-6.036356926E0
2.678754332E0,-3.248452768E-2,1.112239838E1,-6.411087990E0
2.682724645E0,-4.849024713E-1,1.126912403E1,-6.325202942E0
2.686694957E0,-1.282526016E0,1.157667351E1,-5.921004295E0
2.690665270E0,-2.087399244E0,1.211840534E1,-5.125794411E0
2.694635582E0,-2.547162294E0,1.239388180E1,-3.940233469E0
2.698605895E0,-2.768329382E0,1.269678688E1,-2.231501102E0
2.702576207E0,-2.584310770E0,1.290734291E1,-6.674842238E-1
2.706546520E0,-2.265748024E0,1.287513542E1,3.202484250E-1
2.710518395E0,-1.872160435E0,1.267142773E1,1.091363311E0
2.714488707E0,-1.509668708E0,1.253624153E1,1.925570250E0
2.718459020E0,-1.123752117E0,1.253734303E1,3.157482624E0
2.722429332E0,-9.225720763E-1,1.263389587E1,3.801293135E0
2.726399645E0,-7.266402245E-1,1.276709938E1,3.945328474E0
2.730369957E0,-6.005806923E-1,1.294956684E1,3.602287054E0
2.734341832E0,-4.261008501E-1,1.300630951E1,3.029527187E0
2.738312145E0,-3.668970466E-1,1.306633663E1,2.019269705E0
2.742282457E0,-3.114856184E-1,1.323707199E1,1.170534849E0
2.746252770E0,-2.059109211E-1,1.336257648E1,4.643410742E-1
2.750223082E0,-4.345189035E-1,1.346205997E1,-1.303116083E-1
2.754193395E0,-1.513556838E0,1.309252930E1,-1.296306968E0
2.758165270E0,-1.515031695E0,1.149807739E1,-1.283378243E0
2.762134020E0,-8.507364392E-1,1.036024666E1,-1.492258012E-1
2.766107457E0,-3.176435232E-1,9.666522026E0,8.893885016E-1
2.770076207E0,-3.491320908E-1,9.659607887E0,1.105987072E0
2.774046520E0,-4.762258530E-1,9.836558342E0,1.022448659E0
2.778016832E0,-5.726451278E-1,9.945705414E0,8.375109434E-1
2.781987145E0,-6.050339341E-1,9.960961342E0,6.882180572E-1
2.785957457E0,-5.625416040E-1,9.914896011E0,7.118440270E-1
2.789927770E0,-4.557219148E-1,9.887372971E0,8.281255960E-1
2.793899645E0,-4.030590951E-1,9.892314911E0,8.110310435E-1
2.797869957E0,-4.080390036E-1,9.912340164E0,7.480347753E-1
2.801840270E0,-4.149438739E-1,9.938800812E0,6.674459577E-1
2.805810582E0,-4.339059889E-1,9.966870308E0,6.375567913E-1
2.809780895E0,-3.830626905E-1,9.932221413E0,6.140935421E-1
2.813751207E0,1.580460370E-1,9.082758904E0,3.671364784E-1
2.817723082E0,-2.441147327E0,8.785830498E0,1.146152243E-1
2.821691832E0,-6.249182701E0,9.215827942E0,2.171607971E0
2.825663707E0,-9.287501335E0,7.323249817E0,2.358288527E0
2.829634020E0,-9.439513206E0,6.077690601E0,2.675415039E0
2.833604332E0,-5.554193497E0,5.446339607E0,1.336778522E0
2.837574645E0,-1.706012487E-1,5.324072838E0,-1.066367865E0
2.841544957E0,2.858762980E0,5.517351627E0,-2.476619720E0
2.845515270E0,3.203346252E0,5.843480110E0,-2.560991526E0
2.849487145E0,2.204130888E0,6.283362389E0,-1.753925204E0
2.853457457E0,1.250568151E0,6.464957714E0,-9.612336755E-1
2.857427770E0,8.437932730E-1,6.539330959E0,-1.519168913E-1
2.861398082E0,6.304603219E-1,6.637713432E0,1.030684710E0
2.865368395E0,1.845833808E-1,6.948863983E0,2.516985893E0
2.869338707E0,-3.938174546E-1,7.359508038E0,3.968054295E0
2.873309020E0,-4.032793269E-2,7.408991337E0,2.603024006E0
2.877280895E0,1.254360557E0,7.185478210E0,-3.703255355E-1
2.881249645E0,1.835960031E0,7.016820908E0,-1.933384895E0
2.885221520E0,1.750420094E0,6.981233597E0,-2.257464170E0
2.889191832E0,1.333148956E0,7.270347595E0,-1.797030449E0
2.893162145E0,5.284577608E-1,7.734794617E0,-9.145179987E-1
2.897132457E0,2.949656546E-2,7.997993469E0,-4.147715271E-1
2.901102770E0,-4.981663227E-1,8.459403992E0,2.513049841E-1
2.905073082E0,-7.850970626E-1,8.874070168E0,5.739380717E-1
2.909044957E0,-9.865260124E-1,9.281908035E0,4.863868654E-1
2.913015270E0,-9.448190331E-1,9.497731209E0,1.843343824E-1
2.916985582E0,-9.405860305E-1,9.717412949E0,6.870400906E-2
2.920955895E0,-9.424152374E-1,9.780132294E0,-1.201218888E-1
2.924926207E0,-7.641333938E-1,9.766742706E0,-3.752193227E-2
2.928896520E0,-6.295027137E-1,9.660690308E0,1.285494864E-1
2.932868395E0,-6.004753709E-1,9.502462387E0,4.015938044E-1
2.936837145E0,-6.611061692E-1,9.354174614E0,6.323373914E-1
2.940807457E0,-9.951930642E-1,9.224169731E0,6.877296567E-1
2.944779332E0,-1.172162890E0,9.298734665E0,6.181541681E-1
2.948749645E0,-1.252780437E0,9.429755211E0,4.568615854E-1
2.952719957E0,-1.450694680E0,9.517105103E0,3.845949769E-1
2.956690270E0,-1.542766094E0,9.594781876E0,9.522697926E-1
2.960660582E0,-1.081719518E0,9.323902130E0,2.065200090E0
2.964630895E0,-1.041343570E0,1.002625561E1,7.891958952E-1
2.968602770E0,-1.915686965E0,1.050899410E1,7.620935440E-1
2.972573082E0,-2.816653728E0,1.043084812E1,9.683971405E-1
2.976543395E0,-2.947022915E0,1.015390491E1,2.742988765E-1
2.980513707E0,-2.836324453E0,1.003989315E1,7.052743435E-1
2.984484020E0,-2.566153288E0,1.119828510E1,2.638601661E-1
2.988454332E0,-2.877600670E0,1.093411827E1,9.880487323E-1
2.992426207E0,-3.343790054E0,1.045364952E1,1.605704784E0
2.996396520E0,-3.586791992E0,1.009394455E1,2.370068073E0
3.000366832E0,-3.668481827E0,1.040459728E1,1.105460286E0
3.004337145E0,-3.874479294E0,1.037771511E1,-4.014309943E-1
3.008307457E0,-3.960938454E0,1.060536480E1,-1.714641094E0
3.012277770E0,-2.578440428E0,1.042665195E1,-2.083185196E0
3.016248082E0,-1.073741913E0,9.916851044E0,-2.745756626E0
3.020218395E0,3.666959330E-2,9.277790070E0,-2.658262968E0
3.024188707E0,3.799981177E-1,8.786872864E0,-2.217059612E0
3.028160582E0,2.899090946E-1,8.436506271E0,-1.355520368E0
3.032130895E0,-9.367074817E-2,8.181963921E0,-6.564517617E-1
3.036101207E0,-3.016885817E-1,7.923601151E0,-1.071932018E-1
3.040071520E0,-3.663894534E-1,7.706379890E0,-1.825913936E-1
3.044041832E0,6.440402567E-2,7.402775764E0,-4.428603053E-1
3.048013707E0,5.688910484E-1,7.247651100E0,-1.922256649E-1
3.051984020E0,1.156610131E0,7.145983219E0,6.411672384E-2
3.055954332E0,1.426465273E0,7.135343552E0,2.291442603E-1
3.059924645E0,1.455396891E0,7.302947044E0,2.736189663E-1
3.063894957E0,1.335399508E0,7.432655811E0,8.234329820E-1
3.067865270E0,1.090319514E0,7.694207668E0,1.032255292E0
3.071837145E0,1.216551423E0,7.927680492E0,1.365116358E0
3.075805895E0,1.235312223E0,8.169236183E0,1.259187222E0
3.079776207E0,1.423036814E0,8.408857346E0,9.905866385E-1
3.083748082E0,1.572071195E0,8.521806717E0,8.412554264E-1
3.087718395E0,1.686772585E0,8.853231430E0,5.250293016E-1
3.091688707E0,1.559381843E0,9.269017220E0,8.955271542E-2
3.095659020E0,1.241786242E0,9.690292358E0,5.597643554E-2
3.099629332E0,1.070227265E0,1.007950306E1,2.213966250E-1
3.103599645E0,1.285073400E0,1.021052361E1,5.279885530E-1
3.107571520E0,1.646291375E0,1.022130680E1,1.004712343E0
3.111541832E0,2.050432682E0,1.012168884E1,1.416179895E0
3.115512145E0,2.024230480E0,1.020392513E1,1.262022018E0
3.119482457E0,1.906656027E0,1.013229942E1,1.166924357E0
3.123452770E0,1.823989034E0,9.980737686E0,9.116832614E-1
3.127423082E0,1.867314577E0,9.821053505E0,1.008131266E0
3.131396520E0,1.586886525E0,9.731663704E0,6.989344954E-1
3.135363707E0,1.423362374E0,9.757942200E0,8.325501084E-1
3.139335582E0,1.179067731E0,9.595193863E0,1.510473132E0
3.143305895E0,9.638960361E-1,9.557519913E0,2.368966818E0
3.147276207E0,7.382185459E-1,9.497549057E0,2.986163378E0
3.151246520E0,6.615371108E-1,9.543584824E0,3.358375549E0
3.155216832E0,6.009829044E-1,9.463790894E0,3.306402206E0
3.159187145E0,7.542501092E-1,9.503237724E0,3.082706928E0
3.163157457E0,8.461204767E-1,9.553152084E0,2.537949562E0
3.167129332E0,8.992429972E-1,9.563044548E0,2.010746241E0
3.171099645E0,9.621721506E-1,9.577027321E0,1.581992626E0
3.175069957E0,1.043134570E0,9.676990509E0,1.529166937E0
3.179040270E0,1.045749068E0,9.857627869E0,1.593484879E0
3.183010582E0,1.129862070E0,1.013620663E1,1.710503936E0
3.186980895E0,1.208037615E0,1.070497322E1,1.842414737E0
3.190951207E0,1.702794552E0,1.243849087E1,2.180236578E0
3.194921520E0,2.385132551E0,1.728322411E1,3.278255939E0
3.198893395E0,4.387039542E-1,2.346585655E1,4.375738621E0
3.202863707E0,-4.483880043E0,2.953489113E1,4.583344936E0
3.206834020E0,-8.063345909E0,3.029933167E1,3.485555410E0
3.210804332E0,-8.422150612E0,2.368970680E1,1.343798399E0
3.214774645E0,-7.310934067E0,1.655550194E1,-7.409958243E-1
3.218744957E0,-4.950807095E0,1.265286732E1,-1.912631989E0
3.222716832E0,-1.586216092E0,1.058621216E1,-1.951666951E0
3.226687145E0,4.971224666E-1,1.024754715E1,-1.291470647E0
3.230657457E0,1.765762091E0,1.044439888E1,-2.766547799E-1
3.234627770E0,2.307186842E0,1.054870892E1,5.422483683E-1
3.238598082E0,2.702191830E0,1.035504723E1,1.109568834E0
3.242568395E0,3.237746000E0,9.802866936E0,1.719534755E0
3.246538707E0,3.767429590E0,9.274620056E0,2.171473980E0
3.250518395E0,4.346740246E0,8.672574043E0,2.529100657E0
3.254480895E0,4.936843872E0,8.217781067E0,2.693103552E0
3.258451207E0,5.317608356E0,7.959044933E0,2.618586063E0
3.262421520E0,5.736325264E0,7.868763924E0,2.439815998E0
3.266391832E0,6.100215435E0,7.962003708E0,2.288330078E0
3.270362145E0,6.341158390E0,8.308204651E0,2.049973011E0
3.274332457E0,6.472858429E0,8.690004349E0,1.875962377E0
3.278302770E0,6.415837765E0,9.012713432E0,1.825971484E0
3.282274645E0,5.487088680E0,9.620630264E0,1.443196058E0
3.286244957E0,4.645709038E0,1.029859161E1,9.287491441E-1
3.290213707E0,4.291549206E0,1.058119297E1,8.943396807E-1
3.294185582E0,4.107789516E0,1.067224026E1,1.146295905E0
3.298155895E0,4.077631950E0,1.060281849E1,1.387976170E0
3.302126207E0,4.100204468E0,1.044007874E1,1.622828245E0
3.306098082E0,3.970572710E0,1.012986755E1,1.746081710E0
3.310066832E0,3.793967009E0,9.855117798E0,1.857890964E0
3.314038707E0,4.091748238E0,8.395967484E0,2.317366838E0
3.318009020E0,3.737980843E0,8.294472694E0,2.952098608E0
3.321979332E0,3.146431208E0,8.544656754E0,2.967498064E0
3.325949645E0,2.188779354E0,9.009630203E0,2.396126747E0
3.329919957E0,1.047300458E0,9.489170074E0,1.813435435E0
3.333890270E0,-5.078810692E0,1.089317703E1,-1.557916641E0
3.337873082E0,-6.246021748E0,1.035816860E1,-1.524685025E0
3.341832457E0,-3.846333027E0,9.698910713E0,3.554719090E-1
3.345802770E0,-1.038566351E0,8.840618134E0,2.139745951E0
3.349773082E0,3.489788473E-1,6.838711262E0,3.167385340E0
3.353743395E0,2.561106205E0,7.196721077E0,6.125785351E0
3.357713707E0,4.448484421E0,8.126246452E0,5.108670712E0
3.361684020E0,2.510195971E0,9.966429710E0,5.726260543E-1
3.365654332E0,1.828892350E0,1.085998440E1,-2.057509899E0
3.369626207E0,2.211217880E0,1.087771130E1,-2.194917917E0
3.373596520E0,2.303087950E0,1.061667538E1,-1.518871903E0
3.377566832E0,1.904156446E0,1.051911736E1,-9.580350518E-1
3.381537145E0,1.592862368E0,1.024096775E1,-5.199918747E-1
3.385507457E0,1.636839151E0,9.603383064E0,-4.976587594E-1
3.389477770E0,1.786237359E0,9.249155045E0,-3.043413460E-1
3.393448082E0,1.695382118E0,9.258387566E0,-1.251975894E-1
3.397419957E0,1.469264150E0,9.393343925E0,9.576806406E-6
3.401390270E0,1.332689285E0,9.576595306E0,2.785701454E-1
3.405360582E0,1.295090675E0,9.631175041E0,5.550047159E-1
3.409330895E0,1.267940402E0,9.666244507E0,7.746870518E-1
3.413301207E0,1.228388309E0,9.746278763E0,9.726588130E-1
3.417271520E0,1.064395070E0,9.806258202E0,1.310432792E0
3.421241832E0,1.054099917E0,9.780275345E0,1.586560845E0
3.425212145E0,1.190167189E0,9.699638367E0,1.732674241E0
3.429182457E0,1.292370915E0,9.656954765E0,1.759948969E0
3.433154332E0,1.345330715E0,9.550872803E0,1.754289031E0
3.437124645E0,1.413517594E0,9.453936577E0,1.690392613E0
3.441094957E0,1.434892893E0,9.484591484E0,1.686255336E0
3.445065270E0,1.399238467E0,9.584774017E0,1.697919965E0
3.449035582E0,1.377068281E0,9.648623466E0,1.681055188E0
3.453005895E0,1.354658484E0,9.664884567E0,1.603827834E0
3.456977770E0,1.327240109E0,9.701305389E0,1.471160293E0
3.460948082E0,1.259532094E0,9.769837379E0,1.367251992E0
3.464918395E0,1.095701694E0,9.837295532E0,1.303480029E0
3.468888707E0,1.056034565E0,9.846681595E0,1.219146609E0
3.472859020E0,1.107251167E0,9.841279984E0,1.132179737E0
3.476829332E0,1.091516614E0,9.844009399E0,1.069643140E0
3.480799645E0,1.062259436E0,9.864982605E0,1.017650604E0
3.484769957E0,1.036229610E0,9.905339241E0,9.654091597E-1
3.488741832E0,9.982863069E-1,9.949823380E0,9.285288453E-1
3.492712145E0,9.694984555E-1,9.979300499E0,9.023362994E-1
3.496682457E0,9.171803594E-1,1.000225639E1,8.861323595E-1
3.500652770E0,8.900110126E-1,1.001844120E1,8.604760766E-1
3.504623082E0,8.590395451E-1,1.000522518E1,8.388516903E-1
3.508593395E0,8.294855356E-1,9.980143547E0,8.300409913E-1
3.512565270E0,7.900769711E-1,9.947113037E0,8.551130891E-1
3.516535582E0,7.804618478E-1,9.927567482E0,8.594226837E-1
3.520505895E0,7.534170151E-1,9.870997429E0,8.808363676E-1
3.524476207E0,7.152820826E-1,9.846231461E0,8.807119131E-1
3.528446520E0,6.959561110E-1,9.803709984E0,8.682715893E-1
3.532416832E0,6.883330345E-1,9.795148849E0,8.640769720E-1
3.536387145E0,7.029088736E-1,9.773811340E0,8.754063249E-1
3.540359020E0,7.038953304E-1,9.778532028E0,8.821388483E-1
3.544329332E0,7.080995440E-1,9.792955399E0,8.905760050E-1
3.548299645E0,7.055520415E-1,9.790685654E0,8.956708312E-1
3.552269957E0,7.255867720E-1,9.779920578E0,9.113672376E-1
3.556240270E0,7.306433320E-1,9.775659561E0,9.420034289E-1
3.560210582E0,7.504290342E-1,9.774721146E0,9.764032960E-1
3.564180895E0,7.433517575E-1,9.760307312E0,1.004980564E0
3.568151207E0,7.526316643E-1,9.759091377E0,1.040175319E0
3.572123082E0,7.596706152E-1,9.758862495E0,1.051973820E0
3.576093395E0,7.497777939E-1,9.769970894E0,1.058955431E0
3.580063707E0,7.400572896E-1,9.790944099E0,1.054406404E0
3.584034020E0,7.370885015E-1,9.805808067E0,1.044848800E0
3.588004332E0,7.105894685E-1,9.811544418E0,1.041372418E0
3.591974645E0,7.066246867E-1,9.822452545E0,1.038690925E0
3.595946520E0,7.117961645E-1,9.842563629E0,1.052452803E0
3.599916832E0,7.133859396E-1,9.840590477E0,1.028635263E0
3.603885582E0,7.011659145E-1,9.861907959E0,1.009452939E0
3.607857457E0,6.951038241E-1,9.878313065E0,1.003793001E0
3.611827770E0,6.943184733E-1,9.878265381E0,9.796307087E-1
3.615798082E0,7.043741345E-1,9.873850822E0,9.651984572E-1
3.619768395E0,6.854982376E-1,9.867835999E0,9.367266297E-1
3.623738707E0,6.912730932E-1,9.867165565E0,9.379237294E-1
3.627709020E0,6.847512722E-1,9.837084770E0,9.299175143E-1
3.631680895E0,6.919913292E-1,9.798932076E0,9.282799363E-1
3.635651207E0,6.908133626E-1,9.767079353E0,9.189999104E-1
3.639621520E0,6.936193705E-1,9.763793945E0,9.190286994E-1
3.643591832E0,7.243609428E-1,9.749179840E0,9.160024524E-1
3.647562145E0,7.403445840E-1,9.722105980E0,9.125451446E-1
3.651534020E0,7.656657100E-1,9.737916946E0,9.321393371E-1
3.655504332E0,7.874433398E-1,9.750022888E0,9.286246300E-1
3.659474645E0,8.229829073E-1,9.750357628E0,9.388526678E-1
3.663444957E0,8.653315306E-1,9.742983818E0,9.616742134E-1
3.667415270E0,9.034759402E-1,9.745942116E0,9.970318079E-1
3.671385582E0,9.248322248E-1,9.731817245E0,1.021433473E0
3.675355895E0,9.780697227E-1,9.738213539E0,1.067517042E0
3.679327770E0,1.007422566E0,9.711265564E0,1.110306263E0
3.683296520E0,1.030981541E0,9.707301140E0,1.146678925E0
3.687268395E0,1.029784441E0,9.684076309E0,1.151630163E0
3.691238707E0,1.051763177E0,9.687744141E0,1.166598797E0
3.695209020E0,1.084228635E0,9.687074661E0,1.176118016E0
3.699179332E0,1.101237059E0,9.698249817E0,1.177142859E0
3.703149645E0,1.105307102E0,9.717623711E0,1.168906689E0
3.707119957E0,1.118360400E0,9.739823341E0,1.173292994E0
3.711091832E0,1.135761380E0,9.755796432E0,1.176702261E0
3.715062145E0,1.161331415E0,9.779384613E0,1.157194376E0
3.719032457E0,1.180446744E0,9.793146133E0,1.145912886E0
3.723002770E0,1.185915112E0,9.826090813E0,1.116904616E0
3.726974645E0,1.209253788E0,9.837132454E0,1.095960259E0
3.730943395E0,1.231146336E0,9.844919205E0,1.045461655E0
3.734913707E0,1.260202408E0,9.867635727E0,1.009088993E0
3.738885582E0,1.279212356E0,9.890361786E0,9.872921705E-1
3.742854332E0,1.299812078E0,9.887152672E0,9.810385108E-1
3.746826207E0,1.319138050E0,9.870260239E0,9.676022530E-1
3.750796520E0,1.314943433E0,9.841097832E0,9.481134415E-1
3.754766832E0,1.309666634E0,9.797867775E0,9.198810458E-1
3.758746520E0,1.324702263E0,9.782737732E0,9.048550129E-1
3.762707457E0,1.330927134E0,9.760173798E0,9.114151001E-1
3.766677770E0,1.314675331E0,9.734048843E0,9.209440351E-1
3.770649645E0,1.322949648E0,9.717815399E0,8.973276615E-1
3.774619957E0,1.340714574E0,9.713822365E0,9.018766284E-1
3.778590270E0,1.355424523E0,9.702204704E0,9.115587473E-1
3.782560582E0,1.375698686E0,9.688414574E0,9.162609577E-1
3.786530895E0,1.365126014E0,9.698738098E0,9.460065365E-1
3.790501207E0,1.384758472E0,9.701917648E0,1.008150458E0
3.794471520E0,1.418478251E0,9.700529099E0,1.043977261E0
3.798441832E0,1.468009472E0,9.672411919E0,1.095462203E0
3.802413707E0,1.519772172E0,9.656965256E0,1.116243839E0
3.806384020E0,1.547851443E0,9.645558357E0,1.150605440E0
3.810354332E0,1.602352977E0,9.610966682E0,1.186461091E0
3.814324645E0,1.635948539E0,9.589275360E0,1.214070916E0
3.818294957E0,1.695707798E0,9.586498260E0,1.239746332E0
3.822265270E0,1.722206831E0,9.583251953E0,1.249342322E0
3.826237145E0,1.749692082E0,9.592283249E0,1.265268564E0
3.830207457E0,1.810476184E0,9.576931953E0,1.272786379E0
3.834177770E0,1.821192622E0,9.566013336E0,1.277718425E0
3.838148082E0,1.837243319E0,9.576663017E0,1.282468557E0
3.842118395E0,1.861491799E0,9.576902390E0,1.250491619E0
3.846088707E0,1.886860847E0,9.606073380E0,1.241786242E0
3.850059020E0,1.900172472E0,9.610785484E0,1.238328934E0
3.854030895E0,1.882426739E0,9.615784645E0,1.207932234E0
3.857999645E0,1.898209333E0,9.636201859E0,1.184239268E0
3.861971520E0,1.891936541E0,9.634526253E0,1.208229184E0
3.865941832E0,1.871892214E0,9.642714500E0,1.211944938E0
3.869912145E0,1.871212244E0,9.653795242E0,1.195501447E0
3.873882457E0,1.838967204E0,9.648260117E0,1.181768417E0
3.877852770E0,1.858934760E0,9.645750046E0,1.173379183E0
3.881823082E0,1.846044421E0,9.632418633E0,1.143078089E0
3.885794957E0,1.830070257E0,9.639697075E0,1.117517591E0
3.889765270E0,1.829093456E0,9.629344940E0,1.067900181E0
3.893735582E0,1.822983503E0,9.638797760E0,1.041563988E0
3.897705895E0,1.828806162E0,9.646659851E0,1.028405428E0
3.901676207E0,1.810045123E0,9.641297340E0,1.027945638E0
3.905646520E0,1.814824104E0,9.655575752E0,9.997324347E-1
3.909618395E0,1.822916508E0,9.655307770E0,9.891979098E-1
3.913587145E0,1.825454354E0,9.626012802E0,9.449722171E-1
3.917559020E0,1.814795256E0,9.619154930E0,9.594523907E-1
3.921529332E0,1.789569974E0,9.633693695E0,9.943598509E-1
3.925499645E0,1.774199247E0,9.609779358E0,1.006445765E0
3.929469957E0,1.740019679E0,9.584957123E0,1.024737477E0
3.933440270E0,1.713376999E0,9.541678429E0,1.048985958E0
3.937410582E0,1.752517343E0,9.569011688E0,1.067641616E0
3.941380895E0,1.769736409E0,9.562958717E0,1.079832911E0
3.945352770E0,1.782569289E0,9.551428795E0,1.077103496E0
3.949323082E0,1.779035568E0,9.562843323E0,1.106446743E0
3.953293395E0,1.780874252E0,9.579153061E0,1.138174772E0
3.957263707E0,1.798706293E0,9.591037750E0,1.167010546E0
3.961234020E0,1.816911697E0,9.579105377E0,1.178914547E0
3.965204332E0,1.840269685E0,9.563819885E0,1.182476997E0
3.969176207E0,1.856636405E0,9.562527657E0,1.192149639E0
3.973144957E0,1.875435710E0,9.565228462E0,1.186939836E0
3.977116832E0,1.896121621E0,9.564405441E0,1.187696457E0
3.981087145E0,1.896906853E0,9.589314461E0,1.212864280E0
3.985057457E0,1.906732678E0,9.606964111E0,1.215344667E0
3.989027770E0,1.917429924E0,9.609569550E0,1.204111099E0
3.992998082E0,1.903898001E0,9.615813255E0,1.206093550E0
3.996968395E0,1.885807395E0,9.623695374E0,1.203383207E0
4.000940270E0,1.892204642E0,9.610478401E0,1.207855582E0
4.004910582E0,1.875914574E0,9.619337082E0,1.212892890E0
4.008880895E0,1.869679928E0,9.628282547E0,1.208707929E0
4.012851207E0,1.875646353E0,9.640809059E0,1.206888318E0
4.016821520E0,1.865954638E0,9.651410103E0,1.212538719E0
4.020791832E0,1.880894423E0,9.650557518E0,1.229020357E0
4.024762145E0,1.893842340E0,9.631365776E0,1.224605441E0
4.028734020E0,1.888431430E0,9.620898247E0,1.266915798E0
4.032707457E0,1.889954090E0,9.606964111E0,1.283455014E0
4.036674645E0,1.888278246E0,9.598057747E0,1.282573819E0
4.040644957E0,1.877686143E0,9.624183655E0,1.324845791E0
4.044615270E0,1.871145248E0,9.631806374E0,1.350463867E0
4.048587145E0,1.883642912E0,9.620170593E0,1.383666635E0
4.052557457E0,1.869459748E0,9.594619751E0,1.401795506E0
4.056526207E0,1.863215685E0,9.588270187E0,1.398194551E0
4.060498082E0,1.877743602E0,9.573904991E0,1.395063043E0
4.064468395E0,1.889973283E0,9.554080963E0,1.379941225E0
4.068438707E0,1.900737524E0,9.528837204E0,1.356774926E0
4.072409020E0,1.884313345E0,9.512498856E0,1.324165940E0
4.076379332E0,1.872687101E0,9.512249947E0,1.329950333E0
4.080349645E0,1.858886957E0,9.507643700E0,1.322039962E0
4.084321520E0,1.836515546E0,9.503706932E0,1.308201432E0
4.088291832E0,1.820378542E0,9.494876862E0,1.322269797E0
4.092260582E0,1.764411688E0,9.484161377E0,1.317203641E0
4.096232457E0,1.737960577E0,9.484745026E0,1.294190526E0
4.100202770E0,1.678258777E0,9.493402481E0,1.281903386E0
4.104173082E0,1.631169677E0,9.515458107E0,1.269242883E0
4.108144957E0,1.593044281E0,9.523903847E0,1.266494393E0
4.112113707E0,1.575566649E0,9.521251678E0,1.244726300E0
4.116084020E0,1.523842335E0,9.521558762E0,1.274672985E0
4.120055895E0,1.524857521E0,9.548909187E0,1.262663722E0
4.124026207E0,1.506393433E0,9.581863403E0,1.246143699E0
4.127996520E0,1.494996905E0,9.561819077E0,1.228857517E0
4.131979332E0,1.489107251E0,9.593489647E0,1.256084323E0
4.135937145E0,1.475690126E0,9.641861916E0,1.253460288E0
4.139909020E0,1.473018169E0,9.636987686E0,1.272757530E0
4.143879332E0,1.471792340E0,9.649427414E0,1.266130447E0
4.147849645E0,1.489959598E0,9.685120583E0,1.231788039E0
4.151819957E0,1.530172586E0,9.703527451E0,1.219912887E0
4.155790270E0,1.568987370E0,9.695615768E0,1.218897700E0
4.159760582E0,1.624868035E0,9.691584587E0,1.181710958E0
4.163730895E0,1.663242340E0,9.707041740E0,1.175696611E0
4.167702770E0,1.718270659E0,9.721072197E0,1.170678496E0
4.171671520E0,1.750008225E0,9.742763519E0,1.148939133E0
4.175643395E0,1.776047587E0,9.756017685E0,1.136249900E0
4.179613707E0,1.795134187E0,9.759378433E0,1.127487063E0
4.183584020E0,1.825645924E0,9.762299538E0,1.085052252E0
4.187554332E0,1.841734886E0,9.759149551E0,1.098670363E0
4.191524645E0,1.861788750E0,9.755845070E0,1.090338588E0
4.195494957E0,1.862037778E0,9.760154724E0,1.077141762E0
4.199465270E0,1.876431584E0,9.733684540E0,1.058553219E0
4.203437145E0,1.866481304E0,9.704312325E0,1.054157495E0
4.207407457E0,1.850334883E0,9.685666084E0,1.050623536E0
4.211377770E0,1.849358082E0,9.685283661E0,1.048191071E0
4.215348082E0,1.836036563E0,9.660172462E0,1.054693699E0
4.219318395E0,1.826565146E0,9.627783775E0,1.063753366E0
4.223290270E0,1.786026597E0,9.622392654E0,1.065620899E0
4.227259020E0,1.774026871E0,9.617239952E0,1.060621858E0
4.231234020E0,1.745622039E0,9.618561745E0,1.077793002E0
4.235201207E0,1.727751732E0,9.624250412E0,1.084267020E0
4.239171520E0,1.711490393E0,9.621798515E0,1.079574227E0
4.243141832E0,1.683334470E0,9.637112617E0,1.078674078E0
4.247112145E0,1.642661691E0,9.651342392E0,1.069662213E0
4.251082457E0,1.614410162E0,9.654743195E0,1.084563851E0
4.255052770E0,1.595390677E0,9.663697243E0,1.077122569E0
4.259024645E0,1.563480735E0,9.662087440E0,1.072592735E0
4.262994957E0,1.555043578E0,9.661332130E0,1.056685686E0
4.266965270E0,1.518268704E0,9.669252396E0,1.048440099E0
4.270935582E0,1.480899930E0,9.681300163E0,1.046802521E0
4.274905895E0,1.491932392E0,9.675993919E0,1.021337748E0
4.278876207E0,1.491262078E0,9.685962677E0,1.020092726E0
4.282846520E0,1.467530727E0,9.656006813E0,1.002959847E0
4.286816832E0,1.464561939E0,9.631586075E0,9.986790419E-1
4.290787145E0,1.490563035E0,9.606609344E0,9.943119287E-1
4.294759020E0,1.479607105E0,9.573866844E0,9.793146849E-1
4.298729332E0,1.491510987E0,9.542023659E0,9.760776758E-1
4.302699645E0,1.482853651E0,9.531221390E0,9.767097831E-1
4.306669957E0,1.498550057E0,9.538020134E0,9.638385773E-1
4.310640270E0,1.527711391E0,9.531202316E0,9.881827831E-1
4.314612145E0,1.559314847E0,9.557691574E0,1.005804181E0
4.318582457E0,1.603981137E0,9.563925743E0,1.006886244E0
4.322557457E0,1.654307127E0,9.586786270E0,1.032226562E0
4.326523082E0,1.687969565E0,9.575638771E0,1.035051703E0
4.330493395E0,1.713041782E0,9.550241470E0,1.022180438E0
4.334463707E0,1.743582129E0,9.534458160E0,1.010851145E0
4.338434020E0,1.765197039E0,9.543489456E0,9.863823652E-1
4.342405895E0,1.799788475E0,9.547731400E0,9.679182768E-1
4.346376207E0,1.816030741E0,9.565850258E0,9.536392689E-1
4.350346520E0,1.821977854E0,9.575304031E0,9.459778666E-1
4.354316832E0,1.838134050E0,9.611053467E0,9.347059131E-1
4.358287145E0,1.826201320E0,9.614616394E0,9.271306992E-1
4.362257457E0,1.826833367E0,9.609703064E0,9.260963798E-1
4.366227770E0,1.804280043E0,9.629144669E0,9.230509400E-1
4.370198082E0,1.776861548E0,9.648660660E0,8.982565999E-1
4.374169957E0,1.744750500E0,9.682103157E0,8.765555620E-1
4.378140270E0,1.707027435E0,9.717040062E0,8.625638485E-1
4.382110582E0,1.658655047E0,9.753527641E0,8.718724847E-1
4.386080895E0,1.623661399E0,9.781903267E0,8.479017615E-1
4.390051207E0,1.602333903E0,9.783435822E0,8.702253103E-1
4.394021520E0,1.562637925E0,9.766197205E0,8.571912050E-1
4.397993395E0,1.539232254E0,9.754073143E0,8.658103347E-1
4.401963707E0,1.507753253E0,9.739755630E0,8.570188880E-1
4.405932457E0,1.481292605E0,9.746814728E0,8.534563184E-1
4.409904332E0,1.452993155E0,9.736605644E0,8.468770385E-1
4.413874645E0,1.445810556E0,9.747868538E0,8.351837397E-1
4.417844957E0,1.453816772E0,9.739785194E0,8.480166793E-1
4.421816832E0,1.476963878E0,9.754734039E0,8.609932065E-1
4.425785582E0,1.489729762E0,9.772297859E0,8.871953487E-1
4.429755895E0,1.518757105E0,9.791068077E0,9.115492105E-1
4.433727770E0,1.537843585E0,9.789775848E0,9.147574306E-1
4.437698082E0,1.575700760E0,9.804429054E0,9.025853276E-1
4.441668395E0,1.580460429E0,9.795176506E0,8.818706870E-1
4.445638707E0,1.621544957E0,9.802292824E0,9.009668827E-1
4.449609020E0,1.640190959E0,9.790493965E0,8.834412694E-1
4.453579332E0,1.662964582E0,9.787583351E0,8.811811805E-1
4.457551207E0,1.675653934E0,9.776684761E0,8.786050081E-1
4.461521520E0,1.702909470E0,9.744822502E0,9.061478972E-1
4.465491832E0,1.696368575E0,9.748796463E0,9.291226268E-1
4.469462145E0,1.689300776E0,9.740741730E0,9.600365758E-1
4.473432457E0,1.677885294E0,9.722048759E0,9.912186265E-1
4.477402770E0,1.685833931E0,9.722421646E0,9.840360880E-1
4.481373082E0,1.679848552E0,9.715029716E0,1.006905437E0
4.485343395E0,1.683123827E0,9.706639290E0,1.014519095E0
4.489315270E0,1.671315551E0,9.699514389E0,1.030234575E0
4.493285582E0,1.636877418E0,9.692667007E0,1.053448677E0
4.497255895E0,1.632232666E0,9.702405930E0,1.055067301E0
4.501226207E0,1.619217753E0,9.706323624E0,1.066281557E0
4.505196520E0,1.586819410E0,9.719875336E0,1.070648670E0
4.509166832E0,1.581149936E0,9.714540482E0,1.079986095E0
4.513138707E0,1.576361537E0,9.714607239E0,1.097540379E0
4.517109020E0,1.565367460E0,9.708755493E0,1.107672572E0
4.521079332E0,1.573019266E0,9.700088501E0,1.137638450E0
4.525049645E0,1.557198405E0,9.699734688E0,1.144744515E0
4.529019957E0,1.545830727E0,9.688185692E0,1.152386665E0
4.532990270E0,1.535736680E0,9.687016487E0,1.173560977E0
4.536960582E0,1.532174230E0,9.672057152E0,1.173589826E0
4.540932457E0,1.572933078E0,9.671454430E0,1.167652249E0
4.544901207E0,1.597985983E0,9.667211533E0,1.194495916E0
4.548873082E0,1.621985435E0,9.641172409E0,1.189171314E0
4.552843395E0,1.622895241E0,9.640300751E0,1.186470628E0
4.556813707E0,1.661968589E0,9.619069099E0,1.172277689E0
4.560784020E0,1.696196198E0,9.604321480E0,1.177995086E0
4.564754332E0,1.714583635E0,9.615554810E0,1.184296608E0
4.568724645E0,1.723154902E0,9.583624840E0,1.171425462E0
4.572696520E0,1.729868174E0,9.572172165E0,1.164233327E0
4.576666832E0,1.744089723E0,9.563706398E0,1.151907921E0
4.580635582E0,1.753369570E0,9.570514679E0,1.119251013E0
4.584607457E0,1.738353252E0,9.570984840E0,1.106724501E0
4.588577770E0,1.733574510E0,9.581106186E0,1.100681543E0
4.592548082E0,1.741915822E0,9.577802658E0,1.087915659E0
4.596519957E0,1.724706292E0,9.585330009E0,1.080694795E0
4.600488707E0,1.704939842E0,9.597463608E0,1.072755575E0
4.604459020E0,1.694845796E0,9.586738586E0,1.080618143E0
4.608430895E0,1.681313753E0,9.572583199E0,1.088662744E0
4.612401207E0,1.662572026E0,9.561081886E0,1.098105311E0
4.616371520E0,1.627080321E0,9.550576210E0,1.103928089E0
4.620341832E0,1.619227290E0,9.539859772E0,1.084937215E0
4.624312145E0,1.596511126E0,9.537244797E0,1.074594378E0
4.628282457E0,1.592182517E0,9.538413048E0,1.085751295E0
4.632254332E0,1.566516638E0,9.542473793E0,1.108486652E0
4.636224645E0,1.581351042E0,9.552481651E0,1.121415377E0
4.640194957E0,1.589529634E0,9.550087929E0,1.128846884E0
4.644165270E0,1.609813333E0,9.577515602E0,1.160115242E0
4.648135582E0,1.638744831E0,9.590454102E0,1.158506393E0
4.652105895E0,1.670673966E0,9.595280647E0,1.148393154E0
4.656077770E0,1.701511264E0,9.577304840E0,1.146544933E0
4.660048082E0,1.715589166E0,9.575360298E0,1.139697552E0
4.664018395E0,1.751473546E0,9.561129570E0,1.148881555E0
4.667988707E0,1.754844427E0,9.553774834E0,1.157462358E0
4.671959020E0,1.781563878E0,9.534094810E0,1.158008337E0
4.675929332E0,1.798658490E0,9.517526627E0,1.189037204E0
4.679899645E0,1.800449252E0,9.504464149E0,1.203747153E0
4.683869957E0,1.791705728E0,9.504281044E0,1.210853100E0
4.687841832E0,1.802450776E0,9.508341789E0,1.225764275E0
4.691812145E0,1.806089997E0,9.524938583E0,1.227229476E0
4.695782457E0,1.811998844E0,9.539831161E0,1.235810280E0
4.699752770E0,1.827494144E0,9.548871040E0,1.252531409E0
4.703723082E0,1.838382959E0,9.587916374E0,1.262491345E0
4.707693395E0,1.856128812E0,9.634717941E0,1.274902821E0
4.711663707E0,1.871078253E0,9.671080589E0,1.277411938E0
4.715635582E0,1.893420935E0,9.724194527E0,1.285695910E0
4.719605895E0,1.891141653E0,9.757645607E0,1.283368826E0
4.723576207E0,1.884102702E0,9.779117584E0,1.306238174E0
4.727549645E0,1.891706705E0,9.811687469E0,1.291288733E0
4.731516832E0,1.890892625E0,9.819684982E0,1.319434881E0
4.735487145E0,1.885903120E0,9.825708389E0,1.331415534E0
4.739457457E0,1.891246915E0,9.834115982E0,1.322307944E0
4.743427770E0,1.875042915E0,9.823237419E0,1.345464706E0
4.747399645E0,1.861147046E0,9.789623260E0,1.345876575E0
4.751369957E0,1.852958918E0,9.766120911E0,1.357215405E0
4.755340270E0,1.833699942E0,9.725870132E0,1.369129062E0
4.759310582E0,1.815159202E0,9.700902939E0,1.367146611E0
4.763280895E0,1.803025365E0,9.672307014E0,1.350760698E0
4.767251207E0,1.791839719E0,9.639170647E0,1.360442877E0
4.771223082E0,1.809595108E0,9.605134964E0,1.356296182E0
4.775193395E0,1.796599388E0,9.574766159E0,1.334432244E0
4.779162145E0,1.796867609E0,9.536756516E0,1.356142879E0
4.783134020E0,1.787290812E0,9.487953186E0,1.326770902E0
4.787104332E0,1.787664175E0,9.480742455E0,1.314732790E0
4.791074645E0,1.802345514E0,9.481804848E0,1.303604484E0
4.795044957E0,1.816557527E0,9.488921165E0,1.270258069E0
4.799015270E0,1.860773563E0,9.501427650E0,1.272345781E0
4.802987145E0,1.858580470E0,9.512306213E0,1.245387077E0
4.806957457E0,1.895508647E0,9.539696693E0,1.246162891E0
4.810927770E0,1.909883380E0,9.570179939E0,1.243663311E0
4.814898082E0,1.929228544E0,9.599177361E0,1.229719520E0
4.818868395E0,1.959472179E0,9.626893997E0,1.193729877E0
4.822838707E0,1.981115699E0,9.626501083E0,1.199878216E0
4.826809020E0,2.020438194E0,9.644553185E0,1.173091769E0
4.830780895E0,2.009558916E0,9.617612839E0,1.155671597E0
4.834749645E0,2.006369829E0,9.566539764E0,1.164415121E0
4.838721520E0,1.981364727E0,9.549446106E0,1.175648808E0
4.842691832E0,1.962632418E0,9.523818016E0,1.191259027E0
4.846662145E0,1.941343307E0,9.524239540E0,1.214789152E0
4.850632457E0,1.921117067E0,9.526605606E0,1.234440804E0
4.854604332E0,1.907249808E0,9.525379181E0,1.252426028E0
4.858573082E0,1.877303123E0,9.542655945E0,1.252311110E0
4.862544957E0,1.858810306E0,9.543191910E0,1.280562758E0
4.866515270E0,1.852527976E0,9.556292534E0,1.277047992E0
4.870485582E0,1.832541108E0,9.561981201E0,1.277948260E0
4.874455895E0,1.805754781E0,9.586709023E0,1.273724794E0
4.878426207E0,1.806214452E0,9.595003128E0,1.269472837E0
4.882396520E0,1.795938611E0,9.607232094E0,1.260518432E0
4.886368395E0,1.791782260E0,9.609808922E0,1.243481278E0
4.890338707E0,1.787338614E0,9.625763893E0,1.235944390E0
4.894309020E0,1.777168036E0,9.625600815E0,1.222699761E0
4.898279332E0,1.753839016E0,9.608888626E0,1.226492047E0
4.902249645E0,1.757822871E0,9.596669197E0,1.223322153E0
4.906219957E0,1.747700214E0,9.570121765E0,1.219692469E0
4.910190270E0,1.732453942E0,9.543393135E0,1.212165117E0
4.914160582E0,1.714880466E0,9.540251732E0,1.231941342E0
4.918157457E0,1.706213474E0,9.535569191E0,1.254216909E0
4.922102770E0,1.686207533E0,9.535138130E0,1.267452002E0
4.926073082E0,1.700103521E0,9.547281265E0,1.279097438E0
4.930043395E0,1.702277422E0,9.550594330E0,1.293740392E0
4.934013707E0,1.709383368E0,9.542023659E0,1.298126578E0
4.937984020E0,1.735039711E0,9.545537949E0,1.296651721E0
4.941954332E0,1.758732677E0,9.564242363E0,1.302723527E0
4.945926207E0,1.781602025E0,9.555651665E0,1.301286936E0
4.949898082E0,1.815456033E0,9.550173759E0,1.287381291E0
4.953866832E0,1.829601049E0,9.527916908E0,1.299984455E0
4.957837145E0,1.856301188E0,9.523464203E0,1.295339704E0
4.961807457E0,1.856406450E0,9.521549225E0,1.306688190E0
4.965777770E0,1.890270114E0,9.528549194E0,1.321158767E0
4.969748082E0,1.899722457E0,9.515802383E0,1.327929616E0
4.973718395E0,1.916223288E0,9.520849228E0,1.346422315E0
4.977690270E0,1.929956436E0,9.514432907E0,1.338262916E0
4.981660582E0,1.940222740E0,9.529257774E0,1.332765818E0
4.985630895E0,1.959452987E0,9.531421661E0,1.323208213E0
4.989601207E0,1.964069009E0,9.565151215E0,1.331731558E0
4.993571520E0,1.963810444E0,9.555249214E0,1.328657508E0
4.997541832E0,1.958907127E0,9.571636200E0,1.327345490E0
5.001512145E0,1.964385033E0,9.592857361E0,1.331223965E0
5.005484020E0,1.949751735E0,9.605738640E0,1.342840672E0
5.009454332E0,1.941304922E0,9.611159325E0,1.348749638E0
5.013424645E0,1.963187933E0,9.625878334E0,1.361419678E0
5.017394957E0,1.959596634E0,9.640875816E0,1.353451729E0
5.021365270E0,1.961167216E0,9.654062271E0,1.358067870E0
5.025335582E0,1.971002579E0,9.650471687E0,1.358221054E0
5.029305895E0,1.988537669E0,9.666062355E0,1.354083896E0
5.033276207E0,2.001811266E0,9.675342560E0,1.353432655E0
5.037246520E0,2.000211954E0,9.676012993E0,1.364752412E0
5.041218395E0,1.980751872E0,9.671348572E0,1.369531274E0
5.045188707E0,1.991247892E0,9.654369354E0,1.385783076E0
5.049159020E0,1.969977856E0,9.645759583E0,1.390255451E0
5.053129332E0,1.951791525E0,9.617306709E0,1.379826307E0
5.057099645E0,1.939226866E0,9.626405716E0,1.373582244E0
5.061071520E0,1.902978539E0,9.647751808E0,1.399516225E0
5.065040270E0,1.875234485E0,9.633903503E0,1.389814973E0
5.069012145E0,1.877293587E0,9.620525360E0,1.394019127E0
5.072982457E0,1.870676041E0,9.611953735E0,1.404936790E0
5.076952770E0,1.842807531E0,9.615659714E0,1.396413326E0
5.080923082E0,1.821977854E0,9.604493141E0,1.409045219E0
5.084893395E0,1.794185996E0,9.592990875E0,1.409370780E0
5.088863707E0,1.781784058E0,9.580801010E0,1.416112781E0
5.092834020E0,1.763032675E0,9.580714226E0,1.418152690E0
5.096805895E0,1.740795255E0,9.592350006E0,1.393128514E0
5.100776207E0,1.742547870E0,9.604703903E0,1.395742893E0
5.104746520E0,1.724600911E0,9.606265068E0,1.406622171E0
5.108716832E0,1.708952427E0,9.606696129E0,1.396882534E0
5.112687145E0,1.710101724E0,9.629508018E0,1.398108363E0
5.116657457E0,1.709881306E0,9.649600983E0,1.391538858E0
5.120629332E0,1.729063749E0,9.637495041E0,1.382919669E0
5.124599645E0,1.734034061E0,9.653153419E0,1.372883201E0
5.128569957E0,1.749835849E0,9.639017105E0,1.379845500E0
5.132540270E0,1.745976329E0,9.617651939E0,1.386328936E0
5.136510582E0,1.743888617E0,9.619806290E0,1.379404902E0
5.140480895E0,1.748255610E0,9.623522758E0,1.342199087E0
5.144451207E0,1.751272321E0,9.599168777E0,1.343434453E0
5.148421520E0,1.743610978E0,9.606629372E0,1.351766229E0
5.152393395E0,1.741264701E0,9.604014397E0,1.344200611E0
5.156376207E0,1.734493732E0,9.594840050E0,1.337736249E0
5.160334020E0,1.753647447E0,9.607117653E0,1.341624379E0
5.164304332E0,1.732492208E0,9.606992722E0,1.333742619E0
5.168274645E0,1.727493167E0,9.611455917E0,1.351852417E0
5.172244957E0,1.720205188E0,9.619749069E0,1.345876575E0
5.176215270E0,1.704010844E0,9.625476837E0,1.329097986E0
5.180187145E0,1.701788902E0,9.610689163E0,1.337075472E0
5.184157457E0,1.705734611E0,9.607567787E0,1.335581422E0
5.188127770E0,1.698944688E0,9.605546951E0,1.330304742E0
5.192098082E0,1.693495512E0,9.617450714E0,1.308632374E0
5.196068395E0,1.686964154E0,9.631011963E0,1.309331417E0
5.200038707E0,1.681706429E0,9.656524658E0,1.326062083E0
5.204010582E0,1.676917911E0,9.665737152E0,1.306142330E0
5.207979332E0,1.659200907E0,9.692676544E0,1.297235966E0
5.211951207E0,1.659651041E0,9.721569061E0,1.291451573E0
5.215921520E0,1.668030739E0,9.737179756E0,1.297044396E0
5.219891832E0,1.659871340E0,9.735131264E0,1.297599912E0
5.223862145E0,1.660752296E0,9.723983765E0,1.282583356E0
5.227832457E0,1.650035858E0,9.710422516E0,1.295588732E0
5.231802770E0,1.637480736E0,9.704705238E0,1.276569247E0
5.235774645E0,1.638591647E0,9.691451073E0,1.281865120E0
5.239744957E0,1.641550899E0,9.673637390E0,1.280811787E0
5.243715270E0,1.640104771E0,9.645204544E0,1.276856422E0
5.247685582E0,1.645573139E0,9.636135101E0,1.256524920E0
5.251655895E0,1.630594969E0,9.619193077E0,1.266436934E0
5.255626207E0,1.632366657E0,9.606983185E0,1.269204617E0
5.259598082E0,1.636704922E0,9.618953705E0,1.269951701E0
5.263568395E0,1.640258074E0,9.600959778E0,1.254140258E0
5.267538707E0,1.639051318E0,9.608601570E0,1.247819543E0
5.271509020E0,1.662294149E0,9.615429878E0,1.242897153E0
5.275479332E0,1.668710709E0,9.608631134E0,1.237620354E0
5.279449645E0,1.671947598E0,9.610239029E0,1.228168011E0
5.283419957E0,1.665588617E0,9.612490654E0,1.227861524E0
5.287391832E0,1.657141924E0,9.617929459E0,1.224902391E0
5.291360582E0,1.658080459E0,9.640377998E0,1.223973393E0
5.295332457E0,1.655590415E0,9.633779526E0,1.225438595E0
5.299302770E0,1.659133911E0,9.636872292E0,1.230418563E0
5.303273082E0,1.658080459E0,9.639544487E0,1.217068434E0
5.307243395E0,1.669553518E0,9.630292892E0,1.213017464E0
5.311213707E0,1.673614025E0,9.615296364E0,1.206198812E0
5.315184020E0,1.679839015E0,9.600404739E0,1.201391220E0
5.319155895E0,1.685719132E0,9.595682144E0,1.181950331E0
5.323129332E0,1.678134322E0,9.588165283E0,1.190195918E0
5.327096520E0,1.674696207E0,9.589908600E0,1.185828924E0
5.331066832E0,1.661643028E0,9.570801735E0,1.187275052E0
5.335037145E0,1.666364431E0,9.572449684E0,1.186183333E0
5.339007457E0,1.671162367E0,9.597732544E0,1.207347989E0
5.342977770E0,1.678795099E0,9.623072624E0,1.194457650E0
5.346948082E0,1.692442060E0,9.632706642E0,1.197474360E0
5.350919957E0,1.700084329E0,9.638308525E0,1.191575050E0
5.354890270E0,1.700448275E0,9.631586075E0,1.187562346E0
5.358860582E0,1.698168993E0,9.657357216E0,1.192733884E0
5.362830895E0,1.704039574E0,9.671061516E0,1.180638313E0
5.366801207E0,1.701750755E0,9.681212425E0,1.177047014E0
5.370771520E0,1.711346626E0,9.701046944E0,1.177353501E0
5.374741832E0,1.731812239E0,9.716876984E0,1.174231410E0
5.378713707E0,1.753072739E0,9.717078209E0,1.174748540E0
5.382682457E0,1.773490548E0,9.729498863E0,1.156495214E0
5.386654332E0,1.761711001E0,9.724260330E0,1.156351566E0
5.390624645E0,1.778288603E0,9.707588196E0,1.160910130E0
5.394621520E0,1.763224244E0,9.702511787E0,1.152051568E0
5.398565270E0,1.760897040E0,9.675189018E0,1.141363859E0
5.402535582E0,1.740958095E0,9.655825615E0,1.142331004E0
5.406505895E0,1.745593309E0,9.644945145E0,1.123867035E0
5.410477770E0,1.740718722E0,9.614827156E0,1.117009997E0
5.414448082E0,1.709143877E0,9.610996246E0,1.135972023E0
5.418418395E0,1.705389857E0,9.604483604E0,1.115286112E0
5.422393395E0,1.705878258E0,9.608802795E0,1.109722018E0
5.426359020E0,1.687155604E0,9.617929459E0,1.105843544E0
5.430329332E0,1.686446905E0,9.610354424E0,1.075235963E0
5.434301207E0,1.681342483E0,9.626616478E0,1.076595902E0
5.438271520E0,1.669457674E0,9.621167183E0,1.060162067E0
5.442240270E0,1.664171219E0,9.608631134E0,1.049359441E0
5.446212145E0,1.657141924E0,9.605958939E0,1.054119110E0
5.450182457E0,1.633362651E0,9.606992722E0,1.063897133E0
5.454152770E0,1.624456286E0,9.599427223E0,1.046773672E0
5.458124645E0,1.619964719E0,9.606772423E0,1.046438456E0
5.462093395E0,1.615358233E0,9.609712601E0,1.061378241E0
5.466065270E0,1.594097733E0,9.615880013E0,1.067411780E0
5.470035582E0,1.601414442E0,9.642139435E0,1.048765779E0
5.474005895E0,1.589347601E0,9.677919388E0,1.062460542E0
5.477976207E0,1.606911659E0,9.720592499E0,1.057585955E0
5.481946520E0,1.613663197E0,9.751841545E0,1.073713303E0
5.485916832E0,1.620711803E0,9.773524284E0,1.072659731E0
5.489888707E0,1.616421342E0,9.800990105E0,1.074211359E0
5.493859020E0,1.625471473E0,9.803327560E0,1.091947556E0
5.497829332E0,1.628641367E0,9.797973633E0,1.073722959E0
5.501799645E0,1.616162777E0,9.805702209E0,1.062824488E0
5.505769957E0,1.595620513E0,9.784632683E0,1.054981112E0
5.509740270E0,1.575930595E0,9.762730598E0,1.033509851E0
5.513734020E0,1.551710844E0,9.743778229E0,1.043211222E0
5.517680895E0,1.539826035E0,9.727315903E0,1.036593676E0
5.521651207E0,1.519111395E0,9.704608917E0,1.020562053E0
5.525623082E0,1.508730054E0,9.698575974E0,1.026863575E0
5.529593395E0,1.486339569E0,9.680160522E0,1.020897150E0
5.533563707E0,1.468306422E0,9.687418938E0,1.017784715E0
5.537534020E0,1.450589299E0,9.700951576E0,1.002366066E0
5.541504332E0,1.482930183E0,9.689745903E0,9.861621261E-1
5.545474645E0,1.490677834E0,9.691660881E0,9.677937627E-1
5.549446520E0,1.488456011E0,9.681797028E0,9.436697960E-1
5.553416832E0,1.497726440E0,9.665047646E0,9.334513545E-1
5.557387145E0,1.471830726E0,9.655163765E0,9.497127533E-1
5.561357457E0,1.452399373E0,9.630514145E0,9.322255254E-1
5.565327770E0,1.442659736E0,9.627075195E0,9.088389874E-1
5.569298082E0,1.429175615E0,9.629996300E0,9.035621285E-1
5.573268395E0,1.451566219E0,9.623072624E0,8.959773183E-1
5.577238707E0,1.441357255E0,9.619672775E0,8.916390538E-1
5.581209020E0,1.443828106E0,9.610105515E0,9.098157883E-1
5.585180895E0,1.449449658E0,9.597598076E0,9.219878912E-1
5.589151207E0,1.454276323E0,9.594781876E0,9.129952788E-1
5.593121520E0,1.451652288E0,9.579277039E0,9.153799415E-1
5.597091832E0,1.457350612E0,9.587618828E0,9.122578502E-1
5.601062145E0,1.460712075E0,9.572181702E0,9.184541106E-1
5.605032457E0,1.481292605E0,9.582619667E0,9.294673800E-1
5.609004332E0,1.490639567E0,9.588203430E0,9.294865727E-1
5.612974645E0,1.506316781E0,9.600213051E0,9.424726963E-1
5.616944957E0,1.512781143E0,9.611866951E0,9.428079128E-1
5.620915270E0,1.540189981E0,9.629766464E0,9.539552927E-1
5.624885582E0,1.542794824E0,9.649551392E0,9.652942419E-1
5.628855895E0,1.535047293E0,9.666273117E0,9.751392007E-1
5.632826207E0,1.555541635E0,9.699275017E0,9.804734588E-1
5.636798082E0,1.554497719E0,9.717298508E0,9.888532162E-1
5.640768395E0,1.567665815E0,9.736816406E0,9.983246326E-1
5.644740270E0,1.562877417E0,9.752167702E0,9.974244237E-1
5.648709020E0,1.580086946E0,9.770287514E0,9.904908538E-1
5.652679332E0,1.588284612E0,9.787228584E0,1.003227949E0
5.656649645E0,1.614381433E0,9.794726372E0,9.864877462E-1
5.660619957E0,1.616861820E0,9.803565979E0,9.730226994E-1
5.664591832E0,1.612006426E0,9.811926842E0,9.774568081E-1
5.668562145E0,1.625222445E0,9.810107231E0,9.742964506E-1
5.672532457E0,1.622445226E0,9.804217339E0,9.786730409E-1
5.676502770E0,1.636063337E0,9.814023972E0,9.578530788E-1
5.680473082E0,1.627808094E0,9.799371719E0,9.600461721E-1
5.684443395E0,1.616670251E0,9.788176537E0,9.553055763E-1
5.688413707E0,1.615952015E0,9.779270172E0,9.574987292E-1
5.692385582E0,1.599748135E0,9.769386292E0,9.605633020E-1
5.696354332E0,1.624915957E0,9.764865875E0,9.774759412E-1
5.700326207E0,1.619821072E0,9.762443542E0,9.530263543E-1
5.704296520E0,1.629914999E0,9.744094849E0,9.555546045E-1
5.708266832E0,1.617139697E0,9.744850159E0,9.665200710E-1
5.712237145E0,1.654278398E0,9.713103294E0,9.502394795E-1
5.716207457E0,1.653349519E0,9.691163063E0,9.266709685E-1
5.720190270E0,1.665684462E0,9.656044960E0,9.315551519E-1
5.724149645E0,1.660685301E0,9.629248619E0,9.172186852E-1
5.728119957E0,1.660838604E0,9.606102943E0,8.966189623E-1
5.732090270E0,1.678957939E0,9.600701332E0,9.016563892E-1
5.736060582E0,1.685144544E0,9.611398697E0,8.989844322E-1
5.740030895E0,1.710235715E0,9.622651100E0,8.776377439E-1
5.744002770E0,1.741494417E0,9.642589569E0,8.936597109E-1
5.747973082E0,1.730854630E0,9.660651207E0,8.724279404E-1
5.751944957E0,1.742701054E0,9.692389488E0,8.693346381E-1
5.755912145E0,1.754250765E0,9.730437279E0,8.582830429E-1
5.759884020E0,1.755476594E0,9.747206688E0,8.527572155E-1
5.763854332E0,1.762553811E0,9.773754120E0,8.564921021E-1
5.767824645E0,1.750736117E0,9.773552895E0,8.491083980E-1
5.771794957E0,1.763281584E0,9.745903969E0,8.422609568E-1
5.775765270E0,1.761510015E0,9.718667984E0,8.283362985E-1
5.779735582E0,1.742567062E0,9.695980072E0,8.494819403E-1
5.783707457E0,1.718289852E0,9.650213242E0,8.485625386E-1
5.787677770E0,1.707544684E0,9.634334564E0,8.450286984E-1
5.791648082E0,1.656624794E0,9.612346649E0,8.427110910E-1
5.795618395E0,1.644481301E0,9.599579811E0,8.698709011E-1
5.799588707E0,1.643724799E0,9.594716072E0,8.651112914E-1
5.803559020E0,1.626678109E0,9.581394196E0,8.586277366E-1
5.807530895E0,1.626093864E0,9.583817482E0,8.488019705E-1
5.811501207E0,1.622426033E0,9.578874588E0,8.411501050E-1
5.815471520E0,1.645726323E0,9.582102776E0,8.446264863E-1
5.819441832E0,1.654498816E0,9.613217354E0,8.520581126E-1
5.823412145E0,1.641933918E0,9.629852295E0,8.456799388E-1
5.827382457E0,1.645151734E0,9.637389183E0,8.310465813E-1
5.831352770E0,1.646396756E0,9.637714386E0,8.367639184E-1
5.835323082E0,1.634262919E0,9.632390976E0,8.409873247E-1
5.839294957E0,1.641866922E0,9.620065689E0,8.500661254E-1
5.843265270E0,1.641234875E0,9.622076035E0,8.556302786E-1
5.847235582E0,1.641914845E0,9.616703987E0,8.631288409E-1
5.851205895E0,1.663769007E0,9.620332718E0,8.528242111E-1
5.855176207E0,1.654929638E0,9.611378670E0,8.826559782E-1
5.859146520E0,1.664707661E0,9.610899925E0,8.827900290E-1
5.863116832E0,1.655035019E0,9.631356239E0,8.855577111E-1
5.867088707E0,1.656385422E0,9.648106575E0,8.815163374E-1
5.871057457E0,1.660235286E0,9.681682587E0,8.727630973E-1
5.875029332E0,1.659421086E0,9.690550804E0,8.715851903E-1
5.878999645E0,1.674121618E0,9.687351227E0,8.459001780E-1
5.882969957E0,1.678364158E0,9.697982788E0,8.413512111E-1
5.886941832E0,1.680681705E0,9.706274986E0,8.224274516E-1
5.890912145E0,1.669630170E0,9.698327065E0,8.132720590E-1
5.894880895E0,1.669495940E0,9.700692177E0,8.230786920E-1
5.898852770E0,1.675912499E0,9.686959267E0,8.243523836E-1
5.902823082E0,1.665483236E0,9.682151794E0,8.338429928E-1
5.906793395E0,1.666010022E0,9.672230721E0,8.111746907E-1
5.910763707E0,1.663893580E0,9.669711113E0,8.420981765E-1
5.914734020E0,1.661633372E0,9.668782234E0,8.372331262E-1
5.918704332E0,1.652707934E0,9.690722466E0,8.400391936E-1
5.922676207E0,1.654776454E0,9.677842140E0,8.329715133E-1
5.926646520E0,1.641254067E0,9.666321754E0,8.277617097E-1
5.930616832E0,1.636494279E0,9.676980019E0,8.454788327E-1
5.934587145E0,1.640468717E0,9.669519424E0,8.421939611E-1
5.938557457E0,1.629484177E0,9.676099777E0,8.329140544E-1
5.942529332E0,1.609688878E0,9.669587135E0,8.408915401E-1
5.946499645E0,1.597794414E0,9.672258377E0,8.372523189E-1
5.950468395E0,1.599144816E0,9.663093567E0,8.420598507E-1
5.954438707E0,1.598445654E0,9.661810875E0,8.461108804E-1
5.958410582E0,1.599575639E0,9.682419777E0,8.377024531E-1
5.962380895E0,1.598522305E0,9.668246269E0,8.465897441E-1
5.966351207E0,1.617915273E0,9.685666084E0,8.381429911E-1
5.970321520E0,1.614065409E0,9.687984467E0,8.277233839E-1
5.974291832E0,1.625279903E0,9.703824043E0,8.289971352E-1
5.978263707E0,1.630710006E0,9.679661751E0,8.424429893E-1
5.982234020E0,1.638811946E0,9.691393852E0,8.462066650E-1
5.986204332E0,1.657984614E0,9.674921036E0,8.493957520E-1
5.990196520E0,1.647727847E0,9.652952194E0,8.271391988E-1
5.994144957E0,1.638419271E0,9.657252312E0,8.364478946E-1
5.998115270E0,1.646454215E0,9.670573235E0,8.318414092E-1
6.002085582E0,1.641340256E0,9.669031143E0,8.313338757E-1
6.006055895E0,1.673958778E0,9.664846420E0,8.077653050E-1
6.010026207E0,1.662878394E0,9.660097122E0,7.984088063E-1
6.013998082E0,1.660311937E0,9.651430130E0,7.905941010E-1
6.017973082E0,1.679570794E0,9.651898384E0,7.784219980E-1
6.021938707E0,1.682750225E0,9.654637337E0,7.645356655E-1
6.025909020E0,1.686082959E0,9.650921822E0,7.762385011E-1
6.029879332E0,1.690478802E0,9.651294708E0,7.756926417E-1
6.033849645E0,1.680030465E0,9.650184631E0,7.613273859E-1
6.037819957E0,1.675471902E0,9.651803017E0,7.776271105E-1
6.041791832E0,1.678076744E0,9.640961647E0,7.802607417E-1
6.045762145E0,1.674284458E0,9.651639938E0,7.777324915E-1
6.049732457E0,1.674705863E0,9.655470848E0,8.072960973E-1
6.053702770E0,1.668624520E0,9.645779610E0,7.901152968E-1
6.057673082E0,1.666651726E0,9.643279076E0,7.910538316E-1
6.061644957E0,1.666977286E0,9.620324135E0,7.821378112E-1
6.065613707E0,1.665014029E0,9.617469788E0,7.802032828E-1
6.069584020E0,1.666776299E0,9.613054276E0,7.636258602E-1
6.073555895E0,1.679149389E0,9.618953705E0,7.794179916E-1
6.077526207E0,1.682022452E0,9.629623413E0,7.726280689E-1
6.081496520E0,1.671756148E0,9.648172379E0,7.751946449E-1
6.085466832E0,1.678478956E0,9.665191650E0,7.588661313E-1
6.089437145E0,1.672416925E0,9.667269707E0,7.737677097E-1
6.093407457E0,1.674897313E0,9.675821304E0,7.799255848E-1
6.097379332E0,1.688678384E0,9.681338310E0,7.642770410E-1
6.101349645E0,1.682386398E0,9.661245346E0,7.660391927E-1
6.105319957E0,1.671507120E0,9.670123100E0,7.598238587E-1
6.109309020E0,1.682309866E0,9.689085007E0,7.506875396E-1
6.113260582E0,1.678411961E0,9.678732872E0,7.428537607E-1
6.117235582E0,1.661834598E0,9.674749374E0,7.548343539E-1
6.121202770E0,1.661480188E0,9.673053741E0,7.599004507E-1
6.125173082E0,1.657276034E0,9.673207283E0,7.510802150E-1
6.129143395E0,1.632989287E0,9.677334785E0,7.609634995E-1
6.133113707E0,1.623019814E0,9.666810036E0,7.760086656E-1
6.137084020E0,1.614563465E0,9.653938293E0,7.551312447E-1
6.141054332E0,1.616105318E0,9.652416229E0,7.739688158E-1
6.145024645E0,1.598321199E0,9.646564484E0,7.646313906E-1
6.148994957E0,1.606911659E0,9.642848969E0,7.640568018E-1
6.152966832E0,1.602343440E0,9.649102211E0,7.445296645E-1
6.156937145E0,1.579292059E0,9.651199341E0,7.648612857E-1
6.160907457E0,1.572396755E0,9.648461342E0,7.538192272E-1
6.164877770E0,1.572492599E0,9.658593178E0,7.521623969E-1
6.168848082E0,1.581130862E0,9.649427414E0,7.421355247E-1
6.172818395E0,1.591923833E0,9.655489922E0,7.410150170E-1
6.176788707E0,1.595304489E0,9.650883675E0,7.539916039E-1
6.180760582E0,1.599566221E0,9.649953842E0,7.409288287E-1
6.184730895E0,1.605829358E0,9.660009384E0,7.417045236E-1
6.188701207E0,1.611336112E0,9.657319069E0,7.340047359E-1
6.192671520E0,1.607591510E0,9.664827347E0,7.428058386E-1
6.196641832E0,1.623220801E0,9.669241905E0,7.372130156E-1
6.200612145E0,1.632788062E0,9.684823036E0,7.396742702E-1
6.204582457E0,1.628172159E0,9.674960136E0,7.420780063E-1
6.208552770E0,1.643140674E0,9.677881241E0,7.445583940E-1
6.212524645E0,1.641148686E0,9.684641838E0,7.359584570E-1
6.216494957E0,1.647383213E0,9.690435410E0,7.252707481E-1
6.220465270E0,1.643370509E0,9.710661888E0,7.169963717E-1
6.224435582E0,1.643925905E0,9.713123322E0,7.040101886E-1
6.228405895E0,1.635517478E0,9.728235245E0,6.853833795E-1
6.232376207E0,1.641340256E0,9.715009689E0,6.777218580E-1
6.236348082E0,1.645046353E0,9.714052200E0,6.827496886E-1
6.240318395E0,1.630211949E0,9.691766739E0,6.745806932E-1
6.244287145E0,1.611518025E0,9.681960106E0,6.640462279E-1
6.248259020E0,1.612073541E0,9.677937508E0,7.015777230E-1
6.252229332E0,1.591732264E0,9.662480354E0,6.947973371E-1
6.256199645E0,1.584444284E0,9.678953171E0,6.888884306E-1
6.260171520E0,1.606767893E0,9.687763214E0,7.092487216E-1
6.264140270E0,1.610991359E0,9.668620110E0,7.130986452E-1
6.268110582E0,1.615712643E0,9.686968803E0,7.127059102E-1
6.272082457E0,1.632596612E0,9.691728592E0,7.211431265E-1
6.276052770E0,1.635814309E0,9.695597649E0,7.253186107E-1
6.280023082E0,1.644318581E0,9.710096359E0,7.460236549E-1
6.283993395E0,1.664401174E0,9.718725204E0,7.419152260E-1
6.287963707E0,1.675950766E0,9.717623711E0,7.569891214E-1
6.291934020E0,1.687586546E0,9.729145050E0,7.512334585E-1
6.295904332E0,1.687394977E0,9.743950844E0,7.355753779E-1
6.299874645E0,1.714851856E0,9.768476486E0,7.576786280E-1
6.303846520E0,1.725721478E0,9.783445358E0,7.518176436E-1
6.307816832E0,1.732310295E0,9.779078484E0,7.176859379E-1
6.311787145E0,1.761145949E0,9.776578903E0,7.114418149E-1
6.315757457E0,1.768443584E0,9.762903214E0,7.138168812E-1
6.319727770E0,1.771728396E0,9.741221428E0,7.145925760E-1
6.323698082E0,1.776516795E0,9.728590012E0,7.186340094E-1
6.327669957E0,1.761260986E0,9.702991486E0,7.113556266E-1
6.331640270E0,1.771728396E0,9.692207336E0,7.155023813E-1
6.335610582E0,1.738765001E0,9.651888847E0,7.173411250E-1
6.339582457E0,1.740756989E0,9.635876656E0,7.114706039E-1
6.343551207E0,1.751176596E0,9.615631104E0,7.087890506E-1
6.347521520E0,1.734043717E0,9.613888741E0,7.158663273E-1
6.351493395E0,1.728000760E0,9.616483688E0,7.300974727E-1
6.355463707E0,1.742825508E0,9.612556458E0,7.220241427E-1
6.359434020E0,1.744530320E0,9.598230362E0,7.129358053E-1
6.363404332E0,1.752105594E0,9.590760231E0,7.050828338E-1
6.367374645E0,1.739109874E0,9.579861641E0,6.797617078E-1
6.371344957E0,1.717380047E0,9.580839157E0,6.916273832E-1
6.375315270E0,1.703694820E0,9.583787918E0,6.761513352E-1
6.379285582E0,1.725213885E0,9.581662178E0,6.980246902E-1
6.383255895E0,1.718107939E0,9.579651833E0,6.963009238E-1
6.387227770E0,1.713510990E0,9.561877251E0,7.336791754E-1
6.391198082E0,1.706740260E0,9.570496559E0,7.382760644E-1
6.395168395E0,1.695037365E0,9.566320419E0,7.294844985E-1
6.399138707E0,1.701061130E0,9.589506149E0,7.558015585E-1
6.403109020E0,1.685154080E0,9.602050781E0,7.575158477E-1
6.407079332E0,1.691474676E0,9.605901718E0,7.561367750E-1
6.411051207E0,1.691034198E0,9.615957260E0,7.582532167E-1
6.415021520E0,1.683487654E0,9.625965118E0,7.585693002E-1
6.418991832E0,1.670080185E0,9.628196716E0,7.612220645E-1
6.422962145E0,1.675376058E0,9.632974625E0,7.602930665E-1
6.426932457E0,1.672330737E0,9.636336327E0,7.639610767E-1
6.430902770E0,1.672378659E0,9.645510674E0,7.474218607E-1
6.434873082E0,1.666958094E0,9.656341553E0,7.695634961E-1
6.438843395E0,1.677176595E0,9.660497665E0,7.780197859E-1
6.442813707E0,1.688151598E0,9.645329475E0,7.645356655E-1
6.446785582E0,1.675088882E0,9.652348518E0,7.551024556E-1
6.450755895E0,1.702239156E0,9.665162086E0,7.615476847E-1
6.454726207E0,1.693227291E0,9.674672127E0,7.612795234E-1
6.458696520E0,1.697048426E0,9.672258377E0,7.397316694E-1
6.462666832E0,1.703081965E0,9.688865662E0,7.481688857E-1
6.466638707E0,1.684129357E0,9.683884621E0,7.615094185E-1
6.470609020E0,1.672694683E0,9.690588951E0,7.622467875E-1
6.474579332E0,1.677760720E0,9.703814507E0,7.620456815E-1
6.478549645E0,1.663156152E0,9.688452721E0,7.659530044E-1
6.482519957E0,1.683229089E0,9.696162224E0,7.606474757E-1
6.486490270E0,1.673269272E0,9.678091049E0,7.680120468E-1
6.490460582E0,1.676266789E0,9.681845665E0,7.404882908E-1
6.494430895E0,1.669266105E0,9.682898521E0,7.563474774E-1
6.498401207E0,1.669562936E0,9.673685074E0,7.421067357E-1
6.502373082E0,1.672752023E0,9.690704346E0,7.554089427E-1
6.506343395E0,1.664832115E0,9.689219475E0,7.624766231E-1
6.510313707E0,1.669764161E0,9.695970535E0,7.543363571E-1
6.514296520E0,1.669974804E0,9.696372986E0,7.603409886E-1
6.518254332E0,1.674562097E0,9.692312241E0,7.458991408E-1
6.522224645E0,1.668777704E0,9.686930656E0,7.449989915E-1
6.526196520E0,1.680863619E0,9.696267128E0,7.551886439E-1
6.530166832E0,1.683324933E0,9.683348656E0,7.634534836E-1
6.534135582E0,1.686695933E0,9.690455437E0,7.588853240E-1
6.538107457E0,1.677598000E0,9.676855087E0,7.782208920E-1
6.542077770E0,1.681352019E0,9.691882133E0,7.715554237E-1
6.546048082E0,1.682893872E0,9.719712257E0,7.842925787E-1
6.550019957E0,1.674236536E0,9.719118118E0,7.845607400E-1
6.553988707E0,1.681189299E0,9.713525772E0,7.788817286E-1
6.557959020E0,1.667599678E0,9.718869209E0,7.840914726E-1
6.561930895E0,1.676467896E0,9.735647202E0,7.963114381E-1
6.565901207E0,1.676582932E0,9.725851059E0,7.857195139E-1
6.569871520E0,1.660599113E0,9.730964661E0,7.870411277E-1
6.573841832E0,1.668040276E0,9.723810196E0,7.817643285E-1
6.577812145E0,1.676985145E0,9.737171173E0,7.851257920E-1
6.581782457E0,1.666757107E0,9.740368843E0,7.786614299E-1
6.585776207E0,1.662093163E0,9.722853661E0,7.860547304E-1
6.589724645E0,1.688017607E0,9.722929955E0,8.039250374E-1
6.593694957E0,1.676266789E0,9.721693993E0,7.891384363E-1
6.597665270E0,1.662725210E0,9.708889961E0,7.897609472E-1
6.601635582E0,1.666757107E0,9.716360092E0,7.888798714E-1
6.605605895E0,1.666776299E0,9.693720818E0,7.767460942E-1
6.609577770E0,1.648781419E0,9.686049461E0,7.806916833E-1
6.613551207E0,1.636283636E0,9.666071892E0,7.792935371E-1
6.617516832E0,1.645180583E0,9.666263580E0,7.849821448E-1
6.621488707E0,1.639999390E0,9.637763023E0,7.647175789E-1
6.625459020E0,1.635383368E0,9.626893997E0,7.726472020E-1
6.629429332E0,1.628507376E0,9.632285118E0,7.739208937E-1
6.633399645E0,1.621592760E0,9.665641785E0,7.714692354E-1
6.637369957E0,1.632481694E0,9.644064903E0,7.954304218E-1
6.641341832E0,1.613232255E0,9.655125618E0,7.714979649E-1
6.645312145E0,1.624188066E0,9.649035454E0,7.751180530E-1
6.649282457E0,1.638888597E0,9.671684265E0,7.742752433E-1
6.653252770E0,1.642518163E0,9.679680824E0,7.677247524E-1
6.657223082E0,1.642757535E0,9.675457001E0,7.845224738E-1
6.661193395E0,1.654307127E0,9.687821388E0,7.699465156E-1
6.665163707E0,1.674657822E0,9.692543030E0,7.688356042E-1
6.669135582E0,1.673345804E0,9.694209099E0,7.626681328E-1
6.673104332E0,1.683018446E0,9.689487457E0,7.653496861E-1
6.677076207E0,1.687912226E0,9.678263664E0,7.565869093E-1
6.681046520E0,1.665751457E0,9.666158676E0,7.763246894E-1
6.685016832E0,1.683401465E0,9.673513412E0,7.631757259E-1
6.688987145E0,1.668413877E0,9.645442963E0,7.956794500E-1
6.692957457E0,1.677435160E0,9.636795998E0,8.096615672E-1
6.696927770E0,1.678201318E0,9.626702309E0,8.108394742E-1
6.700899645E0,1.672292471E0,9.641996384E0,8.244290352E-1
6.704869957E0,1.692451715E0,9.621223450E0,8.204067349E-1
6.708840270E0,1.700917482E0,9.654071808E0,8.094795942E-1
6.712815270E0,1.696713209E0,9.662087440E0,8.160110116E-1
6.716780895E0,1.698235989E0,9.655423164E0,8.064150214E-1
6.720751207E0,1.721708775E0,9.661983490E0,7.951048017E-1
6.724723082E0,1.722110987E0,9.652999878E0,7.972978950E-1
6.728693395E0,1.734216094E0,9.668658257E0,7.869741321E-1
6.732662145E0,1.741255045E0,9.656878471E0,8.008125424E-1
6.736640270E0,1.751961946E0,9.651247025E0,7.980161905E-1
6.740604332E0,1.764335036E0,9.643212318E0,7.939555645E-1
6.744574645E0,1.760312915E0,9.627181053E0,8.014063835E-1
6.748544957E0,1.764948010E0,9.636911392E0,8.126016259E-1
6.752515270E0,1.756491661E0,9.632946014E0,8.243236542E-1
6.756485582E0,1.773021221E0,9.630704880E0,8.092497587E-1
6.760457457E0,1.762802839E0,9.675189018E0,8.189989328E-1
6.764427770E0,1.762678385E0,9.659521103E0,8.332396150E-1
6.768398082E0,1.759096503E0,9.689305305E0,8.456703424E-1
6.772368395E0,1.756214023E0,9.687773705E0,8.629756570E-1
6.776338707E0,1.762773991E0,9.686749458E0,8.519910574E-1
6.780309020E0,1.763109207E0,9.679077148E0,8.386313915E-1
6.784280895E0,1.767639160E0,9.689209938E0,8.556398153E-1
6.788251207E0,1.764603257E0,9.687246323E0,8.683865070E-1
6.792221520E0,1.768366933E0,9.675610542E0,8.713744879E-1
6.796191832E0,1.771393180E0,9.676176071E0,8.567698598E-1
6.800162145E0,1.770023704E0,9.651620865E0,8.605431318E-1
6.804132457E0,1.766432524E0,9.648488998E0,8.763161302E-1
6.808102770E0,1.759393454E0,9.636163712E0,8.800223470E-1
6.812073082E0,1.739138603E0,9.633004189E0,8.829624653E-1
6.816044957E0,1.733449936E0,9.628904343E0,8.875209689E-1
6.820015270E0,1.726765275E0,9.633759499E0,8.885073662E-1
6.824010582E0,1.710293174E0,9.657319069E0,9.100264907E-1
6.827955895E0,1.704403400E0,9.675783157E0,9.110895395E-1
6.831926207E0,1.707927704E0,9.673580170E0,9.100168943E-1
6.835896520E0,1.710973144E0,9.690032959E0,9.270827770E-1
6.839868395E0,1.710484743E0,9.695032120E0,9.456426501E-1
6.843838707E0,1.736648560E0,9.702780724E0,9.273796678E-1
6.847809020E0,1.718711138E0,9.702751160E0,9.108405113E-1
6.851779332E0,1.730040550E0,9.691708565E0,9.188659191E-1
6.855749645E0,1.726803541E0,9.689517021E0,9.168451428E-1
6.859719957E0,1.724782944E0,9.664980888E0,9.416682720E-1
6.863690270E0,1.723480463E0,9.654541969E0,9.448956251E-1
6.867660582E0,1.749979496E0,9.657921791E0,9.448190331E-1
6.871630895E0,1.761337519E0,9.645108223E0,9.487646222E-1
6.875602770E0,1.781755328E0,9.642618179E0,9.506033659E-1
6.879573082E0,1.762611270E0,9.661350250E0,9.428845048E-1
6.883543395E0,1.779801607E0,9.658066750E0,9.496553540E-1
6.887513707E0,1.772159457E0,9.666637421E0,9.402700067E-1
6.891484020E0,1.779303670E0,9.682362556E0,9.225242138E-1
6.895454332E0,1.784350634E0,9.691220284E0,9.360467196E-1
6.899426207E0,1.788066387E0,9.689718246E0,9.330395460E-1
6.903396520E0,1.773835301E0,9.693308830E0,9.211738706E-1
6.907366832E0,1.770272732E0,9.688040733E0,9.098732471E-1
6.911337145E0,1.761136532E0,9.687859535E0,9.345144033E-1
6.915307457E0,1.744415402E0,9.680791855E0,9.275520444E-1
6.919277770E0,1.734828949E0,9.661963463E0,9.394943118E-1
6.923249645E0,1.723614454E0,9.656620026E0,9.344760776E-1
6.927219957E0,1.724304080E0,9.661637306E0,9.320531487E-1
6.931188707E0,1.730816245E0,9.640856743E0,9.303293228E-1
6.935162145E0,1.728632808E0,9.639017105E0,9.382301569E-1
6.939130895E0,1.722235441E0,9.653564453E0,9.320914149E-1
6.943101207E0,1.714334607E0,9.647369385E0,9.270827770E-1
6.947071520E0,1.735451460E0,9.636843681E0,9.348112941E-1
6.951041832E0,1.713961005E0,9.641325951E0,9.398295283E-1
6.955013707E0,1.722264171E0,9.647186279E0,9.337865710E-1
6.958984020E0,1.716958642E0,9.641967773E0,9.344568849E-1
6.962954332E0,1.719094276E0,9.657146454E0,9.461118579E-1
6.966924645E0,1.744578123E0,9.634181976E0,9.481900930E-1
6.970894957E0,1.751052141E0,9.632467270E0,9.441103339E-1
6.974865270E0,1.757468462E0,9.644486427E0,9.545778036E-1
6.978837145E0,1.760437369E0,9.626835823E0,9.601994157E-1
6.982807457E0,1.743141651E0,9.632352829E0,9.744592309E-1
6.986777770E0,1.755218029E0,9.651103973E0,9.829538465E-1
6.990748082E0,1.747930050E0,9.648201942E0,9.734441042E-1
6.994718395E0,1.755706429E0,9.655978203E0,9.690675139E-1
6.998688707E0,1.754250765E0,9.650040627E0,9.760681987E-1
7.002659020E0,1.760810733E0,9.632122040E0,9.714999795E-1
7.006629332E0,1.750889301E0,9.639333725E0,9.722374082E-1
7.010599645E0,1.744817615E0,9.632016182E0,9.718926549E-1
7.014571520E0,1.755505204E0,9.615190506E0,9.790465236E-1
7.018541832E0,1.746502995E0,9.612538338E0,9.803872705E-1
7.022512145E0,1.753829360E0,9.616656303E0,9.788358808E-1
7.026482457E0,1.742385149E0,9.607997894E0,9.567804337E-1
7.030452770E0,1.763530612E0,9.618878365E0,9.597396851E-1
7.034423082E0,1.764373422E0,9.599523544E0,9.627851248E-1
7.038393395E0,1.776775360E0,9.615305901E0,9.556311965E-1
7.042363707E0,1.752603531E0,9.612882614E0,9.513887167E-1
7.046334020E0,1.773854494E0,9.628943443E0,9.526432753E-1
7.050305895E0,1.760408521E0,9.650998116E0,9.429515600E-1
7.054276207E0,1.760245800E0,9.639439583E0,9.489179254E-1
7.058246520E0,1.758550763E0,9.652329445E0,9.486114383E-1
7.062216832E0,1.767466664E0,9.645711899E0,9.467247725E-1
7.066187145E0,1.759728670E0,9.648565292E0,9.717872739E-1
7.070157457E0,1.763932824E0,9.653958321E0,9.748040438E-1
7.074129332E0,1.770358920E0,9.644811630E0,9.970892072E-1
7.078099645E0,1.772178411E0,9.635724068E0,1.001829743E0
7.082068395E0,1.762534618E0,9.652712822E0,9.942736626E-1
7.086040270E0,1.782703519E0,9.654819489E0,9.952313304E-1
7.090010582E0,1.790719271E0,9.646880150E0,9.885658622E-1
7.093980895E0,1.789876461E0,9.641334534E0,1.003735542E0
7.097952770E0,1.787731171E0,9.641775131E0,1.012919664E0
7.101923082E0,1.797193170E0,9.650155067E0,1.012172699E0
7.105891832E0,1.811539173E0,9.665535927E0,1.008648396E0
7.109863707E0,1.833115697E0,9.661226273E0,1.005009294E0
7.113834020E0,1.844694138E0,9.666168213E0,1.004358053E0
7.117804332E0,1.862727165E0,9.687131882E0,1.001274347E0
7.121774645E0,1.836323977E0,9.686490059E0,9.986406565E-1
7.125744957E0,1.843688607E0,9.667997360E0,1.002528906E0
7.129716832E0,1.847768307E0,9.676415443E0,1.005497694E0
7.133687145E0,1.848103404E0,9.654455185E0,1.000259161E0
7.137657457E0,1.849262238E0,9.641134262E0,1.002844930E0
7.141627770E0,1.820752025E0,9.653239250E0,9.871293306E-1
7.145598082E0,1.815839291E0,9.651189804E0,9.993110299E-1
7.149568395E0,1.806252837E0,9.628214836E0,1.008399487E0
7.153538707E0,1.782894969E0,9.621942520E0,1.015428782E0
7.157510582E0,1.769123554E0,9.625293732E0,1.020657778E0
7.161479332E0,1.786668181E0,9.630388260E0,1.014691353E0
7.165451207E0,1.793783784E0,9.627382278E0,1.025417447E0
7.169421520E0,1.783316374E0,9.639430046E0,1.018225312E0
7.173391832E0,1.788200617E0,9.659358025E0,1.016147137E0
7.177362145E0,1.789024115E0,9.671262741E0,1.023329735E0
7.181335582E0,1.798572183E0,9.672622681E0,1.009903073E0
7.185302770E0,1.811797738E0,9.692140579E0,1.015160680E0
7.189274645E0,1.812410593E0,9.669452667E0,1.019843698E0
7.193244957E0,1.806406021E0,9.669452667E0,1.036200881E0
7.197215270E0,1.790537238E0,9.657338142E0,1.028060675E0
7.201185582E0,1.781717062E0,9.654082298E0,1.033998251E0
7.205155895E0,1.784523129E0,9.647953033E0,1.043871999E0
7.209129332E0,1.778958917E0,9.647282600E0,1.043096185E0
7.213098082E0,1.787261963E0,9.640492439E0,1.036536098E0
7.217068395E0,1.772370100E0,9.638204575E0,1.040213585E0
7.221038707E0,1.774620652E0,9.646066666E0,1.044130445E0
7.225009020E0,1.793362379E0,9.649293900E0,1.026892185E0
7.228979332E0,1.780749798E0,9.644409180E0,1.015984297E0
7.232949645E0,1.765647054E0,9.662681580E0,1.005210400E0
7.236919957E0,1.769190550E0,9.661293030E0,1.003927112E0
7.240890270E0,1.767610312E0,9.654225349E0,1.003362060E0
7.244860582E0,1.752048135E0,9.663170815E0,9.947525263E-1
7.248832457E0,1.747154355E0,9.663927078E0,9.784144759E-1
7.252802770E0,1.751013756E0,9.653047562E0,9.874358177E-1
7.256773082E0,1.744070530E0,9.662729263E0,9.935936928E-1
7.260743395E0,1.741676450E0,9.665803909E0,9.749955535E-1
7.264713707E0,1.754183769E0,9.664779663E0,9.651314020E-1
7.268684020E0,1.762122869E0,9.685139656E0,9.683780074E-1
7.272655895E0,1.760456562E0,9.696938515E0,9.740570188E-1
7.276626207E0,1.776765823E0,9.683627129E0,9.855970740E-1
7.280596520E0,1.770387650E0,9.669338226E0,9.763937593E-1
7.284566832E0,1.772963881E0,9.640167236E0,9.590501785E-1
7.288537145E0,1.768836141E0,9.622948647E0,9.618657231E-1
7.292507457E0,1.755974650E0,9.620601654E0,9.786155820E-1
7.296479332E0,1.742241502E0,9.599571228E0,9.868420362E-1
7.300448082E0,1.749510288E0,9.597990036E0,1.000239968E0
7.304419957E0,1.751128674E0,9.607107162E0,9.890447259E-1
7.308402770E0,1.756271482E0,9.605911255E0,1.003285408E0
7.312360582E0,1.745497584E0,9.609951973E0,1.017104745E0
7.316330895E0,1.760676742E0,9.615975380E0,1.032063723E0
7.320301207E0,1.773394823E0,9.608802795E0,1.023789406E0
7.324271520E0,1.780529499E0,9.615468979E0,1.034821868E0
7.328241832E0,1.792644143E0,9.639151573E0,1.045471311E0
7.332213707E0,1.790633082E0,9.650394440E0,1.025723934E0
7.336184020E0,1.780443311E0,9.641440392E0,1.027917027E0
7.340154332E0,1.802201748E0,9.659129143E0,1.017612338E0
7.344124645E0,1.779571772E0,9.649198532E0,1.028759718E0
7.348094957E0,1.786141515E0,9.666598320E0,1.015447974E0
7.352065270E0,1.784455895E0,9.681098938E0,1.023425460E0
7.356035582E0,1.777168036E0,9.677229881E0,1.010104179E0
7.360005895E0,1.766355872E0,9.651410103E0,9.973860979E-1
7.363977770E0,1.770310998E0,9.644169807E0,1.000364542E0
7.367948082E0,1.739866376E0,9.609932899E0,9.950302243E-1
7.371918395E0,1.723020792E0,9.607740402E0,9.836050868E-1
7.375888707E0,1.717016101E0,9.598756790E0,9.816035032E-1
7.379859020E0,1.691896081E0,9.606696129E0,9.722182751E-1
7.383829332E0,1.677846909E0,9.607912064E0,9.890733957E-1
7.387801207E0,1.690392613E0,9.639037132E0,1.006646872E0
7.391771520E0,1.696291924E0,9.633300781E0,1.008236647E0
7.395741832E0,1.687270522E0,9.654589653E0,1.015457630E0
7.399712145E0,1.689425349E0,9.662480354E0,1.036009431E0
7.403682457E0,1.693313479E0,9.690100670E0,1.031718969E0
7.407652770E0,1.689607263E0,9.678244591E0,1.037263870E0
7.411624645E0,1.722647190E0,9.660278320E0,1.024756551E0
7.415593395E0,1.739454627E0,9.664137840E0,1.024574757E0
7.419563707E0,1.740498424E0,9.661485672E0,1.028625607E0
7.423535582E0,1.749529362E0,9.665583611E0,1.030780435E0
7.427505895E0,1.779044986E0,9.654886246E0,1.034017444E0
7.431476207E0,1.783373833E0,9.665727615E0,1.038681269E0
7.435446520E0,1.793735981E0,9.668772697E0,1.055201292E0
7.439416832E0,1.810255885E0,9.679891586E0,1.048545361E0
7.443387145E0,1.818252563E0,9.677372932E0,1.043967605E0
7.447359020E0,1.820732951E0,9.689353943E0,1.034745216E0
7.451329332E0,1.826498151E0,9.684526443E0,1.028510690E0
7.455299645E0,1.805343032E0,9.693386078E0,1.040797710E0
7.459269957E0,1.825023293E0,9.686470985E0,1.006962895E0
7.463240270E0,1.819947600E0,9.690378189E0,1.021682501E0
7.467212145E0,1.820570111E0,9.677142143E0,1.004214406E0
7.471182457E0,1.815063477E0,9.683061600E0,1.012163162E0
7.475152770E0,1.798007250E0,9.668427467E0,1.016999483E0
7.479123082E0,1.801924109E0,9.662864685E0,1.017554879E0
7.483093395E0,1.805572867E0,9.662844658E0,1.043441057E0
7.487063707E0,1.826536536E0,9.646745682E0,1.024938583E0
7.491034020E0,1.833776474E0,9.665287018E0,1.034946442E0
7.495004332E0,1.822686672E0,9.659636497E0,1.051332235E0
7.498974645E0,1.839972734E0,9.649533272E0,1.046266079E0
7.502946520E0,1.837980747E0,9.658143044E0,1.039830565E0
7.506916832E0,1.837099791E0,9.639037132E0,1.056637764E0
7.510887145E0,1.843841791E0,9.644438744E0,1.063054323E0
7.514857457E0,1.816844702E0,9.639007568E0,1.072190523E0
7.518827770E0,1.838057399E0,9.626309395E0,1.069202662E0
7.522798082E0,1.836486816E0,9.633980751E0,1.078875065E0
7.526768395E0,1.840930462E0,9.627057076E0,1.075925589E0
7.530738707E0,1.852010727E0,9.609167099E0,1.093508601E0
7.534709020E0,1.842462659E0,9.633606911E0,1.091487765E0
7.538694957E0,1.852173567E0,9.633271217E0,1.104991078E0
7.542651207E0,1.843075514E0,9.640013695E0,1.120553493E0
7.546621520E0,1.823404908E0,9.639842033E0,1.114520073E0
7.550591832E0,1.836094141E0,9.640972137E0,1.103726983E0
7.554562145E0,1.850200772E0,9.639640808E0,1.108754754E0
7.558532457E0,1.830022454E0,9.653746605E0,1.119241476E0
7.562504332E0,1.823385715E0,9.627324104E0,1.095079064E0
7.566474645E0,1.818750501E0,9.626385689E0,1.086383462E0
7.570444957E0,1.792059898E0,9.620831490E0,1.081499219E0
7.574415270E0,1.769133091E0,9.611455917E0,1.084918141E0
7.578385582E0,1.763138056E0,9.591075897E0,1.086900473E0
7.582355895E0,1.753388762E0,9.594935417E0,1.087676287E0
7.586327770E0,1.753417611E0,9.592685699E0,1.100489974E0
7.590298082E0,1.772130609E0,9.599292755E0,1.089170337E0
7.594268395E0,1.756376863E0,9.601744652E0,1.079267859E0
7.598238707E0,1.753656983E0,9.615095139E0,1.077639818E0
7.602209020E0,1.773691654E0,9.613304138E0,1.074670911E0
7.606179332E0,1.739071488E0,9.620850563E0,1.070600867E0
7.610149645E0,1.753417611E0,9.627880096E0,1.052558064E0
7.614119957E0,1.751023293E0,9.621769905E0,1.069279194E0
7.618090270E0,1.751061678E0,9.623560905E0,1.086134434E0
7.622062145E0,1.741149664E0,9.623263359E0,1.106379747E0
7.626032457E0,1.739693999E0,9.631155014E0,1.102874637E0
7.630002770E0,1.744415402E0,9.637639046E0,1.111091495E0
7.633973082E0,1.752766371E0,9.618867874E0,1.094447017E0
7.637943395E0,1.764948010E0,9.632314682E0,1.097856402E0
7.641915270E0,1.749433637E0,9.636690140E0,1.105230570E0
7.645885582E0,1.761069417E0,9.622421265E0,1.098603368E0
7.649854332E0,1.764574528E0,9.635981560E0,1.109425187E0
7.653826207E0,1.768462777E0,9.652894974E0,1.099781394E0
7.657796520E0,1.762237787E0,9.642340660E0,1.090807915E0
7.661766832E0,1.778231025E0,9.642168999E0,1.091966629E0
7.665737145E0,1.775061131E0,9.644619942E0,1.086172700E0
7.669707457E0,1.787788749E0,9.631806374E0,1.106753349E0
7.673677770E0,1.773615003E0,9.636393547E0,1.099331141E0
7.677649645E0,1.792490959E0,9.635540962E0,1.093776703E0
7.681619957E0,1.787319422E0,9.625266075E0,1.083146453E0
7.685590270E0,1.790594697E0,9.639238358E0,1.091985822E0
7.689560582E0,1.822140694E0,9.646871567E0,1.074057937E0
7.693530895E0,1.820675373E0,9.643978119E0,1.061579466E0
7.697501207E0,1.804730058E0,9.644285202E0,1.079009295E0
7.701473082E0,1.815954089E0,9.650539398E0,1.083108187E0
7.705441832E0,1.791916251E0,9.642972946E0,1.055134296E0
7.709413707E0,1.810686946E0,9.629441261E0,1.072870493E0
7.713384020E0,1.807325482E0,9.628798485E0,1.070390105E0
7.717354332E0,1.818290949E0,9.622890472E0,1.069585681E0
7.721324645E0,1.827024937E0,9.626960754E0,1.073722959E0
7.725294957E0,1.829237223E0,9.619481087E0,1.083452940E0
7.729265270E0,1.804145932E0,9.620841026E0,1.072908759E0
7.733235582E0,1.802795529E0,9.601151466E0,1.076002121E0
7.737207457E0,1.814661264E0,9.609089851E0,1.075801015E0
7.741177770E0,1.840145111E0,9.623023987E0,1.079440236E0
7.745148082E0,1.840260029E0,9.631768227E0,1.082801580E0
7.749118395E0,1.848285437E0,9.633357048E0,1.074010134E0
7.753088707E0,1.869756579E0,9.638414383E0,1.097588301E0
7.757059020E0,1.866845250E0,9.637495041E0,1.100183606E0
7.761030895E0,1.859404087E0,9.649168968E0,1.084276438E0
7.765001207E0,1.861348152E0,9.658659935E0,1.085511804E0
7.768969957E0,1.881804228E0,9.657279968E0,1.090951562E0
7.772941832E0,1.871059060E0,9.663927078E0,1.099656820E0
7.776912145E0,1.862411261E0,9.674586296E0,1.090922832E0
7.780882457E0,1.855123281E0,9.669126511E0,1.109769940E0
7.784852770E0,1.848400235E0,9.669558525E0,1.127908468E0
7.788823082E0,1.850545526E0,9.665574074E0,1.113945484E0
7.792794957E0,1.844397187E0,9.654034615E0,1.112326860E0
7.796765270E0,1.844560027E0,9.671808243E0,1.102022290E0
7.800735582E0,1.837549806E0,9.675610542E0,1.097913861E0
7.804705895E0,1.839513063E0,9.678359032E0,1.087618828E0
7.808676207E0,1.849099517E0,9.675946236E0,1.088921309E0
7.812646520E0,1.825559735E0,9.674117088E0,1.093642592E0
7.816616832E0,1.838450074E0,9.656773567E0,1.104684711E0
7.820588707E0,1.836965561E0,9.660354614E0,1.115152121E0
7.824557457E0,1.846695662E0,9.656600952E0,1.127381682E0
7.828529332E0,1.857517481E0,9.653267860E0,1.128214836E0
7.832499645E0,1.872648835E0,9.652147293E0,1.134392023E0
7.836469957E0,1.878825784E0,9.665621758E0,1.170448661E0
7.840440270E0,1.878251195E0,9.675610542E0,1.151084304E0
7.844412145E0,1.885883927E0,9.682744980E0,1.143853784E0
7.848382457E0,1.877676606E0,9.696306229E0,1.134497285E0
7.852352770E0,1.881880879E0,9.713275909E0,1.128904462E0
7.856323082E0,1.905430198E0,9.706792831E0,1.131394386E0
7.860293395E0,1.920101881E0,9.723341942E0,1.113763452E0
7.864263707E0,1.926939726E0,9.749151230E0,1.123694539E0
7.868234020E0,1.905439854E0,9.756563187E0,1.158075333E0
7.872204332E0,1.895451188E0,9.760815620E0,1.162566900E0
7.876176207E0,1.889475226E0,9.772078514E0,1.157136798E0
7.880146520E0,1.859461546E0,9.766120911E0,1.161427259E0
7.884116832E0,1.837894559E0,9.743453026E0,1.174413443E0
7.888087145E0,1.826373696E0,9.737285614E0,1.177430034E0
7.892057457E0,1.806176186E0,9.707864761E0,1.194122434E0
7.896027770E0,1.784637928E0,9.683416367E0,1.218342185E0
7.899999645E0,1.789330602E0,9.669327736E0,1.232774377E0
7.903968395E0,1.780979633E0,9.659157753E0,1.256065249E0
7.907938707E0,1.758761525E0,9.643998146E0,1.273236394E0
7.911910582E0,1.755428672E0,9.633903503E0,1.263401151E0
7.915880895E0,1.745832801E0,9.637610435E0,1.289727807E0
7.919851207E0,1.739301443E0,9.651189804E0,1.301191211E0
7.923821520E0,1.754758358E0,9.655586243E0,1.304303646E0
7.927791832E0,1.766968727E0,9.673121452E0,1.311677694E0
7.931762145E0,1.803121209E0,9.684928894E0,1.313593149E0
7.935734020E0,1.814086676E0,9.673580170E0,1.320306540E0
7.939704332E0,1.819114447E0,9.666407585E0,1.312012911E0
7.943674645E0,1.822782397E0,9.670439720E0,1.325047016E0
7.947644957E0,1.823395252E0,9.659119606E0,1.328322291E0
7.951615270E0,1.846657395E0,9.615468979E0,1.354821324E0
7.955587145E0,1.823740005E0,9.619538307E0,1.352273822E0
7.959557457E0,1.825712919E0,9.598076820E0,1.356037498E0
7.963526207E0,1.827168584E0,9.573952675E0,1.344612479E0
7.967498082E0,1.845556021E0,9.589820862E0,1.341375470E0
7.971468395E0,1.863024116E0,9.589458466E0,1.317586660E0
7.975438707E0,1.883049250E0,9.596285820E0,1.314388037E0
7.979409020E0,1.895039439E0,9.609788895E0,1.326244116E0
7.983379332E0,1.932398558E0,9.597626686E0,1.327498674E0
7.987349645E0,1.951532960E0,9.582456589E0,1.337420225E0
7.991321520E0,1.978702426E0,9.590223312E0,1.337879896E0
7.995291832E0,1.967870951E0,9.587111473E0,1.384949923E0
7.999262145E0,1.981383920E0,9.602912903E0,1.403653383E0
8.003232457E0,1.997654915E0,9.614730835E0,1.431416631E0
8.007202770E0,1.997013211E0,9.615966797E0,1.447065115E0
8.011173082E0,2.027122736E0,9.635034561E0,1.474675059E0
8.015148082E0,2.059109211E0,9.654944420E0,1.479942203E0
8.019115270E0,2.081097603E0,9.670333862E0,1.475556016E0
8.023084020E0,2.116838217E0,9.686911583E0,1.449468851E0
8.027055895E0,2.137026072E0,9.708909035E0,1.435515523E0
8.031026207E0,2.174816132E0,9.728054047E0,1.379835963E0
8.034996520E0,2.185427189E0,9.742016792E0,1.346862912E0
8.038966832E0,2.192667484E0,9.710720062E0,1.316676855E0
8.042937145E0,2.184565544E0,9.689630508E0,1.294813037E0
8.046907457E0,2.152396917E0,9.677334785E0,1.259532094E0
8.050879332E0,2.155681610E0,9.675974846E0,1.218964696E0
8.054849645E0,2.132917643E0,9.671463966E0,1.202980995E0
8.058819957E0,2.118600368E0,9.699122429E0,1.188874364E0
8.062790270E0,2.092857838E0,9.709732056E0,1.193011642E0
8.066760582E0,2.074585438E0,9.718371391E0,1.174518824E0
8.070730895E0,2.076692104E0,9.703824043E0,1.136814833E0
8.074702770E0,2.050853968E0,9.700529099E0,1.137810826E0
8.078673082E0,2.031058788E0,9.703622818E0,1.115372419E0
8.082641832E0,1.992550373E0,9.719213486E0,1.103181124E0
8.086613707E0,1.986861825E0,9.737322807E0,1.089792728E0
8.090584020E0,1.970092773E0,9.763276100E0,1.106810689E0
8.094554332E0,1.902969003E0,9.763688087E0,1.101658463E0
8.098524645E0,1.886046767E0,9.768524170E0,1.087982655E0
8.102494957E0,1.859040141E0,9.762701988E0,1.095749497E0
8.106465270E0,1.823175073E0,9.752809525E0,1.115429759E0
8.110437145E0,1.780376196E0,9.758804321E0,1.130120635E0
8.114407457E0,1.751818180E0,9.752329826E0,1.113801718E0
8.118377770E0,1.736878395E0,9.745684624E0,1.119049907E0
8.122348082E0,1.712831020E0,9.763486862E0,1.106743693E0
8.126318395E0,1.690201044E0,9.780083656E0,1.128846884E0
8.130290270E0,1.686743736E0,9.788788795E0,1.114136934E0
8.134259020E0,1.670903802E0,9.796010971E0,1.125523806E0
8.138230895E0,1.648714304E0,9.810825348E0,1.163380861E0
8.142201207E0,1.634981155E0,9.787898064E0,1.198910832E0
8.146171520E0,1.613940954E0,9.763535500E0,1.229882240E0
8.150141832E0,1.597880602E0,9.709503174E0,1.247723818E0
8.154112145E0,1.570720792E0,9.657385826E0,1.242715240E0
8.158082457E0,1.558596611E0,9.632667542E0,1.242351294E0
8.162052770E0,1.552046061E0,9.577859879E0,1.239152551E0
8.166024645E0,1.526045084E0,9.552357674E0,1.249074221E0
8.169994957E0,1.527117610E0,9.553123474E0,1.250625610E0
8.173965270E0,1.502591372E0,9.531776428E0,1.271340251E0
8.177935582E0,1.483686805E0,9.546515465E0,1.263975739E0
8.181905895E0,1.462062359E0,9.547636032E0,1.256850600E0
8.185876207E0,1.461391926E0,9.559414864E0,1.224739552E0
8.189846520E0,1.441510439E0,9.584258080E0,1.213266492E0
8.193818395E0,1.433341503E0,9.597090721E0,1.167498946E0
8.197788707E0,1.440706015E0,9.643193245E0,1.139113307E0
8.201759020E0,1.443435431E0,9.653535843E0,1.117249370E0
8.205729332E0,1.433829904E0,9.669826508E0,1.079143286E0
8.209699645E0,1.442966223E0,9.685053825E0,1.065103769E0
8.213671520E0,1.445283771E0,9.712912560E0,1.030090928E0
8.217640270E0,1.459151030E0,9.736183167E0,1.026509166E0
8.221610582E0,1.480880737E0,9.756850243E0,9.908643365E-1
8.225582457E0,1.493005037E0,9.787160873E0,9.806362987E-1
8.229552770E0,1.526590943E0,9.827891350E0,9.718255997E-1
8.233523082E0,1.582490683E0,9.861593246E0,9.795445800E-1
8.237493395E0,1.624197721E0,9.884768486E0,9.610517025E-1
8.241463707E0,1.684646487E0,9.884078979E0,9.294578433E-1
8.245434020E0,1.738343596E0,9.850032806E0,9.133304954E-1
8.249405895E0,1.778020382E0,9.840437889E0,8.925009370E-1
8.253377770E0,1.807890415E0,9.820977211E0,8.373289108E-1
8.257346520E0,1.828585982E0,9.778034210E0,8.235958219E-1
8.261316832E0,1.830127835E0,9.734201431E0,8.199853301E-1
8.265287145E0,1.875521898E0,9.691776276E0,7.954496145E-1
8.269257457E0,1.890040278E0,9.647168159E0,8.205887079E-1
8.273227770E0,1.909672737E0,9.590205193E0,8.503342271E-1
8.277198082E0,1.924899936E0,9.575944901E0,8.917443752E-1
8.281168395E0,1.918445110E0,9.547799110E0,9.118173122E-1
8.285140270E0,1.922371626E0,9.526173592E0,9.564165473E-1
8.289110582E0,1.951408505E0,9.516712189E0,9.856353998E-1
8.293080895E0,1.942061543E0,9.515515327E0,1.011033058E0
8.297051207E0,1.951571345E0,9.531326294E0,1.015237331E0
8.301021520E0,1.966357946E0,9.521845818E0,9.917070866E-1
8.304993395E0,1.992617488E0,9.519335747E0,9.833848476E-1
8.308963707E0,2.007298708E0,9.496274948E0,1.007997155E0
8.312934020E0,2.015850782E0,9.474967003E0,9.842371941E-1
8.316904332E0,2.012767076E0,9.448324203E0,9.857311249E-1
8.320874645E0,2.027994156E0,9.425789833E0,1.013264418E0
8.324846520E0,2.007442474E0,9.392644882E0,9.909505248E-1
8.328815270E0,1.995720387E0,9.385021210E0,9.505363703E-1
8.332787145E0,1.980387807E0,9.354911804E0,8.938129544E-1
8.336755895E0,1.974124670E0,9.371652603E0,8.368597031E-1
8.340727770E0,2.005000353E0,9.422667503E0,7.951718569E-1
8.344698082E0,2.031221628E0,9.518560410E0,7.416661978E-1
8.348668395E0,2.080360174E0,9.640693665E0,7.066150904E-1
8.352638707E0,2.127564192E0,9.809091568E0,6.526976824E-1
8.356609020E0,2.161772728E0,1.001726341E1,5.634801388E-1
8.360579332E0,2.208785057E0,1.014407921E1,4.985494018E-1
8.364551207E0,2.284154654E0,1.024395561E1,4.044764340E-1
