"Time (s)","Gyroscope x (rad/s)","Gyroscope y (rad/s)","Gyroscope z (rad/s)"
1.423317940E-1,-4.497070312E-1,-6.367797852E-1,-6.219482422E-2
1.473061590E-1,-4.250183105E-1,-6.015319824E-1,-5.998229980E-2
1.522805250E-1,2.896118164E-2,4.679870605E-2,-1.892089844E-2
1.572548900E-1,3.306579590E-2,5.426025391E-2,-1.461791992E-2
1.622292550E-1,3.848266602E-2,6.716918945E-2,-1.502990723E-2
1.672036200E-1,4.188537598E-2,7.319641113E-2,-1.422119141E-2
1.721779860E-1,4.306030273E-2,7.327270508E-2,-1.332092285E-2
1.771523510E-1,4.306030273E-2,7.498168945E-2,-1.332092285E-2
1.821267160E-1,4.362487793E-2,8.120727539E-2,-1.332092285E-2
1.871010810E-1,4.187011719E-2,8.866882324E-2,-1.220703125E-2
1.920754470E-1,4.112243652E-2,9.809875488E-2,-1.118469238E-2
1.970498120E-1,4.235839844E-2,1.028137207E-1,-1.115417480E-2
2.020241770E-1,4.116821289E-2,1.111602783E-1,-1.049804688E-2
2.069985420E-1,3.860473633E-2,1.245574951E-1,-8.666992188E-3
2.119729070E-1,3.518676758E-2,1.322174072E-1,-7.827758789E-3
2.169472730E-1,3.088378906E-2,1.325988770E-1,-7.369995117E-3
2.219216380E-1,2.149963379E-2,1.303253174E-1,-7.705688477E-3
2.268960030E-1,1.370239258E-2,1.256866455E-1,-9.902954102E-3
2.318703680E-1,6.683349609E-3,1.161804199E-1,-1.190185547E-2
2.368447340E-1,7.781982422E-4,1.036071777E-1,-1.266479492E-2
2.418190990E-1,-6.225585938E-3,9.382629395E-2,-1.576232910E-2
2.467934640E-1,-6.713867188E-3,8.476257324E-2,-1.568603516E-2
2.517678290E-1,-4.028320312E-3,7.548522949E-2,-1.489257812E-2
2.567421950E-1,-3.662109375E-4,7.511901855E-2,-1.820373535E-2
2.617165600E-1,2.685546875E-3,7.327270508E-2,-1.759338379E-2
2.666909250E-1,6.301879883E-3,7.426452637E-2,-1.484680176E-2
2.716652900E-1,5.386352539E-3,7.408142090E-2,-1.338195801E-2
2.766396550E-1,4.745483398E-3,7.449340820E-2,-9.750366211E-3
2.816140210E-1,3.311157227E-3,7.511901855E-2,-4.898071289E-3
2.865883860E-1,2.120971680E-3,7.092285156E-2,-3.509521484E-4
2.915627510E-1,-1.022338867E-3,6.146240234E-2,7.125854492E-3
2.965371160E-1,-3.158569336E-3,5.029296875E-2,1.290893555E-2
3.015114820E-1,-9.765625000E-4,4.179382324E-2,1.684570312E-2
3.064858470E-1,-1.861572266E-3,3.094482422E-2,2.020263672E-2
3.114602120E-1,-4.882812500E-3,2.149963379E-2,2.320861816E-2
3.164345770E-1,-8.819580078E-3,1.516723633E-2,2.622985840E-2
3.214089430E-1,-1.231384277E-2,1.330566406E-2,2.748107910E-2
3.263833080E-1,-1.657104492E-2,1.420593262E-2,2.709960938E-2
3.313576730E-1,-1.667785645E-2,1.440429688E-2,2.371215820E-2
3.363320380E-1,-1.023864746E-2,1.266479492E-2,1.812744141E-2
3.413064040E-1,-6.286621094E-3,1.437377930E-2,1.483154297E-2
3.462807690E-1,-1.785278320E-3,2.012634277E-2,9.140014648E-3
3.512551340E-1,1.998901367E-3,2.627563477E-2,5.340576172E-3
3.562294990E-1,-1.861572266E-3,2.888488770E-2,2.059936523E-3
3.612038640E-1,-6.271362305E-3,2.714538574E-2,-1.663208008E-3
3.661782300E-1,-1.100158691E-2,2.372741699E-2,-4.745483398E-3
3.711525950E-1,-6.362915039E-3,2.215576172E-2,-6.607055664E-3
3.761269600E-1,3.005981445E-3,2.192687988E-2,-6.805419922E-3
3.811013250E-1,1.475524902E-2,2.209472656E-2,-6.500244141E-3
3.860756910E-1,2.589416504E-2,1.904296875E-2,-3.768920898E-3
3.910500560E-1,3.462219238E-2,1.202392578E-2,3.082275391E-3
3.960244210E-1,4.034423828E-2,4.669189453E-3,9.048461914E-3
4.009987860E-1,4.095458984E-2,-4.882812500E-3,9.536743164E-3
4.059731520E-1,3.941345215E-2,-9.826660156E-3,1.280212402E-2
4.109475170E-1,3.855895996E-2,-8.773803711E-3,1.774597168E-2
4.159218820E-1,3.791809082E-2,-1.226806641E-2,1.905822754E-2
4.208962470E-1,3.584289551E-2,-1.947021484E-2,2.146911621E-2
4.258706130E-1,3.787231445E-2,-2.769470215E-2,2.365112305E-2
4.308449780E-1,3.454589844E-2,-3.495788574E-2,2.503967285E-2
4.358193430E-1,3.294372559E-2,-4.541015625E-2,2.345275879E-2
4.407937080E-1,2.864074707E-2,-5.632019043E-2,1.791381836E-2
4.457680730E-1,2.363586426E-2,-5.895996094E-2,1.589965820E-2
4.507424390E-1,2.188110352E-2,-6.079101562E-2,1.300048828E-2
4.557168040E-1,2.162170410E-2,-6.077575684E-2,1.348876953E-2
4.606911690E-1,1.969909668E-2,-5.729675293E-2,1.214599609E-2
4.656655340E-1,1.762390137E-2,-5.625915527E-2,8.666992188E-3
4.706399000E-1,1.541137695E-2,-4.852294922E-2,8.666992188E-3
4.756142650E-1,1.473999023E-2,-4.362487793E-2,8.468627930E-3
4.805886300E-1,1.467895508E-2,-3.784179688E-2,7.827758789E-3
4.855629950E-1,1.393127441E-2,-3.260803223E-2,7.720947266E-3
4.905373610E-1,1.303100586E-2,-3.137207031E-2,8.361816406E-3
4.955117260E-1,1.013183594E-2,-3.428649902E-2,9.323120117E-3
5.004860910E-1,7.354736328E-3,-3.712463379E-2,9.185791016E-3
5.054604560E-1,5.050659180E-3,-3.620910645E-2,8.666992188E-3
5.104348220E-1,3.326416016E-3,-3.425598145E-2,1.034545898E-2
5.154091870E-1,2.487182617E-3,-3.431701660E-2,1.200866699E-2
5.203835520E-1,2.334594727E-3,-3.303527832E-2,1.281738281E-2
5.253579170E-1,3.341674805E-3,-3.315734863E-2,1.396179199E-2
5.303322820E-1,5.706787109E-3,-3.218078613E-2,1.524353027E-2
5.353066480E-1,5.416870117E-3,-3.202819824E-2,1.483154297E-2
5.402810130E-1,5.386352539E-3,-3.746032715E-2,1.538085938E-2
5.452553780E-1,2.502441406E-3,-4.547119141E-2,1.289367676E-2
5.502297430E-1,7.766723633E-3,-4.547119141E-2,1.101684570E-2
5.552041090E-1,8.041381836E-3,-4.646301270E-2,1.005554199E-2
5.601784740E-1,1.342773438E-2,-5.392456055E-2,1.110839844E-2
5.651528390E-1,1.420593262E-2,-6.144714355E-2,1.153564453E-2
5.701272040E-1,1.550292969E-2,-7.023620605E-2,1.312255859E-2
5.751015700E-1,1.617431641E-2,-7.070922852E-2,1.336669922E-2
5.800759350E-1,1.528930664E-2,-6.965637207E-2,1.388549805E-2
5.850503000E-1,1.506042480E-2,-7.034301758E-2,1.432800293E-2
5.900246650E-1,1.547241211E-2,-6.907653809E-2,1.293945312E-2
5.949990300E-1,1.383972168E-2,-6.524658203E-2,1.327514648E-2
5.999733960E-1,1.020812988E-2,-6.297302246E-2,1.428222656E-2
6.049477610E-1,6.881713867E-3,-5.847167969E-2,1.440429688E-2
6.099221260E-1,3.067016602E-3,-5.229187012E-2,1.499938965E-2
6.148964910E-1,-9.765625000E-4,-5.081176758E-2,1.629638672E-2
6.198708570E-1,-7.202148438E-3,-5.049133301E-2,1.757812500E-2
6.248452220E-1,-1.069641113E-2,-5.389404297E-2,1.531982422E-2
6.298195870E-1,-1.756286621E-2,-5.194091797E-2,1.478576660E-2
6.347939520E-1,-1.959228516E-2,-4.873657227E-2,1.593017578E-2
6.397683180E-1,-2.262878418E-2,-4.318237305E-2,1.660156250E-2
6.447426830E-1,-2.389526367E-2,-3.300476074E-2,1.666259766E-2
6.497170480E-1,-2.238464355E-2,-2.287292480E-2,1.799011230E-2
6.546914130E-1,-1.792907715E-2,-1.501464844E-2,2.020263672E-2
6.596657790E-1,-1.278686523E-2,-1.084899902E-2,2.374267578E-2
6.646401440E-1,-4.165649414E-3,-7.583618164E-3,2.244567871E-2
6.696145090E-1,5.126953125E-3,-2.304077148E-3,2.099609375E-2
6.745888740E-1,1.284790039E-2,2.502441406E-3,1.928710938E-2
6.795632390E-1,1.927185059E-2,7.751464844E-3,1.890563965E-2
6.845376050E-1,2.517700195E-2,9.170532227E-3,1.940917969E-2
6.895119700E-1,2.970886230E-2,1.095581055E-2,1.791381836E-2
6.944863350E-1,3.419494629E-2,1.287841797E-2,1.533508301E-2
6.994607000E-1,3.968811035E-2,1.318359375E-2,1.347351074E-2
7.044350660E-1,4.087829590E-2,1.509094238E-2,1.141357422E-2
7.094094310E-1,3.608703613E-2,1.623535156E-2,7.629394531E-3
7.143837960E-1,2.879333496E-2,1.490783691E-2,6.668090820E-3
7.193581610E-1,2.250671387E-2,1.014709473E-2,4.013061523E-3
7.243325270E-1,1.519775391E-2,4.348754883E-3,5.203247070E-3
7.293068920E-1,9.140014648E-3,-2.456665039E-3,4.028320312E-3
7.342812570E-1,3.921508789E-3,-1.007080078E-2,2.105712891E-3
7.392556220E-1,1.174926758E-3,-1.660156250E-2,2.548217773E-3
7.442299880E-1,-7.781982422E-4,-2.490234375E-2,6.103515625E-5
7.492043530E-1,-2.960205078E-3,-3.286743164E-2,-2.319335938E-3
7.541787180E-1,-8.132934570E-3,-3.591918945E-2,-2.609252930E-3
7.591530830E-1,-8.468627930E-3,-3.773498535E-2,-4.974365234E-3
7.641274480E-1,-7.858276367E-3,-4.011535645E-2,-6.393432617E-3
7.691018140E-1,-9.124755859E-3,-4.585266113E-2,-8.148193359E-3
7.740761790E-1,-7.492065430E-3,-4.850769043E-2,-9.429931641E-3
7.790505440E-1,-4.776000977E-3,-4.692077637E-2,-1.026916504E-2
7.840249090E-1,-4.135131836E-3,-4.167175293E-2,-1.026916504E-2
7.889992750E-1,-2.929687500E-3,-3.842163086E-2,-1.226806641E-2
7.939736400E-1,1.251220703E-3,-3.906250000E-2,-1.484680176E-2
7.989480050E-1,8.712768555E-3,-3.866577148E-2,-1.515197754E-2
8.039223700E-1,2.044677734E-2,-3.738403320E-2,-1.477050781E-2
8.088967360E-1,3.578186035E-2,-3.569030762E-2,-1.371765137E-2
8.138711010E-1,5.801391602E-2,-4.347229004E-2,-1.155090332E-2
8.188454660E-1,9.376525879E-2,-9.039306641E-2,1.591491699E-2
8.238198310E-1,1.365509033E-1,-1.470336914E-1,3.695678711E-2
8.287941970E-1,1.717071533E-1,-1.555786133E-1,1.376342773E-2
8.337685620E-1,2.068023682E-1,-1.340026855E-1,-1.602172852E-2
8.387429270E-1,2.419281006E-1,-1.150665283E-1,-4.185485840E-2
8.437172920E-1,2.805938721E-1,-1.102447510E-1,-6.010437012E-2
8.486916570E-1,3.324279785E-1,-1.494445801E-1,-7.978820801E-2
8.536660230E-1,4.018554688E-1,-2.474517822E-1,-1.046447754E-1
8.586403880E-1,4.934692383E-1,-3.914947510E-1,-1.199951172E-1
8.636147530E-1,5.976867676E-1,-5.523834229E-1,-1.203155518E-1
8.685891180E-1,7.066345215E-1,-6.750335693E-1,-1.284027100E-1
8.735634840E-1,8.226623535E-1,-7.208557129E-1,-1.333923340E-1
8.785378490E-1,9.514007568E-1,-6.686248779E-1,-9.005737305E-2
8.835122140E-1,1.080184937E0,-5.237731934E-1,3.295898438E-2
8.884865790E-1,1.157318115E0,-3.902893066E-1,7.699584961E-2
8.934609450E-1,1.178298950E0,-3.784637451E-1,-5.267333984E-2
8.984353100E-1,1.169067383E0,-4.818115234E-1,-1.562347412E-1
9.034096750E-1,1.131637573E0,-6.239776611E-1,-1.662750244E-1
9.083840400E-1,1.084991455E0,-7.544860840E-1,-1.393432617E-1
9.133584050E-1,1.058120728E0,-8.995819092E-1,-8.808898926E-2
9.183327710E-1,1.053955078E0,-1.066848755E0,-1.367187500E-2
9.233071360E-1,1.083038330E0,-1.232559204E0,6.300354004E-2
9.282815010E-1,1.150405884E0,-1.384765625E0,1.446075439E-1
9.332558660E-1,1.283920288E0,-1.536376953E0,2.309112549E-1
9.382302320E-1,1.462341309E0,-1.736740112E0,3.323364258E-1
9.432045970E-1,1.493835449E0,-2.015548706E0,4.091339111E-1
9.481789620E-1,1.623962402E0,-2.208038330E0,4.354858398E-1
9.531533270E-1,1.748901367E0,-2.250289917E0,4.296112061E-1
9.581276930E-1,1.760574341E0,-2.271926880E0,4.033508301E-1
9.631020580E-1,1.644790649E0,-2.095031738E0,3.845672607E-1
9.680764230E-1,1.399856567E0,-1.696060181E0,3.307952881E-1
9.730507880E-1,1.034667969E0,-1.180892944E0,2.569274902E-1
9.780251540E-1,5.873718262E-1,-6.201477051E-1,1.828308105E-1
9.829995190E-1,1.364135742E-1,-1.232299805E-1,1.100006104E-1
9.879738840E-1,-2.137451172E-1,1.490173340E-1,5.050659180E-2
9.929482490E-1,-3.962097168E-1,1.645812988E-1,2.606201172E-2
9.979226140E-1,-4.182586670E-1,6.889343262E-2,3.373718262E-2
1.002896980E0,-3.245849609E-1,-3.407287598E-2,4.267883301E-2
1.007871345E0,-1.783294678E-1,-1.052703857E-1,4.370117188E-2
1.012845710E0,-4.151916504E-2,-1.284179688E-1,4.609680176E-2
1.017820075E0,3.701782227E-2,-1.127014160E-1,5.180358887E-2
1.022794441E0,5.255126953E-2,-8.496093750E-2,6.214904785E-2
1.027768806E0,2.995300293E-2,-6.500244141E-2,6.530761719E-2
1.032743171E0,-3.860473633E-3,-5.366516113E-2,6.271362305E-2
1.037717536E0,-2.972412109E-2,-4.281616211E-2,6.126403809E-2
1.042691902E0,-4.290771484E-2,-3.070068359E-2,5.691528320E-2
1.047666267E0,-4.911804199E-2,-1.206970215E-2,5.416870117E-2
1.052640632E0,-5.088806152E-2,6.088256836E-3,4.846191406E-2
1.057614997E0,-4.516601562E-2,1.924133301E-2,4.371643066E-2
1.062589363E0,-3.559875488E-2,2.665710449E-2,4.052734375E-2
1.067563728E0,-2.433776855E-2,3.244018555E-2,3.442382812E-2
1.072538093E0,-1.391601562E-2,3.535461426E-2,2.886962891E-2
1.077512458E0,5.950927734E-4,3.578186035E-2,2.563476562E-2
1.082486823E0,1.315307617E-2,3.578186035E-2,2.062988281E-2
1.087461189E0,2.368164062E-2,3.828430176E-2,1.817321777E-2
1.092435554E0,3.172302246E-2,4.158020020E-2,1.535034180E-2
1.097409919E0,3.462219238E-2,4.528808594E-2,1.193237305E-2
1.102384284E0,3.520202637E-2,5.465698242E-2,9.628295898E-3
1.107358650E0,3.512573242E-2,6.501770020E-2,5.462646484E-3
1.112333015E0,3.730773926E-2,7.725524902E-2,-1.068115234E-4
1.117307380E0,3.744506836E-2,9.205627441E-2,-4.943847656E-3
1.122281745E0,3.861999512E-2,1.040191650E-1,-1.336669922E-2
1.127256111E0,3.845214844E-2,1.159820557E-1,-2.038574219E-2
1.132230476E0,3.837585449E-2,1.265258789E-1,-2.125549316E-2
1.137204841E0,3.953552246E-2,1.338348389E-1,-2.709960938E-2
1.142179206E0,4.080200195E-2,1.433410645E-1,-3.349304199E-2
1.147153572E0,3.962707520E-2,1.515808105E-1,-3.656005859E-2
1.152127937E0,3.988647461E-2,1.569061279E-1,-3.738403320E-2
1.157102302E0,3.686523438E-2,1.525878906E-1,-3.947448730E-2
1.162076667E0,3.582763672E-2,1.492462158E-1,-4.023742676E-2
1.167051032E0,3.791809082E-2,1.469726562E-1,-4.571533203E-2
1.172025398E0,3.874206543E-2,1.522979736E-1,-4.789733887E-2
1.176999763E0,4.089355469E-2,1.636352539E-1,-5.068969727E-2
1.181974128E0,4.573059082E-2,1.720275879E-1,-5.572509766E-2
1.186948493E0,5.130004883E-2,1.784515381E-1,-5.845642090E-2
1.191922859E0,5.702209473E-2,1.885375977E-1,-6.034851074E-2
1.196897224E0,6.506347656E-2,2.036285400E-1,-6.156921387E-2
1.201871589E0,7.220458984E-2,2.214813232E-1,-6.413269043E-2
1.206845954E0,7.994079590E-2,2.398834229E-1,-6.782531738E-2
1.211820320E0,8.807373047E-2,2.565460205E-1,-6.974792480E-2
1.216794685E0,9.851074219E-2,2.703247070E-1,-7.057189941E-2
1.221769050E0,1.076354980E-1,2.807312012E-1,-7.267761230E-2
1.226743415E0,1.149139404E-1,2.892913818E-1,-7.575988770E-2
1.231717780E0,1.230621338E-1,2.937927246E-1,-7.786560059E-2
1.236692146E0,1.267852783E-1,2.993927002E-1,-8.094787598E-2
1.241666511E0,1.324462891E-1,3.002929688E-1,-8.233642578E-2
1.246640876E0,1.325225830E-1,3.016662598E-1,-8.418273926E-2
1.251615241E0,1.343841553E-1,3.049316406E-1,-8.460998535E-2
1.256589607E0,1.360321045E-1,3.023681641E-1,-8.267211914E-2
1.261563972E0,1.392822266E-1,3.005218506E-1,-8.050537109E-2
1.266538337E0,1.402130127E-1,3.006134033E-1,-7.730102539E-2
1.271512702E0,1.414184570E-1,2.965698242E-1,-7.446289062E-2
1.276487068E0,1.418304443E-1,2.922821045E-1,-7.231140137E-2
1.281461433E0,1.436767578E-1,2.901306152E-1,-6.999206543E-2
1.286435798E0,1.440582275E-1,2.875213623E-1,-6.781005859E-2
1.291410163E0,1.434478760E-1,2.825775146E-1,-6.463623047E-2
1.296384529E0,1.398162842E-1,2.753143311E-1,-5.844116211E-2
1.301358894E0,1.344146729E-1,2.517700195E-1,-4.939270020E-2
1.306333259E0,1.273193359E-1,2.242126465E-1,-4.411315918E-2
1.311307624E0,1.240692139E-1,2.134246826E-1,-4.452514648E-2
1.316281989E0,1.216125488E-1,2.178039551E-1,-4.508972168E-2
1.321256355E0,1.222839355E-1,2.259674072E-1,-4.508972168E-2
1.326230720E0,1.231842041E-1,2.379150391E-1,-4.817199707E-2
1.331205085E0,1.238098145E-1,2.474822998E-1,-5.203247070E-2
1.336179450E0,1.215820312E-1,2.552795410E-1,-5.758666992E-2
1.341153816E0,1.238555908E-1,2.581176758E-1,-5.973815918E-2
1.346128181E0,1.219482422E-1,2.625122070E-1,-6.469726562E-2
1.351102546E0,1.197357178E-1,2.643737793E-1,-6.669616699E-2
1.356076911E0,1.210174561E-1,2.601318359E-1,-6.962585449E-2
1.361051277E0,1.225280762E-1,2.610626221E-1,-7.449340820E-2
1.366025642E0,1.246490479E-1,2.587890625E-1,-7.804870605E-2
1.371000007E0,1.252899170E-1,2.528839111E-1,-8.222961426E-2
1.375974372E0,1.253051758E-1,2.518157959E-1,-8.929443359E-2
1.380948738E0,1.242523193E-1,2.516479492E-1,-9.475708008E-2
1.385923103E0,1.225280762E-1,2.512054443E-1,-1.012725830E-1
1.390897468E0,1.193237305E-1,2.498931885E-1,-1.049346924E-1
1.395871833E0,1.174468994E-1,2.489166260E-1,-1.075439453E-1
1.400846198E0,1.160736084E-1,2.498016357E-1,-1.103057861E-1
1.405820564E0,1.137542725E-1,2.527770996E-1,-1.114349365E-1
1.410794929E0,1.128997803E-1,2.546997070E-1,-1.133422852E-1
1.415769294E0,1.124420166E-1,2.595977783E-1,-1.122894287E-1
1.420743659E0,1.118011475E-1,2.592468262E-1,-1.116638184E-1
1.425718025E0,1.127014160E-1,2.572021484E-1,-1.070098877E-1
1.430692390E0,1.101684570E-1,2.541809082E-1,-1.056213379E-1
1.435666755E0,1.052398682E-1,2.503967285E-1,-1.032562256E-1
1.440641120E0,1.013031006E-1,2.441101074E-1,-1.006774902E-1
1.445615486E0,9.614562988E-2,2.358093262E-1,-9.565734863E-2
1.450589851E0,9.049987793E-2,2.280883789E-1,-9.317016602E-2
1.455564216E0,8.558654785E-2,2.200012207E-1,-9.123229980E-2
1.460538581E0,7.846069336E-2,2.133331299E-1,-8.860778809E-2
1.465512947E0,7.278442383E-2,2.071228027E-1,-8.401489258E-2
1.470487312E0,6.460571289E-2,2.040710449E-1,-8.338928223E-2
1.475461677E0,5.906677246E-2,1.976165771E-1,-8.335876465E-2
1.480436042E0,5.114746094E-2,1.925811768E-1,-8.441162109E-2
1.485410407E0,4.417419434E-2,1.890258789E-1,-8.451843262E-2
1.490384773E0,3.846740723E-2,1.885375977E-1,-8.534240723E-2
1.495359138E0,3.204345703E-2,1.853027344E-1,-8.758544922E-2
1.500333503E0,2.493286133E-2,1.828918457E-1,-8.880615234E-2
1.505307868E0,1.878356934E-2,1.816101074E-1,-9.060668945E-2
1.510282234E0,1.489257812E-2,1.807403564E-1,-9.150695801E-2
1.515256599E0,1.123046875E-2,1.782989502E-1,-9.553527832E-2
1.520230964E0,7.873535156E-3,1.746368408E-1,-9.985351562E-2
1.525205329E0,7.217407227E-3,1.687469482E-1,-1.016693115E-1
1.530179695E0,8.285522461E-3,1.553039551E-1,-1.040496826E-1
1.535154060E0,7.858276367E-3,1.428222656E-1,-1.071929932E-1
1.540128425E0,9.017944336E-3,1.426696777E-1,-1.103820801E-1
1.545102790E0,1.228332520E-2,1.492156982E-1,-1.148071289E-1
1.550077155E0,1.872253418E-2,1.631011963E-1,-1.182708740E-1
1.555051521E0,2.481079102E-2,1.740875244E-1,-1.242065430E-1
1.560025886E0,2.963256836E-2,1.846008301E-1,-1.266479492E-1
1.565000251E0,3.771972656E-2,1.907958984E-1,-1.291503906E-1
1.569974616E0,4.011535645E-2,1.972961426E-1,-1.329498291E-1
1.574948982E0,4.202270508E-2,2.015228271E-1,-1.348571777E-1
1.579923347E0,4.394531250E-2,2.072296143E-1,-1.351623535E-1
1.584897712E0,4.508972168E-2,2.101287842E-1,-1.331176758E-1
1.589872077E0,4.597473145E-2,2.119598389E-1,-1.327209473E-1
1.594846443E0,4.560852051E-2,2.135467529E-1,-1.323852539E-1
1.599820808E0,4.269409180E-2,2.149505615E-1,-1.314544678E-1
1.604795173E0,4.180908203E-2,2.182922363E-1,-1.292724609E-1
1.609769538E0,4.077148438E-2,2.196502686E-1,-1.252288818E-1
1.614743904E0,3.752136230E-2,2.191925049E-1,-1.243286133E-1
1.619718269E0,3.175354004E-2,2.190399170E-1,-1.225738525E-1
1.624692634E0,2.737426758E-2,2.276763916E-1,-1.210174561E-1
1.629666999E0,2.459716797E-2,2.386016846E-1,-1.197357178E-1
1.634641364E0,1.977539062E-2,2.471923828E-1,-1.207275391E-1
1.639615730E0,1.823425293E-2,2.513427734E-1,-1.226196289E-1
1.644590095E0,1.458740234E-2,2.551574707E-1,-1.207733154E-1
1.649564460E0,1.647949219E-2,2.574157715E-1,-1.194458008E-1
1.654538825E0,1.799011230E-2,2.564544678E-1,-1.168975830E-1
1.659513191E0,2.120971680E-2,2.571868896E-1,-1.109313965E-1
1.664487556E0,2.497863770E-2,2.554168701E-1,-1.088867188E-1
1.669461921E0,3.073120117E-2,2.541198730E-1,-1.021881104E-1
1.674436286E0,3.631591797E-2,2.532501221E-1,-9.660339355E-2
1.679410652E0,4.028320312E-2,2.511444092E-1,-9.240722656E-2
1.684385017E0,4.325866699E-2,2.440795898E-1,-8.694458008E-2
1.689359382E0,4.772949219E-2,2.365722656E-1,-7.910156250E-2
1.694333747E0,5.093383789E-2,2.314300537E-1,-7.299804688E-2
1.699308113E0,5.357360840E-2,2.244567871E-1,-6.904602051E-2
1.704282478E0,5.601501465E-2,2.170257568E-1,-6.481933594E-2
1.709256843E0,5.958557129E-2,2.097930908E-1,-6.030273438E-2
1.714231208E0,6.141662598E-2,1.994171143E-1,-5.734252930E-2
1.719205573E0,6.538391113E-2,1.892852783E-1,-5.429077148E-2
1.724179939E0,6.848144531E-2,1.802062988E-1,-5.363464355E-2
1.729154304E0,7.211303711E-2,1.685333252E-1,-4.881286621E-2
1.734128669E0,7.142639160E-2,1.569061279E-1,-4.699707031E-2
1.739103034E0,6.835937500E-2,1.453247070E-1,-4.331970215E-2
1.744077400E0,6.333923340E-2,1.181030273E-1,-3.886413574E-2
1.749051765E0,6.050109863E-2,8.872985840E-2,-3.488159180E-2
1.754026130E0,5.390930176E-2,7.986450195E-2,-3.768920898E-2
1.759000495E0,4.785156250E-2,8.715820312E-2,-4.208374023E-2
1.763974861E0,4.879760742E-2,1.028442383E-1,-4.605102539E-2
1.768949226E0,4.692077637E-2,1.200561523E-1,-5.053710938E-2
1.773923591E0,4.652404785E-2,1.297912598E-1,-5.421447754E-2
1.778897956E0,4.547119141E-2,1.360015869E-1,-5.546569824E-2
1.783872322E0,4.508972168E-2,1.412658691E-1,-5.442810059E-2
1.788846687E0,4.335021973E-2,1.429595947E-1,-5.445861816E-2
1.793821052E0,4.110717773E-2,1.426544189E-1,-5.639648438E-2
1.798795417E0,3.872680664E-2,1.420745850E-1,-5.564880371E-2
1.803769782E0,3.335571289E-2,1.405487061E-1,-5.334472656E-2
1.808744148E0,2.816772461E-2,1.388092041E-1,-5.158996582E-2
1.813718513E0,2.233886719E-2,1.388397217E-1,-4.942321777E-2
1.818692878E0,1.454162598E-2,1.333770752E-1,-4.780578613E-2
1.823667243E0,1.020812988E-2,1.301727295E-1,-4.602050781E-2
1.828641609E0,3.799438477E-3,1.234588623E-1,-4.409790039E-2
1.833615974E0,-2.105712891E-3,1.180267334E-1,-4.104614258E-2
1.838590339E0,-6.118774414E-3,1.158599854E-1,-3.903198242E-2
1.843564704E0,-1.425170898E-2,1.108551025E-1,-3.836059570E-2
1.848539070E0,-1.844787598E-2,1.075592041E-1,-3.826904297E-2
1.853513435E0,-1.873779297E-2,1.031646729E-1,-3.698730469E-2
1.858487800E0,-2.079772949E-2,9.858703613E-2,-3.559875488E-2
1.863462165E0,-2.040100098E-2,9.089660645E-2,-3.381347656E-2
1.868436530E0,-2.056884766E-2,8.676147461E-2,-3.286743164E-2
1.873410896E0,-1.832580566E-2,8.335876465E-2,-3.208923340E-2
1.878385261E0,-1.382446289E-2,7.681274414E-2,-2.929687500E-2
1.883359626E0,-1.034545898E-2,7.359313965E-2,-2.633666992E-2
1.888333991E0,-8.422851562E-3,7.124328613E-2,-2.349853516E-2
1.893308357E0,-6.820678711E-3,7.028198242E-2,-1.997375488E-2
1.898282722E0,-4.486083984E-3,7.136535645E-2,-1.820373535E-2
1.903257087E0,-1.647949219E-3,7.205200195E-2,-1.593017578E-2
1.908231452E0,-3.204345703E-4,7.385253906E-2,-1.290893555E-2
1.913205818E0,3.204345703E-4,7.398986816E-2,-1.121520996E-2
1.918180183E0,1.525878906E-5,7.177734375E-2,-1.040649414E-2
1.923154548E0,3.814697266E-4,6.469726562E-2,-1.075744629E-2
1.928128913E0,-1.098632812E-3,5.955505371E-2,-8.758544922E-3
1.933103279E0,-2.288818359E-4,5.282592773E-2,-1.123046875E-2
1.938077644E0,1.068115234E-3,4.931640625E-2,-1.206970215E-2
1.943052009E0,-3.051757812E-5,4.733276367E-2,-1.275634766E-2
1.948026374E0,4.852294922E-3,4.432678223E-2,-1.506042480E-2
1.953000739E0,6.408691406E-3,4.417419434E-2,-1.412963867E-2
1.957975105E0,9.750366211E-3,4.238891602E-2,-1.554870605E-2
1.962949470E0,1.039123535E-2,3.935241699E-2,-1.426696777E-2
1.967923835E0,1.087951660E-2,4.078674316E-2,-1.315307617E-2
1.972898200E0,1.048278809E-2,3.924560547E-2,-1.193237305E-2
1.977872566E0,9.658813477E-3,3.814697266E-2,-8.468627930E-3
1.982846931E0,9.399414062E-3,3.572082520E-2,-4.867553711E-3
1.987821296E0,1.017761230E-2,3.195190430E-2,-3.875732422E-3
1.992795661E0,1.084899902E-2,2.967834473E-2,-2.273559570E-3
1.997770027E0,9.567260742E-3,3.071594238E-2,1.678466797E-3
2.002744392E0,8.285522461E-3,3.375244141E-2,4.913330078E-3
2.007718757E0,6.607055664E-3,3.598022461E-2,6.835937500E-3
2.012693122E0,5.554199219E-3,3.813171387E-2,9.201049805E-3
2.017667488E0,4.440307617E-3,4.348754883E-2,1.036071777E-2
2.022641853E0,6.149291992E-3,4.641723633E-2,1.150512695E-2
2.027616218E0,1.135253906E-2,4.835510254E-2,1.383972168E-2
2.032590583E0,1.042175293E-2,5.140686035E-2,1.753234863E-2
2.037564948E0,9.094238281E-3,4.989624023E-2,1.960754395E-2
2.042539314E0,5.996704102E-3,4.428100586E-2,1.785278320E-2
2.047513679E0,6.408691406E-3,4.122924805E-2,1.869201660E-2
2.052488044E0,3.692626953E-3,4.037475586E-2,2.239990234E-2
2.057462409E0,4.867553711E-3,3.849792480E-2,2.493286133E-2
2.062436775E0,5.386352539E-3,3.991699219E-2,2.699279785E-2
2.067411140E0,4.913330078E-3,4.022216797E-2,2.716064453E-2
2.072385505E0,3.738403320E-3,4.344177246E-2,2.816772461E-2
2.077359870E0,3.082275391E-3,4.814147949E-2,2.857971191E-2
2.082334236E0,2.105712891E-3,5.535888672E-2,2.725219727E-2
2.087308601E0,2.716064453E-3,6.262207031E-2,2.816772461E-2
2.092282966E0,1.724243164E-3,6.878662109E-2,2.790832520E-2
2.097257331E0,1.037597656E-3,7.160949707E-2,2.632141113E-2
2.102231697E0,-1.358032227E-3,7.427978516E-2,2.281188965E-2
2.107206062E0,-2.960205078E-3,7.629394531E-2,1.969909668E-2
2.112180427E0,-1.892089844E-3,7.757568359E-2,1.734924316E-2
2.117154792E0,-4.272460938E-4,7.516479492E-2,1.385498047E-2
2.122129157E0,-6.103515625E-4,7.327270508E-2,1.245117188E-2
2.127103523E0,1.892089844E-3,6.990051270E-2,1.129150391E-2
2.132077888E0,5.081176758E-3,6.439208984E-2,1.055908203E-2
2.137052253E0,7.705688477E-3,6.269836426E-2,9.918212891E-3
2.142026618E0,1.087951660E-2,5.773925781E-2,1.296997070E-2
2.147000984E0,1.219177246E-2,5.413818359E-2,1.548767090E-2
2.151975349E0,1.379394531E-2,5.458068848E-2,1.678466797E-2
2.156949714E0,1.271057129E-2,5.358886719E-2,1.322937012E-2
2.161924079E0,1.321411133E-2,5.258178711E-2,1.530456543E-2
2.166898445E0,1.609802246E-2,4.582214355E-2,1.739501953E-2
2.171872810E0,1.882934570E-2,4.272460938E-2,1.821899414E-2
2.176847175E0,1.968383789E-2,4.144287109E-2,1.841735840E-2
2.181821540E0,2.001953125E-2,3.916931152E-2,1.698303223E-2
2.186795905E0,1.597595215E-2,3.643798828E-2,1.606750488E-2
2.191770271E0,1.269531250E-2,3.578186035E-2,1.570129395E-2
2.196744636E0,1.277160645E-2,3.678894043E-2,1.600646973E-2
2.201719001E0,1.037597656E-2,3.723144531E-2,1.564025879E-2
2.206693366E0,7.629394531E-3,3.898620605E-2,1.538085938E-2
2.211667732E0,7.217407227E-3,4.005432129E-2,1.496887207E-2
2.216642097E0,4.913330078E-3,4.005432129E-2,1.155090332E-2
2.221616462E0,2.197265625E-3,4.347229004E-2,9.033203125E-3
2.226590827E0,1.373291016E-4,4.536437988E-2,8.148193359E-3
2.231565193E0,2.090454102E-3,4.664611816E-2,5.310058594E-3
2.236539558E0,4.074096680E-3,5.027770996E-2,1.510620117E-3
2.241513923E0,1.113891602E-3,5.410766602E-2,1.220703125E-4
2.246488288E0,2.258300781E-3,5.400085449E-2,1.419067383E-3
2.251462654E0,8.544921875E-4,5.201721191E-2,2.563476562E-3
2.256437019E0,-1.251220703E-3,4.954528809E-2,2.471923828E-3
2.261411384E0,-9.613037109E-4,4.774475098E-2,1.953125000E-3
2.266385749E0,-1.800537109E-3,4.537963867E-2,1.953125000E-3
2.271360114E0,-2.273559570E-3,3.977966309E-2,2.334594727E-3
2.276334480E0,-4.180908203E-3,3.530883789E-2,3.173828125E-3
2.281308845E0,-5.249023438E-3,3.138732910E-2,3.417968750E-3
2.286283210E0,-8.285522461E-3,2.706909180E-2,4.074096680E-3
2.291257575E0,-1.174926758E-2,2.262878418E-2,4.714965820E-3
2.296231941E0,-1.585388184E-2,1.719665527E-2,4.333496094E-3
2.301206306E0,-1.797485352E-2,1.316833496E-2,4.898071289E-3
2.306180671E0,-1.925659180E-2,1.155090332E-2,6.027221680E-3
2.311155036E0,-2.095031738E-2,9.185791016E-3,5.371093750E-3
2.316129402E0,-2.104187012E-2,7.827758789E-3,5.920410156E-3
2.321103767E0,-1.942443848E-2,4.241943359E-3,6.225585938E-3
2.326078132E0,-1.696777344E-2,-2.441406250E-4,5.187988281E-3
2.331052497E0,-1.881408691E-2,-5.844116211E-3,5.004882812E-3
2.336026863E0,-2.079772949E-2,-1.101684570E-2,6.744384766E-3
2.341001228E0,-1.968383789E-2,-1.368713379E-2,1.048278809E-2
2.345975593E0,-1.904296875E-2,-1.573181152E-2,1.184082031E-2
2.350949958E0,-1.889038086E-2,-2.009582520E-2,1.449584961E-2
2.355924323E0,-1.689147949E-2,-2.381896973E-2,1.811218262E-2
2.360898689E0,-1.489257812E-2,-3.100585938E-2,1.956176758E-2
2.365873054E0,-1.568603516E-2,-3.706359863E-2,1.965332031E-2
2.370847419E0,-1.608276367E-2,-4.000854492E-2,2.186584473E-2
2.375821784E0,-1.457214355E-2,-4.670715332E-2,2.355957031E-2
2.380796150E0,-1.464843750E-2,-5.007934570E-2,2.589416504E-2
2.385770515E0,-1.457214355E-2,-5.503845215E-2,2.699279785E-2
2.390744880E0,-1.475524902E-2,-5.857849121E-2,2.819824219E-2
2.395719245E0,-1.632690430E-2,-6.079101562E-2,2.911376953E-2
2.400693611E0,-1.660156250E-2,-6.388854980E-2,2.774047852E-2
2.405667976E0,-1.701354980E-2,-6.561279297E-2,2.543640137E-2
2.410642341E0,-2.017211914E-2,-6.477355957E-2,2.413940430E-2
2.415616706E0,-2.465820312E-2,-6.484985352E-2,2.349853516E-2
2.420591072E0,-2.626037598E-2,-6.452941895E-2,2.140808105E-2
2.425565437E0,-3.048706055E-2,-6.080627441E-2,1.884460449E-2
2.430539802E0,-3.453063965E-2,-5.685424805E-2,1.628112793E-2
2.435514167E0,-3.723144531E-2,-5.358886719E-2,1.542663574E-2
2.440488532E0,-4.283142090E-2,-5.157470703E-2,1.538085938E-2
2.445462898E0,-4.536437988E-2,-4.791259766E-2,1.484680176E-2
2.450437263E0,-4.664611816E-2,-4.814147949E-2,1.585388184E-2
2.455411628E0,-4.792785645E-2,-5.009460449E-2,1.460266113E-2
2.460385993E0,-4.896545410E-2,-4.850769043E-2,1.699829102E-2
2.465360359E0,-4.838562012E-2,-4.910278320E-2,1.660156250E-2
2.470334724E0,-4.635620117E-2,-5.221557617E-2,1.809692383E-2
2.475309089E0,-4.551696777E-2,-5.545043945E-2,1.869201660E-2
2.480283454E0,-4.421997070E-2,-5.776977539E-2,2.293395996E-2
2.485257820E0,-4.481506348E-2,-6.019592285E-2,2.516174316E-2
2.490232185E0,-4.502868652E-2,-6.071472168E-2,2.726745605E-2
2.495206550E0,-4.281616211E-2,-5.764770508E-2,2.943420410E-2
2.500180915E0,-4.118347168E-2,-5.113220215E-2,3.088378906E-2
2.505155280E0,-4.081726074E-2,-4.679870605E-2,3.268432617E-2
2.510129646E0,-3.935241699E-2,-4.252624512E-2,3.227233887E-2
2.515104011E0,-3.543090820E-2,-3.710937500E-2,3.099060059E-2
2.520078376E0,-3.096008301E-2,-3.329467773E-2,3.067016602E-2
2.525052741E0,-2.902221680E-2,-2.955627441E-2,2.758789062E-2
2.530027107E0,-2.610778809E-2,-2.844238281E-2,2.590942383E-2
2.535001472E0,-2.290344238E-2,-2.436828613E-2,2.691650391E-2
2.539975837E0,-2.151489258E-2,-2.528381348E-2,2.459716797E-2
2.544950202E0,-2.130126953E-2,-2.532958984E-2,2.394104004E-2
2.549924568E0,-1.638793945E-2,-2.598571777E-2,2.372741699E-2
2.554898933E0,-1.342773438E-2,-2.644348145E-2,2.142333984E-2
2.559873298E0,-8.666992188E-3,-2.536010742E-2,2.067565918E-2
2.564847663E0,-7.797241211E-3,-2.345275879E-2,1.997375488E-2
2.569822029E0,-5.371093750E-3,-2.618408203E-2,2.001953125E-2
2.574796394E0,-5.004882812E-3,-2.857971191E-2,1.763916016E-2
2.579770759E0,-1.861572266E-3,-2.850341797E-2,1.676940918E-2
2.584745124E0,-1.266479492E-3,-2.720642090E-2,1.519775391E-2
2.589719489E0,-1.937866211E-3,-2.593994141E-2,1.655578613E-2
2.594693855E0,-2.929687500E-3,-2.432250977E-2,1.841735840E-2
2.599668220E0,-3.417968750E-3,-2.383422852E-2,1.892089844E-2
2.604642585E0,-7.080078125E-3,-2.252197266E-2,1.773071289E-2
2.609616950E0,-1.347351074E-2,-2.247619629E-2,1.704406738E-2
2.614591316E0,-1.718139648E-2,-2.197265625E-2,1.858520508E-2
2.619565681E0,-2.217102051E-2,-2.502441406E-2,2.001953125E-2
2.624540046E0,-2.691650391E-2,-2.696228027E-2,1.977539062E-2
2.629514411E0,-2.975463867E-2,-2.659606934E-2,1.966857910E-2
2.634488777E0,-3.402709961E-2,-3.277587891E-2,2.024841309E-2
2.639463142E0,-3.971862793E-2,-3.625488281E-2,1.789855957E-2
2.644437507E0,-4.228210449E-2,-4.063415527E-2,1.850891113E-2
2.649411872E0,-4.306030273E-2,-4.287719727E-2,2.018737793E-2
2.654386238E0,-4.530334473E-2,-4.899597168E-2,1.930236816E-2
2.659360603E0,-4.553222656E-2,-5.207824707E-2,2.122497559E-2
2.664334968E0,-4.582214355E-2,-5.212402344E-2,2.301025391E-2
2.669309333E0,-4.263305664E-2,-5.332946777E-2,2.429199219E-2
2.674283698E0,-4.002380371E-2,-5.216979980E-2,2.577209473E-2
2.679258064E0,-4.060363770E-2,-5.526733398E-2,2.839660645E-2
2.684232429E0,-4.524230957E-2,-5.828857422E-2,2.961730957E-2
2.689206794E0,-4.896545410E-2,-5.917358398E-2,2.647399902E-2
2.694181159E0,-4.861450195E-2,-6.011962891E-2,2.488708496E-2
2.699155525E0,-4.634094238E-2,-6.332397461E-2,2.375793457E-2
2.704129890E0,-4.339599609E-2,-6.446838379E-2,2.005004883E-2
2.709104255E0,-4.267883301E-2,-6.336975098E-2,1.554870605E-2
2.714078620E0,-4.241943359E-2,-5.915832520E-2,1.239013672E-2
2.719052986E0,-3.988647461E-2,-5.342102051E-2,1.077270508E-2
2.724027351E0,-3.768920898E-2,-5.117797852E-2,8.987426758E-3
2.729001716E0,-3.416442871E-2,-4.829406738E-2,9.216308594E-3
2.733976081E0,-3.199768066E-2,-4.678344727E-2,9.277343750E-3
2.738950447E0,-3.128051758E-2,-4.133605957E-2,9.872436523E-3
2.743924812E0,-2.703857422E-2,-4.537963867E-2,8.010864258E-3
2.748899177E0,-2.864074707E-2,-4.142761230E-2,6.286621094E-3
2.753873542E0,-2.622985840E-2,-3.645324707E-2,7.003784180E-3
2.758847907E0,-2.485656738E-2,-3.166198730E-2,8.270263672E-3
2.763822273E0,-2.291870117E-2,-2.215576172E-2,9.704589844E-3
2.768796638E0,-2.217102051E-2,-1.300048828E-2,1.145935059E-2
2.773771003E0,-2.374267578E-2,-2.777099609E-3,1.193237305E-2
2.778745368E0,-2.378845215E-2,7.812500000E-3,1.043701172E-2
2.783719734E0,-2.455139160E-2,1.733398438E-2,8.499145508E-3
2.788694099E0,-2.688598633E-2,2.790832520E-2,6.866455078E-3
2.793668464E0,-2.975463867E-2,3.750610352E-2,4.623413086E-3
2.798642829E0,-3.144836426E-2,4.548645020E-2,2.136230469E-3
2.803617195E0,-3.134155273E-2,5.090332031E-2,-9.460449219E-4
2.808591560E0,-3.063964844E-2,5.351257324E-2,-5.218505859E-3
2.813565925E0,-3.021240234E-2,5.718994141E-2,-9.246826172E-3
2.818540290E0,-2.673339844E-2,6.121826172E-2,-1.356506348E-2
2.823514655E0,-2.476501465E-2,6.002807617E-2,-2.008056641E-2
2.828489021E0,-2.027893066E-2,5.961608887E-2,-2.714538574E-2
2.833463386E0,-1.289367676E-2,5.621337891E-2,-3.585815430E-2
2.838437751E0,-7.583618164E-3,5.474853516E-2,-4.307556152E-2
2.843412116E0,1.861572266E-3,4.736328125E-2,-4.887390137E-2
2.848386482E0,7.537841797E-3,4.624938965E-2,-5.413818359E-2
2.853360847E0,1.177978516E-2,3.997802734E-2,-6.094360352E-2
2.858335212E0,1.435852051E-2,3.912353516E-2,-6.597900391E-2
2.863309577E0,1.721191406E-2,3.816223145E-2,-7.005310059E-2
2.868283943E0,2.088928223E-2,4.122924805E-2,-7.313537598E-2
2.873258308E0,2.328491211E-2,4.649353027E-2,-7.661437988E-2
2.878232673E0,2.279663086E-2,5.172729492E-2,-7.881164551E-2
2.883207038E0,1.943969727E-2,5.548095703E-2,-8.111572266E-2
2.888181404E0,1.611328125E-2,6.245422363E-2,-8.227539062E-2
2.893155769E0,1.292419434E-2,6.854248047E-2,-8.387756348E-2
2.898130134E0,9.475708008E-3,7.093811035E-2,-8.592224121E-2
2.903104499E0,6.149291992E-3,7.272338867E-2,-8.988952637E-2
2.908078864E0,2.716064453E-3,7.324218750E-2,-9.109497070E-2
2.913053230E0,-2.243041992E-3,6.953430176E-2,-8.956909180E-2
2.918027595E0,-8.483886719E-3,6.440734863E-2,-8.952331543E-2
2.923001960E0,-1.486206055E-2,5.531311035E-2,-8.866882324E-2
2.927976325E0,-2.339172363E-2,4.609680176E-2,-8.738708496E-2
2.932950691E0,-3.462219238E-2,3.877258301E-2,-8.387756348E-2
2.937925056E0,-4.145812988E-2,2.638244629E-2,-8.119201660E-2
2.942899421E0,-4.905700684E-2,1.670837402E-2,-7.859802246E-2
2.947873786E0,-5.564880371E-2,5.691528320E-3,-7.354736328E-2
2.952848152E0,-6.491088867E-2,-6.423950195E-3,-6.983947754E-2
2.957822517E0,-7.575988770E-2,-1.727294922E-2,-6.697082520E-2
2.962796882E0,-8.265686035E-2,-2.429199219E-2,-6.236267090E-2
2.967771247E0,-8.892822266E-2,-2.975463867E-2,-5.787658691E-2
2.972745613E0,-9.527587891E-2,-2.923583984E-2,-5.569458008E-2
2.977719978E0,-1.020812988E-1,-2.626037598E-2,-5.441284180E-2
2.982694343E0,-1.072082520E-1,-2.066040039E-2,-5.236816406E-2
2.987668708E0,-1.120605469E-1,-1.237487793E-2,-5.085754395E-2
2.992643073E0,-1.146545410E-1,-6.896972656E-3,-4.992675781E-2
2.997617439E0,-1.159820557E-1,3.036499023E-3,-4.804992676E-2
3.002591804E0,-1.182861328E-1,1.451110840E-2,-4.714965820E-2
3.007566169E0,-1.167907715E-1,2.413940430E-2,-4.650878906E-2
3.012540534E0,-1.138153076E-1,3.071594238E-2,-4.542541504E-2
3.017514900E0,-1.098632812E-1,3.398132324E-2,-4.554748535E-2
3.022489265E0,-1.038818359E-1,3.504943848E-2,-4.270935059E-2
3.027463630E0,-1.006164551E-1,3.727722168E-2,-4.202270508E-2
3.032437995E0,-9.526062012E-2,3.593444824E-2,-4.034423828E-2
3.037412361E0,-8.775329590E-2,3.401184082E-2,-4.077148438E-2
3.042386726E0,-8.435058594E-2,3.016662598E-2,-3.771972656E-2
3.047361091E0,-8.042907715E-2,2.136230469E-2,-3.546142578E-2
3.052335456E0,-7.525634766E-2,1.562500000E-2,-3.782653809E-2
3.057309822E0,-6.947326660E-2,9.948730469E-3,-3.825378418E-2
3.062284187E0,-6.303405762E-2,4.791259766E-3,-3.762817383E-2
3.067258552E0,-5.583190918E-2,-3.356933594E-4,-3.729248047E-2
3.072232917E0,-5.429077148E-2,-4.318237305E-3,-3.756713867E-2
3.077207282E0,-5.276489258E-2,-5.142211914E-3,-3.756713867E-2
3.082181648E0,-4.829406738E-2,-3.387451172E-3,-3.784179688E-2
3.087156013E0,-4.216003418E-2,-8.697509766E-4,-3.741455078E-2
3.092130378E0,-3.765869141E-2,2.548217773E-3,-3.649902344E-2
3.097104743E0,-3.614807129E-2,7.553100586E-3,-3.462219238E-2
3.102079109E0,-3.540039062E-2,1.226806641E-2,-3.295898438E-2
3.107053474E0,-3.492736816E-2,1.721191406E-2,-2.983093262E-2
3.112027839E0,-3.363037109E-2,2.343750000E-2,-2.555847168E-2
3.117002204E0,-3.263854980E-2,2.865600586E-2,-2.246093750E-2
3.121976570E0,-3.198242188E-2,3.215026855E-2,-1.838684082E-2
3.126950935E0,-3.135681152E-2,3.482055664E-2,-1.339721680E-2
3.131925300E0,-3.292846680E-2,3.738403320E-2,-7.156372070E-3
3.136899665E0,-3.308105469E-2,4.348754883E-2,-4.837036133E-3
3.141874030E0,-3.007507324E-2,4.804992676E-2,2.624511719E-3
3.146848396E0,-3.115844727E-2,5.366516113E-2,7.049560547E-3
3.151822761E0,-2.941894531E-2,5.708312988E-2,1.077270508E-2
3.156797126E0,-2.981567383E-2,6.123352051E-2,1.275634766E-2
3.161771491E0,-3.147888184E-2,6.021118164E-2,1.249694824E-2
3.166745857E0,-2.957153320E-2,6.021118164E-2,1.602172852E-2
3.171720222E0,-2.670288086E-2,5.793762207E-2,1.841735840E-2
3.176694587E0,-2.157592773E-2,4.978942871E-2,1.945495605E-2
3.181668952E0,-1.719665527E-2,4.231262207E-2,1.780700684E-2
3.186643318E0,-1.231384277E-2,3.663635254E-2,1.516723633E-2
3.191617683E0,-8.987426758E-3,2.958679199E-2,1.136779785E-2
3.196592048E0,-5.874633789E-3,2.395629883E-2,8.666992188E-3
3.201566413E0,-5.950927734E-4,1.681518555E-2,5.737304688E-3
3.206540779E0,1.510620117E-3,6.805419922E-3,3.387451172E-3
3.211515144E0,3.433227539E-3,-9.002685547E-4,3.616333008E-3
3.216489509E0,1.388549805E-3,-6.393432617E-3,1.495361328E-3
3.221463874E0,-4.882812500E-4,-6.607055664E-3,3.189086914E-3
3.226438239E0,-3.341674805E-3,-3.250122070E-3,3.265380859E-3
3.231412605E0,-7.644653320E-3,-4.913330078E-3,6.484985352E-3
3.236386970E0,-1.559448242E-2,-3.997802734E-3,1.147460938E-2
3.241361335E0,-2.638244629E-2,-5.142211914E-3,1.478576660E-2
3.246335700E0,-3.527832031E-2,-6.362915039E-3,1.652526855E-2
3.251310066E0,-4.246520996E-2,-6.561279297E-3,1.498413086E-2
3.256284431E0,-5.059814453E-2,-8.560180664E-3,1.599121094E-2
3.261258796E0,-5.764770508E-2,-1.150512695E-2,1.185607910E-2
3.266233161E0,-6.349182129E-2,-1.600646973E-2,8.972167969E-3
3.271207527E0,-6.614685059E-2,-2.012634277E-2,5.676269531E-3
3.276181892E0,-6.913757324E-2,-2.331542969E-2,4.608154297E-3
3.281156257E0,-6.890869141E-2,-2.529907227E-2,5.249023438E-3
3.286130622E0,-6.770324707E-2,-2.586364746E-2,3.417968750E-3
3.291104988E0,-6.364440918E-2,-2.622985840E-2,1.220703125E-4
3.296079353E0,-5.790710449E-2,-2.424621582E-2,8.544921875E-4
3.301053718E0,-5.496215820E-2,-2.066040039E-2,2.700805664E-3
3.306028083E0,-5.288696289E-2,-1.760864258E-2,5.569458008E-3
3.311002448E0,-5.331420898E-2,-1.931762695E-2,9.826660156E-3
3.315976814E0,-5.752563477E-2,-2.224731445E-2,1.248168945E-2
3.320951179E0,-6.120300293E-2,-2.236938477E-2,1.441955566E-2
3.325925544E0,-6.909179688E-2,-1.809692383E-2,1.478576660E-2
3.330899909E0,-7.090759277E-2,-1.518249512E-2,1.808166504E-2
3.335874275E0,-7.328796387E-2,-1.435852051E-2,2.018737793E-2
3.340848640E0,-7.585144043E-2,-1.004028320E-2,2.333068848E-2
3.345823005E0,-7.383728027E-2,-5.340576172E-4,2.073669434E-2
3.350797370E0,-7.012939453E-2,6.362915039E-3,1.795959473E-2
3.355771736E0,-6.719970703E-2,1.252746582E-2,1.870727539E-2
3.360746101E0,-6.254577637E-2,2.037048340E-2,1.651000977E-2
3.365720466E0,-6.072998047E-2,2.630615234E-2,1.539611816E-2
3.370694831E0,-6.101989746E-2,3.198242188E-2,1.193237305E-2
3.375669197E0,-6.016540527E-2,3.561401367E-2,8.056640625E-3
3.380643562E0,-5.960083008E-2,3.712463379E-2,6.362915039E-3
3.385617927E0,-6.024169922E-2,3.639221191E-2,2.700805664E-3
3.390592292E0,-6.028747559E-2,3.517150879E-2,1.373291016E-4
3.395566657E0,-6.030273438E-2,3.427124023E-2,-2.777099609E-3
3.400541023E0,-6.132507324E-2,3.492736816E-2,-5.630493164E-3
3.405515388E0,-6.101989746E-2,3.437805176E-2,-6.607055664E-3
3.410489753E0,-5.718994141E-2,3.395080566E-2,-3.616333008E-3
3.415464118E0,-5.525207520E-2,3.349304199E-2,-4.882812500E-4
3.420438484E0,-5.361938477E-2,3.431701660E-2,1.220703125E-4
3.425412849E0,-5.015563965E-2,3.196716309E-2,2.716064453E-3
3.430387214E0,-5.068969727E-2,3.314208984E-2,9.750366211E-3
3.435361579E0,-5.313110352E-2,2.986145020E-2,1.631164551E-2
3.440335945E0,-5.567932129E-2,1.934814453E-2,1.965332031E-2
3.445310310E0,-6.471252441E-2,1.445007324E-2,2.847290039E-2
3.450284675E0,-7.540893555E-2,1.785278320E-3,3.395080566E-2
3.455259040E0,-8.419799805E-2,-8.666992188E-3,3.633117676E-2
3.460233405E0,-9.487915039E-2,-1.599121094E-2,3.738403320E-2
3.465207771E0,-1.020812988E-1,-2.072143555E-2,3.604125977E-2
3.470182136E0,-1.081695557E-1,-2.128601074E-2,3.044128418E-2
3.475156501E0,-1.096649170E-1,-2.021789551E-2,2.552795410E-2
3.480130866E0,-1.095886230E-1,-2.076721191E-2,2.200317383E-2
3.485105232E0,-1.077728271E-1,-2.441406250E-2,1.873779297E-2
3.490079597E0,-1.063995361E-1,-2.714538574E-2,1.330566406E-2
3.495053962E0,-1.040954590E-1,-2.452087402E-2,8.529663086E-3
3.500028327E0,-1.010437012E-1,-2.011108398E-2,3.265380859E-3
3.505002693E0,-9.599304199E-2,-1.274108887E-2,-4.333496094E-3
3.509977058E0,-8.978271484E-2,-8.575439453E-3,-1.100158691E-2
3.514951423E0,-8.447265625E-2,-5.050659180E-3,-1.271057129E-2
3.519925788E0,-8.174133301E-2,-4.409790039E-3,-1.126098633E-2
3.524900154E0,-7.571411133E-2,-5.050659180E-3,-6.271362305E-3
3.529874519E0,-7.029724121E-2,-6.240844727E-3,4.959106445E-3
3.534848884E0,-6.631469727E-2,-6.362915039E-3,1.766967773E-2
3.539823249E0,-6.306457520E-2,3.265380859E-3,3.533935547E-2
3.544797614E0,-6.434631348E-2,1.362609863E-2,4.820251465E-2
3.549771980E0,-6.736755371E-2,2.558898926E-2,5.931091309E-2
3.554746345E0,-7.418823242E-2,3.443908691E-2,6.613159180E-2
3.559720710E0,-7.559204102E-2,3.782653809E-2,7.540893555E-2
3.564695075E0,-7.838439941E-2,3.707885742E-2,8.355712891E-2
3.569669441E0,-8.274841309E-2,3.044128418E-2,9.265136719E-2
3.574643806E0,-8.317565918E-2,2.865600586E-2,1.001129150E-1
3.579618171E0,-8.129882812E-2,3.288269043E-2,1.071777344E-1
3.584592536E0,-7.803344727E-2,3.860473633E-2,1.126403809E-1
3.589566902E0,-7.591247559E-2,4.273986816E-2,1.158447266E-1
3.594541267E0,-7.206726074E-2,5.017089844E-2,1.167602539E-1
3.599515632E0,-6.605529785E-2,6.008911133E-2,1.158294678E-1
3.604489997E0,-5.953979492E-2,7.394409180E-2,1.171264648E-1
3.609464363E0,-5.126953125E-2,9.394836426E-2,1.167602539E-1
3.614438728E0,-3.713989258E-2,1.189422607E-1,1.175384521E-1
3.619413093E0,-1.963806152E-2,1.481781006E-1,1.165771484E-1
3.624387458E0,-2.136230469E-4,1.909332275E-1,1.187286377E-1
3.629361823E0,2.075195312E-2,2.360687256E-1,1.262664795E-1
3.634336189E0,4.138183594E-2,2.690277100E-1,1.317596436E-1
3.639310554E0,5.831909180E-2,2.836303711E-1,1.332702637E-1
3.644284919E0,7.545471191E-2,2.945861816E-1,1.365966797E-1
3.649259284E0,8.911132812E-2,3.280334473E-1,1.450653076E-1
3.654233650E0,9.706115723E-2,3.617553711E-1,1.547698975E-1
3.659208015E0,1.017303467E-1,3.905792236E-1,1.652679443E-1
3.664182380E0,1.030273438E-1,4.053649902E-1,1.764831543E-1
3.669156745E0,1.020507812E-1,4.130249023E-1,1.865997314E-1
3.674131111E0,1.080169678E-1,4.208526611E-1,1.950073242E-1
3.679105476E0,1.178283691E-1,4.342041016E-1,1.988983154E-1
3.684079841E0,1.323242188E-1,4.506225586E-1,2.000579834E-1
3.689054206E0,1.513366699E-1,4.683227539E-1,2.022857666E-1
3.694028572E0,1.725158691E-1,4.817352295E-1,2.002716064E-1
3.699002937E0,1.952056885E-1,4.927520752E-1,1.931610107E-1
3.703977302E0,2.194213867E-1,5.041503906E-1,1.839294434E-1
3.708951667E0,2.406768799E-1,5.109100342E-1,1.715545654E-1
3.713926032E0,2.637329102E-1,5.126953125E-1,1.580657959E-1
3.718900398E0,2.856445312E-1,5.047454834E-1,1.436920166E-1
3.723874763E0,3.088531494E-1,4.826507568E-1,1.284332275E-1
3.728849128E0,3.293762207E-1,4.505767822E-1,1.124725342E-1
3.733823493E0,3.510131836E-1,4.154663086E-1,1.009826660E-1
3.738797859E0,3.679199219E-1,3.719635010E-1,9.072875977E-2
3.743772224E0,3.810424805E-1,3.290100098E-1,8.229064941E-2
3.748746589E0,4.001464844E-1,2.903289795E-1,7.287597656E-2
3.753720954E0,4.183197021E-1,2.585906982E-1,6.712341309E-2
3.758695320E0,4.408569336E-1,2.347717285E-1,7.109069824E-2
3.763669685E0,4.574890137E-1,2.189788818E-1,7.852172852E-2
3.768644050E0,4.707183838E-1,2.137298584E-1,8.406066895E-2
3.773618415E0,4.803619385E-1,2.101135254E-1,8.920288086E-2
3.778592780E0,4.883422852E-1,2.087249756E-1,9.815979004E-2
3.783567146E0,4.971923828E-1,2.132415771E-1,1.063995361E-1
3.788541511E0,5.045928955E-1,2.189636230E-1,1.153717041E-1
3.793515876E0,5.097198486E-1,2.209014893E-1,1.204986572E-1
3.798490241E0,5.108337402E-1,2.214965820E-1,1.200256348E-1
3.803464607E0,5.075073242E-1,2.188110352E-1,1.157989502E-1
3.808438972E0,4.978637695E-1,2.143249512E-1,1.080017090E-1
3.813413337E0,4.812774658E-1,2.098236084E-1,9.945678711E-2
3.818387702E0,4.593353271E-1,2.147979736E-1,9.205627441E-2
3.823362068E0,4.326629639E-1,2.261657715E-1,8.296203613E-2
3.828336433E0,4.009399414E-1,2.425842285E-1,7.498168945E-2
3.833310798E0,3.715820312E-1,2.627258301E-1,6.501770020E-2
3.838285163E0,3.480377197E-1,2.886352539E-1,5.653381348E-2
3.843259529E0,3.343658447E-1,3.173675537E-1,4.763793945E-2
3.848233894E0,3.240814209E-1,3.413696289E-1,4.223632812E-2
3.853208259E0,3.215179443E-1,3.620758057E-1,4.106140137E-2
3.858182624E0,3.194580078E-1,3.832855225E-1,3.666687012E-2
3.863156989E0,3.194274902E-1,3.994598389E-1,3.602600098E-2
3.868131355E0,3.186950684E-1,4.097137451E-1,3.424072266E-2
3.873105720E0,3.210296631E-1,4.215240479E-1,3.106689453E-2
3.878080085E0,3.189086914E-1,4.306182861E-1,3.144836426E-2
3.883054450E0,3.178863525E-1,4.338073730E-1,2.937316895E-2
3.888028816E0,3.180999756E-1,4.317169189E-1,2.789306641E-2
3.893003181E0,3.222656250E-1,4.256286621E-1,2.662658691E-2
3.897977546E0,3.289794922E-1,4.134216309E-1,2.412414551E-2
3.902951911E0,3.395538330E-1,3.916168213E-1,2.485656738E-2
3.907926277E0,3.550720215E-1,3.645172119E-1,2.864074707E-2
3.912900642E0,3.664703369E-1,3.435058594E-1,2.740478516E-2
3.917875007E0,3.697814941E-1,3.264770508E-1,2.355957031E-2
3.922849372E0,3.725738525E-1,3.023376465E-1,1.922607422E-2
3.927823738E0,3.842926025E-1,2.754974365E-1,1.792907715E-2
3.932798103E0,4.011688232E-1,2.490844727E-1,2.572631836E-2
3.937772468E0,4.191131592E-1,2.233428955E-1,3.352355957E-2
3.942746833E0,4.400329590E-1,2.035217285E-1,3.492736816E-2
3.947721198E0,4.577178955E-1,1.910247803E-1,3.433227539E-2
3.952695564E0,4.703826904E-1,1.835479736E-1,3.463745117E-2
3.957669929E0,4.761505127E-1,1.786193848E-1,3.616333008E-2
3.962644294E0,4.775238037E-1,1.783752441E-1,3.285217285E-2
3.967618659E0,4.736480713E-1,1.803283691E-1,3.189086914E-2
3.972593025E0,4.684600830E-1,1.837768555E-1,3.286743164E-2
3.977567390E0,4.700164795E-1,1.816101074E-1,3.605651855E-2
3.982541755E0,4.828643799E-1,1.755676270E-1,3.671264648E-2
3.987516120E0,4.924621582E-1,1.857757568E-1,3.234863281E-2
3.992490486E0,4.918518066E-1,2.040405273E-1,3.039550781E-2
3.997464851E0,4.877166748E-1,2.135162354E-1,3.231811523E-2
4.002439216E0,4.834747314E-1,2.195281982E-1,3.198242188E-2
4.007413581E0,4.757080078E-1,2.282409668E-1,2.676391602E-2
4.012387947E0,4.617309570E-1,2.409057617E-1,1.754760742E-2
4.017362312E0,4.485168457E-1,2.531433105E-1,1.196289062E-2
4.022336677E0,4.338073730E-1,2.642059326E-1,1.261901855E-2
4.027311042E0,4.215850830E-1,2.655487061E-1,1.188659668E-2
4.032285407E0,4.145660400E-1,2.598724365E-1,8.926391602E-3
4.037259773E0,4.116973877E-1,2.504882812E-1,5.126953125E-3
4.042234138E0,4.122772217E-1,2.458190918E-1,-1.296997070E-3
4.047208503E0,4.159088135E-1,2.402343750E-1,-1.208496094E-2
4.052182868E0,4.165039062E-1,2.378997803E-1,-2.151489258E-2
4.057157234E0,4.159851074E-1,2.385864258E-1,-3.509521484E-2
4.062131599E0,4.132995605E-1,2.454833984E-1,-4.968261719E-2
4.067105964E0,4.118652344E-1,2.498016357E-1,-6.683349609E-2
4.072080329E0,4.078369141E-1,2.570648193E-1,-8.613586426E-2
4.077054695E0,4.028930664E-1,2.679901123E-1,-1.062316895E-1
4.082029060E0,3.961029053E-1,2.791595459E-1,-1.244659424E-1
4.087003425E0,3.863677979E-1,2.918243408E-1,-1.416320801E-1
4.091977790E0,3.748474121E-1,3.012390137E-1,-1.566925049E-1
4.096952155E0,3.636322021E-1,3.057403564E-1,-1.704406738E-1
4.101926521E0,3.523406982E-1,3.102264404E-1,-1.814117432E-1
4.106900886E0,3.416137695E-1,3.130950928E-1,-1.905975342E-1
4.111875251E0,3.335266113E-1,3.145904541E-1,-1.952362061E-1
4.116849616E0,3.269348145E-1,3.154144287E-1,-1.973571777E-1
4.121823982E0,3.209991455E-1,3.165588379E-1,-1.987915039E-1
4.126798347E0,3.194427490E-1,3.167877197E-1,-1.958618164E-1
4.131772712E0,3.182525635E-1,3.156738281E-1,-1.925659180E-1
4.136747077E0,3.199005127E-1,3.155670166E-1,-1.858367920E-1
4.141721443E0,3.224182129E-1,3.167724609E-1,-1.788024902E-1
4.146695808E0,3.237915039E-1,3.164520264E-1,-1.733856201E-1
4.151670173E0,3.265533447E-1,3.219299316E-1,-1.628570557E-1
4.156644538E0,3.303680420E-1,3.306579590E-1,-1.504058838E-1
4.161618904E0,3.303680420E-1,3.419036865E-1,-1.395568848E-1
4.166593269E0,3.297271729E-1,3.549041748E-1,-1.254272461E-1
4.171567634E0,3.258361816E-1,3.695220947E-1,-1.097412109E-1
4.176541999E0,3.185577393E-1,3.899078369E-1,-9.631347656E-2
4.181516364E0,3.113861084E-1,4.153900146E-1,-8.593750000E-2
4.186490730E0,3.043975830E-1,4.392547607E-1,-7.545471191E-2
4.191465095E0,2.979278564E-1,4.620666504E-1,-6.452941895E-2
4.196439460E0,2.928161621E-1,4.824218750E-1,-5.564880371E-2
4.201413825E0,2.884216309E-1,4.991455078E-1,-5.018615723E-2
4.206388191E0,2.837677002E-1,5.089416504E-1,-4.794311523E-2
4.211362556E0,2.773284912E-1,5.127716064E-1,-4.666137695E-2
4.216336921E0,2.744598389E-1,5.144042969E-1,-4.676818848E-2
4.221311286E0,2.687377930E-1,5.156860352E-1,-5.035400391E-2
4.226285652E0,2.606201172E-1,5.159301758E-1,-5.538940430E-2
4.231260017E0,2.517242432E-1,5.148162842E-1,-6.163024902E-2
4.236234382E0,2.404479980E-1,5.111999512E-1,-7.734680176E-2
4.241208747E0,2.301025391E-1,5.055084229E-1,-9.284973145E-2
4.246183113E0,2.166748047E-1,5.016174316E-1,-1.141815186E-1
4.251157478E0,2.046813965E-1,4.967346191E-1,-1.385345459E-1
4.256131843E0,1.949310303E-1,4.898376465E-1,-1.678314209E-1
4.261106208E0,1.878662109E-1,4.909973145E-1,-1.972503662E-1
4.266080573E0,1.809539795E-1,4.930572510E-1,-2.296752930E-1
4.271054939E0,1.726531982E-1,5.017395020E-1,-2.656860352E-1
4.276029304E0,1.579284668E-1,5.192718506E-1,-3.042907715E-1
4.281003669E0,1.385498047E-1,5.493927002E-1,-3.432769775E-1
4.285978034E0,1.168670654E-1,5.885772705E-1,-3.810119629E-1
4.290952400E0,9.350585938E-2,6.279449463E-1,-4.210052490E-1
4.295926765E0,7.386779785E-2,6.679992676E-1,-4.575805664E-1
4.300901130E0,6.225585938E-2,7.036590576E-1,-4.907226562E-1
4.305875495E0,5.752563477E-2,7.237243652E-1,-5.205078125E-1
4.310849861E0,5.928039551E-2,7.192840576E-1,-5.458526611E-1
4.315824226E0,6.680297852E-2,6.898498535E-1,-5.656127930E-1
4.320798591E0,7.432556152E-2,6.312103271E-1,-5.762176514E-1
4.325772956E0,8.084106445E-2,5.535278320E-1,-5.761871338E-1
4.330747322E0,8.836364746E-2,4.616241455E-1,-5.665283203E-1
4.335721687E0,9.548950195E-2,3.690185547E-1,-5.433654785E-1
4.340696052E0,1.087036133E-1,2.740783691E-1,-5.059814453E-1
4.345670417E0,1.224822998E-1,1.864624023E-1,-4.581146240E-1
4.350644782E0,1.314544678E-1,1.125335693E-1,-4.018096924E-1
4.355619148E0,1.320343018E-1,6.037902832E-2,-3.283843994E-1
4.360593513E0,1.169586182E-1,3.248596191E-2,-2.523803711E-1
4.365567878E0,8.302307129E-2,3.160095215E-2,-1.687164307E-1
4.370542243E0,3.358459473E-2,4.216003418E-2,-8.161926270E-2
4.375516609E0,-2.421569824E-2,4.795837402E-2,-1.296997070E-3
4.380490974E0,-8.403015137E-2,3.704833984E-2,6.643676758E-2
4.385465339E0,-1.352691650E-1,3.295898438E-3,1.173706055E-1
4.390439704E0,-1.722869873E-1,-5.319213867E-2,1.442413330E-1
4.395414070E0,-1.974792480E-1,-1.359710693E-1,1.522216797E-1
4.400388435E0,-2.142333984E-1,-2.390747070E-1,1.431274414E-1
4.405362800E0,-2.292633057E-1,-3.656005859E-1,1.168518066E-1
4.410337165E0,-2.466125488E-1,-5.226440430E-1,7.643127441E-2
4.415311530E0,-2.627563477E-1,-6.983642578E-1,2.433776855E-2
4.420285896E0,-2.800445557E-1,-8.708953857E-1,-4.374694824E-2
4.425260261E0,-2.928466797E-1,-1.012771606E0,-1.337890625E-1
4.430234626E0,-2.961883545E-1,-1.112060547E0,-2.446594238E-1
4.435208991E0,-2.842102051E-1,-1.150756836E0,-3.635864258E-1
4.440183357E0,-2.471313477E-1,-1.126266479E0,-4.823303223E-1
4.445157722E0,-1.744079590E-1,-1.044631958E0,-5.906829834E-1
4.450132087E0,-7.850646973E-2,-9.555206299E-1,-6.762695312E-1
4.455106452E0,2.221679688E-2,-8.844909668E-1,-7.334747314E-1
4.460080818E0,9.494018555E-2,-8.361816406E-1,-7.573699951E-1
4.465055183E0,1.200103760E-1,-7.917327881E-1,-7.483215332E-1
4.470029548E0,8.641052246E-2,-7.338867188E-1,-7.135162354E-1
4.475003913E0,5.126953125E-3,-6.602172852E-1,-6.599121094E-1
4.479978279E0,-1.068572998E-1,-5.776672363E-1,-5.992889404E-1
4.484952644E0,-2.326660156E-1,-5.002441406E-1,-5.357666016E-1
4.489927009E0,-3.527984619E-1,-4.346466064E-1,-4.806060791E-1
4.494901374E0,-4.562225342E-1,-3.814392090E-1,-4.391937256E-1
4.499875739E0,-5.401458740E-1,-3.391571045E-1,-4.016876221E-1
4.504850105E0,-6.021575928E-1,-2.956390381E-1,-3.597412109E-1
4.509824470E0,-6.328430176E-1,-2.631225586E-1,-3.276672363E-1
4.514798835E0,-6.257934570E-1,-2.460937500E-1,-3.090820312E-1
4.519773200E0,-5.980987549E-1,-2.398681641E-1,-2.941589355E-1
4.524747566E0,-5.657196045E-1,-2.509765625E-1,-2.840118408E-1
4.529721931E0,-5.282287598E-1,-2.934417725E-1,-2.816009521E-1
4.534696296E0,-4.920196533E-1,-3.576354980E-1,-2.906799316E-1
4.539670661E0,-4.621124268E-1,-4.189453125E-1,-3.058166504E-1
4.544645027E0,-4.467620850E-1,-4.648284912E-1,-3.334350586E-1
4.549619392E0,-4.502563477E-1,-5.007019043E-1,-3.778076172E-1
4.554593757E0,-4.635772705E-1,-5.380554199E-1,-4.330902100E-1
4.559568122E0,-4.772033691E-1,-5.740661621E-1,-4.915313721E-1
4.564542488E0,-4.954528809E-1,-5.994110107E-1,-5.413055420E-1
4.569516853E0,-5.069885254E-1,-6.180114746E-1,-5.787506104E-1
4.574491218E0,-5.105438232E-1,-6.387939453E-1,-6.087341309E-1
4.579465583E0,-4.978637695E-1,-6.561431885E-1,-6.334838867E-1
4.584439948E0,-4.745330811E-1,-6.608123779E-1,-6.463623047E-1
4.589414314E0,-4.514465332E-1,-6.518859863E-1,-6.477355957E-1
4.594388679E0,-4.359130859E-1,-6.357879639E-1,-6.383209229E-1
4.599363044E0,-4.312744141E-1,-6.253356934E-1,-6.233062744E-1
4.604337409E0,-4.339141846E-1,-6.343078613E-1,-6.043090820E-1
4.609311775E0,-4.449310303E-1,-6.623840332E-1,-5.800170898E-1
4.614286140E0,-4.667663574E-1,-7.039337158E-1,-5.536651611E-1
4.619260505E0,-4.855346680E-1,-7.547302246E-1,-5.263671875E-1
4.624234870E0,-4.980468750E-1,-8.055877686E-1,-5.009460449E-1
4.629209236E0,-4.998016357E-1,-8.419799805E-1,-4.749603271E-1
4.634183601E0,-4.958038330E-1,-8.531341553E-1,-4.503631592E-1
4.639157966E0,-4.949340820E-1,-8.343505859E-1,-4.241333008E-1
4.644132331E0,-5.031890869E-1,-7.983093262E-1,-4.071350098E-1
4.649106697E0,-5.138702393E-1,-7.679595947E-1,-4.023742676E-1
4.654081062E0,-5.209045410E-1,-7.528381348E-1,-4.101104736E-1
4.659055427E0,-5.233612061E-1,-7.527313232E-1,-4.237823486E-1
4.664029792E0,-5.261230469E-1,-7.515258789E-1,-4.436645508E-1
4.669004157E0,-5.320739746E-1,-7.448425293E-1,-4.606170654E-1
4.673978523E0,-5.380859375E-1,-7.269897461E-1,-4.749145508E-1
4.678952888E0,-5.390167236E-1,-7.075653076E-1,-4.917144775E-1
4.683927253E0,-5.336456299E-1,-6.950531006E-1,-5.159759521E-1
4.688901618E0,-5.327453613E-1,-6.852264404E-1,-5.410919189E-1
4.693875984E0,-5.414886475E-1,-6.668701172E-1,-5.541229248E-1
4.698850349E0,-5.590515137E-1,-6.390533447E-1,-5.573425293E-1
4.703824714E0,-5.778045654E-1,-6.092529297E-1,-5.595245361E-1
4.708799079E0,-5.953826904E-1,-5.834503174E-1,-5.644073486E-1
4.713773445E0,-6.144256592E-1,-5.655975342E-1,-5.688171387E-1
4.718747810E0,-6.338348389E-1,-5.611724854E-1,-5.712432861E-1
4.723722175E0,-6.571655273E-1,-5.676422119E-1,-5.752105713E-1
4.728696540E0,-6.794281006E-1,-5.846405029E-1,-5.742950439E-1
4.733670905E0,-6.994476318E-1,-6.111145020E-1,-5.700988770E-1
4.738645271E0,-7.229461670E-1,-6.375274658E-1,-5.626220703E-1
4.743619636E0,-7.396392822E-1,-6.635284424E-1,-5.523986816E-1
4.748594001E0,-7.514801025E-1,-6.788787842E-1,-5.437469482E-1
4.753568366E0,-7.590637207E-1,-6.923217773E-1,-5.485076904E-1
4.758542732E0,-7.654724121E-1,-6.949310303E-1,-5.693969727E-1
4.763517097E0,-7.661285400E-1,-6.872406006E-1,-5.911560059E-1
4.768491462E0,-7.583160400E-1,-6.717681885E-1,-6.081695557E-1
4.773465827E0,-7.499084473E-1,-6.444549561E-1,-6.172332764E-1
4.778440193E0,-7.351989746E-1,-6.087799072E-1,-6.202697754E-1
4.783414558E0,-7.156219482E-1,-5.689239502E-1,-6.180419922E-1
4.788388923E0,-6.923828125E-1,-5.264129639E-1,-6.132812500E-1
4.793363288E0,-6.622467041E-1,-4.770507812E-1,-6.055603027E-1
4.798337654E0,-6.269073486E-1,-4.200286865E-1,-5.945739746E-1
4.803312019E0,-5.973663330E-1,-3.704528809E-1,-5.799255371E-1
4.808286384E0,-5.829772949E-1,-3.331756592E-1,-5.566558838E-1
4.813260749E0,-5.839996338E-1,-3.032073975E-1,-5.248107910E-1
4.818235114E0,-5.934295654E-1,-2.816162109E-1,-4.879150391E-1
4.823209480E0,-6.028289795E-1,-2.628479004E-1,-4.469604492E-1
4.828183845E0,-6.021118164E-1,-2.539672852E-1,-4.027557373E-1
4.833158210E0,-5.893402100E-1,-2.593994141E-1,-3.566894531E-1
4.838132575E0,-5.704193115E-1,-2.730560303E-1,-3.110351562E-1
4.843106941E0,-5.416412354E-1,-2.884826660E-1,-2.609558105E-1
4.848081306E0,-5.112915039E-1,-3.042297363E-1,-2.090759277E-1
4.853055671E0,-4.763641357E-1,-3.073272705E-1,-1.539306641E-1
4.858030036E0,-4.404296875E-1,-2.932281494E-1,-9.078979492E-2
4.863004402E0,-4.069976807E-1,-2.645263672E-1,-3.070068359E-2
4.867978767E0,-3.715362549E-1,-2.252502441E-1,2.331542969E-2
4.872953132E0,-3.362426758E-1,-1.796264648E-1,6.495666504E-2
4.877927497E0,-2.992401123E-1,-1.394500732E-1,9.451293945E-2
4.882901863E0,-2.591400146E-1,-1.170501709E-1,1.158142090E-1
4.887876228E0,-2.148742676E-1,-1.181488037E-1,1.264343262E-1
4.892850593E0,-1.686096191E-1,-1.519775391E-1,1.286621094E-1
4.897824958E0,-1.142120361E-1,-2.210388184E-1,1.263885498E-1
4.902799323E0,-5.015563965E-2,-3.147888184E-1,1.284179688E-1
4.907773689E0,2.078247070E-2,-4.109039307E-1,1.505279541E-1
4.912748054E0,1.029205322E-1,-4.902496338E-1,2.024841309E-1
4.917722419E0,2.070312500E-1,-5.430145264E-1,2.831878662E-1
4.922696784E0,3.400115967E-1,-5.676116943E-1,3.871002197E-1
4.927671150E0,4.943084717E-1,-5.686798096E-1,5.121459961E-1
4.932645515E0,6.652221680E-1,-5.401916504E-1,6.637420654E-1
4.937619880E0,8.381958008E-1,-4.745483398E-1,8.418884277E-1
4.942594245E0,9.941864014E-1,-4.035644531E-1,1.046096802E0
4.947568611E0,1.113250732E0,-3.449859619E-1,1.253372192E0
4.952542976E0,1.174499512E0,-2.928924561E-1,1.445388794E0
4.957517341E0,1.167587280E0,-2.397918701E-1,1.605621338E0
4.962491706E0,1.083099365E0,-2.243347168E-1,1.716217041E0
4.967466072E0,9.147796631E-1,-2.841796875E-1,1.761657715E0
4.972440437E0,6.879425049E-1,-4.097595215E-1,1.739257812E0
4.977414802E0,4.445800781E-1,-5.393066406E-1,1.658096313E0
4.982389167E0,2.459869385E-1,-6.051635742E-1,1.528778076E0
4.987363532E0,1.434173584E-1,-6.238555908E-1,1.349975586E0
4.992337898E0,1.522064209E-1,-6.538085938E-1,1.141586304E0
4.997312263E0,2.552642822E-1,-7.107391357E-1,9.429168701E-1
5.002286628E0,4.175872803E-1,-7.665710449E-1,7.850036621E-1
5.007260993E0,6.029815674E-1,-7.819519043E-1,6.698303223E-1
5.012235359E0,7.870483398E-1,-7.493743896E-1,5.786743164E-1
5.017209724E0,9.576263428E-1,-6.797485352E-1,4.934997559E-1
5.022184089E0,1.099487305E0,-5.923614502E-1,4.192199707E-1
5.027158454E0,1.212051392E0,-4.880523682E-1,3.622741699E-1
5.032132820E0,1.293609619E0,-3.741149902E-1,3.265380859E-1
5.037107185E0,1.356567383E0,-2.490844727E-1,3.096923828E-1
5.042081550E0,1.401672363E0,-9.701538086E-2,3.061676025E-1
5.047055915E0,1.423995972E0,9.057617188E-2,3.069915771E-1
5.052030280E0,1.413269043E0,2.938385010E-1,3.205413818E-1
5.057004646E0,1.362030029E0,4.754638672E-1,3.476409912E-1
5.061979011E0,1.273620605E0,6.386566162E-1,3.851013184E-1
5.066953376E0,1.150314331E0,7.987976074E-1,4.191284180E-1
5.071927741E0,1.006927490E0,9.494934082E-1,4.489898682E-1
5.076902107E0,8.608551025E-1,1.066040039E0,4.817810059E-1
5.081876472E0,7.144927979E-1,1.128723145E0,5.086212158E-1
5.086850837E0,5.755157471E-1,1.140579224E0,5.169677734E-1
5.091825202E0,4.513702393E-1,1.115783691E0,5.128479004E-1
5.096799568E0,3.555145264E-1,1.066940308E0,5.116729736E-1
5.101773933E0,3.000946045E-1,1.002746582E0,5.234069824E-1
5.106748298E0,2.817077637E-1,9.194793701E-1,5.500488281E-1
5.111722663E0,2.884063721E-1,8.282623291E-1,5.808563232E-1
5.116697029E0,3.045349121E-1,7.614288330E-1,6.054229736E-1
5.121671394E0,3.257751465E-1,7.218017578E-1,6.282958984E-1
5.126645759E0,3.519287109E-1,6.903228760E-1,6.719970703E-1
5.131620124E0,3.766784668E-1,6.499786377E-1,7.481536865E-1
5.136594489E0,3.999023438E-1,6.040802002E-1,8.402557373E-1
5.141568855E0,4.204254150E-1,5.632324219E-1,9.314727783E-1
5.146543220E0,4.419708252E-1,5.363159180E-1,1.012008667E0
5.151517585E0,4.695892334E-1,5.213928223E-1,1.073196411E0
5.156491950E0,5.030364990E-1,5.173492432E-1,1.106719971E0
5.161466316E0,5.411376953E-1,5.284423828E-1,1.121368408E0
5.166440681E0,5.806274414E-1,5.652313232E-1,1.123596191E0
5.171415046E0,6.078033447E-1,6.065368652E-1,1.115249634E0
5.176389411E0,6.210327148E-1,6.370086670E-1,1.095046997E0
5.181363777E0,6.219482422E-1,6.435852051E-1,1.065658569E0
5.186338142E0,6.216583252E-1,6.266937256E-1,1.025787354E0
5.191312507E0,6.286468506E-1,5.984954834E-1,9.757690430E-1
5.196286872E0,6.487731934E-1,5.651092529E-1,9.175567627E-1
5.201261238E0,6.858978271E-1,5.269165039E-1,8.525543213E-1
5.206235603E0,7.397613525E-1,4.730529785E-1,7.781982422E-1
5.211209968E0,8.005371094E-1,4.047546387E-1,6.975860596E-1
5.216184333E0,8.597869873E-1,3.315582275E-1,6.168823242E-1
5.221158698E0,9.069213867E-1,2.537384033E-1,5.405273438E-1
5.226133064E0,9.380187988E-1,1.773376465E-1,4.732208252E-1
5.231107429E0,9.534454346E-1,1.107940674E-1,4.158020020E-1
5.236081794E0,9.511718750E-1,5.697631836E-2,3.645477295E-1
5.241056159E0,9.398193359E-1,2.102661133E-2,3.285980225E-1
5.246030525E0,9.089202881E-1,8.529663086E-3,3.011779785E-1
5.251004890E0,8.771209717E-1,1.445007324E-2,2.776489258E-1
5.255979255E0,8.468475342E-1,3.572082520E-2,2.618103027E-1
5.260953620E0,8.193664551E-1,7.075500488E-2,2.503814697E-1
5.265927986E0,7.901306152E-1,1.149139404E-1,2.362518311E-1
5.270902351E0,7.590942383E-1,1.586914062E-1,2.191009521E-1
5.275876716E0,7.163848877E-1,2.028350830E-1,1.999206543E-1
5.280851081E0,6.592254639E-1,2.441864014E-1,1.809387207E-1
5.285825447E0,5.921020508E-1,2.818145752E-1,1.615447998E-1
5.290799812E0,5.191955566E-1,3.224029541E-1,1.436157227E-1
5.295774177E0,4.474334717E-1,3.620910645E-1,1.263122559E-1
5.300748542E0,3.809204102E-1,3.930511475E-1,1.062774658E-1
5.305722907E0,3.194885254E-1,4.140930176E-1,8.387756348E-2
5.310697273E0,2.667236328E-1,4.273223877E-1,6.488037109E-2
5.315671638E0,2.246551514E-1,4.290161133E-1,4.707336426E-2
5.320646003E0,1.903991699E-1,4.290618896E-1,2.810668945E-2
5.325620368E0,1.593627930E-1,4.281311035E-1,1.361083984E-2
5.330594734E0,1.268920898E-1,4.307098389E-1,2.349853516E-3
5.335569099E0,9.530639648E-2,4.397430420E-1,-1.031494141E-2
5.340543464E0,6.263732910E-2,4.525146484E-1,-1.763916016E-2
5.345517829E0,3.729248047E-2,4.735870361E-1,-2.532958984E-2
5.350492195E0,1.583862305E-2,4.947967529E-1,-3.393554688E-2
5.355466560E0,-6.408691406E-4,5.159759521E-1,-4.476928711E-2
5.360449662E0,-7.095336914E-3,5.361633301E-1,-5.451965332E-2
5.365424027E0,-7.293701172E-3,5.512084961E-1,-6.295776367E-2
5.370398392E0,-2.609252930E-3,5.619354248E-1,-7.386779785E-2
5.375372758E0,7.919311523E-3,5.718231201E-1,-8.523559570E-2
5.380347123E0,2.339172363E-2,5.847320557E-1,-9.542846680E-2
5.385321488E0,4.225158691E-2,5.925903320E-1,-1.035766602E-1
5.390295853E0,6.378173828E-2,5.984039307E-1,-1.116790771E-1
5.395270219E0,8.361816406E-2,6.031951904E-1,-1.197967529E-1
5.400244584E0,1.032867432E-1,6.091613770E-1,-1.304931641E-1
5.405218949E0,1.182250977E-1,6.150054932E-1,-1.420288086E-1
5.410193314E0,1.259307861E-1,6.231536865E-1,-1.557464600E-1
5.415167680E0,1.293945312E-1,6.336669922E-1,-1.695404053E-1
5.420142045E0,1.329345703E-1,6.426239014E-1,-1.844635010E-1
5.425116410E0,1.326141357E-1,6.514739990E-1,-1.983337402E-1
5.430090775E0,1.362915039E-1,6.593780518E-1,-2.112731934E-1
5.435065141E0,1.401977539E-1,6.664581299E-1,-2.188262939E-1
5.440039506E0,1.391754150E-1,6.778106689E-1,-2.289428711E-1
5.445013871E0,1.332550049E-1,6.967315674E-1,-2.357635498E-1
5.449988236E0,1.244049072E-1,7.217407227E-1,-2.376251221E-1
5.454962601E0,1.118621826E-1,7.465972900E-1,-2.387237549E-1
5.459936967E0,1.050720215E-1,7.749328613E-1,-2.378692627E-1
5.464911332E0,9.913635254E-2,8.093566895E-1,-2.344512939E-1
5.469885697E0,9.419250488E-2,8.530426025E-1,-2.344512939E-1
5.474860062E0,9.291076660E-2,9.014587402E-1,-2.348632812E-1
5.479834428E0,9.138488770E-2,9.471893311E-1,-2.378540039E-1
5.484808793E0,9.001159668E-2,9.815063477E-1,-2.458496094E-1
5.489783158E0,8.694458008E-2,9.939270020E-1,-2.600402832E-1
5.494757523E0,7.920837402E-2,9.760742188E-1,-2.822265625E-1
5.499731889E0,6.414794922E-2,9.246215820E-1,-3.121948242E-1
5.504706254E0,3.579711914E-2,8.420104980E-1,-3.488922119E-1
5.509680619E0,-7.400512695E-3,7.350769043E-1,-3.836669922E-1
5.514654984E0,-5.911254883E-2,6.137084961E-1,-4.104919434E-1
5.519629350E0,-1.100158691E-1,4.871368408E-1,-4.252014160E-1
5.524603715E0,-1.508331299E-1,3.790435791E-1,-4.290313721E-1
5.529578080E0,-1.690063477E-1,2.941436768E-1,-4.249420166E-1
5.534552445E0,-1.722717285E-1,2.229003906E-1,-4.186706543E-1
5.539526810E0,-1.693420410E-1,1.389312744E-1,-4.189147949E-1
5.544501176E0,-1.756744385E-1,3.765869141E-2,-4.229431152E-1
5.549475541E0,-1.959533691E-1,-7.461547852E-2,-4.318084717E-1
5.554449906E0,-2.211456299E-1,-1.761169434E-1,-4.450225830E-1
5.559424271E0,-2.400207520E-1,-2.501983643E-1,-4.444427490E-1
5.564398637E0,-2.402801514E-1,-2.848815918E-1,-4.223632812E-1
5.569373002E0,-2.211456299E-1,-2.864532471E-1,-3.823242188E-1
5.574347367E0,-1.974029541E-1,-2.781219482E-1,-3.383636475E-1
5.579321732E0,-1.693878174E-1,-2.677764893E-1,-2.996673584E-1
5.584296098E0,-1.361999512E-1,-2.546081543E-1,-2.613220215E-1
5.589270463E0,-1.047973633E-1,-2.398529053E-1,-2.228698730E-1
5.594244828E0,-9.169006348E-2,-2.329864502E-1,-1.886138916E-1
5.599219193E0,-1.016540527E-1,-2.427825928E-1,-1.635742188E-1
5.604193559E0,-1.288146973E-1,-2.710266113E-1,-1.481933594E-1
5.609167924E0,-1.615142822E-1,-3.130187988E-1,-1.398162842E-1
5.614142289E0,-1.856689453E-1,-3.577270508E-1,-1.374664307E-1
5.619116654E0,-1.984100342E-1,-3.888397217E-1,-1.421356201E-1
5.624091019E0,-2.035522461E-1,-4.168090820E-1,-1.700592041E-1
5.629065385E0,-2.025146484E-1,-4.363861084E-1,-2.181549072E-1
5.634039750E0,-1.965637207E-1,-4.388275146E-1,-2.763824463E-1
5.639014115E0,-1.956024170E-1,-4.091186523E-1,-3.336639404E-1
5.643988480E0,-1.977996826E-1,-3.531799316E-1,-3.863677979E-1
5.648962846E0,-2.093505859E-1,-2.831726074E-1,-4.304504395E-1
5.653937211E0,-2.332611084E-1,-2.243347168E-1,-4.650268555E-1
5.658911576E0,-2.488403320E-1,-1.981353760E-1,-4.982147217E-1
5.663885941E0,-2.543640137E-1,-2.118530273E-1,-5.285491943E-1
5.668860307E0,-2.399139404E-1,-2.728424072E-1,-5.597381592E-1
5.673834672E0,-2.200927734E-1,-3.659515381E-1,-5.882568359E-1
5.678809037E0,-2.021942139E-1,-4.520874023E-1,-6.008605957E-1
5.683783402E0,-2.021026611E-1,-4.962310791E-1,-5.898284912E-1
5.688757767E0,-2.297058105E-1,-4.805297852E-1,-5.633544922E-1
5.693732133E0,-2.805023193E-1,-4.239196777E-1,-5.358734131E-1
5.698706498E0,-3.445281982E-1,-3.615264893E-1,-5.152740479E-1
5.703680863E0,-4.117126465E-1,-3.119354248E-1,-4.993591309E-1
5.708655228E0,-4.707031250E-1,-2.853393555E-1,-4.856262207E-1
5.713629594E0,-5.157928467E-1,-2.701263428E-1,-4.714813232E-1
5.718603959E0,-5.448150635E-1,-2.670745850E-1,-4.586639404E-1
5.723578324E0,-5.621948242E-1,-2.851409912E-1,-4.515838623E-1
5.728552689E0,-5.732574463E-1,-3.168640137E-1,-4.479675293E-1
5.733527055E0,-5.874786377E-1,-3.535156250E-1,-4.510650635E-1
5.738501420E0,-6.094665527E-1,-3.907623291E-1,-4.591369629E-1
5.743475785E0,-6.278533936E-1,-4.275512695E-1,-4.669494629E-1
5.748450150E0,-6.361694336E-1,-4.684753418E-1,-4.771118164E-1
5.753424516E0,-6.218109131E-1,-5.066986084E-1,-4.860534668E-1
5.758398881E0,-5.948028564E-1,-5.387268066E-1,-4.937896729E-1
5.763373246E0,-5.595550537E-1,-5.617980957E-1,-4.954223633E-1
5.768347611E0,-5.302124023E-1,-5.736236572E-1,-4.964294434E-1
5.773321976E0,-5.114135742E-1,-5.783538818E-1,-4.960937500E-1
5.778296342E0,-4.993133545E-1,-5.797424316E-1,-4.912109375E-1
5.783270707E0,-4.984283447E-1,-5.806884766E-1,-4.877624512E-1
5.788245072E0,-5.072326660E-1,-5.847625732E-1,-4.829101562E-1
5.793219437E0,-5.178070068E-1,-5.869750977E-1,-4.778137207E-1
5.798193803E0,-5.280761719E-1,-5.905914307E-1,-4.762420654E-1
5.803168168E0,-5.386962891E-1,-5.999298096E-1,-4.745788574E-1
5.808142533E0,-5.425567627E-1,-6.182861328E-1,-4.739074707E-1
5.813116898E0,-5.376739502E-1,-6.470031738E-1,-4.779052734E-1
5.818091264E0,-5.234527588E-1,-6.842041016E-1,-4.817810059E-1
5.823065629E0,-5.048065186E-1,-7.221832275E-1,-4.819488525E-1
5.828039994E0,-4.941253662E-1,-7.600402832E-1,-4.834594727E-1
5.833014359E0,-4.879760742E-1,-7.865905762E-1,-4.825439453E-1
5.837988725E0,-4.863891602E-1,-8.032531738E-1,-4.800720215E-1
5.842963090E0,-4.897613525E-1,-8.049163818E-1,-4.656677246E-1
5.847937455E0,-5.046997070E-1,-7.847442627E-1,-4.540100098E-1
5.852911820E0,-5.296783447E-1,-7.538909912E-1,-4.421844482E-1
5.857886185E0,-5.543823242E-1,-7.284545898E-1,-4.386901855E-1
5.862860551E0,-5.796356201E-1,-7.102661133E-1,-4.396972656E-1
5.867834916E0,-6.009674072E-1,-7.059478760E-1,-4.391784668E-1
5.872809281E0,-6.212768555E-1,-7.153015137E-1,-4.378662109E-1
5.877783646E0,-6.435852051E-1,-7.334289551E-1,-4.371643066E-1
5.882758012E0,-6.686859131E-1,-7.478485107E-1,-4.352416992E-1
5.887732377E0,-6.979370117E-1,-7.560882568E-1,-4.327392578E-1
5.892706742E0,-7.226104736E-1,-7.647705078E-1,-4.301757812E-1
5.897681107E0,-7.339782715E-1,-7.794647217E-1,-4.342498779E-1
5.902655473E0,-7.372131348E-1,-7.963867188E-1,-4.508514404E-1
5.907629838E0,-7.349395752E-1,-8.110198975E-1,-4.693908691E-1
5.912604203E0,-7.319793701E-1,-8.280792236E-1,-4.838714600E-1
5.917578568E0,-7.289428711E-1,-8.428344727E-1,-4.944458008E-1
5.922552934E0,-7.217102051E-1,-8.512573242E-1,-5.025482178E-1
5.927527299E0,-7.144317627E-1,-8.551025391E-1,-5.113372803E-1
5.932501664E0,-7.153167725E-1,-8.390197754E-1,-5.299835205E-1
5.937476029E0,-7.225799561E-1,-8.050231934E-1,-5.569152832E-1
5.942450394E0,-7.308807373E-1,-7.654266357E-1,-5.831298828E-1
5.947424760E0,-7.373504639E-1,-7.313232422E-1,-6.030883789E-1
5.952399125E0,-7.436981201E-1,-7.133331299E-1,-6.231536865E-1
5.957373490E0,-7.439117432E-1,-7.016143799E-1,-6.389160156E-1
5.962347855E0,-7.371215820E-1,-7.003326416E-1,-6.492462158E-1
5.967322221E0,-7.244567871E-1,-7.076263428E-1,-6.546783447E-1
5.972296586E0,-7.129058838E-1,-7.175598145E-1,-6.575775146E-1
5.977270951E0,-7.014770508E-1,-7.214660645E-1,-6.551055908E-1
5.982245316E0,-6.905822754E-1,-7.210693359E-1,-6.469879150E-1
5.987219682E0,-6.849975586E-1,-7.176055908E-1,-6.343078613E-1
5.992194047E0,-6.789093018E-1,-7.054443359E-1,-6.141357422E-1
5.997168412E0,-6.688079834E-1,-6.845397949E-1,-5.850067139E-1
6.002142777E0,-6.572418213E-1,-6.620483398E-1,-5.523834229E-1
6.007117142E0,-6.469573975E-1,-6.499786377E-1,-5.178680420E-1
6.012091508E0,-6.377868652E-1,-6.464691162E-1,-4.799652100E-1
6.017065873E0,-6.311645508E-1,-6.473693848E-1,-4.450378418E-1
6.022040238E0,-6.248779297E-1,-6.452484131E-1,-4.141387939E-1
6.027014603E0,-6.174163818E-1,-6.404724121E-1,-3.830566406E-1
6.031988969E0,-6.074676514E-1,-6.234893799E-1,-3.487854004E-1
6.036963334E0,-5.989685059E-1,-5.995178223E-1,-3.123016357E-1
6.041937699E0,-5.937347412E-1,-5.692443848E-1,-2.738800049E-1
6.046912064E0,-5.876464844E-1,-5.296478271E-1,-2.381134033E-1
6.051886430E0,-5.769500732E-1,-4.799957275E-1,-2.028198242E-1
6.056860795E0,-5.666809082E-1,-4.237365723E-1,-1.751861572E-1
6.061835160E0,-5.466461182E-1,-3.675231934E-1,-1.611785889E-1
6.066809525E0,-5.108184814E-1,-3.202362061E-1,-1.506500244E-1
6.071783891E0,-4.650115967E-1,-2.827148438E-1,-1.431274414E-1
6.076758256E0,-4.115600586E-1,-2.647552490E-1,-1.351623535E-1
6.081732621E0,-3.507080078E-1,-2.734222412E-1,-1.204681396E-1
6.086706986E0,-2.826538086E-1,-2.934722900E-1,-8.529663086E-2
6.091681351E0,-2.100524902E-1,-2.793121338E-1,-2.255249023E-2
6.096655717E0,-1.239318848E-1,-2.466888428E-1,5.369567871E-2
6.101630082E0,8.666992188E-3,-2.930145264E-1,1.164703369E-1
6.106604447E0,1.841888428E-1,-3.696899414E-1,1.755065918E-1
6.111578812E0,3.739776611E-1,-3.920898438E-1,2.524719238E-1
6.116553178E0,5.536804199E-1,-3.642883301E-1,3.416137695E-1
6.121527543E0,6.988525391E-1,-3.179779053E-1,4.323883057E-1
6.126501908E0,8.034210205E-1,-2.539062500E-1,5.145263672E-1
6.131476273E0,8.618927002E-1,-1.461639404E-1,5.897827148E-1
6.136450639E0,8.678741455E-1,2.410888672E-3,6.713867188E-1
6.141425004E0,8.400421143E-1,1.444396973E-1,7.597808838E-1
6.146399369E0,8.084411621E-1,2.342224121E-1,8.364868164E-1
6.151373734E0,7.859497070E-1,2.453765869E-1,8.941497803E-1
6.156348100E0,7.733306885E-1,1.921386719E-1,9.204864502E-1
6.161322465E0,7.572479248E-1,1.143951416E-1,9.187622070E-1
6.166296830E0,7.397460938E-1,2.796936035E-2,8.970642090E-1
6.171271195E0,7.296752930E-1,-6.364440918E-2,8.657226562E-1
6.176245560E0,7.380828857E-1,-1.615295410E-1,8.330841064E-1
6.181219926E0,7.741241455E-1,-2.578277588E-1,8.033599854E-1
6.186194291E0,8.318328857E-1,-3.442230225E-1,7.825622559E-1
6.191168656E0,8.927459717E-1,-4.158020020E-1,7.725219727E-1
6.196143021E0,9.391326904E-1,-4.672546387E-1,7.745513916E-1
6.201117387E0,9.595336914E-1,-5.048980713E-1,7.833709717E-1
6.206091752E0,9.544830322E-1,-5.302429199E-1,8.003234863E-1
6.211066117E0,9.325714111E-1,-5.335540771E-1,8.240356445E-1
6.216040482E0,9.011688232E-1,-5.099945068E-1,8.555603027E-1
6.221014848E0,8.682556152E-1,-4.672546387E-1,8.905944824E-1
6.225989213E0,8.434143066E-1,-4.125518799E-1,9.264678955E-1
6.230963578E0,8.265380859E-1,-3.368530273E-1,9.422149658E-1
6.235937943E0,8.122558594E-1,-2.444000244E-1,9.304046631E-1
6.240912309E0,8.005981445E-1,-1.406555176E-1,8.918762207E-1
6.245886674E0,7.909240723E-1,-3.280639648E-2,8.320159912E-1
6.250861039E0,7.901458740E-1,8.528137207E-2,7.594757080E-1
6.255835404E0,7.878112793E-1,2.170715332E-1,6.756286621E-1
6.260809769E0,7.799377441E-1,3.649749756E-1,5.784912109E-1
6.265784135E0,7.549285889E-1,5.131072998E-1,4.837188721E-1
6.270758500E0,7.162017822E-1,6.420898438E-1,4.160461426E-1
6.275732865E0,6.690063477E-1,7.628326416E-1,3.888702393E-1
6.280707230E0,6.193695068E-1,8.853454590E-1,4.023590088E-1
6.285681596E0,5.714263916E-1,1.009643555E0,4.404602051E-1
6.290655961E0,5.192413330E-1,1.116333008E0,4.862060547E-1
6.295630326E0,4.631347656E-1,1.189682007E0,5.323638916E-1
6.300604691E0,4.059143066E-1,1.230377197E0,5.739746094E-1
6.305579057E0,3.538665771E-1,1.244644165E0,6.097717285E-1
6.310553422E0,3.073425293E-1,1.242187500E0,6.398468018E-1
6.315527787E0,2.730712891E-1,1.236694336E0,6.667175293E-1
6.320502152E0,2.508392334E-1,1.221618652E0,6.950378418E-1
6.325476517E0,2.409820557E-1,1.204254150E0,7.348175049E-1
6.330450883E0,2.432861328E-1,1.185806274E0,7.738494873E-1
6.335425248E0,2.694549561E-1,1.175399780E0,7.982940674E-1
6.340399613E0,3.152313232E-1,1.166229248E0,8.140258789E-1
6.345373978E0,3.777923584E-1,1.142150879E0,8.326416016E-1
6.350348344E0,4.512329102E-1,1.086105347E0,8.515014648E-1
6.355322709E0,5.246582031E-1,1.005096436E0,8.544006348E-1
6.360297074E0,5.954742432E-1,9.069976807E-1,8.480072021E-1
6.365271439E0,6.646118164E-1,8.033294678E-1,8.426666260E-1
6.370245805E0,7.247619629E-1,7.039337158E-1,8.433380127E-1
6.375220170E0,7.706756592E-1,6.026611328E-1,8.533935547E-1
6.380194535E0,8.037872314E-1,5.048065186E-1,8.671875000E-1
6.385168900E0,8.245086670E-1,4.111022949E-1,8.705749512E-1
6.390143266E0,8.398742676E-1,3.256988525E-1,8.564910889E-1
6.395117631E0,8.561859131E-1,2.529754639E-1,8.267211914E-1
6.400091996E0,8.747711182E-1,1.968078613E-1,7.911987305E-1
6.405066361E0,9.060821533E-1,1.536407471E-1,7.578582764E-1
6.410040726E0,9.538574219E-1,1.110229492E-1,7.257385254E-1
6.415015092E0,1.011795044E0,6.661987305E-2,6.923980713E-1
6.419989457E0,1.074523926E0,2.758789062E-2,6.554718018E-1
6.424963822E0,1.132400513E0,4.379272461E-3,6.154937744E-1
6.429938187E0,1.171829224E0,4.867553711E-3,5.728149414E-1
6.434912553E0,1.188613892E0,2.565002441E-2,5.256805420E-1
6.439886918E0,1.178863525E0,7.243347168E-2,4.833221436E-1
6.444861283E0,1.139770508E0,1.276702881E-1,4.379882812E-1
6.449835648E0,1.089721680E0,1.822662354E-1,3.981323242E-1
6.454810014E0,1.033874512E0,2.309112549E-1,3.576049805E-1
6.459784379E0,9.761810303E-1,2.787780762E-1,3.149719238E-1
6.464758744E0,9.188537598E-1,3.194274902E-1,2.729644775E-1
6.469733109E0,8.624267578E-1,3.579864502E-1,2.345733643E-1
6.474707475E0,8.088989258E-1,3.927459717E-1,1.930084229E-1
6.479681840E0,7.538146973E-1,4.236755371E-1,1.550445557E-1
6.484656205E0,6.946105957E-1,4.557952881E-1,1.182403564E-1
6.489630570E0,6.260223389E-1,4.899597168E-1,8.105468750E-2
6.494604935E0,5.447082520E-1,5.271301270E-1,4.891967773E-2
6.499579301E0,4.574127197E-1,5.621032715E-1,2.688598633E-2
6.504553666E0,3.718872070E-1,5.952606201E-1,5.554199219E-3
6.509528031E0,2.959899902E-1,6.233978271E-1,-1.896667480E-2
6.514502396E0,2.319488525E-1,6.485900879E-1,-3.802490234E-2
6.519476762E0,1.733703613E-1,6.731567383E-1,-4.788208008E-2
6.524451127E0,1.285552979E-1,6.876831055E-1,-5.612182617E-2
6.529425492E0,9.141540527E-2,6.965332031E-1,-6.222534180E-2
6.534399857E0,6.524658203E-2,6.805419922E-1,-6.047058105E-2
6.539374223E0,4.753112793E-2,6.613159180E-1,-5.241394043E-2
6.544348588E0,2.809143066E-2,6.376953125E-1,-3.886413574E-2
6.549322953E0,1.765441895E-2,5.993804932E-1,-2.217102051E-2
6.554297318E0,1.893615723E-2,5.569610596E-1,-6.195068359E-3
6.559271684E0,2.491760254E-2,5.164489746E-1,4.516601562E-3
6.564246049E0,3.553771973E-2,4.869842529E-1,1.004028320E-2
6.569220414E0,4.968261719E-2,4.733276367E-1,7.064819336E-3
6.574194779E0,6.190490723E-2,4.797210693E-1,-7.263183594E-3
6.579169144E0,6.925964355E-2,5.022735596E-1,-2.778625488E-2
6.584143510E0,7.392883301E-2,5.364379883E-1,-5.282592773E-2
6.589117875E0,7.745361328E-2,5.820465088E-1,-8.041381836E-2
6.594092240E0,7.995605469E-2,6.374206543E-1,-1.103515625E-1
6.599066605E0,8.233642578E-2,6.952972412E-1,-1.398925781E-1
6.604040971E0,8.947753906E-2,7.521820068E-1,-1.692810059E-1
6.609015336E0,9.954833984E-2,8.087158203E-1,-1.973419189E-1
6.613989701E0,1.130218506E-1,8.515319824E-1,-2.261505127E-1
6.618964066E0,1.282043457E-1,8.764801025E-1,-2.560424805E-1
6.623938432E0,1.487731934E-1,8.847351074E-1,-2.830963135E-1
6.628912797E0,1.700592041E-1,8.772735596E-1,-3.034210205E-1
6.633887162E0,1.871032715E-1,8.573303223E-1,-3.150787354E-1
6.638861527E0,1.970825195E-1,8.308410645E-1,-3.217163086E-1
6.643835892E0,2.007598877E-1,8.029632568E-1,-3.285827637E-1
6.648810258E0,1.973724365E-1,7.844390869E-1,-3.308410645E-1
6.653784623E0,1.849975586E-1,7.692565918E-1,-3.358459473E-1
6.658758988E0,1.705474854E-1,7.694702148E-1,-3.352661133E-1
6.663733353E0,1.518554688E-1,7.792968750E-1,-3.307495117E-1
6.668707719E0,1.365661621E-1,8.012237549E-1,-3.221130371E-1
6.673682084E0,1.289825439E-1,8.346405029E-1,-3.127593994E-1
6.678656449E0,1.324615479E-1,8.789367676E-1,-2.997283936E-1
6.683630814E0,1.464385986E-1,9.258270264E-1,-2.878417969E-1
6.688605180E0,1.691741943E-1,9.715270996E-1,-2.814941406E-1
6.693579545E0,1.954956055E-1,1.008804321E0,-2.818908691E-1
6.698553910E0,2.239685059E-1,1.031295776E0,-2.876129150E-1
6.703528275E0,2.475585938E-1,1.032531738E0,-2.918090820E-1
6.708502641E0,2.625732422E-1,1.002853394E0,-2.933044434E-1
6.713477006E0,2.689056396E-1,9.424896240E-1,-2.937011719E-1
6.718451371E0,2.631530762E-1,8.627014160E-1,-2.956085205E-1
6.723425736E0,2.439117432E-1,7.689361572E-1,-3.012695312E-1
6.728400101E0,2.167816162E-1,6.633758545E-1,-3.098144531E-1
6.733374467E0,1.822509766E-1,5.526580811E-1,-3.233795166E-1
6.738348832E0,1.439056396E-1,4.457550049E-1,-3.375091553E-1
6.743323197E0,9.541320801E-2,3.520965576E-1,-3.496398926E-1
6.748297562E0,5.194091797E-2,2.848815918E-1,-3.586120605E-1
6.753271928E0,7.598876953E-3,2.492828369E-1,-3.582153320E-1
6.758246293E0,-3.511047363E-2,2.419891357E-1,-3.371276855E-1
6.763220658E0,-6.994628906E-2,2.292938232E-1,-2.915496826E-1
6.768195023E0,-1.028594971E-1,1.966094971E-1,-2.423858643E-1
6.773169389E0,-1.329345703E-1,1.372070312E-1,-1.979217529E-1
6.778143754E0,-1.555480957E-1,3.836059570E-2,-1.659240723E-1
6.783118119E0,-1.696472168E-1,-8.821105957E-2,-1.449432373E-1
6.788092484E0,-1.751098633E-1,-2.244567871E-1,-1.274566650E-1
6.793066850E0,-1.741180420E-1,-3.671569824E-1,-1.172637939E-1
6.798041215E0,-1.712036133E-1,-5.196533203E-1,-1.165008545E-1
6.803015580E0,-1.741943359E-1,-6.684112549E-1,-1.259002686E-1
6.807989945E0,-1.887664795E-1,-7.967681885E-1,-1.460418701E-1
6.812964310E0,-2.078552246E-1,-8.930816650E-1,-1.819458008E-1
6.817938676E0,-2.242279053E-1,-9.402160645E-1,-2.264251709E-1
6.822913041E0,-2.385559082E-1,-9.135131836E-1,-2.743377686E-1
6.827887406E0,-2.521362305E-1,-7.896118164E-1,-3.312225342E-1
6.832861771E0,-2.553405762E-1,-6.216430664E-1,-3.925476074E-1
6.837836137E0,-2.361602783E-1,-4.899139404E-1,-4.572143555E-1
6.842810502E0,-1.889038086E-1,-4.205322266E-1,-5.090179443E-1
6.847784867E0,-1.307525635E-1,-3.796386719E-1,-5.360107422E-1
6.852759232E0,-8.982849121E-2,-3.218383789E-1,-5.307922363E-1
6.857733598E0,-9.600830078E-2,-2.354125977E-1,-5.068817139E-1
6.862707963E0,-1.341400146E-1,-1.724700928E-1,-4.789733887E-1
6.867682328E0,-1.722412109E-1,-1.814117432E-1,-4.478607178E-1
6.872656693E0,-2.013397217E-1,-2.411041260E-1,-4.098663330E-1
6.877631059E0,-2.160339355E-1,-3.275451660E-1,-3.639373779E-1
6.882605424E0,-2.217864990E-1,-4.116210938E-1,-3.132324219E-1
6.887579789E0,-2.328948975E-1,-4.614105225E-1,-2.635650635E-1
6.892554154E0,-2.567749023E-1,-4.648895264E-1,-2.186279297E-1
6.897528519E0,-2.932739258E-1,-4.392700195E-1,-1.800231934E-1
6.902502885E0,-3.364715576E-1,-4.125213623E-1,-1.467132568E-1
6.907477250E0,-3.782958984E-1,-4.059143066E-1,-1.208496094E-1
6.912451615E0,-4.109954834E-1,-4.203186035E-1,-1.123199463E-1
6.917425980E0,-4.370422363E-1,-4.386901855E-1,-1.206665039E-1
6.922400346E0,-4.701232910E-1,-4.455566406E-1,-1.464691162E-1
6.927374711E0,-5.097503662E-1,-4.499359131E-1,-1.899566650E-1
6.932349076E0,-5.437774658E-1,-4.690856934E-1,-2.432708740E-1
6.937323441E0,-5.634918213E-1,-4.831237793E-1,-3.043975830E-1
6.942297807E0,-5.636444092E-1,-4.844818115E-1,-3.743743896E-1
6.947272172E0,-5.505523682E-1,-4.755096436E-1,-4.509735107E-1
6.952246537E0,-5.251464844E-1,-4.479827881E-1,-5.199737549E-1
6.957220902E0,-4.930267334E-1,-3.983154297E-1,-5.769348145E-1
6.962195267E0,-4.719238281E-1,-3.439941406E-1,-6.155700684E-1
6.967169633E0,-4.575653076E-1,-3.181610107E-1,-6.370086670E-1
6.972143998E0,-4.523162842E-1,-3.126068115E-1,-6.516113281E-1
6.977118363E0,-4.604644775E-1,-3.132476807E-1,-6.535034180E-1
6.982092728E0,-4.807128906E-1,-3.146820068E-1,-6.454925537E-1
6.987067094E0,-5.141143799E-1,-3.172302246E-1,-6.344909668E-1
6.992041459E0,-5.522155762E-1,-3.194732666E-1,-6.226501465E-1
6.997015824E0,-5.856781006E-1,-3.182525635E-1,-6.078186035E-1
7.001990189E0,-6.149749756E-1,-3.143920898E-1,-5.904846191E-1
7.006964555E0,-6.336669922E-1,-3.105468750E-1,-5.665893555E-1
7.011938920E0,-6.466827393E-1,-3.120117188E-1,-5.379028320E-1
7.016913285E0,-6.590728760E-1,-3.125610352E-1,-5.130767822E-1
7.021887650E0,-6.707611084E-1,-3.053436279E-1,-4.944915771E-1
7.026862016E0,-6.849212646E-1,-2.868194580E-1,-4.836273193E-1
7.031836381E0,-7.058868408E-1,-2.612152100E-1,-4.818878174E-1
7.036810746E0,-7.289276123E-1,-2.324829102E-1,-4.818420410E-1
7.041785111E0,-7.589263916E-1,-2.070159912E-1,-4.849090576E-1
7.046759476E0,-7.884979248E-1,-1.936492920E-1,-4.850769043E-1
7.051733842E0,-8.207397461E-1,-1.822967529E-1,-4.874877930E-1
7.056708207E0,-8.477478027E-1,-1.830444336E-1,-4.890899658E-1
7.061682572E0,-8.667602539E-1,-1.890258789E-1,-4.921569824E-1
7.066656937E0,-8.773803711E-1,-2.050170898E-1,-4.943847656E-1
7.071631303E0,-8.807373047E-1,-2.366790771E-1,-4.952850342E-1
7.076605668E0,-8.913574219E-1,-2.713775635E-1,-4.904785156E-1
7.081580033E0,-9.105682373E-1,-2.968444824E-1,-4.770355225E-1
7.086554398E0,-9.215240479E-1,-3.196411133E-1,-4.716339111E-1
7.091528764E0,-9.215393066E-1,-3.443756104E-1,-4.818878174E-1
7.096503129E0,-9.176330566E-1,-3.597259521E-1,-4.968872070E-1
7.101477494E0,-9.104919434E-1,-3.615875244E-1,-5.158996582E-1
7.106451859E0,-8.978271484E-1,-3.639526367E-1,-5.387420654E-1
7.111426225E0,-8.759918213E-1,-3.743896484E-1,-5.601043701E-1
7.116400590E0,-8.473052979E-1,-3.885803223E-1,-5.796203613E-1
7.121374955E0,-8.086395264E-1,-4.018402100E-1,-5.983734131E-1
7.126349320E0,-7.611389160E-1,-4.178771973E-1,-6.196594238E-1
7.131323685E0,-7.061157227E-1,-4.548645020E-1,-6.330566406E-1
7.136298051E0,-6.564636230E-1,-4.980010986E-1,-6.457672119E-1
7.141272416E0,-6.116638184E-1,-5.340728760E-1,-6.547393799E-1
7.146246781E0,-5.823669434E-1,-5.619964600E-1,-6.560211182E-1
7.151221146E0,-5.576629639E-1,-5.848693848E-1,-6.560363770E-1
7.156195512E0,-5.421447754E-1,-6.054534912E-1,-6.454467773E-1
7.161169877E0,-5.378723145E-1,-6.234283447E-1,-6.281738281E-1
7.166144242E0,-5.440521240E-1,-6.409301758E-1,-6.054992676E-1
7.171118607E0,-5.566711426E-1,-6.575469971E-1,-5.802917480E-1
7.176092973E0,-5.719604492E-1,-6.741027832E-1,-5.508880615E-1
7.181067338E0,-5.949554443E-1,-6.861877441E-1,-5.122222900E-1
7.186041703E0,-6.206665039E-1,-6.948852539E-1,-4.675903320E-1
7.191016068E0,-6.443634033E-1,-7.019500732E-1,-4.170379639E-1
7.195990434E0,-6.602478027E-1,-7.063293457E-1,-3.614501953E-1
7.200964799E0,-6.651153564E-1,-7.125701904E-1,-3.009796143E-1
7.205939164E0,-6.653442383E-1,-7.269897461E-1,-2.380981445E-1
7.210913529E0,-6.670837402E-1,-7.461700439E-1,-1.770782471E-1
7.215887894E0,-6.645355225E-1,-7.609252930E-1,-1.251831055E-1
7.220862260E0,-6.615295410E-1,-7.643432617E-1,-8.927917480E-2
7.225836625E0,-6.499786377E-1,-7.607574463E-1,-7.246398926E-2
7.230810990E0,-6.326751709E-1,-7.535095215E-1,-4.626464844E-2
7.235785355E0,-6.170501709E-1,-7.287750244E-1,-5.691528320E-3
7.240759721E0,-5.984649658E-1,-6.834564209E-1,2.670288086E-2
7.245734086E0,-5.745544434E-1,-6.038513184E-1,5.145263672E-2
7.250708451E0,-5.476989746E-1,-5.149383545E-1,6.047058105E-2
7.255682816E0,-5.142517090E-1,-4.266357422E-1,5.879211426E-2
7.260657182E0,-4.764709473E-1,-3.551177979E-1,5.427551270E-2
7.265631547E0,-4.368591309E-1,-3.067016602E-1,4.611206055E-2
7.270605912E0,-3.990020752E-1,-2.823181152E-1,3.497314453E-2
7.275580277E0,-3.641052246E-1,-2.740478516E-1,2.601623535E-2
7.280554642E0,-3.305511475E-1,-2.738647461E-1,2.287292480E-2
7.285529008E0,-2.925262451E-1,-2.794799805E-1,2.958679199E-2
7.290503373E0,-2.352600098E-1,-2.830810547E-1,4.861450195E-2
7.295477738E0,-1.508789062E-1,-2.817230225E-1,9.454345703E-2
7.300452103E0,-4.743957520E-2,-2.694854736E-1,1.813507080E-1
7.305426469E0,6.471252441E-2,-2.450408936E-1,3.052673340E-1
7.310400834E0,1.855621338E-1,-2.174072266E-1,4.544525146E-1
7.315375199E0,3.197784424E-1,-1.828155518E-1,6.173553467E-1
7.320349564E0,4.685516357E-1,-1.368560791E-1,7.921295166E-1
7.325323930E0,6.196899414E-1,-8.914184570E-2,9.699859619E-1
7.330298295E0,7.445526123E-1,-4.772949219E-2,1.130157471E0
7.335272660E0,8.336029053E-1,-2.136230469E-4,1.269912720E0
7.340247025E0,8.839721680E-1,6.558227539E-2,1.391647339E0
7.345221391E0,9.086303711E-1,1.465759277E-1,1.482772827E0
7.350195756E0,9.265441895E-1,2.252655029E-1,1.535552979E0
7.355170121E0,9.450531006E-1,2.750701904E-1,1.553146362E0
7.360144486E0,9.716033936E-1,3.024139404E-1,1.551528931E0
7.365118851E0,1.005966187E0,3.437957764E-1,1.532669067E0
7.370093217E0,1.042282104E0,4.372253418E-1,1.489028931E0
7.375067582E0,1.077789307E0,5.776214600E-1,1.411529541E0
7.380041947E0,1.120651245E0,7.129821777E-1,1.283157349E0
7.385016312E0,1.176635742E0,7.733001709E-1,1.099899292E0
7.389990678E0,1.252990723E0,7.524261475E-1,8.903198242E-1
7.394965043E0,1.343643188E0,6.734466553E-1,6.857299805E-1
7.399939408E0,1.427841187E0,5.603790283E-1,5.133972168E-1
7.404913773E0,1.489181519E0,4.507904053E-1,4.009552002E-1
7.409888139E0,1.505233765E0,3.785552979E-1,3.675537109E-1
7.414862504E0,1.457015991E0,3.528747559E-1,4.051666260E-1
7.419836869E0,1.355819702E0,3.546905518E-1,4.800262451E-1
7.424811234E0,1.235641479E0,3.621520996E-1,5.462951660E-1
7.429785600E0,1.135818481E0,3.626403809E-1,6.031494141E-1
7.434759965E0,1.075027466E0,3.491668701E-1,6.493682861E-1
7.439734330E0,1.060501099E0,3.184051514E-1,6.739349365E-1
7.444708695E0,1.085510254E0,2.851257324E-1,6.757049561E-1
7.449683060E0,1.133590698E0,2.674255371E-1,6.505126953E-1
7.454657426E0,1.197479248E0,2.742919922E-1,6.040191650E-1
7.459631791E0,1.258178711E0,3.216705322E-1,5.345458984E-1
7.464606156E0,1.297149658E0,4.142303467E-1,4.598083496E-1
7.469580521E0,1.304153442E0,5.560913086E-1,3.886718750E-1
7.474554887E0,1.281600952E0,7.405700684E-1,3.246765137E-1
7.479529252E0,1.248550415E0,9.389648438E-1,2.703552246E-1
7.484503617E0,1.211593628E0,1.126892090E0,2.376403809E-1
7.489477982E0,1.161148071E0,1.301498413E0,2.270660400E-1
7.494452348E0,1.098144531E0,1.452270508E0,2.264862061E-1
7.499426713E0,1.031875610E0,1.578475952E0,2.256622314E-1
7.504401078E0,9.815063477E-1,1.683944702E0,2.249145508E-1
7.509375443E0,9.440917969E-1,1.754760742E0,2.287597656E-1
7.514349809E0,9.147033691E-1,1.779479980E0,2.395782471E-1
7.519324174E0,8.872222900E-1,1.761734009E0,2.563323975E-1
7.524298539E0,8.582000732E-1,1.699737549E0,2.798919678E-1
7.529272904E0,8.188171387E-1,1.600662231E0,3.038482666E-1
7.534247269E0,7.661132812E-1,1.500061035E0,3.229827881E-1
7.539221635E0,7.054443359E-1,1.421844482E0,3.379211426E-1
7.544196000E0,6.235198975E-1,1.365097046E0,3.620452881E-1
7.549170365E0,5.220184326E-1,1.326049805E0,3.824310303E-1
7.554144730E0,4.148101807E-1,1.309783936E0,3.925476074E-1
7.559119096E0,3.139801025E-1,1.310043335E0,3.882751465E-1
7.564093461E0,2.250366211E-1,1.321716309E0,3.751373291E-1
7.569067826E0,1.501312256E-1,1.339813232E0,3.550567627E-1
7.574042191E0,8.712768555E-2,1.349060059E0,3.310699463E-1
7.579016557E0,4.272460938E-2,1.332855225E0,3.052673340E-1
7.583990922E0,1.731872559E-2,1.286788940E0,2.754669189E-1
7.588965287E0,1.177978516E-2,1.210449219E0,2.406158447E-1
7.593939652E0,2.510070801E-2,1.107818604E0,2.053985596E-1
7.598914017E0,5.133056641E-2,9.879608154E-1,1.745758057E-1
7.603888383E0,8.110046387E-2,8.606414795E-1,1.490478516E-1
7.608862748E0,1.110992432E-1,7.357788086E-1,1.293182373E-1
7.613837113E0,1.346893311E-1,6.240539551E-1,1.127014160E-1
7.618811478E0,1.455993652E-1,5.260314941E-1,9.721374512E-2
7.623785844E0,1.460723877E-1,4.376678467E-1,8.387756348E-2
7.628760209E0,1.387634277E-1,3.564147949E-1,7.540893555E-2
7.633734574E0,1.275177002E-1,2.859802246E-1,6.886291504E-2
7.638708939E0,1.111602783E-1,2.297668457E-1,6.428527832E-2
7.643683305E0,9.216308594E-2,1.846618652E-1,5.654907227E-2
7.648657670E0,7.901000977E-2,1.524963379E-1,4.766845703E-2
7.653632035E0,6.958007812E-2,1.195831299E-1,3.952026367E-2
7.658606400E0,6.173706055E-2,8.558654785E-2,2.914428711E-2
7.663580766E0,5.371093750E-2,4.850769043E-2,1.988220215E-2
7.668555131E0,3.669738770E-2,3.982543945E-3,6.790161133E-3
7.673529496E0,1.788330078E-2,-4.013061523E-2,-7.934570312E-3
7.678503861E0,4.943847656E-3,-8.573913574E-2,-2.310180664E-2
7.683478226E0,-1.342773438E-3,-1.310882568E-1,-4.054260254E-2
7.688452592E0,-1.647949219E-3,-1.747131348E-1,-5.839538574E-2
7.693426957E0,4.577636719E-5,-2.100219727E-1,-7.760620117E-2
7.698401322E0,6.256103516E-4,-2.349395752E-1,-1.026763916E-1
7.703375687E0,-8.392333984E-3,-2.473297119E-1,-1.338043213E-1
7.708350053E0,-2.647399902E-2,-2.410430908E-1,-1.653747559E-1
7.713324418E0,-4.925537109E-2,-2.205047607E-1,-1.985931396E-1
7.718298783E0,-7.786560059E-2,-1.899566650E-1,-2.379760742E-1
7.723273148E0,-1.101226807E-1,-1.478881836E-1,-2.770233154E-1
7.728247514E0,-1.459808350E-1,-9.835815430E-2,-3.186187744E-1
7.733221879E0,-1.791229248E-1,-4.650878906E-2,-3.552398682E-1
7.738196244E0,-2.094421387E-1,-2.975463867E-3,-3.863525391E-1
7.743170609E0,-2.362060547E-1,3.492736816E-2,-4.158630371E-1
7.748144975E0,-2.563323975E-1,5.781555176E-2,-4.433898926E-1
7.753119340E0,-2.651367188E-1,7.766723633E-2,-4.647216797E-1
7.758093705E0,-2.636718750E-1,8.436584473E-2,-4.810485840E-1
7.763068070E0,-2.567596436E-1,8.801269531E-2,-4.886932373E-1
7.768042435E0,-2.425537109E-1,8.354187012E-2,-4.901123047E-1
7.773016801E0,-2.228851318E-1,6.629943848E-2,-4.869079590E-1
7.777991166E0,-1.979064941E-1,3.573608398E-2,-4.822692871E-1
7.782965531E0,-1.687622070E-1,-6.454467773E-3,-4.744415283E-1
7.787939896E0,-1.383209229E-1,-5.569458008E-2,-4.657897949E-1
7.792914262E0,-1.074829102E-1,-1.041564941E-1,-4.548187256E-1
7.797888627E0,-7.708740234E-2,-1.471099854E-1,-4.416809082E-1
7.802862992E0,-4.687500000E-2,-1.782684326E-1,-4.277191162E-1
7.807837357E0,-1.902770996E-2,-1.938781738E-1,-4.100494385E-1
7.812811723E0,4.608154297E-3,-1.893157959E-1,-3.889770508E-1
7.817786088E0,2.323913574E-2,-1.610870361E-1,-3.676300049E-1
7.822760453E0,3.948974609E-2,-1.206054688E-1,-3.485717773E-1
7.827734818E0,5.445861816E-2,-7.014465332E-2,-3.278045654E-1
7.832709184E0,7.208251953E-2,-1.182556152E-2,-3.071746826E-1
7.837683549E0,8.584594727E-2,5.509948730E-2,-2.884216309E-1
7.842657914E0,9.146118164E-2,1.264801025E-1,-2.691497803E-1
7.847632279E0,8.987426758E-2,1.952362061E-1,-2.455749512E-1
7.852606644E0,9.292602539E-2,2.554626465E-1,-2.240753174E-1
7.857581010E0,1.005401611E-1,3.062744141E-1,-2.007598877E-1
7.862555375E0,1.157379150E-1,3.598022461E-1,-1.767883301E-1
7.867529740E0,1.367645264E-1,4.177246094E-1,-1.458282471E-1
7.872504105E0,1.566619873E-1,4.802856445E-1,-1.147155762E-1
7.877478471E0,1.740570068E-1,5.462951660E-1,-7.714843750E-2
7.882452836E0,1.921234131E-1,6.139831543E-1,-3.146362305E-2
7.887427201E0,2.133636475E-1,6.739349365E-1,1.829528809E-2
7.892401566E0,2.406921387E-1,7.179870605E-1,6.889343262E-2
7.897375932E0,2.806549072E-1,7.414550781E-1,1.155242920E-1
7.902350297E0,3.302612305E-1,7.364044189E-1,1.512298584E-1
7.907324662E0,3.883666992E-1,6.973266602E-1,1.745452881E-1
7.912299027E0,4.477996826E-1,6.191253662E-1,1.865844727E-1
7.917273392E0,4.972534180E-1,5.115356445E-1,1.864929199E-1
7.922247758E0,5.308074951E-1,3.942718506E-1,1.853179932E-1
7.927222123E0,5.437164307E-1,2.544860840E-1,2.003326416E-1
7.932196488E0,5.390930176E-1,1.034393311E-1,2.148132324E-1
7.937170853E0,5.075225830E-1,-5.416870117E-2,2.115631104E-1
7.942145219E0,4.360046387E-1,-2.092590332E-1,1.835021973E-1
7.947119584E0,3.339233398E-1,-3.239593506E-1,1.258697510E-1
7.952093949E0,2.202606201E-1,-3.401184082E-1,4.911804199E-2
7.957068314E0,1.323699951E-1,-2.470855713E-1,-1.531982422E-2
7.962042680E0,9.446716309E-2,-1.095275879E-1,-5.686950684E-2
7.967017045E0,1.097717285E-1,-7.156372070E-3,-9.274291992E-2
7.971991410E0,1.620788574E-1,1.977539062E-2,-1.362915039E-1
7.976965775E0,2.408905029E-1,-1.438903809E-2,-1.873931885E-1
7.981940141E0,3.263702393E-1,-7.211303711E-2,-2.373809814E-1
7.986914506E0,3.982696533E-1,-1.326141357E-1,-2.748260498E-1
7.991888871E0,4.432525635E-1,-1.941070557E-1,-2.971649170E-1
7.996863236E0,4.530029297E-1,-2.560577393E-1,-3.061981201E-1
8.001837601E0,4.236755371E-1,-3.134765625E-1,-3.108367920E-1
8.006811967E0,3.631134033E-1,-3.661956787E-1,-3.196868896E-1
8.011786332E0,2.796173096E-1,-4.020843506E-1,-3.337097168E-1
8.016760697E0,1.820526123E-1,-4.114379883E-1,-3.553314209E-1
8.021735062E0,8.590698242E-2,-3.896179199E-1,-3.806152344E-1
8.026709428E0,-7.629394531E-5,-3.368072510E-1,-4.077911377E-1
8.031683793E0,-6.153869629E-2,-2.563476562E-1,-4.308471680E-1
8.036658158E0,-1.127929688E-1,-1.452789307E-1,-4.431457520E-1
8.041632523E0,-1.624298096E-1,-7.919311523E-3,-4.333343506E-1
8.046606889E0,-2.172393799E-1,1.404876709E-1,-4.044799805E-1
8.051581254E0,-2.776489258E-1,2.784881592E-1,-3.653106689E-1
8.056555619E0,-3.249511719E-1,3.552551270E-1,-3.232727051E-1
8.061529984E0,-3.432464600E-1,3.459167480E-1,-2.917022705E-1
8.066504350E0,-3.233184814E-1,2.720031738E-1,-2.694549561E-1
8.071478715E0,-2.838592529E-1,1.839752197E-1,-2.475280762E-1
8.076453080E0,-2.374114990E-1,1.108856201E-1,-2.209320068E-1
8.081427445E0,-2.051696777E-1,5.265808105E-2,-1.891937256E-1
8.086401810E0,-2.004852295E-1,1.747131348E-2,-1.564483643E-1
8.091376176E0,-2.200164795E-1,-9.796142578E-3,-1.256256104E-1
8.096350541E0,-2.520141602E-1,-4.953002930E-2,-9.745788574E-2
8.101324906E0,-2.808227539E-1,-9.857177734E-2,-8.079528809E-2
8.106299271E0,-2.945861816E-1,-1.566925049E-1,-8.093261719E-2
8.111273637E0,-2.908172607E-1,-2.229766846E-1,-9.132385254E-2
8.116248002E0,-2.785797119E-1,-2.954406738E-1,-9.924316406E-2
8.121222367E0,-2.656097412E-1,-3.743591309E-1,-1.146697998E-1
8.126196732E0,-2.586059570E-1,-4.504089355E-1,-1.475524902E-1
8.131171098E0,-2.517089844E-1,-5.205078125E-1,-1.874847412E-1
8.136145463E0,-2.511749268E-1,-5.829620361E-1,-2.324371338E-1
8.141119828E0,-2.550964355E-1,-6.373901367E-1,-2.766571045E-1
8.146094193E0,-2.689819336E-1,-6.681213379E-1,-3.131408691E-1
8.151068559E0,-2.882232666E-1,-6.685333252E-1,-3.471374512E-1
8.156042924E0,-3.067779541E-1,-6.497802734E-1,-3.745422363E-1
8.161017289E0,-3.212585449E-1,-6.163787842E-1,-3.939056396E-1
8.165991654E0,-3.333435059E-1,-5.828094482E-1,-4.061889648E-1
8.170966019E0,-3.491210938E-1,-5.496063232E-1,-4.115295410E-1
8.175940385E0,-3.668823242E-1,-5.178222656E-1,-4.161529541E-1
8.180914750E0,-3.893585205E-1,-4.868469238E-1,-4.194946289E-1
8.185889115E0,-4.139709473E-1,-4.568481445E-1,-4.251403809E-1
8.190863480E0,-4.370117188E-1,-4.223022461E-1,-4.334564209E-1
8.195837846E0,-4.610595703E-1,-3.865356445E-1,-4.447937012E-1
8.200812211E0,-4.888763428E-1,-3.476867676E-1,-4.591522217E-1
8.205786576E0,-5.182495117E-1,-3.063354492E-1,-4.753875732E-1
8.210760941E0,-5.457153320E-1,-2.684783936E-1,-4.946441650E-1
8.215735307E0,-5.717163086E-1,-2.323913574E-1,-5.114135742E-1
8.220709672E0,-5.883941650E-1,-1.979217529E-1,-5.228424072E-1
8.225684037E0,-5.988006592E-1,-1.691894531E-1,-5.309906006E-1
8.230658402E0,-6.078186035E-1,-1.484527588E-1,-5.414581299E-1
8.235632767E0,-6.215362549E-1,-1.320953369E-1,-5.547332764E-1
8.240607133E0,-6.407012939E-1,-1.229553223E-1,-5.695953369E-1
8.245581498E0,-6.632232666E-1,-1.186828613E-1,-5.921325684E-1
8.250555863E0,-6.897583008E-1,-1.200256348E-1,-6.266174316E-1
8.255530228E0,-7.281036377E-1,-1.458892822E-1,-6.447143555E-1
8.260504594E0,-7.662506104E-1,-1.885833740E-1,-6.087646484E-1
8.265478959E0,-8.071441650E-1,-2.274322510E-1,-5.627899170E-1
8.270453324E0,-8.447875977E-1,-2.688751221E-1,-5.365905762E-1
8.275427689E0,-8.772735596E-1,-3.165893555E-1,-5.292663574E-1
8.280402055E0,-9.057312012E-1,-3.598022461E-1,-5.299072266E-1
8.285376420E0,-9.275054932E-1,-3.967132568E-1,-5.282135010E-1
8.290350785E0,-9.381866455E-1,-4.336395264E-1,-5.198822021E-1
8.295325150E0,-9.405059814E-1,-4.715423584E-1,-5.088500977E-1
8.300299516E0,-9.353485107E-1,-5.059204102E-1,-4.966888428E-1
8.305273881E0,-9.270172119E-1,-5.310516357E-1,-4.841156006E-1
8.310248246E0,-9.134216309E-1,-5.404510498E-1,-4.738922119E-1
8.315222611E0,-8.931427002E-1,-5.396270752E-1,-4.705200195E-1
8.320196976E0,-8.694152832E-1,-5.350646973E-1,-4.752044678E-1
8.325171342E0,-8.408050537E-1,-5.304565430E-1,-4.853057861E-1
8.330145707E0,-8.067932129E-1,-5.287628174E-1,-5.001525879E-1
8.335120072E0,-7.762298584E-1,-5.333862305E-1,-5.155792236E-1
8.340094437E0,-7.474670410E-1,-5.384063721E-1,-5.308837891E-1
8.345068803E0,-7.187652588E-1,-5.365447998E-1,-5.449676514E-1
8.350043168E0,-6.928863525E-1,-5.256195068E-1,-5.580596924E-1
8.355017533E0,-6.638946533E-1,-5.139770508E-1,-5.675354004E-1
8.359991898E0,-6.338653564E-1,-5.018310547E-1,-5.726623535E-1
8.364966264E0,-6.014251709E-1,-4.893035889E-1,-5.774688721E-1
8.369940629E0,-5.722198486E-1,-4.771423340E-1,-5.813293457E-1
8.374914994E0,-5.485076904E-1,-4.723358154E-1,-5.823211670E-1
8.379889359E0,-5.288085938E-1,-4.767761230E-1,-5.775909424E-1
8.384863725E0,-5.169830322E-1,-4.840393066E-1,-5.724487305E-1
8.389838090E0,-5.089111328E-1,-4.895782471E-1,-5.663757324E-1
8.394812455E0,-5.072784424E-1,-4.972534180E-1,-5.583190918E-1
8.399786820E0,-5.050201416E-1,-5.153656006E-1,-5.437927246E-1
8.404761185E0,-5.028533936E-1,-5.390472412E-1,-5.167236328E-1
8.409735551E0,-5.189056396E-1,-5.387420654E-1,-4.932708740E-1
8.414709916E0,-5.541076660E-1,-5.039672852E-1,-4.847259521E-1
8.419684281E0,-5.968322754E-1,-4.554138184E-1,-4.762878418E-1
8.424658646E0,-6.399993896E-1,-4.173583984E-1,-4.561614990E-1
8.429633012E0,-6.734161377E-1,-3.932647705E-1,-4.304962158E-1
8.434607377E0,-6.950225830E-1,-3.853912354E-1,-3.948364258E-1
8.439581742E0,-7.062988281E-1,-3.931274414E-1,-3.594665527E-1
8.444556107E0,-7.093963623E-1,-4.080505371E-1,-3.264007568E-1
8.449530473E0,-7.108612061E-1,-4.257965088E-1,-2.876434326E-1
8.454504838E0,-7.149353027E-1,-4.469604492E-1,-2.443084717E-1
8.459479203E0,-7.226715088E-1,-4.576721191E-1,-1.999664307E-1
8.464453568E0,-7.236633301E-1,-4.551544189E-1,-1.581268311E-1
8.469427934E0,-7.190856934E-1,-4.433135986E-1,-1.170349121E-1
8.474402299E0,-7.096252441E-1,-4.218902588E-1,-7.806396484E-2
8.479376664E0,-6.914825439E-1,-3.970336914E-1,-4.220581055E-2
8.484351029E0,-6.643371582E-1,-3.664245605E-1,-1.107788086E-2
8.489325394E0,-6.282653809E-1,-3.238677979E-1,2.221679688E-2
8.494299760E0,-5.901031494E-1,-2.507781982E-1,6.002807617E-2
8.499274125E0,-5.420989990E-1,-1.623535156E-1,1.084594727E-1
8.504248490E0,-4.572753906E-1,-1.339721680E-1,1.623687744E-1
8.509222855E0,-3.160552979E-1,-1.796875000E-1,2.108306885E-1
8.514197221E0,-1.236267090E-1,-2.263031006E-1,2.532043457E-1
8.519171586E0,1.177368164E-1,-2.221527100E-1,2.884216309E-1
8.524145951E0,3.824310303E-1,-1.819763184E-1,3.081054688E-1
8.529120316E0,6.353454590E-1,-1.292266846E-1,3.132019043E-1
8.534094682E0,8.287200928E-1,-7.878112793E-2,3.030090332E-1
8.539069047E0,9.263916016E-1,-5.511474609E-2,2.809448242E-1
8.544043412E0,8.935546875E-1,-3.411865234E-2,2.527618408E-1
8.549017777E0,7.510375977E-1,3.765869141E-2,2.365264893E-1
8.553992142E0,5.651855469E-1,1.226348877E-1,2.380523682E-1
8.558966508E0,4.097595215E-1,1.431121826E-1,2.453155518E-1
8.563940873E0,3.265075684E-1,1.074829102E-1,2.358856201E-1
8.568915238E0,3.216094971E-1,7.633972168E-2,2.149810791E-1
8.573889603E0,3.649597168E-1,6.591796875E-2,2.099761963E-1
8.578863969E0,4.263763428E-1,7.199096680E-2,2.366943359E-1
8.583838334E0,4.902954102E-1,8.892822266E-2,2.906036377E-1
8.588812699E0,5.529174805E-1,1.082153320E-1,3.583068848E-1
8.593787064E0,6.090850830E-1,1.187133789E-1,4.293823242E-1
8.598761430E0,6.516571045E-1,1.127166748E-1,5.057525635E-1
8.603735795E0,6.804656982E-1,9.432983398E-2,5.868072510E-1
8.608710160E0,6.917724609E-1,7.548522949E-2,6.677398682E-1
8.613684525E0,6.922912598E-1,6.552124023E-2,7.397460938E-1
8.618658891E0,6.954345703E-1,6.533813477E-2,8.076629639E-1
8.623633256E0,6.994018555E-1,7.923889160E-2,8.808746338E-1
8.628607621E0,7.109680176E-1,9.484863281E-2,9.719390869E-1
8.633581986E0,7.279052734E-1,1.003265381E-1,1.071563721E0
8.638556351E0,7.395782471E-1,8.839416504E-2,1.162658691E0
8.643530717E0,7.353515625E-1,5.743408203E-2,1.224426270E0
8.648505082E0,7.062225342E-1,2.944946289E-3,1.237884521E0
8.653479447E0,6.763153076E-1,-8.969116211E-2,1.214065552E0
8.658453812E0,6.552276611E-1,-1.805725098E-1,1.150207520E0
8.663428178E0,6.352691650E-1,-2.124176025E-1,1.051254272E0
8.668402543E0,6.201934814E-1,-1.959991455E-1,9.159240723E-1
8.673376908E0,6.160736084E-1,-1.460876465E-1,7.522888184E-1
8.678351273E0,6.178436279E-1,-6.117248535E-2,5.736236572E-1
8.683325639E0,6.174774170E-1,6.852722168E-2,4.060516357E-1
8.688300004E0,6.147613525E-1,2.263031006E-1,2.880706787E-1
8.693274369E0,6.066741943E-1,3.745117188E-1,2.261199951E-1
8.698248734E0,5.989379883E-1,5.010223389E-1,2.104797363E-1
8.703223100E0,5.935516357E-1,6.158294678E-1,2.229156494E-1
8.708197465E0,5.935211182E-1,7.369689941E-1,2.487792969E-1
8.713171830E0,5.956268311E-1,8.616790771E-1,2.841033936E-1
8.718146195E0,6.028747559E-1,9.814147949E-1,3.195190430E-1
8.723120560E0,6.113586426E-1,1.096511841E0,3.485260010E-1
8.728094926E0,6.191101074E-1,1.195541382E0,3.710937500E-1
8.733069291E0,6.285552979E-1,1.274063110E0,3.871765137E-1
8.738043656E0,6.278533936E-1,1.328659058E0,3.977355957E-1
8.743018021E0,6.050720215E-1,1.372222900E0,4.123077393E-1
8.747992387E0,5.569152832E-1,1.411544800E0,4.368896484E-1
8.752966752E0,4.912567139E-1,1.449127197E0,4.579925537E-1
8.757941117E0,4.204711914E-1,1.493270874E0,4.787902832E-1
8.762915482E0,3.529968262E-1,1.537811279E0,5.010375977E-1
8.767889848E0,3.019104004E-1,1.573974609E0,5.238037109E-1
8.772864213E0,2.635040283E-1,1.598709106E0,5.445861816E-1
8.777838578E0,2.353057861E-1,1.606369019E0,5.645904541E-1
8.782812943E0,2.237243652E-1,1.582122803E0,5.825195312E-1
8.787787309E0,2.381439209E-1,1.514007568E0,5.974578857E-1
8.792761674E0,2.819061279E-1,1.400253296E0,6.090087891E-1
8.797736039E0,3.427886963E-1,1.244750977E0,6.216735840E-1
8.802710404E0,4.060058594E-1,1.058883667E0,6.370697021E-1
8.807684769E0,4.633331299E-1,8.555755615E-1,6.571044922E-1
8.812659135E0,5.174865723E-1,6.494445801E-1,6.712341309E-1
8.817633500E0,5.806427002E-1,4.555053711E-1,6.792449951E-1
8.822607865E0,6.572570801E-1,2.878875732E-1,6.811370850E-1
8.827582230E0,7.477111816E-1,1.542510986E-1,6.730804443E-1
8.832556596E0,8.465423584E-1,5.511474609E-2,6.599884033E-1
8.837530961E0,9.412994385E-1,-7.461547852E-3,6.441802979E-1
8.842505326E0,1.033813477E0,-2.818298340E-2,6.266174316E-1
8.847479691E0,1.107910156E0,-2.072143555E-2,6.023406982E-1
8.852454057E0,1.159698486E0,1.557922363E-2,5.734252930E-1
8.857428422E0,1.181381226E0,8.227539062E-2,5.473632812E-1
8.862402787E0,1.179840088E0,1.644134521E-1,5.145721436E-1
8.867377152E0,1.155654907E0,2.403564453E-1,4.781951904E-1
8.872351517E0,1.116470337E0,3.001556396E-1,4.425659180E-1
8.877325883E0,1.070068359E0,3.385925293E-1,4.035339355E-1
8.882300248E0,1.024826050E0,3.528289795E-1,3.638153076E-1
8.887274613E0,9.804077148E-1,3.498229980E-1,3.263397217E-1
8.892248978E0,9.348754883E-1,3.447265625E-1,2.924041748E-1
8.897223344E0,8.918609619E-1,3.355102539E-1,2.580871582E-1
8.902197709E0,8.554229736E-1,3.220214844E-1,2.230224609E-1
8.907172074E0,8.257751465E-1,3.055877686E-1,1.872711182E-1
8.912146439E0,7.989196777E-1,2.971343994E-1,1.541595459E-1
8.917120805E0,7.705383301E-1,2.940826416E-1,1.177520752E-1
8.922095170E0,7.372131348E-1,3.047637939E-1,8.259582520E-2
8.927069535E0,6.912078857E-1,3.415527344E-1,4.956054688E-2
8.932043900E0,6.234283447E-1,3.966369629E-1,1.527404785E-2
8.937018266E0,5.438079834E-1,4.561614990E-1,-1.939392090E-2
8.941992631E0,4.609832764E-1,5.146789551E-1,-4.954528809E-2
8.946966996E0,3.784637451E-1,5.528717041E-1,-7.551574707E-2
8.951941361E0,3.009948730E-1,5.804901123E-1,-9.715270996E-2
8.956915726E0,2.326354980E-1,6.132354736E-1,-1.165924072E-1
8.961890092E0,1.733856201E-1,6.408081055E-1,-1.252441406E-1
8.966864457E0,1.206512451E-1,6.558227539E-1,-1.248474121E-1
8.971838822E0,7.681274414E-2,6.556091309E-1,-1.220550537E-1
8.976813187E0,3.529357910E-2,6.598358154E-1,-1.198883057E-1
8.981787553E0,-1.136779785E-2,6.594848633E-1,-1.138916016E-1
8.986761918E0,-5.763244629E-2,6.311645508E-1,-1.000671387E-1
8.991736283E0,-9.826660156E-2,5.859680176E-1,-8.438110352E-2
8.996710648E0,-1.227569580E-1,5.324401855E-1,-7.308959961E-2
9.001685014E0,-1.268463135E-1,4.803009033E-1,-6.488037109E-2
9.006659379E0,-1.180572510E-1,4.428558350E-1,-6.343078613E-2
9.011633744E0,-9.519958496E-2,4.223175049E-1,-6.846618652E-2
9.016608109E0,-6.661987305E-2,4.129333496E-1,-8.012390137E-2
9.021582475E0,-3.230285645E-2,4.154968262E-1,-9.556579590E-2
9.026556840E0,2.548217773E-3,4.259948730E-1,-1.126861572E-1
9.031531205E0,4.348754883E-2,4.432373047E-1,-1.288909912E-1
9.036505570E0,8.705139160E-2,4.576263428E-1,-1.485443115E-1
9.041479935E0,1.316833496E-1,4.786071777E-1,-1.708374023E-1
9.046454301E0,1.746520996E-1,5.013732910E-1,-1.926727295E-1
9.051428666E0,2.079162598E-1,5.278625488E-1,-2.136383057E-1
9.056403031E0,2.332000732E-1,5.558776855E-1,-2.280883789E-1
9.061377396E0,2.438049316E-1,5.846862793E-1,-2.398986816E-1
9.066351762E0,2.395172119E-1,6.085968018E-1,-2.480773926E-1
9.071326127E0,2.259674072E-1,6.332855225E-1,-2.533874512E-1
9.076300492E0,2.069854736E-1,6.636962891E-1,-2.540740967E-1
9.081274857E0,1.881713867E-1,6.917877197E-1,-2.559967041E-1
9.086249223E0,1.715087891E-1,7.157287598E-1,-2.567443848E-1
9.091223588E0,1.567382812E-1,7.411041260E-1,-2.586975098E-1
9.096197953E0,1.400299072E-1,7.628936768E-1,-2.614135742E-1
9.101172318E0,1.219635010E-1,7.844085693E-1,-2.603912354E-1
9.106146684E0,1.041564941E-1,8.029937744E-1,-2.590637207E-1
9.111121049E0,8.947753906E-2,8.052520752E-1,-2.566528320E-1
9.116095414E0,7.701110840E-2,7.786712646E-1,-2.577209473E-1
9.121069779E0,7.492065430E-2,7.097167969E-1,-2.633056641E-1
9.126044144E0,8.036804199E-2,5.997314453E-1,-2.750854492E-1
9.131018510E0,8.792114258E-2,4.630126953E-1,-2.896423340E-1
9.135992875E0,1.057281494E-1,3.054046631E-1,-3.013458252E-1
9.140967240E0,1.230468750E-1,1.517944336E-1,-3.023681641E-1
9.145941605E0,1.396026611E-1,2.835083008E-2,-2.802886963E-1
9.150915971E0,1.646423340E-1,-5.166625977E-2,-2.270965576E-1
9.155890336E0,2.131958008E-1,-9.957885742E-2,-1.445617676E-1
9.160864701E0,2.971038818E-1,-1.340789795E-1,-4.614257812E-2
9.165839066E0,4.224243164E-1,-1.670837402E-1,5.816650391E-2
9.170813432E0,5.569305420E-1,-2.118530273E-1,1.521453857E-1
9.175787797E0,6.410369873E-1,-2.908630371E-1,2.255706787E-1
9.180762162E0,6.386566162E-1,-4.191741943E-1,2.606201172E-1
9.185736527E0,5.484619141E-1,-5.613250732E-1,2.178039551E-1
9.190710892E0,4.040222168E-1,-6.267852783E-1,9.349060059E-2
9.195685258E0,2.579193115E-1,-5.475616455E-1,-4.093933105E-2
9.200659623E0,1.616210938E-1,-3.436126709E-1,-1.211700439E-1
9.205633988E0,1.346740723E-1,-1.001434326E-1,-1.562957764E-1
9.210608353E0,1.441650391E-1,1.150970459E-1,-1.729278564E-1
9.215582719E0,1.286163330E-1,2.717895508E-1,-1.829681396E-1
9.220557084E0,4.808044434E-2,3.442535400E-1,-1.869659424E-1
9.225531449E0,-7.618713379E-2,2.947540283E-1,-1.784210205E-1
9.230505814E0,-2.048950195E-1,1.328430176E-1,-1.658325195E-1
9.235480180E0,-3.150482178E-1,-5.021667480E-2,-1.636199951E-1
9.240454545E0,-3.920288086E-1,-1.902618408E-1,-1.621856689E-1
9.245428910E0,-4.421539307E-1,-2.900390625E-1,-1.529083252E-1
9.250403275E0,-4.673767090E-1,-3.704223633E-1,-1.485595703E-1
9.255377641E0,-4.813690186E-1,-4.191284180E-1,-1.457672119E-1
9.260352006E0,-4.821929932E-1,-4.259185791E-1,-1.471252441E-1
9.265326371E0,-4.659576416E-1,-4.085388184E-1,-1.593017578E-1
9.270300736E0,-4.205322266E-1,-3.994140625E-1,-1.888732910E-1
9.275275101E0,-3.600463867E-1,-3.774719238E-1,-2.388763428E-1
9.280249467E0,-2.906341553E-1,-3.478393555E-1,-2.892608643E-1
9.285223832E0,-2.126159668E-1,-3.316040039E-1,-3.308715820E-1
9.290198197E0,-1.332855225E-1,-3.365020752E-1,-3.716278076E-1
9.295172562E0,-5.674743652E-2,-3.711395264E-1,-4.132843018E-1
9.300146928E0,2.182006836E-3,-4.190368652E-1,-4.547271729E-1
9.305121293E0,2.734375000E-2,-4.546813965E-1,-4.864654541E-1
9.310095658E0,3.036499023E-3,-4.652099609E-1,-4.955596924E-1
9.315070023E0,-6.573486328E-2,-4.479217529E-1,-4.822845459E-1
9.320044389E0,-1.602783203E-1,-4.072265625E-1,-4.458465576E-1
9.325018754E0,-2.586822510E-1,-3.526916504E-1,-3.957061768E-1
9.329993119E0,-3.519287109E-1,-3.190917969E-1,-3.397521973E-1
9.334967484E0,-4.290618896E-1,-3.308868408E-1,-2.713928223E-1
9.339941850E0,-4.924316406E-1,-3.711242676E-1,-2.038269043E-1
9.344916215E0,-5.379180908E-1,-4.277038574E-1,-1.495666504E-1
9.349890580E0,-5.592041016E-1,-5.066375732E-1,-1.119384766E-1
9.354864945E0,-5.585479736E-1,-6.002349854E-1,-8.854675293E-2
9.359839310E0,-5.483245850E-1,-6.896514893E-1,-7.553100586E-2
9.364813676E0,-5.414276123E-1,-7.625427246E-1,-7.087707520E-2
9.369788041E0,-5.350036621E-1,-8.223419189E-1,-7.231140137E-2
9.374762406E0,-5.220947266E-1,-8.777770996E-1,-7.684326172E-2
9.379736771E0,-5.026855469E-1,-9.239044189E-1,-8.337402344E-2
9.384711137E0,-4.757995605E-1,-9.589843750E-1,-8.915710449E-2
9.389685502E0,-4.427642822E-1,-9.648590088E-1,-9.526062012E-2
9.394659867E0,-4.092712402E-1,-9.317169189E-1,-1.020050049E-1
9.399634232E0,-3.821105957E-1,-8.797149658E-1,-1.060638428E-1
9.404608598E0,-3.652343750E-1,-8.242340088E-1,-1.079864502E-1
9.409582963E0,-3.620147705E-1,-7.751159668E-1,-1.107940674E-1
9.414557328E0,-3.637542725E-1,-7.360687256E-1,-1.172485352E-1
9.419531693E0,-3.711395264E-1,-7.138977051E-1,-1.224670410E-1
9.424506059E0,-3.738098145E-1,-7.117614746E-1,-1.301269531E-1
9.429480424E0,-3.700714111E-1,-7.208251953E-1,-1.395568848E-1
9.434454789E0,-3.591156006E-1,-7.252197266E-1,-1.544494629E-1
9.439429154E0,-3.389739990E-1,-7.158660889E-1,-1.762390137E-1
9.444403519E0,-3.252868652E-1,-6.896209717E-1,-2.117309570E-1
9.449377885E0,-3.306884766E-1,-6.667175293E-1,-2.441711426E-1
9.454352250E0,-3.562011719E-1,-6.605529785E-1,-2.223358154E-1
9.459326615E0,-3.874053955E-1,-6.510314941E-1,-1.841125488E-1
9.464300980E0,-4.191589355E-1,-6.361083984E-1,-1.708068848E-1
9.469275346E0,-4.576873779E-1,-6.186523438E-1,-1.769866943E-1
9.474249711E0,-5.031433105E-1,-6.002349854E-1,-1.861724854E-1
9.479224076E0,-5.547332764E-1,-5.812072754E-1,-1.937408447E-1
9.484198441E0,-6.113128662E-1,-5.640411377E-1,-2.040252686E-1
9.489172807E0,-6.661376953E-1,-5.514831543E-1,-2.165222168E-1
9.494147172E0,-7.156066895E-1,-5.394897461E-1,-2.276763916E-1
9.499121537E0,-7.570953369E-1,-5.235443115E-1,-2.386627197E-1
9.504095902E0,-7.903289795E-1,-5.126342773E-1,-2.526397705E-1
9.509070267E0,-8.154296875E-1,-5.120544434E-1,-2.641143799E-1
9.514044633E0,-8.341674805E-1,-5.127716064E-1,-2.709655762E-1
9.519018998E0,-8.485717773E-1,-5.054016113E-1,-2.718200684E-1
9.523993363E0,-8.604278564E-1,-4.885101318E-1,-2.737884521E-1
9.528967728E0,-8.730926514E-1,-4.654846191E-1,-2.791137695E-1
9.533942094E0,-8.742675781E-1,-4.393920898E-1,-2.831420898E-1
9.538916459E0,-8.729553223E-1,-4.210052490E-1,-2.901000977E-1
9.543890824E0,-8.601074219E-1,-3.976440430E-1,-3.004608154E-1
9.548865189E0,-8.451995850E-1,-3.664855957E-1,-3.139495850E-1
9.553839555E0,-8.287658691E-1,-3.330078125E-1,-3.274536133E-1
9.558813920E0,-8.095245361E-1,-3.047485352E-1,-3.412933350E-1
9.563788285E0,-7.848815918E-1,-2.861328125E-1,-3.561706543E-1
9.568762650E0,-7.517547607E-1,-2.754974365E-1,-3.687438965E-1
9.573737016E0,-7.198333740E-1,-2.736206055E-1,-3.803253174E-1
9.578711381E0,-6.878509521E-1,-2.795715332E-1,-3.904724121E-1
9.583685746E0,-6.587677002E-1,-2.901000977E-1,-3.943176270E-1
9.588660111E0,-6.319885254E-1,-3.060607910E-1,-3.950958252E-1
9.593634476E0,-6.112670898E-1,-3.236694336E-1,-3.908233643E-1
9.598608842E0,-5.948028564E-1,-3.436279297E-1,-3.821258545E-1
9.603583207E0,-5.806274414E-1,-3.592834473E-1,-3.708343506E-1
9.608557572E0,-5.679931641E-1,-3.704071045E-1,-3.553924561E-1
9.613531937E0,-5.631713867E-1,-3.804168701E-1,-3.348236084E-1
9.618506303E0,-5.651702881E-1,-3.870697021E-1,-3.091735840E-1
9.623480668E0,-5.709686279E-1,-3.938751221E-1,-2.801513672E-1
9.628455033E0,-5.729980469E-1,-4.009552002E-1,-2.478332520E-1
9.633429398E0,-5.771636963E-1,-4.097137451E-1,-2.135162354E-1
9.638403764E0,-5.773773193E-1,-4.144134521E-1,-1.819152832E-1
9.643378129E0,-5.728912354E-1,-4.274291992E-1,-1.473999023E-1
9.648352494E0,-5.680236816E-1,-4.443664551E-1,-1.166534424E-1
9.653326859E0,-5.597076416E-1,-4.676361084E-1,-8.653259277E-2
9.658301225E0,-5.506286621E-1,-4.797821045E-1,-5.593872070E-2
9.663275590E0,-5.376586914E-1,-4.826812744E-1,-2.915954590E-2
9.668249955E0,-5.202331543E-1,-4.691925049E-1,-1.213073730E-2
9.673224320E0,-5.004119873E-1,-4.357299805E-1,8.850097656E-4
9.678198685E0,-4.870910645E-1,-3.824157715E-1,9.033203125E-3
9.683173051E0,-4.778289795E-1,-3.119049072E-1,1.702880859E-2
9.688147416E0,-4.735260010E-1,-2.158966064E-1,2.882385254E-2
9.693121781E0,-4.712524414E-1,-1.101531982E-1,3.996276855E-2
9.698096146E0,-4.530029297E-1,-5.987548828E-2,3.897094727E-2
9.703070512E0,-4.147033691E-1,-7.354736328E-2,2.282714844E-2
9.708044877E0,-3.707885742E-1,-8.631896973E-2,9.185791016E-3
9.713019242E0,-3.375244141E-1,-7.664489746E-2,4.409790039E-3
9.717993607E0,-3.183746338E-1,-7.099914551E-2,8.193969727E-3
9.722967973E0,-3.075256348E-1,-8.819580078E-2,1.918029785E-2
9.727942338E0,-3.012237549E-1,-1.241607666E-1,3.459167480E-2
9.732916703E0,-2.948608398E-1,-1.673126221E-1,5.702209473E-2
9.737891068E0,-2.859802246E-1,-2.061157227E-1,7.647705078E-2
9.742865434E0,-2.592773438E-1,-2.415161133E-1,9.724426270E-2
9.747839799E0,-2.098236084E-1,-2.773742676E-1,1.100921631E-1
9.752814164E0,-1.280059814E-1,-3.066711426E-1,1.297302246E-1
9.757788529E0,-1.856994629E-2,-3.271942139E-1,1.450195312E-1
9.762762894E0,1.027984619E-1,-3.490600586E-1,1.494750977E-1
9.767737260E0,2.185058594E-1,-3.629760742E-1,1.609497070E-1
9.772711625E0,3.076629639E-1,-3.600311279E-1,1.908874512E-1
9.777685990E0,3.588714600E-1,-3.324432373E-1,2.314147949E-1
9.782660355E0,3.818511963E-1,-2.914428711E-1,2.666778564E-1
9.787634721E0,3.982849121E-1,-2.346649170E-1,2.865447998E-1
9.792609086E0,4.377441406E-1,-1.408386230E-1,2.928924561E-1
9.797583451E0,5.148010254E-1,-2.758789062E-2,3.078918457E-1
9.802557816E0,6.219024658E-1,9.614562988E-2,3.483734131E-1
9.807532182E0,7.371368408E-1,2.193145752E-1,4.107360840E-1
9.812506547E0,8.378753662E-1,3.294067383E-1,4.824676514E-1
9.817480912E0,9.136962891E-1,4.140167236E-1,5.524444580E-1
9.822455277E0,9.692840576E-1,4.707794189E-1,6.191711426E-1
9.827429642E0,1.007186890E0,4.841003418E-1,6.750183105E-1
9.832404008E0,1.025253296E0,4.335479736E-1,7.174682617E-1
9.837378373E0,1.026733398E0,3.393402100E-1,7.335968018E-1
9.842352738E0,1.023040771E0,2.376708984E-1,7.097930908E-1
9.847327103E0,1.003616333E0,1.481628418E-1,6.552276611E-1
9.852301469E0,9.662933350E-1,7.838439941E-2,5.972747803E-1
9.857275834E0,9.082031250E-1,2.128601074E-2,5.647583008E-1
9.862250199E0,8.271484375E-1,-1.496887207E-2,5.653991699E-1
9.867224564E0,7.321166992E-1,-2.517700195E-2,5.924835205E-1
9.872198930E0,6.591186523E-1,-4.595947266E-2,6.345062256E-1
9.877173295E0,6.213836670E-1,-9.645080566E-2,6.820220947E-1
9.882147660E0,6.093292236E-1,-1.428985596E-1,7.235412598E-1
9.887122025E0,6.101074219E-1,-1.596832275E-1,7.447204590E-1
9.892096391E0,6.211853027E-1,-1.386413574E-1,7.389373779E-1
9.897070756E0,6.412811279E-1,-7.254028320E-2,7.073059082E-1
9.902045121E0,6.611633301E-1,3.771972656E-2,6.490478516E-1
9.907019486E0,6.768341064E-1,1.733245850E-1,5.733642578E-1
9.911993851E0,6.836853027E-1,3.097686768E-1,4.841613770E-1
9.916968217E0,6.832275391E-1,4.282684326E-1,3.885955811E-1
9.921942582E0,6.772003174E-1,5.336456299E-1,3.045349121E-1
9.926916947E0,6.782836914E-1,6.370849609E-1,2.377319336E-1
9.931891312E0,6.934204102E-1,7.410583496E-1,1.915893555E-1
9.936865678E0,7.221832275E-1,8.457183838E-1,1.635589600E-1
9.941840043E0,7.629394531E-1,9.318695068E-1,1.578674316E-1
9.946814408E0,7.966003418E-1,9.952850342E-1,1.787567139E-1
9.951788773E0,8.094329834E-1,1.043365479E0,2.028656006E-1
9.956763139E0,7.970733643E-1,1.093505859E0,2.238159180E-1
9.961737504E0,7.612915039E-1,1.146682739E0,2.322387695E-1
9.966711869E0,7.021789551E-1,1.201034546E0,2.313690186E-1
9.971686234E0,6.205444336E-1,1.262542725E0,2.212066650E-1
9.976660600E0,5.345458984E-1,1.321472168E0,1.918945312E-1
9.981634965E0,4.766998291E-1,1.356155396E0,1.590270996E-1
9.986609330E0,4.458007812E-1,1.376998901E0,1.484527588E-1
9.991583695E0,4.126129150E-1,1.389633179E0,1.757354736E-1
9.996558060E0,3.723602295E-1,1.369323730E0,2.275238037E-1
1.000153243E1,3.421173096E-1,1.296051025E0,2.778778076E-1
1.000650679E1,3.246459961E-1,1.194091797E0,3.190155029E-1
