Time (s),Acceleration x (m/s^2),Acceleration y (m/s^2),Acceleration z (m/s^2)
28.55,0.69,9.92,0.66
28.56,0.69,9.93,0.66
28.56,0.68,9.93,0.65
28.56,0.64,9.89,0.63
28.56,0.69,9.94,0.66
28.57,0.70,9.98,0.66
28.57,0.71,10.00,0.66
28.57,0.73,10.01,0.66
28.57,0.71,10.02,0.67
28.58,0.70,10.00,0.65
28.58,0.71,10.00,0.69
28.58,0.70,9.99,0.69
28.58,0.72,10.00,0.68
28.59,0.71,10.02,0.69
28.59,0.71,10.00,0.68
28.59,0.74,10.01,0.67
28.59,0.73,9.98,0.68
28.60,0.74,9.99,0.64
28.60,0.74,10.00,0.67
28.60,0.74,9.99,0.66
28.60,0.76,9.98,0.68
28.60,0.77,10.00,0.69
28.61,0.75,9.97,0.68
28.61,0.75,9.98,0.69
28.61,0.77,9.99,0.72
28.61,0.76,9.97,0.71
28.62,0.78,9.97,0.73
28.62,0.78,9.94,0.72
28.62,0.80,9.94,0.74
28.62,0.79,9.95,0.74
28.63,0.81,9.93,0.73
28.63,0.81,9.94,0.72
28.63,0.82,9.94,0.74
28.63,0.84,9.91,0.74
28.64,0.82,9.88,0.75
28.64,0.82,9.89,0.74
28.64,0.81,9.87,0.73
28.64,0.82,9.85,0.73
28.65,0.82,9.89,0.75
28.65,0.82,9.87,0.72
28.65,0.82,9.84,0.71
28.65,0.82,9.84,0.70
28.65,0.84,9.86,0.68
28.66,0.85,9.87,0.69
28.66,0.85,9.88,0.68
28.66,0.86,9.88,0.66
28.66,0.83,9.87,0.67
28.67,0.81,9.88,0.66
28.67,0.84,9.90,0.66
28.67,0.84,9.90,0.64
28.67,0.83,9.90,0.66
28.68,0.86,9.91,0.66
28.68,0.85,9.90,0.63
28.68,0.85,9.90,0.61
28.68,0.86,9.90,0.60
28.69,0.86,9.91,0.61
28.69,0.88,9.91,0.60
28.69,0.87,9.89,0.61
28.69,0.85,9.91,0.59
28.69,0.86,9.92,0.59
28.70,0.87,9.92,0.61
28.70,0.88,9.94,0.57
28.70,0.87,9.95,0.58
28.70,0.86,9.94,0.56
28.71,0.87,9.97,0.57
28.71,0.90,9.98,0.58
28.71,0.87,9.96,0.58
28.71,0.86,9.98,0.61
28.72,0.86,9.97,0.60
28.72,0.85,9.97,0.59
28.72,0.85,9.96,0.60
28.72,0.85,9.96,0.60
28.73,0.82,9.94,0.60
28.73,0.81,9.94,0.59
28.73,0.84,9.95,0.58
28.73,0.83,9.94,0.60
28.74,0.82,9.96,0.58
28.74,0.81,9.94,0.60
28.74,0.84,9.93,0.59
28.74,0.84,9.95,0.60
28.74,0.84,9.95,0.61
28.75,0.85,9.95,0.62
28.75,0.88,9.94,0.61
28.75,0.85,9.95,0.63
28.75,0.85,9.95,0.64
28.76,0.85,9.97,0.63
28.76,0.83,9.94,0.63
28.76,0.85,9.94,0.62
28.76,0.85,9.96,0.62
28.77,0.83,9.97,0.61
28.77,0.84,9.96,0.60
28.77,0.86,9.94,0.58
28.77,0.82,9.96,0.59
28.78,0.83,9.96,0.59
28.78,0.82,9.96,0.57
28.78,0.81,9.98,0.60
28.78,0.81,9.96,0.56
28.79,0.80,9.97,0.56
28.79,0.80,9.93,0.56
28.79,0.80,9.98,0.56
28.79,0.80,9.97,0.52
28.79,0.81,9.96,0.53
28.80,0.81,9.99,0.53
28.80,0.82,9.98,0.53
28.80,0.82,9.99,0.52
28.80,0.81,10.00,0.51
28.81,0.80,9.97,0.51
28.81,0.81,9.96,0.50
28.81,0.81,9.97,0.48
28.81,0.80,9.97,0.45
28.82,0.80,9.95,0.49
28.82,0.80,9.94,0.46
28.82,0.79,9.95,0.47
28.82,0.80,9.95,0.46
28.83,0.81,9.95,0.45
28.83,0.79,9.95,0.44
28.83,0.78,9.94,0.45
28.83,0.79,9.96,0.43
28.84,0.80,9.94,0.41
28.84,0.79,9.94,0.42
28.84,0.77,9.93,0.43
28.84,0.78,9.95,0.44
28.84,0.76,9.97,0.46
28.85,0.76,9.95,0.44
28.85,0.76,9.95,0.44
28.85,0.77,9.94,0.44
28.85,0.77,9.95,0.42
28.86,0.79,9.95,0.43
28.86,0.79,9.96,0.43
28.86,0.80,9.95,0.42
28.86,0.80,9.97,0.43
28.87,0.82,9.98,0.42
28.87,0.81,9.99,0.41
28.87,0.83,10.00,0.41
28.87,0.82,10.00,0.40
28.88,0.81,10.02,0.39
28.88,0.86,10.04,0.39
28.88,0.84,10.04,0.39
28.88,0.83,10.03,0.39
28.88,0.84,10.02,0.40
28.89,0.84,10.01,0.40
28.89,0.84,10.01,0.39
28.89,0.83,9.98,0.38
28.89,0.84,9.98,0.40
28.90,0.83,9.96,0.40
28.90,0.81,9.96,0.43
28.90,0.80,9.94,0.42
28.90,0.80,9.95,0.41
28.91,0.77,9.92,0.42
28.91,0.77,9.92,0.44
28.91,0.74,9.91,0.45
28.91,0.74,9.92,0.45
28.92,0.73,9.91,0.43
28.92,0.72,9.93,0.43
28.92,0.71,9.91,0.43
28.92,0.72,9.94,0.41
28.93,0.70,9.92,0.41
28.93,0.69,9.92,0.41
28.93,0.70,9.95,0.40
28.93,0.70,9.95,0.40
28.93,0.69,9.95,0.38
28.94,0.67,9.95,0.37
28.94,0.66,9.95,0.39
28.94,0.65,9.96,0.39
28.94,0.66,9.98,0.39
28.95,0.69,9.99,0.35
28.95,0.70,10.00,0.34
28.95,0.69,10.00,0.34
28.95,0.68,9.99,0.33
28.96,0.67,10.00,0.36
28.96,0.66,10.00,0.32
28.96,0.68,10.00,0.32
28.96,0.67,10.00,0.29
28.97,0.67,9.99,0.30
28.97,0.68,9.97,0.29
28.97,0.66,10.00,0.29
28.97,0.65,9.99,0.28
28.98,0.66,9.98,0.29
28.98,0.66,9.99,0.28
28.98,0.67,9.99,0.27
28.98,0.65,10.01,0.28
28.98,0.64,9.98,0.27
28.99,0.65,10.00,0.29
28.99,0.67,9.99,0.28
28.99,0.67,9.98,0.26
28.99,0.66,9.98,0.28
29.00,0.65,9.98,0.27
29.00,0.67,9.94,0.29
29.00,0.67,9.95,0.30
29.00,0.69,9.96,0.31
29.01,0.69,9.93,0.33
29.01,0.72,9.91,0.33
29.01,0.72,9.90,0.33
29.01,0.73,9.89,0.35
29.02,0.74,9.90,0.34
29.02,0.75,9.91,0.34
29.02,0.77,9.90,0.33
29.02,0.74,9.90,0.33
29.03,0.77,9.89,0.37
29.03,0.79,9.89,0.36
29.03,0.81,9.87,0.35
29.03,0.82,9.87,0.35
29.03,0.81,9.88,0.33
29.04,0.83,9.90,0.32
29.04,0.86,9.88,0.33
29.04,0.86,9.91,0.32
29.04,0.86,9.91,0.32
29.05,0.89,9.92,0.32
29.05,0.90,9.93,0.33
29.05,0.90,9.92,0.29
29.05,0.89,9.93,0.30
29.06,0.90,9.93,0.29
29.06,0.92,9.93,0.28
29.06,0.92,9.92,0.26
29.06,0.91,9.97,0.28
29.07,0.92,9.95,0.26
29.07,0.92,9.96,0.25
29.07,0.93,9.95,0.24
29.07,0.93,9.97,0.25
29.08,0.91,9.99,0.25
29.08,0.91,9.97,0.24
29.08,0.92,9.97,0.22
29.08,0.91,9.98,0.23
29.08,0.88,9.97,0.22
29.09,0.90,9.95,0.21
29.09,0.90,9.97,0.20
29.09,0.90,9.95,0.20
29.09,0.86,9.94,0.20
29.10,0.87,9.95,0.20
29.10,0.84,9.97,0.21
29.10,0.85,9.94,0.21
29.10,0.85,9.93,0.20
29.11,0.84,9.94,0.21
29.11,0.84,9.94,0.22
29.11,0.81,9.91,0.26
29.11,0.80,9.93,0.23
29.12,0.81,9.93,0.21
29.12,0.81,9.92,0.23
29.12,0.79,9.94,0.25
29.12,0.80,9.94,0.25
29.12,0.80,9.94,0.26
29.13,0.81,9.94,0.24
29.13,0.81,9.94,0.25
29.13,0.81,9.93,0.24
29.13,0.78,9.94,0.27
29.14,0.79,9.93,0.25
29.14,0.79,9.94,0.26
29.14,0.81,9.91,0.27
29.14,0.81,9.93,0.27
29.15,0.79,9.90,0.28
29.15,0.80,9.93,0.26
29.15,0.78,9.91,0.27
29.15,0.78,9.91,0.29
29.16,0.80,9.95,0.30
29.16,0.79,9.93,0.28
29.16,0.79,9.95,0.31
29.16,0.77,9.93,0.31
29.17,0.76,9.93,0.30
29.17,0.78,9.94,0.30
29.17,0.77,9.94,0.31
29.17,0.75,9.95,0.31
29.17,0.76,9.96,0.32
29.18,0.77,9.95,0.34
29.18,0.78,9.97,0.32
29.18,0.79,9.95,0.35
29.18,0.76,9.98,0.32
29.19,0.76,9.98,0.31
29.19,0.75,9.96,0.32
29.19,0.76,9.97,0.32
29.19,0.77,9.97,0.30
29.20,0.78,9.95,0.32
29.20,0.81,9.96,0.35
29.20,0.80,9.97,0.31
29.20,0.81,9.97,0.34
29.21,0.81,9.95,0.32
29.21,0.82,9.97,0.32
29.21,0.82,9.95,0.30
29.21,0.79,9.95,0.29
29.22,0.83,9.94,0.27
29.22,0.85,9.89,0.27
29.22,0.83,9.93,0.26
29.22,0.85,9.91,0.27
29.22,0.85,9.91,0.25
29.23,0.86,9.89,0.24
29.23,0.87,9.90,0.22
29.23,0.84,9.92,0.23
29.23,0.84,9.92,0.21
29.24,0.84,9.91,0.19
29.24,0.83,9.91,0.22
29.24,0.84,9.91,0.22
29.24,0.82,9.90,0.19
29.25,0.83,9.89,0.21
29.25,0.81,9.89,0.23
29.25,0.80,9.88,0.25
29.25,0.79,9.85,0.26
29.26,0.77,9.88,0.26
29.26,0.75,9.86,0.31
29.26,0.74,9.85,0.31
29.26,0.72,9.85,0.32
29.27,0.71,9.86,0.33
29.27,0.69,9.85,0.37
29.27,0.67,9.88,0.36
29.27,0.66,9.84,0.37
29.27,0.65,9.84,0.37
29.28,0.64,9.85,0.36
29.28,0.64,9.85,0.37
29.28,0.64,9.85,0.38
29.28,0.62,9.86,0.38
29.29,0.65,9.87,0.38
29.29,0.65,9.88,0.38
29.29,0.64,9.85,0.37
29.29,0.64,9.88,0.36
29.30,0.65,9.89,0.39
29.30,0.65,9.87,0.39
29.30,0.64,9.90,0.38
29.30,0.66,9.89,0.41
29.31,0.67,9.91,0.38
29.31,0.68,9.92,0.39
29.31,0.67,9.93,0.39
29.31,0.68,9.93,0.40
29.32,0.70,9.94,0.38
29.32,0.71,9.96,0.40
29.32,0.73,9.98,0.39
29.32,0.71,9.97,0.41
29.32,0.71,9.97,0.40
29.33,0.74,9.98,0.39
29.33,0.74,9.99,0.38
29.33,0.76,9.98,0.39
29.33,0.76,9.99,0.38
29.34,0.79,9.98,0.38
29.34,0.78,9.99,0.37
29.34,0.77,9.97,0.38
29.34,0.80,9.98,0.38
29.35,0.80,9.97,0.37
29.35,0.80,9.97,0.36
29.35,0.79,9.98,0.37
29.35,0.79,9.96,0.34
29.36,0.77,9.95,0.35
29.36,0.79,9.94,0.37
29.36,0.79,9.96,0.37
29.36,0.79,9.94,0.35
29.36,0.80,9.92,0.34
29.37,0.82,9.94,0.36
29.37,0.81,9.93,0.35
29.37,0.83,9.92,0.36
29.37,0.82,9.94,0.36
29.38,0.83,9.93,0.36
29.38,0.81,9.93,0.37
29.38,0.81,9.94,0.36
29.38,0.83,9.92,0.36
29.39,0.82,9.93,0.35
29.39,0.83,9.95,0.32
29.39,0.82,9.94,0.34
29.39,0.85,9.96,0.33
29.40,0.82,9.94,0.34
29.40,0.79,9.97,0.31
29.40,0.80,9.95,0.31
29.40,0.81,9.93,0.33
29.41,0.81,9.96,0.31
29.41,0.81,9.98,0.31
29.41,0.81,9.97,0.27
29.41,0.81,9.98,0.31
29.41,0.79,9.99,0.29
29.42,0.77,9.98,0.28
29.42,0.79,9.98,0.29
29.42,0.80,9.97,0.26
29.42,0.79,9.97,0.25
29.43,0.78,10.00,0.25
29.43,0.79,9.98,0.24
29.43,0.82,10.00,0.22
29.43,0.80,10.00,0.22
29.44,0.82,10.01,0.23
29.44,0.81,10.00,0.21
29.44,0.81,10.00,0.22
29.44,0.81,10.01,0.22
29.45,0.79,10.02,0.23
29.45,0.81,10.02,0.22
29.45,0.79,10.03,0.23
29.45,0.80,10.00,0.22
29.46,0.79,10.03,0.24
29.46,0.76,10.03,0.22
29.46,0.76,10.03,0.23
29.46,0.78,10.03,0.24
29.46,0.77,10.03,0.23
29.47,0.77,10.01,0.23
29.47,0.76,10.02,0.24
29.47,0.78,10.01,0.23
29.47,0.75,10.03,0.23
29.48,0.76,10.00,0.25
29.48,0.75,9.99,0.25
29.48,0.75,10.01,0.26
29.48,0.74,10.01,0.23
29.49,0.74,10.00,0.26
29.49,0.72,10.02,0.24
29.49,0.72,10.01,0.25
29.49,0.72,10.00,0.27
29.50,0.72,9.98,0.27
29.50,0.72,9.99,0.28
29.50,0.71,10.02,0.25
29.50,0.72,10.02,0.27
29.51,0.73,9.99,0.27
29.51,0.72,10.01,0.26
29.51,0.72,10.01,0.25
29.51,0.72,9.99,0.25
29.51,0.72,9.98,0.25
29.52,0.72,10.01,0.26
29.52,0.71,10.00,0.26
29.52,0.71,10.01,0.25
29.52,0.71,10.02,0.27
29.53,0.68,10.00,0.29
29.53,0.63,10.00,0.30
29.53,0.69,10.02,0.28
29.53,0.73,9.99,0.26
29.54,0.72,10.00,0.23
29.54,0.70,10.00,0.23
29.54,0.69,9.98,0.22
29.54,0.68,9.99,0.23
29.55,0.68,9.97,0.23
29.55,0.66,9.98,0.21
29.55,0.66,9.98,0.21
29.55,0.64,9.97,0.23
29.55,0.65,9.99,0.23
29.56,0.67,9.98,0.20
29.56,0.67,10.00,0.22
29.56,0.65,10.00,0.19
29.56,0.65,9.98,0.21
29.57,0.68,9.99,0.21
29.57,0.65,10.00,0.22
29.57,0.67,9.99,0.22
29.57,0.66,9.98,0.23
29.58,0.65,9.99,0.24
29.58,0.66,9.99,0.23
29.58,0.67,9.98,0.21
29.58,0.68,9.98,0.22
29.59,0.69,9.97,0.24
29.59,0.70,9.97,0.23
29.59,0.68,9.97,0.26
29.59,0.71,9.97,0.27
29.60,0.71,9.97,0.24
29.60,0.71,9.96,0.25
29.60,0.70,9.93,0.26
29.60,0.72,9.96,0.25
29.60,0.73,9.97,0.23
29.61,0.74,9.95,0.24
29.61,0.74,9.96,0.23
29.61,0.74,9.96,0.23
29.61,0.72,9.97,0.23
29.62,0.71,9.96,0.22
29.62,0.71,9.93,0.23
29.62,0.72,9.94,0.22
29.62,0.75,9.93,0.21
29.63,0.76,9.93,0.23
29.63,0.74,9.92,0.23
29.63,0.71,9.94,0.21
29.63,0.70,9.93,0.22
29.64,0.69,9.92,0.20
29.64,0.72,9.93,0.20
29.64,0.71,9.93,0.19
29.64,0.71,9.94,0.20
29.65,0.71,9.93,0.21
29.65,0.71,9.93,0.20
29.65,0.72,9.94,0.20
29.65,0.72,9.94,0.20
29.65,0.72,9.92,0.20
29.66,0.72,9.94,0.20
29.66,0.73,9.96,0.19
29.66,0.72,9.93,0.21
29.66,0.72,9.93,0.21
29.67,0.68,9.93,0.23
29.67,0.68,9.94,0.21
29.67,0.70,9.93,0.23
29.67,0.72,9.94,0.24
29.68,0.74,9.94,0.20
29.68,0.72,9.91,0.21
29.68,0.71,9.92,0.20
29.68,0.73,9.92,0.21
29.69,0.71,9.92,0.20
29.69,0.70,9.90,0.22
29.69,0.67,9.90,0.21
29.69,0.69,9.90,0.20
29.70,0.70,9.91,0.19
29.70,0.67,9.89,0.20
29.70,0.67,9.89,0.20
29.70,0.66,9.89,0.18
29.70,0.69,9.91,0.20
29.71,0.70,9.92,0.17
29.71,0.69,9.90,0.17
29.71,0.68,9.90,0.17
29.71,0.67,9.90,0.19
29.72,0.70,9.91,0.17
29.72,0.70,9.91,0.20
29.72,0.72,9.93,0.20
29.72,0.74,9.93,0.20
29.73,0.76,9.95,0.20
29.73,0.75,9.94,0.19
29.73,0.75,9.94,0.21
29.73,0.75,9.94,0.21
29.74,0.75,9.93,0.22
29.74,0.75,9.95,0.22
29.74,0.77,9.94,0.21
29.74,0.78,9.94,0.19
29.75,0.76,9.95,0.20
29.75,0.75,9.92,0.20
29.75,0.77,9.91,0.20
29.75,0.77,9.91,0.22
29.75,0.76,9.91,0.23
29.76,0.77,9.91,0.23
29.76,0.75,9.92,0.24
29.76,0.74,9.90,0.21
29.76,0.74,9.91,0.22
29.77,0.73,9.88,0.22
29.77,0.73,9.89,0.23
29.77,0.70,9.91,0.23
29.77,0.70,9.88,0.26
29.78,0.69,9.89,0.24
29.78,0.72,9.89,0.21
29.78,0.70,9.91,0.22
29.78,0.69,9.89,0.22
29.79,0.69,9.92,0.24
29.79,0.67,9.92,0.23
29.79,0.66,9.94,0.24
29.79,0.65,9.92,0.24
29.79,0.63,9.94,0.26
29.80,0.63,9.94,0.24
29.80,0.62,9.95,0.26
29.80,0.61,9.94,0.28
29.80,0.59,9.93,0.27
29.81,0.59,9.95,0.28
29.81,0.60,9.94,0.29
29.81,0.59,9.94,0.27
29.81,0.60,9.97,0.26
29.82,0.61,9.96,0.23
29.82,0.61,9.97,0.22
29.82,0.61,9.98,0.20
29.82,0.60,9.99,0.20
29.83,0.60,10.01,0.20
29.83,0.58,10.00,0.19
29.83,0.58,9.99,0.21
29.83,0.57,10.00,0.21
29.84,0.57,10.01,0.24
29.84,0.55,10.01,0.24
29.84,0.54,10.02,0.26
29.84,0.51,10.03,0.27
29.84,0.54,10.04,0.26
29.85,0.52,10.04,0.27
29.85,0.52,10.05,0.26
29.85,0.54,10.05,0.28
29.85,0.53,10.09,0.26
29.86,0.54,10.06,0.25
29.86,0.53,10.05,0.28
29.86,0.53,10.08,0.26
29.86,0.53,10.11,0.25
29.87,0.55,10.08,0.24
29.87,0.54,10.08,0.25
29.87,0.54,10.09,0.24
29.87,0.54,10.10,0.23
29.88,0.54,10.09,0.25
29.88,0.55,10.08,0.25
29.88,0.55,10.08,0.21
29.88,0.56,10.07,0.23
29.89,0.57,10.07,0.22
29.89,0.57,10.06,0.21
29.89,0.57,10.05,0.18
29.89,0.56,10.05,0.23
29.89,0.57,10.03,0.18
29.90,0.57,10.04,0.16
29.90,0.55,10.03,0.18
29.90,0.56,10.01,0.15
29.90,0.57,10.03,0.15
29.91,0.57,10.02,0.15
29.91,0.57,9.98,0.15
29.91,0.58,9.99,0.12
29.91,0.59,10.00,0.14
29.92,0.59,9.97,0.10
29.92,0.61,9.97,0.08
29.92,0.61,9.97,0.08
29.92,0.63,9.98,0.09
29.93,0.62,9.98,0.08
29.93,0.63,9.99,0.05
29.93,0.64,9.96,0.07
29.93,0.66,9.98,0.05
29.94,0.69,10.00,0.05
29.94,0.70,9.98,0.04
29.94,0.70,9.99,0.03
29.94,0.70,9.98,0.02
29.94,0.73,9.98,0.01
29.95,0.72,9.98,0.03
29.95,0.73,9.98,0.03
29.95,0.74,9.96,0.04
29.95,0.75,9.97,0.00
29.96,0.77,9.96,0.02
29.96,0.77,9.95,0.04
29.96,0.77,9.97,0.04
29.96,0.79,9.96,0.05
29.97,0.81,9.98,0.04
29.97,0.80,9.96,0.06
29.97,0.81,9.96,0.05
29.97,0.81,9.95,0.08
29.98,0.79,9.96,0.04
29.98,0.81,9.97,0.08
29.98,0.81,9.94,0.08
29.98,0.79,9.97,0.09
29.98,0.81,9.97,0.08
29.99,0.81,9.94,0.12
29.99,0.81,9.94,0.10
29.99,0.80,9.94,0.10
29.99,0.80,9.94,0.12
30.00,0.80,9.94,0.11
30.00,0.76,9.94,0.10
30.00,0.77,9.92,0.11
30.00,0.76,9.92,0.13
30.01,0.76,9.94,0.12
30.01,0.75,9.92,0.12
30.01,0.76,9.94,0.13
30.01,0.75,9.92,0.12
30.02,0.76,9.95,0.14
30.02,0.73,9.95,0.12
30.02,0.74,9.96,0.12
30.02,0.72,9.96,0.12
30.03,0.72,9.94,0.14
30.03,0.69,9.94,0.15
30.03,0.69,9.94,0.11
30.03,0.70,9.95,0.15
30.03,0.70,9.95,0.15
30.04,0.68,9.94,0.14
30.04,0.70,9.93,0.14
30.04,0.68,9.94,0.14
30.04,0.67,9.96,0.14
30.05,0.67,9.98,0.13
30.05,0.66,9.98,0.12
30.05,0.66,9.96,0.13
30.05,0.67,9.96,0.13
30.06,0.67,9.96,0.14
30.06,0.64,9.96,0.12
30.06,0.65,9.97,0.13
30.06,0.65,9.97,0.12
30.07,0.63,9.98,0.10
30.07,0.62,10.00,0.12
30.07,0.61,10.02,0.10
30.07,0.64,10.01,0.11
30.08,0.61,10.01,0.09
30.08,0.62,10.00,0.10
30.08,0.62,10.01,0.11
30.08,0.61,10.02,0.09
30.08,0.61,10.01,0.08
30.09,0.62,10.02,0.08
30.09,0.60,10.02,0.07
30.09,0.60,10.02,0.09
30.09,0.60,10.02,0.08
30.10,0.60,10.01,0.04
30.10,0.60,10.03,0.04
30.10,0.59,10.02,0.03
30.10,0.58,10.01,0.05
30.11,0.60,10.00,0.07
30.11,0.59,9.97,0.06
30.11,0.59,10.01,0.04
30.11,0.60,9.97,0.06
30.12,0.60,9.99,0.05
30.12,0.63,9.99,0.06
30.12,0.62,9.98,0.06
30.12,0.63,9.96,0.06
30.13,0.63,9.95,0.06
30.13,0.60,9.96,0.07
30.13,0.57,9.94,0.06
30.13,0.62,9.94,0.05
30.13,0.63,9.93,0.06
30.14,0.63,9.93,0.06
30.14,0.64,9.92,0.08
30.14,0.63,9.91,0.06
30.14,0.64,9.93,0.06
30.15,0.65,9.90,0.08
30.15,0.66,9.93,0.08
30.15,0.67,9.89,0.10
30.15,0.65,9.90,0.11
30.16,0.64,9.88,0.10
30.16,0.69,9.89,0.09
30.16,0.68,9.90,0.08
30.16,0.68,9.89,0.08
30.17,0.70,9.90,0.11
30.17,0.70,9.92,0.11
30.17,0.71,9.88,0.09
30.17,0.71,9.88,0.10
30.18,0.70,9.88,0.09
30.18,0.69,9.87,0.10
30.18,0.69,9.87,0.10
30.18,0.69,9.87,0.09
30.18,0.65,9.84,0.09
30.19,0.68,9.83,0.09
30.19,0.72,9.87,0.11
30.19,0.71,9.89,0.09
30.19,0.70,9.87,0.10
30.20,0.68,9.86,0.10
30.20,0.68,9.87,0.11
30.20,0.68,9.87,0.10
30.20,0.69,9.86,0.12
30.21,0.69,9.88,0.09
30.21,0.69,9.88,0.06
30.21,0.70,9.87,0.08
30.21,0.71,9.88,0.05
30.22,0.70,9.88,0.05
30.22,0.73,9.89,0.03
30.22,0.71,9.90,0.07
30.22,0.70,9.89,0.06
30.22,0.72,9.91,0.06
30.23,0.71,9.90,0.07
30.23,0.72,9.92,0.05
30.23,0.72,9.91,0.08
30.23,0.74,9.91,0.07
30.24,0.73,9.92,0.07
30.24,0.75,9.92,0.06
30.24,0.75,9.91,0.06
30.24,0.74,9.90,0.09
30.25,0.73,9.90,0.08
30.25,0.75,9.89,0.07
30.25,0.75,9.90,0.08
30.25,0.75,9.91,0.09
30.26,0.74,9.89,0.08
30.26,0.74,9.91,0.11
30.26,0.73,9.91,0.10
30.26,0.72,9.91,0.10
30.27,0.75,9.92,0.11
30.27,0.74,9.94,0.11
30.27,0.73,9.95,0.13
30.27,0.71,9.94,0.12
30.27,0.72,9.95,0.13
30.28,0.70,9.94,0.10
30.28,0.71,9.97,0.11
30.28,0.71,9.96,0.10
30.28,0.68,9.96,0.11
30.29,0.68,9.95,0.10
30.29,0.67,9.96,0.13
30.29,0.67,9.96,0.12
30.29,0.68,9.96,0.13
30.30,0.69,9.96,0.14
30.30,0.65,9.95,0.13
30.30,0.65,9.95,0.13
30.30,0.67,9.95,0.12
30.31,0.63,9.98,0.13
30.31,0.65,9.98,0.13
30.31,0.64,9.99,0.16
30.31,0.66,9.98,0.14
30.32,0.65,9.97,0.12
30.32,0.65,9.99,0.14
30.32,0.64,9.98,0.14
30.32,0.64,9.98,0.16
30.32,0.66,9.99,0.15
30.33,0.67,9.99,0.16
30.33,0.66,9.97,0.18
30.33,0.66,9.98,0.17
30.33,0.66,9.97,0.18
30.34,0.67,9.96,0.18
30.34,0.64,9.96,0.17
30.34,0.64,9.94,0.16
30.34,0.65,9.96,0.18
30.35,0.65,9.94,0.17
30.35,0.65,9.92,0.18
30.35,0.65,9.93,0.18
30.35,0.62,9.91,0.18
30.36,0.64,9.91,0.17
30.36,0.62,9.90,0.20
30.36,0.61,9.89,0.18
30.36,0.59,9.89,0.17
30.37,0.59,9.87,0.17
30.37,0.59,9.86,0.20
30.37,0.59,9.85,0.21
30.37,0.59,9.84,0.18
30.37,0.59,9.84,0.18
30.38,0.57,9.85,0.21
30.38,0.59,9.85,0.21
30.38,0.58,9.85,0.20
30.38,0.60,9.82,0.21
30.39,0.57,9.82,0.21
30.39,0.60,9.81,0.21
30.39,0.60,9.81,0.21
30.39,0.61,9.82,0.22
30.40,0.60,9.80,0.22
30.40,0.59,9.78,0.24
30.40,0.62,9.81,0.22
30.40,0.59,9.78,0.26
30.41,0.61,9.79,0.25
30.41,0.61,9.78,0.25
30.41,0.63,9.78,0.25
30.41,0.64,9.80,0.25
30.41,0.64,9.79,0.29
30.42,0.65,9.80,0.28
30.42,0.63,9.75,0.28
30.42,0.62,9.74,0.31
30.42,0.63,9.75,0.32
30.43,0.66,9.76,0.31
30.43,0.65,9.78,0.34
30.43,0.68,9.77,0.35
30.43,0.67,9.78,0.35
30.44,0.64,9.78,0.35
30.44,0.66,9.78,0.35
30.44,0.64,9.76,0.32
30.44,0.64,9.80,0.35
30.45,0.65,9.78,0.37
30.45,0.66,9.81,0.38
30.45,0.64,9.80,0.36
30.45,0.64,9.82,0.36
30.46,0.63,9.83,0.34
30.46,0.63,9.84,0.34
30.46,0.61,9.83,0.34
30.46,0.60,9.84,0.33
30.46,0.62,9.84,0.30
30.47,0.61,9.84,0.32
30.47,0.62,9.84,0.29
30.47,0.60,9.89,0.26
30.47,0.63,9.90,0.26
30.48,0.65,9.89,0.24
30.48,0.66,9.92,0.25
30.48,0.64,9.89,0.21
30.48,0.67,9.91,0.19
30.49,0.68,9.91,0.17
30.49,0.71,9.89,0.15
30.49,0.74,9.91,0.13
30.49,0.75,9.95,0.12
30.50,0.76,9.92,0.13
30.50,0.79,9.93,0.15
30.50,0.81,9.95,0.16
30.50,0.82,9.95,0.19
30.51,0.85,9.94,0.19
30.51,0.85,9.94,0.22
30.51,0.83,9.93,0.23
30.51,0.84,9.96,0.24
30.51,0.88,9.96,0.26
30.52,0.87,9.93,0.29
30.52,0.85,9.94,0.34
30.52,0.79,9.92,0.37
30.52,0.73,9.91,0.42
30.53,0.79,9.91,0.38
30.53,0.86,9.92,0.34
30.53,0.88,9.95,0.35
30.53,0.89,9.95,0.36
30.54,0.88,9.95,0.41
30.54,0.85,9.99,0.42
30.54,0.82,9.99,0.43
30.54,0.80,10.00,0.44
30.55,0.78,10.01,0.43
30.55,0.76,10.00,0.45
30.55,0.70,10.05,0.43
30.55,0.69,10.04,0.46
30.56,0.62,10.06,0.45
30.56,0.58,10.07,0.45
30.56,0.52,10.08,0.48
30.56,0.51,10.08,0.46
30.56,0.50,10.09,0.44
30.57,0.50,10.11,0.44
30.57,0.50,10.14,0.43
30.57,0.51,10.15,0.42
30.57,0.48,10.16,0.44
30.58,0.47,10.14,0.42
30.58,0.48,10.15,0.45
30.58,0.46,10.12,0.43
30.58,0.43,10.12,0.44
30.59,0.43,10.09,0.46
30.59,0.40,10.07,0.43
30.59,0.36,10.06,0.43
30.59,0.35,10.03,0.43
30.60,0.32,10.03,0.43
30.60,0.31,10.03,0.44
30.60,0.33,10.05,0.45
30.60,0.31,10.00,0.45
30.61,0.30,9.98,0.44
30.61,0.26,9.93,0.46
30.61,0.24,9.93,0.47
30.61,0.23,9.89,0.50
30.61,0.21,9.86,0.54
30.62,0.19,9.81,0.57
30.62,0.18,9.83,0.62
30.62,0.17,9.78,0.65
30.62,0.16,9.77,0.75
30.63,0.18,9.73,0.83
30.63,0.18,9.69,0.90
30.63,0.19,9.68,0.97
30.63,0.20,9.67,1.06
30.64,0.18,9.65,1.19
30.64,0.13,9.65,1.30
30.64,0.13,9.66,1.43
30.64,0.13,9.67,1.48
30.65,0.11,9.72,1.39
30.65,0.21,9.71,1.11
30.65,0.30,9.65,0.90
30.65,0.28,9.58,0.85
30.65,0.11,9.52,1.00
30.66,-0.11,9.48,1.18
30.66,-0.33,9.45,1.38
30.66,-0.44,9.41,1.53
30.66,-0.43,9.43,1.59
30.67,-0.43,9.43,1.66
30.67,-0.39,9.50,1.75
30.67,-0.34,9.60,1.78
30.67,-0.26,9.75,1.75
30.68,-0.18,9.96,1.71
30.68,-0.40,9.87,1.73
30.68,-0.50,9.74,1.89
30.68,-0.43,9.77,1.89
30.69,-0.32,9.83,1.86
30.69,-0.19,9.99,1.73
30.69,-0.11,10.13,1.59
30.69,-0.08,10.20,1.40
30.70,-0.09,10.23,1.30
30.70,-0.15,10.28,1.32
30.70,-0.21,10.37,1.37
30.70,-0.27,10.40,1.40
30.70,-0.28,10.42,1.42
30.71,-0.25,10.45,1.42
30.71,-0.20,10.51,1.45
30.71,-0.16,10.56,1.49
30.71,-0.14,10.64,1.51
30.72,-0.14,10.69,1.50
30.72,-0.17,10.72,1.54
30.72,-0.15,10.75,1.59
30.72,-0.07,10.80,1.59
30.73,0.02,10.81,1.63
30.73,0.11,10.79,1.64
30.73,0.17,10.77,1.66
30.73,0.18,10.77,1.69
30.74,0.21,10.74,1.72
30.74,0.24,10.76,1.75
30.74,0.22,10.70,1.72
30.74,0.26,10.68,1.71
30.75,0.29,10.64,1.73
30.75,0.31,10.63,1.75
30.75,0.26,10.61,1.78
30.75,0.20,10.56,1.84
30.75,0.13,10.51,1.86
30.76,0.08,10.45,1.88
30.76,0.02,10.38,1.89
30.76,0.00,10.34,1.93
30.76,0.01,10.31,1.93
30.77,0.03,10.30,1.93
30.77,-0.01,10.28,1.90
30.77,-0.05,10.26,1.93
30.77,-0.09,10.30,1.94
30.78,-0.17,10.30,1.99
30.78,-0.26,10.23,2.02
30.78,-0.30,10.15,2.04
30.78,-0.29,10.09,2.09
30.79,-0.30,10.02,2.11
30.79,-0.28,9.96,2.10
30.79,-0.26,9.98,2.10
30.79,-0.36,9.93,2.12
30.80,-0.37,9.91,2.17
30.80,-0.35,9.85,2.21
30.80,-0.38,9.84,2.29
30.80,-0.31,9.84,2.34
30.80,-0.21,9.87,2.38
30.81,-0.16,9.85,2.41
30.81,-0.16,9.83,2.48
30.81,-0.24,9.82,2.52
30.81,-0.30,9.85,2.56
30.82,-0.38,9.82,2.60
30.82,-0.44,9.80,2.64
30.82,-0.48,9.80,2.68
30.82,-0.47,9.77,2.73
30.83,-0.49,9.75,2.75
30.83,-0.51,9.73,2.78
30.83,-0.47,9.75,2.76
30.83,-0.47,9.77,2.76
30.84,-0.50,9.70,2.79
30.84,-0.60,9.57,2.83
30.84,-0.68,9.50,2.80
30.84,-0.73,9.46,2.78
30.84,-0.75,9.42,2.73
30.85,-0.80,9.39,2.71
30.85,-0.81,9.37,2.69
30.85,-0.76,9.37,2.68
30.85,-0.78,9.35,2.67
30.86,-0.84,9.31,2.69
30.86,-0.87,9.28,2.70
30.86,-0.92,9.24,2.64
30.86,-0.94,9.21,2.64
30.87,-0.98,9.20,2.64
30.87,-1.09,9.19,2.70
30.87,-1.17,9.18,2.80
30.87,-1.21,9.16,2.89
30.88,-1.26,9.15,2.95
30.88,-1.31,9.12,2.99
30.88,-1.30,9.13,3.03
30.88,-1.27,9.12,3.08
30.89,-1.29,9.13,3.11
30.89,-1.27,9.10,3.10
30.89,-1.26,9.11,3.13
30.89,-1.29,9.11,3.13
30.89,-1.38,9.10,3.03
30.90,-1.44,9.10,2.93
30.90,-1.39,9.12,3.10
30.90,-1.26,9.06,3.28
30.90,-1.19,9.06,3.40
30.91,-1.16,9.05,3.47
30.91,-1.13,9.05,3.55
30.91,-1.20,9.04,3.57
30.91,-1.23,9.01,3.55
30.92,-1.20,9.02,3.49
30.92,-1.19,8.98,3.50
30.92,-1.26,8.93,3.46
30.92,-1.33,8.91,3.45
30.93,-1.38,8.85,3.48
30.93,-1.38,8.82,3.53
30.93,-1.37,8.81,3.54
30.93,-1.41,8.80,3.56
30.94,-1.47,8.80,3.60
30.94,-1.48,8.80,3.59
30.94,-1.51,8.78,3.56
30.94,-1.57,8.74,3.57
30.94,-1.53,8.75,3.60
30.95,-1.38,8.75,3.61
30.95,-1.37,8.71,3.64
30.95,-1.39,8.68,3.62
30.95,-1.45,8.64,3.59
30.96,-1.49,8.63,3.60
30.96,-1.56,8.65,3.57
30.96,-1.59,8.65,3.59
30.96,-1.67,8.69,3.62
30.97,-1.73,8.71,3.58
30.97,-1.77,8.73,3.64
30.97,-1.72,8.80,3.69
30.97,-1.71,8.81,3.78
30.98,-1.75,8.84,3.88
30.98,-1.80,8.88,3.94
30.98,-1.73,8.90,3.94
30.98,-1.79,8.83,3.99
30.99,-1.84,8.89,4.07
30.99,-1.79,8.97,4.11
30.99,-1.72,8.98,4.17
30.99,-1.74,9.02,4.17
30.99,-1.76,9.03,4.18
31.00,-1.78,9.04,4.14
31.00,-1.85,9.00,4.12
31.00,-1.89,8.95,4.10
31.00,-1.90,8.99,4.09
31.01,-1.97,8.97,4.10
31.01,-2.07,8.89,4.09
31.01,-2.09,8.94,4.14
31.01,-2.06,8.91,4.12
31.02,-2.10,8.84,4.07
31.02,-2.15,8.79,4.04
31.02,-2.24,8.72,3.99
31.02,-2.32,8.64,3.99
31.03,-2.38,8.59,4.00
31.03,-2.33,8.55,3.99
31.03,-2.40,8.50,4.01
31.03,-2.50,8.46,4.06
31.04,-2.37,8.41,4.17
31.04,-2.29,8.43,4.25
31.04,-2.27,8.41,4.29
31.04,-2.22,8.42,4.26
31.04,-2.07,8.50,4.18
31.05,-1.99,8.56,4.24
31.05,-2.01,8.56,4.34
31.05,-2.05,8.56,4.39
31.05,-2.04,8.54,4.45
31.06,-2.09,8.49,4.54
31.06,-2.14,8.53,4.57
31.06,-2.15,8.54,4.66
31.06,-2.20,8.55,4.66
31.07,-2.19,8.55,4.61
31.07,-2.24,8.57,4.61
31.07,-2.30,8.56,4.61
31.07,-2.29,8.53,4.56
31.08,-2.23,8.56,4.53
31.08,-2.25,8.53,4.54
31.08,-2.28,8.50,4.57
31.08,-2.34,8.52,4.65
31.08,-2.41,8.49,4.61
31.09,-2.52,8.50,4.66
31.09,-2.66,8.49,4.65
31.09,-2.84,8.47,4.55
31.09,-2.70,8.48,4.50
31.10,-2.60,8.52,4.53
31.10,-2.58,8.54,4.59
31.10,-2.56,8.59,4.66
31.10,-2.55,8.62,4.72
31.11,-2.55,8.60,4.77
31.11,-2.55,8.56,4.82
31.11,-2.55,8.60,4.84
31.11,-2.59,8.69,4.90
31.12,-2.64,8.70,4.88
31.12,-2.73,8.66,4.82
31.12,-2.75,8.66,4.80
31.12,-2.74,8.61,4.84
31.13,-2.80,8.59,4.87
31.13,-2.77,8.56,4.86
31.13,-2.68,8.57,4.83
31.13,-2.65,8.58,4.86
31.13,-2.60,8.57,4.88
31.14,-2.57,8.58,4.91
31.14,-2.56,8.55,4.93
31.14,-2.58,8.56,4.98
31.14,-2.58,8.52,5.00
31.15,-2.59,8.52,4.98
31.15,-2.61,8.53,4.99
31.15,-2.68,8.51,4.97
31.15,-2.73,8.52,4.95
31.16,-2.83,8.49,4.92
31.16,-2.86,8.50,4.93
31.16,-2.88,8.46,4.93
31.16,-2.89,8.41,5.01
31.17,-2.95,8.41,5.02
31.17,-2.94,8.41,5.05
31.17,-3.00,8.41,5.09
31.17,-3.05,8.40,5.10
31.18,-3.11,8.40,5.15
31.18,-3.13,8.41,5.25
31.18,-3.15,8.42,5.31
31.18,-3.23,8.43,5.23
31.18,-3.29,8.43,5.11
31.19,-3.39,8.47,4.85
31.19,-3.45,8.54,4.71
31.19,-3.43,8.55,4.76
31.19,-3.50,8.59,4.90
31.20,-3.45,8.65,5.01
31.20,-3.40,8.68,5.00
31.20,-3.36,8.71,4.86
31.20,-3.33,8.79,4.66
31.21,-3.23,8.93,4.43
31.21,-3.11,9.09,4.23
31.21,-2.91,9.31,4.04
31.21,-2.72,9.56,3.94
31.22,-2.52,9.87,3.83
31.22,-2.28,10.31,3.77
31.22,-2.10,10.84,3.74
31.22,-1.81,11.33,3.66
31.23,-1.55,11.87,3.54
31.23,-1.28,12.44,3.32
31.23,-1.00,12.98,3.07
31.23,-0.68,13.54,2.85
31.23,-0.32,14.02,2.64
31.24,0.21,14.46,2.55
31.24,0.68,14.82,2.57
31.24,1.18,15.13,2.80
31.24,1.68,15.40,3.31
31.25,2.08,15.59,3.99
31.25,2.43,15.73,4.73
31.25,2.71,15.76,5.46
31.25,2.97,15.74,6.07
31.26,3.03,15.63,6.53
31.26,2.86,15.41,6.80
31.26,2.63,15.13,6.92
31.26,2.42,14.79,6.88
31.27,2.20,14.43,6.76
31.27,1.95,14.06,6.58
31.27,1.60,13.64,6.38
31.27,1.10,13.19,6.19
31.27,0.53,12.84,6.02
31.28,-0.07,12.63,5.80
31.28,-0.62,12.54,5.52
31.28,-1.13,12.52,5.21
31.28,-1.51,12.62,4.98
31.29,-1.87,12.75,4.73
31.29,-2.06,12.88,4.42
31.29,-2.13,12.93,4.15
31.29,-2.11,12.95,3.88
31.30,-2.08,12.93,3.70
31.30,-2.00,12.83,3.58
31.30,-1.88,12.69,3.44
31.30,-1.67,12.50,3.34
31.31,-1.38,12.30,3.20
31.31,-1.14,12.07,3.13
31.31,-0.92,11.84,3.09
31.31,-0.70,11.64,3.02
31.32,-0.54,11.53,2.94
31.32,-0.38,11.41,2.85
31.32,-0.20,11.32,2.79
31.32,-0.05,11.22,2.71
31.32,0.08,11.20,2.62
31.33,0.13,11.21,2.55
31.33,0.18,11.23,2.47
31.33,0.25,11.23,2.44
31.33,0.33,11.23,2.41
31.34,0.45,11.18,2.36
31.34,0.62,11.13,2.34
31.34,0.78,11.06,2.32
31.34,0.97,10.98,2.32
31.35,1.15,10.91,2.34
31.35,1.32,10.84,2.38
31.35,1.54,10.72,2.46
31.35,1.71,10.59,2.55
31.36,1.89,10.50,2.71
31.36,2.02,10.34,2.86
31.36,2.22,10.19,3.01
31.36,2.32,10.09,3.16
31.37,2.41,9.97,3.24
31.37,2.54,9.78,3.40
31.37,2.74,9.53,3.41
31.37,2.81,9.31,3.39
31.37,2.93,9.17,3.33
31.38,2.98,9.12,3.32
31.38,3.01,9.03,3.38
31.38,3.03,8.98,3.47
31.38,3.07,8.94,3.59
31.39,3.11,8.87,3.70
31.39,3.06,8.83,3.88
31.39,3.07,8.82,4.15
31.39,3.04,8.82,4.31
31.40,3.06,8.88,4.56
31.40,2.95,8.88,4.47
31.40,2.94,8.76,4.02
31.40,2.99,8.52,3.64
31.41,2.87,8.35,3.25
31.41,2.72,8.33,2.89
31.41,2.56,8.31,2.51
31.41,2.35,8.35,2.27
31.42,2.17,8.48,2.26
31.42,1.94,8.53,2.25
31.42,1.77,8.61,1.96
31.42,1.68,8.69,1.74
31.42,1.59,8.74,1.72
31.43,1.50,8.82,1.85
31.43,1.42,8.92,2.03
31.43,1.35,8.99,2.24
31.43,1.35,8.98,2.41
31.44,1.19,9.03,2.50
31.44,0.93,9.05,2.55
31.44,0.85,9.03,2.63
31.44,0.77,8.92,2.69
31.45,0.66,8.82,2.78
31.45,0.59,8.72,2.83
31.45,0.57,8.58,2.88
31.45,0.58,8.42,2.87
31.46,0.52,8.32,2.89
31.46,0.40,8.20,2.79
31.46,0.37,8.19,2.53
31.46,0.35,8.19,2.42
31.47,0.31,8.25,2.25
31.47,0.23,8.24,2.15
31.47,0.20,8.16,2.10
31.47,0.18,8.08,2.05
31.47,0.15,8.01,2.08
31.48,0.13,7.92,2.05
31.48,0.10,7.88,1.96
31.48,0.07,7.84,1.96
31.48,0.06,7.79,2.03
31.49,0.07,7.70,2.13
31.49,0.08,7.66,2.21
31.49,0.08,7.59,2.29
31.49,0.07,7.51,2.36
31.50,0.10,7.45,2.41
31.50,0.16,7.43,2.42
31.50,0.17,7.42,2.34
31.50,0.10,7.44,2.22
31.51,0.03,7.46,2.08
31.51,0.07,7.50,1.99
31.51,0.04,7.52,2.00
31.51,0.02,7.46,1.97
31.51,0.15,7.51,1.96
31.52,0.31,7.57,2.01
31.52,0.43,7.57,2.04
31.52,0.53,7.58,2.11
31.52,0.61,7.64,2.12
31.53,0.68,7.72,2.15
31.53,0.74,7.77,2.16
31.53,0.89,7.94,2.08
31.53,0.88,8.07,2.11
31.54,0.83,8.15,2.01
31.54,0.83,8.25,1.93
31.54,0.83,8.39,1.84
31.54,0.80,8.51,1.78
31.55,0.79,8.68,1.71
31.55,0.84,8.85,1.67
31.55,0.93,9.01,1.70
31.55,0.98,9.18,1.77
31.56,1.04,9.32,1.77
31.56,1.12,9.45,1.71
31.56,1.23,9.57,1.67
31.56,1.33,9.59,1.61
31.56,1.45,9.67,1.63
31.57,1.55,9.66,1.68
31.57,1.65,9.60,1.75
31.57,1.72,9.60,1.83
31.57,1.79,9.57,1.83
31.58,1.84,9.51,1.84
31.58,1.91,9.48,1.86
31.58,1.94,9.41,1.87
31.58,1.96,9.34,1.85
31.59,1.92,9.24,1.85
31.59,1.88,9.11,1.90
31.59,1.81,9.03,1.91
31.59,1.72,8.89,1.92
31.60,1.59,8.80,1.93
31.60,1.50,8.67,1.93
31.60,1.41,8.58,1.96
31.60,1.34,8.49,1.98
31.61,1.28,8.40,2.02
31.61,1.19,8.37,2.05
31.61,1.15,8.32,2.04
31.61,1.13,8.32,2.00
31.61,1.12,8.33,2.00
31.62,1.07,8.31,2.02
31.62,1.08,8.27,2.03
31.62,1.04,8.26,2.04
31.62,1.02,8.27,2.07
31.63,1.01,8.27,2.06
31.63,1.00,8.28,2.01
31.63,0.98,8.31,1.98
31.63,0.98,8.36,1.93
31.64,0.98,8.42,1.92
31.64,0.99,8.42,1.83
31.64,1.03,8.47,1.79
31.64,1.07,8.54,1.75
31.65,1.11,8.59,1.71
31.65,1.13,8.64,1.67
31.65,1.16,8.69,1.62
31.65,1.16,8.73,1.59
31.66,1.15,8.76,1.55
31.66,1.16,8.83,1.53
31.66,1.17,8.81,1.57
31.66,1.20,8.82,1.58
31.66,1.26,8.84,1.52
31.67,1.31,8.85,1.51
31.67,1.35,8.80,1.56
31.67,1.32,8.77,1.61
31.67,1.34,8.72,1.63
31.68,1.33,8.66,1.71
31.68,1.33,8.60,1.75
31.68,1.38,8.55,1.78
31.68,1.40,8.55,1.80
31.69,1.38,8.52,1.87
31.69,1.36,8.47,1.90
31.69,1.36,8.43,1.87
31.69,1.35,8.41,1.90
31.70,1.38,8.36,1.86
31.70,1.38,8.31,1.88
31.70,1.34,8.26,1.92
31.70,1.32,8.19,1.89
31.70,1.35,8.18,1.83
31.71,1.35,8.18,1.88
31.71,1.32,8.17,1.90
31.71,1.34,8.16,1.92
31.71,1.30,8.15,1.92
31.72,1.26,8.13,1.93
31.72,1.26,8.15,1.92
31.72,1.30,8.18,1.89
31.72,1.31,8.24,1.87
31.73,1.31,8.27,1.89
31.73,1.32,8.31,1.93
31.73,1.36,8.37,1.92
31.73,1.38,8.42,1.90
31.74,1.40,8.49,1.89
31.74,1.47,8.59,1.89
31.74,1.47,8.61,1.94
31.74,1.49,8.68,2.03
31.75,1.47,8.75,2.05
31.75,1.46,8.80,2.10
31.75,1.44,8.84,2.14
31.75,1.46,8.89,2.13
31.75,1.43,8.94,2.12
31.76,1.45,8.97,2.07
31.76,1.49,9.04,2.09
31.76,1.49,9.03,2.18
31.76,1.48,9.12,2.24
31.77,1.46,9.15,2.29
31.77,1.46,9.19,2.32
31.77,1.44,9.27,2.29
31.77,1.41,9.36,2.25
31.78,1.36,9.39,2.32
31.78,1.37,9.46,2.32
31.78,1.32,9.56,2.35
31.78,1.26,9.66,2.38
31.79,1.18,9.70,2.49
31.79,1.14,9.77,2.50
31.79,1.15,9.86,2.49
31.79,1.07,9.97,2.53
31.80,1.06,10.07,2.59
31.80,1.00,10.15,2.61
31.80,0.96,10.23,2.57
31.80,0.92,10.30,2.61
31.80,0.92,10.41,2.62
31.81,0.88,10.52,2.64
31.81,0.88,10.62,2.74
31.81,0.89,10.70,2.76
31.81,0.90,10.77,2.80
31.82,0.92,10.88,2.82
31.82,0.88,10.98,2.89
31.82,0.88,11.09,3.01
31.82,0.92,11.22,3.09
31.83,0.98,11.39,3.17
31.83,1.07,11.48,3.16
31.83,1.12,11.55,3.22
31.83,1.11,11.68,3.32
31.84,1.15,11.82,3.44
31.84,1.20,11.98,3.59
31.84,1.22,12.09,3.71
31.84,1.27,12.20,3.72
31.85,1.34,12.31,3.66
31.85,1.41,12.40,3.65
31.85,1.42,12.46,3.67
31.85,1.41,12.54,3.64
31.85,1.30,12.59,3.71
31.86,1.31,12.67,3.75
31.86,1.32,12.71,3.80
31.86,1.32,12.73,3.81
31.86,1.30,12.77,3.80
31.87,1.30,12.84,3.81
31.87,1.32,12.89,3.75
31.87,1.42,12.93,3.67
31.87,1.52,12.94,3.50
31.88,1.70,12.94,3.41
31.88,1.95,12.95,3.33
31.88,2.15,12.88,3.26
31.88,2.38,12.81,3.07
31.89,2.50,12.71,2.92
31.89,2.66,12.66,2.64
31.89,2.79,12.61,2.36
31.89,2.71,12.53,2.20
31.90,2.48,12.49,2.07
31.90,2.15,12.50,1.90
31.90,1.73,12.54,1.71
31.90,1.24,12.60,1.42
31.90,0.76,12.66,1.05
31.91,0.26,12.74,0.61
31.91,-0.19,12.88,0.24
31.91,-0.60,13.05,-0.02
31.91,-0.97,13.23,-0.19
31.92,-1.23,13.36,-0.27
31.92,-1.32,13.38,-0.28
31.92,-1.22,13.39,-0.19
31.92,-1.00,13.44,0.01
31.93,-0.63,13.46,0.30
31.93,-0.14,13.44,0.63
31.93,0.37,13.38,1.05
31.93,1.09,13.51,1.37
31.94,1.79,13.72,1.65
31.94,2.39,13.85,1.81
31.94,2.80,13.87,1.87
31.94,3.05,13.82,1.84
31.94,3.19,13.76,1.88
31.95,3.28,13.70,1.88
31.95,3.34,13.65,1.75
31.95,3.46,13.57,1.63
31.95,3.55,13.59,1.45
31.96,3.58,13.59,1.13
31.96,3.63,13.53,0.82
31.96,3.62,13.40,0.66
31.96,3.58,13.21,0.49
31.97,3.54,12.97,0.27
31.97,3.49,12.70,-0.06
31.97,3.35,12.37,-0.38
31.97,3.26,12.04,-0.70
31.98,3.09,11.79,-0.96
31.98,2.86,11.37,-1.30
31.98,2.62,10.86,-1.65
31.98,2.52,10.44,-1.87
31.99,2.39,10.10,-1.95
31.99,2.22,9.70,-2.00
31.99,2.14,9.32,-2.04
31.99,2.03,8.96,-2.04
31.99,1.81,8.60,-2.08
32.00,1.56,8.25,-2.04
32.00,1.32,7.92,-2.05
32.00,1.07,7.65,-1.97
32.00,0.84,7.44,-1.88
32.01,0.76,7.36,-1.80
32.01,0.56,7.21,-1.70
32.01,0.36,7.14,-1.52
32.01,0.24,7.09,-1.29
32.02,0.09,7.08,-1.05
32.02,-0.03,7.09,-0.74
32.02,-0.12,7.15,-0.56
32.02,-0.17,7.25,-0.45
32.03,-0.23,7.41,-0.29
32.03,-0.29,7.58,-0.16
32.03,-0.37,7.79,-0.05
32.03,-0.39,7.98,0.02
32.04,-0.34,8.28,0.03
32.04,-0.37,8.57,0.05
32.04,-0.43,8.79,0.02
32.04,-0.43,9.00,-0.09
32.04,-0.44,9.23,-0.16
32.05,-0.48,9.42,-0.25
32.05,-0.54,9.58,-0.32
32.05,-0.60,9.77,-0.40
32.05,-0.65,9.95,-0.44
32.06,-0.63,10.18,-0.46
32.06,-0.62,10.44,-0.44
32.06,-0.58,10.70,-0.42
32.06,-0.47,10.97,-0.38
32.07,-0.33,11.26,-0.42
32.07,-0.23,11.56,-0.43
32.07,-0.20,11.69,-0.34
32.07,-0.17,11.83,-0.31
32.08,-0.07,12.01,-0.28
32.08,0.09,12.14,-0.29
32.08,0.26,12.28,-0.27
32.08,0.43,12.34,-0.28
32.09,0.51,12.39,-0.35
32.09,0.69,12.57,-0.33
32.09,0.92,12.66,-0.40
32.09,0.90,12.48,-0.42
32.09,0.91,12.31,-0.31
32.10,0.88,12.10,-0.17
32.10,0.82,11.87,-0.15
32.10,0.85,11.70,-0.11
32.10,0.93,11.56,0.03
32.11,1.12,11.49,0.14
32.11,1.35,11.41,0.28
32.11,1.65,11.39,0.40
32.11,1.98,11.46,0.39
32.12,2.32,11.56,0.40
32.12,2.61,11.63,0.38
32.12,2.62,11.43,0.46
32.12,2.46,11.07,0.47
32.13,2.35,10.75,0.49
32.13,2.30,10.61,0.39
32.13,2.29,10.47,0.30
32.13,2.34,10.27,0.17
32.13,2.40,10.13,-0.07
32.14,2.44,9.97,-0.28
32.14,2.42,9.80,-0.41
32.14,2.33,9.63,-0.49
32.14,2.23,9.57,-0.37
32.15,2.21,9.45,0.06
32.15,2.23,9.38,0.64
32.15,2.18,9.32,1.15
32.15,2.06,9.33,1.58
32.16,1.94,9.32,1.81
32.16,1.89,9.32,1.95
32.16,1.83,9.29,2.18
32.16,1.73,9.20,2.24
32.17,1.62,9.20,2.24
32.17,1.44,9.18,2.21
32.17,1.23,9.13,2.10
32.17,1.05,9.00,1.87
32.18,0.93,8.84,1.62
32.18,0.86,8.63,1.44
32.18,0.80,8.44,1.33
32.18,0.72,8.29,1.29
32.18,0.63,8.21,1.25
32.19,0.54,8.15,1.28
32.19,0.46,8.13,1.30
32.19,0.35,8.17,1.35
32.19,0.26,8.24,1.47
32.20,0.17,8.34,1.57
32.20,0.13,8.48,1.70
32.20,0.14,8.71,1.87
32.20,0.28,9.11,2.01
32.21,0.46,9.43,2.21
32.21,0.31,9.29,2.66
32.21,-0.06,8.94,2.88
32.21,-0.35,8.85,2.96
32.22,-0.60,8.88,2.97
32.22,-0.75,8.94,2.89
32.22,-0.76,9.01,2.92
32.22,-0.70,9.02,2.92
32.23,-0.62,8.95,2.78
32.23,-0.46,8.89,2.56
32.23,-0.36,8.80,2.34
32.23,-0.30,8.64,2.20
32.23,-0.24,8.47,2.08
32.24,-0.20,8.29,2.05
32.24,-0.19,8.13,2.05
32.24,-0.16,7.97,2.03
32.24,-0.10,7.77,2.01
32.25,-0.06,7.52,1.98
32.25,-0.06,7.28,1.94
32.25,-0.08,7.08,1.88
32.25,-0.10,6.84,1.80
32.26,-0.17,6.66,1.84
32.26,-0.22,6.51,1.99
32.26,-0.25,6.37,2.24
32.26,-0.30,6.26,2.45
32.27,-0.33,6.19,2.61
32.27,-0.39,6.10,2.69
32.27,-0.45,6.04,2.75
32.27,-0.50,5.96,2.79
32.28,-0.64,5.87,2.80
32.28,-0.78,5.83,2.79
32.28,-0.86,5.72,2.76
32.28,-0.91,5.71,2.78
32.28,-0.98,5.73,2.86
32.29,-1.06,5.73,2.89
32.29,-1.14,5.71,2.98
32.29,-1.24,5.72,3.10
32.29,-1.36,5.70,3.18
32.30,-1.38,5.67,3.25
32.30,-1.38,5.63,3.31
32.30,-1.37,5.65,3.35
32.30,-1.35,5.69,3.47
32.31,-1.37,5.66,3.51
32.31,-1.26,5.65,3.56
32.31,-1.21,5.69,3.56
32.31,-1.16,5.74,3.58
32.32,-1.17,5.82,3.59
32.32,-1.15,5.93,3.61
32.32,-1.13,6.03,3.57
32.32,-1.07,6.16,3.51
32.33,-1.05,6.26,3.43
32.33,-0.97,6.40,3.33
32.33,-0.78,6.50,3.20
32.33,-0.56,6.61,3.08
32.33,-0.40,6.76,3.01
32.34,-0.30,6.96,2.98
32.34,-0.29,7.14,2.96
32.34,-0.25,7.28,2.97
32.34,-0.20,7.43,3.06
32.35,-0.16,7.44,3.13
32.35,-0.17,7.46,3.18
32.35,-0.16,7.46,3.22
32.35,-0.15,7.46,3.30
32.36,-0.18,7.51,3.34
32.36,-0.20,7.48,3.38
32.36,-0.22,7.46,3.39
32.36,-0.27,7.47,3.41
32.37,-0.32,7.47,3.42
32.37,-0.35,7.46,3.49
32.37,-0.39,7.44,3.56
32.37,-0.42,7.44,3.69
32.37,-0.46,7.49,3.81
32.38,-0.45,7.51,3.94
32.38,-0.47,7.53,4.03
32.38,-0.59,7.57,4.15
32.38,-0.66,7.52,4.24
32.39,-0.76,7.50,4.33
32.39,-0.83,7.50,4.41
32.39,-0.89,7.49,4.56
32.39,-0.95,7.47,4.74
32.40,-0.88,7.54,4.76
32.40,-0.67,7.77,4.64
32.40,-0.99,7.55,4.81
32.40,-1.27,7.46,4.99
32.41,-1.47,7.44,5.10
32.41,-1.57,7.47,5.13
32.41,-1.68,7.42,5.18
32.41,-1.83,7.38,5.22
32.42,-1.94,7.34,5.25
32.42,-2.02,7.35,5.23
32.42,-2.13,7.40,5.21
32.42,-2.21,7.48,5.21
32.42,-2.28,7.50,5.18
32.43,-2.37,7.54,5.17
32.43,-2.41,7.63,5.18
32.43,-2.45,7.70,5.15
32.43,-2.50,7.76,5.19
32.44,-2.57,7.81,5.19
32.44,-2.61,7.90,5.24
32.44,-2.61,7.99,5.24
32.44,-2.67,8.06,5.28
32.45,-2.74,8.14,5.31
32.45,-2.79,8.21,5.34
32.45,-2.81,8.30,5.35
32.45,-2.82,8.39,5.39
32.46,-2.89,8.51,5.44
32.46,-2.95,8.56,5.49
32.46,-3.00,8.60,5.55
32.46,-3.06,8.69,5.61
32.47,-3.15,8.73,5.64
32.47,-3.24,8.78,5.68
32.47,-3.32,8.79,5.73
32.47,-3.37,8.80,5.79
32.47,-3.46,8.82,5.84
32.48,-3.50,8.81,5.87
32.48,-3.53,8.82,5.93
32.48,-3.57,8.82,5.95
32.48,-3.65,8.81,6.01
32.49,-3.77,8.80,6.05
32.49,-3.82,8.83,6.10
32.49,-3.83,8.78,6.08
32.49,-3.85,8.75,6.12
32.50,-3.83,8.76,6.06
32.50,-3.91,8.71,6.05
32.50,-3.91,8.73,6.05
32.50,-3.96,8.74,6.03
32.51,-4.03,8.78,6.02
32.51,-4.10,8.77,6.08
32.51,-4.14,8.80,6.10
32.51,-4.21,8.84,6.14
32.52,-4.23,8.87,6.16
32.52,-4.30,8.97,6.21
32.52,-4.39,8.99,6.29
32.52,-4.48,8.98,6.34
32.52,-4.55,8.98,6.39
32.53,-4.56,8.95,6.42
32.53,-4.57,8.95,6.44
32.53,-4.57,8.92,6.42
32.53,-4.58,8.87,6.37
32.54,-4.59,8.86,6.35
32.54,-4.57,8.84,6.30
32.54,-4.53,8.81,6.30
32.54,-4.47,8.76,6.33
32.55,-4.40,8.72,6.26
32.55,-4.34,8.71,6.22
32.55,-4.24,8.77,6.08
32.55,-4.10,8.85,5.87
32.56,-3.97,8.94,5.65
32.56,-3.87,8.93,5.27
32.56,-3.66,8.93,4.83
32.56,-3.45,8.91,4.48
32.56,-3.15,8.86,4.23
32.57,-2.74,8.82,4.01
32.57,-2.32,8.80,3.87
32.57,-1.88,8.84,3.74
32.57,-1.49,8.95,3.67
32.58,-1.17,9.15,3.74
32.58,-0.93,9.50,3.88
32.58,-0.78,10.01,4.14
32.58,-0.62,10.65,4.50
32.59,-0.44,11.42,4.65
32.59,-0.79,11.90,5.37
32.59,-1.07,12.41,6.04
32.59,-1.18,12.88,6.60
32.60,-1.17,13.42,7.13
32.60,-1.24,13.89,7.61
32.60,-1.29,14.33,7.99
32.60,-1.26,14.68,8.36
32.61,-1.17,15.00,8.67
32.61,-1.04,15.22,8.97
32.61,-1.01,15.35,9.15
32.61,-0.83,15.35,9.06
32.61,-0.86,15.40,9.26
32.62,-1.03,15.40,9.35
32.62,-1.17,15.27,9.34
32.62,-1.29,15.00,9.29
32.62,-1.38,14.63,9.11
32.63,-1.52,14.21,8.72
32.63,-1.60,13.74,8.18
32.63,-1.64,13.14,7.48
32.63,-1.65,12.52,6.69
32.64,-1.59,11.88,5.81
32.64,-1.50,11.19,4.97
32.64,-1.29,10.55,4.21
32.64,-1.05,9.97,3.57
32.65,-0.80,9.57,3.07
32.65,-0.56,9.27,2.79
32.65,-0.36,9.02,2.64
32.65,-0.16,9.00,2.64
32.66,0.02,9.05,2.66
32.66,0.22,9.18,2.70
32.66,0.42,9.35,2.68
32.66,0.58,9.59,2.63
32.66,0.72,9.85,2.55
32.67,0.85,10.16,2.42
32.67,0.92,10.40,2.32
32.67,0.99,10.63,2.23
32.67,1.02,10.87,2.14
32.68,1.00,11.06,2.12
32.68,0.87,11.23,2.18
32.68,0.77,11.41,2.31
32.68,0.70,11.57,2.49
32.69,0.70,11.75,2.63
32.69,0.70,11.88,2.83
32.69,0.78,11.98,2.94
32.69,0.90,12.06,3.02
32.70,1.08,12.14,3.05
32.70,1.24,12.20,3.12
32.70,1.38,12.27,3.18
32.70,1.55,12.33,3.20
32.71,1.76,12.37,3.22
32.71,1.94,12.42,3.18
32.71,2.10,12.41,3.08
32.71,2.20,12.37,3.06
32.71,2.30,12.29,3.06
32.72,2.37,12.18,3.18
32.72,2.31,12.02,3.27
32.72,2.10,11.81,3.42
32.72,1.95,11.64,3.55
32.73,1.85,11.44,3.62
32.73,1.73,11.26,3.64
32.73,1.60,11.07,3.71
32.73,1.48,10.95,3.74
32.74,1.40,10.79,3.77
32.74,1.34,10.67,3.74
32.74,1.32,10.56,3.70
32.74,1.26,10.44,3.67
32.75,1.31,10.34,3.62
32.75,1.36,10.24,3.55
32.75,1.44,10.09,3.44
32.75,1.50,10.02,3.33
32.76,1.61,9.96,3.23
32.76,1.66,9.91,3.09
32.76,1.74,9.91,2.99
32.76,1.85,9.90,2.88
32.76,1.92,9.93,2.79
32.77,1.98,9.94,2.72
32.77,2.02,10.01,2.69
32.77,2.03,10.11,2.68
32.77,2.11,10.19,2.66
32.78,2.23,10.22,2.58
32.78,2.34,10.25,2.52
32.78,2.38,10.30,2.41
32.78,2.47,10.35,2.33
32.79,2.49,10.42,2.25
32.79,2.46,10.50,2.21
32.79,2.40,10.55,2.29
32.79,2.30,10.60,2.45
32.80,2.24,10.57,2.58
32.80,2.12,10.54,2.80
32.80,1.99,10.47,2.85
32.80,1.88,10.36,2.79
32.80,1.73,10.20,2.70
32.81,1.58,10.05,2.67
32.81,1.44,9.88,2.63
32.81,1.31,9.75,2.64
32.81,1.23,9.59,2.64
32.82,1.10,9.50,2.60
32.82,1.06,9.37,2.56
32.82,1.04,9.27,2.48
32.82,1.03,9.11,2.45
32.83,0.99,8.99,2.41
32.83,0.95,8.84,2.40
32.83,0.97,8.65,2.38
32.83,0.94,8.52,2.32
32.84,0.89,8.38,2.33
32.84,0.87,8.24,2.30
32.84,0.79,8.08,2.21
32.84,0.74,7.93,2.03
32.85,0.64,7.79,1.90
32.85,0.57,7.68,1.81
32.85,0.47,7.57,1.68
32.85,0.33,7.50,1.63
32.85,0.14,7.42,1.59
32.86,-0.01,7.34,1.61
32.86,-0.15,7.26,1.76
32.86,-0.15,7.21,2.11
32.86,-0.29,7.25,2.28
32.87,-0.35,7.25,2.15
32.87,-0.29,7.23,1.93
32.87,-0.24,7.18,1.71
32.87,-0.31,7.16,1.55
32.88,-0.37,7.05,1.32
32.88,-0.47,6.98,1.18
32.88,-0.56,6.96,1.13
32.88,-0.55,6.88,1.10
32.89,-0.54,6.76,1.08
32.89,-0.55,6.70,1.08
32.89,-0.53,6.67,1.02
32.89,-0.59,6.64,1.04
32.90,-0.64,6.60,1.05
32.90,-0.68,6.55,1.05
32.90,-0.71,6.60,1.04
32.90,-0.62,6.67,1.17
32.90,-0.50,6.78,1.30
32.91,-0.37,6.80,1.44
32.91,-0.28,6.79,1.52
32.91,-0.23,6.81,1.65
32.91,-0.20,6.80,1.73
32.92,-0.21,6.77,1.86
32.92,-0.20,6.76,1.97
32.92,-0.24,6.75,2.10
32.92,-0.25,6.75,2.27
32.93,-0.19,6.76,2.43
32.93,-0.13,6.77,2.56
32.93,-0.07,6.80,2.65
32.93,-0.02,6.83,2.73
32.94,0.01,6.92,2.80
32.94,0.07,6.98,2.84
32.94,0.08,7.00,2.89
32.94,0.07,7.06,2.92
32.95,0.08,7.11,2.88
32.95,0.05,7.21,2.91
32.95,-0.03,7.30,2.94
32.95,-0.10,7.39,2.97
32.95,-0.15,7.44,2.95
32.96,-0.20,7.46,2.88
32.96,-0.16,7.54,2.87
32.96,-0.15,7.67,2.85
32.96,-0.12,7.80,2.86
32.97,-0.10,7.95,2.84
32.97,-0.16,8.08,2.80
32.97,-0.29,8.25,2.70
32.97,-0.15,8.33,2.55
32.98,0.00,8.38,2.38
32.98,0.13,8.36,2.23
32.98,0.20,8.33,2.15
32.98,0.24,8.30,2.07
32.99,0.22,8.28,2.03
32.99,0.18,8.30,1.98
32.99,0.10,8.31,1.94
32.99,0.08,8.28,1.88
32.99,0.09,8.22,1.79
33.00,0.11,8.19,1.69
33.00,0.11,8.18,1.67
33.00,0.15,8.18,1.63
33.00,0.17,8.14,1.65
33.01,0.20,8.12,1.73
33.01,0.26,8.19,1.75
33.01,0.34,8.18,1.82
33.01,0.46,8.21,1.81
33.02,0.55,8.28,1.87
33.02,0.63,8.34,1.96
33.02,0.72,8.37,2.08
33.02,0.75,8.39,2.22
33.03,0.84,8.47,2.34
33.03,0.98,8.46,2.46
33.03,1.11,8.49,2.55
33.03,1.25,8.53,2.58
33.04,1.33,8.53,2.64
33.04,1.45,8.61,2.62
33.04,1.56,8.70,2.62
33.04,1.60,8.79,2.64
33.04,1.66,8.93,2.61
33.05,1.67,9.01,2.56
33.05,1.65,9.05,2.52
33.05,1.68,9.11,2.49
33.05,1.75,9.18,2.42
33.06,1.77,9.27,2.33
33.06,1.80,9.36,2.13
33.06,1.72,9.38,2.04
33.06,1.63,9.42,2.01
33.07,1.56,9.50,2.00
33.07,1.47,9.55,1.98
33.07,1.37,9.54,1.96
33.07,1.29,9.54,1.87
33.08,1.27,9.54,1.80
33.08,1.26,9.57,1.77
33.08,1.26,9.62,1.79
33.08,1.26,9.68,1.78
33.09,1.28,9.73,1.78
33.09,1.33,9.80,1.81
33.09,1.33,9.81,1.78
33.09,1.28,9.84,1.82
33.09,1.24,9.89,1.87
33.10,1.20,9.88,1.88
33.10,1.17,9.90,1.86
33.10,1.15,9.91,1.85
33.10,1.12,9.90,1.89
33.11,1.10,9.91,1.88
33.11,1.10,9.96,1.89
33.11,1.14,10.00,1.93
33.11,1.12,10.02,1.94
33.12,1.07,10.01,1.97
33.12,1.05,10.04,2.06
33.12,1.04,10.09,2.06
33.12,1.05,10.11,2.09
33.13,1.05,10.12,2.12
33.13,1.01,10.10,2.22
33.13,0.96,10.16,2.33
33.13,0.93,10.16,2.40
33.14,0.86,10.16,2.48
33.14,0.81,10.17,2.57
33.14,0.74,10.18,2.67
33.14,0.69,10.16,2.73
33.14,0.65,10.15,2.71
33.15,0.62,10.11,2.71
33.15,0.57,10.05,2.69
33.15,0.57,10.03,2.72
33.15,0.56,9.97,2.72
33.16,0.53,9.95,2.74
33.16,0.52,9.93,2.75
33.16,0.55,9.93,2.71
33.16,0.54,9.91,2.66
33.17,0.51,9.88,2.70
33.17,0.50,9.86,2.74
33.17,0.52,9.85,2.75
33.17,0.59,9.86,2.73
33.18,0.73,9.88,2.68
33.18,0.91,9.92,2.60
33.18,1.11,9.96,2.46
33.18,1.30,10.02,2.24
33.19,1.49,10.05,2.03
33.19,1.68,10.08,1.76
33.19,1.93,10.14,1.55
33.19,2.19,10.19,1.39
33.19,2.45,10.32,1.30
33.20,2.67,10.46,1.30
33.20,2.84,10.64,1.28
33.20,2.95,10.89,1.32
33.20,3.00,11.15,1.34
33.21,3.01,11.45,1.27
33.21,2.97,11.77,1.15
33.21,2.86,12.13,1.02
33.21,2.61,12.54,0.89
33.22,2.40,12.99,0.72
33.22,2.11,13.46,0.56
33.22,1.81,13.96,0.38
33.22,1.55,14.41,0.24
33.23,1.42,14.95,0.23
33.23,1.37,15.38,0.28
33.23,1.37,15.87,0.17
33.23,1.43,16.35,0.05
33.23,1.55,16.76,0.03
33.24,1.71,17.15,0.06
33.24,1.91,17.46,0.16
33.24,2.14,17.74,0.30
33.24,2.32,17.91,0.47
33.25,2.51,18.07,0.65
33.25,2.62,18.09,0.77
33.25,2.65,17.97,0.89
33.25,2.59,17.76,1.02
33.26,2.48,17.45,1.10
33.26,2.38,17.10,1.20
33.26,2.35,16.74,1.23
33.26,2.36,16.37,1.25
33.27,2.41,16.04,1.25
33.27,2.48,15.70,1.24
33.27,2.57,15.36,1.22
33.27,2.63,15.03,1.21
33.28,2.69,14.69,1.13
33.28,2.71,14.35,1.04
33.28,2.70,13.99,1.01
33.28,2.66,13.63,0.97
33.28,2.64,13.28,0.93
33.29,2.59,12.91,0.89
33.29,2.52,12.51,0.89
33.29,2.47,12.15,0.90
33.29,2.46,11.77,0.88
33.30,2.49,11.42,0.92
33.30,2.44,11.06,0.93
33.30,2.42,10.69,0.91
33.30,2.40,10.37,0.91
33.31,2.37,10.09,0.93
33.31,2.32,9.83,0.92
33.31,2.25,9.56,0.92
33.31,2.19,9.32,0.91
33.32,2.09,9.13,0.87
33.32,1.98,8.99,0.84
33.32,1.81,8.83,0.84
33.32,1.71,8.70,0.74
33.33,1.62,8.56,0.68
33.33,1.57,8.45,0.68
33.33,1.53,8.37,0.70
33.33,1.60,8.34,0.72
33.33,1.52,8.20,0.68
33.34,1.47,8.12,0.67
33.34,1.41,8.03,0.69
33.34,1.32,8.04,0.71
33.34,1.24,8.03,0.74
33.35,1.15,8.03,0.80
33.35,1.03,8.10,0.90
33.35,0.84,8.16,0.96
33.35,0.66,8.32,1.05
33.36,0.53,8.50,1.12
33.36,0.36,8.76,1.15
33.36,0.19,9.05,1.21
33.36,0.05,9.32,1.29
33.37,-0.13,9.59,1.38
33.37,-0.33,9.84,1.43
33.37,-0.51,10.01,1.44
33.37,-0.70,10.15,1.43
33.38,-0.87,10.27,1.36
33.38,-0.99,10.39,1.23
33.38,-1.09,10.55,1.09
33.38,-1.18,10.65,0.98
33.38,-1.24,10.73,0.91
33.39,-1.28,10.81,0.81
33.39,-1.26,10.89,0.67
33.39,-1.20,11.03,0.53
33.39,-1.12,11.13,0.27
33.40,-1.05,11.20,0.04
33.40,-1.09,11.14,-0.01
33.40,-1.36,11.02,-0.03
33.40,-1.60,10.86,-0.01
33.41,-1.85,10.69,0.07
33.41,-2.07,10.52,0.15
33.41,-2.26,10.32,0.21
33.41,-2.41,10.14,0.30
33.42,-2.45,9.97,0.36
33.42,-2.35,9.81,0.41
33.42,-2.13,9.61,0.39
33.42,-1.85,9.44,0.36
33.43,-1.55,9.32,0.28
33.43,-1.22,9.18,0.16
33.43,-0.81,8.99,0.12
33.43,-0.56,8.84,0.25
33.43,-0.31,8.69,0.41
33.44,-0.08,8.60,0.60
33.44,0.13,8.52,0.88
33.44,0.23,8.48,1.22
33.44,0.38,8.42,1.51
33.45,0.47,8.34,1.78
33.45,0.45,8.32,2.00
33.45,0.33,8.32,2.15
33.45,0.19,8.28,2.24
33.46,0.06,8.23,2.25
33.46,-0.05,8.17,2.29
33.46,-0.17,8.12,2.33
33.46,-0.23,8.05,2.38
33.47,-0.32,8.00,2.43
33.47,-0.38,7.94,2.52
33.47,-0.44,7.87,2.57
33.47,-0.44,7.77,2.53
33.47,-0.43,7.83,2.65
33.48,-0.32,7.64,2.61
33.48,-0.22,7.46,2.62
33.48,-0.11,7.35,2.63
33.48,0.05,7.24,2.60
33.49,0.27,7.13,2.54
33.49,0.49,7.04,2.47
33.49,0.64,7.08,2.47
33.49,0.80,7.14,2.48
33.50,0.97,7.32,2.47
33.50,1.10,7.57,2.52
33.50,1.15,7.68,2.63
33.50,0.83,7.39,2.90
33.51,0.46,7.02,2.92
33.51,0.21,6.80,2.90
33.51,0.01,6.68,2.86
33.51,-0.07,6.62,2.76
33.52,-0.10,6.61,2.68
33.52,-0.13,6.61,2.61
33.52,-0.15,6.62,2.56
33.52,-0.15,6.63,2.47
33.52,-0.16,6.63,2.38
33.53,-0.17,6.63,2.26
33.53,-0.19,6.65,2.18
33.53,-0.18,6.70,2.08
33.53,-0.19,6.72,2.03
33.54,-0.23,6.74,2.03
33.54,-0.24,6.73,2.05
33.54,-0.22,6.67,2.06
33.54,-0.18,6.65,2.07
33.55,-0.15,6.60,2.11
33.55,-0.10,6.62,2.21
33.55,-0.09,6.61,2.25
33.55,-0.07,6.63,2.26
33.56,-0.06,6.64,2.33
33.56,-0.06,6.59,2.54
33.56,-0.05,6.59,2.65
33.56,-0.07,6.56,2.75
33.57,-0.12,6.57,2.80
33.57,-0.18,6.58,2.85
33.57,-0.28,6.60,2.86
33.57,-0.44,6.55,2.84
33.57,-0.55,6.45,2.80
33.58,-0.67,6.44,2.75
33.58,-0.81,6.41,2.76
33.58,-0.94,6.42,2.80
33.58,-1.05,6.46,2.87
33.59,-1.17,6.52,2.97
33.59,-1.29,6.61,3.05
33.59,-1.41,6.66,3.12
33.59,-1.50,6.72,3.19
33.60,-1.55,6.79,3.21
33.60,-1.62,6.89,3.24
33.60,-1.72,6.93,3.28
33.60,-1.77,7.05,3.30
33.61,-1.86,7.11,3.34
33.61,-1.93,7.17,3.41
33.61,-2.07,7.24,3.42
33.61,-2.17,7.33,3.49
33.62,-2.24,7.40,3.51
33.62,-2.35,7.48,3.55
33.62,-2.39,7.56,3.64
33.62,-2.44,7.64,3.73
33.62,-2.40,7.73,3.84
33.63,-2.43,7.80,3.96
33.63,-2.39,7.91,4.08
33.63,-2.38,7.98,4.22
33.63,-2.36,8.11,4.31
33.64,-2.32,8.20,4.41
33.64,-2.32,8.30,4.48
33.64,-2.32,8.38,4.50
33.64,-2.37,8.41,4.54
33.65,-2.42,8.45,4.59
33.65,-2.50,8.49,4.63
33.65,-2.52,8.57,4.64
33.65,-2.46,8.62,4.65
33.66,-2.40,8.69,4.71
33.66,-2.32,8.75,4.78
33.66,-2.28,8.81,4.86
33.66,-2.20,8.86,4.89
33.66,-2.15,8.85,4.94
33.67,-2.13,8.81,4.89
33.67,-2.08,8.79,4.87
33.67,-2.01,8.75,4.80
33.67,-1.92,8.69,4.76
33.68,-1.87,8.64,4.67
33.68,-1.87,8.53,4.64
33.68,-1.89,8.54,4.66
33.68,-1.84,8.50,4.73
33.69,-1.75,8.44,4.85
33.69,-1.74,8.34,4.97
33.69,-1.80,8.27,5.10
33.69,-1.88,8.19,5.22
33.70,-1.91,8.11,5.31
33.70,-1.91,8.07,5.41
33.70,-1.91,8.00,5.51
33.70,-2.03,7.98,5.57
33.71,-2.06,8.00,5.66
33.71,-2.10,7.99,5.74
33.71,-2.20,7.96,5.79
33.71,-2.28,7.93,5.85
33.71,-2.38,7.91,5.88
33.72,-2.42,7.96,5.88
33.72,-2.45,7.97,5.90
33.72,-2.58,7.94,5.86
33.72,-2.66,7.96,5.86
33.73,-2.73,7.98,5.82
33.73,-2.78,8.01,5.78
33.73,-2.84,8.04,5.76
33.73,-2.94,8.11,5.73
33.74,-2.98,8.14,5.73
33.74,-3.04,8.19,5.71
33.74,-3.11,8.24,5.67
33.74,-3.14,8.31,5.65
33.75,-3.14,8.42,5.67
33.75,-3.16,8.54,5.66
33.75,-3.16,8.66,5.65
33.75,-3.18,8.77,5.64
33.76,-3.18,8.87,5.64
33.76,-3.22,8.93,5.62
33.76,-3.25,9.00,5.60
33.76,-3.29,9.02,5.62
33.76,-3.37,9.05,5.51
33.77,-3.38,9.06,5.41
33.77,-3.43,9.05,5.19
33.77,-3.46,9.05,5.18
33.77,-3.49,9.02,5.34
33.78,-3.51,8.97,5.47
33.78,-3.54,8.95,5.37
33.78,-3.57,8.96,5.11
33.78,-3.59,8.91,4.88
33.79,-3.63,8.81,4.73
33.79,-3.63,8.69,4.46
33.79,-3.57,8.63,4.20
33.79,-3.43,8.69,3.86
33.80,-3.16,8.87,3.54
33.80,-2.84,9.14,3.19
33.80,-2.38,9.59,2.99
33.80,-1.95,10.17,3.00
33.81,-1.52,10.86,3.13
33.81,-1.09,11.68,3.47
33.81,-0.78,12.49,3.88
33.81,-0.42,13.28,4.35
33.81,-0.07,14.10,4.88
33.82,0.29,14.84,5.44
33.82,0.72,15.50,6.04
33.82,1.11,16.05,6.65
33.82,1.42,16.51,7.32
33.83,1.64,16.86,7.92
33.83,1.68,17.11,8.47
33.83,1.56,17.23,8.85
33.83,1.25,17.20,9.03
33.84,0.85,17.02,9.04
33.84,0.39,16.70,8.78
33.84,-0.07,16.28,8.41
33.84,-0.58,15.71,7.95
33.85,-1.10,15.05,7.41
33.85,-1.66,14.25,6.86
33.85,-2.21,13.47,6.33
33.85,-2.54,12.79,5.83
33.86,-2.73,12.21,5.33
33.86,-2.69,11.70,4.90
33.86,-2.52,11.24,4.50
33.86,-2.27,10.88,4.22
33.86,-1.89,10.57,4.03
33.87,-1.44,10.30,3.86
33.87,-1.14,10.11,3.69
33.87,-0.95,9.91,3.57
33.87,-0.78,9.77,3.41
33.88,-0.66,9.67,3.23
33.88,-0.61,9.58,3.09
33.88,-0.56,9.61,2.97
33.88,-0.54,9.66,2.86
33.89,-0.52,9.78,2.72
33.89,-0.57,9.91,2.48
33.89,-0.55,10.04,2.27
33.89,-0.52,10.23,2.10
33.90,-0.45,10.40,2.05
33.90,-0.33,10.57,2.00
33.90,-0.24,10.72,1.95
33.90,-0.19,10.83,1.95
33.90,-0.12,10.89,1.93
33.91,-0.05,10.93,1.99
33.91,0.03,10.94,2.06
33.91,0.13,10.88,2.13
33.91,0.25,10.82,2.19
33.92,0.35,10.65,2.27
33.92,0.44,10.40,2.29
33.92,0.53,10.09,2.30
33.92,0.67,9.83,2.33
33.93,0.77,9.54,2.40
33.93,0.86,9.33,2.54
33.93,1.00,9.18,2.73
33.93,1.11,9.05,2.96
33.94,1.22,8.98,3.16
33.94,1.34,8.88,3.29
33.94,1.48,8.77,3.28
33.94,1.62,8.73,3.26
33.95,1.74,8.72,3.22
33.95,1.89,8.77,3.13
33.95,2.01,8.87,3.15
33.95,2.12,8.96,3.21
33.95,2.15,9.10,3.36
33.96,2.19,9.15,3.48
33.96,2.25,9.27,3.59
33.96,2.33,9.40,3.75
33.96,2.33,9.58,3.83
33.97,2.48,9.75,4.17
33.97,2.70,9.79,4.31
33.97,2.83,9.89,4.20
33.97,2.99,10.05,3.96
33.98,3.13,10.19,3.82
33.98,3.25,10.33,3.68
33.98,3.22,10.44,3.58
33.98,3.17,10.56,3.47
33.99,3.12,10.66,3.37
33.99,3.00,10.72,3.34
33.99,2.82,10.74,3.33
33.99,2.60,10.71,3.23
34.00,2.35,10.63,3.20
34.00,2.05,10.51,3.16
34.00,1.76,10.38,3.13
34.00,1.53,10.22,3.08
34.00,1.29,10.09,3.00
34.01,1.09,9.93,2.97
34.01,0.90,9.78,2.92
34.01,0.76,9.65,2.90
34.01,0.66,9.49,2.88
34.02,0.53,9.34,2.75
34.02,0.48,9.24,2.64
34.02,0.37,9.14,2.57
34.02,0.34,9.10,2.56
34.03,0.28,9.06,2.53
34.03,0.29,9.01,2.48
34.03,0.30,8.98,2.44
34.03,0.24,8.95,2.48
34.04,0.24,8.94,2.44
34.04,0.30,8.96,2.37
34.04,0.32,8.98,2.34
34.04,0.29,8.90,2.27
34.05,0.25,8.78,2.19
34.05,0.22,8.66,2.05
34.05,0.21,8.53,2.04
34.05,0.14,8.45,2.20
34.05,0.02,8.43,2.24
34.06,-0.06,8.49,1.89
34.06,-0.20,8.38,1.52
34.06,-0.14,8.39,1.32
34.06,-0.02,8.45,1.22
34.07,0.07,8.51,1.20
34.07,0.24,8.53,1.20
34.07,0.27,8.52,1.25
34.07,0.33,8.50,1.32
34.08,0.32,8.48,1.42
34.08,0.21,8.41,1.56
34.08,0.14,8.30,1.70
34.08,0.07,8.16,1.84
34.09,0.01,7.98,2.01
34.09,0.06,7.92,2.11
34.09,-0.03,7.71,2.24
34.09,0.11,7.75,2.23
34.09,0.24,7.78,2.10
34.10,0.30,7.82,2.10
34.10,0.39,7.84,2.03
34.10,0.35,7.77,1.98
34.10,0.21,7.66,2.00
34.11,0.03,7.55,2.04
34.11,-0.07,7.48,2.06
34.11,-0.16,7.42,2.07
34.11,-0.29,7.33,2.12
34.12,-0.40,7.27,2.21
34.12,-0.40,7.22,2.28
34.12,-0.42,7.18,2.28
34.12,-0.42,7.16,2.30
34.13,-0.33,7.08,2.28
34.13,-0.22,7.03,2.27
34.13,-0.10,6.95,2.28
34.13,-0.02,6.91,2.31
34.14,0.10,6.84,2.36
34.14,0.17,6.76,2.36
34.14,0.28,6.70,2.39
34.14,0.34,6.63,2.42
34.14,0.47,6.60,2.37
34.15,0.56,6.58,2.34
34.15,0.68,6.59,2.34
34.15,0.81,6.58,2.28
34.15,0.90,6.59,2.27
34.16,0.92,6.63,2.25
34.16,0.96,6.68,2.29
34.16,0.99,6.74,2.31
34.16,1.04,6.82,2.29
34.17,1.08,6.93,2.24
34.17,1.04,6.96,2.30
34.17,1.01,7.03,2.35
34.17,1.01,7.09,2.38
34.18,1.03,7.16,2.35
34.18,1.05,7.25,2.29
34.18,1.03,7.30,2.21
34.18,0.98,7.36,2.12
34.19,0.94,7.40,2.07
34.19,0.97,7.44,2.00
34.19,0.96,7.48,1.92
34.19,0.99,7.51,1.82
34.19,1.00,7.54,1.73
34.20,1.02,7.59,1.74
34.20,1.02,7.63,1.78
34.20,0.99,7.68,1.82
34.20,0.98,7.70,1.78
34.21,0.96,7.79,1.73
34.21,0.92,7.85,1.66
34.21,0.88,7.88,1.64
34.21,0.83,7.98,1.68
34.22,0.74,7.99,1.78
34.22,0.66,8.07,1.87
34.22,0.59,8.13,1.92
34.22,0.50,8.20,2.01
34.23,0.51,8.31,2.10
34.23,0.49,8.38,2.20
34.23,0.49,8.50,2.28
34.23,0.53,8.57,2.37
34.24,0.53,8.67,2.42
34.24,0.54,8.77,2.52
34.24,0.53,8.84,2.61
34.24,0.47,8.88,2.69
34.24,0.45,8.93,2.69
34.25,0.33,8.99,2.80
34.25,0.24,9.02,2.86
34.25,0.15,9.13,2.90
34.25,0.02,9.18,2.95
34.26,-0.05,9.24,2.95
34.26,-0.20,9.27,2.95
34.26,-0.32,9.32,2.94
34.26,-0.47,9.39,2.97
34.27,-0.63,9.46,2.97
34.27,-0.73,9.51,2.98
34.27,-0.85,9.59,2.95
34.27,-0.91,9.63,2.97
34.28,-0.94,9.68,2.92
34.28,-0.95,9.75,2.88
34.28,-0.96,9.78,2.85
34.28,-0.99,9.84,2.80
34.29,-0.94,9.89,2.75
34.29,-0.89,9.91,2.71
34.29,-0.84,9.93,2.73
34.29,-0.74,9.97,2.79
34.29,-0.70,9.97,2.86
34.30,-0.64,10.01,2.91
34.30,-0.60,10.09,2.92
34.30,-0.51,10.16,2.92
34.30,-0.44,10.25,2.93
34.31,-0.43,10.29,2.99
34.31,-0.40,10.38,3.05
34.31,-0.35,10.49,3.10
34.31,-0.35,10.53,3.19
34.32,-0.31,10.62,3.26
34.32,-0.26,10.68,3.35
34.32,-0.20,10.74,3.42
34.32,-0.15,10.82,3.54
34.33,-0.09,10.88,3.64
34.33,-0.02,10.91,3.70
34.33,0.08,10.95,3.75
34.33,0.18,11.01,3.82
34.33,0.25,11.02,3.91
34.34,0.37,11.02,3.97
34.34,0.48,11.04,4.00
34.34,0.59,11.05,4.04
34.34,0.62,11.03,4.09
34.35,0.66,11.02,4.15
34.35,0.74,10.98,4.16
34.35,0.79,10.96,4.23
34.35,0.82,10.94,4.25
34.36,0.89,10.89,4.24
34.36,0.93,10.83,4.19
34.36,0.99,10.80,4.14
34.36,1.13,10.78,4.04
34.37,1.31,10.75,3.94
34.37,1.55,10.73,3.88
34.37,1.84,10.66,3.73
34.37,2.12,10.54,3.40
34.38,2.53,10.42,2.95
34.38,2.98,10.26,2.43
34.38,3.38,10.15,2.03
34.38,3.70,10.10,1.71
34.38,3.94,10.06,1.47
34.39,3.98,10.03,1.32
34.39,3.96,10.04,1.21
34.39,3.84,10.08,1.15
34.39,3.63,10.19,1.00
34.40,3.35,10.37,0.86
34.40,3.08,10.58,0.66
34.40,2.80,10.80,0.43
34.40,2.54,11.05,0.22
34.41,2.56,11.29,-0.22
34.41,2.75,11.53,-0.96
34.41,2.34,11.77,-0.70
34.41,2.06,12.10,-0.27
34.42,1.80,12.48,0.20
34.42,1.62,12.90,0.68
34.42,1.43,13.34,1.10
34.42,1.28,13.72,1.53
34.43,1.18,14.07,1.89
34.43,1.12,14.41,2.21
34.43,1.10,14.72,2.48
34.43,1.08,15.03,2.70
34.43,1.06,15.27,2.86
34.44,1.01,15.54,2.98
34.44,0.95,15.79,3.08
34.44,0.95,16.00,3.17
34.44,0.93,16.17,3.23
34.45,0.96,16.28,3.15
34.45,1.04,16.31,3.05
34.45,1.13,16.34,2.93
34.45,1.23,16.33,2.80
34.46,1.39,16.25,2.63
34.46,1.58,16.11,2.46
34.46,1.77,15.98,2.25
34.46,2.03,15.79,2.09
34.47,2.26,15.54,1.94
34.47,2.47,15.28,1.78
34.47,2.65,15.02,1.66
34.47,2.79,14.76,1.55
34.48,2.87,14.49,1.46
34.48,2.92,14.18,1.40
34.48,2.88,13.90,1.41
34.48,2.86,13.62,1.39
34.48,2.68,13.29,1.46
34.49,2.49,12.93,1.48
34.49,2.43,12.61,1.39
34.49,2.34,12.28,1.27
34.49,2.30,11.95,1.14
34.50,2.20,11.62,0.98
34.50,2.07,11.26,0.82
34.50,1.97,10.94,0.66
34.50,1.86,10.61,0.54
34.51,1.77,10.29,0.42
34.51,1.63,10.00,0.31
34.51,1.49,9.72,0.20
34.51,1.32,9.43,0.13
34.52,1.11,9.19,0.08
34.52,0.88,8.98,0.05
34.52,0.67,8.84,-0.01
34.52,0.48,8.70,0.00
34.52,0.32,8.58,0.08
34.53,0.16,8.49,0.11
34.53,0.05,8.40,0.13
34.53,-0.04,8.37,0.19
34.53,-0.13,8.34,0.24
34.54,-0.23,8.34,0.29
34.54,-0.37,8.38,0.37
34.54,-0.53,8.40,0.42
34.54,-0.69,8.51,0.48
34.55,-0.80,8.63,0.49
34.55,-0.98,8.73,0.44
34.55,-1.18,8.85,0.45
34.55,-1.39,8.97,0.46
34.56,-1.60,9.11,0.45
34.56,-1.76,9.24,0.48
34.56,-1.90,9.37,0.48
34.56,-2.04,9.49,0.52
34.57,-2.21,9.64,0.57
34.57,-2.30,9.79,0.63
34.57,-2.35,9.87,0.64
34.57,-2.38,9.95,0.65
34.57,-2.35,10.04,0.66
34.58,-2.35,10.08,0.65
34.58,-2.33,10.09,0.54
34.58,-2.39,10.12,0.44
34.58,-2.41,10.15,0.46
34.59,-2.48,10.18,0.48
34.59,-2.52,10.20,0.52
34.59,-2.54,10.22,0.53
34.59,-2.63,10.10,0.59
34.60,-2.69,9.94,0.71
34.60,-2.82,9.71,0.94
34.60,-2.86,9.51,1.23
34.60,-2.80,9.36,1.44
34.61,-2.68,9.32,1.61
34.61,-2.53,9.30,1.77
34.61,-2.35,9.25,1.88
34.61,-2.06,9.25,1.98
34.62,-1.73,9.25,2.07
34.62,-1.44,9.17,2.14
34.62,-1.11,9.08,2.08
34.62,-0.86,9.03,1.93
34.62,-0.53,8.98,1.77
34.63,-0.28,8.96,1.57
34.63,-0.05,9.02,1.64
34.63,0.04,9.06,1.92
34.63,0.17,9.04,1.99
34.64,0.25,8.93,1.86
34.64,0.24,8.85,1.89
34.64,0.20,8.81,1.96
34.64,0.19,8.84,2.16
34.65,0.24,8.85,2.37
34.65,0.30,8.81,2.53
34.65,0.33,8.70,2.56
34.65,0.38,8.57,2.61
34.66,0.41,8.44,2.63
34.66,0.49,8.30,2.61
34.66,0.58,8.21,2.57
34.66,0.73,8.16,2.57
34.67,0.77,8.09,2.64
34.67,0.79,7.98,2.78
34.67,0.73,7.90,3.00
34.67,0.69,7.86,3.12
34.67,0.71,7.83,3.20
34.68,0.76,7.78,3.42
34.68,0.81,7.70,3.63
34.68,0.90,7.63,3.67
34.68,1.03,7.59,3.65
34.69,1.14,7.65,3.56
34.69,1.23,7.66,3.38
34.69,1.24,7.57,3.28
34.69,1.06,7.36,3.16
34.70,0.86,7.21,3.01
34.70,0.74,7.08,2.87
34.70,0.67,7.03,2.84
34.70,0.59,6.99,2.83
34.71,0.54,6.93,2.82
34.71,0.50,6.90,2.79
34.71,0.50,6.84,2.74
34.71,0.52,6.81,2.69
34.72,0.53,6.75,2.60
34.72,0.54,6.74,2.51
34.72,0.54,6.71,2.46
34.72,0.51,6.72,2.50
34.72,0.48,6.77,2.60
34.73,0.44,6.76,2.67
34.73,0.47,6.80,2.64
34.73,0.42,6.85,2.65
34.73,0.41,6.91,2.59
34.74,0.43,6.95,2.63
34.74,0.48,6.99,2.66
34.74,0.54,7.01,2.66
34.74,0.63,7.03,2.70
34.75,0.67,7.00,2.62
34.75,0.73,7.02,2.58
34.75,0.80,7.01,2.71
34.75,0.85,6.99,2.95
34.76,0.87,6.95,3.12
34.76,0.86,6.93,3.24
34.76,0.85,6.88,3.33
34.76,0.80,6.86,3.33
34.76,0.70,6.83,3.30
34.77,0.62,6.82,3.22
34.77,0.48,6.76,3.13
34.77,0.39,6.74,3.02
34.77,0.30,6.72,2.92
34.78,0.20,6.69,2.83
34.78,0.08,6.69,2.79
34.78,-0.05,6.66,2.75
34.78,-0.18,6.62,2.68
34.79,-0.36,6.61,2.65
34.79,-0.52,6.61,2.59
34.79,-0.70,6.60,2.60
34.79,-0.89,6.56,2.57
34.80,-1.04,6.53,2.49
34.80,-1.20,6.52,2.43
34.80,-1.37,6.50,2.42
34.80,-1.53,6.47,2.38
34.81,-1.75,6.43,2.38
34.81,-1.91,6.45,2.39
34.81,-2.03,6.40,2.47
34.81,-2.19,6.38,2.57
34.81,-2.30,6.34,2.67
34.82,-2.34,6.24,2.71
34.82,-2.37,6.18,2.76
34.82,-2.48,6.17,2.82
34.82,-2.65,6.30,2.92
34.83,-2.85,6.46,3.07
34.83,-3.03,6.58,3.30
34.83,-3.14,6.70,3.48
34.83,-3.27,6.83,3.68
34.84,-3.29,6.98,3.80
34.84,-3.28,7.08,3.91
34.84,-3.29,7.22,4.00
34.84,-3.31,7.31,4.10
34.85,-3.37,7.41,4.18
34.85,-3.45,7.58,4.24
34.85,-3.54,7.75,4.35
34.85,-3.53,7.91,4.35
34.86,-3.48,8.05,4.40
34.86,-3.48,8.14,4.47
34.86,-3.46,8.21,4.54
34.86,-3.50,8.32,4.66
34.86,-3.44,8.39,4.72
34.87,-3.39,8.43,4.81
34.87,-3.40,8.46,4.94
34.87,-3.40,8.51,5.01
34.87,-3.34,8.53,5.07
34.88,-3.31,8.58,5.10
34.88,-3.03,8.76,4.88
34.88,-3.11,8.78,4.85
34.88,-3.32,8.66,4.87
34.89,-3.44,8.63,4.79
34.89,-3.56,8.59,4.75
34.89,-3.66,8.54,4.66
34.89,-3.72,8.51,4.59
34.90,-3.75,8.47,4.55
34.90,-3.77,8.49,4.50
34.90,-3.78,8.49,4.53
34.90,-3.81,8.51,4.50
34.91,-3.82,8.49,4.50
34.91,-3.89,8.45,4.51
34.91,-3.93,8.42,4.58
34.91,-4.00,8.37,4.64
34.91,-4.06,8.33,4.66
34.92,-4.12,8.32,4.74
34.92,-4.20,8.26,4.83
34.92,-4.19,8.22,4.94
34.92,-4.21,8.22,5.06
34.93,-4.17,8.17,5.17
34.93,-4.12,8.13,5.28
34.93,-4.09,8.09,5.36
34.93,-4.04,8.05,5.48
34.94,-3.98,8.02,5.59
34.94,-3.87,7.98,5.70
34.94,-3.78,7.95,5.81
34.94,-3.71,7.86,5.90
34.95,-3.63,7.79,6.01
34.95,-3.58,7.73,6.08
34.95,-3.50,7.65,6.16
34.95,-3.48,7.55,6.17
34.95,-3.47,7.47,6.20
34.96,-3.51,7.40,6.21
34.96,-3.56,7.28,6.20
34.96,-3.53,7.22,6.20
34.96,-3.43,7.16,6.22
34.97,-3.31,7.16,6.28
34.97,-3.24,7.08,6.40
34.97,-3.15,7.09,6.52
34.97,-3.12,7.10,6.65
34.98,-3.11,7.07,6.78
34.98,-3.14,7.07,6.90
34.98,-3.22,7.12,7.03
34.98,-3.32,7.13,7.10
34.99,-3.36,7.16,7.16
34.99,-3.43,7.20,7.24
34.99,-3.56,7.28,7.28
34.99,-3.69,7.26,7.29
35.00,-3.82,7.32,7.32
35.00,-3.89,7.37,7.32
35.00,-3.97,7.41,7.28
35.00,-4.06,7.47,7.28
35.00,-4.06,7.56,7.27
35.01,-4.10,7.65,7.27
35.01,-4.13,7.68,7.29
35.01,-4.15,7.76,7.25
35.01,-4.19,7.79,7.27
35.02,-4.24,7.83,7.29
35.02,-4.26,7.92,7.31
35.02,-4.30,7.98,7.32
35.02,-4.42,8.04,7.40
35.03,-4.50,8.08,7.47
35.03,-4.56,8.18,7.55
35.03,-4.66,8.25,7.63
35.03,-4.76,8.32,7.73
35.04,-4.82,8.39,7.79
35.04,-4.92,8.45,7.81
35.04,-5.01,8.50,7.88
35.04,-5.01,8.55,7.95
35.05,-5.05,8.58,7.98
35.05,-5.08,8.66,7.79
35.05,-5.13,8.81,7.16
35.05,-5.16,8.98,6.45
35.05,-5.06,9.11,5.80
35.06,-4.88,9.18,5.66
35.06,-4.60,9.06,5.50
35.06,-4.22,8.90,5.33
35.06,-3.75,8.72,5.07
35.07,-3.21,8.74,4.71
35.07,-2.68,8.95,4.45
35.07,-2.25,9.27,4.39
35.07,-1.99,9.82,4.53
35.08,-1.84,10.61,4.87
35.08,-1.81,11.64,5.34
35.08,-1.79,12.77,5.86
35.08,-1.73,13.94,6.34
35.09,-1.52,14.93,6.61
35.09,-1.23,15.71,6.81
35.09,-0.83,16.30,7.03
35.09,-0.38,16.68,7.34
35.10,0.18,16.98,7.75
35.10,0.77,17.17,8.24
35.10,1.28,17.30,8.71
35.10,1.75,17.38,9.07
35.10,1.97,17.46,9.26
35.11,1.88,17.41,9.31
35.11,1.56,17.25,9.17
35.11,1.06,16.94,8.86
35.11,0.52,16.42,8.51
35.12,-0.13,15.69,8.17
35.12,-0.81,14.74,7.83
35.12,-1.64,13.50,7.40
35.12,-2.44,12.18,6.89
35.13,-3.00,11.10,6.34
35.13,-3.28,10.24,5.75
35.13,-3.29,9.58,5.17
35.13,-3.00,9.11,4.68
35.14,-2.51,8.74,4.24
35.14,-2.01,8.39,3.99
35.14,-1.57,8.04,3.80
35.14,-1.15,7.69,3.60
35.15,-0.71,7.47,3.36
35.15,-0.26,7.38,3.15
35.15,0.02,7.32,2.88
35.15,0.34,7.36,2.64
35.15,0.64,7.47,2.41
35.16,0.88,7.55,2.26
35.16,1.05,7.66,2.15
35.16,1.23,7.78,2.11
35.16,1.38,7.94,2.12
35.17,1.47,8.09,2.13
35.17,1.54,8.25,2.22
35.17,1.52,8.40,2.34
35.17,1.55,8.55,2.41
35.18,1.67,8.71,2.57
35.18,1.72,8.89,2.70
35.18,1.55,9.02,2.81
35.18,1.41,9.14,2.77
35.19,1.22,9.24,2.66
35.19,1.05,9.36,2.62
35.19,0.91,9.49,2.60
35.19,0.83,9.59,2.52
35.19,0.75,9.71,2.46
35.20,0.66,9.77,2.43
35.20,0.56,9.83,2.39
35.20,0.43,9.88,2.39
35.20,0.33,9.90,2.41
35.21,0.22,9.94,2.56
35.21,0.18,9.94,2.69
35.21,0.13,9.95,2.93
35.21,0.09,9.97,3.14
35.22,0.13,9.97,3.27
35.22,0.17,9.96,3.46
35.22,0.23,9.98,3.69
35.22,0.37,9.99,3.78
35.23,0.61,9.94,3.89
35.23,0.85,9.92,4.08
35.23,1.12,9.79,4.24
35.23,1.30,9.67,4.38
35.24,1.50,9.58,4.43
35.24,1.64,9.47,4.40
35.24,1.77,9.36,4.33
35.24,1.97,9.31,4.23
35.24,2.21,9.28,4.12
35.25,2.39,9.33,3.95
35.25,2.53,9.40,3.80
35.25,2.64,9.44,3.62
35.25,2.72,9.50,3.46
35.26,2.69,9.51,3.33
35.26,2.56,9.58,3.13
35.26,2.40,9.61,2.86
35.26,2.17,9.64,2.65
35.27,1.91,9.76,2.41
35.27,1.66,9.94,2.24
35.27,1.38,10.12,2.12
35.27,1.11,10.27,2.16
35.28,0.79,10.43,2.30
35.28,0.47,10.49,2.48
35.28,0.11,10.57,2.52
35.28,-0.06,10.66,2.52
35.29,-0.25,10.74,2.56
35.29,-0.40,10.82,2.58
35.29,-0.51,10.90,2.65
35.29,-0.58,10.97,2.69
35.29,-0.70,11.03,2.75
35.30,-0.84,11.06,2.80
35.30,-0.94,11.07,2.83
35.30,-1.00,11.11,2.90
35.30,-0.99,11.10,2.89
35.31,-0.97,11.08,2.94
35.31,-0.91,11.07,2.98
35.31,-0.88,11.01,2.98
35.31,-0.82,10.94,2.88
35.32,-0.83,10.79,2.86
35.32,-0.77,10.63,2.78
35.32,-0.65,10.51,2.61
35.32,-0.53,10.47,2.52
35.33,-0.42,10.38,2.50
35.33,-0.34,10.28,2.49
35.33,-0.18,10.19,2.67
35.33,0.02,10.16,2.95
35.34,-0.04,10.11,3.02
35.34,-0.32,10.06,2.72
35.34,-0.12,9.75,2.02
35.34,-0.02,9.55,1.55
35.34,-0.03,9.50,1.53
35.35,-0.06,9.41,1.64
35.35,-0.07,9.27,1.82
35.35,-0.14,9.12,2.01
35.35,-0.20,8.97,2.21
35.36,-0.22,8.82,2.40
35.36,-0.16,8.72,2.42
35.36,-0.21,8.53,2.45
35.36,-0.08,8.50,2.44
35.37,0.05,8.47,2.41
35.37,0.10,8.40,2.37
35.37,0.16,8.27,2.34
35.37,0.10,8.14,2.29
35.38,0.05,8.00,2.26
35.38,0.04,7.85,2.21
35.38,0.04,7.68,2.16
35.38,0.05,7.61,2.17
35.38,0.13,7.55,2.16
35.39,0.10,7.51,2.18
35.39,0.08,7.45,2.14
35.39,0.10,7.39,2.09
35.39,0.13,7.30,2.10
35.40,0.16,7.15,2.13
35.40,0.18,7.00,2.11
35.40,0.24,6.89,2.25
35.40,0.26,6.73,2.29
35.41,0.31,6.58,2.21
35.41,0.33,6.44,2.16
35.41,0.39,6.37,2.08
35.41,0.48,6.31,2.01
35.42,0.48,6.23,2.00
35.42,0.41,6.15,1.97
35.42,0.48,6.06,1.94
35.42,0.60,6.00,1.97
35.43,0.67,6.01,2.10
35.43,0.71,6.02,2.26
35.43,0.74,5.99,2.37
35.43,0.74,5.98,2.46
35.43,0.70,5.92,2.51
35.44,0.70,5.97,2.60
35.44,0.63,5.96,2.74
35.44,0.59,5.96,2.83
35.44,0.58,6.03,2.94
35.45,0.53,6.09,3.12
35.45,0.58,6.23,3.24
35.45,0.62,6.35,3.26
35.45,0.64,6.43,3.26
35.46,0.65,6.57,3.24
35.46,0.71,6.68,3.14
35.46,0.76,6.74,3.07
35.46,0.71,6.79,3.02
35.47,0.64,6.86,2.97
35.47,0.65,6.93,2.91
35.47,0.64,7.00,2.86
35.47,0.66,7.08,2.78
35.48,0.60,7.15,2.72
35.48,0.59,7.21,2.64
35.48,0.51,7.25,2.58
35.48,0.45,7.28,2.51
35.48,0.42,7.35,2.45
35.49,0.30,7.39,2.41
35.49,0.27,7.47,2.30
35.49,0.24,7.53,2.16
35.49,0.19,7.59,2.03
35.50,0.10,7.66,1.88
35.50,0.00,7.69,1.77
35.50,-0.01,7.76,1.58
35.50,-0.04,7.76,1.44
35.51,-0.09,7.75,1.35
35.51,-0.12,7.80,1.29
35.51,-0.16,7.87,1.22
35.51,-0.15,7.93,1.14
35.52,-0.13,7.99,1.17
35.52,-0.17,8.03,1.12
35.52,-0.13,8.07,1.14
35.52,-0.07,8.16,1.17
35.53,0.00,8.22,1.19
35.53,0.06,8.28,1.24
35.53,0.08,8.29,1.31
35.53,0.11,8.30,1.34
35.53,0.16,8.37,1.36
35.54,0.17,8.40,1.45
35.54,0.20,8.44,1.46
35.54,0.25,8.48,1.47
35.54,0.26,8.50,1.47
35.55,0.29,8.54,1.44
35.55,0.31,8.64,1.39
35.55,0.33,8.70,1.35
35.55,0.36,8.78,1.33
35.56,0.39,8.87,1.26
35.56,0.47,8.91,1.22
35.56,0.49,8.97,1.18
35.56,0.53,9.00,1.11
35.57,0.59,9.10,1.10
35.57,0.64,9.19,1.12
35.57,0.71,9.22,1.09
35.57,0.75,9.29,1.10
35.58,0.84,9.32,1.16
35.58,0.84,9.38,1.23
35.58,0.90,9.51,1.29
35.58,0.92,9.62,1.34
35.58,0.96,9.71,1.43
35.59,0.99,9.79,1.44
35.59,1.02,9.90,1.48
35.59,1.05,9.99,1.54
35.59,1.04,10.10,1.62
35.60,1.05,10.21,1.68
35.60,1.04,10.29,1.70
35.60,1.04,10.34,1.73
35.60,1.03,10.40,1.80
35.61,1.05,10.44,1.84
35.61,1.08,10.48,1.87
35.61,1.10,10.58,1.96
35.61,1.10,10.62,2.00
35.62,1.10,10.67,2.01
35.62,1.12,10.76,2.11
35.62,1.11,10.77,2.20
35.62,1.13,10.80,2.26
35.62,1.11,10.83,2.33
35.63,1.11,10.78,2.38
35.63,1.13,10.79,2.40
35.63,1.16,10.74,2.41
35.63,1.20,10.73,2.43
35.64,1.18,10.71,2.50
35.64,1.18,10.69,2.55
35.64,1.19,10.66,2.60
35.64,1.23,10.65,2.64
35.65,1.28,10.64,2.65
35.65,1.30,10.62,2.79
35.65,1.32,10.57,2.86
35.65,1.33,10.54,2.99
35.66,1.35,10.55,3.05
35.66,1.39,10.56,3.16
35.66,1.41,10.57,3.25
35.66,1.45,10.61,3.28
35.67,1.51,10.64,3.30
35.67,1.55,10.67,3.37
35.67,1.57,10.70,3.38
35.67,1.63,10.73,3.43
35.67,1.69,10.78,3.45
35.68,1.75,10.83,3.52
35.68,1.74,10.85,3.57
35.68,1.89,10.97,3.63
35.68,1.99,11.09,3.65
35.69,2.04,11.22,3.63
35.69,2.08,11.35,3.62
35.69,2.11,11.43,3.57
35.69,2.12,11.50,3.62
35.70,2.19,11.58,3.59
35.70,2.24,11.65,3.53
35.70,2.30,11.73,3.43
35.70,2.39,11.75,3.37
35.71,2.55,11.87,3.32
35.71,2.63,11.89,3.30
35.71,2.66,11.90,3.30
35.71,2.71,11.90,3.28
35.72,2.75,11.92,3.27
35.72,2.72,11.88,3.29
35.72,2.79,11.90,3.24
35.72,2.74,11.84,3.20
35.72,2.76,11.78,3.24
35.73,2.75,11.74,3.25
35.73,3.07,11.76,2.76
35.73,3.20,11.72,2.10
35.73,3.12,11.66,2.27
35.74,3.04,11.69,2.51
35.74,2.99,11.72,2.67
35.74,2.89,11.75,2.89
35.74,2.88,11.81,2.96
35.75,2.92,11.89,2.96
35.75,2.91,11.91,2.92
35.75,2.98,11.97,2.86
35.75,3.06,12.00,2.70
35.76,3.23,12.05,2.51
35.76,3.32,12.09,2.25
35.76,3.36,12.04,1.98
35.76,3.35,11.97,1.73
35.77,3.35,12.01,1.55
35.77,3.36,12.02,1.41
35.77,3.23,12.04,1.34
35.77,3.01,12.04,1.31
35.77,2.71,11.97,1.29
35.78,2.38,11.92,1.29
35.78,1.90,11.90,1.28
35.78,1.38,11.87,1.32
35.78,0.88,11.89,1.33
35.79,0.35,11.93,1.41
35.79,-0.16,11.97,1.47
35.79,-0.65,12.03,1.54
35.79,-1.09,12.14,1.65
35.80,-1.52,12.24,1.74
35.80,-1.91,12.35,1.85
35.80,-2.22,12.50,1.84
35.80,-2.56,12.63,1.80
35.81,-2.80,12.75,1.68
35.81,-2.98,12.85,1.48
35.81,-3.02,12.93,1.25
35.81,-3.01,13.00,0.99
35.81,-2.95,13.07,0.67
35.82,-2.74,13.12,0.33
35.82,-2.50,13.15,0.03
35.82,-2.17,13.18,-0.23
35.82,-1.71,13.20,-0.41
35.83,-1.26,13.20,-0.52
35.83,-0.74,13.19,-0.58
35.83,-0.17,13.19,-0.59
35.83,0.42,13.16,-0.64
35.84,0.96,13.13,-0.69
35.84,1.50,13.14,-0.76
35.84,1.97,13.10,-0.80
35.84,2.46,13.07,-0.85
35.85,2.93,13.05,-0.85
35.85,3.30,12.98,-0.83
35.85,3.50,12.93,-0.65
35.85,3.50,12.85,-0.42
35.86,3.44,12.76,-0.25
35.86,3.38,12.63,-0.26
35.86,3.34,12.48,-0.39
35.86,3.27,12.28,-0.49
35.86,3.13,12.06,-0.69
35.87,2.96,11.86,-0.80
35.87,2.71,11.64,-0.88
35.87,2.47,11.42,-0.96
35.87,2.23,11.22,-1.02
35.88,1.93,10.95,-1.17
35.88,1.64,10.73,-1.38
35.88,1.35,10.48,-1.53
35.88,1.07,10.30,-1.67
35.89,0.81,10.15,-1.82
35.89,0.52,10.02,-1.85
35.89,0.23,9.88,-1.92
35.89,-0.08,9.82,-1.97
35.90,-0.27,9.78,-2.01
35.90,-0.48,9.77,-2.03
35.90,-0.70,9.77,-2.03
35.90,-0.89,9.82,-2.01
35.91,-1.05,9.89,-2.00
35.91,-1.14,9.98,-1.96
35.91,-1.24,10.08,-1.95
35.91,-1.33,10.16,-1.93
35.91,-1.39,10.24,-1.89
35.92,-1.40,10.30,-1.88
35.92,-1.43,10.37,-1.83
35.92,-1.46,10.42,-1.82
35.92,-1.37,10.45,-1.75
35.93,-1.31,10.43,-1.74
35.93,-1.29,10.40,-1.72
35.93,-1.22,10.34,-1.68
35.93,-1.24,10.26,-1.68
35.94,-1.21,10.22,-1.65
35.94,-1.17,10.15,-1.59
35.94,-1.10,10.06,-1.62
35.94,-1.03,9.93,-1.64
35.95,-0.93,9.86,-1.60
35.95,-0.88,9.76,-1.54
35.95,-0.84,9.69,-1.45
35.95,-0.70,9.65,-1.36
35.96,-0.58,9.62,-1.28
35.96,-0.36,9.64,-1.19
35.96,-0.12,9.67,-1.16
35.96,0.14,9.76,-1.09
35.96,0.42,9.79,-1.04
35.97,0.72,9.78,-0.83
35.97,0.96,9.70,-0.54
35.97,1.35,9.79,-0.31
35.97,1.85,9.74,-0.44
35.98,2.22,9.61,-0.32
35.98,2.47,9.28,-0.25
35.98,2.59,9.06,-0.04
35.98,2.69,8.97,0.00
35.99,2.50,8.52,-0.04
35.99,2.46,8.22,-0.08
35.99,2.49,7.93,-0.07
35.99,2.52,7.78,-0.18
36.00,2.42,7.76,-0.23
36.00,2.46,7.75,0.02
36.00,2.53,7.65,0.39
36.00,2.32,7.30,0.80
36.01,2.00,6.80,1.13
36.01,1.84,6.46,1.41
36.01,1.84,6.18,1.52
36.01,1.88,6.02,1.58
36.01,1.97,5.89,1.42
36.02,2.05,5.76,1.19
36.02,2.04,5.69,1.07
36.02,1.96,5.66,1.06
36.02,1.92,5.65,1.10
36.03,1.89,5.67,1.08
36.03,1.80,5.63,1.01
36.03,1.68,5.61,0.95
36.03,1.52,5.61,0.96
36.04,1.35,5.70,1.06
36.04,1.14,5.83,1.17
36.04,0.84,6.00,1.38
36.04,0.58,6.06,1.59
36.05,0.41,6.10,1.81
36.05,0.27,6.19,2.05
36.05,0.24,6.28,2.24
36.05,0.16,6.36,2.32
36.05,0.09,6.50,2.30
36.06,0.05,6.64,2.23
36.06,0.06,6.77,2.10
36.06,0.12,6.91,1.97
36.06,0.16,7.07,1.89
36.07,0.22,7.26,1.77
36.07,0.31,7.46,1.66
36.07,0.30,7.60,1.65
36.07,0.14,7.62,1.70
36.08,0.00,7.66,1.73
36.08,-0.14,7.76,1.83
36.08,-0.19,7.89,1.85
36.08,-0.20,8.00,1.90
36.09,-0.24,8.16,1.96
36.09,-0.28,8.31,2.09
36.09,-0.31,8.47,2.18
36.09,-0.34,8.62,2.35
36.10,-0.37,8.75,2.44
36.10,-0.38,8.85,2.53
36.10,-0.42,8.93,2.63
36.10,-0.48,8.98,2.71
36.10,-0.56,9.08,2.76
36.11,-0.67,9.14,2.79
36.11,-0.81,9.17,2.85
36.11,-0.93,9.24,2.89
36.11,-1.01,9.26,2.94
36.12,-1.12,9.27,3.03
36.12,-1.20,9.25,3.09
36.12,-1.30,9.23,3.15
36.12,-1.40,9.21,3.19
36.13,-1.49,9.17,3.26
36.13,-1.62,9.08,3.23
36.13,-1.79,8.96,3.29
36.13,-1.90,8.91,3.37
36.14,-2.02,8.90,3.48
36.14,-2.12,8.86,3.56
36.14,-2.23,8.78,3.62
36.14,-2.31,8.72,3.69
36.15,-2.48,8.65,3.71
36.15,-2.67,8.54,3.71
36.15,-2.69,8.44,3.72
36.15,-2.70,8.33,3.70
36.15,-2.73,8.23,3.71
36.16,-2.76,8.16,3.66
36.16,-2.70,8.09,3.61
36.16,-2.66,8.09,3.60
36.16,-2.66,8.10,3.68
36.17,-2.65,8.15,3.95
36.17,-2.62,8.22,4.16
36.17,-2.60,8.25,4.35
36.17,-2.57,8.28,4.48
36.18,-2.52,8.29,4.54
36.18,-2.44,8.24,4.55
36.18,-2.35,8.19,4.51
36.18,-2.24,8.14,4.48
36.19,-2.18,8.08,4.44
36.19,-2.17,8.06,4.39
36.19,-2.20,8.06,4.40
36.19,-2.20,8.13,4.47
36.20,-2.17,8.19,4.57
36.20,-2.09,8.19,4.67
36.20,-2.00,8.15,4.79
36.20,-1.90,8.13,4.92
36.20,-1.91,8.05,5.02
36.21,-1.86,8.02,5.14
36.21,-1.78,7.94,5.21
36.21,-1.68,7.92,5.23
36.21,-1.62,7.87,5.29
36.22,-1.57,7.79,5.36
36.22,-1.62,7.70,5.43
36.22,-1.69,7.57,5.49
36.22,-1.73,7.53,5.52
36.23,-1.53,7.62,5.30
36.23,-1.69,7.46,5.47
36.23,-1.95,7.29,5.68
36.23,-2.05,7.19,5.83
36.24,-2.02,7.18,5.88
36.24,-1.98,7.20,5.97
36.24,-2.00,7.19,6.00
36.24,-2.02,7.15,6.05
36.24,-2.05,7.13,6.09
36.25,-2.13,7.10,6.12
36.25,-2.16,7.04,6.22
36.25,-2.26,7.00,6.30
36.25,-2.35,6.95,6.33
36.26,-2.52,6.91,6.33
36.26,-2.60,6.88,6.33
36.26,-2.65,6.87,6.30
36.26,-2.70,6.88,6.28
36.27,-2.83,6.85,6.27
36.27,-2.93,6.85,6.33
36.27,-2.94,6.87,6.33
36.27,-2.99,6.92,6.36
36.28,-3.05,6.94,6.39
36.28,-3.15,6.90,6.42
36.28,-3.22,6.94,6.49
36.28,-3.30,7.00,6.50
36.29,-3.32,7.05,6.54
36.29,-3.28,7.12,6.67
36.29,-3.26,7.22,6.75
36.29,-3.37,7.31,6.77
36.29,-3.46,7.42,6.82
36.30,-3.49,7.57,6.89
36.30,-3.55,7.67,6.96
36.30,-3.58,7.77,7.06
36.30,-3.62,7.86,7.02
36.31,-3.72,7.98,6.93
36.31,-3.78,8.16,6.65
36.31,-3.78,8.33,6.34
36.31,-3.78,8.41,5.98
36.32,-3.76,8.42,5.76
36.32,-3.70,8.28,5.37
36.32,-3.60,8.00,5.11
36.32,-3.47,7.80,4.61
36.33,-3.31,7.75,4.20
36.33,-3.20,7.89,3.77
36.33,-3.15,8.20,3.35
36.33,-3.13,8.68,3.01
36.34,-3.08,9.39,2.74
36.34,-3.02,10.28,2.64
36.34,-2.91,11.31,2.55
36.34,-2.66,12.48,2.43
36.34,-2.38,13.63,2.37
36.35,-2.05,14.72,2.46
36.35,-1.50,15.71,2.59
36.35,-0.87,16.72,3.11
36.35,-0.15,17.63,3.95
36.36,0.71,18.42,4.89
36.36,1.60,19.13,5.95
36.36,2.38,19.72,7.08
36.36,3.02,20.21,8.15
36.37,3.51,20.51,9.10
36.37,3.85,20.57,9.84
36.37,3.98,20.43,10.34
36.37,3.99,20.05,10.47
36.38,3.98,19.45,10.19
36.38,3.92,18.63,9.62
36.38,3.74,17.61,8.81
36.38,3.44,16.50,7.85
36.39,2.88,15.24,6.86
36.39,2.24,14.07,5.99
36.39,1.68,13.15,5.14
36.39,1.39,12.42,4.46
36.39,1.34,11.83,3.93
36.40,1.22,11.41,3.54
36.40,1.17,11.12,3.24
36.40,1.15,10.90,3.05
36.40,1.21,10.77,2.99
36.41,1.28,10.69,2.95
36.41,1.32,10.61,2.92
36.41,1.12,10.43,2.98
36.41,1.17,10.33,2.78
36.42,1.33,10.23,2.62
36.42,1.51,10.11,2.59
36.42,1.63,10.00,2.64
36.42,1.68,9.91,2.75
36.43,1.70,9.84,2.80
36.43,1.73,9.82,2.84
36.43,1.71,9.76,2.78
36.43,1.68,9.72,2.80
36.44,1.64,9.69,2.90
36.44,1.62,9.65,3.05
36.44,1.53,9.61,3.20
36.44,1.43,9.54,3.30
36.44,1.33,9.52,3.36
36.45,1.25,9.46,3.39
36.45,1.24,9.42,3.44
36.45,1.18,9.37,3.45
36.45,1.13,9.33,3.44
36.46,1.05,9.27,3.34
36.46,0.99,9.21,3.23
36.46,0.96,9.17,3.07
36.46,0.95,9.11,2.91
36.47,0.99,9.09,2.73
36.47,1.03,9.07,2.64
36.47,1.07,9.05,2.57
36.47,1.08,9.06,2.43
36.48,1.08,9.06,2.26
36.48,1.11,9.09,2.07
36.48,1.12,9.10,1.95
36.48,1.15,9.14,1.89
36.48,1.21,9.16,1.82
36.49,1.32,9.15,1.84
36.49,1.45,9.26,1.92
36.49,1.55,9.36,2.01
36.49,1.64,9.51,2.19
36.50,1.61,9.54,2.48
36.50,1.61,9.58,2.64
36.50,1.74,9.59,2.72
36.50,1.91,9.66,2.89
36.51,2.06,9.77,3.02
36.51,2.22,9.86,3.14
36.51,2.36,9.96,3.31
36.51,2.47,10.07,3.52
36.52,2.61,10.19,3.70
36.52,2.71,10.30,3.86
36.52,2.80,10.37,4.02
36.52,2.91,10.32,4.00
36.53,2.94,10.27,4.03
36.53,2.88,10.20,3.98
36.53,2.87,10.14,3.77
36.53,2.75,10.08,3.64
36.53,2.67,10.01,3.52
36.54,2.55,9.92,3.40
36.54,2.34,9.80,3.27
36.54,2.14,9.71,3.17
36.54,1.95,9.61,3.16
36.55,1.76,9.53,3.22
36.55,1.55,9.39,3.27
36.55,1.27,9.25,2.92
36.55,1.00,9.12,2.64
36.56,0.83,9.00,2.39
36.56,0.61,8.88,2.22
36.56,0.31,8.73,2.12
36.56,0.11,8.66,2.10
36.57,-0.07,8.60,2.10
36.57,-0.07,8.58,2.18
36.57,-0.15,8.50,2.30
36.57,-0.27,8.43,2.36
36.58,-0.33,8.40,2.50
36.58,-0.41,8.29,2.39
36.58,-0.46,8.18,2.17
36.58,-0.49,8.06,2.06
36.58,-0.52,8.05,1.95
36.59,-0.47,8.09,1.84
36.59,-0.35,8.09,1.83
36.59,-0.36,8.10,1.84
36.59,-0.33,8.13,1.85
36.60,-0.33,8.11,1.88
36.60,-0.33,8.13,1.87
36.60,-0.31,8.11,1.82
36.60,-0.33,8.08,1.77
36.61,-0.31,8.08,1.73
36.61,-0.28,8.06,1.70
36.61,-0.31,7.96,1.71
36.61,-0.21,7.89,1.71
36.62,-0.08,7.98,1.56
36.62,0.01,8.05,1.35
36.62,0.00,8.05,1.27
36.62,-0.10,7.99,1.27
36.63,-0.16,7.90,1.31
36.63,-0.22,7.79,1.31
36.63,-0.22,7.66,1.31
36.63,-0.28,7.55,1.34
36.63,-0.30,7.51,1.45
36.64,-0.24,7.46,1.54
36.64,-0.20,7.38,1.56
36.64,-0.21,7.31,1.43
36.64,-0.18,7.28,1.33
36.65,-0.19,7.28,1.33
36.65,-0.18,7.27,1.34
36.65,-0.13,7.26,1.44
36.65,-0.06,7.24,1.60
36.66,0.01,7.21,1.77
36.66,0.06,7.16,1.95
36.66,0.15,7.08,2.05
36.66,0.23,7.05,2.17
36.67,0.31,7.01,2.23
36.67,0.37,6.98,2.27
36.67,0.40,6.93,2.30
36.67,0.38,6.90,2.32
36.67,0.38,6.87,2.31
36.68,0.36,6.86,2.30
36.68,0.35,6.84,2.25
36.68,0.33,6.77,2.20
36.68,0.26,6.75,2.16
36.69,0.23,6.72,2.12
36.69,0.18,6.74,2.07
36.69,0.15,6.76,2.05
36.69,0.13,6.80,1.98
36.70,0.10,6.86,1.94
36.70,0.11,6.92,1.95
36.70,0.12,6.98,1.89
36.70,0.14,7.07,1.83
36.71,0.15,7.13,1.79
36.71,0.19,7.20,1.74
36.71,0.25,7.31,1.70
36.71,0.26,7.40,1.63
36.72,0.29,7.47,1.56
36.72,0.30,7.59,1.53
36.72,0.24,7.64,1.54
36.72,0.26,7.80,1.60
36.72,0.30,7.95,1.70
36.73,0.34,8.08,1.72
36.73,0.35,8.17,1.71
36.73,0.36,8.27,1.71
36.73,0.36,8.36,1.69
36.74,0.40,8.42,1.70
36.74,0.42,8.49,1.76
36.74,0.41,8.55,1.85
36.74,0.46,8.62,1.89
36.75,0.53,8.70,1.90
36.75,0.62,8.72,1.94
36.75,0.69,8.74,1.95
36.75,0.74,8.73,1.97
36.76,0.78,8.75,2.00
36.76,0.79,8.77,1.99
36.76,0.82,8.76,2.04
36.76,0.81,8.80,2.07
36.77,0.84,8.82,2.14
36.77,0.83,8.84,2.22
36.77,0.87,8.86,2.28
36.77,0.86,8.92,2.36
36.77,0.84,9.00,2.41
36.78,0.88,8.99,2.43
36.78,0.86,8.99,2.46
36.78,0.88,8.97,2.51
36.78,0.89,8.98,2.52
36.79,0.89,9.00,2.55
36.79,0.90,9.06,2.55
36.79,0.87,9.09,2.59
36.79,0.84,9.09,2.60
36.80,0.93,9.04,2.54
36.80,0.95,9.03,2.45
36.80,0.94,9.09,2.45
36.80,0.89,9.11,2.50
36.81,0.80,9.16,2.56
36.81,0.71,9.21,2.63
36.81,0.64,9.26,2.67
36.81,0.55,9.31,2.68
36.82,0.52,9.37,2.67
36.82,0.48,9.44,2.70
36.82,0.47,9.48,2.70
36.82,0.45,9.55,2.71
36.82,0.44,9.61,2.70
36.83,0.43,9.66,2.70
36.83,0.43,9.72,2.66
36.83,0.46,9.77,2.61
36.83,0.46,9.84,2.57
36.84,0.50,9.88,2.55
36.84,0.51,9.89,2.47
36.84,0.52,9.93,2.47
36.84,0.54,10.01,2.47
36.85,0.56,10.00,2.46
36.85,0.61,10.05,2.47
36.85,0.70,10.12,2.50
36.85,0.75,10.18,2.51
36.86,0.77,10.25,2.52
36.86,0.86,10.33,2.51
36.86,0.93,10.37,2.52
36.86,0.97,10.41,2.54
36.87,1.06,10.52,2.62
36.87,1.11,10.59,2.71
36.87,1.12,10.64,2.74
36.87,1.19,10.73,2.81
36.87,1.24,10.82,2.84
36.88,1.25,10.90,2.84
36.88,1.32,10.93,2.86
36.88,1.30,10.98,2.96
36.88,1.24,11.04,3.04
36.89,1.28,11.11,3.14
36.89,1.26,11.18,3.21
36.89,1.31,11.28,3.24
36.89,1.26,11.34,3.27
36.90,1.26,11.40,3.28
36.90,1.28,11.47,3.28
36.90,1.27,11.51,3.28
36.90,1.27,11.53,3.25
36.91,1.25,11.58,3.16
36.91,1.30,11.61,3.07
36.91,1.37,11.63,3.01
36.91,1.42,11.68,2.92
36.91,1.47,11.66,2.78
36.92,1.56,11.66,2.64
36.92,1.69,11.63,2.45
36.92,1.88,11.62,2.27
36.92,2.06,11.55,2.18
36.93,2.12,11.48,2.09
36.93,2.13,11.36,2.06
36.93,2.06,11.28,2.01
36.93,1.89,11.19,1.99
36.94,1.66,11.14,1.94
36.94,1.40,11.15,1.86
36.94,1.10,11.17,1.81
36.94,0.88,11.22,1.71
36.95,0.77,11.33,1.66
36.95,0.65,11.43,1.50
36.95,0.98,11.61,0.80
36.95,0.75,11.74,0.75
36.96,0.46,11.90,1.19
36.96,0.27,12.14,1.55
36.96,0.21,12.43,1.85
36.96,0.20,12.72,2.08
36.96,0.27,13.05,2.20
36.97,0.44,13.33,2.15
36.97,0.57,13.55,1.97
36.97,0.68,13.73,1.83
36.97,0.76,13.85,1.63
36.98,0.80,13.95,1.58
36.98,0.79,14.04,1.47
36.98,0.80,14.12,1.45
36.98,0.77,14.22,1.40
36.99,0.70,14.29,1.38
36.99,0.67,14.37,1.36
36.99,0.69,14.39,1.32
36.99,0.69,14.42,1.28
37.00,0.76,14.44,1.23
37.00,0.87,14.45,1.18
37.00,1.04,14.42,1.06
37.00,1.21,14.36,0.95
37.01,1.43,14.30,0.82
37.01,1.69,14.19,0.77
37.01,1.96,14.11,0.72
37.01,2.24,13.97,0.68
37.01,2.55,13.81,0.68
37.02,2.81,13.63,0.68
37.02,3.12,13.40,0.71
37.02,3.39,13.13,0.74
37.02,3.60,12.87,0.77
37.03,3.72,12.59,0.84
37.03,3.74,12.26,0.99
37.03,3.74,11.93,1.01
37.03,3.71,11.64,0.99
37.04,3.63,11.31,0.97
37.04,3.54,11.04,0.92
37.04,3.43,10.75,0.81
37.04,3.23,10.49,0.72
37.05,2.99,10.23,0.64
37.05,2.71,9.98,0.56
37.05,2.44,9.82,0.50
37.05,2.08,9.62,0.48
37.06,1.76,9.44,0.47
37.06,1.49,9.29,0.50
37.06,1.26,9.18,0.52
37.06,1.06,9.13,0.58
37.06,0.91,9.10,0.59
37.07,0.82,9.05,0.58
37.07,0.75,9.05,0.62
37.07,0.63,9.10,0.66
37.07,0.49,9.18,0.69
37.08,0.37,9.33,0.74
37.08,0.24,9.44,0.73
37.08,0.08,9.52,0.74
37.08,-0.06,9.57,0.69
37.09,-0.22,9.66,0.68
37.09,-0.40,9.77,0.64
37.09,-0.57,9.87,0.58
37.09,-0.72,9.99,0.56
37.10,-0.77,10.17,0.51
37.10,-0.85,10.36,0.46
37.10,-0.90,10.48,0.41
37.10,-0.97,10.56,0.37
37.10,-1.05,10.61,0.33
37.11,-1.11,10.61,0.18
37.11,-1.12,10.64,0.04
37.11,-1.12,10.67,-0.14
37.11,-1.13,10.72,-0.29
37.12,-1.16,10.76,-0.49
37.12,-1.21,10.79,-0.73
37.12,-1.33,10.86,-0.91
37.12,-1.42,10.90,-0.99
37.13,-1.55,10.94,-1.05
37.13,-1.65,10.96,-1.07
37.13,-1.64,10.97,-1.05
37.13,-1.67,10.96,-0.98
37.14,-1.63,10.97,-0.88
37.14,-1.64,10.96,-0.80
37.14,-1.62,10.89,-0.70
37.14,-1.59,10.77,-0.52
37.15,-1.51,10.72,-0.42
37.15,-1.47,10.63,-0.26
37.15,-1.49,10.49,-0.10
37.15,-1.55,10.31,0.13
37.15,-1.47,10.07,0.30
37.16,-1.32,9.87,0.46
37.16,-1.07,9.67,0.53
37.16,-0.83,9.52,0.61
37.16,-0.50,9.42,0.73
37.17,-0.28,9.25,0.82
37.17,-0.28,9.11,0.92
37.17,-0.26,8.97,0.97
37.17,-0.16,8.84,1.04
37.18,0.03,8.76,1.14
37.18,0.25,8.63,1.22
37.18,0.46,8.52,1.22
37.18,0.59,8.41,1.21
37.19,0.68,8.42,1.20
37.19,0.75,8.45,1.31
37.19,0.81,8.40,1.49
37.19,0.87,8.36,1.67
37.20,0.93,8.28,1.88
37.20,0.98,8.21,2.12
37.20,1.00,8.16,2.35
37.20,0.94,8.15,2.53
37.20,0.84,8.08,2.57
37.21,0.80,7.99,2.51
37.21,0.76,7.90,2.46
37.21,0.68,7.77,2.43
37.21,0.66,7.63,2.43
37.22,0.61,7.48,2.45
37.22,0.46,7.39,2.55
37.22,0.41,7.28,2.58
37.22,0.43,7.21,2.62
37.23,0.48,7.15,2.60
37.23,0.55,7.11,2.54
37.23,0.62,7.13,2.47
37.23,0.65,7.14,2.43
37.24,0.68,7.20,2.37
37.24,0.72,7.30,2.31
37.24,0.68,7.30,2.35
37.24,0.54,7.20,2.41
37.25,0.39,7.06,2.42
37.25,0.26,6.96,2.43
37.25,0.20,6.89,2.37
37.25,0.18,6.87,2.32
37.25,0.19,6.79,2.25
37.26,0.21,6.78,2.21
37.26,0.25,6.75,2.16
37.26,0.33,6.79,2.11
37.26,0.42,6.77,2.06
37.27,0.45,6.79,2.04
37.27,0.51,6.76,1.99
37.27,0.58,6.72,1.94
37.27,0.64,6.72,1.90
37.28,0.78,6.78,1.86
37.28,0.98,6.89,1.82
37.28,0.97,6.84,1.91
37.28,0.89,6.81,2.04
37.29,0.81,6.80,2.15
37.29,0.80,6.76,2.18
37.29,0.74,6.74,2.25
37.29,0.64,6.73,2.36
37.30,0.53,6.76,2.49
37.30,0.44,6.78,2.58
37.30,0.31,6.73,2.65
37.30,0.27,6.75,2.72
37.30,0.14,6.77,2.72
37.31,0.04,6.80,2.71
37.31,-0.11,6.87,2.76
37.31,-0.29,6.96,2.72
37.31,-0.40,6.99,2.66
37.32,-0.60,6.98,2.65
37.32,-0.73,6.96,2.72
37.32,-0.88,7.01,2.84
37.32,-0.98,7.01,2.92
37.33,-1.10,7.02,2.96
37.33,-1.17,7.04,2.99
37.33,-1.27,7.05,3.02
37.33,-1.34,7.06,3.03
37.34,-1.43,7.04,3.00
37.34,-1.52,7.08,3.02
37.34,-1.53,7.12,2.98
37.34,-1.57,7.17,2.98
37.34,-1.60,7.27,2.97
37.35,-1.67,7.31,2.98
37.35,-1.80,7.35,2.99
37.35,-1.90,7.42,3.00
37.35,-1.85,7.50,3.06
37.36,-1.83,7.60,3.10
37.36,-1.81,7.71,3.17
37.36,-1.83,7.78,3.28
37.36,-1.84,7.87,3.35
37.37,-1.79,7.96,3.42
37.37,-1.82,8.03,3.55
37.37,-1.82,8.12,3.62
37.37,-1.80,8.16,3.72
37.38,-1.75,8.19,3.78
37.38,-1.74,8.31,3.82
37.38,-1.71,8.41,3.82
37.38,-1.69,8.52,3.85
37.39,-1.67,8.59,3.88
37.39,-1.62,8.65,3.90
37.39,-1.54,8.70,3.98
37.39,-1.46,8.75,3.99
37.39,-1.41,8.75,4.01
37.40,-1.31,8.80,4.00
37.40,-1.12,8.89,4.01
37.40,-0.99,8.94,4.02
37.40,-0.92,8.94,4.06
37.41,-0.86,8.97,4.09
37.41,-0.85,8.95,4.16
37.41,-0.80,8.93,4.19
37.41,-0.81,8.95,4.23
37.42,-0.83,8.92,4.26
37.42,-0.80,8.94,4.29
37.42,-0.70,8.99,4.35
37.42,-0.71,8.89,4.42
37.43,-0.69,8.91,4.50
37.43,-0.71,8.95,4.62
37.43,-0.79,8.89,4.73
37.43,-0.89,8.87,4.88
37.44,-0.88,8.89,4.97
37.44,-0.97,8.82,5.07
37.44,-0.99,8.79,5.15
37.44,-1.02,8.81,5.24
37.44,-1.13,8.78,5.34
37.45,-1.17,8.73,5.47
37.45,-1.23,8.72,5.59
37.45,-1.33,8.72,5.65
37.45,-1.35,8.73,5.75
37.46,-1.41,8.72,5.84
37.46,-1.51,8.66,5.89
37.46,-1.58,8.64,5.96
37.46,-1.69,8.59,6.00
37.47,-1.79,8.51,6.04
37.47,-1.78,8.50,6.06
37.47,-1.81,8.51,6.11
37.47,-1.83,8.50,6.13
37.48,-1.90,8.53,6.12
37.48,-2.02,8.51,6.10
37.48,-2.16,8.48,6.07
37.48,-2.25,8.48,6.03
37.49,-2.27,8.50,5.99
37.49,-2.38,8.46,5.93
37.49,-2.52,8.49,5.85
37.49,-2.59,8.45,5.82
37.49,-2.68,8.46,5.77
37.50,-2.72,8.42,5.74
37.50,-2.84,8.37,5.76
37.50,-2.94,8.33,5.77
37.50,-2.96,8.32,5.82
37.51,-3.01,8.33,5.90
37.51,-3.14,8.30,6.02
37.51,-3.23,8.28,6.22
37.51,-3.29,8.36,6.42
37.52,-3.35,8.43,6.66
37.52,-3.41,8.50,6.93
37.52,-3.55,8.53,7.19
37.52,-3.67,8.51,7.21
37.53,-3.78,8.64,6.99
37.53,-3.85,8.77,6.56
37.53,-3.87,8.84,6.02
37.53,-3.89,8.74,6.18
37.53,-3.92,8.40,6.63
37.54,-3.96,7.89,7.09
37.54,-3.97,7.30,7.09
37.54,-3.89,6.78,6.82
37.54,-3.77,6.34,6.49
37.55,-3.78,6.01,6.14
37.55,-3.99,6.04,5.77
37.55,-4.33,6.58,5.49
37.55,-4.67,7.44,5.23
37.56,-5.01,8.38,4.96
37.56,-5.11,9.39,4.62
37.56,-4.85,10.46,4.19
37.56,-4.24,11.45,3.93
37.57,-3.39,12.17,3.97
37.57,-2.43,12.69,4.25
37.57,-1.39,13.15,4.83
37.57,-0.35,13.62,5.54
37.58,0.66,14.16,6.41
37.58,1.62,14.85,7.30
37.58,2.46,15.61,8.12
37.58,2.99,16.45,8.72
37.58,3.11,17.21,8.99
37.59,2.82,17.81,9.02
37.59,2.15,18.20,8.88
37.59,1.28,18.33,8.58
37.59,0.32,18.24,8.12
37.60,-0.66,17.91,7.51
37.60,-1.75,17.27,6.84
37.60,-2.94,16.35,6.09
37.60,-3.89,15.62,5.32
37.61,-4.54,15.02,4.70
37.61,-4.98,14.42,4.28
37.61,-5.16,13.79,4.08
37.61,-4.92,13.11,3.96
37.62,-4.34,12.54,3.93
37.62,-3.56,12.13,4.02
37.62,-2.81,11.84,4.16
37.62,-2.14,11.57,4.30
37.63,-1.57,11.33,4.41
37.63,-1.05,11.11,4.44
37.63,-0.60,10.88,4.38
37.63,-0.26,10.69,4.26
37.63,0.08,10.55,4.13
37.64,0.32,10.43,3.99
37.64,0.51,10.38,3.91
37.64,0.70,10.39,3.84
37.64,0.85,10.41,3.80
37.65,0.98,10.48,3.76
37.65,1.01,10.56,3.73
37.65,0.96,10.58,3.76
37.65,0.93,10.67,3.74
37.66,0.93,10.72,3.71
37.66,0.94,10.74,3.44
37.66,1.03,10.70,3.13
37.66,1.15,10.63,2.92
37.67,1.47,10.55,2.80
37.67,1.70,10.46,2.63
37.67,1.85,10.31,2.48
37.67,2.02,10.12,2.29
37.68,2.15,9.94,2.10
37.68,2.30,9.78,1.94
37.68,2.45,9.61,1.82
37.68,2.57,9.49,1.73
37.68,2.67,9.39,1.73
37.69,2.73,9.31,1.79
37.69,2.75,9.27,1.92
37.69,2.78,9.24,2.07
37.69,2.80,9.25,2.25
37.70,2.80,9.27,2.47
37.70,2.78,9.28,2.74
37.70,2.77,9.33,2.99
37.70,2.65,9.28,3.28
37.71,2.71,9.37,3.39
37.71,2.83,9.52,3.54
37.71,2.93,9.61,3.76
37.71,2.98,9.73,3.93
37.72,2.99,9.80,4.04
37.72,2.95,9.90,4.18
37.72,2.92,9.92,4.21
37.72,2.94,9.87,4.19
37.73,2.98,9.82,4.23
37.73,2.99,9.77,4.20
37.73,3.00,9.73,4.14
37.73,3.01,9.75,4.01
37.73,3.04,9.73,3.90
37.74,3.10,9.73,3.82
37.74,3.12,9.74,3.75
37.74,3.13,9.73,3.65
37.74,3.13,9.69,3.52
37.75,3.10,9.69,3.42
37.75,3.02,9.68,3.30
37.75,2.96,9.66,3.30
37.75,2.84,9.63,3.36
37.76,2.71,9.60,3.48
37.76,2.53,9.48,3.49
37.76,2.33,9.33,3.36
37.76,2.14,9.25,3.21
37.77,1.91,9.17,3.10
37.77,1.70,9.10,2.98
37.77,1.49,9.05,2.91
37.77,1.30,9.02,2.86
37.77,1.18,8.99,2.86
37.78,1.06,8.94,2.87
37.78,0.93,8.83,2.83
37.78,0.83,8.73,2.85
37.78,0.70,8.63,2.82
37.79,0.58,8.54,2.80
37.79,0.54,8.49,2.75
37.79,0.42,8.47,2.67
37.79,0.32,8.42,2.58
37.80,0.22,8.37,2.50
37.80,0.07,8.34,2.46
37.80,0.05,8.28,2.34
37.80,0.07,8.25,2.21
37.81,0.03,8.19,2.11
37.81,0.00,8.16,2.10
37.81,-0.06,8.10,2.02
37.81,-0.07,8.09,2.02
37.82,-0.09,8.10,2.12
37.82,0.00,8.16,2.56
37.82,-0.18,8.16,2.86
37.82,-0.32,7.98,1.99
37.82,-0.27,7.83,1.29
37.83,-0.28,7.75,0.94
37.83,-0.26,7.70,0.82
37.83,-0.26,7.67,0.76
37.83,-0.27,7.60,0.86
37.84,-0.26,7.56,1.03
37.84,-0.18,7.52,1.15
37.84,-0.17,7.43,1.24
37.84,-0.11,7.42,1.33
37.85,-0.07,7.32,1.44
37.85,-0.08,7.16,1.54
37.85,-0.06,6.96,1.69
37.85,0.15,7.02,1.65
37.86,0.39,7.08,1.66
37.86,0.39,7.01,1.73
37.86,0.43,6.91,1.82
37.86,0.46,6.80,1.86
37.87,0.53,6.78,1.93
37.87,0.54,6.75,1.99
37.87,0.56,6.69,2.02
37.87,0.66,6.68,2.05
37.87,0.78,6.72,2.06
37.88,0.83,6.67,2.05
37.88,0.87,6.63,2.04
37.88,0.89,6.59,2.00
37.88,0.89,6.54,1.96
37.89,0.93,6.55,1.92
37.89,1.00,6.52,1.95
37.89,1.03,6.49,1.90
37.89,1.08,6.50,1.89
37.90,1.08,6.50,1.88
37.90,1.12,6.49,1.87
37.90,1.10,6.52,1.91
37.90,1.10,6.56,1.93
37.91,1.10,6.61,1.97
37.91,1.12,6.70,2.00
37.91,1.09,6.79,2.07
37.91,1.09,6.87,2.12
37.92,1.03,6.89,2.13
37.92,0.98,6.96,2.15
37.92,0.94,7.00,2.17
37.92,0.88,7.06,2.20
37.92,0.81,7.14,2.20
37.93,0.80,7.22,2.19
37.93,0.81,7.29,2.20
37.93,0.84,7.36,2.17
37.93,0.83,7.41,2.21
37.94,0.85,7.49,2.27
37.94,0.84,7.55,2.35
37.94,0.88,7.65,2.38
37.94,0.94,7.76,2.39
37.95,0.97,7.82,2.47
37.95,1.01,7.90,2.43
37.95,1.03,7.97,2.40
37.95,1.08,8.05,2.34
37.96,1.06,8.12,2.27
37.96,1.05,8.16,2.18
37.96,1.06,8.16,2.10
37.96,1.07,8.19,2.03
37.97,1.14,8.23,1.92
37.97,1.17,8.23,1.80
37.97,1.14,8.24,1.79
37.97,1.06,8.27,1.83
37.97,1.01,8.30,1.86
37.98,0.90,8.32,1.94
37.98,0.85,8.34,2.03
37.98,0.81,8.36,2.11
37.98,0.75,8.39,2.18
37.99,0.68,8.39,2.25
37.99,0.65,8.45,2.34
37.99,0.63,8.49,2.42
37.99,0.61,8.52,2.46
38.00,0.56,8.54,2.51
38.00,0.51,8.55,2.54
38.00,0.49,8.54,2.60
38.00,0.46,8.57,2.61
38.01,0.43,8.58,2.67
38.01,0.42,8.62,2.68
38.01,0.45,8.69,2.69
38.01,0.51,8.70,2.70
38.01,0.53,8.77,2.73
38.02,0.62,8.82,2.74
38.02,0.69,8.89,2.78
38.02,0.77,8.95,2.80
38.02,0.81,9.03,2.79
38.03,0.84,9.09,2.80
38.03,0.82,9.15,2.85
38.03,0.87,9.23,2.86
38.03,0.89,9.32,2.81
38.04,0.89,9.38,2.80
38.04,0.90,9.48,2.80
38.04,0.90,9.53,2.78
38.04,0.89,9.60,2.77
38.05,0.85,9.69,2.75
38.05,0.87,9.76,2.70
38.05,0.86,9.81,2.63
38.05,0.89,9.89,2.53
38.06,0.95,9.97,2.41
38.06,0.88,10.01,2.50
38.06,0.81,10.09,2.61
38.06,0.74,10.14,2.68
38.06,0.68,10.21,2.73
38.07,0.68,10.26,2.76
38.07,0.68,10.32,2.74
38.07,0.70,10.36,2.75
38.07,0.68,10.38,2.72
38.08,0.64,10.40,2.71
38.08,0.62,10.42,2.66
38.08,0.59,10.44,2.61
38.08,0.56,10.43,2.58
38.09,0.53,10.42,2.56
38.09,0.51,10.42,2.53
38.09,0.49,10.40,2.55
38.09,0.48,10.39,2.54
38.10,0.49,10.38,2.54
38.10,0.53,10.37,2.54
38.10,0.54,10.31,2.59
38.10,0.55,10.30,2.62
38.11,0.61,10.25,2.59
38.11,0.65,10.21,2.63
38.11,0.72,10.16,2.66
38.11,0.79,10.13,2.72
38.11,0.88,10.00,2.71
38.12,0.98,9.92,2.81
38.12,1.11,9.85,2.81
38.12,1.20,9.78,2.83
38.12,1.26,9.71,2.85
38.13,1.30,9.65,2.85
38.13,1.37,9.61,2.85
38.13,1.41,9.58,2.85
38.13,1.45,9.54,2.84
38.14,1.49,9.53,2.84
38.14,1.50,9.53,2.86
38.14,1.54,9.48,2.83
38.14,1.55,9.47,2.84
38.15,1.53,9.48,2.87
38.15,1.52,9.48,2.85
38.15,1.49,9.48,2.85
38.15,1.46,9.46,2.81
38.16,1.44,9.46,2.76
38.16,1.42,9.45,2.71
38.16,1.43,9.48,2.69
38.16,1.41,9.51,2.65
38.16,1.37,9.52,2.63
38.17,1.32,9.53,2.61
38.17,1.25,9.56,2.58
38.17,1.24,9.59,2.58
38.17,1.24,9.65,2.58
38.18,1.26,9.68,2.57
38.18,1.22,9.73,2.59
38.18,1.18,9.75,2.62
38.18,1.17,9.79,2.62
38.19,1.18,9.81,2.64
38.19,1.19,9.84,2.67
38.19,1.14,9.81,2.66
38.19,1.13,9.88,2.75
38.20,1.13,9.92,2.80
38.20,1.09,9.94,2.85
38.20,1.07,9.96,2.83
38.20,1.02,9.98,2.81
38.20,1.15,10.02,2.64
38.21,1.49,10.04,2.02
38.21,1.28,9.99,2.30
38.21,1.15,10.03,2.74
38.21,1.03,10.09,3.01
38.22,0.88,10.14,3.17
38.22,0.79,10.18,3.28
38.22,0.70,10.21,3.31
38.22,0.68,10.27,3.36
38.23,0.65,10.30,3.36
38.23,0.63,10.30,3.37
38.23,0.70,10.37,3.39
38.23,0.81,10.47,3.39
38.24,0.88,10.52,3.38
38.24,0.98,10.60,3.35
38.24,1.02,10.66,3.32
38.24,1.14,10.74,3.30
38.25,1.21,10.82,3.33
38.25,1.30,10.90,3.32
38.25,1.37,11.02,3.32
38.25,1.42,11.09,3.32
38.25,1.45,11.23,3.34
38.26,1.49,11.31,3.32
38.26,1.53,11.41,3.31
38.26,1.58,11.50,3.31
38.26,1.66,11.59,3.24
38.27,1.74,11.69,3.18
38.27,1.93,11.75,3.04
38.27,2.17,11.88,2.93
38.27,2.41,11.99,2.84
38.28,2.58,12.09,2.78
38.28,2.68,12.22,2.67
38.28,2.73,12.29,2.51
38.28,2.75,12.34,2.32
38.29,2.72,12.37,2.10
38.29,2.68,12.43,1.92
38.29,2.52,12.46,1.87
38.29,2.27,12.54,1.86
38.30,1.87,12.59,1.82
38.30,1.37,12.66,1.75
38.30,0.84,12.77,1.65
38.30,0.32,12.90,1.53
38.30,-0.20,13.06,1.37
38.31,-0.74,13.26,1.19
38.31,-1.24,13.47,0.99
38.31,-1.67,13.72,0.82
38.31,-2.03,13.99,0.69
38.32,-1.91,14.34,0.26
38.32,-1.63,14.63,-0.07
38.32,-1.77,14.85,0.21
38.32,-1.69,15.07,0.56
38.33,-1.46,15.25,0.97
38.33,-0.99,15.35,1.32
38.33,-0.42,15.36,1.54
38.33,0.17,15.31,1.65
38.34,0.71,15.21,1.66
38.34,1.21,15.09,1.63
38.34,1.64,15.01,1.70
38.34,1.98,14.91,1.77
38.35,2.28,14.79,1.83
38.35,2.53,14.68,1.93
38.35,2.71,14.57,2.02
38.35,2.84,14.43,2.11
38.35,2.92,14.23,2.16
38.36,2.97,14.03,2.18
38.36,2.99,13.86,2.18
38.36,3.03,13.63,2.16
38.36,3.03,13.40,2.08
38.37,3.01,13.13,2.01
38.37,2.94,12.87,1.91
38.37,2.87,12.57,1.80
38.37,2.81,12.28,1.68
38.38,2.71,11.94,1.58
38.38,2.66,11.60,1.50
38.38,2.57,11.28,1.41
38.38,2.48,10.94,1.34
38.39,2.39,10.60,1.27
38.39,2.29,10.27,1.20
38.39,2.20,9.92,1.10
38.39,2.13,9.60,1.01
38.40,2.02,9.31,0.92
38.40,1.89,9.01,0.82
38.40,1.76,8.76,0.77
38.40,1.58,8.51,0.74
38.40,1.36,8.28,0.72
38.41,1.18,8.07,0.63
38.41,1.01,7.87,0.53
38.41,0.85,7.72,0.41
38.41,0.66,7.59,0.29
38.42,0.50,7.48,0.17
38.42,0.35,7.40,0.02
38.42,0.15,7.33,-0.09
38.42,0.00,7.34,-0.15
38.43,-0.08,7.44,-0.21
38.43,-0.23,7.45,-0.28
38.43,-0.44,7.44,-0.25
38.43,-0.61,7.48,-0.17
38.44,-0.78,7.50,-0.13
38.44,-0.93,7.54,-0.05
38.44,-1.05,7.62,0.03
38.44,-1.19,7.63,0.12
38.44,-1.33,7.67,0.27
38.45,-1.44,7.73,0.38
38.45,-1.59,7.80,0.47
38.45,-1.68,7.87,0.55
38.45,-1.82,7.97,0.64
38.46,-1.94,8.03,0.73
38.46,-2.09,8.08,0.82
38.46,-2.21,8.15,0.87
38.46,-2.31,8.26,0.96
38.47,-2.42,8.36,1.04
38.47,-2.45,8.48,1.12
38.47,-2.47,8.60,1.15
38.47,-2.50,8.73,1.19
38.48,-2.46,8.83,1.20
38.48,-2.41,8.95,1.23
38.48,-2.30,9.04,1.19
38.48,-2.18,9.16,1.22
38.49,-2.09,9.31,1.24
38.49,-2.04,9.45,1.29
38.49,-1.97,9.58,1.26
38.49,-1.88,9.73,1.23
38.49,-1.83,9.86,1.25
38.50,-1.77,9.95,1.22
38.50,-1.73,10.07,1.23
38.50,-1.68,10.20,1.23
38.50,-1.60,10.35,1.24
38.51,-1.53,10.48,1.27
38.51,-1.49,10.57,1.32
38.51,-1.44,10.68,1.34
38.51,-1.38,10.74,1.36
38.52,-1.34,10.78,1.41
38.52,-1.21,10.82,1.38
38.52,-1.07,10.87,1.38
38.52,-0.88,10.89,1.35
38.53,-0.62,10.89,1.33
38.53,-0.39,10.82,1.33
38.53,-0.09,10.74,1.32
38.53,0.20,10.65,1.33
38.54,0.42,10.54,1.34
38.54,0.65,10.45,1.35
38.54,0.86,10.35,1.37
38.54,1.06,10.26,1.36
38.54,1.26,10.12,1.36
38.55,1.47,9.95,1.30
38.55,1.62,9.82,1.21
38.55,1.72,9.69,1.15
38.55,1.82,9.56,1.13
38.56,1.90,9.43,1.16
38.56,1.95,9.28,1.18
38.56,2.01,9.09,1.22
38.56,2.01,8.97,1.23
38.57,1.98,8.87,1.23
38.57,1.96,8.75,1.14
38.57,1.87,8.67,1.15
38.57,1.84,8.54,1.17
38.58,1.87,8.41,1.24
38.58,1.85,8.34,1.25
38.58,1.83,8.25,1.32
38.58,1.83,8.17,1.33
38.59,1.79,8.10,1.33
38.59,1.75,8.03,1.39
38.59,1.70,7.96,1.44
38.59,1.67,7.88,1.50
38.59,1.59,7.83,1.53
38.60,1.45,7.70,1.56
38.60,1.33,7.61,1.58
38.60,1.26,7.56,1.56
38.60,1.21,7.56,1.55
38.61,1.18,7.59,1.51
38.61,1.13,7.60,1.50
38.61,1.07,7.63,1.50
38.61,0.99,7.68,1.50
38.62,0.88,7.71,1.51
38.62,0.78,7.72,1.55
38.62,0.76,7.71,1.50
38.62,0.75,7.75,1.46
38.63,0.70,7.84,1.41
38.63,0.57,7.90,1.41
38.63,0.48,7.94,1.43
38.63,0.41,7.97,1.42
38.63,0.36,7.97,1.40
38.64,0.28,7.98,1.36
38.64,0.23,8.00,1.30
38.64,0.16,7.98,1.19
38.64,0.13,8.01,1.23
38.65,0.10,8.02,1.24
38.65,0.09,8.00,1.24
38.65,0.05,7.95,1.19
38.65,0.08,7.92,1.18
38.66,0.10,7.88,1.12
38.66,0.11,7.85,1.11
38.66,0.10,7.75,1.04
38.66,0.14,7.70,0.98
38.67,0.17,7.64,0.93
38.67,0.20,7.59,0.86
38.67,0.23,7.54,0.80
38.67,0.19,7.52,0.77
38.68,0.22,7.50,0.77
38.68,0.21,7.50,0.73
38.68,0.21,7.48,0.70
38.68,0.21,7.51,0.68
38.68,0.23,7.52,0.66
38.69,0.26,7.55,0.61
38.69,0.26,7.57,0.64
38.69,0.27,7.62,0.73
38.69,0.26,7.68,0.84
38.70,0.28,7.72,0.94
38.70,0.26,7.81,1.00
38.70,0.26,7.95,1.04
38.70,0.27,8.04,1.10
38.71,0.32,8.16,1.16
38.71,0.34,8.27,1.24
38.71,0.39,8.38,1.30
38.71,0.42,8.51,1.40
38.72,0.42,8.62,1.51
38.72,0.43,8.75,1.62
38.72,0.42,8.87,1.69
38.72,0.32,8.96,1.85
38.73,0.15,9.03,1.97
38.73,0.23,9.16,1.96
38.73,0.34,9.33,1.92
38.73,0.37,9.46,1.90
38.73,0.42,9.57,1.86
38.74,0.43,9.69,1.83
38.74,0.45,9.83,1.78
38.74,0.44,9.90,1.73
38.74,0.42,9.98,1.68
38.75,0.39,10.04,1.61
38.75,0.36,10.09,1.51
38.75,0.30,10.12,1.42
38.75,0.26,10.19,1.36
38.76,0.21,10.20,1.30
38.76,0.16,10.23,1.23
38.76,0.11,10.23,1.16
38.76,0.06,10.25,1.08
38.77,0.02,10.27,1.02
38.77,-0.03,10.29,0.94
38.77,-0.07,10.30,0.88
38.77,-0.10,10.31,0.85
38.78,-0.16,10.32,0.82
38.78,-0.17,10.31,0.77
38.78,-0.18,10.33,0.74
38.78,-0.21,10.37,0.71
38.78,-0.23,10.36,0.65
38.79,-0.26,10.37,0.65
38.79,-0.27,10.40,0.61
38.79,-0.26,10.43,0.59
38.79,-0.23,10.45,0.58
38.80,-0.22,10.50,0.56
38.80,-0.16,10.52,0.54
38.80,-0.12,10.56,0.53
38.80,-0.06,10.60,0.54
38.81,-0.04,10.65,0.56
38.81,0.02,10.69,0.58
38.81,0.07,10.71,0.62
38.81,0.09,10.74,0.62
38.82,0.13,10.78,0.66
38.82,0.17,10.78,0.68
38.82,0.20,10.77,0.69
38.82,0.23,10.74,0.71
38.83,0.24,10.71,0.77
38.83,0.28,10.68,0.80
38.83,0.32,10.63,0.82
38.83,0.35,10.57,0.85
38.83,0.35,10.51,0.89
38.84,0.39,10.43,0.95
38.84,0.42,10.38,1.00
38.84,0.41,10.30,1.05
38.84,0.40,10.22,1.10
38.85,0.40,10.17,1.14
38.85,0.40,10.11,1.13
38.85,0.39,10.02,1.14
38.85,0.39,9.95,1.16
38.86,0.38,9.93,1.14
38.86,0.38,9.89,1.10
38.86,0.36,9.87,1.06
38.86,0.34,9.79,1.03
38.87,0.31,9.76,1.00
38.87,0.28,9.70,0.97
38.87,0.26,9.64,0.93
38.87,0.22,9.57,0.87
38.87,0.20,9.51,0.84
38.88,0.19,9.42,0.84
38.88,0.16,9.32,0.84
38.88,0.16,9.23,0.86
38.88,0.14,9.16,0.86
38.89,0.12,9.09,0.91
38.89,0.13,9.01,0.98
38.89,0.14,8.93,1.04
38.89,0.13,8.86,1.13
38.90,0.10,8.80,1.20
38.90,0.04,8.71,1.28
38.90,-0.02,8.66,1.36
38.90,-0.07,8.62,1.43
38.91,-0.12,8.56,1.47
38.91,-0.15,8.52,1.51
38.91,-0.19,8.50,1.56
38.91,-0.23,8.41,1.58
38.92,-0.26,8.39,1.55
38.92,-0.30,8.38,1.52
38.92,-0.29,8.36,1.48
38.92,-0.33,8.31,1.42
38.92,-0.39,8.33,1.36
38.93,-0.40,8.31,1.28
38.93,-0.42,8.32,1.24
38.93,-0.44,8.31,1.17
38.93,-0.47,8.33,1.10
38.94,-0.50,8.34,1.04
38.94,-0.52,8.39,1.02
38.94,-0.55,8.42,0.97
38.94,-0.54,8.42,0.93
38.95,-0.57,8.47,0.91
38.95,-0.62,8.50,0.90
38.95,-0.72,8.48,0.97
38.95,-0.74,8.52,0.98
38.96,-0.63,8.62,0.89
38.96,-0.57,8.76,0.86
38.96,-0.51,8.86,0.84
38.96,-0.46,8.93,0.80
38.97,-0.41,9.07,0.76
38.97,-0.41,9.19,0.74
38.97,-0.38,9.27,0.74
38.97,-0.38,9.40,0.78
38.97,-0.41,9.51,0.82
38.98,-0.39,9.60,0.88
38.98,-0.39,9.68,0.91
38.98,-0.38,9.78,0.98
38.98,-0.33,9.86,1.05
38.99,-0.31,9.95,1.10
38.99,-0.27,10.01,1.17
38.99,-0.20,10.09,1.19
38.99,-0.15,10.19,1.21
39.00,-0.08,10.29,1.22
39.00,-0.02,10.43,1.21
39.00,0.05,10.56,1.19
39.00,0.11,10.71,1.16
39.01,0.20,10.89,1.18
39.01,0.25,11.02,1.17
39.01,0.35,11.14,1.15
39.01,0.44,11.33,1.16
39.02,0.53,11.47,1.17
39.02,0.61,11.62,1.16
39.02,0.67,11.74,1.14
39.02,0.75,11.84,1.14
39.02,0.78,11.96,1.14
39.03,0.87,12.03,1.15
39.03,0.94,12.09,1.13
39.03,1.02,12.12,1.12
39.03,1.09,12.12,1.10
39.04,1.13,12.14,1.07
39.04,1.20,12.11,1.07
39.04,1.26,12.08,1.06
39.04,1.31,11.99,1.10
39.05,1.32,11.88,1.15
39.05,1.32,11.81,1.22
39.05,1.31,11.68,1.28
39.05,1.32,11.58,1.36
39.06,1.34,11.53,1.45
39.06,1.33,11.41,1.55
39.06,1.32,11.32,1.66
39.06,1.23,11.21,1.73
39.06,1.17,11.06,1.79
39.07,1.12,10.97,1.81
39.07,1.06,10.83,1.79
39.07,1.00,10.71,1.74
39.07,0.95,10.57,1.69
39.08,0.88,10.44,1.60
39.08,0.82,10.31,1.56
39.08,0.74,10.18,1.49
39.08,0.66,10.07,1.43
39.09,0.60,9.90,1.38
39.09,0.52,9.79,1.33
39.09,0.49,9.64,1.22
39.09,0.47,9.54,1.19
39.10,0.48,9.41,1.13
39.10,0.47,9.29,1.08
39.10,0.42,9.21,1.08
39.10,0.38,9.12,1.07
39.11,0.34,9.01,1.05
39.11,0.31,8.92,1.06
39.11,0.31,8.82,1.06
39.11,0.27,8.74,1.09
39.11,0.24,8.66,1.12
39.12,0.21,8.59,1.15
39.12,0.21,8.52,1.18
39.12,0.21,8.45,1.21
39.12,0.16,8.40,1.28
39.13,0.15,8.32,1.28
39.13,0.13,8.27,1.34
39.13,0.15,8.25,1.38
39.13,0.11,8.21,1.41
39.14,0.10,8.18,1.45
39.14,0.06,8.21,1.49
39.14,0.03,8.20,1.52
39.14,0.00,8.22,1.56
39.15,-0.04,8.26,1.56
39.15,-0.08,8.28,1.57
39.15,-0.12,8.35,1.57
39.15,-0.19,8.39,1.63
39.16,-0.24,8.46,1.61
39.16,-0.32,8.54,1.62
39.16,-0.40,8.62,1.58
39.16,-0.47,8.74,1.55
39.16,-0.52,8.85,1.54
39.17,-0.55,8.97,1.57
39.17,-0.59,9.05,1.49
39.17,-0.60,9.15,1.44
39.17,-0.60,9.25,1.37
39.18,-0.60,9.37,1.32
39.18,-0.55,9.49,1.23
39.18,-0.50,9.62,1.17
39.18,-0.41,9.76,1.09
39.19,-0.33,9.86,1.05
39.19,-0.27,9.99,1.00
39.19,-0.18,10.12,0.96
39.19,-0.08,10.20,0.93
39.20,0.02,10.33,0.94
39.20,0.08,10.44,0.94
39.20,0.14,10.51,0.95
39.20,0.19,10.61,0.97
39.21,0.24,10.67,0.95
39.21,0.30,10.76,0.99
39.21,0.39,10.84,1.02
39.21,0.45,10.88,1.03
39.21,0.51,10.93,1.04
39.22,0.59,10.97,1.06
39.22,0.65,11.00,1.05
39.22,0.67,11.03,1.07
39.22,0.69,11.02,1.10
39.23,0.68,11.00,1.09
39.23,0.66,10.97,1.10
39.23,0.65,10.94,1.11
39.23,0.61,10.89,1.13
39.24,0.58,10.84,1.14
39.24,0.53,10.78,1.20
39.24,0.49,10.70,1.22
39.24,0.43,10.62,1.25
39.25,0.33,10.53,1.29
39.25,0.29,10.42,1.30
39.25,0.23,10.36,1.33
39.25,0.18,10.29,1.35
39.26,0.15,10.20,1.36
39.26,0.09,10.14,1.33
39.26,0.05,10.06,1.35
39.26,0.02,10.01,1.34
39.26,-0.01,9.93,1.37
39.27,-0.05,9.87,1.38
39.27,-0.05,9.81,1.35
39.27,-0.07,9.75,1.34
39.27,-0.09,9.68,1.30
39.28,-0.08,9.66,1.34
39.28,-0.09,9.64,1.31
39.28,-0.07,9.61,1.30
39.28,-0.03,9.56,1.24
39.29,0.00,9.52,1.19
39.29,0.01,9.49,1.13
39.29,0.04,9.48,1.10
39.29,0.05,9.45,1.07
39.30,0.07,9.45,1.05
39.30,0.08,9.43,1.04
39.30,0.10,9.44,1.02
39.30,0.09,9.45,1.03
39.30,0.10,9.46,1.03
39.31,0.13,9.45,1.05
39.31,0.15,9.48,1.07
39.31,0.17,9.46,1.07
39.31,0.17,9.47,1.07
39.32,0.18,9.51,1.09
39.32,0.17,9.55,1.10
39.32,0.15,9.59,1.08
39.32,0.15,9.65,1.09
39.33,0.11,9.69,1.09
39.33,0.09,9.72,1.13
39.33,0.11,9.76,1.15
39.33,0.09,9.80,1.20
39.34,0.08,9.86,1.22
39.34,0.05,9.87,1.25
39.34,0.02,9.90,1.28
39.34,0.01,9.93,1.29
39.35,-0.01,9.94,1.35
39.35,-0.01,9.96,1.36
39.35,-0.04,9.97,1.41
39.35,-0.03,10.00,1.44
39.35,-0.04,10.02,1.42
39.36,-0.07,10.03,1.42
39.36,-0.09,10.08,1.44
39.36,-0.11,10.05,1.47
39.36,-0.12,10.02,1.46
39.37,-0.17,10.01,1.48
39.37,-0.18,10.00,1.47
39.37,-0.20,9.97,1.47
39.37,-0.24,10.01,1.45
39.38,-0.27,10.01,1.43
39.38,-0.31,10.01,1.39
39.38,-0.32,9.99,1.37
39.38,-0.32,10.03,1.29
39.39,-0.28,10.01,1.18
39.39,-0.23,10.03,1.12
39.39,-0.32,10.02,1.22
39.39,-0.43,10.00,1.34
39.40,-0.46,9.97,1.40
39.40,-0.47,9.99,1.46
39.40,-0.43,9.93,1.45
39.40,-0.42,9.88,1.52
39.40,-0.36,9.90,1.52
39.41,-0.29,9.91,1.48
39.41,-0.16,9.90,1.43
39.41,-0.02,9.90,1.36
39.41,0.14,9.89,1.31
39.42,0.31,9.89,1.27
39.42,0.47,9.86,1.22
39.42,0.62,9.89,1.20
39.42,0.74,9.90,1.22
39.43,0.90,9.89,1.21
39.43,1.03,9.93,1.17
39.43,1.08,9.95,1.13
39.43,1.09,9.92,1.11
39.44,1.08,9.92,1.10
39.44,1.07,9.91,1.02
39.44,1.01,9.86,1.03
39.44,1.02,9.84,1.05
39.45,1.06,9.83,1.05
39.45,1.21,9.80,1.01
39.45,1.35,9.88,0.94
39.45,1.46,9.91,0.91
39.45,1.57,9.94,0.89
39.46,1.65,9.99,0.83
39.46,1.70,10.02,0.80
39.46,1.78,10.02,0.76
39.46,1.84,10.05,0.75
39.47,1.93,10.03,0.73
39.47,2.01,10.02,0.68
39.47,2.11,10.02,0.63
39.47,2.21,9.97,0.58
39.48,2.29,9.99,0.53
39.48,2.36,9.99,0.52
39.48,2.45,10.00,0.50
39.48,2.51,10.00,0.50
39.49,2.57,10.02,0.48
39.49,2.60,10.03,0.52
39.49,2.62,10.02,0.52
39.49,2.61,10.04,0.52
39.49,2.57,10.06,0.56
39.50,2.55,10.03,0.58
39.50,2.55,10.00,0.60
39.50,2.48,9.94,0.60
39.50,2.44,9.90,0.60
39.51,2.36,9.85,0.60
39.51,2.30,9.84,0.63
39.51,2.23,9.79,0.67
39.51,2.15,9.76,0.68
39.52,2.09,9.74,0.68
39.52,2.01,9.70,0.70
39.52,1.94,9.69,0.71
39.52,1.85,9.68,0.72
39.53,1.78,9.69,0.72
39.53,1.68,9.69,0.74
39.53,1.61,9.72,0.72
39.53,1.55,9.75,0.70
39.54,1.53,9.75,0.69
39.54,1.50,9.74,0.67
39.54,1.47,9.72,0.62
39.54,1.47,9.73,0.63
39.54,1.49,9.71,0.59
39.55,1.49,9.69,0.57
39.55,1.47,9.70,0.56
39.55,1.44,9.70,0.54
39.55,1.39,9.72,0.53
39.56,1.36,9.73,0.52
39.56,1.34,9.74,0.52
39.56,1.31,9.76,0.54
39.56,1.31,9.78,0.54
39.57,1.27,9.78,0.52
39.57,1.23,9.81,0.52
39.57,1.18,9.83,0.54
39.57,1.13,9.83,0.52
39.58,1.10,9.85,0.54
39.58,1.06,9.84,0.55
39.58,1.00,9.84,0.56
39.58,0.97,9.85,0.58
39.59,0.93,9.90,0.61
39.59,0.88,9.89,0.61
39.59,0.84,9.93,0.64
39.59,0.84,9.95,0.66
39.59,0.81,9.96,0.69
39.60,0.78,10.00,0.69
39.60,0.74,10.00,0.71
39.60,0.72,10.05,0.75
39.60,0.68,10.06,0.75
39.61,0.65,10.07,0.81
39.61,0.63,10.13,0.82
39.61,0.59,10.14,0.84
39.61,0.58,10.13,0.87
39.62,0.54,10.14,0.87
39.62,0.52,10.17,0.91
39.62,0.49,10.17,0.92
39.62,0.46,10.17,0.93
39.63,0.43,10.19,0.96
39.63,0.41,10.19,0.97
39.63,0.38,10.18,1.00
39.63,0.38,10.17,0.99
39.64,0.37,10.17,0.99
39.64,0.36,10.17,1.02
39.64,0.37,10.16,1.03
39.64,0.37,10.17,1.04
39.64,0.38,10.14,1.05
39.65,0.39,10.14,1.06
39.65,0.38,10.14,1.08
39.65,0.42,10.12,1.04
39.65,0.41,10.09,1.02
39.66,0.43,10.07,1.00
39.66,0.46,10.05,0.96
39.66,0.49,10.05,0.96
39.66,0.50,10.02,0.91
39.67,0.50,10.00,0.90
39.67,0.52,9.97,0.87
39.67,0.56,9.96,0.87
39.67,0.57,9.96,0.86
39.68,0.60,9.93,0.82
39.68,0.60,9.88,0.79
39.68,0.61,9.84,0.80
39.68,0.65,9.84,0.77
39.69,0.66,9.79,0.79
39.69,0.67,9.80,0.78
39.69,0.69,9.76,0.76
39.69,0.70,9.75,0.78
39.69,0.70,9.74,0.77
39.70,0.70,9.71,0.80
39.70,0.70,9.70,0.82
39.70,0.67,9.72,0.84
39.70,0.66,9.71,0.90
39.71,0.65,9.71,0.93
39.71,0.66,9.69,0.96
39.71,0.66,9.71,1.03
39.71,0.65,9.71,1.07
39.72,0.59,9.72,1.13
39.72,0.58,9.74,1.17
39.72,0.58,9.77,1.23
39.72,0.54,9.77,1.28
39.73,0.53,9.80,1.31
39.73,0.53,9.84,1.32
39.73,0.51,9.85,1.37
39.73,0.51,9.86,1.34
39.73,0.47,9.89,1.37
39.74,0.49,9.91,1.37
39.74,0.46,9.94,1.36
39.74,0.43,9.97,1.36
39.74,0.44,9.97,1.33
39.75,0.43,9.99,1.31
39.75,0.41,10.01,1.30
39.75,0.38,10.00,1.27
39.75,0.36,10.00,1.25
39.76,0.38,10.00,1.22
39.76,0.37,9.98,1.19
39.76,0.34,9.96,1.17
39.76,0.32,9.94,1.11
39.77,0.33,9.96,1.08
39.77,0.30,9.96,1.06
39.77,0.28,9.95,1.01
39.77,0.30,9.98,0.95
39.78,0.31,9.95,0.92
39.78,0.34,9.98,0.88
39.78,0.35,9.99,0.83
39.78,0.37,10.04,0.81
39.78,0.40,10.03,0.82
39.79,0.43,10.06,0.79
39.79,0.47,10.09,0.79
39.79,0.53,10.12,0.80
39.79,0.57,10.11,0.80
39.80,0.66,10.28,0.83
39.80,0.53,9.98,0.86
39.80,0.86,10.42,0.88
39.80,0.56,10.04,0.95
39.81,0.85,10.26,0.94
39.81,0.82,10.36,1.11
39.81,0.71,9.88,1.31
39.81,1.13,10.59,1.40
39.82,0.61,9.73,1.56
39.82,1.15,10.34,1.49
39.82,0.81,10.00,1.46
39.82,0.87,9.77,1.36
39.83,1.10,10.43,1.37
39.83,0.65,9.48,1.60
39.83,1.33,10.46,1.60
39.83,0.75,9.69,1.61
39.83,0.93,9.78,1.46
39.84,0.87,10.13,1.43
39.84,0.39,9.27,1.51
39.84,0.90,10.30,1.42
39.84,0.20,9.29,1.46
39.85,0.62,9.81,1.37
39.85,0.42,9.79,1.38
39.85,0.25,9.18,1.39
39.85,0.75,10.16,1.32
39.86,0.07,9.04,1.39
39.86,0.69,9.88,1.35
39.86,0.28,9.52,1.41
39.86,0.31,9.27,1.42
39.87,0.60,10.05,1.39
39.87,-0.06,8.96,1.46
39.87,0.60,10.08,1.38
39.87,-0.10,9.34,1.47
39.88,0.17,9.51,1.46
39.88,0.26,10.05,1.47
39.88,-0.25,9.08,1.51
39.88,0.46,10.29,1.44
39.88,-0.27,9.22,1.52
39.89,0.33,9.87,1.45
39.89,0.18,9.99,1.51
39.89,-0.06,9.30,1.53
39.89,0.64,10.53,1.45
39.90,-0.15,9.28,1.55
39.90,0.64,10.27,1.42
39.90,0.20,9.91,1.51
39.90,0.20,9.56,1.55
39.91,0.65,10.61,1.55
39.91,-0.12,9.31,1.65
39.91,0.73,10.56,1.53
39.91,0.04,9.76,1.63
39.92,0.30,9.89,1.60
39.92,0.47,10.54,1.58
39.92,-0.18,9.43,1.64
39.92,0.57,10.70,1.54
39.92,-0.24,9.61,1.60
39.93,0.23,10.14,1.51
39.93,0.06,10.31,1.56
39.93,-0.31,9.46,1.60
39.93,0.32,10.66,1.55
39.94,-0.49,9.40,1.62
39.94,0.17,10.26,1.50
39.94,-0.26,9.99,1.52
39.94,-0.33,9.54,1.51
39.95,0.09,10.57,1.44
39.95,-0.67,9.28,1.48
39.95,0.09,10.41,1.39
39.95,-0.55,9.70,1.38
39.96,-0.32,9.69,1.36
39.96,-0.19,10.40,1.36
39.96,-0.78,9.27,1.43
39.96,-0.09,10.51,1.35
39.97,-0.84,9.47,1.39
39.97,-0.36,9.93,1.33
39.97,-0.49,10.24,1.32
39.97,-0.83,9.35,1.36
39.97,-0.19,10.59,1.28
39.98,-1.02,9.34,1.34
39.98,-0.30,10.24,1.25
39.98,-0.73,10.00,1.31
39.98,-0.77,9.51,1.33
39.99,-0.24,10.64,1.26
39.99,-1.04,9.27,1.32
39.99,-0.15,10.49,1.20
39.99,-0.83,9.80,1.26
40.00,-0.55,9.75,1.24
40.00,-0.30,10.57,1.22
40.00,-0.99,9.27,1.29
40.00,-0.05,10.68,1.19
40.01,-0.94,9.52,1.26
40.01,-0.31,10.04,1.17
40.01,-0.38,10.38,1.18
40.01,-0.81,9.37,1.23
40.02,0.05,10.80,1.13
40.02,-0.92,9.39,1.23
40.02,-0.07,10.34,1.13
40.02,-0.47,10.13,1.19
40.02,-0.56,9.52,1.21
40.03,0.07,10.75,1.17
40.03,-0.86,9.25,1.25
40.03,0.14,10.55,1.13
40.03,-0.59,9.77,1.23
40.04,-0.32,9.71,1.18
40.04,-0.01,10.58,1.18
40.04,-0.75,9.19,1.23
40.04,0.24,10.64,1.16
40.05,-0.73,9.48,1.25
40.05,-0.10,9.95,1.19
40.05,-0.21,10.33,1.22
40.05,-0.66,9.25,1.27
40.06,0.19,10.70,1.20
40.06,-0.83,9.28,1.28
40.06,0.06,10.23,1.21
40.06,-0.42,10.04,1.23
40.07,-0.49,9.39,1.25
40.07,0.10,10.66,1.22
40.07,-0.83,9.19,1.29
40.07,0.17,10.49,1.21
40.07,-0.62,9.76,1.27
40.08,-0.30,9.66,1.26
40.08,-0.04,10.55,1.24
40.08,-0.76,9.19,1.32
40.08,0.18,10.61,1.22
40.09,-0.76,9.43,1.28
40.09,-0.13,9.91,1.23
40.09,-0.22,10.30,1.24
40.09,-0.66,9.21,1.28
40.10,0.18,10.64,1.20
40.10,-0.80,9.25,1.25
40.10,0.04,10.16,1.18
40.10,-0.37,9.94,1.21
40.11,-0.35,9.54,1.21
40.11,0.00,10.38,1.14
40.11,-0.51,9.42,1.21
40.11,0.03,10.21,1.15
40.12,-0.41,9.71,1.17
40.12,-0.20,9.81,1.16
40.12,-0.19,10.04,1.15
40.12,-0.34,9.60,1.15
40.12,-0.06,10.07,1.13
40.13,-0.36,9.63,1.13
40.13,-0.14,9.89,1.11
40.13,-0.28,9.79,1.11
40.13,-0.27,9.70,1.11
40.14,-0.18,9.89,1.10
40.14,-0.35,9.65,1.12
40.14,-0.21,9.87,1.08
40.14,-0.31,9.71,1.11
40.15,-0.25,9.77,1.07
40.15,-0.24,9.76,1.09
40.15,-0.26,9.66,1.09
40.15,-0.19,9.75,1.06
40.16,-0.24,9.63,1.06
40.16,-0.14,9.72,1.04
40.16,-0.16,9.63,1.01
40.16,-0.09,9.63,1.00
40.16,-0.09,9.68,1.00
40.17,-0.09,9.61,0.97
40.17,-0.04,9.63,0.93
40.17,-0.06,9.56,0.87
40.17,0.03,9.61,0.86
40.18,0.05,9.63,0.82
40.18,0.04,9.67,0.81
40.18,0.05,9.70,0.79
40.18,0.04,9.67,0.75
40.19,0.05,9.69,0.75
40.19,0.01,9.71,0.76
40.19,-0.03,9.76,0.76
40.19,-0.05,9.78,0.70
40.20,-0.06,9.77,0.64
40.20,-0.09,9.83,0.74
40.20,-0.09,9.86,0.77
40.20,-0.06,9.89,0.73
40.21,-0.05,9.83,0.68
40.21,-0.05,9.84,0.65
40.21,0.00,9.86,0.60
40.21,0.04,9.87,0.56
40.21,0.06,9.91,0.56
40.22,0.07,9.91,0.56
40.22,0.10,9.92,0.54
40.22,0.15,9.97,0.55
40.22,0.18,9.97,0.56
40.23,0.22,10.02,0.52
40.23,0.27,10.02,0.47
40.23,0.33,10.05,0.48
40.23,0.34,10.07,0.49
40.24,0.39,10.10,0.45
40.24,0.41,10.11,0.46
40.24,0.47,10.10,0.42
40.24,0.47,10.09,0.41
40.25,0.53,10.06,0.40
40.25,0.54,10.06,0.38
40.25,0.56,10.08,0.41
40.25,0.58,10.10,0.40
40.26,0.61,10.10,0.41
40.26,0.62,10.11,0.40
40.26,0.62,10.09,0.42
40.26,0.63,10.11,0.42
40.26,0.64,10.13,0.44
40.27,0.64,10.12,0.43
40.27,0.64,10.12,0.45
40.27,0.63,10.11,0.47
40.27,0.65,10.10,0.49
40.28,0.65,10.12,0.50
40.28,0.63,10.12,0.51
40.28,0.66,10.13,0.52
40.28,0.66,10.09,0.55
40.29,0.64,10.12,0.56
40.29,0.66,10.13,0.61
40.29,0.66,10.11,0.61
40.29,0.65,10.13,0.61
40.30,0.66,10.10,0.65
40.30,0.67,10.09,0.67
40.30,0.68,10.11,0.68
40.30,0.65,10.10,0.71
40.31,0.60,10.06,0.72
40.31,0.64,10.06,0.72
40.31,0.60,10.14,0.75
40.31,0.49,9.85,0.79
40.31,0.72,10.30,0.78
40.32,0.37,9.77,0.82
40.32,0.67,10.23,0.81
40.32,0.45,10.02,0.84
40.32,0.42,9.79,0.88
40.33,0.67,10.42,0.87
40.33,0.15,9.55,0.94
40.33,0.71,10.43,0.89
40.33,0.21,9.81,0.96
40.34,0.44,9.96,0.96
40.34,0.51,10.40,1.00
40.34,0.07,9.51,1.08
40.34,0.71,10.64,1.02
40.35,-0.01,9.64,1.14
40.35,0.52,10.24,1.09
40.35,0.30,10.30,1.15
40.35,0.08,9.66,1.21
40.35,0.65,10.78,1.19
40.36,-0.11,9.57,1.32
40.36,0.57,10.56,1.22
40.36,0.12,10.14,1.32
40.36,0.20,9.89,1.36
40.37,0.54,10.83,1.33
40.37,-0.14,9.55,1.43
40.37,0.66,10.85,1.32
40.37,-0.05,9.98,1.41
40.38,0.32,10.21,1.39
40.38,0.41,10.76,1.39
40.38,-0.13,9.64,1.46
40.38,0.65,11.00,1.37
40.39,-0.20,9.77,1.44
40.39,0.46,10.48,1.35
40.39,0.21,10.53,1.39