"Time (s)","Acceleration x (m/s^2)","Acceleration y (m/s^2)","Acceleration z (m/s^2)"
8.367662000E-3,-4.469792843E0,4.237689018E0,5.987739563E0
1.079448500E-2,-4.352544308E0,4.110570431E0,5.886941910E0
1.324037100E-2,-4.326223373E0,4.120141506E0,5.836692810E0
1.568349600E-2,-4.369294167E0,4.163212299E0,5.750551224E0
1.812495400E-2,-4.421936035E0,4.232903481E0,5.671587944E0
2.056599600E-2,-4.474578381E0,4.297509670E0,5.645267010E0
2.298297500E-2,-4.558327198E0,4.390829563E0,5.611767292E0
2.536406900E-2,-4.558327198E0,4.390829563E0,5.611767292E0
2.776906900E-2,-4.582255363E0,4.520041943E0,5.705087185E0
3.020995400E-2,-4.582255363E0,4.520041943E0,5.705087185E0
3.265084000E-2,-4.601397991E0,4.622933388E0,5.829514027E0
3.506781900E-2,-4.658825874E0,4.756931305E0,5.992525101E0
3.748479800E-2,-4.699503899E0,4.917549610E0,6.310770512E0
3.992568300E-2,-4.699503899E0,4.917549610E0,6.310770512E0
4.234266200E-2,-4.680361271E0,4.972584724E0,6.432804585E0
4.473573500E-2,-4.646861553E0,4.984548569E0,6.545566559E0
4.712880800E-2,-4.606183529E0,5.006083965E0,6.689135551E0
4.952188100E-2,-4.563112736E0,5.025226593E0,6.832705021E0
5.191495400E-2,-4.543970108E0,5.058726311E0,6.988238335E0
5.430802700E-2,-4.517649174E0,5.070690155E0,7.122535706E0
5.670110000E-2,-4.474578381E0,5.058726311E0,7.246962547E0
5.909417300E-2,-4.398007870E0,5.025226593E0,7.328318596E0
6.148724600E-2,-4.024428368E0,4.934299469E0,7.443173885E0
6.388031900E-2,-3.986143351E0,4.829015255E0,7.440781116E0
6.627339200E-2,-3.969393730E0,4.733003139E0,7.347461224E0
6.866646500E-2,-4.074677944E0,4.663611412E0,7.299604416E0
7.105953700E-2,-4.264009953E0,4.599005222E0,7.112964630E0
7.345261000E-2,-4.527220249E0,4.486542225E0,6.890132904E0
7.584568300E-2,-4.694717884E0,4.340580463E0,6.658029079E0
7.823875600E-2,-4.778766155E0,4.194318771E0,6.411269188E0
8.065573500E-2,-4.756931305E0,3.995714664E0,6.207879066E0
8.310193300E-2,-4.601397991E0,3.821038723E0,6.069095612E0
8.555255800E-2,-4.453042984E0,3.646063566E0,6.009274960E0
8.800172500E-2,-4.328616142E0,3.488137245E0,5.968596935E0
9.045005800E-2,-4.223331928E0,3.392424345E0,6.035595894E0
9.289781900E-2,-4.191926003E0,3.342175007E0,6.128916264E0
9.534500600E-2,-4.201497555E0,3.279961586E0,6.224628925E0
9.779177700E-2,-4.273581028E0,3.256033421E0,6.353841305E0
1.002382870E-1,-4.338187218E0,3.234498024E0,6.449554443E0
1.026845370E-1,-4.405186653E0,3.181855917E0,6.571887493E0
1.051305790E-1,-4.486542225E0,3.076272726E0,6.684350014E0
1.075763600E-1,-4.515256405E0,2.963809967E0,6.803991318E0
1.100220370E-1,-4.498506546E0,2.851347208E0,6.961917400E0
1.124676100E-1,-4.541577339E0,2.758027315E0,7.165606499E0
1.148985480E-1,-4.520041943E0,2.647957325E0,7.366603374E0
1.173044330E-1,-4.570291042E0,2.542673111E0,7.613363266E0
1.197002150E-1,-4.567898273E0,2.439482689E0,7.852645874E0
1.220959960E-1,-4.625326157E0,2.362912416E0,8.134998322E0
1.244909960E-1,-4.630111694E0,2.271985054E0,8.434400558E0
1.268859960E-1,-4.599005222E0,2.135594130E0,8.654540062E0
1.292818290E-1,-4.577469826E0,2.035095692E0,8.733802795E0
1.316776100E-1,-4.603790760E0,2.056631088E0,8.953942299E0
1.340726100E-1,-4.661218643E0,2.073380709E0,9.174081802E0
1.364676100E-1,-4.701896667E0,2.039881229E0,9.454340935E0
1.388633920E-1,-4.704289436E0,2.073380709E0,9.696016312E0
1.412591730E-1,-4.730610371E0,2.090130568E0,9.887741089E0
1.436542250E-1,-4.747360229E0,2.099701881E0,1.006720352E1
1.460492250E-1,-4.802694321E0,2.106880426E0,1.032323551E1
1.484450060E-1,-4.860121727E0,2.111665964E0,1.048146057E1
1.508407870E-1,-4.924727917E0,2.099701881E0,1.064895821E1
1.532358400E-1,-4.915156841E0,2.059023857E0,1.078056335E1
1.556308400E-1,-4.934299469E0,2.032702923E0,1.087388325E1
1.580266210E-1,-4.955834866E0,2.025524378E0,1.091934681E1
1.604224020E-1,-4.972584724E0,1.994417667E0,1.093848991E1
1.628174540E-1,-4.979763031E0,1.972882271E0,1.086431217E1
1.652124540E-1,-4.941477776E0,1.951047778E0,1.071595669E1
1.676082350E-1,-4.891228676E0,1.927119493E0,1.051496029E1
1.700040170E-1,-4.012464523E0,8.883354068E-1,1.019162941E1
1.723990690E-1,-3.382853031E0,2.703889608E-1,1.002891827E1
1.747940690E-1,-3.758825302E0,4.597210586E-1,1.101535892E1
1.771898500E-1,-4.527220249E0,8.353942037E-1,1.251147175E1
1.795856310E-1,-5.221437931E0,1.132403374E0,1.353859043E1
1.819806830E-1,-5.358128071E0,1.314257860E0,1.283719444E1
1.843756830E-1,-4.891228676E0,1.357328653E0,1.086670494E1
1.867714650E-1,-4.158426762E0,1.319043517E0,8.863015175E0
1.891672460E-1,-3.526422262E0,1.261615753E0,7.306783199E0
1.915622980E-1,-3.066701412E0,1.206580877E0,6.464210510E0
1.939572980E-1,-2.793919563E0,1.113260746E0,6.265306950E0
1.963530790E-1,-2.686242580E0,1.022333503E0,6.569494724E0
1.987488600E-1,-2.647957325E0,9.026923180E-1,7.115357399E0
2.011439120E-1,-2.628814697E0,7.995018363E-1,7.601399422E0
2.035389120E-1,-2.621636391E0,6.942176819E-1,7.886145115E0
2.059347460E-1,-2.600100994E0,6.391827464E-1,7.986643791E0
2.083305270E-1,-2.484946251E0,5.817549825E-1,7.969893932E0
2.107255270E-1,-2.353341103E0,5.243272781E-1,7.907680511E0
2.131205270E-1,-1.759621978E0,9.092725813E-2,7.792825222E0
2.155163600E-1,-1.225723386E0,-4.238287210E-1,7.421638489E0
2.179121420E-1,-1.153938770E0,-5.793621540E-1,7.249355316E0
2.203071420E-1,-1.259222865E0,-6.343970895E-1,7.208677292E0
2.227021420E-1,-1.520339727E0,-6.152545214E-1,7.469494820E0
2.250979750E-1,-1.922333837E0,-5.386841893E-1,8.053643227E0
2.274937560E-1,-2.358126640E0,-4.908277392E-1,8.496614456E0
2.298887560E-1,-2.743670225E0,-3.975076675E-1,8.860622406E0
2.322837560E-1,-2.994916677E0,-2.536391914E-1,9.229117393E0
2.346795900E-1,-3.193820000E0,-5.264209956E-2,9.588339806E0
2.370753710E-1,-3.320639610E0,1.938186288E-1,9.928419113E0
2.394703710E-1,-3.373281717E0,4.381856322E-1,1.008873844E1
2.418653710E-1,-3.354139090E0,6.415755749E-1,1.035673428E1
2.442612040E-1,-3.282354355E0,8.210372925E-1,1.056281662E1
2.466569850E-1,-3.124428272E0,9.337990284E-1,1.057478046E1
2.490519850E-1,-2.903989315E0,9.936196208E-1,1.048863888E1
2.514469850E-1,-2.686242580E0,1.053440213E0,1.045992470E1
2.538428190E-1,-2.458625317E0,1.110867858E0,1.058674431E1
2.562386000E-1,-2.279163599E0,1.161117196E0,1.076142120E1
2.586336000E-1,-2.126022816E0,1.244866014E0,1.098664474E1
2.610286000E-1,-1.999203324E0,1.333400369E0,1.116132164E1
2.634244330E-1,-1.860120535E0,1.415055513E0,1.145563793E1
2.658202150E-1,-1.769193292E0,1.498804331E0,1.178136158E1
2.682152150E-1,-1.699801445E0,1.572981834E0,1.210469151E1
2.706102150E-1,-1.628016710E0,1.628016710E0,1.243250847E1
2.730060480E-1,-1.572981834E0,1.678265929E0,1.275105286E1
2.754018290E-1,-1.508375525E0,1.704586983E0,1.308365536E1
2.777968290E-1,-1.431805253E0,1.699801445E0,1.337109280E1
2.801918290E-1,-1.376471281E0,1.668694735E0,1.367737389E1
2.825876620E-1,-1.340578914E0,1.596910000E0,1.394088364E1
2.849834440E-1,-1.304686546E0,1.467697620E0,1.417059517E1
2.873784440E-1,-1.261615753E0,1.271187067E0,1.437428379E1
2.897734440E-1,-1.220937729E0,1.041476011E0,1.450349617E1
2.921692770E-1,-1.213759303E0,7.564310431E-1,1.454895973E1
2.945650580E-1,-1.182652593E0,4.716851711E-1,1.456810284E1
2.969600580E-1,-1.235294700E0,2.105683982E-1,1.452742481E1
2.993550580E-1,-1.333400369E0,-5.264209956E-2,1.441735458E1
3.017508920E-1,-1.436590910E0,-3.017947674E-1,1.426152229E1
3.041467250E-1,-1.537089467E0,-5.267201066E-1,1.407727432E1
3.065416730E-1,-1.522732496E0,-6.990033388E-1,1.377817154E1
3.089366730E-1,-1.486840129E0,-8.210372925E-1,1.334955788E1
3.113325060E-1,-1.438983679E0,-8.883354068E-1,1.278694534E1
3.137283400E-1,-1.431805253E0,-8.859425783E-1,1.216451168E1
3.161232870E-1,-1.350150228E0,-8.715856671E-1,1.145324516E1
3.185182870E-1,-1.156331539E0,-8.186444640E-1,1.075902748E1
3.209141210E-1,-8.500502706E-1,-7.731808424E-1,1.010788059E1
3.233099540E-1,-4.932205677E-1,-7.229315639E-1,9.418449402E0
3.257049020E-1,-1.028913707E-1,-6.535396576E-1,8.606683731E0
3.280999020E-1,2.679961324E-1,-5.506483316E-1,8.008178711E0
3.304957350E-1,6.032904387E-1,-4.525425732E-1,7.335496902E0
3.328915690E-1,9.912267923E-1,-4.022932947E-1,6.729813576E0
3.352865690E-1,1.441376567E0,-3.424727321E-1,6.236593246E0
3.376815690E-1,1.797907114E0,-2.560320199E-1,5.872584820E0
3.400773500E-1,1.994417667E0,-1.172483116E-1,5.681159019E0
3.424731830E-1,1.996810555E0,2.871387079E-2,5.755336761E0
3.448681830E-1,1.833799481E0,1.962114573E-1,6.009274960E0
3.472631830E-1,1.589731574E0,3.903291821E-1,6.382555485E0
3.496589650E-1,1.369292736E0,5.602195859E-1,6.784848690E0
3.520547980E-1,1.094118118E0,6.846463680E-1,7.206284523E0
3.544497980E-1,7.947162390E-1,8.282157183E-1,7.587042332E0
3.568447980E-1,5.243272781E-1,9.457631707E-1,7.950751305E0
3.592405790E-1,1.986042857E-1,1.041476011E0,8.283653259E0
3.616364120E-1,-2.512463629E-1,1.101296663E0,8.695218086E0
3.640314120E-1,-8.787640929E-1,1.089332461E0,9.294022560E0
3.664264120E-1,-1.601695657E0,9.936196208E-1,1.003131104E1
3.688221940E-1,-2.176272154E0,9.696913958E-1,1.067767239E1
3.712180270E-1,-2.504088879E0,1.003190875E0,1.053649521E1
3.736130270E-1,-2.650350094E0,1.034297585E0,9.868598938E0
3.760080270E-1,-2.650350094E0,9.840483069E-1,9.102297783E0
3.784038080E-1,-2.707777977E0,9.098708034E-1,8.563612938E0
3.807996420E-1,-2.853740215E0,7.755736113E-1,8.254939079E0
3.831946420E-1,-3.049951553E0,6.774678826E-1,8.207082748E0
3.855896420E-1,-3.327818155E0,5.817549825E-1,8.211868286E0
3.879854230E-1,-3.602992773E0,5.267201066E-1,8.154440880E0
3.903812560E-1,-3.847359657E0,5.195416212E-1,8.089534760E0
3.927762560E-1,-3.957429647E0,6.176473498E-1,8.051250458E0
3.951712560E-1,-3.897608995E0,8.282157183E-1,8.017750740E0
3.975670900E-1,-3.703790426E0,1.089332461E0,7.962715626E0
3.999628710E-1,-3.406781197E0,1.299900889E0,7.855038643E0
4.023578710E-1,-3.119642496E0,1.450947881E0,7.744968891E0
4.047528710E-1,-2.793919563E0,1.534696579E0,7.582256794E0
4.071487040E-1,-2.425125837E0,1.558624864E0,7.376174927E0
4.095444850E-1,-2.073380709E0,1.503589988E0,7.215855598E0
4.119394850E-1,-1.678265929E0,1.431805253E0,7.141678333E0
4.143344850E-1,-1.299900889E0,1.364507079E0,7.105785847E0
4.167303190E-1,-9.218349457E-1,1.261615753E0,7.062715054E0
4.191261000E-1,-5.626124144E-1,1.223330617E0,7.060322285E0
4.215211000E-1,-2.057827413E-1,1.213759303E0,7.060322285E0
4.239161000E-1,1.339980662E-1,1.197009563E0,7.093822002E0
4.263119330E-1,3.903291821E-1,1.175474167E0,7.184749126E0
4.287077150E-1,5.937191248E-1,1.137188911E0,7.292426109E0
4.311027150E-1,7.468597889E-1,1.077368379E0,7.416852951E0
4.334977150E-1,8.258228898E-1,9.768698215E-1,7.548458099E0
4.358935480E-1,8.018946648E-1,8.883354068E-1,7.675576687E0
4.382893290E-1,7.923234105E-1,7.588238716E-1,7.747361660E0
4.406843290E-1,7.779664397E-1,6.439684033E-1,7.790432453E0
4.430793290E-1,9.026923180E-1,5.626124144E-1,7.788039684E0
4.454751620E-1,1.122832060E0,3.951148391E-1,7.776075363E0
4.478709440E-1,1.477268934E0,2.057827413E-1,7.711469173E0
4.502659440E-1,1.819442511E0,1.914258115E-2,7.673183918E0
4.526609440E-1,1.879263043E0,-1.004985496E-1,7.733004570E0
4.550567770E-1,1.611266971E0,-9.571290575E-3,7.977072716E0
4.574526100E-1,1.082154036E0,1.148554832E-1,8.269295692E0
4.598475580E-1,4.692923427E-1,2.464607358E-1,8.467900276E0
4.622425580E-1,-6.939185411E-2,3.329014480E-1,8.513363838E0
4.646383920E-1,-5.650052428E-1,3.687937856E-1,8.506185532E0
4.670342250E-1,-1.106082320E0,4.645066857E-1,8.510971069E0
4.694291730E-1,-1.656730533E0,5.961119533E-1,8.609076500E0
4.718241730E-1,-2.078166485E0,7.372884750E-1,8.678468704E0
4.742200060E-1,-2.413161755E0,8.883354068E-1,8.762516975E0
4.766158400E-1,-2.635993242E0,1.048654556E0,8.848658562E0
4.790108400E-1,-2.765205622E0,1.225723386E0,8.874979019E0
4.814058400E-1,-2.786741018E0,1.386042476E0,8.891729355E0
4.838016210E-1,-2.659921408E0,1.515554070E0,8.815158844E0
4.861974540E-1,-2.475374937E0,1.594517231E0,8.649754524E0
4.885924540E-1,-2.209771633E0,1.592124343E0,8.439186096E0
4.909874540E-1,-2.037488461E0,1.565803289E0,8.235795975E0
4.933832350E-1,-1.931905150E0,1.561017632E0,8.024929047E0
4.957790690E-1,-1.838585138E0,1.522732496E0,7.859824181E0
4.981740690E-1,-1.730908036E0,1.462911963E0,7.694719315E0
5.005690690E-1,-1.587338686E0,1.374078393E0,7.512565613E0
5.029649020E-1,-1.424626827E0,1.311864972E0,7.397710323E0
5.053606830E-1,-1.309472203E0,1.237687469E0,7.292426109E0
5.077556830E-1,-1.170688510E0,1.163509965E0,7.227819920E0
5.101506830E-1,-1.051047325E0,1.139581800E0,7.153642178E0
5.125465170E-1,-9.457631707E-1,1.113260746E0,7.112964630E0
5.149422980E-1,-8.452646136E-1,1.141974568E0,7.019644260E0
5.173372980E-1,-6.822535396E-1,1.187438250E0,6.870990276E0
5.197322980E-1,-3.903291821E-1,1.204187989E0,6.827919483E0
5.221281310E-1,4.067798331E-2,1.130010486E0,6.736992359E0
5.245239120E-1,5.434698462E-1,1.000798106E0,6.634100914E0
5.269189120E-1,1.055832982E0,8.596215248E-1,6.533602238E0
5.293139120E-1,1.534696579E0,7.372884750E-1,6.361020088E0
5.317097460E-1,2.006381750E0,6.535396576E-1,6.131309032E0
5.341055270E-1,2.439482689E0,5.626124144E-1,5.709873199E0
5.365005270E-1,2.978166819E0,5.243272781E-1,5.037190914E0
5.388955270E-1,3.763610840E0,4.836492836E-1,4.093820572E0
5.412913600E-1,4.517649174E0,4.908277392E-1,2.963809967E0
5.436871420E-1,4.874478817E0,4.860421121E-1,2.444268227E0
5.460821420E-1,4.860121727E0,6.870391965E-1,2.887239695E0
5.484771420E-1,4.527220249E0,6.726822853E-1,3.629313707E0
5.508729750E-1,4.112963200E0,5.554339290E-1,3.885644913E0
5.532688080E-1,3.713361740E0,3.496512175E-1,3.840181351E0
5.556637560E-1,3.502494097E0,1.387837082E-1,3.727718592E0
5.580587560E-1,3.471387386E0,6.939185411E-2,3.468994617E0
5.604545900E-1,3.327818155E0,-6.460621208E-2,3.198605776E0
5.628504230E-1,1.606481314E0,-1.395613790E0,3.117249727E0
5.652453710E-1,1.194616675E0,-1.726122379E0,3.021237612E0
5.676403710E-1,1.390828133E0,-1.553839207E0,3.026023388E0
5.700362040E-1,1.785943031E0,-1.283151150E0,3.006880760E0
5.724320370E-1,2.238485575E0,-1.041476011E0,2.994916677E0
5.748270370E-1,2.693420887E0,-7.899305820E-1,3.030808926E0
5.772220370E-1,3.212962627E0,-5.362913609E-1,3.193820000E0
5.796178190E-1,3.792324781E0,-2.775674164E-1,3.425923824E0
5.820136520E-1,4.347758770E0,-8.374879509E-2,3.638885021E0
5.844086520E-1,4.807479858E0,2.153540403E-2,3.715754509E0
5.868036520E-1,5.077868938E0,2.153540403E-2,3.766003847E0
5.891994850E-1,5.039583683E0,-1.794617027E-1,3.904787540E0
5.915952670E-1,4.900799751E0,-5.195416212E-1,4.091427803E0
5.939902670E-1,4.781158924E0,-9.146564603E-1,4.206283092E0
5.963852670E-1,4.689932346E0,-1.347757339E0,4.283152580E0
5.987811000E-1,4.536791801E0,-1.781157374E0,4.371686935E0
6.011768810E-1,4.476971149E0,-2.200200319E0,4.496113777E0
6.035718810E-1,4.496113777E0,-2.604886532E0,4.613361835E0
6.059668810E-1,4.548755646E0,-2.947060108E0,4.740181446E0
6.083627150E-1,4.582255363E0,-3.279961586E0,4.876871586E0
6.107584960E-1,4.613361835E0,-3.571886063E0,5.065904617E0
6.131534960E-1,4.654039860E0,-3.828217030E0,5.252544880E0
6.155484960E-1,4.639683247E0,-4.055535316E0,5.405984402E0
6.179443290E-1,4.563112736E0,-4.228117466E0,5.580660820E0
6.203401100E-1,4.484149456E0,-4.331008911E0,5.858228207E0
6.227351100E-1,4.357329845E0,-4.386044025E0,6.066702843E0
6.251301100E-1,4.175176620E0,-4.421936035E0,6.243771553E0
6.275259440E-1,4.057928085E0,-4.424329281E0,6.396912098E0
6.299217250E-1,3.971786499E0,-4.371686935E0,6.516852379E0
6.323167250E-1,3.854538202E0,-4.350151539E0,6.612565517E0
6.347117250E-1,3.770789385E0,-4.340580463E0,6.715456963E0
6.371075580E-1,3.720540047E0,-4.307080746E0,6.744170666E0
6.395033920E-1,3.663112402E0,-4.326223373E0,6.701099873E0
6.418983400E-1,3.588635683E0,-4.328616142E0,6.600601196E0
6.442933400E-1,3.445066452E0,-4.311866283E0,6.320342064E0
6.466891730E-1,3.311068296E0,-4.374079704E0,5.927918911E0
6.490850060E-1,3.208176851E0,-4.472185612E0,5.568696499E0
6.514800060E-1,3.110071182E0,-4.551148891E0,5.197509766E0
6.538750060E-1,2.970988512E0,-4.639683247E0,4.814658165E0
6.562707870E-1,2.789133787E0,-4.735395908E0,4.469792843E0
6.586666210E-1,2.640778780E0,-4.857728958E0,4.117748737E0
6.610616210E-1,2.564208508E0,-4.986941338E0,3.787539244E0
6.634566210E-1,2.600100994E0,-5.101797104E0,3.464209080E0
6.658524020E-1,2.769991398E0,-5.228616714E0,3.153141975E0
6.682482350E-1,3.586242914E0,-5.321936607E0,2.882453918E0
6.706432350E-1,4.697110653E0,-5.398806095E0,2.588136673E0
6.730382350E-1,4.982155800E0,-5.539982796E0,2.453839540E0
6.754340690E-1,4.723432064E0,-5.638088226E0,2.487339020E0
6.778298500E-1,4.302295208E0,-5.740979671E0,2.470589399E0
6.802248500E-1,3.919144392E0,-5.796014786E0,2.331805706E0
6.826198500E-1,3.401995659E0,-5.870192051E0,2.219342947E0
6.850156830E-1,3.028416157E0,-5.915955067E0,2.121237278E0
6.874114650E-1,2.616850615E0,-5.980561256E0,2.073380709E0
6.898064650E-1,2.137987137E0,-6.052345753E0,2.023131609E0
6.922014650E-1,1.716551185E0,-6.133701801E0,2.020738840E0
6.945972980E-1,1.381256819E0,-6.193522453E0,1.989632010E0
6.969930790E-1,1.027119160E0,-6.241378784E0,1.888834357E0
6.993880790E-1,6.128616929E-1,-6.282056808E0,1.790728688E0
7.017830790E-1,2.249253243E-1,-6.284449577E0,1.680658817E0
7.041789120E-1,9.571290575E-3,-6.286842346E0,1.508375525E0
7.065747460E-1,-6.939185411E-2,-6.246164322E0,1.319043517E0
7.089696940E-1,-1.770688742E-1,-6.219843388E0,1.101296663E0
7.113646940E-1,-2.416750938E-1,-6.205486298E0,9.026923180E-1
7.137605270E-1,-2.727817893E-1,-6.200700760E0,8.234301209E-1
7.161563600E-1,-2.249253243E-1,-6.200700760E0,7.971090674E-1
7.185513080E-1,-7.896314561E-2,-6.250949860E0,7.947162390E-1
7.209463080E-1,9.092725813E-2,-6.294020653E0,7.540382147E-1
7.233421420E-1,3.017947674E-1,-6.468996048E0,7.420741320E-1
7.257379750E-1,7.396813035E-1,-6.753741741E0,1.108475089E0
7.281329750E-1,1.283151150E0,-7.132106781E0,1.618445396E0
7.305279750E-1,1.857727647E0,-7.522137165E0,2.195414782E0
7.329237560E-1,2.449054003E0,-7.953144073E0,2.736491680E0
7.353195900E-1,3.004487991E0,-8.369794846E0,3.263211966E0
7.377145900E-1,3.488137245E0,-8.709874153E0,3.797110319E0
7.401095900E-1,3.983750582E0,-9.011369705E0,4.252045631E0
7.425054230E-1,4.414757729E0,-9.231510162E0,4.622933388E0
7.449012040E-1,4.843372345E0,-9.404091835E0,4.955834866E0
7.472962040E-1,5.223830700E0,-9.485447884E0,5.274080276E0
7.496912040E-1,5.616552830E0,-9.578767776E0,5.583053589E0
7.520870370E-1,5.951847076E0,-9.583553314E0,5.911169052E0
7.544828190E-1,6.296413898E0,-9.523733139E0,6.162415504E0
7.568778190E-1,6.423233509E0,-9.595518112E0,6.559923172E0
7.592728190E-1,6.646064758E0,-9.454340935E0,6.815955162E0
7.616686520E-1,6.988238335E0,-9.238688469E0,6.959524632E0
7.640644330E-1,7.333104134E0,-9.020941734E0,7.043572426E0
7.664594330E-1,7.639684677E0,-8.817551613E0,7.081857681E0
7.688544330E-1,7.943572998E0,-8.640183449E0,7.086643219E0
7.712502670E-1,8.264510155E0,-8.465507507E0,7.029215813E0
7.736460480E-1,8.594719887E0,-8.372187614E0,6.940382004E0
7.760410480E-1,8.891729355E0,-8.307580948E0,6.811169624E0
7.784360480E-1,9.188439369E0,-8.240582466E0,6.672386169E0
7.808318810E-1,9.471091270E0,-8.130212784E0,6.543173313E0
7.832277150E-1,9.774979591E0,-8.063214302E0,6.457031727E0
7.856227150E-1,1.013180923E1,-7.922037601E0,6.396912098E0
7.880177150E-1,1.053888798E1,-7.788039684E0,6.358626842E0
7.904134960E-1,1.096750259E1,-7.622934818E0,6.372983932E0
7.928093290E-1,1.140060329E1,-7.435995579E0,6.454638958E0
7.952043290E-1,1.183878899E1,-7.237390995E0,6.593422890E0
7.975993290E-1,1.189382362E1,-7.321139812E0,6.753741741E0
7.999951100E-1,1.206371403E1,-7.301997185E0,6.909275532E0
8.023909440E-1,1.234158134E1,-7.184749126E0,7.041179657E0
8.047859440E-1,1.265294743E1,-7.034001350E0,7.201498985E0
8.071809440E-1,1.299751377E1,-6.842276573E0,7.368996620E0
8.095767770E-1,1.333998585E1,-6.629314899E0,7.517351627E0
8.119725580E-1,1.371805191E1,-6.418447495E0,7.627720356E0
8.143675580E-1,1.408684635E1,-6.203093529E0,7.728219032E0
8.167625580E-1,1.440539074E1,-5.999703884E0,7.850253105E0
8.191583920E-1,1.464227962E1,-5.819942951E0,7.957930088E0
8.215541730E-1,1.473560047E1,-5.671587944E0,8.115856171E0
8.239491730E-1,1.476670647E1,-5.580660820E0,8.324331284E0
8.263441730E-1,1.466620827E1,-5.566303730E0,8.513363838E0
8.287400060E-1,1.456092358E1,-5.650052547E0,8.680861473E0
8.311357870E-1,1.444606876E1,-5.796014786E0,8.860622406E0
8.335307870E-1,1.437667656E1,-5.978168488E0,9.008976936E0
8.359257870E-1,1.432403469E1,-6.176772594E0,9.171689034E0
8.383216210E-1,1.423041534E1,-6.384948254E0,9.349057198E0
8.407174540E-1,1.414188099E1,-6.540780544E0,9.533304214E0
8.431124020E-1,1.399113274E1,-6.667600155E0,9.758230209E0
8.455074020E-1,1.383559990E1,-6.844669342E0,9.957133293E0
8.479032350E-1,1.368455315E1,-7.012166977E0,1.006480980E1
8.502990690E-1,1.346201992E1,-7.129714012E0,1.020120144E1
8.526940690E-1,1.322273827E1,-7.182356358E0,1.038814068E1
8.550890690E-1,1.303340626E1,-7.225427151E0,1.051735306E1
8.574848500E-1,1.301904869E1,-7.301997185E0,1.064417267E1
8.598806830E-1,1.313868999E1,-7.445566654E0,1.076620674E1
8.622756830E-1,1.317936802E1,-7.428816795E0,1.088824081E1
8.646706830E-1,1.317697525E1,-7.342675209E0,1.102971554E1
8.670665170E-1,1.317458248E1,-7.254140854E0,1.117567825E1
8.694622980E-1,1.316501141E1,-7.117750168E0,1.129771233E1
8.718572980E-1,1.314347553E1,-6.978667259E0,1.142931747E1
8.742522980E-1,1.318176079E1,-6.870990276E0,1.149153042E1
8.766481310E-1,1.326102352E1,-6.808776855E0,1.152054405E1
8.790439120E-1,1.339980698E1,-6.705885410E0,1.148674488E1
8.814389120E-1,1.354576874E1,-6.629314899E0,1.143649578E1
8.838339120E-1,1.377099323E1,-6.564708710E0,1.137428284E1
8.862297460E-1,1.402223969E1,-6.478567123E0,1.129292679E1
8.886255270E-1,1.426152229E1,-6.380162239E0,1.118285656E1
8.910205270E-1,1.454178143E1,-6.270092487E0,1.113260746E1
8.934155270E-1,1.477627850E1,-6.121737480E0,1.104407310E1
8.958113600E-1,1.502303791E1,-5.918347836E0,1.097946644E1
8.982071420E-1,1.521924973E1,-5.664409637E0,1.086909771E1
9.006021420E-1,1.544447422E1,-5.331807137E0,1.080688477E1
9.029971420E-1,1.565743542E1,-4.998905659E0,1.069442177E1
9.053929750E-1,1.589910984E1,-4.711467743E0,1.048146057E1
9.077888080E-1,1.611954880E1,-4.395615101E0,1.025145054E1
9.101838080E-1,1.624876213E1,-3.976572037E0,1.004327488E1
9.125788080E-1,1.638036728E1,-3.624528170E0,9.791728973E0
9.149745900E-1,1.654786491E1,-3.373281717E0,9.497411728E0
9.173704230E-1,1.669651794E1,-3.196212769E0,9.212367058E0
9.197654230E-1,1.675633812E1,-2.990130901E0,8.965906143E0
9.221604230E-1,1.675155258E1,-2.710170746E0,8.673683167E0
9.245562040E-1,1.681376648E1,-2.545065880E0,8.369794846E0
9.269520370E-1,1.691187286E1,-2.434697151E0,8.087141991E0
9.293470370E-1,1.705065536E1,-2.389233351E0,7.807182312E0
9.317420370E-1,1.710569000E1,-2.403590441E0,7.546065331E0
9.341378710E-1,1.714666748E1,-2.508874655E0,7.258926392E0
9.365336520E-1,1.717059708E1,-2.655135870E0,6.969096184E0
9.389286520E-1,1.711795425E1,-2.841775894E0,6.684350014E0
9.413236520E-1,1.700040627E1,-3.095714331E0,6.411269188E0
9.437194850E-1,1.682573128E1,-3.354139090E0,6.109773636E0
9.461152670E-1,1.662951851E1,-3.631706476E0,5.834300041E0
9.485102670E-1,1.644018745E1,-3.931108475E0,5.585446358E0
9.509052670E-1,1.627747536E1,-4.230510235E0,5.389235020E0
9.533011000E-1,1.608365631E1,-4.498506546E0,5.209474087E0
9.556969330E-1,1.590150261E1,-4.788337231E0,5.044369221E0
9.580918810E-1,1.574118423E1,-5.065904617E0,4.893621445E0
9.604868810E-1,1.559282875E1,-5.314758301E0,4.776372910E0
9.628827150E-1,1.544686699E1,-5.544768333E0,4.733003139E0
9.652785480E-1,1.531256962E1,-5.760122299E0,4.761716843E0
9.676735480E-1,1.519532108E1,-5.896812439E0,4.862514496E0
9.700685480E-1,1.512353611E1,-5.947061539E0,5.039583683E0
9.724643290E-1,1.509243011E1,-6.033203125E0,5.235795021E0
9.748601620E-1,1.508764362E1,-6.071488380E0,5.489733219E0
9.772551620E-1,1.509243011E1,-6.047560215E0,5.688337803E0
9.796501620E-1,1.506850147E1,-5.985346794E0,5.932704449E0
9.820459960E-1,1.507328701E1,-5.963811398E0,6.186343670E0
9.844417770E-1,1.512114334E1,-5.951847076E0,6.392126560E0
9.868367770E-1,1.515942860E1,-5.939883232E0,6.624529362E0
9.892317770E-1,1.514507198E1,-5.860620975E0,6.825526714E0
9.916276100E-1,1.508285809E1,-5.685945034E0,6.964310169E0
9.940233920E-1,1.501346684E1,-5.494519234E0,7.060322285E0
9.964183920E-1,1.497518158E1,-5.355735302E0,7.148856640E0
9.988133920E-1,1.497278881E1,-5.336592674E0,7.211070061E0
1.001209225E0,1.493211079E1,-5.372485161E0,7.239784241E0
1.003605006E0,1.490339661E1,-5.496912003E0,7.270890713E0
1.006000006E0,1.487228966E1,-5.652445316E0,7.285247803E0
1.008395006E0,1.455374527E1,-5.446662426E0,7.199106216E0
1.010790840E0,1.429980755E1,-5.389235020E0,7.112964630E0
1.013186673E0,1.407966709E1,-5.425127029E0,7.041179657E0
1.015581621E0,1.387867069E1,-5.523232937E0,7.036394119E0
1.017976621E0,1.365823174E1,-5.566303730E0,7.108178616E0
1.020372454E0,1.348116302E1,-5.642873764E0,7.318747044E0
1.022768287E0,1.327059460E1,-5.824728489E0,7.548458099E0
1.025163235E0,1.302383423E1,-5.978168488E0,7.579864025E0
1.027558235E0,1.285872936E1,-6.088238239E0,7.517351627E0
1.029954069E0,1.291137218E1,-6.155237198E0,7.239784241E0
1.032349902E0,1.300708485E1,-6.248557091E0,7.093822002E0
1.034744902E0,1.319880962E1,-6.372983932E0,7.091429234E0
1.037139902E0,1.328016567E1,-6.447161674E0,7.000202656E0
1.039535683E0,1.315783215E1,-6.406483650E0,6.870990276E0
1.041931517E0,1.271755314E1,-6.160022736E0,6.610172749E0
1.044326517E0,1.234397411E1,-6.059524059E0,6.392126560E0
1.046721517E0,1.201825047E1,-6.143272877E0,6.303592205E0
1.049117350E0,1.166411304E1,-6.282056808E0,6.081059456E0
1.051513131E0,1.132164001E1,-6.365805626E0,5.413163185E0
1.053908131E0,1.093609715E1,-6.579065800E0,4.117748737E0
1.056303131E0,1.071117115E1,-6.808776855E0,3.351746321E0
1.058698965E0,1.085474110E1,-7.091429234E0,2.738884687E0
1.061094746E0,1.061306572E1,-7.294818878E0,2.202593327E0
1.063489746E0,1.012223816E1,-7.426424026E0,1.558624864E0
1.065884746E0,9.559625626E0,-7.589435101E0,9.122636318E-1
1.068280579E0,9.023334503E0,-7.819146156E0,4.094717801E-1
1.070676412E0,8.415258408E0,-7.917252064E0,1.722832322E-1
1.073071360E0,7.883752346E0,-7.979465485E0,2.392822653E-1
1.075466360E0,7.325925827E0,-7.883752346E0,2.922234535E-1
1.077862194E0,6.775277138E0,-7.725826263E0,8.135596663E-2
1.080258027E0,6.250949860E0,-7.594220638E0,-3.329014480E-1
1.082653027E0,5.788836002E0,-7.543672562E0,-5.458626747E-1
1.085048027E0,4.951049328E0,-7.562815189E0,-2.488535494E-1
1.087443808E0,3.914358854E0,-7.512565613E0,-1.986042857E-1
1.089839642E0,3.215355396E0,-7.440781116E0,-2.488535494E-1
1.092234642E0,2.927917719E0,-7.546065331E0,1.220339537E-1
1.094629642E0,2.803490877E0,-7.601399422E0,3.233301640E-1
1.097025475E0,2.219342947E0,-7.412067413E0,5.291129351E-1
1.099421256E0,1.857727647E0,-7.457530975E0,7.348956466E-1
1.101816256E0,1.335793257E0,-7.505387306E0,1.096511006E0
1.104211256E0,1.484447360E0,-7.471887589E0,1.342971683E0
1.106607090E0,2.576172590E0,-7.680362701E0,1.776371717E0
1.109002871E0,3.009273529E0,-7.692326546E0,2.164308071E0
1.111397871E0,3.325425386E0,-7.620542049E0,2.374876499E0
1.113792871E0,4.091427803E0,-7.565207958E0,2.624029160E0
1.116188704E0,4.560719967E0,-7.692326546E0,2.944667339E0
1.118584537E0,4.963013172E0,-7.957930088E0,3.287140131E0
1.120979485E0,5.168796062E0,-8.039285660E0,3.775574923E0
1.123374485E0,5.061119080E0,-7.953144073E0,4.057928085E0
1.125770319E0,5.707480431E0,-8.036892891E0,4.163212299E0
1.128166152E0,6.301199436E0,-8.058428764E0,4.508078098E0
1.130561152E0,6.727420807E0,-8.123034477E0,4.744967461E0
1.132956152E0,7.112964630E0,-8.228617668E0,4.881657124E0
1.135351933E0,7.462316513E0,-8.293224335E0,5.025226593E0
1.137747767E0,7.747361660E0,-8.410472870E0,5.161617756E0
1.140142767E0,7.859824181E0,-8.554041862E0,5.245366573E0
1.142537767E0,7.881359577E0,-8.750552177E0,5.298008442E0
1.144933548E0,7.716254711E0,-8.901300430E0,5.321936607E0
1.147329381E0,7.397710323E0,-9.064012527E0,5.374877930E0
1.149724381E0,7.036394119E0,-9.188439369E0,5.379663467E0
1.152119381E0,6.799205780E0,-9.233902931E0,5.207081318E0
1.154515215E0,6.629314899E0,-9.202795982E0,5.118546963E0
1.156910996E0,6.526423931E0,-9.138189316E0,5.233402252E0
1.159305996E0,6.454638958E0,-9.073583603E0,5.492125988E0
1.161700996E0,6.100202084E0,-9.162117958E0,5.690730572E0
1.164096829E0,6.152844429E0,-8.941978455E0,5.796014786E0
1.166492610E0,6.150451660E0,-8.714659691E0,6.006882191E0
1.168887610E0,6.004489422E0,-8.848658562E0,6.557530403E0
1.171282610E0,5.530411243E0,-9.008976936E0,6.294020653E0
1.173678444E0,4.771587372E0,-9.128618240E0,5.113760948E0
1.176074225E0,4.211368084E0,-9.174081802E0,4.862514496E0
1.178469225E0,3.983750582E0,-9.085547447E0,5.159224510E0
1.180864225E0,4.273581028E0,-8.633005142E0,5.370092392E0
1.183260058E0,4.699503899E0,-8.072785378E0,5.437091351E0
1.185655892E0,5.022833824E0,-7.998608112E0,5.772086620E0
1.188050892E0,4.821836948E0,-8.010572433E0,5.774479389E0
1.190445892E0,4.632504463E0,-8.010572433E0,5.657230854E0
1.192841673E0,4.639683247E0,-7.857431412E0,5.561518192E0
1.195237506E0,4.965405941E0,-7.675576687E0,5.528018475E0
1.197632506E0,5.350949764E0,-7.649255753E0,5.800800323E0
1.200027506E0,5.018048286E0,-7.560422421E0,5.980561256E0
1.202423340E0,4.469792843E0,-7.486244678E0,6.088238239E0
1.204819121E0,4.053142548E0,-7.510172844E0,6.408876419E0
1.207214121E0,3.646063566E0,-7.689933777E0,7.029215813E0
1.209609121E0,3.811467409E0,-8.254939079E0,8.326724052E0
1.212004954E0,3.346960783E0,-8.702695847E0,8.889336586E0
1.214400735E0,3.418745279E0,-8.886942863E0,8.314759254E0
1.216795735E0,4.453042984E0,-8.915657043E0,7.529315472E0
1.219190735E0,7.266105175E0,-9.411270142E0,7.009773731E0
1.221586569E0,6.188736439E0,-9.667302132E0,7.948358536E0
1.223982350E0,3.746861219E0,-9.504590988E0,9.449555397E0
1.226377350E0,1.999203324E0,-8.989834785E0,1.116849995E1
1.228772350E0,1.479661703E0,-8.843872070E0,1.256172085E1
1.231168183E0,1.539482236E0,-9.337093353E0,1.337348557E1
1.233564017E0,8.644071817E-1,-1.029930687E1,1.297119236E1
1.235958965E0,1.427019596E0,-1.105842972E1,1.306929779E1
1.238353965E0,1.419841170E0,-1.120439243E1,1.259761333E1
1.240749798E0,1.072582722E0,-1.108475113E1,1.200628662E1
1.243145631E0,4.668995142E-1,-1.084756279E1,1.130967617E1
1.245540631E0,-4.453641176E-1,-1.059870911E1,1.060110188E1
1.247935631E0,-1.165902853E0,-1.031605625E1,1.014377308E1
1.250331412E0,-9.361918569E-1,-1.000738239E1,8.965906143E0
1.252727246E0,-3.352942765E-1,-9.054440498E0,6.583851337E0
1.255122246E0,1.004985496E-1,-8.266902924E0,4.208974838E0
1.257517246E0,9.337990284E-1,-7.493422985E0,2.461018085E0
1.259913079E0,1.984846354E0,-6.509674072E0,7.683951855E-1
1.262308860E0,3.758825302E0,-5.221437931E0,-2.013560295E0
1.264703860E0,4.924727917E0,-5.132903576E0,-3.356531858E0
1.267098860E0,4.982155800E0,-4.824229717E0,-4.764110088E0
1.269494694E0,4.824229717E0,-4.589433670E0,-6.325127602E0
1.271890475E0,4.163212299E0,-4.462614059E0,-6.820741177E0
1.274285475E0,2.157129526E0,-3.727718592E0,-2.513660192E0
1.276680475E0,-2.573779821E0,-1.398006678E0,1.148913765E1
1.279076308E0,-2.822633505E0,-4.238287210E-1,1.023709393E1
1.281472142E0,-1.472483277E0,-9.625129104E-1,8.685647011E0
1.283867090E0,-6.343970895E-1,-1.735693693E0,8.164011955E0
1.286262090E0,8.377870321E-1,-2.669492722E0,8.484649658E0
1.288657923E0,1.161117196E0,-3.251247883E0,8.685647011E0
1.291053756E0,1.321436286E0,-4.112963200E0,8.455936432E0
1.293448756E0,2.130808592E0,-5.092225552E0,8.625826836E0
1.295843756E0,2.353341103E0,-5.815157413E0,7.756932735E0
1.298239537E0,3.291925669E0,-6.500102520E0,7.541279793E0
1.300635371E0,4.551148891E0,-6.646064758E0,6.095416546E0
1.303030371E0,5.250152111E0,-6.416054726E0,4.687539577E0
1.305425371E0,5.223830700E0,-6.246164322E0,3.313461065E0
1.307821204E0,4.060320854E0,-6.502495766E0,1.683051586E0
1.310216985E0,3.768396616E0,-6.619743824E0,1.275972724E0
1.312611985E0,2.947060108E0,-6.691528320E0,8.572286963E-1
1.315006985E0,1.840977907E0,-7.136892796E0,-3.589234129E-2
1.317402819E0,1.517946839E0,-7.491030216E0,-9.266205430E-1
1.319798600E0,1.366899967E0,-7.634898663E0,-1.225723386E0
1.322193600E0,2.023131609E0,-7.378567696E0,1.292124242E-1
1.324588600E0,5.745765567E-1,-7.596613884E0,3.855435550E-1
1.326984433E0,-8.835497499E-1,-7.754539967E0,1.067797065E0
1.329380267E0,-1.517946839E0,-7.886145115E0,2.130808592E0
1.331775215E0,-9.864411354E-1,-8.058428764E0,3.600599766E0
1.334170215E0,-1.230509043E0,-8.922835350E0,3.911965847E0
1.336566048E0,-1.553839207E0,-9.875777245E0,6.136094570E0
1.338961881E0,-1.134796143E0,-1.032562828E1,7.661220074E0
1.341356881E0,7.085745931E-1,-1.011027431E1,8.398508072E0
1.343751881E0,2.901596546E0,-9.554840088E0,7.404888630E0
1.346147662E0,3.684647799E0,-9.734301567E0,7.378567696E0
1.348543496E0,3.095714331E0,-1.009830952E1,1.100578785E1
1.350938496E0,2.631207705E0,-9.652945518E0,8.839086533E0
1.353333496E0,-6.415755749E-1,-1.028734303E1,1.139821053E1
1.355729329E0,-6.702894568E-1,-9.743872643E0,1.094088268E1
1.358125110E0,-1.984846354E0,-9.317950249E0,1.144128132E1
1.360520110E0,-8.931210637E-1,-8.343473434E0,1.117807102E1
1.362915110E0,2.118844509E0,-7.852645874E0,6.301199436E0
1.365310944E0,6.198307991E0,-7.345067978E0,-1.410269856E0
1.367706725E0,9.902098656E0,-7.397710323E0,-6.026024818E0
1.370101725E0,9.416056633E0,-7.127321243E0,-5.118546963E0
1.372496725E0,5.221437931E0,-6.425626278E0,-4.709074974E0
1.374892558E0,2.734098911E0,-5.525625706E0,-4.335794449E0
1.377288340E0,1.592124343E0,-4.575077057E0,-4.177569389E0
1.379683340E0,1.108475089E0,-3.959822416E0,-2.506481647E0
1.382078340E0,1.125224829E0,-3.775574923E0,7.417750359E-2
1.384474173E0,2.153540403E-2,-3.253640652E0,1.249651670E0
1.386870006E0,-3.349951655E-2,-3.196212769E0,1.747657895E0
1.389265006E0,7.205387354E-1,-3.715754509E0,1.826620936E0
1.391660006E0,1.860120535E0,-4.359723091E0,2.396411896E0
1.394055787E0,2.779562712E0,-5.025226593E0,3.366103172E0
1.396451621E0,3.275176048E0,-5.566303730E0,4.503292084E0
1.398846621E0,3.574278831E0,-5.911169052E0,5.341378212E0
1.401241621E0,3.665505171E0,-6.119344711E0,5.951847076E0
1.403637402E0,3.658326626E0,-6.243771553E0,6.222236156E0
1.406033235E0,3.504886866E0,-6.353841305E0,6.143272877E0
1.408428235E0,3.196212769E0,-6.368198395E0,5.982954025E0
1.410823235E0,2.793919563E0,-6.332305908E0,5.714658737E0
1.413219069E0,2.307877541E0,-6.243771553E0,5.611767292E0
1.415614850E0,2.006381750E0,-6.114559174E0,5.437091351E0
1.418009850E0,1.840977907E0,-5.863013744E0,5.238187790E0
1.420404850E0,1.941476464E0,-5.757729530E0,5.271687508E0
1.422800683E0,2.121237278E0,-5.889334679E0,5.561518192E0
1.425196465E0,1.311864972E0,-5.334199905E0,5.281258583E0
1.427591465E0,8.691928387E-1,-4.744967461E0,4.998905659E0
1.429986465E0,8.452646136E-1,-4.342973232E0,4.869693279E0
1.432382298E0,1.079761267E0,-4.213760853E0,4.876871586E0
1.434778131E0,1.244866014E0,-4.134498596E0,5.073082924E0
1.437173131E0,1.173081279E0,-4.019642830E0,5.329114914E0
1.439568131E0,1.515554070E0,-4.177569389E0,5.583053589E0
1.441963912E0,3.040380239E0,-5.120939732E0,6.595815659E0
1.444359746E0,1.266401410E0,-4.381258488E0,6.171987057E0
1.446754746E0,2.679961324E-1,-3.449851990E0,5.590231895E0
1.449149746E0,5.650052428E-1,-3.054737091E0,4.991727352E0
1.451545579E0,1.896012783E0,-3.425923824E0,5.101797104E0
1.453941360E0,3.203391314E0,-4.225724697E0,5.901597977E0
1.456336360E0,1.194616675E0,-3.334996462E0,5.286044121E0
1.458731360E0,3.640081584E-1,-2.635993242E0,4.555934429E0
1.461127194E0,8.548358679E-1,-2.604886532E0,4.170390606E0
1.463522975E0,3.311068296E0,-3.945465326E0,5.511268616E0
1.465917975E0,3.018844843E0,-4.199104786E0,5.719444275E0
1.468312975E0,1.934298038E0,-3.995714664E0,5.822335720E0
1.470708808E0,1.041476011E0,-3.713361740E0,5.480162144E0
1.473104590E0,8.811569214E-1,-3.514458179E0,5.341378212E0
1.475499590E0,1.146760225E0,-3.330210924E0,5.321936607E0
1.477894590E0,1.259222865E0,-3.244069338E0,5.331807137E0
1.480290423E0,1.256830096E0,-3.284747362E0,5.425127029E0
1.482686256E0,1.108475089E0,-3.356531858E0,5.623731613E0
1.485081256E0,9.912267923E-1,-3.502494097E0,5.693123341E0
1.487476256E0,7.875377536E-1,-3.679862022E0,5.693123341E0
1.489872037E0,7.540382147E-1,-3.890430450E0,5.772086620E0
1.492267871E0,7.085745931E-1,-4.093820572E0,5.855835438E0
1.494662871E0,6.846463680E-1,-4.285545349E0,5.954239845E0
1.497057871E0,5.434698462E-1,-4.491328239E0,6.018846035E0
1.499453704E0,5.721837282E-1,-4.675575256E0,6.014060497E0
1.501849485E0,6.296114326E-1,-4.850550652E0,6.037988663E0
1.504244485E0,6.439684033E-1,-4.972584724E0,5.997310638E0
1.506639485E0,7.253243923E-1,-5.187938690E0,5.990132332E0
1.509035319E0,7.731808424E-1,-5.417948723E0,6.002096653E0
1.511431100E0,7.971090674E-1,-5.640480995E0,5.992525101E0
1.513826100E0,1.041476011E0,-5.949454308E0,6.109773636E0
1.516221100E0,1.632802367E0,-6.258128643E0,6.329913139E0
1.518616933E0,2.338984251E0,-6.653243542E0,6.631708145E0
1.521012767E0,2.777169704E0,-6.933203697E0,6.854240417E0
1.523407715E0,3.009273529E0,-7.249355316E0,7.163213730E0
1.525802715E0,3.026023388E0,-7.599006653E0,7.349853992E0
1.528198548E0,2.908775091E0,-7.821538925E0,7.407281399E0
1.530594381E0,2.903989315E0,-8.034500122E0,7.414460182E0
1.532989381E0,2.815454960E0,-8.120641708E0,7.237390995E0
1.535384381E0,2.662314177E0,-8.144868851E0,6.949953556E0
1.537780162E0,2.420340061E0,-8.257331848E0,6.550352097E0
1.540175996E0,2.066202402E0,-8.228617668E0,6.045167446E0
1.542570996E0,1.663909078E0,-8.152048111E0,5.549553871E0
1.544965996E0,1.606481314E0,-8.173583031E0,5.132903576E0
1.547361829E0,1.730908036E0,-8.264510155E0,4.931906700E0
1.549757610E0,1.611266971E0,-8.245368004E0,4.644468784E0
1.552152610E0,1.498804331E0,-8.214261055E0,4.359723091E0
1.554547610E0,1.374078393E0,-8.144868851E0,4.124927044E0
1.556943444E0,1.158724308E0,-8.053643227E0,3.797110319E0
1.559339225E0,4.118646085E-1,-7.419245720E0,2.939881802E0
1.561734225E0,3.376871049E-1,-7.034001350E0,2.336591244E0
1.564129225E0,6.008976102E-1,-7.194320202E0,2.094916344E0
1.566525058E0,9.577272534E-1,-7.651648521E0,2.422732830E0
1.568920892E0,1.137188911E0,-8.003393173E0,2.805883646E0
1.571315840E0,1.113260746E0,-8.185546875E0,3.327818155E0
1.573710840E0,1.094118118E0,-8.424829483E0,4.000500202E0
1.576106673E0,1.211366415E0,-8.618648529E0,4.668396950E0
1.578502506E0,3.376871049E-1,-8.077570915E0,4.335794449E0
1.580897506E0,4.884349108E-1,-8.238189697E0,4.381258488E0
1.583292506E0,1.674975902E-1,-8.522934914E0,4.414757729E0
1.585688287E0,-1.158724308E0,-8.183154106E0,3.239283562E0
1.588084121E0,-1.290329576E0,-8.307580948E0,2.595315218E0
1.590479121E0,-1.405484200E0,-8.661719322E0,2.135594130E0
1.592874121E0,-2.059023857E0,-8.668897629E0,2.080559254E0
1.595269954E0,-2.362912416E0,-8.860622406E0,2.394019127E0
1.597665735E0,-2.810669184E0,-9.035298347E0,2.496910334E0
1.600060735E0,-3.447459221E0,-8.841479301E0,2.542673111E0
1.602455735E0,-4.014857292E0,-8.597112656E0,2.877668381E0
1.604851569E0,-3.562314749E0,-8.609076500E0,3.842574120E0
1.607247350E0,-3.016452074E0,-8.233403206E0,3.691826344E0
1.609642350E0,-2.592922449E0,-8.036892891E0,3.413959742E0
1.612037350E0,-2.078166485E0,-8.123034477E0,4.182354927E0
1.614433183E0,-2.475374937E0,-7.917252064E0,3.804288864E0
1.616829017E0,-2.872882605E0,-7.654041290E0,3.516851187E0
1.619223965E0,-3.445066452E0,-7.519744396E0,3.768396616E0
1.621618965E0,-3.830610037E0,-7.809575081E0,4.369294167E0
1.624014798E0,-3.990929127E0,-7.950751305E0,4.744967461E0
1.626410631E0,-3.387638569E0,-8.147261620E0,5.065904617E0
1.628805631E0,-2.482553482E0,-8.443971634E0,5.346164227E0
1.631200631E0,-2.073380709E0,-8.566005707E0,5.262115955E0
1.633596412E0,-1.999203324E0,-8.633005142E0,5.535196781E0
1.635992246E0,-1.702194214E0,-9.032905579E0,5.420341492E0
1.638387246E0,-1.570588946E0,-9.533304214E0,5.195116997E0
1.640782246E0,-1.666301847E0,-9.667302132E0,5.152046204E0
1.643178079E0,-1.896012783E0,-9.650552750E0,5.317151070E0
1.645573860E0,-2.346162558E0,-9.459127426E0,5.743372440E0
1.647968860E0,-3.143570662E0,-8.910871506E0,6.490531445E0
1.650363860E0,-3.828217030E0,-8.441578865E0,7.380960464E0
1.652759694E0,-3.816252947E0,-8.362615585E0,7.881359577E0
1.655155475E0,-3.631706476E0,-8.192725182E0,8.489435196E0
1.657550475E0,-3.504886866E0,-8.245368004E0,8.587541580E0
1.659945475E0,-3.198605776E0,-8.276473999E0,8.688039780E0
1.662341308E0,-3.037987471E0,-8.484649658E0,8.910871506E0
1.664737142E0,-2.520838737E0,-8.611469269E0,8.884550095E0
1.667132090E0,-2.054238319E0,-8.458329201E0,8.937192917E0
1.669527090E0,-1.601695657E0,-7.610970497E0,1.003848934E1
1.671922923E0,-1.486840129E0,-7.644470215E0,9.911669731E0
1.674318756E0,-1.041476011E0,-7.704290867E0,1.008634567E1
1.676713756E0,-8.353942037E-1,-7.907680511E0,1.101535892E1
1.679108756E0,-5.482555032E-1,-8.209475517E0,1.119242764E1
1.681504590E0,2.584248483E-1,-8.144868851E0,1.072552872E1
1.683900371E0,7.875377536E-1,-8.173583031E0,1.064177990E1
1.686295371E0,1.419841170E0,-8.140083313E0,1.043121147E1
1.688690371E0,1.994417667E0,-8.123034477E0,1.007438183E1
1.691086204E0,2.475374937E0,-8.195118904E0,9.463912964E0
1.693481985E0,2.777169704E0,-8.247760773E0,8.551649094E0
1.695876985E0,3.174677372E0,-8.326724052E0,7.507780075E0
1.698271985E0,3.356531858E0,-8.568398476E0,6.100202084E0
1.700667819E0,3.445066452E0,-8.400900841E0,5.360520840E0
1.703063600E0,3.559921980E0,-7.871788502E0,5.271687508E0
1.705458600E0,3.675076485E0,-7.139285564E0,5.405984402E0
1.707853600E0,3.655933857E0,-6.588637352E0,5.614160061E0
1.710249433E0,3.547957659E0,-6.222236156E0,5.606981754E0
1.712645267E0,3.342175007E0,-5.999703884E0,5.331807137E0
1.715040267E0,3.107678413E0,-5.874977589E0,4.919942379E0
1.717435267E0,3.189034462E0,-5.831906796E0,4.261617184E0
1.719831048E0,3.694219112E0,-5.892026424E0,3.547957659E0
1.722226881E0,3.978965044E0,-5.899205208E0,2.980559587E0
1.724621881E0,4.196712017E0,-5.874977589E0,2.650350094E0
1.727016881E0,4.307080746E0,-5.882156372E0,2.547458887E0
1.729412715E0,4.551148891E0,-5.879763603E0,2.461018085E0
1.731808496E0,4.864907742E0,-5.879763603E0,2.422732830E0
1.734203496E0,4.991727352E0,-5.855835438E0,2.336591244E0
1.736598496E0,4.989334106E0,-5.793622017E0,2.315055847E0
1.738994329E0,4.977370262E0,-5.626124382E0,2.461018085E0
1.741390110E0,5.128118038E0,-5.480162144E0,2.477767944E0
1.743785110E0,5.314758301E0,-5.482554913E0,2.221735716E0
1.746180110E0,5.449055195E0,-5.401198864E0,2.212164640E0
1.748575944E0,5.530411243E0,-5.405984402E0,2.286342144E0
1.750971777E0,5.743372440E0,-5.609374523E0,1.982453585E0
1.753366725E0,5.882156372E0,-5.752943993E0,2.056631088E0
1.755761725E0,6.313163280E0,-5.997310638E0,2.889632463E0
1.758157558E0,6.138487339E0,-6.356234074E0,3.308675528E0
1.760553392E0,5.776872158E0,-6.760920525E0,3.272783279E0
1.762948392E0,5.317151070E0,-7.122535706E0,3.279961586E0
1.765343392E0,4.649254322E0,-7.392924786E0,3.308675528E0
1.767739173E0,3.990929127E0,-7.594220638E0,3.433102369E0
1.770135006E0,3.351746321E0,-7.756932735E0,3.701397419E0
1.772530006E0,2.681456804E0,-7.950751305E0,3.871287823E0
1.774925006E0,2.130808592E0,-8.199904442E0,3.971786499E0
1.777320840E0,1.726122379E0,-8.381758690E0,3.900001764E0
1.779716621E0,1.338186026E0,-8.515756607E0,3.591028690E0
1.782111621E0,9.840483069E-1,-8.659325600E0,3.452244759E0
1.784506621E0,9.194421172E-1,-8.918049812E0,3.409173965E0
1.786902454E0,1.189831018E0,-9.265308380E0,3.409173965E0
1.789298235E0,1.745265007E0,-9.681659698E0,3.811467409E0
1.791693235E0,3.763610840E0,-1.136710358E1,5.645267010E0
1.794088235E0,5.571089268E0,-1.263858986E1,6.136094570E0
1.796484069E0,6.698707104E0,-1.375902939E1,5.815157413E0
1.798879902E0,6.914061069E0,-1.453699589E1,5.305186749E0
1.801274902E0,6.303592205E0,-1.452981758E1,4.737788677E0
1.803669902E0,5.618945599E0,-1.427109337E1,4.067499161E0
1.806065683E0,4.687539577E0,-1.370130253E1,3.392424345E0
1.808461517E0,3.844966888E0,-1.290180016E1,2.863311291E0
1.810856517E0,2.932703257E0,-1.195364475E1,2.489732027E0
1.813251517E0,2.075773716E0,-1.100818062E1,2.331805706E0
1.815647350E0,1.225723386E0,-1.008156013E1,2.236092806E0
1.818043131E0,4.956133962E-1,-9.231510162E0,2.305484533E0
1.820438131E0,1.292124242E-1,-8.676075935E0,2.592922449E0
1.822833131E0,5.024927482E-2,-8.422436714E0,3.011666298E0
1.825228965E0,1.674975902E-1,-8.374580383E0,3.445066452E0
1.827624798E0,5.267201066E-1,-8.668897629E0,3.710968733E0
1.830019746E0,1.132403374E0,-9.145368576E0,3.890430450E0
1.832414746E0,1.711765528E0,-9.645767212E0,4.127319813E0
1.834810579E0,2.233700037E0,-1.008634567E1,4.089034557E0
1.837206412E0,2.746062994E0,-1.049581718E1,4.127319813E0
1.839601412E0,2.949453115E0,-1.084995556E1,4.216153622E0
1.841996412E0,2.865704298E0,-1.119003487E1,3.938287020E0
1.844392194E0,2.975774050E0,-1.144845963E1,3.581457376E0
1.846788027E0,3.189034462E0,-1.150349522E1,3.516851187E0
1.849183027E0,3.423531055E0,-1.142692471E1,3.435495138E0
1.851578027E0,3.143570662E0,-1.130728340E1,3.205784082E0
1.853973860E0,2.789133787E0,-1.119960594E1,2.887239695E0
1.856369642E0,2.303091764E0,-1.099621677E1,2.741277456E0
1.858764642E0,1.838585138E0,-1.072313595E1,2.686242580E0
1.861159642E0,5.530411601E-1,-1.015573788E1,2.209771633E0
1.863555475E0,-1.606481314E0,-9.315557480E0,1.783550143E0
1.865951256E0,-2.982952595E0,-8.551649094E0,1.297508121E0
1.868346256E0,-3.045166016E0,-8.053643227E0,1.158724308E0
1.870741256E0,-1.972882271E0,-7.847859859E0,1.127617717E0
1.873137090E0,-7.157530785E-1,-7.618149281E0,9.936196208E-1
1.875532923E0,7.896314561E-2,-7.359425068E0,9.457631707E-1
1.877927923E0,2.560320199E-1,-6.892525673E0,8.234301209E-1
1.880322923E0,5.673980713E-1,-6.495316982E0,1.247258782E0
1.882718704E0,5.697908998E-1,-6.133701801E0,1.639980793E0
1.885114537E0,1.070189953E0,-6.061916828E0,2.056631088E0
1.887509537E0,1.754836321E0,-6.372983932E0,2.200200319E0
1.889904537E0,2.805883646E0,-7.294818878E0,2.317448616E0
1.892300371E0,3.988536358E0,-8.350651741E0,2.578565598E0
1.894696152E0,4.725824833E0,-9.016156197E0,2.825026274E0
1.897091152E0,5.125725269E0,-9.325128555E0,3.208176851E0
1.899486152E0,5.209474087E0,-9.439984322E0,3.746861219E0
1.901881985E0,5.099404335E0,-9.439984322E0,4.041178226E0
1.904277767E0,5.087440014E0,-9.518947601E0,4.307080746E0
1.906672767E0,5.216652393E0,-9.662516594E0,4.613361835E0
1.909067767E0,5.092225552E0,-9.614660263E0,4.788337231E0
1.911463600E0,4.589433670E0,-9.092725754E0,4.994120121E0
1.913859433E0,4.565505505E0,-8.767302513E0,5.288437366E0
1.916254433E0,4.261617184E0,-8.625826836E0,5.068297386E0
1.918649433E0,4.060320854E0,-8.585148811E0,4.651647091E0
1.921045215E0,4.208974838E0,-8.647361755E0,4.299902439E0
1.923441048E0,4.340580463E0,-8.810373306E0,3.993321896E0
1.925836048E0,4.661218643E0,-9.052047729E0,3.667897940E0
1.928231048E0,4.860121727E0,-9.346664429E0,3.445066452E0
1.930626881E0,4.670789719E0,-9.349057198E0,3.248854876E0
1.933022662E0,4.584648132E0,-9.471091270E0,3.308675528E0
1.935417662E0,4.718646049E0,-9.681659698E0,3.342175007E0
1.937812662E0,5.013262749E0,-1.002891827E1,3.368496180E0
1.940208496E0,4.970191956E0,-1.006959629E1,3.210569859E0
1.942604329E0,4.989334106E0,-1.006959629E1,3.200998545E0
1.944999329E0,4.994120121E0,-1.008634567E1,3.133999348E0
1.947394329E0,5.180759907E0,-1.022273636E1,3.160320520E0
1.949790110E0,5.367699623E0,-1.036869907E1,3.198605776E0
1.952185944E0,5.475376606E0,-1.041206837E1,3.246462107E0
1.954580944E0,5.606981754E0,-1.050060272E1,3.265604734E0
1.956975944E0,5.650052547E0,-1.056760216E1,3.193820000E0
1.959371725E0,5.707480431E0,-1.062742233E1,3.071486950E0
1.961767558E0,5.892026424E0,-1.068485069E1,2.913560629E0
1.964162558E0,6.097809315E0,-1.073988533E1,2.734098911E0
1.966557558E0,6.234200478E0,-1.075663471E1,2.516052961E0
1.968953392E0,6.258128643E0,-1.068485069E1,2.264806747E0
1.971349225E0,5.963811398E0,-1.062263680E1,2.032702923E0
1.973744173E0,5.585446358E0,-1.051017475E1,1.886441588E0
1.976139173E0,5.097011566E0,-1.013659477E1,1.860120535E0
1.978535006E0,4.565505505E0,-9.602696419E0,1.840977907E0
1.980930840E0,4.072285175E0,-8.992227554E0,1.783550143E0
1.983325840E0,3.746861219E0,-8.676075935E0,1.606481314E0
1.985720840E0,3.978965044E0,-8.937192917E0,1.177866936E0
1.988116621E0,4.812265396E0,-9.087940216E0,8.644071817E-1
1.990512454E0,4.910371304E0,-9.327521324E0,5.721837282E-1
1.992907454E0,4.522434711E0,-9.614660263E0,3.448655605E-1
1.995302454E0,3.962215185E0,-9.808479309E0,2.081755698E-1
1.997698287E0,3.967000723E0,-9.700801849E0,3.113660514E-1
2.000094069E0,4.371686935E0,-9.619445801E0,5.482555032E-1
2.002489069E0,4.438685894E0,-9.684052467E0,6.750751138E-1
2.004884069E0,4.457828522E0,-9.794121742E0,7.348956466E-1
2.007279902E0,4.453042984E0,-9.873384476E0,8.644071817E-1
2.009675735E0,4.347758770E0,-9.758230209E0,1.103689432E0
2.012070683E0,4.290330887E0,-9.897313118E0,1.156331539E0
2.014465683E0,4.225724697E0,-1.000738239E1,1.163509965E0
2.016861517E0,4.022035599E0,-1.009352398E1,1.163509965E0
2.019257350E0,3.751646757E0,-1.007916737E1,1.070189953E0
2.021652350E0,3.363710403E0,-9.801301003E0,1.311864972E0
2.024047350E0,2.729313374E0,-9.734301567E0,1.350150228E0
2.026443183E0,2.149951220E0,-9.710372925E0,1.165902853E0
2.028838965E0,1.989632010E0,-9.669695854E0,1.022333503E0
2.031233965E0,1.843370795E0,-9.655338287E0,9.888339639E-1
2.033628965E0,1.771586061E0,-9.581160545E0,1.015154958E0
2.036024798E0,1.742872238E0,-9.595518112E0,1.067797065E0
2.038420631E0,1.721336842E0,-9.655338287E0,1.082154036E0
2.040815579E0,1.647159338E0,-9.650552750E0,1.120439172E0
2.043210579E0,1.580160260E0,-9.719944954E0,1.055832982E0
2.045606412E0,1.484447360E0,-9.767801285E0,1.053440213E0
2.048002246E0,1.350150228E0,-9.808479309E0,1.043868899E0
2.050397246E0,1.197009563E0,-9.847063065E0,1.089332461E0
2.052792246E0,9.529415965E-1,-9.933204651E0,9.361918569E-1
2.055188079E0,6.750751138E-1,-1.003848934E1,9.768698215E-1
2.057583860E0,4.860421121E-1,-1.017009449E1,1.082154036E0
2.059978860E0,3.329014480E-1,-1.032084274E1,1.079761267E0
2.062373860E0,2.392822653E-1,-1.040967560E1,1.244866014E0
2.064769694E0,1.363908947E-1,-1.054845905E1,1.268794179E0
2.067165527E0,1.579262912E-1,-1.059870911E1,1.285543919E0
2.069560475E0,1.914258152E-1,-1.067767239E1,1.122832060E0
2.071955475E0,2.153540403E-1,-1.059153080E1,1.144367456E0
2.074351308E0,3.065803945E-1,-1.045035362E1,1.235294700E0
2.076747142E0,4.429712892E-1,-1.042403316E1,1.192223907E0
2.079142142E0,5.961119533E-1,-1.035194874E1,1.211366415E0
2.081537142E0,7.779664397E-1,-1.026819992E1,1.256830096E0
2.083932975E0,1.043868899E0,-1.021316528E1,1.364507079E0
2.086328756E0,1.415055513E0,-1.012702370E1,1.527518153E0
2.088723756E0,1.706979871E0,-1.001934624E1,1.824228168E0
2.091118756E0,2.047059774E0,-9.961918831E0,1.936690807E0
2.093514590E0,2.528316259E0,-9.861420631E0,2.087737799E0
2.095910423E0,2.949453115E0,-9.801301003E0,2.020738840E0
2.098305371E0,3.356531858E0,-9.648159981E0,2.006381750E0
2.100700371E0,3.782753468E0,-9.595518112E0,1.903191328E0
2.103096204E0,4.252045631E0,-9.640981674E0,1.778764486E0
2.105492037E0,4.555934429E0,-9.523733139E0,1.884048700E0
2.107887037E0,5.501697540E0,-9.217152596E0,1.747657895E0
2.110282037E0,6.126523495E0,-9.037691116E0,1.812264085E0
2.112677871E0,6.480959892E0,-9.068798065E0,1.891227245E0
2.115073652E0,6.660421848E0,-9.181260109E0,1.931905150E0
2.117468652E0,6.607779503E0,-9.253045082E0,2.015953064E0
2.119863652E0,6.270092487E0,-9.337093353E0,2.061416626E0
2.122259485E0,5.623731613E0,-9.277272224E0,2.116451740E0
2.124655319E0,4.886443138E0,-9.190832138E0,2.116451740E0
2.127050267E0,4.132105827E0,-9.056833267E0,2.049452543E0
2.129445267E0,3.600599766E0,-8.975478172E0,1.965703845E0
2.131841100E0,3.248854876E0,-8.953942299E0,1.939083695E0
2.134236933E0,3.105285645E0,-8.999405861E0,1.862513304E0
2.136631933E0,3.270390272E0,-8.927620888E0,1.783550143E0
2.139026933E0,3.454637766E0,-8.910871506E0,1.690230131E0
2.141422767E0,3.547957659E0,-8.827122688E0,1.728515267E0
2.143818548E0,3.622135162E0,-8.743373871E0,1.668694735E0
2.146213548E0,3.626920938E0,-8.625826836E0,1.572981834E0
2.148608548E0,3.571886063E0,-8.467900276E0,1.503589988E0
2.151004381E0,3.473780155E0,-8.353044510E0,1.443769336E0
2.153400215E0,3.423531055E0,-8.211868286E0,1.374078393E0
2.155795162E0,3.399602890E0,-8.053643227E0,1.287936807E0
2.158190162E0,3.318246841E0,-7.924430370E0,1.283151150E0
2.160585996E0,3.263211966E0,-7.747361660E0,1.261615753E0
2.162981829E0,3.167499065E0,-7.517351627E0,1.204187989E0
2.165376829E0,3.066701412E0,-7.368996620E0,1.108475089E0
2.167771829E0,2.932703257E0,-7.223034382E0,1.017547846E0
2.170167662E0,2.758027315E0,-7.072286606E0,8.620143533E-1
2.172563444E0,2.585743904E0,-6.916453838E0,7.325028181E-1
2.174958444E0,2.480160713E0,-6.811169624E0,6.702894568E-1
2.177353444E0,2.300698996E0,-6.756134510E0,5.817549825E-1
2.179749277E0,2.130808592E0,-6.744170666E0,5.003990531E-1
2.182145110E0,1.984846354E0,-6.763313293E0,4.549354017E-1
2.184540110E0,1.934298038E0,-6.693921566E0,6.008976102E-1
2.186935110E0,1.802692771E0,-6.710670948E0,5.889334679E-1
2.189330892E0,1.687837243E0,-6.703492641E0,5.123631358E-1
2.191726725E0,1.575374603E0,-6.665207386E0,4.190430641E-1
2.194121725E0,1.472483277E0,-6.605386734E0,3.089732230E-1
2.196516725E0,1.371685624E0,-6.519245148E0,2.344966233E-1
2.198912558E0,1.316650629E0,-6.490531445E0,2.751746178E-1
2.201308392E0,1.285543919E0,-6.490531445E0,3.257229924E-1
2.203703340E0,1.359721422E0,-6.502495766E0,4.812564552E-1
2.206098340E0,1.354935765E0,-6.495316982E0,4.884349108E-1
2.208494173E0,1.354935765E0,-6.538387775E0,5.865406394E-1
2.210890006E0,1.393221021E0,-6.571887493E0,6.056832075E-1
2.213285006E0,1.453340650E0,-6.581458569E0,6.224330068E-1
2.215680006E0,1.467697620E0,-6.626922131E0,5.267201066E-1
2.218075840E0,1.407876968E0,-6.753741741E0,6.439684033E-1
2.220471621E0,1.438983679E0,-6.878168583E0,7.301099896E-1
2.222866621E0,1.467697620E0,-7.043572426E0,7.707880139E-1
2.225261621E0,1.534696579E0,-7.203891754E0,6.750751138E-1
2.227657454E0,1.577767372E0,-7.306783199E0,7.444669604E-1
2.230053287E0,1.575374603E0,-7.416852951E0,9.122636318E-1
2.232448287E0,1.625623941E0,-7.493422985E0,9.026923180E-1
2.234843287E0,1.754836321E0,-7.601399422E0,9.098708034E-1
2.237239069E0,1.958226204E0,-7.742575645E0,1.027119160E0
2.239634902E0,2.106880426E0,-7.766504288E0,1.173081279E0
2.242029902E0,2.216950178E0,-7.742575645E0,1.206580877E0
2.244424902E0,2.233700037E0,-7.697112083E0,1.290329576E0
2.246820735E0,2.236092806E0,-7.606184959E0,1.376471281E0
2.249216569E0,2.315055847E0,-7.519744396E0,1.472483277E0
2.251611517E0,2.315055847E0,-7.541279793E0,1.606481314E0
2.254006517E0,2.319841623E0,-7.526922703E0,1.565803289E0
2.256402350E0,2.370090723E0,-7.519744396E0,1.470090389E0
2.258798183E0,2.288734913E0,-7.495816231E0,1.275972724E0
2.261193183E0,2.250449657E0,-7.457530975E0,1.240080357E0
2.263588183E0,2.228914261E0,-7.452745438E0,1.182652593E0
2.265984017E0,2.133201361E0,-7.428816795E0,1.053440213E0
2.268379798E0,2.094916344E0,-7.414460182E0,9.672985673E-1
2.270774798E0,2.018345833E0,-7.361817837E0,9.050851464E-1
2.273169798E0,1.704586983E0,-7.246962547E0,9.170492887E-1
2.275565631E0,1.165902853E0,-6.930810928E0,8.979067206E-1
2.277961465E0,4.429712892E-1,-6.473781586E0,7.085745931E-1
2.280356465E0,-3.233301640E-1,-5.992525101E0,3.161516786E-1
2.282751465E0,-6.463612318E-1,-5.697908878E0,1.698904037E-1
2.285147246E0,-7.468597889E-1,-5.535196781E0,2.560320199E-1
2.287543079E0,-6.607181430E-1,-5.513661385E0,3.831507266E-1
2.289938079E0,-4.645066857E-1,-5.559125423E0,6.032904387E-1
2.292333079E0,-1.770688742E-1,-5.568696499E0,1.043868899E0
2.294728912E0,1.244267747E-1,-5.609374523E0,1.482054472E0
2.297124746E0,2.799602449E-1,-5.690730572E0,1.699801445E0
2.299519694E0,2.994019389E-1,-5.987739563E0,1.996810555E0
2.301914694E0,1.124626622E-1,-6.416054726E0,2.334198475E0
2.304310527E0,1.842473447E-1,-6.789634228E0,2.394019127E0
2.306706360E0,3.999004960E-1,-7.079464912E0,2.240878344E0
2.309101360E0,4.932205677E-1,-7.361817837E0,2.269592285E0
2.311496360E0,7.037889361E-1,-7.661220074E0,2.164308071E0
2.313892194E0,8.090731502E-1,-7.910073280E0,1.987239242E0
2.316287975E0,9.194421172E-1,-8.106285095E0,1.606481314E0
2.318682975E0,9.481559992E-1,-8.357830048E0,1.515554070E0
2.321077975E0,1.058225870E0,-8.621041298E0,1.328614831E0
2.323473808E0,1.374078393E0,-8.913264275E0,1.158724308E0
2.325869642E0,1.785943031E0,-9.195617676E0,1.110867858E0
2.328264642E0,2.154736757E0,-9.298808098E0,8.258228898E-1
2.330659642E0,2.370090723E0,-9.387342453E0,6.320042610E-1
2.333055475E0,2.391626120E0,-9.480662346E0,8.066803217E-1
2.335451256E0,2.269592285E0,-9.602696419E0,1.074975610E0
2.337846256E0,2.152343988E0,-9.774979591E0,1.520339727E0
2.340241256E0,2.068595171E0,-9.854242325E0,2.015953064E0
2.342637090E0,1.855334878E0,-9.880562782E0,2.676671267E0
2.345032923E0,1.594517231E0,-1.009113121E1,3.375674486E0
2.347427923E0,1.398006678E0,-1.044078255E1,3.730111361E0
2.349822923E0,1.264008522E0,-1.068245792E1,3.799503326E0
2.352218704E0,1.089332461E0,-1.089063358E1,3.940679789E0
2.354614537E0,1.065404296E0,-1.104885864E1,4.175176620E0
2.357009537E0,1.213759303E0,-1.113021469E1,4.153641224E0
2.359404537E0,1.345364571E0,-1.103928757E1,3.737289906E0
2.361800371E0,1.127617717E0,-1.093131161E1,3.143570662E0
2.364196204E0,7.588238716E-1,-1.091216850E1,2.477767944E0
2.366591152E0,5.410770178E-1,-1.102732277E1,1.989632010E0
2.368986152E0,4.908277392E-1,-1.113500023E1,1.730908036E0
2.371381985E0,5.434698462E-1,-1.115892887E1,1.551446438E0
2.373777819E0,5.291129351E-1,-1.130489063E1,1.412662625E0
2.376172819E0,5.075774789E-1,-1.147717381E1,1.527518153E0
2.378567819E0,5.745765567E-1,-1.143171024E1,1.563410521E0
2.380963652E0,7.037889361E-1,-1.132164001E1,1.364507079E0
2.383359485E0,8.401798606E-1,-1.146520996E1,1.309472203E0
2.385754433E0,1.027119160E0,-1.153490067E1,1.297508121E0
2.388149433E0,1.156331539E0,-1.161386395E1,1.314257860E0
2.390545267E0,1.120439172E0,-1.172871971E1,1.405484200E0
2.392941100E0,1.106082320E0,-1.185075283E1,1.513161182E0
2.395336100E0,9.888339639E-1,-1.203978634E1,1.529910922E0
2.397731100E0,1.055832982E0,-1.221715450E1,1.730908036E0
2.400126933E0,1.173081279E0,-1.235115242E1,1.884048700E0
2.402522715E0,1.254437327E0,-1.245643616E1,1.982453585E0
2.404917715E0,1.252044439E0,-1.269123173E1,1.992024899E0
2.407312715E0,1.163509965E0,-1.301426315E1,2.035095692E0
2.409708548E0,1.072582722E0,-1.341177082E1,1.931905150E0
2.412104381E0,9.672985673E-1,-1.386192036E1,1.730908036E0
2.414499381E0,9.433703423E-1,-1.426870060E1,1.415055513E0
2.416894381E0,9.122636318E-1,-1.446999645E1,1.024726272E0
2.419290215E0,8.596215248E-1,-1.450110340E1,5.578267574E-1
2.421685996E0,8.452646136E-1,-1.450349617E1,1.627119333E-1
2.424080996E0,9.433703423E-1,-1.453699589E1,-1.196411327E-1
2.426475996E0,1.043868899E0,-1.447238922E1,-2.560320199E-1
2.428871829E0,1.168295622E0,-1.438146210E1,-3.496512175E-1
2.431267662E0,1.292722464E0,-1.435753441E1,-4.286143482E-1
2.433662662E0,1.443769336E0,-1.438624763E1,-3.352942765E-1
2.436057662E0,1.599302888E0,-1.440539074E1,-8.614161611E-2
2.438453496E0,1.671087503E0,-1.440539074E1,2.321037948E-1
2.440849277E0,1.745265007E0,-1.446042538E1,5.243272781E-1
2.443244277E0,1.709372640E0,-1.448913956E1,8.377870321E-1
2.445639277E0,1.666301847E0,-1.452742481E1,1.130010486E0
2.448035110E0,1.601695657E0,-1.456571007E1,1.354935765E0
2.450430944E0,1.513161182E0,-1.461356640E1,1.558624864E0
2.452825944E0,1.436590910E0,-1.462074471E1,1.826620936E0
2.455220944E0,1.331007600E0,-1.458485222E1,1.977667928E0
2.457616777E0,1.256830096E0,-1.457528114E1,2.097309113E0
2.460012558E0,1.158724308E0,-1.452503204E1,2.140379906E0
2.462407558E0,1.034297585E0,-1.444367599E1,2.183450699E0
2.464802558E0,9.002995491E-1,-1.431924915E1,2.228914261E0
2.467198392E0,7.827520967E-1,-1.419930840E1,2.193022013E0
2.469594225E0,6.655037999E-1,-1.407727432E1,2.104487419E0
2.471989225E0,6.080760360E-1,-1.400309753E1,2.075773716E0
2.474384225E0,5.650052428E-1,-1.390259838E1,2.032702923E0
2.476780058E0,5.697908998E-1,-1.382363510E1,1.943869352E0
2.479175840E0,5.985047817E-1,-1.375185108E1,1.898405671E0
2.481570840E0,5.554339290E-1,-1.359601784E1,1.838585138E0
2.483965840E0,2.009970993E-1,-1.292094326E1,1.826620936E0
2.486361673E0,-2.560320199E-1,-1.194407368E1,1.764407635E0
2.488757506E0,-4.573282301E-1,-1.103689480E1,1.661516190E0
2.491152506E0,-1.316052526E-1,-1.028255749E1,1.551446438E0
2.493547506E0,3.879363835E-1,-9.753444672E0,1.510768414E0
2.495943340E0,8.548358679E-1,-9.349057198E0,1.520339727E0
2.498339121E0,1.132403374E0,-9.071190834E0,1.532303810E0
2.500734121E0,1.333400369E0,-8.829515457E0,1.568196177E0
2.503129121E0,1.479661703E0,-8.733802795E0,1.599302888E0
2.505524954E0,1.687837243E0,-8.824729919E0,1.680658817E0
2.507920787E0,1.757229090E0,-8.920442581E0,1.683051586E0
2.510315787E0,1.939083695E0,-8.932407379E0,1.735693693E0
2.512710787E0,2.710170746E0,-8.772088051E0,1.927119493E0
2.515106621E0,2.731706142E0,-8.800801277E0,1.814656854E0
2.517502402E0,2.420340061E0,-8.724231720E0,1.788335800E0
2.519897402E0,2.099701881E0,-8.589934349E0,1.730908036E0
2.522292402E0,1.963011861E0,-8.515756607E0,1.644766450E0
2.524688235E0,1.879263043E0,-8.489435196E0,1.546660781E0
2.527084069E0,1.845763564E0,-8.542078018E0,1.472483277E0
2.529479069E0,1.783550143E0,-8.601898193E0,1.376471281E0
2.531874069E0,1.709372640E0,-8.678468704E0,1.278365493E0
2.534269902E0,1.666301847E0,-8.793622971E0,1.199402332E0
2.536665683E0,1.623231053E0,-8.903693199E0,1.139581800E0
2.539060683E0,1.541875124E0,-9.013762474E0,1.096511006E0
2.541455683E0,1.496411443E0,-9.157332420E0,1.106082320E0
2.543851517E0,1.431805253E0,-9.305986404E0,1.137188911E0
2.546247350E0,1.376471281E0,-9.449555397E0,1.151545882E0
2.548642350E0,1.333400369E0,-9.638588905E0,1.180259824E0
2.551037350E0,1.235294700E0,-9.803693771E0,1.216152072E0
2.553433183E0,1.208973646E0,-9.983454704E0,1.321436286E0
2.555828965E0,1.168295622E0,-1.021795082E1,1.402792215E0
2.558223965E0,1.115653515E0,-1.052692413E1,1.398006678E0
2.560618965E0,1.220937729E0,-1.077099228E1,1.517946839E0
2.563014798E0,1.522732496E0,-1.087388325E1,1.773978829E0
2.565410631E0,1.762014747E0,-1.080927753E1,1.989632010E0
2.567805631E0,1.790728688E0,-1.061067295E1,2.104487419E0
2.570200631E0,1.680658817E0,-1.034716320E1,2.114058733E0
2.572596465E0,1.525125384E0,-1.008634567E1,2.032702923E0
2.574992246E0,1.400399446E0,-9.902098656E0,1.910369754E0
2.577387246E0,1.254437327E0,-9.782157898E0,1.807478428E0
2.579782246E0,1.153938770E0,-9.703194618E0,1.702194214E0
2.582178079E0,1.043868899E0,-9.676874161E0,1.663909078E0
2.584573912E0,9.840483069E-1,-9.648159981E0,1.608874083E0
2.586968912E0,9.888339639E-1,-9.686445236E0,1.592124343E0
2.589363912E0,1.034297585E0,-9.748658180E0,1.606481314E0
2.591759746E0,1.103689432E0,-9.837491989E0,1.671087503E0
2.594155579E0,1.096511006E0,-9.897313118E0,1.704586983E0
2.596550527E0,1.048654556E0,-1.000259686E1,1.639980793E0
2.598945527E0,9.672985673E-1,-1.006002426E1,1.596910000E0
2.601341360E0,9.625129104E-1,-1.004327488E1,1.635195136E0
2.603737194E0,9.936196208E-1,-9.983454704E0,1.668694735E0
2.606132194E0,1.060618639E0,-9.923633575E0,1.754836321E0
2.608527194E0,1.163509965E0,-9.918848038E0,1.821835399E0
2.610923027E0,1.242473125E0,-9.870991707E0,1.855334878E0
2.613318860E0,1.290329576E0,-9.835099220E0,1.907976985E0
2.615713808E0,1.453340650E0,-9.774979591E0,1.874477386E0
2.618108808E0,1.683051586E0,-9.633803368E0,1.773978829E0
2.620504642E0,3.150749207E0,-9.363413811E0,2.051845312E0
2.622900475E0,2.829811811E0,-9.071190834E0,2.183450699E0
2.625295475E0,2.535494804E0,-8.798408508E0,2.123630047E0
2.627690475E0,2.281556368E0,-8.573184013E0,2.015953064E0
2.630086308E0,2.202593327E0,-8.484649658E0,1.905584097E0
2.632482142E0,2.130808592E0,-8.532505989E0,1.651944876E0
2.634877090E0,1.917548299E0,-8.649754524E0,1.350150228E0
2.637272090E0,1.752443433E0,-8.702695847E0,1.156331539E0
2.639667923E0,1.596910000E0,-8.633005142E0,1.089332461E0
2.642063756E0,1.448554993E0,-8.573184013E0,1.051047325E0
2.644458756E0,1.390828133E0,-8.484649658E0,1.067797065E0
2.646853756E0,1.465304732E0,-8.446364403E0,1.094118118E0
2.649249590E0,1.551446438E0,-8.448758125E0,1.132403374E0
2.651645423E0,1.620838284E0,-8.448758125E0,1.223330617E0
2.654040423E0,1.752443433E0,-8.501399994E0,1.381256819E0
2.656435423E0,1.855334878E0,-8.510971069E0,1.520339727E0
2.658831204E0,1.907976985E0,-8.460721970E0,1.673480392E0
2.661227037E0,1.958226204E0,-8.417651176E0,1.795514345E0
2.663622037E0,1.972882271E0,-8.357830048E0,1.886441588E0
2.666017037E0,2.032702923E0,-8.242975235E0,1.943869352E0
2.668412871E0,2.695813894E0,-8.824729919E0,2.073380709E0
2.670808704E0,2.805883646E0,-8.898907661E0,2.073380709E0
2.673203704E0,2.645564556E0,-8.738588333E0,2.056631088E0
2.675598704E0,2.508874655E0,-8.441578865E0,2.061416626E0
2.677994537E0,2.377269268E0,-8.127820015E0,2.044667006E0
2.680390319E0,2.331805706E0,-7.833503246E0,2.027917147E0
2.682785319E0,2.255235434E0,-7.599006653E0,1.946262121E0
2.685180319E0,2.219342947E0,-7.392924786E0,1.831406593E0
2.687576152E0,2.226521492E0,-7.182356358E0,1.704586983E0
2.689971985E0,2.252842426E0,-7.024429798E0,1.582553029E0
2.692366985E0,2.274377823E0,-6.894918442E0,1.448554993E0
2.694761985E0,2.312663078E0,-6.803991318E0,1.321436286E0
2.697157819E0,2.391626120E0,-6.803991318E0,1.259222865E0
2.699553600E0,2.525923491E0,-6.949953556E0,1.185045362E0
2.701948600E0,2.607279301E0,-7.203891754E0,1.115653515E0
2.704343600E0,2.836990356E0,-7.759325504E0,9.242277741E-1
2.706739433E0,2.978166819E0,-8.219046593E0,8.210372925E-1
2.709135267E0,3.066701412E0,-8.606683731E0,6.296114326E-1
2.711530267E0,3.122035265E0,-8.980263710E0,4.788636267E-1
2.713925267E0,3.076272726E0,-9.229117393E0,2.512463629E-1
2.716321100E0,2.956631422E0,-9.294022560E0,1.076770201E-1
2.718716881E0,2.884846687E0,-9.248259544E0,4.785645381E-2
2.721111881E0,3.076272726E0,-9.372985840E0,-1.316052526E-1
2.723506881E0,3.248854876E0,-9.605089188E0,-2.392822644E-3
2.725902715E0,3.445066452E0,-9.847063065E0,1.148554832E-1
2.728298548E0,3.579064369E0,-9.942776680E0,4.022932947E-1
2.730693548E0,3.660719633E0,-1.001695347E1,5.075774789E-1
2.733088548E0,3.792324781E0,-1.010788059E1,6.846463680E-1
2.735484381E0,3.856930971E0,-1.023230743E1,7.923234105E-1
2.737880215E0,3.955036640E0,-1.042403316E1,1.003190875E0
2.740275162E0,4.024428368E0,-1.055803108E1,1.194616675E0
2.742670162E0,3.990929127E0,-1.060588741E1,1.412662625E0
2.745065996E0,4.100998878E0,-1.062263680E1,1.580160260E0
2.747461829E0,4.074677944E0,-1.050778198E1,1.718943954E0
2.749856829E0,3.890430450E0,-1.051974583E1,1.651944876E0
2.752251829E0,3.754039526E0,-1.038574791E1,1.702194214E0
2.754647662E0,3.531208038E0,-1.022273636E1,1.656730533E0
2.757043496E0,3.459423304E0,-1.009352398E1,1.575374603E0
2.759438496E0,3.332603693E0,-9.847063065E0,1.443769336E0
2.761833496E0,3.105285645E0,-9.308379173E0,1.041476011E0
2.764229277E0,3.083451033E0,-8.312366486E0,6.726822853E-1
2.766625110E0,3.035594702E0,-7.246962547E0,5.075774789E-1
2.769020110E0,3.026023388E0,-6.262914181E0,3.520440459E-1
2.771415110E0,3.122035265E0,-5.202295303E0,3.233301640E-1
2.773810944E0,3.088535786E0,-3.995714664E0,3.903291821E-1
2.776206777E0,3.064308405E0,-3.014059305E0,4.884349108E-1
2.778601777E0,3.047558784E0,-2.305484533E0,5.745765567E-1
2.780996777E0,2.932703257E0,-1.884048700E0,9.984052777E-1
2.783392558E0,2.927917719E0,-1.714158297E0,1.549053550E0
2.785788392E0,2.748456001E0,-1.764407635E0,2.078166485E0
2.788183392E0,2.197807550E0,-1.733300924E0,2.408375978E0
2.790578392E0,2.209771633E0,-2.226521492E0,2.779562712E0
2.792974225E0,3.473780155E0,-4.225724697E0,3.641277790E0
2.795370058E0,4.433900356E0,-6.519245148E0,4.412364960E0
2.797765058E0,4.699503899E0,-8.506185532E0,4.931906700E0
2.800160058E0,4.431507587E0,-9.988240242E0,5.161617756E0
2.802555892E0,3.990929127E0,-1.113260746E1,5.140082359E0
2.804951673E0,3.351746321E0,-1.195125198E1,4.764110088E0
2.807346673E0,2.159522533E0,-1.275583839E1,4.093820572E0
2.809741673E0,1.000798106E0,-1.351466274E1,3.160320520E0
2.812137506E0,2.344966233E-1,-1.408923912E1,2.190629244E0
2.814533340E0,-2.922234535E-1,-1.456331635E1,1.309472203E0
2.816928340E0,-7.109674215E-1,-1.474995708E1,6.894320250E-1
2.819323340E0,-9.601200819E-1,-1.465663719E1,3.975076675E-1
2.821719173E0,-1.125224829E0,-1.447478199E1,1.890329868E-1
2.824115006E0,-1.192223907E0,-1.437189102E1,1.316052526E-1
2.826509954E0,-1.173081279E0,-1.444128323E1,2.057827413E-1
2.828904954E0,-9.912267923E-1,-1.450828171E1,9.571290761E-2
2.831300787E0,-7.899305820E-1,-1.436231995E1,2.392822644E-3
2.833696621E0,-6.391827464E-1,-1.417777348E1,1.292124242E-1
2.836091621E0,-5.913262963E-1,-1.405095387E1,1.196411327E-1
2.838486621E0,-4.908277392E-1,-1.387388515E1,7.657032460E-2
2.840882454E0,-2.512463629E-1,-1.358883953E1,2.392822653E-1
2.843278287E0,1.268195957E-1,-1.331127262E1,5.889334679E-1
2.845673287E0,3.687937856E-1,-1.297119236E1,9.194421172E-1
2.848068287E0,5.386841893E-1,-1.256650639E1,1.156331539E0
2.850464069E0,8.138588071E-1,-1.229133129E1,1.388435364E0
2.852859902E0,1.132403374E0,-1.214536953E1,1.544267893E0
2.855254902E0,1.537089467E0,-1.199432278E1,1.546660781E0
2.857649902E0,1.912762642E0,-1.179332542E1,1.596910000E0
2.860045735E0,1.984846354E0,-1.143888855E1,1.675873160E0
2.862441569E0,2.126022816E0,-1.123549843E1,1.711765528E0
2.864836569E0,2.439482689E0,-1.114935684E1,1.508375525E0
2.867231569E0,2.588136673E0,-1.108475113E1,1.299900889E0
2.869627402E0,2.798705101E0,-1.097228813E1,1.201795220E0
2.872023183E0,2.786741018E0,-1.075902748E1,1.187438250E0
2.874418183E0,3.318246841E0,-1.091695404E1,1.290329576E0
2.876813183E0,3.299104214E0,-1.084995556E1,1.323829174E0
2.879209017E0,2.966202736E0,-1.061785126E1,1.278365493E0
2.881604850E0,2.822633505E0,-1.047188950E1,1.029511929E0
2.883999850E0,3.028416157E0,-1.059870911E1,7.612167001E-1
2.886394850E0,3.061915636E0,-1.065613651E1,6.487540603E-1
2.888790683E0,3.095714331E0,-1.063220787E1,5.554339290E-1
2.891186465E0,3.100499868E0,-1.051017475E1,8.282157183E-1
2.893581465E0,2.868097067E0,-1.052692413E1,7.157530785E-1
2.895976465E0,2.561815739E0,-1.062024403E1,7.085745931E-1
2.898372298E0,2.262413740E0,-1.079731274E1,7.612167001E-1
2.900768131E0,2.080559254E0,-1.112303638E1,8.787640929E-1
2.903163131E0,1.790728688E0,-1.138624668E1,8.330013752E-1
2.905558131E0,1.618445396E0,-1.159711361E1,9.553344250E-1
2.907953965E0,1.608874083E0,-1.178853989E1,1.173081279E0
2.910349746E0,1.546660781E0,-1.187707424E1,1.350150228E0
2.912744746E0,1.434198022E0,-1.188185978E1,1.513161182E0
2.915139746E0,1.474876046E0,-1.194168091E1,1.568196177E0
2.917535579E0,1.386042476E0,-1.188185978E1,1.558624864E0
2.919931412E0,1.381256819E0,-1.183161068E1,1.539482236E0
2.922326412E0,1.434198022E0,-1.167607689E1,1.616052628E0
2.924721412E0,1.537089467E0,-1.162582779E1,1.673480392E0
2.927117246E0,1.556231976E0,-1.142692471E1,1.764407635E0
2.929513079E0,1.699801445E0,-1.124267673E1,1.843370795E0
2.931908079E0,1.817049742E0,-1.120917797E1,1.919941068E0
2.934303079E0,1.805085540E0,-1.110628605E1,1.955833435E0
2.936698860E0,1.891227245E0,-1.086909771E1,2.104487419E0
2.939094694E0,2.047059774E0,-1.057956600E1,2.379662037E0
2.941489694E0,1.970489502E0,-1.031605625E1,2.657528639E0
2.943884694E0,1.910369754E0,-1.002652550E1,2.616850615E0
2.946280527E0,1.872084618E0,-9.755837440E0,2.578565598E0
2.948676360E0,1.872084618E0,-9.459127426E0,2.382055044E0
2.951071360E0,2.068595171E0,-9.233902931E0,2.161915302E0
2.953466360E0,2.085345030E0,-9.025727272E0,2.023131609E0
2.955862194E0,2.126022816E0,-8.872586250E0,1.817049742E0
2.958257975E0,2.152343988E0,-8.793622971E0,1.728515267E0
2.960652975E0,2.250449657E0,-8.858229637E0,1.577767372E0
2.963047975E0,2.295913219E0,-8.992227554E0,1.474876046E0
2.965443808E0,2.441875458E0,-9.164510727E0,1.448554993E0
2.967839642E0,2.595315218E0,-9.317950249E0,1.407876968E0
2.970234642E0,2.832204819E0,-9.418449402E0,1.410269856E0
2.972629642E0,2.947060108E0,-9.463912964E0,1.486840129E0
2.975025475E0,3.131606579E0,-9.432806015E0,1.592124343E0
2.977421256E0,3.270390272E0,-9.404091835E0,1.611266971E0
2.979816256E0,3.303889751E0,-9.384949684E0,1.637588024E0
2.982211256E0,3.299104214E0,-9.349057198E0,1.647159338E0
2.984607090E0,3.382853031E0,-9.159725189E0,1.625623941E0
2.987002923E0,3.629313707E0,-8.664112091E0,1.668694735E0
2.989397923E0,3.677469254E0,-7.740182877E0,1.970489502E0
2.991792923E0,3.339782238E0,-6.978667259E0,2.319841623E0
2.994188756E0,2.925524712E0,-6.483353138E0,2.413161755E0
2.996584537E0,2.561815739E0,-6.270092487E0,2.137987137E0
2.998979537E0,2.013560295E0,-6.200700760E0,1.833799481E0
3.001374537E0,1.489233017E0,-6.222236156E0,1.338186026E0
3.003770371E0,1.189831018E0,-6.329913139E0,9.744769931E-1
3.006166204E0,1.094118118E0,-6.595815659E0,7.564310431E-1
3.008561204E0,1.036690354E0,-6.827919483E0,5.338985324E-1
3.010956204E0,9.672985673E-1,-7.110571384E0,4.214358926E-1
3.013352037E0,1.074975610E0,-7.297211647E0,4.238287210E-1
3.015747871E0,1.177866936E0,-7.467102051E0,5.769693851E-1
3.018142871E0,1.235294700E0,-7.615756035E0,7.516453862E-1
3.020537871E0,1.268794179E0,-7.771289825E0,1.022333503E0
3.022933704E0,1.309472203E0,-7.912466049E0,1.295115232E0
3.025329485E0,1.271187067E0,-8.053643227E0,1.458126307E0
3.027724485E0,1.223330617E0,-8.211868286E0,1.608874083E0
3.030119485E0,1.268794179E0,-8.314759254E0,1.740479350E0
3.032515319E0,1.328614831E0,-8.367402077E0,1.874477386E0
3.034911152E0,1.393221021E0,-8.410472870E0,2.013560295E0
3.037306152E0,1.467697620E0,-8.467900276E0,2.082952023E0
3.039701152E0,1.517946839E0,-8.534899712E0,2.204986095E0
3.042096985E0,1.534696579E0,-8.587541580E0,2.288734913E0
3.044492767E0,1.513161182E0,-8.640183449E0,2.377269268E0
3.046887767E0,1.505982757E0,-8.668897629E0,2.408375978E0
3.049282767E0,1.427019596E0,-8.697610855E0,2.456232548E0
3.051678600E0,1.393221021E0,-8.769695282E0,2.365305185E0
3.054074433E0,1.376471281E0,-8.846264839E0,2.315055847E0
3.056469433E0,1.333400369E0,-8.980263710E0,2.283949137E0
3.058864433E0,1.362114310E0,-9.119047165E0,2.185843468E0
3.061260267E0,1.388435364E0,-9.248259544E0,2.099701881E0
3.063656048E0,1.474876046E0,-9.320343018E0,2.154736757E0
3.066051048E0,1.517946839E0,-9.425627708E0,2.231307030E0
3.068446048E0,1.584945917E0,-9.492626190E0,2.300698996E0
3.070841881E0,1.678265929E0,-9.506983757E0,2.480160713E0
3.073237715E0,1.757229090E0,-9.504590988E0,2.681456804E0
3.075632715E0,1.699801445E0,-9.571589470E0,2.753241539E0
3.078027715E0,1.422233939E0,-9.897313118E0,1.146760225E0
3.080423548E0,1.402792215E0,-1.011027431E1,4.307080805E-2
3.082819381E0,1.592124343E0,-1.016052341E1,2.584248483E-1
3.085214381E0,1.869691849E0,-1.002652550E1,9.529415965E-1
3.087609381E0,2.300698996E0,-9.942776680E0,1.549053550E0
3.090005162E0,2.664707184E0,-9.892526627E0,1.996810555E0
3.092400996E0,2.858525753E0,-9.844670296E0,2.243271112E0
3.094795996E0,2.894418001E0,-9.808479309E0,2.461018085E0
3.097190996E0,2.911167860E0,-9.794121742E0,2.597707987E0
3.099586829E0,2.856132984E0,-9.760622978E0,2.712563515E0
3.101982662E0,2.738884687E0,-9.765408516E0,2.760420084E0
3.104377662E0,2.640778780E0,-9.798908234E0,2.671885490E0
3.106772662E0,2.595315218E0,-9.825528145E0,2.557030201E0
3.109168496E0,2.501696110E0,-9.856635094E0,2.420340061E0
3.111564277E0,2.475374937E0,-9.890133858E0,2.293520451E0
3.113959277E0,2.451446772E0,-9.890133858E0,2.121237278E0
3.116354277E0,2.396411896E0,-9.899705887E0,1.915155411E0
3.118750110E0,2.365305185E0,-9.894919395E0,1.718943954E0
3.121145944E0,2.260020971E0,-9.985847473E0,1.534696579E0
3.123540944E0,2.169093609E0,-1.010309505E1,1.431805253E0
3.125935944E0,2.140379906E0,-1.028016472E1,1.362114310E0
3.128331777E0,2.157129526E0,-1.045513916E1,1.321436286E0
3.130727558E0,2.178664923E0,-1.071356392E1,1.211366415E0
3.133122558E0,2.228914261E0,-1.092173958E1,9.074779749E-1
3.135517558E0,2.288734913E0,-1.108714390E1,5.267201066E-1
3.137913392E0,2.396411896E0,-1.123310566E1,2.057827413E-1
3.140309225E0,2.545065880E0,-1.139342499E1,-3.110669367E-2
3.142704225E0,2.698206663E0,-1.153968620E1,-1.531406492E-1
3.145099225E0,2.860918522E0,-1.166650581E1,-1.531406492E-1
3.147495058E0,3.083451033E0,-1.175264740E1,-2.153540403E-2
3.149890840E0,3.299104214E0,-1.173829079E1,3.424727321E-1
3.152285840E0,3.344567776E0,-1.153011513E1,8.186444640E-1
3.154680892E0,3.205784082E0,-1.111825085E1,1.235294700E0
3.157076673E0,2.970988512E0,-1.064417267E1,1.604088426E0
3.159472506E0,2.772384167E0,-1.026580715E1,1.893620014E0
3.161867506E0,2.612065077E0,-1.003370380E1,2.025524378E0
3.164262506E0,2.501696110E0,-9.899705887E0,2.035095692E0
3.166658340E0,2.386840582E0,-9.820742607E0,1.946262121E0
3.169054173E0,2.264806747E0,-9.791728973E0,1.836192250E0
3.171449121E0,2.149951220E0,-9.758230209E0,1.785943031E0
3.173844121E0,2.039881229E0,-9.719944954E0,1.773978829E0
3.176239954E0,1.948654890E0,-9.684052467E0,1.843370795E0
3.178635787E0,1.876870275E0,-9.607481956E0,1.919941068E0
3.181030787E0,1.814656854E0,-9.559625626E0,2.018345833E0
3.183425787E0,1.776371717E0,-9.514162064E0,2.118844509E0
3.185821621E0,1.764407635E0,-9.435198784E0,2.161915302E0
3.188217454E0,1.711765528E0,-9.380164146E0,2.183450699E0
3.190612454E0,1.687837243E0,-9.294022560E0,2.121237278E0
3.193007454E0,1.613659739E0,-9.236295700E0,2.063809633E0
3.195403235E0,1.601695657E0,-9.159725189E0,1.999203324E0
3.197799069E0,1.582553029E0,-9.099904060E0,1.965703845E0
3.200194069E0,1.594517231E0,-9.047262192E0,1.943869352E0
3.202589069E0,1.608874083E0,-9.030512810E0,1.963011861E0
3.204984902E0,1.635195136E0,-9.006584167E0,2.001596212E0
3.207380735E0,1.695015788E0,-9.004191399E0,2.027917147E0
3.209775735E0,1.673480392E0,-8.985049248E0,2.049452543E0
3.212170735E0,1.668694735E0,-8.934800148E0,2.106880426E0
3.214566569E0,1.604088426E0,-8.903693199E0,2.269592285E0
3.216962350E0,1.505982757E0,-8.882157326E0,2.157129526E0
3.219357350E0,1.616052628E0,-8.949156761E0,2.090130568E0
3.221752350E0,1.759621978E0,-8.939585686E0,2.226521492E0
3.224148183E0,1.704586983E0,-8.882157326E0,2.350948334E0
3.226544017E0,1.797907114E0,-8.965906143E0,2.185843468E0
3.228939017E0,1.879263043E0,-9.099904060E0,2.200200319E0
3.231334017E0,1.587338686E0,-8.635397911E0,2.118844509E0
3.233729850E0,1.244866014E0,-7.622934818E0,1.915155411E0
3.236125631E0,6.702894568E-1,-5.860620975E0,1.884048700E0
3.238520631E0,-7.657032460E-2,-3.354139090E0,1.850549221E0
3.240915631E0,-5.458626747E-1,-1.278365493E0,1.766800404E0
3.243311465E0,-1.698904037E-1,-7.396813035E-1,2.367697954E0
3.245707298E0,3.305086195E-1,-1.115653515E0,2.568994284E0
3.248102298E0,5.769693851E-1,-1.903191328E0,2.915953398E0
3.250497298E0,9.361918569E-1,-2.796312332E0,2.959024191E0
3.252893131E0,1.132403374E0,-3.306282759E0,2.810669184E0
3.255288912E0,1.338186026E0,-4.244867325E0,2.808276415E0
3.257683912E0,1.757229090E0,-5.889334679E0,2.827419043E0
3.260078912E0,2.090130568E0,-7.507780075E0,2.810669184E0
3.262474746E0,2.181057930E0,-8.834300995E0,2.719742060E0
3.264870579E0,2.343769789E0,-1.003131104E1,2.559422970E0
3.267265579E0,2.784348249E0,-1.110150051E1,2.159522533E0
3.269660579E0,3.030808926E0,-1.181964684E1,1.678265929E0
3.272056412E0,3.126821041E0,-1.232483101E1,1.410269856E0
3.274452246E0,3.026023388E0,-1.266730404E1,1.350150228E0
3.276847194E0,3.049951553E0,-1.298554897E1,1.302293777E0
3.279242194E0,3.126821041E0,-1.333041477E1,1.359721422E0
3.281638027E0,3.196212769E0,-1.351226902E1,1.415055513E0
3.284033860E0,3.006880760E0,-1.305972672E1,1.244866014E0
3.286428860E0,2.880061150E0,-1.283958721E1,1.185045362E0
3.288823860E0,2.789133787E0,-1.287069416E1,1.278365493E0
3.291219694E0,2.681456804E0,-1.223629665E1,1.060618639E0
3.293615527E0,2.446661234E0,-1.150349522E1,1.012762189E0
3.296010527E0,2.470589399E0,-1.118046379E1,1.060618639E0
3.298405527E0,2.288734913E0,-1.062742233E1,1.182652593E0
3.300801360E0,2.269592285E0,-1.014616585E1,1.252044439E0
3.303197142E0,2.164308071E0,-9.351449966E0,1.144367456E0
3.305592142E0,2.176272154E0,-9.435198784E0,1.419841170E0
3.307987142E0,2.267199516E0,-9.272486687E0,1.323829174E0
3.310382975E0,2.176272154E0,-8.810373306E0,1.292722464E0
3.312778808E0,2.159522533E0,-8.855836868E0,1.443769336E0
3.315173808E0,2.202593327E0,-9.085547447E0,1.793121457E0
3.317568808E0,2.149951220E0,-8.721838951E0,1.690230131E0
3.319964590E0,2.109273195E0,-8.585148811E0,1.781157374E0
3.322360423E0,2.035095692E0,-8.613862038E0,1.907976985E0
3.324755423E0,2.044667006E0,-8.886942863E0,2.183450699E0
3.327150423E0,2.032702923E0,-9.044869423E0,2.420340061E0
3.329546256E0,2.006381750E0,-9.169296265E0,2.592922449E0
3.331942090E0,2.061416626E0,-9.418449402E0,2.691028118E0
3.334337090E0,2.130808592E0,-9.621838570E0,2.753241539E0
3.336732090E0,2.171486616E0,-9.774979591E0,2.738884687E0
3.339127923E0,2.226521492E0,-9.928419113E0,2.683849812E0
3.341523704E0,2.293520451E0,-1.017727280E1,2.650350094E0
3.343918704E0,2.154736757E0,-1.018923664E1,2.607279301E0
3.346313704E0,2.099701881E0,-1.061785126E1,2.379662037E0
3.348709537E0,2.214557409E0,-1.085474110E1,2.413161755E0
3.351105371E0,2.398804665E0,-1.101775169E1,2.281556368E0
3.353500371E0,2.487339020E0,-1.122592735E1,2.171486616E0
3.355895371E0,2.592922449E0,-1.145803165E1,2.006381750E0
3.358291204E0,2.657528639E0,-1.172632694E1,1.852941990E0
3.360686985E0,2.719742060E0,-1.188185978E1,1.620838284E0
3.363081985E0,2.779562712E0,-1.194168091E1,1.400399446E0
3.365476985E0,2.801098108E0,-1.198235893E1,1.256830096E0
3.367872819E0,2.760420084E0,-1.193689442E1,1.180259824E0
3.370268652E0,2.722134829E0,-1.184836006E1,1.141974568E0
3.372663652E0,2.674278498E0,-1.175743294E1,1.074975610E0
3.375058652E0,2.624029160E0,-1.169521999E1,1.118046403E0
3.377454485E0,2.537887573E0,-1.157557869E1,1.252044439E0
3.379850267E0,2.429911375E0,-1.151815128E1,1.462911963E0
3.382245267E0,2.334198475E0,-1.138624668E1,1.654337764E0
3.384640267E0,2.331805706E0,-1.110867882E1,1.692622900E0
3.387036100E0,2.288734913E0,-1.092173958E1,1.757229090E0
3.389431933E0,2.202593327E0,-1.105603695E1,1.996810555E0
3.391826933E0,2.200200319E0,-1.123071289E1,2.212164640E0
3.394221933E0,2.319841623E0,-1.133121204E1,2.233700037E0
3.396617767E0,2.408375978E0,-1.139342499E1,2.140379906E0
3.399013548E0,2.422732830E0,-1.146042442E1,1.946262121E0
3.401408548E0,2.367697954E0,-1.152772236E1,1.730908036E0
3.403803548E0,2.307877541E0,-1.154686451E1,1.532303810E0
3.406199381E0,2.269592285E0,-1.154447174E1,1.359721422E0
3.408595215E0,2.224128723E0,-1.156122208E1,1.237687469E0
3.410990215E0,2.197807550E0,-1.158754253E1,1.158724308E0
3.413385215E0,2.181057930E0,-1.163779163E1,1.118046403E0
3.415781048E0,2.173879385E0,-1.170479107E1,1.101296663E0
3.418176881E0,2.212164640E0,-1.183161068E1,1.079761267E0
3.420571829E0,2.252842426E0,-1.196082306E1,1.072582722E0
3.422966829E0,2.291127682E0,-1.206879902E1,1.084546804E0
3.425362662E0,2.279163599E0,-1.216211891E1,1.065404296E0
3.427758496E0,2.274377823E0,-1.226979637E1,1.003190875E0
3.430153496E0,2.250449657E0,-1.233679581E1,9.672985673E-1
3.432548496E0,2.183450699E0,-1.232722378E1,9.002995491E-1
3.434944329E0,2.157129526E0,-1.230329609E1,8.955138922E-1
3.437340162E0,2.159522533E0,-1.215254784E1,8.042874932E-1
3.439735162E0,2.137987137E0,-1.199432278E1,8.090731502E-1
3.442130162E0,2.116451740E0,-1.186750317E1,8.787640929E-1
3.444525944E0,2.135594130E0,-1.168564892E1,1.043868899E0
3.446921777E0,2.188236237E0,-1.147478104E1,1.299900889E0
3.449316777E0,2.159522533E0,-1.115653515E1,1.608874083E0
3.451711777E0,2.082952023E0,-1.073031425E1,1.845763564E0
3.454107610E0,2.056631088E0,-1.028973579E1,2.085345030E0
3.456503444E0,2.793919563E0,-9.791728973E0,2.276770830E0
3.458898444E0,2.714956284E0,-9.092725754E0,2.504088879E0
3.461293444E0,2.322234392E0,-8.400900841E0,2.592922449E0
3.463689277E0,1.879263043E0,-7.685148239E0,2.607279301E0
3.466085058E0,1.417448282E0,-7.004988194E0,2.643171787E0
3.468480058E0,1.079761267E0,-6.432804585E0,2.702992201E0
3.470875058E0,8.138588071E-1,-5.963811398E0,2.777169704E0
3.473270892E0,7.085745931E-1,-5.633302689E0,2.892025232E0
3.475666725E0,6.870391965E-1,-5.441876888E0,3.033201694E0
3.478061725E0,7.277171612E-1,-5.358128071E0,3.189034462E0
3.480456725E0,8.258228898E-1,-5.389235020E0,3.296711445E0
3.482852506E0,7.157530785E-1,-5.678766251E0,3.378067255E0
3.485248340E0,1.010369420E0,-5.669195175E0,3.313461065E0
3.487643340E0,1.153938770E0,-5.839085579E0,3.404388428E0
3.490038340E0,1.206580877E0,-6.064310074E0,3.296711445E0
3.492434173E0,1.237687469E0,-6.227021694E0,3.133999348E0
3.494830006E0,1.244866014E0,-6.404090881E0,2.925524712E0
3.497225006E0,1.211366415E0,-6.535995007E0,2.652743101E0
3.499620006E0,1.168295622E0,-6.693921566E0,2.319841623E0
3.502015840E0,1.132403374E0,-6.863811970E0,2.097309113E0
3.504411621E0,1.106082320E0,-7.017251492E0,1.931905150E0
3.506806621E0,1.103689432E0,-7.258926392E0,1.833799481E0
3.509201621E0,1.141974568E0,-7.524529934E0,1.773978829E0
3.511597454E0,1.225723386E0,-7.838288784E0,1.752443433E0
3.513993287E0,1.333400369E0,-8.127820015E0,1.781157374E0
3.516388287E0,1.371685624E0,-8.403293610E0,1.833799481E0
3.518783287E0,1.446162224E0,-8.616254807E0,1.864906192E0
3.521179121E0,1.453340650E0,-8.788837433E0,1.864906192E0
3.523574902E0,1.472483277E0,-8.970691681E0,1.826620936E0
3.525969902E0,1.460519075E0,-9.152546883E0,1.809871197E0
3.528364902E0,1.484447360E0,-9.344271660E0,1.790728688E0
3.530760735E0,1.508375525E0,-9.547661781E0,1.793121457E0
3.533156569E0,1.537089467E0,-9.731908798E0,1.790728688E0
3.535551569E0,1.565803289E0,-9.899705887E0,1.814656854E0
3.537946569E0,1.584945917E0,-1.004327488E1,1.838585138E0
3.540342402E0,1.625623941E0,-1.018684387E1,1.855334878E0
3.542738235E0,1.644766450E0,-1.031366348E1,1.862513304E0
3.545133183E0,1.680658817E0,-1.044796085E1,1.900798440E0
3.547528183E0,1.704586983E0,-1.057956600E1,1.931905150E0
3.549924017E0,1.699801445E0,-1.068245792E1,1.953440547E0
3.552319850E0,1.695015788E0,-1.075424194E1,1.955833435E0
3.554714850E0,1.675873160E0,-1.081884861E1,1.939083695E0
3.557109850E0,1.668694735E0,-1.084995556E1,1.905584097E0
3.559505683E0,1.651944876E0,-1.086431217E1,1.864906192E0
3.561901465E0,1.623231053E0,-1.089541912E1,1.833799481E0
3.564296465E0,1.628016710E0,-1.089541912E1,1.773978829E0
3.566691465E0,1.635195136E0,-1.087866879E1,1.773978829E0
3.569087298E0,1.651944876E0,-1.087149048E1,1.747657895E0
3.571483131E0,1.680658817E0,-1.084756279E1,1.711765528E0
3.573878131E0,1.752443433E0,-1.082363415E1,1.728515267E0
3.576273131E0,1.793121457E0,-1.073270702E1,1.702194214E0
3.578668965E0,1.829013824E0,-1.065852928E1,1.706979871E0
3.581064746E0,1.833799481E0,-1.048146057E1,1.687837243E0
3.583459746E0,1.807478428E0,-1.028255749E1,1.620838284E0
3.585854746E0,1.867298961E0,-1.006720352E1,1.599302888E0
3.588250579E0,1.972882271E0,-9.892526627E0,1.635195136E0
3.590646412E0,2.073380709E0,-9.774979591E0,1.730908036E0
3.593041412E0,2.188236237E0,-9.734301567E0,1.752443433E0
3.595436412E0,2.243271112E0,-9.679266930E0,1.752443433E0
3.597832246E0,2.279163599E0,-9.638588905E0,1.742872238E0
3.600228027E0,2.305484533E0,-9.545269012E0,1.735693693E0
3.602623027E0,2.283949137E0,-9.423234940E0,1.671087503E0
3.605018027E0,2.274377823E0,-9.303593636E0,1.659123421E0
3.607413860E0,2.269592285E0,-9.188439369E0,1.647159338E0
3.609809694E0,2.274377823E0,-9.087940216E0,1.639980793E0
3.612204694E0,2.269592285E0,-8.977870941E0,1.649552107E0
3.614599694E0,2.245664120E0,-8.874979019E0,1.668694735E0
3.616995527E0,2.197807550E0,-8.805587769E0,1.711765528E0
3.619391360E0,2.154736757E0,-8.745766640E0,1.773978829E0
3.621786308E0,2.111665964E0,-8.690432549E0,1.848156333E0
3.624181308E0,2.061416626E0,-8.678468704E0,1.939083695E0
3.626577142E0,2.023131609E0,-8.664112091E0,2.020738840E0
3.628972975E0,1.965703845E0,-8.664112091E0,2.087737799E0
3.631367975E0,1.919941068E0,-8.724231720E0,2.171486616E0
3.633762975E0,1.900798440E0,-8.757730484E0,2.233700037E0
3.636158808E0,1.876870275E0,-8.800801277E0,2.243271112E0
3.638554642E0,1.852941990E0,-8.860622406E0,2.243271112E0
3.640949642E0,1.821835399E0,-8.886942863E0,2.226521492E0
3.643344642E0,1.762014747E0,-8.908478737E0,2.197807550E0
3.645740423E0,1.733300924E0,-8.930013657E0,2.188236237E0
3.648136256E0,1.692622900E0,-8.951549530E0,2.181057930E0
3.650531256E0,1.685444474E0,-8.997013092E0,2.169093609E0
3.652926256E0,1.661516190E0,-9.049654961E0,2.159522533E0
3.655322090E0,1.618445396E0,-9.107083321E0,2.078166485E0
3.657717923E0,1.604088426E0,-9.157332420E0,2.030309916E0
3.660112923E0,1.596910000E0,-9.145368576E0,2.073380709E0
3.662507923E0,1.611266971E0,-9.097511292E0,2.090130568E0
3.664903704E0,1.687837243E0,-9.083154678E0,2.087737799E0
3.667299537E0,1.764407635E0,-9.087940216E0,2.078166485E0
3.669694537E0,1.838585138E0,-9.166903496E0,2.090130568E0
3.672089537E0,1.960619092E0,-9.255437851E0,2.142772675E0
3.674485371E0,1.996810555E0,-9.291629791E0,2.109273195E0
3.676881204E0,2.061416626E0,-9.363413811E0,2.121237278E0
3.679276152E0,2.123630047E0,-9.430413246E0,2.126022816E0
3.681671152E0,2.212164640E0,-9.480662346E0,2.140379906E0
3.684066985E0,2.245664120E0,-9.566803932E0,2.145165443E0
3.686462819E0,2.276770830E0,-9.662516594E0,2.114058733E0
3.688857819E0,2.286342144E0,-9.746265411E0,2.085345030E0
3.691252819E0,2.279163599E0,-9.823135376E0,2.027917147E0
3.693648652E0,2.303091764E0,-9.926026344E0,2.011167526E0
3.696044485E0,2.288734913E0,-1.000977516E1,1.975275040E0
3.698439485E0,2.271985054E0,-1.003131104E1,1.924726725E0
3.700834485E0,2.286342144E0,-1.006720352E1,1.903191328E0
3.703230267E0,2.336591244E0,-1.009352398E1,1.934298038E0
3.705626100E0,2.401197433E0,-1.013180923E1,1.917548299E0
3.708021100E0,2.504088879E0,-1.016291618E1,1.946262121E0
3.710416100E0,2.571387053E0,-1.013420200E1,2.013560295E0
3.712811933E0,2.645564556E0,-1.011745262E1,2.047059774E0
3.715207767E0,2.698206663E0,-1.007438183E1,2.109273195E0
3.717602767E0,2.743670225E0,-1.002173901E1,2.166700840E0
3.719997767E0,2.793919563E0,-9.959526062E0,2.183450699E0
3.722393548E0,2.801098108E0,-9.926026344E0,2.169093609E0
3.724789381E0,2.793919563E0,-9.873384476E0,2.183450699E0
3.727184381E0,2.803490877E0,-9.825528145E0,2.181057930E0
3.729579381E0,2.808276415E0,-9.763015747E0,2.161915302E0
3.731975215E0,2.805883646E0,-9.717552185E0,2.157129526E0
3.734371048E0,2.810669184E0,-9.674481392E0,2.171486616E0
3.736765996E0,2.829811811E0,-9.619445801E0,2.171486616E0
3.739160996E0,2.815454960E0,-9.576375008E0,2.159522533E0
3.741556829E0,2.789133787E0,-9.528518677E0,2.183450699E0
3.743952662E0,2.753241539E0,-9.487840652E0,2.176272154E0
3.746347662E0,2.719742060E0,-9.416056633E0,2.145165443E0
3.748742662E0,2.686242580E0,-9.406484604E0,2.133201361E0
3.751138496E0,2.662314177E0,-9.356235504E0,2.145165443E0
3.753534329E0,2.624029160E0,-9.349057198E0,2.118844509E0
3.755929277E0,2.580958366E0,-9.334700584E0,2.080559254E0
3.758324277E0,2.557030201E0,-9.308379173E0,2.073380709E0
3.760720110E0,2.518445730E0,-9.279664993E0,2.059023857E0
3.763115944E0,2.516052961E0,-9.265308380E0,2.063809633E0
3.765510944E0,2.480160713E0,-9.236295700E0,2.020738840E0
3.767905944E0,2.453839540E0,-9.205188751E0,2.001596212E0
3.770301777E0,2.415554523E0,-9.181260109E0,1.987239242E0
3.772697610E0,2.377269268E0,-9.188439369E0,1.968096614E0
3.775092558E0,2.338984251E0,-9.181260109E0,1.953440547E0
3.777487558E0,2.322234392E0,-9.181260109E0,1.975275040E0
3.779883392E0,2.293520451E0,-9.205188751E0,1.984846354E0
3.782279225E0,2.271985054E0,-9.205188751E0,1.984846354E0
3.784674225E0,2.264806747E0,-9.214759827E0,2.011167526E0
3.787069225E0,2.233700037E0,-9.226723671E0,2.025524378E0
3.789465058E0,2.197807550E0,-9.262915611E0,2.059023857E0
3.791860892E0,2.176272154E0,-9.279664993E0,2.097309113E0
3.794255892E0,2.161915302E0,-9.291629791E0,2.106880426E0
3.796650892E0,2.147558212E0,-9.313164711E0,2.157129526E0
3.799046673E0,2.140379906E0,-9.346664429E0,2.181057930E0
3.801442506E0,2.128415823E0,-9.375378609E0,2.181057930E0
3.803837506E0,2.130808592E0,-9.408877373E0,2.185843468E0
3.806232506E0,2.114058733E0,-9.459127426E0,2.185843468E0
3.808628340E0,1.963011861E0,-9.617053032E0,2.152343988E0
3.811024173E0,2.047059774E0,-9.535696983E0,2.051845312E0
3.813419173E0,2.047059774E0,-9.511769295E0,2.166700840E0
3.815814173E0,2.118844509E0,-9.530911446E0,2.221735716E0
3.818209954E0,2.128415823E0,-9.583553314E0,2.262413740E0
3.820605787E0,2.135594130E0,-9.576375008E0,2.262413740E0
3.823000787E0,2.118844509E0,-9.595518112E0,2.250449657E0
3.825395787E0,2.047059774E0,-9.602696419E0,2.212164640E0
3.827791621E0,2.049452543E0,-9.612267494E0,2.176272154E0
3.830187454E0,2.030309916E0,-9.600303650E0,2.135594130E0
3.832582454E0,2.039881229E0,-9.597910881E0,2.106880426E0
3.834977454E0,2.037488461E0,-9.636196136E0,2.102094650E0
3.837373235E0,2.049452543E0,-9.636196136E0,2.099701881E0
3.839769069E0,2.061416626E0,-9.640981674E0,2.078166485E0
3.842164069E0,2.073380709E0,-9.619445801E0,2.063809633E0
3.844559069E0,2.106880426E0,-9.612267494E0,2.063809633E0
3.846954902E0,2.130808592E0,-9.593125343E0,2.059023857E0
3.849350735E0,2.137987137E0,-9.571589470E0,2.042274237E0
3.851745735E0,2.159522533E0,-9.562018394E0,2.049452543E0
3.854140735E0,2.183450699E0,-9.545269012E0,2.054238319E0
3.856536517E0,2.013560295E0,-9.609874725E0,1.939083695E0
3.858932350E0,2.126022816E0,-9.518947601E0,1.970489502E0
3.861327350E0,2.154736757E0,-9.490233421E0,2.059023857E0
3.863722350E0,2.231307030E0,-9.461520195E0,2.149951220E0
3.866118183E0,2.260020971E0,-9.499805450E0,2.214557409E0
3.868514017E0,2.295913219E0,-9.518947601E0,2.176272154E0
3.870909017E0,2.271985054E0,-9.459127426E0,2.149951220E0
3.873304017E0,2.226521492E0,-9.399306297E0,2.118844509E0
3.875699798E0,2.190629244E0,-9.341878891E0,2.104487419E0
3.878095631E0,2.176272154E0,-9.274879456E0,2.137987137E0
3.880490631E0,2.130808592E0,-9.217152596E0,2.106880426E0
3.882885631E0,2.080559254E0,-9.207581520E0,2.104487419E0
3.885281465E0,2.097309113E0,-9.205188751E0,2.106880426E0
3.887677298E0,2.135594130E0,-9.205188751E0,2.116451740E0
3.890072246E0,2.157129526E0,-9.174081802E0,2.130808592E0
3.892467246E0,2.161915302E0,-9.152546883E0,2.126022816E0
3.894863079E0,2.137987137E0,-9.126225471E0,2.145165443E0
3.897258912E0,2.109273195E0,-9.114261627E0,2.137987137E0
3.899653912E0,1.848156333E0,-9.310771942E0,2.032702923E0
3.902048912E0,2.099701881E0,-9.075976372E0,1.994417667E0
3.904444746E0,2.123630047E0,-9.083154678E0,2.090130568E0
3.906840527E0,2.207378864E0,-9.066405296E0,2.090130568E0
3.909235527E0,2.238485575E0,-9.071190834E0,2.128415823E0
3.911630527E0,2.291127682E0,-9.083154678E0,2.130808592E0
3.914026360E0,2.248056889E0,-9.054440498E0,2.133201361E0
3.916422194E0,2.202593327E0,-9.037691116E0,2.135594130E0
3.918817194E0,2.212164640E0,-9.073583603E0,2.109273195E0
3.921212194E0,2.224128723E0,-9.111868858E0,2.047059774E0
3.923608027E0,2.188236237E0,-9.128618240E0,2.023131609E0
3.926003808E0,2.166700840E0,-9.133403778E0,1.982453585E0
3.928398808E0,2.140379906E0,-9.159725189E0,1.970489502E0
3.930793808E0,2.128415823E0,-9.188439369E0,1.960619092E0
3.933189642E0,2.140379906E0,-9.207581520E0,1.931905150E0
3.935585475E0,2.126022816E0,-9.236295700E0,1.917548299E0
3.937980475E0,2.080559254E0,-9.260522842E0,1.898405671E0
3.940375475E0,2.030309916E0,-9.277272224E0,1.884048700E0
3.942771308E0,1.999203324E0,-9.303593636E0,1.864906192E0
3.945167090E0,1.941476464E0,-9.320343018E0,1.840977907E0
3.947562090E0,1.888834357E0,-9.382556915E0,1.819442511E0
3.949957090E0,1.843370795E0,-9.425627708E0,1.800299883E0
3.952352923E0,1.788335800E0,-9.459127426E0,1.790728688E0
3.954748756E0,1.745265007E0,-9.495018959E0,1.750050664E0
3.957143756E0,1.695015788E0,-9.552447319E0,1.754836321E0
3.959538756E0,1.637588024E0,-9.564411163E0,1.773978829E0
3.961934590E0,1.616052628E0,-9.614660263E0,1.750050664E0
3.964330371E0,1.582553029E0,-9.614660263E0,1.745265007E0
3.966725371E0,1.553839207E0,-9.621838570E0,1.738086581E0
3.969120371E0,1.522732496E0,-9.629017830E0,1.714158297E0
3.971516204E0,1.496411443E0,-9.640981674E0,1.738086581E0
3.973912037E0,1.472483277E0,-9.669695854E0,1.726122379E0
3.976307037E0,1.438983679E0,-9.688838005E0,1.716551185E0
3.978702037E0,1.417448282E0,-9.691230774E0,1.699801445E0
3.981097871E0,1.388435364E0,-9.691230774E0,1.723729610E0
3.983493652E0,1.390828133E0,-9.686445236E0,1.718943954E0
3.985888652E0,1.383649707E0,-9.684052467E0,1.704586983E0
3.988283652E0,1.374078393E0,-9.681659698E0,1.697408557E0
3.990679485E0,1.345364571E0,-9.662516594E0,1.680658817E0
3.993075319E0,1.345364571E0,-9.650552750E0,1.690230131E0
3.995470319E0,1.309472203E0,-9.636196136E0,1.683051586E0
3.997865319E0,1.278365493E0,-9.593125343E0,1.666301847E0
4.000261152E0,1.275972724E0,-9.571589470E0,1.702194214E0
4.002656933E0,1.273579836E0,-9.552447319E0,1.711765528E0
4.005051933E0,1.290329576E0,-9.535696983E0,1.728515267E0
4.007446933E0,1.292722464E0,-9.518947601E0,1.723729610E0
4.009842767E0,1.302293777E0,-9.502198219E0,1.757229090E0
4.012238600E0,1.295115232E0,-9.478269577E0,1.773978829E0
4.014633600E0,1.309472203E0,-9.480662346E0,1.812264085E0
4.017028600E0,1.345364571E0,-9.454340935E0,1.864906192E0
4.019424433E0,1.374078393E0,-9.480662346E0,1.903191328E0
4.021820215E0,1.407876968E0,-9.485447884E0,1.934298038E0
4.024215215E0,1.455733418E0,-9.492626190E0,1.953440547E0
4.026610215E0,1.443769336E0,-9.485447884E0,1.907976985E0
4.029006048E0,1.482054472E0,-9.475876808E0,1.893620014E0
4.031401881E0,1.503589988E0,-9.413662910E0,1.879263043E0
4.033796881E0,1.517946839E0,-9.420842171E0,1.874477386E0
4.036191881E0,1.544267893E0,-9.425627708E0,1.848156333E0
4.038587715E0,1.551446438E0,-9.439984322E0,1.848156333E0
4.040983496E0,1.587338686E0,-9.499805450E0,1.833799481E0
4.043378496E0,1.604088426E0,-9.530911446E0,1.824228168E0
4.045773496E0,1.594517231E0,-9.562018394E0,1.795514345E0
4.048169329E0,1.577767372E0,-9.614660263E0,1.764407635E0
4.050565162E0,1.539482236E0,-9.640981674E0,1.709372640E0
4.052960162E0,1.520339727E0,-9.691230774E0,1.668694735E0
4.055355162E0,1.470090389E0,-9.688838005E0,1.639980793E0
4.057750944E0,1.477268934E0,-9.729516029E0,1.613659739E0
4.060146777E0,1.458126307E0,-9.751050949E0,1.604088426E0
4.062541777E0,1.460519075E0,-9.779765129E0,1.601695657E0
4.064936777E0,1.465304732E0,-9.796515465E0,1.608874083E0
4.067332610E0,1.453340650E0,-9.760622978E0,1.599302888E0
4.069728444E0,1.446162224E0,-9.770194054E0,1.587338686E0
4.072123444E0,1.446162224E0,-9.782157898E0,1.601695657E0
4.074518444E0,1.453340650E0,-9.770194054E0,1.587338686E0
4.076914225E0,1.467697620E0,-9.777372360E0,1.575374603E0
4.079310058E0,1.477268934E0,-9.760622978E0,1.580160260E0
4.081705058E0,1.494018674E0,-9.774979591E0,1.596910000E0
4.084100058E0,1.477268934E0,-9.770194054E0,1.577767372E0
4.086495892E0,1.479661703E0,-9.784550667E0,1.565803289E0
4.088891725E0,1.489233017E0,-9.786943436E0,1.596910000E0
4.091286673E0,1.498804331E0,-9.786943436E0,1.625623941E0
4.093681673E0,1.515554070E0,-9.767801285E0,1.632802367E0
4.096077506E0,1.510768414E0,-9.779765129E0,1.647159338E0
4.098473340E0,1.520339727E0,-9.760622978E0,1.695015788E0
4.100868340E0,1.529910922E0,-9.763015747E0,1.723729610E0
4.103263340E0,1.525125384E0,-9.741479874E0,1.728515267E0
4.105659173E0,1.549053550E0,-9.760622978E0,1.754836321E0
4.108054954E0,1.568196177E0,-9.746265411E0,1.766800404E0
4.110449954E0,1.580160260E0,-9.731908798E0,1.781157374E0
4.112844954E0,1.580160260E0,-9.727123260E0,1.807478428E0
4.115240787E0,1.608874083E0,-9.719944954E0,1.845763564E0
4.117636621E0,1.596910000E0,-9.691230774E0,1.838585138E0
4.120031621E0,1.620838284E0,-9.696016312E0,1.848156333E0
4.122426621E0,1.616052628E0,-9.674481392E0,1.829013824E0
4.124822454E0,1.642373681E0,-9.662516594E0,1.838585138E0
4.127218235E0,1.644766450E0,-9.667302132E0,1.840977907E0
4.129613235E0,1.673480392E0,-9.605089188E0,1.809871197E0
4.132008235E0,1.690230131E0,-9.605089188E0,1.805085540E0
4.134404069E0,1.673480392E0,-9.612267494E0,1.790728688E0
4.136799902E0,1.673480392E0,-9.581160545E0,1.781157374E0
4.139194902E0,1.668694735E0,-9.569196701E0,1.759621978E0
4.141589902E0,1.692622900E0,-9.571589470E0,1.750050664E0
4.143985735E0,1.690230131E0,-9.550054550E0,1.718943954E0
4.146381517E0,1.673480392E0,-9.528518677E0,1.687837243E0
4.148776517E0,1.642373681E0,-9.511769295E0,1.678265929E0
4.151171517E0,1.644766450E0,-9.502198219E0,1.683051586E0
4.153567350E0,1.625623941E0,-9.518947601E0,1.675873160E0
4.155963183E0,1.608874083E0,-9.518947601E0,1.661516190E0
4.158358183E0,1.575374603E0,-9.506983757E0,1.659123421E0
4.160753183E0,1.568196177E0,-9.504590988E0,1.656730533E0
4.163149017E0,1.517946839E0,-9.499805450E0,1.644766450E0
4.165544798E0,1.510768414E0,-9.506983757E0,1.654337764E0
4.167939798E0,1.247258782E0,-9.640981674E0,1.572981834E0
4.170334798E0,1.398006678E0,-9.511769295E0,1.601695657E0
4.172730631E0,1.436590910E0,-9.514162064E0,1.675873160E0
4.175126465E0,1.539482236E0,-9.490233421E0,1.738086581E0
4.177521465E0,1.522732496E0,-9.499805450E0,1.778764486E0
4.179916465E0,1.515554070E0,-9.483055115E0,1.752443433E0
4.182312246E0,1.395613790E0,-9.456734657E0,1.754836321E0
4.184708079E0,1.335793257E0,-9.461520195E0,1.759621978E0
4.187103079E0,1.323829174E0,-9.483055115E0,1.757229090E0
4.189498079E0,1.378864050E0,-9.518947601E0,1.692622900E0
4.191893912E0,1.383649707E0,-9.526125908E0,1.697408557E0
4.194289746E0,1.412662625E0,-9.540482521E0,1.699801445E0
4.196684746E0,1.441376567E0,-9.542876244E0,1.728515267E0
4.199079746E0,1.465304732E0,-9.550054550E0,1.771586061E0
4.201475527E0,1.525125384E0,-9.578767776E0,1.848156333E0
4.203871360E0,1.517946839E0,-9.621838570E0,1.848156333E0
4.206266360E0,1.462911963E0,-9.554840088E0,1.821835399E0
4.208661360E0,1.415055513E0,-9.550054550E0,1.762014747E0
4.211057194E0,1.436590910E0,-9.566803932E0,1.781157374E0
4.213453027E0,1.517946839E0,-9.593125343E0,1.778764486E0
4.215847975E0,1.556231976E0,-9.636196136E0,1.793121457E0
4.218242975E0,1.613659739E0,-9.679266930E0,1.814656854E0
4.220638808E0,1.628016710E0,-9.710372925E0,1.845763564E0
4.223034642E0,1.606481314E0,-9.727123260E0,1.864906192E0
4.225429642E0,1.584945917E0,-9.741479874E0,1.850549221E0
4.227824642E0,1.577767372E0,-9.748658180E0,1.855334878E0
4.230220475E0,1.565803289E0,-9.774979591E0,1.845763564E0
4.232616256E0,1.561017632E0,-9.763015747E0,1.833799481E0
4.235011256E0,1.561017632E0,-9.779765129E0,1.817049742E0
4.237406256E0,1.575374603E0,-9.798908234E0,1.826620936E0
4.239802090E0,1.582553029E0,-9.798908234E0,1.833799481E0
4.242197923E0,1.582553029E0,-9.779765129E0,1.833799481E0
4.244592923E0,1.587338686E0,-9.791728973E0,1.836192250E0
4.246987923E0,1.568196177E0,-9.765408516E0,1.826620936E0
4.249383756E0,1.561017632E0,-9.763015747E0,1.821835399E0
4.251779537E0,1.565803289E0,-9.741479874E0,1.817049742E0
4.254174537E0,1.575374603E0,-9.729516029E0,1.802692771E0
4.256569537E0,1.563410521E0,-9.724730492E0,1.802692771E0
4.258965371E0,1.572981834E0,-9.715159416E0,1.800299883E0
4.261361204E0,1.613659739E0,-9.705587387E0,1.836192250E0
4.263756204E0,1.596910000E0,-9.710372925E0,1.843370795E0
4.266151204E0,1.517946839E0,-9.633803368E0,1.809871197E0
4.268547037E0,1.474876046E0,-9.609874725E0,1.788335800E0
4.270942819E0,1.505982757E0,-9.566803932E0,1.788335800E0
4.273337819E0,1.565803289E0,-9.562018394E0,1.797907114E0
4.275732819E0,1.589731574E0,-9.566803932E0,1.821835399E0
4.278128652E0,1.599302888E0,-9.535696983E0,1.857727647E0
4.280524485E0,1.584945917E0,-9.511769295E0,1.867298961E0
4.282919485E0,1.563410521E0,-9.504590988E0,1.855334878E0
4.285314485E0,1.556231976E0,-9.504590988E0,1.869691849E0
4.287710319E0,1.541875124E0,-9.461520195E0,1.857727647E0
4.290106100E0,1.546660781E0,-9.451948166E0,1.869691849E0
4.292501100E0,1.558624864E0,-9.442377090E0,1.869691849E0
4.294896100E0,1.561017632E0,-9.439984322E0,1.862513304E0
4.297291933E0,1.582553029E0,-9.404091835E0,1.857727647E0
4.299687767E0,1.572981834E0,-9.392127991E0,1.850549221E0
4.302082767E0,1.594517231E0,-9.382556915E0,1.867298961E0
4.304477767E0,1.604088426E0,-9.404091835E0,1.872084618E0
4.306873548E0,1.601695657E0,-9.411270142E0,1.872084618E0
4.309269381E0,1.601695657E0,-9.428020477E0,1.881655931E0
4.311664381E0,1.601695657E0,-9.456734657E0,1.891227245E0
4.314059381E0,1.594517231E0,-9.444769859E0,1.907976985E0
4.316455215E0,1.580160260E0,-9.471091270E0,1.910369754E0
4.318851048E0,1.589731574E0,-9.475876808E0,1.915155411E0
4.321245996E0,1.575374603E0,-9.485447884E0,1.912762642E0
4.323640996E0,1.558624864E0,-9.526125908E0,1.910369754E0
4.326036829E0,1.568196177E0,-9.535696983E0,1.927119493E0
4.328432662E0,1.565803289E0,-9.538089752E0,1.905584097E0
4.330827662E0,1.556231976E0,-9.554840088E0,1.919941068E0
4.333222662E0,1.539482236E0,-9.569196701E0,1.915155411E0
4.335618496E0,1.544267893E0,-9.595518112E0,1.886441588E0
4.338014329E0,1.558624864E0,-9.614660263E0,1.867298961E0
4.340409277E0,1.561017632E0,-9.621838570E0,1.857727647E0
4.342804277E0,1.551446438E0,-9.638588905E0,1.840977907E0
4.345200110E0,1.558624864E0,-9.652945518E0,1.824228168E0
4.347595944E0,1.570588946E0,-9.667302132E0,1.797907114E0
4.349990944E0,1.592124343E0,-9.669695854E0,1.819442511E0
4.352385944E0,1.599302888E0,-9.676874161E0,1.814656854E0
4.354781777E0,1.594517231E0,-9.674481392E0,1.821835399E0
4.357177558E0,1.599302888E0,-9.660123825E0,1.814656854E0
4.359572558E0,1.616052628E0,-9.707980156E0,1.829013824E0
4.361967558E0,1.632802367E0,-9.698409081E0,1.845763564E0
4.364363392E0,1.546660781E0,-9.679266930E0,1.812264085E0
4.366759225E0,1.529910922E0,-9.672088623E0,1.800299883E0
4.369154225E0,1.561017632E0,-9.679266930E0,1.805085540E0
4.371549225E0,1.608874083E0,-9.664909363E0,1.807478428E0
4.373945058E0,1.620838284E0,-9.681659698E0,1.840977907E0
4.376340840E0,1.639980793E0,-9.684052467E0,1.884048700E0
4.378735840E0,1.635195136E0,-9.664909363E0,1.879263043E0
4.381130840E0,1.596910000E0,-9.648159981E0,1.872084618E0
4.383526673E0,1.572981834E0,-9.643374443E0,1.886441588E0
4.385922506E0,1.584945917E0,-9.621838570E0,1.915155411E0
4.388317506E0,1.594517231E0,-9.617053032E0,1.912762642E0
4.390712506E0,1.587338686E0,-9.590732574E0,1.900798440E0
4.393108287E0,1.594517231E0,-9.581160545E0,1.910369754E0
4.395504121E0,1.620838284E0,-9.585947037E0,1.886441588E0
4.397899121E0,1.651944876E0,-9.562018394E0,1.905584097E0
4.400294121E0,1.635195136E0,-9.545269012E0,1.905584097E0
4.402689954E0,1.616052628E0,-9.528518677E0,1.917548299E0
4.405085787E0,1.642373681E0,-9.504590988E0,1.896012783E0
4.407480735E0,1.651944876E0,-9.475876808E0,1.903191328E0
4.409875735E0,1.639980793E0,-9.478269577E0,1.903191328E0
4.412271569E0,1.654337764E0,-9.468698502E0,1.900798440E0
4.414667402E0,1.656730533E0,-9.456734657E0,1.891227245E0
4.417062402E0,1.663909078E0,-9.466305733E0,1.874477386E0
4.419457402E0,1.654337764E0,-9.451948166E0,1.876870275E0
4.421853235E0,1.656730533E0,-9.459127426E0,1.876870275E0
4.424249017E0,1.661516190E0,-9.475876808E0,1.876870275E0
4.426644017E0,1.654337764E0,-9.483055115E0,1.879263043E0
4.429039017E0,1.642373681E0,-9.492626190E0,1.869691849E0
4.431434850E0,1.632802367E0,-9.526125908E0,1.900798440E0
4.433830683E0,1.589731574E0,-9.516554832E0,1.891227245E0
4.436225683E0,1.565803289E0,-9.526125908E0,1.886441588E0
4.438620683E0,1.561017632E0,-9.552447319E0,1.884048700E0
4.441016517E0,1.546660781E0,-9.552447319E0,1.884048700E0
4.443412298E0,1.539482236E0,-9.557232857E0,1.893620014E0
4.445807298E0,1.520339727E0,-9.590732574E0,1.891227245E0
4.448202298E0,1.510768414E0,-9.609874725E0,1.900798440E0
4.450598131E0,1.496411443E0,-9.605089188E0,1.898405671E0
4.452993965E0,1.465304732E0,-9.609874725E0,1.898405671E0
4.455388965E0,1.455733418E0,-9.629017830E0,1.900798440E0
4.457783965E0,1.450947881E0,-9.643374443E0,1.910369754E0
4.460179798E0,1.431805253E0,-9.621838570E0,1.915155411E0
4.462575579E0,1.422233939E0,-9.643374443E0,1.927119493E0
4.464970579E0,1.415055513E0,-9.645767212E0,1.924726725E0
4.467365579E0,1.405484200E0,-9.643374443E0,1.915155411E0
4.469761412E0,1.412662625E0,-9.640981674E0,1.912762642E0
4.472157246E0,1.410269856E0,-9.662516594E0,1.927119493E0
4.474552246E0,1.405484200E0,-9.643374443E0,1.919941068E0
4.476947246E0,1.415055513E0,-9.621838570E0,1.946262121E0
4.479343079E0,1.422233939E0,-9.652945518E0,1.922333837E0
4.481738860E0,1.438983679E0,-9.640981674E0,1.934298038E0
4.484133860E0,1.429412484E0,-9.629017830E0,1.953440547E0
4.486528860E0,1.441376567E0,-9.626625061E0,1.953440547E0
4.488924694E0,1.465304732E0,-9.633803368E0,1.929512382E0
4.491320475E0,1.494018674E0,-9.612267494E0,1.927119493E0
4.493715475E0,1.494018674E0,-9.619445801E0,1.963011861E0
4.496110475E0,1.510768414E0,-9.614660263E0,1.963011861E0
4.498506308E0,1.522732496E0,-9.607481956E0,1.960619092E0
4.500902142E0,1.529910922E0,-9.597910881E0,1.980060697E0
4.503297142E0,1.563410521E0,-9.585947037E0,1.982453585E0
4.505692142E0,1.572981834E0,-9.571589470E0,1.972882271E0
4.508087975E0,1.587338686E0,-9.573982239E0,1.968096614E0
4.510483756E0,1.587338686E0,-9.557232857E0,1.968096614E0
4.512878756E0,1.608874083E0,-9.547661781E0,1.965703845E0
4.515273756E0,1.625623941E0,-9.521340370E0,1.934298038E0
4.517669590E0,1.654337764E0,-9.502198219E0,1.934298038E0
4.520065423E0,1.647159338E0,-9.502198219E0,1.934298038E0
4.522460423E0,1.644766450E0,-9.506983757E0,1.922333837E0
4.524855423E0,1.656730533E0,-9.509376526E0,1.946262121E0
4.527251256E0,1.668694735E0,-9.492626190E0,1.934298038E0
4.529647037E0,1.666301847E0,-9.475876808E0,1.946262121E0
4.532042037E0,1.661516190E0,-9.478269577E0,1.960619092E0
4.534437037E0,1.661516190E0,-9.473484039E0,1.951047778E0
4.536832871E0,1.651944876E0,-9.471091270E0,1.958226204E0
4.539228704E0,1.644766450E0,-9.483055115E0,1.980060697E0
4.541623704E0,1.635195136E0,-9.475876808E0,1.970489502E0
4.544018704E0,1.637588024E0,-9.475876808E0,1.975275040E0
4.546414537E0,1.620838284E0,-9.475876808E0,1.992024899E0
4.548810319E0,1.592124343E0,-9.495018959E0,1.980060697E0
4.551205319E0,1.587338686E0,-9.509376526E0,2.018345833E0
4.553600319E0,1.575374603E0,-9.504590988E0,2.006381750E0
4.555996152E0,1.565803289E0,-9.509376526E0,2.006381750E0
4.558391985E0,1.553839207E0,-9.509376526E0,2.020738840E0
4.560786985E0,1.539482236E0,-9.521340370E0,2.013560295E0
4.563181985E0,1.539482236E0,-9.535696983E0,2.025524378E0
4.565577767E0,1.529910922E0,-9.538089752E0,2.003988981E0
4.567973600E0,1.527518153E0,-9.557232857E0,2.006381750E0
4.570368600E0,1.505982757E0,-9.564411163E0,1.987239242E0
4.572763600E0,1.513161182E0,-9.562018394E0,1.984846354E0
4.575159433E0,1.520339727E0,-9.573982239E0,1.970489502E0
4.577555267E0,1.522732496E0,-9.576375008E0,1.972882271E0
4.579950215E0,1.527518153E0,-9.595518112E0,1.955833435E0
4.582345215E0,1.510768414E0,-9.593125343E0,1.955833435E0
4.584741048E0,1.510768414E0,-9.569196701E0,1.936690807E0
4.587136881E0,1.517946839E0,-9.564411163E0,1.934298038E0
4.589531881E0,1.541875124E0,-9.585947037E0,1.919941068E0
4.591926881E0,1.546660781E0,-9.585947037E0,1.939083695E0
4.594322715E0,1.561017632E0,-9.593125343E0,1.939083695E0
4.596718496E0,1.553839207E0,-9.626625061E0,1.922333837E0
4.599113496E0,1.563410521E0,-9.602696419E0,1.917548299E0
4.601508496E0,1.572981834E0,-9.609874725E0,1.924726725E0
4.603904329E0,1.568196177E0,-9.619445801E0,1.912762642E0
4.606300162E0,1.582553029E0,-9.612267494E0,1.912762642E0
4.608695162E0,1.601695657E0,-9.612267494E0,1.951047778E0
4.611090162E0,1.613659739E0,-9.629017830E0,1.948654890E0
4.613485996E0,1.632802367E0,-9.597910881E0,1.951047778E0
4.615881777E0,1.611266971E0,-9.593125343E0,1.984846354E0
4.618276777E0,1.613659739E0,-9.605089188E0,1.977667928E0
4.620671777E0,1.623231053E0,-9.607481956E0,2.003988981E0
4.623067610E0,1.651944876E0,-9.595518112E0,2.039881229E0
4.625463444E0,1.663909078E0,-9.571589470E0,2.030309916E0
4.627858444E0,1.659123421E0,-9.562018394E0,2.049452543E0
4.630253444E0,1.675873160E0,-9.540482521E0,2.075773716E0
4.632649225E0,1.697408557E0,-9.538089752E0,2.092523336E0
4.635045058E0,1.711765528E0,-9.526125908E0,2.080559254E0
4.637440058E0,1.697408557E0,-9.495018959E0,2.063809633E0
4.639835058E0,1.718943954E0,-9.504590988E0,2.068595171E0
4.642230892E0,1.742872238E0,-9.495018959E0,2.047059774E0
4.644626725E0,1.776371717E0,-9.478269577E0,2.051845312E0
4.647021673E0,1.785943031E0,-9.478269577E0,2.044667006E0
4.649416673E0,1.807478428E0,-9.483055115E0,2.063809633E0
4.651812506E0,1.795514345E0,-9.497411728E0,2.039881229E0
4.654208340E0,1.785943031E0,-9.516554832E0,2.013560295E0
4.656603340E0,1.805085540E0,-9.526125908E0,2.008774519E0
4.658998340E0,1.802692771E0,-9.540482521E0,2.027917147E0
4.661394173E0,1.812264085E0,-9.533304214E0,2.027917147E0
4.663789954E0,1.812264085E0,-9.540482521E0,2.061416626E0
4.666184954E0,1.783550143E0,-9.554840088E0,2.056631088E0
4.668579954E0,1.769193292E0,-9.581160545E0,2.056631088E0
4.670975787E0,1.752443433E0,-9.578767776E0,2.032702923E0
4.673371621E0,1.738086581E0,-9.597910881E0,2.035095692E0
4.675766621E0,1.742872238E0,-9.605089188E0,2.027917147E0
4.678161621E0,1.745265007E0,-9.612267494E0,1.989632010E0
4.680557454E0,1.759621978E0,-9.609874725E0,2.001596212E0
4.682953235E0,1.745265007E0,-9.624231339E0,1.994417667E0
4.685348235E0,1.747657895E0,-9.657731056E0,1.968096614E0
4.687743235E0,1.757229090E0,-9.679266930E0,1.919941068E0
4.690139069E0,1.771586061E0,-9.691230774E0,1.900798440E0
4.692534902E0,1.757229090E0,-9.688838005E0,1.888834357E0
4.694929850E0,1.766800404E0,-9.698409081E0,1.876870275E0
4.697324850E0,1.742872238E0,-9.712766647E0,1.862513304E0
4.699720683E0,1.750050664E0,-9.719944954E0,1.860120535E0
4.702116517E0,1.728515267E0,-9.710372925E0,1.826620936E0
4.704511517E0,1.711765528E0,-9.715159416E0,1.833799481E0
4.706906517E0,1.718943954E0,-9.707980156E0,1.836192250E0
4.709302350E0,1.711765528E0,-9.717552185E0,1.836192250E0
4.711698183E0,1.716551185E0,-9.712766647E0,1.826620936E0
4.714093131E0,1.721336842E0,-9.722337723E0,1.821835399E0
4.716488131E0,1.685444474E0,-9.700801849E0,1.831406593E0
4.718883965E0,1.702194214E0,-9.676874161E0,1.833799481E0
4.721279798E0,1.735693693E0,-9.660123825E0,1.850549221E0
4.723674798E0,1.726122379E0,-9.657731056E0,1.848156333E0
4.726069798E0,1.752443433E0,-9.638588905E0,1.850549221E0
4.728465631E0,1.773978829E0,-9.612267494E0,1.874477386E0
4.730861412E0,1.764407635E0,-9.600303650E0,1.864906192E0
4.733256412E0,1.778764486E0,-9.595518112E0,1.884048700E0
4.735651412E0,1.764407635E0,-9.590732574E0,1.898405671E0
4.738047246E0,1.762014747E0,-9.564411163E0,1.896012783E0
4.740443079E0,1.769193292E0,-9.573982239E0,1.893620014E0
4.742838079E0,1.766800404E0,-9.566803932E0,1.912762642E0
4.745233079E0,1.781157374E0,-9.559625626E0,1.917548299E0
4.747628912E0,1.771586061E0,-9.552447319E0,1.927119493E0
4.750024694E0,1.754836321E0,-9.550054550E0,1.958226204E0
4.752419694E0,1.740479350E0,-9.550054550E0,1.948654890E0
4.754814694E0,1.711765528E0,-9.559625626E0,1.977667928E0
4.757210527E0,1.678265929E0,-9.562018394E0,1.984846354E0
4.759606360E0,1.663909078E0,-9.566803932E0,2.013560295E0
4.762001360E0,1.623231053E0,-9.571589470E0,2.042274237E0
4.764396360E0,1.601695657E0,-9.559625626E0,2.011167526E0
4.766792142E0,1.570588946E0,-9.550054550E0,1.999203324E0
4.769187975E0,1.549053550E0,-9.535696983E0,2.037488461E0
4.771582975E0,1.522732496E0,-9.533304214E0,2.020738840E0
4.773977975E0,1.494018674E0,-9.516554832E0,2.030309916E0
4.776373808E0,1.486840129E0,-9.487840652E0,2.025524378E0
4.778769642E0,1.491625786E0,-9.499805450E0,2.013560295E0
4.781164590E0,1.479661703E0,-9.492626190E0,2.013560295E0
4.783559590E0,1.479661703E0,-9.475876808E0,2.013560295E0
4.785955423E0,1.450947881E0,-9.454340935E0,1.992024899E0
4.788351256E0,1.453340650E0,-9.447162628E0,1.980060697E0
4.790746256E0,1.467697620E0,-9.428020477E0,1.972882271E0
4.793141256E0,1.474876046E0,-9.428020477E0,1.975275040E0
4.795537090E0,1.470090389E0,-9.411270142E0,1.946262121E0
4.797932871E0,1.489233017E0,-9.406484604E0,1.953440547E0
4.800327871E0,1.494018674E0,-9.408877373E0,1.946262121E0
4.802722871E0,1.522732496E0,-9.392127991E0,1.948654890E0
4.805118704E0,1.520339727E0,-9.377771378E0,1.927119493E0
4.807514537E0,1.534696579E0,-9.396913528E0,1.910369754E0
4.809909537E0,1.553839207E0,-9.411270142E0,1.912762642E0
4.812304537E0,1.568196177E0,-9.401699066E0,1.912762642E0
4.814700371E0,1.563410521E0,-9.430413246E0,1.922333837E0
4.817096152E0,1.587338686E0,-9.449555397E0,1.898405671E0
4.819491152E0,1.582553029E0,-9.451948166E0,1.881655931E0
4.821886152E0,1.572981834E0,-9.439984322E0,1.896012783E0
4.824281985E0,1.584945917E0,-9.447162628E0,1.872084618E0
4.826677819E0,1.589731574E0,-9.461520195E0,1.881655931E0
4.829072767E0,1.608874083E0,-9.473484039E0,1.857727647E0
4.831467767E0,1.592124343E0,-9.478269577E0,1.826620936E0
4.833863600E0,1.618445396E0,-9.478269577E0,1.831406593E0
4.836259433E0,1.604088426E0,-9.490233421E0,1.824228168E0
4.838654433E0,1.611266971E0,-9.502198219E0,1.809871197E0
4.841049433E0,1.616052628E0,-9.499805450E0,1.800299883E0
4.843445267E0,1.620838284E0,-9.526125908E0,1.793121457E0
4.845841048E0,1.635195136E0,-9.514162064E0,1.793121457E0
4.848236048E0,1.642373681E0,-9.506983757E0,1.778764486E0
4.850631048E0,1.659123421E0,-9.533304214E0,1.781157374E0
4.853026881E0,1.666301847E0,-9.550054550E0,1.790728688E0
4.855422715E0,1.668694735E0,-9.552447319E0,1.797907114E0
4.857817715E0,1.656730533E0,-9.585947037E0,1.788335800E0
4.860212715E0,1.685444474E0,-9.590732574E0,1.773978829E0
4.862608548E0,1.671087503E0,-9.612267494E0,1.783550143E0
4.865004329E0,1.683051586E0,-9.640981674E0,1.754836321E0
4.867399329E0,1.661516190E0,-9.652945518E0,1.764407635E0
4.869794329E0,1.644766450E0,-9.684052467E0,1.778764486E0
4.872190162E0,1.644766450E0,-9.696016312E0,1.762014747E0
4.874585996E0,1.644766450E0,-9.729516029E0,1.745265007E0
4.876980996E0,1.628016710E0,-9.729516029E0,1.752443433E0
4.879375996E0,1.613659739E0,-9.729516029E0,1.757229090E0
4.881771777E0,1.620838284E0,-9.748658180E0,1.759621978E0
4.884167610E0,1.611266971E0,-9.739087105E0,1.757229090E0
4.886562610E0,1.608874083E0,-9.739087105E0,1.750050664E0
4.888957610E0,1.582553029E0,-9.755837440E0,1.752443433E0
4.891353444E0,1.580160260E0,-9.739087105E0,1.735693693E0
4.893749225E0,1.572981834E0,-9.731908798E0,1.742872238E0
4.896144225E0,1.570588946E0,-9.722337723E0,1.733300924E0
4.898539225E0,1.584945917E0,-9.729516029E0,1.726122379E0
4.900935058E0,1.596910000E0,-9.712766647E0,1.728515267E0
4.903330892E0,1.592124343E0,-9.731908798E0,1.735693693E0
4.905725892E0,1.620838284E0,-9.722337723E0,1.726122379E0
4.908120892E0,1.651944876E0,-9.707980156E0,1.735693693E0
4.910516725E0,1.671087503E0,-9.700801849E0,1.745265007E0
4.912912506E0,1.702194214E0,-9.700801849E0,1.726122379E0
4.915307506E0,1.735693693E0,-9.686445236E0,1.721336842E0
4.917702506E0,1.752443433E0,-9.719944954E0,1.714158297E0
4.920098340E0,1.781157374E0,-9.731908798E0,1.714158297E0
4.922494173E0,1.819442511E0,-9.755837440E0,1.726122379E0
4.924889173E0,1.817049742E0,-9.748658180E0,1.738086581E0
4.927284173E0,1.838585138E0,-9.758230209E0,1.747657895E0
4.929679954E0,1.860120535E0,-9.753444672E0,1.745265007E0
4.932075787E0,1.869691849E0,-9.751050949E0,1.745265007E0
4.934470787E0,1.886441588E0,-9.748658180E0,1.742872238E0
4.936865787E0,1.900798440E0,-9.746265411E0,1.738086581E0
4.939261621E0,1.903191328E0,-9.729516029E0,1.745265007E0
4.941657454E0,1.888834357E0,-9.736694336E0,1.730908036E0
4.944052454E0,1.886441588E0,-9.736694336E0,1.733300924E0
4.946447454E0,1.891227245E0,-9.719944954E0,1.726122379E0
4.948843235E0,1.905584097E0,-9.715159416E0,1.735693693E0
4.951239069E0,1.907976985E0,-9.700801849E0,1.773978829E0
4.953634069E0,1.910369754E0,-9.662516594E0,1.754836321E0
4.956029069E0,1.915155411E0,-9.643374443E0,1.754836321E0
4.958424902E0,1.929512382E0,-9.626625061E0,1.764407635E0
4.960820683E0,1.922333837E0,-9.602696419E0,1.773978829E0
4.963215683E0,1.915155411E0,-9.600303650E0,1.776371717E0
4.965610683E0,1.922333837E0,-9.566803932E0,1.762014747E0
4.968006517E0,1.907976985E0,-9.535696983E0,1.752443433E0
4.970402350E0,1.917548299E0,-9.504590988E0,1.785943031E0
4.972797350E0,1.898405671E0,-9.497411728E0,1.781157374E0
4.975192350E0,1.888834357E0,-9.499805450E0,1.788335800E0
4.977588183E0,1.879263043E0,-9.449555397E0,1.781157374E0
4.979983965E0,1.879263043E0,-9.456734657E0,1.785943031E0
4.982378965E0,1.860120535E0,-9.439984322E0,1.790728688E0
4.984773965E0,1.860120535E0,-9.437591553E0,1.793121457E0
4.987169798E0,1.869691849E0,-9.392127991E0,1.795514345E0
4.989565631E0,1.862513304E0,-9.394520760E0,1.788335800E0
4.991960631E0,1.833799481E0,-9.394520760E0,1.788335800E0
4.994355631E0,1.824228168E0,-9.380164146E0,1.802692771E0
4.996751412E0,1.809871197E0,-9.353842735E0,1.802692771E0
4.999147246E0,1.795514345E0,-9.353842735E0,1.809871197E0
5.001542246E0,1.788335800E0,-9.368199348E0,1.843370795E0
5.003937246E0,1.790728688E0,-9.370592117E0,1.850549221E0
