"Time (s)","Gyroscope x (rad/s)","Gyroscope y (rad/s)","Gyroscope z (rad/s)"
5.448357400E-2,-6.161193848E-1,-6.526641846E-1,-5.392456055E-2
5.695549800E-2,-6.171875000E-1,-6.728973389E-1,-3.901672363E-2
5.942742200E-2,-6.022796631E-1,-6.824951172E-1,-5.499267578E-2
6.189934600E-2,-5.767059326E-1,-6.974029541E-1,-6.245422363E-2
6.437127000E-2,-5.490112305E-1,-7.048645020E-1,-6.884765625E-2
6.684319400E-2,-5.234375000E-1,-7.048645020E-1,-7.203674316E-2
6.931511700E-2,-4.968109131E-1,-6.878204346E-1,-7.843017578E-2
7.175652400E-2,-4.723052979E-1,-6.665039062E-1,-8.589172363E-2
7.422844700E-2,-4.467468262E-1,-6.398773193E-1,-8.908081055E-2
7.670037100E-2,-4.264984131E-1,-6.100463867E-1,-9.014892578E-2
7.917229500E-2,-4.105224609E-1,-5.780944824E-1,-9.228515625E-2
8.161370100E-2,-3.934783936E-1,-5.557250977E-1,-9.440612793E-2
8.408562500E-2,-3.796386719E-1,-5.269622803E-1,-9.335327148E-2
8.655754900E-2,-3.657836914E-1,-5.013885498E-1,-9.440612793E-2
8.899895500E-2,-3.529968262E-1,-4.747619629E-1,-9.335327148E-2
9.147087900E-2,-3.370208740E-1,-4.449310303E-1,-9.440612793E-2
9.394280300E-2,-3.231811523E-1,-4.065856934E-1,-9.973144531E-2
9.638420900E-2,-3.114624023E-1,-3.735656738E-1,-9.867858887E-2
9.885613300E-2,-2.965393066E-1,-3.373413086E-1,-1.071929932E-1
1.012975390E-1,-2.848205566E-1,-2.936706543E-1,-1.125183105E-1
1.037694630E-1,-2.635192871E-1,-2.436065674E-1,-1.189117432E-1
1.062413870E-1,-2.464752197E-1,-1.882019043E-1,-1.210479736E-1
1.087133110E-1,-2.294311523E-1,-1.360015869E-1,-1.231689453E-1
1.111547170E-1,-2.145233154E-1,-7.954406738E-2,-1.242370605E-1
1.136266410E-1,-2.017364502E-1,-1.989746094E-2,-1.253051758E-1
1.160985650E-1,-1.857604980E-1,3.337097168E-2,-1.210479736E-1
1.185704880E-1,-1.729736328E-1,8.024597168E-2,-1.157226562E-1
1.210118950E-1,-1.665802002E-1,1.207275391E-1,-1.167755127E-1
1.234838190E-1,-1.569976807E-1,1.548156738E-1,-1.146545410E-1
1.259252250E-1,-1.463470459E-1,1.856994629E-1,-1.093292236E-1
1.283971490E-1,-1.346282959E-1,2.123413086E-1,-1.050720215E-1
1.308690720E-1,-1.303558350E-1,2.304382324E-1,-1.061248779E-1
1.333409960E-1,-1.229095459E-1,2.389678955E-1,-1.061248779E-1
1.357824030E-1,-1.143798828E-1,2.378997803E-1,-1.093292236E-1
1.382543260E-1,-1.111907959E-1,2.272491455E-1,-1.157226562E-1
1.407262500E-1,-1.090545654E-1,2.048797607E-1,-1.199798584E-1
1.431981740E-1,-1.069183350E-1,1.729125977E-1,-1.274414062E-1
1.456395800E-1,-1.111907959E-1,1.388244629E-1,-1.348876953E-1
1.481115040E-1,-1.175842285E-1,1.026153564E-1,-1.412811279E-1
1.505529100E-1,-1.229095459E-1,5.360412598E-2,-1.476745605E-1
1.530248340E-1,-1.324920654E-1,-1.785278320E-3,-1.572570801E-1
1.554967580E-1,-1.484680176E-1,-5.931091309E-2,-1.636505127E-1
1.579381640E-1,-1.644439697E-1,-1.221618652E-1,-1.700439453E-1
1.604100880E-1,-1.772308350E-1,-1.892700195E-1,-1.764373779E-1
1.628820120E-1,-1.974792480E-1,-2.595825195E-1,-1.828308105E-1
1.653539360E-1,-2.209014893E-1,-3.352050781E-1,-1.934814453E-1
1.677953420E-1,-2.443389893E-1,-4.140472412E-1,-2.115936279E-1
1.702672660E-1,-2.688446045E-1,-4.854125977E-1,-2.297058105E-1
1.727086720E-1,-3.007965088E-1,-5.440063477E-1,-2.456817627E-1
1.751805960E-1,-3.402252197E-1,-6.036529541E-1,-2.627258301E-1
1.776525200E-1,-3.828277588E-1,-6.601104736E-1,-2.723083496E-1
1.800939260E-1,-4.233093262E-1,-7.123107910E-1,-2.744445801E-1
1.825658500E-1,-4.691162109E-1,-7.485351562E-1,-2.648468018E-1
1.850377740E-1,-5.202484131E-1,-7.677154541E-1,-2.467498779E-1
1.875096970E-1,-5.830993652E-1,-7.868804932E-1,-2.254333496E-1
1.899511040E-1,-6.406250000E-1,-7.996673584E-1,-1.934814453E-1
1.924230280E-1,-6.992187500E-1,-8.071289062E-1,-1.583251953E-1
1.948949510E-1,-7.641906738E-1,-8.145751953E-1,-1.221160889E-1
1.973363580E-1,-8.334350586E-1,-8.188476562E-1,-8.375549316E-2
1.998082810E-1,-9.005432129E-1,-8.177795410E-1,-5.073547363E-2
2.022802050E-1,-9.697875977E-1,-8.124542236E-1,-1.345825195E-2
2.047216120E-1,-1.036895752E0,-8.124542236E-1,2.169799805E-2
2.071935350E-1,-1.099746704E0,-8.103179932E-1,4.939270020E-2
2.096654590E-1,-1.171127319E0,-8.113861084E-1,7.710266113E-2
2.121068650E-1,-1.237167358E0,-8.113861084E-1,1.026611328E-1
2.145787890E-1,-1.301086426E0,-8.092498779E-1,1.207733154E-1
2.170507130E-1,-1.358612061E0,-8.113861084E-1,1.367492676E-1
2.194921190E-1,-1.418258667E0,-8.188476562E-1,1.473999023E-1
2.219640430E-1,-1.475784302E0,-8.241729736E-1,1.506042480E-1
2.244359670E-1,-1.527984619E0,-8.380126953E-1,1.527252197E-1
2.268773730E-1,-1.582321167E0,-8.603820801E-1,1.537933350E-1
2.293492970E-1,-1.628128052E0,-8.859558105E-1,1.495361328E-1
2.318212210E-1,-1.674987793E0,-9.147186279E-1,1.431427002E-1
2.342626270E-1,-1.721862793E0,-9.402770996E-1,1.335601807E-1
2.367345510E-1,-1.762344360E0,-9.701080322E-1,1.197052002E-1
2.392064750E-1,-1.799636841E0,-1.007400513E0,1.047973633E-1
2.416783990E-1,-1.833724976E0,-1.051071167E0,9.626770020E-2
2.441198050E-1,-1.871002197E0,-1.101135254E0,9.307861328E-2
2.465917290E-1,-1.906158447E0,-1.163986206E0,9.201049805E-2
2.490636530E-1,-1.938110352E0,-1.232162476E0,9.626770020E-2
2.515050590E-1,-1.970077515E0,-1.291824341E0,8.880615234E-2
2.539769830E-1,-1.998840332E0,-1.342956543E0,7.176208496E-2
2.564489060E-1,-2.027603149E0,-1.379165649E0,4.833984375E-2
2.588903130E-1,-2.057418823E0,-1.406875610E0,1.744079590E-2
2.613622370E-1,-2.085128784E0,-1.426040649E0,-1.451110840E-2
2.638341600E-1,-2.113876343E0,-1.450546265E0,-4.859924316E-2
2.662755670E-1,-2.140518188E0,-1.481430054E0,-8.268737793E-2
2.687474900E-1,-2.169281006E0,-1.507003784E0,-1.125183105E-1
2.712194140E-1,-2.196975708E0,-1.531509399E0,-1.476745605E-1
2.736608210E-1,-2.225738525E0,-1.550674438E0,-1.860198975E-1
2.761327440E-1,-2.254501343E0,-1.569854736E0,-2.243804932E-1
2.786046680E-1,-2.285385132E0,-1.585830688E0,-2.563323975E-1
2.810460740E-1,-2.320541382E0,-1.595413208E0,-2.957458496E-1
2.835179980E-1,-2.348236084E0,-1.600753784E0,-3.394165039E-1
2.859899220E-1,-2.379135132E0,-1.607131958E0,-3.767089844E-1
2.884618460E-1,-2.410034180E0,-1.607131958E0,-4.193115234E-1
2.909032520E-1,-2.440917969E0,-1.606079102E0,-4.597930908E-1
2.933751760E-1,-2.468612671E0,-1.601806641E0,-4.970855713E-1
2.958165820E-1,-2.501632690E0,-1.592224121E0,-5.364990234E-1
2.982885060E-1,-2.527206421E0,-1.584762573E0,-5.727081299E-1
3.007604300E-1,-2.564483643E0,-1.574111938E0,-6.110687256E-1
3.032323540E-1,-2.599639893E0,-1.567718506E0,-6.408996582E-1
3.056737600E-1,-2.627334595E0,-1.563461304E0,-6.717834473E-1
3.081456840E-1,-2.656097412E0,-1.560272217E0,-7.026824951E-1
3.106176080E-1,-2.686996460E0,-1.559204102E0,-7.303771973E-1
3.130590140E-1,-2.714691162E0,-1.565597534E0,-7.506103516E-1
3.155309380E-1,-2.748779297E0,-1.580505371E0,-7.665863037E-1
3.180028620E-1,-2.778610229E0,-1.591156006E0,-7.783050537E-1
3.204442680E-1,-2.813766479E0,-1.612457275E0,-7.879028320E-1
3.229161920E-1,-2.849975586E0,-1.641220093E0,-7.921600342E-1
3.253881150E-1,-2.884063721E0,-1.674255371E0,-7.932281494E-1
3.278295220E-1,-2.921356201E0,-1.720062256E0,-7.900238037E-1
3.303014460E-1,-2.959701538E0,-1.779708862E0,-7.846984863E-1
3.327733690E-1,-2.996994019E0,-1.858535767E0,-7.751159668E-1
3.352147760E-1,-3.032135010E0,-1.948028564E0,-7.623291016E-1
3.376866990E-1,-3.071563721E0,-2.046020508E0,-7.559356689E-1
3.401586230E-1,-3.112030029E0,-2.152557373E0,-7.431640625E-1
3.426305470E-1,-3.153579712E0,-2.264404297E0,-7.293090820E-1
3.450719530E-1,-3.200454712E0,-2.375198364E0,-7.186584473E-1
3.475438770E-1,-3.247329712E0,-2.489181519E0,-7.101287842E-1
3.500158010E-1,-3.288864136E0,-2.612747192E0,-6.984100342E-1
3.524572070E-1,-3.332550049E0,-2.737380981E0,-6.866912842E-1
3.549291310E-1,-3.371963501E0,-2.830062866E0,-6.696472168E-1
3.574010550E-1,-3.359176636E0,-2.783187866E0,-6.281127930E-1
3.598424610E-1,-3.295257568E0,-2.573333740E0,-5.652618408E-1
3.623143850E-1,-3.249450684E0,-2.319793701E0,-5.034790039E-1
3.647863090E-1,-3.231338501E0,-2.070526123E0,-4.533996582E-1
3.672277150E-1,-3.200454712E0,-1.808471680E0,-4.065399170E-1
3.696996390E-1,-3.146118164E0,-1.553878784E0,-3.554077148E-1
3.721715630E-1,-3.083267212E0,-1.319519043E0,-2.914886475E-1
3.746129690E-1,-3.022552490E0,-1.128829956E0,-2.052001953E-1
3.770848930E-1,-2.951187134E0,-9.967346191E-1,-1.135864258E-1
3.795568170E-1,-2.870223999E0,-9.008636475E-1,-3.155517578E-2
3.819982230E-1,-2.786071777E0,-8.177795410E-1,5.259704590E-2
3.844701470E-1,-2.689132690E0,-7.410736084E-1,1.324920654E-1
3.869420710E-1,-2.592193604E0,-6.611785889E-1,2.091827393E-1
3.893834770E-1,-2.490982056E0,-5.823516846E-1,2.773590088E-1
3.918554010E-1,-2.396179199E0,-5.088500977E-1,3.391571045E-1
3.943273240E-1,-2.305633545E0,-4.321441650E-1,3.924102783E-1
3.967992480E-1,-2.218276978E0,-3.586425781E-1,4.414215088E-1
3.992406540E-1,-2.138381958E0,-2.968597412E-1,4.776306152E-1
4.017125780E-1,-2.056365967E0,-2.446594238E-1,5.063934326E-1
4.041845020E-1,-1.981796265E0,-1.988525391E-1,5.234375000E-1
4.066259080E-1,-1.909347534E0,-1.573181152E-1,5.340881348E-1
4.090978320E-1,-1.839050293E0,-1.200256348E-1,5.351562500E-1
4.115697560E-1,-1.763412476E0,-8.486938477E-2,5.287628174E-1
4.140111620E-1,-1.687774658E0,-5.398559570E-2,5.159912109E-1
4.164830860E-1,-1.617477417E0,-1.564025879E-2,4.925537109E-1
4.189550100E-1,-1.540771484E0,2.590942383E-2,4.637908936E-1
4.213964160E-1,-1.467269897E0,7.064819336E-2,4.275665283E-1
4.238683400E-1,-1.394836426E0,1.143341064E-1,3.913421631E-1
4.263402640E-1,-1.325592041E0,1.590728760E-1,3.529968262E-1
4.287816700E-1,-1.258468628E0,2.251129150E-1,3.167877197E-1
4.312535940E-1,-1.193496704E0,3.050079346E-1,2.869567871E-1
4.337255180E-1,-1.125320435E0,3.614654541E-1,2.581939697E-1
4.361669240E-1,-1.057144165E0,4.051513672E-1,2.315521240E-1
4.386388480E-1,-9.825744629E-1,4.498901367E-1,2.059936523E-1
4.411107720E-1,-9.133300781E-1,4.839782715E-1,1.878814697E-1
4.435521780E-1,-8.462219238E-1,5.148620605E-1,1.665802002E-1
4.460241020E-1,-7.748413086E-1,5.425720215E-1,1.527252197E-1
4.484960260E-1,-7.077331543E-1,5.659942627E-1,1.410064697E-1
4.509679490E-1,-6.331634521E-1,5.830383301E-1,1.250305176E-1
4.534093560E-1,-5.575256348E-1,5.904998779E-1,1.197052002E-1
4.558812790E-1,-4.840240479E-1,5.937042236E-1,1.101226807E-1
4.583532030E-1,-4.084014893E-1,6.000976562E-1,9.733581543E-2
4.607946100E-1,-3.327636719E-1,6.032867432E-1,8.987426758E-2
4.632665330E-1,-2.560577393E-1,6.011505127E-1,8.135986328E-2
4.657384570E-1,-1.846923828E-1,5.883789062E-1,7.710266113E-2
4.681798630E-1,-1.111907959E-1,5.702667236E-1,7.815551758E-2
4.706517870E-1,-4.620361328E-2,5.457611084E-1,8.454895020E-2
4.731237110E-1,1.983642578E-2,5.148620605E-1,8.987426758E-2
4.755651170E-1,8.161926270E-2,4.786529541E-1,9.626770020E-2
4.780370410E-1,1.412811279E-1,4.371032715E-1,1.026611328E-1
4.805089650E-1,1.945495605E-1,3.923645020E-1,1.111907959E-1
4.829503710E-1,2.467498779E-1,3.486938477E-1,1.122436523E-1
4.854222950E-1,2.882843018E-1,3.018188477E-1,1.165161133E-1
4.878942190E-1,3.255767822E-1,2.506866455E-1,1.207733154E-1
4.903356250E-1,3.596649170E-1,1.867675781E-1,1.335601807E-1
4.928075490E-1,3.884277344E-1,1.079406738E-1,1.516571045E-1
4.952794730E-1,4.150543213E-1,3.016662598E-2,1.729736328E-1
4.977513970E-1,4.374237061E-1,-3.054809570E-2,1.985321045E-1
5.001928030E-1,4.587249756E-1,-8.700561523E-2,2.251739502E-1
5.026647270E-1,4.757690430E-1,-1.381378174E-1,2.539367676E-1
5.051366510E-1,4.874877930E-1,-1.892700195E-1,2.858886719E-1
5.075780570E-1,4.981384277E-1,-2.361450195E-1,3.189086914E-1
5.100499810E-1,5.024108887E-1,-2.851409912E-1,3.551330566E-1
5.125219040E-1,5.088043213E-1,-3.415985107E-1,3.902893066E-1
5.149633110E-1,5.066680908E-1,-3.937988281E-1,4.264984131E-1
5.174352350E-1,5.088043213E-1,-4.534606934E-1,4.659118652E-1
5.199071580E-1,5.055999756E-1,-5.131072998E-1,5.032043457E-1
5.223485650E-1,4.992065430E-1,-5.727691650E-1,5.415496826E-1
5.248204880E-1,4.917602539E-1,-6.270904541E-1,5.809631348E-1
5.272618950E-1,4.885559082E-1,-6.782226562E-1,6.203765869E-1
5.297338190E-1,4.832305908E-1,-7.240295410E-1,6.587371826E-1
5.322057420E-1,4.747161865E-1,-7.613220215E-1,6.928253174E-1
5.346776660E-1,4.693756104E-1,-7.890167236E-1,7.247772217E-1
5.371190720E-1,4.619293213E-1,-8.060607910E-1,7.535400391E-1
5.395909960E-1,4.576721191E-1,-8.124542236E-1,7.748413086E-1
5.420629200E-1,4.533996582E-1,-8.028564453E-1,7.865600586E-1
5.445043260E-1,4.470062256E-1,-7.836914062E-1,7.886962891E-1
5.469762500E-1,4.374237061E-1,-7.570495605E-1,7.823028564E-1
5.494481740E-1,4.320983887E-1,-7.336273193E-1,7.716522217E-1
5.519200980E-1,4.225158691E-1,-7.101898193E-1,7.546081543E-1
5.543920220E-1,4.065246582E-1,-7.016601562E-1,7.269134521E-1
5.568334280E-1,3.937530518E-1,-7.059173584E-1,6.938781738E-1
5.593053520E-1,3.777770996E-1,-7.112579346E-1,6.566009521E-1
5.617467580E-1,3.596649170E-1,-7.229614258E-1,6.182556152E-1
5.642186820E-1,3.458099365E-1,-7.357482910E-1,5.820312500E-1
5.666906060E-1,3.351593018E-1,-7.474670410E-1,5.415496826E-1
5.691320120E-1,3.234405518E-1,-7.570495605E-1,5.074615479E-1
5.716039360E-1,3.181152344E-1,-7.709045410E-1,4.776306152E-1
5.740758600E-1,3.117218018E-1,-7.804870605E-1,4.520721436E-1
5.765172660E-1,3.159790039E-1,-7.922058105E-1,4.297027588E-1
5.789891900E-1,3.255767822E-1,-8.071289062E-1,4.083862305E-1
5.814611130E-1,3.372955322E-1,-8.209686279E-1,3.892211914E-1
5.839025200E-1,3.553924561E-1,-8.316192627E-1,3.764343262E-1
5.863744440E-1,3.820343018E-1,-8.358917236E-1,3.679199219E-1
5.888463670E-1,4.097290039E-1,-8.348236084E-1,3.583221436E-1
5.912877740E-1,4.448852539E-1,-8.294982910E-1,3.540649414E-1
5.937596970E-1,4.800415039E-1,-8.060607910E-1,3.487396240E-1
5.962316210E-1,5.119934082E-1,-7.719726562E-1,3.455352783E-1
5.987035450E-1,5.471496582E-1,-7.197723389E-1,3.466033936E-1
6.011449510E-1,5.759124756E-1,-6.569213867E-1,3.476715088E-1
6.036168750E-1,6.004028320E-1,-5.876770020E-1,3.562011719E-1
6.060887990E-1,6.238403320E-1,-5.163116455E-1,3.593902588E-1
6.085302050E-1,6.504821777E-1,-4.566497803E-1,3.657836914E-1
6.110021290E-1,6.728515625E-1,-4.172363281E-1,3.732452393E-1
6.134740530E-1,7.026824951E-1,-3.842163086E-1,3.732452393E-1
6.159154590E-1,7.346343994E-1,-3.746337891E-1,3.753662109E-1
6.183873830E-1,7.708587646E-1,-3.724975586E-1,3.860168457E-1
6.208593070E-1,8.155975342E-1,-3.831481934E-1,4.041290283E-1
6.233007130E-1,8.582000732E-1,-4.108428955E-1,4.211730957E-1
6.257726370E-1,9.093322754E-1,-4.555816650E-1,4.510040283E-1
6.282445610E-1,9.679260254E-1,-5.216369629E-1,4.850921631E-1
6.306859670E-1,1.026519775E0,-6.111145020E-1,5.234375000E-1
6.331578910E-1,1.081909180E0,-7.208404541E-1,5.628509521E-1
6.356298150E-1,1.146896362E0,-8.486633301E-1,5.980072021E-1
6.380712210E-1,1.214004517E0,-9.871520996E-1,6.384887695E-1
6.405431450E-1,1.282180786E0,-1.125640869E0,6.779022217E-1
6.430150690E-1,1.351425171E0,-1.275833130E0,7.173156738E-1
6.454564750E-1,1.421722412E0,-1.428176880E0,7.514038086E-1
6.479283990E-1,1.493103027E0,-1.582641602E0,7.865600586E-1
6.504003220E-1,1.564468384E0,-1.747756958E0,8.185272217E-1
6.528417290E-1,1.636917114E0,-1.917129517E0,8.472747803E-1
6.553136530E-1,1.716812134E0,-2.088638306E0,8.749847412E-1
6.577855760E-1,1.796707153E0,-2.259078979E0,8.984222412E-1
6.602575000E-1,1.881927490E0,-2.431655884E0,9.229125977E-1
6.626989060E-1,1.973541260E0,-2.602096558E0,9.516754150E-1
6.651708300E-1,2.067276001E0,-2.773605347E0,9.772491455E-1
6.676427540E-1,2.165283203E0,-2.945114136E0,1.000686646E0
6.700841600E-1,2.268615723E0,-3.117675781E0,1.021987915E0
6.725560840E-1,2.382598877E0,-3.275344849E0,1.044357300E0
6.750280080E-1,2.497650146E0,-3.406372070E0,1.062469482E0
6.774694140E-1,2.616958618E0,-3.502243042E0,1.080581665E0
6.799413380E-1,2.747985840E0,-3.558700562E0,1.092300415E0
6.824132620E-1,2.876876831E0,-3.602371216E0,1.105072021E0
6.848546680E-1,3.013229370E0,-3.641799927E0,1.125320435E0
6.873265920E-1,3.149581909E0,-3.678009033E0,1.141296387E0
6.897985160E-1,3.285949707E0,-3.721694946E0,1.168991089E0
6.922399220E-1,3.422302246E0,-3.771759033E0,1.197753906E0
6.947118460E-1,3.545867920E0,-3.837799072E0,1.231842041E0
6.971837700E-1,3.676895142E0,-3.920898438E0,1.273391724E0
6.996251760E-1,3.800460815E0,-4.012512207E0,1.325592041E0
7.020971000E-1,3.921905518E0,-4.117965698E0,1.378845215E0
7.045690240E-1,4.038024902E0,-4.235137939E0,1.442764282E0
7.070104300E-1,4.150939941E0,-4.349121094E0,1.512008667E0
7.094823540E-1,4.255325317E0,-4.468444824E0,1.588699341E0
7.119542780E-1,4.355468750E0,-4.593078613E0,1.671798706E0
7.144262010E-1,4.447082520E0,-4.710250854E0,1.755950928E0
7.168676080E-1,4.523773193E0,-4.810394287E0,1.839050293E0
7.193395310E-1,4.591949463E0,-4.896667480E0,1.926391602E0
7.218114550E-1,4.651611328E0,-4.977630615E0,2.019073486E0
7.242528620E-1,4.697418213E0,-5.049011230E0,2.112823486E0
7.267247850E-1,4.725112915E0,-5.122512817E0,2.215087891E0
7.291967090E-1,4.735763550E0,-5.200271606E0,2.320541382E0
7.316381150E-1,4.728317261E0,-5.286560059E0,2.427062988E0
7.341100390E-1,4.702743530E0,-5.380310059E0,2.521881104E0
7.365819630E-1,4.655868530E0,-5.483642578E0,2.616683960E0
7.390233690E-1,4.596221924E0,-5.605072021E0,2.702972412E0
7.414952930E-1,4.518447876E0,-5.738235474E0,2.779678345E0
7.439672170E-1,4.424713135E0,-5.882049561E0,2.851043701E0
7.464086230E-1,4.330963135E0,-6.024795532E0,2.914962769E0
7.488805470E-1,4.228698730E0,-6.171798706E0,2.974609375E0
7.513524710E-1,4.118972778E0,-6.314544678E0,3.028945923E0
7.537938770E-1,4.015655518E0,-6.438110352E0,3.079010010E0
7.562658010E-1,3.917648315E0,-6.548904419E0,3.131210327E0
7.587377250E-1,3.829223633E0,-6.637313843E0,3.186599731E0
7.612096490E-1,3.755722046E0,-6.704421997E0,3.249450684E0
7.636510550E-1,3.684356689E0,-6.748107910E0,3.313369751E0
7.661229790E-1,3.620437622E0,-6.772598267E0,3.389007568E0
7.685949030E-1,3.571426392E0,-6.777938843E0,3.473159790E0
7.710363090E-1,3.537338257E0,-6.771545410E0,3.560516357E0
7.735082330E-1,3.510711670E0,-6.752365112E0,3.655319214E0
7.759801560E-1,3.492599487E0,-6.727859497E0,3.754394531E0
7.784520800E-1,3.490478516E0,-6.690582275E0,3.848129272E0
7.808934870E-1,3.493667603E0,-6.633056641E0,3.936553955E0
7.833654100E-1,3.498992920E0,-6.553161621E0,4.015380859E0
7.858068170E-1,3.509643555E0,-6.457290649E0,4.085693359E0
7.882787400E-1,3.516036987E0,-6.347564697E0,4.142150879E0
7.907506640E-1,3.522430420E0,-6.239974976E0,4.190078735E0
7.931920710E-1,3.529891968E0,-6.141967773E0,4.227371216E0
7.956639940E-1,3.527755737E0,-6.059936523E0,4.262512207E0
7.981359180E-1,3.519241333E0,-5.993896484E0,4.287017822E0
8.005773240E-1,3.507522583E0,-5.956619263E0,4.305130005E0
8.030492480E-1,3.486206055E0,-5.924652100E0,4.315780640E0
8.055211720E-1,3.457443237E0,-5.892700195E0,4.327499390E0
8.079625780E-1,3.430816650E0,-5.854339600E0,4.340286255E0
8.104345020E-1,3.407379150E0,-5.806411743E0,4.353073120E0
8.129064260E-1,3.387145996E0,-5.741424561E0,4.369049072E0
8.153478320E-1,3.369033813E0,-5.655136108E0,4.388214111E0
8.178197560E-1,3.359451294E0,-5.552871704E0,4.401000977E0
8.202916800E-1,3.345596313E0,-5.442092896E0,4.413787842E0
8.227636040E-1,3.339202881E0,-5.320648193E0,4.432968140E0
8.252050100E-1,3.336013794E0,-5.185363770E0,4.450012207E0
8.276769340E-1,3.329620361E0,-5.053268433E0,4.461730957E0
8.301488580E-1,3.323226929E0,-4.924377441E0,4.479827881E0
8.325902640E-1,3.317901611E0,-4.799728394E0,4.500076294E0
8.350621880E-1,3.309371948E0,-4.678298950E0,4.514984131E0
8.375341120E-1,3.300857544E0,-4.558990479E0,4.529907227E0
8.399755180E-1,3.288070679E0,-4.446060181E0,4.542678833E0
8.424474420E-1,3.281677246E0,-4.332077026E0,4.555465698E0
8.449193650E-1,3.272094727E0,-4.214904785E0,4.572509766E0
8.473607720E-1,3.258239746E0,-4.104110718E0,4.581039429E0
8.498326960E-1,3.240142822E0,-4.005050659E0,4.594879150E0
8.523046190E-1,3.229476929E0,-3.907043457E0,4.605529785E0
8.547460260E-1,3.210311890E0,-3.814361572E0,4.614059448E0
8.572179490E-1,3.193267822E0,-3.735534668E0,4.626846313E0
8.596898730E-1,3.177291870E0,-3.667358398E0,4.644943237E0
8.621312790E-1,3.160247803E0,-3.608764648E0,4.653472900E0
8.646032030E-1,3.155975342E0,-3.550186157E0,4.666259766E0
8.670751270E-1,3.144256592E0,-3.491592407E0,4.670516968E0
8.695470510E-1,3.137863159E0,-3.432998657E0,4.671585083E0
8.719884570E-1,3.131484985E0,-3.368026733E0,4.669448853E0
8.744603810E-1,3.126159668E0,-3.294509888E0,4.658798218E0
8.769323050E-1,3.117630005E0,-3.210357666E0,4.640686035E0
8.793737110E-1,3.108047485E0,-3.113418579E0,4.611923218E0
8.818456350E-1,3.099517822E0,-2.998367310E0,4.573577881E0
8.843175590E-1,3.084609985E0,-2.871612549E0,4.520309448E0
8.867589650E-1,3.067565918E0,-2.739517212E0,4.459594727E0
8.892308890E-1,3.046264648E0,-2.601028442E0,4.395675659E0
8.917028130E-1,3.017501831E0,-2.460418701E0,4.318984985E0
8.941442190E-1,2.977020264E0,-2.299560547E0,4.241210938E0
8.966161430E-1,2.921615601E0,-2.126983643E0,4.162384033E0
8.990880670E-1,2.861968994E0,-1.956542969E0,4.083557129E0
9.015599900E-1,2.794860840E0,-1.795684814E0,4.008987427E0
9.040013970E-1,2.729873657E0,-1.655075073E0,3.936553955E0
9.064733210E-1,2.673416138E0,-1.547485352E0,3.860916138E0
9.089147270E-1,2.636123657E0,-1.466522217E0,3.787414551E0
9.113866510E-1,2.608428955E0,-1.405807495E0,3.714981079E0
9.138585740E-1,2.582870483E0,-1.365325928E0,3.642532349E0
9.163304980E-1,2.567947388E0,-1.326980591E0,3.576492310E0
9.187719040E-1,2.548782349E0,-1.299270630E0,3.514709473E0
9.212438280E-1,2.529602051E0,-1.279037476E0,3.461441040E0
9.237157520E-1,2.505096436E0,-1.265182495E0,3.414566040E0
9.261571580E-1,2.477401733E0,-1.255599976E0,3.370895386E0
9.286290820E-1,2.450775146E0,-1.255599976E0,3.333602905E0
9.311010060E-1,2.420944214E0,-1.259857178E0,3.305908203E0
9.335424120E-1,2.385787964E0,-1.268386841E0,3.276092529E0
9.360143360E-1,2.349578857E0,-1.285430908E0,3.246261597E0
9.384862600E-1,2.313354492E0,-1.301406860E0,3.219619751E0
9.409276660E-1,2.282455444E0,-1.312057495E0,3.190856934E0
9.433995900E-1,2.241989136E0,-1.314193726E0,3.158905029E0
9.458715140E-1,2.203628540E0,-1.323776245E0,3.126953125E0
9.483129200E-1,2.167419434E0,-1.334426880E0,3.091796875E0
9.507848440E-1,2.131195068E0,-1.335494995E0,3.053451538E0
9.532567680E-1,2.098175049E0,-1.330169678E0,3.009765625E0
9.556981740E-1,2.061950684E0,-1.310989380E0,2.965026855E0
9.581700980E-1,2.032119751E0,-1.284362793E0,2.922424316E0
9.606420220E-1,2.005493164E0,-1.258789062E0,2.881942749E0
9.630834280E-1,1.982055664E0,-1.234298706E0,2.835067749E0
9.655553520E-1,1.946899414E0,-1.212997437E0,2.781799316E0
9.680272760E-1,1.908554077E0,-1.192749023E0,2.732803345E0
9.704686820E-1,1.876602173E0,-1.173568726E0,2.680603027E0
9.729406060E-1,1.841445923E0,-1.161849976E0,2.625213623E0
9.754125290E-1,1.802032471E0,-1.149078369E0,2.573013306E0
9.778844530E-1,1.765808105E0,-1.126708984E0,2.519744873E0
9.803258600E-1,1.741302490E0,-1.094741821E0,2.465423584E0
9.827977830E-1,1.723205566E0,-1.052139282E0,2.412155151E0
9.852697070E-1,1.697631836E0,-1.013778687E0,2.355697632E0
9.877111130E-1,1.664611816E0,-9.903564453E-1,2.293914795E0
9.901830370E-1,1.626266479E0,-9.754333496E-1,2.227859497E0
9.926549610E-1,1.584716797E0,-9.637145996E-1,2.157562256E0
9.950963670E-1,1.529327393E0,-9.647827148E-1,2.089385986E0
9.975682910E-1,1.479248047E0,-9.647827148E-1,2.021209717E0
1.000040215E0,1.435577393E0,-9.594573975E-1,1.958358765E0
1.002512139E0,1.396163940E0,-9.445495605E-1,1.894439697E0
1.004953545E0,1.355682373E0,-9.317626953E-1,1.830520630E0
1.007425469E0,1.303482056E0,-9.370880127E-1,1.763412476E0
1.009866875E0,1.225723267E0,-9.807586670E-1,1.661148071E0
1.012338799E0,1.123458862E0,-1.048934937E0,1.546096802E0
1.014810723E0,1.009475708E0,-1.111785889E0,1.451293945E0
1.017252129E0,8.965606689E-1,-1.163986206E0,1.366058350E0
1.019724053E0,7.964172363E-1,-1.193817139E0,1.279785156E0
1.022195977E0,7.016143799E-1,-1.214050293E0,1.202011108E0
1.024667901E0,5.972137451E-1,-1.259857178E0,1.127441406E0
1.027109307E0,4.779052734E-1,-1.319519043E0,1.052871704E0
1.029581231E0,3.415527344E-1,-1.379165649E0,9.708557129E-1
1.032053154E0,1.934814453E-1,-1.440963745E0,8.962860107E-1
1.034494561E0,4.647827148E-2,-1.489959717E0,8.600616455E-1
1.036966485E0,-7.815551758E-2,-1.508071899E0,8.834991455E-1
1.039438408E0,-1.676483154E-1,-1.480377197E0,9.399566650E-1
1.041879815E0,-2.187805176E-1,-1.384490967E0,1.007064819E0
1.044351738E0,-2.443389893E-1,-1.284362793E0,1.057144165E0
1.046823662E0,-2.752380371E-1,-1.209793091E0,1.067794800E0
1.049265069E0,-3.018646240E-1,-1.112854004E0,1.034774780E0
1.051736992E0,-3.125152588E-1,-9.903564453E-1,9.857635498E-1
1.054208916E0,-3.029327393E-1,-8.678436279E-1,9.399566650E-1
1.056650322E0,-2.784271240E-1,-7.453460693E-1,9.143981934E-1
1.059122246E0,-2.496643066E-1,-6.377410889E-1,9.111938477E-1
1.061594170E0,-2.177124023E-1,-5.525207520E-1,9.229125977E-1
1.064066094E0,-1.836242676E-1,-4.896697998E-1,9.484863281E-1
1.066507500E0,-1.484680176E-1,-4.438629150E-1,9.815063477E-1
1.068979424E0,-1.207733154E-1,-4.129791260E-1,1.011337280E0
1.071420830E0,-9.094238281E-2,-4.055175781E-1,1.046493530E0
1.073892754E0,-5.473327637E-2,-4.140472412E-1,1.080581665E0
1.076364678E0,-2.383422852E-2,-4.289550781E-1,1.115722656E0
1.078836602E0,1.132202148E-2,-4.609069824E-1,1.154083252E0
1.081278008E0,5.819702148E-2,-5.003204346E-1,1.196685791E0
1.083749932E0,1.135864258E-1,-5.333557129E-1,1.244628906E0
1.086221856E0,1.604614258E-1,-5.685119629E-1,1.291503906E0
1.088663262E0,2.190399170E-1,-6.026000977E-1,1.338363647E0
1.091135186E0,2.776336670E-1,-6.409454346E-1,1.386306763E0
1.093607110E0,3.330230713E-1,-6.856842041E-1,1.441696167E0
1.096048516E0,3.884277344E-1,-7.293548584E-1,1.492828369E0
1.098520440E0,4.342346191E-1,-7.751617432E-1,1.539703369E0
1.100992363E0,4.810943604E-1,-8.199005127E-1,1.594039917E0
1.103433770E0,5.247802734E-1,-8.721008301E-1,1.652618408E0
1.105905694E0,5.631256104E-1,-9.306945801E-1,1.720794678E0
1.108377617E0,5.886993408E-1,-9.903564453E-1,1.796432495E0
1.110819024E0,6.057434082E-1,-1.047866821E0,1.875259399E0
1.113290947E0,6.163940430E-1,-1.111785889E0,1.948760986E0
1.115762871E0,6.238403320E-1,-1.168243408E0,2.023330688E0
1.118204278E0,6.217193604E-1,-1.215118408E0,2.092575073E0
1.120676201E0,6.238403320E-1,-1.249206543E0,2.158615112E0
1.123148125E0,6.238403320E-1,-1.276901245E0,2.220413208E0
1.125620049E0,6.163940430E-1,-1.307800293E0,2.285385132E0
1.128061455E0,6.014709473E-1,-1.338684082E0,2.355697632E0
1.130533379E0,5.620574951E-1,-1.354675293E0,2.432388306E0
1.133005303E0,4.864196777E-1,-1.346145630E0,2.471817017E0
1.135446709E0,3.980102539E-1,-1.275833130E0,2.478195190E0
1.137918633E0,3.298339844E-1,-1.160797119E0,2.488861084E0
1.140390557E0,2.829589844E-1,-1.029769897E0,2.538925171E0
1.142831963E0,2.584533691E-1,-9.008636475E-1,2.639053345E0
1.145303887E0,2.478027344E-1,-7.890167236E-1,2.780731201E0
1.147775811E0,2.360839844E-1,-6.867523193E-1,2.956512451E0
1.150217217E0,2.030639648E-1,-5.706329346E-1,3.158905029E0
1.152689141E0,1.583251953E-1,-4.545288086E-1,3.321884155E0
1.155161065E0,1.210479736E-1,-3.490600586E-1,3.408172607E0
1.157602471E0,1.125183105E-1,-2.606506348E-1,3.422027588E0
1.160074395E0,1.221008301E-1,-1.903381348E-1,3.374084473E0
1.162546319E0,1.519317627E-1,-1.455993652E-1,3.298461914E0
1.164987725E0,1.519317627E-1,-6.250000000E-2,3.240936279E0
1.167459649E0,1.242370605E-1,8.129882812E-2,3.247329712E0
1.169931572E0,1.029357910E-1,2.123413086E-1,3.257980347E0
1.172403496E0,4.647827148E-2,3.518829346E-1,3.282470703E0
1.174844903E0,-8.668518066E-2,5.329742432E-1,3.390075684E0
1.177316826E0,-2.454071045E-1,6.895751953E-1,3.561569214E0
1.179788750E0,-3.775024414E-1,7.811889648E-1,3.717102051E0
1.182230156E0,-4.786987305E-1,8.376464844E-1,3.836410522E0
1.184702080E0,-5.308990479E-1,8.759918213E-1,3.924835205E0
1.187174004E0,-5.468750000E-1,9.026184082E-1,3.981292725E0
1.189615410E0,-5.191802979E-1,9.196624756E-1,4.008987427E0
1.192087334E0,-4.552612305E-1,9.175415039E-1,4.035614014E0
1.194559258E0,-3.753662109E-1,8.770599365E-1,4.096343994E0
1.197000664E0,-2.858886719E-1,8.099517822E-1,4.201797485E0
1.199472588E0,-2.145233154E-1,7.502899170E-1,4.346679688E0
1.201944512E0,-1.729736328E-1,6.959686279E-1,4.536285400E0
1.204385918E0,-1.623229980E-1,6.427001953E-1,4.772781372E0
1.206857842E0,-1.612548828E-1,5.585479736E-1,5.033767700E0
1.209329766E0,-1.506042480E-1,4.413604736E-1,5.276657104E0
1.211771172E0,-1.420745850E-1,3.572082520E-1,5.503555298E0
1.214243096E0,-1.495361328E-1,3.082122803E-1,5.636703491E0
1.216715020E0,-1.719055176E-1,3.007507324E-1,5.503555298E0
1.219156426E0,-1.878814697E-1,3.295135498E-1,5.173324585E0
1.221628350E0,-1.825561523E-1,3.625335693E-1,4.798355103E0
1.224100274E0,-1.623229980E-1,3.742523193E-1,4.434020996E0
1.226572197E0,-1.346282959E-1,3.763885498E-1,4.127227783E0
1.229013604E0,-1.111907959E-1,3.678588867E-1,3.891815186E0
1.231485528E0,-1.111907959E-1,3.561401367E-1,3.732025146E0
1.233957451E0,-1.442108154E-1,3.231201172E-1,3.638275146E0
1.236398858E0,-1.974792480E-1,2.741241455E-1,3.592468262E0
1.238870781E0,-2.486114502E-1,2.560119629E-1,3.567962646E0
1.241342705E0,-3.040008545E-1,2.421569824E-1,3.544525146E0
1.243784112E0,-3.721771240E-1,2.123413086E-1,3.506179810E0
1.246256035E0,-4.382171631E-1,1.952972412E-1,3.456115723E0
1.248727959E0,-4.978790283E-1,2.219238281E-1,3.404983521E0
1.251169365E0,-5.639190674E-1,2.496185303E-1,3.354919434E0
1.253641289E0,-6.352996826E-1,2.336425781E-1,3.300582886E0
1.256113213E0,-7.098693848E-1,2.144622803E-1,3.262237549E0
1.258554619E0,-7.833709717E-1,2.208557129E-1,3.238800049E0
1.261026543E0,-8.504791260E-1,2.197875977E-1,3.232406616E0
1.263498467E0,-8.994750977E-1,2.123413086E-1,3.241989136E0
1.265939873E0,-9.463500977E-1,2.144622803E-1,3.263305664E0
1.268411797E0,-9.761810303E-1,2.102050781E-1,3.302719116E0
1.270883721E0,-9.889678955E-1,1.686553955E-1,3.343200684E0
1.273355645E0,-9.857635498E-1,8.982849121E-2,3.379409790E0
1.275797051E0,-9.612731934E-1,-1.136779785E-2,3.407119751E0
1.278268975E0,-9.293060303E-1,-1.370697021E-1,3.425216675E0
1.280740899E0,-8.834991455E-1,-2.808837891E-1,3.436935425E0
1.283182305E0,-8.174591064E-1,-4.374847412E-1,3.429489136E0
1.285654229E0,-7.354278564E-1,-5.770263672E-1,3.412445068E0
1.288126153E0,-6.661834717E-1,-7.091217041E-1,3.394332886E0
1.290567559E0,-6.001434326E-1,-8.603820801E-1,3.374084473E0
1.293039483E0,-5.362243652E-1,-1.024444580E0,3.335739136E0
1.295511406E0,-4.723052979E-1,-1.183166504E0,3.281417847E0
1.297952813E0,-4.009399414E-1,-1.316314697E0,3.213241577E0
1.300424737E0,-3.306274414E-1,-1.399414062E0,3.125885010E0
1.302896660E0,-2.709808350E-1,-1.411132812E0,3.028945923E0
1.305338067E0,-2.219696045E-1,-1.349349976E0,2.933074951E0
1.307809990E0,-1.857604980E-1,-1.276901245E0,2.837188721E0
1.310281914E0,-1.687164307E-1,-1.204467773E0,2.734924316E0
1.312723321E0,-1.676483154E-1,-1.125640869E0,2.626266479E0
1.315195244E0,-1.708374023E-1,-1.047866821E0,2.525070190E0
1.317667168E0,-1.814880371E-1,-9.615936279E-1,2.426010132E0
1.320108574E0,-1.836242676E-1,-8.465423584E-1,2.333328247E0
1.322580498E0,-1.878814697E-1,-7.187042236E-1,2.257690430E0
1.325052422E0,-1.921539307E-1,-5.983276367E-1,2.194839478E0
1.327493828E0,-1.942749023E-1,-4.843444824E-1,2.146911621E0
1.329965752E0,-1.921539307E-1,-3.778228760E-1,2.097900391E0
1.332437676E0,-1.932067871E-1,-2.872772217E-1,2.055297852E0
1.334909600E0,-1.921539307E-1,-1.967315674E-1,2.022262573E0
1.337351006E0,-1.782989502E-1,-1.093750000E-1,1.993499756E0
1.339822930E0,-1.676483154E-1,-5.078125000E-2,1.959411621E0
1.342294854E0,-1.506042480E-1,-1.669311523E-2,1.915740967E0
1.344736260E0,-1.410064697E-1,-6.042480469E-3,1.869934082E0
1.347208184E0,-1.260986328E-1,-1.882934570E-2,1.825195312E0
1.349680108E0,-1.090545654E-1,-4.545593262E-2,1.776199341E0
1.352121514E0,-9.201049805E-2,-9.979248047E-2,1.730392456E0
1.354593438E0,-6.857299805E-2,-1.924591064E-1,1.695236206E0
1.357065362E0,-5.152893066E-2,-2.766265869E-1,1.666473389E0
1.359506768E0,-4.620361328E-2,-3.352050781E-1,1.637710571E0
1.361978692E0,-2.809143066E-2,-3.565216064E-1,1.605743408E0
1.364450615E0,-1.104736328E-2,-3.703613281E-1,1.581253052E0
1.366892022E0,-1.850891113E-2,-3.852844238E-1,1.566329956E0
1.369363946E0,-4.301452637E-2,-3.970031738E-1,1.564208984E0
1.371835869E0,-8.454895020E-2,-3.980560303E-1,1.571655273E0
1.374307793E0,-1.111907959E-1,-3.565216064E-1,1.558883667E0
1.376749199E0,-1.260986328E-1,-3.085784912E-1,1.532241821E0
1.379221123E0,-1.463470459E-1,-2.478637695E-1,1.505615234E0
1.381693047E0,-1.484680176E-1,-1.743621826E-1,1.475784302E0
1.384134453E0,-1.356811523E-1,-9.979248047E-2,1.429977417E0
1.386606377E0,-1.186370850E-1,-2.947998047E-2,1.370330811E0
1.389078301E0,-1.005401611E-1,3.230285645E-2,1.317062378E0
1.391519707E0,-8.561706543E-2,6.745910645E-2,1.273391724E0
1.393991631E0,-8.135986328E-2,6.320190430E-2,1.230773926E0
1.396463555E0,-7.710266113E-2,3.123474121E-2,1.195617676E0
1.398935479E0,-8.926391602E-3,6.425476074E-2,1.153015137E0
1.401376885E0,1.231689453E-1,1.505432129E-1,1.072052002E0
1.403848809E0,1.934814453E-1,1.313781738E-1,1.008132935E0
1.406290215E0,1.924133301E-1,7.704162598E-2,9.708557129E-1
1.408762139E0,2.307586670E-1,1.058044434E-1,9.133300781E-1
1.411234063E0,3.127899170E-1,1.761169434E-1,8.238525391E-1
1.413675469E0,3.522033691E-1,1.963500977E-1,7.396850586E-1
1.416147393E0,3.490142822E-1,1.846313477E-1,6.555328369E-1
1.418619317E0,3.223724365E-1,1.558685303E-1,5.692443848E-1
1.421060723E0,2.776336670E-1,1.154022217E-1,4.712371826E-1
1.423532647E0,2.286376953E-1,1.026153564E-1,3.519287109E-1
1.426004571E0,2.009429932E-1,9.196472168E-2,2.272949219E-1
1.428476494E0,1.785583496E-1,7.704162598E-2,9.947204590E-2
1.430917901E0,1.689758301E-1,6.852722168E-2,-3.369140625E-2
1.433389824E0,2.637939453E-1,1.995544434E-1,-1.306304932E-1
1.435861748E0,4.438171387E-1,3.891601562E-1,-2.052001953E-1
1.438303154E0,5.247802734E-1,4.051513672E-1,-2.755126953E-1
1.440775078E0,4.395599365E-1,2.421569824E-1,-4.193115234E-1
1.443247002E0,3.000030518E-1,7.278442383E-2,-5.663299561E-1
1.445688408E0,1.647186279E-1,-6.037902832E-2,-6.877593994E-1
1.448160332E0,8.056640625E-2,-1.179046631E-1,-7.942962646E-1
1.450632256E0,6.138610840E-2,-6.677246094E-2,-8.837738037E-1
1.453073662E0,1.029357910E-1,8.343505859E-2,-9.466247559E-1
1.455545586E0,1.679077148E-1,3.114013672E-1,-9.721832275E-1
1.458017510E0,2.297058105E-1,5.052795410E-1,-9.295806885E-1
1.460458916E0,2.733764648E-1,6.458892822E-1,-8.315734863E-1
1.462930840E0,2.765655518E-1,7.407073975E-1,-7.740478516E-1
1.465402764E0,2.627258301E-1,7.769165039E-1,-7.463531494E-1
1.467844170E0,2.414093018E-1,7.684020996E-1,-7.175903320E-1
1.470316094E0,2.297058105E-1,7.300567627E-1,-6.888275146E-1
1.472788018E0,2.275695801E-1,7.428283691E-1,-6.451568604E-1
1.475229424E0,2.179870605E-1,8.451080322E-1,-5.652618408E-1
1.477701348E0,2.137145996E-1,8.674774170E-1,-4.001464844E-1
1.480173272E0,2.052001953E-1,8.078155518E-1,-2.424774170E-1
1.482645196E0,1.892242432E-1,6.885070801E-1,-1.519317627E-1
1.485086602E0,1.700439453E-1,5.862426758E-1,-1.231689453E-1
1.487558526E0,1.412811279E-1,5.404357910E-1,-1.040039062E-1
1.490030449E0,1.040039062E-1,5.052795410E-1,-9.335327148E-2
1.492471856E0,5.606079102E-2,4.711914062E-1,-9.014892578E-2
1.494943779E0,7.064819336E-3,4.594726562E-1,-7.949829102E-2
1.497415703E0,-4.940795898E-2,4.466857910E-1,-5.819702148E-2
1.499857110E0,-1.165161133E-1,4.115447998E-1,-3.050231934E-2
1.502329033E0,-1.761627197E-1,3.785095215E-1,-3.860473633E-3
1.504800957E0,-2.262420654E-1,3.636016846E-1,1.318359375E-2
1.507242363E0,-2.688446045E-1,3.550720215E-1,2.062988281E-2
1.509714287E0,-2.997436523E-1,2.879638672E-1,2.809143066E-2
1.512186211E0,-3.071899414E-1,1.601409912E-1,3.341674805E-2
1.514627617E0,-2.912139893E-1,2.590942383E-2,2.169799805E-2
1.517099541E0,-2.635192871E-1,-1.040496826E-1,-1.239013672E-2
1.519571465E0,-2.241058350E-1,-2.297515869E-1,-4.966735840E-2
1.522012871E0,-1.878814697E-1,-3.448028564E-1,-7.310485840E-2
1.524484795E0,-1.655120850E-1,-4.406738281E-1,-8.589172363E-2
1.526956719E0,-1.591186523E-1,-5.184326172E-1,-7.524108887E-2
1.529428643E0,-1.655120850E-1,-5.930023193E-1,-4.966735840E-2
1.531870049E0,-1.964111328E-1,-6.665039062E-1,-1.345825195E-2
1.534341973E0,-2.443389893E-1,-7.314910889E-1,3.129577637E-2
1.536813897E0,-3.018646240E-1,-7.911376953E-1,8.880615234E-2
1.539255303E0,-3.668518066E-1,-8.539886475E-1,1.537933350E-1
1.541727227E0,-4.478149414E-1,-9.200439453E-1,2.251739502E-1
1.544199151E0,-5.277099609E-1,-9.701080322E-1,2.880249023E-1
1.546640557E0,-6.033325195E-1,-1.015914917E0,3.338317871E-1
1.549112481E0,-6.821746826E-1,-1.063858032E0,3.689727783E-1
1.551584404E0,-7.546081543E-1,-1.108596802E0,3.913421631E-1
1.554025811E0,-8.174591064E-1,-1.143753052E0,3.998718262E-1
1.556497735E0,-8.685913086E-1,-1.168243408E0,4.073333740E-1
1.558969658E0,-9.101409912E-1,-1.198074341E0,4.179840088E-1
1.561411065E0,-9.495544434E-1,-1.235366821E0,4.339599609E-1
1.563882988E0,-9.772491455E-1,-1.270507812E0,4.627227783E-1
1.566354912E0,-1.001754761E0,-1.293945312E0,4.850921631E-1
1.568796319E0,-1.021987915E0,-1.318450928E0,5.063934326E-1
1.571268242E0,-1.046493530E0,-1.340820312E0,5.266418457E-1
1.573740166E0,-1.057144165E0,-1.358932495E0,5.447540283E-1
1.576181572E0,-1.062469482E0,-1.373840332E0,5.596618652E-1
1.578653496E0,-1.067794800E0,-1.382369995E0,5.798950195E-1
1.581125420E0,-1.074188232E0,-1.395156860E0,6.129302979E-1
1.583597344E0,-1.078445435E0,-1.412200928E0,6.480712891E-1
1.586038750E0,-1.082702637E0,-1.420715332E0,6.789703369E-1
1.588510674E0,-1.083770752E0,-1.422851562E0,7.024078369E-1
1.590982598E0,-1.090164185E0,-1.427108765E0,7.258453369E-1
1.593424004E0,-1.091232300E0,-1.430297852E0,7.556762695E-1
1.595895928E0,-1.094421387E0,-1.435623169E0,7.961425781E-1
1.598367852E0,-1.096557617E0,-1.449478149E0,8.536682129E-1
1.600809258E0,-1.093353271E0,-1.464385986E0,9.378356934E-1
1.603281182E0,-1.080581665E0,-1.480377197E0,1.066726685E0
1.605753106E0,-1.066726685E0,-1.486755371E0,1.265930176E0
1.608194512E0,-1.027313232E0,-1.459060669E0,1.480041504E0
1.610666436E0,-9.708557129E-1,-1.379165649E0,1.680313110E0
1.613138360E0,-8.930969238E-1,-1.246017456E0,1.846496582E0
1.615610283E0,-8.057403564E-1,-1.099014282E0,1.914672852E0
1.618051690E0,-7.141265869E-1,-9.828948975E-1,1.876327515E0
1.620523613E0,-6.171875000E-1,-8.731689453E-1,1.758087158E0
1.622995537E0,-5.223846436E-1,-7.272338867E-1,1.565277100E0
1.625436944E0,-4.137268066E-1,-5.812835693E-1,1.432113647E0
1.627908867E0,-2.858886719E-1,-4.385375977E-1,1.380981445E0
1.630380791E0,-1.569976807E-1,-3.085784912E-1,1.346893311E0
1.632822197E0,-4.513549805E-2,-1.786193848E-1,1.279785156E0
1.635294121E0,4.434204102E-2,-5.610656738E-2,1.197753906E0
1.637766045E0,1.327667236E-1,-1.785278320E-3,1.150878906E0
1.640207451E0,2.233123779E-1,9.933471680E-3,1.124252319E0
1.642679375E0,2.968139648E-1,1.312255859E-2,1.098678589E0
1.645151299E0,3.553924561E-1,4.615783691E-2,1.094421387E0
1.647592705E0,4.044036865E-1,1.217803955E-1,1.127441406E0
1.650064629E0,4.384918213E-1,2.144622803E-1,1.168991089E0
1.652536553E0,4.608612061E-1,3.092803955E-1,1.241424561E0
1.654977959E0,4.853668213E-1,4.360351562E-1,1.383102417E0
1.657449883E0,5.194549561E-1,5.904998779E-1,1.571655273E0
1.659921807E0,5.460815430E-1,7.438964844E-1,1.764480591E0
1.662363213E0,5.524749756E-1,8.653411865E-1,1.943435669E0
1.664835137E0,5.492706299E-1,9.430999756E-1,2.104293823E0
1.667307061E0,5.386199951E-1,1.002761841E0,2.249176025E0
1.669748467E0,5.237121582E-1,1.034713745E0,2.379135132E0
1.672220391E0,4.992065430E-1,1.043243408E0,2.497375488E0
1.674692315E0,4.661865234E-1,1.030456543E0,2.604965210E0
1.677133721E0,4.342346191E-1,1.000625610E0,2.704040527E0
1.679605645E0,4.022674561E-1,9.313812256E-1,2.796722412E0
1.682077569E0,3.703155518E-1,8.365783691E-1,2.881942749E0
1.684549492E0,3.447418213E-1,7.438964844E-1,2.962890625E0
1.686990899E0,3.202514648E-1,6.288452148E-1,3.042785645E0
1.689462822E0,2.936096191E-1,5.010223389E-1,3.115234375E0
1.691934746E0,2.723083496E-1,3.721160889E-1,3.182342529E0
1.694376153E0,2.605895996E-1,2.272491455E-1,3.252655029E0
1.696848076E0,2.478027344E-1,8.129882812E-2,3.317626953E0
1.699320000E0,2.392883301E-1,-6.356811523E-2,3.381546021E0
1.701761406E0,2.360839844E-1,-2.063140869E-1,3.442260742E0
1.704233330E0,2.318267822E-1,-3.469238281E-1,3.501922607E0
1.706705254E0,2.360839844E-1,-4.896697998E-1,3.560516357E0
1.709146660E0,2.403564453E-1,-6.292266846E-1,3.622299194E0
1.711618584E0,2.350311279E-1,-7.549285889E-1,3.681945801E0
1.714090508E0,2.275695801E-1,-8.667755127E-1,3.738403320E0
1.716531914E0,2.254333496E-1,-9.860839844E-1,3.791671753E0
1.719003838E0,2.211761475E-1,-1.106460571E0,3.846008301E0
1.721475762E0,2.190399170E-1,-1.212997437E0,3.897140503E0
1.723917168E0,2.126617432E-1,-1.310989380E0,3.941879272E0
1.726389092E0,2.094573975E-1,-1.394088745E0,3.920562744E0
1.728861016E0,2.126617432E-1,-1.452667236E0,3.760772705E0
1.731332940E0,2.275695801E-1,-1.497421265E0,3.477416992E0
1.733774346E0,2.510070801E-1,-1.528305054E0,3.032135010E0
1.736246270E0,2.552642822E-1,-1.567718506E0,2.471817017E0
1.738718194E0,2.478027344E-1,-1.578369141E0,1.959411621E0
1.741159600E0,1.945495605E-1,-1.615661621E0,1.548233032E0
1.743631524E0,9.866333008E-2,-1.698745728E0,1.240371704E0
1.746103447E0,7.064819336E-3,-1.733901978E0,1.080581665E0
1.748544854E0,-7.389831543E-2,-1.724319458E0,1.040100098E0
1.751016778E0,-1.282348633E-1,-1.672119141E0,1.049682617E0
1.753458184E0,-1.356811523E-1,-1.584762573E0,1.102951050E0
1.755930108E0,-1.260986328E-1,-1.485702515E0,1.173248291E0
1.758402031E0,-1.090545654E-1,-1.405807495E0,1.241424561E0
1.760873955E0,-8.987426758E-2,-1.345077515E0,1.305343628E0
1.763315362E0,-6.431579590E-2,-1.300338745E0,1.362869263E0
1.765787285E0,-3.448486328E-2,-1.280105591E0,1.418258667E0
1.768259209E0,-9.979248047E-3,-1.269454956E0,1.477920532E0
1.770700615E0,2.410888672E-2,-1.273712158E0,1.539703369E0
1.773172539E0,9.333801270E-2,-1.281173706E0,1.600418091E0
1.775644463E0,1.551361084E-1,-1.298217773E0,1.660079956E0
1.778085869E0,2.169189453E-1,-1.299270630E0,1.737838745E0
1.780557793E0,2.808380127E-1,-1.248138428E0,1.835845947E0
1.783029717E0,3.564605713E-1,-1.165054321E0,1.940246582E0
1.785501641E0,4.566040039E-1,-1.057464600E0,2.057418823E0
1.787943047E0,5.546112061E-1,-9.413452148E-1,2.179931641E0
1.790414971E0,6.376953125E-1,-8.433380127E-1,2.292846680E0
1.792886895E0,7.133331299E-1,-7.709045410E-1,2.394042969E0
1.795328301E0,7.836303711E-1,-7.059173584E-1,2.489913940E0
1.797800225E0,8.518066406E-1,-6.473388672E-1,2.579406738E0
1.800272149E0,9.125366211E-1,-5.951385498E-1,2.669952393E0
1.802713555E0,9.647369385E-1,-5.599822998E-1,2.759429932E0
1.805185479E0,1.020126343E0,-5.418701172E-1,2.842529297E0
1.807657403E0,1.072326660E0,-5.397491455E-1,2.920288086E0
1.810129326E0,1.109603882E0,-5.408020020E-1,2.986328125E0
1.812570733E0,1.129852295E0,-5.557250977E-1,3.039596558E0
1.815042656E0,1.153289795E0,-5.951385498E-1,3.088592529E0
1.817484063E0,1.180984497E0,-6.547851562E-1,3.130142212E0
1.819955987E0,1.201217651E0,-7.155151367E-1,3.167434692E0
1.822427910E0,1.199081421E0,-7.506713867E-1,3.200454712E0
1.824869317E0,1.176712036E0,-7.804870605E-1,3.236663818E0
1.827341240E0,1.152221680E0,-8.316192627E-1,3.263305664E0
1.829813164E0,1.131973267E0,-9.136505127E-1,3.279281616E0
1.832285088E0,1.115997314E0,-1.012725830E0,3.301651001E0
1.834726494E0,1.106414795E0,-1.141616821E0,3.355972290E0
1.837198418E0,1.106414795E0,-1.332305908E0,3.501922607E0
1.839670342E0,1.124526978E0,-1.592224121E0,3.816177368E0
1.842111748E0,1.137298584E0,-1.917129517E0,4.338150024E0
1.844583672E0,1.133041382E0,-2.215408325E0,5.033767700E0
1.847055596E0,1.096817017E0,-2.440170288E0,5.833786011E0
1.849497002E0,1.087234497E0,-2.629791260E0,6.535797119E0
1.851968926E0,1.049957275E0,-2.832199097E0,6.857498169E0
1.854440850E0,8.443603516E-1,-3.089981079E0,6.576278687E0
1.856882256E0,4.768371582E-1,-3.432998657E0,5.667602539E0
1.859354180E0,2.090454102E-2,-3.849517822E0,4.262512207E0
1.861826104E0,-5.085296631E-1,-4.291610718E0,2.582595825E0
1.864267510E0,-1.053939819E0,-4.554718018E0,8.781738281E-1
1.866739434E0,-1.508819580E0,-4.513183594E0,-5.535430908E-1
1.869211358E0,-1.818801880E0,-4.194671631E0,-1.544235229E0
1.871652764E0,-1.983917236E0,-3.736602783E0,-2.120544434E0
1.874124688E0,-2.036117554E0,-3.213562012E0,-2.399642944E0
1.876596612E0,-2.006286621E0,-2.666015625E0,-2.478469849E0
1.879068535E0,-1.922134399E0,-2.142959595E0,-2.412429810E0
1.881509942E0,-1.812408447E0,-1.665725708E0,-2.254760742E0
1.883981865E0,-1.687774658E0,-1.238555908E0,-2.052368164E0
1.886453789E0,-1.552490234E0,-8.539886475E-1,-1.829727173E0
1.888895196E0,-1.410812378E0,-4.960632324E-1,-1.610290527E0
1.891367119E0,-1.247817993E0,-1.818084717E-1,-1.411071777E0
1.893839043E0,-1.066726685E0,8.129882812E-2,-1.226791382E0
1.896280449E0,-8.685913086E-1,2.986145020E-1,-1.052078247E0
1.898752373E0,-6.597900391E-1,4.701232910E-1,-8.763122559E-1
1.901224297E0,-4.435424805E-1,6.000976562E-1,-7.005462646E-1
1.903665703E0,-2.262420654E-1,7.066192627E-1,-5.215759277E-1
1.906137627E0,-1.637268066E-2,7.833099365E-1,-3.394165039E-1
1.908609551E0,1.593933105E-1,8.333892822E-1,-1.625823975E-1
1.911050957E0,2.914886475E-1,8.674774170E-1,2.532958984E-3
1.913522881E0,3.852233887E-1,8.930358887E-1,1.431427002E-1
1.915994805E0,4.555358887E-1,9.058227539E-1,2.688446045E-1
1.918436211E0,5.002746582E-1,9.132843018E-1,3.742980957E-1
1.920908135E0,5.258483887E-1,9.090118408E-1,4.627227783E-1
1.923380059E0,5.407562256E-1,8.983612061E-1,5.372924805E-1
1.925821465E0,5.396881104E-1,8.749237061E-1,5.916137695E-1
1.928293389E0,5.343627930E-1,8.408355713E-1,6.246490479E-1
1.930765313E0,5.183868408E-1,7.960968018E-1,6.310272217E-1
1.933237237E0,4.917602539E-1,7.449645996E-1,6.129302979E-1
1.935678643E0,4.619293213E-1,6.810455322E-1,5.745697021E-1
1.938150567E0,4.352874756E-1,6.128692627E-1,5.095977783E-1
1.940622490E0,4.054718018E-1,5.276489258E-1,4.264984131E-1
1.943063897E0,3.692474365E-1,4.371032715E-1,3.306274414E-1
1.945535821E0,3.330230713E-1,3.401641846E-1,2.304992676E-1
1.948007744E0,2.925415039E-1,2.389678955E-1,1.303558350E-1
1.950449151E0,2.563323975E-1,1.356353760E-1,4.087829590E-2
1.952921074E0,2.179870605E-1,4.508972168E-2,-2.729797363E-2
1.955392998E0,1.732330322E-1,-2.841186523E-2,-7.524108887E-2
1.957834404E0,1.284942627E-1,-9.339904785E-2,-9.973144531E-2
1.960306328E0,8.161926270E-2,-1.455993652E-1,-1.093292236E-1
1.962778252E0,3.369140625E-2,-1.839447021E-1,-1.018676758E-1
1.965219658E0,-1.211547852E-2,-2.127075195E-1,-7.736206055E-2
1.967691582E0,-6.538391113E-2,-2.297515869E-1,-5.287170410E-2
1.970163506E0,-1.111907959E-1,-2.382659912E-1,-2.622985840E-2
1.972604912E0,-1.559295654E-1,-2.425384521E-1,-4.928588867E-3
1.975076836E0,-2.006683350E-1,-2.340087891E-1,9.979248047E-3
1.977548760E0,-2.400817871E-1,-2.169647217E-1,2.383422852E-2
1.980020684E0,-2.699127197E-1,-2.009887695E-1,3.767395020E-2
1.982462090E0,-3.018646240E-1,-1.828765869E-1,4.513549805E-2
1.984934014E0,-3.253021240E-1,-1.626434326E-1,4.727172852E-2
1.987405938E0,-3.402252197E-1,-1.423950195E-1,4.727172852E-2
1.989847344E0,-3.476715088E-1,-1.274871826E-1,4.406738281E-2
1.992319268E0,-3.540649414E-1,-1.083068848E-1,4.406738281E-2
1.994791192E0,-3.519287109E-1,-8.914184570E-2,4.513549805E-2
1.997232598E0,-3.423461914E-1,-7.742309570E-2,4.513549805E-2
1.999704522E0,-3.316955566E-1,-5.505371094E-2,4.727172852E-2
2.002176446E0,-3.242340088E-1,-2.629089355E-2,5.152893066E-2
2.004617852E0,-3.167877197E-1,1.100158691E-2,5.366516113E-2
2.007089776E0,-3.061370850E-1,5.999755859E-2,5.471801758E-2
2.009561699E0,-3.093261719E-1,1.217803955E-1,5.152893066E-2
2.012003106E0,-3.263702393E-1,2.006225586E-1,4.406738281E-2
2.014475029E0,-3.391571045E-1,2.751770020E-1,3.234863281E-2
2.016946953E0,-3.274383545E-1,3.231201172E-1,1.744079590E-2
2.019388360E0,-2.986755371E-1,3.518829346E-1,-4.928588867E-3
2.021860283E0,-2.677764893E-1,3.614654541E-1,-2.729797363E-2
2.024332207E0,-2.347564697E-1,3.508148193E-1,-5.606079102E-2
2.026773613E0,-2.028045654E-1,3.252563477E-1,-8.056640625E-2
2.029245537E0,-1.687164307E-1,2.911682129E-1,-9.335327148E-2
2.031717461E0,-1.367492676E-1,2.432250977E-1,-9.761047363E-2
2.034189385E0,-1.047973633E-1,1.920928955E-1,-9.335327148E-2
2.036630791E0,-8.029174805E-2,1.441497803E-1,-8.482360840E-2
2.039102715E0,-6.005859375E-2,1.036834717E-1,-7.524108887E-2
2.041574639E0,-4.940795898E-2,7.064819336E-2,-6.459045410E-2
2.044016045E0,-4.087829590E-2,4.721069336E-2,-5.392456055E-2
2.046487969E0,-4.406738281E-2,3.762817383E-2,-4.754638672E-2
2.048959893E0,-5.366516113E-2,3.443908691E-2,-4.008483887E-2
2.051401299E0,-6.005859375E-2,4.295349121E-2,-3.262329102E-2
2.053873223E0,-8.135986328E-2,7.492065430E-2,-2.197265625E-2
2.056345147E0,-1.111907959E-1,1.228485107E-1,-1.739501953E-3
2.058786553E0,-1.431427002E-1,1.803741455E-1,5.722045898E-3
2.061258477E0,-1.687164307E-1,2.347106934E-1,6.790161133E-3
2.063730401E0,-1.868133545E-1,2.687988281E-1,-1.739501953E-3
2.066171807E0,-1.953430176E-1,2.901000977E-1,-1.664733887E-2
2.068643731E0,-1.932067871E-1,3.018188477E-1,-3.475952148E-2
2.071115654E0,-1.868133545E-1,3.039398193E-1,-5.926513672E-2
2.073557061E0,-1.750946045E-1,3.007507324E-1,-8.801269531E-2
2.076028985E0,-1.591186523E-1,2.954254150E-1,-1.093292236E-1
2.078500908E0,-1.420745850E-1,2.943572998E-1,-1.210479736E-1
2.080972832E0,-1.271667480E-1,2.996826172E-1,-1.253051758E-1
2.083414238E0,-1.143798828E-1,3.135375977E-1,-1.189117432E-1
2.085886162E0,-9.840393066E-2,3.220520020E-1,-1.178436279E-1
2.088358086E0,-8.987426758E-2,3.231201172E-1,-1.157226562E-1
2.090799492E0,-8.242797852E-2,3.241882324E-1,-1.114501953E-1
2.093271416E0,-7.922363281E-2,3.231201172E-1,-1.061248779E-1
2.095743340E0,-7.603454590E-2,3.231201172E-1,-1.018676758E-1
2.098184746E0,-7.177734375E-2,3.209838867E-1,-9.228515625E-2
2.100656670E0,-7.070922852E-2,3.316497803E-1,-7.524108887E-2
2.103128594E0,-7.496643066E-2,3.476257324E-1,-5.712890625E-2
2.105570000E0,-8.135986328E-2,3.550720215E-1,-4.434204102E-2
2.108041924E0,-8.775329590E-2,3.614654541E-1,-3.369140625E-2
2.110513848E0,-9.840393066E-2,3.625335693E-1,-2.517700195E-2
2.112955254E0,-1.090545654E-1,3.614654541E-1,-1.878356934E-2
2.115427178E0,-1.186370850E-1,3.593444824E-1,-4.928588867E-3
2.117899102E0,-1.250305176E-1,3.572082520E-1,1.318359375E-2
2.120340508E0,-1.356811523E-1,3.604125977E-1,2.597045898E-2
2.122812432E0,-1.420745850E-1,3.486938477E-1,2.915954590E-2
2.125284356E0,-1.420745850E-1,3.231201172E-1,3.234863281E-2
2.127725762E0,-1.410064697E-1,2.943572998E-1,3.448486328E-2
2.130197686E0,-1.388854980E-1,2.624053955E-1,3.341674805E-2
2.132669610E0,-1.260986328E-1,2.251129150E-1,3.662109375E-2
2.135141533E0,-1.165161133E-1,1.878356934E-1,4.087829590E-2
2.137582940E0,-1.101226807E-1,1.590728760E-1,4.833984375E-2
2.140054863E0,-1.058654785E-1,1.420288086E-1,5.899047852E-2
2.142526787E0,-1.133117676E-1,1.388244629E-1,6.857299805E-2
2.144968194E0,-1.197052002E-1,1.271057129E-1,7.176208496E-2
2.147440117E0,-1.122589111E-1,1.004791260E-1,7.710266113E-2
2.149912041E0,-1.015930176E-1,7.597351074E-2,8.029174805E-2
2.152353447E0,-1.047973633E-1,5.999755859E-2,7.815551758E-2
2.154825371E0,-1.037292480E-1,5.041503906E-2,7.815551758E-2
2.157297295E0,-1.133117676E-1,5.999755859E-2,7.815551758E-2
2.159738701E0,-1.388854980E-1,8.236694336E-2,7.815551758E-2
2.162210625E0,-1.687164307E-1,1.111297607E-1,8.775329590E-2
2.164682549E0,-2.006683350E-1,1.345672607E-1,9.733581543E-2
2.167123955E0,-2.262420654E-1,1.505432129E-1,9.840393066E-2
2.169595879E0,-2.475433350E-1,1.526794434E-1,9.626770020E-2
2.172067803E0,-2.581939697E-1,1.494903564E-1,8.987426758E-2
2.174509209E0,-2.677764893E-1,1.398925781E-1,8.135986328E-2
2.176981133E0,-2.581939697E-1,1.217803955E-1,7.389831543E-2
2.179453057E0,-2.390136719E-1,9.515380859E-2,6.111145020E-2
2.181894463E0,-2.091979980E-1,7.492065430E-2,5.685424805E-2
2.184366387E0,-1.793670654E-1,5.680847168E-2,5.259704590E-2
2.186838311E0,-1.495361328E-1,4.615783691E-2,4.833984375E-2
2.189310235E0,-1.229095459E-1,4.188537598E-2,4.406738281E-2
2.191751641E0,-9.626770020E-2,4.402160645E-2,3.874206543E-2
2.194223565E0,-7.603454590E-2,5.148315430E-2,3.129577637E-2
2.196695488E0,-5.578613281E-2,6.425476074E-2,2.702331543E-2
2.199136895E0,-4.301452637E-2,7.917785645E-2,2.383422852E-2
2.201608819E0,-3.448486328E-2,9.196472168E-2,1.850891113E-2
2.204080742E0,-2.597045898E-2,1.036834717E-1,1.211547852E-2
2.206522149E0,-1.744079590E-2,1.154022217E-1,7.858276367E-3
2.208994072E0,-9.979248047E-3,1.271057129E-1,3.585815430E-3
2.211465996E0,-7.858276367E-3,1.324462891E-1,-6.713867188E-4
2.213907403E0,-1.464843750E-3,1.367034912E-1,-1.739501953E-3
2.216379326E0,1.025390625E-2,1.356353760E-1,-4.928588867E-3
2.218851250E0,1.132202148E-2,1.271057129E-1,-1.739501953E-3
2.221292656E0,1.451110840E-2,1.164550781E-1,3.967285156E-4
2.223764580E0,2.304077148E-2,9.941101074E-2,2.532958984E-3
2.226236504E0,2.836608887E-2,7.704162598E-2,7.858276367E-3
2.228677910E0,2.836608887E-2,4.402160645E-2,1.425170898E-2
2.231149834E0,3.369140625E-2,1.951599121E-2,1.957702637E-2
2.233621758E0,4.008483887E-2,-4.974365234E-3,2.276611328E-2
2.236093682E0,4.434204102E-2,-2.415466309E-2,3.234863281E-2
2.238535088E0,5.180358887E-2,-4.438781738E-2,4.087829590E-2
2.241007012E0,7.096862793E-2,-5.931091309E-2,4.833984375E-2
2.243478936E0,8.268737793E-2,-6.889343262E-2,5.685424805E-2
2.245920342E0,9.440612793E-2,-7.528686523E-2,6.538391113E-2
2.248392266E0,8.908081055E-2,-7.209777832E-2,6.324768066E-2
2.250864190E0,7.949829102E-2,-7.315063477E-2,6.111145020E-2
2.253305596E0,7.524108887E-2,-6.677246094E-2,5.685424805E-2
2.255777520E0,7.096862793E-2,-5.824279785E-2,5.366516113E-2
2.258249444E0,5.392456055E-2,-5.291748047E-2,5.152893066E-2
2.260690850E0,3.475952148E-2,-4.759216309E-2,4.513549805E-2
2.263162774E0,2.304077148E-2,-4.759216309E-2,3.874206543E-2
2.265634697E0,9.185791016E-3,-4.438781738E-2,3.022766113E-2
2.268076104E0,-1.464843750E-3,-4.545593262E-2,2.383422852E-2
2.270548028E0,-2.532958984E-3,-4.545593262E-2,2.383422852E-2
2.273019951E0,-1.318359375E-2,-5.184936523E-2,2.915954590E-2
2.275461358E0,-4.194641113E-2,-5.610656738E-2,2.276611328E-2
2.277933281E0,-5.899047852E-2,-6.037902832E-2,1.850891113E-2
2.280405205E0,-5.259704590E-2,-6.782531738E-2,2.062988281E-2
2.282877129E0,-3.662109375E-2,-8.168029785E-2,3.022766113E-2
2.285318535E0,-1.744079590E-2,-9.658813477E-2,4.301452637E-2
2.287790459E0,6.713867188E-4,-1.093750000E-1,4.620361328E-2
2.290262383E0,1.344299316E-2,-1.189575195E-1,4.620361328E-2
2.292703789E0,2.197265625E-2,-1.221618652E-1,4.194641113E-2
2.295175713E0,2.622985840E-2,-1.306762695E-1,3.662109375E-2
2.297647637E0,2.729797363E-2,-1.328125000E-1,2.915954590E-2
2.300089043E0,2.622985840E-2,-1.285552979E-1,2.490234375E-2
2.302560967E0,2.410888672E-2,-1.328125000E-1,3.022766113E-2
2.305032891E0,1.771545410E-2,-1.360015869E-1,3.874206543E-2
2.307474297E0,1.771545410E-2,-1.381378174E-1,4.194641113E-2
2.309946221E0,1.344299316E-2,-1.392059326E-1,5.046081543E-2
2.312418145E0,3.860473633E-3,-1.392059326E-1,5.152893066E-2
2.314859551E0,1.724243164E-3,-1.445312500E-1,5.578613281E-2
2.317331475E0,-5.722045898E-3,-1.466674805E-1,5.471801758E-2
2.319803399E0,-1.104736328E-2,-1.487884521E-1,5.259704590E-2
2.322244805E0,-1.318359375E-2,-1.487884521E-1,5.259704590E-2
2.324716729E0,-1.957702637E-2,-1.519927979E-1,5.259704590E-2
2.327188653E0,-1.850891113E-2,-1.519927979E-1,5.259704590E-2
2.329660576E0,-1.318359375E-2,-1.530456543E-1,5.792236328E-2
2.332101983E0,-1.425170898E-2,-1.541137695E-1,5.685424805E-2
2.334573906E0,-1.211547852E-2,-1.615753174E-1,6.005859375E-2
2.337045830E0,-1.104736328E-2,-1.658325195E-1,5.899047852E-2
2.339487237E0,-7.858276367E-3,-1.669006348E-1,5.578613281E-2
2.341959160E0,-1.531982422E-2,-1.711578369E-1,5.152893066E-2
2.344431084E0,-2.276611328E-2,-1.732940674E-1,5.366516113E-2
2.346872490E0,-2.597045898E-2,-1.700897217E-1,6.111145020E-2
2.349344414E0,-3.555297852E-2,-1.743621826E-1,6.750488281E-2
2.351816338E0,-4.620361328E-2,-1.775512695E-1,7.176208496E-2
2.354257744E0,-5.685424805E-2,-1.796875000E-1,7.815551758E-2
2.356729668E0,-6.750488281E-2,-1.828765869E-1,7.710266113E-2
2.359201592E0,-7.710266113E-2,-1.903381348E-1,7.496643066E-2
2.361673516E0,-8.561706543E-2,-1.924591064E-1,7.070922852E-2
2.364114922E0,-9.094238281E-2,-1.999206543E-1,6.964111328E-2
2.366586846E0,-9.201049805E-2,-2.031250000E-1,6.964111328E-2
2.369028252E0,-9.201049805E-2,-2.084503174E-1,6.324768066E-2
2.371500176E0,-8.349609375E-2,-2.127075195E-1,5.899047852E-2
2.373972100E0,-7.710266113E-2,-2.137756348E-1,5.578613281E-2
2.376444024E0,-6.538391113E-2,-2.116394043E-1,5.685424805E-2
2.378885430E0,-4.833984375E-2,-2.095184326E-1,5.366516113E-2
2.381357354E0,-2.915954590E-2,-2.063140869E-1,4.939270020E-2
2.383829278E0,-1.531982422E-2,-2.031250000E-1,4.620361328E-2
2.386270684E0,6.713867188E-4,-1.977996826E-1,4.194641113E-2
2.388742608E0,1.983642578E-2,-1.945953369E-1,3.767395020E-2
2.391214531E0,2.943420410E-2,-1.839447021E-1,3.129577637E-2
2.393686455E0,3.901672363E-2,-1.764831543E-1,3.129577637E-2
2.396127862E0,4.966735840E-2,-1.711578369E-1,2.809143066E-2
2.398599785E0,5.287170410E-2,-1.637115479E-1,2.169799805E-2
2.401041192E0,5.499267578E-2,-1.583709717E-1,1.850891113E-2
2.403513115E0,5.392456055E-2,-1.530456543E-1,1.744079590E-2
2.405985039E0,4.966735840E-2,-1.445312500E-1,1.957702637E-2
2.408426446E0,5.180358887E-2,-1.338806152E-1,1.744079590E-2
2.410898369E0,5.073547363E-2,-1.264190674E-1,1.957702637E-2
2.413370293E0,4.859924316E-2,-1.179046631E-1,2.169799805E-2
2.415811699E0,4.541015625E-2,-1.115112305E-1,3.022766113E-2
2.418283623E0,4.008483887E-2,-1.083068848E-1,3.874206543E-2
2.420755547E0,4.115295410E-2,-1.040496826E-1,4.194641113E-2
2.423196953E0,3.688049316E-2,-1.072387695E-1,4.513549805E-2
2.425668877E0,2.943420410E-2,-1.147003174E-1,5.366516113E-2
2.428140801E0,2.090454102E-2,-1.232299805E-1,5.792236328E-2
2.430612725E0,1.239013672E-2,-1.338806152E-1,6.324768066E-2
2.433054131E0,2.792358398E-3,-1.413269043E-1,6.217956543E-2
2.435526055E0,-2.532958984E-3,-1.487884521E-1,6.217956543E-2
2.437997979E0,-6.790161133E-3,-1.594390869E-1,6.111145020E-2
2.440439385E0,-7.858276367E-3,-1.647644043E-1,5.899047852E-2
2.442911309E0,-1.531982422E-2,-1.711578369E-1,6.111145020E-2
2.445352715E0,-1.637268066E-2,-1.775512695E-1,6.431579590E-2
2.447824639E0,-1.318359375E-2,-1.786193848E-1,6.111145020E-2
2.450296563E0,-1.211547852E-2,-1.764831543E-1,6.005859375E-2
2.452768487E0,-1.744079590E-2,-1.754150391E-1,5.685424805E-2
2.455209893E0,-1.850891113E-2,-1.732940674E-1,5.471801758E-2
2.457681817E0,-1.637268066E-2,-1.732940674E-1,5.259704590E-2
2.460153740E0,-2.064514160E-2,-1.679687500E-1,5.046081543E-2
2.462595147E0,-2.597045898E-2,-1.690368652E-1,5.046081543E-2
2.465067071E0,-2.597045898E-2,-1.711578369E-1,4.620361328E-2
2.467538994E0,-2.597045898E-2,-1.722259521E-1,4.513549805E-2
2.469980401E0,-3.022766113E-2,-1.722259521E-1,4.301452637E-2
2.472452324E0,-3.341674805E-2,-1.732940674E-1,4.194641113E-2
2.474924248E0,-3.874206543E-2,-1.743621826E-1,3.981018066E-2
2.477365654E0,-3.981018066E-2,-1.722259521E-1,3.767395020E-2
2.479837578E0,-4.513549805E-2,-1.732940674E-1,3.555297852E-2
2.482309502E0,-4.833984375E-2,-1.732940674E-1,2.809143066E-2
2.484781426E0,-4.833984375E-2,-1.764831543E-1,2.597045898E-2
2.487222832E0,-5.046081543E-2,-1.818084717E-1,2.276611328E-2
2.489694756E0,-5.366516113E-2,-1.892700195E-1,2.169799805E-2
2.492166680E0,-5.473327637E-2,-1.956634521E-1,2.383422852E-2
2.494608086E0,-5.152893066E-2,-1.935272217E-1,2.062988281E-2
2.497080010E0,-5.578613281E-2,-1.892700195E-1,2.276611328E-2
2.499551934E0,-5.685424805E-2,-1.818084717E-1,2.383422852E-2
2.501993340E0,-5.473327637E-2,-1.764831543E-1,2.062988281E-2
2.504465264E0,-5.259704590E-2,-1.732940674E-1,8.926391602E-3
2.506937188E0,-6.111145020E-2,-1.658325195E-1,1.464843750E-3
2.509378594E0,-5.366516113E-2,-1.605072021E-1,3.967285156E-4
2.511850518E0,-4.940795898E-2,-1.530456543E-1,-4.928588867E-3
2.514322442E0,-5.366516113E-2,-1.445312500E-1,-7.064819336E-3
2.516763848E0,-5.152893066E-2,-1.402740479E-1,-5.996704102E-3
2.519235772E0,-5.473327637E-2,-1.381378174E-1,-5.996704102E-3
2.521707696E0,-5.366516113E-2,-1.338806152E-1,-9.185791016E-3
2.524149102E0,-5.046081543E-2,-1.296234131E-1,-1.451110840E-2
2.526621026E0,-5.473327637E-2,-1.274871826E-1,-1.771545410E-2
2.529092949E0,-5.473327637E-2,-1.274871826E-1,-1.557922363E-2
2.531564873E0,-5.578613281E-2,-1.306762695E-1,-1.771545410E-2
2.534006279E0,-5.792236328E-2,-1.317443848E-1,-2.090454102E-2
2.536478203E0,-6.111145020E-2,-1.338806152E-1,-2.197265625E-2
2.538950127E0,-6.750488281E-2,-1.360015869E-1,-2.304077148E-2
2.541391533E0,-7.070922852E-2,-1.317443848E-1,-2.517700195E-2
2.543863457E0,-6.964111328E-2,-1.328125000E-1,-2.622985840E-2
2.546335381E0,-7.389831543E-2,-1.338806152E-1,-2.943420410E-2
2.548776787E0,-7.815551758E-2,-1.349487305E-1,-3.262329102E-2
2.551248711E0,-8.454895020E-2,-1.360015869E-1,-3.155517578E-2
2.553720635E0,-8.987426758E-2,-1.328125000E-1,-3.475952148E-2
2.556162041E0,-9.626770020E-2,-1.338806152E-1,-4.008483887E-2
2.558633965E0,-1.047973633E-1,-1.349487305E-1,-4.541015625E-2
2.561105889E0,-1.133117676E-1,-1.306762695E-1,-4.859924316E-2
2.563547295E0,-1.175842285E-1,-1.274871826E-1,-5.287170410E-2
2.566019219E0,-1.271667480E-1,-1.264190674E-1,-5.926513672E-2
2.568491143E0,-1.356811523E-1,-1.200256348E-1,-6.884765625E-2
2.570932549E0,-1.484680176E-1,-1.147003174E-1,-7.203674316E-2
2.573404473E0,-1.548614502E-1,-1.051177979E-1,-7.949829102E-2
2.575876397E0,-1.676483154E-1,-9.658813477E-2,-9.121704102E-2
2.578348321E0,-1.793670654E-1,-8.807373047E-2,-1.018676758E-1
2.580789727E0,-1.921539307E-1,-7.742309570E-2,-1.103973389E-1
2.583261651E0,-1.996002197E-1,-6.677246094E-2,-1.189117432E-1
2.585733574E0,-2.113189697E-1,-5.398559570E-2,-1.295623779E-1
2.588174981E0,-2.241058350E-1,-4.652404785E-2,-1.412811279E-1
2.590646904E0,-2.326202393E-1,-4.119873047E-2,-1.529998779E-1
2.593118828E0,-2.411499023E-1,-3.587341309E-2,-1.657867432E-1
2.595560235E0,-2.560577393E-1,-2.734375000E-2,-1.806945801E-1
2.598032158E0,-2.688446045E-1,-2.096557617E-2,-1.934814453E-1
2.600504082E0,-2.816314697E-1,-1.669311523E-2,-2.073364258E-1
2.602945488E0,-3.007965088E-1,-1.669311523E-2,-2.222442627E-1
2.605417412E0,-3.114624023E-1,-1.989746094E-2,-2.371520996E-1
2.607889336E0,-3.274383545E-1,-1.989746094E-2,-2.520751953E-1
2.610330742E0,-3.466033936E-1,-1.669311523E-2,-2.691192627E-1
2.612802666E0,-3.615264893E-1,-2.096557617E-2,-2.818908691E-1
2.615274590E0,-3.775024414E-1,-2.415466309E-2,-2.957458496E-1
2.617715996E0,-3.924102783E-1,-2.841186523E-2,-3.096008301E-1
2.620187920E0,-4.073333740E-1,-2.947998047E-2,-3.234405518E-1
2.622659844E0,-4.201202393E-1,-3.268432617E-2,-3.394165039E-1
2.625101250E0,-4.350280762E-1,-3.587341309E-2,-3.554077148E-1
2.627573174E0,-4.499359131E-1,-3.587341309E-2,-3.724517822E-1
2.630045098E0,-4.573974609E-1,-3.373718262E-2,-3.884277344E-1
2.632517022E0,-4.733734131E-1,-3.054809570E-2,-4.054718018E-1
2.634958428E0,-4.850921631E-1,-2.096557617E-2,-4.289093018E-1
2.637430352E0,-4.968109131E-1,-1.029968262E-2,-4.512786865E-1
2.639902276E0,-5.106658936E-1,-7.171630859E-4,-4.715118408E-1
2.642343682E0,-5.245056152E-1,6.744384766E-3,-4.938812256E-1
2.644815606E0,-5.436859131E-1,1.419067383E-2,-5.205230713E-1
2.647287529E0,-5.649871826E-1,2.272033691E-2,-5.460815430E-1
2.649728936E0,-5.916137695E-1,3.337097168E-2,-5.652618408E-1
2.652200860E0,-6.203765869E-1,5.041503906E-2,-5.780487061E-1
2.654672783E0,-6.502075195E-1,6.639099121E-2,-5.950927734E-1
2.657114190E0,-6.789703369E-1,7.704162598E-2,-6.089324951E-1
2.659586113E0,-7.151947021E-1,8.450317383E-2,-6.302337646E-1
2.662058037E0,-7.556762695E-1,8.876037598E-2,-6.483459473E-1
2.664499444E0,-7.897644043E-1,8.343505859E-2,-6.653900146E-1
2.666971367E0,-8.334350586E-1,7.492065430E-2,-6.803131104E-1
2.669443291E0,-8.792419434E-1,5.787658691E-2,-6.973571777E-1
2.671884697E0,-9.399566650E-1,3.123474121E-2,-7.122650146E-1
2.674356621E0,-9.985504150E-1,-8.178710938E-3,-7.282409668E-1
2.676828545E0,-1.050750732E0,-4.972839355E-2,-7.463531494E-1
2.679300469E0,-1.108276367E0,-8.807373047E-2,-7.655334473E-1
2.681741875E0,-1.159408569E0,-1.189575195E-1,-7.815093994E-1
2.684213799E0,-1.212677002E0,-1.498565674E-1,-7.985534668E-1
2.686655205E0,-1.265930176E0,-1.850128174E-1,-8.155975342E-1
2.689127129E0,-1.312805176E0,-2.222900391E-1,-8.337097168E-1
2.691599053E0,-1.360748291E0,-2.553100586E-1,-8.539428711E-1
2.694070977E0,-1.394836426E0,-2.840728760E-1,-8.720550537E-1
2.696512383E0,-1.432113647E0,-3.064575195E-1,-8.912353516E-1
2.698984307E0,-1.468338013E0,-3.235015869E-1,-9.093322754E-1
2.701456231E0,-1.499221802E0,-3.373413086E-1,-9.263763428E-1
2.703897637E0,-1.524795532E0,-3.511962891E-1,-9.391632080E-1
2.706369561E0,-1.550354004E0,-3.575897217E-1,-9.508819580E-1
2.708841485E0,-1.574859619E0,-3.575897217E-1,-9.636688232E-1
2.711282891E0,-1.594039917E0,-3.575897217E-1,-9.711303711E-1
2.713754815E0,-1.608947754E0,-3.522491455E-1,-9.775085449E-1
2.716226738E0,-1.621734619E0,-3.448028564E-1,-9.881744385E-1
2.718668145E0,-1.632385254E0,-3.320159912E-1,-9.977569580E-1
2.721140069E0,-1.645172119E0,-3.160400391E-1,-1.011611938E0
2.723611992E0,-1.649429321E0,-2.915344238E-1,-1.027587891E0
2.726083916E0,-1.651565552E0,-2.563781738E-1,-1.047821045E0
2.728525322E0,-1.657943726E0,-2.137756348E-1,-1.063796997E0
2.730997246E0,-1.663269043E0,-1.690368652E-1,-1.076583862E0
2.733438653E0,-1.666473389E0,-1.296234131E-1,-1.085113525E0
2.735910576E0,-1.671798706E0,-9.658813477E-2,-1.091506958E0
2.738382500E0,-1.680328369E0,-6.996154785E-2,-1.093627930E0
2.740854424E0,-1.687774658E0,-4.759216309E-2,-1.093627930E0
2.743295830E0,-1.698425293E0,-2.096557617E-2,-1.088302612E0
2.745767754E0,-1.706954956E0,9.933471680E-3,-1.084045410E0
2.748209160E0,-1.712280273E0,3.550720215E-2,-1.082977295E0
2.750681084E0,-1.717605591E0,5.574035645E-2,-1.084045410E0
2.753153008E0,-1.722930908E0,6.852722168E-2,-1.078720093E0
2.755624932E0,-1.731460571E0,6.959533691E-2,-1.077651978E0
2.758066338E0,-1.744232178E0,5.787658691E-2,-1.076583862E0
2.760538262E0,-1.759155273E0,4.508972168E-2,-1.075515747E0
2.763010186E0,-1.769805908E0,3.016662598E-2,-1.068069458E0
2.765482110E0,-1.792175293E0,6.744384766E-3,-1.064865112E0
2.767923516E0,-1.814544678E0,-1.989746094E-2,-1.065933228E0
2.770395440E0,-1.836914062E0,-5.291748047E-2,-1.062744141E0
2.772867363E0,-1.862487793E0,-8.914184570E-2,-1.060607910E0
2.775308770E0,-1.890182495E0,-1.274871826E-1,-1.060607910E0
2.777780694E0,-1.911483765E0,-1.637115479E-1,-1.061676025E0
2.780252617E0,-1.934921265E0,-1.967315674E-1,-1.054214478E0
2.782694024E0,-1.958358765E0,-2.318878174E-1,-1.032913208E0
2.785165947E0,-1.984985352E0,-2.872772217E-1,-1.002014160E0
2.787637871E0,-2.011611938E0,-3.479919434E-1,-9.689941406E-1
2.790079278E0,-2.037185669E0,-4.076538086E-1,-9.444885254E-1
2.792551201E0,-2.059555054E0,-4.630432129E-1,-9.359741211E-1
2.795023125E0,-2.079788208E0,-5.152435303E-1,-9.306488037E-1
2.797464531E0,-2.105361938E0,-5.685119629E-1,-9.253234863E-1
2.799936455E0,-2.124542236E0,-6.175079346E-1,-9.146728516E-1
2.802408379E0,-2.141586304E0,-6.590576172E-1,-9.072113037E-1
2.804849785E0,-2.156494141E0,-6.995391846E-1,-8.944244385E-1
2.807321709E0,-2.162887573E0,-7.368164062E-1,-8.805694580E-1
2.809763115E0,-2.163955688E0,-7.506713867E-1,-8.614044189E-1
2.812235039E0,-2.163955688E0,-7.517242432E-1,-8.337097168E-1
2.814706963E0,-2.153305054E0,-7.506713867E-1,-8.070678711E-1
2.817178887E0,-2.141586304E0,-7.453460693E-1,-7.857666016E-1
2.819650811E0,-2.125595093E0,-7.336273193E-1,-7.538146973E-1
2.822061699E0,-2.112823486E0,-7.357482910E-1,-7.165222168E-1
2.824503106E0,-2.103225708E0,-7.474670410E-1,-6.781768799E-1
2.826975029E0,-2.088317871E0,-7.602539062E-1,-6.387634277E-1
2.829446953E0,-2.079788208E0,-7.527923584E-1,-5.982818604E-1
2.831918877E0,-2.067016602E0,-7.325592041E-1,-5.663299561E-1
2.834390801E0,-2.056365967E0,-7.283020020E-1,-5.407562256E-1
2.836862725E0,-2.043579102E0,-7.250976562E-1,-5.269165039E-1
2.839334649E0,-2.028656006E0,-7.048645020E-1,-5.055999756E-1
2.841806572E0,-2.014816284E0,-6.782226562E-1,-4.789733887E-1
2.844247979E0,-2.005233765E0,-6.547851562E-1,-4.576721191E-1
2.846719903E0,-1.994567871E0,-6.366882324E-1,-4.374237061E-1
2.849191826E0,-1.983917236E0,-6.143188477E-1,-4.257049561E-1
2.851633233E0,-1.974334717E0,-5.748901367E-1,-4.150543213E-1
2.854105156E0,-1.965805054E0,-5.546569824E-1,-3.980102539E-1
2.856577080E0,-1.964752197E0,-5.514678955E-1,-3.852233887E-1
2.859018487E0,-1.972198486E0,-5.567932129E-1,-3.777770996E-1
2.861490410E0,-1.979660034E0,-5.674438477E-1,-3.713836670E-1
2.863962334E0,-1.989242554E0,-5.770263672E-1,-3.660583496E-1
2.866403740E0,-1.993515015E0,-5.791625977E-1,-3.649902344E-1
2.868875664E0,-2.003097534E0,-5.557250977E-1,-3.756408691E-1
2.871347588E0,-2.011611938E0,-5.344238281E-1,-3.969421387E-1
2.873819512E0,-2.020141602E0,-5.408020020E-1,-4.054718018E-1
2.876260918E0,-2.024398804E0,-5.408020020E-1,-4.012145996E-1
2.878732842E0,-2.032928467E0,-5.408020020E-1,-3.905487061E-1
2.881204766E0,-2.043579102E0,-5.493316650E-1,-3.862915039E-1
2.883646172E0,-2.049972534E0,-5.653076172E-1,-3.831024170E-1
2.886118096E0,-2.057418823E0,-5.780944824E-1,-3.809661865E-1
2.888559502E0,-2.060623169E0,-5.695648193E-1,-3.862915039E-1
2.891031426E0,-2.065948486E0,-5.738372803E-1,-3.894958496E-1
2.893503350E0,-2.074462891E0,-6.089782715E-1,-3.820343018E-1
2.895975274E0,-2.088317871E0,-6.654510498E-1,-3.884277344E-1
2.898416680E0,-2.105361938E0,-7.208404541E-1,-3.937530518E-1
2.900888604E0,-2.111755371E0,-7.570495605E-1,-3.820343018E-1
2.903360528E0,-2.116012573E0,-7.836914062E-1,-3.713836670E-1
2.905801934E0,-2.118148804E0,-7.890167236E-1,-3.671264648E-1
2.908273858E0,-2.111755371E0,-7.783660889E-1,-3.649902344E-1
2.910745781E0,-2.108551025E0,-7.815551758E-1,-3.532714844E-1
2.913187188E0,-2.106430054E0,-8.071289062E-1,-3.415527344E-1
2.915659112E0,-2.106430054E0,-8.380126953E-1,-3.319702148E-1
2.918131035E0,-2.105361938E0,-8.699798584E-1,-3.245086670E-1
2.920602959E0,-2.105361938E0,-8.987426758E-1,-3.170471191E-1
2.923044365E0,-2.101104736E0,-9.275054932E-1,-3.096008301E-1
2.925516289E0,-2.105361938E0,-9.530639648E-1,-3.117218018E-1
2.927988213E0,-2.093643188E0,-9.349517822E-1,-3.063964844E-1
2.930429619E0,-2.089385986E0,-9.424133301E-1,-2.850952148E-1
2.932901543E0,-2.088317871E0,-9.679718018E-1,-2.616577148E-1
2.935373467E0,-2.087249756E0,-9.978027344E-1,-2.382202148E-1
2.937814873E0,-2.087249756E0,-1.029769897E0,-2.169189453E-1
2.940286797E0,-2.087249756E0,-1.048934937E0,-1.988067627E-1
2.942758721E0,-2.085128784E0,-1.063858032E0,-1.828308105E-1
2.945200127E0,-2.088317871E0,-1.076629639E0,-1.679077148E-1
2.947672051E0,-2.087249756E0,-1.073440552E0,-1.519317627E-1
2.950143975E0,-2.074462891E0,-1.040420532E0,-1.434173584E-1
2.952585381E0,-2.075531006E0,-1.037216187E0,-1.274414062E-1
2.955057305E0,-2.077667236E0,-1.069183350E0,-1.103973389E-1
2.957529229E0,-2.081924438E0,-1.103271484E0,-9.973144531E-2
2.959970635E0,-2.085128784E0,-1.102203369E0,-7.736206055E-2
2.962442559E0,-2.080856323E0,-1.077697754E0,-4.966735840E-2
2.964914483E0,-2.080856323E0,-1.047866821E0,-2.304077148E-2
2.967386406E0,-2.078735352E0,-1.030822754E0,3.967285156E-4
2.969827813E0,-2.071273804E0,-1.010589600E0,1.425170898E-2
2.972299737E0,-2.054229736E0,-9.637145996E-1,1.957702637E-2
2.974771660E0,-2.048904419E0,-9.285583496E-1,2.915954590E-2
2.977213067E0,-2.053161621E0,-9.211120605E-1,4.727172852E-2
2.979684990E0,-2.049972534E0,-9.211120605E-1,5.792236328E-2
2.982126397E0,-2.048904419E0,-9.168395996E-1,6.857299805E-2
2.984598321E0,-2.047836304E0,-9.008636475E-1,7.603454590E-2
2.987070244E0,-2.046768188E0,-8.816986084E-1,8.454895020E-2
2.989542168E0,-2.049972534E0,-8.816986084E-1,8.880615234E-2
2.991983574E0,-2.040374756E0,-8.550567627E-1,8.242797852E-2
2.994455498E0,-2.020141602E0,-7.996673584E-1,8.135986328E-2
2.996927422E0,-2.010559082E0,-7.751617432E-1,9.519958496E-2
2.999368828E0,-1.995635986E0,-7.730407715E-1,1.111907959E-1
3.001840752E0,-1.980728149E0,-7.751617432E-1,1.229095459E-1
3.004312676E0,-1.962615967E0,-7.730407715E-1,1.314239502E-1
3.006754082E0,-1.948760986E0,-7.581176758E-1,1.335601807E-1
3.009226006E0,-1.929595947E0,-7.463989258E-1,1.356811523E-1
3.011697930E0,-1.905090332E0,-7.240295410E-1,1.292877197E-1
3.014139336E0,-1.881652832E0,-7.048645020E-1,1.229095459E-1
3.016611260E0,-1.869934082E0,-7.229614258E-1,1.324920654E-1
3.019083184E0,-1.863540649E0,-7.559967041E-1,1.399536133E-1
3.021524590E0,-1.859283447E0,-7.868804932E-1,1.527252197E-1
3.023996514E0,-1.853958130E0,-8.124542236E-1,1.655120850E-1
3.026468438E0,-1.843307495E0,-8.199005127E-1,1.761627197E-1
3.028940362E0,-1.832656860E0,-8.177795410E-1,1.825561523E-1
3.031381768E0,-1.826263428E0,-8.167114258E-1,1.953430176E-1
3.033853692E0,-1.819869995E0,-8.262939453E-1,2.049255371E-1
3.036325615E0,-1.817733765E0,-8.465423584E-1,2.155761719E-1
3.038767022E0,-1.815612793E0,-8.657073975E-1,2.294311523E-1
3.041238946E0,-1.816680908E0,-8.870239258E-1,2.422180176E-1
3.043710869E0,-1.819869995E0,-9.061889648E-1,2.411499023E-1
3.046152276E0,-1.820938110E0,-9.179077148E-1,2.358245850E-1
3.048624199E0,-1.807083130E0,-8.699798584E-1,2.304992676E-1
3.051096123E0,-1.795364380E0,-8.454742432E-1,2.432708740E-1
3.053537529E0,-1.791107178E0,-8.625183105E-1,2.549896240E-1
3.056009453E0,-1.786849976E0,-8.870239258E-1,2.688446045E-1
3.058481377E0,-1.780456543E0,-9.072570801E-1,2.816314697E-1
3.060922783E0,-1.779388428E0,-9.232330322E-1,2.922821045E-1
3.063394707E0,-1.770874023E0,-9.189758301E-1,3.029327393E-1
3.065866631E0,-1.752761841E0,-9.136505127E-1,3.082580566E-1
3.068308037E0,-1.735717773E0,-9.168395996E-1,3.146514893E-1
3.070779961E0,-1.723999023E0,-9.243011475E-1,3.178405762E-1
3.073251885E0,-1.709075928E0,-9.381561279E-1,3.199768066E-1
3.075723809E0,-1.694168091E0,-9.519958496E-1,3.274383545E-1
3.078165215E0,-1.681381226E0,-9.605255127E-1,3.316955566E-1
3.080637139E0,-1.663269043E0,-9.466705322E-1,3.295593262E-1
3.083078545E0,-1.646224976E0,-9.200439453E-1,3.295593262E-1
3.085550469E0,-1.629180908E0,-9.083251953E-1,3.295593262E-1
3.088022393E0,-1.612136841E0,-9.093933105E-1,3.295593262E-1
3.090494317E0,-1.598297119E0,-9.179077148E-1,3.306274414E-1
3.092935723E0,-1.586578369E0,-9.264373779E-1,3.338317871E-1
3.095407647E0,-1.574859619E0,-9.296264648E-1,3.370208740E-1
3.097879571E0,-1.562072754E0,-9.232330322E-1,3.391571045E-1
3.100320977E0,-1.542907715E0,-8.859558105E-1,3.380889893E-1
3.102792901E0,-1.529052734E0,-8.635864258E-1,3.391571045E-1
3.105264824E0,-1.519470215E0,-8.603820801E-1,3.380889893E-1
3.107706231E0,-1.502426147E0,-8.593292236E-1,3.295593262E-1
3.110178154E0,-1.481109619E0,-8.497314453E-1,3.263702393E-1
3.112650078E0,-1.469390869E0,-8.433380127E-1,3.263702393E-1
3.115122002E0,-1.456619263E0,-8.390808105E-1,3.231658936E-1
3.117563408E0,-1.438507080E0,-8.305664062E-1,3.221130371E-1
3.120035332E0,-1.419326782E0,-8.145751953E-1,3.199768066E-1
3.122507256E0,-1.401214600E0,-7.943420410E-1,3.189086914E-1
3.124948662E0,-1.376724243E0,-7.623901367E-1,3.103942871E-1
3.127420586E0,-1.349029541E0,-7.037963867E-1,2.976074219E-1
3.129892510E0,-1.318130493E0,-6.441345215E-1,2.922821045E-1
3.132333916E0,-1.287231445E0,-5.983276367E-1,2.880249023E-1
3.134805840E0,-1.252090454E0,-5.653076172E-1,2.720336914E-1
3.137247246E0,-1.224380493E0,-5.557250977E-1,2.667083740E-1
3.139719170E0,-1.194564819E0,-5.685119629E-1,2.656402588E-1
3.142191094E0,-1.164733887E0,-5.695648193E-1,2.624511719E-1
3.144663018E0,-1.130645752E0,-5.653076172E-1,2.603149414E-1
3.147104424E0,-1.097625732E0,-5.525207520E-1,2.507324219E-1
3.149576348E0,-1.068862915E0,-5.354766846E-1,2.411499023E-1
3.152048272E0,-1.037963867E0,-5.195007324E-1,2.336883545E-1
3.154489678E0,-1.003875732E0,-4.918060303E-1,2.187805176E-1
3.156961602E0,-9.783172607E-1,-4.470672607E-1,2.081298828E-1
3.159433526E0,-9.538116455E-1,-4.214935303E-1,2.006683350E-1
3.161874932E0,-9.303741455E-1,-4.044494629E-1,1.910858154E-1
3.164346856E0,-9.080047607E-1,-3.948669434E-1,1.814880371E-1
3.166818779E0,-8.824310303E-1,-4.044494629E-1,1.750946045E-1
3.169290703E0,-8.611297607E-1,-4.183044434E-1,1.644439697E-1
3.171732110E0,-8.494110107E-1,-4.246978760E-1,1.601867676E-1
3.174204033E0,-8.345031738E-1,-4.289550781E-1,1.559295654E-1
3.176675957E0,-8.142547607E-1,-4.268188477E-1,1.495361328E-1
3.179117363E0,-7.961578369E-1,-4.268188477E-1,1.420745850E-1
3.181589287E0,-7.791137695E-1,-4.300231934E-1,1.356811523E-1
3.184061211E0,-7.663269043E-1,-4.300231934E-1,1.335601807E-1
3.186502617E0,-7.514038086E-1,-4.257659912E-1,1.282348633E-1
3.188974541E0,-7.407531738E-1,-4.246978760E-1,1.239624023E-1
3.191446465E0,-7.279815674E-1,-4.300231934E-1,1.250305176E-1
3.193887871E0,-7.205200195E-1,-4.470672607E-1,1.271667480E-1
3.196359795E0,-7.130584717E-1,-4.736938477E-1,1.282348633E-1
3.198831719E0,-7.055969238E-1,-4.928741455E-1,1.324920654E-1
3.201273125E0,-6.970825195E-1,-5.099182129E-1,1.356811523E-1
3.203745049E0,-6.885528564E-1,-5.258941650E-1,1.356811523E-1
3.206216973E0,-6.811065674E-1,-5.344238281E-1,1.356811523E-1
3.208658379E0,-6.747131348E-1,-5.386810303E-1,1.356811523E-1
3.211130303E0,-6.608581543E-1,-5.397491455E-1,1.324920654E-1
3.213602227E0,-6.470184326E-1,-5.354766846E-1,1.292877197E-1
3.216043633E0,-6.374206543E-1,-5.290832520E-1,1.197052002E-1
3.218515557E0,-6.267700195E-1,-5.269622803E-1,1.133117676E-1
3.220987481E0,-6.076049805E-1,-5.269622803E-1,1.122436523E-1
3.223459404E0,-5.820312500E-1,-5.099182129E-1,1.122436523E-1
3.225900811E0,-5.617980957E-1,-4.736938477E-1,1.090545654E-1
3.228372735E0,-5.394287109E-1,-4.385375977E-1,1.015930176E-1
3.230844658E0,-5.127868652E-1,-4.246978760E-1,8.987426758E-2
3.233286065E0,-4.978790283E-1,-4.438629150E-1,8.987426758E-2
3.235757988E0,-4.872283936E-1,-4.843444824E-1,9.414672852E-2
3.238229912E0,-4.723052979E-1,-5.205688477E-1,9.414672852E-2
3.240671319E0,-4.542083740E-1,-5.440063477E-1,9.094238281E-2
3.243143242E0,-4.403533936E-1,-5.514678955E-1,8.454895020E-2
3.245584649E0,-4.243774414E-1,-5.557250977E-1,7.815551758E-2
3.248056572E0,-4.062652588E-1,-5.578460693E-1,7.603454590E-2
3.250528496E0,-3.881530762E-1,-5.514678955E-1,7.389831543E-2
3.253000420E0,-3.636474609E-1,-5.493316650E-1,7.070922852E-2
3.255441826E0,-3.455505371E-1,-5.493316650E-1,6.643676758E-2
3.257913750E0,-3.263702393E-1,-5.503997803E-1,6.111145020E-2
3.260385674E0,-3.082580566E-1,-5.535888672E-1,5.899047852E-2
3.262827080E0,-2.890930176E-1,-5.578460693E-1,5.366516113E-2
3.265299004E0,-2.773742676E-1,-5.557250977E-1,4.939270020E-2
3.267770928E0,-2.581939697E-1,-5.535888672E-1,4.620361328E-2
3.270242852E0,-2.411499023E-1,-5.503997803E-1,4.406738281E-2
3.272684258E0,-2.283630371E-1,-5.525207520E-1,4.087829590E-2
3.275156182E0,-2.209014893E-1,-5.503997803E-1,4.087829590E-2
3.277628106E0,-2.081298828E-1,-5.482635498E-1,3.981018066E-2
3.280069512E0,-1.889495850E-1,-5.514678955E-1,3.555297852E-2
3.282541436E0,-1.772308350E-1,-5.557250977E-1,3.129577637E-2
3.285013360E0,-1.591186523E-1,-5.557250977E-1,2.490234375E-2
3.287454766E0,-1.410064697E-1,-5.535888672E-1,2.062988281E-2
3.289926690E0,-1.229095459E-1,-5.503997803E-1,2.062988281E-2
3.292398613E0,-1.037292480E-1,-5.429382324E-1,1.744079590E-2
3.294840020E0,-8.349609375E-2,-5.408020020E-1,1.211547852E-2
3.297311944E0,-6.431579590E-2,-5.290832520E-1,8.926391602E-3
3.299783867E0,-4.513549805E-2,-5.216369629E-1,4.653930664E-3
3.302225274E0,-2.809143066E-2,-5.173797607E-1,4.653930664E-3
3.304697197E0,-8.926391602E-3,-5.173797607E-1,8.926391602E-3
3.307169121E0,1.132202148E-2,-5.099182129E-1,2.532958984E-3
3.309610528E0,2.943420410E-2,-5.013885498E-1,-5.996704102E-3
3.312082451E0,4.434204102E-2,-4.907379150E-1,-1.451110840E-2
3.314554375E0,6.457519531E-2,-4.779510498E-1,-2.090454102E-2
3.317026299E0,8.482360840E-2,-4.609069824E-1,-2.836608887E-2
3.319467705E0,1.103820801E-1,-4.374847412E-1,-3.050231934E-2
3.321939629E0,1.327667236E-1,-4.119110107E-1,-3.155517578E-2
3.324411553E0,1.487426758E-1,-3.895416260E-1,-3.369140625E-2
3.326852959E0,1.679077148E-1,-3.682403564E-1,-3.582763672E-2
3.329324883E0,1.870880127E-1,-3.458709717E-1,-3.688049316E-2
3.331796807E0,2.041320801E-1,-3.266906738E-1,-3.688049316E-2
3.334238213E0,2.201080322E-1,-3.043212891E-1,-3.794860840E-2
3.336710137E0,2.328948975E-1,-2.830200195E-1,-3.262329102E-2
3.339182061E0,2.371520996E-1,-2.617034912E-1,-2.729797363E-2
3.341623467E0,2.446136475E-1,-2.361450195E-1,-2.090454102E-2
3.344095391E0,2.392883301E-1,-2.137756348E-1,-1.025390625E-2
3.346567315E0,2.339630127E-1,-1.860809326E-1,-6.713867188E-4
3.349008721E0,2.265014648E-1,-1.551818848E-1,8.926391602E-3
3.351480645E0,2.115936279E-1,-1.189575195E-1,1.637268066E-2
3.353952569E0,1.945495605E-1,-8.381652832E-2,3.341674805E-2
3.356393975E0,1.732330322E-1,-6.782531738E-2,5.046081543E-2
3.358865899E0,1.466064453E-1,-4.866027832E-2,6.431579590E-2
3.361337822E0,1.221008301E-1,-9.246826172E-3,7.603454590E-2
3.363779229E0,9.761047363E-2,3.976440430E-2,8.880615234E-2
3.366251153E0,6.245422363E-2,4.934692383E-2,1.058654785E-1
3.368723076E0,2.836608887E-2,3.976440430E-2,1.186370850E-1
3.371195000E0,-9.979248047E-3,4.402160645E-2,1.282348633E-1
3.373636406E0,-4.087829590E-2,5.360412598E-2,1.367492676E-1
3.376108330E0,-7.177734375E-2,7.492065430E-2,1.399536133E-1
3.378549737E0,-1.090545654E-1,1.026153564E-1,1.410064697E-1
3.381021660E0,-1.378173828E-1,1.558685303E-1,1.367492676E-1
3.383493584E0,-1.687164307E-1,2.336425781E-1,1.335601807E-1
3.385965508E0,-2.017364502E-1,2.751770020E-1,1.271667480E-1
3.388406914E0,-2.454071045E-1,3.039398193E-1,1.133117676E-1
3.390878838E0,-2.890930176E-1,3.050079346E-1,9.519958496E-2
3.393350762E0,-3.316955566E-1,2.954254150E-1,7.496643066E-2
3.395792168E0,-3.668518066E-1,3.071441650E-1,4.727172852E-2
3.398264092E0,-3.966827393E-1,3.518829346E-1,1.530456543E-2
3.400736016E0,-4.169158936E-1,4.328460693E-1,-1.771545410E-2
3.403177422E0,-4.382171631E-1,5.180664062E-1,-5.180358887E-2
3.405649346E0,-4.616546631E-1,5.713348389E-1,-7.843017578E-2
3.408121270E0,-4.829559326E-1,5.777130127E-1,-1.071929932E-1
3.410593194E0,-4.957427979E-1,5.723876953E-1,-1.423492432E-1
3.413034600E0,-5.021362305E-1,5.734558105E-1,-1.743011475E-1
3.415506524E0,-5.085296631E-1,5.745239258E-1,-1.945495605E-1
3.417978447E0,-5.032043457E-1,5.702667236E-1,-2.115936279E-1
3.420419854E0,-4.914855957E-1,5.510864258E-1,-2.275695801E-1
3.422891778E0,-4.733734131E-1,5.233917236E-1,-2.371520996E-1
3.425333184E0,-4.542083740E-1,4.893035889E-1,-2.392883301E-1
3.427805108E0,-4.318237305E-1,4.552154541E-1,-2.360992432E-1
3.430277031E0,-4.094543457E-1,4.339141846E-1,-2.350311279E-1
3.432748955E0,-3.806915283E-1,4.189910889E-1,-2.318267822E-1
3.435190362E0,-3.498077393E-1,4.072723389E-1,-2.265014648E-1
3.437662285E0,-3.231811523E-1,3.976898193E-1,-2.201080322E-1
3.440134209E0,-2.901458740E-1,3.881072998E-1,-2.126617432E-1
3.442575615E0,-2.581939697E-1,3.753204346E-1,-2.105255127E-1
3.445047539E0,-2.315673828E-1,3.636016846E-1,-2.094573975E-1
3.447519463E0,-1.985321045E-1,3.529510498E-1,-2.105255127E-1
3.449960869E0,-1.676483154E-1,3.401641846E-1,-2.190551758E-1
3.452432793E0,-1.410064697E-1,3.316497803E-1,-2.211761475E-1
3.454904717E0,-1.133117676E-1,3.263244629E-1,-2.275695801E-1
3.457346123E0,-8.135986328E-2,3.209838867E-1,-2.371520996E-1
3.459818047E0,-5.152893066E-2,3.156585693E-1,-2.467498779E-1
3.462289971E0,-2.915954590E-2,3.156585693E-1,-2.467498779E-1
3.464761895E0,-7.858276367E-3,3.050079346E-1,-2.488708496E-1
3.467203301E0,1.451110840E-2,2.879638672E-1,-2.520751953E-1
3.469675225E0,3.048706055E-2,2.826385498E-1,-2.541961670E-1
3.472147149E0,5.180358887E-2,3.039398193E-1,-2.552642822E-1
3.474588555E0,6.777954102E-2,3.177947998E-1,-2.456817627E-1
3.477060479E0,6.671142578E-2,2.719879150E-1,-2.360992432E-1
3.479532403E0,6.031799316E-2,2.112731934E-1,-2.243804932E-1
3.481973809E0,5.924987793E-2,1.548156738E-1,-2.147827148E-1
3.484445733E0,6.138610840E-2,1.090087891E-1,-1.988067627E-1
3.486917656E0,6.564331055E-2,7.704162598E-2,-1.934814453E-1
3.489359063E0,6.884765625E-2,4.402160645E-2,-1.849517822E-1
3.491830987E0,7.096862793E-2,1.632690430E-2,-1.764373779E-1
3.494302910E0,7.096862793E-2,3.509521484E-4,-1.679077148E-1
3.496774834E0,7.096862793E-2,-1.669311523E-2,-1.572570801E-1
3.499216240E0,7.629394531E-2,-3.373718262E-2,-1.498107910E-1
3.501688164E0,7.096862793E-2,-4.652404785E-2,-1.370239258E-1
3.504129571E0,6.457519531E-2,-5.398559570E-2,-1.284942627E-1
3.506601494E0,5.606079102E-2,-6.037902832E-2,-1.284942627E-1
3.509073418E0,5.073547363E-2,-6.889343262E-2,-1.306304932E-1
3.511514824E0,4.753112793E-2,-7.421875000E-2,-1.348876953E-1
3.513986748E0,4.327392578E-2,-8.061218262E-2,-1.338195801E-1
3.516458672E0,4.220581055E-2,-8.486938477E-2,-1.380920410E-1
3.518930596E0,4.647827148E-2,-8.168029785E-2,-1.370239258E-1
3.521372002E0,4.859924316E-2,-7.742309570E-2,-1.348876953E-1
3.523843926E0,5.392456055E-2,-7.209777832E-2,-1.402130127E-1
3.526315850E0,6.671142578E-2,-5.824279785E-2,-1.412811279E-1
3.528757256E0,7.629394531E-2,-3.373718262E-2,-1.455383301E-1
3.531229180E0,9.654235840E-2,1.312255859E-2,-1.498107910E-1
3.533701104E0,1.178436279E-1,5.680847168E-2,-1.466064453E-1
3.536142510E0,1.274261475E-1,2.804565430E-2,-1.391601562E-1
3.538614434E0,1.380920410E-1,-2.841186523E-2,-1.274414062E-1
3.541086358E0,1.529998779E-1,-6.996154785E-2,-1.167755127E-1
3.543527764E0,1.753692627E-1,-8.381652832E-2,-1.114501953E-1
3.545999688E0,1.998748779E-1,-8.274841309E-2,-1.146545410E-1
3.548471612E0,2.243652344E-1,-7.528686523E-2,-1.093292236E-1
3.550913018E0,2.488708496E-1,-6.356811523E-2,-9.973144531E-2
3.553384942E0,2.754974365E-1,-5.824279785E-2,-1.018676758E-1
3.555856865E0,3.010711670E-1,-6.037902832E-2,-1.082611084E-1
3.558328789E0,3.138580322E-1,-5.931091309E-2,-1.146545410E-1
3.560770196E0,3.309020996E-1,-6.677246094E-2,-1.242370605E-1
3.563242119E0,3.426208496E-1,-8.061218262E-2,-1.370239258E-1
3.565714043E0,3.596649170E-1,-9.126281738E-2,-1.423492432E-1
3.568155449E0,3.724365234E-1,-1.093750000E-1,-1.466064453E-1
3.570627373E0,3.905487061E-1,-1.328125000E-1,-1.572570801E-1
3.573099297E0,4.182434082E-1,-1.530456543E-1,-1.689758301E-1
3.575540703E0,4.533996582E-1,-1.605072021E-1,-1.764373779E-1
3.578012627E0,4.821624756E-1,-1.658325195E-1,-1.860198975E-1
3.580484551E0,5.151824951E-1,-1.637115479E-1,-1.870880127E-1
3.582925957E0,5.471496582E-1,-1.487884521E-1,-1.870880127E-1
3.585397881E0,5.812377930E-1,-1.349487305E-1,-1.817626953E-1
3.587869805E0,6.046752930E-1,-1.242828369E-1,-1.796264648E-1
3.590311211E0,6.238403320E-1,-1.093750000E-1,-1.764373779E-1
3.592783135E0,6.430206299E-1,-8.486938477E-2,-1.732482910E-1
3.595255059E0,6.558074951E-1,-4.652404785E-2,-1.647186279E-1
3.597696465E0,6.643218994E-1,-7.171630859E-4,-1.583251953E-1
3.600168389E0,6.728515625E-1,4.615783691E-2,-1.562042236E-1
3.602640313E0,6.824340820E-1,1.036834717E-1,-1.593933105E-1
3.605081719E0,6.920166016E-1,1.494903564E-1,-1.636505127E-1
3.607553643E0,7.048034668E-1,1.878356934E-1,-1.721801758E-1
3.610025567E0,7.154541016E-1,2.378997803E-1,-1.817626953E-1
3.612497490E0,7.314453125E-1,2.687988281E-1,-1.892242432E-1
3.614938897E0,7.538146973E-1,2.570800781E-1,-1.934814453E-1
3.617410821E0,7.793731689E-1,2.400360107E-1,-2.041320801E-1
3.619882744E0,8.059997559E-1,2.368316650E-1,-2.115936279E-1
3.622324151E0,8.337097168E-1,2.474822998E-1,-2.169189453E-1
3.624796074E0,8.635253906E-1,2.655944824E-1,-2.222442627E-1
3.627267998E0,8.837738037E-1,2.709197998E-1,-2.233123779E-1
3.629709404E0,9.029388428E-1,2.730560303E-1,-2.243804932E-1
3.632181328E0,9.210510254E-1,2.719879150E-1,-2.275695801E-1
3.634653252E0,9.444885254E-1,2.805175781E-1,-2.233123779E-1
3.637094658E0,9.636688232E-1,2.890319824E-1,-2.179870605E-1
3.639566582E0,9.913635254E-1,2.847747803E-1,-2.158508301E-1
3.642038506E0,1.012664795E0,2.858428955E-1,-2.179870605E-1
3.644510430E0,1.029708862E0,2.879638672E-1,-2.126617432E-1
3.646951836E0,1.049957275E0,2.879638672E-1,-2.062683105E-1
3.649423760E0,1.065933228E0,2.901000977E-1,-1.998748779E-1
3.651865166E0,1.076583862E0,2.954254150E-1,-1.956176758E-1
3.654337090E0,1.081909180E0,3.018188477E-1,-1.913452148E-1
3.656809014E0,1.090438843E0,3.071441650E-1,-1.849517822E-1
3.659250420E0,1.104278564E0,3.103332520E-1,-1.796264648E-1
3.661722344E0,1.108535767E0,3.135375977E-1,-1.753692627E-1
3.664194268E0,1.108535767E0,3.177947998E-1,-1.679077148E-1
3.666666192E0,1.103210449E0,3.231201172E-1,-1.593933105E-1
3.669107598E0,1.101089478E0,3.284454346E-1,-1.540679932E-1
3.671579522E0,1.104278564E0,3.305816650E-1,-1.498107910E-1
3.674051446E0,1.112808228E0,3.273773193E-1,-1.498107910E-1
3.676492852E0,1.127716064E0,3.199310303E-1,-1.487426758E-1
3.678964776E0,1.149017334E0,3.114013672E-1,-1.551361084E-1
3.681436699E0,1.174591064E0,3.263244629E-1,-1.529998779E-1
3.683878106E0,1.195892334E0,3.423004150E-1,-1.583251953E-1
3.686350029E0,1.222518921E0,3.486938477E-1,-1.636505127E-1
3.688821953E0,1.242767334E0,3.604125977E-1,-1.679077148E-1
3.691263360E0,1.258743286E0,3.774566650E-1,-1.764373779E-1
3.693735283E0,1.276855469E0,4.051513672E-1,-1.817626953E-1
3.696207207E0,1.297088623E0,4.285888672E-1,-1.849517822E-1
3.698648613E0,1.322662354E0,4.466857910E-1,-1.966705322E-1
3.701120537E0,1.336502075E0,4.701232910E-1,-1.988067627E-1
3.703592461E0,1.354614258E0,4.988861084E-1,-2.094573975E-1
3.706033867E0,1.370590210E0,5.404357910E-1,-2.190551758E-1
3.708505791E0,1.387634277E0,5.713348389E-1,-2.265014648E-1
3.710977715E0,1.404678345E0,5.947570801E-1,-2.339630127E-1
3.713449639E0,1.422790527E0,6.203308105E-1,-2.446136475E-1
3.715891045E0,1.439834595E0,6.533508301E-1,-2.510070801E-1
3.718362969E0,1.449432373E0,6.895751953E-1,-2.520751953E-1
3.720834893E0,1.465408325E0,7.204589844E-1,-2.563323975E-1
3.723276299E0,1.481384277E0,7.598724365E-1,-2.680511475E-1
3.725748223E0,1.493103027E0,8.056793213E-1,-2.744445801E-1
3.728220147E0,1.505889893E0,8.248596191E-1,-2.712402344E-1
3.730661553E0,1.521865845E0,8.344421387E-1,-2.669830322E-1
3.733133477E0,1.532516479E0,8.472290039E-1,-2.733764648E-1
3.735605401E0,1.546371460E0,8.674774170E-1,-2.776336670E-1
3.738046807E0,1.562347412E0,8.930358887E-1,-2.829589844E-1
3.740518731E0,1.584716797E0,9.260559082E-1,-2.872314453E-1
3.742990654E0,1.610275269E0,9.782562256E-1,-3.000030518E-1
3.745432061E0,1.634780884E0,1.027267456E0,-3.074645996E-1
3.747903985E0,1.647567749E0,1.042175293E0,-3.042755127E-1
3.750375908E0,1.661407471E0,1.048568726E0,-3.053283691E-1
3.752847832E0,1.674194336E0,1.060287476E0,-3.085327148E-1
3.755289238E0,1.684844971E0,1.076263428E0,-3.096008301E-1
3.757761162E0,1.695495605E0,1.090118408E0,-3.127899170E-1
3.760233086E0,1.710418701E0,1.117813110E0,-3.213195801E-1
3.762674492E0,1.733856201E0,1.161483765E0,-3.383636475E-1
3.765146416E0,1.755157471E0,1.192382812E0,-3.447418213E-1
3.767618340E0,1.771133423E0,1.193435669E0,-3.436889648E-1
3.770059746E0,1.783920288E0,1.176391602E0,-3.404846191E-1
3.772531670E0,1.790313721E0,1.163619995E0,-3.447418213E-1
3.775003594E0,1.795639038E0,1.151901245E0,-3.500823975E-1
3.777445000E0,1.799896240E0,1.147628784E0,-3.564605713E-1
3.779916924E0,1.807357788E0,1.156158447E0,-3.607330322E-1
3.782388848E0,1.812683105E0,1.162551880E0,-3.660583496E-1
3.784830254E0,1.811614990E0,1.161483765E0,-3.756408691E-1
3.787302178E0,1.810546875E0,1.157226562E0,-3.841705322E-1
3.789774102E0,1.815872192E0,1.156158447E0,-3.873596191E-1
3.792215508E0,1.819076538E0,1.159347534E0,-3.926849365E-1
3.794687432E0,1.826522827E0,1.149765015E0,-4.012145996E-1
3.797159356E0,1.827590942E0,1.139114380E0,-4.107971191E-1
3.799600762E0,1.832916260E0,1.129531860E0,-4.139862061E-1
3.802072686E0,1.841445923E0,1.122070312E0,-4.203796387E-1
3.804544610E0,1.842514038E0,1.125259399E0,-4.320983887E-1
3.806986016E0,1.842514038E0,1.126327515E0,-4.384918213E-1
3.809457940E0,1.845703125E0,1.122070312E0,-4.406280518E-1
3.811929863E0,1.841445923E0,1.116744995E0,-4.438171387E-1
3.814401787E0,1.838241577E0,1.109283447E0,-4.480743408E-1
3.816843194E0,1.833984375E0,1.095443726E0,-4.480743408E-1
3.819315117E0,1.824401855E0,1.077331543E0,-4.470214844E-1
3.821787041E0,1.824401855E0,1.058151245E0,-4.459533691E-1
3.824228447E0,1.815872192E0,1.047500610E0,-4.395599365E-1
3.826700371E0,1.807357788E0,1.031524658E0,-4.289093018E-1
3.829172295E0,1.795639038E0,1.021942139E0,-4.171905518E-1
3.831613701E0,1.790313721E0,1.011276245E0,-4.022674561E-1
3.834085625E0,1.783920288E0,1.000625610E0,-3.852233887E-1
3.836557549E0,1.788177490E0,9.910430908E-1,-3.692474365E-1
3.838998955E0,1.784988403E0,9.825134277E-1,-3.479461670E-1
3.841470879E0,1.783920288E0,9.750671387E-1,-3.255767822E-1
3.843942803E0,1.787109375E0,9.729309082E-1,-3.010711670E-1
3.846384209E0,1.787109375E0,9.718627930E-1,-2.797698975E-1
3.848856133E0,1.782852173E0,9.665374756E-1,-2.563323975E-1
3.851328057E0,1.778594971E0,9.537506104E-1,-2.297058105E-1
3.853769463E0,1.773269653E0,9.441680908E-1,-1.988067627E-1
3.856241387E0,1.764739990E0,9.367065430E-1,-1.689758301E-1
3.858713311E0,1.756225586E0,9.217987061E-1,-1.412811279E-1
3.861185235E0,1.749832153E0,9.058227539E-1,-1.157226562E-1
3.863626641E0,1.744506836E0,8.941040039E-1,-8.908081055E-2
3.866098565E0,1.738113403E0,8.855743408E-1,-5.819702148E-2
3.868570488E0,1.729583740E0,8.791961670E-1,-3.155517578E-2
3.871011895E0,1.734924316E0,8.877105713E-1,-1.983642578E-2
3.873483819E0,1.739181519E0,8.887786865E-1,-3.860473633E-3
3.875955742E0,1.731719971E0,8.813171387E-1,2.276611328E-2
3.878397149E0,1.722137451E0,8.728027344E-1,5.046081543E-2
3.880869072E0,1.725326538E0,8.589477539E-1,7.283020020E-2
3.883340996E0,1.722137451E0,8.387145996E-1,9.519958496E-2
3.885782403E0,1.720001221E0,8.142089844E-1,1.122436523E-1
3.888254326E0,1.720001221E0,7.918395996E-1,1.271667480E-1
3.890726250E0,1.724258423E0,7.662658691E-1,1.346130371E-1
3.893167656E0,1.721069336E0,7.438964844E-1,1.463317871E-1
3.895639580E0,1.716812134E0,7.215270996E-1,1.569976807E-1
3.898111504E0,1.713607788E0,7.140808105E-1,1.655120850E-1
3.900552910E0,1.708282471E0,7.130126953E-1,1.708374023E-1
3.903024834E0,1.704025269E0,7.108764648E-1,1.772308350E-1
3.905496758E0,1.709350586E0,7.247314453E-1,1.761627197E-1
3.907968682E0,1.720001221E0,7.471008301E-1,1.665802002E-1
3.910410088E0,1.721069336E0,7.609405518E-1,1.655120850E-1
3.912882012E0,1.718933105E0,7.737274170E-1,1.697692871E-1
3.915353936E0,1.721069336E0,7.854461670E-1,1.772308350E-1
3.917795342E0,1.729583740E0,7.918395996E-1,1.804199219E-1
3.920267266E0,1.738113403E0,8.003540039E-1,1.878814697E-1
3.922739190E0,1.748764038E0,8.099517822E-1,1.942749023E-1
3.925180596E0,1.761550903E0,8.206024170E-1,1.996002197E-1
3.927652520E0,1.772201538E0,8.259277344E-1,2.070617676E-1
3.930124444E0,1.776458740E0,8.248596191E-1,2.102508545E-1
3.932565850E0,1.782852173E0,8.120727539E-1,2.017364502E-1
3.935037774E0,1.790313721E0,7.960968018E-1,1.953430176E-1
3.937509697E0,1.797775269E0,7.875823975E-1,1.825561523E-1
3.939951104E0,1.810546875E0,8.024902344E-1,1.761627197E-1
3.942423028E0,1.826522827E0,8.365783691E-1,1.644439697E-1
3.944894951E0,1.831863403E0,8.717346191E-1,1.601867676E-1
3.947336358E0,1.815872192E0,9.036865234E-1,1.633758545E-1
3.949808281E0,1.804153442E0,9.313812256E-1,1.772308350E-1
3.952280205E0,1.796707153E0,9.505615234E-1,1.910858154E-1
3.954752129E0,1.781784058E0,9.590911865E-1,2.049255371E-1
3.957193535E0,1.770065308E0,9.590911865E-1,2.166442871E-1
3.959665459E0,1.766876221E0,9.516296387E-1,2.315521240E-1
3.962137383E0,1.758346558E0,9.324493408E-1,2.485961914E-1
3.964578789E0,1.748764038E0,9.068908691E-1,2.635192871E-1
3.967050713E0,1.742370605E0,8.813171387E-1,2.773590088E-1
3.969522637E0,1.730651855E0,8.546905518E-1,2.901458740E-1
3.971964043E0,1.723205566E0,8.259277344E-1,2.976074219E-1
3.974435967E0,1.722137451E0,8.024902344E-1,3.061218262E-1
3.976907891E0,1.716812134E0,7.854461670E-1,3.135833740E-1
3.979349297E0,1.709350586E0,7.652130127E-1,3.125152588E-1
3.981821221E0,1.698699951E0,7.534942627E-1,3.125152588E-1
3.984293145E0,1.694442749E0,7.460327148E-1,3.146514893E-1
3.986734551E0,1.690170288E0,7.428283691E-1,3.178405762E-1
3.989206475E0,1.684844971E0,7.396392822E-1,3.167877197E-1
3.991678399E0,1.681655884E0,7.385711670E-1,3.189086914E-1
3.994150322E0,1.672073364E0,7.460327148E-1,3.253021240E-1
3.996591729E0,1.666732788E0,7.609405518E-1,3.295593262E-1
3.999063653E0,1.663543701E0,7.737274170E-1,3.327636719E-1
4.001505059E0,1.650756836E0,7.854461670E-1,3.370208740E-1
4.003976983E0,1.636917114E0,7.993011475E-1,3.391571045E-1
4.006448906E0,1.626266479E0,8.142089844E-1,3.455352783E-1
4.008920830E0,1.613479614E0,8.280639648E-1,3.498077393E-1
4.011362237E0,1.604949951E0,8.451080322E-1,3.583221436E-1
4.013834160E0,1.594299316E0,8.621520996E-1,3.647155762E-1
4.016306084E0,1.590042114E0,8.695983887E-1,3.700408936E-1
4.018747490E0,1.591110229E0,8.717346191E-1,3.775024414E-1
4.021219414E0,1.590042114E0,8.664093018E-1,3.860168457E-1
4.023691338E0,1.594299316E0,8.589477539E-1,3.945465088E-1
4.026132744E0,1.601760864E0,8.525543213E-1,4.051971436E-1
4.028604668E0,1.607086182E0,8.451080322E-1,4.115905762E-1
4.031076592E0,1.619873047E0,8.323211670E-1,4.222412109E-1
4.033517998E0,1.623062134E0,8.259277344E-1,4.318237305E-1
4.035989922E0,1.631591797E0,8.206024170E-1,4.392852783E-1
4.038461846E0,1.642242432E0,8.195343018E-1,4.488677979E-1
4.040903252E0,1.648635864E0,8.163452148E-1,4.605865479E-1
4.043375176E0,1.660354614E0,8.227233887E-1,4.755096436E-1
4.045847100E0,1.665679932E0,8.312530518E-1,4.872283936E-1
4.048288506E0,1.669937134E0,8.419036865E-1,4.989471436E-1
4.050760430E0,1.675262451E0,8.525543213E-1,5.106658936E-1
4.053232354E0,1.677398682E0,8.546905518E-1,5.245056152E-1
4.055673760E0,1.677398682E0,8.557586670E-1,5.340881348E-1
4.058145684E0,1.681655884E0,8.525543213E-1,5.458068848E-1
4.060617608E0,1.684844971E0,8.397674561E-1,5.522003174E-1
4.063089531E0,1.691238403E0,8.280639648E-1,5.554046631E-1
4.065530938E0,1.695495605E0,8.173980713E-1,5.607299805E-1
4.068002862E0,1.697631836E0,8.088836670E-1,5.607299805E-1
4.070474785E0,1.694442749E0,8.088836670E-1,5.671234131E-1
4.072916192E0,1.688049316E0,7.993011475E-1,5.735015869E-1
4.075388115E0,1.678451538E0,7.950286865E-1,5.735015869E-1
4.077860039E0,1.668869019E0,7.971649170E-1,5.745697021E-1
4.080301446E0,1.648635864E0,7.950286865E-1,5.735015869E-1
4.082773369E0,1.627319336E0,7.918395996E-1,5.628509521E-1
4.085245293E0,1.597503662E0,7.886352539E-1,5.436859131E-1
4.087686699E0,1.560211182E0,7.811889648E-1,5.170440674E-1
4.090158623E0,1.531448364E0,7.705383301E-1,5.074615479E-1
4.092630547E0,1.490966797E0,7.662658691E-1,5.074615479E-1
4.095071953E0,1.445159912E0,7.630767822E-1,5.042724609E-1
4.097543877E0,1.404678345E0,7.598724365E-1,4.968109131E-1
4.100015801E0,1.353546143E0,7.534942627E-1,4.925537109E-1
4.102457207E0,1.305618286E0,7.417755127E-1,4.797668457E-1
4.104929131E0,1.261932373E0,7.279205322E-1,4.637908936E-1
4.107401055E0,1.218261719E0,7.130126953E-1,4.510040283E-1
4.109842461E0,1.180984497E0,6.927642822E-1,4.371490479E-1
4.112314385E0,1.144760132E0,6.735992432E-1,4.169158936E-1
4.114786309E0,1.108535767E0,6.490936279E-1,3.977355957E-1
4.117227715E0,1.078720093E0,6.160736084E-1,3.785705566E-1
4.119699639E0,1.048889160E0,5.787811279E-1,3.572540283E-1
4.122171563E0,1.019058228E0,5.415039062E-1,3.380889893E-1
4.124643487E0,9.977569580E-1,5.063476562E-1,3.210449219E-1
4.127084893E0,9.785766602E-1,4.818420410E-1,3.029327393E-1
4.129556817E0,9.615325928E-1,4.562835693E-1,2.869567871E-1
4.132028740E0,9.530181885E-1,4.328460693E-1,2.699127197E-1
4.134470147E0,9.466247559E-1,4.147338867E-1,2.560577393E-1
4.136942071E0,9.402313232E-1,4.008789062E-1,2.475433350E-1
4.139413994E0,9.391632080E-1,3.891601562E-1,2.347564697E-1
4.141855401E0,9.423675537E-1,3.806457520E-1,2.209014893E-1
4.144327324E0,9.476928711E-1,3.859710693E-1,2.102508545E-1
4.146799248E0,9.583435059E-1,3.934326172E-1,1.964111328E-1
4.149240654E0,9.721832275E-1,4.030151367E-1,1.804199219E-1
4.151712578E0,9.807128906E-1,4.264526367E-1,1.697692871E-1
4.154184502E0,9.892272949E-1,4.541473389E-1,1.601867676E-1
4.156656426E0,1.000946045E0,4.765167236E-1,1.473999023E-1
4.159097832E0,1.013732910E0,5.074157715E-1,1.367492676E-1
4.161569756E0,1.014801025E0,5.393676758E-1,1.260986328E-1
4.164041680E0,1.020126343E0,5.745239258E-1,1.154479980E-1
4.166483086E0,1.027587891E0,6.086120605E-1,1.111907959E-1
4.168955010E0,1.028640747E0,6.437683105E-1,1.058654785E-1
4.171426934E0,1.029708862E0,6.789245605E-1,1.005249023E-1
4.173868340E0,1.033966064E0,7.108764648E-1,9.733581543E-2
4.176340264E0,1.027587891E0,7.417755127E-1,9.947204590E-2
4.178812188E0,1.019058228E0,7.726593018E-1,9.414672852E-2
4.181253594E0,1.015869141E0,7.982330322E-1,8.348083496E-2
4.183725518E0,1.010543823E0,8.184661865E-1,7.710266113E-2
4.186197442E0,1.005218506E0,8.365783691E-1,6.750488281E-2
4.188638848E0,9.956207275E-1,8.514862061E-1,5.578613281E-2
4.191110772E0,9.913635254E-1,8.674774170E-1,4.939270020E-2
4.193582696E0,9.807128906E-1,8.791961670E-1,4.194641113E-2
4.196024102E0,9.743194580E-1,8.909149170E-1,3.341674805E-2
4.198496026E0,9.647369385E-1,9.047546387E-1,2.169799805E-2
4.200967949E0,9.530181885E-1,9.196624756E-1,6.790161133E-3
4.203439873E0,9.434204102E-1,9.377746582E-1,-7.064819336E-3
4.205881279E0,9.242553711E-1,9.569549561E-1,-2.622985840E-2
4.208353203E0,9.029388428E-1,9.729309082E-1,-4.541015625E-2
4.210825127E0,8.805694580E-1,9.910430908E-1,-6.671142578E-2
4.213266533E0,8.603363037E-1,1.004898071E0,-9.335327148E-2
4.215738457E0,8.400878906E-1,1.010223389E0,-1.189117432E-1
4.218210381E0,8.134613037E-1,1.013412476E0,-1.423492432E-1
4.220651787E0,7.879028320E-1,1.008087158E0,-1.647186279E-1
4.223123711E0,7.687225342E-1,1.002761841E0,-1.775054932E-1
4.225595635E0,7.431488037E-1,9.921112061E-1,-1.892242432E-1
4.228037041E0,7.218475342E-1,9.729309082E-1,-1.988067627E-1
4.230508965E0,7.005462646E-1,9.494934082E-1,-2.062683105E-1
4.232980889E0,6.728515625E-1,9.250030518E-1,-2.073364258E-1
4.235422295E0,6.472778320E-1,8.994293213E-1,-2.052001953E-1
4.237894219E0,6.227874756E-1,8.738555908E-1,-1.977386475E-1
4.240366143E0,5.929565430E-1,8.461608887E-1,-1.828308105E-1
4.242807549E0,5.620574951E-1,8.195343018E-1,-1.657867432E-1
4.245279473E0,5.343627930E-1,7.897033691E-1,-1.498107910E-1
4.247751397E0,5.013427734E-1,7.577514648E-1,-1.242370605E-1
4.250192803E0,4.672546387E-1,7.247314453E-1,-1.018676758E-1
4.252664727E0,4.342346191E-1,6.906433105E-1,-7.843017578E-2
4.255136651E0,3.980102539E-1,6.565551758E-1,-5.287170410E-2
4.257608574E0,3.617858887E-1,6.171417236E-1,-2.197265625E-2
4.260049981E0,3.266448975E-1,5.723876953E-1,6.790161133E-3
4.262521904E0,2.968139648E-1,5.223236084E-1,3.555297852E-2
4.264993828E0,2.669830322E-1,4.680023193E-1,7.283020020E-2
4.267435235E0,2.392883301E-1,4.072723389E-1,1.047973633E-1
4.269907158E0,2.094573975E-1,3.465576172E-1,1.335601807E-1
4.272379082E0,1.838989258E-1,2.837066650E-1,1.591186523E-1
4.274820488E0,1.615142822E-1,2.208557129E-1,1.814880371E-1
4.277292412E0,1.412811279E-1,1.665344238E-1,1.953430176E-1
4.279764336E0,1.253051758E-1,1.175231934E-1,2.081298828E-1
4.282205742E0,1.157226562E-1,8.024597168E-2,2.177124023E-1
4.284677666E0,1.125183105E-1,5.148315430E-2,2.262268066E-1
4.287149590E0,1.146545410E-1,3.337097168E-2,2.304992676E-1
4.289590996E0,1.135864258E-1,3.123474121E-2,2.326202393E-1
4.292062920E0,1.210479736E-1,3.656005859E-2,2.304992676E-1
4.294534844E0,1.306304932E-1,4.934692383E-2,2.294311523E-1
4.296976250E0,1.402130127E-1,7.064819336E-2,2.294311523E-1
4.299448174E0,1.561889648E-1,9.301757812E-2,2.272949219E-1
4.301920098E0,1.775054932E-1,1.132659912E-1,2.251739502E-1
4.304361504E0,1.998748779E-1,1.345672607E-1,2.198486328E-1
4.306833428E0,2.265014648E-1,1.558685303E-1,2.166442871E-1
4.309305352E0,2.584533691E-1,1.761169434E-1,2.134552002E-1
4.311777276E0,2.893524170E-1,1.942291260E-1,2.049255371E-1
4.314218682E0,3.181152344E-1,2.123413086E-1,1.974639893E-1
4.316690606E0,3.532714844E-1,2.315063477E-1,1.868133545E-1
4.319132012E0,3.852233887E-1,2.453613281E-1,1.729736328E-1
4.321603936E0,4.161224365E-1,2.613372803E-1,1.612548828E-1
4.324075860E0,4.470062256E-1,2.762451172E-1,1.506042480E-1
4.326547783E0,4.757690430E-1,2.901000977E-1,1.356811523E-1
4.328989190E0,5.055999756E-1,3.039398193E-1,1.229095459E-1
4.331461113E0,5.343627930E-1,3.167266846E-1,1.090545654E-1
4.333933037E0,5.588684082E-1,3.252563477E-1,9.414672852E-2
4.336374444E0,5.801696777E-1,3.337707520E-1,8.242797852E-2
4.338846367E0,6.036071777E-1,3.412322998E-1,7.710266113E-2
4.341318291E0,6.281127930E-1,3.508148193E-1,6.750488281E-2
4.343759697E0,6.408843994E-1,3.604125977E-1,5.899047852E-2
4.346231621E0,6.558074951E-1,3.636016846E-1,5.578613281E-2
4.348703545E0,6.696472168E-1,3.678588867E-1,5.152893066E-2
4.351144951E0,6.856384277E-1,3.689270020E-1,4.620361328E-2
4.353616875E0,7.005462646E-1,3.636016846E-1,3.662109375E-2
4.356088799E0,7.058715820E-1,3.646697998E-1,2.597045898E-2
4.358560723E0,7.101287842E-1,3.646697998E-1,2.490234375E-2
4.361002129E0,7.122650146E-1,3.657379150E-1,1.637268066E-2
4.363474053E0,7.144012451E-1,3.721160889E-1,1.104736328E-2
4.365945977E0,7.090606689E-1,3.742523193E-1,6.790161133E-3
4.368387383E0,7.048034668E-1,3.689270020E-1,-1.739501953E-3
4.370859307E0,6.962890625E-1,3.657379150E-1,-8.132934570E-3
4.373331231E0,6.835021973E-1,3.582763672E-1,-1.345825195E-2
4.375772637E0,6.728515625E-1,3.465576172E-1,-1.557922363E-2
4.378244561E0,6.600646973E-1,3.305816650E-1,-1.664733887E-2
4.380716485E0,6.440887451E-1,3.156585693E-1,-1.557922363E-2
4.383157891E0,6.302337646E-1,2.986145020E-1,-1.557922363E-2
4.385629815E0,6.131896973E-1,2.847747803E-1,-1.451110840E-2
4.388101738E0,5.897521973E-1,2.698516846E-1,-1.451110840E-2
4.390543145E0,5.716552734E-1,2.613372803E-1,-1.345825195E-2
4.393015069E0,5.535430908E-1,2.496185303E-1,-5.996704102E-3
4.395486992E0,5.332946777E-1,2.389678955E-1,-3.860473633E-3
4.397958916E0,5.119934082E-1,2.283172607E-1,1.464843750E-3
4.400400322E0,4.874877930E-1,2.176666260E-1,5.722045898E-3
4.402872246E0,4.619293213E-1,1.974182129E-1,1.744079590E-2
4.405313653E0,4.246368408E-1,1.665344238E-1,3.022766113E-2
4.407785576E0,3.894805908E-1,1.398925781E-1,4.301452637E-2
4.410257500E0,3.575286865E-1,1.175231934E-1,5.685424805E-2
4.412729424E0,3.223724365E-1,1.015472412E-1,6.431579590E-2
4.415170830E0,2.850952148E-1,9.089660645E-2,7.070922852E-2
4.417642754E0,2.616577148E-1,7.810974121E-2,8.242797852E-2
4.420114678E0,2.243652344E-1,6.745910645E-2,9.094238281E-2
4.422556084E0,1.902770996E-1,5.041503906E-2,9.733581543E-2
4.425028008E0,1.615142822E-1,3.762817383E-2,1.037292480E-1
4.427499932E0,1.295623779E-1,1.951599121E-2,1.154479980E-1
4.429941338E0,1.007995605E-1,-2.853393555E-3,1.260986328E-1
4.432413262E0,7.736206055E-2,-2.734375000E-2,1.399536133E-1
4.434885186E0,5.392456055E-2,-5.078125000E-2,1.506042480E-1
4.437326592E0,3.794860840E-2,-7.528686523E-2,1.580505371E-1
4.439798516E0,3.048706055E-2,-9.446716309E-2,1.665802002E-1
4.442270440E0,2.836608887E-2,-1.115112305E-1,1.740417480E-1
4.444711846E0,3.048706055E-2,-1.274871826E-1,1.729736328E-1
4.447183770E0,3.048706055E-2,-1.413269043E-1,1.644439697E-1
4.449655694E0,4.434204102E-2,-1.477203369E-1,1.601867676E-1
4.452127617E0,6.457519531E-2,-1.455993652E-1,1.527252197E-1
4.454569024E0,8.268737793E-2,-1.423950195E-1,1.506042480E-1
4.457040947E0,1.093292236E-1,-1.370697021E-1,1.516571045E-1
4.459512871E0,1.380920410E-1,-1.242828369E-1,1.537933350E-1
4.461954278E0,1.625823975E-1,-1.093750000E-1,1.559295654E-1
4.464426201E0,1.860198975E-1,-9.552001953E-2,1.537933350E-1
4.466898125E0,2.211761475E-1,-7.742309570E-2,1.516571045E-1
4.469339531E0,2.467498779E-1,-5.931091309E-2,1.452789307E-1
4.471811455E0,2.776336670E-1,-4.119873047E-2,1.420745850E-1
4.474283379E0,3.053283691E-1,-1.989746094E-2,1.388854980E-1
4.476724785E0,3.309020996E-1,4.608154297E-3,1.324920654E-1
4.479196709E0,3.585968018E-1,2.697753906E-2,1.218414307E-1
4.481668633E0,3.873596191E-1,5.148315430E-2,1.154479980E-1
4.484110039E0,4.118652344E-1,7.810974121E-2,1.079864502E-1
4.486581963E0,4.374237061E-1,9.515380859E-2,9.519958496E-2
4.489053887E0,4.597930908E-1,1.154022217E-1,8.454895020E-2
4.491495293E0,4.757690430E-1,1.313781738E-1,7.603454590E-2
4.493967217E0,4.906921387E-1,1.398925781E-1,6.857299805E-2
4.496439141E0,5.024108887E-1,1.409606934E-1,5.899047852E-2
4.498911065E0,5.066680908E-1,1.367034912E-1,5.046081543E-2
4.501352471E0,5.055999756E-1,1.324462891E-1,4.513549805E-2
4.503824395E0,4.981384277E-1,1.249847412E-1,4.513549805E-2
4.506296319E0,4.885559082E-1,1.154022217E-1,4.301452637E-2
4.508737725E0,4.779052734E-1,1.047363281E-1,4.194641113E-2
4.511209649E0,4.629974365E-1,9.729003906E-2,3.341674805E-2
4.513681572E0,4.406280518E-1,8.557128906E-2,3.022766113E-2
4.516122979E0,4.097290039E-1,7.064819336E-2,2.490234375E-2
4.518594903E0,3.820343018E-1,5.148315430E-2,2.276611328E-2
4.521066826E0,3.532714844E-1,1.951599121E-2,2.169799805E-2
4.523508233E0,3.181152344E-1,-1.564025879E-2,1.957702637E-2
4.525980156E0,2.946777344E-1,-6.463623047E-2,1.104736328E-2
4.528452080E0,2.595214844E-1,-1.083068848E-1,1.425170898E-2
4.530893487E0,2.254333496E-1,-1.413269043E-1,1.744079590E-2
4.533365410E0,1.838989258E-1,-1.690368652E-1,1.957702637E-2
4.535837334E0,1.348876953E-1,-2.052459717E-1,1.850891113E-2
4.538278740E0,8.375549316E-2,-2.393341064E-1,1.744079590E-2
4.540750664E0,3.155517578E-2,-2.734222412E-1,2.169799805E-2
4.543222588E0,-1.531982422E-2,-3.096466064E-1,3.341674805E-2
4.545663994E0,-6.431579590E-2,-3.384094238E-1,4.194641113E-2
4.548135918E0,-1.069183350E-1,-3.661041260E-1,5.046081543E-2
4.550607842E0,-1.495361328E-1,-3.948669434E-1,5.792236328E-2
4.553079766E0,-1.857604980E-1,-4.236297607E-1,5.899047852E-2
4.555521172E0,-2.123870850E-1,-4.545288086E-1,5.792236328E-2
4.557993096E0,-2.294311523E-1,-4.832763672E-1,5.366516113E-2
4.560465020E0,-2.326202393E-1,-5.099182129E-1,4.939270020E-2
4.562906426E0,-2.251739502E-1,-5.269622803E-1,4.301452637E-2
4.565378350E0,-2.187805176E-1,-5.429382324E-1,3.448486328E-2
4.567850274E0,-2.038574219E-1,-5.482635498E-1,2.809143066E-2
4.570291680E0,-1.804351807E-1,-5.482635498E-1,1.850891113E-2
4.572763604E0,-1.527252197E-1,-5.429382324E-1,6.790161133E-3
4.575235528E0,-1.229095459E-1,-5.227050781E-1,3.967285156E-4
4.577707451E0,-9.626770020E-2,-5.035247803E-1,-9.185791016E-3
4.580148858E0,-6.538391113E-2,-4.705047607E-1,-1.771545410E-2
4.582620781E0,-3.981018066E-2,-4.300231934E-1,-2.090454102E-2
4.585062188E0,-1.850891113E-2,-3.852844238E-1,-3.155517578E-2
4.587534112E0,4.928588867E-3,-3.405456543E-1,-4.222106934E-2
4.590006035E0,2.729797363E-2,-2.957916260E-1,-5.287170410E-2
4.592447442E0,4.541015625E-2,-2.542572021E-1,-6.245422363E-2
4.594919365E0,6.245422363E-2,-2.148437500E-1,-7.524108887E-2
4.597391289E0,7.949829102E-2,-1.764831543E-1,-8.801269531E-2
4.599863213E0,9.333801270E-2,-1.477203369E-1,-1.007995605E-1
4.602304619E0,1.071929932E-1,-1.264190674E-1,-1.071929932E-1
4.604776543E0,1.221008301E-1,-1.083068848E-1,-1.114501953E-1
4.607248467E0,1.316986084E-1,-9.552001953E-2,-1.157226562E-1
4.609689873E0,1.370239258E-1,-8.486938477E-2,-1.231689453E-1
4.612161797E0,1.434173584E-1,-7.421875000E-2,-1.284942627E-1
4.614633721E0,1.487426758E-1,-6.570434570E-2,-1.348876953E-1
4.617075127E0,1.519317627E-1,-5.610656738E-2,-1.455383301E-1
4.619547051E0,1.551361084E-1,-4.438781738E-2,-1.583251953E-1
4.622018975E0,1.551361084E-1,-3.480529785E-2,-1.689758301E-1
4.624460381E0,1.519317627E-1,-2.522277832E-2,-1.743011475E-1
4.626932305E0,1.455383301E-1,-1.564025879E-2,-1.849517822E-1
4.629404229E0,1.412811279E-1,-9.246826172E-3,-1.881561279E-1
4.631845635E0,1.338195801E-1,-6.042480469E-3,-1.934814453E-1
4.634317559E0,1.221008301E-1,-3.921508789E-3,-1.998748779E-1
4.636789483E0,1.135864258E-1,-2.853393555E-3,-1.988067627E-1
4.639230889E0,9.440612793E-2,-2.853393555E-3,-1.998748779E-1
4.641702813E0,7.524108887E-2,-7.110595703E-3,-1.998748779E-1
4.644174737E0,5.392456055E-2,-1.350402832E-2,-1.998748779E-1
4.646646660E0,2.836608887E-2,-2.201843262E-2,-1.966705322E-1
4.649088067E0,-1.464843750E-3,-3.480529785E-2,-1.892242432E-1
4.651559990E0,-3.022766113E-2,-4.759216309E-2,-1.849517822E-1
4.654031914E0,-6.324768066E-2,-6.250000000E-2,-1.753692627E-1
4.656473321E0,-9.733581543E-2,-8.168029785E-2,-1.679077148E-1
4.658945244E0,-1.314239502E-1,-1.072387695E-1,-1.636505127E-1
4.661417168E0,-1.623229980E-1,-1.328125000E-1,-1.562042236E-1
4.663858574E0,-1.910858154E-1,-1.583709717E-1,-1.455383301E-1
4.666330498E0,-2.198486328E-1,-1.860809326E-1,-1.391601562E-1
4.668802422E0,-2.390136719E-1,-2.212219238E-1,-1.306304932E-1
4.671243828E0,-2.518005371E-1,-2.531890869E-1,-1.221160889E-1
4.673715752E0,-2.571258545E-1,-2.808837891E-1,-1.135864258E-1
4.676187676E0,-2.603302002E-1,-3.075103760E-1,-1.082611084E-1
4.678629082E0,-2.592620850E-1,-3.298797607E-1,-1.018676758E-1
4.681101006E0,-2.486114502E-1,-3.511962891E-1,-9.867858887E-2
4.683572930E0,-2.315673828E-1,-3.607788086E-1,-9.335327148E-2
4.686014336E0,-2.166442871E-1,-3.629150391E-1,-8.695983887E-2
4.688486260E0,-1.932067871E-1,-3.629150391E-1,-8.268737793E-2
4.690958184E0,-1.719055176E-1,-3.586425781E-1,-8.268737793E-2
4.693399590E0,-1.463470459E-1,-3.469238281E-1,-8.268737793E-2
4.695871514E0,-1.229095459E-1,-3.245544434E-1,-8.056640625E-2
4.698343438E0,-9.626770020E-2,-3.043212891E-1,-8.268737793E-2
4.700815362E0,-7.070922852E-2,-2.830200195E-1,-8.908081055E-2
4.703256768E0,-4.727172852E-2,-2.542572021E-1,-9.014892578E-2
4.705728692E0,-2.169799805E-2,-2.254943848E-1,-9.440612793E-2
4.708200615E0,-1.464843750E-3,-1.967315674E-1,-1.007995605E-1
4.710642022E0,1.344299316E-2,-1.690368652E-1,-1.061248779E-1
4.713113946E0,3.369140625E-2,-1.402740479E-1,-1.146545410E-1
4.715585869E0,4.859924316E-2,-1.147003174E-1,-1.189117432E-1
4.718027276E0,5.924987793E-2,-9.126281738E-2,-1.221160889E-1
4.720499199E0,7.417297363E-2,-7.209777832E-2,-1.242370605E-1
4.722971123E0,8.801269531E-2,-5.184936523E-2,-1.242370605E-1
4.725412529E0,9.333801270E-2,-3.587341309E-2,-1.253051758E-1
4.727884453E0,1.050567627E-1,-2.201843262E-2,-1.253051758E-1
4.730356377E0,1.135864258E-1,-1.243591309E-2,-1.284942627E-1
4.732797783E0,1.199798584E-1,-4.974365234E-3,-1.316986084E-1
4.735269707E0,1.263732910E-1,2.471923828E-3,-1.327667236E-1
4.737741631E0,1.306304932E-1,2.471923828E-3,-1.348876953E-1
4.740183037E0,1.370239258E-1,1.419067383E-3,-1.370239258E-1
4.742654961E0,1.412811279E-1,-1.785278320E-3,-1.412811279E-1
4.745126885E0,1.444702148E-1,-3.921508789E-3,-1.402130127E-1
4.747598809E0,1.423492432E-1,-4.974365234E-3,-1.380920410E-1
4.750040215E0,1.391448975E-1,-4.974365234E-3,-1.380920410E-1
4.752512139E0,1.359558105E-1,-3.921508789E-3,-1.391601562E-1
4.754984063E0,1.316986084E-1,-3.921508789E-3,-1.370239258E-1
4.757425469E0,1.253051758E-1,-2.853393555E-3,-1.380920410E-1
4.759897393E0,1.167755127E-1,-2.853393555E-3,-1.391601562E-1
4.762369317E0,1.050567627E-1,-1.136779785E-2,-1.402130127E-1
4.764810723E0,9.440612793E-2,-2.522277832E-2,-1.370239258E-1
4.767282647E0,8.161926270E-2,-4.226684570E-2,-1.359558105E-1
4.769754571E0,6.777954102E-2,-6.250000000E-2,-1.295623779E-1
4.772195977E0,5.073547363E-2,-8.700561523E-2,-1.274414062E-1
4.774667901E0,3.369140625E-2,-1.189575195E-1,-1.199798584E-1
4.777139824E0,1.771545410E-2,-1.551818848E-1,-1.125183105E-1
4.779581231E0,2.792358398E-3,-1.860809326E-1,-1.082611084E-1
4.782053154E0,-8.926391602E-3,-2.265625000E-1,-9.547424316E-2
4.784525078E0,-2.064514160E-2,-2.649078369E-1,-8.908081055E-2
4.786966485E0,-3.022766113E-2,-2.989959717E-1,-7.843017578E-2
4.789438408E0,-3.981018066E-2,-3.277587891E-1,-6.777954102E-2
4.791910332E0,-4.194641113E-2,-3.501281738E-1,-5.926513672E-2
4.794382256E0,-4.194641113E-2,-3.692932129E-1,-4.859924316E-2
4.796823662E0,-4.301452637E-2,-3.874053955E-1,-4.008483887E-2
4.799295586E0,-3.981018066E-2,-3.970031738E-1,-2.943420410E-2
4.801767510E0,-3.448486328E-2,-3.948669434E-1,-1.878356934E-2
4.804208916E0,-2.915954590E-2,-3.874053955E-1,-1.345825195E-2
4.806680840E0,-2.169799805E-2,-3.746337891E-1,-8.132934570E-3
4.809152764E0,-1.318359375E-2,-3.554534912E-1,-2.792358398E-3
4.811594170E0,-3.967285156E-4,-3.266906738E-1,-2.792358398E-3
4.814066094E0,3.860473633E-3,-2.904663086E-1,-2.792358398E-3
4.816538018E0,1.451110840E-2,-2.510528564E-1,-7.064819336E-3
4.818979424E0,2.729797363E-2,-2.084503174E-1,-1.451110840E-2
4.821451348E0,3.794860840E-2,-1.669006348E-1,-1.878356934E-2
4.823923272E0,5.073547363E-2,-1.210937500E-1,-2.622985840E-2
4.826364678E0,6.564331055E-2,-7.635498047E-2,-3.050231934E-2
4.828836602E0,8.482360840E-2,-3.480529785E-2,-4.222106934E-2
4.831308526E0,9.973144531E-2,9.933471680E-3,-5.287170410E-2
4.833749932E0,1.157226562E-1,4.934692383E-2,-5.926513672E-2
4.836221856E0,1.316986084E-1,8.450317383E-2,-6.564331055E-2
4.838693779E0,1.476745605E-1,1.175231934E-1,-7.630920410E-2
4.841165703E0,1.679077148E-1,1.505432129E-1,-9.014892578E-2
4.843607110E0,1.849517822E-1,1.803741455E-1,-9.654235840E-2
4.846079033E0,2.019958496E-1,2.038116455E-1,-1.040039062E-1
4.848520440E0,2.201080322E-1,2.251129150E-1,-1.125183105E-1
4.850992363E0,2.318267822E-1,2.400360107E-1,-1.199798584E-1
4.853464287E0,2.424774170E-1,2.517547607E-1,-1.231689453E-1
4.855936211E0,2.520751953E-1,2.634735107E-1,-1.263732910E-1
4.858377617E0,2.659149170E-1,2.730560303E-1,-1.263732910E-1
4.860849541E0,2.733764648E-1,2.773132324E-1,-1.231689453E-1
4.863321465E0,2.723083496E-1,2.783813477E-1,-1.199798584E-1
4.865762871E0,2.723083496E-1,2.762451172E-1,-1.146545410E-1
4.868234795E0,2.744445801E-1,2.687988281E-1,-1.071929932E-1
4.870706719E0,2.669830322E-1,2.592010498E-1,-1.040039062E-1
4.873148125E0,2.605895996E-1,2.442932129E-1,-9.973144531E-2
4.875620049E0,2.531280518E-1,2.251129150E-1,-9.761047363E-2
4.878091973E0,2.435455322E-1,2.038116455E-1,-9.228515625E-2
4.880533379E0,2.297058105E-1,1.803741455E-1,-8.801269531E-2
4.883005303E0,2.201080322E-1,1.558685303E-1,-8.056640625E-2
4.885477227E0,2.083892822E-1,1.334991455E-1,-7.630920410E-2
4.887918633E0,1.966705322E-1,1.090087891E-1,-7.310485840E-2
4.890390557E0,1.806945801E-1,8.557128906E-2,-6.884765625E-2
4.892862481E0,1.721801758E-1,6.639099121E-2,-6.671142578E-2
4.895334404E0,1.657867432E-1,5.360412598E-2,-6.245422363E-2
4.897775811E0,1.615142822E-1,4.615783691E-2,-5.287170410E-2
4.900247735E0,1.615142822E-1,4.188537598E-2,-4.222106934E-2
4.902689141E0,1.668548584E-1,4.402160645E-2,-3.155517578E-2
4.905161065E0,1.732330322E-1,5.255126953E-2,-2.622985840E-2
4.907632988E0,1.775054932E-1,6.425476074E-2,-2.090454102E-2
4.910104912E0,1.892242432E-1,7.810974121E-2,-1.983642578E-2
4.912546319E0,2.030639648E-1,1.036834717E-1,-1.451110840E-2
4.915018242E0,2.158508301E-1,1.303100586E-1,-7.064819336E-3
4.917490166E0,2.254333496E-1,1.601409912E-1,-7.064819336E-3
4.919931572E0,2.382202148E-1,1.931610107E-1,-7.064819336E-3
4.922403496E0,2.456817627E-1,2.261810303E-1,-8.132934570E-3
4.924875420E0,2.531280518E-1,2.549438477E-1,-8.132934570E-3
4.927316826E0,2.584533691E-1,2.815704346E-1,-7.064819336E-3
4.929788750E0,2.563323975E-1,3.007507324E-1,-7.064819336E-3
4.932260674E0,2.552642822E-1,3.188629150E-1,-8.132934570E-3
4.934702080E0,2.552642822E-1,3.359069824E-1,-9.185791016E-3
4.937174004E0,2.456817627E-1,3.433685303E-1,-9.185791016E-3
4.939645928E0,2.392883301E-1,3.454895020E-1,-1.345825195E-2
4.942117852E0,2.371520996E-1,3.401641846E-1,-1.132202148E-2
4.944559258E0,2.275695801E-1,3.295135498E-1,-1.451110840E-2
4.947031182E0,2.233123779E-1,3.220520020E-1,-1.239013672E-2
4.949503106E0,2.190399170E-1,3.082122803E-1,-8.132934570E-3
4.951944512E0,2.126617432E-1,2.922363281E-1,-4.928588867E-3
4.954416436E0,2.073211670E-1,2.741241455E-1,3.967285156E-4
4.956888360E0,2.030639648E-1,2.538757324E-1,5.722045898E-3
4.959329766E0,2.030639648E-1,2.315063477E-1,8.926391602E-3
4.961801690E0,2.019958496E-1,2.123413086E-1,1.957702637E-2
4.964273613E0,1.956024170E-1,1.974182129E-1,2.915954590E-2
4.966715020E0,1.849517822E-1,1.825103760E-1,3.448486328E-2
4.969186944E0,1.806945801E-1,1.718597412E-1,4.301452637E-2
4.971658867E0,1.764373779E-1,1.622619629E-1,4.513549805E-2
4.974100274E0,1.679077148E-1,1.494903564E-1,4.727172852E-2
4.976572197E0,1.657867432E-1,1.377716064E-1,5.471801758E-2
4.979044121E0,1.625823975E-1,1.313781738E-1,5.899047852E-2
