"Time (s)","Gyroscope x (rad/s)","Gyroscope y (rad/s)","Gyroscope z (rad/s)"
1.438765630E-1,-1.107482910E-1,1.861724854E-1,1.525878906E-1
1.488509280E-1,-1.107482910E-1,1.861724854E-1,1.525878906E-1
1.538252930E-1,-2.322387695E-1,1.446533203E-2,7.232666016E-2
1.587996580E-1,-2.223922729E0,-2.859634399E0,-1.271331787E0
1.637740240E-1,-1.808242798E0,-2.986099243E0,-1.329116821E0
1.687483890E-1,-1.372940063E0,-2.852218628E0,-1.219635010E0
1.737227540E-1,-1.067169189E0,-2.940139771E0,-1.068954468E0
1.786971190E-1,-8.482971191E-1,-2.891342163E0,-9.709777832E-1
1.836714850E-1,-6.526794434E-1,-2.681594849E0,-9.071350098E-1
1.886458500E-1,-4.736022949E-1,-2.352661133E0,-8.645477295E-1
1.936202150E-1,-3.354644775E-1,-1.976379395E0,-8.487701416E-1
1.985945800E-1,-2.654266357E-1,-1.556274414E0,-8.518829346E-1
2.035689460E-1,-2.753906250E-1,-1.107254028E0,-8.593444824E-1
2.085433110E-1,-3.591613770E-1,-6.997680664E-1,-8.529357910E-1
2.135176760E-1,-5.050048828E-1,-4.010620117E-1,-8.190155029E-1
2.184920410E-1,-6.845703125E-1,-1.939086914E-1,-7.602233887E-1
2.234664060E-1,-8.668365479E-1,-3.746032715E-2,-6.751251221E-1
2.284407720E-1,-1.013305664E0,1.180267334E-1,-5.769195557E-1
2.334151370E-1,-1.103454590E0,2.696228027E-1,-4.827880859E-1
2.383895020E-1,-1.160079956E0,3.777160645E-1,-4.022827148E-1
2.433638670E-1,-1.210403442E0,4.705352783E-1,-3.482666016E-1
2.483382330E-1,-1.265853882E0,6.072387695E-1,-3.303222656E-1
2.533125980E-1,-1.312866211E0,7.899322510E-1,-3.546295166E-1
2.582869630E-1,-1.324401855E0,9.368591309E-1,-4.156646729E-1
2.632613280E-1,-1.289611816E0,9.686126709E-1,-4.937744141E-1
2.682356940E-1,-1.220535278E0,8.664703369E-1,-5.660400391E-1
2.732100590E-1,-1.150466919E0,6.706237793E-1,-6.176910400E-1
2.781844240E-1,-1.081237793E0,2.530364990E-1,-6.485137939E-1
2.831587890E-1,-9.852905273E-1,-3.638153076E-1,-6.645660400E-1
2.881331540E-1,-8.422698975E-1,-9.803161621E-1,-6.780242920E-1
2.931075200E-1,-6.556243896E-1,-1.498886108E0,-6.962127686E-1
2.980818850E-1,-4.461212158E-1,-1.950408936E0,-7.156524658E-1
3.030562500E-1,-2.342376709E-1,-2.407241821E0,-7.314605713E-1
3.080306150E-1,-3.689575195E-2,-2.895095825E0,-7.417144775E-1
3.130049810E-1,1.305847168E-1,-3.379211426E0,-7.478485107E-1
3.179793460E-1,2.571411133E-1,-3.817382812E0,-7.625427246E-1
3.229537110E-1,3.322753906E-1,-4.191513062E0,-7.950286865E-1
3.279280760E-1,3.423309326E-1,-4.561599731E0,-8.627929688E-1
3.329024420E-1,2.973175049E-1,-4.880371094E0,-9.701843262E-1
3.378768070E-1,2.145080566E-1,-5.096542358E0,-1.099990845E0
3.428511720E-1,1.009674072E-1,-5.263549805E0,-1.236328125E0
3.478255370E-1,-2.453613281E-2,-5.362915039E0,-1.352096558E0
3.527999030E-1,-1.430206299E-1,-5.428833008E0,-1.433654785E0
3.577742680E-1,-2.291717529E-1,-5.476074219E0,-1.473083496E0
3.627486330E-1,-2.601470947E-1,-5.535690308E0,-1.468338013E0
3.677229980E-1,-2.169647217E-1,-5.607223511E0,-1.422973633E0
3.726973630E-1,-1.016235352E-1,-5.676345825E0,-1.330352783E0
3.776717290E-1,6.588745117E-2,-5.710678101E0,-1.147872925E0
3.826460940E-1,2.603302002E-1,-5.721725464E0,-7.863311768E-1
3.876204590E-1,4.692535400E-1,-5.749374390E0,-2.354736328E-1
3.925948240E-1,6.726226807E-1,-5.758377075E0,3.710327148E-1
3.975691900E-1,8.648223877E-1,-5.779479980E0,8.836517334E-1
4.025435550E-1,1.046615601E0,-5.886734009E0,1.293899536E0
4.075179200E-1,1.220550537E0,-6.124816895E0,1.646163940E0
4.124922850E-1,1.388626099E0,-6.441802979E0,1.963912964E0
4.174666510E-1,1.550308228E0,-6.756057739E0,2.237304688E0
4.224410160E-1,1.703079224E0,-7.033905029E0,2.447586060E0
4.274153810E-1,1.839523315E0,-7.298416138E0,2.570938110E0
4.323897460E-1,1.937057495E0,-7.593566895E0,2.572921753E0
4.373641120E-1,1.972167969E0,-7.925842285E0,2.451324463E0
4.423384770E-1,1.930297852E0,-8.199981689E0,2.256866455E0
4.473128420E-1,1.823226929E0,-8.317474365E0,2.065444946E0
4.522872070E-1,1.685913086E0,-8.277038574E0,1.977081299E0
4.572615720E-1,1.572174072E0,-8.178085327E0,2.075988770E0
4.622359380E-1,1.528564453E0,-8.108901978E0,2.347778320E0
4.672103030E-1,1.568344116E0,-8.045578003E0,2.688568115E0
4.721846680E-1,1.685287476E0,-7.960739136E0,3.013381958E0
4.771590330E-1,1.851257324E0,-7.797256470E0,3.310241699E0
4.821333990E-1,1.973922729E0,-7.312927246E0,3.576324463E0
4.871077640E-1,2.021911621E0,-6.633590698E0,3.799774170E0
4.920821290E-1,2.065948486E0,-6.059188843E0,3.990371704E0
4.970564940E-1,2.053482056E0,-5.367034912E0,4.127487183E0
5.020308600E-1,1.897735596E0,-4.433151245E0,4.207855225E0
5.070052250E-1,1.692108154E0,-3.544326782E0,4.271026611E0
5.119795900E-1,1.471282959E0,-2.818252563E0,4.296264648E0
5.169539550E-1,1.191818237E0,-2.254470825E0,4.272933960E0
5.219283210E-1,8.354797363E-1,-1.844970703E0,4.244796753E0
5.269026860E-1,4.227142334E-1,-1.539337158E0,4.229782104E0
5.318770510E-1,-1.741027832E-2,-1.285980225E0,4.214965820E0
5.368514160E-1,-4.526824951E-1,-1.107254028E0,4.190811157E0
5.418257810E-1,-8.504638672E-1,-1.045379639E0,4.158096313E0
5.468001470E-1,-1.186737061E0,-1.098083496E0,4.137420654E0
5.517745120E-1,-1.453536987E0,-1.238082886E0,4.137023926E0
5.567488770E-1,-1.655502319E0,-1.441040039E0,4.158966064E0
5.617232420E-1,-1.807281494E0,-1.668106079E0,4.200012207E0
5.666976080E-1,-1.933898926E0,-1.871582031E0,4.246765137E0
5.716719730E-1,-2.045928955E0,-2.004348755E0,4.287338257E0
5.766463380E-1,-2.154327393E0,-2.053070068E0,4.306060791E0
5.816207030E-1,-2.272109985E0,-2.001434326E0,4.289428711E0
5.865950690E-1,-2.403671265E0,-1.841659546E0,4.229415894E0
5.915694340E-1,-2.546035767E0,-1.624664307E0,4.128524780E0
5.965437990E-1,-2.693344116E0,-1.388534546E0,3.993103027E0
6.015181640E-1,-2.813369751E0,-1.168228149E0,3.841430664E0
6.064925290E-1,-2.780288696E0,-9.686431885E-1,3.722137451E0
6.114668950E-1,-2.538955688E0,-7.820281982E-1,3.631118774E0
6.164412600E-1,-2.223388672E0,-5.809936523E-1,3.545135498E0
6.214156250E-1,-1.868545532E0,-2.998657227E-1,3.516143799E0
6.263899900E-1,-1.452789307E0,9.144592285E-2,3.554199219E0
6.313643560E-1,-1.000167847E0,5.643463135E-1,3.629058838E0
6.363387210E-1,-5.567016602E-1,1.065002441E0,3.716323853E0
6.413130860E-1,-1.814880371E-1,1.548431396E0,3.795578003E0
6.462874510E-1,9.161376953E-2,1.965484619E0,3.860000610E0
6.512618170E-1,2.533874512E-1,2.250946045E0,3.905471802E0
6.562361820E-1,3.004913330E-1,2.351211548E0,3.922592163E0
6.612105470E-1,2.402343750E-1,2.274932861E0,3.913406372E0
6.661849120E-1,1.030578613E-1,2.112472534E0,3.886474609E0
6.711592780E-1,-7.022094727E-2,1.957321167E0,3.831588745E0
6.761336430E-1,-2.473297119E-1,1.844238281E0,3.749603271E0
6.811080080E-1,-3.956146240E-1,1.750564575E0,3.661529541E0
6.860823730E-1,-4.862365723E-1,1.694931030E0,3.566894531E0
6.910567380E-1,-5.110473633E-1,1.725158691E0,3.487564087E0
6.960311040E-1,-4.940643311E-1,1.886230469E0,3.439895630E0
7.010054690E-1,-4.559936523E-1,2.189102173E0,3.423294067E0
7.059798340E-1,-3.998718262E-1,2.581436157E0,3.421997070E0
7.109541990E-1,-3.184967041E-1,3.017349243E0,3.421981812E0
7.159285650E-1,-2.280120850E-1,3.482986450E0,3.423065186E0
7.209029300E-1,-1.481781006E-1,3.934936523E0,3.418426514E0
7.258772950E-1,-7.360839844E-2,4.297958374E0,3.407211304E0
7.308516600E-1,3.082275391E-3,4.521697998E0,3.362091064E0
7.358260260E-1,9.533691406E-2,4.604995728E0,3.261840820E0
7.408003910E-1,2.017669678E-1,4.553726196E0,3.114532471E0
7.457747560E-1,3.104248047E-1,4.394180298E0,2.928955078E0
7.507491210E-1,4.153594971E-1,4.173034668E0,2.719528198E0
7.557234870E-1,5.211181641E-1,3.939544678E0,2.499847412E0
7.606978520E-1,6.248016357E-1,3.729721069E0,2.298858643E0
7.656722170E-1,7.313232422E-1,3.573211670E0,2.129470825E0
7.706465820E-1,8.462524414E-1,3.464675903E0,1.993652344E0
7.756209470E-1,9.737548828E-1,3.362823486E0,1.887130737E0
7.805953130E-1,1.115264893E0,3.232833862E0,1.803741455E0
7.855696780E-1,1.259414673E0,3.038223267E0,1.716445923E0
7.905440430E-1,1.387329102E0,2.790542603E0,1.591049194E0
7.955184080E-1,1.490173340E0,2.533081055E0,1.417968750E0
8.004927740E-1,1.559768677E0,2.289566040E0,1.200149536E0
8.054671390E-1,1.592346191E0,2.095138550E0,9.561920166E-1
8.104415040E-1,1.582962036E0,1.962005615E0,7.267456055E-1
8.154158690E-1,1.533966064E0,1.865203857E0,5.428619385E-1
8.203902350E-1,1.451171875E0,1.777374268E0,4.153289795E-1
8.253646000E-1,1.340713501E0,1.702835083E0,3.421325684E-1
8.303389650E-1,1.208801270E0,1.668624878E0,3.036346436E-1
8.353133300E-1,1.055557251E0,1.649536133E0,2.773590088E-1
8.402876960E-1,7.421722412E-1,1.602279663E0,2.210998535E-1
8.452620610E-1,1.362304688E-1,1.527832031E0,1.126251221E-1
8.502364260E-1,-6.138916016E-1,1.417373657E0,8.682250977E-3
8.552107910E-1,-1.313995361E0,1.277389526E0,-3.752136230E-2
8.601705430E-1,-1.852828979E0,1.127029419E0,-1.844787598E-2
8.651449090E-1,-2.261413574E0,9.425201416E-1,3.622436523E-2
8.701192740E-1,-2.581283569E0,7.846527100E-1,1.009674072E-1
8.750936390E-1,-2.824325562E0,7.001037598E-1,1.603698730E-1
8.800680040E-1,-2.884918213E0,6.742706299E-1,2.183837891E-1
8.850423700E-1,-2.601470947E0,7.780303955E-1,2.410125732E-1
8.900167350E-1,-2.211410522E0,9.165954590E-1,1.779937744E-1
8.949911000E-1,-1.851364136E0,1.022323608E0,1.037139893E-1
8.999654650E-1,-1.468704224E0,1.130569458E0,8.172607422E-2
9.049398310E-1,-1.118728638E0,1.195404053E0,8.413696289E-2
9.099141960E-1,-8.646697998E-1,1.156066895E0,8.226013184E-2
9.148885610E-1,-6.688079834E-1,1.071472168E0,6.753540039E-2
9.198629260E-1,-4.894714355E-1,9.279937744E-1,2.537536621E-2
9.248372910E-1,-3.139953613E-1,7.145843506E-1,-3.390502930E-2
9.298116570E-1,-1.429290771E-1,4.684143066E-1,-8.482360840E-2
9.347860220E-1,2.163696289E-2,2.337188721E-1,-1.194458008E-1
9.397603870E-1,1.779785156E-1,5.963134766E-2,-1.410064697E-1
9.447347520E-1,3.208465576E-1,-4.313659668E-2,-1.515045166E-1
9.497091180E-1,4.347839355E-1,-9.834289551E-2,-1.579742432E-1
9.546834830E-1,5.057373047E-1,-1.186218262E-1,-1.489562988E-1
9.596578480E-1,5.358581543E-1,-1.118774414E-1,-1.256713867E-1
9.646322130E-1,5.357818604E-1,-1.039886475E-1,-1.016845703E-1
9.696065790E-1,5.142974854E-1,-1.028594971E-1,-8.657836914E-2
9.745809440E-1,4.676971436E-1,-1.043548584E-1,-9.440612793E-2
9.795553090E-1,3.904113770E-1,-1.329956055E-1,-1.400451660E-1
9.845296740E-1,2.878265381E-1,-2.054138184E-1,-2.122802734E-1
9.895040400E-1,1.832885742E-1,-2.864074707E-1,-2.975311279E-1
9.944784050E-1,1.068420410E-1,-3.057861328E-1,-3.843078613E-1
9.994527700E-1,6.233215332E-2,-1.973876953E-1,-4.691314697E-1
1.004427135E0,3.753662109E-2,2.964782715E-2,-5.545959473E-1
1.009401500E0,2.188110352E-2,2.813262939E-1,-6.221618652E-1
1.014375866E0,3.997802734E-3,4.891357422E-1,-6.492004395E-1
1.019350231E0,-4.072570801E-2,6.164550781E-1,-6.754302979E-1
1.024324596E0,-1.171569824E-1,6.181488037E-1,-7.168121338E-1
1.029298961E0,-1.712799072E-1,5.267333984E-1,-7.229003906E-1
1.034273327E0,-1.784820557E-1,4.405975342E-1,-7.008361816E-1
1.039247692E0,-1.403198242E-1,3.624267578E-1,-6.520996094E-1
1.044222057E0,-8.308410645E-2,2.717285156E-1,-5.749664307E-1
1.049196422E0,-2.696228027E-2,1.541137695E-1,-4.843139648E-1
1.054170788E0,1.396179199E-2,2.040100098E-2,-4.146118164E-1
1.059145153E0,1.078796387E-2,-1.237640381E-1,-4.012298584E-1
1.064119518E0,-6.260681152E-2,-2.781677246E-1,-4.241790771E-1
1.069093883E0,-1.733245850E-1,-4.079132080E-1,-4.659118652E-1
1.074068249E0,-2.857513428E-1,-4.690093994E-1,-5.083160400E-1
1.079042614E0,-3.850860596E-1,-4.804992676E-1,-5.276641846E-1
1.084016979E0,-4.447174072E-1,-4.475555420E-1,-5.386352539E-1
1.088991344E0,-4.797058105E-1,-3.947601318E-1,-5.450286865E-1
1.093965709E0,-5.099792480E-1,-3.027038574E-1,-5.462799072E-1
1.098940075E0,-5.746612549E-1,-1.848297119E-1,-5.231781006E-1
1.103914440E0,-6.715087891E-1,-5.067443848E-2,-4.904174805E-1
1.108888805E0,-8.171844482E-1,9.770202637E-2,-4.743347168E-1
1.113863170E0,-9.593658447E-1,2.512054443E-1,-4.776763916E-1
1.118837536E0,-1.048278809E0,4.102630615E-1,-4.905395508E-1
1.123811901E0,-1.087966919E0,5.922698975E-1,-5.021667480E-1
1.128786266E0,-1.070892334E0,7.374725342E-1,-5.181274414E-1
1.133760631E0,-1.031036377E0,8.009796143E-1,-5.477905273E-1
1.138734997E0,-9.841156006E-1,7.398529053E-1,-5.905914307E-1
1.143709362E0,-9.227905273E-1,4.887084961E-1,-6.440277100E-1
1.148683727E0,-8.397064209E-1,1.116180420E-1,-7.028961182E-1
1.153658092E0,-7.265014648E-1,-2.396545410E-1,-7.386779785E-1
1.158632458E0,-5.990142822E-1,-5.156402588E-1,-7.618255615E-1
1.163606823E0,-4.432067871E-1,-7.889099121E-1,-7.918243408E-1
1.168581188E0,-2.760314941E-1,-1.092071533E0,-8.157196045E-1
1.173555553E0,-1.238250732E-1,-1.373764038E0,-8.252410889E-1
1.178529918E0,1.033020020E-2,-1.580612183E0,-8.028411865E-1
1.183504284E0,1.118469238E-1,-1.711486816E0,-7.365570068E-1
1.188478649E0,1.826324463E-1,-1.762741089E0,-6.037292480E-1
1.193453014E0,2.243499756E-1,-1.710647583E0,-4.032745361E-1
1.198427379E0,2.410278320E-1,-1.557952881E0,-2.044372559E-1
1.203401745E0,2.304687500E-1,-1.330703735E0,-4.202270508E-2
1.208376110E0,1.992034912E-1,-1.053878784E0,1.005249023E-1
1.213350475E0,1.693878174E-1,-7.584381104E-1,1.809997559E-1
1.218324840E0,1.453857422E-1,-4.860992432E-1,2.386474609E-1
1.223299206E0,1.301727295E-1,-2.543334961E-1,2.476196289E-1
1.228273571E0,1.245880127E-1,-7.864379883E-2,2.522277832E-1
1.233247936E0,1.242828369E-1,3.916931152E-2,2.524108887E-1
1.238222301E0,1.219940186E-1,9.568786621E-2,2.723541260E-1
1.243196666E0,1.073760986E-1,1.287841797E-1,2.693328857E-1
1.248171032E0,7.785034180E-2,1.534118652E-1,2.736511230E-1
1.253145397E0,6.028747559E-2,1.456146240E-1,2.496643066E-1
1.258119762E0,2.932739258E-2,1.071929932E-1,2.416534424E-1
1.263094127E0,-4.409790039E-3,3.022766113E-2,2.468109131E-1
1.268068493E0,-5.911254883E-2,-1.224822998E-1,2.455444336E-1
1.273042858E0,-1.673583984E-1,-3.364105225E-1,2.837982178E-1
1.278017223E0,-3.057098389E-1,-5.540771484E-1,3.603973389E-1
1.282991588E0,-4.169006348E-1,-7.322082520E-1,3.773345947E-1
1.287965954E0,-4.773559570E-1,-8.755798340E-1,3.344268799E-1
1.292940319E0,-4.850158691E-1,-9.463958740E-1,2.678680420E-1
1.297914684E0,-4.335479736E-1,-9.173126221E-1,2.453765869E-1
1.302889049E0,-3.646545410E-1,-7.532196045E-1,2.516784668E-1
1.307863415E0,-3.479309082E-1,-4.379730225E-1,3.046112061E-1
1.312837780E0,-4.076995850E-1,-1.103210449E-1,3.589630127E-1
1.317812145E0,-5.278320312E-1,9.788513184E-2,3.448486328E-1
1.322786510E0,-6.592254639E-1,2.075500488E-1,2.283782959E-1
1.327760875E0,-7.740631104E-1,2.752380371E-1,7.319641113E-2
1.332735241E0,-8.629302979E-1,3.095397949E-1,-5.888366699E-2
1.337709606E0,-9.360351562E-1,2.650299072E-1,-1.580352783E-1
1.342683971E0,-9.841613770E-1,1.949462891E-1,-2.293853760E-1
1.347658336E0,-1.010269165E0,1.856384277E-1,-2.617187500E-1
1.352632702E0,-1.030487061E0,2.783508301E-1,-2.589263916E-1
1.357607067E0,-1.073562622E0,4.262542725E-1,-2.550506592E-1
1.362581432E0,-1.138366699E0,5.807800293E-1,-2.704467773E-1
1.367555797E0,-1.203308105E0,7.560577393E-1,-2.965850830E-1
1.372530163E0,-1.247055054E0,9.540557861E-1,-3.301086426E-1
1.377504528E0,-1.270812988E0,1.123870850E0,-2.940979004E-1
1.382478893E0,-1.285232544E0,1.177764893E0,-2.176208496E-1
1.387453258E0,-1.239379883E0,1.052032471E0,-1.995697021E-1
1.392427624E0,-1.096710205E0,7.712707520E-1,-2.047882080E-1
1.397401989E0,-8.813781738E-1,4.695892334E-1,-1.896820068E-1
1.402376354E0,-6.666717529E-1,1.660919189E-1,-1.573333740E-1
1.407350719E0,-4.993591309E-1,-1.262817383E-1,-1.417388916E-1
1.412325084E0,-3.553314209E-1,-3.499145508E-1,-1.716918945E-1
1.417299450E0,-2.629241943E-1,-5.206604004E-1,-2.194213867E-1
1.422273815E0,-2.187500000E-1,-6.827850342E-1,-2.377319336E-1
1.427248180E0,-1.663970947E-1,-8.005981445E-1,-2.328033447E-1
1.432222545E0,-1.087799072E-1,-8.432464600E-1,-2.190399170E-1
1.437196911E0,-6.661987305E-2,-7.816162109E-1,-1.865081787E-1
1.442171276E0,-6.385803223E-2,-6.513214111E-1,-1.425170898E-1
1.447145641E0,-9.179687500E-2,-4.792938232E-1,-8.036804199E-2
1.452120006E0,-8.526611328E-2,-2.778472900E-1,-1.756286621E-2
1.457094372E0,-6.939697266E-2,-1.317138672E-1,3.576660156E-2
1.462068737E0,-6.027221680E-2,-3.962707520E-2,8.242797852E-2
1.467043102E0,-3.602600098E-2,2.688598633E-2,1.110382080E-1
1.472017467E0,-2.243041992E-3,5.097961426E-2,1.097717285E-1
1.476991833E0,2.903747559E-2,4.534912109E-2,8.750915527E-2
1.481966198E0,3.652954102E-2,4.026794434E-2,5.937194824E-2
1.486940563E0,2.053833008E-2,4.513549805E-2,3.245544434E-2
1.491914928E0,-9.826660156E-3,8.551025391E-2,1.223754883E-2
1.496889293E0,-4.507446289E-2,1.586914062E-1,1.602172852E-3
1.501863659E0,-8.174133301E-2,2.550811768E-1,4.913330078E-3
1.506838024E0,-1.202087402E-1,3.568878174E-1,3.051757812E-2
1.511812389E0,-1.563415527E-1,4.738922119E-1,7.608032227E-2
1.516786754E0,-1.775512695E-1,6.031036377E-1,1.249847412E-1
1.521761120E0,-1.893615723E-1,7.169952393E-1,1.755676270E-1
1.526735485E0,-2.101593018E-1,8.020019531E-1,2.303619385E-1
1.531709850E0,-2.473754883E-1,8.811492920E-1,2.787475586E-1
1.536684215E0,-3.039855957E-1,9.661102295E-1,3.150329590E-1
1.541658581E0,-3.669738770E-1,1.027023315E0,3.367462158E-1
1.546632946E0,-4.084930420E-1,1.020309448E0,3.504180908E-1
1.551607311E0,-4.205169678E-1,9.425659180E-1,3.612670898E-1
1.556581676E0,-4.102172852E-1,8.290405273E-1,3.848419189E-1
1.561556041E0,-3.894958496E-1,7.450561523E-1,4.243774414E-1
1.566530407E0,-3.769226074E-1,7.028808594E-1,4.635314941E-1
1.571504772E0,-3.821716309E-1,6.734466553E-1,4.895935059E-1
1.576479137E0,-4.059448242E-1,6.518707275E-1,4.896240234E-1
1.581453502E0,-4.387512207E-1,6.712341309E-1,4.697570801E-1
1.586427868E0,-4.803314209E-1,7.544250488E-1,4.569854736E-1
1.591402233E0,-5.443115234E-1,8.828735352E-1,4.659271240E-1
1.596376598E0,-6.244964600E-1,1.023040771E0,4.985198975E-1
1.601350963E0,-7.064819336E-1,1.153228760E0,5.596160889E-1
1.606325329E0,-7.744598389E-1,1.325393677E0,5.933990479E-1
1.611299694E0,-8.320312500E-1,1.549560547E0,5.301971436E-1
1.616274059E0,-8.580627441E-1,1.640838623E0,3.622894287E-1
1.621248424E0,-7.426452637E-1,1.377212524E0,1.188507080E-1
1.626222790E0,-4.813690186E-1,1.005828857E0,-6.684875488E-2
1.631197155E0,-1.899719238E-1,5.974578857E-1,-1.327362061E-1
1.636171520E0,3.106689453E-2,1.466522217E-1,-1.623840332E-1
1.641145885E0,1.511383057E-1,-2.420806885E-1,-2.345123291E-1
1.646120250E0,2.091369629E-1,-5.184478760E-1,-3.202514648E-1
1.651094616E0,2.463226318E-1,-7.215728760E-1,-3.631896973E-1
1.656068981E0,2.734832764E-1,-8.364257812E-1,-3.831481934E-1
1.661043346E0,2.597351074E-1,-8.648376465E-1,-3.804473877E-1
1.666017711E0,2.225646973E-1,-8.256225586E-1,-3.450317383E-1
1.670992077E0,1.860198975E-1,-7.505340576E-1,-2.964782715E-1
1.675966442E0,1.527862549E-1,-6.613464355E-1,-2.438659668E-1
1.680940807E0,1.096801758E-1,-5.638580322E-1,-1.898956299E-1
1.685915172E0,7.843017578E-2,-4.150848389E-1,-1.237792969E-1
1.690889538E0,6.225585938E-2,-2.123718262E-1,-4.067993164E-2
1.695863903E0,5.207824707E-2,-4.879760742E-2,4.969787598E-2
1.700838268E0,5.389404297E-2,1.748657227E-2,1.470031738E-1
1.705812633E0,6.933593750E-2,6.535339355E-2,2.351226807E-1
1.710786999E0,9.666442871E-2,1.006164551E-1,2.982940674E-1
1.715761364E0,1.324310303E-1,9.240722656E-2,3.361206055E-1
1.720735729E0,1.781463623E-1,6.756591797E-2,3.518218994E-1
1.725710094E0,2.155914307E-1,1.298217773E-1,3.283233643E-1
1.730684459E0,2.214813232E-1,2.203216553E-1,2.800598145E-1
1.735658825E0,1.852569580E-1,3.012695312E-1,2.367095947E-1
1.740633190E0,1.069335938E-1,3.732604980E-1,1.988525391E-1
1.745607555E0,4.730224609E-4,4.499053955E-1,1.628265381E-1
1.750581920E0,-1.175384521E-1,5.687103271E-1,1.172943115E-1
1.755556286E0,-2.306823730E-1,7.107391357E-1,5.477905273E-2
1.760530651E0,-2.357330322E-1,5.298004150E-1,2.989196777E-2
1.765505016E0,-3.262329102E-2,1.533508301E-1,2.780151367E-2
1.770479381E0,2.184753418E-1,1.752014160E-1,-7.292175293E-2
1.775453747E0,2.845611572E-1,5.320587158E-1,-2.320709229E-1
1.780428112E0,1.397552490E-1,7.154541016E-1,-2.892608643E-1
1.785402477E0,-5.786132812E-2,6.119384766E-1,-2.753448486E-1
1.790376842E0,-1.975402832E-1,4.520111084E-1,-2.443695068E-1
1.795351208E0,-2.661437988E-1,2.983703613E-1,-2.052154541E-1
1.800325573E0,-2.707824707E-1,1.605682373E-1,-1.809234619E-1
1.805299938E0,-2.272186279E-1,8.943176270E-2,-1.723022461E-1
1.810274303E0,-1.591339111E-1,7.211303711E-2,-1.771850586E-1
1.815248668E0,-8.456420898E-2,8.990478516E-2,-1.904144287E-1
1.820223034E0,-1.582336426E-2,1.018524170E-1,-2.021636963E-1
1.825197399E0,4.357910156E-2,8.659362793E-2,-2.046356201E-1
1.830171764E0,1.040649414E-1,7.063293457E-2,-1.691741943E-1
1.835146129E0,1.762695312E-1,2.687072754E-2,-9.387207031E-2
1.840120495E0,2.579193115E-1,-5.480957031E-2,-9.017944336E-3
1.845094860E0,3.473510742E-1,-5.995178223E-2,6.747436523E-2
1.850069225E0,4.411621094E-1,5.065917969E-2,1.341857910E-1
1.855043590E0,5.307006836E-1,2.349395752E-1,1.904907227E-1
1.860017956E0,6.195526123E-1,4.425048828E-1,2.352600098E-1
1.864992321E0,7.010345459E-1,6.360473633E-1,2.816619873E-1
1.869966686E0,7.767944336E-1,7.974853516E-1,3.415374756E-1
1.874941051E0,8.440246582E-1,9.036712646E-1,4.250030518E-1
1.879915416E0,9.071502686E-1,9.445800781E-1,5.398101807E-1
1.884889782E0,9.537506104E-1,9.359893799E-1,6.725006104E-1
1.889864147E0,9.602966309E-1,9.029083252E-1,8.002166748E-1
1.894838512E0,9.140014648E-1,7.821197510E-1,8.993377686E-1
1.899812877E0,8.127288818E-1,6.450042725E-1,9.650268555E-1
1.904787243E0,6.666717529E-1,5.729522705E-1,9.988555908E-1
1.909761608E0,5.048522949E-1,4.803161621E-1,9.909210205E-1
1.914735973E0,3.441772461E-1,3.283233643E-1,9.263916016E-1
1.919710338E0,1.865692139E-1,1.613159180E-1,8.267822266E-1
1.924684704E0,3.718566895E-2,5.741882324E-2,7.241363525E-1
1.929659069E0,-8.955383301E-2,5.041503906E-2,6.424560547E-1
1.934633434E0,-1.824493408E-1,8.476257324E-2,5.866088867E-1
1.939607799E0,-2.465362549E-1,1.212005615E-1,5.547790527E-1
1.944582165E0,-2.881622314E-1,1.315612793E-1,5.367126465E-1
1.949556530E0,-3.106842041E-1,1.106109619E-1,5.237579346E-1
1.954530895E0,-3.179473877E-1,6.887817383E-2,5.123443604E-1
1.959505260E0,-3.169708252E-1,5.477905273E-3,4.955902100E-1
1.964479625E0,-3.210449219E-1,-6.559753418E-2,4.697265625E-1
1.969453991E0,-3.360443115E-1,-1.280670166E-1,4.366607666E-1
1.974428356E0,-3.573455811E-1,-1.808624268E-1,3.961486816E-1
1.979402721E0,-3.882904053E-1,-2.010345459E-1,3.584289551E-1
1.984377086E0,-4.277801514E-1,-1.553497314E-1,3.305511475E-1
1.989351452E0,-4.653625488E-1,-2.819824219E-2,3.195648193E-1
1.994325817E0,-5.070037842E-1,1.592712402E-1,3.287963867E-1
1.999300182E0,-5.462188721E-1,3.599243164E-1,3.605499268E-1
2.004274547E0,-5.939483643E-1,5.044860840E-1,4.115753174E-1
2.009248913E0,-6.498718262E-1,5.501403809E-1,4.830932617E-1
2.014223278E0,-7.013702393E-1,5.324859619E-1,5.861816406E-1
2.019197643E0,-7.436218262E-1,4.848937988E-1,7.265930176E-1
2.024172008E0,-7.675628662E-1,4.040527344E-1,8.891906738E-1
2.029146374E0,-7.842559814E-1,2.861022949E-1,1.065048218E0
2.034120739E0,-8.171234131E-1,1.538238525E-1,1.242141724E0
2.039095104E0,-8.511657715E-1,6.072998047E-2,1.402893066E0
2.044069469E0,-9.139404297E-1,-5.996704102E-3,1.556030273E0
2.049043834E0,-1.013534546E0,-8.203125000E-2,1.680770874E0
2.054018200E0,-1.136886597E0,-2.011566162E-1,1.782348633E0
2.058992565E0,-1.273956299E0,-3.572387695E-1,1.857009888E0
2.063966930E0,-1.412963867E0,-5.634002686E-1,1.912704468E0
2.068941295E0,-1.564682007E0,-8.186035156E-1,1.944595337E0
2.073915661E0,-1.706130981E0,-1.064392090E0,1.945968628E0
2.078890026E0,-1.809066772E0,-1.219909668E0,1.879745483E0
2.083864391E0,-1.881164551E0,-1.305297852E0,1.745925903E0
2.088838756E0,-1.929077148E0,-1.331405640E0,1.549057007E0
2.093813122E0,-1.960510254E0,-1.285079956E0,1.309051514E0
2.098787487E0,-1.958999634E0,-1.176406860E0,1.057250977E0
2.103761852E0,-1.907287598E0,-1.010375977E0,8.264465332E-1
2.108736217E0,-1.814956665E0,-8.171539307E-1,6.412811279E-1
2.113710583E0,-1.708541870E0,-6.457824707E-1,5.094299316E-1
2.118684948E0,-1.591308594E0,-5.308227539E-1,4.097442627E-1
2.123659313E0,-1.462951660E0,-5.078277588E-1,3.094482422E-1
2.128633678E0,-1.316696167E0,-5.572814941E-1,1.932983398E-1
2.133608043E0,-1.142517090E0,-6.006927490E-1,6.274414062E-2
2.138582409E0,-9.404602051E-1,-5.701293945E-1,-6.994628906E-2
2.143556774E0,-7.338867188E-1,-4.699859619E-1,-1.875152588E-1
2.148531139E0,-5.451049805E-1,-3.452758789E-1,-2.800140381E-1
2.153505504E0,-3.893127441E-1,-2.302398682E-1,-3.445281982E-1
2.158479870E0,-2.709960938E-1,-1.274108887E-1,-3.969726562E-1
2.163454235E0,-1.934814453E-1,-5.299377441E-2,-4.474792480E-1
2.168428600E0,-1.532440186E-1,-9.841918945E-3,-5.028381348E-1
2.173402965E0,-1.363372803E-1,1.525878906E-2,-5.550231934E-1
2.178377331E0,-1.492919922E-1,4.669189453E-3,-5.980834961E-1
2.183351696E0,-1.904296875E-1,-7.566833496E-2,-6.324920654E-1
2.188326061E0,-2.563781738E-1,-2.307891846E-1,-6.660614014E-1
2.193300426E0,-3.219909668E-1,-3.932952881E-1,-7.111968994E-1
2.198274791E0,-3.553619385E-1,-5.092163086E-1,-7.787933350E-1
2.203249157E0,-3.258056641E-1,-5.213470459E-1,-8.688354492E-1
2.208223522E0,-2.385406494E-1,-4.122161865E-1,-9.762115479E-1
2.213197887E0,-1.290283203E-1,-2.507476807E-1,-1.067184448E0
2.218172252E0,-1.519775391E-2,-9.497070312E-2,-1.093612671E0
2.223146618E0,9.025573730E-2,1.948547363E-2,-1.025634766E0
2.228120983E0,1.970062256E-1,1.345672607E-1,-9.034423828E-1
2.233095348E0,3.135833740E-1,2.446289062E-1,-7.610626221E-1
2.238069713E0,4.429931641E-1,3.491210938E-1,-6.632080078E-1
2.243044079E0,5.714569092E-1,4.076232910E-1,-6.330871582E-1
2.248018444E0,6.467895508E-1,3.894805908E-1,-6.425018311E-1
2.252992809E0,6.773071289E-1,3.409423828E-1,-6.721343994E-1
2.257967174E0,6.589965820E-1,2.626800537E-1,-7.196197510E-1
2.262941540E0,6.042938232E-1,1.720581055E-1,-7.744445801E-1
2.267915905E0,5.221710205E-1,8.398437500E-2,-8.416442871E-1
2.272890270E0,4.116668701E-1,-9.002685547E-3,-9.125213623E-1
2.277864635E0,2.899017334E-1,-7.725524902E-2,-9.469909668E-1
2.282839000E0,1.656188965E-1,-1.132507324E-1,-9.441070557E-1
2.287813366E0,5.957031250E-2,-1.237030029E-1,-9.001312256E-1
2.292787731E0,1.144409180E-3,-8.184814453E-2,-8.253631592E-1
2.297762096E0,-6.820678711E-3,2.799987793E-2,-7.312164307E-1
2.302736461E0,4.658508301E-2,2.228546143E-1,-6.423034668E-1
2.307710827E0,1.500396729E-1,4.929962158E-1,-5.886077881E-1
2.312685192E0,2.656097412E-1,7.937927246E-1,-5.660552979E-1
2.317659557E0,3.432464600E-1,1.060394287E0,-5.648956299E-1
2.322633922E0,3.459777832E-1,1.184646606E0,-5.716857910E-1
2.327608288E0,2.910308838E-1,1.123840332E0,-5.703735352E-1
2.332582653E0,2.145538330E-1,9.623107910E-1,-5.578613281E-1
2.337557018E0,1.516571045E-1,8.005828857E-1,-5.240478516E-1
2.342531383E0,1.075286865E-1,6.895599365E-1,-4.652252197E-1
2.347505749E0,4.455566406E-2,6.214294434E-1,-3.632202148E-1
2.352480114E0,-2.017211914E-2,5.774230957E-1,-2.292175293E-1
2.357454479E0,-6.346130371E-2,5.481719971E-1,-1.047058105E-1
2.362428844E0,-1.020507812E-1,5.030059814E-1,-2.142333984E-2
2.367403209E0,-1.461944580E-1,4.456939697E-1,1.214599609E-2
2.372377575E0,-1.838531494E-1,4.069976807E-1,-3.967285156E-3
2.377351940E0,-1.817169189E-1,3.804321289E-1,-4.048156738E-2
2.382326305E0,-1.382904053E-1,3.818511963E-1,-2.952575684E-2
2.387300670E0,-5.348205566E-2,4.036865234E-1,5.104064941E-2
2.392275036E0,4.721069336E-2,4.550323486E-1,1.495361328E-1
2.397249401E0,1.538543701E-1,5.025024414E-1,2.149963379E-1
2.402223766E0,2.416534424E-1,5.476989746E-1,2.250213623E-1
2.407198131E0,2.921295166E-1,5.490264893E-1,1.875305176E-1
2.412172497E0,3.088531494E-1,5.237731934E-1,8.593750000E-2
2.417146862E0,3.004302979E-1,4.907379150E-1,-2.139282227E-2
2.422121227E0,2.808380127E-1,4.422760010E-1,-5.386352539E-2
2.427095592E0,2.309265137E-1,3.870239258E-1,-2.186584473E-2
2.432069958E0,1.763000488E-1,3.522186279E-1,3.286743164E-2
2.437044323E0,1.176910400E-1,3.328247070E-1,1.059875488E-1
2.442018688E0,3.918457031E-2,2.975616455E-1,1.808013916E-1
2.446993053E0,-4.644775391E-2,2.365264893E-1,2.218933105E-1
2.451967418E0,-1.261596680E-1,1.501922607E-1,2.388916016E-1
2.456941784E0,-1.867980957E-1,5.426025391E-2,2.539215088E-1
2.461916149E0,-2.126464844E-1,-1.101684570E-2,2.669677734E-1
2.466890514E0,-2.072296143E-1,-3.788757324E-2,2.732086182E-1
2.471864879E0,-1.809844971E-1,-4.350280762E-2,2.720336914E-1
2.476839245E0,-1.513671875E-1,-4.223632812E-2,2.561187744E-1
2.481813610E0,-1.295928955E-1,-4.188537598E-2,2.268676758E-1
2.486787975E0,-1.223449707E-1,-4.220581055E-2,1.880645752E-1
2.491762340E0,-1.291046143E-1,-2.990722656E-2,1.388549805E-1
2.496736706E0,-1.371765137E-1,-2.108764648E-2,9.588623047E-2
2.501711071E0,-1.309661865E-1,-4.319763184E-2,7.292175293E-2
2.506685436E0,-1.051483154E-1,-8.334350586E-2,5.355834961E-2
2.511659801E0,-6.007385254E-2,-9.060668945E-2,2.972412109E-2
2.516634166E0,1.052856445E-3,-3.443908691E-2,1.206970215E-2
2.521608532E0,6.976318359E-2,6.578063965E-2,1.042175293E-2
2.526582897E0,1.417541504E-1,1.748962402E-1,2.201843262E-2
2.531557262E0,2.146301270E-1,2.789611816E-1,4.154968262E-2
2.536531627E0,2.763824463E-1,3.703308105E-1,7.113647461E-2
2.541505993E0,3.209838867E-1,4.434204102E-1,1.109924316E-1
2.546480358E0,3.480529785E-1,4.941406250E-1,1.510314941E-1
2.551454723E0,3.572845459E-1,5.252990723E-1,1.871337891E-1
2.556429088E0,3.541717529E-1,5.267639160E-1,2.184600830E-1
2.561403454E0,3.383636475E-1,4.913024902E-1,2.291564941E-1
2.566377819E0,3.049163818E-1,4.170989990E-1,2.055358887E-1
2.571352184E0,2.580718994E-1,3.205413818E-1,1.530456543E-1
2.576326549E0,1.969299316E-1,2.183074951E-1,1.072692871E-1
2.581300915E0,1.067657471E-1,1.150512695E-1,9.254455566E-2
2.586275280E0,8.316040039E-3,3.262329102E-2,1.027984619E-1
2.591249645E0,-8.421325684E-2,-2.697753906E-2,1.235656738E-1
2.596224010E0,-1.510772705E-1,-5.583190918E-2,1.370849609E-1
2.601198375E0,-1.821746826E-1,-6.492614746E-2,1.249084473E-1
2.606172741E0,-1.731109619E-1,-6.756591797E-2,9.446716309E-2
2.611147106E0,-1.337432861E-1,-5.389404297E-2,5.125427246E-2
2.616121471E0,-7.502746582E-2,-1.933288574E-2,9.780883789E-3
2.621095836E0,-2.331542969E-2,2.708435059E-2,-1.486206055E-2
2.626070202E0,1.281738281E-2,6.701660156E-2,-1.992797852E-2
2.631044567E0,2.445983887E-2,9.245300293E-2,-1.623535156E-2
2.636018932E0,1.448059082E-2,1.087341309E-1,-5.615234375E-3
2.640993297E0,-1.356506348E-2,1.184844971E-1,7.583618164E-3
2.645967663E0,-4.393005371E-2,1.253356934E-1,2.238464355E-2
2.650942028E0,-5.805969238E-2,1.322937012E-1,4.159545898E-2
2.655916393E0,-5.453491211E-2,1.305541992E-1,5.868530273E-2
2.660890758E0,-4.426574707E-2,1.234436035E-1,7.408142090E-2
2.665865124E0,-3.483581543E-2,1.264495850E-1,8.563232422E-2
2.670839489E0,-2.497863770E-2,1.401824951E-1,9.992980957E-2
2.675813854E0,-1.531982422E-2,1.697540283E-1,1.135101318E-1
2.680788219E0,-8.758544922E-3,2.102050781E-1,1.200408936E-1
2.685762584E0,-5.203247070E-3,2.600708008E-1,1.247863770E-1
2.690736950E0,-2.685546875E-3,3.255004883E-1,1.287689209E-1
2.695711315E0,-3.280639648E-3,3.953704834E-1,1.287689209E-1
2.700685680E0,-7.369995117E-3,4.497528076E-1,1.316986084E-1
2.705660045E0,-1.037597656E-2,4.873199463E-1,1.359710693E-1
2.710634411E0,-1.622009277E-2,5.144195557E-1,1.416473389E-1
2.715608776E0,-2.690124512E-2,5.315093994E-1,1.484222412E-1
2.720583141E0,-3.683471680E-2,5.314941406E-1,1.554565430E-1
2.725557506E0,-4.029846191E-2,5.097198486E-1,1.572723389E-1
2.730531872E0,-3.965759277E-2,4.633789062E-1,1.644744873E-1
2.735506237E0,-3.796386719E-2,4.029235840E-1,1.766815186E-1
2.740480602E0,-4.202270508E-2,3.511657715E-1,1.814422607E-1
2.745454967E0,-5.206298828E-2,3.149261475E-1,1.748199463E-1
2.750429333E0,-6.617736816E-2,2.825164795E-1,1.620788574E-1
2.755403698E0,-7.420349121E-2,2.384948730E-1,1.473388672E-1
2.760378063E0,-8.102416992E-2,1.980285645E-1,1.358337402E-1
2.765352428E0,-8.790588379E-2,1.613006592E-1,1.251831055E-1
2.770326793E0,-8.930969238E-2,1.277160645E-1,1.205902100E-1
2.775301159E0,-8.712768555E-2,1.018676758E-1,1.139984131E-1
2.780275524E0,-8.345031738E-2,8.726501465E-2,9.956359863E-2
2.785249889E0,-7.368469238E-2,7.160949707E-2,7.907104492E-2
2.790224254E0,-5.990600586E-2,4.611206055E-2,5.903625488E-2
2.795198620E0,-3.715515137E-2,2.124023438E-2,4.574584961E-2
2.800172985E0,-7.614135742E-3,2.334594727E-3,4.794311523E-2
2.805147350E0,2.348327637E-2,-6.530761719E-3,5.505371094E-2
2.810121715E0,5.250549316E-2,-1.678466797E-3,5.702209473E-2
2.815096081E0,8.293151855E-2,7.141113281E-3,5.349731445E-2
2.820070446E0,1.078033447E-1,1.560974121E-2,4.238891602E-2
2.825044811E0,7.971191406E-2,-2.993774414E-2,2.996826172E-2
2.830019176E0,-1.546630859E-1,-3.581542969E-1,4.388427734E-2
2.834993541E0,-4.725952148E-1,-8.426208496E-1,8.096313477E-2
2.839967907E0,-5.887603760E-1,-1.186706543E0,1.088562012E-1
2.844942272E0,-5.461120605E-1,-1.398880005E0,1.163330078E-1
2.849916637E0,-4.113159180E-1,-1.418014526E0,1.050567627E-1
2.854891002E0,-2.700500488E-1,-1.249435425E0,7.823181152E-2
2.859865368E0,-1.564941406E-1,-9.571380615E-1,5.036926270E-2
2.864839733E0,-7.014465332E-2,-6.321411133E-1,2.976989746E-2
2.869814098E0,-1.661682129E-2,-3.832244873E-1,1.803588867E-2
2.874788463E0,4.516601562E-3,-2.591552734E-1,8.163452148E-3
2.879762829E0,1.901245117E-2,-2.084503174E-1,-4.211425781E-3
2.884737194E0,4.875183105E-2,-1.711120605E-1,-1.177978516E-2
2.889711559E0,9.304809570E-2,-1.020507812E-1,-1.351928711E-2
2.894685924E0,1.563568115E-1,1.992797852E-2,-1.295471191E-2
2.899660290E0,2.434844971E-1,1.612854004E-1,-1.365661621E-2
2.904634655E0,3.573150635E-1,2.780609131E-1,-1.268005371E-2
2.909609020E0,4.675140381E-1,2.266845703E-1,-9.368896484E-3
2.914583385E0,4.117279053E-1,-2.053985596E-1,-3.372192383E-2
2.919557750E0,1.237487793E-1,-6.368713379E-1,-4.782104492E-2
2.924532116E0,-1.765747070E-1,-5.838775635E-1,-4.223632812E-2
2.929506481E0,-3.318176270E-1,-2.785186768E-1,-5.024719238E-2
2.934480846E0,-3.240051270E-1,-7.225036621E-2,-3.689575195E-2
2.939455211E0,-2.247619629E-1,1.600646973E-2,-6.515502930E-3
2.944429577E0,-1.284027100E-1,7.395935059E-2,8.438110352E-3
2.949403942E0,-8.042907715E-2,9.960937500E-2,1.284790039E-2
2.954378307E0,-7.205200195E-2,8.699035645E-2,2.079772949E-2
2.959352672E0,-8.050537109E-2,5.490112305E-2,3.126525879E-2
2.964327038E0,-9.336853027E-2,2.505493164E-2,4.362487793E-2
2.969301403E0,-9.834289551E-2,1.196289062E-2,5.380249023E-2
2.974275768E0,-9.614562988E-2,5.462646484E-3,6.382751465E-2
2.979250133E0,-9.176635742E-2,-7.568359375E-3,6.948852539E-2
2.984224499E0,-8.418273926E-2,-2.140808105E-2,6.645202637E-2
2.989198864E0,-7.615661621E-2,-3.417968750E-2,6.661987305E-2
2.994173229E0,-6.947326660E-2,-4.031372070E-2,6.906127930E-2
2.999147594E0,-5.867004395E-2,-3.794860840E-2,7.087707520E-2
3.004121959E0,-5.165100098E-2,-3.157043457E-2,7.177734375E-2
3.009096325E0,-4.496765137E-2,-2.549743652E-2,7.052612305E-2
3.014070690E0,-4.283142090E-2,-2.279663086E-2,6.843566895E-2
3.019045055E0,-4.260253906E-2,-1.652526855E-2,6.227111816E-2
3.024019420E0,-4.490661621E-2,-1.190185547E-2,5.456542969E-2
3.028993786E0,-5.088806152E-2,-1.136779785E-2,4.814147949E-2
3.033968151E0,-5.688476562E-2,-7.415771484E-3,4.159545898E-2
3.038942516E0,-6.022644043E-2,-3.265380859E-3,3.637695312E-2
3.043916881E0,-6.251525879E-2,-9.765625000E-4,3.178405762E-2
3.048891247E0,-6.349182129E-2,-4.104614258E-3,2.813720703E-2
3.053865612E0,-6.164550781E-2,-1.480102539E-2,2.688598633E-2
3.058839977E0,-5.761718750E-2,-2.894592285E-2,2.587890625E-2
3.063814342E0,-5.101013184E-2,-4.000854492E-2,2.581787109E-2
3.068788708E0,-4.278564453E-2,-5.148315430E-2,2.847290039E-2
3.073763073E0,-3.497314453E-2,-6.278991699E-2,3.286743164E-2
3.078737438E0,-2.423095703E-2,-6.961059570E-2,3.663635254E-2
3.083711803E0,-1.338195801E-2,-7.127380371E-2,3.971862793E-2
3.088686168E0,-3.997802734E-3,-6.636047363E-2,4.330444336E-2
3.093660534E0,3.158569336E-3,-5.895996094E-2,4.843139648E-2
3.098634899E0,6.851196289E-3,-5.401611328E-2,5.368041992E-2
3.103609264E0,1.139831543E-2,-5.430603027E-2,5.952453613E-2
3.108583629E0,1.577758789E-2,-5.976867676E-2,6.326293945E-2
3.113557995E0,1.734924316E-2,-6.929016113E-2,6.620788574E-2
3.118532360E0,1.889038086E-2,-8.129882812E-2,7.159423828E-2
3.123506725E0,1.936340332E-2,-9.710693359E-2,7.411193848E-2
3.128481090E0,1.789855957E-2,-1.072692871E-1,7.391357422E-2
3.133455456E0,1.802062988E-2,-1.123962402E-1,7.228088379E-2
3.138429821E0,1.451110840E-2,-1.126403809E-1,7.092285156E-2
3.143404186E0,9.582519531E-3,-1.146697998E-1,6.806945801E-2
3.148378551E0,1.831054688E-3,-1.177368164E-1,6.329345703E-2
3.153352916E0,-8.621215820E-3,-1.163330078E-1,5.824279785E-2
3.158327282E0,-1.869201660E-2,-1.103668213E-1,5.439758301E-2
3.163301647E0,-2.630615234E-2,-1.071014404E-1,5.184936523E-2
3.168276012E0,-3.627014160E-2,-1.095123291E-1,4.997253418E-2
3.173250377E0,-4.174804688E-2,-1.124420166E-1,5.052185059E-2
3.178224743E0,-4.214477539E-2,-1.092529297E-1,4.862976074E-2
3.183199108E0,-3.874206543E-2,-1.055603027E-1,4.679870605E-2
3.188173473E0,-3.260803223E-2,-1.026306152E-1,4.562377930E-2
3.193147838E0,-2.735900879E-2,-1.019744873E-1,4.542541504E-2
3.198122204E0,-2.006530762E-2,-1.057128906E-1,4.751586914E-2
3.203096569E0,-1.037597656E-2,-1.121520996E-1,4.716491699E-2
3.208070934E0,1.480102539E-3,-1.160125732E-1,4.649353027E-2
3.213045299E0,1.611328125E-2,-1.177215576E-1,5.024719238E-2
3.218019665E0,2.583312988E-2,-1.189880371E-1,5.400085449E-2
3.222994030E0,3.540039062E-2,-1.213378906E-1,5.886840820E-2
3.227968395E0,4.092407227E-2,-1.255645752E-1,6.462097168E-2
3.232942760E0,4.321289062E-2,-1.246185303E-1,6.671142578E-2
3.237917125E0,4.347229004E-2,-1.177978516E-1,6.990051270E-2
3.242891491E0,4.023742676E-2,-1.136322021E-1,7.476806641E-2
3.247865856E0,3.584289551E-2,-1.128082275E-1,8.094787598E-2
3.252840221E0,3.115844727E-2,-1.131439209E-1,8.618164062E-2
3.257814586E0,2.555847168E-2,-1.143341064E-1,8.990478516E-2
3.262788952E0,2.302551270E-2,-1.199645996E-1,9.336853027E-2
3.267763317E0,2.330017090E-2,-1.319885254E-1,9.487915039E-2
3.272737682E0,2.130126953E-2,-1.429443359E-1,9.172058105E-2
3.277712047E0,1.564025879E-2,-1.428985596E-1,8.473205566E-2
3.282686413E0,3.982543945E-3,-1.323547363E-1,7.646179199E-2
3.287660778E0,-7.675170898E-3,-1.158447266E-1,6.573486328E-2
3.292635143E0,-1.567077637E-2,-9.889221191E-2,5.708312988E-2
3.297609508E0,-2.087402344E-2,-8.552551270E-2,4.974365234E-2
3.302583874E0,-2.526855469E-2,-7.537841797E-2,4.310607910E-2
3.307558239E0,-2.964782715E-2,-6.826782227E-2,3.820800781E-2
3.312532604E0,-3.309631348E-2,-5.822753906E-2,3.382873535E-2
3.317506969E0,-3.475952148E-2,-4.888916016E-2,2.896118164E-2
3.322481334E0,-3.651428223E-2,-3.861999512E-2,2.947998047E-2
3.327455700E0,-3.787231445E-2,-3.005981445E-2,3.083801270E-2
3.332430065E0,-3.805541992E-2,-2.299499512E-2,3.742980957E-2
3.337404430E0,-3.532409668E-2,-1.831054688E-2,4.385375977E-2
3.342378795E0,-2.879333496E-2,-1.109313965E-2,5.406188965E-2
3.347353161E0,-2.420043945E-2,-3.540039062E-3,6.011962891E-2
3.352327526E0,-1.802062988E-2,8.773803711E-3,6.513977051E-2
3.357301891E0,-1.177978516E-2,2.192687988E-2,6.709289551E-2
3.362276256E0,-7.400512695E-3,3.497314453E-2,7.070922852E-2
3.367250622E0,-3.280639648E-3,4.472351074E-2,6.997680664E-2
3.372224987E0,-4.089355469E-3,4.948425293E-2,6.779479980E-2
3.377199352E0,-6.729125977E-3,5.204772949E-2,6.834411621E-2
3.382173717E0,-1.055908203E-2,5.961608887E-2,6.367492676E-2
3.387148083E0,-1.454162598E-2,6.317138672E-2,6.117248535E-2
3.392122448E0,-1.687622070E-2,6.625366211E-2,5.842590332E-2
3.397096813E0,-2.102661133E-2,7.084655762E-2,5.438232422E-2
3.402071178E0,-2.384948730E-2,7.116699219E-2,4.893493652E-2
3.407045543E0,-2.539062500E-2,6.938171387E-2,4.237365723E-2
3.412019909E0,-2.583312988E-2,6.419372559E-2,3.654479980E-2
3.416994274E0,-2.662658691E-2,5.914306641E-2,3.027343750E-2
3.421968639E0,-2.871704102E-2,5.601501465E-2,2.398681641E-2
3.426943004E0,-3.042602539E-2,5.343627930E-2,1.956176758E-2
3.431917370E0,-3.244018555E-2,5.041503906E-2,1.684570312E-2
3.436891735E0,-3.369140625E-2,4.827880859E-2,1.210021973E-2
3.441866100E0,-3.466796875E-2,4.660034180E-2,9.933471680E-3
3.446840465E0,-3.382873535E-2,4.420471191E-2,8.789062500E-3
3.451814831E0,-3.256225586E-2,3.857421875E-2,6.271362305E-3
3.456789196E0,-3.125000000E-2,3.167724609E-2,5.691528320E-3
3.461763561E0,-2.772521973E-2,2.821350098E-2,5.981445312E-3
3.466737926E0,-2.261352539E-2,2.543640137E-2,4.547119141E-3
3.471712291E0,-1.394653320E-2,2.705383301E-2,1.296997070E-3
3.476686657E0,-4.486083984E-3,3.465270996E-2,-4.043579102E-3
3.481661022E0,3.479003906E-3,4.464721680E-2,-1.029968262E-2
3.486635387E0,1.225280762E-2,5.444335938E-2,-1.655578613E-2
3.491609752E0,1.858520508E-2,6.164550781E-2,-2.413940430E-2
3.496584118E0,2.589416504E-2,6.520080566E-2,-3.277587891E-2
3.501558483E0,3.498840332E-2,6.346130371E-2,-3.823852539E-2
3.506532848E0,4.389953613E-2,5.738830566E-2,-3.921508789E-2
3.511507213E0,5.065917969E-2,4.246520996E-2,-3.619384766E-2
3.516481579E0,5.538940430E-2,2.232360840E-2,-2.772521973E-2
3.521455944E0,6.083679199E-2,6.484985352E-3,-1.885986328E-2
3.526430309E0,6.869506836E-2,-9.094238281E-3,-1.119995117E-2
3.531404674E0,7.286071777E-2,-2.191162109E-2,3.051757812E-4
3.536379040E0,7.543945312E-2,-3.501892090E-2,8.102416992E-3
3.541353405E0,7.615661621E-2,-4.884338379E-2,1.445007324E-2
3.546327770E0,7.243347168E-2,-6.442260742E-2,2.314758301E-2
3.551302135E0,6.680297852E-2,-7.640075684E-2,2.690124512E-2
3.556276500E0,6.080627441E-2,-9.010314941E-2,3.065490723E-2
3.561250866E0,4.954528809E-2,-1.024169922E-1,3.451538086E-2
3.566225231E0,3.805541992E-2,-1.127166748E-1,3.973388672E-2
3.571199596E0,2.464294434E-2,-1.251373291E-1,4.675292969E-2
3.576173961E0,1.055908203E-2,-1.358795166E-1,5.426025391E-2
3.581148327E0,-1.602172852E-3,-1.443786621E-1,6.250000000E-2
3.586122692E0,-1.185607910E-2,-1.517181396E-1,7.214355469E-2
3.591097057E0,-2.107238770E-2,-1.489105225E-1,7.696533203E-2
3.596071422E0,-3.176879883E-2,-1.485137939E-1,8.566284180E-2
3.601045788E0,-4.057312012E-2,-1.548767090E-1,9.475708008E-2
3.606020153E0,-4.336547852E-2,-1.545104980E-1,1.002349854E-1
3.610994518E0,-4.209899902E-2,-1.520080566E-1,1.037902832E-1
3.615968883E0,-3.936767578E-2,-1.499633789E-1,1.087493896E-1
3.620943249E0,-3.523254395E-2,-1.472320557E-1,1.115417480E-1
3.625917614E0,-3.169250488E-2,-1.416931152E-1,1.135711670E-1
3.630891979E0,-3.134155273E-2,-1.365356445E-1,1.158905029E-1
3.635866344E0,-3.047180176E-2,-1.342468262E-1,1.168365479E-1
3.640840709E0,-2.857971191E-2,-1.357879639E-1,1.183929443E-1
3.645815075E0,-2.668762207E-2,-1.395568848E-1,1.212310791E-1
3.650789440E0,-2.583312988E-2,-1.439971924E-1,1.226501465E-1
3.655763805E0,-2.119445801E-2,-1.500701904E-1,1.240844727E-1
3.660738170E0,-1.454162598E-2,-1.603088379E-1,1.266021729E-1
3.665712536E0,-9.674072266E-3,-1.771850586E-1,1.310577393E-1
3.670686901E0,-6.500244141E-3,-1.929779053E-1,1.326293945E-1
3.675661266E0,-4.837036133E-3,-1.894226074E-1,1.298980713E-1
3.680635631E0,-5.187988281E-4,-1.740264893E-1,1.248321533E-1
3.685609997E0,6.912231445E-3,-1.630096436E-1,1.196289062E-1
3.690584362E0,1.132202148E-2,-1.565551758E-1,1.174316406E-1
3.695558727E0,1.251220703E-2,-1.543273926E-1,1.186218262E-1
3.700533092E0,1.213073730E-2,-1.540679932E-1,1.204986572E-1
3.705507458E0,9.429931641E-3,-1.520080566E-1,1.187438965E-1
3.710481823E0,8.972167969E-3,-1.564483643E-1,1.210479736E-1
3.715456188E0,5.645751953E-3,-1.599121094E-1,1.258544922E-1
3.720430553E0,2.456665039E-3,-1.636047363E-1,1.268920898E-1
3.725404918E0,-2.426147461E-3,-1.696929932E-1,1.298675537E-1
3.730379284E0,-6.820678711E-3,-1.753692627E-1,1.317749023E-1
3.735353649E0,-9.384155273E-3,-1.828155518E-1,1.330718994E-1
3.740328014E0,-1.565551758E-2,-1.871795654E-1,1.394042969E-1
3.745302379E0,-2.069091797E-2,-1.903991699E-1,1.459655762E-1
3.750276745E0,-2.642822266E-2,-1.947326660E-1,1.474304199E-1
3.755251110E0,-3.291320801E-2,-1.979217529E-1,1.509704590E-1
3.760225475E0,-3.637695312E-2,-1.954803467E-1,1.522521973E-1
3.765199840E0,-4.246520996E-2,-1.849822998E-1,1.494140625E-1
3.770174206E0,-5.000305176E-2,-1.713867188E-1,1.443328857E-1
3.775148571E0,-5.462646484E-2,-1.533813477E-1,1.363220215E-1
3.780122936E0,-5.729675293E-2,-1.355438232E-1,1.275939941E-1
3.785097301E0,-5.772399902E-2,-1.163940430E-1,1.155395508E-1
3.790071666E0,-5.564880371E-2,-9.663391113E-2,1.052246094E-1
3.795046032E0,-5.334472656E-2,-7.984924316E-2,9.582519531E-2
3.800020397E0,-5.168151855E-2,-6.817626953E-2,8.752441406E-2
3.804994762E0,-4.997253418E-2,-5.883789062E-2,8.195495605E-2
3.809969127E0,-4.719543457E-2,-5.018615723E-2,7.780456543E-2
3.814943493E0,-4.432678223E-2,-4.182434082E-2,7.614135742E-2
3.819917858E0,-4.014587402E-2,-3.494262695E-2,7.824707031E-2
3.824892223E0,-3.358459473E-2,-2.865600586E-2,8.197021484E-2
3.829866588E0,-2.607727051E-2,-2.674865723E-2,8.479309082E-2
3.834840954E0,-1.954650879E-2,-2.697753906E-2,8.703613281E-2
3.839815319E0,-1.487731934E-2,-2.539062500E-2,8.947753906E-2
3.844789684E0,-1.049804688E-2,-2.531433105E-2,9.425354004E-2
3.849764049E0,-4.989624023E-3,-2.468872070E-2,1.034088135E-1
3.854738415E0,-2.899169922E-4,-2.593994141E-2,1.120758057E-1
3.859712780E0,3.494262695E-3,-2.825927734E-2,1.143035889E-1
3.864687145E0,6.820678711E-3,-3.355407715E-2,1.132659912E-1
3.869661510E0,8.621215820E-3,-3.602600098E-2,1.102294922E-1
3.874635875E0,7.598876953E-3,-3.346252441E-2,1.096649170E-1
3.879610241E0,6.668090820E-3,-3.205871582E-2,1.098175049E-1
3.884584606E0,5.050659180E-3,-3.387451172E-2,1.068878174E-1
3.889558971E0,1.144409180E-3,-3.285217285E-2,1.031188965E-1
3.894533336E0,4.272460938E-4,-3.045654297E-2,9.834289551E-2
3.899507702E0,-3.326416016E-3,-2.314758301E-2,9.495544434E-2
3.904482067E0,-6.591796875E-3,-1.664733887E-2,9.455871582E-2
3.909456432E0,-9.765625000E-3,-8.651733398E-3,9.625244141E-2
3.914430797E0,-1.638793945E-2,-5.767822266E-3,9.288024902E-2
3.919405163E0,-2.447509766E-2,-5.050659180E-3,9.692382812E-2
3.924379528E0,-2.893066406E-2,4.882812500E-4,9.454345703E-2
3.929353893E0,-3.521728516E-2,6.362915039E-3,9.197998047E-2
3.934328258E0,-4.206848145E-2,1.972961426E-2,8.734130859E-2
3.939302624E0,-4.748535156E-2,3.565979004E-2,7.925415039E-2
3.944276989E0,-5.026245117E-2,5.430603027E-2,7.131958008E-2
3.949251354E0,-4.975891113E-2,7.176208496E-2,6.039428711E-2
3.954225719E0,-4.550170898E-2,8.859252930E-2,5.101013184E-2
3.959200084E0,-3.930664062E-2,1.045989990E-1,3.865051270E-2
3.964174450E0,-3.509521484E-2,1.186065674E-1,2.873229980E-2
3.969148815E0,-2.844238281E-2,1.306762695E-1,2.296447754E-2
3.974123180E0,-2.590942383E-2,1.391754150E-1,1.565551758E-2
3.979097545E0,-2.206420898E-2,1.418609619E-1,1.118469238E-2
3.984071911E0,-1.814270020E-2,1.440124512E-1,8.041381836E-3
3.989046276E0,-1.081848145E-2,1.412048340E-1,4.913330078E-3
3.994020641E0,-1.998901367E-3,1.333007812E-1,1.541137695E-3
3.998995006E0,8.026123047E-3,1.243133545E-1,-2.944946289E-3
4.003969372E0,1.701354980E-2,1.153717041E-1,-8.071899414E-3
4.008943737E0,2.287292480E-2,1.105499268E-1,-1.387023926E-2
4.013918102E0,2.929687500E-2,1.088714600E-1,-2.256774902E-2
4.018892467E0,3.805541992E-2,1.098175049E-1,-3.041076660E-2
4.023866833E0,4.325866699E-2,1.094360352E-1,-3.472900391E-2
4.028841198E0,4.370117188E-2,1.120147705E-1,-3.684997559E-2
4.033815563E0,4.101562500E-2,1.139678955E-1,-3.630065918E-2
4.038789928E0,3.575134277E-2,1.127166748E-1,-3.140258789E-2
4.043764293E0,2.830505371E-2,1.157684326E-1,-2.255249023E-2
4.048738659E0,2.178955078E-2,1.148986816E-1,-1.620483398E-2
4.053713024E0,1.571655273E-2,1.113433838E-1,-1.181030273E-2
4.058687389E0,9.872436523E-3,1.166076660E-1,-6.958007812E-3
4.063661754E0,2.410888672E-3,1.349639893E-1,-2.426147461E-3
4.068636120E0,-6.668090820E-3,1.639709473E-1,3.845214844E-3
4.073610485E0,-1.509094238E-2,1.806488037E-1,7.812500000E-3
4.078584850E0,-2.124023438E-2,1.770324707E-1,9.445190430E-3
4.083559215E0,-2.322387695E-2,1.600952148E-1,7.034301758E-3
4.088533581E0,-2.877807617E-2,1.332550049E-1,2.838134766E-3
4.093507946E0,-2.949523926E-2,9.620666504E-2,-4.425048828E-4
4.098482311E0,-2.268981934E-2,7.394409180E-2,-7.324218750E-4
4.103456676E0,-1.629638672E-2,7.371520996E-2,-1.892089844E-3
4.108431041E0,-1.908874512E-2,6.350708008E-2,-3.143310547E-3
4.113405407E0,-2.462768555E-2,4.661560059E-2,-7.507324219E-3
4.118379772E0,-2.508544922E-2,2.481079102E-2,-1.130676270E-2
4.123354137E0,-2.133178711E-2,6.057739258E-3,-1.641845703E-2
4.128328502E0,-1.663208008E-2,-1.168823242E-2,-2.305603027E-2
4.133302868E0,-3.143310547E-3,-2.371215820E-2,-2.697753906E-2
4.138277233E0,6.530761719E-3,-3.060913086E-2,-3.224182129E-2
4.143251598E0,7.659912109E-3,-2.769470215E-2,-3.923034668E-2
4.148225963E0,1.599121094E-2,-1.435852051E-2,-4.640197754E-2
4.153200329E0,3.005981445E-2,-7.339477539E-3,-5.178833008E-2
4.158174694E0,4.013061523E-2,-6.713867188E-3,-5.432128906E-2
4.163149059E0,3.874206543E-2,-3.219604492E-3,-5.001831055E-2
4.168123424E0,2.389526367E-2,1.118469238E-2,-4.267883301E-2
4.173097790E0,-4.882812500E-4,3.436279297E-2,-3.637695312E-2
4.178072155E0,-2.865600586E-2,5.877685547E-2,-3.311157227E-2
4.183046520E0,-5.076599121E-2,7.737731934E-2,-3.540039062E-2
4.188020885E0,-6.286621094E-2,8.683776855E-2,-4.264831543E-2
4.192995250E0,-6.694030762E-2,9.007263184E-2,-4.933166504E-2
4.197969616E0,-7.049560547E-2,9.175109863E-2,-5.032348633E-2
4.202943981E0,-7.675170898E-2,8.735656738E-2,-4.603576660E-2
4.207918346E0,-8.488464355E-2,7.672119141E-2,-3.416442871E-2
4.212892711E0,-9.263610840E-2,6.510925293E-2,-1.728820801E-2
4.217867077E0,-9.684753418E-2,5.354309082E-2,2.075195312E-3
4.222841442E0,-1.004180908E-1,4.264831543E-2,2.220153809E-2
4.227815807E0,-1.040802002E-1,3.271484375E-2,4.217529297E-2
4.232790172E0,-1.044769287E-1,2.447509766E-2,6.054687500E-2
4.237764538E0,-1.015930176E-1,1.817321777E-2,7.949829102E-2
4.242738903E0,-9.275817871E-2,1.802062988E-2,9.910583496E-2
4.247713268E0,-7.885742188E-2,2.447509766E-2,1.119384766E-1
4.252687633E0,-6.376647949E-2,2.900695801E-2,1.151733398E-1
4.257661999E0,-4.870605469E-2,2.079772949E-2,1.091766357E-1
4.262636364E0,-3.172302246E-2,3.524780273E-3,1.010437012E-1
4.267610729E0,-2.021789551E-2,-1.322937012E-2,9.339904785E-2
4.272585094E0,-1.223754883E-2,-2.125549316E-2,8.377075195E-2
4.277559459E0,-5.813598633E-3,-2.537536621E-2,7.426452637E-2
4.282533825E0,-6.561279297E-4,-2.691650391E-2,6.433105469E-2
4.287508190E0,4.928588867E-3,-2.702331543E-2,5.714416504E-2
4.292482555E0,8.804321289E-3,-2.177429199E-2,4.792785645E-2
4.297456920E0,1.197814941E-2,-2.838134766E-3,4.087829590E-2
4.302431286E0,1.142883301E-2,3.955078125E-2,2.964782715E-2
4.307405651E0,1.139831543E-2,8.961486816E-2,1.669311523E-2
4.312380016E0,1.075744629E-2,1.198883057E-1,9.689331055E-3
4.317354381E0,1.008605957E-2,1.230621338E-1,1.037597656E-2
4.322328747E0,8.819580078E-3,1.053771973E-1,1.182556152E-2
4.327303112E0,7.919311523E-3,7.597351074E-2,1.603698730E-2
4.332277477E0,9.582519531E-3,4.486083984E-2,2.647399902E-2
4.337251842E0,1.312255859E-2,1.866149902E-2,3.646850586E-2
4.342226208E0,1.562500000E-2,-3.448486328E-3,4.885864258E-2
4.347200573E0,1.828002930E-2,-2.162170410E-2,6.060791016E-2
4.352174938E0,2.125549316E-2,-3.752136230E-2,7.127380371E-2
4.357149303E0,2.302551270E-2,-4.560852051E-2,8.059692383E-2
4.362123668E0,2.162170410E-2,-5.041503906E-2,8.843994141E-2
4.367098034E0,1.615905762E-2,-5.458068848E-2,8.795166016E-2
4.372072399E0,8.636474609E-3,-5.880737305E-2,8.338928223E-2
4.377046764E0,-4.119873047E-4,-6.208801270E-2,7.788085938E-2
4.382021129E0,-1.008605957E-2,-6.166076660E-2,6.840515137E-2
4.386995495E0,-1.760864258E-2,-6.117248535E-2,5.853271484E-2
4.391969860E0,-2.571105957E-2,-6.272888184E-2,5.187988281E-2
4.396944225E0,-3.356933594E-2,-6.431579590E-2,4.809570312E-2
4.401918590E0,-3.881835938E-2,-6.721496582E-2,4.493713379E-2
4.406892956E0,-3.981018066E-2,-7.228088379E-2,4.394531250E-2
4.411867321E0,-3.675842285E-2,-7.829284668E-2,4.519653320E-2
4.416841686E0,-3.086853027E-2,-8.529663086E-2,4.832458496E-2
4.421816051E0,-2.276611328E-2,-9.718322754E-2,5.351257324E-2
4.426790416E0,-1.358032227E-2,-1.124267578E-1,5.668640137E-2
4.431764782E0,-4.180908203E-3,-1.293640137E-1,5.813598633E-2
4.436739147E0,8.758544922E-3,-1.442565918E-1,5.807495117E-2
4.441713512E0,2.268981934E-2,-1.562042236E-1,5.516052246E-2
4.446687877E0,3.320312500E-2,-1.665802002E-1,4.806518555E-2
4.451662243E0,3.819274902E-2,-1.712036133E-1,3.744506836E-2
4.456636608E0,3.839111328E-2,-1.712799072E-1,2.769470215E-2
4.461610973E0,3.620910645E-2,-1.643981934E-1,1.934814453E-2
4.466585338E0,3.210449219E-2,-1.552276611E-1,1.551818848E-2
4.471559704E0,2.659606934E-2,-1.430206299E-1,1.182556152E-2
4.476534069E0,1.982116699E-2,-1.322021484E-1,1.261901855E-2
4.481508434E0,1.643371582E-2,-1.268157959E-1,1.445007324E-2
4.486482799E0,1.690673828E-2,-1.206054688E-1,2.053833008E-2
4.491457165E0,1.631164551E-2,-1.112823486E-1,3.048706055E-2
4.496431530E0,1.705932617E-2,-1.051025391E-1,4.176330566E-2
4.501405895E0,2.081298828E-2,-1.019287109E-1,5.104064941E-2
4.506380260E0,2.461242676E-2,-9.881591797E-2,5.833435059E-2
4.511354625E0,2.885437012E-2,-1.026458740E-1,6.300354004E-2
4.516328991E0,3.207397461E-2,-1.069488525E-1,6.497192383E-2
4.521303356E0,3.575134277E-2,-1.110382080E-1,6.697082520E-2
4.526277721E0,3.912353516E-2,-1.160888672E-1,6.597900391E-2
4.531252086E0,4.283142090E-2,-1.185913086E-1,6.294250488E-2
4.536226452E0,4.393005371E-2,-1.207885742E-1,5.673217773E-2
4.541200817E0,4.339599609E-2,-1.205444336E-1,4.669189453E-2
4.546175182E0,3.871154785E-2,-1.159515381E-1,3.736877441E-2
4.551149547E0,3.221130371E-2,-1.115417480E-1,3.045654297E-2
4.556123913E0,2.592468262E-2,-1.107788086E-1,2.653503418E-2
4.561098278E0,1.864624023E-2,-1.159210205E-1,2.545166016E-2
4.566072643E0,1.422119141E-2,-1.259307861E-1,2.629089355E-2
4.571047008E0,1.438903809E-2,-1.418914795E-1,3.158569336E-2
4.576021374E0,1.676940918E-2,-1.612396240E-1,3.692626953E-2
4.580995739E0,2.110290527E-2,-1.800842285E-1,4.402160645E-2
4.585970104E0,2.674865723E-2,-1.988677979E-1,5.497741699E-2
4.590944469E0,3.303527832E-2,-2.179870605E-1,6.523132324E-2
4.595918834E0,3.861999512E-2,-2.344665527E-1,7.339477539E-2
4.600893200E0,3.892517090E-2,-2.451629639E-1,8.297729492E-2
4.605867565E0,3.504943848E-2,-2.500457764E-1,9.400939941E-2
4.610841930E0,3.065490723E-2,-2.488708496E-1,1.068572998E-1
4.615816295E0,2.502441406E-2,-2.385253906E-1,1.194458008E-1
4.620790661E0,2.174377441E-2,-2.285614014E-1,1.309356689E-1
4.625765026E0,1.544189453E-2,-2.191009521E-1,1.386871338E-1
4.630739391E0,1.004028320E-2,-2.054138184E-1,1.445007324E-1
4.635713756E0,4.241943359E-3,-1.932220459E-1,1.458740234E-1
4.640688122E0,-2.548217773E-3,-1.873016357E-1,1.488189697E-1
4.645662487E0,-9.445190430E-3,-1.915435791E-1,1.495361328E-1
4.650636852E0,-1.734924316E-2,-2.045745850E-1,1.474609375E-1
4.655611217E0,-2.496337891E-2,-2.297515869E-1,1.470947266E-1
4.660585583E0,-3.414916992E-2,-2.555694580E-1,1.487426758E-1
4.665559948E0,-4.701232910E-2,-2.756652832E-1,1.472167969E-1
4.670534313E0,-6.076049805E-2,-2.856903076E-1,1.476745605E-1
4.675508678E0,-7.453918457E-2,-2.842254639E-1,1.531372070E-1
4.680483043E0,-8.644104004E-2,-2.679748535E-1,1.587829590E-1
4.685457409E0,-9.629821777E-2,-2.396087646E-1,1.650543213E-1
4.690431774E0,-1.017150879E-1,-2.070465088E-1,1.721191406E-1
4.695406139E0,-1.036529541E-1,-1.769714355E-1,1.807098389E-1
4.700380504E0,-1.060791016E-1,-1.474914551E-1,1.867370605E-1
4.705354870E0,-1.087646484E-1,-1.213073730E-1,1.859283447E-1
4.710329235E0,-1.172180176E-1,-8.744812012E-2,1.831970215E-1
4.715303600E0,-1.303100586E-1,-5.067443848E-2,1.768951416E-1
4.720277965E0,-1.428375244E-1,-1.589965820E-2,1.741180420E-1
4.725252331E0,-1.535186768E-1,1.638793945E-2,1.747436523E-1
4.730226696E0,-1.580200195E-1,3.970336914E-2,1.758728027E-1
4.735201061E0,-1.611633301E-1,5.033874512E-2,1.774444580E-1
4.740175426E0,-1.628875732E-1,5.545043945E-2,1.760101318E-1
4.745149791E0,-1.616210938E-1,5.390930176E-2,1.717834473E-1
4.750124157E0,-1.594390869E-1,4.719543457E-2,1.662292480E-1
4.755098522E0,-1.547088623E-1,3.659057617E-2,1.625976562E-1
4.760072887E0,-1.468658447E-1,2.407836914E-2,1.624603271E-1
4.765047252E0,-1.387634277E-1,6.469726562E-3,1.636505127E-1
4.770021618E0,-1.357879639E-1,-1.419067383E-2,1.638641357E-1
4.774995983E0,-1.357879639E-1,-3.330993652E-2,1.669921875E-1
4.779970348E0,-1.364440918E-1,-5.017089844E-2,1.723480225E-1
4.784944713E0,-1.370086670E-1,-6.272888184E-2,1.772613525E-1
4.789919079E0,-1.359405518E-1,-6.745910645E-2,1.777801514E-1
4.794893444E0,-1.363067627E-1,-6.306457520E-2,1.721343994E-1
4.799867809E0,-1.389770508E-1,-4.983520508E-2,1.620330811E-1
4.804842174E0,-1.437377930E-1,-3.150939941E-2,1.507568359E-1
4.809816540E0,-1.523895264E-1,-1.159667969E-2,1.381530762E-1
4.814790905E0,-1.624145508E-1,9.155273438E-5,1.289520264E-1
4.819765270E0,-1.733551025E-1,9.155273438E-3,1.228179932E-1
4.824739635E0,-1.813201904E-1,1.853942871E-2,1.162261963E-1
4.829714000E0,-1.847839355E-1,2.110290527E-2,1.147003174E-1
4.834688366E0,-1.852722168E-1,1.362609863E-2,1.177368164E-1
4.839662731E0,-1.858062744E-1,7.369995117E-3,1.199493408E-1
4.844637096E0,-1.810607910E-1,1.033020020E-2,1.277465820E-1
4.849611461E0,-1.715393066E-1,2.798461914E-2,1.431579590E-1
4.854585827E0,-1.603698730E-1,5.366516113E-2,1.617126465E-1
4.859560192E0,-1.496276855E-1,7.072448730E-2,1.776733398E-1
4.864534557E0,-1.408081055E-1,7.975769043E-2,1.945343018E-1
4.869508922E0,-1.401367188E-1,7.231140137E-2,2.120513916E-1
4.874483288E0,-1.452941895E-1,5.288696289E-2,2.288055420E-1
4.879457653E0,-1.548614502E-1,3.399658203E-2,2.412261963E-1
4.884432018E0,-1.659698486E-1,2.601623535E-2,2.509918213E-1
4.889406383E0,-1.678161621E-1,4.750061035E-2,2.522125244E-1
4.894380749E0,-1.650390625E-1,8.944702148E-2,2.573089600E-1
4.899355114E0,-1.655426025E-1,1.292266846E-1,2.586822510E-1
4.904329479E0,-1.730194092E-1,1.553192139E-1,2.555084229E-1
4.909303844E0,-1.875457764E-1,1.661987305E-1,2.433471680E-1
4.914278209E0,-2.092895508E-1,1.631011963E-1,2.286224365E-1
4.919252575E0,-2.316131592E-1,1.557006836E-1,2.146759033E-1
4.924226940E0,-2.516479492E-1,1.471099854E-1,2.019348145E-1
4.929201305E0,-2.701263428E-1,1.385498047E-1,1.933441162E-1
4.934175670E0,-2.825927734E-1,1.299896240E-1,1.856079102E-1
4.939150036E0,-2.908020020E-1,1.219329834E-1,1.794281006E-1
4.944124401E0,-3.014526367E-1,1.101684570E-1,1.741638184E-1
4.949098766E0,-3.126525879E-1,9.390258789E-2,1.669464111E-1
4.954073131E0,-3.217926025E-1,7.112121582E-2,1.583709717E-1
4.959047497E0,-3.317871094E-1,3.807067871E-2,1.505279541E-1
4.964021862E0,-3.414764404E-1,-3.906250000E-3,1.427001953E-1
4.968996227E0,-3.492889404E-1,-4.866027832E-2,1.368408203E-1
4.973970592E0,-3.561096191E-1,-9.207153320E-2,1.307373047E-1
4.978944958E0,-3.609466553E-1,-1.311798096E-1,1.264648438E-1
4.983919323E0,-3.628082275E-1,-1.653137207E-1,1.268615723E-1
4.988893688E0,-3.602752686E-1,-1.939086914E-1,1.275482178E-1
4.993868053E0,-3.567047119E-1,-2.181701660E-1,1.267242432E-1
4.998842418E0,-3.561401367E-1,-2.438964844E-1,1.275939941E-1
5.003816784E0,-3.558807373E-1,-2.687225342E-1,1.303863525E-1
5.008791149E0,-3.594055176E-1,-2.948608398E-1,1.330566406E-1
5.013765514E0,-3.610839844E-1,-3.222656250E-1,1.346130371E-1
5.018739879E0,-3.617095947E-1,-3.468627930E-1,1.353607178E-1
5.023714245E0,-3.638458252E-1,-3.711700439E-1,1.370086670E-1
5.028688610E0,-3.658447266E-1,-3.925781250E-1,1.346740723E-1
5.033662975E0,-3.693389893E-1,-4.143371582E-1,1.348114014E-1
5.038637340E0,-3.764038086E-1,-4.339141846E-1,1.293487549E-1
5.043611706E0,-3.873291016E-1,-4.493408203E-1,1.236419678E-1
5.048586071E0,-3.980255127E-1,-4.643707275E-1,1.197662354E-1
5.053560436E0,-4.123382568E-1,-4.788818359E-1,1.141815186E-1
5.058534801E0,-4.273223877E-1,-4.877166748E-1,1.115875244E-1
5.063509166E0,-4.385528564E-1,-4.959411621E-1,1.052703857E-1
5.068483532E0,-4.484405518E-1,-5.061798096E-1,9.799194336E-2
5.073457897E0,-4.563293457E-1,-5.195312500E-1,9.445190430E-2
5.078432262E0,-4.612731934E-1,-5.274810791E-1,9.320068359E-2
5.083406627E0,-4.652252197E-1,-5.281982422E-1,9.184265137E-2
5.088380993E0,-4.660644531E-1,-5.265197754E-1,9.173583984E-2
5.093355358E0,-4.631500244E-1,-5.289154053E-1,1.006164551E-1
5.098329723E0,-4.521942139E-1,-5.297088623E-1,1.098785400E-1
5.103304088E0,-4.367065430E-1,-5.262756348E-1,1.188201904E-1
5.108278454E0,-4.179992676E-1,-5.222015381E-1,1.284179688E-1
5.113252819E0,-4.003906250E-1,-5.183410645E-1,1.378784180E-1
5.118227184E0,-3.863067627E-1,-5.140991211E-1,1.450195312E-1
5.123201549E0,-3.768920898E-1,-5.178222656E-1,1.515655518E-1
5.128175915E0,-3.681640625E-1,-5.296173096E-1,1.600646973E-1
5.133150280E0,-3.628997803E-1,-5.365142822E-1,1.652069092E-1
5.138124645E0,-3.626251221E-1,-5.417633057E-1,1.671752930E-1
5.143099010E0,-3.658905029E-1,-5.473785400E-1,1.653442383E-1
5.148073375E0,-3.688354492E-1,-5.475158691E-1,1.578979492E-1
5.153047741E0,-3.682098389E-1,-5.428009033E-1,1.500549316E-1
5.158022106E0,-3.650054932E-1,-5.319366455E-1,1.391754150E-1
5.162996471E0,-3.627014160E-1,-5.161590576E-1,1.244812012E-1
5.167970836E0,-3.595428467E-1,-4.981689453E-1,1.071777344E-1
5.172945202E0,-3.552856445E-1,-4.763641357E-1,8.625793457E-2
5.177919567E0,-3.507232666E-1,-4.516906738E-1,6.504821777E-2
5.182893932E0,-3.419952393E-1,-4.298706055E-1,4.310607910E-2
5.187868297E0,-3.326416016E-1,-4.106903076E-1,1.843261719E-2
5.192842663E0,-3.274078369E-1,-3.989715576E-1,-7.675170898E-3
5.197817028E0,-3.236389160E-1,-3.961486816E-1,-3.398132324E-2
5.202791393E0,-3.227081299E-1,-4.026489258E-1,-6.420898438E-2
5.207765758E0,-3.281402588E-1,-4.158477783E-1,-9.359741211E-2
5.212740124E0,-3.411102295E-1,-4.317779541E-1,-1.239318848E-1
5.217714489E0,-3.539428711E-1,-4.543304443E-1,-1.556549072E-1
5.222688854E0,-3.643188477E-1,-4.840393066E-1,-1.892089844E-1
5.227663219E0,-3.710479736E-1,-5.087738037E-1,-2.209930420E-1
5.232637584E0,-3.727264404E-1,-5.211334229E-1,-2.505950928E-1
5.237611950E0,-3.716430664E-1,-5.224151611E-1,-2.823791504E-1
5.242586315E0,-3.661651611E-1,-5.182189941E-1,-3.137207031E-1
5.247560680E0,-3.585968018E-1,-5.088958740E-1,-3.437347412E-1
5.252535045E0,-3.439178467E-1,-4.994354248E-1,-3.686676025E-1
5.257509411E0,-3.251190186E-1,-4.903411865E-1,-3.872528076E-1
5.262483776E0,-3.061676025E-1,-4.856719971E-1,-4.026184082E-1
5.267458141E0,-2.849884033E-1,-4.842071533E-1,-4.147033691E-1
5.272432506E0,-2.591094971E-1,-4.804382324E-1,-4.234771729E-1
5.277406872E0,-2.276306152E-1,-4.732055664E-1,-4.319610596E-1
5.282381237E0,-1.934204102E-1,-4.692993164E-1,-4.382324219E-1
5.287355602E0,-1.595458984E-1,-4.725646973E-1,-4.418487549E-1
5.292329967E0,-1.224517822E-1,-4.753875732E-1,-4.459075928E-1
5.297304333E0,-8.480834961E-2,-4.776153564E-1,-4.531555176E-1
5.302278698E0,-5.416870117E-2,-4.861602783E-1,-4.620819092E-1
5.307253063E0,-3.094482422E-2,-4.951477051E-1,-4.725189209E-1
5.312227428E0,-1.693725586E-2,-5.046081543E-1,-4.810180664E-1
5.317201793E0,-1.419067383E-2,-5.190734863E-1,-4.871063232E-1
5.322176159E0,-1.980590820E-2,-5.388641357E-1,-4.934997559E-1
5.327150524E0,-3.160095215E-2,-5.596313477E-1,-4.978179932E-1
5.332124889E0,-4.858398438E-2,-5.788421631E-1,-5.011596680E-1
5.337099254E0,-6.889343262E-2,-5.940399170E-1,-5.064392090E-1
5.342073620E0,-9.205627441E-2,-6.040649414E-1,-5.120849609E-1
5.347047985E0,-1.165313721E-1,-6.076354980E-1,-5.167694092E-1
5.352022350E0,-1.372680664E-1,-6.021575928E-1,-5.201263428E-1
5.356996715E0,-1.500091553E-1,-5.869903564E-1,-5.215454102E-1
5.361971081E0,-1.569061279E-1,-5.664520264E-1,-5.225524902E-1
5.366945446E0,-1.609649658E-1,-5.424194336E-1,-5.218505859E-1
5.371919811E0,-1.591949463E-1,-5.153961182E-1,-5.195465088E-1
5.376894176E0,-1.509704590E-1,-4.843902588E-1,-5.149078369E-1
5.381868541E0,-1.360931396E-1,-4.557952881E-1,-5.061798096E-1
5.386842907E0,-1.159820557E-1,-4.325256348E-1,-4.998168945E-1
5.391817272E0,-9.327697754E-2,-4.228820801E-1,-4.952850342E-1
5.396791637E0,-6.948852539E-2,-4.314575195E-1,-4.894104004E-1
5.401766002E0,-4.464721680E-2,-4.566802979E-1,-4.790802002E-1
5.406740368E0,-1.750183105E-2,-4.838256836E-1,-4.646759033E-1
5.411714733E0,1.325988770E-2,-4.989166260E-1,-4.388885498E-1
5.416689098E0,4.235839844E-2,-5.242309570E-1,-4.102172852E-1
5.421663463E0,6.216430664E-2,-5.461578369E-1,-3.881225586E-1
5.426637829E0,8.038330078E-2,-5.574798584E-1,-3.668212891E-1
5.431612194E0,9.733581543E-2,-5.596771240E-1,-3.515625000E-1
5.436586559E0,1.142272949E-1,-5.578460693E-1,-3.439636230E-1
5.441560924E0,1.298980713E-1,-5.566406250E-1,-3.387298584E-1
5.446535290E0,1.453399658E-1,-5.562744141E-1,-3.440551758E-1
5.451509655E0,1.566619873E-1,-5.516204834E-1,-3.535156250E-1
5.456484020E0,1.688690186E-1,-5.573577881E-1,-3.640441895E-1
5.461458385E0,1.837158203E-1,-5.698699951E-1,-3.780059814E-1
5.466432750E0,2.032470703E-1,-5.908660889E-1,-3.881378174E-1
5.471407116E0,2.340545654E-1,-6.186370850E-1,-3.925476074E-1
5.476381481E0,2.698974609E-1,-6.551666260E-1,-3.959655762E-1
5.481355846E0,3.068389893E-1,-6.947631836E-1,-3.967285156E-1
5.486330211E0,3.444824219E-1,-7.343292236E-1,-3.995208740E-1
5.491304577E0,3.778686523E-1,-7.705688477E-1,-4.001007080E-1
5.496278942E0,4.082794189E-1,-8.003845215E-1,-3.981933594E-1
5.501253307E0,4.344329834E-1,-8.192443848E-1,-3.973541260E-1
5.506227672E0,4.493103027E-1,-8.153533936E-1,-3.963317871E-1
5.511202038E0,4.510803223E-1,-7.840728760E-1,-3.952026367E-1
5.516176403E0,4.428558350E-1,-7.263641357E-1,-3.938598633E-1
5.521150768E0,4.277191162E-1,-6.579284668E-1,-3.903961182E-1
5.526125133E0,4.104614258E-1,-5.956420898E-1,-3.802032471E-1
5.531099499E0,3.960571289E-1,-5.565948486E-1,-3.610687256E-1
5.536073864E0,3.848571777E-1,-5.482940674E-1,-3.320312500E-1
5.541048229E0,3.748016357E-1,-5.644531250E-1,-3.011474609E-1
5.546022594E0,3.676757812E-1,-5.903015137E-1,-2.697143555E-1
5.550996959E0,3.619079590E-1,-6.131896973E-1,-2.350006104E-1
5.555971325E0,3.536682129E-1,-6.314697266E-1,-1.989135742E-1
5.560945690E0,3.414001465E-1,-6.405792236E-1,-1.654663086E-1
5.565920055E0,3.284149170E-1,-6.481781006E-1,-1.351013184E-1
5.570894420E0,3.145446777E-1,-6.685485840E-1,-1.038360596E-1
5.575868786E0,3.038177490E-1,-7.028198242E-1,-6.913757324E-2
5.580843151E0,2.953796387E-1,-7.461090088E-1,-3.248596191E-2
5.585817516E0,2.901916504E-1,-8.005371094E-1,-4.730224609E-4
5.590791881E0,2.791442871E-1,-8.700714111E-1,2.783203125E-2
5.595766247E0,2.618713379E-1,-9.521484375E-1,5.119323730E-2
5.600740612E0,2.447967529E-1,-1.038238525E0,6.832885742E-2
5.605714977E0,2.234344482E-1,-1.121887207E0,8.349609375E-2
5.610689342E0,2.061920166E-1,-1.202407837E0,1.007080078E-1
5.615663708E0,1.974182129E-1,-1.273071289E0,1.154022217E-1
5.620638073E0,1.959228516E-1,-1.331130981E0,1.316070557E-1
5.625612438E0,2.065582275E-1,-1.376113892E0,1.527862549E-1
5.630586803E0,2.293548584E-1,-1.399795532E0,1.676635742E-1
5.635561168E0,2.593841553E-1,-1.402618408E0,1.789855957E-1
5.640535534E0,2.987213135E-1,-1.390136719E0,1.909484863E-1
5.645509899E0,3.408813477E-1,-1.364868164E0,2.031402588E-1
5.650484264E0,3.849182129E-1,-1.326873779E0,2.171936035E-1
5.655458629E0,4.310913086E-1,-1.276824951E0,2.295227051E-1
5.660432995E0,4.820861816E-1,-1.215576172E0,2.433776855E-1
5.665407360E0,5.279541016E-1,-1.142883301E0,2.538146973E-1
5.670381725E0,5.639953613E-1,-1.057266235E0,2.608642578E-1
5.675356090E0,5.932769775E-1,-9.671325684E-1,2.641448975E-1
5.680330456E0,6.122741699E-1,-8.810577393E-1,2.588043213E-1
5.685304821E0,6.151885986E-1,-8.041229248E-1,2.491455078E-1
5.690279186E0,6.025848389E-1,-7.397460938E-1,2.391815186E-1
5.695253551E0,5.733184814E-1,-6.887817383E-1,2.252502441E-1
5.700227916E0,5.298614502E-1,-6.558074951E-1,2.131042480E-1
5.705202282E0,4.801330566E-1,-6.430206299E-1,2.035064697E-1
5.710176647E0,4.284667969E-1,-6.437683105E-1,1.911163330E-1
5.715151012E0,3.753662109E-1,-6.545562744E-1,1.738281250E-1
5.720125377E0,3.240203857E-1,-6.724090576E-1,1.588134766E-1
5.725099743E0,2.792053223E-1,-6.950836182E-1,1.456604004E-1
5.730074108E0,2.411956787E-1,-7.215270996E-1,1.342315674E-1
5.735048473E0,2.072906494E-1,-7.480926514E-1,1.249084473E-1
5.740022838E0,1.802215576E-1,-7.734527588E-1,1.172485352E-1
5.744997204E0,1.603698730E-1,-7.961273193E-1,1.139221191E-1
5.749971569E0,1.448974609E-1,-8.157806396E-1,1.134796143E-1
5.754945934E0,1.330566406E-1,-8.315734863E-1,1.143341064E-1
5.759920299E0,1.263580322E-1,-8.451538086E-1,1.204986572E-1
5.764894665E0,1.254882812E-1,-8.551025391E-1,1.254272461E-1
5.769869030E0,1.266021729E-1,-8.567199707E-1,1.296539307E-1
5.774843395E0,1.283416748E-1,-8.472442627E-1,1.340484619E-1
5.779817760E0,1.322479248E-1,-8.241882324E-1,1.363983154E-1
5.784792125E0,1.361389160E-1,-7.931213379E-1,1.340789795E-1
5.789766491E0,1.350097656E-1,-7.535552979E-1,1.304168701E-1
5.794740856E0,1.376037598E-1,-7.084045410E-1,1.266479492E-1
5.799715221E0,1.412963867E-1,-6.518096924E-1,1.217498779E-1
5.804689586E0,1.491699219E-1,-5.847930908E-1,1.149597168E-1
5.809663952E0,1.616058350E-1,-5.191802979E-1,1.050109863E-1
5.814638317E0,1.760711670E-1,-4.534454346E-1,9.861755371E-2
5.819612682E0,1.936340332E-1,-3.888702393E-1,8.749389648E-2
5.824587047E0,2.116241455E-1,-3.220062256E-1,7.948303223E-2
5.829561413E0,2.267456055E-1,-2.486419678E-1,7.315063477E-2
5.834535778E0,2.359924316E-1,-1.750335693E-1,6.607055664E-2
5.839510143E0,2.378234863E-1,-1.084442139E-1,5.755615234E-2
5.844484508E0,2.294006348E-1,-5.435180664E-2,4.713439941E-2
5.849458874E0,2.058868408E-1,-1.686096191E-2,3.932189941E-2
5.854433239E0,1.723022461E-1,5.661010742E-3,3.779602051E-2
5.859407604E0,1.243286133E-1,8.316040039E-3,3.654479980E-2
5.864381969E0,6.925964355E-2,-4.104614258E-3,3.904724121E-2
5.869356334E0,1.043701172E-2,-2.421569824E-2,4.193115234E-2
5.874330700E0,-4.925537109E-2,-4.615783691E-2,4.365539551E-2
5.879305065E0,-1.062774658E-1,-6.539916992E-2,4.025268555E-2
5.884279430E0,-1.563873291E-1,-8.378601074E-2,3.451538086E-2
5.889253795E0,-1.983032227E-1,-1.010589600E-1,2.890014648E-2
5.894228161E0,-2.315826416E-1,-1.160583496E-1,2.328491211E-2
5.899202526E0,-2.561798096E-1,-1.274261475E-1,1.516723633E-2
5.904176891E0,-2.748870850E-1,-1.368713379E-1,6.408691406E-3
5.909151256E0,-2.880706787E-1,-1.434631348E-1,-3.967285156E-3
5.914125622E0,-2.963714600E-1,-1.488342285E-1,-1.622009277E-2
5.919099987E0,-3.002929688E-1,-1.509399414E-1,-2.902221680E-2
5.924074352E0,-3.031463623E-1,-1.468048096E-1,-3.938293457E-2
5.929048717E0,-3.066711426E-1,-1.424102783E-1,-4.704284668E-2
5.934023083E0,-3.112335205E-1,-1.388854980E-1,-5.236816406E-2
5.938997448E0,-3.195190430E-1,-1.388244629E-1,-5.592346191E-2
5.943971813E0,-3.316802979E-1,-1.398468018E-1,-5.607604980E-2
5.948946178E0,-3.430633545E-1,-1.413574219E-1,-5.526733398E-2
5.953920543E0,-3.533020020E-1,-1.404876709E-1,-5.003356934E-2
5.958894909E0,-3.604736328E-1,-1.390838623E-1,-4.360961914E-2
5.963869274E0,-3.632965088E-1,-1.353607178E-1,-3.733825684E-2
5.968843639E0,-3.590850830E-1,-1.289520264E-1,-2.957153320E-2
5.973818004E0,-3.508453369E-1,-1.241607666E-1,-2.090454102E-2
5.978792370E0,-3.393249512E-1,-1.224670410E-1,-1.425170898E-2
5.983766735E0,-3.246307373E-1,-1.201019287E-1,-1.077270508E-2
5.988741100E0,-3.118896484E-1,-1.141510010E-1,-4.776000977E-3
5.993715465E0,-3.005523682E-1,-1.031951904E-1,9.002685547E-4
5.998689831E0,-2.892761230E-1,-9.130859375E-2,5.310058594E-3
6.003664196E0,-2.791442871E-1,-7.365417480E-2,1.336669922E-2
6.008638561E0,-2.679138184E-1,-5.163574219E-2,1.641845703E-2
6.013612926E0,-2.571716309E-1,-2.684020996E-2,1.776123047E-2
6.018587291E0,-2.452697754E-1,2.990722656E-3,1.991271973E-2
6.023561657E0,-2.333831787E-1,3.010559082E-2,1.866149902E-2
6.028536022E0,-2.216339111E-1,5.364990234E-2,1.713562012E-2
6.033510387E0,-2.106170654E-1,7.514953613E-2,1.507568359E-2
6.038484752E0,-1.982116699E-1,9.344482422E-2,1.820373535E-2
6.043459118E0,-1.863098145E-1,1.102752686E-1,2.037048340E-2
6.048433483E0,-1.754913330E-1,1.290740967E-1,1.972961426E-2
6.053407848E0,-1.686401367E-1,1.478881836E-1,2.081298828E-2
6.058382213E0,-1.638031006E-1,1.652526855E-1,2.049255371E-2
6.063356579E0,-1.606445312E-1,1.786193848E-1,1.921081543E-2
6.068330944E0,-1.606750488E-1,1.878662109E-1,1.936340332E-2
6.073305309E0,-1.616973877E-1,1.884155273E-1,1.843261719E-2
6.078279674E0,-1.620483398E-1,1.823577881E-1,2.008056641E-2
6.083254040E0,-1.609802246E-1,1.726989746E-1,2.375793457E-2
6.088228405E0,-1.593322754E-1,1.615447998E-1,2.757263184E-2
6.093202770E0,-1.590118408E-1,1.478118896E-1,3.158569336E-2
6.098177135E0,-1.571197510E-1,1.336975098E-1,3.630065918E-2
6.103151500E0,-1.533508301E-1,1.235046387E-1,4.103088379E-2
6.108125866E0,-1.506347656E-1,1.180877686E-1,4.429626465E-2
6.113100231E0,-1.483917236E-1,1.198120117E-1,4.727172852E-2
6.118074596E0,-1.451110840E-1,1.262054443E-1,4.837036133E-2
6.123048961E0,-1.385955811E-1,1.394195557E-1,5.010986328E-2
6.128023327E0,-1.291809082E-1,1.555633545E-1,5.407714844E-2
6.132997692E0,-1.191406250E-1,1.669616699E-1,5.545043945E-2
6.137972057E0,-1.095581055E-1,1.759033203E-1,5.323791504E-2
6.142946422E0,-1.024780273E-1,1.814422607E-1,4.502868652E-2
6.147920788E0,-9.526062012E-2,1.824951172E-1,3.501892090E-2
6.152895153E0,-8.770751953E-2,1.839904785E-1,2.345275879E-2
6.157869518E0,-8.273315430E-2,1.879119873E-1,1.409912109E-2
6.162843883E0,-7.783508301E-2,1.886138916E-1,2.166748047E-3
6.167818249E0,-7.228088379E-2,1.902313232E-1,-7.080078125E-3
6.172792614E0,-6.552124023E-2,1.971130371E-1,-1.530456543E-2
6.177766979E0,-6.147766113E-2,2.064056396E-1,-2.003479004E-2
6.182741344E0,-5.831909180E-2,2.169952393E-1,-2.442932129E-2
6.187715709E0,-5.700683594E-2,2.299804688E-1,-2.394104004E-2
6.192690075E0,-5.694580078E-2,2.455596924E-1,-2.452087402E-2
6.197664440E0,-5.326843262E-2,2.576141357E-1,-2.191162109E-2
6.202638805E0,-5.097961426E-2,2.735748291E-1,-1.652526855E-2
6.207613170E0,-4.330444336E-2,2.836608887E-1,-1.492309570E-2
6.212587536E0,-3.384399414E-2,2.941589355E-1,-9.994506836E-3
6.217561901E0,-2.354431152E-2,3.031005859E-1,-5.615234375E-3
6.222536266E0,-1.142883301E-2,3.088531494E-1,-1.327514648E-3
6.227510631E0,1.525878906E-3,3.116455078E-1,2.441406250E-3
6.232484997E0,1.342773438E-2,3.131713867E-1,6.057739258E-3
6.237459362E0,2.487182617E-2,3.141326904E-1,8.422851562E-3
6.242433727E0,3.523254395E-2,3.093566895E-1,7.751464844E-3
6.247408092E0,4.466247559E-2,3.020172119E-1,5.615234375E-3
6.252382458E0,4.989624023E-2,2.938842773E-1,3.143310547E-3
6.257356823E0,5.422973633E-2,2.812652588E-1,-1.434326172E-3
6.262331188E0,5.516052246E-2,2.663879395E-1,-5.661010742E-3
6.267305553E0,5.554199219E-2,2.546081543E-1,-1.017761230E-2
6.272279918E0,5.662536621E-2,2.447357178E-1,-1.339721680E-2
6.277254284E0,5.718994141E-2,2.367858887E-1,-1.704406738E-2
6.282228649E0,5.903625488E-2,2.335052490E-1,-2.085876465E-2
6.287203014E0,6.121826172E-2,2.363281250E-1,-2.464294434E-2
6.292177379E0,6.309509277E-2,2.443084717E-1,-3.062438965E-2
6.297151745E0,6.324768066E-2,2.532501221E-1,-3.649902344E-2
6.302126110E0,6.089782715E-2,2.644500732E-1,-4.188537598E-2
6.307100475E0,5.586242676E-2,2.789764404E-1,-4.600524902E-2
6.312074840E0,4.881286621E-2,2.936096191E-1,-4.992675781E-2
6.317049206E0,3.965759277E-2,3.088378906E-1,-5.348205566E-2
6.322023571E0,2.873229980E-2,3.215484619E-1,-5.834960938E-2
6.326997936E0,1.834106445E-2,3.323974609E-1,-6.355285645E-2
6.331972301E0,8.316040039E-3,3.430480957E-1,-6.579589844E-2
6.336946666E0,2.578735352E-3,3.527374268E-1,-6.752014160E-2
6.341921032E0,-1.312255859E-3,3.567199707E-1,-7.087707520E-2
6.346895397E0,-4.577636719E-3,3.566894531E-1,-7.209777832E-2
6.351869762E0,-4.547119141E-3,3.555450439E-1,-7.272338867E-2
6.356844127E0,-5.538940430E-3,3.499603271E-1,-7.443237305E-2
6.361818493E0,-7.369995117E-3,3.414611816E-1,-7.464599609E-2
6.366792858E0,-8.087158203E-3,3.281250000E-1,-7.292175293E-2
6.371767223E0,-1.463317871E-2,3.154449463E-1,-7.281494141E-2
6.376741588E0,-2.153015137E-2,3.010864258E-1,-7.583618164E-2
6.381715954E0,-2.842712402E-2,2.873229980E-1,-7.588195801E-2
6.386690319E0,-3.576660156E-2,2.740173340E-1,-7.695007324E-2
6.391664684E0,-3.948974609E-2,2.574462891E-1,-7.406616211E-2
6.396639049E0,-4.214477539E-2,2.459564209E-1,-7.426452637E-2
6.401613415E0,-3.981018066E-2,2.394409180E-1,-7.098388672E-2
6.406587780E0,-3.390502930E-2,2.358703613E-1,-7.051086426E-2
6.411562145E0,-2.540588379E-2,2.344512939E-1,-6.716918945E-2
6.416536510E0,-1.274108887E-2,2.379608154E-1,-6.278991699E-2
6.421510875E0,-2.471923828E-3,2.411956787E-1,-5.822753906E-2
6.426485241E0,5.187988281E-3,2.455749512E-1,-5.416870117E-2
6.431459606E0,8.178710938E-3,2.458496094E-1,-5.239868164E-2
6.436433971E0,7.751464844E-3,2.442932129E-1,-4.965209961E-2
6.441408336E0,7.125854492E-3,2.388916016E-1,-4.776000977E-2
6.446382702E0,5.020141602E-3,2.289733887E-1,-4.588317871E-2
6.451357067E0,2.990722656E-3,2.175292969E-1,-4.376220703E-2
6.456331432E0,2.258300781E-3,2.048645020E-1,-4.200744629E-2
6.461305797E0,3.051757812E-3,1.927032471E-1,-4.167175293E-2
6.466280163E0,4.653930664E-3,1.871795654E-1,-4.136657715E-2
6.471254528E0,5.905151367E-3,1.858520508E-1,-4.043579102E-2
6.476228893E0,6.210327148E-3,1.867980957E-1,-4.045104980E-2
6.481203258E0,4.257202148E-3,1.870574951E-1,-4.071044922E-2
6.486177624E0,7.934570312E-4,1.860809326E-1,-4.045104980E-2
6.491151989E0,-3.356933594E-3,1.819152832E-1,-3.935241699E-2
6.496126354E0,-9.262084961E-3,1.741180420E-1,-3.822326660E-2
6.501100719E0,-1.733398438E-2,1.613922119E-1,-3.561401367E-2
6.506075084E0,-2.568054199E-2,1.467742920E-1,-3.227233887E-2
6.511049450E0,-3.213500977E-2,1.357879639E-1,-2.957153320E-2
6.516023815E0,-3.779602051E-2,1.263580322E-1,-2.705383301E-2
6.520998180E0,-4.066467285E-2,1.174011230E-1,-2.038574219E-2
6.525972545E0,-4.254150391E-2,1.119537354E-1,-1.510620117E-2
6.530946911E0,-4.244995117E-2,1.065979004E-1,-1.121520996E-2
6.535921276E0,-3.778076172E-2,1.045074463E-1,-7.446289062E-3
6.540895641E0,-3.315734863E-2,1.032562256E-1,-2.105712891E-3
6.545870006E0,-2.822875977E-2,1.014556885E-1,1.358032227E-3
6.550844372E0,-2.154541016E-2,9.791564941E-2,3.921508789E-3
6.555818737E0,-1.695251465E-2,9.472656250E-2,7.019042969E-3
6.560793102E0,-1.081848145E-2,8.512878418E-2,1.072692871E-2
6.565767467E0,-8.148193359E-3,7.505798340E-2,1.086425781E-2
6.570741833E0,-7.476806641E-3,6.311035156E-2,1.333618164E-2
6.575716198E0,-4.348754883E-3,4.873657227E-2,1.475524902E-2
6.580690563E0,-1.724243164E-3,3.507995605E-2,1.950073242E-2
6.585664928E0,2.365112305E-3,2.294921875E-2,2.093505859E-2
6.590639293E0,3.387451172E-3,9.078979492E-3,2.407836914E-2
6.595613659E0,2.868652344E-3,-2.136230469E-4,2.685546875E-2
6.600588024E0,3.189086914E-3,-8.453369141E-3,2.790832520E-2
6.605562389E0,4.821777344E-3,-1.335144043E-2,3.067016602E-2
6.610536754E0,6.271362305E-3,-1.383972168E-2,3.149414062E-2
6.615511120E0,1.005554199E-2,-8.483886719E-3,3.149414062E-2
6.620485485E0,1.263427734E-2,1.678466797E-4,3.199768066E-2
6.625459850E0,1.570129395E-2,1.094055176E-2,2.943420410E-2
6.630434215E0,1.467895508E-2,2.325439453E-2,2.757263184E-2
6.635408581E0,1.065063477E-2,3.364562988E-2,2.487182617E-2
6.640382946E0,4.272460938E-3,4.214477539E-2,2.250671387E-2
6.645357311E0,-2.975463867E-3,4.937744141E-2,1.937866211E-2
6.650331676E0,-9.857177734E-3,5.142211914E-2,1.678466797E-2
6.655306041E0,-1.646423340E-2,5.290222168E-2,1.234436035E-2
6.660280407E0,-2.154541016E-2,5.541992188E-2,4.821777344E-3
6.665254772E0,-2.339172363E-2,5.889892578E-2,-8.087158203E-4
6.670229137E0,-2.339172363E-2,6.327819824E-2,-6.240844727E-3
6.675203502E0,-2.130126953E-2,6.974792480E-2,-1.277160645E-2
6.680177868E0,-1.608276367E-2,8.044433594E-2,-1.721191406E-2
6.685152233E0,-9.033203125E-3,9.225463867E-2,-2.035522461E-2
6.690126598E0,-3.051757812E-4,1.027526855E-1,-2.149963379E-2
6.695100963E0,7.415771484E-3,1.140136719E-1,-2.232360840E-2
6.700075329E0,1.473999023E-2,1.259155273E-1,-2.357482910E-2
6.705049694E0,1.913452148E-2,1.360321045E-1,-2.215576172E-2
6.710024059E0,2.088928223E-2,1.454772949E-1,-2.149963379E-2
6.714998424E0,2.023315430E-2,1.510467529E-1,-2.005004883E-2
6.719972790E0,1.898193359E-2,1.573944092E-1,-1.718139648E-2
6.724947155E0,1.823425293E-2,1.637878418E-1,-1.609802246E-2
6.729921520E0,1.655578613E-2,1.721496582E-1,-1.547241211E-2
6.734895885E0,1.576232910E-2,1.815032959E-1,-1.158142090E-2
6.739870250E0,1.513671875E-2,1.875457764E-1,-1.055908203E-2
6.744844616E0,1.278686523E-2,1.931762695E-1,-1.223754883E-2
6.749818981E0,1.321411133E-2,1.940765381E-1,-1.292419434E-2
6.754793346E0,8.392333984E-3,1.874237061E-1,-1.354980469E-2
6.759767711E0,6.454467773E-3,1.817779541E-1,-1.786804199E-2
6.764742077E0,2.624511719E-3,1.753692627E-1,-1.971435547E-2
6.769716442E0,-2.639770508E-3,1.661071777E-1,-2.107238770E-2
6.774690807E0,-2.593994141E-3,1.589355469E-1,-2.362060547E-2
6.779665172E0,-1.647949219E-3,1.554718018E-1,-2.645874023E-2
6.784639538E0,1.403808594E-3,1.546783447E-1,-2.653503418E-2
6.789613903E0,4.333496094E-3,1.562347412E-1,-2.383422852E-2
6.794588268E0,9.704589844E-3,1.558532715E-1,-2.308654785E-2
6.799562633E0,1.618957520E-2,1.542510986E-1,-2.101135254E-2
6.804536999E0,2.073669434E-2,1.522369385E-1,-1.597595215E-2
6.809511364E0,2.388000488E-2,1.463012695E-1,-1.112365723E-2
6.814485729E0,2.607727051E-2,1.390228271E-1,-5.416870117E-3
6.819460094E0,2.505493164E-2,1.238555908E-1,2.517700195E-3
6.824434459E0,2.038574219E-2,1.023101807E-1,8.117675781E-3
6.829408825E0,1.286315918E-2,7.647705078E-2,1.322937012E-2
6.834383190E0,4.547119141E-3,4.707336426E-2,2.001953125E-2
6.839357555E0,-5.371093750E-3,2.159118652E-2,2.566528320E-2
6.844331920E0,-1.600646973E-2,-3.356933594E-4,2.764892578E-2
6.849306286E0,-2.696228027E-2,-2.165222168E-2,2.917480469E-2
6.854280651E0,-3.826904297E-2,-4.110717773E-2,2.914428711E-2
6.859255016E0,-4.589843750E-2,-5.598449707E-2,2.964782715E-2
6.864229381E0,-4.817199707E-2,-6.648254395E-2,3.102111816E-2
6.869203747E0,-4.588317871E-2,-7.476806641E-2,2.993774414E-2
6.874178112E0,-3.923034668E-2,-7.847595215E-2,3.033447266E-2
6.879152477E0,-2.865600586E-2,-7.575988770E-2,3.102111816E-2
6.884126842E0,-1.631164551E-2,-6.866455078E-2,3.186035156E-2
6.889101208E0,-5.523681641E-3,-5.708312988E-2,3.138732910E-2
6.894075573E0,3.601074219E-3,-4.304504395E-2,3.280639648E-2
6.899049938E0,9.597778320E-3,-3.141784668E-2,3.485107422E-2
6.904024303E0,1.416015625E-2,-2.598571777E-2,3.913879395E-2
6.908998668E0,1.457214355E-2,-2.470397949E-2,4.118347168E-2
6.913973034E0,1.242065430E-2,-2.919006348E-2,4.295349121E-2
6.918947399E0,8.331298828E-3,-3.797912598E-2,4.640197754E-2
6.923921764E0,1.251220703E-3,-4.574584961E-2,4.637145996E-2
6.928896129E0,-3.509521484E-3,-5.610656738E-2,4.518127441E-2
6.933870495E0,-7.888793945E-3,-6.503295898E-2,4.565429688E-2
6.938844860E0,-1.049804688E-2,-7.260131836E-2,4.273986816E-2
6.943819225E0,-9.353637695E-3,-8.740234375E-2,4.080200195E-2
6.948793590E0,-3.097534180E-3,-9.684753418E-2,3.956604004E-2
6.953767956E0,4.760742188E-3,-1.072692871E-1,3.961181641E-2
6.958742321E0,1.849365234E-2,-1.112670898E-1,4.005432129E-2
6.963716686E0,3.205871582E-2,-1.101531982E-1,3.804016113E-2
6.968691051E0,4.975891113E-2,-1.043701172E-1,3.491210938E-2
6.973665416E0,6.903076172E-2,-9.690856934E-2,3.253173828E-2
6.978639782E0,9.083557129E-2,-8.522033691E-2,3.419494629E-2
6.983614147E0,1.115112305E-1,-6.880187988E-2,3.532409668E-2
6.988588512E0,1.320343018E-1,-5.331420898E-2,3.930664062E-2
6.993562877E0,1.528472900E-1,-4.614257812E-2,4.745483398E-2
6.998537243E0,1.762390137E-1,-5.136108398E-2,5.850219727E-2
7.003511608E0,1.989898682E-1,-6.684875488E-2,6.884765625E-2
7.008485973E0,2.188262939E-1,-9.979248047E-2,8.096313477E-2
7.013460338E0,2.380218506E-1,-1.517028809E-1,8.883666992E-2
7.018434704E0,2.594146729E-1,-2.165679932E-1,9.439086914E-2
7.023409069E0,2.874603271E-1,-2.911071777E-1,9.751892090E-2
7.028383434E0,3.232421875E-1,-3.760833740E-1,9.631347656E-2
7.033357799E0,3.683166504E-1,-4.641418457E-1,9.393310547E-2
7.038332165E0,4.211273193E-1,-5.508880615E-1,9.333801270E-2
7.043306530E0,4.792175293E-1,-6.329040527E-1,9.304809570E-2
7.048280895E0,5.363616943E-1,-7.025756836E-1,9.367370605E-2
7.053255260E0,5.906524658E-1,-7.654418945E-1,9.219360352E-2
7.058229625E0,6.412353516E-1,-8.202972412E-1,8.906555176E-2
7.063203991E0,6.829681396E-1,-8.539428711E-1,8.821105957E-2
7.068178356E0,7.142181396E-1,-8.694305420E-1,9.201049805E-2
7.073152721E0,7.319030762E-1,-8.784179688E-1,9.600830078E-2
7.078127086E0,7.414855957E-1,-8.844451904E-1,9.828186035E-2
7.083101452E0,7.447509766E-1,-8.867950439E-1,1.006164551E-1
7.088075817E0,7.409210205E-1,-8.866577148E-1,1.031188965E-1
7.093050182E0,7.376708984E-1,-8.803253174E-1,1.022949219E-1
7.098024547E0,7.371368408E-1,-8.692321777E-1,1.018829346E-1
7.102998913E0,7.422332764E-1,-8.486022949E-1,1.034240723E-1
7.107973278E0,7.611236572E-1,-8.176116943E-1,1.121368408E-1
7.112947643E0,7.910919189E-1,-7.790832520E-1,1.183776855E-1
7.117922008E0,8.302001953E-1,-7.329559326E-1,1.123199463E-1
7.122896374E0,8.808746338E-1,-6.805267334E-1,1.007232666E-1
7.127870739E0,9.387512207E-1,-6.207885742E-1,8.880615234E-2
7.132845104E0,9.982147217E-1,-5.661468506E-1,7.812500000E-2
7.137819469E0,1.055709839E0,-5.181427002E-1,6.391906738E-2
7.142793834E0,1.106872559E0,-4.840698242E-1,5.850219727E-2
7.147768200E0,1.153030396E0,-4.591674805E-1,5.897521973E-2
7.152742565E0,1.191757202E0,-4.473724365E-1,6.567382812E-2
7.157716930E0,1.215377808E0,-4.494476318E-1,7.684326172E-2
7.162691295E0,1.217620850E0,-4.650268555E-1,9.197998047E-2
7.167665661E0,1.204162598E0,-5.011138916E-1,1.074218750E-1
7.172640026E0,1.172332764E0,-5.544891357E-1,1.229553223E-1
7.177614391E0,1.129623413E0,-6.231842041E-1,1.430969238E-1
7.182588756E0,1.074203491E0,-7.014923096E-1,1.650238037E-1
7.187563122E0,1.016464233E0,-7.896728516E-1,1.930999756E-1
7.192537487E0,9.569702148E-1,-8.779144287E-1,2.238464355E-1
7.197511852E0,9.046173096E-1,-9.583435059E-1,2.569122314E-1
7.202486217E0,8.611907959E-1,-1.019622803E0,2.876892090E-1
7.207460583E0,8.286285400E-1,-1.061462402E0,3.156890869E-1
7.212434948E0,8.090209961E-1,-1.095748901E0,3.403472900E-1
7.217409313E0,8.021392822E-1,-1.119842529E0,3.619537354E-1
7.222383678E0,8.059387207E-1,-1.131912231E0,3.814392090E-1
7.227358043E0,8.171081543E-1,-1.136352539E0,4.005432129E-1
7.232332409E0,8.314971924E-1,-1.139816284E0,4.180603027E-1
7.237306774E0,8.402557373E-1,-1.144866943E0,4.286499023E-1
7.242281139E0,8.401031494E-1,-1.151550293E0,4.304504395E-1
7.247255504E0,8.264160156E-1,-1.152847290E0,4.258880615E-1
7.252229870E0,7.995452881E-1,-1.140487671E0,4.170532227E-1
7.257204235E0,7.612609863E-1,-1.121139526E0,4.050292969E-1
7.262178600E0,7.095489502E-1,-1.103164673E0,3.947906494E-1
7.267152965E0,6.527557373E-1,-1.075073242E0,3.843078613E-1
7.272127331E0,5.955200195E-1,-1.030975342E0,3.738861084E-1
7.277101696E0,5.430908203E-1,-9.822082520E-1,3.624420166E-1
7.282076061E0,5.005187988E-1,-9.314422607E-1,3.476715088E-1
7.287050426E0,4.589691162E-1,-8.974304199E-1,3.384552002E-1
7.292024791E0,4.226226807E-1,-8.664703369E-1,3.329925537E-1
7.296999157E0,3.979644775E-1,-8.222656250E-1,3.242340088E-1
7.301973522E0,3.841247559E-1,-7.731781006E-1,3.104858398E-1
7.306947887E0,3.800201416E-1,-7.298736572E-1,3.028106689E-1
7.311922252E0,3.780364990E-1,-6.907348633E-1,2.964782715E-1
7.316896618E0,3.785247803E-1,-6.596069336E-1,2.908325195E-1
7.321870983E0,3.736724854E-1,-6.378936768E-1,2.863616943E-1
7.326845348E0,3.633880615E-1,-6.338195801E-1,2.907867432E-1
7.331819713E0,3.435516357E-1,-6.421203613E-1,2.964019775E-1
7.336794079E0,3.249359131E-1,-6.549377441E-1,3.022460938E-1
7.341768444E0,2.993469238E-1,-6.623840332E-1,3.020172119E-1
7.346742809E0,2.684173584E-1,-6.619415283E-1,2.997283936E-1
7.351717174E0,2.385711670E-1,-6.526031494E-1,2.993927002E-1
7.356691540E0,2.197570801E-1,-6.335296631E-1,2.999877930E-1
7.361665905E0,2.158203125E-1,-6.002197266E-1,2.968750000E-1
7.366640270E0,2.275848389E-1,-5.634307861E-1,2.901153564E-1
7.371614635E0,2.551269531E-1,-5.204772949E-1,2.795715332E-1
7.376589000E0,2.914581299E-1,-4.713897705E-1,2.709503174E-1
7.381563366E0,3.275756836E-1,-4.405670166E-1,2.632904053E-1
7.386537731E0,3.616333008E-1,-4.035186768E-1,2.482910156E-1
7.391512096E0,3.910827637E-1,-3.557586670E-1,2.344665527E-1
7.396486461E0,4.138183594E-1,-3.133239746E-1,2.301635742E-1
7.401460827E0,4.254150391E-1,-2.935333252E-1,2.324523926E-1
7.406435192E0,4.278259277E-1,-2.876129150E-1,2.364654541E-1
7.411409557E0,4.211120605E-1,-2.856292725E-1,2.383575439E-1
7.416383922E0,4.046325684E-1,-2.929840088E-1,2.411499023E-1
7.421358288E0,3.800811768E-1,-3.039550781E-1,2.452392578E-1
7.426332653E0,3.502349854E-1,-3.076324463E-1,2.476043701E-1
7.431307018E0,3.161315918E-1,-3.040008545E-1,2.492828369E-1
7.436281383E0,2.805328369E-1,-3.019104004E-1,2.528839111E-1
7.441255749E0,2.457122803E-1,-3.053588867E-1,2.538299561E-1
7.446230114E0,2.127838135E-1,-3.090057373E-1,2.533721924E-1
7.451204479E0,1.820831299E-1,-3.119354248E-1,2.542114258E-1
7.456178844E0,1.558990479E-1,-3.163604736E-1,2.537384033E-1
7.461153209E0,1.345977783E-1,-3.213653564E-1,2.502593994E-1
7.466127575E0,1.172485352E-1,-3.273315430E-1,2.486419678E-1
7.471101940E0,1.062164307E-1,-3.336029053E-1,2.509002686E-1
7.476076305E0,1.037750244E-1,-3.329315186E-1,2.525329590E-1
7.481050670E0,1.082611084E-1,-3.181610107E-1,2.527618408E-1
7.486025036E0,1.181030273E-1,-2.974700928E-1,2.511901855E-1
7.490999401E0,1.326293945E-1,-2.891387939E-1,2.503967285E-1
7.495973766E0,1.532745361E-1,-2.873535156E-1,2.396697998E-1
7.500948131E0,1.751403809E-1,-2.976379395E-1,2.410125732E-1
7.505922497E0,1.935119629E-1,-3.160095215E-1,2.589111328E-1
7.510896862E0,2.092285156E-1,-3.305358887E-1,2.704162598E-1
7.515871227E0,2.205047607E-1,-3.443603516E-1,2.810974121E-1
7.520845592E0,2.271118164E-1,-3.561096191E-1,2.895202637E-1
7.525819958E0,2.281188965E-1,-3.643188477E-1,2.911224365E-1
7.530794323E0,2.257537842E-1,-3.650817871E-1,2.890625000E-1
7.535768688E0,2.187957764E-1,-3.610076904E-1,2.853698730E-1
7.540743053E0,2.113342285E-1,-3.539428711E-1,2.807922363E-1
7.545717418E0,2.048797607E-1,-3.414611816E-1,2.679290771E-1
7.550691784E0,2.011413574E-1,-3.221435547E-1,2.523803711E-1
7.555666149E0,2.000274658E-1,-2.979278564E-1,2.316284180E-1
7.560640514E0,2.008361816E-1,-2.718963623E-1,2.088928223E-1
7.565614879E0,2.063903809E-1,-2.428894043E-1,1.871643066E-1
7.570589245E0,2.132720947E-1,-2.065734863E-1,1.651916504E-1
7.575563610E0,2.201690674E-1,-1.614990234E-1,1.453552246E-1
7.580537975E0,2.266082764E-1,-1.101531982E-1,1.274261475E-1
7.585512340E0,2.313079834E-1,-6.155395508E-2,1.100769043E-1
7.590486706E0,2.329101562E-1,-2.012634277E-2,9.439086914E-2
7.595461071E0,2.306365967E-1,1.388549805E-2,7.980346680E-2
7.600435436E0,2.265319824E-1,3.985595703E-2,6.384277344E-2
7.605409801E0,2.224731445E-1,5.418395996E-2,4.725646973E-2
7.610384166E0,2.196807861E-1,5.404663086E-2,3.382873535E-2
7.615358532E0,2.204589844E-1,3.839111328E-2,2.415466309E-2
7.620332897E0,2.218933105E-1,1.011657715E-2,1.654052734E-2
7.625307262E0,2.247161865E-1,-2.400207520E-2,8.804321289E-3
7.630281627E0,2.279663086E-1,-5.741882324E-2,5.355834961E-3
7.635255993E0,2.292785645E-1,-9.068298340E-2,3.768920898E-3
7.640230358E0,2.282562256E-1,-1.287231445E-1,6.240844727E-3
7.645204723E0,2.237854004E-1,-1.713867188E-1,1.211547852E-2
7.650179088E0,2.208251953E-1,-2.156677246E-1,1.927185059E-2
7.655153454E0,2.254028320E-1,-2.559814453E-1,2.264404297E-2
7.660127819E0,2.409515381E-1,-2.815704346E-1,2.597045898E-2
7.665102184E0,2.640838623E-1,-2.780914307E-1,2.774047852E-2
7.670076549E0,2.931060791E-1,-2.374267578E-1,2.696228027E-2
7.675050915E0,3.173828125E-1,-1.714019775E-1,2.360534668E-2
7.680025280E0,3.215942383E-1,-1.073150635E-1,2.633666992E-2
7.684999645E0,2.976226807E-1,-7.734680176E-2,3.796386719E-2
7.689974010E0,2.407226562E-1,-9.141540527E-2,5.798339844E-2
7.694948375E0,1.575622559E-1,-1.462249756E-1,7.865905762E-2
7.699922741E0,4.873657227E-2,-2.311401367E-1,1.017456055E-1
7.704897106E0,-6.704711914E-2,-3.310546875E-1,1.298980713E-1
7.709871471E0,-1.808624268E-1,-4.518585205E-1,1.575469971E-1
7.714845836E0,-2.755737305E-1,-5.422363281E-1,1.698913574E-1
7.719820202E0,-3.470764160E-1,-5.997924805E-1,1.623992920E-1
7.724794567E0,-4.004211426E-1,-6.145019531E-1,1.353759766E-1
7.729768932E0,-4.394836426E-1,-5.653228760E-1,8.589172363E-2
7.734743297E0,-4.667205811E-1,-4.642181396E-1,1.065063477E-2
7.739717663E0,-4.803466797E-1,-3.321990967E-1,-8.708190918E-2
7.744692028E0,-4.806518555E-1,-2.037353516E-1,-2.053527832E-1
7.749666393E0,-4.684143066E-1,-1.081695557E-1,-3.442382812E-1
7.754640758E0,-4.456176758E-1,-6.465148926E-2,-4.895477295E-1
7.759615124E0,-4.167327881E-1,-5.252075195E-2,-6.285858154E-1
7.764589489E0,-3.922882080E-1,-4.566955566E-2,-7.290954590E-1
7.769563854E0,-3.847045898E-1,-1.841735840E-2,-7.747039795E-1
7.774538219E0,-3.926849365E-1,4.051208496E-2,-7.644500732E-1
7.779512584E0,-4.101409912E-1,1.188964844E-1,-7.136383057E-1
7.784486950E0,-4.253692627E-1,1.931457520E-1,-6.336059570E-1
7.789461315E0,-4.323272705E-1,2.464599609E-1,-5.382385254E-1
7.794435680E0,-4.308624268E-1,2.695312500E-1,-4.384307861E-1
7.799410045E0,-4.287261963E-1,2.636871338E-1,-3.392333984E-1
7.804384411E0,-4.374237061E-1,2.389831543E-1,-2.474670410E-1
7.809358776E0,-4.612579346E-1,2.019348145E-1,-1.609649658E-1
7.814333141E0,-5.001678467E-1,1.602325439E-1,-7.432556152E-2
7.819307506E0,-5.548553467E-1,1.186523438E-1,1.641845703E-2
7.824281872E0,-6.239929199E-1,7.612609863E-2,1.078948975E-1
7.829256237E0,-7.111358643E-1,1.686096191E-2,1.953277588E-1
7.834230602E0,-8.106994629E-1,-7.066345215E-2,2.685089111E-1
7.839204967E0,-9.150390625E-1,-1.873321533E-1,3.051300049E-1
7.844179333E0,-1.021179199E0,-3.217163086E-1,3.077087402E-1
7.849153698E0,-1.112747192E0,-4.402923584E-1,2.815704346E-1
7.854128063E0,-1.176788330E0,-5.106811523E-1,2.368621826E-1
7.859102428E0,-1.205123901E0,-5.026855469E-1,1.717071533E-1
7.864076793E0,-1.190994263E0,-3.953094482E-1,9.434509277E-2
7.869051159E0,-1.129959106E0,-1.814422607E-1,2.796936035E-2
7.874025524E0,-1.008529663E0,1.726226807E-1,-1.745605469E-2
7.878999889E0,-8.330535889E-1,6.259765625E-1,-4.930114746E-2
7.883974254E0,-6.616668701E-1,9.969635010E-1,-6.332397461E-2
7.888948620E0,-5.029296875E-1,1.209991455E0,-9.541320801E-2
7.893922985E0,-3.328094482E-1,1.335083008E0,-1.165466309E-1
7.898897350E0,-1.726379395E-1,1.376678467E0,-8.055114746E-2
7.903871715E0,-5.476379395E-2,1.348037720E0,-1.365661621E-2
7.908846081E0,2.232360840E-2,1.288558960E0,5.978393555E-2
7.913820446E0,6.915283203E-2,1.216567993E0,1.361541748E-1
7.918794811E0,9.915161133E-2,1.131256104E0,2.214202881E-1
7.923769176E0,1.120300293E-1,1.018371582E0,3.059997559E-1
7.928743541E0,1.189880371E-1,9.103240967E-1,3.787231445E-1
7.933717907E0,1.517944336E-1,8.669586182E-1,4.176177979E-1
7.938692272E0,2.223052979E-1,9.047851562E-1,4.180603027E-1
7.943666637E0,3.291625977E-1,1.007171631E0,4.050903320E-1
7.948641002E0,4.674835205E-1,1.149475098E0,3.948059082E-1
7.953615368E0,6.317443848E-1,1.319412231E0,3.989105225E-1
7.958589733E0,8.169250488E-1,1.495269775E0,4.375000000E-1
7.963564098E0,1.005218506E0,1.645431519E0,5.191955566E-1
7.968538463E0,1.165512085E0,1.775634766E0,6.242828369E-1
7.973512829E0,1.205032349E0,1.999389648E0,7.352752686E-1
7.978487194E0,1.039611816E0,2.399902344E0,8.533477783E-1
7.983461559E0,7.165985107E-1,2.909591675E0,9.462127686E-1
7.988435924E0,3.313751221E-1,3.424789429E0,9.513854980E-1
7.993410290E0,-3.302001953E-2,3.732131958E0,9.085235596E-1
7.998384655E0,-3.339385986E-1,3.687057495E0,9.343872070E-1
8.003359020E0,-5.379638672E-1,3.369522095E0,1.004638672E0
8.008333385E0,-6.363372803E-1,2.950531006E0,1.037170410E0
8.013307750E0,-6.488952637E-1,2.593200684E0,1.018020630E0
8.018282116E0,-6.100158691E-1,2.384628296E0,9.516296387E-1
8.023256481E0,-5.614624023E-1,2.310440063E0,8.588256836E-1
8.028230846E0,-5.238647461E-1,2.344726562E0,7.674407959E-1
8.033205211E0,-5.077056885E-1,2.442687988E0,6.985015869E-1
8.038179577E0,-5.173797607E-1,2.542327881E0,6.609954834E-1
8.043153942E0,-5.459136963E-1,2.594161987E0,6.487731934E-1
8.048128307E0,-5.888214111E-1,2.576339722E0,6.350555420E-1
8.053102672E0,-6.313018799E-1,2.501098633E0,5.993347168E-1
8.058077038E0,-6.656341553E-1,2.395980835E0,5.587921143E-1
8.063051403E0,-6.920776367E-1,2.282028198E0,5.264892578E-1
8.068025768E0,-7.165985107E-1,2.183578491E0,5.038299561E-1
8.073000133E0,-7.346191406E-1,2.100799561E0,4.794006348E-1
8.077974499E0,-7.552185059E-1,2.046264648E0,4.598541260E-1
8.082948864E0,-7.800750732E-1,2.007247925E0,4.574737549E-1
8.087923229E0,-7.720947266E-1,1.961288452E0,4.592132568E-1
8.092897594E0,-7.548675537E-1,1.920944214E0,4.597473145E-1
8.097871959E0,-7.335205078E-1,1.857177734E0,4.746704102E-1
8.102846325E0,-7.130889893E-1,1.753341675E0,4.864501953E-1
8.107820690E0,-6.936340332E-1,1.646392822E0,4.843444824E-1
8.112795055E0,-6.701202393E-1,1.565460205E0,4.562377930E-1
8.117769420E0,-6.454315186E-1,1.490097046E0,4.270324707E-1
8.122743786E0,-6.215667725E-1,1.419830322E0,4.031677246E-1
8.127718151E0,-5.960540771E-1,1.363708496E0,3.813781738E-1
8.132692516E0,-5.722351074E-1,1.317077637E0,3.754882812E-1
8.137666881E0,-5.531158447E-1,1.270263672E0,3.848266602E-1
8.142641247E0,-5.403442383E-1,1.217559814E0,4.011383057E-1
8.147615612E0,-5.327453613E-1,1.180892944E0,4.170379639E-1
8.152589977E0,-5.247039795E-1,1.165893555E0,4.347381592E-1
8.157564342E0,-5.211639404E-1,1.156250000E0,4.548492432E-1
8.162538708E0,-5.235137939E-1,1.138061523E0,4.671936035E-1
8.167513073E0,-5.316314697E-1,1.118774414E0,4.679260254E-1
8.172487438E0,-5.494384766E-1,1.099960327E0,4.589080811E-1
8.177461803E0,-5.755157471E-1,1.078308105E0,4.415588379E-1
8.182436168E0,-6.079864502E-1,1.048034668E0,4.212799072E-1
8.187410534E0,-6.436462402E-1,1.007278442E0,4.033355713E-1
8.192384899E0,-6.803741455E-1,9.627685547E-1,3.823699951E-1
8.197359264E0,-7.181854248E-1,9.174194336E-1,3.585205078E-1
8.202333629E0,-7.551879883E-1,8.744964600E-1,3.359222412E-1
8.207307995E0,-7.906799316E-1,8.423004150E-1,3.156585693E-1
8.212282360E0,-8.287506104E-1,8.186340332E-1,2.919464111E-1
8.217256725E0,-8.737640381E-1,8.087158203E-1,2.684020996E-1
8.222231090E0,-9.296417236E-1,8.088073730E-1,2.425537109E-1
8.227205456E0,-9.865875244E-1,8.101959229E-1,2.185058594E-1
8.232179821E0,-1.043441772E0,8.193817139E-1,1.993103027E-1
8.237154186E0,-1.090225220E0,8.347473145E-1,1.811370850E-1
8.242128551E0,-1.123092651E0,8.462982178E-1,1.656036377E-1
8.247102916E0,-1.140869141E0,8.608245850E-1,1.515808105E-1
8.252077282E0,-1.138580322E0,8.736114502E-1,1.355590820E-1
8.257051647E0,-1.119216919E0,8.786468506E-1,1.227416992E-1
8.262026012E0,-1.084350586E0,8.777008057E-1,1.131744385E-1
8.267000377E0,-1.034378052E0,8.715667725E-1,1.024932861E-1
8.271974743E0,-9.689788818E-1,8.666839600E-1,9.301757812E-2
8.276949108E0,-8.911590576E-1,8.679656982E-1,7.998657227E-2
8.281923473E0,-7.974395752E-1,8.829803467E-1,6.906127930E-2
8.286897838E0,-6.898498535E-1,9.161529541E-1,5.458068848E-2
8.291872204E0,-5.775146484E-1,9.743041992E-1,3.924560547E-2
8.296846569E0,-4.643707275E-1,1.046890259E0,2.270507812E-2
8.301820934E0,-3.544921875E-1,1.121994019E0,6.973266602E-3
8.306795299E0,-2.593536377E-1,1.194519043E0,-1.354980469E-2
8.311769665E0,-1.865997314E-1,1.264862061E0,-2.815246582E-2
8.316744030E0,-1.372070312E-1,1.314559937E0,-4.283142090E-2
8.321718395E0,-1.108703613E-1,1.342529297E0,-6.497192383E-2
8.326692760E0,-9.857177734E-2,1.355026245E0,-9.603881836E-2
8.331667125E0,-9.669494629E-2,1.345245361E0,-1.298522949E-1
8.336641491E0,-9.748840332E-2,1.316055298E0,-1.696624756E-1
8.341615856E0,-1.055297852E-1,1.267013550E0,-2.152709961E-1
8.346590221E0,-1.184997559E-1,1.198120117E0,-2.677917480E-1
8.351564586E0,-1.288146973E-1,1.120346069E0,-3.271179199E-1
8.356538952E0,-1.318054199E-1,1.042831421E0,-3.884429932E-1
8.361513317E0,-1.299896240E-1,9.589080811E-1,-4.466552734E-1
8.366487682E0,-1.201019287E-1,8.601379395E-1,-4.993896484E-1
8.371462047E0,-9.663391113E-2,7.534790039E-1,-5.520935059E-1
8.376436413E0,-5.923461914E-2,6.374359131E-1,-5.988922119E-1
8.381410778E0,-7.049560547E-3,5.148468018E-1,-6.324768066E-1
8.386385143E0,6.672668457E-2,3.890686035E-1,-6.479949951E-1
8.391359508E0,1.620788574E-1,2.634887695E-1,-6.478729248E-1
8.396333874E0,2.746276855E-1,1.376190186E-1,-6.405639648E-1
8.401308239E0,4.010314941E-1,5.035400391E-3,-6.339569092E-1
8.406282604E0,5.348968506E-1,-1.279754639E-1,-6.382141113E-1
8.411256969E0,6.710968018E-1,-2.591857910E-1,-6.593627930E-1
8.416231334E0,8.077850342E-1,-3.844299316E-1,-6.933898926E-1
8.421205700E0,9.398498535E-1,-5.063171387E-1,-7.442321777E-1
8.426180065E0,1.066619873E0,-6.283264160E-1,-8.095397949E-1
8.431154430E0,1.193557739E0,-7.499237061E-1,-8.898925781E-1
8.436128795E0,1.322326660E0,-8.621368408E-1,-9.758300781E-1
8.441103161E0,1.447540283E0,-9.888458252E-1,-1.066696167E0
8.446077526E0,1.551284790E0,-1.153213501E0,-1.158111572E0
8.451051891E0,1.647399902E0,-1.315643311E0,-1.254302979E0
8.456026256E0,1.743850708E0,-1.435684204E0,-1.360534668E0
8.461000622E0,1.825469971E0,-1.546707153E0,-1.491073608E0
8.465974987E0,1.875793457E0,-1.679992676E0,-1.646011353E0
8.470949352E0,1.883148193E0,-1.798019409E0,-1.828353882E0
8.475923717E0,1.840301514E0,-1.878952026E0,-2.026000977E0
8.480898083E0,1.748703003E0,-1.914764404E0,-2.219604492E0
8.485872448E0,1.627151489E0,-1.902526855E0,-2.398468018E0
8.490846813E0,1.495758057E0,-1.835647583E0,-2.562179565E0
8.495821178E0,1.365631104E0,-1.725357056E0,-2.697967529E0
8.500795543E0,1.238784790E0,-1.592346191E0,-2.784439087E0
8.505769909E0,1.114486694E0,-1.472610474E0,-2.795394897E0
8.510744274E0,1.003540039E0,-1.349807739E0,-2.684570312E0
8.515718639E0,9.346923828E-1,-1.169677734E0,-2.413742065E0
8.520693004E0,9.374542236E-1,-9.900512695E-1,-1.990859985E0
8.525667370E0,1.032409668E0,-8.431091309E-1,-1.443862915E0
8.530641735E0,1.221313477E0,-6.983795166E-1,-8.251800537E-1
8.535616100E0,1.470901489E0,-5.611114502E-1,-2.753753662E-1
8.540590465E0,1.741882324E0,-4.941253662E-1,4.971313477E-2
8.545564831E0,2.003295898E0,-5.957031250E-1,1.472167969E-1
8.550539196E0,2.234329224E0,-8.945159912E-1,1.310272217E-1
8.555513561E0,2.420486450E0,-1.288360596E0,1.094512939E-1
8.560487926E0,2.550308228E0,-1.644943237E0,1.127014160E-1
8.565462291E0,2.625885010E0,-1.892883301E0,1.218566895E-1
8.570436657E0,2.643371582E0,-2.037185669E0,1.360321045E-1
8.575411022E0,2.590057373E0,-2.112136841E0,1.581726074E-1
8.580385387E0,2.466278076E0,-2.169647217E0,1.748352051E-1
8.585359752E0,2.284866333E0,-2.222915649E0,1.725921631E-1
8.590334118E0,2.069427490E0,-2.263549805E0,1.562500000E-1
8.595308483E0,1.839294434E0,-2.284591675E0,1.435699463E-1
8.600282848E0,1.607727051E0,-2.274993896E0,1.256408691E-1
8.605257213E0,1.381454468E0,-2.217453003E0,8.384704590E-2
8.610231579E0,1.182449341E0,-2.080749512E0,3.538513184E-2
8.615205944E0,1.027252197E0,-1.860229492E0,-2.075195312E-3
8.620180309E0,9.023590088E-1,-1.601531982E0,-2.175903320E-2
8.625154674E0,8.109588623E-1,-1.344497681E0,-3.158569336E-2
8.630129040E0,7.508392334E-1,-1.117538452E0,-3.979492188E-2
8.635103405E0,7.109069824E-1,-9.355773926E-1,-4.855346680E-2
8.640077770E0,6.887817383E-1,-8.190460205E-1,-5.909729004E-2
8.645052135E0,6.827697754E-1,-7.624969482E-1,-7.525634766E-2
8.650026500E0,6.860961914E-1,-7.557830811E-1,-9.524536133E-2
8.655000866E0,6.979522705E-1,-7.808990479E-1,-1.128387451E-1
8.659975231E0,7.210693359E-1,-8.187103271E-1,-1.315460205E-1
8.664949596E0,7.418518066E-1,-8.473052979E-1,-1.461334229E-1
8.669923961E0,7.626495361E-1,-8.554534912E-1,-1.432952881E-1
8.674898327E0,7.725372314E-1,-8.398742676E-1,-1.170501709E-1
8.679872692E0,7.618103027E-1,-7.855834961E-1,-7.138061523E-2
8.684847057E0,7.357482910E-1,-7.287597656E-1,-5.195617676E-2
8.689821422E0,6.942901611E-1,-6.792602539E-1,-5.606079102E-2
8.694795788E0,6.428985596E-1,-6.198272705E-1,-6.207275391E-2
8.699770153E0,5.879669189E-1,-5.534057617E-1,-5.918884277E-2
8.704744518E0,5.330047607E-1,-5.022888184E-1,-5.760192871E-2
8.709718883E0,4.791412354E-1,-4.666748047E-1,-5.679321289E-2
8.714693249E0,4.301300049E-1,-4.394378662E-1,-6.973266602E-2
8.719667614E0,3.835906982E-1,-4.177093506E-1,-1.000518799E-1
8.724641979E0,3.400268555E-1,-3.858032227E-1,-1.272430420E-1
8.729616344E0,3.008117676E-1,-3.414611816E-1,-1.340789795E-1
8.734590709E0,2.657165527E-1,-3.066558838E-1,-1.230163574E-1
8.739565075E0,2.272338867E-1,-2.930450439E-1,-9.561157227E-2
8.744539440E0,1.842651367E-1,-2.928924561E-1,-5.603027344E-2
8.749513805E0,1.374816895E-1,-2.978973389E-1,-8.438110352E-3
8.754488170E0,9.300231934E-2,-3.007965088E-1,4.522705078E-2
8.759462536E0,5.505371094E-2,-2.990722656E-1,1.036071777E-1
8.764436901E0,2.442932129E-2,-2.957153320E-1,1.618957520E-1
8.769411266E0,-3.204345703E-4,-2.985839844E-1,2.156829834E-1
8.774385631E0,-2.346801758E-2,-3.081665039E-1,2.626800537E-1
8.779359997E0,-4.631042480E-2,-3.147125244E-1,3.090667725E-1
8.784334362E0,-7.295227051E-2,-3.119201660E-1,3.579254150E-1
8.789308727E0,-1.053161621E-1,-2.965240479E-1,4.092559814E-1
8.794283092E0,-1.415252686E-1,-2.767639160E-1,4.578704834E-1
8.799257458E0,-1.789703369E-1,-2.552490234E-1,5.005035400E-1
8.804231823E0,-2.182769775E-1,-2.316741943E-1,5.374145508E-1
8.809206188E0,-2.577667236E-1,-1.972503662E-1,5.731658936E-1
8.814180553E0,-2.983245850E-1,-1.554870605E-1,6.044921875E-1
8.819154918E0,-3.339843750E-1,-1.145629883E-1,6.334838867E-1
8.824129284E0,-3.644409180E-1,-7.444763184E-2,6.640167236E-1
8.829103649E0,-3.875274658E-1,-3.887939453E-2,6.937103271E-1
8.834078014E0,-4.009094238E-1,-1.235961914E-2,7.188568115E-1
8.839052379E0,-4.112548828E-1,1.281738281E-3,7.350158691E-1
8.844026745E0,-4.097595215E-1,1.020812988E-2,7.453460693E-1
8.849001110E0,-4.032745361E-1,3.552246094E-2,7.497863770E-1
8.853975475E0,-3.933715820E-1,7.328796387E-2,7.540283203E-1
8.858949840E0,-3.800048828E-1,1.208648682E-1,7.514495850E-1
8.863924206E0,-3.712615967E-1,1.622467041E-1,7.491912842E-1
8.868898571E0,-3.755950928E-1,1.887817383E-1,7.521362305E-1
8.873872936E0,-3.934478760E-1,1.871643066E-1,7.562561035E-1
8.878847301E0,-4.223480225E-1,1.567382812E-1,7.544097900E-1
8.883821666E0,-4.589843750E-1,1.023712158E-1,7.437438965E-1
8.888796032E0,-4.927215576E-1,2.423095703E-2,7.245025635E-1
8.893770397E0,-5.161590576E-1,-6.930541992E-2,6.837615967E-1
8.898744762E0,-5.170288086E-1,-1.638641357E-1,6.237335205E-1
8.903719127E0,-4.860229492E-1,-2.227630615E-1,5.374450684E-1
8.908693493E0,-4.214019775E-1,-2.357482910E-1,4.325408936E-1
8.913667858E0,-3.244476318E-1,-2.048339844E-1,3.135375977E-1
8.918642223E0,-2.076873779E-1,-1.465606689E-1,1.804046631E-1
8.923616588E0,-7.975769043E-2,-9.461975098E-2,4.141235352E-2
8.928590954E0,4.875183105E-2,-7.252502441E-2,-8.906555176E-2
8.933565319E0,1.691436768E-1,-9.614562988E-2,-2.043457031E-1
8.938539684E0,2.826843262E-1,-1.701202393E-1,-2.989349365E-1
8.943514049E0,3.891296387E-1,-2.856445312E-1,-3.619842529E-1
8.948488415E0,4.897308350E-1,-4.215850830E-1,-3.928070068E-1
8.953462780E0,5.861816406E-1,-5.586090088E-1,-3.952026367E-1
8.958437145E0,6.783294678E-1,-6.846008301E-1,-3.680877686E-1
8.963411510E0,7.653656006E-1,-7.941589355E-1,-3.141784668E-1
8.968385875E0,8.318634033E-1,-8.433990479E-1,-2.517547607E-1
8.973360241E0,8.632354736E-1,-7.952880859E-1,-1.911010742E-1
8.978334606E0,8.492431641E-1,-6.653289795E-1,-1.380767822E-1
8.983308971E0,7.824249268E-1,-5.102844238E-1,-8.444213867E-2
8.988283336E0,6.590576172E-1,-3.745574951E-1,-2.847290039E-2
8.993257702E0,4.822082520E-1,-2.613067627E-1,7.812500000E-3
8.998232067E0,2.610778809E-1,-2.103424072E-1,3.297424316E-2
9.003206432E0,2.713012695E-2,-2.669219971E-1,4.855346680E-2
9.008180797E0,-1.738128662E-1,-4.155731201E-1,3.753662109E-2
9.013155163E0,-3.136291504E-1,-5.942077637E-1,1.144409180E-3
9.018129528E0,-3.756713867E-1,-7.352752686E-1,-6.326293945E-2
9.023103893E0,-3.551788330E-1,-7.590332031E-1,-1.634826660E-1
9.028078258E0,-2.681427002E-1,-6.883392334E-1,-3.088684082E-1
9.033052624E0,-1.409149170E-1,-5.804901123E-1,-4.996490479E-1
9.038026989E0,-2.410888672E-3,-4.833221436E-1,-7.408142090E-1
9.043001354E0,1.190338135E-1,-4.119567871E-1,-9.864044189E-1
9.047975719E0,1.990966797E-1,-4.034576416E-1,-1.192199707E0
9.052950084E0,2.050170898E-1,-5.011138916E-1,-1.327682495E0
9.057924450E0,1.169433594E-1,-6.499938965E-1,-1.371063232E0
9.062898815E0,-5.601501465E-2,-7.285308838E-1,-1.312179565E0
9.067873180E0,-2.736053467E-1,-7.093353271E-1,-1.150512695E0
9.072847545E0,-4.891815186E-1,-6.221313477E-1,-9.297332764E-1
9.077821911E0,-6.605529785E-1,-5.082397461E-1,-7.008819580E-1
9.082796276E0,-7.710113525E-1,-3.974456787E-1,-4.845123291E-1
9.087770641E0,-8.231048584E-1,-2.993164062E-1,-3.046722412E-1
9.092745006E0,-8.214874268E-1,-2.032775879E-1,-1.776123047E-1
9.097719372E0,-7.852172852E-1,-9.733581543E-2,-9.625244141E-2
9.102693737E0,-7.355957031E-1,1.553344727E-2,-4.344177246E-2
9.107668102E0,-6.886901855E-1,1.221466064E-1,-7.781982422E-4
9.112642467E0,-6.553802490E-1,1.903991699E-1,4.953002930E-2
9.117616833E0,-6.507568359E-1,2.014312744E-1,1.195983887E-1
9.122591198E0,-6.845550537E-1,1.695404053E-1,1.996765137E-1
9.127565563E0,-7.504577637E-1,1.004180908E-1,2.711029053E-1
9.132539928E0,-8.393402100E-1,-1.286315918E-2,3.278350830E-1
9.137514293E0,-9.330902100E-1,-1.479797363E-1,3.697052002E-1
9.142488659E0,-1.009399414E0,-2.685546875E-1,4.051361084E-1
9.147463024E0,-1.049301147E0,-3.318176270E-1,4.330291748E-1
9.152437389E0,-1.034149170E0,-2.498321533E-1,4.002990723E-1
9.157411754E0,-1.014282227E0,-1.315155029E-1,2.536010742E-1
9.162386120E0,-1.010559082E0,9.185791016E-3,7.424926758E-2
9.167360485E0,-9.759368896E-1,2.896423340E-1,-1.911926270E-2
9.172334850E0,-8.772583008E-1,7.108917236E-1,1.129150391E-3
9.177309215E0,-7.752685547E-1,1.092605591E0,6.219482422E-2
9.182283581E0,-7.077178955E-1,1.332489014E0,1.247406006E-1
9.187257946E0,-6.819610596E-1,1.430877686E0,1.591949463E-1
9.192232311E0,-6.822204590E-1,1.431549072E0,1.421203613E-1
9.197206676E0,-7.039947510E-1,1.377410889E0,9.175109863E-2
9.202181041E0,-7.428741455E-1,1.272720337E0,4.722595215E-2
9.207155407E0,-7.853240967E-1,1.146514893E0,1.828002930E-2
9.212129772E0,-8.193511963E-1,1.068878174E0,-9.292602539E-3
9.217104137E0,-8.324127197E-1,1.092254639E0,-3.520202637E-2
9.222078502E0,-7.959747314E-1,1.222351074E0,-4.228210449E-2
9.227052868E0,-6.895294189E-1,1.436462402E0,-2.052307129E-2
9.232027233E0,-5.385589600E-1,1.658615112E0,3.570556641E-3
9.237001598E0,-3.659973145E-1,1.833480835E0,7.847595215E-2
9.241975963E0,-1.103210449E-1,2.030609131E0,2.822570801E-1
9.246950329E0,2.100219727E-1,2.235214233E0,6.013336182E-1
9.251924694E0,4.955139160E-1,2.350280762E0,9.512481689E-1
9.256899059E0,6.914672852E-1,2.372680664E0,1.272720337E0
9.261873424E0,7.538604736E-1,2.399734497E0,1.529342651E0
9.266847790E0,6.161193848E-1,2.575744629E0,1.703643799E0
9.271822155E0,3.231201172E-1,2.895462036E0,1.793762207E0
9.276796520E0,-1.644897461E-2,3.242050171E0,1.811920166E0
9.281770885E0,-3.080291748E-1,3.540557861E0,1.781234741E0
9.286745250E0,-4.900817871E-1,3.755157471E0,1.716278076E0
9.291719616E0,-5.713958740E-1,3.846145630E0,1.640472412E0
9.296693981E0,-5.860900879E-1,3.789230347E0,1.584320068E0
9.301668346E0,-5.693054199E-1,3.626312256E0,1.533523560E0
9.306642711E0,-5.646667480E-1,3.424682617E0,1.460510254E0
9.311617077E0,-5.915985107E-1,3.261703491E0,1.362121582E0
9.316591442E0,-6.483154297E-1,3.174041748E0,1.248001099E0
9.321565807E0,-7.323150635E-1,3.122955322E0,1.128234863E0
9.326540172E0,-8.348236084E-1,3.053375244E0,1.012207031E0
9.331514538E0,-9.361114502E-1,2.943710327E0,8.921966553E-1
9.336488903E0,-1.020111084E0,2.809158325E0,7.643280029E-1
9.341463268E0,-1.077636719E0,2.683242798E0,6.530609131E-1
9.346437633E0,-1.110229492E0,2.574676514E0,5.970001221E-1
9.351411999E0,-1.128265381E0,2.454544067E0,5.783843994E-1
9.356386364E0,-1.150726318E0,2.302474976E0,5.474243164E-1
9.361360729E0,-1.180236816E0,2.142196655E0,5.067596436E-1
9.366335094E0,-1.220962524E0,2.005416870E0,4.828643799E-1
9.371309459E0,-1.267257690E0,1.888931274E0,4.711761475E-1
9.376283825E0,-1.311569214E0,1.785659790E0,4.526824951E-1
9.381258190E0,-1.342330933E0,1.705490112E0,4.369964600E-1
9.386232555E0,-1.356613159E0,1.649475098E0,4.365539551E-1
9.391206920E0,-1.349990845E0,1.614196777E0,4.383850098E-1
9.396181286E0,-1.329345703E0,1.583953857E0,4.462127686E-1
9.401155651E0,-1.307434082E0,1.534973145E0,4.604644775E-1
9.406130016E0,-1.291732788E0,1.459671021E0,4.718475342E-1
9.411104381E0,-1.272933960E0,1.379486084E0,4.872894287E-1
9.416078747E0,-1.245529175E0,1.307220459E0,4.963684082E-1
9.421053112E0,-1.220520020E0,1.230758667E0,4.917449951E-1
9.426027477E0,-1.201492310E0,1.142379761E0,4.613800049E-1
9.431001842E0,-1.184814453E0,1.050613403E0,4.165344238E-1
9.435976208E0,-1.164779663E0,9.737396240E-1,3.757476807E-1
9.440950573E0,-1.138427734E0,9.303741455E-1,3.479919434E-1
9.445924938E0,-1.107986450E0,9.122161865E-1,3.234710693E-1
9.450899303E0,-1.081558228E0,9.079742432E-1,2.973480225E-1
9.455873668E0,-1.059600830E0,9.048309326E-1,2.731475830E-1
9.460848034E0,-1.040145874E0,9.120788574E-1,2.491607666E-1
9.465822399E0,-1.019897461E0,9.334411621E-1,2.278747559E-1
9.470796764E0,-9.986724854E-1,9.661102295E-1,2.050018311E-1
9.475771129E0,-9.739990234E-1,9.992523193E-1,1.785888672E-1
9.480745495E0,-9.452667236E-1,1.021865845E0,1.517486572E-1
9.485719860E0,-9.069061279E-1,1.029098511E0,1.251525879E-1
9.490694225E0,-8.551788330E-1,1.029479980E0,9.526062012E-2
9.495668590E0,-7.855224609E-1,1.031311035E0,6.146240234E-2
9.500642956E0,-7.017669678E-1,1.040542603E0,2.285766602E-2
9.505617321E0,-6.121520996E-1,1.058105469E0,-2.503967285E-2
9.510591686E0,-5.267333984E-1,1.078475952E0,-8.349609375E-2
9.515566051E0,-4.490509033E-1,1.107086182E0,-1.453704834E-1
9.520540416E0,-3.816680908E-1,1.159759521E0,-2.063598633E-1
9.525514782E0,-3.307495117E-1,1.227264404E0,-2.646789551E-1
9.530489147E0,-2.970428467E-1,1.291168213E0,-3.147583008E-1
9.535463512E0,-2.797546387E-1,1.334945679E0,-3.563690186E-1
9.540437877E0,-2.794647217E-1,1.335006714E0,-3.935546875E-1
9.545412243E0,-2.880706787E-1,1.300140381E0,-4.247131348E-1
9.550386608E0,-2.976074219E-1,1.243179321E0,-4.493103027E-1
9.555360973E0,-2.980041504E-1,1.164398193E0,-4.675598145E-1
9.560335338E0,-2.930145264E-1,1.058837891E0,-4.782714844E-1
9.565309704E0,-2.820281982E-1,9.379425049E-1,-4.812469482E-1
9.570284069E0,-2.553100586E-1,8.261871338E-1,-4.776458740E-1
9.575258434E0,-2.101135254E-1,7.379760742E-1,-4.727020264E-1
9.580232799E0,-1.529541016E-1,6.738739014E-1,-4.723358154E-1
9.585207165E0,-8.752441406E-2,6.250457764E-1,-4.879150391E-1
9.590181530E0,-1.373291016E-2,5.656738281E-1,-5.153198242E-1
9.595155895E0,6.945800781E-2,4.915618896E-1,-5.550384521E-1
9.600130260E0,1.711273193E-1,4.105682373E-1,-6.032409668E-1
9.605104625E0,2.999267578E-1,3.250427246E-1,-6.501464844E-1
9.610078991E0,4.535522461E-1,2.259674072E-1,-6.852874756E-1
9.615053356E0,6.255950928E-1,1.106872559E-1,-7.095184326E-1
9.620027721E0,8.093109131E-1,-3.372192383E-3,-7.253265381E-1
9.625002086E0,9.964904785E-1,-1.119842529E-1,-7.468109131E-1
9.629976452E0,1.178970337E0,-2.477416992E-1,-7.757720947E-1
9.634950817E0,1.355422974E0,-4.197998047E-1,-8.233642578E-1
9.639925182E0,1.531234741E0,-6.059570312E-1,-8.921356201E-1
9.644899547E0,1.702163696E0,-7.913360596E-1,-9.857330322E-1
9.649873913E0,1.856552124E0,-9.687042236E-1,-1.099792480E0
9.654848278E0,1.992355347E0,-1.123519897E0,-1.234420776E0
9.659822643E0,2.108734131E0,-1.251815796E0,-1.380722046E0
9.664797008E0,2.206207275E0,-1.364349365E0,-1.534652710E0
9.669771374E0,2.277984619E0,-1.448501587E0,-1.706695557E0
9.674745739E0,2.310424805E0,-1.501861572E0,-1.911239624E0
9.679720104E0,2.297729492E0,-1.531219482E0,-2.138671875E0
9.684694469E0,2.246383667E0,-1.533996582E0,-2.365478516E0
9.689668834E0,2.158767700E0,-1.519866943E0,-2.567810059E0
9.694643200E0,2.030914307E0,-1.532608032E0,-2.724868774E0
9.699617565E0,1.858322144E0,-1.602767944E0,-2.823791504E0
9.704591930E0,1.659744263E0,-1.707504272E0,-2.822692871E0
9.709566295E0,1.496429443E0,-1.749664307E0,-2.648193359E0
9.714540661E0,1.423553467E0,-1.693191528E0,-2.268600464E0
9.719515026E0,1.437896729E0,-1.557373047E0,-1.714279175E0
9.724489391E0,1.488449097E0,-1.354598999E0,-1.045761108E0
9.729463756E0,1.525527954E0,-1.130157471E0,-3.783874512E-1
9.734438122E0,1.549957275E0,-9.750061035E-1,9.556579590E-2
9.739412487E0,1.619949341E0,-9.795227051E-1,2.938079834E-1
9.744386852E0,1.781784058E0,-1.125885010E0,3.226928711E-1
9.749361217E0,2.020797729E0,-1.372558594E0,3.017883301E-1
9.754335583E0,2.285324097E0,-1.688949585E0,2.894287109E-1
9.759309948E0,2.539474487E0,-2.014602661E0,2.860107422E-1
9.764284313E0,2.734802246E0,-2.284332275E0,2.682495117E-1
9.769258678E0,2.835739136E0,-2.459213257E0,2.430419922E-1
9.774233043E0,2.839157104E0,-2.526184082E0,2.351837158E-1
9.779207409E0,2.768722534E0,-2.503982544E0,2.480163574E-1
9.784181774E0,2.642501831E0,-2.486419678E0,2.673492432E-1
9.789156139E0,2.484146118E0,-2.508407593E0,2.627716064E-1
9.794130504E0,2.305160522E0,-2.539672852E0,2.217712402E-1
9.799104870E0,2.122726440E0,-2.532928467E0,1.710968018E-1
9.804079235E0,1.961059570E0,-2.443008423E0,1.277465820E-1
9.809053600E0,1.820495605E0,-2.249511719E0,7.913208008E-2
9.814027965E0,1.689056396E0,-1.950500488E0,3.347778320E-2
9.819002331E0,1.559463501E0,-1.568710327E0,8.239746094E-4
9.823976696E0,1.421081543E0,-1.154861450E0,-9.068298340E-2
9.828951061E0,1.268371582E0,-7.510223389E-1,-2.390594482E-1
9.833925426E0,1.120391846E0,-3.739624023E-1,-3.250427246E-1
9.838899791E0,1.005722046E0,-8.981323242E-2,-3.545532227E-1
9.843874157E0,9.269561768E-1,8.348083496E-2,-3.599700928E-1
9.848848522E0,8.571472168E-1,1.347351074E-1,-3.593597412E-1
9.853822887E0,7.862091064E-1,4.676818848E-2,-3.450775146E-1
9.858797252E0,7.260894775E-1,-1.044769287E-1,-3.252105713E-1
9.863771618E0,6.783294678E-1,-2.564697266E-1,-3.083038330E-1
9.868745983E0,6.383361816E-1,-3.949890137E-1,-2.809753418E-1
9.873720348E0,6.053009033E-1,-5.080413818E-1,-2.451629639E-1
9.878694713E0,5.767517090E-1,-5.768280029E-1,-2.240447998E-1
9.883669079E0,5.399780273E-1,-6.033935547E-1,-2.305603027E-1
9.888643444E0,4.872894287E-1,-5.961761475E-1,-2.551574707E-1
9.893617809E0,4.237060547E-1,-5.758056641E-1,-2.794342041E-1
9.898592174E0,3.536376953E-1,-5.713958740E-1,-2.856597900E-1
9.903566540E0,2.827148438E-1,-5.848846436E-1,-2.714233398E-1
9.908540905E0,2.158813477E-1,-6.034240723E-1,-2.457733154E-1
9.913515270E0,1.550750732E-1,-6.256713867E-1,-2.219390869E-1
9.918489635E0,9.822082520E-2,-6.477661133E-1,-1.985626221E-1
9.923464000E0,4.426574707E-2,-6.559753418E-1,-1.780090332E-1
9.928438366E0,-4.608154297E-3,-6.394042969E-1,-1.489105225E-1
9.933412731E0,-4.570007324E-2,-6.018676758E-1,-1.019897461E-1
9.938387096E0,-7.742309570E-2,-5.564270020E-1,-5.076599121E-2
9.943361461E0,-1.000671387E-1,-5.132751465E-1,-1.425170898E-2
9.948335827E0,-1.203918457E-1,-4.704437256E-1,2.029418945E-2
9.953310192E0,-1.438293457E-1,-4.154052734E-1,5.871582031E-2
9.958284557E0,-1.670379639E-1,-3.451232910E-1,1.016082764E-1
9.963258922E0,-1.806793213E-1,-2.600402832E-1,1.495819092E-1
9.968233288E0,-1.919860840E-1,-1.815643311E-1,1.983947754E-1
9.973207653E0,-2.013549805E-1,-8.935546875E-2,2.497253418E-1
9.978182018E0,-2.076416016E-1,9.140014648E-3,3.099975586E-1
9.983156383E0,-2.145996094E-1,9.843444824E-2,3.725738525E-1
9.988130749E0,-2.224426270E-1,1.684570312E-1,4.344635010E-1
9.993105114E0,-2.338256836E-1,2.184906006E-1,4.953765869E-1
9.998079479E0,-2.521667480E-1,2.476043701E-1,5.546569824E-1
1.000305384E1,-2.861175537E-1,2.614440918E-1,6.138305664E-1
1.000802821E1,-3.281555176E-1,2.560729980E-1,6.781311035E-1
1.001300258E1,-3.781433105E-1,2.366790771E-1,7.463378906E-1
1.001797694E1,-4.299011230E-1,2.036285400E-1,8.132934570E-1
1.002295131E1,-4.840545654E-1,1.594238281E-1,8.751831055E-1
1.002792567E1,-5.449066162E-1,1.108245850E-1,9.311981201E-1
1.003290004E1,-6.068725586E-1,6.048583984E-2,9.825134277E-1
1.003787440E1,-6.601257324E-1,8.743286133E-3,1.026367188E0
1.004284877E1,-6.983795166E-1,-3.981018066E-2,1.066146851E0
1.004782313E1,-7.222290039E-1,-8.354187012E-2,1.101425171E0
1.005279750E1,-7.358856201E-1,-1.320037842E-1,1.122406006E0
1.005777186E1,-7.440643311E-1,-1.955718994E-1,1.126724243E0
