"Time (s)","Acceleration x (m/s^2)","Acceleration y (m/s^2)","Acceleration z (m/s^2)"
0.000000000E0,1.848371625E0,3.353041172E0,7.954878807E0
9.058610000E-4,1.888948441E0,3.343521833E0,7.984270096E0
2.879299000E-3,2.015065670E0,3.299554586E0,8.192401886E0
4.879299000E-3,2.028386831E0,3.293607473E0,8.248388290E0
6.880861000E-3,2.031470537E0,3.292228460E0,8.261307716E0
8.879299000E-3,2.033338070E0,3.291395187E0,8.269179344E0
1.089179900E-2,2.034477711E0,3.290887594E0,8.273977280E0
1.289179900E-2,2.051189184E0,3.282172918E0,8.323614120E0
1.488086100E-2,2.080982685E0,3.267903328E0,8.409633636E0
1.688554900E-2,2.126242638E0,3.248002768E0,8.562948227E0
1.887929900E-2,2.156294584E0,3.224922657E0,8.723628044E0
2.087929900E-2,2.176367760E0,3.190695047E0,8.875257492E0
2.287929900E-2,2.183492661E0,3.174347639E0,8.990159988E0
2.487929900E-2,2.184891224E0,3.150453329E0,9.086541176E0
2.687929900E-2,2.156103134E0,3.111102343E0,9.170980453E0
2.887929900E-2,2.126147032E0,3.092944622E0,9.224648476E0
3.089023600E-2,2.084966660E0,3.071138144E0,9.276851654E0
3.287929900E-2,2.044696093E0,3.053086042E0,9.321383476E0
3.487929900E-2,1.996199250E0,3.040837049E0,9.358149529E0
3.687929900E-2,1.926757812E0,3.024652481E0,9.351483345E0
3.887929900E-2,1.872591257E0,3.013141155E0,9.340470314E0
4.087929900E-2,1.816768169E0,2.993604422E0,9.317715645E0
4.287929900E-2,1.754480600E0,2.986010075E0,9.296110153E0
4.487929900E-2,1.697738051E0,2.953994989E0,9.264957428E0
4.687929900E-2,1.633056283E0,2.919996977E0,9.199911118E0
4.888086100E-2,1.572329760E0,2.901130915E0,9.154383659E0
5.087929900E-2,1.519618988E0,2.881105661E0,9.105101585E0
5.287929900E-2,1.479166508E0,2.850076914E0,9.065865517E0
5.488086100E-2,1.450282812E0,2.845164061E0,9.039882660E0
5.687929900E-2,1.415892601E0,2.851044178E0,9.027826309E0
5.887929900E-2,1.395570517E0,2.874392271E0,8.997476578E0
6.087929900E-2,1.357866645E0,2.888106346E0,8.978390694E0
6.288711100E-2,1.329548120E0,2.898018360E0,8.957943916E0
6.487929900E-2,1.301526308E0,2.913321972E0,8.927634239E0
6.687929900E-2,1.273006558E0,2.919595003E0,8.893520355E0
6.887929900E-2,1.250462770E0,2.910248041E0,8.882833481E0
7.087929900E-2,1.229901314E0,2.878816843E0,8.873648643E0
7.287929900E-2,1.216187358E0,2.853543758E0,8.862693787E0
7.487929900E-2,1.201908469E0,2.810572624E0,8.838779449E0
7.687929900E-2,1.178885698E0,2.743592262E0,8.815891266E0
7.887929900E-2,1.190837622E0,2.674265862E0,8.745702744E0
8.087929900E-2,1.123761773E0,2.665263653E0,8.656370163E0
8.287929900E-2,9.781750441E-1,2.762104273E0,8.615716934E0
8.487929900E-2,8.001805544E-1,2.912833691E0,8.591879845E0
8.687929900E-2,5.520741343E-1,3.138099432E0,8.592071533E0
8.887929900E-2,3.981940746E-1,3.303701401E0,8.588566780E0
9.087929900E-2,2.476370633E-1,3.458395481E0,8.592971802E0
9.287929900E-2,1.297561526E-1,3.578718424E0,8.610507011E0
9.487929900E-2,5.223190412E-2,3.653877497E0,8.626969337E0
9.687929900E-2,-5.765237845E-3,3.715982914E0,8.631777763E0
9.888086100E-2,-1.500685606E-2,3.740691185E0,8.632044792E0
1.008808610E-1,-2.401863039E-2,3.725674868E0,8.613428116E0
1.028808610E-1,-1.500685606E-2,3.686486244E0,8.604645729E0
1.048871110E-1,1.484405063E-2,3.650228739E0,8.575149536E0
1.069402360E-1,8.333737403E-2,3.585048914E0,8.575609207E0
1.088792990E-1,1.147876084E-1,3.536685944E0,8.579995155E0
1.108792990E-1,1.628823280E-1,3.482155800E0,8.583845139E0
1.128792990E-1,2.000690699E-1,3.437470198E0,8.600978851E0
1.148792990E-1,2.159474194E-1,3.384414911E0,8.641114235E0
1.168792990E-1,2.376771867E-1,3.331225157E0,8.694160461E0
1.188792990E-1,2.554230094E-1,3.298979998E0,8.791700363E0
1.208824240E-1,2.646263242E-1,3.272959948E0,8.865201950E0
1.228792990E-1,2.559784651E-1,3.247035503E0,8.953491211E0
1.248808610E-1,2.533639967E-1,3.225142717E0,9.035132408E0
1.268808610E-1,2.419484407E-1,3.202081919E0,9.127118111E0
1.288824240E-1,2.364800870E-1,3.178283691E0,9.242586136E0
1.308792990E-1,2.326781005E-1,3.181262016E0,9.333335876E0
1.328792990E-1,2.322662920E-1,3.180725574E0,9.427533150E0
1.348792990E-1,2.199122161E-1,3.175688267E0,9.522899628E0
1.368792990E-1,2.166177928E-1,3.183139086E0,9.602903366E0
1.388792990E-1,2.351297587E-1,3.187190056E0,9.709656715E0
1.408792990E-1,2.312032580E-1,3.199802637E0,9.794487000E0
1.428792990E-1,2.459419668E-1,3.212856054E0,9.873199463E0
1.448792990E-1,2.584588528E-1,3.221053600E0,9.952294350E0
1.468792990E-1,2.828892767E-1,3.234767675E0,1.003663635E1
1.488792990E-1,3.108631670E-1,3.233216047E0,1.013314247E1
1.508792990E-1,3.516699076E-1,3.231099606E0,1.018855381E1
1.528792990E-1,3.968341351E-1,3.247083426E0,1.023667812E1
1.548792990E-1,4.382442534E-1,3.241241455E0,1.028675461E1
1.568792990E-1,4.901793003E-1,3.230371714E0,1.033701324E1
1.588808610E-1,5.487510562E-1,3.221503735E0,1.040193462E1
1.609058610E-1,6.044592857E-1,3.200032473E0,1.044607449E1
1.628792990E-1,7.624574304E-1,3.150271416E0,1.058004379E1
1.648792990E-1,7.841106653E-1,3.134948492E0,1.061182022E1
1.668792990E-1,8.023065925E-1,3.128666162E0,1.062001801E1
1.688808610E-1,8.082824945E-1,3.122307062E0,1.064695740E1
1.708792990E-1,8.145456910E-1,3.120851517E0,1.065738678E1
1.728792990E-1,8.283267021E-1,3.123073339E0,1.067197132E1
1.748808610E-1,8.294568062E-1,3.129125834E0,1.067789078E1
1.769058610E-1,8.324447870E-1,3.124643803E0,1.067701912E1
1.789011740E-1,8.442338109E-1,3.123379946E0,1.066995144E1
1.808824240E-1,8.462162614E-1,3.116340876E0,1.066425323E1
1.828792990E-1,8.482752442E-1,3.105930805E0,1.063490009E1
1.849027360E-1,8.536957502E-1,3.094869614E0,1.059403610E1
1.868808610E-1,8.594896793E-1,3.093615055E0,1.055192661E1
1.888808610E-1,8.728014231E-1,3.080207586E0,1.049220562E1
1.908886740E-1,8.659253120E-1,3.072977066E0,1.044179440E1
1.928871110E-1,8.501522541E-1,3.068868637E0,1.038294411E1
1.948886740E-1,8.398668170E-1,3.059780359E0,1.033159256E1
1.968792990E-1,8.258271813E-1,3.056207895E0,1.026715183E1
1.988792990E-1,8.127357364E-1,3.055154562E0,1.019723988E1
2.008808610E-1,7.865144014E-1,3.059291840E0,1.013959789E1
2.028808610E-1,7.700135708E-1,3.064434528E0,1.006768513E1
2.048792990E-1,7.559548616E-1,3.060527086E0,1.000132751E1
2.068902360E-1,7.389943004E-1,3.044217825E0,9.932833672E0
2.088808610E-1,7.121409178E-1,3.033980131E0,9.829634666E0
2.109027360E-1,7.010797262E-1,3.023311853E0,9.749591827E0
2.128933610E-1,6.890129447E-1,3.006322622E0,9.660527229E0
2.148792990E-1,6.774058342E-1,2.989428997E0,9.560009003E0
2.168808610E-1,6.782677770E-1,2.961302042E0,9.399157524E0
2.188933610E-1,6.794648170E-1,2.937819481E0,9.286524773E0
2.208824240E-1,6.815525889E-1,2.937790871E0,9.188764572E0
2.228792990E-1,6.721864343E-1,2.929631233E0,9.096664429E0
2.248792990E-1,6.655306220E-1,2.917334795E0,9.002955437E0
2.268902360E-1,6.621595621E-1,2.930655956E0,8.900521278E0
2.288839860E-1,6.712862253E-1,2.942741871E0,8.785571098E0
2.308792990E-1,6.639312506E-1,2.944015980E0,8.693548203E0
2.328808610E-1,6.331130862E-1,2.938327074E0,8.609175682E0
2.348886740E-1,5.940588713E-1,2.935042143E0,8.539102554E0
2.368792990E-1,5.494788885E-1,2.934783697E0,8.465639114E0
2.389121110E-1,4.976683259E-1,2.938279390E0,8.403591156E0
2.409121110E-1,4.463174939E-1,2.933749437E0,8.366154671E0
2.429089860E-1,3.881671429E-1,2.928348064E0,8.321393013E0
2.448808610E-1,3.262722194E-1,2.925379276E0,8.297757149E0
2.468792990E-1,2.633621693E-1,2.922467947E0,8.271659851E0
2.488792990E-1,2.010842115E-1,2.922678709E0,8.257668495E0
2.508886740E-1,1.456728131E-1,2.929784775E0,8.251827240E0
2.528792990E-1,8.239884675E-2,2.931163549E0,8.233708382E0
2.549167990E-1,3.746446967E-2,2.947358131E0,8.243064880E0
2.568808610E-1,2.710236236E-3,2.962374449E0,8.260838509E0
2.588808610E-1,-2.934333682E-2,2.981470585E0,8.286906242E0
2.608792990E-1,-3.532884270E-2,3.008860350E0,8.321881294E0
2.628824240E-1,-3.340390325E-2,3.023484230E0,8.365818977E0
2.648808610E-1,-1.943134144E-2,3.046822786E0,8.398476601E0
2.668792990E-1,-9.864111198E-4,3.074595451E0,8.429141998E0
2.688964860E-1,3.196737915E-2,3.100663662E0,8.461894989E0
2.709214860E-1,8.725428581E-2,3.117681742E0,8.514719963E0
2.728792990E-1,1.546462774E-1,3.143146276E0,8.581930161E0
2.748808610E-1,2.279663086E-1,3.147494078E0,8.643336296E0
2.768792990E-1,2.664746344E-1,3.151640892E0,8.695568085E0
2.788886740E-1,3.356670737E-1,3.144056082E0,8.765545845E0
2.808792990E-1,3.992666602E-1,3.111686468E0,8.808373451E0
2.828792990E-1,4.613147974E-1,3.055882215E0,8.860527992E0
2.848808610E-1,5.159791708E-1,3.010009527E0,8.895607948E0
2.869214860E-1,5.615552664E-1,2.940252066E0,8.940159798E0
2.888792990E-1,6.144096255E-1,2.839245558E0,9.006192207E0
2.908964860E-1,6.275777221E-1,2.751033545E0,9.060310364E0
2.928839860E-1,6.415407062E-1,2.666920424E0,9.109218597E0
2.949214860E-1,6.409277916E-1,2.581294298E0,9.161575317E0
2.968808610E-1,6.366469860E-1,2.467646122E0,9.272627831E0
2.988808610E-1,6.261699200E-1,2.379654646E0,9.374985695E0
3.008792990E-1,6.071025133E-1,2.273773432E0,9.486793518E0
3.028792990E-1,5.730090737E-1,2.180332422E0,9.609579086E0
3.048792990E-1,5.158163905E-1,2.080982685E0,9.742371559E0
3.068871110E-1,4.456854165E-1,1.977926612E0,9.868516922E0
3.088792990E-1,3.536714911E-1,1.852652431E0,1.001628590E1
3.108824240E-1,2.578746676E-1,1.757085443E0,1.010990906E1
3.128792990E-1,1.617139578E-1,1.669706702E0,1.019222164E1
3.148792990E-1,5.293101072E-2,1.590688467E0,1.025909710E1
3.168792990E-1,-4.028004780E-2,1.528831959E0,1.030579281E1
3.188839860E-1,-1.272853464E-1,1.472529769E0,1.034784508E1
3.208792990E-1,-2.470433116E-1,1.412387490E0,1.039898491E1
3.228933610E-1,-3.226234615E-1,1.386214137E0,1.042720795E1
3.249011740E-1,-4.019098580E-1,1.378945351E0,1.044349766E1
3.268808610E-1,-4.530308545E-1,1.372509599E0,1.045478916E1
3.288980490E-1,-4.800182879E-1,1.372327685E0,1.043078041E1
3.308792990E-1,-4.873541296E-1,1.406756401E0,1.036342716E1
3.328855490E-1,-4.916349351E-1,1.504861116E0,9.953606606E0
3.348792990E-1,-5.074750185E-1,1.581331968E0,9.712739944E0
3.369089860E-1,-4.966436028E-1,1.622196198E0,9.541459084E0
3.388792990E-1,-4.752586186E-1,1.694749951E0,9.330375671E0
3.408917990E-1,-4.644080698E-1,1.737232804E0,9.215128899E0
3.428792990E-1,-4.526765049E-1,1.789675236E0,9.056135178E0
3.448792990E-1,-4.491522610E-1,1.821690559E0,8.963623047E0
3.468792990E-1,-4.489127994E-1,1.875742078E0,8.820047379E0
3.488792990E-1,-4.638909400E-1,1.931048274E0,8.658228874E0
3.508792990E-1,-4.640058577E-1,1.997875094E0,8.525628090E0
3.528824240E-1,-4.576373100E-1,2.073244572E0,8.398907661E0
3.548792990E-1,-4.473326504E-1,2.156084061E0,8.289262772E0
3.568871110E-1,-4.575702548E-1,2.221263647E0,8.174082756E0
3.588792990E-1,-4.605677724E-1,2.291739464E0,8.067731857E0
3.608792990E-1,-4.925256073E-1,2.375986576E0,7.961362362E0
3.628792990E-1,-5.280268192E-1,2.475441694E0,7.850214005E0
3.648808610E-1,-5.906974673E-1,2.607477188E0,7.764596939E0
3.668792990E-1,-6.623319983E-1,2.707075834E0,7.664462090E0
3.688808610E-1,-7.266593575E-1,2.783125401E0,7.555707932E0
3.709152360E-1,-8.150724769E-1,2.862402201E0,7.454978943E0
3.729292990E-1,-9.291226268E-1,2.920054674E0,7.322579384E0
3.748792990E-1,-1.027888298E0,2.941219330E0,7.232174873E0
3.769011740E-1,-1.132045627E0,2.950614214E0,7.146605968E0
3.788933610E-1,-1.235139847E0,2.942473888E0,7.072807312E0
3.808808610E-1,-1.328350902E0,2.914835215E0,7.028820992E0
3.829011740E-1,-1.427413464E0,2.890902758E0,6.991730213E0
3.848933610E-1,-1.520327687E0,2.866108418E0,6.973160267E0
3.868808610E-1,-1.618011117E0,2.827389479E0,6.970718384E0
3.888792990E-1,-1.710532546E0,2.795307159E0,6.986060143E0
3.909042990E-1,-1.832857132E0,2.733249426E0,7.020211220E0
3.929214860E-1,-1.926298141E0,2.699404955E0,7.068564415E0
3.948792990E-1,-2.022861004E0,2.666594744E0,7.124818802E0
3.968808610E-1,-2.139602184E0,2.626726627E0,7.209774494E0
3.988886740E-1,-2.237017632E0,2.589013100E0,7.286427021E0
4.008839860E-1,-2.310251474E0,2.550638914E0,7.365359306E0
4.028839860E-1,-2.377901793E0,2.503951788E0,7.445737362E0
4.048839860E-1,-2.443263769E0,2.443139076E0,7.534897327E0
4.068808610E-1,-2.485449553E0,2.379367113E0,7.624986172E0
4.088933610E-1,-2.514773607E0,2.317232847E0,7.709396362E0
4.108824240E-1,-2.543006182E0,2.279509783E0,7.776788712E0
4.128808610E-1,-2.577099562E0,2.247063637E0,7.855978966E0
4.148808610E-1,-2.613251925E0,2.226636171E0,7.915843964E0
4.168792990E-1,-2.634723186E0,2.207415819E0,7.966371059E0
4.188792990E-1,-2.660561562E0,2.182927847E0,8.017587662E0
4.208792990E-1,-2.666633129E0,2.149619579E0,8.071572304E0
4.229105490E-1,-2.674093485E0,2.117728710E0,8.119446754E0
4.248839860E-1,-2.692576647E0,2.091900110E0,8.178487778E0
4.268792990E-1,-2.712467670E0,2.071214437E0,8.250093460E0
4.288980490E-1,-2.732224703E0,2.051476479E0,8.335010529E0
4.309105490E-1,-2.746034384E0,2.037389040E0,8.419708252E0
4.328808610E-1,-2.779639482E0,2.026442766E0,8.557183266E0
4.349011740E-1,-2.808762550E0,2.018800497E0,8.673799515E0
4.369027360E-1,-2.829793215E0,1.996122599E0,8.776520729E0
4.388871110E-1,-2.837713242E0,1.980742216E0,8.879509926E0
4.408933610E-1,-2.866194487E0,1.947309613E0,8.966122627E0
4.428792990E-1,-2.895643234E0,1.908906579E0,9.012311935E0
4.448792990E-1,-2.932580948E0,1.882474661E0,9.065606117E0
4.468792990E-1,-2.998699188E0,1.864901066E0,9.089040756E0
4.488792990E-1,-3.041488409E0,1.868291378E0,9.087173462E0
4.508792990E-1,-3.153795719E0,1.896035433E0,9.073861122E0
4.528855490E-1,-3.245981932E0,1.949339867E0,9.049316406E0
4.548917990E-1,-3.336061478E0,1.997482419E0,9.017338753E0
4.568792990E-1,-3.408222675E0,2.071654797E0,8.966956139E0
4.588808610E-1,-3.466267824E0,2.165057421E0,8.901344299E0
4.608917990E-1,-3.508070469E0,2.259714603E0,8.840781212E0
4.628855490E-1,-3.486656666E0,2.387833118E0,8.734900475E0
4.648996110E-1,-3.445974588E0,2.493561029E0,8.644753456E0
4.668792990E-1,-3.383322954E0,2.582520008E0,8.553314209E0
4.688792990E-1,-3.293731928E0,2.670071363E0,8.470120430E0
4.709152360E-1,-3.190273762E0,2.753964186E0,8.377493858E0
4.728792990E-1,-3.039850712E0,2.856119871E0,8.257581711E0
4.748792990E-1,-2.914375544E0,2.949167967E0,8.155426979E0
4.768855490E-1,-2.785797358E0,3.032984257E0,8.054534912E0
4.788792990E-1,-2.653924704E0,3.100404978E0,7.961477280E0
4.808792990E-1,-2.536991835E0,3.154552221E0,7.863975525E0
4.828871110E-1,-2.444853544E0,3.193654299E0,7.779259205E0
4.848808610E-1,-2.420825243E0,3.223591566E0,7.713658333E0
4.868792990E-1,-2.368248463E0,3.244382858E0,7.622506142E0
4.888824240E-1,-2.253164053E0,3.205472231E0,7.482598782E0
4.909074240E-1,-2.123733759E0,3.106974602E0,7.337433338E0
4.928792990E-1,-1.794789314E0,2.451691151E0,6.992716312E0
4.948792990E-1,-1.644605875E0,2.225602150E0,6.980342865E0
4.968792990E-1,-1.534970522E0,2.147349834E0,6.992208481E0
4.988792990E-1,-1.410328507E0,2.117546797E0,7.033398628E0
5.008980490E-1,-1.273945212E0,2.140177011E0,7.085094452E0
5.028839860E-1,-1.088250875E0,2.225458145E0,7.170145512E0
5.048839860E-1,-9.660125375E-1,2.299898863E0,7.261125565E0
5.068808610E-1,-8.957570195E-1,2.348903418E0,7.315617085E0
5.088792990E-1,-7.996824980E-1,2.434864759E0,7.431899071E0
5.108792990E-1,-7.046040297E-1,2.499594450E0,7.567190647E0
5.128886740E-1,-6.453619003E-1,2.533994436E0,7.687983036E0
5.148792990E-1,-6.057043076E-1,2.548398018E0,7.822728634E0
5.168792990E-1,-5.763992667E-1,2.533620834E0,7.940571308E0
5.188792990E-1,-5.605209470E-1,2.474484205E0,8.089231491E0
5.208824240E-1,-5.502353907E-1,2.406670570E0,8.168278694E0
5.228792990E-1,-5.200780630E-1,2.323792934E0,8.257726669E0
5.248808610E-1,-4.692156315E-1,2.236423731E0,8.326554298E0
5.268996110E-1,-3.981940746E-1,2.148891926E0,8.382205009E0
5.288996110E-1,-2.928108871E-1,2.052165985E0,8.436151505E0
5.308855490E-1,-1.853399426E-1,1.943900228E0,8.437884331E0
5.329027360E-1,-5.474102870E-2,1.845661402E0,8.451311111E0
5.348855490E-1,1.390552372E-1,1.725328684E0,8.449836731E0
5.368792990E-1,3.024834394E-1,1.644203663E0,8.439101219E0
5.388808610E-1,4.602996409E-1,1.577654362E0,8.412611961E0
5.408808610E-1,6.067194343E-1,1.509027004E0,8.371297836E0
5.428839860E-1,7.577074170E-1,1.449660420E0,8.299212456E0
5.449152360E-1,9.632926583E-1,1.382776022E0,8.231437683E0
5.468933610E-1,1.115736365E0,1.346355319E0,8.169217110E0
5.488871110E-1,1.248145223E0,1.323390245E0,8.116104126E0
5.509042990E-1,1.358527422E0,1.309963465E0,8.066314697E0
5.528808610E-1,1.472443581E0,1.300252676E0,8.010998726E0
5.549402360E-1,1.558328390E0,1.302091479E0,7.948606014E0
5.568886740E-1,1.637681842E0,1.310653090E0,7.871886253E0
5.588808610E-1,1.694730878E0,1.330850601E0,7.784526348E0
5.608792990E-1,1.736102700E0,1.387066364E0,7.676289558E0
5.628808610E-1,1.742844701E0,1.480229616E0,7.568894863E0
5.648902360E-1,1.652669549E0,1.702622175E0,7.486170769E0
5.668886740E-1,1.328753233E0,2.250041962E0,7.540624619E0
5.688808610E-1,1.125581264E0,2.476016283E0,7.629458904E0
5.708824240E-1,1.262242317E0,2.455981731E0,7.332664013E0
5.728808610E-1,1.588840127E0,2.444508553E0,6.792858124E0
5.748792990E-1,2.286941290E0,2.324558973E0,6.408684254E0
5.769089860E-1,3.186596155E0,2.076711416E0,6.233754158E0
5.788808610E-1,4.159437180E0,1.691618443E0,6.319399357E0
5.808949240E-1,5.204754829E0,1.264511943E0,6.718340874E0
5.828855490E-1,6.195801258E0,8.032259345E-1,7.452757359E0
5.848792990E-1,7.264936924E0,4.177019894E-1,8.583088875E0
5.868808610E-1,8.303483963E0,1.682549119E-1,1.002128506E1
5.888808610E-1,9.062360764E0,1.008533537E-1,1.159903622E1
5.908792990E-1,8.895503044E0,6.783635020E-1,1.355403519E1
5.928792990E-1,8.544484138E0,1.425383210E0,1.533234310E1
5.948792990E-1,8.478442192E0,1.922247052E0,1.641252136E1
5.968824240E-1,8.462881088E0,2.263928413E0,1.686726570E1
5.988792990E-1,8.385845184E0,2.424263239E0,1.680811882E1
6.008871110E-1,8.036138535E0,2.407599688E0,1.608774185E1
6.028902360E-1,7.563742638E0,2.256870270E0,1.523480415E1
6.048933610E-1,6.945368767E0,1.986277580E0,1.427005482E1
6.068792990E-1,6.208308697E0,1.519580722E0,1.336910725E1
6.088855490E-1,5.406634331E0,9.227731824E-1,1.252877140E1
6.108792990E-1,4.480240822E0,2.685623765E-1,1.189356995E1
6.128886740E-1,3.234241009E0,-4.336473942E-1,1.203349686E1
6.148980490E-1,1.561163187E0,-1.139276147E0,1.323114395E1
6.168792990E-1,-9.033514261E-1,-1.848860025E0,1.617578316E1
6.188886740E-1,-3.677982092E0,-2.519648075E0,1.958552742E1
6.208917990E-1,-5.207848072E0,-3.023177624E0,2.033624458E1
6.229167990E-1,-5.137487888E0,-3.352964640E0,1.812070656E1
6.248871110E-1,-4.134738445E0,-3.608560085E0,1.490380001E1
6.268792990E-1,-2.915591717E0,-3.756971598E0,1.198133183E1
6.288808610E-1,-1.948717356E0,-3.816874743E0,9.716886520E0
6.308792990E-1,-1.515433908E0,-3.749856234E0,8.151567459E0
6.328792990E-1,-1.667044282E0,-3.556318283E0,7.193561077E0
6.348792990E-1,-2.294047356E0,-3.293703318E0,6.830494404E0
6.368808610E-1,-3.152723074E0,-3.031921148E0,7.027575493E0
6.388792990E-1,-3.927276134E0,-2.805458546E0,7.546121597E0
6.408855490E-1,-4.394605160E0,-2.643275499E0,8.145064354E0
6.428808610E-1,-4.379741669E0,-2.549326897E0,8.554655075E0
6.449246110E-1,-3.957845211E0,-2.522846937E0,8.731328011E0
6.468839860E-1,-3.113065481E0,-2.528478146E0,8.726913452E0
6.488792990E-1,-2.449622631E0,-2.545390844E0,8.683463097E0
6.509152360E-1,-1.875540972E0,-2.552803278E0,8.631825447E0
6.529246110E-1,-1.427346468E0,-2.540056467E0,8.598210335E0
6.549277360E-1,-1.072544932E0,-2.484501362E0,8.638557434E0
6.568855490E-1,-7.557728887E-1,-2.389863491E0,8.691938400E0
6.588792990E-1,-5.854493380E-1,-2.302302837E0,8.741594315E0
6.609292990E-1,-4.477827549E-1,-2.209168196E0,8.788482666E0
6.628792990E-1,-3.430124819E-1,-2.130092621E0,8.877517700E0
6.648792990E-1,-3.370269835E-1,-1.790546894E0,9.306176186E0
6.668792990E-1,-3.515933156E-1,-1.713329077E0,9.545643806E0
6.688808610E-1,-3.785520196E-1,-1.692365408E0,9.689861298E0
6.708792990E-1,-3.957423866E-1,-1.687711000E0,9.870718956E0
6.728839860E-1,-3.734571636E-1,-1.704049110E0,1.003853321E1
6.748792990E-1,-3.011618257E-1,-1.709067345E0,1.021917057E1
6.768792990E-1,-1.893621981E-1,-1.710245371E0,1.040788174E1
6.788792990E-1,-2.457408793E-2,-1.701808095E0,1.061799717E1
6.808917990E-1,1.680633873E-1,-1.691455603E0,1.079077244E1
6.828808610E-1,2.835596502E-1,-1.670233369E0,1.093557358E1
6.848933610E-1,1.487756968E-1,-1.633630872E0,1.081552792E1
6.868855490E-1,-3.722504899E-2,-1.602889299E0,1.056038284E1
6.888808610E-1,-4.123773053E-2,-1.532413602E0,1.012685013E1
6.908871110E-1,-2.976854444E-1,-1.462818980E0,9.726166725E0
6.928792990E-1,-6.425750256E-1,-1.393827677E0,9.516425133E0
6.948792990E-1,-1.020724773E0,-1.339776158E0,9.401034355E0
6.968824240E-1,-1.477902293E0,-1.335945487E0,9.267888069E0
6.988855490E-1,-1.863790274E0,-1.431905031E0,9.214285851E0
7.008839860E-1,-2.043508768E0,-1.503089309E0,9.335231781E0
7.028808610E-1,-2.181969881E0,-1.533467054E0,9.567938805E0
7.049292990E-1,-2.183109522E0,-1.533323407E0,9.715430260E0
7.068824240E-1,-1.931938887E0,-1.499019265E0,9.860040665E0
7.088917990E-1,-1.400378227E0,-1.436693311E0,9.874272346E0
7.108808610E-1,-7.383335233E-1,-1.331693292E0,9.829931259E0
7.128824240E-1,-7.490978390E-2,-1.205547571E0,9.791278839E0
7.148808610E-1,4.771165252E-1,-1.005286932E0,9.817730904E0
7.168792990E-1,6.199258566E-1,-2.621459365E-1,1.015666294E1
7.189121110E-1,6.539809704E-1,4.841267467E-1,1.074076271E1
7.208886740E-1,8.267465830E-1,8.346091509E-1,1.103791142E1
7.228808610E-1,1.080972552E0,1.023147702E0,1.119676208E1
7.248824240E-1,1.363651156E0,1.117412210E0,1.112187099E1
7.268917990E-1,1.655379772E0,1.168370485E0,1.094180870E1
7.288980490E-1,1.912938476E0,1.178081274E0,1.070583630E1
7.308792990E-1,2.104350090E0,1.143001437E0,1.060332489E1
7.329042990E-1,2.195904255E0,1.085291624E0,1.055897522E1
7.348792990E-1,2.192743778E0,9.895331264E-1,1.069113541E1
7.368871110E-1,2.109224558E0,8.737112284E-1,1.087994194E1
7.388808610E-1,1.891802311E0,6.984843612E-1,1.126349354E1
7.408792990E-1,1.666498423E0,5.504269600E-1,1.160392952E1
7.428824240E-1,1.403021336E0,4.019194245E-1,1.202120972E1
7.448792990E-1,1.121348262E0,2.108908743E-1,1.245720387E1
7.468808610E-1,8.523645401E-1,-5.114014726E-3,1.280275345E1
7.488824240E-1,6.116227508E-1,-2.616192102E-1,1.309583282E1
7.508792990E-1,4.236970842E-1,-5.185362101E-1,1.322605896E1
7.528871110E-1,2.951954901E-1,-7.819175124E-1,1.322577190E1
7.548792990E-1,2.326110601E-1,-1.041985393E0,1.297788429E1
7.568792990E-1,2.225458324E-1,-1.334393978E0,1.239506912E1
7.588792990E-1,3.244813681E-1,-1.730691791E0,1.133860493E1
7.608902360E-1,4.102704227E-1,-1.857622862E0,1.109542942E1
7.628792990E-1,4.435976744E-1,-1.884571910E0,1.151660824E1
7.648792990E-1,4.283514023E-1,-1.877245784E0,1.219182110E1
7.668792990E-1,4.412418008E-1,-1.843066096E0,1.283422375E1
7.689261740E-1,5.241386294E-1,-1.826316118E0,1.289899158E1
7.708792990E-1,6.816387773E-1,-1.780395389E0,1.272266293E1
7.728792990E-1,8.684056997E-1,-1.730940819E0,1.236694241E1
7.748839860E-1,1.088231683E0,-1.701539993E0,1.180884457E1
7.768886740E-1,1.353135705E0,-1.640736818E0,1.126140499E1
7.788949240E-1,1.644222736E0,-1.575652838E0,1.080089569E1
7.808980490E-1,1.907288074E0,-1.517732263E0,1.044348812E1
7.828855490E-1,2.205931187E0,-1.540802836E0,9.871072769E0
7.848886740E-1,2.807220697E0,-1.666239858E0,9.340863228E0
7.868808610E-1,3.377251148E0,-1.858465552E0,8.979731560E0
7.888855490E-1,3.732100725E0,-2.000920534E0,8.817069054E0
7.909308610E-1,3.775359154E0,-1.803944826E0,8.905653954E0
7.928792990E-1,3.558741570E0,-1.161197424E0,9.309383392E0
7.948808610E-1,2.924498320E0,-7.714788318E-1,1.006876755E1
7.968792990E-1,2.352829933E0,-4.769249856E-1,1.087399483E1
7.988792990E-1,2.021759748E0,-2.619543970E-1,1.144637203E1
8.008902360E-1,1.384969115E0,8.710105717E-2,1.223238850E1
8.028808610E-1,1.035597563E0,1.971577108E-1,1.238848019E1
8.048808610E-1,7.994239330E-1,2.512283921E-1,1.207449532E1
8.068792990E-1,7.279331088E-1,2.737913132E-1,1.151735592E1
8.088808610E-1,7.096701264E-1,2.747777402E-1,1.083592701E1
8.108824240E-1,7.485998273E-1,2.354170680E-1,1.007100868E1
8.128808610E-1,7.460715175E-1,2.048766315E-1,9.739113808E0
8.148949240E-1,7.435624599E-1,1.663491428E-1,9.576902390E0
8.168917990E-1,7.807970643E-1,7.887458056E-2,9.603199959E0
8.188808610E-1,8.402786255E-1,-3.419877589E-2,9.811601639E0
8.208808610E-1,9.208099842E-1,-1.561306715E-1,1.007045269E1
8.228792990E-1,1.010410547E0,-3.384730816E-1,1.027072239E1
8.248792990E-1,1.129172564E0,-1.099790931E0,1.048869133E1
8.269121110E-1,1.007460952E0,-1.366878510E0,1.054668808E1
8.288808610E-1,8.787103295E-1,-1.540429354E0,1.057493973E1
8.309199240E-1,8.148713112E-1,-1.656538606E0,1.049694633E1
8.328808610E-1,8.152735829E-1,-1.734953523E0,1.043835545E1
8.348949240E-1,8.399912715E-1,-1.789694428E0,1.039199448E1
8.368792990E-1,8.685492873E-1,-1.830664039E0,1.048396015E1
8.388886740E-1,9.127462506E-1,-1.864853263E0,1.068559074E1
8.408808610E-1,9.345526695E-1,-1.891160727E0,1.103310394E1
8.428808610E-1,9.121621251E-1,-1.920140147E0,1.152929783E1
8.448808610E-1,8.266124725E-1,-1.940950513E0,1.209249020E1
8.468808610E-1,6.796755195E-1,-1.976499677E0,1.275868130E1
8.489339860E-1,3.724898994E-1,-2.034774542E0,1.345094109E1
8.508996110E-1,1.994274259E-1,-2.068226337E0,1.373681831E1
8.528917990E-1,-6.517975032E-2,-2.114846230E0,1.396255398E1
8.548792990E-1,-2.407226115E-1,-2.146267891E0,1.402871037E1
8.568808610E-1,-3.162069917E-1,-2.174614906E0,1.391711140E1
8.588808610E-1,-2.796331644E-1,-2.206668615E0,1.363364792E1
8.608808610E-1,-1.385955513E-1,-2.217509508E0,1.317948627E1
8.628808610E-1,4.639962688E-2,-2.200338364E0,1.254634476E1
8.648886740E-1,1.942368001E-1,-2.154120922E0,1.192322063E1
8.668855490E-1,3.056725264E-1,-2.037896633E0,1.122384453E1
8.688792990E-1,3.025792241E-1,-1.910735726E0,1.094586945E1
8.708792990E-1,2.521094382E-1,-1.816164851E0,1.080800056E1
8.728792990E-1,1.380496621E-1,-1.664152145E0,1.067932701E1
8.749027360E-1,2.509123413E-3,-1.515452981E0,1.060076809E1
8.768792990E-1,-1.816145629E-1,-1.376608491E0,1.052114773E1
8.788855490E-1,-3.887417316E-1,-1.245722294E0,1.047181606E1
8.808855490E-1,-5.787934661E-1,-1.128262758E0,1.035643578E1
8.828933610E-1,-7.277320027E-1,-1.023243427E0,1.029598618E1
8.848839860E-1,-8.846287727E-1,-8.945599198E-1,1.028164101E1
8.868808610E-1,-9.939001203E-1,-7.841872573E-1,1.025719166E1
8.888886740E-1,-1.071501017E0,-6.756054163E-1,1.022160339E1
8.908855490E-1,-1.176539421E0,-5.847215056E-1,1.024672318E1
8.929324240E-1,-1.303470492E0,-4.955614209E-1,1.027813530E1
8.948855490E-1,-1.434950471E0,-4.026664197E-1,1.024911785E1
8.968871110E-1,-1.510626316E0,-3.438456655E-1,1.026196003E1
8.988792990E-1,-1.612379909E0,-2.620501816E-1,1.029962635E1
9.008839860E-1,-1.707640409E0,-1.919958144E-1,1.035841751E1
9.028792990E-1,-1.812803388E0,-1.393138170E-1,1.037243843E1
9.048808610E-1,-1.912622452E0,-8.288726211E-2,1.038668823E1
9.068792990E-1,-1.994829655E0,-4.272213206E-2,1.038286686E1
9.088792990E-1,-2.067067623E0,-1.125274785E-2,1.033948421E1
9.108792990E-1,-2.113687515E0,3.093308769E-3,1.028031921E1
9.128792990E-1,-2.127324820E0,3.782838583E-3,1.019622421E1
9.148792990E-1,-2.170171499E0,-4.347870126E-3,1.011110687E1
9.168808610E-1,-2.235638380E0,-4.308605194E-2,9.993091583E0
9.188902360E-1,-2.293999434E0,-9.431239218E-2,9.904477119E0
9.208808610E-1,-2.335783243E0,-1.362875402E-1,9.819617271E0
9.228792990E-1,-2.378495932E0,-1.729379743E-1,9.773121834E0
9.248792990E-1,-2.382728815E0,-2.020323128E-1,9.699457169E0
9.268808610E-1,-2.366610765E0,-1.927907020E-1,9.651218414E0
9.288792990E-1,-2.378428698E0,-1.748916507E-1,9.579124451E0
9.308808610E-1,-2.369848013E0,-1.426273733E-1,9.530684471E0
9.328824240E-1,-2.373295307E0,-8.559749275E-2,9.499819756E0
9.348808610E-1,-2.408700943E0,-3.014778718E-2,9.496074677E0
9.368792990E-1,-2.489012241E0,4.619851708E-2,9.523186684E0
9.388839860E-1,-2.563519478E0,1.111963019E-1,9.551265717E0
9.408792990E-1,-2.684972763E0,1.799481958E-1,9.608266830E0
9.428808610E-1,-2.845164061E0,2.485372871E-1,9.703517914E0
9.448792990E-1,-2.955546141E0,3.067068160E-1,9.801689148E0
9.468792990E-1,-3.029900551E0,3.834649324E-1,9.883332253E0
9.488824240E-1,-3.121234655E0,4.520061314E-1,9.963719368E0
9.509011740E-1,-3.219128609E0,5.394136310E-1,1.005014992E1
9.528839860E-1,-3.341376781E0,6.264093518E-1,1.007951260E1
9.548792990E-1,-3.461106062E0,7.100340724E-1,1.008506775E1
9.568839860E-1,-3.539741039E0,7.637503743E-1,1.007659149E1
9.588792990E-1,-3.623020887E0,8.393688202E-1,1.006976414E1
9.609105490E-1,-3.772112608E0,9.488125443E-1,1.005241966E1
9.629339860E-1,-3.990578890E0,1.115448952E0,1.000259209E1
9.648980490E-1,-4.127192020E0,1.245865941E0,9.925201416E0
9.668792990E-1,-4.222461700E0,1.361247301E0,9.795560837E0
9.688917990E-1,-4.268775463E0,1.452859044E0,9.683760643E0
9.708792990E-1,-4.243540764E0,1.556278944E0,9.498181343E0
9.728964860E-1,-4.174597263E0,1.580307245E0,9.397317886E0
9.748808610E-1,-4.020314693E0,1.637059331E0,9.233813286E0
9.769339860E-1,-3.938758850E0,1.660369277E0,9.138859749E0
9.788792990E-1,-3.897482634E0,1.683736682E0,9.008997917E0
9.809027360E-1,-3.866903782E0,1.686667204E0,8.886826515E0
9.828792990E-1,-4.000845432E0,1.671497583E0,8.609951019E0
9.848792990E-1,-4.090388298E0,1.662131429E0,8.492147446E0
9.869074240E-1,-4.131683826E0,1.648838878E0,8.397116661E0
9.888964860E-1,-4.192630291E0,1.651242495E0,8.240785599E0
9.908855490E-1,-4.204476357E0,1.653675199E0,8.118086815E0
9.928792990E-1,-4.175373077E0,1.644481301E0,7.968879700E0
9.948792990E-1,-4.130151272E0,1.640899658E0,7.811264992E0
9.968792990E-1,-4.060546875E0,1.622387648E0,7.658783436E0
9.988964860E-1,-3.968877792E0,1.602180719E0,7.550258636E0
1.000883986E0,-3.886517048E0,1.569207668E0,7.455017567E0
1.002879299E0,-3.794350147E0,1.532442212E0,7.372828960E0
1.004879299E0,-3.712851286E0,1.487594128E0,7.315809250E0
1.006879299E0,-3.654605150E0,1.447007537E0,7.273498535E0
1.008880861E0,-3.622159004E0,1.405530572E0,7.275815964E0
1.010879299E0,-3.615043402E0,1.375516772E0,7.282587051E0
1.012890236E0,-3.619266748E0,1.363651156E0,7.311058521E0
1.014893361E0,-3.601702929E0,1.361371875E0,7.319649220E0
1.016880861E0,-3.600505829E0,1.370153785E0,7.263260841E0
1.018879299E0,-3.632147789E0,1.400550485E0,7.190707207E0
1.020879299E0,-3.697825432E0,1.427174091E0,7.141539574E0
1.022879299E0,-3.820159435E0,1.452887774E0,7.111181259E0
1.024887111E0,-3.938030720E0,1.455004215E0,7.093904972E0
1.026880861E0,-4.055931091E0,1.457417607E0,7.117655277E0
1.028880861E0,-4.184614182E0,1.412253380E0,7.123439312E0
1.030935549E0,-4.293062210E0,1.359810829E0,7.130306244E0
1.032923049E0,-4.345409393E0,1.312328935E0,7.138350487E0
1.034888674E0,-4.367771149E0,1.301813602E0,7.164533615E0
1.036879299E0,-4.363145351E0,1.324462771E0,7.269409180E0
1.038883986E0,-4.339892387E0,1.380056143E0,7.512286663E0
1.040904299E0,-4.317502499E0,1.445494533E0,7.894554615E0
1.042891799E0,-4.303903103E0,1.493627548E0,8.359881401E0
1.044882424E0,-4.280679226E0,1.509343028E0,8.893568039E0
1.046879299E0,-4.273238182E0,1.486722708E0,9.392329216E0
1.048880861E0,-4.266955853E0,1.420958757E0,9.748796463E0
1.050879299E0,-4.235668659E0,1.327824235E0,9.927834511E0
1.052879299E0,-4.182402134E0,1.220401287E0,9.917022705E0
1.054887111E0,-4.115910530E0,1.095529318E0,9.792112350E0
1.056880861E0,-4.099256516E0,9.889680743E-1,9.572765350E0
1.058879299E0,-4.188607693E0,9.202641249E-1,9.280232430E0
1.060882424E0,-4.368192196E0,8.831156492E-1,8.977910995E0
1.062898049E0,-4.637626171E0,8.591161966E-1,8.709061623E0
1.064883986E0,-4.943720341E0,8.398476839E-1,8.488441467E0
1.066880861E0,-5.214753628E0,8.188265562E-1,8.340929985E0
1.068933986E0,-5.400610447E0,8.176773787E-1,8.284579277E0
1.070899611E0,-5.500965595E0,8.191425800E-1,8.257113457E0
1.072893361E0,-5.461997509E0,8.456990719E-1,8.300199509E0
1.074918361E0,-5.349805355E0,8.809225559E-1,8.356530190E0
1.076887111E0,-5.160624981E0,9.328671694E-1,8.395852089E0
1.078879299E0,-4.992293358E0,9.851374030E-1,8.444425583E0
1.080880861E0,-4.776001453E0,1.044504046E0,8.460916519E0
1.082921486E0,-4.642970085E0,1.079622149E0,8.494024277E0
1.084882424E0,-4.555744648E0,1.099340796E0,8.534926414E0
1.086879299E0,-4.496195793E0,1.119528651E0,8.574545860E0
1.088883986E0,-4.503799915E0,1.150519252E0,8.613466263E0
1.090879299E0,-4.540105343E0,1.184871197E0,8.668581009E0
1.092880861E0,-4.570876122E0,1.236595631E0,8.735368729E0
1.094879299E0,-4.598773003E0,1.316044807E0,8.844899178E0
1.096890236E0,-4.625492096E0,1.408173680E0,8.968095779E0
1.098880861E0,-4.662908554E0,1.498368025E0,9.032432556E0
1.100879299E0,-4.666749001E0,1.587374926E0,9.070489883E0
1.102879299E0,-4.612658978E0,1.674696207E0,9.080766678E0
1.104879299E0,-4.510005951E0,1.744549394E0,9.091291428E0
1.106880861E0,-4.411661625E0,1.807153106E0,9.089768410E0
1.108880861E0,-4.295446873E0,1.859260321E0,9.077424049E0
1.110916799E0,-4.224683762E0,1.900737524E0,9.069800377E0
1.112899611E0,-4.181827545E0,1.934016943E0,9.070232391E0
1.114893361E0,-4.192055702E0,1.982102156E0,9.070625305E0
1.116879299E0,-4.296605587E0,2.089984894E0,9.118546486E0
1.118879299E0,-4.386225700E0,2.180294275E0,9.194146156E0
1.120885549E0,-4.442738056E0,2.299745560E0,9.285528183E0
1.122880861E0,-4.491225719E0,2.437077045E0,9.366059303E0
1.124880861E0,-4.524476051E0,2.556030512E0,9.410592079E0
1.126879299E0,-4.549251556E0,2.696867228E0,9.432014465E0
1.128882424E0,-4.515205860E0,2.790241003E0,9.398428917E0
1.130904299E0,-4.450916290E0,2.844579935E0,9.362199783E0
1.132932424E0,-4.332614422E0,2.856263399E0,9.290297508E0
1.134896486E0,-4.214925289E0,2.818933010E0,9.228422165E0
1.136891799E0,-4.067088127E0,2.739895821E0,9.205274582E0
1.138880861E0,-3.835051537E0,2.579273462E0,9.234168053E0
1.140879299E0,-3.686792850E0,2.433322906E0,9.280931473E0
1.142930861E0,-3.555303335E0,2.270794868E0,9.323174477E0
1.144879299E0,-3.462360382E0,2.110364199E0,9.394272804E0
1.146880861E0,-3.406019926E0,1.890183926E0,9.472467422E0
1.148879299E0,-3.404650688E0,1.792136550E0,9.485214233E0
1.150879299E0,-3.408653736E0,1.610828519E0,9.478319168E0
1.152882424E0,-3.441779852E0,1.373658776E0,9.351177216E0
1.154879299E0,-3.417550564E0,1.342831135E0,9.268252373E0
1.156880861E0,-3.374770880E0,1.332363605E0,9.187710762E0
1.158885549E0,-3.281062126E0,1.299170375E0,9.083428383E0
1.160891799E0,-3.210308313E0,1.292399645E0,9.042775154E0
1.162896486E0,-3.140866995E0,1.276636243E0,9.037594795E0
1.164883986E0,-3.105854273E0,1.236959457E0,9.112111092E0
1.166888674E0,-3.039697409E0,1.173503518E0,9.124197006E0
1.168924611E0,-2.987331629E0,1.105307102E0,9.072502136E0
1.170879299E0,-2.954090595E0,1.003888845E0,8.995599747E0
1.172879299E0,-2.942799568E0,9.123249650E-1,8.893645287E0
1.174890236E0,-2.961531639E0,8.243427873E-1,8.759655952E0
1.176879299E0,-3.038184643E0,7.002752423E-1,8.530091286E0
1.178896486E0,-3.117499590E0,5.987802744E-1,8.355084419E0
1.180932424E0,-3.230391026E0,4.971416295E-1,8.173842430E0
1.182880861E0,-3.353701830E0,3.954838216E-1,7.998692989E0
1.184882424E0,-3.476217985E0,3.076357841E-1,7.838262081E0
1.186879299E0,-3.589693546E0,1.985846758E-1,7.699158669E0
1.188880861E0,-3.727781773E0,5.406107381E-2,7.576585293E0
1.190879299E0,-3.822208881E0,-7.824251056E-2,7.504098415E0
1.192882424E0,-3.940664530E0,-8.507078141E-2,7.578242302E0
1.194887111E0,-4.412609577E0,2.283110768E-1,7.887314320E0
1.196880861E0,-4.696782112E0,2.360682786E-1,8.069120407E0
1.198879299E0,-4.755478382E0,1.705629379E-2,8.113412857E0
1.200879299E0,-4.699684143E0,-3.132094741E-1,8.103338242E0
1.202879299E0,-4.573978424E0,-6.649368405E-1,8.030832291E0
1.204879299E0,-4.426754475E0,-1.049503088E0,7.878475189E0
1.206887111E0,-4.260261536E0,-1.462378383E0,7.660429955E0
1.208882424E0,-4.093539238E0,-1.892645121E0,7.387022018E0
1.210918361E0,-3.912546873E0,-2.292840719E0,7.139490128E0
1.212891799E0,-3.694483042E0,-2.587634087E0,6.948701382E0
1.214888674E0,-3.463653326E0,-2.769746542E0,6.879834652E0
1.216894924E0,-3.233149052E0,-2.865830898E0,6.881079197E0
1.218894924E0,-2.923980951E0,-2.849693775E0,6.966820240E0
1.220918361E0,-2.720033407E0,-2.778873205E0,7.086578846E0
1.222893361E0,-2.602171659E0,-2.713444471E0,7.189874172E0
1.224879299E0,-2.463738918E0,-2.613740444E0,7.381879330E0
1.226879299E0,-2.366850376E0,-2.508883953E0,7.599703789E0
1.228888674E0,-2.318152428E0,-2.433045149E0,7.832793236E0
1.230880861E0,-2.318458796E0,-2.380698442E0,8.070757866E0
1.232899611E0,-2.382240295E0,-2.335821629E0,8.385366440E0
1.234890236E0,-2.468958139E0,-2.336846113E0,8.604866028E0
1.236885549E0,-2.556193352E0,-2.365681887E0,8.798614502E0
1.238879299E0,-2.650189638E0,-2.403529644E0,8.953988075E0
1.240879299E0,-2.720914602E0,-2.459620953E0,9.054881096E0
1.242880861E0,-2.765063524E0,-2.508912563E0,9.117569923E0
1.244883986E0,-2.793861151E0,-2.589740992E0,9.193716049E0
1.246880861E0,-2.814872503E0,-2.667169333E0,9.234120369E0
1.248893361E0,-2.807718754E0,-2.759212255E0,9.249462128E0
1.250923049E0,-2.796494722E0,-2.833508968E0,9.228986740E0
1.252879299E0,-2.794205904E0,-2.889265060E0,9.198111534E0
1.254880861E0,-2.803274870E0,-2.931393623E0,9.143360138E0
1.256890236E0,-2.825177193E0,-2.942904711E0,9.075959206E0
1.258883986E0,-2.888431787E0,-2.941180944E0,8.991462708E0
1.260880861E0,-2.992464781E0,-2.922075272E0,8.900061607E0
1.262879299E0,-3.140531778E0,-2.896361589E0,8.797839165E0
1.264882424E0,-3.323946714E0,-2.882245302E0,8.683492661E0
1.266907424E0,-3.529886484E0,-2.892999887E0,8.545059204E0
1.268879299E0,-3.759806395E0,-2.909328699E0,8.386390686E0
1.270880861E0,-4.091757774E0,-2.949005365E0,8.154574394E0
1.272893361E0,-4.336282253E0,-3.023283005E0,7.958259106E0
1.274893361E0,-4.601579189E0,-3.094457865E0,7.755633354E0
1.276882424E0,-4.856791496E0,-3.179375172E0,7.536190510E0
1.278879299E0,-5.104207993E0,-3.279242277E0,7.306452274E0
1.280879299E0,-5.436915874E0,-3.392746687E0,7.012205124E0
1.282932424E0,-5.665619850E0,-3.459765196E0,6.787839413E0
1.284883986E0,-5.886633396E0,-3.526027203E0,6.569421291E0
1.286885549E0,-6.095168591E0,-3.600936651E0,6.383410931E0
1.288891799E0,-6.294087887E0,-3.654385090E0,6.210233212E0
1.290879299E0,-6.539598942E0,-3.704433441E0,6.029279709E0
1.292879299E0,-6.710602760E0,-3.711769342E0,5.924327850E0
1.294879299E0,-6.883521557E0,-3.702843428E0,5.855814934E0
1.296882424E0,-7.058691025E0,-3.674113274E0,5.807595730E0
1.298880861E0,-7.231178761E0,-3.626851559E0,5.756829262E0
1.300883986E0,-7.417629242E0,-3.548733711E0,5.734275818E0
1.302879299E0,-7.644935131E0,-3.430508137E0,5.719508171E0
1.304879299E0,-7.812108040E0,-3.309179544E0,5.739782810E0
1.306879299E0,-7.962300777E0,-3.176818371E0,5.764079094E0
1.308880861E0,-8.185536385E0,-2.989103317E0,5.803382397E0
1.310879299E0,-8.362295151E0,-2.852748871E0,5.853411198E0
1.312879299E0,-8.558446884E0,-2.707698584E0,5.926932812E0
1.314879299E0,-9.114390373E0,-2.377155066E0,6.138235569E0
1.316890236E0,-9.345230103E0,-2.280659199E0,6.230488777E0
1.318880861E0,-9.499330521E0,-2.240522623E0,6.294336796E0
1.320879299E0,-9.663678169E0,-2.179767370E0,6.359804153E0
1.322902736E0,-9.822346687E0,-2.102185726E0,6.427837849E0
1.324910549E0,-9.983408928E0,-2.021041393E0,6.500018120E0
1.326902736E0,-1.012161255E1,-1.921873569E0,6.568760872E0
1.328880861E0,-1.024831390E1,-1.837626457E0,6.619689941E0
1.330887111E0,-1.037069511E1,-1.769190550E0,6.667420864E0
1.332918361E0,-1.045342922E1,-1.725118041E0,6.705996037E0
1.334879299E0,-1.049853611E1,-1.709766507E0,6.704895020E0
1.336879299E0,-1.046684647E1,-1.728785992E0,6.677754402E0
1.338882424E0,-1.037157631E1,-1.753494143E0,6.608274460E0
1.340887111E0,-1.023343086E1,-1.796331167E0,6.533154011E0
1.342879299E0,-1.005417156E1,-1.844904780E0,6.459987164E0
1.344879299E0,-9.850358009E0,-1.877781987E0,6.401214123E0
1.346879299E0,-9.662384987E0,-1.927227020E0,6.360196590E0
1.348879299E0,-9.485913277E0,-1.970533371E0,6.321966171E0
1.350883986E0,-9.341849327E0,-1.997022867E0,6.271553516E0
1.352926174E0,-9.223011017E0,-2.023090839E0,6.213087559E0
1.354891799E0,-9.125910759E0,-2.020227432E0,6.125479221E0
1.356880861E0,-9.061709404E0,-2.000269175E0,6.022288799E0
1.358879299E0,-9.014724731E0,-1.986622453E0,5.894610882E0
1.360887111E0,-8.983656883E0,-1.970657825E0,5.769489765E0
1.362896486E0,-8.972002983E0,-1.967430472E0,5.637004375E0
1.364883986E0,-8.982556343E0,-1.978185177E0,5.519104004E0
1.366880861E0,-9.037632942E0,-2.010449409E0,5.356393814E0
1.368879299E0,-9.092920303E0,-2.034946918E0,5.234941483E0
1.370893361E0,-9.138073921E0,-2.060325384E0,5.157503128E0
1.372880861E0,-9.196013451E0,-2.103392363E0,5.029547215E0
1.374885549E0,-9.296388626E0,-2.149389982E0,4.861752033E0
1.376890236E0,-9.384322166E0,-2.201037645E0,4.749157906E0
1.378880861E0,-9.497875214E0,-2.269818068E0,4.614545822E0
1.380879299E0,-9.629718781E0,-2.355760574E0,4.504135132E0
1.382887111E0,-9.809878349E0,-2.450829268E0,4.412868023E0
1.384890236E0,-1.001661205E1,-2.531916142E0,4.316688061E0
1.386888674E0,-1.023312473E1,-2.595994711E0,4.207541466E0
1.388880861E0,-1.044820976E1,-2.637797356E0,4.074825764E0
1.390880861E0,-1.065848827E1,-2.682444334E0,3.928348541E0
1.392923049E0,-1.086147785E1,-2.694051504E0,3.777360916E0
1.394879299E0,-1.106153679E1,-2.704385042E0,3.654327631E0
1.396890236E0,-1.126657677E1,-2.700448751E0,3.545879602E0
1.398910549E0,-1.149306870E1,-2.689043045E0,3.457619905E0
1.400912111E0,-1.172157097E1,-2.654030085E0,3.398349047E0
1.402879299E0,-1.195359802E1,-2.618097782E0,3.366783857E0
1.404882424E0,-1.219137096E1,-2.572282553E0,3.371246576E0
1.406885549E0,-1.244225502E1,-2.495955229E0,3.401030540E0
1.408946486E0,-1.280240917E1,-2.338407278E0,3.496894360E0
1.410880861E0,-1.305601311E1,-2.163323879E0,3.592394352E0
1.412880861E0,-1.323454380E1,-2.019384623E0,3.671403170E0
1.414879299E0,-1.348857784E1,-1.781707406E0,3.774458885E0
1.416879299E0,-1.370451546E1,-1.505359173E0,3.875034571E0
1.418879299E0,-1.393548965E1,-1.118389010E0,4.015449524E0
1.420879299E0,-1.403944492E1,-8.428452015E-1,4.114301682E0
1.422896486E0,-1.408840275E1,-6.682025194E-1,4.186367035E0
1.424879299E0,-1.409187889E1,-3.471879959E-1,4.349450588E0
1.426879299E0,-1.401884556E1,-1.392084658E-1,4.509047985E0
1.428882424E0,-1.390119457E1,5.054638535E-2,4.689589977E0
1.430921486E0,-1.374021816E1,2.250453830E-1,4.905307770E0
1.432894924E0,-1.352565956E1,3.584790230E-1,5.128399372E0
1.434932424E0,-1.318791389E1,5.056554079E-1,5.459881306E0
1.436879299E0,-1.291656399E1,6.019118428E-1,5.710879803E0
1.438902736E0,-1.262410831E1,6.785742044E-1,5.961725235E0
1.440879299E0,-1.224957943E1,7.480922937E-1,6.299518108E0
1.442905861E0,-1.205079269E1,7.664893270E-1,6.452134132E0
1.444888674E0,-1.164972591E1,7.873380184E-1,6.735109806E0
1.446923049E0,-1.134386158E1,7.732026577E-1,6.924261093E0
1.448880861E0,-1.103968334E1,7.272818685E-1,7.080631256E0
1.450893361E0,-1.075652504E1,6.744275093E-1,7.220902920E0
1.452880861E0,-1.039181232E1,5.579351783E-1,7.372091770E0
1.454879299E0,-1.012034798E1,4.845289588E-1,7.463195801E0
1.456880861E0,-9.876905441E0,4.027334452E-1,7.529649258E0
1.458879299E0,-9.653076172E0,3.460291624E-1,7.603812218E0
1.460879299E0,-9.452882767E0,2.735423148E-1,7.682590961E0
1.462882424E0,-9.288592339E0,2.194525301E-1,7.736240387E0
1.464880861E0,-9.091559410E0,1.818539947E-1,7.777640820E0
1.466879299E0,-8.969148636E0,1.619438082E-1,7.801391125E0
1.468879299E0,-8.863133430E0,1.451652348E-1,7.790579319E0
1.470888674E0,-8.798557281E0,1.419474334E-1,7.774930477E0
1.472879299E0,-8.798547745E0,1.233588457E-1,7.741527081E0
1.474890236E0,-8.814637184E0,1.060344055E-1,7.713140965E0
1.476888674E0,-8.913823128E0,7.460332662E-2,7.649742603E0
1.478880861E0,-9.036646843E0,2.994667366E-2,7.568675041E0
1.480907424E0,-9.194127083E0,-2.981259860E-2,7.465676308E0
1.482879299E0,-9.966334343E0,-2.784360647E-1,6.909886360E0
1.484879299E0,-1.024977875E1,-3.677493930E-1,6.704511642E0
1.486879299E0,-1.044771194E1,-4.257369339E-1,6.560055256E0
1.488894924E0,-1.062112904E1,-4.983865917E-1,6.417178631E0
1.490882424E0,-1.078396320E1,-5.760353208E-1,6.276188850E0
1.492919924E0,-1.092431164E1,-6.636918783E-1,6.153357029E0
1.494887111E0,-1.105571461E1,-7.608869076E-1,6.040140152E0
1.496901174E0,-1.117546272E1,-8.534083962E-1,5.928608418E0
1.498883986E0,-1.128090286E1,-9.468876123E-1,5.821310043E0
1.500879299E0,-1.135796833E1,-1.042914271E0,5.700871944E0
1.502880861E0,-1.143203545E1,-1.122870922E0,5.573758602E0
1.504883986E0,-1.150922489E1,-1.203900337E0,5.439846516E0
1.506880861E0,-1.159838486E1,-1.268831134E0,5.298913956E0
1.508880861E0,-1.168846416E1,-1.319664836E0,5.169110298E0
1.510880861E0,-1.176997280E1,-1.349429607E0,5.050013065E0
1.512888674E0,-1.185914135E1,-1.358479619E0,4.940320492E0
1.514880861E0,-1.194568729E1,-1.345713735E0,4.859396458E0
1.516880861E0,-1.204379177E1,-1.304064155E0,4.794522762E0
1.518880861E0,-1.213784599E1,-1.261342049E0,4.745805740E0
1.520898049E0,-1.217712021E1,-1.240320921E0,4.708121300E0
1.522882424E0,-1.220089054E1,-1.192848802E0,4.674171448E0
1.524880861E0,-1.219934845E1,-1.165688992E0,4.645987034E0
1.526879299E0,-1.213115215E1,-1.132371187E0,4.630596638E0
1.528887111E0,-1.200336838E1,-1.094494939E0,4.623260975E0
1.530883986E0,-1.179196072E1,-1.040663719E0,4.668817997E0
1.532879299E0,-1.161324787E1,-1.008332372E0,4.728146076E0
1.534879299E0,-1.143650818E1,-9.572592974E-1,4.794753075E0
1.536888674E0,-1.130542946E1,-9.225912690E-1,4.868628502E0
1.538880861E0,-1.113559437E1,-8.716234565E-1,4.976827145E0
1.540885549E0,-1.097017479E1,-8.218815327E-1,5.080237389E0
1.542879299E0,-1.082653236E1,-7.801458240E-1,5.176637650E0
1.544885549E0,-1.069283962E1,-7.309880853E-1,5.273028374E0
1.546893361E0,-1.058066654E1,-6.917806268E-1,5.361948967E0
1.548880861E0,-1.048391247E1,-6.683844924E-1,5.433908463E0
1.550880861E0,-1.034950161E1,-6.657029986E-1,5.530404568E0
1.552921486E0,-1.029199314E1,-6.754522324E-1,5.560418606E0
1.554879299E0,-1.021673870E1,-6.897886395E-1,5.612496853E0
1.556879299E0,-1.016672897E1,-7.034068704E-1,5.636678696E0
1.558890236E0,-1.010109901E1,-7.397891879E-1,5.673740864E0
1.560879299E0,-1.004641533E1,-8.080622554E-1,5.728539467E0
1.562879299E0,-1.000726509E1,-8.807310462E-1,5.767737389E0
1.564879299E0,-9.973134041E0,-9.808470011E-1,5.805852890E0
1.566885549E0,-9.948320389E0,-1.077457786E0,5.809358120E0
1.568879299E0,-9.929233551E0,-1.207798123E0,5.809339046E0
1.570880861E0,-9.926054001E0,-1.305222988E0,5.769030094E0
1.572885549E0,-9.921782494E0,-1.404936790E0,5.711023331E0
1.574880861E0,-9.898328781E0,-1.486157537E0,5.639599800E0
1.576879299E0,-9.857052803E0,-1.565252423E0,5.547087193E0
1.578879299E0,-9.797552109E0,-1.651970506E0,5.408942223E0
1.580880861E0,-9.763486862E0,-1.728067756E0,5.305129528E0
1.582879299E0,-9.729815483E0,-1.787693024E0,5.205300808E0
1.584912111E0,-9.684603691E0,-1.853150368E0,5.087199688E0
1.586879299E0,-9.624413490E0,-1.921528816E0,4.900605679E0
1.588918361E0,-9.545892715E0,-1.975570798E0,4.745431900E0
1.590879299E0,-9.459815979E0,-2.025303125E0,4.573624611E0
1.592893361E0,-9.366721153E0,-2.058065414E0,4.397344112E0
1.594888674E0,-9.249365807E0,-2.115248442E0,4.234758854E0
1.596898049E0,-9.103741646E0,-2.182113886E0,4.068131924E0
1.598879299E0,-8.914255142E0,-2.270622492E0,3.866990089E0
1.600902736E0,-8.769893646E0,-2.352360487E0,3.720589399E0
1.602894924E0,-8.656198502E0,-2.451729536E0,3.589760780E0
1.604879299E0,-8.562517166E0,-2.527577877E0,3.453492165E0
1.606926174E0,-8.505517006E0,-2.580767632E0,3.303816319E0
1.608898049E0,-8.462822914E0,-2.617293358E0,3.140033960E0
1.610882424E0,-8.465610504E0,-2.642327070E0,3.005546570E0
1.612882424E0,-8.479525566E0,-2.674696684E0,2.882963657E0
1.614880861E0,-8.504309654E0,-2.705898046E0,2.782253981E0
1.616879299E0,-8.538642883E0,-2.732684374E0,2.694760323E0
1.618921486E0,-8.610143661E0,-2.783288002E0,2.587854147E0
1.620885549E0,-8.685541153E0,-2.836717367E0,2.522569418E0
1.622879299E0,-8.768639565E0,-2.880473614E0,2.465127468E0
1.624879299E0,-8.852301598E0,-2.934343338E0,2.405128956E0
1.626907424E0,-8.930037498E0,-2.976979017E0,2.343454123E0
1.628879299E0,-9.027730942E0,-3.025725126E0,2.251842499E0
1.630879299E0,-9.098406792E0,-3.054340601E0,2.177986145E0
1.632891799E0,-9.154498100E0,-3.094831228E0,2.104771376E0
1.634898049E0,-9.182050705E0,-3.137687445E0,2.013418436E0
1.636879299E0,-9.191205978E0,-3.162137270E0,1.899224520E0
1.638880861E0,-9.163098335E0,-3.191930771E0,1.818118453E0
1.640905861E0,-9.114171028E0,-3.214263678E0,1.754892349E0
1.642883986E0,-8.937938690E0,-3.308327198E0,1.530335426E0
1.644879299E0,-8.812951088E0,-3.393484116E0,1.410692334E0
1.646883986E0,-8.704168320E0,-3.449527502E0,1.299199224E0
1.648879299E0,-8.576356888E0,-3.516814232E0,1.181883335E0
1.650880861E0,-8.439790726E0,-3.590708733E0,1.055287480E0
1.652885549E0,-8.284560204E0,-3.673136473E0,9.281649590E-1
1.654879299E0,-8.094278336E0,-3.764326572E0,7.978916764E-1
1.656933986E0,-7.902215958E0,-3.851341486E0,6.674076319E-1
1.658887111E0,-7.707663059E0,-3.943978071E0,5.357553363E-1
1.660919924E0,-7.490231514E0,-4.034574509E0,4.085178673E-1
1.662882424E0,-7.224168301E0,-4.189834118E0,8.364766240E-1
1.664879299E0,-6.605027676E0,-4.581409931E0,2.861674309E0
1.666901174E0,-5.667611599E0,-5.111438274E0,5.434588909E0
1.668935549E0,-4.760899067E0,-5.569707870E0,7.556043148E0
1.670880861E0,-4.274195671E0,-5.774728298E0,8.250495911E0
1.672885549E0,-3.568509817E0,-6.084547520E0,8.632179260E0
1.674879299E0,-3.105902195E0,-6.241530895E0,8.668868065E0
1.676898049E0,-3.402390480E0,-5.922517776E0,8.313549995E0
1.678879299E0,-4.254822254E0,-5.156871319E0,7.618484020E0
1.680888674E0,-4.894293785E0,-4.581477642E0,6.873542309E0
1.682879299E0,-5.400380135E0,-4.082017899E0,6.075516701E0
1.684882424E0,-5.928761482E0,-3.588438988E0,5.142113209E0
1.686879299E0,-6.260033131E0,-3.319522381E0,4.121369362E0
1.688879299E0,-6.421239376E0,-3.193271160E0,3.134527206E0
1.690880861E0,-6.487300396E0,-3.088204145E0,2.584933281E0
1.692896486E0,-6.596399307E0,-2.854731083E0,1.845402837E0
1.694879299E0,-6.713772297E0,-2.612361431E0,1.197962761E0
1.696879299E0,-6.807768822E0,-2.380784750E0,7.427005172E-1
1.698893361E0,-6.756399155E0,-2.421198845E0,4.926213622E-1
1.700919924E0,-6.673214912E0,-2.478372335E0,6.697060913E-2
1.702890236E0,-6.646170139E0,-2.497832298E0,-1.393999904E-1
1.704919924E0,-6.748143673E0,-2.339048862E0,-3.614765704E-1
1.706887111E0,-6.833741188E0,-2.184594154E0,-5.502641797E-1
1.708883986E0,-6.963123798E0,-2.153603554E0,-6.986472011E-1
1.710879299E0,-6.959915638E0,-2.184632301E0,-7.396454811E-1
1.712879299E0,-6.905748844E0,-2.215106010E0,-7.887457609E-1
1.714880861E0,-6.763926506E0,-2.295186996E0,-7.407085299E-1
1.716883986E0,-6.608925819E0,-2.526141405E0,-6.551589370E-1
1.718879299E0,-6.349365234E0,-2.617427588E0,-5.279214382E-1
1.720879299E0,-6.024529934E0,-2.883662701E0,-2.887981832E-1
1.722924611E0,-5.734113216E0,-3.057922363E0,-1.085722595E-1
1.724899611E0,-5.280450344E0,-3.183187008E0,8.762778342E-2
1.726883986E0,-4.763695240E0,-3.348635674E0,3.197408319E-1
1.728879299E0,-4.181205273E0,-3.640805244E0,7.786806226E-1
1.730880861E0,-3.577674866E0,-3.695613146E0,1.097942591E0
1.732879299E0,-3.060230255E0,-3.749367714E0,1.200807095E0
1.734894924E0,-2.237046480E0,-4.036211967E0,1.588782668E0
1.736888674E0,-1.819861412E0,-4.014348507E0,1.631792068E0
1.738888674E0,-1.568278670E0,-3.886545897E0,1.568996906E0
1.740887111E0,-1.346728921E0,-3.930244923E0,1.547870636E0
1.742893361E0,-8.820430040E-1,-3.900489807E0,1.283301592E0
1.744879299E0,-1.067526639E-1,-3.919518709E0,8.437932730E-1
1.746916799E0,-2.401863039E-2,-4.134910583E0,8.002954125E-1
1.748879299E0,-2.354170680E-1,-4.373133659E0,8.066543937E-1
1.750879299E0,-3.390668333E-1,-4.700660706E0,7.235851884E-1
1.752879299E0,-4.126550257E-1,-5.065135002E0,5.411087871E-1
1.754879299E0,-5.155003667E-1,-5.384416103E0,1.819593310E-1
1.756890236E0,-6.473059654E-1,-5.747884274E0,-2.435669303E-1
1.758891799E0,-9.052955508E-1,-6.106449604E0,-6.985131502E-1
1.760879299E0,-1.209320784E0,-6.519574165E0,-1.138155699E0
1.762879299E0,-1.390303373E0,-6.948557854E0,-1.546682954E0
1.764879299E0,-1.511631966E0,-7.285211086E0,-1.888891101E0
1.766890236E0,-1.583965540E0,-7.489081860E0,-2.149581194E0
1.768879299E0,-1.650514722E0,-7.698584557E0,-2.345599413E0
1.770879299E0,-1.717322588E0,-7.918314457E0,-2.368602753E0
1.772879299E0,-1.553951740E0,-7.919291496E0,-2.500571251E0
1.774883986E0,-1.273533344E0,-7.827009201E0,-2.747384787E0
1.776883986E0,-1.058294535E0,-7.757031918E0,-3.015889645E0
1.778891799E0,-1.116923809E0,-7.690520287E0,-3.207607746E0
1.780879299E0,-2.125390291E0,-7.760134220E0,-3.460215330E0
1.782879299E0,-5.553791523E0,-7.971685886E0,-3.846620083E0
1.784879299E0,-7.787274837E0,-8.152400017E0,-4.196029663E0
1.786879299E0,-9.738597870E0,-8.311223030E0,-4.708207130E0
1.788882424E0,-1.150035667E1,-8.408751488E0,-4.981184483E0
1.790879299E0,-1.277098846E1,-8.448966026E0,-4.975390434E0
1.792933986E0,-1.343232441E1,-8.432789803E0,-4.973686218E0
1.794879299E0,-1.446341991E1,-8.324514389E0,-5.047474861E0
1.796919924E0,-1.478517151E1,-8.190315247E0,-5.148941517E0
1.798885549E0,-1.565743732E1,-8.009064674E0,-5.011820793E0
1.800879299E0,-1.722989273E1,-7.769155979E0,-5.244307041E0
1.802880861E0,-1.831693649E1,-7.716444969E0,-5.756024837E0
1.804879299E0,-1.932709694E1,-7.785905838E0,-5.809233189E0
1.806891799E0,-2.050954437E1,-7.905395508E0,-5.432003021E0
1.808879299E0,-2.174042320E1,-7.927345753E0,-4.754463196E0
1.810879299E0,-2.225849915E1,-8.006804466E0,-4.238790512E0
1.812879299E0,-1.967075157E1,-8.269812584E0,-1.750084877E0
1.814879299E0,-1.802961349E1,-8.141665459E0,-3.422176242E-1
1.816879299E0,-1.736193657E1,-7.982775688E0,7.714309692E-1
1.818879299E0,-1.676895142E1,-7.841948986E0,1.255318284E0
1.820879299E0,-1.576910305E1,-7.546169281E0,1.760255337E0
1.822888674E0,-1.448214245E1,-7.157312870E0,1.901829362E0
1.824901174E0,-1.264910316E1,-6.714347363E0,1.469618440E0
1.826912111E0,-1.103211689E1,-6.254583836E0,1.220602274E0
1.828880861E0,-1.027789688E1,-5.823205948E0,1.507801175E0
1.830921486E0,-9.653890610E0,-5.533143520E0,1.501739025E0
1.832927736E0,-8.736901283E0,-5.180975914E0,1.203622699E0
1.834896486E0,-8.415121078E0,-4.953038216E0,1.226070642E0
1.836890236E0,-8.480109215E0,-4.800029755E0,1.359801292E0
1.838887111E0,-8.288084984E0,-4.725857258E0,1.203440666E0
1.840893361E0,-7.867739201E0,-4.619822979E0,9.581020474E-1
1.842879299E0,-7.741593838E0,-4.510187626E0,9.255408645E-1
1.844879299E0,-7.630972385E0,-4.338743687E0,8.291982412E-1
1.846879299E0,-7.387941360E0,-4.321093559E0,5.602240562E-1
1.848887111E0,-7.245457649E0,-4.413452148E0,5.319245458E-1
1.850918361E0,-7.240449429E0,-4.530873299E0,5.968553424E-1
1.852879299E0,-7.315415859E0,-4.649989605E0,6.686622500E-1
1.854880861E0,-7.311633110E0,-4.757336617E0,7.344836593E-1
1.856880861E0,-7.319151402E0,-4.844504356E0,7.824251056E-1
1.858896486E0,-7.257677555E0,-4.883730888E0,7.807587385E-1
1.860891799E0,-7.096921444E0,-5.000769138E0,6.878829002E-1
1.862885549E0,-7.359852314E0,-5.405820370E0,1.302733064E0
1.864880861E0,-7.429054737E0,-5.730148315E0,1.432125211E0
1.866879299E0,-7.365349770E0,-5.915220261E0,1.179192305E0
1.868879299E0,-7.272080898E0,-6.049429417E0,8.200907111E-1
1.870879299E0,-7.014187336E0,-6.183246136E0,4.206420779E-1
1.872890236E0,-6.724805355E0,-6.371650696E0,1.626812071E-1
1.874879299E0,-6.442365646E0,-6.601475239E0,-3.440946713E-2
1.876879299E0,-6.262742996E0,-6.782495499E0,-2.839523256E-1
1.878915236E0,-6.211631775E0,-6.930495739E0,-4.691486061E-1
1.880882424E0,-6.234740734E0,-7.006324768E0,-5.637962222E-1
1.882887111E0,-6.319255829E0,-7.096682072E0,-6.689303517E-1
1.884879299E0,-6.411872864E0,-7.182854176E0,-7.536659837E-1
1.886879299E0,-6.460494518E0,-7.259133339E0,-7.607527971E-1
1.888879299E0,-6.446206093E0,-7.354595184E0,-7.850874662E-1
1.890890236E0,-6.386083126E0,-7.437568188E0,-7.934767604E-1
1.892927736E0,-6.257332325E0,-7.420128822E0,-8.314871192E-1
1.894879299E0,-6.081818581E0,-7.401712894E0,-8.971456885E-1
1.896880861E0,-5.985906124E0,-7.467304230E0,-8.382866383E-1
1.898921486E0,-5.847205639E0,-7.661828518E0,-6.922211647E-1
1.900882424E0,-5.722888947E0,-7.874328136E0,-5.293675661E-1
1.902891799E0,-5.673223495E0,-8.126246452E0,-3.806110322E-1
1.904879299E0,-5.596082687E0,-8.414728165E0,-2.334633917E-1
1.906880861E0,-5.630980492E0,-8.608448029E0,-1.303595006E-1
1.908880861E0,-5.771577835E0,-8.779191971E0,-3.653552011E-2
1.910879299E0,-5.929096699E0,-8.949190140E0,1.018206105E-1
1.912880861E0,-6.112866402E0,-9.111057281E0,2.266447097E-1
1.914880861E0,-6.303090096E0,-9.204049110E0,3.329185545E-1
1.916882424E0,-6.491494656E0,-9.180614471E0,4.528872073E-1
1.918879299E0,-6.631593704E0,-9.090372086E0,5.029259920E-1
1.920883986E0,-6.768714905E0,-8.899391174E0,4.812441170E-1
1.922880861E0,-6.800069332E0,-8.724968910E0,5.061534047E-1
1.924883986E0,-6.734066010E0,-8.590309143E0,5.119569302E-1
1.926908986E0,-6.634935856E0,-8.434648514E0,5.301624537E-1
1.928930861E0,-6.480520248E0,-8.276477814E0,5.706914663E-1
1.930891799E0,-6.338811874E0,-8.114083290E0,6.360244751E-1
1.932927736E0,-6.168392658E0,-7.771195889E0,7.322809696E-1
1.934932424E0,-6.099727154E0,-7.485960007E0,8.233659863E-1
1.936885549E0,-6.080266476E0,-7.228640556E0,9.960932732E-1
1.938887111E0,-6.003652573E0,-7.103587151E0,1.292878509E0
1.940888674E0,-5.910230637E0,-7.137747765E0,1.492468715E0
1.942912111E0,-5.777965546E0,-7.139653206E0,1.577807665E0
1.944883986E0,-5.610936165E0,-6.965700150E0,1.783076882E0
1.946898049E0,-5.466747761E0,-6.711445332E0,1.853131175E0
1.948882424E0,-5.302199364E0,-6.461864471E0,1.940146089E0
1.950879299E0,-5.151919842E0,-6.269657612E0,1.655418038E0
1.952883986E0,-4.981242180E0,-6.049544334E0,1.671152830E0
1.954896486E0,-4.702508926E0,-5.969453812E0,1.695343733E0
1.956880861E0,-4.384252548E0,-5.870582581E0,1.667638063E0
1.958891799E0,-4.213220119E0,-5.777199268E0,1.613988757E0
1.960891799E0,-4.063285828E0,-5.722774029E0,1.481139421E0
1.962887111E0,-3.943767309E0,-5.648716927E0,1.432029486E0
1.964879299E0,-3.860918522E0,-5.575779915E0,1.362798691E0
1.966879299E0,-3.697854042E0,-5.444826603E0,1.231797576E0
1.968883986E0,-3.569630146E0,-5.350427628E0,1.169586658E0
1.970879299E0,-3.382346153E0,-5.209533691E0,1.000144243E0
1.972879299E0,-2.774534941E0,-4.882361412E0,4.945654571E-1
1.974879299E0,-2.492881060E0,-5.020440102E0,3.864145875E-1
1.976879299E0,-2.498339891E0,-5.161784172E0,2.601635456E-1
1.978880861E0,-2.398559093E0,-5.365367889E0,2.320268750E-1
1.980879299E0,-2.268822193E0,-5.550831795E0,2.325823307E-1
1.982879299E0,-2.196574688E0,-5.811780930E0,2.895356119E-1
1.984879299E0,-2.386080503E0,-5.951085567E0,3.732560277E-1
1.986882424E0,-2.678690434E0,-6.026224613E0,5.884181261E-1
1.988879299E0,-3.033032179E0,-5.991786480E0,8.561664820E-1
1.990898049E0,-3.311631203E0,-5.874260426E0,1.082648396E0
1.992880861E0,-3.469542980E0,-5.513664722E0,1.149571180E0
1.994898049E0,-3.544059992E0,-5.017135620E0,1.030742168E0
1.996885549E0,-3.229883432E0,-4.809127331E0,9.819099903E-1
1.998882424E0,-2.900968075E0,-4.920907974E0,9.438804984E-1
2.000882424E0,-2.837234259E0,-5.088856220E0,9.482570887E-1
2.002887111E0,-2.841362000E0,-5.208413601E0,9.101414084E-1
2.004879299E0,-2.850737572E0,-5.274531841E0,7.974224091E-1
2.006879299E0,-2.813943624E0,-5.389616013E0,7.517889142E-1
2.008879299E0,-2.792338371E0,-5.360071659E0,6.341378093E-1
2.010879299E0,-2.814652443E0,-5.277385712E0,3.236290216E-1
2.012879299E0,-2.648648024E0,-5.331983089E0,7.004476339E-2
2.014879299E0,-2.639502048E0,-5.399633408E0,-2.923799120E-2
2.016880861E0,-2.774717093E0,-5.440009117E0,-3.015449345E-1
2.018890236E0,-3.080504417E0,-5.566978455E0,-3.698849976E-1
2.020880861E0,-3.196843624E0,-5.776011944E0,-3.050213158E-1
2.022879299E0,-3.369053602E0,-6.053001404E0,-4.204792678E-1
2.024880861E0,-3.503301382E0,-6.282203197E0,-6.100042462E-1
2.026891799E0,-3.441080809E0,-6.619565487E0,-9.496361613E-1
2.028883986E0,-3.453779459E0,-7.145772457E0,-1.237237334E0
2.030880861E0,-3.563759804E0,-7.704071999E0,-1.276885271E0
2.032879299E0,-3.557477236E0,-8.443821907E0,-1.355376720E0
2.034891799E0,-3.848995447E0,-9.518953323E0,-1.234172702E0
2.036879299E0,-3.804779053E0,-1.021230507E1,-7.350677848E-1
2.038880861E0,-4.168879986E0,-1.109170437E1,-1.516678929E-1
2.040893361E0,-4.450361252E0,-1.166798782E1,1.702085882E-1
2.042882424E0,-4.635586262E0,-1.209004784E1,5.378813744E-1
2.044880861E0,-4.843872070E0,-1.236413670E1,6.091614962E-1
2.046879299E0,-4.900586128E0,-1.261940670E1,7.142669559E-1
2.048879299E0,-4.896266937E0,-1.287614155E1,8.370129466E-1
2.050879299E0,-4.765725613E0,-1.311484241E1,6.030898690E-1
2.052890236E0,-4.682742596E0,-1.314274025E1,2.544844747E-1
2.054882424E0,-4.712765694E0,-1.312673759E1,3.427539170E-1
2.056893361E0,-4.708666801E0,-1.305414581E1,4.078953564E-1
2.058879299E0,-4.582856655E0,-1.283947182E1,1.726985574E-1
2.060896486E0,-4.565656185E0,-1.272553635E1,-6.687483937E-2
2.062888674E0,-4.631219387E0,-1.291992664E1,-4.256794751E-1
2.064879299E0,-4.550850391E0,-1.295026588E1,-4.907251596E-1
2.066879299E0,-4.323803902E0,-1.268319702E1,-6.901717782E-1
2.068882424E0,-4.152790546E0,-1.235260582E1,-7.307103872E-1
2.070890236E0,-4.042600155E0,-1.198486614E1,-7.739688158E-1
2.072879299E0,-3.981088161E0,-1.166012573E1,-8.288247585E-1
2.074880861E0,-4.090512753E0,-1.141792870E1,-7.879317403E-1
2.076887111E0,-4.373133659E0,-1.141972923E1,-7.262954712E-1
2.078879299E0,-4.469371319E0,-1.167569828E1,-4.992581010E-1
2.080879299E0,-4.344068527E0,-1.143915176E1,-4.736401439E-1
2.082887111E0,-4.321649075E0,-1.125201035E1,-6.689495444E-1
2.084898049E0,-4.538151741E0,-1.106681442E1,-9.936224222E-1
2.086891799E0,-4.844016075E0,-1.085635471E1,-1.538925767E0
2.088880861E0,-4.915171623E0,-1.064730263E1,-1.939906716E0
2.090885549E0,-5.040436268E0,-1.044582558E1,-2.409926653E0
2.092879299E0,-5.087544441E0,-1.022982025E1,-2.868167400E0
2.094880861E0,-4.996919632E0,-9.903797150E0,-3.400704861E0
2.096891799E0,-4.997551441E0,-9.733367920E0,-3.634742975E0
2.098893361E0,-4.925399303E0,-9.405821800E0,-3.975437641E0
2.100973049E0,-4.858649254E0,-9.205408096E0,-4.124663353E0
2.102885549E0,-4.848220348E0,-9.051183701E0,-4.067739010E0
2.104882424E0,-4.773023129E0,-8.955674171E0,-3.870389938E0
2.106879299E0,-4.633948803E0,-8.885725975E0,-3.659221172E0
2.108910549E0,-4.470415115E0,-8.910797119E0,-3.361746550E0
2.110879299E0,-4.201335430E0,-9.190928459E0,-2.678690434E0
2.112879299E0,-3.924738169E0,-9.488986969E0,-2.095137119E0
2.114898049E0,-3.675549746E0,-9.815163612E0,-1.563308358E0
2.116891799E0,-3.472234249E0,-1.016819382E1,-1.037790656E0
2.118879299E0,-3.187544346E0,-1.071907139E1,-3.244430423E-1
2.120902736E0,-2.979430914E0,-1.099432755E1,2.065717243E-2
2.122883986E0,-2.805439472E0,-1.112460995E1,9.683109075E-2
2.124880861E0,-2.518240452E0,-1.110771656E1,7.934384048E-2
2.126883986E0,-1.286691904E0,-9.850722313E0,-2.093011141E-1
2.128883986E0,-7.120355964E-1,-9.273978233E0,-4.130955637E-1
2.130880861E0,-2.605944872E-1,-8.931741714E0,-8.777047992E-1
2.132882424E0,-1.503558606E-1,-8.991559029E0,-1.095586658E0
2.134879299E0,-1.796513200E-1,-9.132011414E0,-1.230648398E0
2.136879299E0,-2.117144614E-1,-9.346206665E0,-1.246804476E0
2.138879299E0,-1.875138730E-1,-9.483480453E0,-1.152415514E0
2.140879299E0,-3.538725972E-1,-9.918737411E0,-9.937278032E-1
2.142879299E0,-9.289789796E-1,-1.143741798E1,-3.056629300E-1
2.144879299E0,-7.614423037E-1,-1.175201607E1,1.479329318E-1
2.146879299E0,-5.941163301E-1,-1.173571587E1,4.102991223E-1
2.148923049E0,-3.123283982E-1,-1.144116211E1,5.768781304E-1
2.150912111E0,8.626787364E-2,-1.097467613E1,3.242515326E-1
2.152879299E0,3.999561667E-1,-1.070799065E1,-7.872135378E-3
2.154890236E0,7.347038388E-1,-1.034501934E1,-3.080379963E-1
2.156882424E0,1.094600320E0,-9.947477341E0,-6.659615636E-1
2.158880861E0,1.298289418E0,-9.646277428E0,-8.877891302E-1
2.160880861E0,1.384509444E0,-9.377858162E0,-1.006991625E0
2.162891799E0,1.403911948E0,-9.154087067E0,-9.690483212E-1
2.164902736E0,1.298298955E0,-8.930180550E0,-7.119781375E-1
2.166899611E0,1.081192732E0,-8.681998253E0,-3.603273630E-1
2.168880861E0,7.875678539E-1,-8.427264214E0,1.292868890E-2
2.170880861E0,5.260731578E-1,-8.220193863E0,4.802385569E-1
2.172887111E0,3.385784328E-1,-8.177089691E0,7.335355282E-1
2.174893361E0,1.603827775E-1,-8.215013504E0,8.115673065E-1
2.176894924E0,4.510675743E-2,-8.301195145E0,7.636737227E-1
2.178879299E0,-3.175669163E-2,-8.353388786E0,6.791392565E-1
2.180904299E0,-1.769793928E-1,-8.373117447E0,5.388390422E-1
2.182887111E0,-2.757258415E-1,-8.369535446E0,4.750862420E-1
2.184918361E0,-3.752288818E-1,-8.339358330E0,3.824210465E-1
2.186879299E0,-4.618031979E-1,-8.328987122E0,3.776709735E-1
2.188879299E0,-4.803726077E-1,-8.299451828E0,3.536810577E-1
2.190890236E0,-4.536054730E-1,-8.271345139E0,3.342975974E-1
2.192879299E0,-4.080007076E-1,-8.220702171E0,2.784552276E-1
2.194879299E0,-3.910497427E-1,-8.117732048E0,2.897079885E-1
2.196888674E0,-3.636888266E-1,-7.983130455E0,3.328132033E-1
2.198890236E0,-4.041508138E-1,-7.928982735E0,3.993911445E-1
2.200879299E0,-5.147821307E-1,-7.941691399E0,5.069386959E-1
2.202879299E0,-7.020373940E-1,-8.034912109E0,6.115844846E-1
2.204879299E0,-9.350602627E-1,-8.256749153E0,7.215836644E-1
2.206902736E0,-1.214425325E0,-8.638289452E0,8.623340130E-1
2.208901174E0,-1.675807118E0,-9.134453773E0,9.666445851E-1
2.210894924E0,-2.285610437E0,-9.660249710E0,1.069308043E0
2.212879299E0,-2.981978178E0,-1.020178890E1,1.108448386E0
2.214883986E0,-3.629140615E0,-1.074668026E1,1.201458216E0
2.216890236E0,-4.242793560E0,-1.121378040E1,1.199360967E0
2.218879299E0,-4.556596756E0,-1.148807907E1,1.199360967E0
2.220887111E0,-4.485201836E0,-1.148667049E1,1.057212353E0
2.222879299E0,-3.994160414E0,-1.120838833E1,7.909867764E-1
2.224879299E0,-3.251555681E0,-1.077405167E1,4.127891064E-1
2.226879299E0,-2.473507404E0,-1.029371643E1,3.734954633E-3
2.228880861E0,-1.724610448E0,-9.851449966E0,-3.923904896E-1
2.230879299E0,-1.029621720E0,-9.439024925E0,-7.564719915E-1
2.232887111E0,-4.874498844E-1,-8.960903168E0,-1.166895628E0
2.234879299E0,-6.489244103E-2,-8.537942886E0,-1.511488318E0
2.236880861E0,2.953391373E-1,-8.189079285E0,-1.825732112E0
2.238883986E0,5.313020349E-1,-8.014379501E0,-2.031776905E0
2.240908986E0,6.616328955E-1,-7.988876343E0,-2.028147459E0
2.242905861E0,7.948175073E-1,-8.013872147E0,-1.910994411E0
2.244880861E0,8.674288392E-1,-8.159256935E0,-1.634837508E0
2.246879299E0,8.560707569E-1,-8.336428642E0,-1.262567878E0
2.248896486E0,8.148043156E-1,-8.438143730E0,-9.614635110E-1
2.250918361E0,7.703679204E-1,-8.519700050E0,-7.537234426E-1
2.252919924E0,6.711713076E-1,-8.534783363E0,-5.827965736E-1
2.254885549E0,5.573605895E-1,-8.502279282E0,-5.201355815E-1
2.256879299E0,4.301901460E-1,-8.456233978E0,-5.104725361E-1
2.258888674E0,3.374291956E-1,-8.400478363E0,-5.078389049E-1
2.260907424E0,2.612361312E-1,-8.304355621E0,-4.985398352E-1
2.262890236E0,1.647785306E-1,-8.173823357E0,-4.859080315E-1
2.264894924E0,9.979032911E-3,-8.022921562E0,-4.831115901E-1
2.266879299E0,-2.324769944E-1,-7.841604710E0,-5.338495374E-1
2.268879299E0,-3.750660717E-1,-7.667574883E0,-5.810919404E-1
2.270890236E0,-4.808706343E-1,-7.427647114E0,-6.042581797E-1
2.272915236E0,-5.885043144E-1,-7.109687328E0,-5.997284055E-1
2.274879299E0,-5.799618363E-1,-6.706091881E0,-5.550621152E-1
2.276883986E0,-5.643516183E-1,-6.445152760E0,-5.468547940E-1
2.278885549E0,-5.288887620E-1,-6.267416477E0,-5.524668694E-1
2.280899611E0,-4.958200157E-1,-6.109773159E0,-5.670139790E-1
2.282891799E0,-4.433678687E-1,-6.009149551E0,-5.942887664E-1
2.284879299E0,-3.951964974E-1,-5.921061993E0,-6.320213675E-1
2.286879299E0,-3.065344095E-1,-5.802453041E0,-7.337558270E-1
2.288879299E0,-1.750257313E-1,-5.657000542E0,-8.427110910E-1
2.290888674E0,-9.319190681E-2,-5.599999428E0,-8.698900938E-1
2.292880861E0,-2.145204693E-2,-5.548504829E0,-8.678693771E-1
2.294879299E0,5.286397040E-2,-5.511730194E0,-7.932947874E-1
2.296885549E0,1.341327578E-1,-5.465971947E0,-6.983119845E-1
2.298879299E0,2.273533940E-1,-5.435287952E0,-6.110864878E-1
2.300879299E0,3.137649298E-1,-5.412571907E0,-5.382643938E-1
2.302879299E0,7.073907852E-1,-5.434378147E0,-7.105512023E-1
2.304879299E0,8.657337427E-1,-5.446569443E0,-8.581106067E-1
2.306908986E0,9.316413403E-1,-5.414267063E0,-9.576519728E-1
2.308879299E0,9.447998405E-1,-5.416680336E0,-9.257515669E-1
2.310879299E0,9.546831846E-1,-5.448321819E0,-8.935447931E-1
2.312880861E0,9.902322292E-1,-5.481783390E0,-8.907292485E-1
2.314882424E0,1.072611928E0,-5.501933098E0,-1.004980564E0
2.316890236E0,1.138548255E0,-5.564641953E0,-1.121415377E0
2.318879299E0,1.147052526E0,-5.643985748E0,-1.168887615E0
2.320880861E0,1.129814267E0,-5.728740692E0,-1.175888181E0
2.322879299E0,1.103018284E0,-5.842713833E0,-1.189669132E0
2.324879299E0,1.083692312E0,-5.956707001E0,-1.222096324E0
2.326918361E0,1.117019534E0,-6.116993427E0,-1.287362337E0
2.328891799E0,1.047310114E0,-6.324235916E0,-1.186642885E0
2.330932424E0,9.994930625E-1,-6.563933372E0,-1.021845222E0
2.332896486E0,9.517526031E-1,-6.851936817E0,-8.336323500E-1
2.334890236E0,9.031886458E-1,-7.145130634E0,-6.047466397E-1
2.336883986E0,9.233382344E-1,-7.767949104E0,-3.450044692E-1
2.338887111E0,1.213151574E0,-8.676989555E0,-2.196153253E-1
2.340887111E0,1.281357527E0,-1.021975517E1,-1.642039269E-1
2.342879299E0,8.360840082E-1,-1.350498295E1,1.169998497E-1
2.344879299E0,6.085007191E-1,-1.810140038E1,6.912156343E-1
2.346879299E0,4.877755046E-1,-2.123318672E1,1.216340661E0
2.348890236E0,-1.272087246E-1,-2.662326431E1,1.547746062E0
2.350879299E0,-8.655135036E-1,-3.278589249E1,1.674610019E0
2.352879299E0,-5.307753682E-1,-3.927643585E1,2.320862532E0
2.354883986E0,1.878873706E-1,-4.468144608E1,2.776000261E0
2.356887111E0,1.013302803E0,-4.884373474E1,3.121828318E0
2.358879299E0,2.013906717E0,-5.126896667E1,3.170344591E0
2.360904299E0,2.950911045E0,-5.135140228E1,2.744990587E0
2.362915236E0,3.726354837E0,-4.911310196E1,1.780328393E0
2.364890236E0,4.250023842E0,-4.493533707E1,5.427942276E-1
2.366885549E0,4.506548405E0,-3.741411972E1,-1.032504320E0
2.368883986E0,4.469399929E0,-3.135750198E1,-1.978348017E0
2.370912111E0,4.327826023E0,-2.567835045E1,-2.721220970E0
2.372879299E0,4.130974770E0,-2.064943314E1,-3.272586346E0
2.374879299E0,3.902232647E0,-1.637224960E1,-3.726412058E0
2.376879299E0,3.728643656E0,-1.286378670E1,-4.061868191E0
2.378885549E0,3.652383566E0,-1.010077381E1,-4.314858913E0
2.380879299E0,3.635949612E0,-7.984394550E0,-4.535777092E0
2.382879299E0,3.669276953E0,-6.391388893E0,-4.666423798E0
2.384879299E0,3.747605801E0,-5.228735447E0,-4.783260822E0
2.386879299E0,3.841276407E0,-4.407524586E0,-4.838183403E0
2.388879299E0,3.951457500E0,-3.858926535E0,-4.817708492E0
2.390887111E0,4.111878395E0,-3.554001093E0,-4.759892941E0
2.392954299E0,4.266026974E0,-3.443570852E0,-4.572724342E0
2.394912111E0,4.430135250E0,-3.494787693E0,-4.338370323E0
2.396883986E0,4.611375809E0,-3.697547674E0,-4.065191746E0
2.398885549E0,4.813619137E0,-4.036681652E0,-3.756914377E0
2.400927736E0,4.953325748E0,-4.518739700E0,-3.373047113E0
2.402882424E0,5.093146801E0,-5.134930611E0,-2.952165604E0
2.404898049E0,5.190993309E0,-5.818408012E0,-2.468661308E0
2.406880861E0,5.297487259E0,-6.512975693E0,-1.949071765E0
2.408879299E0,5.381437302E0,-6.968237877E0,-1.610694408E0
2.410879299E0,5.501109600E0,-7.602318287E0,-1.102367043E0
2.412882424E0,5.622083664E0,-8.165387154E0,-6.403244734E-1
2.414879299E0,5.782983303E0,-8.603199959E0,-2.614181042E-1
2.416880861E0,5.961389542E0,-9.023775101E0,1.074709222E-1
2.418879299E0,6.046709538E0,-9.279360771E0,2.704394460E-1
2.420890236E0,6.102159023E0,-9.456321716E0,4.027526379E-1
2.422879299E0,6.126426697E0,-9.603305817E0,4.342507422E-1
2.424879299E0,6.146011829E0,-9.640626907E0,3.740413487E-1
2.426880861E0,6.081052303E0,-9.580389023E0,2.640708685E-1
2.428882424E0,5.950347424E0,-9.498612404E0,1.122784838E-1
2.430930861E0,5.776059628E0,-9.531288147E0,-6.200024858E-2
2.432891799E0,5.570368767E0,-9.533759117E0,-2.230246663E-1
2.434879299E0,5.168114185E0,-9.319975853E0,-4.493820667E-1
2.436888674E0,4.955949783E0,-9.284570694E0,-5.724727511E-1
2.438887111E0,4.547518253E0,-9.247048378E0,-7.620840073E-1
2.440902736E0,4.209973812E0,-9.099977493E0,-8.573349118E-1
2.442916799E0,3.862862587E0,-8.935438156E0,-8.934298754E-1
2.444879299E0,3.428353310E0,-8.708611488E0,-8.525847793E-1
2.446901174E0,3.225085497E0,-8.427541733E0,-7.758554220E-1
2.448879299E0,2.777427197E0,-7.060721397E0,-4.729889333E-1
2.450890236E0,2.327652693E0,-5.767220020E0,4.450342059E-2
2.452880861E0,1.800535440E0,-4.418959141E0,1.100815654E0
2.454887111E0,9.567804337E-1,-2.690450668E0,3.721068382E0
2.456879299E0,1.142800376E-1,-2.050020695E0,4.492710114E0
2.458890236E0,-5.738901496E-1,-2.554048061E0,3.966876268E0
2.460893361E0,-7.227520347E-1,-3.941698790E0,3.361804008E0
2.462887111E0,-5.190342069E-1,-6.022624016E0,2.717141151E0
2.464913674E0,4.616020992E-2,-7.857913494E0,1.856215000E0
2.466879299E0,1.162557244E0,-9.756180763E0,4.273937345E-1
2.468885549E0,2.155470848E0,-1.101792526E1,-1.107471585E0
2.470890236E0,3.014788389E0,-1.212322235E1,-2.329548597E0
2.472879299E0,4.820897579E0,-1.448491096E1,-4.138080597E0
2.474879299E0,5.344853878E0,-1.476048374E1,-4.519189835E0
2.476880861E0,5.545382977E0,-1.466835403E1,-4.674353123E0
2.478879299E0,5.647002220E0,-1.442548656E1,-4.678126335E0
2.480879299E0,5.602001190E0,-1.390658665E1,-4.625243187E0
2.482880861E0,5.463194847E0,-1.343146229E1,-4.447191238E0
2.484879299E0,5.225469589E0,-1.291009045E1,-4.251814842E0
2.486879299E0,4.872047424E0,-1.232457447E1,-3.954771042E0
2.488879299E0,4.421439648E0,-1.173575401E1,-3.543437719E0
2.490887111E0,3.926567316E0,-1.118188000E1,-3.023445845E0
2.492882424E0,3.408845186E0,-1.065273285E1,-2.468115568E0
2.494879299E0,2.938154697E0,-1.025310135E1,-1.908351183E0
2.496880861E0,2.527740717E0,-9.999469757E0,-1.329107523E0
2.498912111E0,2.178531885E0,-9.864924431E0,-8.473175764E-1
2.500883986E0,1.896552444E0,-9.783723831E0,-3.705458045E-1
2.502880861E0,1.677368164E0,-9.721550941E0,3.664086014E-2
2.504926174E0,1.498320222E0,-9.671645164E0,4.303050935E-1
2.506879299E0,1.350569248E0,-9.633693695E0,7.852885723E-1
2.508879299E0,1.235369802E0,-9.603028297E0,1.066549778E0
2.510879299E0,1.144696474E0,-9.566368103E0,1.321762085E0
2.512879299E0,1.107806802E0,-9.520045280E0,1.480708361E0
2.514879299E0,1.078214407E0,-9.483663559E0,1.624523282E0
2.516880861E0,1.067335129E0,-9.397433281E0,1.714162230E0
2.518890236E0,1.084822416E0,-9.342654228E0,1.754145384E0
2.520879299E0,1.144438028E0,-9.298073769E0,1.715646625E0
2.522879299E0,1.192571044E0,-9.278948784E0,1.667800903E0
2.524880861E0,1.296038866E0,-9.269736290E0,1.578133345E0
2.526882424E0,1.419847727E0,-9.292720795E0,1.411420107E0
2.528901174E0,1.566660285E0,-9.306597710E0,1.224433064E0
2.530879299E0,1.742480874E0,-9.374812126E0,9.791614413E-1
2.532929299E0,1.921260595E0,-9.438517570E0,7.271860838E-1
2.534932424E0,2.108927727E0,-9.505047798E0,4.575223625E-1
2.536879299E0,2.299190283E0,-9.579727173E0,1.484021842E-1
2.538883986E0,2.531226635E0,-9.698441505E0,-2.348041534E-1
2.540879299E0,2.668347359E0,-9.779059410E0,-5.367608666E-1
2.542913674E0,2.786620855E0,-9.849027634E0,-7.908335328E-1
2.544887111E0,2.886363268E0,-9.918622017E0,-1.044379473E0
2.546880861E0,2.931326389E0,-9.981254578E0,-1.218485832E0
2.548879299E0,2.951820850E0,-1.002332497E1,-1.371456146E0
2.550885549E0,2.963829994E0,-1.007171726E1,-1.480698824E0
2.552879299E0,2.947415590E0,-1.010545635E1,-1.540793300E0
2.554882424E0,2.901552200E0,-1.012267494E1,-1.580383778E0
2.556880861E0,2.859787941E0,-1.013679123E1,-1.538973808E0
2.558883986E0,2.784849167E0,-1.012996292E1,-1.458135843E0
2.560890236E0,2.703637838E0,-1.012174606E1,-1.345407248E0
2.562883986E0,2.619476795E0,-1.010652828E1,-1.247101307E0
2.564879299E0,2.536742926E0,-1.008108330E1,-1.113457084E0
2.566887111E0,2.447669029E0,-1.005472755E1,-1.002021313E0
2.568890236E0,2.364944696E0,-1.002079678E1,-8.930276632E-1
2.570880861E0,2.284633636E0,-9.978334427E0,-7.876349092E-1
2.572880861E0,2.226071358E0,-9.931981087E0,-7.045944333E-1
2.574880861E0,2.171694040E0,-9.888522148E0,-6.089125276E-1
2.576923049E0,2.135714054E0,-9.848903656E0,-5.607411861E-1
2.578887111E0,2.101477146E0,-9.817232132E0,-5.055692196E-1
2.580887111E0,2.068973303E0,-9.775113106E0,-4.657871425E-1
2.582890236E0,2.036823988E0,-9.740991592E0,-4.464803040E-1
2.584894924E0,2.024546623E0,-9.718457222E0,-4.120134115E-1
2.586885549E0,2.025245667E0,-9.688730240E0,-4.068897963E-1
2.588887111E0,2.030608654E0,-9.668638229E0,-3.870657980E-1
2.590885549E0,2.031566381E0,-9.657290459E0,-3.935301602E-1
2.592879299E0,2.040769577E0,-9.636029243E0,-3.948038518E-1
2.594879299E0,2.057844877E0,-9.633597374E0,-4.008180797E-1
2.596879299E0,2.082074404E0,-9.634392738E0,-4.069568217E-1
2.598888674E0,2.108803272E0,-9.619538307E0,-4.163229465E-1
2.600890236E0,2.113649130E0,-9.600308418E0,-4.391732216E-1
2.602880861E0,2.130494595E0,-9.609664917E0,-4.506078959E-1
2.604880861E0,2.142121077E0,-9.606456757E0,-4.672428370E-1
2.606879299E0,2.149255514E0,-9.614299774E0,-4.535288513E-1
2.608883986E0,2.154714584E0,-9.618533134E0,-4.691294432E-1
2.610879299E0,2.168802023E0,-9.624201775E0,-4.761300981E-1
2.612883986E0,2.170564175E0,-9.633492470E0,-4.793766439E-1
2.614915236E0,2.175840855E0,-9.637648582E0,-4.701063037E-1
2.616882424E0,2.164980650E0,-9.636011124E0,-4.706042707E-1
2.618891799E0,2.146698713E0,-9.649791718E0,-4.688613117E-1
2.620879299E0,2.139985323E0,-9.667767525E0,-4.651646614E-1
2.622929299E0,2.117096663E0,-9.682869911E0,-4.541226029E-1
2.624882424E0,2.091680050E0,-9.691048622E0,-4.332164228E-1
2.626879299E0,2.061838627E0,-9.713448524E0,-4.268287122E-1
2.628891799E0,2.039093733E0,-9.722891808E0,-4.212837219E-1
2.630879299E0,1.999503136E0,-9.748298645E0,-3.940856159E-1
2.632885549E0,1.919431567E0,-9.797274590E0,-3.215891719E-1
2.634879299E0,1.880214453E0,-9.799716949E0,-2.911157906E-1
2.636879299E0,1.843267202E0,-9.803307533E0,-2.695200741E-1
2.638879299E0,1.814575076E0,-9.817501068E0,-2.535938323E-1
2.640883986E0,1.779849529E0,-9.819732666E0,-2.305999249E-1
2.642879299E0,1.743553519E0,-9.831741333E0,-2.260413617E-1
2.644879299E0,1.729494810E0,-9.833292961E0,-2.181788236E-1
2.646879299E0,1.707458496E0,-9.833512306E0,-2.271331400E-1
2.648880861E0,1.670626044E0,-9.841921806E0,-2.308968008E-1
2.650907424E0,1.640794277E0,-9.848194122E0,-2.449459881E-1
2.652879299E0,1.622761250E0,-9.859341621E0,-2.593016326E-1
2.654883986E0,1.602046490E0,-9.867807388E0,-2.680356801E-1
2.656885549E0,1.583563328E0,-9.854457855E0,-2.870647907E-1
2.658890236E0,1.563385010E0,-9.842649460E0,-3.082965612E-1
2.660891799E0,1.546386123E0,-9.830764771E0,-3.317118585E-1
2.662879299E0,1.520681977E0,-9.836241722E0,-3.630759120E-1
2.664885549E0,1.497678518E0,-9.836835861E0,-3.861751854E-1
2.666879299E0,1.466592193E0,-9.837554932E0,-4.253538847E-1
2.668879299E0,1.424923420E0,-9.834288597E0,-4.550707042E-1
2.670902736E0,1.389824510E0,-9.831569672E0,-4.784381092E-1
2.672879299E0,1.347303510E0,-9.835313797E0,-4.891641140E-1
2.674935549E0,1.335964561E0,-9.841625214E0,-5.184308290E-1
2.676888674E0,1.316274643E0,-9.843731880E0,-5.408884883E-1
2.678890236E0,1.290560961E0,-9.842907906E0,-5.508483052E-1
2.680882424E0,1.254781961E0,-9.860126495E0,-5.617659092E-1
2.682879299E0,1.223283768E0,-9.883025169E0,-5.653476715E-1
2.684879299E0,1.201113582E0,-9.903386116E0,-5.806226134E-1
2.686879299E0,1.185599089E0,-9.926820755E0,-5.917317271E-1
2.688893361E0,1.167355299E0,-9.940170288E0,-5.931969881E-1
2.690887111E0,1.170649648E0,-9.953041077E0,-6.168134212E-1
2.692879299E0,1.169059992E0,-9.974474907E0,-5.982822776E-1
2.694879299E0,1.165219545E0,-9.992286682E0,-6.073994040E-1
2.696879299E0,1.169337630E0,-1.000373173E1,-6.056660414E-1
2.698890236E0,1.188376307E0,-1.003205967E1,-6.000444293E-1
2.700890236E0,1.199226975E0,-1.002761650E1,-5.919806957E-1
2.702885549E0,1.200471878E0,-1.002186966E1,-5.926032066E-1
2.704883986E0,1.212232232E0,-1.002341080E1,-5.874605179E-1
2.706879299E0,1.232257366E0,-9.989432335E0,-5.857079625E-1
2.708879299E0,1.257779598E0,-9.958298683E0,-6.021704674E-1
2.710893361E0,1.286088467E0,-9.931560516E0,-5.988568664E-1
2.712930861E0,1.326722860E0,-9.908604622E0,-6.045742035E-1
2.714912111E0,1.375555038E0,-9.879883766E0,-6.074568629E-1
2.716880861E0,1.412981153E0,-9.847006798E0,-6.076483727E-1
2.718887111E0,1.452724934E0,-9.812195778E0,-6.103298664E-1
2.720924611E0,1.512723684E0,-9.786835670E0,-6.231053472E-1
2.722890236E0,1.556853652E0,-9.765987396E0,-6.458598375E-1
2.724890236E0,1.633554220E0,-9.729969025E0,-6.666797996E-1
2.726880861E0,1.689434886E0,-9.721933365E0,-6.943376660E-1
2.728896486E0,1.752584338E0,-9.719434738E0,-7.056095600E-1
2.730912111E0,1.818185568E0,-9.718265533E0,-7.201853991E-1
2.732883986E0,1.879419565E0,-9.697464943E0,-7.290822864E-1
2.734879299E0,1.922390699E0,-9.686423302E0,-7.458704114E-1
2.736879299E0,2.002280474E0,-9.666973114E0,-7.593737245E-1
2.738880861E0,2.076615810E0,-9.662652969E0,-7.606378794E-1
2.740879299E0,2.146105051E0,-9.645759583E0,-7.771099806E-1
2.742880861E0,2.223294020E0,-9.635502815E0,-8.004390597E-1
2.744932424E0,2.262980223E0,-9.641488075E0,-8.164610863E-1
2.746887111E0,2.313411951E0,-9.643337250E0,-8.291790485E-1
2.748879299E0,2.360864639E0,-9.647052765E0,-8.478729725E-1
2.750908986E0,2.412129402E0,-9.636604309E0,-8.667201400E-1
2.752879299E0,2.485822916E0,-9.638931274E0,-9.094805717E-1
2.754882424E0,2.549700260E0,-9.626768112E0,-9.294099808E-1
2.756879299E0,2.601530075E0,-9.613074303E0,-9.363340139E-1
2.758893361E0,2.634876490E0,-9.593546867E0,-9.560909271E-1
2.760879299E0,2.671076775E0,-9.579316139E0,-9.755606055E-1
2.762890236E0,2.711711168E0,-9.560890198E0,-9.991578460E-1
2.764901174E0,2.770455360E0,-9.555182457E0,-1.022506118E0
2.766880861E0,2.823759794E0,-9.549839020E0,-1.044896603E0
2.768929299E0,2.862344742E0,-9.545375824E0,-1.054827809E0
2.770879299E0,2.901332140E0,-9.545145035E0,-1.082447290E0
2.772880861E0,2.916740894E0,-9.542904854E0,-1.091248393E0
2.774883986E0,2.932111740E0,-9.546247482E0,-1.115257502E0
2.776879299E0,2.968838930E0,-9.529755592E0,-1.138749361E0
2.778898049E0,3.004924297E0,-9.514423370E0,-1.157931805E0
2.780879299E0,3.040301085E0,-9.507221222E0,-1.186777115E0
2.782891799E0,3.054043770E0,-9.504099846E0,-1.195731282E0
2.784879299E0,3.072871685E0,-9.502653122E0,-1.228867054E0
2.786891799E0,3.074576378E0,-9.499292374E0,-1.243308902E0
2.788880861E0,3.091718674E0,-9.495528221E0,-1.272336245E0
2.790880861E0,3.087868929E0,-9.490874290E0,-1.300185561E0
2.792880861E0,3.105758429E0,-9.494542122E0,-1.341777682E0
2.794879299E0,3.116379261E0,-9.491065025E0,-1.364331007E0
2.796885549E0,3.138300419E0,-9.492751122E0,-1.404946327E0
2.798898049E0,3.142313242E0,-9.490606308E0,-1.431617618E0
2.800879299E0,3.139420986E0,-9.498181343E0,-1.472539425E0
2.802879299E0,3.184403181E0,-9.504827499E0,-1.550628662E0
2.804887111E0,3.190791130E0,-9.503984451E0,-1.579857111E0
2.806880861E0,3.192639112E0,-9.502931595E0,-1.589424372E0
2.808879299E0,3.199658871E0,-9.476959229E0,-1.596740961E0
2.810879299E0,3.209724426E0,-9.471691132E0,-1.614860296E0
2.812887111E0,3.213238955E0,-9.464011192E0,-1.626295090E0
2.814890236E0,3.230247259E0,-9.459509850E0,-1.625883222E0
2.816879299E0,3.242400408E0,-9.455315590E0,-1.624686122E0
2.818880861E0,3.249515772E0,-9.453237534E0,-1.625241518E0
2.820901174E0,3.266993761E0,-9.451733589E0,-1.621085167E0
2.822912111E0,3.287104845E0,-9.457345963E0,-1.631763458E0
2.824880861E0,3.313920021E0,-9.467487335E0,-1.620998979E0
2.826879299E0,3.325680256E0,-9.473358154E0,-1.609688878E0
2.828921486E0,3.360156775E0,-9.485635757E0,-1.590640664E0
2.830882424E0,3.381129980E0,-9.481383324E0,-1.571640134E0
2.832893361E0,3.406709671E0,-9.487311363E0,-1.574551463E0
2.834887111E0,3.428171158E0,-9.493776321E0,-1.555215955E0
2.836882424E0,3.481006384E0,-9.522850990E0,-1.515548825E0
2.838879299E0,3.496061325E0,-9.541286469E0,-1.494403243E0
2.840880861E0,3.528832912E0,-9.548124313E0,-1.471945643E0
2.842879299E0,3.566939116E0,-9.562230110E0,-1.453500748E0
2.844880861E0,3.599366188E0,-9.579075813E0,-1.439336538E0
2.846879299E0,3.633775711E0,-9.595280647E0,-1.427212358E0
2.848890236E0,3.645325184E0,-9.610622406E0,-1.413843155E0
2.850879299E0,3.665599346E0,-9.610411644E0,-1.397801995E0
2.852887111E0,3.680213690E0,-9.609099388E0,-1.384308219E0
2.854880861E0,3.683086634E0,-9.609961510E0,-1.379663587E0
2.856879299E0,3.682837725E0,-9.614031792E0,-1.363143563E0
2.858915236E0,3.669554710E0,-9.606724739E0,-1.355462909E0
2.860882424E0,3.647805691E0,-9.603430748E0,-1.341001987E0
2.862887111E0,3.619851112E0,-9.584095001E0,-1.339345217E0
2.864879299E0,3.575079441E0,-9.571002960E0,-1.334355593E0
2.866901174E0,3.529560804E0,-9.569691658E0,-1.321350336E0
2.868902736E0,3.512571573E0,-9.573273659E0,-1.312702537E0
2.870930861E0,3.462666988E0,-9.558466911E0,-1.309005857E0
2.872896486E0,3.419868231E0,-9.547204971E0,-1.315470219E0
2.874879299E0,3.396050453E0,-9.541746140E0,-1.313640952E0
2.876879299E0,3.363671303E0,-9.538040161E0,-1.325564146E0
2.878879299E0,3.325910091E0,-9.528032303E0,-1.334815264E0
2.880879299E0,3.288225412E0,-9.520083427E0,-1.357608199E0
2.882893361E0,3.250502110E0,-9.517967224E0,-1.371772170E0
2.884879299E0,3.221340895E0,-9.528251648E0,-1.384605050E0
2.886880861E0,3.196891308E0,-9.541228294E0,-1.392065406E0
2.888879299E0,3.163094759E0,-9.544694901E0,-1.407761812E0
2.890879299E0,3.144534826E0,-9.553841591E0,-1.426819682E0
2.892926174E0,3.131826401E0,-9.569892883E0,-1.437890530E0
2.894879299E0,3.120296240E0,-9.578262329E0,-1.457245231E0
2.896879299E0,3.103565454E0,-9.571980476E0,-1.475757241E0
2.898883986E0,3.095798492E0,-9.572841644E0,-1.493330717E0
2.900924611E0,3.083013535E0,-9.572688103E0,-1.498348832E0
2.902880861E0,3.076079845E0,-9.560113907E0,-1.506316781E0
2.904885549E0,3.067843676E0,-9.558897972E0,-1.509534597E0
2.906880861E0,3.057922363E0,-9.549416542E0,-1.522300482E0
2.908880861E0,3.037217379E0,-9.537723541E0,-1.533840537E0
2.910879299E0,3.022583961E0,-9.522497177E0,-1.539634466E0
2.912879299E0,3.010632038E0,-9.517602921E0,-1.531340957E0
2.914879299E0,2.993479967E0,-9.517440796E0,-1.538695931E0
2.916883986E0,2.974948645E0,-9.502711296E0,-1.539826035E0
2.918880861E0,2.959022760E0,-9.487195969E0,-1.538015962E0
2.920885549E0,2.949953318E0,-9.484649658E0,-1.534999251E0
2.922880861E0,2.948325396E0,-9.484869003E0,-1.532049656E0
2.924913674E0,2.934008121E0,-9.489763260E0,-1.519657254E0
2.926879299E0,2.904750824E0,-9.490614891E0,-1.486732125E0
2.928880861E0,2.888307333E0,-9.484486580E0,-1.464667201E0
2.930880861E0,2.857154131E0,-9.479812622E0,-1.441385984E0
2.932887111E0,2.835319042E0,-9.481450081E0,-1.421054482E0
2.934885549E0,2.827810764E0,-9.502242088E0,-1.405386806E0
2.936879299E0,2.819967270E0,-9.516252518E0,-1.382737637E0
2.938879299E0,2.814537287E0,-9.541104317E0,-1.346470356E0
2.940904299E0,2.804586887E0,-9.563782692E0,-1.315968156E0
2.942880861E0,2.796102047E0,-9.579564095E0,-1.285686255E0
2.944880861E0,2.780654430E0,-9.597444534E0,-1.258239150E0
2.946912111E0,2.781909227E0,-9.612556458E0,-1.237447858E0
2.948879299E0,2.765925646E0,-9.631978989E0,-1.212442875E0
2.950879299E0,2.736304522E0,-9.658238411E0,-1.187983751E0
2.952882424E0,2.714536428E0,-9.666177750E0,-1.153890252E0
2.954879299E0,2.700764894E0,-9.692743301E0,-1.136010408E0
2.956879299E0,2.692844629E0,-9.712845802E0,-1.120381117E0
2.958879299E0,2.680538654E0,-9.730389595E0,-1.077611089E0
2.960880861E0,2.660599947E0,-9.737677574E0,-1.068896174E0
2.962880861E0,2.588792801E0,-9.734258652E0,-1.009816885E0
2.964880861E0,2.544538260E0,-9.732429504E0,-9.957867861E-1
2.966880861E0,2.524417400E0,-9.722019196E0,-9.811151028E-1
2.968880861E0,2.492919445E0,-9.728474617E0,-9.606207609E-1
2.970926174E0,2.470165014E0,-9.733071327E0,-9.508619905E-1
2.972894924E0,2.435180902E0,-9.726464272E0,-9.405382276E-1
2.974902736E0,2.415567636E0,-9.720132828E0,-9.179081917E-1
2.976888674E0,2.388771772E0,-9.721857071E0,-8.876933455E-1
2.978887111E0,2.361889601E0,-9.718648911E0,-8.811236620E-1
2.980879299E0,2.347342253E0,-9.716331482E0,-8.804149628E-1
2.982879299E0,2.329376221E0,-9.713047028E0,-8.706083298E-1
2.984879299E0,2.311889172E0,-9.707837105E0,-8.693633676E-1
2.986879299E0,2.280438662E0,-9.705816269E0,-8.741422296E-1
2.988880861E0,2.269980907E0,-9.706323624E0,-8.739697933E-1
2.990879299E0,2.257291794E0,-9.706084251E0,-8.792945147E-1
2.992880861E0,2.257167339E0,-9.706859589E0,-8.687599897E-1
2.994879299E0,2.248777866E0,-9.711169243E0,-8.782889247E-1
2.996880861E0,2.250118732E0,-9.725112915E0,-8.862856030E-1
2.998879299E0,2.233704090E0,-9.720564842E0,-8.822442293E-1
3.000932424E0,2.236098051E0,-9.734240532E0,-8.914091587E-1
3.002924611E0,2.248883247E0,-9.742495537E0,-8.959485888E-1
3.004894924E0,2.252627611E0,-9.740579605E0,-8.979405761E-1
3.006882424E0,2.251737118E0,-9.735542297E0,-8.997601271E-1
3.008880861E0,2.251172066E0,-9.742543221E0,-8.913134336E-1
3.010898049E0,2.246019840E0,-9.748988152E0,-9.016563892E-1
3.012882424E0,2.247159481E0,-9.742485046E0,-8.937938213E-1
3.014890236E0,2.265374422E0,-9.737179756E0,-9.015797973E-1
3.016879299E0,2.268295527E0,-9.737668037E0,-8.903270364E-1
3.018879299E0,2.289201736E0,-9.737380981E0,-8.806256652E-1
3.020879299E0,2.300866127E0,-9.736777306E0,-8.743433356E-1
3.022924611E0,2.308671236E0,-9.740253448E0,-8.750902414E-1
3.024879299E0,2.306823015E0,-9.738462448E0,-8.686355352E-1
3.026882424E0,2.310136557E0,-9.729815483E0,-8.613476157E-1
3.028890236E0,2.317070007E0,-9.721560478E0,-8.473463058E-1
3.030893361E0,2.319856882E0,-9.723370552E0,-8.385164738E-1
3.032898049E0,2.322299004E0,-9.718897820E0,-8.301463723E-1
3.034879299E0,2.325124264E0,-9.718208313E0,-8.214027286E-1
3.036879299E0,2.333934784E0,-9.727805138E0,-8.212016225E-1
3.038879299E0,2.329931736E0,-9.726224899E0,-8.108490705E-1
3.040879299E0,2.328457117E0,-9.737361908E0,-7.901631594E-1
3.042882424E0,2.319607973E0,-9.732956886E0,-7.855376005E-1
3.044879299E0,2.314608812E0,-9.734498024E0,-7.666234374E-1
3.046879299E0,2.298883677E0,-9.738185883E0,-7.584735155E-1
3.048879299E0,2.303806067E0,-9.735226631E0,-7.537521124E-1
3.050879299E0,2.303279638E0,-9.734756470E0,-7.436677814E-1
3.052879299E0,2.305185318E0,-9.726023674E0,-7.463684082E-1
3.054921486E0,2.307627439E0,-9.722871780E0,-7.366670966E-1
3.056879299E0,2.299965858E0,-9.726702690E0,-7.364373207E-1
3.058879299E0,2.315298319E0,-9.734201431E0,-7.348666787E-1
3.060880861E0,2.328964710E0,-9.737524033E0,-7.357094884E-1
3.062879299E0,2.331607580E0,-9.737773895E0,-7.373853922E-1
3.064930861E0,2.330037117E0,-9.744592667E0,-7.564623952E-1
3.066879299E0,2.337008953E0,-9.745176315E0,-7.637886405E-1
3.068887111E0,2.358920574E0,-9.740349770E0,-7.620744109E-1
3.070879299E0,2.376589775E0,-9.723207474E0,-7.823389173E-1
3.072879299E0,2.396873474E0,-9.718840599E0,-7.819367051E-1
3.074879299E0,2.403108120E0,-9.699696541E0,-7.864856720E-1
3.076879299E0,2.425144196E0,-9.689142227E0,-8.024311066E-1
3.078891799E0,2.438743353E0,-9.684669495E0,-8.108873963E-1
3.080882424E0,2.469887257E0,-9.672814369E0,-8.213069439E-1
3.082879299E0,2.495687008E0,-9.680235863E0,-8.078515530E-1
3.084882424E0,2.498627186E0,-9.683559418E0,-8.028907180E-1
3.086894924E0,2.530623198E0,-9.688875198E0,-8.114045262E-1
3.088879299E0,2.556183815E0,-9.690560341E0,-8.106862903E-1
3.090879299E0,2.583018064E0,-9.690176964E0,-8.343122602E-1
3.092887111E0,2.599586010E0,-9.695511818E0,-8.339770436E-1
3.094879299E0,2.609267950E0,-9.699916840E0,-8.491467237E-1
3.096879299E0,2.633286715E0,-9.696287155E0,-8.695549369E-1
3.098880861E0,2.653666019E0,-9.678281784E0,-8.807981014E-1
3.100880861E0,2.678067923E0,-9.674548149E0,-8.922040462E-1
3.102893361E0,2.682405949E0,-9.660192490E0,-9.073928595E-1
3.104890236E0,2.691121101E0,-9.643050194E0,-9.323787689E-1
3.106891799E0,2.689454556E0,-9.627803802E0,-9.334800839E-1
3.108879299E0,2.679686308E0,-9.610918999E0,-9.340642691E-1
3.110924611E0,2.673289061E0,-9.602779388E0,-9.343037009E-1
3.112888674E0,2.665187120E0,-9.594245911E0,-9.415629506E-1
3.114896486E0,2.662572622E0,-9.585780144E0,-9.426833987E-1
3.116910549E0,2.659737825E0,-9.582524300E0,-9.349836707E-1
3.118879299E0,2.654643059E0,-9.566876411E0,-9.335375428E-1
3.120887111E0,2.643600941E0,-9.567238808E0,-9.343707561E-1
3.122908986E0,2.630643606E0,-9.565151215E0,-9.182434082E-1
3.124905861E0,2.622340441E0,-9.553343773E0,-9.147478342E-1
3.126930861E0,2.624475956E0,-9.565323830E0,-9.083122611E-1
3.128879299E0,2.628124714E0,-9.559462547E0,-9.136943817E-1
3.130879299E0,2.632472754E0,-9.566951752E0,-9.112427235E-1
3.132879299E0,2.632903576E0,-9.562479019E0,-9.042612314E-1
3.134879299E0,2.658511877E0,-9.589956284E0,-9.192298055E-1
3.136879299E0,2.672963381E0,-9.585397720E0,-9.329533577E-1
3.138879299E0,2.683354139E0,-9.587005615E0,-9.346579909E-1
3.140880861E0,2.706386566E0,-9.592963219E0,-9.444551468E-1
3.142880861E0,2.727742672E0,-9.595481873E0,-9.625648856E-1
3.144880861E0,2.742462158E0,-9.597330093E0,-9.746507406E-1
3.146890236E0,2.779170275E0,-9.594408989E0,-9.947716594E-1
3.148901174E0,2.804510593E0,-9.591708183E0,-1.008361101E0
3.150883986E0,2.818540573E0,-9.589007378E0,-1.020063996E0
3.152923049E0,2.832809925E0,-9.595596313E0,-1.026767850E0
3.154890236E0,2.860362291E0,-9.594054222E0,-1.037091494E0
3.156883986E0,2.892099857E0,-9.589362144E0,-1.041535139E0
3.158907424E0,2.926902056E0,-9.588681221E0,-1.049196601E0
3.160899611E0,2.951629400E0,-9.584066391E0,-1.071615934E0
3.162893361E0,2.978549719E0,-9.598182678E0,-1.057959437E0
3.164880861E0,2.978961468E0,-9.606609344E0,-1.044925451E0
3.166890236E0,2.985473633E0,-9.597348213E0,-1.052318692E0
3.168888674E0,2.995912313E0,-9.580350876E0,-1.060497284E0
3.170879299E0,3.004272938E0,-9.568579674E0,-1.046601295E0
3.172879299E0,3.005173445E0,-9.569854736E0,-1.030234575E0
3.174879299E0,3.015688419E0,-9.573809624E0,-1.011962056E0
3.176879299E0,3.028626919E0,-9.562048912E0,-1.003735542E0
3.178879299E0,3.031490326E0,-9.567296982E0,-9.789699316E-1
3.180879299E0,3.033903599E0,-9.566282272E0,-9.600557089E-1
3.182879299E0,3.028952360E0,-9.558707237E0,-9.513216615E-1
3.184885549E0,3.012988091E0,-9.546198845E0,-9.430664778E-1
3.186880861E0,3.001409769E0,-9.550757408E0,-9.388718009E-1
3.188879299E0,3.011963129E0,-9.543833733E0,-9.285384417E-1
3.190880861E0,3.003439903E0,-9.547376633E0,-9.225912690E-1
3.192879299E0,2.982208014E0,-9.542885780E0,-9.172665477E-1
3.194923049E0,2.962249994E0,-9.548986435E0,-9.065693021E-1
3.196885549E0,2.964356899E0,-9.545356750E0,-9.146041870E-1
3.198879299E0,2.950173616E0,-9.537081718E0,-9.308943748E-1
3.200879299E0,2.940462589E0,-9.545193672E0,-9.375693798E-1
3.202882424E0,2.922870159E0,-9.536718369E0,-9.389867783E-1
3.204879299E0,2.909749985E0,-9.539562225E0,-9.397146106E-1
3.206879299E0,2.900192499E0,-9.532753944E0,-9.395996928E-1
3.208879299E0,2.880827904E0,-9.530895233E0,-9.490328431E-1
3.210879299E0,2.859548330E0,-9.533576965E0,-9.467439651E-1
3.212890236E0,2.846035480E0,-9.530205727E0,-9.525954127E-1
3.214879299E0,2.835127354E0,-9.539150238E0,-9.494733214E-1
3.216879299E0,2.828452349E0,-9.546831131E0,-9.448477626E-1
3.218879299E0,2.807632685E0,-9.549982071E0,-9.452404380E-1
3.220879299E0,2.802259684E0,-9.539419174E0,-9.533902407E-1
3.222891799E0,2.797634363E0,-9.545816422E0,-9.587053657E-1
3.224918361E0,2.808676243E0,-9.547175407E0,-9.677554965E-1
3.226894924E0,2.802738667E0,-9.542291641E0,-9.671425819E-1
3.228879299E0,2.803389788E0,-9.534678459E0,-9.607931376E-1
3.230879299E0,2.783163786E0,-9.524852753E0,-9.561963081E-1
3.232898049E0,2.784360886E0,-9.521558762E0,-9.574029446E-1
3.234879299E0,2.763627052E0,-9.516502380E0,-9.694697261E-1
3.236879299E0,2.758589506E0,-9.504760742E0,-9.779164195E-1
3.238879299E0,2.759872913E0,-9.510008812E0,-9.753499031E-1
3.240879299E0,2.757220268E0,-9.504339218E0,-9.820249081E-1
3.242879299E0,2.743180513E0,-9.487339973E0,-9.851565361E-1
3.244879299E0,2.743094206E0,-9.483653069E0,-9.911995530E-1
3.246891799E0,2.723222494E0,-9.484572411E0,-1.000335813E0
3.248880861E0,2.704193354E0,-9.485549927E0,-1.004453778E0
3.250890236E0,2.683478832E0,-9.491928101E0,-9.983438253E-1
3.252879299E0,2.671565294E0,-9.488422394E0,-9.974148273E-1
3.254887111E0,2.660073042E0,-9.491726875E0,-9.931052923E-1
3.256887111E0,2.640459776E0,-9.493968010E0,-9.666445851E-1
3.258888674E0,2.630672216E0,-9.485769272E0,-9.514653087E-1
3.260890236E0,2.613366842E0,-9.486315727E0,-9.156672359E-1
3.262879299E0,2.594385624E0,-9.497328758E0,-9.080632329E-1
3.264880861E0,2.582970142E0,-9.512746811E0,-8.894171715E-1
3.266883986E0,2.565396786E0,-9.517018318E0,-8.790934086E-1
3.268888674E0,2.550083399E0,-9.537034035E0,-8.725715876E-1
3.270879299E0,2.538016558E0,-9.552405357E0,-8.422514200E-1
3.272879299E0,2.524810314E0,-9.568800926E0,-8.375779390E-1
3.274883986E0,2.515798330E0,-9.578712463E0,-8.259995580E-1
3.276885549E0,2.514697075E0,-9.596027374E0,-8.238161206E-1
3.278883986E0,2.506633282E0,-9.609798431E0,-8.192000985E-1
3.280887111E0,2.490984917E0,-9.614347458E0,-8.153309822E-1
3.282883986E0,2.492861986E0,-9.630752563E0,-8.089911342E-1
3.284879299E0,2.486933947E0,-9.635072708E0,-8.009658456E-1
3.286891799E0,2.457571507E0,-9.653804779E0,-7.895215750E-1
3.288879299E0,2.439145803E0,-9.664510727E0,-7.809981704E-1
3.290890236E0,2.427289486E0,-9.666618347E0,-7.737101912E-1
3.292879299E0,2.365327597E0,-9.697685242E0,-7.259985805E-1
3.294879299E0,2.348118067E0,-9.716876984E0,-7.134721279E-1
3.296927736E0,2.331827879E0,-9.733914375E0,-7.060405016E-1
3.298879299E0,2.324185610E0,-9.742475510E0,-7.027939558E-1
3.300891799E0,2.314321518E0,-9.741259575E0,-6.891948581E-1
3.302882424E0,2.294095516E0,-9.741498947E0,-6.845310330E-1
3.304879299E0,2.277393341E0,-9.754264832E0,-6.888405681E-1
3.306879299E0,2.256381750E0,-9.756477356E0,-6.787657738E-1
3.308879299E0,2.234719276E0,-9.769358635E0,-6.728472710E-1
3.310879299E0,2.213870287E0,-9.771953583E0,-6.654157043E-1
3.312883986E0,2.199361563E0,-9.785638809E0,-6.670150161E-1
3.314885549E0,2.206659079E0,-9.783895493E0,-6.557910442E-1
3.316891799E0,2.195090294E0,-9.773552895E0,-6.628777981E-1
3.318883986E0,2.198853970E0,-9.785293579E0,-6.578117013E-1
3.320893361E0,2.188635588E0,-9.777268410E0,-6.484456062E-1
3.322880861E0,2.189344168E0,-9.778216362E0,-6.420195103E-1
3.324885549E0,2.177899837E0,-9.776234627E0,-6.438008547E-1
3.326879299E0,2.177852154E0,-9.771407127E0,-6.494894624E-1
3.328882424E0,2.178886175E0,-9.763975143E0,-6.495181918E-1
3.330890236E0,2.160815001E0,-9.748883247E0,-6.480433345E-1
3.332879299E0,2.171464443E0,-9.740196228E0,-6.578978896E-1
3.334879299E0,2.170707703E0,-9.733521461E0,-6.684323549E-1
3.336879299E0,2.177076340E0,-9.721417427E0,-6.807194352E-1
3.338883986E0,2.166474819E0,-9.707223892E0,-6.909570098E-1
3.340890236E0,2.175160885E0,-9.699466705E0,-7.132230997E-1
3.342880861E0,2.175103426E0,-9.695090294E0,-7.204152942E-1
3.344879299E0,2.173293352E0,-9.683779716E0,-7.271860838E-1
3.346879299E0,2.173504114E0,-9.672095299E0,-7.403445840E-1
3.348879299E0,2.176156998E0,-9.659463882E0,-7.563474774E-1
3.350879299E0,2.186528683E0,-9.650442123E0,-7.654837370E-1
3.352879299E0,2.197618723E0,-9.649791718E0,-7.724843621E-1
3.354879299E0,2.213123560E0,-9.644629478E0,-7.721108794E-1
3.356879299E0,2.213429928E0,-9.634345055E0,-7.736144662E-1
3.358879299E0,2.209369421E0,-9.622698784E0,-7.788050771E-1
3.360882424E0,2.201822758E0,-9.620093346E0,-7.711819410E-1
3.362879299E0,2.207635880E0,-9.632065773E0,-7.585310340E-1
3.364879299E0,2.203575373E0,-9.644954681E0,-7.405361533E-1
3.366883986E0,2.199859619E0,-9.660479546E0,-7.231351137E-1
3.368907424E0,2.202675104E0,-9.670601845E0,-6.968659163E-1
3.370904299E0,2.183550358E0,-9.697349548E0,-6.802405715E-1
3.372887111E0,2.174385309E0,-9.726607323E0,-6.407745481E-1
3.374894924E0,2.169175625E0,-9.739947319E0,-6.229617596E-1
3.376880861E0,2.153699398E0,-9.760700226E0,-5.981194377E-1
3.378932424E0,2.138644457E0,-9.774395943E0,-5.841947794E-1
3.380879299E0,2.132122755E0,-9.778322220E0,-5.532233715E-1
3.382890236E0,2.118380070E0,-9.797005653E0,-5.328918695E-1
3.384885549E0,2.089036942E0,-9.807780266E0,-5.218498111E-1
3.386879299E0,2.077937365E0,-9.818918228E0,-5.228362083E-1
3.388879299E0,2.054234505E0,-9.821571350E0,-5.107023716E-1
3.390890236E0,2.042292356E0,-9.829376221E0,-5.014607310E-1
3.392910549E0,2.025465965E0,-9.843731880E0,-4.799608290E-1
3.394888674E0,2.001054764E0,-9.850310326E0,-4.799799919E-1
3.396879299E0,1.979277015E0,-9.860720634E0,-4.761588573E-1
3.398879299E0,1.955306292E0,-9.867002487E0,-4.654615521E-1
3.400885549E0,1.934361696E0,-9.866093636E0,-4.605199099E-1
3.402880861E0,1.908695936E0,-9.881301880E0,-4.688996375E-1
3.404924611E0,1.894809604E0,-9.897371292E0,-4.528872073E-1
3.406887111E0,1.880856037E0,-9.909706116E0,-4.380718768E-1
3.408891799E0,1.877130747E0,-9.922031403E0,-4.393839240E-1
3.410885549E0,1.863694429E0,-9.937354088E0,-4.299699068E-1
3.412885549E0,1.855831861E0,-9.955426216E0,-4.279395938E-1
3.414880861E0,1.834437370E0,-9.953798294E0,-4.210538864E-1
3.416879299E0,1.839369416E0,-9.952668190E0,-4.300656617E-1
3.418880861E0,1.832033515E0,-9.949891090E0,-4.204888642E-1
3.420882424E0,1.836841106E0,-9.945963860E0,-4.302093089E-1
3.422882424E0,1.855075359E0,-9.943426132E0,-4.221647978E-1
3.424913674E0,1.867218733E0,-9.946884155E0,-4.411077201E-1
3.426879299E0,1.865360856E0,-9.948195457E0,-4.541704655E-1
3.428880861E0,1.879955888E0,-9.932383537E0,-4.546780586E-1
3.430929299E0,1.885673165E0,-9.918679237E0,-4.603571296E-1
3.432885549E0,1.895508647E0,-9.905559540E0,-4.747127295E-1
3.434891799E0,1.897644281E0,-9.905386925E0,-4.897866249E-1
3.436880861E0,1.902978539E0,-9.899574280E0,-4.881968796E-1
3.438879299E0,1.915294290E0,-9.895082474E0,-4.962892830E-1
3.440926174E0,1.944541812E0,-9.878351212E0,-4.956093132E-1
3.442904299E0,1.955622315E0,-9.858365059E0,-4.981950819E-1
3.444902736E0,1.966779232E0,-9.844583511E0,-5.061917305E-1
3.446879299E0,1.954473019E0,-9.827737808E0,-5.170518160E-1
3.448880861E0,1.950766802E0,-9.812980652E0,-5.165825486E-1
3.450879299E0,1.972180486E0,-9.799669266E0,-5.310626626E-1
3.452898049E0,1.986737251E0,-9.786959648E0,-5.447670817E-1
3.454890236E0,1.997338891E0,-9.772221565E0,-5.645527244E-1
3.456879299E0,2.010813236E0,-9.763009071E0,-5.807279944E-1
3.458879299E0,2.015707254E0,-9.758727074E0,-6.088550687E-1
3.460879299E0,2.043901205E0,-9.748547554E0,-6.365416050E-1
3.462879299E0,2.114530325E0,-9.689353943E0,-6.907942295E-1
3.464879299E0,2.126970530E0,-9.675524712E0,-7.250887156E-1
3.466880861E0,2.145549536E0,-9.648287773E0,-7.556483746E-1
3.468879299E0,2.156036139E0,-9.644054413E0,-7.666521072E-1
3.470896486E0,2.174031019E0,-9.641411781E0,-7.766885757E-1
3.472904299E0,2.191546917E0,-9.642503738E0,-7.816014886E-1
3.474880861E0,2.204149961E0,-9.637964249E0,-7.916188240E-1
3.476882424E0,2.216245413E0,-9.625638962E0,-7.907474041E-1
3.478879299E0,2.240752459E0,-9.627985001E0,-7.895981669E-1
3.480879299E0,2.259551764E0,-9.632410049E0,-8.000081182E-1
3.482879299E0,2.274194717E0,-9.630973816E0,-7.972308397E-1
3.484879299E0,2.276943445E0,-9.622430801E0,-8.166430593E-1
3.486890236E0,2.297437668E0,-9.632956505E0,-8.341111541E-1
3.488879299E0,2.320460320E0,-9.637945175E0,-8.384877443E-1
3.490879299E0,2.353222609E0,-9.645194054E0,-8.373576403E-1
3.492898049E0,2.373898983E0,-9.655815125E0,-8.211920261E-1
3.494927736E0,2.393129110E0,-9.673609734E0,-8.140094280E-1
3.496888674E0,2.422041416E0,-9.694476128E0,-8.086368442E-1
3.498880861E0,2.447333813E0,-9.711955070E0,-8.102074862E-1
3.500885549E0,2.467579126E0,-9.729211807E0,-8.100541830E-1
3.502880861E0,2.481771946E0,-9.757550240E0,-8.027949929E-1
3.504879299E0,2.496453285E0,-9.775353432E0,-7.854130864E-1
3.506891799E0,2.518317223E0,-9.791011810E0,-7.833540440E-1
3.508887111E0,2.540927887E0,-9.802235603E0,-7.725801468E-1
3.510888674E0,2.553942919E0,-9.823199272E0,-7.709521055E-1
3.512926174E0,2.566670418E0,-9.833982468E0,-7.564336658E-1
3.514879299E0,2.583439350E0,-9.838694572E0,-7.551790476E-1
3.516879299E0,2.598618746E0,-9.850435257E0,-7.523922920E-1
3.518879299E0,2.613558292E0,-9.849065781E0,-7.478623986E-1
3.520879299E0,2.629044294E0,-9.840839386E0,-7.486860156E-1
3.522888674E0,2.615167379E0,-9.846326828E0,-7.287088037E-1
3.524885549E0,2.611001492E0,-9.834154129E0,-7.262475491E-1
3.526879299E0,2.603349686E0,-9.811121941E0,-7.385824919E-1
3.528883986E0,2.588582039E0,-9.796537399E0,-7.447499633E-1
3.530885549E0,2.577856302E0,-9.781874657E0,-7.501034141E-1
3.532887111E0,2.576706886E0,-9.782976151E0,-7.530052066E-1
3.534880861E0,2.558338642E0,-9.758928299E0,-7.491074204E-1
3.536927736E0,2.537930489E0,-9.740646362E0,-7.506301403E-1
3.538894924E0,2.526725531E0,-9.722278595E0,-7.420205474E-1
3.540891799E0,2.513404369E0,-9.703421593E0,-7.371172309E-1
3.542885549E0,2.489050388E0,-9.681289673E0,-7.252707481E-1
3.544893361E0,2.477692366E0,-9.661915779E0,-7.311030030E-1
3.546888674E0,2.464505196E0,-9.651448250E0,-7.363128066E-1
3.548879299E0,2.449239492E0,-9.636249542E0,-7.340909243E-1
3.550888674E0,2.425699711E0,-9.619414330E0,-7.305188179E-1
3.552879299E0,2.418296814E0,-9.611579895E0,-7.297814488E-1
3.554879299E0,2.416036844E0,-9.622248650E0,-7.313137054E-1
3.556879299E0,2.409907818E0,-9.622717857E0,-7.309114933E-1
3.558879299E0,2.404171228E0,-9.626261711E0,-7.403445840E-1
3.560880861E0,2.398156881E0,-9.620553970E0,-7.425664663E-1
3.562893361E0,2.395379543E0,-9.631758690E0,-7.408713102E-1
3.564891799E0,2.408116817E0,-9.633271217E0,-7.519708872E-1
3.566879299E0,2.399698734E0,-9.645893097E0,-7.564336658E-1
3.568882424E0,2.398827314E0,-9.649303436E0,-7.605133653E-1
3.570879299E0,2.398386717E0,-9.657347679E0,-7.480156422E-1
3.572888674E0,2.397189617E0,-9.648547173E0,-7.514537573E-1
3.574896486E0,2.399584055E0,-9.648307800E0,-7.423940301E-1
3.576879299E0,2.414743900E0,-9.646946907E0,-7.416375279E-1
3.578879299E0,2.420499563E0,-9.649763107E0,-7.303943634E-1
3.580879299E0,2.421323299E0,-9.643998146E0,-7.089806199E-1
3.582879299E0,2.417559624E0,-9.637515068E0,-6.923744082E-1
3.584910549E0,2.424684525E0,-9.638308525E0,-6.841766238E-1
3.586890236E0,2.410759926E0,-9.639554024E0,-6.735751629E-1
3.588880861E0,2.395733833E0,-9.645759583E0,-6.523146629E-1
3.590915236E0,2.386846781E0,-9.640990257E0,-6.516825557E-1
3.592932424E0,2.384806871E0,-9.654962540E0,-6.264189482E-1
3.594880861E0,2.375603437E0,-9.665946960E0,-5.932544470E-1
3.596888674E0,2.379616261E0,-9.663256645E0,-5.709979534E-1
3.598885549E0,2.368420839E0,-9.665008545E0,-5.441541672E-1
3.600880861E0,2.359830618E0,-9.675974846E0,-5.091700554E-1
3.602879299E0,2.357780933E0,-9.685130119E0,-4.919413924E-1
3.604923049E0,2.349219561E0,-9.690157890E0,-4.767334163E-1
3.606891799E0,2.344134092E0,-9.691690445E0,-4.543620348E-1
3.608880861E0,2.310586691E0,-9.681146622E0,-4.324215651E-1
3.610932424E0,2.290130615E0,-9.673082352E0,-4.170316160E-1
3.612888674E0,2.274041414E0,-9.678110123E0,-4.006265700E-1
3.614896486E0,2.255730629E0,-9.681146622E0,-3.878319263E-1
3.616929299E0,2.237390995E0,-9.673436165E0,-3.754587173E-1
3.618879299E0,2.218735456E0,-9.666733742E0,-3.663607538E-1
3.620880861E0,2.201937675E0,-9.650394440E0,-3.609594107E-1
3.622879299E0,2.148307562E0,-9.613494873E0,-3.439797461E-1
3.624879299E0,2.125754118E0,-9.610373497E0,-3.465942144E-1
3.626880861E0,2.099236012E0,-9.601811409E0,-3.491320908E-1
3.628879299E0,2.091699123E0,-9.601026535E0,-3.513730466E-1
3.630879299E0,2.081116676E0,-9.602578163E0,-3.550984263E-1
3.632879299E0,2.073732853E0,-9.606618881E0,-3.714460135E-1
3.634898049E0,2.067316532E0,-9.615640640E0,-3.760045767E-1
3.636887111E0,2.063275099E0,-9.603401184E0,-3.769048154E-1
3.638879299E0,2.059214592E0,-9.594467163E0,-3.956370652E-1
3.640882424E0,2.058888912E0,-9.613782883E0,-3.802183867E-1
3.642891799E0,2.049331188E0,-9.628789902E0,-4.024461806E-1
3.644879299E0,2.050853968E0,-9.633960724E0,-4.044955671E-1
3.646880861E0,2.053708076E0,-9.652990341E0,-4.002434909E-1
3.648882424E0,2.059885025E0,-9.680772781E0,-4.001668692E-1
3.650880861E0,2.056877851E0,-9.685857773E0,-3.975045085E-1
3.652890236E0,2.064453125E0,-9.702118874E0,-3.963744640E-1
3.654879299E0,2.046994686E0,-9.716992378E0,-3.996114135E-1
3.656894924E0,2.062499523E0,-9.724308968E0,-3.956561983E-1
3.658879299E0,2.069557667E0,-9.728474617E0,-3.923138976E-1
3.660879299E0,2.080887079E0,-9.744429588E0,-3.936067522E-1
3.662879299E0,2.100567102E0,-9.751976967E0,-3.928980827E-1
3.664882424E0,2.110335350E0,-9.761044502E0,-3.900441825E-1
3.666879299E0,2.117566109E0,-9.762769699E0,-3.888758123E-1
3.668879299E0,2.131174803E0,-9.757904053E0,-3.914807141E-1
3.670888674E0,2.136326790E0,-9.756266594E0,-3.982515335E-1
3.672879299E0,2.141297340E0,-9.760739326E0,-3.921893835E-1
3.674879299E0,2.142666817E0,-9.766369820E0,-3.773549199E-1
3.676927736E0,2.131787539E0,-9.773619652E0,-3.703734279E-1
3.678893361E0,2.138845682E0,-9.773744583E0,-3.658723235E-1
3.680907424E0,2.142264605E0,-9.767672539E0,-3.752001226E-1
3.682901174E0,2.123072863E0,-9.765977859E0,-3.655179739E-1
3.684879299E0,2.115190983E0,-9.763210297E0,-3.529819250E-1
3.686880861E0,2.115334749E0,-9.749189377E0,-3.561423123E-1
3.688879299E0,2.116819143E0,-9.739574432E0,-3.514401019E-1
3.690879299E0,2.108899117E0,-9.726846695E0,-3.563434184E-1
3.692879299E0,2.098374128E0,-9.732861519E0,-3.453587890E-1
3.694879299E0,2.095855474E0,-9.717011452E0,-3.319417238E-1
3.696890236E0,2.099274397E0,-9.707309723E0,-3.463356197E-1
3.698880861E0,2.087140560E0,-9.708257675E0,-3.411258459E-1
3.700890236E0,2.078684330E0,-9.711925507E0,-3.279481828E-1
3.702879299E0,2.084612370E0,-9.704705238E0,-3.219435215E-1
3.704879299E0,2.083597183E0,-9.692772865E0,-3.372472525E-1
3.706880861E0,2.077803135E0,-9.677659988E0,-3.394307494E-1
3.708921486E0,2.065717220E0,-9.673800468E0,-3.304955959E-1
3.710885549E0,2.049302578E0,-9.685982704E0,-3.230927289E-1
3.712879299E0,2.054684877E0,-9.687046051E0,-3.222116828E-1
3.714894924E0,2.048038244E0,-9.679317474E0,-3.194727004E-1
3.716888674E0,2.040376902E0,-9.678081512E0,-3.134010136E-1
3.718882424E0,2.041688919E0,-9.652080536E0,-3.075208366E-1
3.720879299E0,2.048345089E0,-9.642580032E0,-3.019567132E-1
3.722880861E0,2.041938066E0,-9.639391899E0,-2.909146845E-1
3.724880861E0,2.033548594E0,-9.657166481E0,-2.821231484E-1
3.726879299E0,2.022985458E0,-9.664683342E0,-2.687730789E-1
3.728879299E0,2.034439325E0,-9.676769257E0,-2.516784966E-1
3.730888674E0,2.033519983E0,-9.687791824E0,-2.377154976E-1
3.732880861E0,2.019537926E0,-9.711839676E0,-2.155547589E-1
3.734880861E0,2.015467882E0,-9.721732140E0,-2.065334171E-1
3.736880861E0,1.998162508E0,-9.745195389E0,-2.029708475E-1
3.738880861E0,1.994130611E0,-9.757051468E0,-1.874851584E-1
3.740880861E0,1.993872046E0,-9.768926620E0,-1.772379577E-1
3.742880861E0,1.979487658E0,-9.770219803E0,-1.578640938E-1
3.744883986E0,1.957556725E0,-9.781338692E0,-1.582471579E-1
3.746879299E0,1.931527019E0,-9.776827812E0,-1.424933076E-1
3.748879299E0,1.910323977E0,-9.783522606E0,-1.226310134E-1
3.750890236E0,1.891716242E0,-9.803815842E0,-1.115410700E-1
3.752879299E0,1.875818729E0,-9.809188843E0,-1.052586809E-1
3.754882424E0,1.862937808E0,-9.823131561E0,-1.147301495E-1
3.756879299E0,1.832340002E0,-9.836941719E0,-1.204666495E-1
3.758890236E0,1.808924675E0,-9.853404045E0,-1.199016199E-1
3.760880861E0,1.795239449E0,-9.862952232E0,-1.185991764E-1
3.762904299E0,1.791600347E0,-9.868200302E0,-1.119911820E-1
3.764880861E0,1.783708930E0,-9.888426781E0,-1.018206105E-1
3.766896486E0,1.781736255E0,-9.910902977E0,-9.757808596E-2
3.768891799E0,1.775712371E0,-9.927653313E0,-9.711840004E-2
3.770890236E0,1.776899934E0,-9.949507713E0,-1.060056761E-1
3.772880861E0,1.768692493E0,-9.954602242E0,-9.906249493E-2
3.774882424E0,1.766509056E0,-9.965003014E0,-9.758765996E-2
3.776880861E0,1.759632945E0,-9.978055954E0,-1.033720523E-1
3.778883986E0,1.763645649E0,-9.975805283E0,-8.630618453E-2
3.780905861E0,1.772609472E0,-9.992373466E0,-8.590395004E-2
3.782923049E0,1.801454782E0,-9.997908592E0,-7.430644333E-2
3.784880861E0,1.787712216E0,-9.989509583E0,-6.910623610E-2
3.786880861E0,1.785222173E0,-9.979147911E0,-6.121494994E-2
3.788891799E0,1.781037092E0,-9.962091446E0,-5.696284771E-2
3.790880861E0,1.790192485E0,-9.953060150E0,-6.116706505E-2
3.792879299E0,1.788200617E0,-9.939173698E0,-6.529466808E-2
3.794879299E0,1.779638767E0,-9.844957352E0,-7.308061421E-2
3.796896486E0,1.759709477E0,-9.812520981E0,-9.439858049E-2
3.798880861E0,1.754461408E0,-9.784212112E0,-1.033720523E-1
3.800883986E0,1.726190686E0,-9.760451317E0,-1.181969494E-1
3.802879299E0,1.704470515E0,-9.755088806E0,-1.218840182E-1
3.804879299E0,1.697565675E0,-9.744304657E0,-1.379539073E-1
3.806924611E0,1.697297454E0,-9.730084419E0,-1.510453969E-1
3.808885549E0,1.676027298E0,-9.708929062E0,-1.607945859E-1
3.810915236E0,1.641943455E0,-9.693078995E0,-1.849664450E-1
3.812890236E0,1.624599934E0,-9.697723389E0,-2.181692421E-1
3.814879299E0,1.598895788E0,-9.696908951E0,-2.293549478E-1
3.816880861E0,1.572856426E0,-9.689688683E0,-2.514390647E-1
3.818879299E0,1.552840948E0,-9.712021828E0,-2.794033587E-1
3.820879299E0,1.546357393E0,-9.716474533E0,-2.879171073E-1
3.822896486E0,1.524886250E0,-9.731002808E0,-3.057012558E-1
3.824879299E0,1.519618988E0,-9.731616020E0,-3.152493238E-1
3.826879299E0,1.502763748E0,-9.742256165E0,-3.295474946E-1
3.828879299E0,1.489001989E0,-9.754120827E0,-3.336751163E-1
3.830880861E0,1.478477001E0,-9.753134727E0,-3.400340974E-1
3.832879299E0,1.467779636E0,-9.759484291E0,-3.472262919E-1
3.834879299E0,1.450560689E0,-9.759493828E0,-3.370940387E-1
3.836880861E0,1.447965384E0,-9.774433136E0,-3.300837874E-1
3.838880861E0,1.428591490E0,-9.792773247E0,-3.328610957E-1
3.840880861E0,1.420594811E0,-9.790389061E0,-3.156419694E-1
3.842880861E0,1.401565671E0,-9.805921555E0,-3.197121322E-1
3.844880861E0,1.395522714E0,-9.832526207E0,-3.123092353E-1
3.846880861E0,1.383159041E0,-9.860327721E0,-2.851398289E-1
3.848890236E0,1.395742893E0,-9.887641907E0,-2.521285713E-1
3.850879299E0,1.401422024E0,-9.907666206E0,-2.351393402E-1
3.852879299E0,1.401709318E0,-9.939920425E0,-2.098278403E-1
3.854882424E0,1.413804770E0,-9.974176407E0,-1.865274608E-1
3.856879299E0,1.424693584E0,-9.990879059E0,-1.562934816E-1
3.858879299E0,1.458585978E0,-1.001278114E1,-1.191833541E-1
3.860893361E0,1.483466506E0,-1.002406216E1,-7.776366919E-2
3.862933986E0,1.488848686E0,-1.004917240E1,-4.368939251E-2
3.864888674E0,1.503960967E0,-1.006749344E1,-1.326387748E-2
3.866879299E0,1.523593426E0,-1.007505989E1,1.307234075E-2
3.868880861E0,1.528688192E0,-1.007353592E1,3.443819657E-2
3.870880861E0,1.537996769E0,-1.007304764E1,6.076483801E-2
3.872879299E0,1.560837507E0,-1.008097744E1,9.384313226E-2
3.874879299E0,1.572760582E0,-1.005981350E1,1.067143530E-1
3.876879299E0,1.586589575E0,-1.004262352E1,1.223245561E-1
3.878879299E0,1.590927839E0,-1.002102757E1,1.313267499E-1
3.880879299E0,1.598484039E0,-1.000520611E1,1.445906162E-1
3.882879299E0,1.608022451E0,-9.970729828E0,1.532959491E-1
3.884879299E0,1.617570519E0,-9.957685471E0,1.503846049E-1
3.886880861E0,1.606997848E0,-9.937832832E0,1.616948098E-1
3.888893361E0,1.600447297E0,-9.913134575E0,1.584578454E-1
3.890883986E0,1.585756302E0,-9.899315834E0,1.424454153E-1
3.892910549E0,1.578525901E0,-9.868506432E0,1.164635494E-1
3.894879299E0,1.549604058E0,-9.849449158E0,1.094916314E-1
3.896880861E0,1.518134475E0,-9.837966919E0,1.061397493E-1
3.898894924E0,1.498990536E0,-9.823725700E0,8.940906823E-2
3.900907424E0,1.474406838E0,-9.811495781E0,7.307104021E-2
3.902912111E0,1.457743168E0,-9.820651054E0,5.406107381E-2
3.904904299E0,1.430209994E0,-9.825391769E0,2.876872756E-2
3.906879299E0,1.411266923E0,-9.813679695E0,4.309563083E-4
3.908883986E0,1.403557658E0,-9.812971115E0,-1.448013168E-2
3.910879299E0,1.389154196E0,-9.812080383E0,-2.777273953E-2
3.912880861E0,1.381119132E0,-9.823199272E0,-5.015373603E-2
3.914913674E0,1.378006697E0,-9.829796791E0,-6.658753753E-2
3.916883986E0,1.360232234E0,-9.815479279E0,-8.259038627E-2
3.918883986E0,1.364340544E0,-9.819559097E0,-8.577945828E-2
3.920907424E0,1.363181829E0,-9.829605103E0,-9.763554484E-2
3.922912111E0,1.358096600E0,-9.834288597E0,-1.236269996E-1
3.924904299E0,1.362051725E0,-9.831665039E0,-1.405971050E-1
3.926879299E0,1.358546615E0,-9.852810860E0,-1.421868503E-1
3.928910549E0,1.355280995E0,-9.856718063E0,-1.569447219E-1
3.930879299E0,1.364704609E0,-9.849075317E0,-1.762802899E-1
3.932887111E0,1.372318149E0,-9.860567093E0,-1.806089878E-1
3.934879299E0,1.374587774E0,-9.864771843E0,-1.777551174E-1
3.936879299E0,1.384662628E0,-9.876311302E0,-1.850047559E-1
3.938880861E0,1.392180443E0,-9.872988701E0,-1.931833476E-1
3.940923049E0,1.399822712E0,-9.875861168E0,-1.911626458E-1
3.942885549E0,1.415614843E0,-9.889882088E0,-1.871787012E-1
3.944879299E0,1.438589573E0,-9.907732964E0,-1.939111799E-1
3.946907424E0,1.460597157E0,-9.920345306E0,-2.010554820E-1
3.948879299E0,1.501691103E0,-9.942660332E0,-2.083913088E-1
3.950907424E0,1.529818296E0,-9.970709801E0,-2.040626109E-1
3.952879299E0,1.673096895E0,-1.002765465E1,-1.862210035E-1
3.954879299E0,1.719640136E0,-1.003008652E1,-1.813847125E-1
3.956879299E0,1.756788611E0,-1.004255581E1,-1.617043763E-1
3.958896486E0,1.782617211E0,-1.005529308E1,-1.519073099E-1
3.960879299E0,1.809872746E0,-1.004805279E1,-1.409418583E-1
3.962879299E0,1.841313481E0,-1.003576565E1,-1.302637309E-1
3.964879299E0,1.871691108E0,-1.003091049E1,-1.152377203E-1
3.966880861E0,1.903562784E0,-1.001857567E1,-8.830773830E-2
3.968927736E0,1.940701485E0,-1.000208378E1,-7.838616520E-2
3.970908986E0,1.961215138E0,-9.992938042E0,-5.721184611E-2
3.972879299E0,1.973214865E0,-9.983332634E0,-2.864423022E-2
3.974880861E0,1.991851330E0,-9.964648247E0,-9.921572171E-3
3.976902736E0,2.003898859E0,-9.943560600E0,-6.885724142E-3
3.978879299E0,2.011838198E0,-9.912320137E0,4.759673029E-3
3.980891799E0,2.008668184E0,-9.882048607E0,-8.264783770E-3
3.982891799E0,2.011100769E0,-9.865556717E0,3.974374849E-3
3.984879299E0,2.014270544E0,-9.854113579E0,8.370129392E-3
3.986879299E0,2.014060020E0,-9.825410843E0,3.524264786E-3
3.988880861E0,1.996697187E0,-9.803394318E0,-2.011129400E-4
3.990890236E0,1.979315281E0,-9.783800125E0,-1.086009853E-2
3.992879299E0,1.976844430E0,-9.756257057E0,-6.052541547E-3
3.994879299E0,1.959184766E0,-9.741498947E0,-1.890461706E-2
3.996880861E0,1.931057692E0,-9.719491005E0,-2.561795898E-2
3.998896486E0,1.913551450E0,-9.723446846E0,-3.196737915E-2
4.000905861E0,1.895863056E0,-9.719626427E0,-5.240428448E-2
4.002888674E0,1.882053256E0,-9.715201378E0,-7.411490381E-2
4.004879299E0,1.869747043E0,-9.707357407E0,-9.152553976E-2
4.006898049E0,1.859049678E0,-9.710068703E0,-1.167508513E-1
4.008918361E0,1.864010453E0,-9.705021858E0,-1.300147176E-1
4.010896486E0,1.848208785E0,-9.703383446E0,-1.495322585E-1
4.012887111E0,1.829773426E0,-9.698585510E0,-1.750161499E-1
4.014879299E0,1.811156154E0,-9.697168350E0,-1.828691214E-1
4.016882424E0,1.803609610E0,-9.704724312E0,-1.891994029E-1
4.018880861E0,1.807478666E0,-9.709531784E0,-1.975120753E-1
4.020901174E0,1.820196629E0,-9.710039139E0,-2.178819329E-1
4.022879299E0,1.805256844E0,-9.718869209E0,-2.307148576E-1
4.024880861E0,1.795306563E0,-9.716436386E0,-2.363364398E-1
4.026888674E0,1.782109618E0,-9.725573540E0,-2.551165521E-1
4.028879299E0,1.771900773E0,-9.732506752E0,-2.854367495E-1
4.030879299E0,1.766872883E0,-9.761801720E0,-2.800449729E-1
4.032888674E0,1.757813334E0,-9.776003838E0,-2.827839553E-1
4.034893361E0,1.724418998E0,-9.769386292E0,-2.797193527E-1
4.036912111E0,1.702229500E0,-9.782315254E0,-2.751320899E-1
4.038880861E0,1.677808762E0,-9.795857430E0,-2.656989098E-1
4.040885549E0,1.667571068E0,-9.808144569E0,-2.479914129E-1
4.042880861E0,1.660733223E0,-9.809082985E0,-2.247772366E-1
4.044883986E0,1.620797992E0,-9.818142891E0,-2.186959535E-1
4.046902736E0,1.582797170E0,-9.839766502E0,-1.973588467E-1
4.048933986E0,1.561613321E0,-9.851134300E0,-1.717025787E-1
4.050882424E0,1.528238177E0,-9.855175972E0,-1.461803764E-1
4.052885549E0,1.493866920E0,-9.863430977E0,-1.444757134E-1
4.054879299E0,1.453155875E0,-9.873017311E0,-1.359427869E-1
4.056879299E0,1.408681273E0,-9.870604515E0,-1.204091981E-1
4.058880861E0,1.383982658E0,-9.865288734E0,-9.891884029E-2
4.060891799E0,1.352283478E0,-9.873027802E0,-9.565314651E-2
4.062879299E0,1.328437090E0,-9.876502991E0,-1.068005487E-1
4.064887111E0,1.315700054E0,-9.882326126E0,-1.045787260E-1
4.066885549E0,1.309848666E0,-9.881292343E0,-1.143183410E-1
4.068879299E0,1.298002124E0,-9.882680893E0,-1.288750917E-1
4.070933986E0,1.286088467E0,-9.881856918E0,-1.491013020E-1
4.072891799E0,1.282755852E0,-9.881157875E0,-1.778029948E-1
4.074885549E0,1.280476570E0,-9.879702568E0,-1.898793429E-1
4.076901174E0,1.280629754E0,-9.876426697E0,-1.850047559E-1
4.078879299E0,1.278350472E0,-9.868659973E0,-1.871787012E-1
4.080887111E0,1.262117743E0,-9.867702484E0,-1.869105399E-1
4.082923049E0,1.256093979E0,-9.881052971E0,-1.904635280E-1
4.084913674E0,1.248403788E0,-9.888195992E0,-1.877054125E-1
4.086885549E0,1.247829199E0,-9.890877724E0,-1.978664100E-1
4.088891799E0,1.250941634E0,-9.895762444E0,-1.865466088E-1
