"Time (s)","Gyroscope x (rad/s)","Gyroscope y (rad/s)","Gyroscope z (rad/s)"
1.256475000E-2,7.086036727E-3,-6.707125902E-1,-2.290046513E-1
1.653662500E-2,-1.370083392E-1,-8.280365467E-1,-2.651678622E-1
2.050693800E-2,-2.818183005E-1,-9.939126372E-1,-2.909987569E-1
2.447725000E-2,-4.238706529E-1,-1.154866934E0,-3.091676235E-1
2.844756300E-2,-5.516636968E-1,-1.289868116E0,-3.203900754E-1
3.241787500E-2,-6.727895141E-1,-1.406072140E0,-3.227113783E-1
3.638818800E-2,-7.791498899E-1,-1.506795049E0,-3.201631904E-1
4.035850000E-2,-8.739038110E-1,-1.581844211E0,-3.105987906E-1
4.433037500E-2,-9.551838040E-1,-1.638899088E0,-2.971248627E-1
4.829912500E-2,-1.014472604E0,-1.671676397E0,-2.836683691E-1
5.227100000E-2,-1.053428411E0,-1.689566016E0,-2.721841037E-1
5.624131300E-2,-1.067041993E0,-1.683841348E0,-2.646617293E-1
6.021162500E-2,-1.053585410E0,-1.656910896E0,-2.631607354E-1
6.418193800E-2,-1.013791919E0,-1.604132056E0,-2.656216621E-1
6.815225000E-2,-9.528450370E-1,-1.531823158E0,-2.727425992E-1
7.212256300E-2,-8.698022962E-1,-1.437226295E0,-2.840872407E-1
7.609443800E-2,-7.682241201E-1,-1.323448300E0,-2.977357209E-1
8.006475000E-2,-6.939603686E-1,-1.252936959E0,-2.892883122E-1
8.403506300E-2,-6.276727319E-1,-1.166281343E0,-2.730393112E-1
8.800537500E-2,-5.443507433E-1,-1.044649363E0,-2.657961845E-1
9.197568800E-2,-4.408527017E-1,-9.130864739E-1,-2.616423070E-1
9.594600000E-2,-3.172484934E-1,-7.811046243E-1,-2.596700788E-1
9.991787500E-2,-1.897172928E-1,-6.532069445E-1,-2.615550458E-1
1.038881880E-1,-5.304055661E-2,-5.407727957E-1,-2.637192607E-1
1.078569380E-1,6.721262634E-2,-4.628613293E-1,-2.542071939E-1
1.118288130E-1,1.593834609E-1,-4.083895981E-1,-2.342580855E-1
1.157991250E-1,2.371378839E-1,-3.520678282E-1,-2.021265775E-1
1.197678750E-1,2.927964330E-1,-2.983640432E-1,-1.646543592E-1
1.237397500E-1,3.333404362E-1,-2.446427941E-1,-1.276708394E-1
1.277100630E-1,3.619638383E-1,-1.947962046E-1,-8.895943314E-2
1.316819380E-1,3.790855110E-1,-1.572541595E-1,-5.897467583E-2
1.356522500E-1,3.877598047E-1,-1.248957589E-1,-3.731513768E-2
1.396225630E-1,3.868347704E-1,-8.983209729E-2,-2.940879762E-2
1.435928750E-1,3.826983571E-1,-5.733406544E-2,-3.321361542E-2
1.475631880E-1,3.719820082E-1,-3.501130641E-2,-4.611159861E-2
1.515335000E-1,3.560820818E-1,-2.136282995E-2,-6.377433240E-2
1.555038130E-1,3.304257393E-1,-1.359611470E-2,-9.215338528E-2
1.594741250E-1,2.975437343E-1,-6.318091881E-3,-1.252971888E-1
1.634460000E-1,2.546435297E-1,-2.897246508E-3,-1.609019041E-1
1.674163130E-1,2.076243609E-1,2.181661548E-3,-1.960702837E-1
1.713866250E-1,1.628566682E-1,5.323254038E-3,-2.300867587E-1
1.753569380E-1,1.138478294E-1,3.892084118E-3,-2.619739175E-1
1.793272500E-1,6.914994121E-2,-2.495820867E-3,-2.913652658E-1
1.832975630E-1,2.799508162E-2,-1.214749180E-2,-3.143861592E-1
1.872678750E-1,-8.604473434E-3,-2.729694918E-2,-3.340909183E-1
1.912397500E-1,-4.105014354E-2,-4.391248524E-2,-3.479488492E-1
1.952100630E-1,-6.681120396E-2,-6.042329967E-2,-3.554886580E-1
1.991803750E-1,-8.964011073E-2,-7.557275891E-2,-3.559424579E-1
2.031506880E-1,-1.082278639E-1,-8.990190923E-2,-3.509508073E-1
2.071210000E-1,-1.231678873E-1,-1.029744223E-1,-3.398679495E-1
2.110913130E-1,-1.324704885E-1,-1.071457639E-1,-3.226764798E-1
2.150616250E-1,-1.361182332E-1,-1.089783609E-1,-3.020641208E-1
2.190335000E-1,-1.339016557E-1,-1.061509252E-1,-2.819579542E-1
2.230022500E-1,-1.248957589E-1,-9.653416276E-2,-2.619564533E-1
2.269741250E-1,-1.121548563E-1,-8.363617957E-2,-2.433338016E-1
2.309444380E-1,-9.452702850E-2,-6.763150543E-2,-2.274862081E-1
2.349147500E-1,-7.037167251E-2,-4.028219730E-2,-2.155307084E-1
2.388850630E-1,-4.253367335E-2,-9.965829551E-3,-2.084970325E-1
2.428553750E-1,-1.570796408E-2,1.930334233E-2,-2.035053968E-1
2.468256880E-1,1.504473854E-2,5.208062381E-2,-2.013062686E-1
2.507975630E-1,4.565781355E-2,8.335692436E-2,-2.010444701E-1
2.547678750E-1,7.244861871E-2,1.124341115E-1,-1.990024447E-1
2.587381880E-1,9.478883445E-2,1.368687153E-1,-1.954768747E-1
2.627085000E-1,1.126610041E-1,1.577079445E-1,-1.891238838E-1
2.666788130E-1,1.255938858E-1,1.717054844E-1,-1.811477244E-1
2.706491250E-1,1.333431602E-1,1.815491468E-1,-1.697507203E-1
2.746210000E-1,1.383697093E-1,1.880243123E-1,-1.541125774E-1
2.785913130E-1,1.387711316E-1,1.864011586E-1,-1.365022063E-1
2.825616250E-1,1.354200989E-1,1.778490543E-1,-1.185078546E-1
2.865319380E-1,1.304808110E-1,1.631184667E-1,-9.651670605E-2
2.905022500E-1,1.234645918E-1,1.455779076E-1,-7.466518879E-2
2.944725630E-1,1.177224591E-1,1.277581006E-1,-5.150466785E-2
2.984428750E-1,1.085594818E-1,1.027824357E-1,-2.605776489E-2
3.024131880E-1,9.937904775E-2,8.018042892E-2,-2.967059845E-4
3.063850630E-1,8.525933325E-2,5.110324174E-2,2.898991853E-2
3.103553750E-1,7.178539038E-2,2.033308521E-2,6.340780854E-2
3.143256880E-1,5.757841095E-2,-1.612684131E-2,1.032536775E-1
3.182960000E-1,4.410447180E-2,-5.452408642E-2,1.472010612E-1
3.222663130E-1,2.764601447E-2,-9.344492853E-2,1.908692122E-1
3.262366250E-1,1.378810150E-3,-1.428726465E-1,2.319367975E-1
3.302069380E-1,-3.344050795E-2,-2.004510611E-1,2.668608427E-1
3.341788130E-1,-7.702138275E-2,-2.734407187E-1,2.957111299E-1
3.381491250E-1,-1.239009202E-1,-3.609515429E-1,3.155555129E-1
3.421194380E-1,-1.639736891E-1,-4.606622159E-1,3.278251886E-1
3.460897500E-1,-2.093347907E-1,-5.786813498E-1,3.251548409E-1
3.500600630E-1,-2.627069652E-1,-7.080102563E-1,3.085044026E-1
3.540303750E-1,-3.282440603E-1,-8.614072204E-1,2.778215110E-1
3.580006880E-1,-4.018096924E-1,-1.034090161E0,2.353227437E-1
3.619710000E-1,-4.662821591E-1,-1.188464522E0,1.861917228E-1
3.659428750E-1,-5.410520434E-1,-1.352665067E0,1.247386783E-1
3.699131880E-1,-6.172880530E-1,-1.505486131E0,5.829399824E-2
3.738835000E-1,-6.939429045E-1,-1.648812532E0,-1.818633080E-2
3.778538130E-1,-7.703709006E-1,-1.775558352E0,-1.046499386E-1
3.818241250E-1,-8.444601297E-1,-1.898534298E0,-1.871342063E-1
3.857944380E-1,-9.659699202E-1,-2.067377329E0,-2.522873282E-1
3.897663130E-1,-1.090429306E0,-2.205363035E0,-3.258529603E-1
3.937350630E-1,-1.183123827E0,-2.289976597E0,-4.073598385E-1
3.977069380E-1,-1.250336409E0,-2.327378988E0,-5.071752071E-1
4.016772500E-1,-1.298245668E0,-2.339805841E0,-6.114761233E-1
4.056475630E-1,-1.337079287E0,-2.341830492E0,-7.180284262E-1
4.096178750E-1,-1.364672899E0,-2.336489677E0,-8.258898258E-1
4.135881880E-1,-1.389159918E0,-2.320956230E0,-9.276250601E-1
4.175585000E-1,-1.408061862E0,-2.285910130E0,-1.036027431E0
4.215288130E-1,-1.420959830E0,-2.235819101E0,-1.146925688E0
4.255006880E-1,-1.429581761E0,-2.168431997E0,-1.245711327E0
4.294710000E-1,-1.433334231E0,-2.078896523E0,-1.342664361E0
4.334413130E-1,-1.435376167E0,-1.983444571E0,-1.422443390E0
4.374116250E-1,-1.437994242E0,-1.863732338E0,-1.495171189E0
4.413819380E-1,-1.442898631E0,-1.730179787E0,-1.549974561E0
4.453522500E-1,-1.446895361E0,-1.566328287E0,-1.591949701E0
4.493241250E-1,-1.462655663E0,-1.390224576E0,-1.619316459E0
4.532944380E-1,-1.496881604E0,-1.212323189E0,-1.632615924E0
4.572647500E-1,-1.544494152E0,-1.025590420E0,-1.635774970E0
4.612350630E-1,-1.602072597E0,-8.435874581E-1,-1.628776193E0
4.652053750E-1,-1.671274900E0,-6.587744951E-1,-1.613242745E0
4.691756880E-1,-1.755539417E0,-4.864232540E-1,-1.590082169E0
4.731475630E-1,-1.845249295E0,-3.364296556E-1,-1.557723761E0
4.771256880E-1,-1.943633556E0,-2.102772743E-1,-1.520042181E0
4.810881880E-1,-2.038352489E0,-5.218534265E-3,-1.496061325E0
4.850585000E-1,-2.142548800E0,1.620887220E-1,-1.467123747E0
4.890288130E-1,-2.262732029E0,1.300793886E-1,-1.410802007E0
4.929991250E-1,-2.283257246E0,-2.630734742E-1,-1.324669957E0
4.969694380E-1,-1.547164559E0,-1.074250102E0,-1.132195115E0
5.009397500E-1,-5.939878821E-1,-1.611113429E0,-8.128870726E-1
5.049100630E-1,4.771730304E-2,-9.298241735E-1,-4.177969098E-1
5.088819380E-1,3.551046848E-1,-3.117158115E-1,-9.424777818E-4
5.128522500E-1,4.728271365E-1,-1.364672929E-1,3.785793781E-1
5.168225630E-1,5.527806878E-1,-3.056071512E-2,6.197664142E-1
5.207928750E-1,6.222622395E-1,8.171631396E-2,7.149392366E-1
5.247631880E-1,6.571339369E-1,1.270076036E-1,7.231597304E-1
5.287335000E-1,6.446897388E-1,1.523846984E-1,6.545333862E-1
5.327053750E-1,5.964313745E-1,2.025105506E-1,5.372996330E-1
5.366741250E-1,5.120272636E-1,2.383945286E-1,3.779684901E-1
5.406460000E-1,4.076914489E-1,2.003812492E-1,1.935744733E-1
5.446163130E-1,2.809456587E-1,8.883725852E-2,9.093165398E-3
5.485866250E-1,1.437453181E-1,-9.257226437E-2,-1.991246194E-1
5.525569380E-1,7.435102481E-3,-3.006678820E-1,-4.188266695E-1
5.565272500E-1,-1.425235868E-1,-5.266007185E-1,-6.670299172E-1
5.604975630E-1,-2.955366075E-1,-7.591658831E-1,-9.502619505E-1
5.644694380E-1,-4.580267668E-1,-9.837722778E-1,-1.237316251E0
5.684397500E-1,-6.089279056E-1,-1.213614702E0,-1.560045123E0
5.724085000E-1,-7.241371274E-1,-1.431937933E0,-1.882930994E0
5.763803750E-1,-7.983310223E-1,-1.525365353E0,-2.201610565E0
5.803506880E-1,-8.209854364E-1,-1.478014588E0,-2.501109123E0
5.843210000E-1,-7.966206074E-1,-1.457908392E0,-2.757585287E0
5.882928750E-1,-7.267376184E-1,-1.432304502E0,-2.970847130E0
5.922616250E-1,-6.263462901E-1,-1.316152811E0,-3.129480124E0
5.962413130E-1,-5.165302157E-1,-1.142946362E0,-3.246033192E0
6.002038130E-1,-3.956835866E-1,-9.760404825E-1,-3.325899363E0
6.041741250E-1,-2.723062634E-1,-8.233940005E-1,-3.373965740E0
6.081444380E-1,-1.468520015E-1,-7.078357339E-1,-3.387858629E0
6.121147500E-1,-1.761037298E-2,-6.265382767E-1,-3.368310928E0
6.160850630E-1,1.087514684E-1,-5.885948539E-1,-3.310383320E0
6.200553750E-1,2.487443238E-1,-6.215640903E-1,-3.181071997E0
6.240272500E-1,3.891211450E-1,-7.583630085E-1,-2.992611408E0
6.279975630E-1,5.447870493E-1,-9.889209867E-1,-2.753571033E0
6.319678750E-1,6.890909076E-1,-1.248940110E0,-2.500114441E0
6.359381880E-1,8.210029006E-1,-1.518366575E0,-2.229832649E0
6.399085000E-1,9.276424646E-1,-1.828040361E0,-1.945797801E0
6.438788130E-1,9.983457923E-1,-2.157959938E0,-1.660802960E0
6.478506880E-1,1.048087716E0,-2.490061283E0,-1.381689906E0
6.518194380E-1,1.061369658E0,-2.756852150E0,-1.115108252E0
6.557913130E-1,1.039395928E0,-2.912954569E0,-9.197186828E-1
6.597616250E-1,9.981188774E-1,-2.992908001E0,-7.757639289E-1
6.637319380E-1,9.518327713E-1,-3.013590097E0,-6.772924662E-1
6.677022500E-1,9.006073475E-1,-2.954336166E0,-6.013531685E-1
6.716725630E-1,8.285950422E-1,-2.729258537E0,-5.147499442E-1
6.756428750E-1,7.232469916E-1,-2.431348324E0,-4.149345756E-1
6.796131880E-1,5.958030224E-1,-2.186146975E0,-2.983116806E-1
6.835850630E-1,4.619013965E-1,-2.071601152E0,-1.793849468E-1
6.875553750E-1,3.068288863E-1,-2.088862419E0,-5.681046844E-2
6.915256880E-1,1.348965019E-1,-2.214875221E0,6.316346675E-2
6.954960000E-1,-6.412339956E-2,-2.368097544E0,1.661378890E-1
6.994663130E-1,-2.885029316E-1,-2.520831347E0,2.671575546E-1
7.034366250E-1,-5.249426961E-1,-2.637733459E0,3.690673113E-1
7.074085000E-1,-7.383615375E-1,-2.724057436E0,4.618839324E-1
7.113788130E-1,-9.462651610E-1,-2.804621935E0,5.614724159E-1
7.153491250E-1,-1.137291431E0,-2.874278069E0,6.564183235E-1
7.193194380E-1,-1.312417746E0,-2.956099033E0,7.523590922E-1
7.232897500E-1,-1.452201247E0,-3.005212545E0,8.577071428E-1
7.272616250E-1,-1.552627444E0,-3.028599977E0,9.923942089E-1
7.312303750E-1,-1.625006199E0,-3.076858282E0,1.150922418E0
7.352006880E-1,-1.670524478E0,-3.138957262E0,1.310899377E0
7.391725630E-1,-1.686162591E0,-3.211335897E0,1.466600180E0
7.431428750E-1,-1.675481200E0,-3.283016682E0,1.606959581E0
7.471131880E-1,-1.640469909E0,-3.346895695E0,1.736026645E0
7.510835000E-1,-1.584846258E0,-3.408383608E0,1.846889973E0
7.550538130E-1,-1.515085459E0,-3.469417810E0,1.934051752E0
7.590241250E-1,-1.430960536E0,-3.541936159E0,2.003899813E0
7.629960000E-1,-1.337986827E0,-3.615938187E0,2.056119919E0
7.669663130E-1,-1.237228990E0,-3.697864056E0,2.100451469E0
7.709366250E-1,-1.131217718E0,-3.788306952E0,2.132914543E0
7.749069380E-1,-1.018225074E0,-3.879308462E0,2.160490751E0
7.788772500E-1,-9.005200863E-1,-3.984342337E0,2.190266132E0
7.828475630E-1,-7.845080495E-1,-4.110878468E0,2.224055529E0
7.868178750E-1,-6.682690978E-1,-4.268866062E0,2.260882139E0
7.907881880E-1,-5.511400700E-1,-4.448215961E0,2.306277990E0
7.947585000E-1,-4.382696152E-1,-4.623848438E0,2.361622572E0
7.987303750E-1,-3.255562782E-1,-4.806043148E0,2.425745964E0
8.027116250E-1,-2.090380788E-1,-4.976108074E0,2.497548580E0
8.066710000E-1,-1.015781611E-1,-5.119801044E0,2.569718122E0
8.106413130E-1,1.837831736E-2,-5.245604515E0,2.653546333E0
8.146116250E-1,1.440071166E-1,-5.327844620E0,2.745245934E0
8.185835000E-1,3.050661087E-1,-5.362174988E0,2.846701860E0
8.225538130E-1,4.915021658E-1,-5.360970974E0,2.960148096E0
8.265225630E-1,6.991614699E-1,-5.293496132E0,3.070575237E0
8.304944380E-1,9.245358109E-1,-5.163172722E0,3.192661047E0
8.344647500E-1,1.139525414E0,-5.012428284E0,3.320279360E0
8.384350630E-1,1.335019827E0,-4.879800797E0,3.443552017E0
8.424053750E-1,1.529013157E0,-4.746335506E0,3.575795650E0
8.463772500E-1,1.715868115E0,-4.625279427E0,3.699696541E0
8.503460000E-1,1.898063064E0,-4.493193150E0,3.818274260E0
8.543178750E-1,2.071112394E0,-4.356690884E0,3.915576458E0
8.582881880E-1,2.240758419E0,-4.214184761E0,3.999963045E0
8.622585000E-1,2.407786369E0,-4.077228546E0,4.064104080E0
8.662288130E-1,2.554935217E0,-3.964131355E0,4.104036808E0
8.701991250E-1,2.696393967E0,-3.867510080E0,4.118052006E0
8.741694380E-1,2.820434570E0,-3.791884899E0,4.109971046E0
8.781397500E-1,2.929884195E0,-3.744900703E0,4.078642368E0
8.821100630E-1,3.022369146E0,-3.732508659E0,4.022617340E0
8.860819380E-1,3.091362000E0,-3.757100344E0,3.950221062E0
8.900522500E-1,3.147125244E0,-3.828397036E0,3.861453772E0
8.940225630E-1,3.184684753E0,-3.946014881E0,3.765338421E0
8.979928750E-1,3.210585594E0,-4.102885246E0,3.655487299E0
9.019647500E-1,3.225490570E0,-4.283299923E0,3.534902573E0
9.059335000E-1,3.227236032E0,-4.457745552E0,3.414178133E0
9.099038130E-1,3.221231937E0,-4.620357990E0,3.298218489E0
9.138756880E-1,3.207915068E0,-4.764487267E0,3.195593119E0
9.178460000E-1,3.200515032E0,-4.889871597E0,3.111625433E0
9.218163130E-1,3.209555864E0,-4.986684799E0,3.039770126E0
9.257866250E-1,3.237044811E0,-5.030632496E0,2.983849764E0
9.297569380E-1,3.288496971E0,-5.003859043E0,2.941857100E0
9.337272500E-1,3.356669664E0,-4.906870842E0,2.911348820E0
9.376991250E-1,3.442068577E0,-4.758727551E0,2.895117283E0
9.416694380E-1,3.542442322E0,-4.539793491E0,2.884278774E0
9.456397500E-1,3.646149874E0,-4.280245304E0,2.875429869E0
9.496100630E-1,3.754796505E0,-3.965213537E0,2.859128475E0
9.535803750E-1,3.855380058E0,-3.620807648E0,2.838620901E0
9.575506880E-1,3.946643114E0,-3.269996405E0,2.814011812E0
9.615210000E-1,4.034695148E0,-2.880351782E0,2.779454231E0
9.654928750E-1,4.111402512E0,-2.505088568E0,2.738526344E0
9.694631880E-1,4.173588276E0,-2.138133049E0,2.691262722E0
9.734335000E-1,4.213102818E0,-1.801668525E0,2.635743856E0
9.774038130E-1,4.236367702E0,-1.525714517E0,2.573418140E0
9.813741250E-1,4.245129585E0,-1.286726475E0,2.509713650E0
9.853444380E-1,4.232982159E0,-1.081877232E0,2.450215340E0
9.893147500E-1,4.204201221E0,-9.046913981E-1,2.388483047E0
9.932866250E-1,4.158037663E0,-7.427597642E-1,2.318373203E0
9.972569380E-1,4.097666740E0,-6.088581085E-1,2.241090059E0
1.001227250E0,4.019754887E0,-4.944692254E-1,2.150158405E0
1.005197563E0,3.930079937E0,-3.943746090E-1,2.055875778E0
1.009167875E0,3.822794676E0,-3.066717982E-1,1.953896046E0
1.013138188E0,3.703030109E0,-2.416582853E-1,1.848146558E0
1.017108500E0,3.578012228E0,-1.992816925E-1,1.746358991E0
1.021078813E0,3.434947491E0,-1.760339141E-1,1.642878413E0
1.025056938E0,3.269542694E0,-1.519483626E-1,1.546204686E0
1.029021000E0,3.108361483E0,-1.268156171E-1,1.465151548E0
1.032991313E0,2.926533222E0,-1.219286993E-1,1.382300735E0
1.036961625E0,2.744530201E0,-1.054527909E-1,1.312522531E0
1.040931938E0,2.534218073E0,-8.599237353E-2,1.250668049E0
1.044902250E0,2.321165800E0,-4.869468510E-2,1.193159461E0
1.048872563E0,2.094307899E0,1.097812131E-2,1.140991569E0
1.052844438E0,1.867729187E0,9.445721656E-2,1.095770001E0
1.056814750E0,1.658743501E0,1.866804212E-1,1.055976510E0
1.060783500E0,1.432531357E0,2.698802650E-1,1.022570968E0
1.064755375E0,1.212934017E0,3.451737761E-1,9.903870821E-1
1.068725688E0,9.896191359E-1,3.991568089E-1,9.643816948E-1
1.072719438E0,7.788531780E-1,4.291764498E-1,9.414829612E-1
1.076667875E0,5.901307464E-1,4.335397780E-1,9.251292348E-1
1.080638188E0,4.157723188E-1,4.232248962E-1,9.143954515E-1
1.084606938E0,2.693566680E-1,3.894004226E-1,9.085835218E-1
1.088578813E0,1.426283121E-1,3.288025856E-1,9.100844860E-1
1.092549125E0,4.368559271E-2,2.220931500E-1,9.175370336E-1
1.096519438E0,-3.480186686E-2,8.424704522E-2,9.306269884E-1
1.100489750E0,-8.553858846E-2,-8.494517207E-2,9.469981790E-1
1.104460063E0,-1.088387296E-1,-2.904053330E-1,9.640675187E-1
1.108430375E0,-1.061858311E-1,-5.037020445E-1,9.752900004E-1
1.112402250E0,-7.435102761E-2,-7.533364892E-1,9.803165197E-1
1.116372563E0,-1.787217148E-2,-1.015153289E0,9.778730869E-1
1.120342875E0,6.684610993E-2,-1.293498397E0,9.635438919E-1
1.124313188E0,1.867502332E-1,-1.573309541E0,9.343619943E-1
1.128283500E0,3.288374841E-1,-1.836819410E0,8.907985687E-1
1.132253813E0,5.145754218E-1,-2.089403391E0,8.259770870E-1
1.136225688E0,7.266154885E-1,-2.299733162E0,7.401766777E-1
1.140194438E0,9.665284157E-1,-2.485121965E0,6.295577288E-1
1.144166313E0,1.229532123E0,-2.641817570E0,5.016774535E-1
1.148136625E0,1.498173118E0,-2.765736103E0,3.727499545E-1
1.152113188E0,1.774964929E0,-2.874854088E0,2.430545539E-1
1.156077250E0,2.039591789E0,-2.954318762E0,1.249655709E-1
1.160047563E0,2.308110714E0,-3.000360489E0,1.541125681E-2
1.164017875E0,2.565057993E0,-3.017307758E0,-7.979645580E-2
1.167989750E0,2.795528650E0,-3.014934063E0,-1.558229923E-1
1.171960063E0,3.007097483E0,-3.000622511E0,-2.176425606E-1
1.175930375E0,3.193795443E0,-2.978072643E0,-2.671749890E-1
1.179900688E0,3.347558975E0,-2.944213390E0,-3.061133027E-1
1.183871000E0,3.482315779E0,-2.884959459E0,-3.466747403E-1
1.187841313E0,3.590159655E0,-2.781234503E0,-3.869045973E-1
1.191813188E0,3.668594837E0,-2.635429621E0,-4.240452051E-1
1.195783500E0,3.718511343E0,-2.449848890E0,-4.555658400E-1
1.199752250E0,3.747047424E0,-2.216096878E0,-4.716228545E-1
1.203724125E0,3.746069908E0,-1.956810832E0,-4.733856618E-1
1.207694438E0,3.712385178E0,-1.686860681E0,-4.630183876E-1
1.211664750E0,3.651211262E0,-1.424432993E0,-4.488463104E-1
1.215635063E0,3.558516979E0,-1.175583959E0,-4.222998619E-1
1.219605375E0,3.437251329E0,-1.001749158E0,-3.902381659E-1
1.223575688E0,3.230482340E0,-9.129817486E-1,-3.425906897E-1
1.227547563E0,2.959066153E0,-8.811120391E-1,-2.883109450E-1
1.231517875E0,2.624329329E0,-8.757014871E-1,-2.373996824E-1
1.235488188E0,2.227458954E0,-8.984954953E-1,-1.961400956E-1
1.239458500E0,1.830658436E0,-9.407673478E-1,-1.677610427E-1
1.243428813E0,1.416229963E0,-9.770876765E-1,-1.513375044E-1
1.247399125E0,1.024665356E0,-9.975603819E-1,-1.417905539E-1
1.251371000E0,7.167543769E-1,-9.977698326E-1,-1.311789453E-1
1.255341313E0,4.617268443E-1,-9.829345345E-1,-1.121723130E-1
1.259310063E0,2.815739810E-1,-9.702983499E-1,-8.342673630E-2
1.263281938E0,1.498714238E-1,-9.685006738E-1,-4.776966199E-2
1.267252250E0,7.171557844E-2,-9.743649364E-1,-1.274090353E-2
1.271222563E0,3.914773464E-2,-9.861284494E-1,2.049016580E-2
1.275192875E0,5.293583497E-2,-9.971764088E-1,4.555309191E-2
1.279163188E0,9.492845833E-2,-1.014821649E0,5.782275647E-2
1.283133500E0,1.734682769E-1,-1.032798529E0,5.965535343E-2
1.287105375E0,2.642602921E-1,-1.059624314E0,5.546656251E-2
1.291075688E0,3.779510558E-1,-1.091162443E0,5.195845291E-2
1.295046000E0,5.108578801E-1,-1.122107029E0,4.412192479E-2
1.299016313E0,6.555456519E-1,-1.174833417E0,3.499384969E-2
1.302986625E0,7.979121804E-1,-1.256811619E0,2.750638872E-2
1.306958500E0,9.417098761E-1,-1.326973796E0,2.043780498E-2
1.310931938E0,1.076711059E0,-1.397799253E0,1.692969352E-2
1.314899125E0,1.200175643E0,-1.479899526E0,1.631882787E-2
1.318869438E0,1.328893661E0,-1.590570927E0,2.111848444E-2
1.322839750E0,1.449932218E0,-1.720615387E0,3.817034885E-2
1.326810063E0,1.560184717E0,-1.869963169E0,7.391469181E-2
1.330780375E0,1.670245171E0,-2.020009279E0,1.254018992E-1
1.334750688E0,1.783656716E0,-2.192028761E0,1.949532777E-1
1.338721000E0,1.899319649E0,-2.368743420E0,2.706133127E-1
1.342692875E0,2.024198055E0,-2.549000978E0,3.487516940E-1
1.346663188E0,2.150943756E0,-2.736100197E0,4.257207215E-1
1.350633500E0,2.285194397E0,-2.902639627E0,4.911181927E-1
1.354603813E0,2.412585974E0,-3.057450294E0,5.407029986E-1
1.358574125E0,2.542787552E0,-3.176691294E0,5.680697560E-1
1.362544438E0,2.653214693E0,-3.278391600E0,5.764124393E-1
1.366514750E0,2.742662668E0,-3.361190081E0,5.686457157E-1
1.370486625E0,2.802719593E0,-3.420880318E0,5.514018536E-1
1.374456938E0,2.839161873E0,-3.453308344E0,5.288522243E-1
1.378427250E0,2.848813772E0,-3.457549572E0,5.030911565E-1
1.382397563E0,2.832355261E0,-3.439380646E0,4.751484394E-1
1.386367875E0,2.791496992E0,-3.395799875E0,4.454429448E-1
1.390338188E0,2.729502916E0,-3.330873489E0,4.239753783E-1
1.394308500E0,2.642602921E0,-3.233990431E0,4.123689532E-1
1.398278813E0,2.529470682E0,-3.098866940E0,4.088957310E-1
1.402250688E0,2.402550459E0,-2.933741331E0,4.073773026E-1
1.406221000E0,2.250130892E0,-2.719205618E0,4.039913714E-1
1.410191313E0,2.089926958E0,-2.505071163E0,3.990346193E-1
1.414161625E0,1.913893104E0,-2.283449173E0,3.948807418E-1
1.418131938E0,1.741716385E0,-2.080118418E0,3.903428912E-1
1.422102250E0,1.566101432E0,-1.898028135E0,3.820874691E-1
1.426074125E0,1.387449503E0,-1.732483625E0,3.662398756E-1
1.430064750E0,1.237682819E0,-1.594236135E0,3.474950492E-1
1.434014750E0,1.097061634E0,-1.482831717E0,3.251548409E-1
1.437985063E0,9.663015604E-1,-1.370868802E0,2.929884195E-1
1.441955375E0,8.590510488E-1,-1.247002840E0,2.565982938E-1
1.445925688E0,7.626041770E-1,-1.113188505E0,2.230007201E-1
1.449897563E0,6.993359923E-1,-1.029831529E0,2.055125237E-1
1.453867875E0,6.718645096E-1,-9.516756535E-1,1.982519478E-1
1.457836625E0,6.717772484E-1,-8.737990856E-1,2.017600536E-1
1.461808500E0,6.913423538E-1,-7.963064909E-1,2.213426530E-1
1.465778813E0,7.229328156E-1,-7.002435327E-1,2.633178234E-1
1.469749125E0,7.611555457E-1,-6.004805565E-1,3.286105990E-1
1.473719438E0,8.055567145E-1,-5.039288998E-1,4.006054103E-1
1.477689750E0,8.495215774E-1,-3.906919658E-1,4.861963689E-1
1.481661625E0,8.897513747E-1,-2.645221055E-1,5.693264008E-1
1.485631938E0,9.178512096E-1,-1.112123802E-1,6.492973566E-1
1.489602250E0,9.292482138E-1,5.082398653E-2,7.187440395E-1
1.493572563E0,9.288991094E-1,2.072753012E-1,7.832339406E-1
1.497546000E0,9.235409498E-1,3.246661425E-1,8.559967279E-1
1.501513188E0,9.078504443E-1,3.974289298E-1,9.440660477E-1
1.505483500E0,8.814785480E-1,4.395611584E-1,1.045487165E0
1.509455375E0,8.440586925E-1,4.523544312E-1,1.145668983E0
1.513425688E0,7.892902493E-1,4.661948979E-1,1.241382837E0
1.517396000E0,7.119372487E-1,4.947834015E-1,1.317199945E0
1.521366313E0,6.261194348E-1,5.300914049E-1,1.369786739E0
1.525336625E0,5.308942795E-1,5.582959056E-1,1.408794880E0
1.529306938E0,4.339586496E-1,5.941798687E-1,1.433107257E0
1.533277250E0,3.267954588E-1,6.516186595E-1,1.438098907E0
1.537247563E0,1.891413331E-1,7.051129937E-1,1.405269265E0
1.541219438E0,3.944443911E-2,7.640528083E-1,1.354358077E0
1.545189750E0,-1.432915330E-1,8.294153810E-1,1.293376207E0
1.549160063E0,-3.275808394E-1,9.000488520E-1,1.225064039E0
1.553130375E0,-4.871388376E-1,9.753597975E-1,1.164797783E0
1.557100688E0,-6.465921402E-1,1.062573910E0,1.110099196E0
1.561071000E0,-7.882779241E-1,1.149595976E0,1.071893930E0
1.565042875E0,-9.149714112E-1,1.233424187E0,1.044631958E0
1.569013188E0,-1.016776443E0,1.313796639E0,1.026532888E0
1.572981938E0,-1.092715740E0,1.397711992E0,1.018207669E0
1.576953813E0,-1.149822950E0,1.481609941E0,1.016793966E0
1.580924125E0,-1.186387539E0,1.555699229E0,1.022291660E0
1.584894438E0,-1.216546893E0,1.639125943E0,1.036673188E0
1.588866313E0,-1.246828318E0,1.760653257E0,1.057564855E0
1.592835063E0,-1.274596453E0,1.885426879E0,1.081545591E0
1.596817875E0,-1.300357580E0,2.041965485E0,1.110971928E0
1.600777250E0,-1.321650624E0,2.203617811E0,1.139874578E0
1.604747563E0,-1.349191904E0,2.396651268E0,1.169545174E0
1.608717875E0,-1.382248402E0,2.621397257E0,1.201816320E0
1.612688188E0,-1.424293399E0,2.827922106E0,1.237612963E0
1.616658500E0,-1.480859518E0,2.983867168E0,1.286988378E0
1.620628813E0,-1.535523176E0,3.060207844E0,1.356888771E0
1.624600688E0,-1.585910916E0,3.073332787E0,1.445900559E0
1.628571000E0,-1.631551266E0,3.015789270E0,1.547059894E0
1.632541313E0,-1.661535978E0,2.917492390E0,1.652006507E0
1.636511625E0,-1.683335185E0,2.759627342E0,1.764911890E0
1.640481938E0,-1.697158217E0,2.566349506E0,1.869003296E0
1.644452250E0,-1.690246701E0,2.367661238E0,1.960441113E0
1.648422563E0,-1.662373781E0,2.173284054E0,2.026746035E0
1.652392875E0,-1.618391395E0,1.980110884E0,2.066906214E0
1.656364750E0,-1.553046346E0,1.765767097E0,2.084446669E0
1.660335063E0,-1.473511696E0,1.518157244E0,2.072630882E0
1.664305375E0,-1.389735818E0,1.250406265E0,2.033273697E0
1.668275688E0,-1.302818418E0,9.587791562E-1,1.964734554E0
1.672246000E0,-1.228205681E0,6.484770775E-1,1.876892209E0
1.676216313E0,-1.152179122E0,3.029716909E-1,1.765435457E0
1.680186625E0,-1.073656797E0,-3.029891662E-2,1.640208006E0
1.684158500E0,-9.890431762E-1,-3.348588645E-1,1.521420956E0
1.688127250E0,-8.941496015E-1,-5.679301620E-1,1.398933768E0
1.692099125E0,-8.022406101E-1,-7.209954858E-1,1.282083988E0
1.696069438E0,-7.061951160E-1,-8.067784309E-1,1.181640267E0
1.700039750E0,-6.177592874E-1,-8.479507565E-1,1.088753819E0
1.704010063E0,-5.365840197E-1,-8.576198816E-1,1.011837125E0
1.707980375E0,-4.650080800E-1,-8.455421925E-1,9.422683716E-1
1.711950688E0,-4.002912641E-1,-8.250345588E-1,8.864876032E-1
1.715922563E0,-3.329739273E-1,-8.157843351E-1,8.538674116E-1
1.719892875E0,-2.540326715E-1,-7.981914282E-1,8.392066360E-1
1.723863188E0,-1.699078083E-1,-7.734077573E-1,8.382467031E-1
1.727833500E0,-7.332128286E-2,-7.542964220E-1,8.453851342E-1
1.731803813E0,2.303834632E-2,-7.779979706E-1,8.595746756E-1
1.735774125E0,1.282642484E-1,-8.301658630E-1,8.875173926E-1
1.739746000E0,2.324604094E-1,-8.811120391E-1,9.307666421E-1
1.743716313E0,3.391174674E-1,-9.103637338E-1,9.873502254E-1
1.747685063E0,4.351629317E-1,-9.266999960E-1,1.056465268E0
1.751656938E0,5.120970607E-1,-9.263334870E-1,1.129699230E0
1.755627250E0,5.741958618E-1,-9.015323520E-1,1.214312792E0
1.759597563E0,6.122091413E-1,-8.563807011E-1,1.306361437E0
1.763569438E0,6.166946292E-1,-8.131139874E-1,1.393121839E0
1.767538188E0,5.888217092E-1,-7.834259272E-1,1.473895669E0
1.771508500E0,5.365490913E-1,-8.199382424E-1,1.543080449E0
1.775480375E0,4.671897292E-1,-8.743750453E-1,1.607518077E0
1.779450688E0,3.898018301E-1,-9.283057451E-1,1.661326528E0
1.783421000E0,3.133389652E-1,-9.615193605E-1,1.702917695E0
1.787391313E0,2.251823843E-1,-9.543809295E-1,1.724175811E0
1.791361625E0,1.383871585E-1,-9.154775739E-1,1.719323874E0
1.795333500E0,6.136577576E-2,-8.745670319E-1,1.692899585E0
1.799303813E0,1.867502346E-3,-8.753000498E-1,1.653507471E0
1.803274125E0,-4.387757555E-2,-9.289165735E-1,1.607099175E0
1.807244438E0,-7.689920813E-2,-1.036254287E0,1.560970068E0
1.811214750E0,-9.843657166E-2,-1.192757964E0,1.512502313E0
1.815185063E0,-1.198517606E-1,-1.384779096E0,1.472918272E0
1.819155375E0,-1.389980167E-1,-1.603259444E0,1.437156439E0
1.823125688E0,-1.476024985E-1,-1.809295535E0,1.406770229E0
1.827096000E0,-1.448797733E-1,-1.963792086E0,1.367238522E0
1.831067875E0,-1.384395212E-1,-2.065003633E0,1.320358992E0
1.835038188E0,-1.281769872E-1,-2.116700411E0,1.270041227E0
1.839008500E0,-1.224872097E-1,-2.110626698E0,1.210420728E0
1.842978813E0,-1.267109066E-1,-2.051075935E0,1.147152543E0
1.846949125E0,-1.436231434E-1,-1.942656159E0,1.083221197E0
1.850919438E0,-1.776745170E-1,-1.789590836E0,1.018993020E0
1.854889750E0,-2.231403440E-1,-1.620957136E0,9.670171142E-1
1.858861625E0,-2.831622064E-1,-1.430838346E0,9.212545753E-1
1.862831938E0,-3.493974507E-1,-1.234349251E0,8.781623840E-1
1.866802250E0,-4.109552205E-1,-1.035660863E0,8.401317000E-1
1.870772563E0,-4.523195326E-1,-8.387005329E-1,8.110893965E-1
1.874742875E0,-4.955338836E-1,-6.732607484E-1,7.884699106E-1
1.878714750E0,-5.327442884E-1,-4.938583672E-1,7.663217187E-1
1.882683500E0,-5.567600131E-1,-3.097610474E-1,7.331779003E-1
1.886653813E0,-5.748416185E-1,-1.378810108E-1,6.963514686E-1
1.890625688E0,-6.121393442E-1,2.602285892E-2,6.495940685E-1
1.894596000E0,-6.429443955E-1,1.458746195E-1,5.976530910E-1
1.898566313E0,-6.673440933E-1,2.169793248E-1,5.544387698E-1
1.902536625E0,-6.929829717E-1,2.453234792E-1,5.253964663E-1
1.906506938E0,-7.142760158E-1,2.391450107E-1,5.158669949E-1
1.910477250E0,-7.287098765E-1,1.886351854E-1,5.345943570E-1
1.914449125E0,-7.368431091E-1,1.037772745E-1,5.709670186E-1
1.918419438E0,-7.304028273E-1,8.045967668E-3,6.134133935E-1
1.922389750E0,-7.101919055E-1,-9.306095541E-2,6.503794789E-1
1.926360063E0,-6.686530709E-1,-1.858775616E-1,6.808005571E-1
1.930330375E0,-6.108477712E-1,-2.431941777E-1,6.998770237E-1
1.934300688E0,-5.467069149E-1,-2.528982162E-1,7.069630623E-1
1.938272563E0,-4.727747738E-1,-2.179218084E-1,6.976779103E-1
1.942242875E0,-4.030663371E-1,-1.618269235E-1,6.647086143E-1
1.946211625E0,-3.330960870E-1,-8.517206460E-2,6.225065589E-1
1.950183500E0,-2.608219981E-1,1.696459949E-2,5.729741454E-1
1.954153813E0,-1.891413331E-1,1.316850930E-1,5.218359828E-1
1.958124125E0,-1.264665574E-1,2.324080467E-1,4.699473381E-1
1.962094438E0,-7.599163800E-2,2.988352776E-1,4.135208726E-1
1.966064750E0,-2.336995862E-2,3.410198689E-1,3.631331921E-1
1.970036625E0,2.328269184E-2,3.360631466E-1,3.099530339E-1
1.974006938E0,7.007496804E-2,2.972819209E-1,2.596700788E-1
1.977977250E0,1.141968891E-1,2.326698452E-1,2.185326815E-1
1.981947563E0,1.568527371E-1,1.465727538E-1,1.799783558E-1
1.985917875E0,2.013935447E-1,6.344271451E-2,1.473407000E-1
1.989888188E0,2.327571064E-1,-6.335545331E-2,1.182111502E-1
1.993858500E0,2.353576422E-1,-2.369458973E-1,8.457865566E-2
1.997828813E0,2.277480066E-1,-3.727325201E-1,5.803219602E-2
2.001800688E0,2.176076472E-1,-4.497189820E-1,4.553563893E-2
2.005771000E0,2.131745070E-1,-4.625296891E-1,5.745624006E-2
2.009741313E0,2.166651785E-1,-4.366639256E-1,9.159488231E-2
2.013711625E0,2.303660065E-1,-4.084768593E-1,1.405339092E-1
2.017681938E0,2.559350729E-1,-3.875852525E-1,1.957735866E-1
2.021652250E0,2.850297093E-1,-3.837804496E-1,2.450965792E-1
2.025622563E0,3.117507100E-1,-3.868696690E-1,2.769488394E-1
2.029594438E0,3.341956437E-1,-3.938684464E-1,2.906671464E-1
2.033564750E0,3.546683490E-1,-3.958232105E-1,2.961823642E-1
2.037535063E0,3.676885068E-1,-3.917042315E-1,2.976135314E-1
2.041505375E0,3.778463304E-1,-3.754203320E-1,3.041410744E-1
2.045475688E0,3.895225823E-1,-3.418227434E-1,3.263067603E-1
2.049446000E0,4.071504176E-1,-2.797937393E-1,3.704810441E-1
2.053417875E0,4.388281405E-1,-1.889667958E-1,4.342029989E-1
2.057388188E0,4.906120598E-1,-6.469935179E-2,5.216091275E-1
2.061356938E0,5.584530234E-1,7.681193948E-2,6.297322512E-1
2.065328813E0,6.360328794E-1,2.171189636E-1,7.428121567E-1
2.069299125E0,7.034549713E-1,3.197617829E-1,8.626638651E-1
2.073269438E0,7.605970502E-1,3.818605840E-1,9.920276999E-1
2.077239750E0,7.886270285E-1,3.922103941E-1,1.111896873E0
2.081210063E0,8.065689802E-1,3.883531988E-1,1.236146927E0
2.085180375E0,8.013330102E-1,3.598170877E-1,1.349540949E0
2.089152250E0,7.898487449E-1,3.264638484E-1,1.453789473E0
2.093125688E0,7.752926946E-1,2.909812927E-1,1.549293876E0
2.097092875E0,7.540345788E-1,2.529680133E-1,1.627955914E0
2.101063188E0,7.317641973E-1,2.021440268E-1,1.699322343E0
2.105033500E0,7.116754651E-1,1.449146867E-1,1.757232428E0
2.109003813E0,6.900159121E-1,9.445721656E-2,1.794460297E0
2.112975688E0,6.673790216E-1,5.464625731E-2,1.814269781E0
2.116946000E0,6.366263032E-1,3.794345632E-2,1.812943339E0
2.120916313E0,5.930978060E-1,4.398229718E-2,1.789590836E0
2.124886625E0,5.374916196E-1,6.916739792E-2,1.741960764E0
2.128856938E0,4.701393247E-1,1.111251116E-1,1.676371336E0
2.132827250E0,3.910410106E-1,1.594183743E-1,1.590343952E0
2.136799125E0,2.994810343E-1,2.043780535E-1,1.492047071E0
2.140767875E0,1.939060837E-1,2.385341525E-1,1.373539209E0
2.144739750E0,8.955284208E-2,2.486570626E-1,1.251086950E0
2.148710063E0,-3.700098023E-3,2.317448109E-1,1.135476351E0
2.152680375E0,-9.395107627E-2,1.871342063E-1,1.011557937E0
2.156650688E0,-1.641656756E-1,1.261000335E-1,8.944987059E-1
2.160621000E0,-2.199463844E-1,4.939281940E-2,7.825009227E-1
2.164591313E0,-2.582738101E-1,-3.366740048E-2,6.824411750E-1
2.168561625E0,-2.816786766E-1,-1.214400083E-1,5.851216316E-1
2.172531938E0,-2.897246480E-1,-2.031912357E-1,4.935267568E-1
2.176502250E0,-2.859547436E-1,-2.567553818E-1,4.159119725E-1
2.180472563E0,-2.672099173E-1,-2.678556740E-1,3.486818671E-1
2.184444438E0,-2.415361106E-1,-2.436479628E-1,2.915747166E-1
2.188414750E0,-2.112022936E-1,-1.876578033E-1,2.440144867E-1
2.192389750E0,-1.742536724E-1,-9.990264475E-2,2.039242685E-1
2.196355375E0,-1.595754474E-1,-1.717403904E-2,1.702743173E-1
2.200325688E0,-2.538057864E-1,-1.884955564E-3,2.071531266E-1
2.204297563E0,-4.057017863E-1,-4.340633750E-2,3.452261388E-1
2.208267875E0,-5.487838984E-1,-1.009498462E-1,4.892506897E-1
2.212236625E0,-6.616717577E-1,-1.496794373E-1,6.395235658E-1
2.216208500E0,-6.883578300E-1,-1.577777565E-1,7.546454668E-1
2.220178813E0,-5.885249972E-1,-9.892526269E-2,8.055916429E-1
2.224149125E0,-4.310439527E-1,2.984513063E-3,8.270766139E-1
2.228121000E0,-2.738072574E-1,9.756390750E-2,8.711810708E-1
2.232089750E0,-1.517040133E-1,1.366592795E-1,9.576272368E-1
2.236060063E0,-6.958627701E-2,1.475675851E-1,1.061491847E0
2.240031938E0,-8.429939859E-3,1.794198453E-1,1.159369826E0
2.244002250E0,2.991494350E-2,2.250776589E-1,1.221189380E0
2.247971000E0,5.270894244E-2,2.660579979E-1,1.248434067E0
2.251942875E0,7.005751878E-2,2.822022736E-1,1.254315734E0
2.255913188E0,9.745918214E-2,2.543642819E-1,1.252675176E0
2.259883500E0,1.449321359E-1,1.802401543E-1,1.254926682E0
2.263856938E0,2.215870023E-1,8.171631396E-2,1.281403303E0
2.267825688E0,3.351904750E-1,-3.200933710E-2,1.325193644E0
2.271794438E0,4.838576317E-1,-1.670454592E-1,1.376960039E0
2.275766313E0,6.700144410E-1,-2.897246480E-1,1.447925091E0
2.279736625E0,8.656833172E-1,-3.863460720E-1,1.551213741E0
2.283706938E0,1.057878971E0,-4.182157815E-1,1.654031038E0
2.287677250E0,1.208291411E0,-3.724532723E-1,1.733094454E0
2.291649125E0,1.326816797E0,-2.440319359E-1,1.774371505E0
2.295619438E0,1.414484620E0,-6.476917118E-2,1.759082437E0
2.299589750E0,1.473441839E0,1.090132669E-1,1.710667014E0
2.303560063E0,1.507353544E0,2.841221392E-1,1.639317989E0
2.307530375E0,1.509413123E0,4.220555127E-1,1.570412397E0
2.311500688E0,1.476705670E0,5.237035155E-1,1.514195323E0
2.315471000E0,1.419842839E0,5.844933391E-1,1.466739774E0
2.319442875E0,1.340116143E0,6.095387936E-1,1.430559158E0
2.323413188E0,1.236548305E0,5.885249972E-1,1.410295844E0
2.327383500E0,1.133940458E0,5.369679928E-1,1.406979680E0
2.331353813E0,1.022605896E0,4.306599796E-1,1.403715968E0
2.335324125E0,9.083915353E-1,2.953271568E-1,1.395355821E0
2.339294438E0,7.630404830E-1,1.252797395E-1,1.385023475E0
2.343264750E0,6.085788608E-1,-4.551818594E-2,1.379176617E0
2.347236625E0,4.465599358E-1,-2.041511685E-1,1.378094554E0
2.351205375E0,2.833716571E-1,-3.456624448E-1,1.387589097E0
2.355177250E0,1.374446750E-1,-4.481656551E-1,1.416997910E0
2.359147563E0,8.726646192E-3,-5.253266692E-1,1.454941392E0
2.363117875E0,-8.908160776E-2,-5.841267705E-1,1.503967643E0
2.367088188E0,-1.448448747E-1,-6.065368056E-1,1.556048274E0
2.371058500E0,-1.603084952E-1,-5.851739645E-1,1.606976986E0
2.375028813E0,-1.432566196E-1,-5.195321441E-1,1.647643209E0
2.379000688E0,-9.965830296E-2,-4.235390425E-1,1.678116560E0
2.382991313E0,-3.815289587E-2,-3.018023372E-1,1.708188653E0
2.386941313E0,3.190461919E-2,-1.763480604E-1,1.741297483E0
2.390924125E0,1.259080470E-1,-2.192133479E-2,1.783813715E0
2.394881938E0,2.182708681E-1,9.070476145E-2,1.826050758E0
2.398852250E0,3.223448694E-1,1.858775616E-1,1.888376474E0
2.402824125E0,4.310090542E-1,2.626197040E-1,1.968469620E0
2.406794438E0,5.513495207E-1,3.423463404E-1,2.048667431E0
2.410763188E0,6.553362012E-1,4.067140818E-1,2.123350143E0
2.414735063E0,7.324099541E-1,4.066791534E-1,2.158658028E0
2.418705375E0,7.756766677E-1,3.395014405E-1,2.173667908E0
2.422675688E0,8.032179475E-1,2.313433886E-1,2.227040052E0
2.426647563E0,8.040906191E-1,1.130973324E-1,2.349614620E0
2.430616313E0,7.758511901E-1,-6.544984877E-3,2.499119520E0
2.434586625E0,7.310137153E-1,-1.214225590E-1,2.604519844E0
2.438558500E0,6.640803218E-1,-2.593908310E-1,2.639845371E0
2.442528813E0,5.866924524E-1,-4.394738972E-1,2.611256838E0
2.446499125E0,5.076639056E-1,-6.369404793E-1,2.536504507E0
2.450469438E0,4.212701321E-1,-8.281936049E-1,2.432674885E0
2.454439750E0,3.300941288E-1,-1.012011766E0,2.317378283E0
2.458411625E0,2.488141358E-1,-1.146384597E0,2.211157560E0
2.462381938E0,1.866455078E-1,-1.228240609E0,2.104413271E0
2.466352250E0,1.579522938E-1,-1.273043156E0,1.984648824E0
2.470322563E0,1.560498923E-1,-1.261593819E0,1.869090557E0
2.474292875E0,1.725607067E-1,-1.188150287E0,1.750006676E0
2.478263188E0,1.982519478E-1,-1.077897906E0,1.632563472E0
2.482233500E0,2.273989469E-1,-9.430013895E-1,1.504543662E0
2.486203813E0,2.419375330E-1,-7.696902156E-1,1.349575877E0
2.490174125E0,2.309768796E-1,-5.862560868E-1,1.169579983E0
2.494146000E0,1.932079494E-1,-3.961722851E-1,9.800023437E-1
2.498116313E0,1.359436959E-1,-2.272593230E-1,7.611206174E-1
2.502094438E0,7.173303515E-2,-7.927285135E-2,5.318367481E-1
2.506056938E0,7.155850064E-3,6.277949363E-2,2.830924094E-1
2.510027250E0,-5.169665068E-2,1.829977781E-1,5.525712296E-2
2.513997563E0,-9.758135676E-2,2.240304649E-1,-1.133067757E-1
2.517969438E0,-1.384569705E-1,1.657539159E-1,-1.813571602E-1
2.521939750E0,-1.638689637E-1,6.291911751E-2,-1.742187589E-1
2.525910063E0,-1.754754037E-1,-4.492477328E-2,-1.222079545E-1
2.529880375E0,-1.702045053E-1,-1.089259982E-1,-6.225589290E-2
2.533850688E0,-1.531875432E-1,-1.254542619E-1,-1.000073645E-2
2.537821000E0,-1.255589873E-1,-9.635962546E-2,2.270673402E-2
2.541791313E0,-8.990190923E-2,-2.731440216E-2,4.312708601E-2
2.545761625E0,-4.944517836E-2,6.805038452E-2,5.190609023E-2
2.549731938E0,-1.300270297E-2,1.599245220E-1,5.269148946E-2
2.553703813E0,2.553416602E-2,2.483254522E-1,4.988151044E-2
2.557674125E0,5.742133036E-2,3.174230158E-1,4.419173673E-2
2.561644438E0,8.606218547E-2,3.699399829E-1,3.546509147E-2
2.565614750E0,1.058716699E-1,3.965737224E-1,2.551671304E-2
2.569585063E0,1.196248680E-1,4.102745354E-1,1.555088349E-2
2.573555375E0,1.236565784E-1,4.090353549E-1,7.068583276E-3
2.577527250E0,1.182460561E-1,3.938160837E-1,2.914699726E-3
2.581497563E0,1.020668522E-1,3.675488830E-1,-2.059488557E-3
2.585467875E0,7.843509316E-2,3.358711600E-1,-1.239183731E-2
2.589438188E0,5.464625731E-2,3.026051819E-1,-3.118903376E-2
2.593408500E0,3.504621238E-2,2.680476606E-1,-5.717698485E-2
2.597378813E0,1.415462047E-2,2.434036136E-1,-7.646287233E-2
2.601350688E0,1.134464052E-3,2.009746581E-1,-7.487462461E-2
2.605321000E0,2.129301662E-3,1.748296320E-1,-5.038765445E-2
2.609289750E0,4.956734832E-3,1.690874994E-1,-1.792453043E-2
2.613261625E0,-6.021386012E-3,1.666963995E-1,3.193952609E-3
2.617231938E0,-2.528982051E-2,1.769065708E-1,4.625122529E-3
2.621202250E0,-4.914847016E-2,1.871167421E-1,-4.188790335E-4
2.625172563E0,-7.599163800E-2,1.858601123E-1,-4.153883550E-3
2.629142875E0,-9.909979254E-2,1.867153198E-1,-6.771877408E-3
2.633114750E0,-1.201833710E-1,1.926668882E-1,-5.654866807E-3
2.637085063E0,-1.360658705E-1,2.101550996E-1,-2.949606394E-3
2.641055375E0,-1.468345523E-1,2.340137511E-1,-2.234021435E-3
2.645025688E0,-1.550550461E-1,2.594955564E-1,-6.579891313E-3
2.648996000E0,-1.603608578E-1,2.849599123E-1,-1.267109066E-2
2.652966313E0,-1.552819461E-1,3.119252324E-1,-1.757546514E-2
2.656936625E0,-1.455255598E-1,3.356617093E-1,-2.261946723E-2
2.660908500E0,-1.321214288E-1,3.553839326E-1,-2.694788389E-2
2.664878813E0,-1.156978756E-1,3.752981424E-1,-3.213151172E-2
2.668849125E0,-9.906488657E-2,3.875503540E-1,-3.605850041E-2
2.672819438E0,-8.463101834E-2,3.933273852E-1,-3.572688997E-2
2.676789750E0,-7.183775306E-2,3.912155628E-1,-3.307398781E-2
2.680760063E0,-6.761405617E-2,3.826808929E-1,-2.982767671E-2
2.684731938E0,-6.333799660E-2,3.709697425E-1,-2.370157093E-2
2.688700688E0,-6.239552051E-2,3.563264310E-1,-2.104867063E-2
2.692672563E0,-6.031857803E-2,3.434807956E-1,-1.780235767E-2
2.696642875E0,-5.543165654E-2,3.304781020E-1,-1.425934024E-2
2.700613188E0,-5.038765445E-2,3.149097562E-1,-8.656833321E-3
2.704583500E0,-4.590215907E-2,3.000046313E-1,-2.530727303E-3
2.708553813E0,-4.248131439E-2,2.891836166E-1,4.014257342E-3
2.712524125E0,-4.309218004E-2,2.827607989E-1,9.791296907E-3
2.716496000E0,-4.356341809E-2,2.821324766E-1,1.129228063E-2
2.720466313E0,-4.427900165E-2,2.842443287E-1,1.228711754E-2
2.724436625E0,-4.462806880E-2,2.867401540E-1,1.104793418E-2
2.728406938E0,-4.635594413E-2,2.898119092E-1,8.918632753E-3
2.732377250E0,-5.133013427E-2,2.885029316E-1,7.609635592E-3
2.736347563E0,-5.684537441E-2,2.897944748E-1,7.557275705E-3
2.740319438E0,-6.218608096E-2,2.946639359E-1,8.168140426E-3
2.744288188E0,-6.284930557E-2,3.033033311E-1,6.963863503E-3
2.748258500E0,-6.330309063E-2,3.115761876E-1,3.193952609E-3
2.752230375E0,-6.342526525E-2,3.187145591E-1,-3.036872949E-3
2.756200688E0,-6.225589290E-2,3.256959021E-1,-1.040216256E-2
2.760171000E0,-6.239552051E-2,3.281044364E-1,-1.788962446E-2
2.764141313E0,-6.529276818E-2,3.227288425E-1,-2.270673402E-2
2.768111625E0,-6.531021744E-2,3.152937293E-1,-2.637192421E-2
2.772081938E0,-6.454227865E-2,3.059911132E-1,-2.867575921E-2
2.776053813E0,-6.346017122E-2,2.957285941E-1,-3.108431399E-2
2.780024125E0,-5.941100791E-2,2.873335481E-1,-3.005456924E-2
2.783994438E0,-5.262167752E-2,2.776120603E-1,-2.617993951E-2
2.787969438E0,-4.604178667E-2,2.656041980E-1,-1.973967440E-2
2.791935063E0,-4.101523757E-2,2.553940415E-1,-1.415462047E-2
2.795905375E0,-3.352777660E-2,2.432465404E-1,-8.779006079E-3
2.799875688E0,-2.977531776E-2,2.284810543E-1,-3.769911127E-3
2.803846000E0,-2.398082428E-2,2.136457562E-1,1.431170036E-3
2.807817875E0,-1.884955540E-2,1.947263777E-1,7.766715251E-3
2.811788188E0,-1.134464052E-2,1.771334708E-1,1.363102160E-2
2.815758500E0,-8.028514567E-4,1.584235430E-1,1.937315427E-2
2.819728813E0,1.139700040E-2,1.411971301E-1,2.494075522E-2
2.823699125E0,2.513274178E-2,1.226966456E-1,3.014183603E-2
2.827669438E0,3.684389964E-2,1.014734432E-1,3.286454827E-2
2.831641313E0,4.728097096E-2,8.194320649E-2,3.433062509E-2
2.835611625E0,5.525712296E-2,5.667084083E-2,3.651228920E-2
2.839581938E0,6.021386012E-2,3.218387067E-2,3.797836602E-2
2.843552250E0,6.494370103E-2,3.804817796E-3,3.792600334E-2
2.847522563E0,6.784094870E-2,-2.541199327E-2,3.670427576E-2
2.851492875E0,6.890559942E-2,-5.393067375E-2,3.577924892E-2
2.855463188E0,6.932447851E-2,-8.155923337E-2,3.371975943E-2
2.859461625E0,7.019714266E-2,-1.057669520E-1,3.274237737E-2
2.863403813E0,7.026695460E-2,-1.251924634E-1,3.038618155E-2
2.867375688E0,7.073819637E-2,-1.418254524E-1,2.811725438E-2
2.871346000E0,7.161086053E-2,-1.550550461E-1,2.525491454E-2
2.875316313E0,6.928957254E-2,-1.691922098E-1,2.029817924E-2
2.879286625E0,6.777113676E-2,-1.799434423E-1,1.523672417E-2
2.883256938E0,6.497860700E-2,-1.940457076E-1,9.407324716E-3
2.887231938E0,6.272713095E-2,-2.097536623E-1,2.617993858E-3
2.891199125E0,6.078981608E-2,-2.249903977E-1,-5.759586580E-3
2.895169438E0,5.907939374E-2,-2.429672778E-1,-1.366592757E-2
2.899139750E0,6.014404446E-2,-2.590941191E-1,-2.158972248E-2
2.903110063E0,6.087708473E-2,-2.730916739E-1,-3.014183603E-2
2.907080375E0,5.834635720E-2,-2.910336554E-1,-3.808308393E-2
2.911050688E0,5.754350498E-2,-3.040014505E-1,-4.377285764E-2
2.915022563E0,5.297074094E-2,-3.167074323E-1,-4.916592315E-2
2.918991313E0,4.696680978E-2,-3.302511871E-1,-5.510004610E-2
2.922961625E0,4.103269055E-2,-3.398156166E-1,-5.904448777E-2
2.926933500E0,3.406882659E-2,-3.478790224E-1,-6.113888323E-2
2.930903813E0,2.907718532E-2,-3.540400267E-1,-6.077236310E-2
2.934874125E0,2.567379363E-2,-3.606199324E-1,-5.827654526E-2
2.938844438E0,2.448697016E-2,-3.660828173E-1,-5.461135134E-2
2.942814750E0,2.403318323E-2,-3.730815649E-1,-5.108578876E-2
2.946785063E0,2.495820820E-2,-3.770085573E-1,-4.656538367E-2
2.950756938E0,2.624975145E-2,-3.849672675E-1,-4.297000542E-2
2.954727250E0,2.825688012E-2,-3.900461793E-1,-3.811798990E-2
2.958697563E0,2.921681106E-2,-3.988949955E-1,-3.488913178E-2
2.962667875E0,2.888519876E-2,-4.063301086E-1,-3.241076320E-2
2.966638188E0,2.832669392E-2,-4.179016352E-1,-2.994984947E-2
2.970608500E0,2.879793197E-2,-4.288972020E-1,-2.750638872E-2
2.974580375E0,3.087487444E-2,-4.431914687E-1,-2.324778587E-2
2.978571000E0,3.457497060E-2,-4.565781355E-1,-1.942551509E-2
2.982521000E0,3.855432197E-2,-4.678704143E-1,-1.752310619E-2
2.986491313E0,4.183554277E-2,-4.769984782E-1,-1.612684131E-2
2.990461625E0,4.375540465E-2,-4.844859540E-1,-1.562069636E-2
2.994431938E0,4.530874640E-2,-4.894601405E-1,-1.457349956E-2
2.998402250E0,4.495968297E-2,-4.943819642E-1,-1.596976258E-2
3.002372563E0,4.337143153E-2,-4.957956672E-1,-1.829105057E-2
3.006344438E0,3.993313387E-2,-4.954291582E-1,-2.038544603E-2
3.010314750E0,3.754203022E-2,-4.909611046E-1,-2.485348843E-2
3.014285063E0,3.570943698E-2,-4.828628004E-1,-2.904227935E-2
3.018255375E0,3.312635049E-2,-4.729318619E-1,-3.462733328E-2
3.022225688E0,3.049090132E-2,-4.635769129E-1,-3.895574808E-2
3.026196000E0,2.860594541E-2,-4.487939477E-1,-4.354596511E-2
3.030167875E0,2.691297606E-2,-4.312359393E-1,-4.836307466E-2
3.034138188E0,2.766346931E-2,-4.069409668E-1,-5.216789246E-2
3.038106938E0,2.666863054E-2,-3.822270930E-1,-5.436700583E-2
3.042078813E0,2.309070528E-2,-3.604454100E-1,-5.525712296E-2
3.046049125E0,2.094395086E-2,-3.344399929E-1,-5.412266031E-2
3.050019438E0,2.010619268E-2,-3.070383072E-1,-5.351179466E-2
3.053991313E0,1.881464943E-2,-2.800206244E-1,-5.276130140E-2
3.057960063E0,1.457349956E-2,-2.532647252E-1,-5.000368133E-2
3.061930375E0,1.302015595E-2,-2.258106917E-1,-4.658283666E-2
3.065902250E0,9.145525284E-3,-1.981646866E-1,-4.358087108E-2
3.069872563E0,4.380776547E-3,-1.737998873E-1,-3.872885555E-2
3.073842875E0,-6.108652451E-4,-1.537460536E-1,-3.565707803E-2
3.077813188E0,-4.188789986E-3,-1.313709319E-1,-3.139847144E-2
3.081783500E0,-9.616764262E-3,-1.116836220E-1,-2.487094142E-2
3.085753813E0,-1.300270297E-2,-9.028588235E-2,-1.895427518E-2
3.089725688E0,-1.598721556E-2,-7.281513512E-2,-1.349139493E-2
3.093696000E0,-1.933824830E-2,-5.593780056E-2,-9.354964830E-3
3.097664750E0,-2.094395086E-2,-3.782128543E-2,-8.272860199E-3
3.101636625E0,-2.258456126E-2,-1.490511186E-2,-6.806783844E-3
3.105606938E0,-2.420771681E-2,9.145525284E-3,-6.108652335E-3
3.109578813E0,-2.764601447E-2,3.422590718E-2,-5.934119225E-3
3.113547563E0,-2.960078418E-2,6.243042648E-2,-4.677482415E-3
3.117517875E0,-3.206169978E-2,8.876744658E-2,-2.705260413E-3
3.121488188E0,-3.225368261E-2,1.140049100E-1,-1.431170036E-3
3.125460063E0,-3.169517964E-2,1.360833198E-1,-1.710422686E-3
3.129430375E0,-3.275983036E-2,1.559975296E-1,-1.762782573E-3
3.133400688E0,-3.392919898E-2,1.705186665E-1,-7.330382941E-4
3.137371000E0,-3.590142354E-2,1.843765825E-1,-3.141592606E-4
3.141341313E0,-4.002039880E-2,1.953721493E-1,-3.490658419E-4
3.145311625E0,-4.516912252E-2,2.048667520E-1,-1.274090377E-3
3.149283500E0,-5.146975815E-2,2.127556354E-1,-1.064650831E-3
3.153252250E0,-5.944591388E-2,2.175203860E-1,-1.151917269E-3
3.157224125E0,-6.407103688E-2,2.228436321E-1,-1.780235791E-3
3.161194438E0,-6.859143823E-2,2.269277126E-1,-1.797689125E-3
3.165164750E0,-7.384487987E-2,2.326523811E-1,-4.206243437E-3
3.169135063E0,-8.077383786E-2,2.350609452E-1,-4.834562074E-3
3.173105375E0,-8.484045416E-2,2.403492928E-1,-5.899212789E-3
3.177075688E0,-8.922123164E-2,2.436828762E-1,-7.086036727E-3
3.181047563E0,-9.367182106E-2,2.462136000E-1,-7.993607782E-3
3.185030375E0,-9.889035672E-2,2.456725389E-1,-9.581857361E-3
3.188988188E0,-1.011592820E-1,2.446253449E-1,-1.165879890E-2
3.192958500E0,-1.002517119E-1,2.416408360E-1,-1.429424621E-2
3.196928813E0,-9.714502841E-2,2.384468764E-1,-1.619665511E-2
3.200899125E0,-9.257226437E-2,2.328269184E-1,-1.850049011E-2
3.204869438E0,-8.761552721E-2,2.265088260E-1,-2.000147291E-2
3.208841313E0,-8.225736767E-2,2.173632979E-1,-2.158972248E-2
3.212811625E0,-7.588691264E-2,2.053379864E-1,-2.171189524E-2
3.216781938E0,-7.213445753E-2,1.872912794E-1,-2.099631168E-2
3.220752250E0,-6.647959352E-2,1.728050560E-1,-1.973967440E-2
3.224722563E0,-6.290166825E-2,1.559102684E-1,-1.806415804E-2
3.228694438E0,-5.534439161E-2,1.450543106E-1,-1.476548519E-2
3.232663188E0,-4.675737023E-2,1.322959512E-1,-1.059414819E-2
3.236633500E0,-3.984586522E-2,1.203753576E-1,-6.038838997E-3
3.240605375E0,-3.171263263E-2,1.114043668E-1,-1.256637042E-3
3.244575688E0,-2.312561311E-2,1.030267850E-1,3.001966281E-3
3.248546000E0,-1.530653704E-2,9.424778074E-2,5.759586580E-3
3.252516313E0,-7.557275705E-3,8.456119895E-2,7.836528122E-3
3.256486625E0,1.745329246E-5,7.482226193E-2,9.285151958E-3
3.260456938E0,7.557275705E-3,6.504841894E-2,9.965829551E-3
3.264428813E0,1.509709843E-2,5.529202893E-2,1.075122785E-2
3.268399125E0,1.857030392E-2,4.188790172E-2,1.078613475E-2
3.272369438E0,2.338741161E-2,3.569198400E-2,9.896016680E-3
3.276339750E0,2.539454028E-2,2.909463830E-2,9.075712413E-3
3.280310063E0,2.487094142E-2,2.122320421E-2,6.894050632E-3
3.284280375E0,2.548180707E-2,1.975712739E-2,5.724680144E-3
3.288252250E0,2.445206232E-2,1.593485661E-2,2.268928103E-3
3.292221000E0,2.220058814E-2,1.235693134E-2,-2.391101094E-3
3.296192875E0,1.891936921E-2,9.180432186E-3,-7.819075137E-3
3.300163188E0,1.534144394E-2,6.684611086E-3,-1.209513191E-2
3.304133500E0,1.291543618E-2,5.288347602E-3,-1.698205434E-2
3.308103813E0,9.424777701E-3,4.468042869E-3,-2.125811018E-2
3.312074125E0,4.590216093E-3,4.258603323E-3,-2.733185515E-2
3.316044438E0,6.283185212E-4,4.520402756E-3,-3.103195317E-2
3.320016313E0,-4.293509759E-3,6.370451767E-3,-3.364994749E-2
3.323986625E0,-9.058258496E-3,7.906341925E-3,-3.555235639E-2
3.327956938E0,-1.059414819E-2,1.403244678E-2,-3.513347730E-2
3.331927250E0,-1.251401100E-2,2.043780498E-2,-3.593632951E-2
3.335899125E0,-1.345648803E-2,2.949606441E-2,-3.508111835E-2
3.339867875E0,-1.279326342E-2,3.923500329E-2,-3.200933710E-2
3.343838188E0,-1.548107062E-2,4.598942399E-2,-2.789036185E-2
3.347810063E0,-1.708677411E-2,5.120795965E-2,-2.410299703E-2
3.351778813E0,-1.932079531E-2,5.557128415E-2,-1.965240762E-2
3.355750688E0,-1.914626174E-2,6.154030934E-2,-1.338667516E-2
3.359721000E0,-1.909390278E-2,6.475171447E-2,-7.522369269E-3
3.363691313E0,-1.727875881E-2,6.724753231E-2,-1.937315450E-3
3.367661625E0,-1.319468953E-2,6.864380091E-2,4.171337001E-3
3.371631938E0,-1.001818944E-2,6.691592187E-2,1.059414819E-2
3.375602250E0,-5.724680144E-3,6.359979510E-2,1.527163107E-2
3.379574125E0,-1.308996929E-3,6.091199070E-2,1.754055917E-2
3.383544438E0,3.298672382E-3,5.839871615E-2,2.129301615E-2
3.387514750E0,7.522369269E-3,5.490805954E-2,2.288126573E-2
3.391485063E0,1.041961554E-2,4.916592315E-2,2.134537697E-2
3.395455375E0,1.207767799E-2,4.270820692E-2,1.928588748E-2
3.399425688E0,1.371828746E-2,3.710569814E-2,1.783726551E-2
3.403396000E0,1.413716655E-2,3.234095126E-2,1.549852360E-2
3.407369438E0,1.546361670E-2,2.837905288E-2,1.188569237E-2
3.411336625E0,1.279326342E-2,2.237512171E-2,7.033676840E-3
3.415308500E0,1.209513191E-2,2.172934823E-2,2.303834539E-3
3.419278813E0,1.115265395E-2,2.033308521E-2,-2.076941775E-3
3.423249125E0,1.031489577E-2,2.300344035E-2,-7.592182141E-3
3.427219438E0,9.948376566E-3,2.700024284E-2,-1.218239777E-2
3.431189750E0,7.749261800E-3,3.061307408E-2,-1.699950732E-2
3.435160063E0,4.310963210E-3,3.351031989E-2,-2.125811018E-2
3.439131938E0,-4.886921961E-4,3.605850041E-2,-2.628465928E-2
3.443102250E0,-3.089232836E-3,4.169591516E-2,-2.865830623E-2
3.447072563E0,-8.604473434E-3,4.241150245E-2,-2.956587821E-2
3.451042875E0,-1.153662615E-2,4.726351425E-2,-2.951351739E-2
3.455013188E0,-1.589994878E-2,4.899139330E-2,-2.874557301E-2
3.458983500E0,-2.035053819E-2,5.183627829E-2,-2.778564207E-2
3.462955375E0,-2.558652684E-2,5.108578876E-2,-2.799508162E-2
3.466924125E0,-2.785545401E-2,5.283111706E-2,-2.743657492E-2
3.470896000E0,-3.024655581E-2,5.241223797E-2,-2.579596639E-2
3.474866313E0,-3.192207217E-2,4.852015153E-2,-2.310816012E-2
3.478836625E0,-3.417354822E-2,4.312708601E-2,-2.045525797E-2
3.482806938E0,-3.431317210E-2,3.782128543E-2,-1.478293911E-2
3.486777250E0,-3.089232743E-2,3.597123548E-2,-1.045452245E-2
3.490747563E0,-2.998475730E-2,2.949606441E-2,-7.208209950E-3
3.494719438E0,-2.689552307E-2,2.748893574E-2,-3.961897455E-3
3.498689750E0,-2.398082428E-2,2.501056902E-2,-1.151917269E-3
3.502660063E0,-2.066469751E-2,2.150245570E-2,7.679448463E-4
3.506630375E0,-1.829105057E-2,1.668534800E-2,5.061454722E-4
3.510600688E0,-1.420698036E-2,1.286307629E-2,1.361356815E-3
3.514571000E0,-1.073377486E-2,7.051130291E-3,5.235987483E-4
3.518541313E0,-6.510077976E-3,2.967059612E-3,-2.792526793E-4
3.522511625E0,-3.909537569E-3,-2.879793290E-3,-2.007128671E-3
3.526481938E0,-1.431170036E-3,-9.546951391E-3,-5.305801053E-3
3.530453813E0,-3.316125658E-4,-1.579522900E-2,-7.068583276E-3
3.534424125E0,2.199114766E-3,-2.146754973E-2,-9.494591504E-3
3.538394438E0,2.862340072E-3,-2.748893574E-2,-1.223475765E-2
3.542364750E0,3.630284918E-3,-3.447025269E-2,-1.384046115E-2
3.546335063E0,4.590216093E-3,-3.885103017E-2,-1.577777602E-2
3.550305375E0,4.991641734E-3,-4.148647562E-2,-1.717403904E-2
3.554277250E0,5.235987715E-3,-4.611159861E-2,-1.935570128E-2
3.558247563E0,5.166174378E-3,-5.000368133E-2,-2.143264376E-2
3.562217875E0,6.335545331E-3,-5.162683874E-2,-2.286381274E-2
3.566188188E0,8.168140426E-3,-5.145230517E-2,-2.565634064E-2
3.570158500E0,7.871435024E-3,-5.064945295E-2,-2.804744057E-2
3.574128813E0,6.143558770E-3,-5.316272750E-2,-2.851868048E-2
3.578100688E0,8.412486874E-3,-5.138249323E-2,-2.893755957E-2
3.582071000E0,1.155408006E-2,-4.687954485E-2,-2.979277074E-2
3.586041313E0,1.569050923E-2,-4.148647562E-2,-2.776818909E-2
3.590011625E0,2.038544603E-2,-4.232423380E-2,-2.556907386E-2
3.593981938E0,2.326523885E-2,-4.525638744E-2,-2.335250564E-2
3.597952250E0,2.792526782E-2,-4.618141055E-2,-1.961750165E-2
3.601922563E0,3.260274976E-2,-4.806636646E-2,-1.666789502E-2
3.605892875E0,3.412118554E-2,-5.037020147E-2,-1.260127686E-2
3.609863188E0,3.586651757E-2,-5.127777159E-2,-8.517206647E-3
3.613835063E0,3.647737950E-2,-5.091125518E-2,-5.515240598E-3
3.617805375E0,3.497639671E-2,-5.276130140E-2,-1.553343027E-3
3.621775688E0,3.354522958E-2,-5.160938576E-2,1.710422686E-3
3.625746000E0,3.104940802E-2,-5.084143952E-2,4.520402756E-3
3.629716313E0,2.740166895E-2,-5.033529550E-2,6.318091881E-3
3.633688188E0,2.476622164E-2,-4.557054490E-2,6.335545331E-3
3.637658500E0,2.171189524E-2,-4.173082113E-2,6.475171540E-3
3.641628813E0,1.939060725E-2,-3.743731230E-2,6.824237294E-3
3.645599125E0,1.743583940E-2,-3.298672289E-2,5.113814492E-3
3.649569438E0,1.691224054E-2,-2.612757869E-2,2.844886621E-3
3.653539750E0,1.452113967E-2,-2.160717547E-2,6.108652451E-4
3.657510063E0,1.406735368E-2,-1.862266287E-2,-2.670353744E-3
3.661480375E0,1.242674422E-2,-1.380555425E-2,-5.934119225E-3
3.665450688E0,1.246165112E-2,-1.328195538E-2,-8.901178837E-3
3.669422563E0,1.110029407E-2,-1.481784508E-2,-1.192059834E-2
3.673392875E0,1.015781611E-2,-1.551597659E-2,-1.438151300E-2
3.677363188E0,9.599311277E-3,-1.630137488E-2,-1.500983164E-2
3.681333500E0,1.261873078E-2,-1.092576142E-2,-1.668534800E-2
3.685303813E0,1.356120780E-2,-8.028514683E-3,-1.487020496E-2
3.689274125E0,1.425934024E-2,3.543018363E-3,-1.363102160E-2
3.693244438E0,1.715658605E-2,1.939060725E-2,-1.270599663E-2
3.697216313E0,1.233947743E-2,2.651155181E-2,-1.200786512E-2
3.701186625E0,6.562437862E-3,3.543018550E-2,-1.228711754E-2
3.705156938E0,3.543018363E-3,4.890412465E-2,-1.160643995E-2
3.709127250E0,-1.884955564E-3,5.665338784E-2,-1.082104165E-2
3.713097563E0,-7.225662936E-3,6.045820564E-2,-8.063420653E-3
3.717067875E0,-1.010545623E-2,6.358234584E-2,-6.736970972E-3
3.721038188E0,-1.719149388E-2,5.775294453E-2,-5.794493016E-3
3.725008500E0,-1.813396998E-2,5.352924764E-2,-3.892084118E-3
3.728980375E0,-2.124065720E-2,4.640830308E-2,-3.700098023E-3
3.732950688E0,-2.431243658E-2,3.883357719E-2,-1.692969352E-3
3.736921000E0,-2.391101047E-2,3.384193406E-2,4.712388909E-4
3.740891313E0,-2.576106042E-2,2.635447122E-2,3.298672382E-3
3.744861625E0,-2.427753061E-2,2.291617356E-2,5.689773243E-3
3.748831938E0,-2.254965343E-2,2.216568217E-2,6.928957067E-3
3.752803813E0,-2.209586836E-2,1.851794310E-2,7.836528122E-3
3.756774125E0,-1.956514083E-2,1.965240762E-2,7.033676840E-3
3.760742875E0,-1.694714651E-2,1.860520989E-2,7.871435024E-3
3.764714750E0,-1.219985168E-2,1.923352852E-2,5.078908056E-3
3.768685063E0,-6.894050632E-3,2.150245570E-2,4.502949305E-3
3.772655375E0,1.745329209E-4,2.947861142E-2,3.438298590E-3
3.776625688E0,8.953538723E-3,3.696607426E-2,1.064650831E-3
3.780596000E0,1.921607554E-2,4.614650458E-2,-8.901178953E-4
3.784566313E0,2.883283980E-2,5.262167752E-2,-2.757620299E-3
3.788538188E0,3.539527580E-2,5.625196174E-2,-4.607669078E-3
3.792508500E0,3.876376152E-2,5.523966998E-2,-6.894050632E-3
3.796478813E0,4.160865024E-2,5.452408642E-2,-8.395033889E-3
3.800449125E0,4.202752933E-2,5.253440887E-2,-8.639379404E-3
3.804419438E0,4.078834504E-2,5.096361414E-2,-9.302604944E-3
3.808391313E0,3.776892647E-2,4.829325899E-2,-9.930923581E-3
3.812364750E0,3.396410868E-2,4.939281940E-2,-1.022762898E-2
3.816331938E0,3.010693006E-2,5.105087906E-2,-1.062905509E-2
3.820302250E0,2.247984149E-2,5.117305368E-2,-1.087340154E-2
3.824272563E0,1.312487572E-2,5.047492310E-2,-1.137954649E-2
3.828242875E0,4.206243437E-3,4.815363511E-2,-1.062905509E-2
3.832213188E0,-2.460914198E-3,5.101597309E-2,-1.162389293E-2
3.836183500E0,-9.477137588E-3,5.476843193E-2,-1.308996975E-2
3.840153813E0,-1.583013684E-2,5.937610194E-2,-1.167625282E-2
3.844125688E0,-1.942551509E-2,6.703809649E-2,-1.022762898E-2
3.848096000E0,-2.295107953E-2,7.655014098E-2,-8.517206647E-3
3.852066313E0,-2.384119667E-2,9.094911069E-2,-4.747295752E-3
3.856036625E0,-2.528982051E-2,1.053829789E-1,-1.658062800E-3
3.860006938E0,-2.356194519E-2,1.202880889E-1,1.745329209E-4
3.863977250E0,-2.174680308E-2,1.339540184E-1,8.203047328E-4
3.867949125E0,-2.309070528E-2,1.429424584E-1,2.478367416E-3
3.871919438E0,-2.132792398E-2,1.516167521E-1,3.822271014E-3
3.875889750E0,-1.905899495E-2,1.561197042E-1,5.218534265E-3
3.879860063E0,-2.012364566E-2,1.578999311E-1,6.492624991E-3
3.883830375E0,-1.815142483E-2,1.588249654E-1,8.482299745E-3
3.887800688E0,-1.642354764E-2,1.634151787E-1,1.096066739E-2
3.891772563E0,-1.507964451E-2,1.688257009E-1,1.326450240E-2
3.895742875E0,-1.396263391E-2,1.755103022E-1,1.747074537E-2
3.899711625E0,-1.352630183E-2,1.849350929E-1,1.961750165E-2
3.903683500E0,-1.462585945E-2,1.971698403E-1,2.153736353E-2
3.907653813E0,-1.520181727E-2,2.065422684E-1,2.263692021E-2
3.911624125E0,-1.626646891E-2,2.171189636E-1,2.473131567E-2
3.915594438E0,-1.984439418E-2,2.263343036E-1,2.604031190E-2
3.919564750E0,-2.138028294E-2,2.374869436E-1,2.621484548E-2
3.923535063E0,-2.389355749E-2,2.459343374E-1,2.672099136E-2
3.927506938E0,-2.469640970E-2,2.531251013E-1,2.579596639E-2
3.931477250E0,-2.642428502E-2,2.578549385E-1,2.480112948E-2
3.935447563E0,-2.356194519E-2,2.664594054E-1,2.333505265E-2
3.939417875E0,-2.129301615E-2,2.726378739E-1,2.206096239E-2
3.943388188E0,-1.755801216E-2,2.788861692E-1,2.050761878E-2
3.947358500E0,-1.340412907E-2,2.850471735E-1,1.935570128E-2
3.951330375E0,-1.232202444E-2,2.860594690E-1,1.815142483E-2
3.955299125E0,-1.190314535E-2,2.861641943E-1,1.544616371E-2
3.959271000E0,-1.418952644E-2,2.834763825E-1,1.352630183E-2
3.963241313E0,-1.300270297E-2,2.812772691E-1,1.122246683E-2
3.967211625E0,-1.328195538E-2,2.781356573E-1,9.861109778E-3
3.971181938E0,-1.350884791E-2,2.759714723E-1,8.307767101E-3
3.975152250E0,-1.431170013E-2,2.735978067E-1,7.749261800E-3
3.979135063E0,-1.392772701E-2,2.725157142E-1,7.906341925E-3
3.983094438E0,-1.396263391E-2,2.745053768E-1,7.487462368E-3
3.987064750E0,-1.398008689E-2,2.747322619E-1,6.178465672E-3
3.991035063E0,-1.761037298E-2,2.750813365E-1,5.846852902E-3
3.995005375E0,-2.246238664E-2,2.711019814E-1,4.398229532E-3
3.998975688E0,-2.583087236E-2,2.669132054E-1,2.967059612E-3
4.002946000E0,-3.349286690E-2,2.554289401E-1,1.989675453E-3
4.006916313E0,-3.818780556E-2,2.444682717E-1,9.773843922E-4
4.010888188E0,-4.392993823E-2,2.287952155E-1,-4.537856148E-4
4.014856938E0,-4.768239334E-2,2.129825205E-1,-5.410520826E-4
4.018828813E0,-4.776966199E-2,2.001194507E-1,-4.188790335E-4
4.022799125E0,-4.883431271E-2,1.841322333E-1,-8.377580671E-4
4.026769438E0,-4.715879634E-2,1.704663038E-1,-7.853981806E-4
4.030739750E0,-4.506440088E-2,1.550201476E-1,-1.082104165E-3
4.034711625E0,-4.331907257E-2,1.369908899E-1,-1.605702913E-3
4.038680375E0,-3.714060783E-2,1.255240738E-1,-4.014257342E-3
4.042652250E0,-3.071779385E-2,1.124515608E-1,-3.874630900E-3
4.046622563E0,-2.316051908E-2,9.669124335E-2,-3.246312495E-3
4.050592875E0,-1.668534800E-2,8.234463632E-2,-2.775073517E-3
4.054563188E0,-4.764748737E-3,7.361798733E-2,-1.745329238E-3
4.058533500E0,6.597344764E-3,6.714281440E-2,2.967059845E-4
4.062503813E0,1.741838641E-2,5.612978712E-2,2.809980186E-3
4.066475688E0,2.624975145E-2,4.333652556E-2,3.752457909E-3
4.070446000E0,3.696607426E-2,3.364994749E-2,4.450589418E-3
4.074416313E0,4.670501128E-2,2.331759781E-2,3.438298590E-3
4.078386625E0,5.164429173E-2,7.208209950E-3,1.815142459E-3
4.082356938E0,5.684537441E-2,-4.939281847E-3,-4.014257283E-4
4.086327250E0,5.761331692E-2,-2.527236752E-2,-3.996803891E-3
4.090299125E0,5.705481395E-2,-4.427900165E-2,-7.173303049E-3
4.094267875E0,5.510004610E-2,-6.698573381E-2,-1.087340154E-2
4.098238188E0,5.354670063E-2,-8.587019891E-2,-1.560324337E-2
4.102210063E0,4.815363511E-2,-1.061509252E-1,-1.864011586E-2
4.106180375E0,4.541346803E-2,-1.212131158E-1,-2.183406800E-2
4.110150688E0,4.167846218E-2,-1.347743273E-1,-2.553416602E-2
4.114121000E0,3.724532574E-2,-1.440245658E-1,-2.801253460E-2
4.118091313E0,3.291691095E-2,-1.491732895E-1,-2.954842336E-2
4.122061625E0,2.773328125E-2,-1.548456103E-1,-3.010693006E-2
4.126033500E0,2.366666496E-2,-1.546885371E-1,-3.040363453E-2
4.130002250E0,2.110103145E-2,-1.510407925E-1,-3.033382259E-2
4.133974125E0,1.802925020E-2,-1.434486061E-1,-3.090978041E-2
4.137944438E0,1.270599663E-2,-1.374272257E-1,-3.000221029E-2
4.141914750E0,8.168140426E-3,-1.295034289E-1,-2.916445211E-2
4.145885063E0,3.822271014E-3,-1.220508739E-1,-2.879793197E-2
4.149856938E0,1.483529806E-3,-1.140747219E-1,-2.750638872E-2
4.153825688E0,1.012290944E-3,-1.035678387E-1,-2.595304511E-2
4.157797563E0,2.548180753E-3,-9.419541806E-2,-2.661627159E-2
4.161767875E0,3.263765713E-3,-8.993681520E-2,-2.768092230E-2
4.165738188E0,3.892084118E-3,-8.868017793E-2,-2.796017379E-2
4.169708500E0,5.567600485E-3,-8.970992267E-2,-2.759365551E-2
4.173678813E0,1.036725566E-2,-8.922123164E-2,-2.719222941E-2
4.177649125E0,1.267109066E-2,-9.332275391E-2,-2.693043090E-2
4.181619438E0,1.822123677E-2,-9.618509561E-2,-2.822197415E-2
4.185591313E0,2.134537697E-2,-9.813986719E-2,-2.841396071E-2
4.189561625E0,2.185152285E-2,-1.040739864E-1,-2.799508162E-2
4.193531938E0,2.364921197E-2,-1.060636565E-1,-2.729694918E-2
4.197502250E0,2.682571113E-2,-1.058367640E-1,-2.801253460E-2
4.201472563E0,2.900737152E-2,-1.047197580E-1,-2.729694918E-2
4.205444438E0,2.940879762E-2,-1.030791476E-1,-2.785545401E-2
4.209413188E0,3.118903376E-2,-1.008276716E-1,-2.785545401E-2
4.213383500E0,3.014183603E-2,-9.906488657E-2,-2.816961333E-2
4.217355375E0,2.942625061E-2,-9.618509561E-2,-2.898991853E-2
4.221325688E0,2.937389165E-2,-9.030333161E-2,-2.919935808E-2
4.225296000E0,2.651155181E-2,-8.471827954E-2,-2.940879762E-2
4.229266313E0,2.244493365E-2,-7.888887823E-2,-2.825688012E-2
4.233236625E0,1.626646891E-2,-7.557275891E-2,-2.736676298E-2
4.237206938E0,1.045452245E-2,-6.763150543E-2,-2.727949619E-2
4.241178813E0,3.665191354E-3,-6.253514439E-2,-2.605776489E-2
4.245149125E0,-1.413716702E-3,-5.640904233E-2,-2.242748067E-2
4.249119438E0,-7.993607782E-3,-5.255186185E-2,-2.057743259E-2
4.253089750E0,-1.288053021E-2,-5.183627829E-2,-1.827359758E-2
4.257060063E0,-1.928588748E-2,-5.256931856E-2,-1.497492474E-2
4.261030375E0,-1.942551509E-2,-4.176572710E-2,-9.896016680E-3
4.265002250E0,-2.052507177E-2,-3.307398781E-2,-5.567600485E-3
4.268972563E0,-2.155481651E-2,-2.612757869E-2,-9.773843922E-4
4.272941313E0,-2.185152285E-2,-1.862266287E-2,8.028514567E-4
4.276913188E0,-2.024581842E-2,-9.285151958E-3,2.042035107E-3
4.280883500E0,-1.773254573E-2,-6.981316983E-5,2.652900526E-3
4.284853813E0,-1.572541706E-2,-5.235987483E-4,4.014257342E-3
4.288824125E0,-1.052433532E-2,-3.490658492E-5,5.270894151E-3
4.292794438E0,-6.911503617E-3,-1.117010717E-3,4.398229532E-3
4.296766313E0,-1.605702913E-3,-3.193952609E-3,5.078908056E-3
4.300736625E0,2.617993858E-3,-1.143190637E-2,5.550147034E-3
4.304706938E0,6.876597181E-3,-1.884955540E-2,6.283185445E-3
4.308677250E0,1.431170013E-2,-2.422516979E-2,5.724680144E-3
4.312647563E0,1.672025397E-2,-3.227113932E-2,4.363323096E-3
4.316617875E0,2.094395086E-2,-3.782128543E-2,3.106686054E-3
4.320588188E0,2.370157093E-2,-4.454080388E-2,2.635447076E-3
4.324560063E0,2.684316412E-2,-4.885176569E-2,1.902408898E-3
4.328528813E0,2.991494350E-2,-4.996877536E-2,3.211405827E-3
4.332500688E0,3.176499158E-2,-5.267403647E-2,3.106686054E-3
4.336471000E0,3.300417587E-2,-5.309291556E-2,5.183627829E-3
4.340441313E0,3.408627957E-2,-5.061454698E-2,4.834562074E-3
4.344411625E0,3.239331022E-2,-5.089380220E-2,3.839724232E-3
4.348381938E0,3.406882659E-2,-4.689699784E-2,3.124139272E-3
4.352352250E0,3.134611249E-2,-4.555309191E-2,2.338741207E-3
4.356324125E0,3.094468825E-2,-4.157374427E-2,3.316125658E-4
4.360294438E0,2.886774577E-2,-4.010766745E-2,-1.378810150E-3
4.364264750E0,2.532472648E-2,-4.016002640E-2,-4.398229532E-3
4.368235063E0,2.049016580E-2,-3.837978840E-2,-7.749261800E-3
4.372205375E0,1.726130582E-2,-3.640756756E-2,-1.057669520E-2
4.376175688E0,1.055924222E-2,-3.469714522E-2,-1.462585945E-2
4.380147563E0,5.044001620E-3,-2.956587821E-2,-1.837831736E-2
4.384117875E0,5.934119690E-4,-2.071705833E-2,-2.087413706E-2
4.388086625E0,-6.562437862E-3,-1.509709843E-2,-2.392846346E-2
4.392058500E0,-1.417207345E-2,-6.405358203E-3,-2.637192421E-2
4.396028813E0,-2.246238664E-2,3.525565146E-3,-2.988003753E-2
4.399999125E0,-3.035127558E-2,1.665044017E-2,-3.289945796E-2
4.403971000E0,-3.616322204E-2,2.911209129E-2,-3.459242731E-2
4.407946000E0,-4.265584797E-2,4.214970022E-2,-3.684389964E-2
4.411910063E0,-4.932300374E-2,5.426228791E-2,-3.907792270E-2
4.415881938E0,-5.180137232E-2,6.888814270E-2,-3.846705705E-2
4.419852250E0,-5.455899239E-2,8.487536013E-2,-3.755948693E-2
4.423822563E0,-5.452408642E-2,1.010894701E-1,-3.595378250E-2
4.427792875E0,-5.482079089E-2,1.099906489E-1,-3.537782282E-2
4.431763188E0,-5.459389836E-2,1.189267337E-1,-3.314380348E-2
4.435733500E0,-5.242969096E-2,1.272868663E-1,-2.864085324E-2
4.439705375E0,-4.869468510E-2,1.323134154E-1,-2.429498360E-2
4.443674125E0,-4.276056588E-2,1.370956153E-1,-2.061233856E-2
4.447644438E0,-3.820525855E-2,1.384918690E-1,-1.542871073E-2
4.451616313E0,-3.549999744E-2,1.355422735E-1,-9.721484035E-3
4.455586625E0,-3.073524870E-2,1.344601661E-1,-4.607669078E-3
4.459556938E0,-2.647664398E-2,1.341983676E-1,2.565633971E-3
4.463527250E0,-2.642428502E-2,1.267458051E-1,7.906341925E-3
4.467497563E0,-2.551671304E-2,1.214749143E-1,1.200786512E-2
4.471469438E0,-2.075196430E-2,1.187696531E-1,1.504473854E-2
4.475439750E0,-1.996656694E-2,1.103746220E-1,1.523672417E-2
4.479410063E0,-1.857030392E-2,1.035154760E-1,1.497492474E-2
4.483380375E0,-1.548107062E-2,9.902998060E-2,1.401499379E-2
4.487350688E0,-1.438151300E-2,9.559167922E-2,1.164134592E-2
4.491321000E0,-1.153662615E-2,9.349729121E-2,8.168140426E-3
4.495291313E0,-8.831365965E-3,9.143780172E-2,5.462880712E-3
4.499261625E0,-7.382742595E-3,9.091419727E-2,8.377580671E-4
4.503231938E0,-4.293509759E-3,9.527752548E-2,-4.118977115E-3
4.507203813E0,-2.426007763E-3,9.913469851E-2,-7.976154797E-3
4.511174125E0,-2.094394993E-3,1.022413895E-1,-1.153662615E-2
4.515144438E0,-3.351032268E-3,1.062381938E-1,-1.502728462E-2
4.519114750E0,-8.499753661E-3,1.060462072E-1,-1.684242673E-2
4.523085063E0,-1.300270297E-2,1.081231460E-1,-1.867502369E-2
4.527055375E0,-1.900663599E-2,1.077391729E-1,-2.003637888E-2
4.531027250E0,-2.342231758E-2,1.120326817E-1,-1.949532703E-2
4.534997563E0,-3.104940802E-2,1.113170981E-1,-1.965240762E-2
4.538967875E0,-3.604104742E-2,1.159596741E-1,-1.909390278E-2
4.542938188E0,-4.127703607E-2,1.201833710E-1,-1.670280099E-2
4.546908500E0,-4.564036056E-2,1.241452694E-1,-1.410226058E-2
4.550878813E0,-4.843288660E-2,1.274439394E-1,-1.118756086E-2
4.554849125E0,-5.021312088E-2,1.284562349E-1,-8.464846760E-3
4.558821000E0,-4.918337986E-2,1.308124214E-1,-5.637413356E-3
4.562791313E0,-4.845033959E-2,1.305331737E-1,-3.246312495E-3
4.566761625E0,-4.750786349E-2,1.289449185E-1,-2.024581889E-3
4.570731938E0,-4.605923966E-2,1.259778589E-1,8.726646047E-5
4.574702250E0,-4.237659276E-2,1.252099127E-1,1.692969352E-3
4.578674125E0,-3.780383244E-2,1.215447262E-1,2.251474652E-3
4.582642875E0,-3.539527580E-2,1.196772233E-1,3.455751808E-3
4.586613188E0,-3.494149074E-2,1.131671518E-1,3.630284918E-3
4.590585063E0,-3.150319308E-2,1.117708832E-1,3.979350906E-3
4.594553813E0,-3.148574010E-2,1.038994491E-1,3.001966281E-3
4.598524125E0,-2.984512970E-2,1.001819000E-1,3.647738136E-3
4.602496000E0,-2.911209129E-2,9.438740462E-2,5.340707488E-3
4.606466313E0,-3.028146178E-2,8.745844662E-2,8.621926419E-3
4.610436625E0,-2.576106042E-2,8.775515109E-2,1.040216256E-2
4.614408500E0,-2.261946723E-2,8.679522574E-2,1.099557430E-2
4.618378813E0,-1.790707745E-2,8.592256159E-2,1.130973361E-2
4.622349125E0,-1.078613475E-2,8.721410483E-2,1.214749180E-2
4.626319438E0,-7.435102481E-3,8.363617957E-2,1.251401100E-2
4.630289750E0,-3.543018363E-3,8.255407214E-2,1.096066739E-2
4.634260063E0,9.075712296E-4,8.061675727E-2,1.069886796E-2
4.638230375E0,2.373647876E-3,7.738789916E-2,8.831365965E-3
4.642200688E0,4.712388851E-3,7.309439033E-2,5.934119225E-3
4.646172563E0,6.387905218E-3,7.182029635E-2,2.757620299E-3
4.650142875E0,5.619960371E-3,6.728244573E-2,-1.396263397E-4
4.654113188E0,3.595378250E-3,6.112143025E-2,-3.612831468E-3
4.658083500E0,3.228859045E-3,5.516985804E-2,-7.243116386E-3
4.662053813E0,-1.570796303E-4,4.637339711E-2,-1.103048120E-2
4.666024125E0,-3.612831468E-3,4.152138159E-2,-1.340412907E-2
4.669994438E0,-4.974188283E-3,3.949680179E-2,-1.549852360E-2
4.673966313E0,-5.619960371E-3,3.762929887E-2,-1.832595654E-2
4.677936625E0,-8.185594343E-3,3.518583626E-2,-1.829105057E-2
4.681906938E0,-1.263618376E-2,3.167772666E-2,-1.754055917E-2
4.685877250E0,-1.453859266E-2,3.197443113E-2,-1.719149388E-2
4.689847563E0,-1.623156108E-2,3.249803185E-2,-1.603957638E-2
4.693817875E0,-1.895427518E-2,3.173008561E-2,-1.333431527E-2
4.697788188E0,-1.799434423E-2,3.485422581E-2,-1.097812131E-2
4.701758500E0,-1.774999872E-2,3.279473633E-2,-8.098327555E-3
4.705730375E0,-1.617920212E-2,3.347541392E-2,-5.550147034E-3
4.709700688E0,-1.366592757E-2,3.197443113E-2,-3.682644805E-3
4.713671000E0,-1.014036313E-2,2.935643867E-2,-1.082104165E-3
4.717641313E0,-9.529497474E-3,2.490584925E-2,2.286381321E-3
4.721611625E0,-6.352998316E-3,1.830850355E-2,1.815142459E-3
4.725581938E0,-6.422811653E-3,9.686577134E-3,3.054326167E-3
4.729553813E0,-8.255407214E-3,-1.448623254E-3,3.508111695E-3
4.733524125E0,-7.086036727E-3,-8.866272867E-3,4.101523664E-3
4.737494438E0,-5.113814492E-3,-1.546361670E-2,5.148721393E-3
4.741464750E0,-5.201081280E-3,-2.230530791E-2,4.677482415E-3
4.745435063E0,-4.625122529E-3,-2.844886668E-2,3.193952609E-3
4.749405375E0,-1.623156248E-3,-3.321361542E-2,5.410520826E-4
4.753375688E0,1.413716702E-3,-3.642502055E-2,-8.901178953E-4
4.757347563E0,1.308996929E-3,-3.799581900E-2,-3.508111695E-3
4.761316313E0,1.710422686E-3,-4.127703607E-2,-6.911503617E-3
4.765288188E0,5.445427261E-3,-4.213224724E-2,-9.756390937E-3
4.769258500E0,8.674286306E-3,-4.054399952E-2,-1.214749180E-2
4.773241313E0,1.192059834E-2,-4.148647562E-2,-1.518436428E-2
4.777199125E0,1.502728462E-2,-4.082325101E-2,-1.596976258E-2
4.781169438E0,1.555088349E-2,-4.187044874E-2,-1.738347858E-2
4.785141313E0,1.764527895E-2,-3.806563094E-2,-1.761037298E-2
4.789111625E0,1.516691130E-2,-3.979350626E-2,-1.841322333E-2
4.793081938E0,1.481784508E-2,-3.768165782E-2,-1.937315427E-2
4.797052250E0,1.549852360E-2,-3.621558100E-2,-2.007128671E-2
4.801022563E0,1.685987972E-2,-3.344050795E-2,-2.026327327E-2
4.804992875E0,1.918116771E-2,-3.150319308E-2,-2.045525797E-2
4.808963188E0,2.220058814E-2,-2.994984947E-2,-2.021091245E-2
4.812933500E0,2.296853252E-2,-2.939134464E-2,-1.773254573E-2
4.816905375E0,2.558652684E-2,-2.850122750E-2,-1.589994878E-2
4.820875688E0,2.942625061E-2,-2.644173801E-2,-1.148426626E-2
4.824846000E0,3.193952516E-2,-2.712241560E-2,-7.487462368E-3
4.828816313E0,3.635520861E-2,-2.925171889E-2,-2.617993741E-4
4.832786625E0,4.248131439E-2,-3.056071512E-2,5.218534265E-3
4.836756938E0,4.768239334E-2,-3.527310491E-2,1.099557430E-2
4.840727250E0,5.642649531E-2,-3.694862127E-2,1.764527895E-2
4.844699125E0,6.276203692E-2,-4.220206290E-2,2.146754973E-2
4.848669438E0,6.862634420E-2,-4.658283666E-2,2.502802201E-2
4.852639750E0,6.745697558E-2,-5.796238407E-2,2.792526782E-2
4.856610063E0,6.548475474E-2,-6.785839796E-2,2.851868048E-2
4.860580375E0,6.197664142E-2,-7.435102761E-2,2.686061710E-2
4.864550688E0,5.728170648E-2,-7.754497975E-2,2.464404888E-2
4.868521000E0,5.094616115E-2,-7.867944241E-2,2.193878777E-2
4.872492875E0,4.673991725E-2,-7.175048441E-2,1.867502369E-2
4.876463188E0,4.066617042E-2,-6.438519806E-2,1.556833647E-2
4.880433500E0,3.307398781E-2,-5.222025141E-2,1.190314535E-2
4.884403813E0,2.340486459E-2,-3.715806082E-2,9.738937020E-3
4.888374125E0,1.275835652E-2,-2.239257470E-2,7.819075137E-3
4.892344438E0,5.235987919E-5,-4.084070213E-3,4.468042869E-3
4.896314750E0,-1.363102160E-2,1.630137488E-2,1.780235791E-3
4.900285063E0,-2.925171889E-2,3.865904361E-2,-2.059488557E-3
4.904256938E0,-4.295255244E-2,6.283185631E-2,-5.619960371E-3
4.908227250E0,-5.316272750E-2,9.053023160E-2,-1.047197543E-2
4.912197563E0,-6.319837272E-2,1.185078546E-1,-1.520181727E-2
4.916167875E0,-6.867870688E-2,1.485449672E-1,-1.928588748E-2
4.920138188E0,-7.250097394E-2,1.762433499E-1,-2.516764775E-2
4.924108500E0,-7.274532318E-2,2.021440268E-1,-3.227113932E-2
4.928080375E0,-7.040657848E-2,2.275560200E-1,-3.834488243E-2
4.932050688E0,-6.558947265E-2,2.578025758E-1,-4.429645464E-2
4.936021000E0,-6.340780854E-2,2.861641943E-1,-4.975933582E-2
4.939991313E0,-6.225589290E-2,3.171961308E-1,-5.569345504E-2
4.943961625E0,-6.208136305E-2,3.493800163E-1,-5.799729005E-2
4.947931938E0,-6.311110407E-2,3.779335916E-1,-5.965535343E-2
4.951902250E0,-6.503096968E-2,4.093146026E-1,-5.586798862E-2
4.955872563E0,-6.599090248E-2,4.381299913E-1,-5.007349700E-2
4.959844438E0,-6.743951887E-2,4.646066427E-1,-4.192280769E-2
4.963814750E0,-6.962118298E-2,4.933347702E-1,-3.274237737E-2
4.967785063E0,-7.065092772E-2,5.173854232E-1,-2.265437320E-2
4.971755375E0,-7.541567832E-2,5.349434018E-1,-1.490511186E-2
4.975725688E0,-8.103563637E-2,5.456946492E-1,-5.969026126E-3
4.979696000E0,-8.927359432E-2,5.483475327E-1,2.216568217E-3
4.983667875E0,-9.925687313E-2,5.443856716E-1,1.052433532E-2
4.987638188E0,-1.114741787E-1,5.350481272E-1,1.991420612E-2
4.991606938E0,-1.250528395E-1,5.276479125E-1,2.898991853E-2
4.995578813E0,-1.422966868E-1,5.237733126E-1,3.782128543E-2
4.999549125E0,-1.598721594E-1,5.185547471E-1,4.239404574E-2
5.003521000E0,-1.789311469E-1,5.173155665E-1,4.553563893E-2
5.007489750E0,-1.942725927E-1,5.204746127E-1,4.742059484E-2
5.011460063E0,-2.080781460E-1,5.253440738E-1,4.729842395E-2
5.015430375E0,-2.218837142E-1,5.311560631E-1,4.441862926E-2
5.019402250E0,-2.366491854E-1,5.376137495E-1,3.523819894E-2
5.023372563E0,-2.498264313E-1,5.498484969E-1,2.230530791E-2
5.027342875E0,-2.567204833E-1,5.650852323E-1,7.190756500E-3
5.031313188E0,-2.653074861E-1,5.758190155E-1,-1.012290921E-2
5.035283500E0,-2.649758756E-1,5.900783539E-1,-3.181735054E-2
5.039253813E0,-2.597748041E-1,6.074792743E-1,-5.222025141E-2
5.043225688E0,-2.519382834E-1,6.267651916E-1,-7.244861871E-2
5.047196000E0,-2.422167957E-1,6.461034417E-1,-8.976228535E-2
5.051164750E0,-2.290046513E-1,6.716026664E-1,-1.072330326E-1
5.055136625E0,-2.150071114E-1,6.921277642E-1,-1.254717261E-1
5.059106938E0,-2.000670880E-1,7.107155323E-1,-1.391201913E-1
5.063077250E0,-1.881988496E-1,7.226361036E-1,-1.530479193E-1
5.067049125E0,-1.790882349E-1,7.271041870E-1,-1.654223055E-1
5.071017875E0,-1.743060350E-1,7.205941081E-1,-1.722639948E-1
5.074988188E0,-1.715484113E-1,7.052002549E-1,-1.754055917E-1
5.078960063E0,-1.697681695E-1,6.864205599E-1,-1.750216186E-1
5.082930375E0,-1.687035263E-1,6.609038115E-1,-1.702394187E-1
5.086900688E0,-1.706932038E-1,6.336417794E-1,-1.632930040E-1
5.090871000E0,-1.719672978E-1,6.007772088E-1,-1.518436372E-1
5.094841313E0,-1.697332710E-1,5.672320127E-1,-1.374097764E-1
5.098811625E0,-1.652477682E-1,5.372472405E-1,-1.202531829E-1
5.102783500E0,-1.626995951E-1,5.017472506E-1,-1.023810133E-1
5.106753813E0,-1.561895162E-1,4.698950052E-1,-8.642870188E-2
5.110722563E0,-1.475501359E-1,4.405210912E-1,-6.948155910E-2
5.114694438E0,-1.344776154E-1,4.155279994E-1,-5.180137232E-2
5.118664750E0,-1.209513173E-1,3.943047822E-1,-3.710569814E-2
5.122635063E0,-1.091703475E-1,3.744254708E-1,-2.258456126E-2
5.126605375E0,-9.887290001E-2,3.629412055E-1,-1.218239777E-2
5.130575688E0,-9.046041220E-2,3.468492925E-1,-5.096361507E-3
5.134547563E0,-8.089601249E-2,3.363423944E-1,-3.106686054E-3
5.138517875E0,-7.660250366E-2,3.240901828E-1,-3.944444004E-3
5.142488188E0,-6.960373372E-2,3.168470860E-1,-5.061454605E-3
5.146458500E0,-6.461209059E-2,3.110525906E-1,-9.267698042E-3
5.150428813E0,-6.346017122E-2,3.063750863E-1,-1.398008689E-2
5.154399125E0,-6.016149744E-2,3.072652221E-1,-2.303834632E-2
5.158371000E0,-6.967354566E-2,2.901958823E-1,-3.546509147E-2
5.162341313E0,-8.510225266E-2,2.744355798E-1,-5.227261037E-2
5.166311625E0,-1.011767387E-1,2.689726949E-1,-6.208136305E-2
5.170281938E0,-1.086991057E-1,2.749242485E-1,-5.862560868E-2
5.174252250E0,-1.076344550E-1,2.637192607E-1,-4.792674258E-2
5.178222563E0,-1.037423685E-1,2.395638973E-1,-3.804817796E-2
5.182192875E0,-9.686577320E-2,2.202780098E-1,-3.593632951E-2
5.186164750E0,-8.571311831E-2,2.125636488E-1,-3.989822790E-2
5.190133500E0,-7.349581271E-2,2.109928578E-1,-4.379031062E-2
5.194105375E0,-6.096434966E-2,2.154085338E-1,-4.661774263E-2
5.198075688E0,-4.761258140E-2,2.180614322E-1,-4.721115530E-2
5.202046000E0,-3.419100121E-2,2.186199427E-1,-4.810127243E-2
5.206016313E0,-2.693043090E-2,2.076243609E-1,-4.834562168E-2
5.209986625E0,-2.382374369E-2,1.955641359E-1,-4.975933582E-2
5.213956938E0,-2.574360557E-2,1.764702350E-1,-5.253440887E-2
5.217928813E0,-2.864085324E-2,1.570447236E-1,-5.565854907E-2
5.221899125E0,-3.541272879E-2,1.394692659E-1,-5.649630725E-2
5.225869438E0,-4.351105914E-2,1.245117858E-1,-5.625196174E-2
5.229839750E0,-5.345943570E-2,1.132195070E-1,-5.483824387E-2
5.233810063E0,-6.461209059E-2,1.104269847E-1,-5.311036855E-2
5.237780375E0,-7.805112749E-2,1.064127237E-1,-5.370378122E-2
5.241755375E0,-9.002408385E-2,1.029395163E-1,-5.626941472E-2
5.245721000E0,-9.883799404E-2,1.015956178E-1,-5.949827284E-2
5.249691313E0,-1.035503820E-1,9.176941216E-2,-6.501351297E-2
5.253663188E0,-1.079486161E-1,8.735372871E-2,-6.855653226E-2
5.257633500E0,-1.099731922E-1,9.691813588E-2,-7.398450375E-2
5.261603813E0,-1.147379428E-1,1.067792401E-1,-8.098327368E-2
5.265574125E0,-1.155407950E-1,1.204975322E-1,-9.018116444E-2
5.269544438E0,-1.166229025E-1,1.299572140E-1,-9.904743731E-2
5.273514750E0,-1.161691174E-1,1.321214288E-1,-1.067792401E-1
5.277486625E0,-1.110902056E-1,1.368861794E-1,-1.118057892E-1
5.281456938E0,-1.043357849E-1,1.402372122E-1,-1.177922711E-1
5.285427250E0,-9.580112249E-2,1.430646330E-1,-1.208465993E-1
5.289397563E0,-8.319984376E-2,1.493827254E-1,-1.242150813E-1
5.293367875E0,-7.056365907E-2,1.557008177E-1,-1.268854290E-1
5.297339750E0,-5.614724010E-2,1.653001308E-1,-1.293987036E-1
5.301310063E0,-3.958406672E-2,1.779188663E-1,-1.312487572E-1
5.305278813E0,-2.441715635E-2,1.870643944E-1,-1.329417229E-1
5.309250688E0,-1.190314535E-2,1.927716136E-1,-1.329417229E-1
5.313221000E0,1.605702913E-3,1.956164986E-1,-1.332384348E-1
5.317191313E0,1.038470864E-2,1.940806061E-1,-1.324006766E-1
5.321161625E0,1.494001877E-2,1.891762316E-1,-1.300793886E-1
5.325131938E0,1.762782596E-2,1.833817512E-1,-1.255589873E-1
5.329102250E0,1.773254573E-2,1.774999797E-1,-1.222777665E-1
5.333074125E0,1.565560326E-2,1.704139411E-1,-1.173559353E-1
5.337044438E0,1.087340154E-2,1.629788429E-1,-1.108109504E-1
5.341014750E0,8.587019518E-3,1.584758908E-1,-1.044230461E-1
5.344985063E0,6.946410518E-3,1.579173952E-1,-9.705775976E-2
5.348955375E0,2.146754880E-3,1.541474760E-1,-8.970992267E-2
5.352925688E0,1.623156248E-3,1.461015046E-1,-8.265879005E-2
5.356896000E0,1.595230959E-2,1.151219159E-1,-7.286749780E-2
5.360866313E0,2.542944625E-2,9.810495377E-2,-5.962044746E-2
5.364836625E0,2.368411794E-2,1.085769311E-1,-4.967207089E-2
5.368808500E0,1.464331243E-2,1.296954155E-1,-4.468042776E-2
5.372778813E0,2.042035107E-3,1.428901106E-1,-4.488986731E-2
5.376749125E0,-1.130973361E-2,1.473755985E-1,-4.825835302E-2
5.380719438E0,-1.991420612E-2,1.437453181E-1,-5.124286562E-2
5.384689750E0,-2.216568217E-2,1.321039647E-1,-5.323254317E-2
5.388660063E0,-1.960004680E-2,1.192758009E-1,-5.239478499E-2
5.392631938E0,-1.274090353E-2,1.052433550E-1,-4.930555075E-2
5.396602250E0,-4.939281847E-3,9.676105529E-2,-4.670501128E-2
5.400572563E0,2.356194425E-3,9.183922410E-2,-4.391248524E-2
5.404542875E0,9.075712413E-3,8.559094369E-2,-4.167846218E-2
5.408513188E0,1.368338149E-2,7.794640213E-2,-3.837978840E-2
5.412483500E0,2.076941729E-2,7.009242475E-2,-3.632030264E-2
5.416455375E0,2.485348843E-2,5.478588492E-2,-3.291691095E-2
5.420424125E0,2.773328125E-2,4.131194204E-2,-3.293436393E-2
5.424396000E0,3.059562109E-2,2.485348843E-2,-3.460988030E-2
5.428366313E0,3.209660575E-2,7.784168236E-3,-3.443534672E-2
5.432336625E0,3.518583626E-2,-9.773843922E-3,-3.590142354E-2
5.436306938E0,3.930481523E-2,-3.089232743E-2,-3.401646763E-2
5.440277250E0,4.370304570E-2,-5.642649531E-2,-2.975786291E-2
5.444247563E0,4.333652556E-2,-8.265879005E-2,-2.790781483E-2
5.448217875E0,4.324925691E-2,-1.087514684E-1,-3.012438305E-2
5.452189750E0,4.260348529E-2,-1.312313080E-1,-3.747221828E-2
5.456160063E0,4.321435094E-2,-1.599594206E-1,-4.302236438E-2
5.460130375E0,4.710643739E-2,-1.906423122E-1,-4.581489414E-2
5.464100688E0,5.581562966E-2,-2.233148813E-1,-5.134758726E-2
5.468071000E0,6.651449949E-2,-2.571393549E-1,-5.911429971E-2
5.472042875E0,7.428121567E-2,-2.814692557E-1,-6.688101590E-2
5.476013188E0,7.630579174E-2,-2.996904850E-1,-6.588617712E-2
5.479981938E0,7.503170520E-2,-3.115238249E-1,-6.321582198E-2
5.483953813E0,6.745697558E-2,-3.201631904E-1,-6.415830553E-2
5.487924125E0,5.886995420E-2,-3.300941288E-1,-6.878342479E-2
5.491894438E0,5.000368133E-2,-3.420321643E-1,-7.705628872E-2
5.495864750E0,4.588470608E-2,-3.556631804E-1,-8.660323918E-2
5.499835063E0,4.646066576E-2,-3.691546023E-1,-9.389871359E-2
5.503805375E0,4.961971194E-2,-3.827856183E-1,-9.897761792E-2
5.507777250E0,5.316272750E-2,-3.938335478E-1,-1.001469940E-1
5.511747563E0,5.513495207E-2,-4.002040029E-1,-9.998991340E-2
5.515717875E0,5.715953186E-2,-4.056145251E-1,-9.859365225E-2
5.519688188E0,5.693263933E-2,-4.134859443E-1,-9.642943740E-2
5.523658500E0,6.213372201E-2,-4.304330945E-1,-9.391617030E-2
5.527628813E0,7.449065149E-2,-4.696331918E-1,-8.709193021E-2
5.531600688E0,7.953465730E-2,-4.815712571E-1,-7.792895287E-2
5.535571000E0,7.421139628E-2,-4.626867771E-1,-7.222172618E-2
5.539541313E0,6.515314430E-2,-4.363497794E-1,-6.771877408E-2
5.543511625E0,5.103342608E-2,-4.160864949E-1,-6.127851084E-2
5.547481938E0,3.726277873E-2,-4.074820280E-1,-5.569345504E-2
5.551452250E0,3.021164984E-2,-4.042007923E-1,-5.002113804E-2
5.555424125E0,2.733185515E-2,-4.055970609E-1,-4.297000542E-2
5.559392875E0,2.806489356E-2,-4.079183638E-1,-3.586651757E-2
5.563363188E0,3.218387067E-2,-4.120024145E-1,-3.204424679E-2
5.567347563E0,3.747221828E-2,-4.106585085E-1,-2.970550396E-2
5.571305375E0,4.096287861E-2,-4.065395296E-1,-2.864085324E-2
5.575275688E0,4.534365237E-2,-4.031884968E-1,-2.926917188E-2
5.579246000E0,4.932300374E-2,-3.969227672E-1,-3.108431399E-2
5.583216313E0,5.159193277E-2,-3.907617629E-1,-3.230604529E-2
5.587186625E0,5.337216705E-2,-3.843389452E-1,-3.579670191E-2
5.591158500E0,5.429719388E-2,-3.813020885E-1,-3.609341010E-2
5.595128813E0,5.618214980E-2,-3.781081140E-1,-3.918264061E-2
5.599097563E0,5.562364310E-2,-3.777241409E-1,-4.284783453E-2
5.603069438E0,5.352924764E-2,-3.764325976E-1,-4.728097096E-2
5.607039750E0,5.372123420E-2,-3.696083724E-1,-5.204571784E-2
5.611010063E0,5.347688869E-2,-3.624176085E-1,-5.764822662E-2
5.614981938E0,5.536184460E-2,-3.518060148E-1,-6.241297349E-2
5.618950688E0,5.752605200E-2,-3.424161375E-1,-6.517059356E-2
5.622922563E0,6.063273922E-2,-3.343876302E-1,-6.738716364E-2
5.626892875E0,6.415830553E-2,-3.243519962E-1,-6.677629799E-2
5.630863188E0,6.839945167E-2,-3.150842786E-1,-6.675884128E-2
5.634833500E0,7.461282611E-2,-3.044028878E-1,-6.569419056E-2
5.638803813E0,8.180358261E-2,-2.924124599E-1,-6.421066076E-2
5.642774125E0,8.894197643E-2,-2.813296318E-1,-6.143558770E-2
5.646746000E0,9.862855822E-2,-2.754129469E-1,-5.497787148E-2
5.650716313E0,1.165181771E-1,-2.900911868E-1,-4.548327997E-2
5.654686625E0,1.327846497E-1,-2.988178134E-1,-3.139847144E-2
5.658656938E0,1.371654272E-1,-2.774550021E-1,-2.275909297E-2
5.662627250E0,1.329068244E-1,-2.406983525E-1,-1.884955540E-2
5.666597563E0,1.219985113E-1,-2.044653147E-1,-1.588249579E-2
5.670567875E0,1.134289503E-1,-1.722814441E-1,-1.418952644E-2
5.674539750E0,1.069712266E-1,-1.480911821E-1,-1.284562331E-2
5.678508500E0,1.019795910E-1,-1.291194558E-1,-1.446877979E-2
5.682480375E0,9.946631640E-2,-1.109505817E-1,-1.698205434E-2
5.686450688E0,9.641198814E-2,-9.431759268E-2,-1.930334233E-2
5.690421000E0,9.410814941E-2,-7.597418129E-2,-2.246238664E-2
5.694391313E0,9.140289575E-2,-5.855579674E-2,-2.434734255E-2
5.698361625E0,9.009389579E-2,-3.595378250E-2,-2.708750963E-2
5.702331938E0,8.796459436E-2,-1.078613475E-2,-2.961823717E-2
5.706303813E0,8.422958851E-2,1.171115879E-2,-3.192207217E-2
5.710274125E0,8.145451546E-2,3.609341010E-2,-3.298672289E-2
5.714244438E0,8.522442728E-2,4.700171575E-2,-3.115412779E-2
5.718214750E0,9.375908971E-2,4.424409568E-2,-2.059488557E-2
5.722185063E0,9.374163300E-2,5.298819765E-2,-1.406735368E-2
5.726155375E0,8.709193021E-2,7.140141726E-2,-1.146681327E-2
5.730127250E0,7.288494706E-2,9.094911069E-2,-1.108284108E-2
5.734096000E0,5.576327071E-2,1.132020578E-1,-1.354375482E-2
5.738066313E0,3.625048697E-2,1.372352391E-1,-1.991420612E-2
5.742038188E0,1.897172816E-2,1.519309133E-1,-2.623229846E-2
5.746008500E0,3.612831468E-3,1.541125774E-1,-3.000221029E-2
5.749978813E0,-2.932153177E-3,1.567654759E-1,-3.157300502E-2
5.753949125E0,-5.689773243E-3,1.567131132E-1,-3.153809905E-2
5.757919438E0,-5.811946467E-3,1.580570191E-1,-3.213151172E-2
5.761889750E0,-6.143558770E-3,1.638166010E-1,-3.454006463E-2
5.765861625E0,-5.323254038E-3,1.716531366E-1,-3.848451003E-2
5.769831938E0,-2.408554312E-3,1.851270795E-1,-4.401720315E-2
5.773802250E0,6.108652451E-4,1.984264851E-1,-5.223770440E-2
5.777772563E0,1.989675453E-3,2.064200938E-1,-5.995205790E-2
5.781742875E0,2.513274085E-3,2.127207220E-1,-6.588617712E-2
5.785713188E0,1.745329238E-3,2.121098638E-1,-6.998769939E-2
5.789683500E0,-1.308996929E-3,2.095267773E-1,-7.182029635E-2
5.793655375E0,-3.298672382E-3,2.013411820E-1,-6.897541136E-2
5.797625688E0,-8.342674002E-3,1.864011586E-1,-6.551966071E-2
5.801596000E0,-1.462585945E-2,1.691049486E-1,-6.072000414E-2
5.805566313E0,-2.183406800E-2,1.480388194E-1,-5.674065277E-2
5.809536625E0,-2.701769583E-2,1.294510663E-1,-5.194099993E-2
5.813506938E0,-3.454006463E-2,1.085071191E-1,-4.858996719E-2
5.817477250E0,-4.087560996E-2,8.977973461E-2,-4.801400751E-2
5.821449125E0,-4.630358517E-2,6.970845163E-2,-4.846779257E-2
5.825419438E0,-5.326744914E-2,4.972442985E-2,-5.038765445E-2
5.829389750E0,-5.960299447E-2,2.989749052E-2,-5.225515738E-2
5.833360063E0,-6.457718462E-2,9.389871731E-3,-5.738642439E-2
5.837341313E0,-6.902777404E-2,-1.176351868E-2,-6.476917118E-2
5.841300688E0,-7.229153812E-2,-2.946115844E-2,-7.466518879E-2
5.845271000E0,-7.571238279E-2,-4.642575979E-2,-8.447393775E-2
5.849242875E0,-7.419394702E-2,-5.897467583E-2,-9.379399568E-2
5.853211625E0,-7.063347101E-2,-7.098253816E-2,-1.030093357E-1
5.857183500E0,-6.639232486E-2,-8.524188399E-2,-1.115788966E-1
5.861153813E0,-6.061528623E-2,-1.014559865E-1,-1.196946800E-1
5.865124125E0,-5.504768342E-2,-1.139699966E-1,-1.270599663E-1
5.869094438E0,-5.209807679E-2,-1.268679798E-1,-1.333606094E-1
5.873064750E0,-5.342452973E-2,-1.398532391E-1,-1.393645406E-1
5.877035063E0,-5.724680051E-2,-1.506393701E-1,-1.421396136E-1
5.881006938E0,-6.229080260E-2,-1.574810594E-1,-1.421047002E-1
5.884977250E0,-6.963863969E-2,-1.657713652E-1,-1.411971301E-1
5.888946000E0,-7.290240377E-2,-1.686686128E-1,-1.391551048E-1
5.892917875E0,-7.646287233E-2,-1.740965992E-1,-1.345474273E-1
5.896888188E0,-8.115781099E-2,-1.792627722E-1,-1.286831200E-1
5.900858500E0,-8.435176313E-2,-1.852841526E-1,-1.208291426E-1
5.904830375E0,-8.532914519E-2,-1.901710778E-1,-1.136732921E-1
5.908800688E0,-8.857546002E-2,-1.929461509E-1,-1.051735431E-1
5.912769438E0,-8.897688240E-2,-1.879545003E-1,-9.800023586E-2
5.916741313E0,-9.194394201E-2,-1.789835095E-1,-8.770279586E-2
5.920711625E0,-9.679596126E-2,-1.739220619E-1,-7.552039623E-2
5.924681938E0,-9.714502841E-2,-1.659808159E-1,-6.181956083E-2
5.928652250E0,-9.889035672E-2,-1.563815027E-1,-4.665265232E-2
5.932622563E0,-1.029569730E-1,-1.514771283E-1,-3.246312216E-2
5.936592875E0,-1.047721133E-1,-1.426632106E-1,-1.822123677E-2
5.940564750E0,-1.076519042E-1,-1.348092258E-1,-2.007128671E-3
5.944535063E0,-1.073551998E-1,-1.297303289E-1,1.167625282E-2
5.948505375E0,-1.083325893E-1,-1.254018992E-1,2.323033288E-2
5.952475688E0,-1.060462072E-1,-1.197644919E-1,3.331833705E-2
5.956447563E0,-1.025555432E-1,-1.169196069E-1,4.272565991E-2
5.960417875E0,-9.834930301E-2,-1.235693097E-1,4.803146049E-2
5.964388188E0,-9.649925679E-2,-1.335700452E-1,5.077162758E-2
5.968358500E0,-9.721484035E-2,-1.423665136E-1,4.773475602E-2
5.972328813E0,-9.981537610E-2,-1.536936909E-1,4.091051593E-2
5.976299125E0,-9.838420898E-2,-1.569400132E-1,3.190461919E-2
5.980269438E0,-1.035678387E-1,-1.720720083E-1,2.384119667E-2
5.984239750E0,-1.046324894E-1,-1.814444214E-1,1.631882787E-2
5.988211625E0,-1.073202938E-1,-1.905375868E-1,4.276056774E-3
5.992180375E0,-1.123817489E-1,-2.005557865E-1,-8.028514683E-3
5.996152250E0,-1.146157682E-1,-2.016902417E-1,-2.268928103E-2
6.000122563E0,-1.097812131E-1,-1.936966330E-1,-4.064871743E-2
6.004092875E0,-1.008451208E-1,-1.845511198E-1,-5.724680051E-2
6.008063188E0,-8.630653471E-2,-1.758070141E-1,-7.164576650E-2
6.012033500E0,-6.658431143E-2,-1.732413769E-1,-8.609709144E-2
6.016003813E0,-4.335397854E-2,-1.689653248E-1,-9.813986719E-2
6.019974125E0,-2.118829638E-2,-1.683021039E-1,-1.068490595E-1
6.023944438E0,-2.164208330E-3,-1.669232845E-1,-1.121374071E-1
6.027916313E0,1.377064735E-2,-1.689653248E-1,-1.132195070E-1
6.031886625E0,2.560397983E-2,-1.737126261E-1,-1.088212803E-1
6.035856938E0,3.471459821E-2,-1.763131618E-1,-9.880308807E-2
6.039827250E0,4.068362340E-2,-1.779014170E-1,-8.548622578E-2
6.043797563E0,4.420918971E-2,-1.816189587E-1,-7.298967242E-2
6.047767875E0,4.618141055E-2,-1.881464869E-1,-5.934119597E-2
6.051738188E0,4.729842395E-2,-1.949881762E-1,-4.614650458E-2
6.055710063E0,4.909611121E-2,-1.955641359E-1,-3.338814899E-2
6.059680375E0,4.670501128E-2,-2.006604970E-1,-2.117084339E-2
6.063650688E0,3.525565192E-2,-2.153910846E-1,-1.631882787E-2
6.067621000E0,1.509709843E-2,-2.369982600E-1,-1.701696031E-2
6.071591313E0,-1.617920212E-2,-2.571044564E-1,-2.186897583E-2
6.075561625E0,-4.061381146E-2,-2.516764700E-1,-2.359685116E-2
6.079533500E0,-5.736897141E-2,-2.324778587E-1,-2.073451132E-2
6.083503813E0,-6.445501000E-2,-2.087937444E-1,-1.516691130E-2
6.087474125E0,-6.674139202E-2,-1.970302165E-1,-1.054178830E-2
6.091444438E0,-6.824237108E-2,-1.983217597E-1,-4.974188283E-3
6.095414750E0,-6.773623079E-2,-2.084621191E-1,2.617993858E-3
6.099385063E0,-6.443755329E-2,-2.189515531E-1,1.378810126E-2
6.103355375E0,-6.056292355E-2,-2.263343036E-1,2.649409883E-2
6.107325688E0,-5.759586394E-2,-2.303660065E-1,3.762929887E-2
6.111296000E0,-5.501277745E-2,-2.342929989E-1,4.490732029E-2
6.115267875E0,-5.314527452E-2,-2.393719107E-1,4.874704406E-2
6.119238188E0,-4.874704406E-2,-2.446253449E-1,4.946263134E-2
6.123208500E0,-4.232423380E-2,-2.444682717E-1,4.647811875E-2
6.127178813E0,-3.117158078E-2,-2.439795732E-1,3.848451003E-2
6.131149125E0,-1.591740362E-2,-2.387435883E-1,2.450442314E-2
6.135121000E0,-6.457717973E-4,-2.397558838E-1,1.122246683E-2
6.139091313E0,1.506219152E-2,-2.459168881E-1,-1.256637042E-3
6.143061625E0,2.865830623E-2,-2.612059712E-1,-8.133234456E-3
6.147031938E0,3.865904361E-2,-2.779960334E-1,-1.202531811E-2
6.151002250E0,4.579744115E-2,-2.983291149E-1,-1.169370580E-2
6.154972563E0,4.780456796E-2,-3.214023709E-1,-9.197885171E-3
6.158942875E0,4.501204193E-2,-3.433760703E-1,-8.377579972E-3
6.162913188E0,4.277801886E-2,-3.534815311E-1,-1.328195538E-2
6.166883500E0,4.098033160E-2,-3.606199324E-1,-2.239257470E-2
6.170855375E0,4.323180392E-2,-3.633775413E-1,-3.501130641E-2
6.174825688E0,4.787437990E-2,-3.684739172E-1,-4.612905160E-2
6.178796000E0,5.091125518E-2,-3.756646812E-1,-5.204571784E-2
6.182766313E0,4.747295380E-2,-3.934844732E-1,-4.982915148E-2
6.186736625E0,4.297000542E-2,-4.116882682E-1,-4.141666368E-2
6.190706938E0,2.871066518E-2,-4.370478988E-1,-2.703515068E-2
6.194677250E0,1.068141498E-2,-4.599466026E-1,-1.378810126E-2
6.198649125E0,-4.694935866E-3,-4.714832306E-1,-3.420845373E-3
6.202619438E0,-1.970476657E-2,-4.725304544E-1,6.789330859E-3
6.206589750E0,-3.188716620E-2,-4.648335278E-1,1.623156108E-2
6.210560063E0,-4.078834504E-2,-4.480609298E-1,2.682571113E-2
6.214530375E0,-4.776966199E-2,-4.286354184E-1,3.410373256E-2
6.218502250E0,-5.396557972E-2,-4.068537056E-1,3.991568089E-2
6.222472563E0,-5.918411538E-2,-3.846181929E-1,4.398229718E-2
6.226441313E0,-6.356488913E-2,-3.631681204E-1,4.672246426E-2
6.230413188E0,-6.770132482E-2,-3.461337090E-1,4.560545459E-2
6.234383500E0,-6.864380091E-2,-3.314554691E-1,4.382521659E-2
6.238353813E0,-6.798057258E-2,-3.205471635E-1,3.883357719E-2
6.242324125E0,-6.103416532E-2,-3.089756370E-1,3.077015467E-2
6.246294438E0,-5.199335888E-2,-2.958856523E-1,1.888446324E-2
6.250264750E0,-3.956661373E-2,-2.741039693E-1,1.326450263E-3
6.254236625E0,-2.096140385E-2,-2.460041642E-1,-2.745402977E-2
6.258206938E0,-1.500983140E-3,-2.193878889E-1,-5.935864896E-2
6.262177250E0,1.860520989E-2,-2.001020014E-1,-9.461429715E-2
6.266147563E0,3.408627957E-2,-1.853016019E-1,-1.304633617E-1
6.270117875E0,4.595451802E-2,-1.763131618E-1,-1.560847908E-1
6.274088188E0,5.372123420E-2,-1.676563323E-1,-1.665393114E-1
6.278060063E0,5.272639543E-2,-1.587726027E-1,-1.684940904E-1
6.282030375E0,4.253367335E-2,-1.478817463E-1,-1.673421711E-1
6.286000688E0,3.024655581E-2,-1.316501796E-1,-1.652477682E-1
6.289971000E0,1.363102160E-2,-1.147553995E-1,-1.571668983E-1
6.293941313E0,-1.658062800E-3,-9.622000158E-2,-1.467821896E-1
6.297911625E0,-2.026327327E-2,-7.723081857E-2,-1.365371048E-1
6.301881938E0,-4.602433369E-2,-5.752605200E-2,-1.272345036E-1
6.305852250E0,-7.440338284E-2,-3.762929887E-2,-1.197121367E-1
6.309824125E0,-1.063603610E-1,-1.994911395E-2,-1.132195070E-1
6.313794438E0,-1.345648915E-1,3.595378250E-3,-1.083674952E-1
6.317764750E0,-1.609019041E-1,2.630211227E-2,-1.040914357E-1
6.321735063E0,-1.838529855E-1,5.630432069E-2,-1.011767387E-1
6.325705375E0,-2.054950595E-1,8.265879005E-2,-9.861110151E-2
6.329675688E0,-2.254441828E-1,1.096939445E-1,-9.763371944E-2
6.333646000E0,-2.423913330E-1,1.363102198E-1,-9.663888067E-2
6.337617875E0,-2.558303475E-1,1.572541595E-1,-9.726719558E-2
6.341586625E0,-2.661103606E-1,1.687384248E-1,-9.532988071E-2
6.345558500E0,-2.719571888E-1,1.756499410E-1,-9.000662714E-2
6.349528813E0,-2.740865052E-1,1.799958050E-1,-8.260643482E-2
6.353499125E0,-2.755351365E-1,1.815840602E-1,-7.525859773E-2
6.357469438E0,-2.726029754E-1,1.853016019E-1,-6.429792941E-2
6.361439750E0,-2.652202249E-1,1.941155195E-1,-4.954989627E-2
6.365410063E0,-2.586228848E-1,2.051285505E-1,-3.502875939E-2
6.369381938E0,-2.496868074E-1,2.190039158E-1,-1.963495463E-2
6.373352250E0,-2.416233867E-1,2.274338603E-1,-2.984513063E-3
6.377322563E0,-2.369633466E-1,2.272244096E-1,1.534144394E-2
6.381292875E0,-2.331934422E-1,2.291268259E-1,3.426081315E-2
6.385263188E0,-2.313084900E-1,2.311165035E-1,5.321509019E-2
6.389233500E0,-2.290221006E-1,2.406634539E-1,6.883578748E-2
6.393205375E0,-2.249554843E-1,2.573138773E-1,8.525933325E-2
6.397175688E0,-2.232799679E-1,2.729345858E-1,9.946631640E-2
6.401144438E0,-2.249554843E-1,2.838079929E-1,1.123642996E-1
6.405116313E0,-2.294584364E-1,2.890439630E-1,1.250528395E-1
6.409086625E0,-2.363524884E-1,2.897944748E-1,1.345299780E-1
6.413056938E0,-2.402620167E-1,2.928487957E-1,1.403244734E-1
6.417028813E0,-2.427752912E-1,2.938087285E-1,1.424363256E-1
6.420997563E0,-2.443460971E-1,2.931455076E-1,1.404117346E-1
6.424967875E0,-2.408554405E-1,2.973342836E-1,1.335700452E-1
6.428939750E0,-2.325476706E-1,3.064100146E-1,1.239707395E-1
6.432910063E0,-2.255663574E-1,3.078760803E-1,1.121199504E-1
6.436880375E0,-2.132268697E-1,3.145781457E-1,9.744173288E-2
6.440850688E0,-1.988453567E-1,3.166376352E-1,8.112290502E-2
6.444821000E0,-1.872912794E-1,3.067939878E-1,6.602580845E-2
6.448792875E0,-1.758244634E-1,2.956413329E-1,5.410520732E-2
6.452763188E0,-1.663822383E-1,2.781356573E-1,4.422664270E-2
6.456733500E0,-1.628392190E-1,2.556558251E-1,3.516838327E-2
6.460703813E0,-1.623854339E-1,2.365270257E-1,3.176499158E-2
6.464674125E0,-1.687384248E-1,2.161939293E-1,2.921681106E-2
6.468644438E0,-1.798736304E-1,1.956863105E-1,2.930407785E-2
6.472614750E0,-1.900139898E-1,1.799608916E-1,2.993239649E-2
6.476585063E0,-1.992816925E-1,1.645670980E-1,3.340560198E-2
6.480555375E0,-2.038020939E-1,1.534668058E-1,4.017747939E-2
6.484528813E0,-2.073974758E-1,1.415462047E-1,4.768239334E-2
6.488497563E0,-2.078687102E-1,1.360309571E-1,5.202826485E-2
6.492467875E0,-2.069436908E-1,1.327846497E-1,5.452408642E-2
6.496438188E0,-2.050412744E-1,1.313534826E-1,5.307546258E-2
6.500408500E0,-2.025978118E-1,1.339714676E-1,4.803146049E-2
6.504378813E0,-1.980425119E-1,1.412844062E-1,4.113740847E-2
6.508350688E0,-1.899267286E-1,1.553866565E-1,2.956587821E-2
6.512321000E0,-1.789486110E-1,1.676388681E-1,1.705186628E-2
6.516289750E0,-1.620712727E-1,1.725083441E-1,5.061454605E-3
6.520261625E0,-1.445656270E-1,1.632406414E-1,-2.565633971E-3
6.524231938E0,-1.263269335E-1,1.486147791E-1,-9.983283468E-3
6.528202250E0,-1.069537774E-1,1.383347958E-1,-1.596976258E-2
6.532174125E0,-9.316567332E-2,1.237612963E-1,-2.115339041E-2
6.536142875E0,-8.084364980E-2,1.152789965E-1,-2.865830623E-2
6.540113188E0,-6.920230389E-2,1.091703475E-1,-3.499384969E-2
6.544085063E0,-5.698499829E-2,1.020144969E-1,-4.235913977E-2
6.548055375E0,-4.401720315E-2,9.592329711E-2,-4.895648360E-2
6.552025688E0,-3.279473633E-2,8.847074211E-2,-5.232496932E-2
6.555996000E0,-2.567379363E-2,8.424704522E-2,-5.155702680E-2
6.559966313E0,-2.035053819E-2,8.482300490E-2,-4.878195375E-2
6.563936625E0,-1.790707745E-2,8.407250792E-2,-4.249876738E-2
6.567908500E0,-2.117084339E-2,8.461356163E-2,-3.303908184E-2
6.571878813E0,-2.804744057E-2,8.656833321E-2,-1.776745170E-2
6.575849125E0,-3.632030264E-2,9.339256585E-2,1.099557383E-3
6.579819438E0,-4.600688070E-2,9.923942387E-2,1.940806210E-2
6.583789750E0,-5.651376024E-2,1.067966968E-1,3.925245628E-2
6.587760063E0,-6.436774135E-2,1.105666086E-1,5.646140128E-2
6.591730375E0,-7.017968595E-2,1.126086414E-1,7.644542307E-2
6.595702250E0,-7.576474547E-2,1.053131670E-1,9.536478668E-2
6.599671000E0,-8.037241548E-2,9.513789415E-2,1.121897623E-1
6.603642875E0,-8.969247341E-2,8.119271696E-2,1.275661141E-1
6.607613188E0,-9.876818210E-2,6.941174716E-2,1.403070241E-1
6.611583500E0,-1.068490595E-1,5.852089077E-2,1.478468478E-1
6.615553813E0,-1.131671518E-1,4.576253146E-2,1.523672491E-1
6.619524125E0,-1.170766875E-1,2.902482450E-2,1.514422148E-1
6.623496000E0,-1.189965457E-1,1.307251584E-2,1.460840553E-1
6.627466313E0,-1.149822921E-1,-5.375613924E-3,1.391027421E-1
6.631436625E0,-1.074599251E-1,-2.239257470E-2,1.332209855E-1
6.635406938E0,-9.887290001E-2,-4.246386141E-2,1.300270259E-1
6.639377250E0,-8.655087650E-2,-5.719443783E-2,1.270948797E-1
6.643347563E0,-7.325147092E-2,-6.239552051E-2,1.215272769E-1
6.647317875E0,-5.955063552E-2,-6.344271451E-2,1.131322384E-1
6.651289750E0,-4.424409568E-2,-5.815437064E-2,1.032711342E-1
6.655258500E0,-2.804744057E-2,-5.389576778E-2,9.347983450E-2
6.659230375E0,-1.448623277E-2,-5.668829381E-2,8.641125262E-2
6.663200688E0,-3.577925032E-3,-6.391395628E-2,8.140215278E-2
6.667171000E0,1.570796303E-4,-7.346090674E-2,7.634069771E-2
6.671141313E0,-1.413716702E-3,-8.393288404E-2,7.019714266E-2
6.675111625E0,-2.740166849E-3,-8.878489584E-2,6.333799660E-2
6.679081938E0,-7.295476273E-3,-9.711012244E-2,5.761331692E-2
6.683052250E0,-6.527531426E-3,-9.765116870E-2,5.146975815E-2
6.687024125E0,-2.565633971E-3,-9.625490755E-2,4.445353523E-2
6.690994438E0,2.216568217E-3,-9.424778074E-2,3.462733328E-2
6.694964750E0,4.223696887E-3,-9.763371944E-2,2.651155181E-2
6.698935063E0,1.136209350E-2,-9.536478668E-2,1.942551509E-2
6.702905375E0,1.745329238E-2,-9.716247767E-2,1.064650808E-2
6.706877250E0,1.994911395E-2,-1.080184281E-1,-1.256637042E-3
6.710846000E0,1.562069636E-2,-1.364323944E-1,-2.061233856E-2
6.714816313E0,1.057669520E-2,-1.608844548E-1,-4.253367335E-2
6.718788188E0,1.345648803E-2,-1.653175801E-1,-6.103416532E-2
6.722758500E0,2.115339041E-2,-1.617745608E-1,-7.400196046E-2
6.726728813E0,2.677335031E-2,-1.648987085E-1,-8.248426020E-2
6.730699125E0,3.305653483E-2,-1.666440368E-1,-8.817403018E-2
6.734669438E0,3.801327199E-2,-1.703964919E-1,-9.234537184E-2
6.738639750E0,4.124213010E-2,-1.777094305E-1,-9.587093443E-2
6.742611625E0,4.946263134E-2,-1.799259931E-1,-9.421287477E-2
6.746581938E0,5.989969894E-2,-1.850049049E-1,-8.670795709E-2
6.750552250E0,6.983062625E-2,-1.910088360E-1,-7.752752304E-2
6.754522563E0,8.326965570E-2,-1.898569167E-1,-6.909758598E-2
6.758497563E0,9.325294197E-2,-1.969080418E-1,-6.044075266E-2
6.762463188E0,1.017177850E-1,-2.019345909E-1,-5.246459693E-2
6.766435063E0,1.093448773E-1,-2.094046026E-1,-4.420918971E-2
6.770403813E0,1.149473861E-1,-2.139250040E-1,-3.483677283E-2
6.774374125E0,1.126435474E-1,-2.191609889E-1,-2.530727349E-2
6.778346000E0,1.103920713E-1,-2.190213650E-1,-1.666789502E-2
6.782316313E0,1.067966968E-1,-2.143264264E-1,-8.220500313E-3
6.786286625E0,1.001295373E-1,-2.061757445E-1,-5.427973811E-3
6.790283500E0,9.522516280E-2,-1.996831149E-1,-4.398229532E-3
6.794227250E0,9.485864639E-2,-1.877450645E-1,-2.024581889E-3
6.798199125E0,9.430013597E-2,-1.805717647E-1,-1.919862116E-4
6.802169438E0,9.581857920E-2,-1.765749604E-1,-2.583087189E-3
6.806139750E0,9.545205534E-2,-1.799259931E-1,-9.215338156E-3
6.810110063E0,9.688322991E-2,-1.815316975E-1,-1.712168008E-2
6.814080375E0,9.904743731E-2,-1.872389168E-1,-2.326523885E-2
6.818050688E0,1.000771821E-1,-1.962448210E-1,-2.937389165E-2
6.822021000E0,1.009323895E-1,-2.071705759E-1,-3.216641769E-2
6.825991313E0,1.017701477E-1,-2.231228948E-1,-3.380702808E-2
6.829963188E0,9.791296721E-2,-2.388657629E-1,-3.256784379E-2
6.833933500E0,9.496336430E-2,-2.475051433E-1,-3.075270168E-2
6.837903813E0,8.590510488E-2,-2.587625086E-1,-2.696533687E-2
6.841874125E0,8.098327368E-2,-2.627767622E-1,-2.310816012E-2
6.845844438E0,7.775441557E-2,-2.621484399E-1,-2.104867063E-2
6.849814750E0,7.222172618E-2,-2.645570040E-1,-1.644100063E-2
6.853785063E0,7.621853054E-2,-2.606649101E-1,-1.314232964E-2
6.857761625E0,7.965682447E-2,-2.646093667E-1,-1.467821933E-2
6.861727250E0,8.763298392E-2,-2.700024247E-1,-2.050761878E-2
6.865697563E0,9.904743731E-2,-2.780309618E-1,-2.474876866E-2
6.869667875E0,1.137605608E-1,-2.897595465E-1,-3.050835431E-2
6.873638188E0,1.257335246E-1,-2.963045537E-1,-3.728023171E-2
6.877608500E0,1.369908899E-1,-3.029542565E-1,-4.415683076E-2
6.881580375E0,1.465378404E-1,-3.063576519E-1,-5.017821491E-2
6.885550688E0,1.551946700E-1,-3.090454638E-1,-5.611233413E-2
6.889519438E0,1.667836607E-1,-3.070383072E-1,-5.962044746E-2
6.893491313E0,1.764527857E-1,-3.086091280E-1,-6.323327869E-2
6.897461625E0,1.822647303E-1,-3.109827638E-1,-6.599090248E-2
6.901431938E0,1.872563809E-1,-3.096563220E-1,-6.820746511E-2
6.905402250E0,1.867502332E-1,-3.118554354E-1,-6.517059356E-2
6.909372563E0,1.858601123E-1,-3.103195429E-1,-6.031857803E-2
6.913342875E0,1.809731871E-1,-3.111223876E-1,-5.469861999E-2
6.917314750E0,1.735031754E-1,-3.056246042E-1,-4.630358517E-2
6.921285063E0,1.635897160E-1,-2.957634926E-1,-3.703588620E-2
6.925255375E0,1.477595717E-1,-2.874557376E-1,-2.679080330E-2
6.929225688E0,1.326450258E-1,-2.761110961E-1,-1.719149388E-2
6.933196000E0,1.103397161E-1,-2.765997648E-1,-7.312929723E-3
6.937166313E0,8.812167495E-2,-2.811027169E-1,4.729842301E-3
6.941138188E0,6.845181435E-2,-2.823069990E-1,1.014036313E-2
6.945108500E0,5.475097895E-2,-2.746275663E-1,1.169370580E-2
6.949078813E0,4.998622835E-2,-2.533519864E-1,9.093165398E-3
6.953049125E0,5.007349700E-2,-2.363699377E-1,1.937315450E-3
6.957024125E0,5.989969894E-2,-2.165779024E-1,-4.886921961E-3
6.960989750E0,7.539822161E-2,-2.059837580E-1,-1.087340154E-2
6.964961625E0,8.803440630E-2,-2.099980116E-1,-1.680752076E-2
6.968930375E0,1.053131670E-1,-2.188817412E-1,-2.452187613E-2
6.972902250E0,1.196248680E-1,-2.329490930E-1,-3.255039081E-2
6.976872563E0,1.301143020E-1,-2.512052357E-1,-4.068362340E-2
6.980842875E0,1.387362182E-1,-2.635098100E-1,-4.986405745E-2
6.984813188E0,1.411273181E-1,-2.742435932E-1,-6.038839370E-2
6.988783500E0,1.418952644E-1,-2.803522348E-1,-6.976080686E-2
6.992753813E0,1.404466480E-1,-2.873510122E-1,-7.972663641E-2
6.996724125E0,1.432217211E-1,-2.902482450E-1,-8.909905702E-2
7.000696000E0,1.451590359E-1,-2.912954390E-1,-9.351474047E-2
7.004666313E0,1.422094256E-1,-2.891486883E-1,-9.375908971E-2
7.008636625E0,1.378111988E-1,-2.836334705E-1,-9.096655995E-2
7.012606938E0,1.299048513E-1,-2.785719931E-1,-8.405505866E-2
7.016577250E0,1.182111502E-1,-2.716954052E-1,-7.351326942E-2
7.020547563E0,1.047721133E-1,-2.616248429E-1,-6.250023842E-2
7.024517875E0,8.831366152E-2,-2.516241074E-1,-4.939281940E-2
7.028492875E0,7.288494706E-2,-2.380105555E-1,-3.722787276E-2
7.032460063E0,6.042329967E-2,-2.225818336E-1,-2.713987045E-2
7.036430375E0,5.311036855E-2,-2.002067119E-1,-2.014109865E-2
7.040400688E0,5.450663343E-2,-1.750914305E-1,-1.305506285E-2
7.044371000E0,6.030112505E-2,-1.516691148E-1,-4.590216093E-3
7.048341313E0,6.661921740E-2,-1.305331737E-1,2.286381321E-3
7.052311625E0,7.595673203E-2,-1.055924222E-1,8.290314116E-3
7.056283500E0,8.594001085E-2,-8.070402592E-2,1.466076542E-2
7.060253813E0,8.702211827E-2,-6.400122494E-2,2.008873969E-2
7.064224125E0,8.443903178E-2,-5.152212083E-2,2.604031190E-2
7.068194438E0,7.775441557E-2,-4.178318381E-2,3.103195317E-2
7.072164750E0,7.328637689E-2,-3.473205119E-2,3.611086309E-2
7.076135063E0,6.806784123E-2,-3.333579004E-2,4.223696887E-2
7.080106938E0,5.873033032E-2,-4.396484420E-2,4.911356419E-2
7.084075688E0,5.071926862E-2,-5.305800959E-2,5.347688869E-2
7.088046000E0,4.576253146E-2,-5.394812673E-2,5.009094998E-2
7.092017875E0,4.658283666E-2,-5.281366408E-2,4.379031062E-2
7.095988188E0,5.056218803E-2,-5.084143952E-2,3.806563094E-2
7.099958500E0,5.010840297E-2,-5.967280641E-2,3.433062509E-2
7.103928813E0,4.846779257E-2,-7.147122920E-2,3.319616243E-2
7.107899125E0,4.307472706E-2,-8.417722583E-2,2.960078418E-2
7.111871000E0,3.956661373E-2,-9.049531817E-2,2.309070528E-2
7.115841313E0,3.743731230E-2,-9.711012244E-2,1.130973361E-2
7.119811625E0,3.883357719E-2,-9.944885969E-2,1.448623254E-3
7.123781938E0,4.267330095E-2,-1.026079059E-1,-5.148721393E-3
7.127752250E0,5.059709400E-2,-1.016305238E-1,-1.246165112E-2
7.131722563E0,6.213372201E-2,-9.957103431E-2,-2.022836544E-2
7.135692875E0,7.644542307E-2,-9.496336430E-2,-2.707005665E-2
7.139663188E0,9.131562710E-2,-9.089674801E-2,-3.366740048E-2
7.143633500E0,1.040739864E-1,-9.060004354E-2,-3.750712425E-2
7.147605375E0,1.114741787E-1,-9.517280012E-2,-3.563962504E-2
7.151575688E0,1.126435474E-1,-1.013338193E-1,-3.335324302E-2
7.155558500E0,1.109854877E-1,-1.050688177E-1,-2.989749052E-2
7.159516313E0,1.069537774E-1,-1.090307161E-1,-2.537708730E-2
7.163486625E0,9.702285379E-2,-1.159422249E-1,-2.268928103E-2
7.167456938E0,8.854055405E-2,-1.195550561E-1,-1.958259381E-2
7.171428813E0,8.182103187E-2,-1.203404516E-1,-1.741838641E-2
7.175399125E0,7.600908726E-2,-1.234122291E-1,-1.701696031E-2
7.179369438E0,7.237880677E-2,-1.249655709E-1,-1.659808122E-2
7.183339750E0,6.647959352E-2,-1.286831200E-1,-1.513200440E-2
7.187310063E0,6.072000414E-2,-1.308473349E-1,-1.565560326E-2
7.191280375E0,5.333726108E-2,-1.333780587E-1,-1.820378378E-2
7.195250688E0,4.616395757E-2,-1.328195482E-1,-2.111848444E-2
7.199222563E0,3.885103017E-2,-1.332907975E-1,-2.399827726E-2
7.203191313E0,3.378957510E-2,-1.284387857E-1,-2.895501256E-2
7.207163188E0,2.630211227E-2,-1.262745708E-1,-3.356268257E-2
7.211133500E0,2.073451132E-2,-1.213352904E-1,-3.642502055E-2
7.215103813E0,1.267109066E-2,-1.221555918E-1,-3.792600334E-2
7.219074125E0,4.380776547E-3,-1.267458051E-1,-3.892084211E-2
7.223044438E0,-5.427973811E-3,-1.315454692E-1,-4.098033160E-2
7.227014750E0,-1.687733456E-2,-1.374795884E-1,-4.227187485E-2
7.230986625E0,-2.392846346E-2,-1.409702450E-1,-4.064871743E-2
7.234956938E0,-3.344050795E-2,-1.521054506E-1,-3.827507049E-2
7.238927250E0,-3.698352724E-2,-1.575857848E-1,-3.373721614E-2
7.242897563E0,-4.091051593E-2,-1.660855263E-1,-2.879793197E-2
7.246867875E0,-4.223696887E-2,-1.740267724E-1,-2.312561311E-2
7.250838188E0,-4.077089205E-2,-1.834515631E-1,-1.850049011E-2
7.254808500E0,-4.113740847E-2,-1.988628209E-1,-1.127482671E-2
7.258780375E0,-3.778637946E-2,-2.126683742E-1,-5.009094719E-3
7.262749125E0,-3.373721614E-2,-2.304009199E-1,-1.274090377E-3
7.266733500E0,-3.117158078E-2,-2.531076372E-1,-9.075712296E-4
7.270691313E0,-2.811725438E-2,-2.763554454E-1,-3.368485486E-3
7.274661625E0,-2.504547499E-2,-3.027273715E-1,-2.513274085E-3
7.278631938E0,-1.822123677E-2,-3.241949081E-1,-2.426007763E-3
7.282602250E0,-1.343903504E-2,-3.403566480E-1,-4.223696887E-3
7.286574125E0,-7.679448463E-3,-3.449992239E-1,-5.881759338E-3
7.290544438E0,-5.724680144E-3,-3.430619240E-1,-7.086036727E-3
7.294514750E0,-2.652900526E-3,-3.324677646E-1,-7.679448463E-3
7.298485063E0,-6.056292448E-3,-3.230604529E-1,-7.400196046E-3
7.302455375E0,-8.918632753E-3,-3.102497160E-1,-5.672320258E-3
7.306425688E0,-1.010545623E-2,-2.921506763E-1,-2.513274085E-3
7.310396000E0,-1.087340154E-2,-2.732836604E-1,1.762782573E-3
7.314366313E0,-5.654866807E-3,-2.481858134E-1,7.993607782E-3
7.318338188E0,-3.996803891E-3,-2.356194556E-1,1.354375482E-2
7.322308500E0,-1.605702913E-3,-2.198591232E-1,1.980948634E-2
7.326278813E0,1.117010717E-3,-2.041337043E-1,2.384119667E-2
7.330249125E0,6.946410518E-3,-1.880068630E-1,2.761110850E-2
7.334219438E0,1.012290921E-2,-1.728050560E-1,2.858849242E-2
7.338191313E0,1.364847459E-2,-1.626821458E-1,2.885029279E-2
7.342160063E0,1.834340952E-2,-1.495049000E-1,2.905973233E-2
7.346131938E0,1.942551509E-2,-1.397310644E-1,3.122393973E-2
7.350102250E0,1.534144394E-2,-1.335874945E-1,3.796090931E-2
7.354072563E0,5.689773243E-3,-1.243023500E-1,4.392993823E-2
7.358042875E0,-8.552113548E-3,-1.123992056E-1,4.639085010E-2
7.362013188E0,-2.506292798E-2,-9.590584040E-2,5.019566789E-2
7.365983500E0,-4.082325101E-2,-7.698646933E-2,5.810201168E-2
7.369955375E0,-5.410520732E-2,-5.822418258E-2,6.724753231E-2
7.373925688E0,-6.614797562E-2,-4.036946595E-2,7.579965144E-2
7.377894438E0,-7.771950960E-2,-2.352703735E-2,8.450884372E-2
7.381866313E0,-8.991936594E-2,-2.600540640E-3,8.948303014E-2
7.385836625E0,-9.686577320E-2,2.078687213E-2,9.245008975E-2
7.389806938E0,-1.043881401E-1,3.665191308E-2,9.110618383E-2
7.393777250E0,-1.074075624E-1,5.269148946E-2,8.805186301E-2
7.397747563E0,-1.077391729E-1,6.531021744E-2,8.122762293E-2
7.401717875E0,-1.075297371E-1,7.010987401E-2,7.253587991E-2
7.405689750E0,-1.035678387E-1,7.375761122E-2,6.152285635E-2
7.409660063E0,-9.620254487E-2,7.710864395E-2,4.661774263E-2
7.413630375E0,-8.389797807E-2,8.145451546E-2,3.249803185E-2
7.417600688E0,-7.091272622E-2,8.408996463E-2,1.841322333E-2
7.421571000E0,-6.194173545E-2,8.358381689E-2,4.520402756E-3
7.425541313E0,-5.510004610E-2,8.538150787E-2,-1.022762898E-2
7.429513188E0,-5.269148946E-2,8.782497048E-2,-2.357939817E-2
7.433483500E0,-5.267403647E-2,8.937831223E-2,-3.321361542E-2
7.437453813E0,-5.433209985E-2,8.812167495E-2,-3.844960406E-2
7.441424125E0,-5.822418258E-2,8.792968839E-2,-3.740240633E-2
7.445394438E0,-6.300638616E-2,8.998917788E-2,-3.621558100E-2
7.449364750E0,-6.817255914E-2,9.698794782E-2,-3.862413764E-2
7.453338188E0,-6.710790843E-2,1.050164625E-1,-3.984586522E-2
7.457305375E0,-6.276203692E-2,1.115963534E-1,-3.640756756E-2
7.461277250E0,-5.651376024E-2,1.215970889E-1,-3.113667294E-2
7.465247563E0,-5.202826485E-2,1.324879378E-1,-2.630211227E-2
7.469217875E0,-4.783947393E-2,1.427155733E-1,-2.324778587E-2
7.473188188E0,-4.403465614E-2,1.500459611E-1,-1.851794310E-2
7.477158500E0,-4.078834504E-2,1.548106968E-1,-1.127482671E-2
7.481128813E0,-3.963642567E-2,1.586155146E-1,1.431170036E-3
7.485100688E0,-3.890338913E-2,1.662077010E-1,1.228711754E-2
7.489071000E0,-3.778637946E-2,1.787566245E-1,1.497492474E-2
7.493039750E0,-3.584906086E-2,1.883384734E-1,5.427973811E-3
7.497011625E0,-3.159045801E-2,1.935570091E-1,-1.274090377E-3
7.500981938E0,-2.731440216E-2,1.890540570E-1,-4.817108624E-3
7.504952250E0,-2.333505265E-2,1.806415766E-1,-1.101302728E-2
7.508922563E0,-1.989675313E-2,1.674468815E-1,-1.308996975E-2
7.512894438E0,-1.237438433E-2,1.596452594E-1,-2.007128671E-2
7.516863188E0,-1.040216256E-2,1.350884885E-1,-2.029817924E-2
7.520835063E0,-2.417281084E-2,7.881906629E-2,-7.819075137E-3
7.524805375E0,-4.269075394E-2,4.089306295E-2,-4.537856206E-3
7.528775688E0,-4.993386939E-2,4.338888451E-2,-1.816887781E-2
7.532746000E0,-4.009021446E-2,7.098253816E-2,-3.661700711E-2
7.536716313E0,-2.064724453E-2,9.492845833E-2,-5.288347602E-2
7.540686625E0,6.981316954E-3,9.936159104E-2,-6.283185631E-2
7.544658500E0,2.775073424E-2,7.496189326E-2,-6.633996218E-2
7.548628813E0,3.679154068E-2,2.790781483E-2,-6.454227865E-2
7.552602250E0,4.335397854E-2,-1.204277202E-2,-6.421066076E-2
7.556569438E0,4.625122622E-2,-4.220206290E-2,-7.030186057E-2
7.560539750E0,5.860815570E-2,-5.682792142E-2,-7.927285135E-2
7.564510063E0,7.250097394E-2,-7.613126189E-2,-8.417722583E-2
7.568480375E0,8.773770183E-2,-9.997245669E-2,-8.408996463E-2
7.572450688E0,9.862855822E-2,-1.310567707E-1,-8.061675727E-2
7.576421000E0,1.019272283E-1,-1.611113399E-1,-7.714354992E-2
7.580392875E0,9.632471949E-2,-1.886875480E-1,-7.037167251E-2
7.584363188E0,8.340928704E-2,-2.095791399E-1,-6.393141299E-2
7.588333500E0,6.572909653E-2,-2.189515531E-1,-5.773549154E-2
7.592303813E0,4.728097096E-2,-2.174680233E-1,-5.340707675E-2
7.596274125E0,2.862340026E-2,-2.118131518E-1,-4.747295380E-2
7.600244438E0,8.552113548E-3,-2.074672878E-1,-4.290019348E-2
7.604216313E0,-9.459684603E-3,-2.078338116E-1,-3.916518763E-2
7.608186625E0,-2.937389165E-2,-2.108008713E-1,-3.607595712E-2
7.612156938E0,-4.839798063E-2,-2.132268697E-1,-3.179989755E-2
7.616127250E0,-6.948155910E-2,-2.201907337E-1,-2.799508162E-2
7.620097563E0,-8.911651373E-2,-2.269626111E-1,-2.247984149E-2
7.624092875E0,-1.081056967E-1,-2.365619242E-1,-1.741838641E-2
7.628038188E0,-1.169545129E-1,-2.371029854E-1,-1.308996975E-2
7.632008500E0,-1.206197068E-1,-2.364921123E-1,-7.609635592E-3
7.635980375E0,-1.235344037E-1,-2.420597076E-1,-2.251474652E-3
7.639950688E0,-1.223301291E-1,-2.438050359E-1,3.036872949E-3
7.643921000E0,-1.182635128E-1,-2.477145791E-1,6.824237294E-3
7.647891313E0,-1.095194072E-1,-2.556558251E-1,1.141445339E-2
7.651861625E0,-9.941395372E-2,-2.894628644E-1,2.045525797E-2
7.655831938E0,-8.820894361E-2,-3.402868509E-1,2.974040993E-2
7.659803813E0,-7.082545757E-2,-3.883531988E-1,4.028219730E-2
7.663774125E0,-5.033529550E-2,-4.216541052E-1,4.635594413E-2
7.667744438E0,-2.347467840E-2,-4.265933633E-1,4.928809777E-2
7.671714750E0,4.747295752E-3,-4.225965738E-1,5.199335888E-2
7.675685063E0,2.822197415E-2,-4.156501591E-1,5.857324973E-2
7.679655375E0,4.321435094E-2,-4.147600532E-1,6.586872786E-2
7.683625688E0,5.180137232E-2,-4.154232740E-1,7.213445753E-2
7.687596000E0,5.057964101E-2,-4.220729768E-1,7.723081857E-2
7.691566313E0,4.799655452E-2,-4.236612320E-1,7.901105285E-2
7.695538188E0,4.279547185E-2,-4.237833917E-1,7.857472450E-2
7.699508500E0,3.858922794E-2,-4.171860516E-1,7.470009476E-2
7.703478813E0,3.537782282E-2,-4.160515964E-1,7.126179338E-2
7.707449125E0,3.829252347E-2,-4.213224947E-1,7.007496804E-2
7.711419438E0,3.937462717E-2,-4.424235225E-1,7.637561113E-2
7.715389750E0,4.115486518E-2,-4.657061994E-1,8.587019891E-2
7.719361625E0,4.207988828E-2,-4.878718853E-1,9.210102260E-2
7.723331938E0,4.111995548E-2,-5.112593174E-1,1.029046103E-1
7.727302250E0,4.265584797E-2,-5.172283053E-1,1.102524474E-1
7.731272563E0,4.502949491E-2,-5.207189918E-1,1.129053459E-1
7.735242875E0,4.518657550E-2,-5.315575004E-1,1.203753576E-1
7.739213188E0,4.358087108E-2,-5.488536954E-1,1.239881888E-1
7.743183500E0,4.525638744E-2,-5.556255579E-1,1.225046590E-1
7.747155375E0,4.960225895E-2,-5.560269952E-1,1.162563786E-1
7.751124125E0,5.452408642E-2,-5.585228205E-1,1.082976833E-1
7.755096000E0,6.586872786E-2,-5.557302833E-1,9.810495377E-2
7.759066313E0,7.801621407E-2,-5.553113818E-1,8.459610492E-2
7.763036625E0,9.519025683E-2,-5.574406981E-1,6.754424423E-2
7.767006938E0,1.162214726E-1,-5.628163218E-1,5.314527452E-2
7.770977250E0,1.367465407E-1,-5.752081871E-1,3.946189582E-2
7.774949125E0,1.594183743E-1,-5.858197808E-1,2.220058814E-2
7.778919438E0,1.799259931E-1,-5.941624641E-1,6.405358203E-3
7.782889750E0,2.015506178E-1,-5.993460417E-1,-7.627088577E-3
7.786860063E0,2.217789888E-1,-6.048961878E-1,-2.017600648E-2
7.790830375E0,2.424087822E-1,-6.116157174E-1,-2.977531776E-2
7.794800688E0,2.586228848E-1,-6.276553273E-1,-3.258529678E-2
7.798772563E0,2.678207755E-1,-6.451085806E-1,-2.775073424E-2
7.802741313E0,2.702293396E-1,-6.665063500E-1,-1.909390278E-2
7.806711625E0,2.631781995E-1,-6.846054196E-1,-9.773843922E-3
7.810683500E0,2.583087385E-1,-6.897715926E-1,-6.265731994E-3
7.814653813E0,2.552369535E-1,-6.852511764E-1,-6.422811653E-3
7.818624125E0,2.553416789E-1,-6.811845303E-1,-9.477137588E-3
7.822594438E0,2.570346296E-1,-6.787760258E-1,-1.192059834E-2
7.826566313E0,2.586752474E-1,-6.834011078E-1,-1.240929123E-2
7.830535063E0,2.580469251E-1,-6.935065985E-1,-1.029744279E-2
7.834506938E0,2.592337430E-1,-7.000690103E-1,-7.923794910E-3
7.838477250E0,2.577502131E-1,-7.071899772E-1,-5.201081280E-3
7.842447563E0,2.522349954E-1,-7.177666426E-1,-1.221730490E-4
7.846417875E0,2.473480552E-1,-7.238404155E-1,5.393067375E-3
7.850388188E0,2.389704734E-1,-7.326717377E-1,1.015781611E-2
7.854358500E0,2.288301140E-1,-7.427772284E-1,1.696459949E-2
7.858328813E0,2.177647352E-1,-7.574380040E-1,2.460914291E-2
7.862300688E0,2.020742148E-1,-7.796560526E-1,3.307398781E-2
7.866271000E0,1.860869974E-1,-8.006523252E-1,4.024729133E-2
7.870241313E0,1.725781560E-1,-8.162032366E-1,4.379031062E-2
7.874211625E0,1.627344936E-1,-8.273383975E-1,4.619886354E-2
7.878181938E0,1.567131132E-1,-8.370075226E-1,4.834562168E-2
7.882152250E0,1.578475833E-1,-8.476540446E-1,4.738568887E-2
7.886122563E0,1.641656756E-1,-8.734500408E-1,4.684463516E-2
7.890092875E0,1.668709219E-1,-9.033824205E-1,4.534365237E-2
7.894064750E0,1.696809083E-1,-9.360026121E-1,4.103269055E-2
