Time (s),Acceleration x (m/s^2),Acceleration y (m/s^2),Acceleration z (m/s^2)
19.04,-1.29,9.58,2.25
19.04,-1.30,9.58,2.25
19.04,-1.30,9.57,2.21
19.05,-1.30,9.56,2.22
19.05,-1.35,9.60,2.20
19.05,-1.36,9.58,2.19
19.05,-1.37,9.60,2.17
19.05,-1.39,9.61,2.17
19.06,-1.40,9.63,2.17
19.06,-1.42,9.62,2.18
19.06,-1.40,9.66,2.17
19.06,-1.42,9.68,2.17
19.07,-1.41,9.70,2.16
19.07,-1.41,9.68,2.15
19.07,-1.44,9.71,2.15
19.07,-1.40,9.70,2.14
19.08,-1.41,9.71,2.10
19.08,-1.40,9.71,2.10
19.08,-1.40,9.70,2.12
19.08,-1.40,9.66,2.12
19.09,-1.37,9.69,2.11
19.09,-1.38,9.68,2.11
19.09,-1.36,9.69,2.07
19.09,-1.35,9.69,2.09
19.10,-1.35,9.71,2.09
19.10,-1.35,9.66,2.09
19.10,-1.33,9.68,2.11
19.10,-1.35,9.68,2.10
19.10,-1.33,9.67,2.12
19.11,-1.31,9.67,2.14
19.11,-1.32,9.68,2.13
19.11,-1.31,9.66,2.13
19.11,-1.30,9.66,2.15
19.12,-1.27,9.66,2.16
19.12,-1.27,9.66,2.19
19.12,-1.27,9.65,2.18
19.12,-1.26,9.66,2.22
19.13,-1.27,9.65,2.22
19.13,-1.26,9.66,2.22
19.13,-1.26,9.64,2.23
19.13,-1.27,9.66,2.23
19.14,-1.28,9.62,2.23
19.14,-1.28,9.62,2.22
19.14,-1.28,9.61,2.21
19.14,-1.29,9.63,2.21
19.15,-1.31,9.64,2.23
19.15,-1.31,9.62,2.23
19.15,-1.32,9.63,2.21
19.15,-1.30,9.65,2.21
19.15,-1.31,9.65,2.18
19.16,-1.33,9.69,2.18
19.16,-1.31,9.66,2.16
19.16,-1.31,9.66,2.15
19.16,-1.31,9.67,2.14
19.17,-1.30,9.66,2.13
19.17,-1.34,9.67,2.10
19.17,-1.32,9.66,2.10
19.17,-1.31,9.63,2.08
19.18,-1.31,9.64,2.08
19.18,-1.30,9.65,2.10
19.18,-1.28,9.64,2.10
19.18,-1.28,9.65,2.09
19.19,-1.27,9.64,2.08
19.19,-1.24,9.65,2.06
19.19,-1.24,9.61,2.07
19.19,-1.23,9.64,2.08
19.20,-1.23,9.63,2.07
19.20,-1.24,9.65,2.08
19.20,-1.24,9.63,2.10
19.20,-1.23,9.65,2.12
19.20,-1.24,9.64,2.13
19.21,-1.24,9.65,2.12
19.21,-1.25,9.63,2.12
19.21,-1.25,9.64,2.13
19.21,-1.24,9.64,2.13
19.22,-1.26,9.64,2.16
19.22,-1.23,9.65,2.13
19.22,-1.28,9.63,2.18
19.22,-1.31,9.64,2.17
19.23,-1.28,9.66,2.18
19.23,-1.29,9.68,2.17
19.23,-1.31,9.68,2.16
19.23,-1.32,9.70,2.18
19.24,-1.31,9.70,2.15
19.24,-1.32,9.70,2.16
19.24,-1.35,9.72,2.15
19.24,-1.35,9.71,2.14
19.24,-1.33,9.72,2.14
19.25,-1.35,9.75,2.14
19.25,-1.35,9.74,2.13
19.25,-1.37,9.73,2.12
19.25,-1.35,9.75,2.12
19.26,-1.34,9.73,2.12
19.26,-1.33,9.75,2.11
19.26,-1.33,9.73,2.09
19.26,-1.32,9.74,2.09
19.27,-1.34,9.73,2.07
19.27,-1.36,9.72,2.07
19.27,-1.33,9.72,2.05
19.27,-1.33,9.72,2.06
19.28,-1.33,9.71,2.05
19.28,-1.34,9.72,2.04
19.28,-1.34,9.72,2.04
19.28,-1.35,9.74,2.05
19.29,-1.34,9.71,2.05
19.29,-1.34,9.73,2.04
19.29,-1.35,9.73,2.05
19.29,-1.33,9.74,2.05
19.29,-1.34,9.74,2.08
19.30,-1.35,9.72,2.09
19.30,-1.34,9.74,2.09
19.30,-1.34,9.74,2.13
19.30,-1.34,9.72,2.13
19.31,-1.34,9.72,2.14
19.31,-1.34,9.72,2.15
19.31,-1.35,9.70,2.17
19.31,-1.35,9.70,2.17
19.32,-1.37,9.70,2.16
19.32,-1.39,9.68,2.17
19.32,-1.38,9.68,2.17
19.32,-1.39,9.64,2.18
19.33,-1.38,9.66,2.18
19.33,-1.38,9.66,2.18
19.33,-1.40,9.66,2.18
19.33,-1.40,9.65,2.16
19.34,-1.40,9.65,2.16
19.34,-1.41,9.64,2.16
19.34,-1.41,9.63,2.17
19.34,-1.43,9.60,2.19
19.34,-1.44,9.59,2.17
19.35,-1.42,9.61,2.16
19.35,-1.44,9.60,2.13
19.35,-1.46,9.59,2.14
19.35,-1.45,9.59,2.13
19.36,-1.45,9.58,2.10
19.36,-1.45,9.58,2.12
19.36,-1.45,9.59,2.10
19.36,-1.46,9.58,2.06
19.37,-1.45,9.61,2.06
19.37,-1.45,9.61,2.06
19.37,-1.44,9.61,2.04
19.37,-1.44,9.64,2.06
19.38,-1.45,9.63,2.04
19.38,-1.42,9.66,2.06
19.38,-1.43,9.64,2.06
19.38,-1.44,9.65,2.03
19.39,-1.42,9.65,2.07
19.39,-1.42,9.66,2.07
19.39,-1.41,9.64,2.07
19.39,-1.40,9.63,2.08
19.39,-1.43,9.64,2.07
19.40,-1.42,9.63,2.08
19.40,-1.41,9.62,2.06
19.40,-1.42,9.63,2.06
19.40,-1.43,9.64,2.05
19.41,-1.42,9.62,2.05
19.41,-1.44,9.62,2.03
19.41,-1.44,9.62,2.03
19.41,-1.46,9.65,2.04
19.42,-1.47,9.65,2.05
19.42,-1.45,9.66,2.06
19.42,-1.46,9.67,2.07
19.42,-1.47,9.65,2.07
19.43,-1.45,9.68,2.09
19.43,-1.45,9.67,2.12
19.43,-1.42,9.68,2.12
19.43,-1.42,9.69,2.13
19.43,-1.40,9.69,2.12
19.44,-1.40,9.68,2.14
19.44,-1.41,9.70,2.14
19.44,-1.39,9.70,2.14
19.44,-1.39,9.67,2.12
19.45,-1.40,9.67,2.15
19.45,-1.37,9.66,2.16
19.45,-1.39,9.67,2.17
19.45,-1.40,9.68,2.16
19.46,-1.40,9.66,2.15
19.46,-1.41,9.66,2.15
19.46,-1.42,9.65,2.14
19.46,-1.43,9.67,2.14
19.47,-1.44,9.65,2.13
19.47,-1.43,9.65,2.12
19.47,-1.45,9.65,2.11
19.47,-1.44,9.66,2.10
19.48,-1.45,9.66,2.07
19.48,-1.45,9.66,2.08
19.48,-1.46,9.67,2.06
19.48,-1.46,9.68,2.08
19.48,-1.46,9.69,2.08
19.49,-1.49,9.72,2.10
19.49,-1.48,9.72,2.08
19.49,-1.47,9.75,2.07
19.49,-1.46,9.77,2.09
19.50,-1.47,9.77,2.08
19.50,-1.44,9.78,2.08
19.50,-1.46,9.78,2.10
19.50,-1.48,9.75,2.11
19.51,-1.46,9.74,2.09
19.51,-1.46,9.74,2.08
19.51,-1.47,9.73,2.09
19.51,-1.46,9.72,2.10
19.52,-1.46,9.71,2.09
19.52,-1.49,9.70,2.08
19.52,-1.49,9.69,2.09
19.52,-1.48,9.67,2.07
19.53,-1.49,9.67,2.07
19.53,-1.51,9.69,2.07
19.53,-1.50,9.68,2.06
19.53,-1.51,9.68,2.06
19.53,-1.51,9.68,2.05
19.54,-1.51,9.69,2.04
19.54,-1.50,9.71,2.05
19.54,-1.50,9.71,2.05
19.54,-1.50,9.70,2.04
19.55,-1.49,9.71,2.04
19.55,-1.50,9.72,2.04
19.55,-1.49,9.69,2.05
19.55,-1.49,9.69,2.06
19.56,-1.47,9.67,2.04
19.56,-1.45,9.68,2.07
19.56,-1.45,9.68,2.03
19.56,-1.43,9.70,2.04
19.57,-1.45,9.69,2.04
19.57,-1.44,9.68,2.04
19.57,-1.43,9.68,2.06
19.57,-1.43,9.68,2.06
19.58,-1.42,9.70,2.06
19.58,-1.45,9.72,2.04
19.58,-1.43,9.71,2.06
19.58,-1.41,9.72,2.07
19.58,-1.43,9.72,2.07
19.59,-1.41,9.73,2.10
19.59,-1.42,9.73,2.10
19.59,-1.39,9.73,2.11
19.59,-1.40,9.75,2.11
19.60,-1.39,9.71,2.12
19.60,-1.40,9.70,2.13
19.60,-1.40,9.72,2.12
19.60,-1.42,9.71,2.13
19.61,-1.41,9.72,2.13
19.61,-1.45,9.69,2.12
19.61,-1.45,9.70,2.12
19.61,-1.43,9.71,2.13
19.62,-1.45,9.68,2.13
19.62,-1.47,9.66,2.10
19.62,-1.48,9.68,2.09
19.62,-1.49,9.67,2.07
19.63,-1.48,9.67,2.08
19.63,-1.49,9.65,2.08
19.63,-1.48,9.67,2.05
19.63,-1.49,9.67,2.05
19.63,-1.49,9.64,2.04
19.64,-1.50,9.63,2.02
19.64,-1.50,9.66,1.99
19.64,-1.51,9.65,2.01
19.64,-1.50,9.65,2.00
19.65,-1.49,9.68,1.96
19.65,-1.49,9.68,1.96
19.65,-1.49,9.67,1.97
19.65,-1.50,9.69,1.97
19.66,-1.48,9.68,1.94
19.66,-1.51,9.69,1.93
19.66,-1.51,9.73,1.93
19.66,-1.52,9.73,1.95
19.67,-1.50,9.72,1.93
19.67,-1.50,9.72,1.94
19.67,-1.49,9.71,1.93
19.67,-1.49,9.72,1.94
19.67,-1.50,9.71,1.94
19.68,-1.51,9.70,1.93
19.68,-1.49,9.71,1.94
19.68,-1.51,9.73,1.94
19.68,-1.50,9.71,1.96
19.69,-1.51,9.72,1.94
19.69,-1.49,9.72,1.96
19.69,-1.49,9.70,1.96
19.69,-1.50,9.70,1.97
19.70,-1.49,9.71,2.00
19.70,-1.50,9.70,2.00
19.70,-1.47,9.69,2.01
19.70,-1.49,9.69,2.02
19.71,-1.48,9.70,2.04
19.71,-1.48,9.68,2.05
19.71,-1.49,9.68,2.09
19.71,-1.49,9.66,2.07
19.72,-1.47,9.66,2.08
19.72,-1.47,9.64,2.09
19.72,-1.49,9.65,2.09
19.72,-1.50,9.65,2.11
19.72,-1.51,9.64,2.08
19.73,-1.50,9.64,2.08
19.73,-1.52,9.64,2.08
19.73,-1.52,9.61,2.07
19.73,-1.51,9.61,2.08
19.74,-1.53,9.61,2.04
19.74,-1.53,9.62,2.05
19.74,-1.53,9.63,2.04
19.74,-1.54,9.60,2.02
19.75,-1.55,9.61,2.00
19.75,-1.54,9.59,1.99
19.75,-1.53,9.59,1.98
19.75,-1.53,9.59,1.97
19.76,-1.53,9.61,1.96
19.76,-1.53,9.62,1.94
19.76,-1.52,9.62,1.94
19.76,-1.52,9.62,1.93
19.77,-1.52,9.63,1.89
19.77,-1.54,9.63,1.89
19.77,-1.52,9.68,1.90
19.77,-1.51,9.66,1.90
19.77,-1.52,9.66,1.88
19.78,-1.51,9.67,1.91
19.78,-1.53,9.66,1.90
19.78,-1.53,9.68,1.93
19.78,-1.50,9.70,1.93
19.79,-1.51,9.71,1.92
19.79,-1.50,9.72,1.93
19.79,-1.49,9.74,1.96
19.79,-1.48,9.71,1.94
19.80,-1.48,9.74,1.93
19.80,-1.47,9.75,1.93
19.80,-1.46,9.76,1.93
19.80,-1.46,9.76,1.93
19.81,-1.45,9.72,1.95
19.81,-1.43,9.75,1.94
19.81,-1.43,9.74,1.96
19.81,-1.45,9.75,1.97
19.82,-1.42,9.73,1.95
19.82,-1.43,9.76,1.95
19.82,-1.43,9.74,1.96
19.82,-1.41,9.72,1.97
19.82,-1.42,9.70,1.97
19.83,-1.42,9.68,1.98
19.83,-1.43,9.69,1.98
19.83,-1.42,9.68,1.95
19.83,-1.43,9.66,1.98
19.84,-1.44,9.66,1.97
19.84,-1.46,9.65,1.98
19.84,-1.43,9.65,1.98
19.84,-1.45,9.64,1.96
19.85,-1.44,9.63,1.99
19.85,-1.45,9.66,2.01
19.85,-1.46,9.64,1.99
19.85,-1.48,9.66,1.99
19.86,-1.48,9.66,1.98
19.86,-1.50,9.65,1.97
19.86,-1.49,9.65,1.95
19.86,-1.48,9.65,1.94
19.86,-1.47,9.64,1.94
19.87,-1.48,9.65,1.95
19.87,-1.49,9.66,1.94
19.87,-1.49,9.68,1.94
19.87,-1.49,9.68,1.93
19.88,-1.47,9.67,1.95
19.88,-1.47,9.68,1.95
19.88,-1.46,9.68,1.93
19.88,-1.46,9.70,1.91
19.89,-1.46,9.70,1.91
19.89,-1.45,9.71,1.93
19.89,-1.43,9.72,1.93
19.89,-1.44,9.71,1.94
19.90,-1.45,9.72,1.95
19.90,-1.44,9.72,1.99
19.90,-1.43,9.75,1.97
19.90,-1.42,9.75,2.00
19.91,-1.41,9.76,2.01
19.91,-1.41,9.74,1.99
19.91,-1.42,9.76,2.01
19.91,-1.40,9.76,2.03
19.91,-1.41,9.78,2.00
19.92,-1.41,9.78,1.99
19.92,-1.40,9.77,2.02
19.92,-1.41,9.79,2.01
19.92,-1.40,9.79,1.99
19.93,-1.39,9.80,1.97
19.93,-1.40,9.81,1.97
19.93,-1.40,9.80,1.98
19.93,-1.38,9.78,1.99
19.94,-1.35,9.79,1.98
19.94,-1.37,9.79,1.97
19.94,-1.38,9.77,2.01
19.94,-1.37,9.74,2.01
19.95,-1.35,9.75,2.02
19.95,-1.35,9.74,2.05
19.95,-1.36,9.70,2.05
19.95,-1.34,9.70,2.04
19.96,-1.37,9.70,2.01
19.96,-1.40,9.67,2.04
19.96,-1.40,9.66,2.01
19.96,-1.39,9.64,1.99
19.96,-1.40,9.64,1.97
19.97,-1.41,9.65,1.98
19.97,-1.44,9.61,1.98
19.97,-1.46,9.61,1.97
19.97,-1.46,9.59,1.99
19.98,-1.48,9.60,1.98
19.98,-1.48,9.60,1.98
19.98,-1.48,9.61,1.99
19.98,-1.49,9.58,1.97
19.99,-1.49,9.60,1.97
19.99,-1.49,9.61,1.95
19.99,-1.48,9.61,1.97
19.99,-1.48,9.63,1.95
20.00,-1.49,9.62,1.96
20.00,-1.49,9.62,1.94
20.00,-1.48,9.66,1.97
20.00,-1.47,9.66,1.93
20.01,-1.48,9.66,1.95
20.01,-1.50,9.68,1.93
20.01,-1.47,9.69,1.93
20.01,-1.46,9.70,1.95
20.01,-1.46,9.69,1.93
20.02,-1.47,9.72,1.93
20.02,-1.46,9.73,1.94
20.02,-1.47,9.71,1.95
20.02,-1.46,9.71,1.95
20.03,-1.44,9.72,1.94
20.03,-1.48,9.73,1.97
20.03,-1.47,9.74,1.93
20.03,-1.42,9.73,1.95
20.04,-1.45,9.73,1.95
20.04,-1.45,9.74,1.96
20.04,-1.46,9.73,1.95
20.04,-1.46,9.73,1.99
20.05,-1.44,9.71,1.99
20.05,-1.44,9.72,1.98
20.05,-1.44,9.71,2.00
20.05,-1.45,9.70,2.00
20.06,-1.45,9.73,1.99
20.06,-1.44,9.70,1.99
20.06,-1.44,9.71,2.00
20.06,-1.44,9.71,2.00
20.06,-1.45,9.70,2.00
20.07,-1.46,9.69,1.99
20.07,-1.47,9.68,1.99
20.07,-1.48,9.71,2.00
20.07,-1.47,9.69,1.99
20.08,-1.47,9.67,2.00
20.08,-1.46,9.67,1.98
20.08,-1.48,9.67,1.96
20.08,-1.49,9.70,1.98
20.09,-1.48,9.68,1.95
20.09,-1.48,9.68,1.96
20.09,-1.47,9.68,1.96
20.09,-1.47,9.67,1.95
20.10,-1.47,9.66,1.94
20.10,-1.47,9.65,1.95
20.10,-1.46,9.65,1.97
20.10,-1.46,9.65,1.95
20.10,-1.45,9.66,1.97
20.11,-1.44,9.65,1.96
20.11,-1.46,9.64,1.95
20.11,-1.43,9.63,1.96
20.11,-1.45,9.65,1.97
20.12,-1.44,9.64,1.99
20.12,-1.42,9.64,1.98
20.12,-1.43,9.64,1.97
20.12,-1.45,9.64,1.96
20.13,-1.44,9.65,1.98
20.13,-1.42,9.63,1.97
20.13,-1.44,9.66,1.99
20.13,-1.44,9.66,2.00
20.14,-1.45,9.65,1.99
20.14,-1.43,9.67,2.02
20.14,-1.44,9.68,2.02
20.14,-1.43,9.66,2.04
20.15,-1.43,9.66,2.05
20.15,-1.43,9.66,2.03
20.15,-1.44,9.66,2.05
20.15,-1.46,9.65,2.05
20.15,-1.44,9.64,2.02
20.16,-1.45,9.66,2.02
20.16,-1.45,9.66,2.00
20.16,-1.47,9.67,1.99
20.16,-1.47,9.65,1.98
20.17,-1.46,9.66,1.99
20.17,-1.48,9.65,1.99
20.17,-1.50,9.64,1.97
20.17,-1.50,9.64,1.97
20.18,-1.49,9.64,1.95
20.18,-1.49,9.63,1.93
20.18,-1.49,9.62,1.95
20.18,-1.49,9.61,1.94
20.19,-1.51,9.61,1.92
20.19,-1.50,9.61,1.92
20.19,-1.48,9.61,1.92
20.19,-1.50,9.61,1.91
20.20,-1.51,9.64,1.90
20.20,-1.50,9.61,1.91
20.20,-1.49,9.64,1.89
20.20,-1.49,9.60,1.91
20.20,-1.49,9.61,1.90
20.21,-1.50,9.64,1.92
20.21,-1.50,9.65,1.91
20.21,-1.51,9.66,1.91
20.21,-1.51,9.67,1.91
20.22,-1.53,9.69,1.91
20.22,-1.53,9.69,1.91
20.22,-1.56,9.72,1.93
20.22,-1.55,9.71,1.92
20.23,-1.58,9.71,1.90
20.23,-1.56,9.73,1.90
20.23,-1.57,9.73,1.92
20.23,-1.59,9.77,1.91
20.24,-1.57,9.74,1.92
20.24,-1.56,9.77,1.92
20.24,-1.56,9.79,1.94
20.24,-1.57,9.77,1.94
20.25,-1.56,9.76,1.93
20.25,-1.54,9.78,1.91
20.25,-1.53,9.76,1.93
20.25,-1.53,9.78,1.95
20.25,-1.52,9.76,1.96
20.26,-1.50,9.75,1.95
20.26,-1.52,9.73,1.96
20.26,-1.48,9.76,1.98
20.26,-1.48,9.72,2.00
20.27,-1.49,9.73,1.99
20.27,-1.47,9.74,2.00
20.27,-1.49,9.73,2.00
20.27,-1.48,9.73,2.00
20.28,-1.48,9.72,1.99
20.28,-1.48,9.71,1.98
20.28,-1.50,9.72,1.98
20.28,-1.51,9.72,1.96
20.29,-1.51,9.71,1.95
20.29,-1.54,9.71,1.94
20.29,-1.54,9.72,1.94
20.29,-1.53,9.73,1.92
20.29,-1.55,9.73,1.92
20.30,-1.53,9.71,1.92
20.30,-1.54,9.72,1.92
20.30,-1.54,9.73,1.91
20.30,-1.55,9.73,1.90
20.31,-1.54,9.72,1.91
20.31,-1.57,9.74,1.93
20.31,-1.54,9.73,1.93
20.31,-1.55,9.76,1.93
20.32,-1.54,9.75,1.93
20.32,-1.53,9.75,1.93
20.32,-1.54,9.74,1.94
20.32,-1.51,9.75,1.91
20.33,-1.52,9.75,1.90
20.33,-1.50,9.76,1.92
20.33,-1.49,9.75,1.89
20.33,-1.45,9.72,1.90
20.34,-1.46,9.72,1.94
20.34,-1.45,9.68,1.94
20.34,-1.44,9.70,1.95
20.34,-1.41,9.69,1.95
20.34,-1.42,9.69,1.98
20.35,-1.43,9.69,1.98
20.35,-1.41,9.67,1.93
20.35,-1.42,9.65,1.95
20.35,-1.40,9.67,1.95
20.36,-1.38,9.67,1.93
20.36,-1.39,9.68,1.93
20.36,-1.41,9.68,1.92
20.36,-1.42,9.68,1.90
20.37,-1.41,9.68,1.92
20.37,-1.42,9.67,1.93
20.37,-1.43,9.68,1.93
20.37,-1.40,9.69,1.95
20.38,-1.42,9.68,1.94
20.38,-1.40,9.70,1.94
20.38,-1.40,9.70,1.95
20.38,-1.39,9.70,1.95
20.39,-1.40,9.73,1.94
20.39,-1.42,9.73,1.95
20.39,-1.40,9.73,1.94
20.39,-1.40,9.74,1.97
20.39,-1.41,9.74,1.95
20.40,-1.41,9.74,1.94
20.40,-1.43,9.76,1.93
20.40,-1.43,9.72,1.93
20.40,-1.41,9.72,1.92
20.41,-1.40,9.73,1.93
20.41,-1.41,9.72,1.93
20.41,-1.40,9.70,1.93
20.41,-1.38,9.67,1.93
20.42,-1.37,9.65,1.94
20.42,-1.37,9.69,1.94
20.42,-1.41,9.66,1.93
20.42,-1.40,9.67,1.95
20.43,-1.40,9.66,1.94
20.43,-1.42,9.67,1.94
20.43,-1.44,9.67,1.96
20.43,-1.44,9.66,1.96
20.44,-1.44,9.68,1.94
20.44,-1.46,9.67,1.94
20.44,-1.45,9.66,1.96
20.44,-1.44,9.69,1.94
20.44,-1.44,9.69,1.94
20.45,-1.46,9.67,1.94
20.45,-1.44,9.67,1.95
20.45,-1.45,9.68,1.95
20.45,-1.45,9.69,1.98
20.46,-1.44,9.68,1.99
20.46,-1.44,9.70,2.01
20.46,-1.44,9.71,2.01
20.46,-1.46,9.71,2.01
20.47,-1.44,9.75,2.03
20.47,-1.45,9.76,2.03
20.47,-1.47,9.74,2.02
20.47,-1.48,9.76,2.04
20.48,-1.46,9.77,2.04
20.48,-1.47,9.77,2.03
20.48,-1.45,9.77,2.05
20.48,-1.47,9.78,2.05
20.49,-1.49,9.77,2.05
20.49,-1.49,9.78,2.05
20.49,-1.48,9.75,2.04
20.49,-1.48,9.77,2.02
20.49,-1.46,9.73,2.02
20.50,-1.45,9.74,2.02
20.50,-1.48,9.73,2.02
20.50,-1.47,9.72,2.02
20.50,-1.46,9.70,2.02
20.51,-1.47,9.68,2.01
20.51,-1.47,9.69,1.99
20.51,-1.45,9.68,2.00
20.51,-1.45,9.67,1.98
20.52,-1.48,9.68,1.96
20.52,-1.47,9.65,1.97
20.52,-1.48,9.65,2.00
20.52,-1.51,9.63,2.00
20.53,-1.50,9.65,1.97
20.53,-1.52,9.66,1.97
20.53,-1.54,9.63,1.99
20.53,-1.55,9.64,2.01
20.53,-1.57,9.62,2.01
20.54,-1.58,9.63,2.02
20.54,-1.59,9.62,2.03
20.54,-1.61,9.63,2.03
20.54,-1.62,9.63,2.03
20.55,-1.63,9.64,2.03
20.55,-1.63,9.64,2.01
20.55,-1.64,9.65,2.01
20.55,-1.64,9.64,2.00
20.56,-1.66,9.68,1.99
20.56,-1.66,9.65,1.99
20.56,-1.65,9.66,1.99
20.56,-1.64,9.63,1.98
20.57,-1.64,9.63,1.97
20.57,-1.62,9.64,1.98
20.57,-1.61,9.61,1.99
20.57,-1.61,9.61,2.00
20.58,-1.61,9.61,2.02
20.58,-1.61,9.61,1.99
20.58,-1.61,9.61,2.03
20.58,-1.58,9.62,2.01
20.58,-1.60,9.61,2.02
20.59,-1.59,9.61,2.00
20.59,-1.58,9.61,2.01
20.59,-1.59,9.60,2.02
20.59,-1.59,9.61,2.01
20.60,-1.58,9.62,2.00
20.60,-1.60,9.62,2.01
20.60,-1.59,9.66,2.01
20.60,-1.57,9.65,2.05
20.61,-1.61,9.66,2.03
20.61,-1.62,9.67,2.05
20.61,-1.61,9.67,2.03
20.61,-1.64,9.71,2.02
20.62,-1.63,9.70,2.01
20.62,-1.62,9.71,2.04
20.62,-1.63,9.71,2.02
20.62,-1.63,9.70,2.02
20.63,-1.62,9.68,2.03
20.63,-1.61,9.70,2.01
20.63,-1.63,9.71,2.01
20.63,-1.63,9.69,2.01
20.63,-1.63,9.69,2.01
20.64,-1.65,9.69,2.00
20.64,-1.63,9.70,2.00
20.64,-1.63,9.69,2.01
20.64,-1.62,9.71,2.01
20.65,-1.61,9.70,2.00
20.65,-1.64,9.71,2.01
20.65,-1.62,9.71,2.01
20.65,-1.60,9.70,2.01
20.66,-1.62,9.73,2.00
20.66,-1.58,9.72,1.98
20.66,-1.58,9.73,2.00
20.66,-1.59,9.76,1.98
20.67,-1.59,9.74,1.97
20.67,-1.59,9.75,1.93
20.67,-1.58,9.73,1.94
20.67,-1.56,9.74,1.96
20.68,-1.56,9.73,1.95
20.68,-1.55,9.74,1.93
20.68,-1.55,9.76,1.94
20.68,-1.54,9.75,1.92
20.68,-1.54,9.74,1.94
20.69,-1.54,9.74,1.91
20.69,-1.53,9.75,1.92
20.69,-1.54,9.76,1.94
20.69,-1.54,9.75,1.95
20.70,-1.53,9.74,1.95
20.70,-1.54,9.74,1.95
20.70,-1.53,9.73,1.96
20.70,-1.51,9.72,1.95
20.71,-1.52,9.71,1.96
20.71,-1.52,9.71,1.96
20.71,-1.52,9.70,1.97
20.71,-1.52,9.68,1.99
20.72,-1.52,9.68,1.99
20.72,-1.52,9.67,2.01
20.72,-1.55,9.64,2.01
20.72,-1.53,9.63,2.01
20.72,-1.51,9.61,2.01
20.73,-1.53,9.60,2.00
20.73,-1.53,9.60,2.02
20.73,-1.53,9.59,2.00
20.73,-1.53,9.58,2.00
20.74,-1.56,9.59,2.01
20.74,-1.53,9.60,2.01
20.74,-1.53,9.59,2.00
20.74,-1.53,9.61,2.01
20.75,-1.55,9.61,2.02
20.75,-1.55,9.62,2.00
20.75,-1.57,9.62,1.98
20.75,-1.59,9.62,1.98
20.76,-1.59,9.62,1.96
20.76,-1.59,9.64,1.95
20.76,-1.58,9.63,1.95
20.76,-1.60,9.63,1.93
20.77,-1.61,9.64,1.94
20.77,-1.61,9.66,1.91
20.77,-1.61,9.65,1.94
20.77,-1.62,9.65,1.89
20.77,-1.61,9.68,1.88
20.78,-1.58,9.66,1.89
20.78,-1.58,9.67,1.86
20.78,-1.58,9.69,1.89
20.78,-1.57,9.70,1.87
20.79,-1.57,9.70,1.88
20.79,-1.58,9.69,1.87
20.79,-1.58,9.70,1.89
20.79,-1.58,9.70,1.89
20.80,-1.58,9.69,1.94
20.80,-1.57,9.71,1.92
20.80,-1.57,9.71,1.95
20.80,-1.55,9.69,1.96
20.81,-1.55,9.69,1.96
20.81,-1.54,9.68,1.98
20.81,-1.53,9.68,2.01
20.81,-1.52,9.67,1.97
20.82,-1.52,9.67,1.98
20.82,-1.53,9.65,2.02
20.82,-1.52,9.65,1.98
20.82,-1.53,9.67,2.00
20.82,-1.54,9.65,2.00
20.83,-1.52,9.64,2.01
20.83,-1.54,9.65,1.99
20.83,-1.55,9.65,2.00
20.83,-1.56,9.64,2.00
20.84,-1.56,9.65,1.99
20.84,-1.55,9.63,1.99
20.84,-1.55,9.66,1.99
20.84,-1.54,9.68,2.00
20.85,-1.55,9.66,2.00
20.85,-1.56,9.67,2.02
20.85,-1.53,9.67,2.02
20.85,-1.55,9.66,2.02
20.86,-1.51,9.69,2.00
20.86,-1.51,9.68,2.00
20.86,-1.52,9.65,1.99
20.86,-1.53,9.67,1.99
20.87,-1.52,9.67,1.99
20.87,-1.52,9.68,2.00
20.87,-1.54,9.70,1.97
20.87,-1.53,9.70,1.96
20.87,-1.54,9.71,1.97
20.88,-1.54,9.71,1.95
20.88,-1.51,9.71,1.95
20.88,-1.50,9.69,1.95
20.88,-1.52,9.69,1.95
20.89,-1.52,9.71,1.92
20.89,-1.53,9.70,1.93
20.89,-1.55,9.69,1.91
20.89,-1.52,9.70,1.90
20.90,-1.54,9.70,1.92
20.90,-1.56,9.69,1.92
20.90,-1.53,9.67,1.92
20.90,-1.53,9.69,1.92
20.91,-1.54,9.67,1.92
20.91,-1.56,9.70,1.94
20.91,-1.55,9.69,1.94
20.91,-1.55,9.69,1.94
20.92,-1.55,9.67,1.94
20.92,-1.56,9.68,1.97
20.92,-1.54,9.68,1.98
20.92,-1.55,9.67,1.97
20.92,-1.55,9.68,1.99
20.93,-1.54,9.68,1.97
20.93,-1.54,9.68,1.98
20.93,-1.54,9.67,1.99
20.93,-1.56,9.66,2.00
20.94,-1.56,9.69,1.98
20.94,-1.54,9.69,2.00
20.94,-1.55,9.67,1.97
20.94,-1.55,9.69,1.98
20.95,-1.55,9.69,1.97
20.95,-1.52,9.71,1.97
20.95,-1.52,9.68,1.99
20.95,-1.54,9.72,1.98
20.96,-1.56,9.72,1.98
20.96,-1.53,9.76,1.99
20.96,-1.54,9.75,1.97
20.96,-1.54,9.74,1.99
20.96,-1.51,9.74,1.97
20.97,-1.51,9.75,1.95
20.97,-1.53,9.74,1.95
20.97,-1.51,9.72,1.93
20.97,-1.53,9.73,1.91
20.98,-1.51,9.71,1.94
20.98,-1.49,9.71,1.91
20.98,-1.52,9.72,1.91
20.98,-1.52,9.72,1.90
20.99,-1.52,9.69,1.92
20.99,-1.48,9.70,1.91
20.99,-1.49,9.70,1.90
20.99,-1.49,9.68,1.90
21.00,-1.51,9.68,1.90
21.00,-1.53,9.69,1.91
21.00,-1.49,9.71,1.91
21.00,-1.49,9.67,1.91
21.01,-1.53,9.67,1.91
21.01,-1.53,9.67,1.93
21.01,-1.52,9.68,1.90
21.01,-1.51,9.65,1.90
21.01,-1.50,9.65,1.94
21.02,-1.50,9.63,1.91
21.02,-1.51,9.63,1.90
21.02,-1.50,9.63,1.95
21.02,-1.49,9.63,1.93
21.03,-1.50,9.63,1.94
21.03,-1.50,9.62,1.92
21.03,-1.50,9.63,1.95
21.03,-1.49,9.62,1.94
21.04,-1.50,9.65,1.92
21.04,-1.50,9.65,1.94
21.04,-1.49,9.65,1.91
21.04,-1.51,9.64,1.94
21.05,-1.49,9.65,1.93
21.05,-1.51,9.64,1.92
21.05,-1.52,9.67,1.93
21.05,-1.51,9.67,1.93
21.06,-1.51,9.70,1.97
21.06,-1.50,9.69,1.95
21.06,-1.51,9.72,1.94
21.06,-1.52,9.73,1.96
21.06,-1.51,9.74,1.97
21.07,-1.53,9.76,1.98
21.07,-1.54,9.77,1.99
21.07,-1.53,9.79,1.95
21.07,-1.54,9.78,1.95
21.08,-1.53,9.79,1.93
21.08,-1.51,9.78,1.94
21.08,-1.54,9.79,1.92
21.08,-1.55,9.80,1.93
21.09,-1.55,9.80,1.92
21.09,-1.54,9.79,1.90
21.09,-1.53,9.79,1.91
21.09,-1.54,9.77,1.90
21.10,-1.53,9.76,1.91
21.10,-1.52,9.73,1.88
21.10,-1.50,9.73,1.88
21.10,-1.53,9.72,1.87
21.11,-1.51,9.69,1.86
21.11,-1.50,9.69,1.84
21.11,-1.50,9.67,1.81
21.11,-1.48,9.68,1.84
21.11,-1.50,9.64,1.85
21.12,-1.51,9.63,1.84
21.12,-1.51,9.62,1.83
21.12,-1.51,9.62,1.83
21.12,-1.52,9.63,1.85
21.13,-1.50,9.63,1.83
21.13,-1.47,9.64,1.84
21.13,-1.46,9.65,1.86
21.13,-1.47,9.64,1.83
21.14,-1.49,9.64,1.84
21.14,-1.49,9.64,1.83
21.14,-1.45,9.64,1.84
21.14,-1.46,9.66,1.82
21.15,-1.45,9.65,1.82
21.15,-1.45,9.66,1.84
21.15,-1.45,9.65,1.84
21.15,-1.45,9.67,1.85
21.15,-1.45,9.65,1.88
21.16,-1.44,9.64,1.85
21.16,-1.43,9.66,1.85
21.16,-1.44,9.67,1.85
21.16,-1.42,9.67,1.88
21.17,-1.43,9.66,1.88
21.17,-1.42,9.69,1.88
21.17,-1.43,9.69,1.90
21.17,-1.44,9.71,1.88
21.18,-1.44,9.73,1.89
21.18,-1.44,9.74,1.90
21.18,-1.44,9.74,1.91
21.18,-1.48,9.74,1.92
21.19,-1.48,9.76,1.92
21.19,-1.45,9.77,1.90
21.19,-1.46,9.78,1.90
21.19,-1.45,9.77,1.92
21.20,-1.47,9.79,1.91
21.20,-1.46,9.80,1.90
21.20,-1.47,9.79,1.89
21.20,-1.47,9.79,1.89
21.20,-1.51,9.81,1.88
21.21,-1.49,9.79,1.86
21.21,-1.48,9.79,1.86
21.21,-1.51,9.80,1.86
21.21,-1.50,9.76,1.84
21.22,-1.51,9.76,1.85
21.22,-1.53,9.73,1.84
21.22,-1.51,9.73,1.84
21.22,-1.53,9.72,1.81
21.23,-1.56,9.72,1.84
21.23,-1.55,9.72,1.82
21.23,-1.53,9.71,1.84
21.23,-1.56,9.70,1.85
21.24,-1.55,9.66,1.80
21.24,-1.52,9.66,1.81
21.24,-1.54,9.67,1.81
21.24,-1.55,9.64,1.81
21.25,-1.56,9.66,1.82
21.25,-1.56,9.65,1.80
21.25,-1.57,9.65,1.82
21.25,-1.56,9.65,1.84
21.25,-1.56,9.64,1.83
21.26,-1.56,9.62,1.87
21.26,-1.54,9.65,1.87
21.26,-1.53,9.64,1.87
21.26,-1.52,9.62,1.86
21.27,-1.54,9.63,1.86
21.27,-1.55,9.62,1.88
21.27,-1.55,9.62,1.90
21.27,-1.53,9.58,1.86
21.28,-1.55,9.61,1.89
21.28,-1.56,9.65,1.90
21.28,-1.56,9.64,1.88
21.28,-1.54,9.65,1.89
21.29,-1.56,9.66,1.89
21.29,-1.53,9.67,1.91
21.29,-1.55,9.69,1.90
21.29,-1.52,9.70,1.90
21.30,-1.52,9.72,1.88
21.30,-1.55,9.72,1.89
21.30,-1.54,9.71,1.89
21.30,-1.54,9.71,1.89
21.30,-1.55,9.71,1.88
21.31,-1.57,9.76,1.87
21.31,-1.56,9.76,1.87
21.31,-1.57,9.76,1.87
21.31,-1.57,9.79,1.86
21.32,-1.58,9.80,1.87
21.32,-1.56,9.80,1.85
21.32,-1.59,9.79,1.85
21.32,-1.56,9.80,1.82
21.33,-1.56,9.78,1.80
21.33,-1.56,9.81,1.81
21.33,-1.53,9.79,1.79
21.33,-1.52,9.76,1.79
21.34,-1.52,9.77,1.79
21.34,-1.51,9.75,1.80
21.34,-1.52,9.74,1.81
21.34,-1.48,9.73,1.81
21.35,-1.46,9.72,1.82
21.35,-1.46,9.70,1.80
21.35,-1.46,9.68,1.82
21.35,-1.46,9.66,1.82
21.35,-1.46,9.66,1.82
21.36,-1.44,9.66,1.80
21.36,-1.43,9.63,1.83
21.36,-1.45,9.61,1.85
21.36,-1.45,9.60,1.85
21.37,-1.44,9.59,1.85
21.37,-1.45,9.59,1.88
21.37,-1.45,9.60,1.87
21.37,-1.45,9.61,1.88
21.38,-1.45,9.62,1.90
21.38,-1.46,9.61,1.89
21.38,-1.45,9.62,1.90
21.38,-1.45,9.63,1.89
21.39,-1.45,9.64,1.86
21.39,-1.45,9.65,1.86
21.39,-1.47,9.69,1.86
21.39,-1.47,9.68,1.85
21.39,-1.49,9.70,1.84
21.40,-1.48,9.73,1.85
21.40,-1.48,9.73,1.84
21.40,-1.49,9.74,1.85
21.40,-1.50,9.75,1.87
21.41,-1.51,9.78,1.86
21.41,-1.50,9.79,1.86
21.41,-1.49,9.81,1.85
21.41,-1.51,9.83,1.87
21.42,-1.51,9.83,1.88
21.42,-1.50,9.83,1.86
21.42,-1.49,9.83,1.84
21.42,-1.47,9.83,1.87
21.43,-1.46,9.84,1.88
21.43,-1.48,9.83,1.85
21.43,-1.45,9.83,1.85
21.43,-1.46,9.80,1.86
21.44,-1.43,9.79,1.86
21.44,-1.43,9.78,1.86
21.44,-1.43,9.77,1.84
21.44,-1.44,9.74,1.84
21.44,-1.42,9.74,1.82
21.45,-1.42,9.74,1.81
21.45,-1.41,9.71,1.81
21.45,-1.41,9.69,1.79
21.45,-1.41,9.70,1.79
21.46,-1.42,9.68,1.79
21.46,-1.42,9.66,1.82
21.46,-1.42,9.63,1.82
21.46,-1.43,9.60,1.81
21.47,-1.42,9.61,1.81
21.47,-1.43,9.61,1.83
21.47,-1.44,9.61,1.84
21.47,-1.46,9.62,1.87
21.48,-1.45,9.59,1.88
21.48,-1.46,9.60,1.90
21.48,-1.47,9.59,1.90
21.48,-1.49,9.56,1.89
21.49,-1.47,9.60,1.90
21.49,-1.48,9.59,1.91
21.49,-1.48,9.61,1.93
21.49,-1.47,9.60,1.92
21.49,-1.48,9.61,1.90
21.50,-1.48,9.62,1.91
21.50,-1.48,9.63,1.93
21.50,-1.47,9.64,1.90
21.50,-1.49,9.65,1.90
21.51,-1.46,9.65,1.93
21.51,-1.46,9.64,1.95
21.51,-1.45,9.66,1.95
21.51,-1.44,9.67,1.93
21.52,-1.43,9.71,1.91
21.52,-1.43,9.69,1.90
21.52,-1.42,9.70,1.90
21.52,-1.40,9.69,1.89
21.53,-1.42,9.72,1.88
21.53,-1.41,9.70,1.86
21.53,-1.41,9.72,1.86
21.53,-1.40,9.72,1.84
21.54,-1.40,9.74,1.85
21.54,-1.40,9.72,1.85
21.54,-1.40,9.72,1.86
21.54,-1.41,9.72,1.87
21.54,-1.41,9.74,1.85
21.55,-1.40,9.73,1.86
21.55,-1.41,9.74,1.86
21.55,-1.42,9.73,1.86
21.55,-1.42,9.74,1.86
21.56,-1.41,9.75,1.86
21.56,-1.42,9.75,1.88
21.56,-1.40,9.73,1.89
21.56,-1.41,9.74,1.88
21.57,-1.42,9.75,1.89
21.57,-1.43,9.73,1.87
21.57,-1.40,9.74,1.88
21.57,-1.42,9.72,1.92
21.58,-1.42,9.74,1.91
21.58,-1.42,9.72,1.94
21.58,-1.42,9.73,1.95
21.58,-1.42,9.72,1.97
21.58,-1.45,9.70,1.97
21.59,-1.43,9.73,2.01
21.59,-1.44,9.72,2.01
21.59,-1.44,9.73,2.02
21.59,-1.44,9.71,2.03
21.60,-1.44,9.70,2.03
21.60,-1.46,9.69,2.03
21.60,-1.46,9.69,2.04
21.60,-1.47,9.71,2.05
21.61,-1.46,9.67,2.02
21.61,-1.47,9.67,2.00
21.61,-1.47,9.68,1.98
21.61,-1.46,9.68,2.00
21.62,-1.45,9.66,1.98
21.62,-1.46,9.66,1.97
21.62,-1.46,9.68,1.97
21.62,-1.45,9.66,1.94
21.63,-1.44,9.68,1.93
21.63,-1.44,9.66,1.94
21.63,-1.45,9.67,1.95
21.63,-1.43,9.66,1.93
21.63,-1.45,9.66,1.91
21.64,-1.43,9.63,1.95
21.64,-1.45,9.66,1.94
21.64,-1.45,9.62,1.93
21.64,-1.43,9.64,1.93
21.65,-1.45,9.64,1.96
21.65,-1.45,9.66,1.96
21.65,-1.47,9.64,1.96
21.65,-1.46,9.63,1.97
21.66,-1.46,9.63,1.99
21.66,-1.48,9.66,1.97
21.66,-1.49,9.68,2.01
21.66,-1.48,9.66,1.99
21.67,-1.53,9.67,1.99
21.67,-1.56,9.69,1.98
21.67,-1.54,9.70,1.98
21.67,-1.55,9.70,1.99
21.68,-1.56,9.74,2.01
21.68,-1.55,9.76,2.02
21.68,-1.57,9.76,2.01
21.68,-1.56,9.76,2.03
21.68,-1.59,9.76,2.04
21.69,-1.59,9.79,2.06
21.69,-1.59,9.81,2.04
21.69,-1.60,9.82,2.05
21.69,-1.60,9.83,2.06
21.70,-1.61,9.84,2.05
21.70,-1.61,9.86,2.07
21.70,-1.61,9.86,2.07
21.70,-1.62,9.83,2.07
21.71,-1.58,9.85,2.07
21.71,-1.61,9.87,2.11
21.71,-1.60,9.87,2.10
21.71,-1.61,9.90,2.12
21.72,-1.60,9.89,2.11
21.72,-1.59,9.89,2.09
21.72,-1.60,9.89,2.08
21.72,-1.57,9.88,2.07
21.73,-1.55,9.88,2.05
21.73,-1.55,9.89,2.05
21.73,-1.54,9.84,2.01
21.73,-1.55,9.87,1.99
21.73,-1.54,9.87,2.00
21.74,-1.54,9.86,1.98
21.74,-1.54,9.84,1.97
21.74,-1.54,9.81,1.98
21.74,-1.53,9.82,1.96
21.75,-1.53,9.81,1.99
21.75,-1.53,9.81,1.97
21.75,-1.54,9.78,1.98
21.75,-1.54,9.78,1.99
21.76,-1.53,9.76,1.98
21.76,-1.50,9.76,1.98
21.76,-1.51,9.75,2.00
21.76,-1.49,9.72,2.03
21.77,-1.48,9.69,2.02
21.77,-1.47,9.68,2.06
21.77,-1.50,9.66,2.08
21.77,-1.50,9.63,2.09
21.78,-1.50,9.61,2.17
21.78,-1.52,9.57,2.16
21.78,-1.53,9.53,2.20
21.78,-1.52,9.50,2.23
21.78,-1.53,9.50,2.26
21.79,-1.56,9.49,2.29
21.79,-1.56,9.47,2.31
21.79,-1.58,9.47,2.28
21.79,-1.60,9.46,2.27
21.80,-1.61,9.49,2.27
21.80,-1.67,9.48,2.28
21.80,-1.66,9.49,2.26
21.80,-1.67,9.50,2.20
21.81,-1.70,9.50,2.19
21.81,-1.68,9.52,2.18
21.81,-1.72,9.56,2.15
21.81,-1.77,9.58,2.13
21.82,-1.76,9.59,2.09
21.82,-1.76,9.59,2.05
21.82,-1.74,9.59,2.04
21.82,-1.74,9.65,2.00
21.82,-1.74,9.63,1.98
21.83,-1.75,9.64,1.97
21.83,-1.73,9.67,1.92
21.83,-1.73,9.68,1.90
21.83,-1.69,9.66,1.88
21.84,-1.70,9.64,1.89
21.84,-1.67,9.64,1.87
21.84,-1.67,9.64,1.86
21.84,-1.66,9.61,1.81
21.85,-1.64,9.60,1.83
21.85,-1.64,9.59,1.83
21.85,-1.64,9.58,1.83
21.85,-1.64,9.57,1.83
21.86,-1.63,9.58,1.84
21.86,-1.62,9.56,1.84
21.86,-1.63,9.55,1.85
21.86,-1.63,9.56,1.88
21.87,-1.65,9.54,1.89
21.87,-1.65,9.54,1.94
21.87,-1.65,9.54,1.97
21.87,-1.68,9.52,1.99
21.87,-1.67,9.51,2.03
21.88,-1.69,9.54,2.06
21.88,-1.69,9.52,2.09
21.88,-1.71,9.52,2.10
21.88,-1.71,9.53,2.12
21.89,-1.72,9.55,2.16
21.89,-1.72,9.55,2.18
21.89,-1.73,9.53,2.21
21.89,-1.72,9.53,2.24
21.90,-1.75,9.53,2.23
21.90,-1.75,9.52,2.26
21.90,-1.75,9.51,2.27
21.90,-1.76,9.49,2.28
21.91,-1.77,9.51,2.27
21.91,-1.78,9.49,2.28
21.91,-1.76,9.50,2.28
21.91,-1.77,9.49,2.26
21.92,-1.77,9.49,2.24
21.92,-1.79,9.48,2.23
21.92,-1.79,9.48,2.20
21.92,-1.81,9.48,2.19
21.92,-1.81,9.46,2.18
21.93,-1.82,9.48,2.16
21.93,-1.82,9.49,2.11
21.93,-1.83,9.49,2.12
21.93,-1.84,9.47,2.09
21.94,-1.85,9.47,2.07
21.94,-1.88,9.49,2.07
21.94,-1.87,9.47,2.06
21.94,-1.90,9.50,2.06
21.95,-1.93,9.49,2.06
21.95,-1.93,9.51,2.04
21.95,-1.94,9.51,2.04
21.95,-1.95,9.52,2.05
21.96,-1.96,9.54,2.06
21.96,-1.99,9.56,2.06
21.96,-1.99,9.55,2.06
21.96,-2.00,9.58,2.08
21.97,-1.99,9.60,2.09
21.97,-1.99,9.60,2.11
21.97,-1.99,9.61,2.11
21.97,-1.97,9.62,2.10
21.97,-1.97,9.62,2.11
21.98,-1.94,9.59,2.11
21.98,-1.92,9.60,2.12
21.98,-1.93,9.61,2.12
21.98,-1.91,9.59,2.11
21.99,-1.89,9.59,2.12
21.99,-1.88,9.58,2.12
21.99,-1.85,9.56,2.16
21.99,-1.86,9.55,2.16
22.00,-1.83,9.53,2.18
22.00,-1.85,9.54,2.17
22.00,-1.83,9.52,2.20
22.00,-1.80,9.52,2.20
22.01,-1.82,9.50,2.20
22.01,-1.81,9.49,2.20
22.01,-1.83,9.51,2.22
22.01,-1.81,9.50,2.22
22.01,-1.83,9.49,2.22
22.02,-1.84,9.49,2.21
22.02,-1.83,9.49,2.22
22.02,-1.83,9.49,2.20
22.02,-1.84,9.50,2.21
22.03,-1.84,9.49,2.19
22.03,-1.84,9.51,2.21
22.03,-1.85,9.52,2.19
22.03,-1.86,9.55,2.20
22.04,-1.87,9.55,2.21
22.04,-1.87,9.56,2.19
22.04,-1.88,9.55,2.17
22.04,-1.88,9.53,2.15
22.05,-1.88,9.55,2.15
22.05,-1.90,9.56,2.14
22.05,-1.90,9.55,2.11
22.05,-1.91,9.56,2.11
22.06,-1.91,9.55,2.08
22.06,-1.90,9.56,2.07
22.06,-1.89,9.59,2.07
22.06,-1.90,9.56,2.04
22.06,-1.90,9.55,2.03
22.07,-1.89,9.54,2.01
22.07,-1.89,9.55,1.99
22.07,-1.89,9.53,1.97
22.07,-1.90,9.52,1.97
22.08,-1.87,9.53,1.96
22.08,-1.85,9.53,1.93
22.08,-1.86,9.50,1.96
22.08,-1.89,9.49,1.96
22.09,-1.90,9.49,1.93
22.09,-1.89,9.49,1.91
22.09,-1.89,9.49,1.91
22.09,-1.90,9.48,1.92
22.10,-1.89,9.48,1.92
22.10,-1.90,9.49,1.95
22.10,-1.89,9.48,1.91
22.10,-1.88,9.49,1.90
22.11,-1.92,9.50,1.92
22.11,-1.91,9.53,1.92
22.11,-1.91,9.56,1.91
22.11,-1.90,9.55,1.94
22.11,-1.92,9.60,1.90
22.12,-1.91,9.61,1.95
22.12,-1.93,9.62,1.98
22.12,-1.93,9.64,1.98
22.12,-1.92,9.68,1.99
22.13,-1.90,9.70,1.97
22.13,-1.90,9.72,2.01
22.13,-1.89,9.72,2.02
22.13,-1.86,9.74,2.05
22.14,-1.88,9.76,2.07
22.14,-1.89,9.74,2.09
22.14,-1.88,9.77,2.10
22.14,-1.87,9.76,2.10
22.15,-1.87,9.77,2.15
22.15,-1.86,9.78,2.17
22.15,-1.87,9.79,2.16
22.15,-1.85,9.79,2.16
22.16,-1.85,9.79,2.15
22.16,-1.83,9.76,2.17
22.16,-1.81,9.76,2.17
22.16,-1.79,9.73,2.17
22.16,-1.79,9.75,2.19
22.17,-1.78,9.71,2.19
22.17,-1.78,9.69,2.18
22.17,-1.77,9.68,2.19
22.17,-1.75,9.64,2.21
22.18,-1.75,9.64,2.26
22.18,-1.74,9.63,2.26
22.18,-1.74,9.60,2.26
22.18,-1.76,9.54,2.25
22.19,-1.75,9.54,2.26
22.19,-1.75,9.52,2.25
22.19,-1.73,9.51,2.25
22.19,-1.73,9.51,2.29
22.20,-1.73,9.49,2.32
22.20,-1.75,9.44,2.30
22.20,-1.74,9.45,2.31
22.20,-1.75,9.44,2.32
22.21,-1.77,9.42,2.36
22.21,-1.80,9.40,2.36
22.21,-1.82,9.37,2.38
22.21,-1.83,9.34,2.36
22.21,-1.85,9.35,2.42
22.22,-1.87,9.33,2.42
22.22,-1.88,9.31,2.44
22.22,-1.89,9.28,2.41
22.22,-1.91,9.27,2.43
22.23,-1.91,9.26,2.46
22.23,-1.93,9.25,2.47
22.23,-1.96,9.23,2.48
22.23,-1.96,9.20,2.48
22.24,-1.99,9.20,2.51
22.24,-1.99,9.21,2.54
22.24,-2.02,9.17,2.55
22.24,-2.05,9.17,2.55
22.25,-2.06,9.16,2.58
22.25,-2.08,9.15,2.59
22.25,-2.11,9.11,2.62
22.25,-2.14,9.10,2.63
22.25,-2.15,9.10,2.66
22.26,-2.19,9.07,2.69
22.26,-2.21,9.06,2.67
22.26,-2.26,9.04,2.66
22.26,-2.28,9.04,2.69
22.27,-2.33,9.04,2.68
22.27,-2.37,9.06,2.64
22.27,-2.37,9.07,2.64
22.27,-2.38,9.06,2.62
22.28,-2.40,9.07,2.61
22.28,-2.43,9.09,2.57
22.28,-2.45,9.07,2.57
22.28,-2.45,9.10,2.57
22.29,-2.45,9.09,2.54
22.29,-2.46,9.09,2.53
22.29,-2.44,9.12,2.52
22.29,-2.44,9.13,2.49
22.30,-2.40,9.13,2.48
22.30,-2.37,9.12,2.51
22.30,-2.31,9.13,2.50
22.30,-2.25,9.15,2.51
22.30,-2.18,9.18,2.54
22.31,-2.14,9.18,2.55
22.31,-2.08,9.16,2.59
22.31,-2.02,9.16,2.62
22.31,-1.99,9.17,2.64
22.32,-1.98,9.19,2.68
22.32,-1.96,9.18,2.69
22.32,-1.91,9.21,2.77
22.32,-1.86,9.21,2.79
22.33,-1.85,9.20,2.76
22.33,-1.83,9.19,2.75
22.33,-1.78,9.16,2.70
22.33,-1.73,9.15,2.68
22.34,-1.68,9.13,2.73
22.34,-1.64,9.14,2.73
22.34,-1.62,9.13,2.76
22.34,-1.65,9.13,2.79
22.35,-1.73,9.11,2.83
22.35,-1.77,9.12,2.85
22.35,-1.81,9.09,2.91
22.35,-1.83,9.10,2.93
22.35,-1.91,9.05,3.00
22.36,-1.94,9.04,3.08
22.36,-1.95,9.00,3.14
22.36,-1.97,9.00,3.22
22.36,-2.00,8.96,3.26
22.37,-2.07,8.89,3.34
22.37,-2.11,8.86,3.40
22.37,-2.12,8.86,3.44
22.37,-2.14,8.84,3.50
22.38,-2.14,8.87,3.58
22.38,-2.17,8.89,3.70
22.38,-2.20,8.88,3.81
22.38,-2.24,8.92,3.88
22.39,-2.23,8.97,3.92
22.39,-2.24,9.01,4.01
22.39,-2.29,9.10,4.14
22.39,-2.40,9.17,4.24
22.40,-2.55,9.15,4.38
22.40,-2.71,9.17,4.48
22.40,-2.77,9.24,4.57
22.40,-2.83,9.29,4.64
22.40,-2.96,9.28,4.71
22.41,-3.09,9.32,4.83
22.41,-3.17,9.36,4.95
22.41,-3.11,9.54,5.10
22.41,-3.06,9.79,4.98
22.42,-3.26,9.97,4.77
22.42,-3.53,10.07,4.60
22.42,-3.78,10.02,4.47
22.42,-3.97,9.99,4.40
22.43,-4.12,9.98,4.35
22.43,-4.17,10.05,4.26
22.43,-4.17,10.10,4.14
22.43,-4.15,10.14,3.98
22.44,-4.19,10.12,3.85
22.44,-4.24,10.09,3.67
22.44,-4.30,10.08,3.63
22.44,-4.34,10.09,3.61
22.44,-4.47,10.18,3.57
22.45,-4.61,10.32,3.53
22.45,-4.71,10.35,3.49
22.45,-4.78,10.28,3.52
22.45,-4.79,10.20,3.48
22.46,-4.70,10.13,3.38
22.46,-4.67,10.05,3.33
22.46,-4.61,10.05,3.31
22.46,-4.56,10.05,3.33
22.47,-4.52,10.04,3.38
22.47,-4.51,10.03,3.44
22.47,-4.46,10.00,3.52
22.47,-4.34,9.96,3.55
22.48,-4.21,9.89,3.65
22.48,-4.09,9.84,3.78
22.48,-3.94,9.84,3.90
22.48,-3.85,9.80,4.01
22.49,-3.79,9.77,4.14
22.49,-3.62,9.75,4.20
22.49,-3.47,9.75,4.28
22.49,-3.34,9.82,4.37
22.49,-3.22,9.81,4.43
22.50,-3.08,9.86,4.45
22.50,-2.94,9.93,4.50
22.50,-2.82,9.95,4.53
22.50,-2.68,9.95,4.54
22.51,-2.56,9.91,4.53
22.51,-2.45,9.90,4.55
22.51,-2.38,9.80,4.52
22.51,-2.35,9.70,4.56
22.52,-2.29,9.63,4.53
22.52,-2.29,9.55,4.53
22.52,-2.27,9.47,4.55
22.52,-2.29,9.39,4.57
22.53,-2.34,9.26,4.58
22.53,-2.39,9.19,4.56
22.53,-2.44,9.10,4.62
22.53,-2.54,8.99,4.63
22.54,-2.65,8.89,4.69
22.54,-2.74,8.78,4.68
22.54,-2.81,8.65,4.67
22.54,-2.92,8.55,4.71
22.54,-3.00,8.43,4.69
22.55,-3.05,8.30,4.61
22.55,-3.10,8.20,4.56
22.55,-3.15,8.11,4.55
22.55,-3.19,8.00,4.52
22.56,-3.24,7.89,4.46
22.56,-3.23,7.78,4.39
22.56,-3.23,7.72,4.35
22.56,-3.26,7.64,4.30
22.57,-3.30,7.59,4.29
22.57,-3.34,7.60,4.29
22.57,-3.38,7.54,4.36
22.57,-3.41,7.54,4.40
22.58,-3.48,7.51,4.44
22.58,-3.55,7.56,4.54
22.58,-3.63,7.54,4.61
22.58,-3.68,7.57,4.67
22.59,-3.69,7.67,4.75
22.59,-3.68,7.65,4.79
22.59,-3.65,7.56,4.84
22.59,-3.66,7.53,4.86
22.59,-3.66,7.51,4.88
22.60,-3.65,7.51,4.90
22.60,-3.65,7.54,4.90
22.60,-3.62,7.51,4.91
22.60,-3.58,7.50,4.91
22.61,-3.59,7.50,4.90
22.61,-3.57,7.55,4.90
22.61,-3.60,7.53,4.92
22.61,-3.62,7.49,4.94
22.62,-3.66,7.47,4.96
22.62,-3.66,7.47,4.97
22.62,-3.71,7.48,4.99
22.62,-3.76,7.51,5.05
22.63,-3.81,7.45,5.06
22.63,-3.87,7.47,5.11
22.63,-3.90,7.48,5.12
22.63,-3.83,7.68,5.11
22.64,-3.87,7.57,5.06
22.64,-4.02,7.49,5.09
22.64,-4.08,7.42,5.12
22.64,-4.16,7.44,5.09
22.64,-4.18,7.40,5.07
22.65,-4.12,7.28,5.08
22.65,-3.99,7.14,5.01
22.65,-4.04,7.16,4.95
22.65,-4.08,7.16,4.91
22.66,-4.09,7.11,4.84
22.66,-4.04,7.01,4.81
22.66,-4.05,6.99,4.74
22.66,-4.11,6.98,4.70
22.67,-4.13,7.00,4.68
22.67,-4.11,6.98,4.71
22.67,-4.15,6.98,4.79
22.67,-4.14,7.01,4.87
22.68,-4.13,7.03,4.92
22.68,-4.08,7.03,5.01
22.68,-4.03,6.96,5.06
22.68,-3.98,6.90,5.09
22.68,-3.90,6.81,5.12
22.69,-3.84,6.72,5.18
22.69,-3.76,6.64,5.18
22.69,-3.71,6.61,5.22
22.69,-3.70,6.51,5.23
22.70,-3.62,6.43,5.24
22.70,-3.61,6.39,5.26
22.70,-3.60,6.34,5.28
22.70,-3.59,6.24,5.31
22.71,-3.60,6.12,5.35
22.71,-3.59,6.09,5.38
22.71,-3.58,6.01,5.37
22.71,-3.61,5.93,5.40
22.72,-3.66,5.87,5.44
22.72,-3.72,5.80,5.45
22.72,-3.78,5.75,5.42
22.72,-3.82,5.69,5.41
22.73,-3.89,5.68,5.41
22.73,-3.93,5.60,5.42
22.73,-3.97,5.53,5.42
22.73,-3.94,5.62,5.39
22.73,-3.84,5.68,5.22
22.74,-4.11,5.50,5.38
22.74,-4.34,5.34,5.51
22.74,-4.41,5.29,5.57
22.74,-4.38,5.30,5.56
22.75,-4.34,5.30,5.60
22.75,-4.33,5.32,5.64
22.75,-4.35,5.32,5.65
22.75,-4.38,5.37,5.66
22.76,-4.44,5.37,5.65
22.76,-4.46,5.37,5.66
22.76,-4.50,5.37,5.64
22.76,-4.50,5.40,5.63
22.77,-4.52,5.41,5.60
22.77,-4.56,5.48,5.57
22.77,-4.56,5.50,5.52
22.77,-4.60,5.49,5.50
22.78,-4.63,5.52,5.46
22.78,-4.64,5.59,5.39
22.78,-4.64,5.61,5.38
22.78,-4.65,5.61,5.30
22.78,-4.66,5.65,5.28
22.79,-4.71,5.65,5.24
22.79,-4.72,5.70,5.22
22.79,-4.69,5.70,5.21
22.79,-4.67,5.76,5.21
22.80,-4.71,5.81,5.22
22.80,-4.71,5.84,5.23
22.80,-4.69,5.90,5.29
22.80,-4.70,5.95,5.30
22.81,-4.68,6.04,5.30
22.81,-4.71,6.12,5.32
22.81,-4.68,6.20,5.34
22.81,-4.68,6.24,5.37
22.82,-4.64,6.28,5.37
22.82,-4.65,6.33,5.41
22.82,-4.63,6.41,5.47
22.82,-4.60,6.44,5.51
22.83,-4.60,6.49,5.53
22.83,-4.62,6.52,5.58
22.83,-4.64,6.56,5.59
22.83,-4.68,6.62,5.64
22.83,-4.71,6.67,5.64
22.84,-4.72,6.73,5.69
22.84,-4.66,6.77,5.74
22.84,-4.66,6.78,5.75
22.84,-4.64,6.82,5.76
22.85,-4.64,6.83,5.78
22.85,-4.61,6.87,5.74
22.85,-4.63,6.93,5.77
22.85,-4.66,6.97,5.73
22.86,-4.67,7.01,5.68
22.86,-4.65,7.05,5.63
22.86,-4.67,7.10,5.57
22.86,-4.68,7.15,5.54
22.87,-4.67,7.22,5.48
22.87,-4.66,7.30,5.43
22.87,-4.62,7.38,5.35
22.87,-4.62,7.44,5.30
22.87,-4.62,7.51,5.22
22.88,-4.57,7.58,5.21
22.88,-4.57,7.67,5.16
22.88,-4.57,7.74,5.14
22.88,-4.54,7.80,5.12
22.89,-4.54,7.87,5.16
22.89,-4.57,7.93,5.17
22.89,-4.56,7.99,5.21
22.89,-4.59,8.04,5.25
22.90,-4.58,8.09,5.27
22.90,-4.63,8.18,5.27
22.90,-4.64,8.22,5.31
22.90,-4.68,8.28,5.40
22.91,-4.70,8.31,5.44
22.91,-4.69,8.34,5.46
22.91,-4.76,8.36,5.42
22.91,-4.82,8.32,5.40
22.92,-4.62,8.35,5.21
22.92,-4.41,8.46,4.91
22.92,-4.31,8.53,4.64
22.92,-4.38,8.60,4.44
22.92,-4.56,8.69,4.33
22.93,-4.62,8.76,4.18
22.93,-4.67,8.94,4.02
22.93,-4.80,9.14,3.99
22.93,-5.00,9.36,4.10
22.94,-5.17,9.59,4.40
22.94,-5.35,9.83,4.82
22.94,-5.52,10.04,5.34
22.94,-5.68,10.14,5.87
22.95,-5.77,10.20,6.43
22.95,-5.77,10.26,6.96
22.95,-5.77,10.26,7.48
22.95,-5.79,10.16,7.89
22.96,-5.81,10.00,8.18
22.96,-5.84,9.85,8.37
22.96,-5.86,9.72,8.36
22.96,-5.87,9.53,8.24
22.97,-5.90,9.32,8.03
22.97,-5.92,9.12,7.76
22.97,-5.89,8.88,7.44
22.97,-5.81,8.64,7.09
22.97,-5.68,8.38,6.67
22.98,-5.53,8.16,6.27
22.98,-5.37,7.96,5.85
22.98,-5.21,7.79,5.43
22.98,-5.26,7.65,5.28
22.99,-5.02,7.47,4.96
22.99,-4.69,7.46,4.49
22.99,-4.42,7.42,4.15
22.99,-4.18,7.41,3.87
23.00,-3.94,7.40,3.71
23.00,-3.74,7.37,3.65
23.00,-3.57,7.35,3.67
23.00,-3.40,7.31,3.72
23.01,-3.25,7.29,3.81
23.01,-3.13,7.29,3.93
23.01,-3.00,7.28,4.02
23.01,-2.87,7.35,4.18
23.02,-2.76,7.44,4.31
23.02,-2.69,7.55,4.46
23.02,-2.60,7.63,4.66
23.02,-2.56,7.80,4.86
23.02,-2.50,7.94,5.05
23.03,-2.49,8.12,5.24
23.03,-2.49,8.30,5.39
23.03,-2.53,8.42,5.52
23.03,-2.58,8.61,5.67
23.04,-2.64,8.81,5.80
23.04,-2.74,8.95,5.94
23.04,-2.82,9.10,6.04
23.04,-2.89,9.24,6.22
23.05,-2.92,9.40,6.40
23.05,-3.02,9.56,6.57
23.05,-3.16,9.66,6.72
23.05,-3.31,9.77,6.87
23.06,-3.45,9.89,7.00
23.06,-3.60,9.99,7.13
23.06,-3.73,10.06,7.19
23.06,-3.86,10.11,7.25
23.07,-4.00,10.13,7.28
23.07,-4.19,10.17,7.24
23.07,-4.38,10.16,7.19
23.07,-4.58,10.19,7.08
23.07,-4.80,10.20,6.95
23.08,-5.04,10.14,6.79
23.08,-5.26,10.08,6.61
23.08,-5.41,9.97,6.42
23.08,-5.52,9.84,6.17
23.09,-5.60,9.68,5.96
23.09,-5.61,9.53,5.73
23.09,-5.56,9.36,5.52
23.09,-5.47,9.19,5.30
23.10,-5.34,9.01,5.11
23.10,-5.19,8.89,4.93
23.10,-5.06,8.75,4.76
23.10,-4.89,8.68,4.61
23.11,-4.75,8.60,4.50
23.11,-4.64,8.53,4.38
23.11,-4.53,8.50,4.34
23.11,-4.40,8.48,4.26
23.11,-4.30,8.53,4.19
23.12,-4.22,8.59,4.15
23.12,-4.15,8.64,4.12
23.12,-4.07,8.70,4.06
23.12,-3.98,8.80,4.03
23.13,-3.89,8.88,3.96
23.13,-3.79,8.98,3.93
23.13,-3.68,9.08,3.92
23.13,-3.59,9.18,3.89
23.14,-3.52,9.27,3.90
23.14,-3.39,9.38,3.85
23.14,-3.27,9.47,3.84
23.14,-3.08,9.56,3.84
23.15,-2.92,9.66,3.82
23.15,-2.75,9.72,3.83
23.15,-2.58,9.73,3.86
23.15,-2.40,9.79,3.84
23.16,-2.26,9.77,3.89
23.16,-2.10,9.75,3.94
23.16,-1.98,9.77,3.96
23.16,-1.87,9.71,4.01
23.16,-1.76,9.66,4.05
23.17,-1.67,9.65,4.08
23.17,-1.62,9.62,4.10
23.17,-1.57,9.59,4.13
23.17,-1.57,9.57,4.19
23.18,-1.58,9.56,4.23
23.18,-1.55,9.55,4.28
23.18,-1.55,9.54,4.35
23.18,-1.55,9.55,4.39
23.19,-1.51,9.55,4.46
23.19,-1.48,9.60,4.50
23.19,-1.50,9.65,4.57
23.19,-1.48,9.75,4.64
23.20,-1.44,9.84,4.69
23.20,-1.45,9.94,4.76
23.20,-1.45,10.07,4.84
23.20,-1.45,10.23,4.90
23.21,-1.50,10.40,4.98
23.21,-1.60,10.59,5.01
23.21,-1.66,10.81,4.95
23.21,-1.63,10.96,4.84
23.21,-1.55,11.13,4.63
23.22,-1.61,11.34,4.50
23.22,-1.68,11.53,4.50
23.22,-1.65,11.68,4.40
23.22,-1.54,11.78,4.25
23.23,-1.42,11.84,4.06
23.23,-1.25,11.84,3.88
23.23,-1.11,11.89,3.71
23.23,-0.99,11.92,3.61
23.24,-0.86,11.90,3.64
23.24,-0.78,11.87,3.66
23.24,-0.66,11.71,3.66
23.24,-0.58,11.56,3.61
23.25,-0.50,11.40,3.59
23.25,-0.43,11.24,3.58
23.25,-0.38,10.96,3.58
23.25,-0.35,10.72,3.63
23.26,-0.28,10.46,3.65
23.26,-0.19,10.18,3.70
23.26,-0.09,9.87,3.74
23.26,-0.01,9.55,3.84
23.26,0.11,9.24,3.88
23.27,0.25,9.04,3.89
23.27,0.42,8.85,3.85
23.27,0.57,8.65,3.83
23.27,0.75,8.46,3.86
23.28,0.88,8.31,3.86
23.28,1.01,8.17,3.97
23.28,1.13,8.05,4.06
23.28,1.27,7.84,4.16
23.29,1.47,7.68,4.37
23.29,1.72,7.52,4.57
23.29,1.94,7.36,4.75
23.29,2.15,7.20,4.90
23.30,2.23,7.08,4.97
23.30,2.15,7.02,4.99
23.30,2.00,6.98,4.99
23.30,1.81,7.00,4.91
23.30,1.65,7.03,4.73
23.31,1.38,7.04,4.28
23.31,1.07,7.02,3.82
23.31,0.78,6.98,3.56
23.31,0.53,7.01,3.46
23.32,0.20,7.03,3.08
23.32,-0.15,6.97,2.50
23.32,-0.37,6.97,2.12
23.32,-0.25,6.87,1.75
23.33,-0.01,6.64,1.52
23.33,-0.13,6.98,1.09
23.33,-0.53,6.82,0.43
23.33,-0.90,6.61,1.07
23.34,-0.88,6.80,1.96
23.34,-0.89,7.01,2.61
23.34,-0.80,7.23,3.16
23.34,-0.54,7.40,3.71
23.35,-0.28,7.52,4.15
23.35,-0.03,7.64,4.52
23.35,0.16,7.73,4.74
23.35,0.24,7.74,4.86
23.35,0.30,7.79,4.84
23.36,0.32,7.79,4.76
23.36,0.28,7.76,4.59
23.36,0.22,7.66,4.33
23.36,0.15,7.55,3.99
23.37,0.00,7.40,3.69
23.37,-0.15,7.22,3.39
23.37,-0.33,7.05,3.10
23.37,-0.52,6.84,2.81
23.38,-0.70,6.67,2.53
23.38,-0.94,6.56,2.23
23.38,-1.21,6.37,1.99
23.38,-1.48,6.27,1.77
23.39,-1.67,6.14,1.53
23.39,-1.86,6.04,1.39
23.39,-2.13,5.94,1.28
23.39,-2.30,5.86,1.18
23.40,-2.29,5.79,1.10
23.40,-2.16,5.82,1.02
23.40,-1.93,5.90,1.02
23.40,-1.70,6.00,1.09
23.40,-1.37,6.11,1.16
23.41,-1.13,6.24,1.30
23.41,-1.00,6.25,1.43
23.41,-0.95,6.23,1.67
23.41,-0.94,6.20,1.85
23.42,-0.96,6.20,2.03
23.42,-1.02,6.30,2.38
23.42,-0.98,6.31,2.57
23.42,-1.00,6.45,2.69
23.43,-1.17,6.78,2.66
23.43,-0.85,6.95,2.35
23.43,0.25,6.50,2.40
23.43,0.52,6.48,2.74
23.44,0.93,6.60,2.86
23.44,1.20,6.61,2.78
23.44,1.30,6.62,2.86
23.44,1.34,6.60,3.01
23.45,1.45,6.61,3.20
23.45,1.53,6.59,3.47
23.45,1.51,6.58,3.73
23.45,1.47,6.56,3.91
23.45,1.44,6.55,4.03
23.46,1.37,6.56,4.20
23.46,1.18,6.67,4.42
23.46,1.00,6.74,4.74
23.46,0.97,6.65,4.58
23.47,0.93,6.59,4.33
23.47,0.85,6.55,3.94
23.47,0.81,6.55,3.67
23.47,0.80,6.59,3.48
23.48,0.72,6.71,3.47
23.48,0.67,6.80,3.54
23.48,0.52,6.82,3.63
23.48,0.36,6.92,3.77
23.49,0.20,7.01,3.99
23.49,0.06,7.10,4.18
23.49,-0.11,7.24,4.37
23.49,-0.29,7.33,4.56
23.50,-0.49,7.42,4.71
23.50,-0.73,7.54,4.87
23.50,-1.04,7.65,5.03
23.50,-1.34,7.78,5.26
23.50,-1.65,7.97,5.56
23.51,-1.88,8.19,5.72
23.51,-2.12,8.33,5.90
23.51,-2.30,8.47,6.05
23.51,-2.45,8.64,6.15
23.52,-2.56,8.83,6.25
23.52,-2.71,8.99,6.36
23.52,-2.80,9.06,6.42
23.52,-2.89,9.07,6.40
23.53,-2.96,9.08,6.38
23.53,-2.89,9.09,6.30
23.53,-2.81,9.05,6.21
23.53,-2.71,9.01,6.14
23.54,-2.58,8.96,6.06
23.54,-2.38,8.91,5.94
23.54,-2.14,8.93,5.83
23.54,-1.83,8.96,5.69
23.54,-1.53,9.03,5.57
23.55,-1.21,9.09,5.48
23.55,-0.91,9.18,5.39
23.55,-0.64,9.26,5.24
23.55,-0.41,9.33,5.15
23.56,-0.10,9.44,4.95
23.56,0.18,9.51,4.76
23.56,0.36,9.53,4.71
23.56,0.51,9.55,4.70
23.57,0.68,9.61,4.61
23.57,0.83,9.62,4.63
23.57,0.87,9.60,4.66
23.57,0.95,9.61,4.62
23.58,0.96,9.60,4.57
23.58,0.96,9.54,4.62
23.58,0.99,9.55,4.66
23.58,1.05,9.49,4.69
23.59,1.10,9.43,4.74
23.59,1.19,9.37,4.68
23.59,1.33,9.36,4.93
23.59,1.47,9.36,5.00
23.59,1.59,9.37,5.08
23.60,1.72,9.43,5.13
23.60,1.85,9.48,5.17
23.60,1.96,9.60,5.22
23.60,2.03,9.72,5.28
23.61,2.10,9.83,5.30
23.61,2.12,9.90,5.36
23.61,2.12,10.04,5.46
23.61,2.14,10.16,5.61
23.62,2.20,10.34,5.57
23.62,2.31,10.52,5.35
23.62,2.23,10.65,5.84
23.62,2.08,10.75,6.28
23.63,1.91,10.88,6.64
23.63,1.79,11.01,6.78
23.63,1.63,11.11,6.95
23.63,1.48,11.23,7.11
23.64,1.38,11.30,7.21
23.64,1.32,11.38,7.29
23.64,1.29,11.49,7.27
23.64,1.30,11.56,7.19
23.64,1.31,11.65,7.02
23.65,1.38,11.70,6.82
23.65,1.43,11.77,6.61
23.65,1.48,11.84,6.41
23.65,1.52,11.88,6.26
23.66,1.57,11.92,6.15
23.66,1.55,11.96,6.05
23.66,1.55,12.03,6.02
23.66,1.50,12.05,6.03
23.67,1.48,12.05,6.01
23.67,1.46,12.13,6.01
23.67,1.41,12.13,5.97
23.67,1.38,12.11,5.86
23.68,1.41,12.09,5.71
23.68,1.37,12.08,5.62
23.68,1.37,12.04,5.53
23.68,1.35,12.04,5.46
23.69,1.32,12.09,5.40
23.69,1.29,12.09,5.36
23.69,1.24,12.15,5.29
23.69,1.20,12.22,5.23
23.69,1.16,12.22,5.13
23.70,1.13,12.25,5.07
23.70,1.09,12.24,5.03
23.70,1.03,12.23,5.00
23.70,0.97,12.25,4.91
23.71,0.96,12.21,4.87
23.71,1.03,12.24,4.62
23.71,0.96,12.16,4.75
23.71,0.98,12.20,4.94
23.72,0.94,12.20,4.91
23.72,0.98,12.23,4.82
23.72,1.02,12.26,4.74
23.72,1.05,12.28,4.72
23.73,1.12,12.32,4.65
23.73,1.16,12.31,4.69
23.73,1.17,12.37,4.95
23.73,1.19,12.47,5.08
23.73,1.26,12.52,5.11
23.74,1.31,12.55,5.14
23.74,1.32,12.62,5.16
23.74,1.32,12.67,5.11
23.74,1.30,12.69,5.14
23.75,1.29,12.74,5.14
23.75,1.26,12.78,5.14
23.75,1.22,12.80,5.09
23.75,1.19,12.78,5.01
23.76,1.17,12.78,4.90
23.76,1.15,12.79,4.69
23.76,1.06,12.73,4.71
23.76,1.06,12.76,4.85
23.77,1.07,12.84,4.89
23.77,1.05,12.89,4.85
23.77,1.03,12.98,4.76
23.77,1.01,13.08,4.68
23.78,1.00,13.17,4.62
23.78,1.00,13.32,4.61
23.78,0.98,13.44,4.57
23.78,0.95,13.56,4.58
23.78,0.91,13.63,4.56
23.79,0.88,13.70,4.60
23.79,0.86,13.70,4.59
23.79,0.80,13.69,4.49
23.79,0.74,13.71,4.40
23.80,0.70,13.65,4.47
23.80,0.61,13.59,4.41
23.80,0.51,13.48,4.33
23.80,0.45,13.29,4.21
23.81,0.38,13.11,4.11
23.81,0.31,12.83,4.03
23.81,0.25,12.57,4.01
23.81,0.18,12.22,3.91
23.82,0.14,11.87,3.84
23.82,0.08,11.49,3.73
23.82,0.06,11.06,3.57
23.82,0.00,10.62,3.38
23.83,-0.04,10.19,3.16
23.83,-0.10,9.71,2.85
23.83,-0.16,9.27,2.52
23.83,-0.25,8.79,2.21
23.83,-0.38,8.36,1.95
23.84,-0.45,7.89,1.72
23.84,-0.55,7.49,1.51
23.84,-0.62,7.08,1.39
23.84,-0.72,6.72,1.25
23.85,-0.81,6.31,1.19
23.85,-0.83,5.99,1.21
23.85,-0.84,5.67,1.21
23.85,-0.81,5.37,1.33
23.86,-0.74,5.13,1.49
23.86,-0.63,4.90,1.65
23.86,-0.54,4.74,1.85
23.86,-0.48,4.63,2.09
23.87,-0.42,4.57,2.26
23.87,-0.38,4.58,2.46
23.87,-0.39,4.61,2.66
23.87,-0.44,4.65,2.86
23.88,-0.48,4.74,3.06
23.88,-0.55,4.82,3.24
23.88,-0.64,4.92,3.36
23.88,-0.75,5.06,3.47
23.88,-0.86,5.13,3.50
23.89,-1.00,5.23,3.47
23.89,-1.17,5.31,3.40
23.89,-1.34,5.35,3.34
23.89,-1.59,5.39,3.23
23.90,-1.80,5.40,3.14
23.90,-2.05,5.38,3.04
23.90,-2.37,5.36,2.93
23.90,-2.64,5.29,2.86
23.91,-2.88,5.25,2.80
23.91,-3.14,5.22,2.77
23.91,-3.39,5.19,2.79
23.91,-3.60,5.16,2.81
23.92,-3.88,5.20,2.85
23.92,-4.16,5.23,2.88
23.92,-4.42,5.37,2.93
23.92,-4.66,5.52,2.93
23.93,-4.95,5.74,2.98
23.93,-5.24,6.02,3.00
23.93,-5.47,6.37,2.99
23.93,-5.67,6.73,2.99
23.93,-5.86,7.17,2.98
23.94,-5.98,7.52,2.90
23.94,-6.09,7.87,2.63
23.94,-6.17,8.22,2.33
23.94,-6.26,8.55,2.01
23.95,-6.27,8.89,1.69
23.95,-6.24,9.12,1.45
23.95,-6.08,9.31,1.33
23.95,-5.88,9.40,1.23
23.96,-5.58,9.44,1.24
23.96,-5.22,9.46,1.32
23.96,-4.84,9.46,1.39
23.96,-4.41,9.41,1.53
23.97,-4.00,9.41,1.70
23.97,-3.60,9.39,1.93
23.97,-3.26,9.41,2.23
23.97,-2.97,9.41,2.57
23.97,-2.73,9.43,2.90
23.98,-2.53,9.46,3.29
23.98,-2.40,9.51,3.67
23.98,-2.32,9.66,4.02
23.98,-2.29,9.80,4.36
23.99,-2.28,9.91,4.70
23.99,-2.30,10.08,5.00
23.99,-2.30,10.23,5.36
23.99,-2.35,10.39,5.69
24.00,-2.31,10.61,6.00
24.00,-2.29,10.78,6.25
24.00,-2.23,10.98,6.35
24.00,-2.21,11.15,6.26
24.01,-2.12,11.29,6.11
24.01,-2.05,11.52,6.04
24.01,-2.03,11.66,5.85
24.01,-1.96,11.83,5.51
24.02,-1.87,11.96,5.10
24.02,-1.79,12.00,4.69
24.02,-1.73,11.99,4.32
24.02,-1.67,12.00,3.97
24.02,-1.56,11.96,3.66
24.03,-1.45,11.87,3.37
24.03,-1.34,11.77,3.09
24.03,-1.24,11.61,2.79
24.03,-1.10,11.53,2.52
24.04,-0.99,11.39,2.16
24.04,-0.95,11.25,1.93
24.04,-0.85,11.17,1.65
24.04,-0.81,11.03,1.36
24.05,-0.78,10.92,1.12
24.05,-0.76,10.79,0.87
24.05,-0.72,10.62,0.71
24.05,-0.70,10.47,0.69
24.06,-0.63,10.33,0.65
24.06,-0.62,10.12,0.71
24.06,-0.60,9.94,0.81
24.06,-0.54,9.69,0.85
24.07,-0.49,9.50,0.94
24.07,-0.42,9.28,0.98
24.07,-0.40,9.05,0.99
24.07,-0.38,8.85,1.04
24.07,-0.38,8.60,1.13
24.08,-0.35,8.40,1.19
24.08,-0.49,8.04,1.36
24.08,-0.03,7.41,1.30
24.08,0.59,6.82,1.05
24.09,1.06,6.66,0.65
24.09,0.98,6.80,0.70
24.09,0.56,6.68,0.76
24.09,0.23,6.31,0.80
24.10,-0.09,6.09,0.87
24.10,-0.64,6.19,0.87
24.10,-1.40,6.41,1.07
24.10,-2.05,6.48,1.43
24.11,-2.57,6.36,1.96
24.11,-2.97,6.19,2.52
24.11,-3.23,6.07,3.10
24.11,-3.41,6.04,3.67
24.12,-3.50,6.02,4.29
24.12,-3.53,5.97,5.03
24.12,-3.72,6.05,5.50
24.12,-3.94,6.44,5.51
24.12,-4.06,6.89,5.46
24.13,-4.02,7.20,5.47
24.13,-3.97,7.33,5.46
24.13,-3.86,7.53,5.55
24.13,-3.71,7.74,5.65
24.14,-3.54,7.96,5.70
24.14,-3.35,8.13,5.65
24.14,-3.10,8.22,5.49
24.14,-2.89,8.21,5.21
24.15,-2.76,8.32,4.95
24.15,-2.69,8.34,4.69
24.15,-2.72,8.37,4.46
24.15,-2.85,8.41,4.35
24.16,-2.98,8.44,4.29
24.16,-3.07,8.42,4.17
24.16,-3.09,8.44,4.14
24.16,-3.03,8.53,4.05
24.16,-3.01,8.59,3.83
24.17,-3.02,8.58,3.58
24.17,-3.09,8.53,3.40
24.17,-3.19,8.48,3.26
24.17,-3.28,8.46,3.07
24.18,-3.51,8.39,2.94
24.18,-3.71,8.33,2.73
24.18,-3.89,8.22,2.48
24.18,-4.07,8.11,2.24
24.19,-4.18,8.01,1.98
24.19,-4.30,7.94,1.88
24.19,-4.39,7.87,1.86
24.19,-4.40,7.89,1.93
24.20,-4.38,7.71,2.08
24.20,-4.27,7.42,2.24
24.20,-4.28,7.37,2.52
24.20,-4.29,7.21,2.87
24.21,-4.20,7.04,3.15
24.21,-4.12,6.93,3.43
24.21,-4.10,6.90,3.76
24.21,-4.06,6.84,3.99
24.21,-4.16,6.76,4.24
24.22,-4.15,6.70,4.44
24.22,-4.11,6.63,4.54
24.22,-4.00,6.59,4.70
24.22,-3.91,6.64,4.86
24.23,-3.78,6.59,4.96
24.23,-3.69,6.52,5.07
24.23,-3.55,6.52,5.18
24.23,-3.49,6.53,5.29
24.24,-3.40,6.49,5.36
24.24,-3.29,6.50,5.41
24.24,-3.16,6.47,5.42
24.24,-3.07,6.50,5.41
24.25,-2.96,6.44,5.36
24.25,-2.85,6.39,5.31
24.25,-2.76,6.34,5.23
24.25,-2.71,6.30,5.16
24.26,-2.69,6.35,5.05
24.26,-2.68,6.40,4.95
24.26,-2.85,6.46,4.92
24.26,-2.86,6.41,4.78
24.26,-2.81,6.38,4.70
24.27,-2.80,6.27,4.63
24.27,-2.86,6.29,4.58
24.27,-2.96,6.24,4.50
24.27,-2.98,6.18,4.43
24.28,-3.00,6.12,4.38
24.28,-3.02,6.09,4.36
24.28,-3.05,6.08,4.31
24.28,-3.08,6.01,4.27
24.29,-3.11,5.93,4.25
24.29,-3.12,5.92,4.19
24.29,-3.14,5.95,4.15
24.29,-3.11,5.92,4.08
24.30,-3.06,6.00,4.01
24.30,-3.01,5.93,3.96
24.30,-2.92,5.96,3.91
24.30,-2.85,5.97,3.84
24.31,-2.81,5.93,3.82
24.31,-2.82,5.92,3.75
24.31,-2.83,5.91,3.79
24.31,-2.82,5.83,3.81
24.31,-2.82,5.77,3.84
24.32,-2.87,5.72,3.91
24.32,-2.87,5.65,4.01
24.32,-2.94,5.61,4.13
24.32,-3.01,5.56,4.27
24.33,-3.11,5.53,4.38
24.33,-3.17,5.42,4.53
24.33,-3.27,5.37,4.66
24.33,-3.37,5.29,4.78
24.34,-3.43,5.15,4.90
24.34,-3.51,5.02,5.00
24.34,-3.61,4.93,5.11
24.34,-3.71,4.88,5.18
24.35,-3.94,4.76,5.26
24.35,-4.03,4.64,5.30
24.35,-4.02,4.68,5.38
24.35,-4.03,4.64,5.44
24.36,-4.07,4.56,5.50
24.36,-4.10,4.55,5.56
24.36,-4.16,4.52,5.62
24.36,-4.13,4.55,5.67
24.36,-4.13,4.53,5.72
24.37,-4.25,4.46,5.75
24.37,-4.35,4.42,5.78
24.37,-4.44,4.46,5.78
24.37,-4.54,4.47,5.77
24.38,-4.66,4.48,5.77
24.38,-4.75,4.50,5.75
24.38,-4.88,4.50,5.75
24.38,-4.98,4.46,5.73
24.39,-5.10,4.51,5.74
24.39,-5.15,4.54,5.73
24.39,-5.14,4.59,5.68
24.39,-5.22,4.66,5.69
24.40,-5.31,4.69,5.64
24.40,-5.44,4.72,5.63
24.40,-5.43,4.82,5.51
24.40,-5.69,4.86,5.59
24.40,-5.87,4.87,5.62
24.41,-5.91,4.99,5.63
24.41,-5.94,5.13,5.66
24.41,-5.95,5.26,5.69
24.41,-5.97,5.36,5.69
24.42,-6.10,5.48,5.71
24.42,-6.24,5.59,5.76
24.42,-6.35,5.68,5.81
24.42,-6.44,5.72,5.84
24.43,-6.44,5.81,5.89
24.43,-6.44,5.89,5.88
24.43,-6.59,5.95,5.99
24.43,-6.70,6.00,6.10
24.44,-6.81,6.01,6.20
24.44,-6.88,6.04,6.33
24.44,-6.94,6.07,6.43
24.44,-7.02,6.09,6.53
24.45,-7.05,6.09,6.57
24.45,-7.10,6.06,6.61
24.45,-7.16,6.01,6.63
24.45,-7.18,6.01,6.65
24.45,-7.19,6.00,6.65
24.46,-7.18,6.00,6.62
24.46,-7.07,6.02,6.52
24.46,-7.38,6.00,6.62
24.46,-7.47,6.01,6.65
24.47,-7.43,6.02,6.65
24.47,-7.38,6.05,6.67
24.47,-7.32,6.14,6.66
24.47,-7.30,6.23,6.69
24.48,-7.27,6.32,6.73
24.48,-7.26,6.40,6.80
24.48,-7.23,6.48,6.85
24.48,-7.24,6.61,6.91
24.49,-7.24,6.69,7.00
24.49,-7.25,6.80,7.04
24.49,-7.26,6.91,7.15
24.49,-7.18,6.98,7.19
24.50,-7.13,7.10,7.23
24.50,-7.10,7.19,7.32
24.50,-7.04,7.30,7.35
24.50,-7.05,7.34,7.44
24.50,-7.03,7.44,7.53
24.51,-6.96,7.57,7.61
24.51,-6.92,7.62,7.67
24.51,-7.00,7.66,7.75
24.51,-7.03,7.71,7.79
24.52,-7.01,7.75,7.81
24.52,-6.97,7.80,7.78
24.52,-6.92,7.83,7.77
24.52,-6.88,7.85,7.74
24.53,-6.86,7.89,7.68
24.53,-6.85,7.91,7.66
24.53,-6.77,7.92,7.59
24.53,-6.77,7.94,7.54
24.54,-6.77,7.95,7.43
24.54,-6.73,7.98,7.27
24.54,-6.72,8.01,7.17
24.54,-6.70,8.04,7.12
24.55,-6.65,8.07,7.10
24.55,-6.55,8.07,7.06
24.55,-6.39,8.05,6.90
24.55,-6.20,8.06,6.72
24.55,-6.05,8.15,6.54
24.56,-6.05,8.25,6.41
24.56,-6.12,8.39,6.38
24.56,-6.16,8.60,6.39
24.56,-6.17,8.81,6.53
24.57,-6.13,9.10,6.79
24.57,-6.12,9.39,7.16
24.57,-6.14,9.74,7.63
24.57,-6.25,10.08,8.14
24.58,-6.32,10.49,8.63
24.58,-6.49,10.86,9.04
24.58,-6.70,11.23,9.39
24.58,-7.06,11.46,9.67
24.59,-7.45,11.68,9.81
24.59,-7.85,11.79,9.80
24.59,-8.17,11.83,9.66
24.59,-8.33,11.79,9.39
24.59,-8.67,11.65,9.13
24.60,-9.04,11.40,8.90
24.60,-9.32,11.00,8.69
24.60,-9.60,10.54,8.50
24.60,-9.73,10.01,8.37
24.61,-9.64,9.50,8.40
24.61,-9.41,9.04,8.46
24.61,-9.13,8.68,8.53
24.61,-8.88,8.30,8.61
24.62,-8.45,8.02,8.46
24.62,-8.43,7.57,8.56
24.62,-8.36,7.18,8.75
24.62,-8.18,6.88,8.75
24.63,-7.86,6.63,8.63
24.63,-7.46,6.43,8.29
24.63,-7.05,6.31,7.79
24.63,-6.67,6.19,7.16
24.64,-6.32,6.09,6.57
24.64,-5.90,6.04,5.90
24.64,-5.43,5.98,5.29
24.64,-5.09,5.96,4.83
24.64,-4.84,6.00,4.48
24.65,-4.51,6.07,4.31
24.65,-4.11,6.14,4.18
24.65,-3.69,6.17,4.08
24.65,-3.31,6.21,3.99
24.66,-2.93,6.29,3.91
24.66,-2.60,6.37,3.85
24.66,-2.24,6.47,3.79
24.66,-1.85,6.59,3.74
24.67,-1.51,6.73,3.75
24.67,-1.19,6.84,3.73
24.67,-0.89,7.03,3.80
24.67,-0.67,7.18,3.85
24.68,-0.53,7.35,3.95
24.68,-0.43,7.50,4.02
24.68,-0.40,7.67,4.10
24.68,-0.38,7.83,4.16
24.69,-0.38,8.00,4.18
24.69,-0.43,8.13,4.16
24.69,-0.48,8.29,4.23
24.69,-0.57,8.49,4.21
24.69,-0.67,8.69,4.22
24.70,-0.76,8.90,4.17
24.70,-0.85,9.12,4.10
24.70,-0.94,9.35,4.01
24.70,-1.05,9.61,3.87
24.71,-1.16,9.87,3.80
24.71,-1.31,10.11,3.74
24.71,-1.45,10.27,3.71
24.71,-1.59,10.38,3.70
24.72,-1.74,10.47,3.73
24.72,-1.89,10.56,3.78
24.72,-2.05,10.61,3.86
24.72,-2.14,10.60,3.96
24.73,-2.18,10.57,4.06
24.73,-2.18,10.49,4.17
24.73,-2.16,10.39,4.29
24.73,-2.08,10.29,4.38
24.74,-1.98,10.18,4.41
24.74,-1.90,10.04,4.46
24.74,-1.78,9.93,4.44
24.74,-1.59,9.82,4.43
24.74,-1.43,9.72,4.44
24.75,-1.34,9.61,4.38
24.75,-1.28,9.48,4.25
24.75,-1.19,9.39,4.13
24.75,-1.09,9.36,4.00
24.76,-1.00,9.35,3.90
24.76,-0.89,9.33,3.74
24.76,-0.79,9.33,3.61
24.76,-0.70,9.37,3.51
24.77,-0.58,9.42,3.38
24.77,-0.53,9.48,3.26
24.77,-0.44,9.57,3.18
24.77,-0.38,9.68,3.15
24.78,-0.37,9.81,3.08
24.78,-0.42,9.89,2.99
24.78,-0.48,9.99,2.85
24.78,-0.49,10.13,2.71
24.79,-0.51,10.24,2.51
24.79,-0.52,10.34,2.38
24.79,-0.56,10.44,2.25
24.79,-0.59,10.54,2.19
24.79,-0.68,10.60,2.16
24.80,-0.84,10.68,2.10
24.80,-0.98,10.70,1.97
24.80,-1.02,10.66,1.83
24.80,-1.03,10.63,1.82
24.81,-1.03,10.59,1.94
24.81,-0.98,10.48,2.00
24.81,-0.96,10.35,2.09
24.81,-0.95,10.21,2.23
24.82,-0.95,10.01,2.38
24.82,-0.95,9.73,2.57
24.82,-0.97,9.46,2.71
24.82,-1.01,9.20,2.87
24.83,-1.02,8.95,2.98
24.83,-1.03,8.70,3.08
24.83,-1.03,8.47,3.20
24.83,-1.01,8.21,3.31
24.83,-1.02,8.04,3.38
24.84,-1.02,7.89,3.48
24.84,-1.03,7.75,3.52
24.84,-1.01,7.65,3.56
24.84,-1.02,7.55,3.61
24.85,-1.01,7.50,3.60
24.85,-1.03,7.39,3.56
24.85,-1.05,7.36,3.51
24.85,-1.07,7.29,3.46
24.86,-1.11,7.29,3.35
24.86,-1.15,7.25,3.27
24.86,-1.20,7.18,3.19
24.86,-1.23,7.13,3.14
24.87,-1.26,7.04,3.11
24.87,-1.31,6.94,3.10
24.87,-1.32,6.89,3.12
24.87,-1.38,6.80,3.18
24.88,-1.49,6.69,3.29
24.88,-1.60,6.58,3.32
24.88,-1.72,6.47,3.37
24.88,-1.95,6.47,3.59
24.88,-2.14,6.34,3.79
24.89,-2.28,6.20,3.78
24.89,-2.37,6.07,3.67
24.89,-2.39,6.02,3.50
24.89,-2.40,5.94,3.32
24.90,-2.40,5.91,3.11
24.90,-2.36,5.93,2.94
24.90,-2.35,5.95,2.98
24.90,-2.37,6.04,3.06
24.91,-2.39,6.03,3.13
24.91,-2.43,6.05,3.08
24.91,-2.45,6.03,2.96
24.91,-2.46,6.01,2.83
24.92,-2.44,6.03,2.76
24.92,-2.43,6.00,2.69
24.92,-2.40,5.98,2.65
24.92,-2.36,5.99,2.57
24.93,-2.36,6.02,2.50
24.93,-2.24,5.99,2.59
24.93,-2.08,5.99,2.68
24.93,-1.92,6.00,2.76
24.93,-1.78,6.02,2.79
24.94,-1.67,6.09,2.76
24.94,-1.66,6.12,2.65
24.94,-1.79,6.14,2.59
24.94,-1.94,6.15,2.64
24.95,-2.00,6.21,2.63
24.95,-2.02,6.29,2.73
24.95,-2.05,6.38,2.87
24.95,-2.10,6.49,3.01
24.96,-2.13,6.50,3.16
24.96,-1.91,6.83,3.28
24.96,-1.38,7.35,3.37
24.96,-1.00,7.61,3.59
24.97,-0.61,7.78,3.85
24.97,-0.35,7.97,4.03
24.97,-0.15,8.12,4.08
24.97,-0.08,8.23,4.11
24.98,-0.09,8.29,4.11
24.98,-0.14,8.39,4.18
24.98,-0.17,8.38,4.23
24.98,-0.18,8.37,4.31
24.98,-0.15,8.39,4.38
24.99,-0.18,8.42,4.50
24.99,-0.22,8.53,4.66
24.99,-0.27,8.54,4.65
24.99,-0.29,8.59,4.61
25.00,-0.33,8.67,4.50
25.00,-0.28,8.80,4.35
25.00,-0.27,8.85,4.17
25.00,-0.26,8.88,3.99
25.01,-0.29,8.94,3.79
25.01,-0.32,9.07,3.67
25.01,-0.32,9.24,3.57
25.01,-0.31,9.38,3.55
25.02,-0.31,9.54,3.54
25.02,-0.32,9.60,3.55
25.02,-0.38,9.61,3.54
25.02,-0.47,9.62,3.60
25.02,-0.57,9.61,3.67
25.03,-0.67,9.62,3.76
25.03,-0.77,9.59,3.81
25.03,-0.86,9.56,3.93
25.03,-1.01,9.51,4.05
25.04,-1.13,9.44,4.24
25.04,-1.25,9.30,4.41
25.04,-1.36,9.14,4.52
25.04,-1.49,8.99,4.59
25.05,-1.59,8.82,4.53
25.05,-1.61,8.70,4.45
25.05,-1.56,8.55,4.31
25.05,-1.49,8.38,4.16
25.06,-1.48,8.31,4.04
25.06,-1.42,8.22,3.99
25.06,-1.35,8.10,3.98
25.06,-1.31,7.97,4.05
25.07,-1.26,7.87,4.17
25.07,-1.21,7.82,4.24
25.07,-1.26,7.76,4.34
25.07,-1.28,7.73,4.45
25.07,-1.27,7.66,4.47
25.08,-1.25,7.67,4.47
25.08,-1.24,7.67,4.51
25.08,-1.21,7.70,4.56
25.08,-1.20,7.79,4.62
25.09,-1.18,7.85,4.67
25.09,-1.15,7.86,4.71
25.09,-1.08,7.84,4.77
25.09,-1.05,7.81,4.76
25.10,-1.05,7.75,4.77
25.10,-1.11,7.71,4.76
25.10,-1.12,7.69,4.72
25.10,-1.16,7.71,4.66
25.11,-1.21,7.70,4.58
25.11,-1.20,7.71,4.46
25.11,-1.18,7.70,4.39
25.11,-1.18,7.69,4.41
25.12,-1.26,7.71,4.43
25.12,-1.30,7.71,4.45
25.12,-1.36,7.73,4.48
25.12,-1.37,7.75,4.45
25.12,-1.47,7.78,4.39
25.13,-1.50,7.85,4.41
25.13,-1.50,7.91,4.41
25.13,-1.49,7.97,4.47
25.13,-1.52,8.07,4.49
25.14,-1.51,8.19,4.56
25.14,-1.55,8.24,4.67
25.14,-1.53,8.30,4.78
25.14,-1.54,8.34,4.86
25.15,-1.54,8.41,4.96
25.15,-1.50,8.46,5.11
25.15,-1.46,8.54,5.27
25.15,-1.43,8.60,5.35
25.16,-1.37,8.65,5.46
25.16,-1.33,8.66,5.53
25.16,-1.29,8.67,5.53
25.16,-1.24,8.64,5.60
25.17,-1.18,8.65,5.65
25.17,-1.10,8.66,5.66
25.17,-1.01,8.66,5.68
25.17,-0.95,8.62,5.69
25.17,-0.90,8.61,5.66
25.18,-0.80,8.57,5.60
25.18,-0.74,8.51,5.58
25.18,-0.65,8.46,5.59
25.18,-0.57,8.40,5.57
25.19,-0.45,8.35,5.54
25.19,-0.34,8.30,5.52
25.19,-0.20,8.27,5.58
25.19,-0.09,8.24,5.67
25.20,0.06,8.24,5.68
25.20,0.19,8.25,5.75
25.20,0.27,8.24,5.78
25.20,0.38,8.22,5.83
25.21,0.51,8.22,5.91
25.21,0.62,8.31,5.94
25.21,0.72,8.33,5.95
25.21,0.80,8.40,5.95
25.22,0.90,8.49,5.92
25.22,0.95,8.57,5.85
25.22,1.00,8.67,5.81
25.22,1.09,8.74,5.72
25.22,1.08,8.83,5.72
25.23,1.12,8.94,5.70
25.23,1.15,9.05,5.63
25.23,1.19,9.21,5.54
25.23,1.22,9.34,5.42
25.24,1.23,9.48,5.31
25.24,1.23,9.67,5.24
25.24,1.17,9.79,5.17
25.24,1.16,9.94,5.09
25.25,1.11,10.09,5.01
25.25,1.00,10.23,4.93
25.25,0.90,10.39,4.89
25.25,0.83,10.58,4.84
25.26,0.76,10.74,4.75
25.26,0.74,11.04,4.68
25.26,0.65,11.26,4.58
25.26,0.51,11.47,4.58
25.26,0.31,11.56,4.60
25.27,0.12,11.88,4.61
25.27,-0.11,12.04,4.64
25.27,-0.27,12.16,4.66
25.27,-0.40,12.47,4.69
25.28,-0.55,12.68,4.65
25.28,-0.65,12.94,4.68
25.28,-0.73,13.20,4.68
25.28,-0.77,13.34,4.62
25.29,-0.77,13.48,4.59
25.29,-0.80,13.50,4.61
25.29,-0.74,13.47,4.57
25.29,-0.62,13.48,4.53
25.30,-0.49,13.48,4.50
25.30,-0.27,13.45,4.51
25.30,-0.03,13.50,4.57
25.30,0.16,13.44,4.58
25.31,0.44,13.44,4.28
25.31,0.64,13.44,4.29
25.31,0.91,13.47,4.24
25.31,1.15,13.50,4.12
25.31,1.31,13.52,4.02
25.32,1.39,13.54,4.01
25.32,1.34,13.56,4.22
25.32,1.15,13.55,4.69
25.32,0.91,13.51,5.31
25.33,0.70,13.44,5.72
25.33,0.55,13.31,5.87
25.33,0.52,13.25,5.82
25.33,0.53,13.16,5.66
25.34,0.61,13.11,5.44
25.34,0.60,13.02,5.29
25.34,0.54,12.93,5.18
25.34,0.45,12.83,5.08
25.35,0.31,12.75,4.99
25.35,0.17,12.67,4.90
25.35,0.07,12.59,4.81
25.35,-0.05,12.56,4.72
25.36,-0.14,12.54,4.64
25.36,-0.24,12.52,4.60
25.36,-0.37,12.50,4.57
25.36,-0.51,12.41,4.56
25.36,-0.65,12.28,4.55
25.37,-0.81,12.17,4.49
25.37,-0.96,12.00,4.44
25.37,-1.12,11.87,4.32
25.37,-1.24,11.68,4.16
25.38,-1.37,11.49,3.99
25.38,-1.45,11.35,3.80
25.38,-1.54,11.15,3.58
25.38,-1.62,10.99,3.40
25.39,-1.66,10.81,3.20
25.39,-1.70,10.67,2.98
25.39,-1.73,10.52,2.81
25.39,-1.70,10.38,2.68
25.40,-1.64,10.23,2.53
25.40,-1.55,10.11,2.44
25.40,-1.43,9.98,2.44
25.40,-1.25,9.86,2.42
25.41,-1.10,9.78,2.46
25.41,-0.91,9.72,2.57
25.41,-0.72,9.66,2.64
25.41,-0.55,9.61,2.76
25.41,-0.34,9.58,2.89
25.42,-0.21,9.58,3.11
25.42,-0.12,9.54,3.35
25.42,-0.03,9.52,3.56
25.42,0.03,9.48,3.70
25.43,0.04,9.46,3.82
25.43,0.10,9.44,3.89
25.43,0.03,9.46,3.97
25.43,-0.07,9.48,3.98
25.44,-0.27,9.56,3.93
25.44,-0.42,9.63,3.94
25.44,-0.61,9.76,3.93
25.44,-0.78,9.89,3.97
25.45,-0.96,10.02,3.96
25.45,-1.17,10.10,3.96
25.45,-1.44,10.19,3.96
25.45,-1.74,10.30,3.98
25.45,-2.03,10.41,3.98
25.46,-2.37,10.57,3.94
25.46,-2.61,10.68,3.95
25.46,-2.87,10.70,3.97
25.46,-3.06,10.66,3.99
25.47,-3.27,10.51,4.01
25.47,-3.39,10.34,4.06
25.47,-3.48,10.10,4.09
25.47,-3.52,9.83,4.07
25.48,-3.59,9.64,3.98
25.48,-3.59,9.46,3.83
25.48,-3.54,9.31,3.67
25.48,-3.44,9.17,3.49
25.49,-3.30,9.10,3.31
25.49,-3.19,9.03,3.14
25.49,-3.12,8.99,3.01
25.49,-3.11,8.95,2.71
25.50,-3.13,8.92,2.40
25.50,-3.12,8.93,2.10
25.50,-3.03,8.98,1.62
25.50,-2.94,9.00,1.66
25.50,-2.91,9.05,1.80
25.51,-2.93,9.11,1.96
25.51,-2.94,9.23,2.14
25.51,-3.08,9.35,2.26
25.51,-3.26,9.53,2.35
25.52,-3.41,9.70,2.50
25.52,-3.45,9.89,2.66
25.52,-3.43,10.04,2.78
25.52,-3.35,10.23,2.82
25.53,-3.26,10.40,2.80
25.53,-3.13,10.52,2.69
25.53,-3.06,10.65,2.58
25.53,-3.02,10.67,2.50
25.54,-2.96,10.73,2.44
25.54,-2.88,10.77,2.41
25.54,-2.82,10.69,2.30
25.54,-2.76,10.58,2.22
25.55,-2.72,10.47,2.12
25.55,-2.69,10.32,2.03
25.55,-2.69,10.08,1.90
25.55,-2.64,9.83,1.74
25.55,-2.62,9.53,1.59
25.56,-2.53,9.30,1.39
25.56,-2.53,9.08,1.20
25.56,-2.59,8.92,1.00
25.56,-2.75,8.68,0.81
25.57,-2.92,8.41,0.67
25.57,-3.26,8.05,0.63
25.57,-3.47,7.67,0.66
25.57,-3.50,7.39,0.69
25.58,-3.57,7.13,0.74
25.58,-3.65,6.86,0.91
25.58,-3.63,6.66,1.05
25.58,-3.63,6.61,1.14
25.59,-3.71,6.56,1.17
25.59,-3.83,6.45,1.20
25.59,-4.04,6.38,1.30
25.59,-4.18,6.33,1.43
25.60,-4.20,6.27,1.70
25.60,-4.10,6.23,2.02
25.60,-3.84,6.10,2.36
25.60,-3.48,6.10,2.68
25.60,-3.22,6.23,2.78
25.61,-3.12,6.32,2.75
25.61,-3.05,6.35,2.80
25.61,-3.00,6.30,2.81
25.61,-2.85,6.13,2.81
25.62,-2.64,6.03,2.92
25.62,-2.48,5.92,3.05
25.62,-2.45,5.88,3.13
25.62,-2.44,5.84,3.11
25.63,-2.45,5.81,3.08
25.63,-2.52,5.75,3.07
25.63,-2.60,5.75,3.10
25.63,-2.62,5.74,3.08
25.64,-2.67,5.78,3.06
25.64,-2.68,5.83,3.03
25.64,-2.71,5.91,3.03
25.64,-2.76,6.03,3.05
25.65,-2.82,6.12,3.00
25.65,-2.89,6.12,2.99
25.65,-2.86,6.11,3.06
25.65,-2.82,6.05,3.04
25.65,-2.65,5.93,3.04
25.66,-2.40,5.76,3.14
25.66,-2.18,5.50,3.47
25.66,-2.20,5.65,3.48
25.66,-2.31,6.17,2.87
25.67,-2.24,6.50,2.46
25.67,-2.21,6.67,2.52
25.67,-2.19,6.76,2.83
25.67,-2.02,6.79,3.03
25.68,-1.85,6.77,3.15
25.68,-1.73,6.72,3.23
25.68,-1.72,6.74,3.33
25.68,-1.77,6.76,3.45
25.69,-1.83,6.74,3.58
25.69,-1.86,6.72,3.68
25.69,-1.93,6.64,3.77
25.69,-2.02,6.48,3.84
25.69,-2.15,6.36,3.93
25.70,-2.28,6.29,4.03
25.70,-2.49,6.19,4.14
25.70,-2.77,6.17,4.24
25.70,-3.08,6.17,4.40
25.71,-3.43,6.31,4.60
25.71,-3.76,6.28,4.79
25.71,-3.95,6.12,4.90
25.71,-4.10,6.00,4.98
25.72,-4.26,5.96,5.03
25.72,-4.40,5.89,5.08
25.72,-4.50,5.83,5.15
25.72,-4.58,5.65,5.19
25.73,-4.57,5.60,5.16
25.73,-4.60,5.55,5.07
25.73,-4.59,5.51,4.99
25.73,-4.57,5.47,4.93
25.74,-4.47,5.51,4.93
25.74,-4.39,5.50,4.95
25.74,-4.33,5.51,4.96
25.74,-4.26,5.58,5.00
25.74,-4.16,5.57,4.97
25.75,-4.05,5.55,4.97
25.75,-3.98,5.52,4.94
25.75,-3.91,5.50,4.90
25.75,-3.85,5.50,4.90
25.76,-3.78,5.51,4.85
25.76,-3.71,5.53,4.83
25.76,-3.64,5.56,4.83
25.76,-3.59,5.59,4.79
25.77,-3.49,5.62,4.73
25.77,-3.40,5.64,4.68
25.77,-3.30,5.65,4.61
25.77,-3.22,5.66,4.50
25.78,-3.21,5.64,4.51
25.78,-3.20,5.71,4.57
25.78,-3.19,5.76,4.63
25.78,-3.23,5.84,4.71
25.79,-3.31,5.87,4.72
25.79,-3.41,5.90,4.78
25.79,-3.50,5.93,4.84
25.79,-3.59,5.95,4.87
25.79,-3.64,6.01,4.94
25.80,-3.65,6.02,5.01
25.80,-3.68,6.06,5.06
25.80,-3.71,6.11,5.10
25.80,-3.73,6.19,5.13
25.81,-3.76,6.23,5.12
25.81,-3.79,6.26,5.18
25.81,-3.82,6.30,5.19
25.81,-3.89,6.31,5.23
25.82,-3.94,6.39,5.28
25.82,-4.03,6.39,5.29
25.82,-4.09,6.40,5.32
25.82,-4.17,6.41,5.37
25.83,-4.21,6.41,5.43
25.83,-4.23,6.35,5.46
25.83,-4.27,6.32,5.52
25.83,-4.31,6.27,5.60
25.84,-4.35,6.23,5.64
25.84,-4.41,6.19,5.70
25.84,-4.50,6.14,5.81
25.84,-4.59,5.97,5.87
25.84,-4.62,5.91,5.92
25.85,-4.69,5.78,5.96
25.85,-4.83,5.60,6.03
25.85,-4.92,5.49,5.99
25.85,-5.04,5.37,6.03
25.86,-5.10,5.24,6.04
25.86,-5.15,5.19,6.01
25.86,-5.20,5.14,5.99
25.86,-5.34,5.14,5.96
25.87,-5.45,5.09,5.90
25.87,-5.51,5.09,5.86
25.87,-5.58,5.09,5.83
25.87,-5.62,5.08,5.76
25.88,-5.69,5.13,5.72
25.88,-5.78,5.14,5.65
25.88,-5.86,5.15,5.61
25.88,-5.94,5.19,5.51
25.88,-6.05,5.25,5.46
25.89,-6.13,5.30,5.37
25.89,-6.19,5.35,5.29
25.89,-6.21,5.40,5.22
25.89,-6.25,5.47,5.15
25.90,-6.26,5.53,5.10
25.90,-6.18,5.57,5.02
25.90,-6.14,5.57,4.99
25.90,-6.15,5.61,4.95
25.91,-6.12,5.65,4.96
25.91,-6.10,5.69,4.97
25.91,-6.02,5.69,5.00
25.91,-5.99,5.71,5.02
25.92,-5.89,5.73,5.08
25.92,-5.85,5.77,5.10
25.92,-5.78,5.80,5.16
25.92,-5.72,5.83,5.27
25.93,-5.66,5.85,5.39
25.93,-5.60,5.84,5.46
25.93,-5.55,5.88,5.58
25.93,-5.48,5.91,5.70
25.93,-5.42,5.94,5.80
25.94,-5.37,5.99,5.91
25.94,-5.31,6.05,6.05
25.94,-5.28,6.08,6.18
25.94,-5.26,6.12,6.31
25.95,-5.28,6.16,6.43
25.95,-5.27,6.23,6.54
25.95,-5.31,6.29,6.62
25.95,-5.32,6.34,6.70
25.96,-5.37,6.44,6.75
25.96,-5.42,6.52,6.80
25.96,-5.50,6.64,6.81
25.96,-5.59,6.73,6.87
25.97,-5.84,6.78,7.05
25.97,-5.83,6.92,7.06
25.97,-5.85,7.02,6.92
25.97,-5.91,7.18,6.94
25.98,-5.98,7.28,6.83
25.98,-6.08,7.40,6.76
25.98,-6.14,7.52,6.68
25.98,-6.14,7.55,6.80
25.98,-6.15,7.53,6.88
25.99,-6.06,7.53,6.81
25.99,-5.97,7.50,6.67
25.99,-5.83,7.52,6.50
25.99,-5.76,7.56,6.33
26.00,-6.03,7.65,6.16
26.00,-6.45,7.81,5.90
26.00,-7.11,8.18,5.61
26.00,-7.72,8.69,5.34
26.01,-8.07,9.47,5.08
26.01,-8.14,10.34,4.83
26.01,-7.90,11.21,4.62
26.01,-7.53,12.04,4.49
26.02,-7.13,12.82,4.49
26.02,-6.78,13.49,4.66
26.02,-6.44,14.07,4.97
26.02,-6.16,14.54,5.37
26.03,-5.91,14.88,5.85
26.03,-5.70,15.12,6.37
26.03,-5.59,15.30,6.93
26.03,-5.50,15.40,7.46
26.03,-5.55,15.41,8.02
26.04,-5.63,15.26,8.54
26.04,-5.75,15.09,8.95
26.04,-5.85,14.83,9.26
26.04,-5.99,14.58,9.39
26.05,-6.04,14.32,9.31
26.05,-6.01,14.06,9.02
26.05,-5.97,13.79,8.60
26.05,-5.87,13.54,8.01
26.06,-5.74,13.30,7.45
26.06,-5.59,13.02,6.84
26.06,-5.43,12.73,6.27
26.06,-5.14,12.48,5.84
26.07,-4.86,12.15,5.54
26.07,-4.57,11.85,5.34
26.07,-4.31,11.51,5.23
26.07,-4.07,11.17,5.16
26.08,-3.85,10.86,5.14
26.08,-3.62,10.62,5.15
26.08,-3.42,10.40,5.15
26.08,-3.28,10.20,5.19
26.08,-3.14,10.04,5.24
26.09,-3.00,9.90,5.27
26.09,-2.84,9.79,5.26
26.09,-2.66,9.69,5.12
26.09,-2.55,9.57,5.11
26.10,-2.44,9.52,5.07
26.10,-2.34,9.48,4.95
26.10,-2.24,9.47,4.84
26.10,-2.17,9.44,4.69
26.11,-2.12,9.48,4.52
26.11,-2.00,9.51,4.35
26.11,-1.88,9.55,4.18
26.11,-1.74,9.67,4.00
26.12,-1.62,9.78,3.83
26.12,-1.51,9.86,3.67
26.12,-1.42,9.96,3.55
26.12,-1.36,10.06,3.43
26.12,-1.36,10.18,3.39
26.13,-1.37,10.23,3.35
26.13,-1.38,10.31,3.36
26.13,-1.42,10.34,3.43
26.13,-1.44,10.36,3.51
26.14,-1.46,10.38,3.54
26.14,-1.48,10.35,3.60
26.14,-1.45,10.34,3.69
26.14,-1.39,10.28,3.76
26.15,-1.32,10.21,3.82
26.15,-1.27,10.16,3.88
26.15,-1.17,10.06,3.97
26.15,-1.12,9.95,4.05
26.16,-1.04,9.82,4.09
26.16,-1.05,9.71,4.17
26.16,-1.02,9.57,4.22
26.16,-1.03,9.41,4.25
26.17,-1.03,9.32,4.26
26.17,-1.00,9.24,4.26
26.17,-0.97,9.22,4.29
26.17,-1.04,9.23,4.27
26.17,-1.12,9.30,4.22
26.18,-1.14,9.35,4.17
26.18,-1.06,9.40,4.17
26.18,-1.00,9.42,4.15
26.18,-0.93,9.50,4.08
26.19,-0.90,9.57,3.98
26.19,-0.94,9.63,3.79
26.19,-1.04,9.73,3.58
26.19,-1.05,9.80,3.37
26.20,-1.11,9.82,3.13
26.20,-1.13,9.83,2.91
26.20,-1.13,9.81,2.68
26.20,-1.10,9.74,2.50
26.21,-1.06,9.64,2.38
26.21,-1.12,9.50,2.34
26.21,-1.17,9.33,2.32
26.21,-1.25,9.15,2.33
26.22,-1.40,8.95,2.35
26.22,-1.54,8.73,2.35
26.22,-1.65,8.54,2.38
26.22,-1.73,8.31,2.43
26.22,-1.80,8.12,2.47
26.23,-1.82,7.93,2.53
26.23,-1.84,7.74,2.63
26.23,-1.85,7.54,2.68
26.23,-1.80,7.37,2.75
26.24,-1.75,7.23,2.90
26.24,-1.68,7.08,3.00
26.24,-1.54,7.01,3.11
26.24,-1.41,6.93,3.24
26.25,-1.29,6.87,3.40
26.25,-1.13,6.82,3.61
26.25,-1.07,6.73,3.85
26.25,-1.08,6.58,4.02
26.26,-1.01,6.44,4.12
26.26,-0.93,6.26,4.20
26.26,-0.75,6.13,3.97
26.26,-0.49,6.04,3.76
26.27,-0.48,6.04,3.65
26.27,-0.58,6.07,3.64
26.27,-0.61,6.00,3.66
26.27,-0.62,5.97,3.69
26.27,-0.62,5.92,3.74
26.28,-0.63,5.89,3.82
26.28,-0.64,5.85,3.91
26.28,-0.71,5.83,3.93
26.28,-0.81,5.78,3.84
26.29,-0.96,5.77,3.68
26.29,-1.03,5.77,3.58
26.29,-0.97,5.69,3.48
26.29,-0.69,5.58,3.46
26.30,-0.50,5.48,3.44
26.30,-0.59,5.44,3.18
26.30,-0.79,5.42,2.83
26.30,-0.97,5.42,2.54
26.31,-1.05,5.45,2.39
26.31,-1.02,5.51,2.38
26.31,-1.00,5.54,2.42
26.31,-1.06,5.63,2.50
26.31,-1.17,5.74,2.64
26.32,-1.28,5.92,2.77
26.32,-1.35,6.07,2.90
26.32,-1.36,6.17,3.00
26.32,-1.38,6.22,3.18
26.33,-1.40,6.29,3.40
26.33,-1.36,6.33,3.54
26.33,-1.37,6.31,3.69
26.33,-1.29,6.29,3.78
26.34,-1.27,6.27,3.84
26.34,-1.24,6.25,3.99
26.34,-1.24,6.21,4.20
26.34,-1.28,6.24,4.39
26.35,-1.33,6.23,4.62
26.35,-1.40,6.17,4.82
26.35,-1.44,6.16,5.05
26.35,-1.59,6.10,5.26
26.36,-1.73,6.10,5.44
26.36,-1.88,6.06,5.54
26.36,-2.00,6.00,5.56
26.36,-2.07,6.00,5.57
26.36,-2.15,6.01,5.55
26.37,-2.24,6.05,5.46
26.37,-2.36,6.14,5.32
26.37,-2.37,6.17,5.19
26.37,-2.34,6.23,5.01
26.38,-2.29,6.38,4.80
26.38,-2.21,6.56,4.61
26.38,-2.07,6.65,4.38
26.38,-1.96,6.88,4.17
26.39,-1.89,7.08,3.98
26.39,-1.78,7.21,3.84
26.39,-1.65,7.41,3.77
26.39,-1.59,7.63,3.73
26.40,-1.47,7.81,3.68
26.40,-1.37,8.04,3.71
26.40,-1.27,8.20,3.83
26.40,-1.17,8.33,3.93
26.41,-1.06,8.49,4.05
26.41,-0.95,8.59,4.21
26.41,-0.83,8.66,4.36
26.41,-0.77,8.64,4.53
26.41,-0.79,8.59,4.55
26.42,-0.89,8.65,4.49
26.42,-1.03,8.77,4.34
26.42,-1.08,8.89,4.24
26.42,-1.05,8.97,4.09
26.43,-0.95,9.03,3.98
26.43,-0.89,9.13,3.85
26.43,-0.76,9.15,3.72
26.43,-0.66,9.21,3.61
26.44,-0.57,9.22,3.56
26.44,-0.53,9.22,3.63
26.44,-0.49,9.17,3.65
26.44,-0.43,9.14,3.66
26.45,-0.43,9.10,3.74
26.45,-0.44,9.06,3.77
26.45,-0.42,9.05,3.86
26.45,-0.39,9.01,3.97
26.46,-0.40,8.99,4.10
26.46,-0.44,8.93,4.25
26.46,-0.48,8.84,4.36
26.46,-0.53,8.83,4.51
26.46,-0.56,8.80,4.61
26.47,-0.62,8.77,4.67
26.47,-0.68,8.74,4.74
26.47,-0.81,8.72,4.85
26.47,-0.93,8.71,4.90
26.48,-1.06,8.72,4.90
26.48,-1.12,8.70,4.86
26.48,-1.16,8.65,4.87
26.48,-1.23,8.54,4.82
26.49,-1.32,8.45,4.81
26.49,-1.40,8.36,4.72
26.49,-1.47,8.32,4.65
26.49,-1.56,8.23,4.59
26.50,-1.63,8.16,4.53
26.50,-1.67,8.13,4.48
26.50,-1.74,8.13,4.50
26.50,-1.79,8.11,4.50
26.51,-1.82,8.14,4.49
26.51,-1.85,8.18,4.46
26.51,-1.88,8.25,4.47
26.51,-1.89,8.29,4.45
26.51,-1.95,8.31,4.50
26.52,-1.96,8.38,4.61
26.52,-2.00,8.41,4.66
26.52,-2.02,8.48,4.68
26.52,-2.03,8.47,4.71
26.53,-2.03,8.46,4.75
26.53,-1.99,8.47,4.79
26.53,-1.98,8.42,4.90
26.53,-1.93,8.37,5.06
26.54,-1.88,8.29,5.18
26.54,-1.80,8.21,5.26
26.54,-1.72,8.13,5.37
26.54,-1.65,8.08,5.48
26.55,-1.58,8.01,5.57
26.55,-1.47,7.97,5.60
26.55,-1.33,7.95,5.60
26.55,-1.20,7.96,5.65
26.55,-1.11,7.93,5.69
26.56,-0.97,7.88,5.72
26.56,-0.80,7.86,5.76
26.56,-0.63,7.85,5.80
26.56,-0.45,7.82,5.81
26.57,-0.22,7.82,5.83
26.57,-0.04,7.82,5.78
26.57,0.19,7.85,5.73
26.57,0.41,7.89,5.62
26.58,0.61,7.90,5.49
26.58,0.77,7.96,5.41
26.58,0.91,7.99,5.30
26.58,1.06,8.04,5.17
26.59,1.15,8.12,5.05
26.59,1.25,8.16,4.92
26.59,1.34,8.22,4.78
26.59,1.38,8.31,4.61
26.60,1.39,8.44,4.54
26.60,1.42,8.57,4.46
26.60,1.39,8.72,4.32
26.60,1.33,8.92,4.24
26.60,1.24,9.10,4.20
26.61,1.19,9.29,4.19
26.61,1.14,9.47,4.12
26.61,1.05,9.67,4.12
26.61,0.93,9.85,4.11
26.62,0.80,9.97,4.17
26.62,0.69,10.08,4.23
26.62,0.54,10.20,4.29
26.62,0.41,10.28,4.31
26.63,0.27,10.34,4.37
26.63,0.15,10.40,4.47
26.63,0.03,10.48,4.56
26.63,-0.02,10.63,4.61
26.64,-0.05,10.76,4.63
26.64,-0.08,10.90,4.70
26.64,-0.08,11.00,4.76
26.64,-0.04,11.15,4.81
26.65,-0.06,11.39,4.83
26.65,-0.07,11.57,4.90
26.65,-0.05,11.75,4.92
26.65,-0.08,11.95,4.92
26.65,-0.08,12.11,4.94
26.66,-0.11,12.24,4.88
26.66,-0.12,12.39,4.80
26.66,-0.11,12.48,4.70
26.66,-0.09,12.57,4.59
26.67,-0.01,12.62,4.48
26.67,0.08,12.70,4.44
26.67,0.18,12.85,4.40
26.67,0.24,12.97,4.44
26.68,0.30,13.08,4.44
26.68,0.34,13.21,4.46
26.68,0.35,13.29,4.56
26.68,0.36,13.34,4.65
26.69,0.31,13.42,4.78
26.69,0.26,13.51,4.86
26.69,0.18,13.59,4.96
26.69,0.11,13.63,5.02
26.70,0.07,13.72,5.09
26.70,-0.02,13.78,5.18
26.70,-0.09,13.83,5.24
26.70,-0.21,13.84,5.28
26.70,-0.32,13.83,5.30
26.71,-0.43,13.81,5.31
26.71,-0.58,13.73,5.28
26.71,-0.68,13.68,5.27
26.71,-0.80,13.61,5.22
26.72,-0.96,13.50,5.19
26.72,-1.12,13.43,5.18
26.72,-1.20,13.31,5.12
26.72,-1.34,13.22,5.05
26.73,-1.44,13.09,5.02
26.73,-1.57,13.00,4.99
26.73,-1.65,12.87,4.93
26.73,-1.73,12.77,4.85
26.74,-1.81,12.67,4.77
26.74,-1.86,12.53,4.73
26.74,-1.90,12.38,4.68
26.74,-1.93,12.24,4.59
26.74,-1.93,12.09,4.51
26.75,-1.88,11.92,4.41
26.75,-1.79,11.71,4.34
26.75,-1.71,11.54,4.28
26.75,-1.63,11.31,4.20
26.76,-1.57,11.11,4.12
26.76,-1.47,10.93,4.07
26.76,-1.35,10.75,4.01
26.76,-1.24,10.59,3.96
26.77,-1.16,10.42,3.91
26.77,-1.03,10.29,3.89
26.77,-0.88,10.17,3.88
26.77,-0.71,10.04,3.87
26.78,-0.58,9.96,3.89
26.78,-0.45,9.89,3.97
26.78,-0.30,9.82,4.00
26.78,-0.13,9.73,4.11
26.79,-0.03,9.64,4.21
26.79,0.04,9.57,4.33
26.79,0.17,9.47,4.36
26.79,0.24,9.40,4.38
26.79,0.26,9.36,4.37
26.80,0.31,9.35,4.33
26.80,0.35,9.33,4.34
26.80,0.36,9.31,4.32
26.80,0.32,9.34,4.27
26.81,0.30,9.43,4.24
26.81,0.34,9.50,4.31
26.81,0.31,9.59,4.28
26.81,0.24,9.74,4.22
26.82,0.05,9.89,4.12
26.82,-0.15,10.01,4.01
26.82,-0.37,10.12,3.87
26.82,-0.57,10.15,3.75
26.83,-0.77,10.12,3.66
26.83,-1.05,10.04,3.58
26.83,-1.30,9.87,3.54
26.83,-1.54,9.70,3.51
26.84,-1.78,9.54,3.47
26.84,-1.96,9.38,3.44
26.84,-2.19,9.22,3.40
26.84,-2.40,9.10,3.36
26.84,-2.57,8.91,3.33
26.85,-2.73,8.72,3.25
26.85,-2.84,8.55,3.20
26.85,-2.98,8.41,3.14
26.85,-3.09,8.26,2.92
26.86,-3.13,8.13,2.67
26.86,-3.13,8.02,2.41
26.86,-3.07,7.94,2.11
26.86,-3.02,7.83,1.84
26.87,-3.00,7.76,1.61
26.87,-3.04,7.63,1.27
26.87,-3.06,7.58,1.01
26.87,-3.05,7.57,1.09
26.88,-3.07,7.54,1.31
26.88,-3.07,7.56,1.56
26.88,-3.13,7.58,1.80
26.88,-3.19,7.68,1.99
26.89,-3.24,7.76,2.07
26.89,-3.31,7.85,2.17
26.89,-3.43,7.94,2.24
26.89,-3.48,8.02,2.23
26.89,-3.53,8.05,2.22
26.90,-3.58,8.08,2.18
26.90,-3.64,8.13,2.25
26.90,-3.77,8.17,2.39
26.90,-4.01,8.21,2.49
26.91,-4.27,8.18,2.55
26.91,-4.50,8.14,2.63
26.91,-4.69,8.12,2.79
26.91,-4.84,8.11,2.92
26.92,-4.95,8.09,3.01
26.92,-5.08,8.02,3.04
26.92,-5.22,7.97,3.00
26.92,-5.37,8.01,2.95
26.93,-5.34,8.07,2.90
26.93,-5.24,8.12,2.91
26.93,-5.18,8.14,2.93
26.93,-5.06,8.11,3.03
26.94,-4.91,8.10,3.22
26.94,-4.66,8.04,3.41
26.94,-4.40,7.91,3.61
26.94,-4.21,7.83,3.80
26.94,-4.10,7.68,3.87
26.95,-4.09,7.53,3.93
26.95,-4.11,7.34,3.97
26.95,-4.11,7.21,3.98
26.95,-4.00,7.12,3.99
26.96,-3.80,7.16,3.94
26.96,-3.59,7.21,3.90
26.96,-3.41,7.27,3.72
26.96,-3.24,7.28,3.48
26.97,-3.13,7.16,3.33
26.97,-3.02,7.10,3.24
26.97,-2.91,7.05,3.21
26.97,-2.85,7.05,3.15
26.98,-2.85,7.12,3.16
26.98,-2.87,7.25,3.24
26.98,-2.95,7.37,3.32
26.98,-3.07,7.44,3.48
26.98,-3.21,7.52,3.62
26.99,-3.32,7.64,3.77
26.99,-3.42,7.75,3.88
26.99,-3.45,7.78,3.93
26.99,-3.47,7.79,3.91
27.00,-3.50,7.80,3.91
27.00,-3.48,7.78,3.90
27.00,-3.46,7.74,3.90
27.00,-3.37,7.61,3.98
27.01,-3.24,7.31,4.29
27.01,-3.19,7.21,4.66
27.01,-3.30,7.55,4.26
27.01,-3.21,7.95,3.67
27.02,-3.05,8.17,3.44
27.02,-2.92,8.21,3.63
27.02,-2.74,8.19,3.93
27.02,-2.58,8.17,4.10
27.03,-2.43,8.03,4.13
27.03,-2.38,7.93,4.19
27.03,-2.38,7.83,4.31
27.03,-2.40,7.72,4.45
27.03,-2.48,7.52,4.55
27.04,-2.56,7.31,4.62
27.04,-2.69,7.11,4.65
27.04,-2.85,6.95,4.75
27.04,-3.02,6.79,4.84
27.05,-3.19,6.66,5.01
27.05,-3.37,6.53,5.16
27.05,-3.52,6.44,5.30
27.05,-3.69,6.47,5.48
27.06,-3.81,6.50,5.64
27.06,-3.82,6.30,5.73
27.06,-3.70,6.07,5.58
27.06,-3.63,5.94,5.69
27.07,-3.83,5.90,5.73
27.07,-3.96,5.85,5.68
27.07,-4.09,5.82,5.52
27.07,-4.30,5.84,5.31
27.08,-4.46,5.79,5.17
27.08,-4.64,5.74,5.01
27.08,-4.84,5.70,4.90
27.08,-5.08,5.65,4.86
27.08,-5.11,5.59,4.69
27.09,-5.11,5.59,4.51
27.09,-5.11,5.59,4.35
27.09,-5.09,5.62,4.22
27.09,-5.00,5.66,4.13
27.10,-4.99,5.68,4.13
27.10,-4.93,5.72,4.06
27.10,-4.82,5.74,4.07
27.10,-4.73,5.79,4.04
27.11,-4.64,5.86,4.02
27.11,-4.53,5.91,4.05
27.11,-4.33,5.98,4.05
27.11,-4.13,6.10,4.11
27.12,-3.86,6.18,4.17
27.12,-3.59,6.30,4.25
27.12,-3.32,6.45,4.32
27.12,-3.02,6.53,4.36
27.13,-2.67,6.65,4.43
27.13,-2.40,6.78,4.48
27.13,-2.18,6.84,4.58
27.13,-1.95,6.92,4.59
27.13,-1.73,6.97,4.61
27.14,-1.53,7.00,4.67
27.14,-1.33,7.07,4.65
27.14,-1.11,7.10,4.60
27.14,-0.98,7.13,4.60
27.15,-0.89,7.11,4.57
27.15,-0.83,7.06,4.52
27.15,-0.83,6.99,4.44
27.15,-0.85,6.90,4.37
27.16,-0.97,6.82,4.28
27.16,-1.06,6.72,4.22
27.16,-1.21,6.66,4.18
27.16,-1.41,6.57,4.12
27.17,-1.66,6.51,4.08
27.17,-1.98,6.45,3.99
27.17,-2.18,6.41,3.90
27.17,-2.40,6.44,3.90
27.17,-2.75,6.34,3.94
27.18,-2.97,6.25,3.97
27.18,-3.07,6.21,3.99
27.18,-3.13,6.23,4.03
27.18,-3.22,6.22,4.06
27.19,-3.31,6.20,4.11
27.19,-3.41,6.23,4.17
27.19,-3.49,6.17,4.25
27.19,-3.59,6.16,4.31
27.20,-3.65,6.15,4.35
27.20,-3.72,6.09,4.37
27.20,-3.73,6.10,4.38
27.20,-3.77,6.05,4.37
27.21,-3.79,6.05,4.38
27.21,-3.80,6.04,4.42
27.21,-3.81,6.03,4.39
27.21,-3.80,6.04,4.36
27.22,-3.82,6.00,4.30
27.22,-3.82,5.95,4.21
27.22,-3.83,6.02,4.17
27.22,-3.83,6.05,4.09
27.22,-3.88,6.03,4.02
27.23,-3.87,6.02,4.01
27.23,-3.89,6.02,4.03
27.23,-3.97,5.99,4.07
27.23,-4.08,5.99,4.20
27.24,-4.20,6.03,4.28
27.24,-4.35,6.07,4.39
27.24,-4.50,6.08,4.46
27.24,-4.59,6.06,4.52
27.25,-4.75,6.05,4.61
27.25,-4.98,6.01,4.70
27.25,-5.20,5.92,4.87
27.25,-5.38,5.92,5.04
27.26,-5.54,5.85,5.20
27.26,-5.68,5.79,5.35
27.26,-5.80,5.72,5.49
27.26,-5.94,5.69,5.59
27.27,-6.08,5.58,5.74
27.27,-6.19,5.47,5.91
27.27,-6.29,5.36,6.02
27.27,-6.42,5.32,6.16
27.27,-6.59,5.18,6.26
27.28,-6.70,5.13,6.41
27.28,-6.78,5.06,6.48
27.28,-6.83,5.05,6.55
27.28,-6.87,5.04,6.62
27.29,-6.93,4.98,6.69
27.29,-6.96,4.96,6.70
27.29,-6.99,4.97,6.71
27.29,-7.00,5.00,6.69
27.30,-6.99,5.02,6.71
27.30,-7.01,5.02,6.72
27.30,-6.98,5.04,6.70
27.30,-6.96,5.03,6.71
27.31,-6.96,5.04,6.71
27.31,-6.96,5.03,6.71
27.31,-6.92,5.07,6.69
27.31,-6.88,5.09,6.66
27.32,-6.82,5.14,6.58
27.32,-6.83,5.19,6.51
27.32,-6.82,5.20,6.39
27.32,-6.77,5.25,6.31
27.32,-6.72,5.32,6.17
27.33,-6.66,5.39,6.06
27.33,-6.62,5.42,5.94
27.33,-6.59,5.44,5.84
27.33,-6.55,5.47,5.76
27.34,-6.56,5.48,5.73
27.34,-6.66,5.52,5.76
27.34,-6.71,5.53,5.80
27.34,-6.84,5.60,5.84
27.35,-6.97,5.68,5.94
27.35,-7.08,5.78,5.99
27.35,-7.23,5.91,6.03
27.35,-7.39,6.03,6.16
27.36,-7.56,6.07,6.31
27.36,-7.67,6.16,6.45
27.36,-7.76,6.27,6.56
27.36,-7.83,6.33,6.63
27.37,-7.86,6.40,6.71
27.37,-7.90,6.49,6.77
27.37,-7.95,6.50,6.85
27.37,-7.98,6.57,6.93
27.37,-7.96,6.59,7.01
27.38,-8.00,6.63,7.10
27.38,-8.04,6.69,7.25
27.38,-8.02,6.71,7.40
27.38,-8.01,6.75,7.57
27.39,-8.04,6.80,7.73
27.39,-8.08,6.87,7.95
27.39,-8.12,6.91,8.08
27.39,-8.08,6.88,8.14
27.40,-8.05,6.86,8.09
27.40,-8.02,6.81,7.98
27.40,-7.99,6.78,7.80
27.40,-7.94,6.72,7.61
27.41,-8.01,6.70,7.50
27.41,-7.91,6.62,7.44
27.41,-7.42,6.77,7.03
27.41,-7.09,6.84,6.62
27.41,-6.97,6.90,6.29
27.42,-6.91,6.99,5.91
27.42,-7.00,7.15,5.64
27.42,-7.07,7.42,5.54
27.42,-7.12,7.78,5.59
27.43,-7.09,8.24,5.85
27.43,-6.99,8.79,6.22
27.43,-6.91,9.37,6.64
27.43,-6.90,9.92,7.05
27.44,-6.69,10.40,7.43
27.44,-6.38,10.81,7.72
27.44,-6.07,11.20,7.88
27.44,-5.79,11.50,7.99
27.45,-5.69,11.68,8.08
27.45,-5.73,11.70,8.18
27.45,-5.82,11.55,8.33
27.45,-5.91,11.36,8.51
27.46,-5.97,11.15,8.78
27.46,-6.05,10.91,8.99
27.46,-6.12,10.63,9.13
27.46,-6.11,10.31,9.18
27.46,-6.10,10.00,9.07
27.47,-6.00,9.66,8.81
27.47,-5.84,9.32,8.34
27.47,-5.76,9.01,7.73
27.47,-5.66,8.71,6.93
27.48,-5.58,8.49,6.06
27.48,-5.46,8.30,5.16
27.48,-5.36,8.08,4.35
27.48,-5.26,7.98,3.76
27.49,-5.11,7.89,3.34
27.49,-4.98,7.83,3.17
27.49,-4.72,7.77,3.12
27.49,-4.48,7.79,3.13
27.50,-4.21,7.80,3.18
27.50,-3.98,7.81,3.22
27.50,-3.82,7.84,3.28
27.50,-3.71,7.85,3.29
27.51,-3.63,7.79,3.37
27.51,-3.60,7.72,3.47
27.51,-3.58,7.69,3.61
27.51,-3.59,7.66,3.76
27.51,-3.57,7.61,3.93
27.52,-3.53,7.62,4.12
27.52,-3.39,7.69,4.29
27.52,-3.24,7.70,4.44
27.52,-3.22,7.68,4.61
27.53,-3.18,7.69,4.78
27.53,-3.08,7.71,4.90
27.53,-2.94,7.72,4.99
27.53,-2.79,7.73,5.05
27.54,-2.62,7.76,5.06
27.54,-2.41,7.78,5.03
27.54,-2.19,7.84,5.00
27.54,-1.99,7.82,4.98
27.55,-1.84,7.83,4.93
27.55,-1.64,7.84,4.89
27.55,-1.47,7.81,4.82
27.55,-1.33,7.80,4.80
27.56,-1.20,7.77,4.76
27.56,-1.10,7.74,4.72
27.56,-0.99,7.78,4.65
27.56,-0.90,7.81,4.57
27.56,-0.80,7.86,4.51
27.57,-0.73,7.93,4.44
27.57,-0.69,8.00,4.32
27.57,-0.66,8.08,4.16
27.57,-0.69,8.16,3.99
27.58,-0.75,8.25,3.80
27.58,-0.83,8.35,3.66
27.58,-0.94,8.48,3.51
27.58,-1.01,8.60,3.38
27.59,-1.11,8.74,3.28
27.59,-1.21,8.93,3.22
27.59,-1.32,9.07,3.13
27.59,-1.43,9.24,3.09
27.60,-1.53,9.41,3.03
27.60,-1.60,9.60,2.95
27.60,-1.64,9.78,2.91
27.60,-1.66,9.97,2.83
27.60,-1.67,10.13,2.86
27.61,-1.64,10.32,2.88
27.61,-1.61,10.44,2.87
27.61,-1.54,10.58,2.87
27.61,-1.49,10.72,2.87
27.62,-1.48,10.81,2.82
27.62,-1.46,10.88,2.80
27.62,-1.41,10.94,2.77
27.62,-1.43,10.99,2.73
27.63,-1.41,10.98,2.71
27.63,-1.37,11.01,2.70
27.63,-1.37,10.99,2.71
27.63,-1.36,10.97,2.72
27.64,-1.40,10.94,2.79
27.64,-1.46,10.90,2.82
27.64,-1.51,10.84,2.89
27.64,-1.56,10.75,3.01
27.65,-1.61,10.68,3.11
27.65,-1.67,10.63,3.22
27.65,-1.71,10.59,3.35
27.65,-1.67,10.50,3.43
27.65,-1.64,10.40,3.50
27.66,-1.67,10.28,3.52
27.66,-1.71,10.17,3.47
27.66,-1.70,10.02,3.44
27.66,-1.70,9.86,3.39
27.67,-1.73,9.70,3.37
27.67,-1.71,9.54,3.33
27.67,-1.69,9.37,3.27
27.67,-1.67,9.23,3.24
27.68,-1.64,9.11,3.24
27.68,-1.66,8.96,3.25
27.68,-1.65,8.88,3.29
27.68,-1.69,8.77,3.33
27.69,-1.71,8.74,3.39
27.69,-1.73,8.76,3.43
27.69,-1.77,8.78,3.48
27.69,-1.81,8.83,3.53
27.70,-1.87,8.88,3.60
27.70,-1.96,8.96,3.68
27.70,-2.05,9.02,3.78
27.70,-2.18,9.10,3.86
27.70,-2.32,9.14,3.97
27.71,-2.49,9.16,4.03
27.71,-2.69,9.19,4.08
27.71,-2.86,9.21,4.12
27.71,-3.01,9.24,4.16
27.72,-3.20,9.19,4.15
27.72,-3.42,9.13,4.17
27.72,-3.61,9.08,4.16
27.72,-3.81,8.96,4.11
27.73,-3.93,8.82,4.06
27.73,-4.00,8.70,4.03
27.73,-3.98,8.54,3.99
27.73,-3.92,8.39,4.02
27.74,-3.81,8.25,3.99
27.74,-3.73,8.06,3.90
27.74,-3.60,7.92,3.80
27.74,-3.41,7.75,3.65
27.75,-3.13,7.60,3.43
27.75,-2.73,7.52,3.28
27.75,-2.35,7.42,3.22
27.75,-2.08,7.37,3.19
27.75,-1.87,7.32,3.16
27.76,-1.70,7.24,3.15
27.76,-1.49,7.20,3.19
27.76,-1.25,7.10,3.29
27.76,-1.07,6.98,3.24
27.77,-0.93,6.95,3.16
27.77,-0.81,6.92,3.04
27.77,-0.74,6.90,2.96
27.77,-0.76,6.91,2.96
27.78,-0.85,6.88,2.86
27.78,-0.96,6.87,2.76
27.78,-1.05,6.82,2.66
27.78,-1.03,6.75,2.61
27.79,-0.98,6.60,2.54
27.79,-0.98,6.45,2.54
27.79,-1.05,6.33,2.56
27.79,-1.21,6.22,2.72
27.80,-1.32,6.12,2.70
27.80,-1.42,6.08,2.79
27.80,-1.48,6.04,2.85
27.80,-1.53,6.04,2.94
27.80,-1.57,6.07,3.06
27.81,-1.54,6.08,3.18
27.81,-1.54,6.10,3.25
27.81,-1.58,6.14,3.38
27.81,-1.62,6.21,3.53
27.82,-1.61,6.24,3.64
27.82,-1.63,6.21,3.70
27.82,-1.63,6.24,3.71
27.82,-1.60,6.22,3.67
27.83,-1.52,6.22,3.61
27.83,-1.45,6.20,3.56
27.83,-1.38,6.18,3.50
27.83,-1.24,6.16,3.44
27.84,-1.11,6.15,3.39
27.84,-0.97,6.17,3.26
27.84,-0.84,6.19,3.08
27.84,-0.73,6.27,2.83
27.84,-0.64,6.39,2.51
27.85,-0.49,6.51,2.19
27.85,-0.45,6.61,2.01
27.85,-0.46,6.79,1.89
27.85,-0.54,6.92,1.88
27.86,-0.62,7.00,1.84
27.86,-0.67,7.19,1.89
27.86,-0.72,7.28,2.02
27.86,-0.90,7.16,2.12
27.87,-1.04,7.14,2.21
27.87,-0.80,7.49,2.36
27.87,-0.54,7.94,2.43
27.87,-0.42,8.22,2.53
27.88,-0.40,8.40,2.61
27.88,-0.42,8.49,2.64
27.88,-0.42,8.67,2.59
27.88,-0.48,8.81,2.52
27.89,-0.57,8.85,2.47
27.89,-0.71,8.91,2.41
27.89,-0.88,8.88,2.32
27.89,-1.04,8.82,2.18
27.89,-1.13,8.65,2.09
27.90,-1.16,8.56,2.02
27.90,-1.14,8.44,2.08
27.90,-1.08,8.40,2.22
27.90,-1.11,8.30,2.47
27.91,-1.12,8.19,2.70
27.91,-1.12,8.02,2.95
27.91,-1.11,7.90,3.20
27.91,-1.11,7.76,3.44
27.92,-1.06,7.62,3.67
27.92,-0.97,7.44,3.89
27.92,-0.88,7.23,4.12
27.92,-0.73,7.08,4.29
27.93,-0.65,6.96,4.41
27.93,-0.57,6.86,4.57
27.93,-0.54,6.77,4.70
27.93,-0.55,6.76,4.77
27.94,-0.53,6.69,4.86
27.94,-0.49,6.69,4.99
27.94,-0.57,6.65,5.05
27.94,-0.70,6.65,5.04
27.94,-0.92,6.68,5.09
27.95,-1.11,6.70,5.19
27.95,-1.29,6.81,5.29
27.95,-1.46,6.87,5.41
27.95,-1.69,6.95,5.50
27.96,-1.88,7.02,5.61
27.96,-2.10,7.13,5.69
27.96,-2.32,7.21,5.80
27.96,-2.60,7.30,5.87
27.97,-2.85,7.39,5.99
27.97,-3.09,7.50,6.07
27.97,-3.31,7.61,6.18
27.97,-3.47,7.74,6.26
27.98,-3.59,7.86,6.30
27.98,-3.69,8.03,6.34
27.98,-3.75,8.19,6.37
27.98,-3.74,8.38,6.36
27.99,-3.71,8.60,6.35
27.99,-3.65,8.79,6.26
27.99,-3.55,8.97,6.13
27.99,-3.39,9.13,5.99
27.99,-3.19,9.28,5.78
28.00,-2.96,9.45,5.53
28.00,-2.69,9.54,5.23
28.00,-2.46,9.57,5.07
28.00,-2.21,9.59,4.89
28.01,-1.98,9.59,4.67
28.01,-1.72,9.52,4.47
28.01,-1.47,9.48,4.28
28.01,-1.21,9.44,4.06
28.02,-1.01,9.37,3.99
28.02,-0.84,9.29,4.00
28.02,-0.63,9.19,4.05
28.02,-0.48,9.14,4.07
28.03,-0.32,9.07,4.13
28.03,-0.20,9.02,4.27
28.03,-0.09,9.01,4.39
28.03,0.07,8.98,4.44
28.03,0.20,8.98,4.52
28.04,0.24,8.94,4.72
28.04,0.31,8.98,4.88
28.04,0.35,8.98,4.98
28.04,0.37,9.04,5.08
28.05,0.37,9.08,5.19
28.05,0.40,9.12,5.29
28.05,0.42,9.14,5.31
28.05,0.48,9.15,5.28
28.06,0.54,9.15,5.21
28.06,0.62,9.17,5.10
28.06,0.66,9.12,5.00
28.06,0.70,9.13,4.91
28.07,0.78,9.09,4.74
28.07,0.83,9.05,4.59
28.07,0.92,9.02,4.44
28.07,0.99,8.95,4.25
28.08,1.08,8.89,4.10
28.08,1.17,8.84,4.07
28.08,1.27,8.81,3.97
28.08,1.36,8.80,3.94
28.08,1.45,8.76,3.89
28.09,1.56,8.80,3.92
28.09,1.66,8.82,3.93
28.09,1.78,8.87,3.98
28.09,1.91,8.96,3.97
28.10,2.04,9.03,3.97
28.10,2.08,9.08,4.14
28.10,2.08,9.20,4.36
28.10,2.16,9.31,4.31
28.11,2.04,9.34,4.57
28.11,1.95,9.38,4.78
28.11,1.85,9.43,4.86
28.11,1.70,9.47,4.95
28.12,1.56,9.48,5.00
28.12,1.46,9.53,4.98
28.12,1.35,9.56,4.89
28.12,1.27,9.59,4.82
28.13,1.23,9.65,4.72
28.13,1.21,9.70,4.60
28.13,1.19,9.77,4.51
28.13,1.18,9.82,4.42
28.13,1.16,9.86,4.33
28.14,1.17,9.90,4.25
28.14,1.20,9.93,4.15
28.14,1.20,9.94,4.09
28.14,1.18,9.93,4.04
28.15,1.17,9.96,3.97
28.15,1.14,9.93,4.01
28.15,1.12,9.92,4.05
28.15,1.08,9.93,4.14
28.16,1.05,9.91,4.20
28.16,1.03,9.93,4.23
28.16,0.96,9.97,4.37
28.16,0.91,9.99,4.53
28.17,0.90,10.05,4.64
28.17,0.86,10.07,4.82
28.17,0.76,10.14,5.06
28.17,0.70,10.18,5.23
28.18,0.68,10.25,5.35
28.18,0.71,10.34,5.45
28.18,0.77,10.37,5.51
28.18,0.81,10.43,5.58
28.18,0.89,10.51,5.59
28.19,0.96,10.59,5.56
28.19,1.09,10.69,5.50
28.19,1.23,10.77,5.40
28.19,1.39,10.94,5.17
28.20,1.51,11.02,4.95
28.20,1.62,11.13,4.75
28.20,1.72,11.22,4.65
28.20,1.82,11.30,4.58
28.21,1.89,11.36,4.52
28.21,1.96,11.37,4.53
28.21,2.02,11.44,4.54
28.21,2.07,11.48,4.62
28.22,2.06,11.50,4.72
28.22,2.14,11.53,4.50
28.22,2.30,11.57,4.17
28.22,2.40,11.69,3.99
28.23,2.38,11.85,4.15
28.23,2.23,12.02,4.44
28.23,1.90,12.18,4.94
28.23,1.47,12.35,5.67
28.23,1.07,12.53,6.45
28.24,0.72,12.61,6.85
28.24,0.53,12.73,6.90
28.24,0.41,12.80,6.68
28.24,0.29,12.88,6.29
28.25,0.10,12.96,5.90
28.25,-0.19,13.03,5.57
28.25,-0.52,13.08,5.35
28.25,-0.83,13.09,5.11
28.26,-1.17,13.08,4.84
28.26,-1.48,13.09,4.61
28.26,-1.74,13.07,4.41
28.26,-1.93,13.02,4.25
28.27,-2.09,13.00,4.16
28.27,-2.22,12.98,4.05
28.27,-2.30,12.97,3.97
28.27,-2.36,12.96,3.82
28.27,-2.33,12.93,3.67
28.28,-2.23,12.91,3.61
28.28,-2.14,12.84,3.52
28.28,-2.06,12.78,3.41
28.28,-1.93,12.64,3.37
28.29,-1.86,12.51,3.35
28.29,-1.71,12.34,3.42
28.29,-1.56,12.25,3.44
28.29,-1.47,12.16,3.60
28.30,-1.35,12.07,3.81
28.30,-1.34,12.04,3.96
28.30,-1.47,11.88,4.63
28.30,-1.52,11.79,5.19
28.31,-1.47,11.75,5.63
28.31,-1.38,11.66,5.96
28.31,-1.28,11.58,6.19
28.31,-1.18,11.49,6.37
28.32,-1.05,11.38,6.53
28.32,-0.91,11.33,6.65
28.32,-0.76,11.29,6.78
28.32,-0.65,11.24,6.90
28.32,-0.55,11.20,6.99
28.33,-0.52,11.14,7.00
28.33,-0.49,11.08,7.05
28.33,-0.50,11.03,6.93
28.33,-0.52,10.92,6.86
28.34,-0.53,10.81,6.73
28.34,-0.53,10.72,6.41
28.34,-0.57,10.62,6.10
28.34,-0.69,10.44,5.72
28.35,-0.79,10.26,5.36
28.35,-0.92,10.06,5.00
28.35,-1.05,9.86,4.64
28.35,-1.20,9.65,4.28
28.36,-1.39,9.41,3.93
28.36,-1.59,9.17,3.57
28.36,-1.82,8.94,3.21
28.36,-2.01,8.72,2.82
28.37,-2.18,8.48,2.42
28.37,-2.28,8.30,2.01
28.37,-2.33,8.09,1.61
28.37,-2.36,7.88,1.26
28.37,-2.39,7.71,0.91
28.38,-2.36,7.58,0.61
28.38,-2.31,7.40,0.30
28.38,-2.23,7.27,0.02
28.38,-2.10,7.12,-0.21
28.39,-2.02,7.02,-0.47
28.39,-1.91,6.93,-0.60
28.39,-1.80,6.83,-0.73
28.39,-1.69,6.80,-0.82
28.40,-1.62,6.78,-0.85
28.40,-1.51,6.79,-0.87
28.40,-1.40,6.80,-0.81
28.40,-1.30,6.82,-0.71
28.41,-1.17,6.83,-0.54
28.41,-1.06,6.90,-0.36
28.41,-0.97,6.96,-0.08
28.41,-0.91,7.06,0.19
28.42,-0.83,7.18,0.49
28.42,-0.78,7.29,0.79
28.42,-0.77,7.45,1.14
28.42,-0.78,7.63,1.50
28.42,-0.78,7.82,1.81
28.43,-0.79,8.05,2.16
28.43,-0.90,8.26,2.49
28.43,-1.02,8.54,2.80
28.43,-1.13,8.80,3.03
28.44,-1.26,9.08,3.24
28.44,-1.48,9.36,3.43
28.44,-1.75,9.69,3.51
28.44,-2.03,10.00,3.56
28.45,-2.22,10.26,3.62
28.45,-2.44,10.54,3.68
28.45,-2.70,10.87,3.72
28.45,-2.90,11.12,3.77
28.46,-3.07,11.42,3.77
28.46,-3.19,11.72,3.73
28.46,-3.34,11.99,3.71
28.46,-3.38,12.18,3.60
28.46,-3.36,12.30,3.51
28.47,-3.35,12.31,3.35
28.47,-3.34,12.31,3.18
28.47,-3.32,12.29,2.97
28.47,-3.34,12.20,2.72
28.48,-3.36,12.09,2.45
28.48,-3.34,11.94,2.16
28.48,-3.32,11.77,1.90
28.48,-3.27,11.58,1.69
28.49,-3.23,11.36,1.49
28.49,-3.05,10.98,1.25
28.49,-3.06,11.03,1.21
28.49,-3.05,10.94,1.15
28.50,-2.99,10.70,1.03
28.50,-2.99,10.53,0.90
28.50,-3.02,10.45,0.76
28.50,-3.05,10.41,0.80
28.51,-3.01,10.37,0.84
28.51,-3.01,10.39,0.84
28.51,-2.88,10.34,0.96
28.51,-2.72,10.34,1.25
28.51,-2.59,10.34,1.55
28.52,-2.38,10.29,1.83
28.52,-2.20,10.30,2.18
28.52,-2.02,10.35,2.55
28.52,-1.88,10.34,2.88
28.53,-1.80,10.42,3.13
28.53,-1.67,10.47,3.33
28.53,-1.52,10.46,3.45
28.53,-1.56,10.74,3.54
28.54,-1.43,10.79,3.56
28.54,-1.29,10.79,3.51
28.54,-1.19,10.81,3.48
28.54,-1.11,10.81,3.39
28.55,-1.00,10.88,3.31
28.55,-0.92,10.83,3.21
28.55,-0.91,10.77,3.06
28.55,-0.83,10.70,2.92
28.56,-0.73,10.64,2.78
28.56,-0.75,10.54,2.64
28.56,-0.70,10.48,2.48
28.56,-0.71,10.39,2.37
28.56,-0.69,10.29,2.27
28.57,-0.65,10.19,2.16
28.57,-0.56,10.10,2.06
28.57,-0.44,10.14,2.00
28.57,-0.35,10.13,1.96
28.58,-0.28,10.13,1.94
28.58,-0.23,10.10,1.95
28.58,-0.10,10.11,1.86
28.58,-0.08,10.06,1.82
28.59,-0.03,10.03,1.81
28.59,0.00,9.95,1.79
28.59,0.02,9.88,1.73
28.59,0.05,9.75,1.69
28.60,0.05,9.63,1.66
28.60,0.02,9.54,1.67
28.60,0.02,9.38,1.62
28.60,0.07,9.10,1.40
28.61,0.15,8.92,1.20
28.61,0.25,8.76,1.11
28.61,0.29,8.65,1.06
28.61,0.22,8.54,1.11
28.61,0.01,8.32,1.18
28.62,-0.29,8.00,1.21
28.62,-0.57,7.63,1.22
28.62,-0.80,7.42,1.33
28.62,-0.94,7.39,1.38
28.63,-1.12,7.33,1.42
28.63,-1.32,7.27,1.44
28.63,-1.45,7.15,1.53
28.63,-1.54,7.04,1.65
28.64,-1.58,6.89,1.74
28.64,-1.59,6.73,1.84
28.64,-1.59,6.82,2.06
28.64,-1.91,7.00,2.48
28.65,-2.07,7.00,2.59
28.65,-2.18,6.81,2.61
28.65,-2.39,6.67,2.72
28.65,-2.49,6.51,2.80
28.66,-2.68,6.40,2.86
28.66,-2.87,6.37,2.92
28.66,-2.91,6.35,2.95
28.66,-2.95,6.31,2.95
28.66,-2.97,6.33,2.99
28.67,-2.97,6.37,3.05
28.67,-2.95,6.36,3.12
28.67,-2.97,6.35,3.17
28.67,-3.01,6.34,3.31
28.68,-2.97,6.17,3.44
28.68,-2.90,6.11,3.51
28.68,-2.75,6.02,3.48
28.68,-2.64,5.94,3.47
28.69,-2.57,5.90,3.43
28.69,-2.52,5.87,3.47
28.69,-2.52,5.83,3.46
28.69,-2.49,5.76,3.42
28.70,-2.48,5.73,3.40
28.70,-2.49,5.69,3.42
28.70,-2.44,5.58,3.50
28.70,-2.31,5.32,3.66
28.70,-2.24,5.07,4.16
28.71,-2.45,5.42,4.03
28.71,-2.61,5.84,3.01
28.71,-2.76,6.05,2.61
28.71,-2.95,6.08,3.04
28.72,-3.06,6.06,3.28
28.72,-3.02,5.96,3.27
28.72,-3.07,5.82,3.15
28.72,-3.19,5.71,3.05
28.73,-3.34,5.56,2.99
28.73,-3.47,5.40,2.93
28.73,-3.65,5.26,2.85
28.73,-3.85,5.20,2.71
28.74,-4.07,5.23,2.59
28.74,-4.30,5.22,2.47
28.74,-4.43,5.07,2.48
28.74,-4.51,5.06,2.50
28.75,-4.57,5.12,2.63
28.75,-4.56,5.20,2.77
28.75,-4.57,5.35,2.92
28.75,-4.46,5.50,3.07
28.75,-4.33,5.70,3.26
28.76,-4.21,5.96,3.45
28.76,-4.15,6.22,3.66
28.76,-4.01,6.46,3.88
28.76,-3.88,6.76,4.06
28.77,-3.77,7.02,4.27
28.77,-3.67,7.28,4.44
28.77,-3.55,7.57,4.68
28.77,-3.44,7.86,4.89
28.78,-3.31,8.12,5.09
28.78,-3.14,8.35,5.28
28.78,-3.00,8.61,5.48
28.78,-2.83,8.86,5.69
28.79,-2.64,9.08,5.96
28.79,-2.46,9.29,6.19
28.79,-2.32,9.46,6.44
28.79,-2.20,9.58,6.71
28.80,-2.08,9.69,6.98
28.80,-1.92,9.77,7.24
28.80,-1.85,9.76,7.51
28.80,-1.78,9.75,7.73
28.80,-1.73,9.72,7.93
28.81,-1.70,9.59,8.12
28.81,-1.74,9.49,8.30
28.81,-1.88,9.40,8.45
28.81,-1.92,9.13,8.46
28.82,-2.03,8.97,8.42
28.82,-2.18,8.75,8.34
28.82,-2.31,8.57,8.19
28.82,-2.50,8.35,7.97
28.83,-2.68,8.11,7.72
28.83,-2.87,7.91,7.43
28.83,-3.08,7.73,7.07
28.83,-3.29,7.56,6.65
28.84,-3.53,7.42,6.26
28.84,-3.80,7.29,5.84
28.84,-4.00,7.16,5.47
28.84,-4.20,7.07,5.06
28.85,-4.38,6.99,4.70
28.85,-4.54,6.94,4.48
28.85,-4.68,6.90,4.37
28.85,-4.81,6.88,4.32
28.85,-4.94,6.82,4.32
28.86,-5.07,6.74,4.35
28.86,-5.15,6.65,4.40
28.86,-5.21,6.60,4.42
28.86,-5.24,6.56,4.47
28.87,-5.21,6.54,4.50
28.87,-5.20,6.41,4.62
28.87,-5.24,6.30,4.74
28.87,-5.23,6.26,4.83
28.88,-5.20,6.20,4.90
28.88,-5.11,6.24,4.98
28.88,-4.99,6.27,5.05
28.88,-4.87,6.25,5.14
28.89,-4.74,6.19,5.19
28.89,-4.67,6.08,5.24
28.89,-4.57,5.96,5.24
28.89,-4.52,5.88,5.29
28.89,-4.49,5.81,5.32
28.90,-4.45,5.76,5.34
28.90,-4.39,5.71,5.35
28.90,-4.33,5.67,5.36
28.90,-4.28,5.57,5.40
28.91,-4.24,5.49,5.45
28.91,-4.22,5.40,5.49
28.91,-4.21,5.29,5.52
28.91,-4.14,5.24,5.60
28.92,-4.10,5.19,5.67
28.92,-4.12,5.12,5.77
28.92,-4.11,5.02,5.86
28.92,-4.16,4.95,5.96
28.93,-4.22,4.85,6.02
28.93,-4.30,4.75,6.08
28.93,-4.29,4.68,6.11
28.93,-4.27,4.64,6.12
28.94,-4.33,4.59,6.12
28.94,-4.39,4.59,6.18
28.94,-4.46,4.61,6.18
28.94,-4.52,4.61,6.20
28.94,-4.52,4.62,6.21
28.95,-4.52,4.67,6.14
28.95,-4.52,4.70,6.10
28.95,-4.53,4.73,6.03
28.95,-4.53,4.79,5.98
28.96,-4.51,4.86,5.92
28.96,-4.49,4.92,5.86
28.96,-4.45,4.98,5.81
28.96,-4.42,5.05,5.78
28.97,-4.39,5.11,5.77
28.97,-4.37,5.19,5.76
28.97,-4.34,5.24,5.78
28.97,-4.30,5.28,5.78
28.98,-4.25,5.36,5.82
28.98,-4.21,5.37,5.86
28.98,-4.16,5.39,5.87
28.98,-4.15,5.38,5.92
28.99,-4.11,5.36,5.93
28.99,-4.07,5.36,5.94
28.99,-4.02,5.35,5.95
28.99,-4.04,5.32,5.96
28.99,-4.02,5.27,5.97
29.00,-4.04,5.25,5.96
29.00,-4.05,5.20,5.96
29.00,-4.00,5.17,5.91
29.00,-4.00,5.12,5.88
29.01,-4.03,5.09,5.84
29.01,-4.06,5.04,5.80
29.01,-4.06,4.97,5.77
29.01,-4.11,4.91,5.71
29.02,-4.17,4.86,5.71
29.02,-4.25,4.82,5.69
29.02,-4.28,4.82,5.64
29.02,-4.30,4.80,5.63
29.03,-4.36,4.83,5.62
29.03,-4.41,4.84,5.62
29.03,-4.49,4.91,5.62
29.03,-4.56,4.99,5.62
29.04,-4.62,5.06,5.64
29.04,-4.70,5.17,5.65
29.04,-4.77,5.31,5.66
29.04,-4.82,5.42,5.66
29.04,-4.87,5.57,5.68
29.05,-4.85,5.73,5.72
29.05,-4.87,5.93,5.76
29.05,-4.88,6.11,5.81
29.05,-4.87,6.30,5.85
29.06,-4.86,6.50,5.94
29.06,-4.86,6.71,6.04
29.06,-4.84,6.88,6.12
29.06,-4.84,7.03,6.16
29.07,-4.83,7.14,6.24
29.07,-4.81,7.27,6.31
29.07,-4.79,7.35,6.32
29.07,-4.82,7.37,6.27
29.08,-4.82,7.39,6.23
29.08,-4.82,7.42,6.21
29.08,-4.86,7.42,6.14
29.08,-4.92,7.42,6.06
29.09,-4.95,7.42,5.95
29.09,-5.03,7.40,5.89
29.09,-5.14,7.41,5.91
29.09,-5.33,7.42,6.03
29.09,-5.50,7.40,6.30
29.10,-5.49,7.51,6.32
29.10,-5.49,7.64,6.36
29.10,-5.65,7.77,6.50
29.10,-5.84,7.94,6.76
29.11,-6.01,8.10,6.99
29.11,-6.15,8.27,7.25
29.11,-6.29,8.42,7.52
29.11,-6.45,8.57,7.78
29.12,-6.60,8.71,8.00
29.12,-6.82,8.82,8.28
29.12,-7.07,8.92,8.52
29.12,-7.26,8.98,8.70
29.13,-7.35,9.04,8.80
29.13,-7.43,9.08,8.88
29.13,-7.52,9.06,8.90
29.13,-7.57,9.07,8.89
29.13,-7.58,9.07,8.89
29.14,-7.53,9.08,8.77
29.14,-7.38,9.07,8.63
29.14,-7.20,9.08,8.41
29.14,-7.03,9.07,8.15
29.15,-6.84,9.05,7.87
29.15,-6.71,9.00,7.64
29.15,-6.59,8.96,7.35
29.15,-6.50,8.91,7.08
29.16,-6.45,8.86,6.82
29.16,-6.35,8.82,6.51
29.16,-6.29,8.82,6.18
29.16,-6.16,8.79,5.88
29.17,-6.06,8.77,5.62
29.17,-6.03,8.76,5.42
29.17,-5.97,8.75,5.29
29.17,-6.10,8.70,5.38
29.18,-5.96,8.69,5.41
29.18,-5.75,8.76,5.32
29.18,-5.58,8.79,5.35
29.18,-5.56,8.78,5.46
29.18,-5.57,8.80,5.59
29.19,-5.59,8.82,5.73
29.19,-5.64,8.83,5.89
29.19,-5.66,8.90,6.06
29.19,-5.64,9.03,6.22
29.20,-5.63,9.18,6.37
29.20,-5.54,9.37,6.55
29.20,-5.46,9.56,6.72
29.20,-5.44,9.82,6.91
29.21,-5.43,10.08,7.16
29.21,-5.37,10.30,7.39
29.21,-5.35,10.53,7.63
29.21,-5.35,10.77,7.86
29.22,-5.33,10.97,8.08
29.22,-5.26,11.14,8.26
29.22,-5.18,11.27,8.41
29.22,-5.08,11.41,8.49
29.23,-5.02,11.50,8.52
29.23,-4.89,11.60,8.51
29.23,-4.73,11.66,8.52
29.23,-4.59,11.72,8.44
29.23,-4.43,11.80,8.36
29.24,-4.30,11.87,8.24
29.24,-4.15,11.89,8.12
29.24,-4.01,11.93,7.89
29.24,-3.87,11.94,7.61
29.25,-3.73,11.96,7.32
29.25,-3.59,11.92,6.98
29.25,-3.43,11.84,6.56
29.25,-3.26,11.74,6.13
29.26,-3.15,11.59,5.67
29.26,-3.07,11.39,5.19
29.26,-3.02,11.17,4.74
29.26,-3.03,10.92,4.37
29.27,-3.04,10.67,4.07
29.27,-3.05,10.37,3.84
29.27,-3.10,10.05,3.66
29.27,-3.10,9.79,3.53
29.28,-3.13,9.51,3.43
29.28,-3.12,9.25,3.41
29.28,-3.10,9.03,3.41
29.28,-3.09,8.83,3.46
29.28,-3.10,8.65,3.56
29.29,-3.11,8.47,3.63
29.29,-3.11,8.32,3.74
29.29,-3.08,8.25,3.89
29.29,-3.06,8.20,4.05
29.30,-3.02,8.15,4.21
29.30,-2.96,8.12,4.34
29.30,-2.91,8.10,4.45
29.30,-2.82,8.07,4.55
29.31,-2.76,8.03,4.60
29.31,-2.66,7.96,4.67
29.31,-2.58,7.94,4.69
29.31,-2.50,7.92,4.72
29.32,-2.41,7.88,4.74
29.32,-2.30,7.86,4.70
29.32,-2.16,7.86,4.71
29.32,-2.01,7.84,4.69
29.32,-1.89,7.85,4.67
29.33,-1.72,7.89,4.65
29.33,-1.58,7.89,4.60
29.33,-1.45,7.96,4.48
29.33,-1.36,8.03,4.38
29.34,-1.28,8.10,4.25
29.34,-1.21,8.18,4.09
29.34,-1.10,8.27,3.91
29.34,-0.95,8.37,3.72
29.35,-0.84,8.43,3.53
29.35,-0.77,8.53,3.33
29.35,-0.74,8.60,3.06
29.35,-0.79,8.75,2.87
29.36,-0.89,8.91,2.73
29.36,-0.94,9.11,2.62
29.36,-0.97,9.36,2.57
29.36,-1.08,9.63,2.54
29.37,-1.23,9.89,2.56
29.37,-1.40,10.12,2.64
29.37,-1.55,10.32,2.76
29.37,-1.72,10.49,2.83
29.37,-1.86,10.66,2.92
29.38,-1.99,10.81,3.04
29.38,-2.06,10.97,3.15
29.38,-2.11,11.06,3.27
29.38,-2.09,11.11,3.46
29.39,-2.08,11.19,3.69
29.39,-2.06,11.25,4.00
29.39,-2.07,11.29,4.32
29.39,-2.07,11.23,4.60
29.40,-2.09,11.04,4.97
29.40,-2.03,10.75,5.21
29.40,-2.00,10.37,5.25
29.40,-1.99,10.02,5.23
29.41,-2.04,9.58,5.24
29.41,-2.06,9.15,5.26
29.41,-2.04,8.76,5.26
29.41,-2.04,8.35,5.30
29.42,-1.97,8.01,5.35
29.42,-1.88,7.70,5.37
29.42,-1.82,7.40,5.43
29.42,-1.78,7.15,5.44
29.42,-1.73,6.95,5.45
29.43,-1.67,6.82,5.48
29.43,-1.61,6.65,5.50
29.43,-1.55,6.58,5.49
29.43,-1.53,6.47,5.41
29.44,-1.48,6.41,5.31
29.44,-1.48,6.38,5.12
29.44,-1.48,6.39,4.93
29.44,-1.53,6.41,4.67
29.45,-1.60,6.46,4.37
29.45,-1.66,6.47,4.12
29.45,-1.72,6.44,3.84
29.45,-1.73,6.44,3.54
29.46,-1.72,6.52,3.31
29.46,-1.77,6.54,3.06
29.46,-1.82,6.52,2.84
29.46,-1.83,6.54,2.64
29.47,-1.85,6.52,2.44
29.47,-1.91,6.50,2.26
29.47,-1.89,6.54,2.12
29.47,-1.87,6.54,1.98
29.47,-1.92,6.61,1.82
29.48,-1.97,6.61,1.76
29.48,-2.00,6.62,1.69
29.48,-2.02,6.65,1.82
29.48,-1.95,6.59,1.98
29.49,-1.83,6.51,2.13
29.49,-1.72,6.39,2.21
29.49,-1.67,6.30,2.32
29.49,-1.64,6.25,2.44
29.50,-1.68,6.19,2.57
29.50,-1.76,6.17,2.76
29.50,-1.79,6.13,2.97
29.50,-1.83,6.12,3.18
29.51,-1.81,6.08,3.40
29.51,-1.74,5.98,3.72
29.51,-1.62,5.82,4.06
29.51,-1.59,5.72,4.41
29.52,-1.62,5.63,4.67
29.52,-1.63,5.58,4.86
29.52,-1.77,5.60,5.00
29.52,-1.96,5.65,5.11
29.52,-2.22,5.67,5.20
29.53,-2.57,5.72,5.38
29.53,-2.85,5.84,5.55
29.53,-3.01,5.89,5.55
29.53,-3.12,5.93,5.50
29.54,-3.11,5.93,5.45
29.54,-3.12,5.95,5.37
29.54,-3.07,5.95,5.30
29.54,-2.97,5.95,5.21
29.55,-2.84,5.98,5.15
29.55,-2.66,5.95,5.14
29.55,-2.57,5.89,5.03
29.55,-2.56,5.84,4.83
29.56,-2.58,5.84,4.70
29.56,-2.58,5.87,4.50
29.56,-2.52,5.98,4.33
29.56,-2.46,6.06,4.17
29.56,-2.40,6.19,4.02
29.57,-2.32,6.31,3.82
29.57,-2.22,6.42,3.71
29.57,-2.07,6.54,3.62
29.57,-1.90,6.68,3.58
29.58,-1.70,6.80,3.65
29.58,-1.50,6.92,3.72
29.58,-1.37,7.17,3.58
29.58,-1.41,7.25,3.37
29.59,-1.41,7.43,3.16
29.59,-1.40,7.53,2.92
29.59,-1.31,7.63,2.78
29.59,-1.16,7.87,2.67
29.60,-1.03,7.98,2.60
29.60,-0.93,8.13,2.56
29.60,-0.87,8.23,2.57
29.60,-0.81,8.28,2.59
29.61,-0.64,8.30,2.66
29.61,-0.51,8.30,2.70
29.61,-0.33,8.29,2.80
29.61,-0.11,8.27,2.90
29.61,0.18,8.33,3.03
29.62,0.41,8.25,3.06
29.62,0.56,8.22,3.08
29.62,0.69,8.19,3.10
29.62,0.72,8.12,3.08
29.63,0.77,8.14,3.08
29.63,0.78,8.09,3.06
29.63,0.71,8.11,3.10
29.63,0.72,8.20,3.06
29.64,0.74,8.28,3.07
29.64,0.76,8.27,3.01
29.64,0.78,8.25,2.98
29.64,0.80,8.18,2.95
29.65,0.74,8.13,2.97
29.65,0.64,8.05,2.97
29.65,0.56,7.97,2.98
29.65,0.43,7.86,3.06
29.66,0.27,7.80,3.19
29.66,0.08,7.72,3.34
29.66,-0.09,7.68,3.53
29.66,-0.30,7.65,3.72
29.66,-0.48,7.62,3.86
29.67,-0.66,7.53,3.97
29.67,-0.83,7.48,4.07
29.67,-1.02,7.49,4.22
29.67,-1.18,7.51,4.34
29.68,-1.37,7.51,4.41
29.68,-1.52,7.57,4.45
29.68,-1.70,7.60,4.50
29.68,-1.82,7.66,4.52
29.69,-1.94,7.74,4.51
29.69,-1.99,7.81,4.52
29.69,-2.07,7.89,4.54
29.69,-2.09,7.96,4.55
29.70,-2.07,8.07,4.53
29.70,-2.06,8.16,4.55
29.70,-2.02,8.23,4.56
29.70,-1.99,8.30,4.54
29.71,-1.92,8.34,4.51
29.71,-1.84,8.46,4.52
29.71,-1.80,8.51,4.48
29.71,-1.74,8.62,4.48
29.71,-1.61,8.74,4.49
29.72,-1.58,8.85,4.56
29.72,-1.54,8.98,4.63
29.72,-1.47,9.12,4.71
29.72,-1.42,9.24,4.74
29.73,-1.38,9.40,4.82
29.73,-1.36,9.52,4.90
29.73,-1.33,9.66,4.95
29.73,-1.24,9.77,5.00
29.74,-1.17,9.89,4.98
29.74,-1.05,10.00,4.94
29.74,-1.00,10.10,4.94
29.74,-0.92,10.19,4.91
29.75,-0.85,10.28,4.92
29.75,-0.74,10.35,4.90
29.75,-0.61,10.39,4.88
29.75,-0.50,10.43,4.79
29.75,-0.34,10.46,4.68
29.76,-0.19,10.45,4.58
29.76,-0.05,10.44,4.43
29.76,0.10,10.44,4.27
29.76,0.26,10.36,4.09
29.77,0.41,10.28,3.93
29.77,0.55,10.20,3.76
29.77,0.65,10.06,3.62
29.77,0.77,9.94,3.48
29.78,0.87,9.81,3.33
29.78,0.99,9.62,3.25
29.78,1.08,9.47,3.17
29.78,1.14,9.32,3.09
29.79,1.17,9.18,3.05
29.79,1.21,9.05,3.06
29.79,1.22,8.95,3.07
29.79,1.22,8.90,3.14
29.80,1.26,8.84,3.25
29.80,1.28,8.90,3.36
29.80,1.29,8.94,3.48
29.80,1.29,9.03,3.65
29.80,1.29,9.17,3.85
29.81,1.29,9.30,3.96
29.81,1.27,9.47,4.08
29.81,1.24,9.67,4.19
29.81,1.17,9.83,4.25
29.82,1.08,9.99,4.28
29.82,0.99,10.10,4.30
29.82,0.93,10.21,4.29
29.82,0.88,10.35,4.25
29.83,0.87,10.40,4.23
29.83,0.87,10.47,4.23
29.83,0.93,10.55,4.20
29.83,0.97,10.59,4.21
29.84,1.00,10.58,4.18
29.84,1.01,10.59,4.14
29.84,1.04,10.56,4.10
29.84,1.04,10.51,3.99
29.85,1.02,10.37,3.89
29.85,1.06,10.34,3.88
29.85,1.10,10.30,3.82
29.85,1.11,10.26,3.67
29.85,1.12,10.20,3.51
29.86,1.15,10.15,3.36
29.86,1.10,10.12,3.26
29.86,1.04,10.07,3.20
29.86,0.99,10.04,3.18
29.87,0.91,10.04,3.22
29.87,0.83,10.08,3.24
29.87,0.73,10.12,3.28
29.87,0.58,10.18,3.35
29.88,0.43,10.30,3.45
29.88,0.26,10.42,3.52
29.88,0.10,10.57,3.61
29.88,-0.03,10.72,3.76
29.89,-0.15,10.88,3.88
29.89,-0.23,11.07,4.01
29.89,-0.26,11.23,4.16
29.89,-0.26,11.39,4.29
29.90,-0.21,11.57,4.42
29.90,-0.15,11.72,4.56
29.90,-0.11,11.86,4.69
29.90,-0.08,11.99,4.82
29.90,-0.06,12.17,4.96
29.91,-0.09,12.33,5.10
29.91,-0.11,12.46,5.25
29.91,-0.15,12.65,5.40
29.91,-0.22,12.83,5.52
29.92,-0.33,12.99,5.63
29.92,-0.46,13.16,5.73
29.92,-0.57,13.36,5.79
29.92,-0.68,13.55,5.84
29.93,-0.81,13.75,5.87
29.93,-0.91,13.87,5.87
29.93,-1.05,14.01,5.83
29.93,-1.14,14.10,5.80
29.94,-1.26,14.10,5.76
29.94,-1.37,14.10,5.67
29.94,-1.45,14.07,5.55
29.94,-1.54,14.03,5.39
29.95,-1.56,13.94,5.22
29.95,-1.62,13.80,4.98
29.95,-1.63,13.72,4.75
29.95,-1.63,13.54,4.49
29.95,-1.64,13.41,4.21
29.96,-1.67,13.27,3.99
29.96,-1.69,13.13,3.70
29.96,-1.73,12.99,3.43
29.96,-1.78,12.85,3.20
29.97,-1.82,12.70,2.98
29.97,-1.85,12.57,2.78
29.97,-1.88,12.43,2.57
29.97,-1.89,12.32,2.41
29.98,-1.88,12.17,2.27
29.98,-1.88,12.02,2.14
29.98,-1.90,11.85,2.02
29.98,-1.89,11.69,1.93
29.99,-1.84,11.51,1.85
29.99,-1.78,11.35,1.79
29.99,-1.70,11.13,1.72
29.99,-1.58,10.94,1.68
29.99,-1.43,10.73,1.67
30.00,-1.30,10.53,1.71
30.00,-1.15,10.27,1.73
30.00,-0.99,10.03,1.83
30.00,-0.81,9.79,1.92
30.01,-0.66,9.55,2.01
30.01,-0.49,9.33,2.13
30.01,-0.32,9.12,2.30
30.01,-0.14,8.94,2.38
30.02,0.01,8.75,2.52
30.02,0.15,8.59,2.71
30.02,0.27,8.44,2.84
30.02,0.46,8.29,3.02
30.03,0.56,8.19,3.26
30.03,0.67,8.04,3.43
30.03,0.75,7.89,3.58
30.03,0.85,7.72,3.77
30.04,0.87,7.60,3.94
30.04,0.93,7.50,4.10
30.04,0.97,7.45,4.21
30.04,0.97,7.37,4.28
30.04,0.95,7.31,4.30
30.05,0.89,7.27,4.24
30.05,0.78,7.20,4.16
30.05,0.56,7.10,4.05
30.05,0.48,7.13,4.13
30.06,0.42,7.16,4.19
30.06,0.31,7.31,4.16
30.06,0.16,7.48,4.03
30.06,-0.02,7.68,3.88
30.07,-0.19,7.88,3.72
30.07,-0.41,8.05,3.59
30.07,-0.66,8.24,3.46
30.07,-0.89,8.43,3.40
30.08,-1.14,8.64,3.33
30.08,-1.40,8.90,3.20
30.08,-1.69,9.23,3.07
30.08,-1.90,9.44,2.95
30.09,-2.13,9.61,2.81
30.09,-2.39,9.73,2.69
30.09,-2.65,9.84,2.55
30.09,-2.94,9.92,2.36
30.09,-3.17,9.99,2.19
30.10,-3.42,10.03,2.04
30.10,-3.61,10.11,1.88
30.10,-3.80,10.17,1.62
30.10,-4.01,10.29,1.45
30.11,-4.12,10.33,1.50
30.11,-4.05,10.21,1.48
30.11,-4.18,10.48,1.74
30.11,-4.23,10.67,2.01
30.12,-4.16,10.70,2.18
30.12,-4.09,10.72,2.26
30.12,-4.05,10.83,2.34
30.12,-4.08,10.96,2.39
30.13,-4.07,11.12,2.41
30.13,-4.10,11.28,2.35
30.13,-4.08,11.42,2.23
30.13,-4.02,11.55,2.13
30.14,-3.92,11.66,2.12
30.14,-3.80,11.72,2.18
30.14,-3.64,11.75,2.24
30.14,-3.59,11.74,2.24
30.14,-3.56,11.67,2.25
30.15,-3.50,11.58,2.31
30.15,-3.42,11.46,2.35
30.15,-3.25,11.28,2.37
30.15,-3.15,11.12,2.41
30.16,-3.08,10.94,2.49
30.16,-3.01,10.72,2.49
30.16,-2.91,10.50,2.55
30.16,-2.85,10.27,2.57
30.17,-2.83,10.01,2.55
30.17,-2.89,9.77,2.52
30.17,-3.07,9.54,2.48
30.17,-3.33,9.35,2.40
30.18,-3.58,9.15,2.28
30.18,-3.83,8.98,2.17
30.18,-3.95,8.76,2.07
30.18,-3.99,8.51,2.01
30.18,-4.01,8.29,2.01
30.19,-3.95,8.04,2.03
30.19,-3.84,7.83,2.09
30.19,-3.69,7.65,2.08
30.19,-3.57,7.53,2.14
30.20,-3.47,7.47,2.21
30.20,-3.35,7.41,2.25
30.20,-3.25,7.33,2.23
30.20,-3.17,7.25,2.21
30.21,-3.07,7.13,2.19
30.21,-2.99,7.04,2.09
30.21,-2.96,6.96,2.01
30.21,-2.97,6.88,1.97
30.22,-2.95,6.79,1.93
30.22,-2.95,6.77,1.91
30.22,-2.96,6.74,1.95
30.22,-2.98,6.81,2.00
30.23,-2.96,6.85,2.04
30.23,-2.87,6.94,2.08
30.23,-2.78,6.96,2.19
30.23,-2.74,7.02,2.31
30.23,-2.75,7.14,2.36
30.24,-2.79,7.21,2.40
30.24,-2.78,7.28,2.41
30.24,-2.77,7.33,2.44
30.24,-2.70,7.37,2.45
30.25,-2.68,7.36,2.41
30.25,-2.65,7.36,2.38
30.25,-2.57,7.31,2.34
30.25,-2.54,7.32,2.32
30.26,-2.51,7.37,2.38
30.26,-2.46,7.43,2.38
30.26,-2.37,7.46,2.35
30.26,-2.32,7.45,2.36
30.27,-2.24,7.48,2.43
30.27,-2.21,7.49,2.48
30.27,-2.14,7.50,2.55
30.27,-2.09,7.54,2.65
30.28,-2.02,7.51,2.77
30.28,-1.96,7.47,2.85
30.28,-1.88,7.42,2.99
30.28,-1.78,7.31,3.13
30.28,-1.68,7.17,3.32
30.29,-1.56,6.85,3.58
30.29,-1.48,6.46,4.10
30.29,-1.60,6.27,4.52
30.29,-1.82,6.55,4.00
30.30,-1.83,6.83,3.28
30.30,-1.93,6.85,3.26
30.30,-1.99,6.77,3.62
30.30,-1.91,6.60,3.81
30.31,-1.79,6.38,3.78
30.31,-1.80,6.21,3.69
30.31,-1.87,6.05,3.64
30.31,-1.97,5.92,3.60
30.32,-2.05,5.80,3.52
30.32,-2.20,5.66,3.43
30.32,-2.45,5.59,3.37
30.32,-2.71,5.43,3.36
30.33,-2.99,5.32,3.46
30.33,-3.31,5.31,3.56
30.33,-3.61,5.33,3.65
30.33,-3.83,5.38,3.72
30.33,-3.94,5.46,3.78
30.34,-4.02,5.57,3.82
30.34,-4.14,5.79,3.91
30.34,-4.22,5.81,3.97
30.34,-4.25,5.78,4.04
30.35,-4.22,5.83,4.09
30.35,-4.29,5.94,4.11
30.35,-4.36,6.06,4.17
30.35,-4.40,6.15,4.20
30.36,-4.46,6.27,4.27
30.36,-4.57,6.42,4.33
30.36,-4.67,6.58,4.43
30.36,-4.77,6.74,4.59
30.37,-4.80,6.88,4.75
30.37,-4.82,7.02,4.85
30.37,-4.83,7.16,4.97
30.37,-4.83,7.28,5.06
30.38,-4.80,7.47,5.12
30.38,-4.74,7.59,5.17
30.38,-4.67,7.70,5.24
30.38,-4.62,7.81,5.33
30.38,-4.53,7.93,5.34
30.39,-4.50,8.06,5.44
30.39,-4.42,8.18,5.59
30.39,-4.32,8.28,5.64
30.39,-4.21,8.29,5.74
30.40,-4.13,8.30,5.77
30.40,-4.04,8.29,5.82
30.40,-3.93,8.24,5.82
30.40,-3.81,8.11,5.85
30.41,-3.69,7.96,5.84
30.41,-3.64,7.81,5.86
30.41,-3.55,7.69,5.87
30.41,-3.48,7.57,5.89
30.42,-3.40,7.39,5.89
30.42,-3.32,7.29,5.88
30.42,-3.23,7.18,5.88
30.42,-3.20,7.09,5.81
30.42,-3.20,6.96,5.82
30.43,-3.22,6.87,5.77
30.43,-3.21,6.78,5.81
30.43,-3.25,6.65,5.80
30.43,-3.33,6.52,5.84
30.44,-3.36,6.40,5.80
30.44,-3.32,6.35,5.79
30.44,-3.34,6.22,5.74
30.44,-3.34,6.19,5.74
30.45,-3.33,6.09,5.75
30.45,-3.38,6.04,5.72
30.45,-3.37,5.91,5.72
30.45,-3.34,5.87,5.69
30.46,-3.32,5.85,5.66
30.46,-3.28,5.77,5.63
30.46,-3.26,5.71,5.58
30.46,-3.16,5.72,5.55
30.47,-3.21,5.68,5.59
30.47,-3.25,5.57,5.64
30.47,-3.25,5.52,5.70
30.47,-3.24,5.40,5.73
30.47,-3.25,5.33,5.79
30.48,-3.30,5.32,5.84
30.48,-3.31,5.22,5.89
30.48,-3.30,5.13,5.89
30.48,-3.35,5.06,5.91
30.49,-3.44,4.98,5.94
30.49,-3.53,4.89,5.94
30.49,-3.61,4.82,5.87
30.49,-3.68,4.68,5.81
30.50,-3.75,4.54,5.72
30.50,-3.80,4.44,5.66
30.50,-3.87,4.40,5.60
30.50,-3.95,4.36,5.60
30.51,-4.08,4.34,5.60
30.51,-4.15,4.26,5.62
30.51,-4.27,4.22,5.63
30.51,-4.38,4.16,5.63
30.52,-4.42,4.16,5.62
30.52,-4.51,4.13,5.62
30.52,-4.62,4.11,5.65
30.52,-4.76,4.12,5.64
30.52,-4.87,4.17,5.66
30.53,-4.95,4.19,5.71
30.53,-5.06,4.24,5.74
30.53,-5.15,4.29,5.78
30.53,-5.20,4.40,5.83
30.54,-5.32,4.43,5.86
30.54,-5.39,4.56,5.91
30.54,-5.51,4.69,5.94
30.54,-5.57,4.79,5.99
30.55,-5.65,4.91,5.99
30.55,-5.67,5.03,6.01
30.55,-5.71,5.16,6.05
30.55,-5.73,5.28,6.06
30.56,-5.75,5.38,6.05
30.56,-5.75,5.51,6.10
30.56,-5.75,5.61,6.07
30.56,-5.74,5.72,6.10
30.57,-5.71,5.82,6.08
30.57,-5.67,5.89,6.06
30.57,-5.64,5.96,6.04
30.57,-5.60,6.00,6.03
30.57,-5.55,6.05,5.99
30.58,-5.51,6.04,5.94
30.58,-5.51,6.07,5.92
30.58,-5.49,6.10,5.91
30.58,-5.48,6.07,5.89
30.59,-5.50,6.07,5.85
30.59,-5.50,6.05,5.86
30.59,-5.52,6.03,5.84
30.59,-5.54,6.00,5.89
30.60,-5.56,5.91,5.88
30.60,-5.50,5.82,5.90
30.60,-5.52,5.71,5.91
30.60,-5.50,5.59,5.93
30.61,-5.45,5.48,5.92
30.61,-5.42,5.34,5.90
30.61,-5.41,5.22,5.91
30.61,-5.59,5.17,6.09
30.61,-5.63,5.14,6.06
30.62,-5.69,5.25,5.89
30.62,-5.87,5.33,5.83
30.62,-6.07,5.39,5.80
30.62,-6.26,5.47,5.84
30.63,-6.41,5.55,5.93
30.63,-6.54,5.67,6.04
30.63,-6.60,5.76,6.16
30.63,-6.64,5.91,6.28
30.64,-6.70,6.04,6.42
30.64,-6.71,6.22,6.54
30.64,-6.77,6.42,6.69
30.64,-6.78,6.59,6.90
30.65,-6.76,6.80,7.03
30.65,-6.70,7.05,7.16
30.65,-6.65,7.28,7.27
30.65,-6.58,7.51,7.39
30.66,-6.55,7.74,7.49
30.66,-6.53,7.93,7.51
30.66,-6.54,8.08,7.57
30.66,-6.57,8.19,7.56
30.66,-6.55,8.30,7.56
30.67,-6.52,8.37,7.46
30.67,-6.45,8.44,7.39
30.67,-6.39,8.50,7.25
30.67,-6.25,8.55,7.11
30.68,-6.17,8.56,6.98
30.68,-6.15,8.52,6.91
30.68,-6.12,8.39,7.01
30.68,-5.83,8.40,6.69
30.69,-5.59,8.33,6.42
30.69,-5.46,8.26,6.25
30.69,-5.44,8.14,6.11
30.69,-5.42,8.03,6.05
30.70,-5.42,7.90,5.99
30.70,-5.45,7.77,6.05
30.70,-5.32,7.72,5.97
30.70,-5.25,7.64,5.97
30.71,-5.19,7.58,5.97
30.71,-5.17,7.48,5.97
30.71,-5.26,7.40,5.96
30.71,-5.43,7.32,6.08
30.71,-5.64,7.20,6.28
30.72,-5.68,7.19,6.30
30.72,-5.75,7.19,6.32
30.72,-5.87,7.20,6.37
30.72,-5.98,7.21,6.39
30.73,-6.08,7.31,6.45
30.73,-6.17,7.37,6.50
30.73,-6.28,7.45,6.56
30.73,-6.36,7.57,6.66
30.74,-6.43,7.74,6.77
30.74,-6.49,7.92,6.91
30.74,-6.54,8.09,7.08
30.74,-6.59,8.26,7.27
30.75,-6.64,8.43,7.47
30.75,-6.69,8.62,7.66
30.75,-6.75,8.76,7.83
30.75,-6.76,8.95,7.99
30.76,-6.76,9.13,8.15
30.76,-6.74,9.34,8.28
30.76,-6.71,9.53,8.40
30.76,-6.66,9.77,8.47
30.76,-6.62,10.00,8.51
30.77,-6.58,10.24,8.49
30.77,-6.56,10.49,8.40
30.77,-6.53,10.70,8.31
30.77,-6.46,10.90,8.19
30.78,-6.36,11.07,8.03
30.78,-6.30,11.22,7.85
30.78,-6.22,11.36,7.63
30.78,-6.10,11.43,7.38
30.79,-5.96,11.49,7.11
30.79,-5.81,11.51,6.85
30.79,-5.67,11.51,6.54
30.79,-5.51,11.47,6.22
30.80,-5.38,11.41,5.94
30.80,-5.29,11.34,5.66
30.80,-5.21,11.25,5.44
30.80,-5.12,11.20,5.21
30.81,-5.05,11.17,5.06
30.81,-4.96,11.13,4.94
30.81,-4.89,11.07,4.81
30.81,-4.81,11.01,4.71
30.81,-4.72,10.96,4.62
30.82,-4.62,10.93,4.58
30.82,-4.52,10.90,4.55
30.82,-4.44,10.85,4.53
30.82,-4.34,10.81,4.56
30.83,-4.23,10.75,4.57
30.83,-4.10,10.73,4.61
30.83,-3.95,10.67,4.65
30.83,-3.78,10.61,4.68
30.84,-3.60,10.52,4.68
30.84,-3.40,10.46,4.73
30.84,-3.22,10.40,4.73
30.84,-3.06,10.30,4.72
30.85,-2.85,10.19,4.72
30.85,-2.69,10.12,4.67
30.85,-2.50,10.02,4.66
30.85,-2.28,9.89,4.66
30.85,-2.13,9.80,4.64
30.86,-2.00,9.72,4.65
30.86,-1.86,9.58,4.62
30.86,-1.76,9.45,4.61
30.86,-1.70,9.29,4.57
30.87,-1.59,9.20,4.55
30.87,-1.54,9.07,4.47
30.87,-1.46,8.93,4.45
30.87,-1.35,8.80,4.39
30.88,-1.25,8.61,4.35
30.88,-1.19,8.45,4.29
30.88,-1.14,8.35,4.23
30.88,-1.04,8.21,4.17
30.89,-0.95,8.10,4.12
30.89,-0.86,7.93,4.07
30.89,-0.79,7.88,4.04
30.89,-0.72,7.79,4.00
30.90,-0.67,7.74,3.98
30.90,-0.62,7.72,3.93
30.90,-0.60,7.69,3.86
30.90,-0.60,7.70,3.76
30.90,-0.55,7.74,3.68
30.91,-0.55,7.78,3.59
30.91,-0.54,7.81,3.53
30.91,-0.55,7.85,3.43
30.91,-0.56,7.92,3.35
30.92,-0.58,8.02,3.22
30.92,-0.62,8.12,3.14
30.92,-0.64,8.20,2.98
30.92,-0.68,8.31,2.87
30.93,-0.71,8.42,2.77
30.93,-0.76,8.52,2.69
30.93,-0.84,8.58,2.63
30.93,-0.92,8.70,2.58
30.94,-1.03,8.81,2.59
30.94,-1.13,8.91,2.61
30.94,-1.20,9.01,2.67
30.94,-1.22,9.08,2.72
30.95,-1.24,9.14,2.79
30.95,-1.24,9.18,2.86
30.95,-1.25,9.21,2.92
30.95,-1.25,9.23,2.96
30.95,-1.23,9.20,3.00
30.96,-1.18,9.16,3.05
30.96,-1.13,9.09,3.12
30.96,-1.19,9.06,3.15
30.96,-1.22,9.04,3.23
30.97,-1.24,8.96,3.29
30.97,-1.29,8.86,3.33
30.97,-1.33,8.80,3.37
30.97,-1.36,8.71,3.40
30.98,-1.40,8.58,3.43
30.98,-1.43,8.47,3.48
30.98,-1.43,8.36,3.53
30.98,-1.48,8.25,3.57
30.99,-1.51,8.12,3.59
30.99,-1.58,8.00,3.66
30.99,-1.64,7.90,3.73
30.99,-1.66,7.83,3.83
31.00,-1.72,7.78,3.90
31.00,-1.73,7.74,4.00
31.00,-1.77,7.72,4.15
31.00,-1.92,7.68,4.24
31.00,-2.16,7.81,4.28
31.01,-2.27,7.79,4.12
31.01,-2.28,7.73,3.82
31.01,-2.22,7.76,3.72
31.01,-2.18,7.73,3.74
31.02,-2.15,7.67,3.73
31.02,-2.01,7.62,3.61
31.02,-1.82,7.55,3.63
31.02,-1.73,7.41,3.71
31.03,-1.71,7.31,3.84
31.03,-1.92,7.26,3.56
31.03,-2.13,7.19,3.26
31.03,-2.13,7.05,3.06
31.04,-1.98,6.97,2.96
31.04,-1.92,6.94,2.87
31.04,-1.94,6.93,2.76
31.04,-1.96,6.85,2.68
31.04,-1.94,6.81,2.57
31.05,-2.01,6.76,2.60
31.05,-2.05,6.71,2.66
31.05,-1.99,6.71,2.71
31.05,-1.90,6.66,2.77
31.06,-1.77,6.62,2.81
31.06,-1.62,6.61,2.86
31.06,-1.46,6.61,2.88
31.06,-1.32,6.61,2.90
31.07,-1.22,6.57,2.90
31.07,-1.12,6.53,2.95
31.07,-1.00,6.45,2.96
31.07,-0.90,6.43,3.01
31.08,-0.87,6.43,3.07
31.08,-0.88,6.45,3.14
31.08,-0.92,6.42,3.21
31.08,-0.90,6.39,3.26
31.09,-0.86,6.40,3.39
31.09,-0.86,6.35,3.51
31.09,-0.91,6.32,3.61
31.09,-1.00,6.29,3.73
31.09,-1.07,6.23,3.80
31.10,-1.25,6.21,3.88
31.10,-1.45,6.25,3.97
31.10,-1.66,6.28,4.10
31.10,-1.79,6.32,4.16
31.11,-1.92,6.36,4.21
31.11,-1.99,6.38,4.33
31.11,-2.00,6.41,4.35
31.11,-1.94,6.45,4.32
31.12,-1.82,6.47,4.28
31.12,-1.72,6.52,4.22
31.12,-1.62,6.66,4.15
31.12,-1.53,6.82,4.09
31.13,-1.51,6.96,4.09
31.13,-1.48,7.07,4.09
31.13,-1.48,7.21,4.11
31.13,-1.49,7.32,4.18
31.14,-1.48,7.39,4.28
31.14,-1.44,7.48,4.34
31.14,-1.39,7.57,4.38
31.14,-1.32,7.69,4.43
31.14,-1.29,7.78,4.49
31.15,-1.29,7.84,4.48
31.15,-1.29,7.94,4.46
31.15,-1.30,8.06,4.41
31.15,-1.39,8.16,4.34
31.16,-1.46,8.24,4.22
31.16,-1.49,8.36,4.10
31.16,-1.56,8.46,4.02
31.16,-1.62,8.48,3.98
31.17,-1.68,8.57,3.88
31.17,-1.71,8.73,3.82
31.17,-1.71,8.82,3.80
31.17,-1.75,8.89,3.77
31.18,-1.73,8.93,3.74
31.18,-1.75,8.94,3.74
31.18,-1.73,8.98,3.80
31.18,-1.68,8.98,3.81
31.19,-1.62,8.94,3.83
31.19,-1.61,8.89,3.83
31.19,-1.57,8.83,3.86
31.19,-1.56,8.78,3.93
31.19,-1.53,8.76,3.95
31.20,-1.51,8.68,3.95
31.20,-1.47,8.63,3.99
31.20,-1.42,8.59,4.07
31.20,-1.38,8.51,4.13
31.21,-1.35,8.42,4.14
31.21,-1.33,8.33,4.15
31.21,-1.28,8.24,4.21
31.21,-1.25,8.15,4.23
31.22,-1.23,8.07,4.31
31.22,-1.26,8.00,4.32
31.22,-1.22,7.89,4.40
31.22,-1.21,7.85,4.39
31.23,-1.18,7.83,4.41
31.23,-1.15,7.82,4.46
31.23,-1.14,7.81,4.49
31.23,-1.13,7.82,4.50
31.24,-1.12,7.81,4.47
31.24,-1.14,7.84,4.49
31.24,-1.11,7.91,4.48
31.24,-1.00,7.93,4.54
31.24,-0.89,7.97,4.61
31.25,-0.87,8.00,4.68
31.25,-0.89,8.03,4.71
31.25,-0.91,8.06,4.78
31.25,-0.90,8.08,4.82
31.26,-0.93,8.15,4.85
31.26,-0.96,8.17,4.86
31.26,-0.98,8.18,4.84
31.26,-1.03,8.22,4.85
31.27,-1.03,8.26,4.84
31.27,-1.06,8.32,4.79
31.27,-1.07,8.39,4.77
31.27,-1.09,8.40,4.70
31.28,-1.09,8.46,4.73
31.28,-1.11,8.49,4.77
31.28,-1.13,8.54,4.78
31.28,-1.14,8.54,4.82
31.28,-1.14,8.59,4.84
31.29,-1.15,8.58,4.82
31.29,-1.14,8.60,4.82
31.29,-1.14,8.61,4.82
31.29,-1.12,8.60,4.82
31.30,-1.09,8.56,4.84
31.30,-1.04,8.54,4.81
31.30,-1.04,8.54,4.84
31.30,-0.97,8.53,4.90
31.31,-0.92,8.50,4.94
31.31,-0.85,8.49,4.96
31.31,-0.78,8.48,4.94
31.31,-0.71,8.52,4.95
31.32,-0.64,8.52,4.95
31.32,-0.59,8.56,4.95
31.32,-0.53,8.55,4.96
31.32,-0.48,8.59,4.93
31.33,-0.39,8.59,4.95
31.33,-0.37,8.55,4.98
31.33,-0.36,8.58,5.01
31.33,-0.36,8.56,5.01
31.33,-0.39,8.53,4.99
31.34,-0.41,8.50,4.98
31.34,-0.46,8.47,4.92
31.34,-0.51,8.45,4.90
31.34,-0.59,8.41,4.84
31.35,-0.67,8.38,4.72
31.35,-0.75,8.35,4.63
31.35,-0.86,8.29,4.56
31.35,-0.94,8.27,4.46
31.36,-0.98,8.21,4.42
31.36,-1.00,8.16,4.37
31.36,-1.06,8.14,4.37
31.36,-1.05,8.09,4.33
31.37,-1.03,8.06,4.30
31.37,-1.00,8.03,4.29
31.37,-0.93,8.03,4.24
31.37,-0.89,8.04,4.17
31.38,-0.87,8.05,4.12
31.38,-0.85,8.09,4.08
31.38,-0.83,8.13,4.07
31.38,-0.81,8.16,4.05
31.38,-0.77,8.18,4.03
31.39,-0.73,8.19,4.00
31.39,-0.65,8.23,3.95
31.39,-0.59,8.31,3.96
31.39,-0.54,8.41,4.01
31.40,-0.49,8.47,4.01
31.40,-0.48,8.55,4.01
31.40,-0.52,8.63,4.00
31.40,-0.58,8.73,4.01
31.41,-0.62,8.85,4.00
31.41,-0.66,8.97,4.01
31.41,-0.71,9.08,4.02
31.41,-0.79,9.17,4.01
31.42,-0.89,9.26,4.00
31.42,-0.98,9.33,3.99
31.42,-1.07,9.39,3.99
31.42,-1.15,9.43,3.97
31.43,-1.26,9.46,3.97
31.43,-1.37,9.52,3.97
31.43,-1.45,9.51,3.92
31.43,-1.51,9.47,3.89
31.43,-1.52,9.45,3.87
31.44,-1.51,9.47,3.86
31.44,-1.52,9.50,3.87
31.44,-1.48,9.52,3.96
31.44,-1.45,9.53,4.05
31.45,-1.44,9.58,4.14
31.45,-1.40,9.61,4.23
31.45,-1.34,9.69,4.31
31.45,-1.28,9.74,4.39
31.46,-1.24,9.83,4.47
31.46,-1.21,9.88,4.52
31.46,-1.15,9.91,4.56
31.46,-1.07,9.94,4.56
31.47,-1.00,9.95,4.56
31.47,-0.89,9.95,4.49
31.47,-0.78,9.96,4.42
31.47,-0.68,9.94,4.34
31.47,-0.54,9.91,4.27
31.48,-0.38,9.89,4.16
31.48,-0.26,9.86,4.07
31.48,-0.09,9.81,3.96
31.48,0.06,9.77,3.89
31.49,0.20,9.72,3.84
31.49,0.35,9.64,3.81
31.49,0.49,9.56,3.78
31.49,0.57,9.46,3.76
31.50,0.62,9.41,3.78
31.50,0.69,9.28,3.83
31.50,0.70,9.18,3.88
31.50,0.70,9.13,3.99
31.51,0.70,9.06,4.10
31.51,0.70,8.99,4.23
31.51,0.62,8.94,4.37
31.51,0.56,8.87,4.52
31.52,0.47,8.83,4.66
31.52,0.37,8.80,4.84
31.52,0.31,8.78,4.96
31.52,0.18,8.76,5.14
31.52,0.12,8.74,5.17
31.53,0.06,8.77,5.23
31.53,0.01,8.77,5.34
31.53,-0.06,8.82,5.43
31.53,-0.07,8.84,5.48
31.54,-0.07,8.87,5.53
31.54,-0.05,8.95,5.54
31.54,-0.03,9.02,5.51
31.54,-0.01,9.07,5.50
31.55,0.05,9.13,5.47
31.55,0.08,9.19,5.47
31.55,0.18,9.29,5.44
31.55,0.24,9.38,5.39
31.56,0.31,9.48,5.33
31.56,0.35,9.61,5.25
31.56,0.46,9.68,5.19
31.56,0.54,9.81,5.19
31.57,0.57,9.92,5.23
31.57,0.64,10.05,5.30
31.57,0.67,10.21,5.41
31.57,0.70,10.30,5.54
31.57,0.76,10.43,5.60
31.58,0.78,10.55,5.65
31.58,0.80,10.69,5.68
31.58,0.79,10.86,5.67
31.58,0.82,11.04,5.64
31.59,0.87,11.24,5.54
31.59,0.87,11.42,5.43
31.59,0.85,11.61,5.29
31.59,0.81,11.83,5.17
31.60,0.73,12.02,4.98
31.60,0.64,12.21,4.81
31.60,0.59,12.41,4.71
31.60,0.52,12.59,4.62
31.61,0.47,12.71,4.53
31.61,0.46,12.84,4.42
31.61,0.41,12.98,4.35
31.61,0.33,13.06,4.31
31.62,0.30,13.16,4.28
31.62,0.24,13.27,4.24
31.62,0.20,13.32,4.16
31.62,0.19,13.40,4.10
31.62,0.26,13.48,4.00
31.63,0.31,13.55,3.92
31.63,0.40,13.63,3.84
31.63,0.51,13.71,3.80
31.63,0.64,13.85,3.77
31.64,0.77,13.99,3.82
31.64,0.90,14.11,3.85
31.64,0.93,14.20,3.91
31.64,0.93,14.29,3.96
31.65,0.88,14.36,4.04
31.65,0.83,14.41,4.09
31.65,0.80,14.52,4.17
31.65,0.78,14.55,4.23
31.66,0.69,14.58,4.30
31.66,0.64,14.57,4.37
31.66,0.59,14.59,4.39
31.66,0.53,14.57,4.45
31.67,0.47,14.49,4.49
31.67,0.44,14.40,4.52
31.67,0.41,14.32,4.49
31.67,0.39,14.23,4.44
31.67,0.39,14.13,4.36
31.68,0.40,14.00,4.29
31.68,0.41,13.88,4.22
31.68,0.41,13.75,4.12
31.68,0.44,13.61,4.04
31.69,0.46,13.46,3.93
31.69,0.45,13.32,3.85
31.69,0.46,13.16,3.73
31.69,0.46,12.99,3.63
31.70,0.49,12.87,3.51
31.70,0.46,12.71,3.41
31.70,0.50,12.55,3.32
31.70,0.47,12.43,3.23
31.71,0.51,12.29,3.11
31.71,0.51,12.19,3.02
31.71,0.54,12.04,2.93
31.71,0.55,11.92,2.85
31.71,0.53,11.79,2.70
31.72,0.52,11.63,2.57
31.72,0.51,11.50,2.48
31.72,0.44,11.39,2.33
31.72,0.37,11.24,2.22
31.73,0.30,11.08,2.09
31.73,0.23,10.88,1.99
31.73,0.16,10.68,1.91
31.73,0.07,10.47,1.79
31.74,0.00,10.24,1.71
31.74,-0.08,10.02,1.67
31.74,-0.12,9.75,1.57
31.74,-0.18,9.52,1.50
31.75,-0.22,9.29,1.45
31.75,-0.26,9.04,1.41
31.75,-0.31,8.79,1.36
31.75,-0.32,8.55,1.34
31.76,-0.38,8.33,1.29
31.76,-0.40,8.13,1.26
31.76,-0.43,7.90,1.23
31.76,-0.46,7.68,1.22
31.76,-0.49,7.45,1.20
31.77,-0.53,7.27,1.21
31.77,-0.54,7.07,1.23
31.77,-0.53,6.86,1.25
31.77,-0.55,6.69,1.27
31.78,-0.54,6.53,1.29
31.78,-0.55,6.36,1.33
31.78,-0.56,6.20,1.36
31.78,-0.59,6.05,1.44
31.79,-0.62,5.93,1.49
31.79,-0.69,5.82,1.53
31.79,-0.72,5.74,1.57
31.79,-0.76,5.65,1.66
31.80,-0.80,5.59,1.70
31.80,-0.84,5.56,1.74
31.80,-0.91,5.58,1.80
31.80,-0.94,5.56,1.84
31.81,-0.97,5.57,1.90
31.81,-1.04,5.62,1.91
31.81,-1.10,5.65,1.98
31.81,-1.20,5.70,1.99
31.81,-1.31,5.74,2.12
31.82,-1.38,5.81,2.20
31.82,-1.43,5.87,2.25
31.82,-1.54,5.94,2.30
31.82,-1.66,6.00,2.36
31.83,-1.78,6.09,2.39
31.83,-1.91,6.13,2.40
31.83,-1.99,6.20,2.44
31.83,-2.12,6.29,2.43
31.84,-2.25,6.38,2.39
31.84,-2.40,6.44,2.33
31.84,-2.49,6.43,2.22
31.84,-2.57,6.47,2.13
31.85,-2.83,6.69,2.18
31.85,-2.96,6.84,2.24
31.85,-3.01,7.01,2.22
31.85,-3.08,7.19,2.24
31.86,-3.16,7.38,2.25
31.86,-3.27,7.52,2.29
31.86,-3.37,7.68,2.37
31.86,-3.42,7.80,2.43
31.86,-3.41,7.90,2.51
31.87,-3.31,7.89,2.49
31.87,-3.50,8.32,2.67
31.87,-3.68,8.51,2.79
31.87,-3.79,8.59,2.91
31.88,-3.86,8.68,3.02
31.88,-3.91,8.77,3.11
31.88,-3.95,8.85,3.23
31.88,-3.98,8.93,3.31
31.89,-3.95,8.99,3.39
31.89,-3.90,9.07,3.49
31.89,-3.81,9.04,3.54
31.89,-3.78,9.19,3.55
31.90,-3.77,9.29,3.60
31.90,-3.65,9.25,3.60
31.90,-3.55,9.28,3.62
31.90,-3.44,9.34,3.61
31.90,-3.33,9.40,3.54
31.91,-3.26,9.46,3.48
31.91,-3.17,9.54,3.33
31.91,-3.07,9.60,3.14
31.91,-2.99,9.66,2.92
31.92,-2.87,9.71,2.72
31.92,-2.69,9.70,2.68
31.92,-2.54,9.69,2.72
31.92,-2.38,9.66,2.71
31.93,-2.29,9.67,2.65
31.93,-2.23,9.67,2.57
31.93,-2.18,9.66,2.45
31.93,-2.16,9.57,2.31
31.94,-2.13,9.52,2.24
31.94,-2.11,9.49,2.17
31.94,-2.07,9.39,2.08
31.94,-2.04,9.31,1.99
31.95,-2.05,9.24,1.93
31.95,-2.04,9.15,1.83
31.95,-2.04,9.05,1.72
