"Time (s)","Gyroscope x (rad/s)","Gyroscope y (rad/s)","Gyroscope z (rad/s)"
7.370932000E-3,-1.012001187E-2,-1.448759735E-1,2.130528912E-3
9.354574000E-3,-1.012001187E-2,-1.448759735E-1,2.130528912E-3
1.133821700E-2,-1.012001187E-2,-1.448759735E-1,2.130528912E-3
1.335237700E-2,-1.012001187E-2,-1.448759735E-1,2.130528912E-3
1.536653700E-2,-1.012001187E-2,-1.448759735E-1,2.130528912E-3
1.731966200E-2,-1.012001187E-2,-1.448759735E-1,2.130528912E-3
1.930330500E-2,-1.012001187E-2,-1.448759735E-1,2.130528912E-3
2.131746500E-2,-1.012001187E-2,-1.448759735E-1,2.130528912E-3
2.333162500E-2,-1.012001187E-2,-1.448759735E-1,2.130528912E-3
2.534578500E-2,-1.012001187E-2,-1.448759735E-1,2.130528912E-3
2.732942800E-2,-1.012001187E-2,-1.448759735E-1,2.130528912E-3
2.934358800E-2,-1.012001187E-2,-1.448759735E-1,2.130528912E-3
3.132723000E-2,-1.012001187E-2,-1.448759735E-1,2.130528912E-3
3.331087300E-2,-1.012001187E-2,-1.448759735E-1,2.130528912E-3
3.529451600E-2,-1.012001187E-2,-1.448759735E-1,2.130528912E-3
3.727815800E-2,-1.012001187E-2,-1.448759735E-1,2.130528912E-3
3.929231800E-2,-3.813646734E-1,1.438107044E-1,4.793690052E-3
4.130647900E-2,-4.058657587E-1,1.560612470E-1,5.326322280E-3
4.332063900E-2,-4.298342168E-1,1.672465205E-1,5.326322280E-3
4.530428100E-2,-4.500742257E-1,1.763012707E-1,3.728425596E-3
4.728792400E-2,-4.649879336E-1,1.816275865E-1,5.326322280E-3
4.927156600E-2,-4.836300611E-1,1.874865443E-1,4.793690052E-3
5.125520900E-2,-5.070658922E-1,1.960086524E-1,6.924218964E-3
5.323885200E-2,-5.310343504E-1,2.071939409E-1,1.065264456E-2
5.525301200E-2,-5.512743592E-1,2.114549875E-1,1.118527725E-2
5.726717200E-2,-5.715143681E-1,2.205097377E-1,1.225054078E-2
5.925081400E-2,-5.874933600E-1,2.210423797E-1,1.651159860E-2
6.123445700E-2,-6.072007418E-1,2.253034264E-1,1.331580617E-2
6.321810000E-2,-6.205165386E-1,2.316950262E-1,1.438106969E-2
6.523226000E-2,-6.354302764E-1,2.354234457E-1,1.651159860E-2
6.721590200E-2,-6.439523697E-1,2.412824035E-1,1.544633508E-2
6.919954500E-2,-6.604639888E-1,2.508697808E-1,1.597896591E-2
7.121370500E-2,-6.727145314E-1,2.071939409E-1,1.597896684E-3
7.322786500E-2,-6.791061163E-1,1.837581247E-1,-1.118527725E-2
7.521150800E-2,-6.860303283E-1,1.800296903E-1,-2.556634694E-2
7.719515000E-2,-6.934871674E-1,1.928128600E-1,-3.994741663E-2
7.920931100E-2,-7.020092607E-1,2.087918371E-1,-4.793690145E-2
8.119295300E-2,-7.094660997E-1,2.157160491E-1,-5.539375171E-2
8.317659600E-2,-7.195861340E-1,2.253034264E-1,-6.178534031E-2
8.519075600E-2,-7.297061682E-1,2.348908186E-1,-6.285060197E-2
8.717439800E-2,-7.387608886E-1,2.471413612E-1,-7.243798673E-2
8.915804100E-2,-7.504788041E-1,2.588592768E-1,-7.456851006E-2
9.117220100E-2,-7.611314654E-1,2.748382390E-1,-7.510114461E-2
9.318636100E-2,-7.707188129E-1,2.897519469E-1,-7.669904083E-2
9.517000400E-2,-7.850999236E-1,3.014698327E-1,-7.829693705E-2
9.715364600E-2,-7.962851524E-1,3.110572100E-1,-7.510114461E-2
9.913728900E-2,-8.122641444E-1,3.179814517E-1,-7.297061384E-2
1.011514490E-1,-8.250473142E-1,3.265035450E-1,-7.137271762E-2
1.031656090E-1,-8.388957381E-1,3.387540877E-1,-6.764429063E-2
1.051797700E-1,-8.538094759E-1,3.467435837E-1,-6.498113275E-2
1.071328950E-1,-8.665926456E-1,3.611246645E-1,-6.285060197E-2
1.091470550E-1,-8.799084425E-1,3.776362538E-1,-6.178534031E-2
1.111612150E-1,-8.921589851E-1,3.989415467E-1,-5.752427876E-2
1.131753750E-1,-9.006810784E-1,4.181163013E-1,-5.645901710E-2
1.151285000E-1,-9.081379771E-1,4.399542212E-1,-5.539375171E-2
1.171426600E-1,-9.108011127E-1,4.628573954E-1,-5.379585549E-2
1.190957850E-1,-9.155948162E-1,4.873584807E-1,-5.486112088E-2
1.210794280E-1,-9.161274433E-1,5.091964006E-1,-5.379585549E-2
1.230935880E-1,-9.139968753E-1,5.320996046E-1,-5.326322466E-2
1.251382660E-1,-9.139968753E-1,5.555354357E-1,-5.965480953E-2
1.270913910E-1,-9.081379771E-1,5.789712071E-1,-6.338323653E-2
1.290750330E-1,-8.990831971E-1,6.013417840E-1,-7.297061384E-2
1.310891930E-1,-8.910937309E-1,6.210491657E-1,-7.989483327E-2
1.331033540E-1,-8.788431883E-1,6.428871155E-1,-9.001484513E-2
1.351175140E-1,-8.665926456E-1,6.588660479E-1,-9.800432622E-2
1.371316740E-1,-8.500810266E-1,6.764429212E-1,-1.070590764E-1
1.390847990E-1,-8.372978568E-1,6.913566589E-1,-1.134506613E-1
1.410684410E-1,-8.234494328E-1,7.068029642E-1,-1.219727769E-1
1.430826020E-1,-8.080030680E-1,7.249124646E-1,-1.299622655E-1
1.451272790E-1,-7.882956862E-1,7.382282615E-1,-1.342233270E-1
1.470804040E-1,-7.755125165E-1,7.584682703E-1,-1.336906850E-1
1.490640470E-1,-7.574030161E-1,7.803062201E-1,-1.342233270E-1
1.510476890E-1,-7.430219650E-1,7.994809747E-1,-1.368864775E-1
1.530618500E-1,-7.281082273E-1,8.159925938E-1,-1.304948926E-1
1.550760100E-1,-7.147924304E-1,8.399610519E-1,-1.304948926E-1
1.570596520E-1,-6.982808709E-1,8.644620776E-1,-1.267664731E-1
1.590738120E-1,-6.844323874E-1,8.878979087E-1,-1.241033077E-1
1.610879730E-1,-6.695187092E-1,9.108011127E-1,-1.230380461E-1
1.631021330E-1,-6.572681665E-1,9.337043166E-1,-1.203748807E-1
1.650857750E-1,-6.412891746E-1,9.566074610E-1,-1.219727769E-1
1.670694180E-1,-6.322344542E-1,9.752495885E-1,-1.193096191E-1
1.690835780E-1,-6.189186573E-1,9.960222840E-1,-1.187769845E-1
1.710367030E-1,-6.077333689E-1,1.015197039E0,-1.198422536E-1
1.730203460E-1,-6.002765298E-1,1.032773852E0,-1.219727769E-1
1.750345060E-1,-5.885586143E-1,1.049285531E0,-1.288969964E-1
1.770486660E-1,-5.795038939E-1,1.055677056E0,-1.310275346E-1
1.790628260E-1,-5.715143681E-1,1.060470819E0,-1.390170157E-1
1.810159510E-1,-5.656554103E-1,1.064731836E0,-1.438107044E-1
1.829995940E-1,-5.555354357E-1,1.070058107E0,-1.518001854E-1
1.850442710E-1,-5.454154015E-1,1.071655989E0,-1.640507281E-1
1.869973960E-1,-5.427522659E-1,1.071123362E0,-1.794970632E-1
1.889810390E-1,-5.368933082E-1,1.064731836E0,-1.864212751E-1
1.909646820E-1,-5.283711553E-1,1.041296005E0,-2.008023560E-1
1.929788420E-1,-5.230448246E-1,1.006142259E0,-2.189118415E-1
1.949930020E-1,-5.134574771E-1,9.443569183E-1,-2.455434501E-1
1.969461270E-1,-5.049353242E-1,8.735168576E-1,-2.748382390E-1
1.989602870E-1,-4.921521842E-1,7.989483476E-1,-3.067961633E-1
2.009134120E-1,-4.846953154E-1,7.307714224E-1,-3.382214606E-1
2.028970550E-1,-4.767058492E-1,6.727145314E-1,-3.691141307E-1
2.049417320E-1,-4.681837261E-1,5.992112756E-1,-3.914846778E-1
2.069253750E-1,-4.511395097E-1,4.948153496E-1,-4.079962969E-1
2.088785000E-1,-4.330300093E-1,4.250405133E-1,-4.213120937E-1
2.108621430E-1,-4.197141826E-1,3.595267534E-1,-4.277036786E-1
2.128763030E-1,-4.117247164E-1,3.030677438E-1,-4.293015897E-1
2.148904630E-1,-4.021373391E-1,2.753708661E-1,-4.255731404E-1
2.169046230E-1,-3.898867965E-1,2.684466541E-1,-4.170510471E-1
2.188577480E-1,-3.834952116E-1,2.743056118E-1,-4.037352204E-1
2.208413910E-1,-3.728425503E-1,2.838929892E-1,-3.898867965E-1
2.228555510E-1,-3.600593805E-1,2.993393242E-1,-3.723099232E-1
2.249002290E-1,-3.472762108E-1,3.185140789E-1,-3.563309610E-1
2.268533540E-1,-3.334277868E-1,3.360909224E-1,-3.360909224E-1
2.288369960E-1,-3.147856593E-1,3.557983339E-1,-3.131877482E-1
2.308511560E-1,-2.972087860E-1,3.701793849E-1,-2.924150825E-1
2.328653160E-1,-2.737729549E-1,3.856257200E-1,-2.663161159E-1
2.348794770E-1,-2.503371537E-1,3.984089196E-1,-2.402171344E-1
2.368326020E-1,-2.258360684E-1,4.090615511E-1,-2.103897333E-1
2.388162440E-1,-2.002697140E-1,4.197141826E-1,-1.826928556E-1
2.407998870E-1,-1.693770438E-1,4.298342168E-1,-1.539307088E-1
2.428140470E-1,-1.363538504E-1,4.442152679E-1,-1.203748807E-1
2.448282070E-1,-1.033306494E-1,4.543353021E-1,-9.427590668E-2
2.467813320E-1,-7.350324839E-2,4.676510990E-1,-6.072007492E-2
2.487954920E-1,-3.781688958E-2,4.820321798E-1,-3.089267015E-2
2.508096520E-1,-2.130528912E-3,5.001416802E-1,6.924218964E-3
2.527932950E-1,3.728425503E-2,5.187838078E-1,3.941478580E-2
2.547769370E-1,7.403588295E-2,5.416869521E-1,7.403588295E-2
2.567605800E-1,1.187769845E-1,5.624596477E-1,1.081243455E-1
2.587747400E-1,1.587243974E-1,5.901564956E-1,1.427454352E-1
2.607889000E-1,2.008023560E-1,6.167881489E-1,1.784317940E-1
2.627420250E-1,2.460760921E-1,6.428871155E-1,2.114549875E-1
2.647561860E-1,2.924150825E-1,6.684534550E-1,2.444781959E-1
2.667398280E-1,3.376888335E-1,6.860303283E-1,2.769687474E-1
2.687539880E-1,3.866910040E-1,7.052050829E-1,3.057309091E-1
2.707071130E-1,4.383563101E-1,7.318366766E-1,3.339604139E-1
2.726907560E-1,4.868258536E-1,7.515440583E-1,3.605920076E-1
2.747049160E-1,5.390238166E-1,7.717841268E-1,3.845604658E-1
2.766885590E-1,5.869607329E-1,7.957525253E-1,4.074636400E-1
2.787027190E-1,6.386260390E-1,8.143946528E-1,4.245078862E-1
2.807168790E-1,6.908239722E-1,8.399610519E-1,4.426173866E-1
2.827005210E-1,7.414240837E-1,8.660600185E-1,4.559331834E-1
2.847146820E-1,7.904262543E-1,8.948221207E-1,4.697816372E-1
2.866983240E-1,8.367652297E-1,9.241169095E-1,4.788363874E-1
2.887124840E-1,8.836368918E-1,9.661948681E-1,4.926848114E-1
2.906656090E-1,9.257147908E-1,1.010936022E0,4.996090233E-1
2.926492520E-1,9.656622410E-1,1.059405446E0,5.054680109E-1
2.946634120E-1,1.006142259E0,1.120658159E0,5.166532397E-1
2.966775720E-1,1.044491768E0,1.179780364E0,5.225121975E-1
2.986917320E-1,1.082308650E0,1.243696213E0,5.289037824E-1
3.006753750E-1,1.117462397E0,1.311340570E0,5.374259353E-1
3.026590180E-1,1.148887753E0,1.373125911E0,5.443501472E-1
3.047036950E-1,1.182443500E0,1.430650115E0,5.470132828E-1
3.066873380E-1,1.202150941E0,1.454618573E0,5.400890708E-1
3.086404630E-1,1.212803602E0,1.463140726E0,5.235774517E-1
3.106241050E-1,1.215999365E0,1.458347082E0,5.054680109E-1
3.126382660E-1,1.212803602E0,1.445563912E0,4.751079381E-1
3.146524260E-1,1.201085687E0,1.425323844E0,4.367584288E-1
3.166360680E-1,1.180845618E0,1.394963861E0,3.893541694E-1
3.186502290E-1,1.147822499E0,1.358744860E0,3.339604139E-1
3.206643890E-1,1.112668753E0,1.318797350E0,2.641855776E-1
3.226480310E-1,1.066862345E0,1.270860553E0,1.826928556E-1
3.246621910E-1,1.045024395E0,1.242630959E0,1.358212233E-1
3.266458340E-1,9.901633263E-1,1.188835144E0,2.822950855E-2
3.286294770E-1,9.209211469E-1,1.117995024E0,-1.075917110E-1
3.306131190E-1,8.436894417E-1,1.036502361E0,-2.631203234E-1
3.325967620E-1,7.504788041E-1,9.438242912E-1,-4.351605177E-1
3.346109220E-1,6.556702852E-1,8.458199501E-1,-6.157228351E-1
3.366250820E-1,5.496764779E-1,7.510114312E-1,-8.048073053E-1
3.386087250E-1,4.431500137E-1,6.663229465E-1,-9.885654449E-1
3.405923670E-1,3.318298757E-1,5.933523178E-1,-1.164866686E0
3.425760100E-1,2.284992188E-1,5.273059011E-1,-1.331580520E0
3.446206870E-1,1.565938741E-1,4.681837261E-1,-1.487641811E0
3.465738120E-1,1.081243455E-1,4.021373391E-1,-1.621332526E0
3.485879730E-1,8.362326026E-2,3.371562064E-1,-1.732120037E0
3.505410980E-1,7.297061384E-2,2.759034932E-1,-1.824797988E0
3.525552580E-1,7.776430249E-2,2.327602804E-1,-1.893507600E0
3.545694180E-1,9.214537591E-2,2.114549875E-1,-1.956358194E0
3.565225430E-1,1.086569726E-1,2.034655064E-1,-2.005892992E0
3.585367030E-1,1.347559541E-1,2.125202566E-1,-2.050634146E0
3.604898280E-1,1.587243974E-1,2.284992188E-1,-2.088450909E0
3.624734710E-1,1.789644361E-1,2.524676621E-1,-2.122539520E0
3.645181480E-1,1.960086524E-1,2.732403278E-1,-2.156627893E0
3.664712730E-1,2.087918371E-1,2.918824553E-1,-2.182726860E0
3.684549160E-1,2.162486911E-1,2.972087860E-1,-2.215217352E0
3.704690760E-1,2.210423797E-1,2.865561247E-1,-2.243979692E0
3.724832360E-1,2.253034264E-1,2.588592768E-1,-2.270611286E0
3.744973960E-1,2.253034264E-1,2.130528986E-1,-2.293514490E0
3.764505210E-1,2.253034264E-1,1.507349163E-1,-2.313754320E0
3.784341640E-1,2.210423797E-1,7.669904083E-2,-2.331863880E0
3.804483240E-1,2.141181529E-1,-1.331580617E-2,-2.346245050E0
3.824624840E-1,2.087918371E-1,-1.139832959E-1,-2.361158609E0
3.845071620E-1,2.013349831E-1,-2.247707993E-1,-2.369680882E0
3.864602870E-1,1.896170676E-1,-3.467435837E-1,-2.376072407E0
3.884439300E-1,1.826928556E-1,-4.655205607E-1,-2.383529186E0
3.904580900E-1,1.757686287E-1,-5.885586143E-1,-2.382996559E0
3.924722500E-1,1.672465205E-1,-7.137271762E-1,-2.382996559E0
3.944864100E-1,1.651159972E-1,-8.362326026E-1,-2.379268169E0
3.964395350E-1,1.757686287E-1,-9.550095797E-1,-2.363821745E0
3.984536950E-1,1.896170676E-1,-1.073253989E0,-2.344647169E0
4.004678550E-1,2.039981484E-1,-1.202150941E0,-2.324939728E0
4.024209800E-1,2.183792144E-1,-1.336906910E0,-2.302036524E0
4.044656580E-1,2.359560728E-1,-1.483380795E0,-2.275404930E0
4.064187830E-1,2.487392575E-1,-1.623995662E0,-2.245044947E0
4.084024260E-1,2.689792812E-1,-1.766741157E0,-2.220543861E0
4.103860680E-1,2.876214087E-1,-1.910551786E0,-2.189651012E0
4.124002290E-1,3.094593287E-1,-2.050101519E0,-2.159823656E0
4.144143890E-1,3.371562064E-1,-2.183259487E0,-2.132659435E0
4.164285490E-1,3.648530841E-1,-2.314819574E0,-2.104962587E0
4.183816740E-1,3.930825889E-1,-2.454369307E0,-2.075135231E0
4.203653160E-1,4.277036786E-1,-2.599777937E0,-2.050101519E0
4.223794770E-1,4.538026452E-1,-2.759034872E0,-2.029861450E0
4.244241540E-1,4.772384763E-1,-2.931075096E0,-2.008556128E0
4.263772790E-1,5.006743073E-1,-3.115365982E0,-1.991511941E0
4.283609220E-1,5.177185535E-1,-3.322559834E0,-1.978196144E0
4.303750820E-1,5.336974859E-1,-3.531351566E0,-1.970206618E0
4.323892420E-1,5.416869521E-1,-3.725762367E0,-1.958488703E0
4.343423670E-1,5.475459099E-1,-3.898867846E0,-1.955825567E0
4.363565270E-1,5.528722405E-1,-4.074103832E0,-1.946770787E0
4.383096520E-1,5.379585624E-1,-4.246676922E0,-1.946238160E0
4.403238120E-1,5.139901042E-1,-4.402205467E0,-1.941444516E0
4.423379730E-1,4.825648069E-1,-4.572114944E0,-1.938781261E0
4.443521330E-1,4.388889670E-1,-4.747351170E0,-1.937716007E0
4.463052580E-1,3.850930929E-1,-4.936435699E0,-1.940379262E0
4.483194180E-1,3.169161677E-1,-5.138303280E0,-1.939313889E0
4.503335780E-1,2.386192381E-1,-5.351356030E0,-1.938248634E0
4.523477380E-1,1.454086006E-1,-5.582518578E0,-1.937716007E0
4.543313810E-1,4.687163606E-2,-5.816343784E0,-1.933987617E0
4.563150230E-1,-5.752427876E-2,-6.050702095E0,-1.923867583E0
4.582986660E-1,-1.528654546E-1,-6.071474552E0,-1.912682295E0
4.603128260E-1,-6.263754964E-1,-5.448295116E0,-1.936118126E0
4.623269860E-1,-1.023719192E0,-4.914064884E0,-1.956358194E0
4.643106290E-1,-1.146224499E0,-4.863464832E0,-1.945705533E0
4.662637540E-1,-1.152616143E0,-4.911934376E0,-1.931857109E0
4.682779140E-1,-1.123854041E0,-4.951349258E0,-1.924400210E0
4.702615570E-1,-1.094559193E0,-4.949751377E0,-1.914812803E0
4.722451990E-1,-1.095624447E0,-4.836300850E0,-1.895638108E0
4.742288420E-1,-1.163801432E0,-4.599812031E0,-1.869539142E0
4.762124840E-1,-1.265001535E0,-4.285026073E0,-1.835450649E0
4.781961270E-1,-1.345429063E0,-3.994741678E0,-1.801894784E0
4.802102870E-1,-1.365669012E0,-3.628823280E0,-1.763545275E0
4.822244470E-1,-1.310807943E0,-2.892193079E0,-1.715608358E0
4.842080900E-1,-1.194694042E0,-1.986185551E0,-1.666073561E0
4.861917320E-1,-1.180312991E0,-1.478587031E0,-1.621332526E0
4.881753750E-1,-1.205879331E0,-1.234108925E0,-1.572330356E0
4.901590180E-1,-1.256479383E0,-1.119060278E0,-1.524393439E0
4.921731780E-1,-1.355016351E0,-7.169229984E-1,-1.465271235E0
4.941873380E-1,-1.499892354E0,-9.800432622E-2,-1.390702724E0
4.962014980E-1,-1.642105103E0,4.452805519E-1,-1.326786876E0
4.981546230E-1,-1.744370580E0,7.909588814E-1,-1.275654197E0
5.001382660E-1,-1.820004344E0,9.161274433E-1,-1.226119399E0
5.021524260E-1,-1.867941260E0,8.815063238E-1,-1.161138296E0
5.041971040E-1,-1.886050701E0,7.616640925E-1,-1.080710769E0
5.061502290E-1,-1.881789684E0,6.130596995E-1,-9.933590889E-1
5.081338710E-1,-1.851429582E0,4.740426838E-1,-8.996158242E-1
5.101480310E-1,-1.792307496E0,3.531351686E-1,-8.106662631E-1
5.121621910E-1,-1.719336867E0,2.561961114E-1,-7.179882526E-1
5.141458340E-1,-1.627724051E0,1.720402092E-1,-6.295713186E-1
5.161294770E-1,-1.537176609E0,8.948221803E-2,-5.486112237E-1
5.181436370E-1,-1.442900658E0,1.012001187E-2,-4.878911078E-1
5.200967620E-1,-1.355016351E0,-5.858954415E-2,-4.420847595E-1
5.220804040E-1,-1.275654197E0,-9.800432622E-2,-4.079962969E-1
5.241250820E-1,-1.203216195E0,-9.587380290E-2,-3.925499618E-1
5.260782070E-1,-1.143561363E0,-4.314320907E-2,-3.818973005E-1
5.280618500E-1,-1.092428684E0,6.338323653E-2,-3.755057156E-1
5.300760100E-1,-1.048220277E0,1.837581247E-1,-3.669835925E-1
5.320901700E-1,-1.006674886E0,3.062635362E-1,-3.568635881E-1
5.341043300E-1,-9.656622410E-1,4.032025933E-1,-3.472762108E-1
5.360879730E-1,-9.267801046E-1,4.735100567E-1,-3.323625028E-1
5.380716150E-1,-8.841695189E-1,5.262406468E-1,-3.163835406E-1
5.400552580E-1,-8.420915604E-1,5.704491138E-1,-2.961435318E-1
5.420694180E-1,-8.021441102E-1,6.135923266E-1,-2.668487430E-1
5.440835780E-1,-7.643272281E-1,6.609966159E-1,-2.338255495E-1
5.460367030E-1,-7.286409140E-1,7.073355913E-1,-1.981391907E-1
5.480508630E-1,-6.940197945E-1,7.574030161E-1,-1.597896665E-1
5.500650230E-1,-6.583334208E-1,7.973504663E-1,-1.225054115E-1
5.520791840E-1,-6.263754964E-1,8.362326026E-1,-8.202536404E-2
5.540323090E-1,-5.928196907E-1,8.676578999E-1,-4.740426689E-2
5.560464690E-1,-5.629922748E-1,8.926916122E-1,-8.522115648E-3
5.580301110E-1,-5.310343504E-1,9.123989940E-1,2.663161233E-2
5.600137540E-1,-5.006743073E-1,9.246495366E-1,5.592638254E-2
5.620279140E-1,-4.724447727E-1,9.251821637E-1,8.309062570E-2
5.640420740E-1,-4.452805519E-1,9.198558331E-1,1.102548689E-1
5.659951990E-1,-4.186489284E-1,9.044095278E-1,1.358212233E-1
5.680093590E-1,-3.914846778E-1,8.815063238E-1,1.565938741E-1
5.700235200E-1,-3.669835925E-1,8.559399843E-1,1.747033745E-1
5.720071620E-1,-3.392867148E-1,8.245146871E-1,1.890844405E-1
5.739908050E-1,-3.163835406E-1,7.882956862E-1,2.039981484E-1
5.759744470E-1,-2.929477394E-1,7.504788041E-1,2.178465873E-1
5.779886070E-1,-2.668487430E-1,7.073355913E-1,2.311623842E-1
5.800027680E-1,-2.423476577E-1,6.583334208E-1,2.455434501E-1
5.819864100E-1,-2.183792144E-1,6.013417840E-1,2.620550692E-1
5.840005700E-1,-1.933455020E-1,5.438175201E-1,2.801645398E-1
5.859842130E-1,-1.629854590E-1,4.761732221E-1,2.982740402E-1
5.879983730E-1,-1.384843737E-1,4.122573435E-1,3.217098713E-1
5.899820160E-1,-1.129180342E-1,3.472762108E-1,3.456783295E-1
5.919656580E-1,-8.841694891E-2,2.822950780E-1,3.691141307E-1
5.939493010E-1,-7.350324839E-2,2.476739883E-1,3.845604658E-1
5.959634610E-1,-4.633900523E-2,1.768338978E-1,4.079962969E-1
5.979165860E-1,-1.704423130E-2,9.853696078E-2,4.335626364E-1
5.999002290E-1,1.171790902E-2,2.077265643E-2,4.623247683E-1
6.019143890E-1,3.941478580E-2,-6.125270575E-2,4.889563918E-1
6.039590660E-1,7.030745596E-2,-1.459412277E-1,5.177185535E-1
6.059121910E-1,9.960222989E-2,-2.258360684E-1,5.411543250E-1
6.078958340E-1,1.304948926E-1,-3.073287904E-1,5.704491138E-1
6.099099940E-1,1.581917703E-1,-3.946804702E-1,5.954828262E-1
6.119241540E-1,1.901497096E-1,-4.793690145E-1,6.215817928E-1
6.139077970E-1,2.178465873E-1,-5.677859783E-1,6.444849968E-1
6.158914390E-1,2.487392575E-1,-6.572681665E-1,6.705839634E-1
6.178750820E-1,2.828277051E-1,-7.456851006E-1,6.950850487E-1
6.198892420E-1,3.115898669E-1,-8.367652297E-1,7.195861340E-1
6.219034020E-1,3.440804183E-1,-9.305084944E-1,7.440872192E-1
6.238870450E-1,3.802994192E-1,-1.021588564E0,7.685883045E-1
6.258401700E-1,4.106594622E-1,-1.119060278E0,7.925567627E-1
6.278543300E-1,4.474110603E-1,-1.214934111E0,8.133293986E-1
6.298379730E-1,4.814995229E-1,-1.307079434E0,8.362326026E-1
6.318216150E-1,5.182511806E-1,-1.401888013E0,8.570052385E-1
6.338357750E-1,5.571333170E-1,-1.499892354E0,8.777779341E-1
6.358194180E-1,5.928196907E-1,-1.596831441E0,8.969526887E-1
6.378030610E-1,6.338323355E-1,-1.695901036E0,9.155948162E-1
6.398172210E-1,6.732471585E-1,-1.794970632E0,9.326390028E-1
6.418313810E-1,7.142598033E-1,-1.896170735E0,9.502158761E-1
6.438455410E-1,7.584682703E-1,-1.998436093E0,9.661948681E-1
6.458291840E-1,8.010788560E-1,-2.100168943E0,9.800432920E-1
6.478433440E-1,8.410263062E-1,-2.198705912E0,9.906959534E-1
6.498269860E-1,8.873652816E-1,-2.296177626E0,1.003479123E0
6.518106290E-1,9.337043166E-1,-2.390985966E0,1.010403395E0
6.538247890E-1,9.779127836E-1,-2.479403019E0,1.019990683E0
6.558084320E-1,1.023186564E0,-2.565689325E0,1.029045463E0
6.578225920E-1,1.068460226E0,-2.647182226E0,1.033839107E0
6.597757170E-1,1.113201380E0,-2.722283363E0,1.038632870E0
6.617593590E-1,1.155279279E0,-2.793123484E0,1.041828632E0
6.638040370E-1,1.196292043E0,-2.850647688E0,1.043426514E0
6.657571620E-1,1.235706806E0,-2.909769773E0,1.043426514E0
6.677408050E-1,1.274588943E0,-2.963033199E0,1.049285531E0
6.697549650E-1,1.310275316E0,-3.016829014E0,1.044491768E0
6.717691250E-1,1.345429063E0,-3.069559574E0,1.037567616E0
6.737832850E-1,1.372593284E0,-3.121224880E0,1.032241225E0
6.757364100E-1,1.401888013E0,-3.167563915E0,1.020523310E0
6.777200530E-1,1.426921725E0,-3.213902950E0,1.007207513E0
6.797036950E-1,1.450890183E0,-3.257045984E0,9.906959534E-1
6.817178550E-1,1.471662879E0,-3.294330359E0,9.667274952E-1
6.837625330E-1,1.487109184E0,-3.328951359E0,9.390306473E-1
6.857156580E-1,1.499359727E0,-3.359844208E0,9.123989940E-1
6.876993010E-1,1.508414507E0,-3.384877920E0,8.745821118E-1
6.897134610E-1,1.512675524E0,-3.400856733E0,8.303736448E-1
6.917276210E-1,1.507349253E0,-3.409379005E0,7.840346098E-1
6.937417810E-1,1.494033456E0,-3.388606310E0,7.329019308E-1
6.956949060E-1,1.462608099E0,-3.352387190E0,6.785734296E-1
6.976785490E-1,1.419997573E0,-3.292199850E0,6.173207760E-1
6.996927090E-1,1.364603758E0,-3.227218628E0,5.486112237E-1
7.017068690E-1,1.301220536E0,-3.154780626E0,4.767058492E-1
7.037210290E-1,1.226652026E0,-3.072755337E0,4.021373391E-1
7.056741540E-1,1.145691872E0,-2.976881504E0,3.233077526E-1
7.076883140E-1,1.056209683E0,-2.866626740E0,2.375539690E-1
7.097024750E-1,9.656622410E-1,-2.752643347E0,1.533980817E-1
7.116861170E-1,8.719189763E-1,-2.624279022E0,6.018744037E-2
7.136697600E-1,7.771103978E-1,-2.482598782E0,-2.822950855E-2
7.156839200E-1,6.812366247E-1,-2.336124897E0,-1.203748807E-1
7.176675620E-1,5.874933600E-1,-2.180063725E0,-2.114549875E-1
7.196512050E-1,4.921521842E-1,-2.025067806E0,-3.025351167E-1
7.216348480E-1,3.989415467E-1,-1.876463294E0,-3.968110085E-1
7.236490080E-1,3.153182864E-1,-1.760349512E0,-4.852279723E-1
7.256021330E-1,2.790992856E-1,-1.711879969E0,-5.241101384E-1
7.276162930E-1,2.103897333E-1,-1.625060916E0,-5.885586143E-1
7.296304530E-1,1.459412277E-1,-1.543568254E0,-6.343649626E-1
7.315835780E-1,9.054747969E-2,-1.476989150E0,-6.636597514E-1
7.335672210E-1,3.302319720E-2,-1.425856471E0,-6.785734296E-1
7.355508630E-1,-1.810949668E-2,-1.389104843E0,-6.785734296E-1
7.375650230E-1,-6.551376730E-2,-1.366201639E0,-6.705839634E-1
7.395791840E-1,-1.086569726E-1,-1.348624825E0,-6.588660479E-1
7.415323090E-1,-1.486043930E-1,-1.338504791E0,-6.434197426E-1
7.435464690E-1,-1.890844405E-1,-1.326786876E0,-6.279733777E-1
7.455301110E-1,-2.242381722E-1,-1.315068960E0,-6.173207760E-1
7.475747890E-1,-2.524676621E-1,-1.298557401E0,-6.029396653E-1
7.494973960E-1,-2.790992856E-1,-1.276186824E0,-5.944175720E-1
7.514810390E-1,-3.046656251E-1,-1.245294094E0,-5.906891227E-1
7.534951990E-1,-3.217098713E-1,-1.208009839E0,-5.853627920E-1
7.554788420E-1,-3.360909224E-1,-1.165931940E0,-5.864281058E-1
7.574930020E-1,-3.504720032E-1,-1.116929770E0,-5.880259871E-1
7.595071620E-1,-3.552657068E-1,-1.064731836E0,-5.864281058E-1
7.615213220E-1,-3.573962152E-1,-1.013066530E0,-5.896238685E-1
7.635049650E-1,-3.595267534E-1,-9.614011645E-1,-5.960154533E-1
7.654886070E-1,-3.563309610E-1,-9.060074091E-1,-6.018744111E-1
7.675027680E-1,-3.472762108E-1,-8.463526368E-1,-6.087986231E-1
7.695169280E-1,-3.350256681E-1,-7.898935676E-1,-6.173207760E-1
7.714700530E-1,-3.174487948E-1,-7.323693037E-1,-6.306365728E-1
7.734536950E-1,-2.966761589E-1,-6.812366247E-1,-6.396912932E-1
7.754373380E-1,-2.684466541E-1,-6.332997084E-1,-6.519418359E-1
7.774514980E-1,-2.423476577E-1,-5.906891227E-1,-6.625944972E-1
7.794656580E-1,-2.109223604E-1,-5.491438508E-1,-6.769755483E-1
7.814187830E-1,-1.757686287E-1,-5.118595958E-1,-6.870955825E-1
7.834329430E-1,-1.358212233E-1,-4.729774296E-1,-6.993461251E-1
7.854165860E-1,-9.534116834E-2,-4.346278906E-1,-7.094660997E-1
7.874002290E-1,-5.379585549E-2,-3.946804702E-1,-7.131945491E-1
7.893838710E-1,-3.728425596E-3,-3.494067490E-1,-7.179882526E-1
7.913675140E-1,4.527373984E-2,-3.025351167E-1,-7.233145833E-1
7.933816740E-1,9.640643001E-2,-2.577939928E-1,-7.275756001E-1
7.953653160E-1,1.422128081E-1,-2.114549875E-1,-7.281082273E-1
7.973794770E-1,1.933455020E-1,-1.661812514E-1,-7.254450917E-1
7.993936370E-1,2.375539690E-1,-1.219727769E-1,-7.249124646E-1
8.014077970E-1,2.822950780E-1,-7.723167539E-2,-7.249124646E-1
8.033914390E-1,3.201119602E-1,-3.568635881E-2,-7.217166424E-1
8.053750820E-1,3.579288721E-1,-1.065264456E-3,-7.201187611E-1
8.073282070E-1,3.936152160E-1,3.568635881E-2,-7.147924304E-1
8.093118500E-1,4.255731404E-1,6.870955974E-2,-7.115966678E-1
8.113260100E-1,4.495415986E-1,9.480853379E-2,-7.046724558E-1
8.133401700E-1,4.729774296E-1,1.209075153E-1,-6.977482438E-1
8.153238120E-1,4.884237647E-1,1.368864775E-1,-6.886934638E-1
8.173074550E-1,4.996090233E-1,1.512675583E-1,-6.801713705E-1
8.192910980E-1,5.044026971E-1,1.597896665E-1,-6.737797856E-1
8.213052580E-1,5.060006380E-1,1.528654546E-1,-6.657902598E-1
8.233194180E-1,4.980111420E-1,1.443433315E-1,-6.599313021E-1
8.252725430E-1,4.857605994E-1,1.241033077E-1,-6.514092088E-1
8.272867030E-1,4.697816372E-1,9.747169912E-2,-6.482134461E-1
8.293008630E-1,4.495415986E-1,7.137271762E-2,-6.402239203E-1
8.312845060E-1,4.218447208E-1,5.432848632E-2,-6.418218613E-1
8.332681480E-1,3.952131271E-1,2.556634694E-2,-6.380934119E-1
8.352517910E-1,3.744404614E-1,-9.054748341E-3,-6.343649626E-1
8.372354340E-1,3.547330499E-1,-4.261057824E-2,-6.322344542E-1
8.392190760E-1,3.440804183E-1,-7.350324839E-2,-6.226470470E-1
8.412332360E-1,3.328951299E-1,-9.747169912E-2,-6.205165386E-1
8.432779140E-1,3.328951299E-1,-1.235706806E-1,-6.077333689E-1
8.452005210E-1,3.302319944E-1,-1.422128081E-1,-5.992112756E-1
8.472146820E-1,3.376888335E-1,-1.741707325E-1,-5.853627920E-1
8.492288420E-1,3.515372574E-1,-1.885518134E-1,-5.736449361E-1
8.512430020E-1,3.659183383E-1,-1.960086524E-1,-5.576659441E-1
8.531961270E-1,3.850930929E-1,-1.986718178E-1,-5.438175201E-1
8.551797700E-1,4.026699662E-1,-2.024002522E-1,-5.320996046E-1
8.571939300E-1,4.245078862E-1,-2.002697140E-1,-5.150553584E-1
8.592080900E-1,4.490089715E-1,-1.986718178E-1,-4.985437691E-1
8.612222500E-1,4.772384763E-1,-2.061286718E-1,-4.777711034E-1
8.632058930E-1,5.028048158E-1,-2.087918371E-1,-4.580637217E-1
8.651590180E-1,5.289037824E-1,-2.018676102E-1,-4.436826408E-1
8.671731780E-1,5.496764779E-1,-1.874865443E-1,-4.293015897E-1
8.691568200E-1,5.704491138E-1,-1.890844405E-1,-4.111920893E-1
8.711404630E-1,5.922870636E-1,-1.912149638E-1,-3.925499618E-1
8.731546230E-1,6.151902080E-1,-1.821602285E-1,-3.771036267E-1
8.751382660E-1,6.354302764E-1,-1.613875628E-1,-3.616572917E-1
8.771219080E-1,6.482134461E-1,-1.528654546E-1,-3.446130455E-1
8.791360680E-1,6.593986750E-1,-1.502022892E-1,-3.286340833E-1
8.811502290E-1,6.689860821E-1,-1.486043930E-1,-3.105245829E-1
8.831643890E-1,6.743124127E-1,-1.496696621E-1,-2.897519469E-1
8.851480310E-1,6.737797856E-1,-1.565938741E-1,-2.700445354E-1
8.871621910E-1,6.716492176E-1,-1.608549356E-1,-2.530003190E-1
8.891153160E-1,6.641923785E-1,-1.704423130E-1,-2.316950262E-1
8.910989590E-1,6.514092088E-1,-1.816275865E-1,-2.157160491E-1
8.931131190E-1,6.375607848E-1,-1.992044598E-1,-1.976065636E-1
8.951272790E-1,6.141249537E-1,-2.146507949E-1,-1.816275865E-1
8.971109220E-1,5.906891227E-1,-2.284992188E-1,-1.672465205E-1
8.990945640E-1,5.619270205E-1,-2.428802997E-1,-1.539307088E-1
9.011087250E-1,5.294364095E-1,-2.588592768E-1,-1.432780623E-1
9.031534020E-1,4.889563918E-1,-2.721750736E-1,-1.294296384E-1
9.051065270E-1,4.479437172E-1,-2.828277051E-1,-1.171790883E-1
9.070901700E-1,4.026699662E-1,-2.913498282E-1,-1.054611802E-1
9.091043300E-1,3.531351686E-1,-2.982740402E-1,-9.108011425E-2
9.111184900E-1,2.998719513E-1,-3.036003709E-1,-7.882957160E-2
9.131021330E-1,2.498045117E-1,-3.057309091E-1,-6.870955974E-2
9.150857750E-1,1.944107562E-1,-3.051982522E-1,-5.699164793E-2
9.170694180E-1,1.454086006E-1,-2.982740402E-1,-4.580637068E-2
9.190530610E-1,9.267801046E-2,-2.940129936E-1,-3.675162420E-2
9.210672210E-1,4.367584363E-2,-2.838929892E-1,-2.396845073E-2
9.231118980E-1,-1.597896684E-3,-2.737729549E-1,-1.012001187E-2
9.250650230E-1,-4.314320907E-2,-2.561961114E-1,-2.663161140E-3
9.270486660E-1,-8.255799860E-2,-2.263686955E-1,8.522115648E-3
9.290628260E-1,-1.177117229E-1,-1.976065636E-1,2.290318534E-2
9.310769860E-1,-1.491370201E-1,-1.725728363E-1,3.621899337E-2
9.330606290E-1,-1.768338978E-1,-1.454086006E-1,4.687163606E-2
9.350442710E-1,-2.008023560E-1,-1.171790883E-1,5.699164793E-2
9.370279140E-1,-2.194444835E-1,-8.681905270E-2,7.243798673E-2
9.390420740E-1,-2.354234457E-1,-5.752427876E-2,8.255799860E-2
9.410562340E-1,-2.498045117E-1,-2.343581803E-2,9.853696078E-2
9.430398770E-1,-2.530003190E-1,4.793690052E-3,1.118527651E-1
9.449930020E-1,-2.577939928E-1,3.142530099E-2,1.219727769E-1
9.470071620E-1,-2.583266199E-1,5.539375171E-2,1.368864775E-1
9.489908050E-1,-2.498045117E-1,8.042746782E-2,1.512675583E-1
9.509744470E-1,-2.434129268E-1,1.027980223E-1,1.613875628E-1
9.529886070E-1,-2.338255495E-1,1.219727769E-1,1.731054783E-1
9.549722500E-1,-2.221076339E-1,1.400822699E-1,1.880191714E-1
9.569558930E-1,-2.066612989E-1,1.512675583E-1,1.981391907E-1
9.589700530E-1,-1.901497096E-1,1.608549356E-1,2.114549875E-1
9.609842130E-1,-1.693770438E-1,1.661812514E-1,2.205097377E-1
9.629678550E-1,-1.518001854E-1,1.661812514E-1,2.300971150E-1
9.649514980E-1,-1.310275346E-1,1.656486243E-1,2.391518652E-1
9.669656580E-1,-1.081243455E-1,1.619201899E-1,2.460760921E-1
9.689187830E-1,-8.788431436E-2,1.539307088E-1,2.556634545E-1
9.709024260E-1,-6.604639441E-2,1.496696621E-1,2.620550692E-1
9.729165860E-1,-4.740426689E-2,1.416801661E-1,2.679139972E-1
9.749307460E-1,-2.929477207E-2,1.384843737E-1,2.743056118E-1
9.769449060E-1,-9.587380104E-3,1.384843737E-1,2.775014043E-1
9.788980310E-1,2.663161140E-3,1.395496428E-1,2.817624509E-1
9.808816740E-1,1.331580617E-2,1.422128081E-1,2.806971967E-1
9.829263520E-1,2.343581803E-2,1.475391239E-1,2.860234976E-1
9.848794770E-1,2.609897964E-2,1.507349163E-1,2.881540358E-1
9.868631190E-1,3.355583176E-2,1.539307088E-1,2.913498282E-1
9.888772790E-1,3.462109342E-2,1.560612470E-1,2.945456207E-1
9.908914390E-1,3.568635881E-2,1.619201899E-1,2.982740402E-1
9.929056000E-1,2.982740477E-2,1.592570394E-1,3.051982522E-1
9.948587250E-1,2.556634694E-2,1.619201899E-1,3.089267015E-1
9.968728850E-1,1.278317347E-2,1.613875628E-1,3.089267015E-1
9.988260100E-1,7.989482954E-3,1.699096859E-1,3.094593287E-1
1.000809652E0,4.261057824E-3,1.864212751E-1,3.094593287E-1
1.002854330E0,1.597896684E-3,2.077265680E-1,3.083940744E-1
1.004807455E0,-1.065264456E-3,2.242381722E-1,3.057309091E-1
1.006791098E0,-3.728425596E-3,2.444781959E-1,3.014698327E-1
1.008805258E0,-6.924218964E-3,2.652508616E-1,2.945456207E-1
1.010819418E0,-6.924218964E-3,2.876214087E-1,2.897519469E-1
1.012803061E0,-6.924218964E-3,3.099919558E-1,2.838929892E-1
1.014786703E0,-8.522115648E-3,3.291667104E-1,2.764361203E-1
1.016770346E0,-5.858954508E-3,3.456783295E-1,2.743056118E-1
1.018784506E0,-6.924218964E-3,3.632551730E-1,2.769687474E-1
1.020798666E0,-4.793690052E-3,3.824299276E-1,2.790992856E-1
1.022782309E0,-4.261057824E-3,4.000068009E-1,2.806971967E-1
1.024765951E0,3.195793368E-3,4.143878818E-1,2.822950780E-1
1.026780111E0,4.261057824E-3,4.234426320E-1,2.828277051E-1
1.028763754E0,1.757686399E-2,4.554005563E-1,2.844256163E-1
1.030747396E0,2.450108156E-2,4.729774296E-1,2.870887816E-1
1.032761557E0,3.462109342E-2,4.820321798E-1,2.860234976E-1
1.034745199E0,4.367584363E-2,4.804342687E-1,2.854908705E-1
1.036728842E0,5.432848632E-2,4.692489803E-1,2.876214087E-1
1.038743002E0,6.125270575E-2,4.538026452E-1,2.865561247E-1
1.040757162E0,6.604639441E-2,4.330300093E-1,2.870887816E-1
1.042771322E0,7.297061384E-2,4.111920893E-1,2.822950780E-1
1.044754965E0,7.936219871E-2,4.010720551E-1,2.785666585E-1
1.046769125E0,8.468852192E-2,3.888215125E-1,2.716424465E-1
1.048752768E0,9.267801046E-2,3.776362538E-1,2.684466541E-1
1.050736410E0,9.587380290E-2,3.701793849E-1,2.641855776E-1
1.052750570E0,1.043959185E-1,3.605920076E-1,2.631203234E-1
1.054734213E0,1.102548689E-1,3.488741219E-1,2.631203234E-1
1.056748373E0,1.166464612E-1,3.408846259E-1,2.652508616E-1
1.058701498E0,1.187769845E-1,3.259709179E-1,2.679139972E-1
1.060685141E0,1.246359423E-1,3.131877482E-1,2.737729549E-1
1.062729818E0,1.262338310E-1,2.940129936E-1,2.764361203E-1
1.064682943E0,1.288969964E-1,2.737729549E-1,2.838929892E-1
1.066666586E0,1.304948926E-1,2.540655732E-1,2.993393242E-1
1.068680746E0,1.288969964E-1,2.332929224E-1,3.067961633E-1
1.070694906E0,1.230380461E-1,2.018676102E-1,3.195793331E-1
1.072678549E0,1.150485575E-1,1.725728363E-1,3.360909224E-1
1.074662191E0,1.102548689E-1,1.448759735E-1,3.499393761E-1
1.076645834E0,1.001348570E-1,1.161138266E-1,3.643204570E-1
1.078629477E0,9.480853379E-2,8.202536404E-2,3.797667921E-1
1.080643637E0,8.575379103E-2,5.273059011E-2,4.016047120E-1
1.082688314E0,7.403588295E-2,2.769687586E-2,4.186489284E-1
1.084641439E0,5.858954415E-2,9.587380104E-3,4.330300093E-1
1.086625082E0,4.101268202E-2,-6.391586736E-3,4.479437172E-1
1.088639242E0,2.556634694E-2,-1.970739290E-2,4.617921412E-1
1.090653402E0,7.456851192E-3,-3.036003746E-2,4.740426838E-1
1.092637045E0,-9.587380104E-3,-3.994741663E-2,4.884237647E-1
1.094620687E0,-2.556634694E-2,-4.953479767E-2,4.996090233E-1
1.096604330E0,-4.261057824E-2,-4.740426689E-2,5.075985193E-1
1.098618490E0,-5.539375171E-2,-4.846953228E-2,5.171858668E-1
1.100632650E0,-6.870955974E-2,-3.728425503E-2,5.251753926E-1
1.102616293E0,-8.202536404E-2,-3.142530099E-2,5.358279943E-1
1.104569418E0,-9.054747969E-2,-1.171790902E-2,5.390238166E-1
1.106583578E0,-9.747169912E-2,1.065264456E-2,5.486112237E-1
1.108567221E0,-1.065264493E-1,5.006742850E-2,5.491438508E-1
1.110550863E0,-1.102548689E-1,8.149272949E-2,5.518069863E-1
1.112565023E0,-1.097222418E-1,1.102548689E-1,5.512743592E-1
1.114548666E0,-1.038632840E-1,1.390170157E-1,5.496764779E-1
1.116532309E0,-1.033306494E-1,1.533980817E-1,5.475459099E-1
1.118546469E0,-9.534116834E-2,1.837581247E-1,5.448827744E-1
1.120560629E0,-8.415589482E-2,2.077265680E-1,5.459480286E-1
1.122574789E0,-6.604639441E-2,2.444781959E-1,5.443501472E-1
1.124527914E0,-6.285060197E-2,2.519350350E-1,5.443501472E-1
1.126542074E0,-4.793690145E-2,2.785666585E-1,5.406216979E-1
1.128525717E0,-3.621899337E-2,3.025351167E-1,5.374259353E-1
1.130509359E0,-2.237055451E-2,3.355582952E-1,5.336974859E-1
1.132493002E0,-1.118527725E-2,3.632551730E-1,5.246427655E-1
1.134476645E0,4.261057824E-3,3.866910040E-1,5.139901042E-1
1.136490805E0,1.864212751E-2,4.085289240E-1,5.044026971E-1
1.138443930E0,3.408846259E-2,4.239752591E-1,4.926848114E-1
1.140427572E0,4.740426689E-2,4.410194755E-1,4.836300611E-1
1.142472250E0,6.178534031E-2,4.554005563E-1,4.692489803E-1
1.144425375E0,7.989483327E-2,4.708468914E-1,4.569984376E-1
1.146439535E0,9.427590668E-2,4.809668958E-1,4.452805519E-1
1.148392660E0,1.118527651E-1,4.926848114E-1,4.340952635E-1
1.150406820E0,1.225054115E-1,4.980111420E-1,4.191815555E-1
1.152420980E0,1.368864775E-1,5.070658922E-1,4.053331316E-1
1.154374105E0,1.475391239E-1,5.118595958E-1,3.952131271E-1
1.156388266E0,1.597896665E-1,5.155879855E-1,3.813646734E-1
1.158341391E0,1.715075821E-1,5.214469433E-1,3.664509654E-1
1.160325033E0,1.752360016E-1,5.246427655E-1,3.563309610E-1
1.162369711E0,1.842907518E-1,5.299690962E-1,3.392867148E-1
1.164322836E0,1.922802329E-1,5.336974859E-1,3.243730366E-1
1.166306479E0,1.965412945E-1,5.379585624E-1,3.083940744E-1
1.168320639E0,2.029328793E-1,5.448827744E-1,2.929477394E-1
1.170334799E0,2.066612989E-1,5.491438508E-1,2.833603323E-1
1.172348959E0,2.135855258E-1,5.560680628E-1,2.705771625E-1
1.174302084E0,2.178465873E-1,5.624596477E-1,2.588592768E-1
1.176285727E0,2.231729031E-1,5.661880374E-1,2.503371537E-1
1.178299887E0,2.290318608E-1,5.731122494E-1,2.359560728E-1
1.180314047E0,2.311623842E-1,5.800365210E-1,2.274339646E-1
1.182328207E0,2.380866110E-1,5.869607329E-1,2.199771106E-1
1.184281332E0,2.396845073E-1,5.949501991E-1,2.141181529E-1
1.186295492E0,2.466087192E-1,6.018744111E-1,2.109223604E-1
1.188309652E0,2.466087192E-1,6.066681147E-1,2.050634027E-1
1.190262777E0,2.503371537E-1,6.141249537E-1,2.008023560E-1
1.192246420E0,2.530003190E-1,6.167881489E-1,1.986718178E-1
1.194230062E0,2.524676621E-1,6.205165386E-1,1.933455020E-1
1.196213705E0,2.540655732E-1,6.290386319E-1,1.954760253E-1
1.198227865E0,2.551308274E-1,6.338323355E-1,1.944107562E-1
1.200242025E0,2.588592768E-1,6.370281577E-1,1.928128600E-1
1.202256186E0,2.567287385E-1,6.466155052E-1,1.965412945E-1
1.204239828E0,2.604571581E-1,6.498113275E-1,1.954760253E-1
1.206253988E0,2.572613657E-1,6.540724039E-1,1.986718178E-1
1.208237631E0,2.583266199E-1,6.567355394E-1,1.986718178E-1
1.210221273E0,2.561961114E-1,6.588660479E-1,2.024002522E-1
1.212235434E0,2.540655732E-1,6.604639888E-1,2.050634027E-1
1.214219076E0,2.498045117E-1,6.562029123E-1,2.087918371E-1
1.216233236E0,2.508697808E-1,6.540724039E-1,2.162486911E-1
1.218216879E0,2.476739883E-1,6.535397172E-1,2.183792144E-1
1.220200521E0,2.402171344E-1,6.503439546E-1,2.226402760E-1
1.222245199E0,2.364887148E-1,6.471481323E-1,2.311623842E-1
1.224228842E0,2.284992188E-1,6.391586661E-1,2.295644879E-1
1.226181967E0,2.221076339E-1,6.285060048E-1,2.386192381E-1
1.228165609E0,2.146507949E-1,6.221144199E-1,2.423476577E-1
1.230179770E0,2.098570913E-1,6.205165386E-1,2.471413612E-1
1.232193930E0,2.066612989E-1,6.135923266E-1,2.487392575E-1
1.234147055E0,2.002697140E-1,6.050702333E-1,2.567287385E-1
1.236161215E0,1.944107562E-1,5.970807076E-1,2.593919039E-1
1.238175375E0,1.864212751E-1,5.880259871E-1,2.625876963E-1
1.240128500E0,1.848233789E-1,5.901564956E-1,2.636529505E-1
1.242142660E0,1.784317940E-1,5.848301649E-1,2.737729549E-1
1.244126303E0,1.704423130E-1,5.800365210E-1,2.790992856E-1
1.246109945E0,1.645833552E-1,5.832322836E-1,2.833603323E-1
1.248093588E0,1.656486243E-1,5.896238685E-1,2.902845740E-1
1.250107748E0,1.608549356E-1,5.997439027E-1,2.945456207E-1
1.252121908E0,1.560612470E-1,6.098638773E-1,2.982740402E-1
1.254136068E0,1.528654546E-1,6.231797338E-1,3.041329980E-1
1.256119711E0,1.486043930E-1,6.343649626E-1,3.036003709E-1
1.258103354E0,1.395496428E-1,6.450176239E-1,3.089267015E-1
1.260086996E0,1.262338310E-1,6.471481323E-1,3.115898669E-1
1.262131674E0,1.193096191E-1,6.551376581E-1,3.126551211E-1
1.264084799E0,1.139832959E-1,6.705839634E-1,3.153182864E-1
1.266068441E0,1.075917110E-1,6.828345060E-1,3.158509135E-1
1.268082602E0,1.043959185E-1,6.934871674E-1,3.174487948E-1
1.270096762E0,9.747169912E-2,7.084008455E-1,3.179814517E-1
1.272110922E0,9.374327213E-2,7.163903713E-1,3.195793331E-1
1.274064047E0,8.735168725E-2,7.275756001E-1,3.243730366E-1
1.276078207E0,8.788431436E-2,7.339671850E-1,3.259709179E-1
1.278092367E0,8.468852192E-2,7.382282615E-1,3.286340833E-1
1.280076010E0,8.309062570E-2,7.334345579E-1,3.344930410E-1
1.282090170E0,8.415589482E-2,7.270429730E-1,3.414172530E-1
1.284073812E0,8.042746782E-2,7.179882526E-1,3.472762108E-1
1.286057455E0,7.936219871E-2,7.073355913E-1,3.531351686E-1
1.288041098E0,7.456851006E-2,7.046724558E-1,3.584614992E-1
1.290024740E0,6.977482140E-2,6.950850487E-1,3.643204570E-1
1.292038900E0,5.965480953E-2,6.860303283E-1,3.637878001E-1
1.294053061E0,5.006742850E-2,6.748450398E-1,3.680488765E-1
1.296036703E0,3.941478580E-2,6.631271243E-1,3.627225459E-1
1.298020346E0,2.822950855E-2,6.476807594E-1,3.659183383E-1
1.300034506E0,1.544633508E-2,6.301039457E-1,3.643204570E-1
1.302079184E0,2.663161140E-3,6.151902080E-1,3.600593805E-1
1.304032309E0,-1.331580617E-2,5.917543769E-1,3.595267534E-1
1.306015951E0,-3.089267015E-2,5.699164867E-1,3.584614992E-1
1.308030111E0,-4.687163606E-2,5.464806557E-1,3.531351686E-1
1.310044271E0,-6.285060197E-2,5.187838078E-1,3.552657068E-1
1.312027914E0,-8.042746782E-2,4.900216460E-1,3.536677957E-1
1.314011557E0,-1.012001261E-1,4.564658105E-1,3.520699143E-1
1.316025717E0,-1.187769845E-1,4.234426320E-1,3.504720032E-1
1.317978842E0,-1.400822699E-1,3.872236311E-1,3.536677957E-1
1.319962484E0,-1.608549356E-1,3.510046303E-1,3.542004228E-1
1.322007162E0,-1.853560209E-1,3.131877482E-1,3.552657068E-1
1.323960287E0,-2.055960447E-1,2.753708661E-1,3.526025414E-1
1.325943930E0,-2.306297570E-1,2.354234457E-1,3.526025414E-1
1.327958090E0,-2.530003190E-1,1.944107562E-1,3.488741219E-1
1.329972250E0,-2.759034932E-1,1.571265012E-1,3.472762108E-1
1.331986410E0,-3.009372056E-1,1.310275346E-1,3.334277868E-1
1.333939535E0,-3.254382908E-1,1.107875034E-1,3.201119602E-1
1.335923178E0,-3.462109566E-1,9.108011425E-2,3.025351167E-1
1.337937338E0,-3.648530841E-1,6.657902896E-2,2.854908705E-1
1.339951498E0,-3.834952116E-1,4.846953228E-2,2.689792812E-1
1.341965658E0,-3.984089196E-1,3.089267015E-2,2.535329461E-1
1.343918783E0,-4.085289240E-1,1.278317347E-2,2.332929224E-1
1.345932943E0,-4.159857631E-1,0.000000000E0,2.178465873E-1
1.347947104E0,-4.229099751E-1,-7.989482954E-3,1.992044598E-1
1.349900229E0,-4.026699662E-1,2.876213938E-2,1.757686287E-1
1.351883871E0,-3.845604658E-1,5.805691332E-2,1.512675583E-1
1.353898031E0,-3.653857112E-1,7.936219871E-2,1.331580579E-1
1.355851156E0,-3.366235793E-1,9.800432622E-2,1.171790883E-1
1.357834799E0,-3.185140789E-1,9.747169912E-2,9.693906456E-2
1.359848959E0,-2.998719513E-1,8.894958347E-2,7.776430249E-2
1.361863119E0,-2.822950780E-1,6.817692518E-2,5.965480953E-2
1.363816244E0,-2.673813701E-1,3.728425503E-2,4.154531285E-2
1.365830404E0,-2.524676621E-1,7.989482954E-3,2.503371425E-2
1.367814047E0,-2.450108230E-1,-3.036003746E-2,1.331580617E-2
1.369797689E0,-2.300971150E-1,-6.178534031E-2,5.326322280E-4
1.371781332E0,-2.253034264E-1,-7.669904083E-2,-3.195793368E-3
1.373764975E0,-2.135855258E-1,-1.059938148E-1,-1.171790902E-2
1.375779135E0,-2.050634027E-1,-1.241033077E-1,-1.970739290E-2
1.377732260E0,-1.933455020E-1,-1.331580579E-1,-2.343581803E-2
1.379715902E0,-1.778991669E-1,-1.390170157E-1,-2.503371425E-2
1.381760580E0,-1.640507281E-1,-1.368864775E-1,-2.183792181E-2
1.383713705E0,-1.502022892E-1,-1.299622655E-1,-1.757686399E-2
1.385697348E0,-1.336906850E-1,-1.193096191E-1,-1.012001187E-2
1.387711508E0,-1.198422536E-1,-1.081243455E-1,-2.663161140E-3
1.389725668E0,-1.054611802E-1,-9.427590668E-2,1.544633508E-2
1.391739828E0,-9.693906456E-2,-8.096009493E-2,2.929477207E-2
1.393692953E0,-8.841694891E-2,-7.243798673E-2,4.740426689E-2
1.395707113E0,-7.882957160E-2,-6.285060197E-2,7.084008306E-2
1.397690756E0,-7.190535218E-2,-5.539375171E-2,9.427590668E-2
1.399674398E0,-7.030745596E-2,-5.060006306E-2,1.246359423E-1
1.401719076E0,-6.870955974E-2,-4.953479767E-2,1.560612470E-1
1.403702719E0,-6.924218684E-2,-5.060006306E-2,1.901497096E-1
1.405686361E0,-7.084008306E-2,-5.379585549E-2,2.231729031E-1
1.407670004E0,-7.776430249E-2,-6.498113275E-2,2.593919039E-1
1.409684164E0,-8.415589482E-2,-7.723167539E-2,3.030677438E-1
1.411698324E0,-8.628641814E-2,-9.108011425E-2,3.446130455E-1
1.413712484E0,-9.001484513E-2,-1.102548689E-1,3.968110085E-1
1.415665609E0,-9.534116834E-2,-1.331580579E-1,4.522047639E-1
1.417649252E0,-1.022653878E-1,-1.560612470E-1,5.118595958E-1
1.419663412E0,-1.081243455E-1,-1.677791476E-1,5.640575290E-1
1.421677572E0,-1.150485575E-1,-1.624528319E-1,6.114618182E-1
1.423630697E0,-1.219727769E-1,-1.597896665E-1,6.578007936E-1
1.425644857E0,-1.272991002E-1,-1.672465205E-1,6.945524216E-1
1.427659018E0,-1.299622655E-1,-1.763012707E-1,7.238472104E-1
1.429642660E0,-1.288969964E-1,-1.896170676E-1,7.478156686E-1
1.431626303E0,-1.267664731E-1,-2.045307755E-1,7.712514400E-1
1.433609945E0,-1.209075153E-1,-2.231729031E-1,7.909588814E-1
1.435624105E0,-1.139832959E-1,-2.482066154E-1,8.111988902E-1
1.437577230E0,-1.022653878E-1,-2.743056118E-1,8.197209835E-1
1.439560873E0,-9.374327213E-2,-3.020024598E-1,8.287757635E-1
1.441605551E0,-7.776430249E-2,-3.281014562E-1,8.367652297E-1
1.443558676E0,-5.858954415E-2,-3.547330499E-1,8.372978568E-1
1.445542318E0,-3.621899337E-2,-3.850930929E-1,8.399610519E-1
1.447556479E0,-1.757686399E-2,-4.154531360E-1,8.399610519E-1
1.449570639E0,5.326322280E-3,-4.506068528E-1,8.394283652E-1
1.451523764E0,2.450108156E-2,-4.846953154E-1,8.346347213E-1
1.453507406E0,4.420847446E-2,-5.257080197E-1,8.245146871E-1
1.455491049E0,6.924218684E-2,-5.539374948E-1,8.170578480E-1
1.457505209E0,9.960222989E-2,-5.752428174E-1,8.058725595E-1
1.459519369E0,1.315601617E-1,-5.992112756E-1,8.010788560E-1
1.461533529E0,1.592570394E-1,-6.210491657E-1,7.920241356E-1
1.463486654E0,1.912149638E-1,-6.375607848E-1,7.808388472E-1
1.465500814E0,2.231729031E-1,-6.482134461E-1,7.739146352E-1
1.467514975E0,2.583266199E-1,-6.519418359E-1,7.675230503E-1
1.469498617E0,2.876214087E-1,-6.604639888E-1,7.648598552E-1
1.471482260E0,3.041329980E-1,-6.865629554E-1,7.531419992E-1
1.473496420E0,3.222424984E-1,-7.057377100E-1,7.403587699E-1
1.475449545E0,3.451456726E-1,-7.265103459E-1,7.254450917E-1
1.477433187E0,3.675162494E-1,-7.392935157E-1,7.089334726E-1
1.479447348E0,3.877562582E-1,-7.590008974E-1,6.950850487E-1
1.481461508E0,4.085289240E-1,-7.781757116E-1,6.833671331E-1
1.483414633E0,4.308994710E-1,-7.882956862E-1,6.732471585E-1
1.485428793E0,4.495415986E-1,-7.898935676E-1,6.625944972E-1
1.487442953E0,4.676510990E-1,-7.914915085E-1,6.551376581E-1
1.489426596E0,4.868258536E-1,-7.840346098E-1,6.508765817E-1
1.491410238E0,5.033374429E-1,-7.824367285E-1,6.444849968E-1
1.493393881E0,5.161206126E-1,-7.765777707E-1,6.412891746E-1
1.495408041E0,5.299690962E-1,-7.771103978E-1,6.386260390E-1
1.497422201E0,5.406216979E-1,-7.781757116E-1,6.391586661E-1
1.499405844E0,5.512743592E-1,-7.808388472E-1,6.402239203E-1
1.501420004E0,5.555354357E-1,-7.803062201E-1,6.391586661E-1
1.503403646E0,5.629922748E-1,-7.819041014E-1,6.434197426E-1
1.505417807E0,5.725796223E-1,-7.739146352E-1,6.514092088E-1
1.507401449E0,5.858954787E-1,-7.685883045E-1,6.604639888E-1
1.509385092E0,5.928196907E-1,-7.669904232E-1,6.689860821E-1
1.511399252E0,5.960154533E-1,-7.637946010E-1,6.721818447E-1
1.513413412E0,5.954828262E-1,-7.792409658E-1,6.929545403E-1
1.515397055E0,5.997439027E-1,-7.968178391E-1,7.270429730E-1
1.517380697E0,6.072007418E-1,-8.117315173E-1,7.611314654E-1
1.519394857E0,6.093312502E-1,-8.293083906E-1,7.930893898E-1
1.521439535E0,6.082659960E-1,-8.458199501E-1,8.271778226E-1
1.523362143E0,6.077333689E-1,-8.681905270E-1,8.564726114E-1
1.525376303E0,5.997439027E-1,-8.900284767E-1,8.815063238E-1
1.527390463E0,5.944175720E-1,-9.219864011E-1,9.065400362E-1
1.529404623E0,5.795038939E-1,-9.598032832E-1,9.289106131E-1
1.531357748E0,5.651227832E-1,-9.848369956E-1,9.475527406E-1
1.533341391E0,5.480785370E-1,-1.006142259E0,9.677927494E-1
1.535355551E0,5.310343504E-1,-1.018925428E0,9.784454107E-1
1.537369711E0,5.102616549E-1,-1.029578090E0,9.880327582E-1
1.539353354E0,4.878911078E-1,-1.034904361E0,9.997506738E-1
1.541367514E0,4.655205607E-1,-1.034904361E0,1.005609632E0
1.543351156E0,4.431500137E-1,-1.032773852E0,1.007207513E0
1.545395834E0,4.191815555E-1,-1.027980208E0,1.007740140E0
1.547318441E0,3.989415467E-1,-1.021055937E0,1.004544377E0
1.549302084E0,3.749730885E-1,-1.010936022E0,1.000815988E0
1.551316244E0,3.488741219E-1,-9.960222840E-1,9.901633263E-1
1.553299887E0,3.243730366E-1,-9.800432920E-1,9.800432920E-1
1.555283529E0,2.982740402E-1,-9.624664187E-1,9.688580036E-1
1.557297689E0,2.759034932E-1,-9.379653335E-1,9.566074610E-1
1.559311850E0,2.503371537E-1,-9.118663669E-1,9.400959015E-1
1.561295492E0,2.263686955E-1,-8.868326545E-1,9.214537740E-1
1.563248617E0,2.008023560E-1,-8.543421030E-1,9.001484513E-1
1.565262777E0,1.778991669E-1,-8.223841786E-1,8.831042051E-1
1.567246420E0,1.560612470E-1,-7.898935676E-1,8.570052385E-1
1.569230062E0,1.347559541E-1,-7.515440583E-1,8.303736448E-1
1.571244223E0,1.193096191E-1,-7.094660997E-1,8.000136018E-1
1.573227865E0,1.033306494E-1,-6.668555737E-1,7.691209316E-1
1.575242025E0,8.841694891E-2,-6.322344542E-1,7.355651259E-1
1.577225668E0,7.723167539E-2,-6.066681147E-1,7.046724558E-1
1.579209311E0,6.604639441E-2,-5.784385800E-1,6.780408025E-1
1.581253988E0,5.965480953E-2,-5.635249019E-1,6.492787004E-1
1.583237631E0,5.326322466E-2,-5.534048676E-1,6.263754964E-1
1.585221273E0,4.740426689E-2,-5.496764779E-1,6.061354876E-1
1.587204916E0,3.728425503E-2,-5.491438508E-1,5.901564956E-1
1.589219076E0,3.568635881E-2,-5.518069863E-1,5.811017752E-1
1.591233236E0,3.462109342E-2,-5.576659441E-1,5.709817410E-1
1.593216879E0,3.675162420E-2,-5.603290796E-1,5.624596477E-1
1.595200521E0,3.568635881E-2,-5.704491138E-1,5.571333170E-1
1.597214682E0,3.355583176E-2,-5.795038939E-1,5.534048676E-1
1.599228842E0,3.781688958E-2,-5.890912414E-1,5.464806557E-1
1.601212484E0,4.048004746E-2,-6.002765298E-1,5.400890708E-1
1.603196127E0,3.675162420E-2,-6.151902080E-1,5.305017233E-1
1.605179770E0,4.207794741E-2,-6.231797338E-1,5.225121975E-1
1.607163412E0,4.367584363E-2,-6.322344542E-1,5.081311464E-1
1.609177572E0,4.474110901E-2,-6.364955306E-1,4.921521842E-1
1.611191732E0,4.367584363E-2,-6.487460732E-1,4.836300611E-1
1.613205893E0,3.675162420E-2,-6.753776670E-1,4.953479767E-1
1.615189535E0,2.769687586E-2,-6.870955825E-1,4.990763962E-1
1.617173178E0,2.290318534E-2,-6.854977012E-1,5.001416802E-1
1.619187338E0,1.970739290E-2,-6.711165905E-1,5.012069345E-1
1.621232016E0,1.864212751E-2,-6.647250056E-1,4.937500656E-1
1.623185141E0,1.810949668E-2,-6.540724039E-1,4.836300611E-1
1.625168783E0,2.130528912E-2,-6.285060048E-1,4.703142643E-1
1.627182943E0,1.970739290E-2,-5.992112756E-1,4.495415986E-1
1.629197104E0,1.970739290E-2,-5.773733258E-1,4.282363057E-1
1.631180746E0,1.810949668E-2,-5.672533512E-1,4.101268053E-1
1.633164389E0,1.438106969E-2,-5.736449361E-1,4.053331316E-1
1.635178549E0,1.171790902E-2,-5.821670294E-1,3.989415467E-1
1.637131674E0,1.012001187E-2,-5.890912414E-1,3.904194236E-1
1.639115316E0,7.456851192E-3,-5.890912414E-1,3.813646734E-1
1.641159994E0,7.456851192E-3,-5.896238685E-1,3.787015080E-1
1.643143637E0,6.924218964E-3,-5.944175720E-1,3.685815036E-1
1.645096762E0,6.391586736E-3,-5.954828262E-1,3.643204570E-1
1.647080404E0,1.225054078E-2,-5.992112756E-1,3.568635881E-1
1.649094564E0,1.438106969E-2,-6.024070382E-1,3.510046303E-1
1.651108725E0,1.597896591E-2,-6.077333689E-1,3.414172530E-1
1.653061850E0,1.757686399E-2,-6.098638773E-1,3.291667104E-1
1.655045492E0,2.343581803E-2,-6.119944453E-1,3.211772442E-1
1.657059652E0,2.716424316E-2,-6.098638773E-1,3.099919558E-1
1.659073812E0,2.290318534E-2,-6.098638773E-1,2.977414131E-1
1.661087973E0,2.450108156E-2,-6.072007418E-1,2.860234976E-1
1.663041098E0,3.195793182E-2,-6.072007418E-1,2.716424465E-1
1.665055258E0,3.941478580E-2,-6.087986231E-1,2.609897852E-1
1.667069418E0,4.687163606E-2,-6.082659960E-1,2.482066154E-1
1.669053061E0,5.379585549E-2,-5.986786485E-1,2.359560728E-1
1.671036703E0,6.285060197E-2,-5.917543769E-1,2.300971150E-1
1.673020346E0,7.403588295E-2,-5.720469952E-1,2.210423797E-1
1.675003988E0,8.735168725E-2,-5.539374948E-1,2.146507949E-1
1.676987631E0,9.906959534E-2,-5.374259353E-1,2.082591951E-1
1.679001791E0,1.129180342E-1,-5.219795704E-1,2.024002522E-1
1.681015951E0,1.294296384E-1,-5.054680109E-1,1.933455020E-1
1.682969076E0,1.459412277E-1,-4.857605994E-1,1.858886480E-1
1.684983236E0,1.635181010E-1,-4.591289759E-1,1.715075821E-1
1.686997396E0,1.800296903E-1,-4.308994710E-1,1.560612470E-1
1.688981039E0,1.976065636E-1,-4.079962969E-1,1.432780623E-1
1.690964682E0,2.141181529E-1,-3.904194236E-1,1.363538504E-1
1.692948324E0,2.290318608E-1,-3.771036267E-1,1.347559541E-1
1.694962484E0,2.439455539E-1,-3.664509654E-1,1.390170157E-1
1.696976645E0,2.508697808E-1,-3.600593805E-1,1.443433315E-1
1.698929770E0,2.663161159E-1,-3.573962152E-1,1.560612470E-1
1.700943930E0,2.764361203E-1,-3.547330499E-1,1.683117896E-1
1.702927572E0,2.849582434E-1,-3.589941263E-1,1.826928556E-1
1.704941732E0,2.945456207E-1,-3.605920076E-1,2.013349831E-1
1.706894857E0,3.030677438E-1,-3.627225459E-1,2.199771106E-1
1.708878500E0,3.131877482E-1,-3.659183383E-1,2.412824035E-1
1.710892660E0,3.227751255E-1,-3.659183383E-1,2.556634545E-1
1.712876303E0,3.307646215E-1,-3.675162494E-1,2.764361203E-1
1.714859945E0,3.355582952E-1,-3.685815036E-1,2.892192900E-1
1.716874105E0,3.430151641E-1,-3.696467578E-1,3.036003709E-1
1.718857748E0,3.504720032E-1,-3.701793849E-1,3.169161677E-1
1.720871908E0,3.552657068E-1,-3.664509654E-1,3.254382908E-1
1.722855551E0,3.579288721E-1,-3.675162494E-1,3.312972486E-1
1.724869711E0,3.589941263E-1,-3.733751774E-1,3.371562064E-1
1.726853354E0,3.648530841E-1,-3.701793849E-1,3.408846259E-1
1.728836996E0,3.653857112E-1,-3.712446690E-1,3.392867148E-1
1.730851156E0,3.659183383E-1,-3.739078343E-1,3.392867148E-1
1.732865316E0,3.675162494E-1,-3.728425503E-1,3.366235793E-1
1.734848959E0,3.643204570E-1,-3.760383427E-1,3.323625028E-1
1.736832602E0,3.616572917E-1,-3.771036267E-1,3.254382908E-1
1.738846762E0,3.595267534E-1,-3.776362538E-1,3.185140789E-1
1.740891439E0,3.557983339E-1,-3.755057156E-1,3.131877482E-1
1.742844564E0,3.510046303E-1,-3.728425503E-1,3.041329980E-1
1.744828207E0,3.483414650E-1,-3.712446690E-1,2.902845740E-1
1.746842367E0,3.435477912E-1,-3.680488765E-1,2.822950780E-1
1.748856527E0,3.360909224E-1,-3.648530841E-1,2.737729549E-1
1.750840170E0,3.334277868E-1,-3.600593805E-1,2.641855776E-1
1.752823812E0,3.254382908E-1,-3.547330499E-1,2.519350350E-1
1.754837973E0,3.174487948E-1,-3.526025414E-1,2.407497615E-1
1.756821615E0,3.083940744E-1,-3.483414650E-1,2.279665917E-1
1.758805258E0,2.977414131E-1,-3.446130455E-1,2.141181529E-1
1.760849936E0,2.886866629E-1,-3.392867148E-1,2.024002522E-1
1.762803061E0,2.753708661E-1,-3.334277868E-1,1.858886480E-1
1.764786703E0,2.604571581E-1,-3.355582952E-1,1.768338978E-1
1.766800863E0,2.471413612E-1,-3.281014562E-1,1.613875628E-1
1.768815023E0,2.295644879E-1,-3.249056637E-1,1.491370201E-1
1.770829184E0,2.173139453E-1,-3.174487948E-1,1.358212233E-1
1.772782309E0,1.970739216E-1,-3.142530024E-1,1.235706806E-1
1.774765951E0,1.821602285E-1,-3.062635362E-1,1.134506613E-1
1.776780111E0,1.603222936E-1,-3.020024598E-1,1.006674916E-1
1.778794271E0,1.406149119E-1,-2.940129936E-1,9.108011425E-2
1.780808432E0,1.203748807E-1,-2.886866629E-1,7.989483327E-2
1.782761557E0,1.107875034E-1,-2.812298238E-1,7.563377917E-2
1.784775717E0,8.575379103E-2,-2.753708661E-1,6.604639441E-2
1.786789877E0,6.391586363E-2,-2.668487430E-1,5.592638254E-2
1.788743002E0,4.154531285E-2,-2.545982003E-1,4.793690145E-2
1.790726645E0,1.864212751E-2,-2.492718846E-1,4.207794741E-2
1.792710287E0,-5.858954508E-3,-2.386192381E-1,3.408846259E-2
1.794693930E0,-2.876213938E-2,-2.290318608E-1,2.822950855E-2
1.796708090E0,-5.486112088E-2,-2.151834220E-1,2.183792181E-2
1.798722250E0,-7.829693705E-2,-2.050634027E-1,1.970739290E-2
1.800736410E0,-1.006674916E-1,-1.912149638E-1,1.331580617E-2
1.802689535E0,-1.235706806E-1,-1.800296903E-1,1.065264456E-2
1.804703695E0,-1.443433315E-1,-1.635181010E-1,7.456851192E-3
1.806717855E0,-1.635181010E-1,-1.507349163E-1,4.793690052E-3
1.808670980E0,-1.832254827E-1,-1.379517466E-1,3.728425596E-3
1.810654623E0,-1.981391907E-1,-1.246359423E-1,4.261057824E-3
1.812638266E0,-2.114549875E-1,-1.059938148E-1,2.130528912E-3
1.814652426E0,-2.253034264E-1,-9.640643001E-2,3.728425596E-3
1.816636068E0,-2.396845073E-1,-7.989483327E-2,2.130528912E-3
1.818619711E0,-2.498045117E-1,-6.604639441E-2,5.858954508E-3
1.820664389E0,-2.577939928E-1,-5.432848632E-2,6.924218964E-3
1.822617514E0,-2.663161159E-1,-3.941478580E-2,7.456851192E-3
1.824601156E0,-2.753708661E-1,-2.716424316E-2,8.522115648E-3
1.826584799E0,-2.806971967E-1,-1.864212751E-2,1.065264456E-2
1.828598959E0,-2.881540358E-1,-6.924218964E-3,1.065264456E-2
1.830613119E0,-2.956108749E-1,-1.065264456E-3,1.384843793E-2
1.832566244E0,-3.014698327E-1,4.261057824E-3,1.544633508E-2
1.834580404E0,-3.110572100E-1,7.456851192E-3,1.544633508E-2
1.836594564E0,-3.206445873E-1,9.587380104E-3,1.704423130E-2
1.838578207E0,-3.344930410E-1,9.587380104E-3,1.278317347E-2
1.840592367E0,-3.462109566E-1,1.225054078E-2,1.171790902E-2
1.842576010E0,-3.605920076E-1,1.012001187E-2,1.171790902E-2
1.844529135E0,-3.787015080E-1,1.225054078E-2,7.989482954E-3
1.846512777E0,-3.941478431E-1,1.118527725E-2,5.858954508E-3
1.848526937E0,-4.127899706E-1,1.118527725E-2,2.663161140E-3
1.850541098E0,-4.367584288E-1,1.278317347E-2,-3.728425596E-3
1.852524740E0,-4.575310946E-1,1.171790902E-2,-7.456851192E-3
1.854508383E0,-4.841626883E-1,1.491370238E-2,-1.278317347E-2
1.856492025E0,-5.049353242E-1,2.396845073E-2,-1.331580617E-2
1.858506186E0,-5.326322317E-1,2.556634694E-2,-1.651159860E-2
1.860520346E0,-5.667206645E-1,2.343581803E-2,-2.769687586E-2
1.862473471E0,-6.034722924E-1,2.237055451E-2,-3.515372798E-2
1.864487631E0,-6.391586661E-1,2.450108156E-2,-4.474110901E-2
1.866501791E0,-6.791061163E-1,2.929477207E-2,-5.379585549E-2
1.868485434E0,-7.185208797E-1,3.462109342E-2,-6.018744037E-2
1.870469076E0,-7.568703890E-1,4.420847446E-2,-6.977482140E-2
1.872483236E0,-7.952198982E-1,3.728425503E-2,-6.072007492E-2
1.874436361E0,-8.165252209E-1,4.154531285E-2,-3.621899337E-2
1.876420004E0,-8.410263062E-1,4.367584363E-2,-5.326322280E-4
1.878434164E0,-8.660600185E-1,4.900216311E-2,2.450108156E-2
1.880448324E0,-8.905611038E-1,5.965480953E-2,4.846953228E-2
1.882401449E0,-9.203884602E-1,7.243798673E-2,6.551376730E-2
1.884415609E0,-9.507485032E-1,8.255799860E-2,8.202536404E-2
1.886429770E0,-9.789780378E-1,9.427590668E-2,9.587380290E-2
1.888443930E0,-1.013599157E0,1.091896072E-1,1.033306494E-1
1.890397055E0,-1.047687650E0,1.331580579E-1,1.118527651E-1
1.892380697E0,-1.082308650E0,1.688444167E-1,1.182443574E-1
1.894394857E0,-1.119592905E0,2.125202566E-1,1.198422536E-1
1.896409018E0,-1.153681397E0,2.700445354E-1,1.235706806E-1
1.898423178E0,-1.186704636E0,3.376888335E-1,1.257012039E-1
1.900406820E0,-1.217597246E0,4.165183902E-1,1.241033077E-1
1.902359945E0,-1.232510924E0,4.601942301E-1,1.241033077E-1
1.904374105E0,-1.264468908E0,5.587311983E-1,1.235706806E-1
1.906357748E0,-1.287904739E0,6.631271243E-1,1.225054115E-1
1.908341391E0,-1.315601587E0,7.771103978E-1,1.230380461E-1
1.910325033E0,-1.337972164E0,9.006810784E-1,1.182443574E-1
1.912339193E0,-1.362473249E0,1.032241225E0,1.107875034E-1
1.914322836E0,-1.379517436E0,1.155279279E0,1.075917110E-1
1.916306479E0,-1.395496488E0,1.280980468E0,1.043959185E-1
1.918320639E0,-1.412008047E0,1.405616403E0,9.853696078E-2
1.920334799E0,-1.421595454E0,1.529187083E0,9.321063757E-2
1.922287924E0,-1.431182742E0,1.649029374E0,8.202536404E-2
1.924302084E0,-1.433313370E0,1.764610529E0,7.084008306E-2
1.926316244E0,-1.434911251E0,1.873800159E0,5.592638254E-2
1.928330404E0,-1.431182742E0,1.973935008E0,3.888215125E-2
1.930283529E0,-1.422128081E0,2.068210840E0,2.290318534E-2
1.932267172E0,-1.409877539E0,2.149171114E0,5.326322280E-4
1.934281332E0,-1.389637470E0,2.225337505E0,-3.089267015E-2
1.936295492E0,-1.361940622E0,2.283394337E0,-5.166532472E-2
1.938279135E0,-1.329982638E0,2.335592270E0,-7.350324839E-2
1.940293295E0,-1.290035248E0,2.377137661E0,-9.214537591E-2
1.942276937E0,-1.250087857E0,2.405899763E0,-1.006674916E-1
1.944321615E0,-1.202150941E0,2.422411442E0,-1.097222418E-1
1.946305258E0,-1.146757245E0,2.425607204E0,-1.166464612E-1
1.948258383E0,-1.094026566E0,2.417617798E0,-1.203748807E-1
1.950242025E0,-1.032773852E0,2.396312475E0,-1.235706806E-1
1.952225668E0,-9.725864530E-1,2.369680882E0,-1.241033077E-1
1.954209311E0,-9.118663669E-1,2.329200745E0,-1.262338310E-1
1.956192953E0,-8.404936790E-1,2.273274422E0,-1.251685768E-1
1.958207113E0,-7.696535587E-1,2.210423708E0,-1.262338310E-1
1.960221273E0,-6.940197945E-1,2.136920452E0,-1.283643693E-1
1.962174398E0,-6.189186573E-1,2.050101519E0,-1.267664731E-1
1.964188559E0,-5.336974859E-1,1.958488703E0,-1.294296384E-1
1.966202719E0,-4.516721368E-1,1.866343379E0,-1.320927888E-1
1.968186361E0,-3.616572917E-1,1.769936919E0,-1.384843737E-1
1.970170004E0,-2.705771625E-1,1.663410425E0,-1.406149119E-1
1.972153646E0,-1.736381054E-1,1.556351423E0,-1.502022892E-1
1.974167807E0,-7.563377917E-2,1.442900658E0,-1.533980817E-1
1.976181967E0,2.609897964E-2,1.331047893E0,-1.629854590E-1
1.978135092E0,1.262338310E-1,1.216531992E0,-1.693770438E-1
1.980149252E0,2.279665917E-1,1.104679227E0,-1.800296903E-1
1.982132895E0,3.126551211E-1,1.025849700E0,-1.933455020E-1
1.984116537E0,3.989415467E-1,9.443569183E-1,-2.093244642E-1
1.986100180E0,4.841626883E-1,8.591358066E-1,-2.311623842E-1
1.988083822E0,5.688512325E-1,7.680556774E-1,-2.540655732E-1
1.990097982E0,6.588660479E-1,6.940197945E-1,-2.753708661E-1
1.992081625E0,7.472830415E-1,6.215817928E-1,-3.051982522E-1
1.994065268E0,8.383631110E-1,5.459480286E-1,-3.307646215E-1
1.996079428E0,9.251821637E-1,4.697816372E-1,-3.499393761E-1
1.998093588E0,1.017860174E0,3.962783813E-1,-3.685815036E-1
2.000107748E0,1.106809735E0,3.238403797E-1,-3.888215125E-1
2.002091391E0,1.185639381E0,2.450108230E-1,-4.048005044E-1
2.004105551E0,1.266066790E0,1.587243974E-1,-4.186489284E-1
2.006058676E0,1.338504791E0,6.764429063E-2,-4.346278906E-1
2.008042318E0,1.401355386E0,-3.036003746E-2,-4.511395097E-1
2.010056479E0,1.461542845E0,-1.310275346E-1,-4.585963488E-1
2.012070639E0,1.511610270E0,-2.311623842E-1,-4.692489803E-1
2.014054281E0,1.556884050E0,-3.281014562E-1,-4.830974340E-1
2.016037924E0,1.589374542E0,-4.277036786E-1,-4.900216460E-1
2.018052084E0,1.617604017E0,-5.225121975E-1,-4.969458580E-1
2.020096762E0,1.635180950E0,-6.141249537E-1,-5.028048158E-1
2.022049887E0,1.645300984E0,-6.982808709E-1,-5.070658922E-1
2.024033529E0,1.646898866E0,-7.787083387E-1,-5.118595958E-1
2.026047689E0,1.643170476E0,-8.484831452E-1,-5.155879855E-1
2.028061850E0,1.628789306E0,-9.139968753E-1,-5.145227313E-1
2.030045492E0,1.610147238E0,-9.693906307E-1,-5.145227313E-1
2.032029135E0,1.585646152E0,-1.015197039E0,-5.113269091E-1
2.034043295E0,1.555286050E0,-1.054611802E0,-5.070658922E-1
2.036026937E0,1.515338659E0,-1.084439158E0,-5.017395616E-1
2.038010580E0,1.496163964E0,-1.100418210E0,-5.006743073E-1
2.040055258E0,1.446096539E0,-1.110005617E0,-4.900216460E-1
2.042038900E0,1.390170097E0,-1.105211854E0,-4.751079381E-1
2.044022543E0,1.329982638E0,-1.084971905E0,-4.591289759E-1
2.046006186E0,1.267664671E0,-1.055677056E0,-4.420847595E-1
2.048020346E0,1.203216195E0,-1.015197039E0,-4.255731404E-1
2.050034506E0,1.141430855E0,-9.683253765E-1,-4.079962969E-1
2.052048666E0,1.076449752E0,-9.193232059E-1,-3.882888854E-1
2.054032309E0,1.019458055E0,-8.602010608E-1,-3.701793849E-1
2.056015951E0,9.614011645E-1,-7.994809747E-1,-3.510046303E-1
2.058030111E0,9.060074091E-1,-7.302387953E-1,-3.360909224E-1
2.060074789E0,8.548747301E-1,-6.615292430E-1,-3.195793331E-1
2.062027914E0,8.037420511E-1,-5.858954787E-1,-3.057309091E-1
2.064011557E0,7.520766854E-1,-5.145227313E-1,-2.897519469E-1
2.066025717E0,7.057377100E-1,-4.426173866E-1,-2.790992856E-1
2.068039877E0,6.572681665E-1,-3.802994192E-1,-2.689792812E-1
2.069993002E0,6.082659960E-1,-3.185140789E-1,-2.588592768E-1
2.071976645E0,5.613943934E-1,-2.609897852E-1,-2.487392575E-1
2.073990805E0,5.155879855E-1,-2.055960447E-1,-2.407497615E-1
2.075974447E0,4.671184719E-1,-1.576591432E-1,-2.290318608E-1
2.077958090E0,4.186489284E-1,-1.075917110E-1,-2.215750068E-1
2.080002768E0,3.739078343E-1,-6.977482140E-2,-2.141181529E-1
2.081955893E0,3.265035450E-1,-3.089267015E-2,-2.055960447E-1
2.083939535E0,2.817624509E-1,6.391586736E-3,-1.976065636E-1
2.085953695E0,2.364887148E-1,3.728425503E-2,-1.880191714E-1
2.087967855E0,1.928128600E-1,6.764429063E-2,-1.832254827E-1
2.089951498E0,1.486043930E-1,1.006674916E-1,-1.778991669E-1
2.091935141E0,1.059938148E-1,1.219727769E-1,-1.667138934E-1
2.093918783E0,6.657902896E-2,1.486043930E-1,-1.597896665E-1
2.095932943E0,2.556634694E-2,1.741707325E-1,-1.555286050E-1
2.097947104E0,-1.597896591E-2,1.960086524E-1,-1.459412277E-1
2.099930746E0,-5.486112088E-2,2.199771106E-1,-1.406149119E-1
2.101914389E0,-9.480853379E-2,2.380866110E-1,-1.320927888E-1
2.103928549E0,-1.326254308E-1,2.572613657E-1,-1.251685768E-1
2.105912191E0,-1.725728363E-1,2.764361203E-1,-1.182443574E-1
2.107895834E0,-2.082591951E-1,2.924150825E-1,-1.118527651E-1
2.109909994E0,-2.471413612E-1,3.110572100E-1,-1.038632840E-1
2.111893637E0,-2.833603323E-1,3.249056637E-1,-9.214537591E-2
2.113877279E0,-3.185140789E-1,3.387540877E-1,-8.309062570E-2
2.115891439E0,-3.515372574E-1,3.504720032E-1,-7.510114461E-2
2.117905600E0,-3.893541694E-1,3.643204570E-1,-6.604639441E-2
2.119919760E0,-4.181163013E-1,3.739078343E-1,-5.592638254E-2
2.121872885E0,-4.474110603E-1,3.834952116E-1,-4.846953228E-2
2.123887045E0,-4.772384763E-1,3.872236311E-1,-4.314320907E-2
2.125901205E0,-5.001416802E-1,3.909520507E-1,-3.089267015E-2
2.127915365E0,-5.262406468E-1,3.909520507E-1,-2.237055451E-2
2.129868490E0,-5.491438508E-1,3.872236311E-1,-1.278317347E-2
2.131852133E0,-5.651227832E-1,3.802994192E-1,-6.924218964E-3
2.133866293E0,-5.800365210E-1,3.712446690E-1,1.065264456E-3
2.135880453E0,-5.960154533E-1,3.616572917E-1,6.924218964E-3
2.137864096E0,-6.040049195E-1,3.547330499E-1,1.225054078E-2
2.139878256E0,-6.045376062E-1,3.494067490E-1,1.864212751E-2
2.141861898E0,-6.029396653E-1,3.478088379E-1,2.503371425E-2
2.143876059E0,-5.965480804E-1,3.478088379E-1,3.036003746E-2
2.145829184E0,-5.811017752E-1,3.568635881E-1,3.888215125E-2
2.147812826E0,-5.635249019E-1,3.659183383E-1,5.113269389E-2
2.149826986E0,-5.438175201E-1,3.680488765E-1,6.285060197E-2
2.151810629E0,-5.262406468E-1,3.701793849E-1,7.723167539E-2
2.153794271E0,-4.985437691E-1,3.664509654E-1,9.108011425E-2
2.155808432E0,-4.735100567E-1,3.637878001E-1,1.038632840E-1
2.157822592E0,-4.426173866E-1,3.573962152E-1,1.134506613E-1
2.159836752E0,-4.111920893E-1,3.494067490E-1,1.304948926E-1
2.161789877E0,-3.760383427E-1,3.382214606E-1,1.464738697E-1
2.163804037E0,-3.387540877E-1,3.296993375E-1,1.619201899E-1
2.165818197E0,-3.020024598E-1,3.158509135E-1,1.805623323E-1
2.167771322E0,-2.593919039E-1,3.062635362E-1,2.055960447E-1
2.169754965E0,-2.167813182E-1,2.865561247E-1,2.306297570E-1
2.171738607E0,-1.778991669E-1,2.636529505E-1,2.551308274E-1
2.173752768E0,-1.336906850E-1,2.375539690E-1,2.844256163E-1
2.175736410E0,-8.841694891E-2,2.178465873E-1,3.153182864E-1
2.177720053E0,-6.604639441E-2,2.034655064E-1,3.339604139E-1
2.179734213E0,-2.237055451E-2,1.858886480E-1,3.616572917E-1
2.181717855E0,2.237055451E-2,1.651159972E-1,3.920173049E-1
2.183670980E0,6.657902896E-2,1.464738697E-1,4.271710515E-1
2.185654623E0,1.118527651E-1,1.294296384E-1,4.601942301E-1
2.187668783E0,1.518001854E-1,1.129180342E-1,4.878911078E-1
2.189682943E0,1.949433982E-1,1.017327532E-1,5.139901042E-1
2.191636068E0,2.327602804E-1,8.788431436E-2,5.390238166E-1
2.193650229E0,2.689792812E-1,7.456851006E-2,5.587311983E-1
2.195664389E0,3.051982522E-1,6.338323653E-2,5.736449361E-1
2.197648031E0,3.350256681E-1,5.273059011E-2,5.864281058E-1
2.199662191E0,3.627225459E-1,3.355583176E-2,5.986786485E-1
2.201645834E0,3.888215125E-1,9.587380104E-3,6.098638773E-1
2.203659994E0,4.133225977E-1,-1.491370238E-2,6.231797338E-1
2.205613119E0,4.298342168E-1,-4.048004746E-2,6.237123609E-1
2.207596762E0,4.474110603E-1,-6.924218684E-2,6.285060048E-1
2.209610922E0,4.623247683E-1,-1.033306494E-1,6.327670813E-1
2.211625082E0,4.713795185E-1,-1.422128081E-1,6.332997084E-1
2.213608725E0,4.799016416E-1,-1.747033745E-1,6.332997084E-1
2.215592367E0,4.857605994E-1,-2.130528986E-1,6.290386319E-1
2.217576010E0,4.868258536E-1,-2.508697808E-1,6.237123609E-1
2.219620687E0,4.836300611E-1,-2.828277051E-1,6.178534031E-1
2.221573812E0,4.761732221E-1,-3.153182864E-1,6.130596995E-1
2.223557455E0,4.681837261E-1,-3.510046303E-1,6.072007418E-1
2.225571615E0,4.665858448E-1,-3.914846778E-1,5.997439027E-1
2.227585775E0,4.612595141E-1,-4.282363057E-1,5.933523178E-1
2.229599936E0,4.596616030E-1,-4.660531878E-1,5.842975378E-1
2.231553061E0,4.559331834E-1,-5.006743073E-1,5.773733258E-1
2.233567221E0,4.511395097E-1,-5.374259353E-1,5.667206645E-1
2.235581381E0,4.474110603E-1,-5.688512325E-1,5.528722405E-1
2.237565023E0,4.383563101E-1,-5.992112756E-1,5.427522659E-1
2.239579184E0,4.298342168E-1,-6.258428693E-1,5.283711553E-1
2.241562826E0,4.207794666E-1,-6.546050310E-1,5.177185535E-1
2.243546469E0,4.095941782E-1,-6.775081754E-1,5.065332651E-1
2.245530111E0,3.957457542E-1,-6.993461251E-1,4.948153496E-1
2.247513754E0,3.797667921E-1,-7.190535069E-1,4.825648069E-1
2.249527914E0,3.621899188E-1,-7.323693037E-1,4.724447727E-1
2.251542074E0,3.472762108E-1,-7.451524734E-1,4.660531878E-1
2.253525717E0,3.339604139E-1,-7.536746264E-1,4.554005563E-1
2.255509359E0,3.147856593E-1,-7.558051348E-1,4.479437172E-1
2.257523520E0,3.036003709E-1,-7.595335841E-1,4.447479248E-1
2.259568197E0,2.849582434E-1,-7.542072535E-1,4.431500137E-1
2.261521322E0,2.700445354E-1,-7.472830415E-1,4.367584288E-1
2.263504965E0,2.514024079E-1,-7.360977530E-1,4.255731404E-1
2.265519125E0,2.375539690E-1,-7.249124646E-1,4.207794666E-1
2.267533285E0,2.199771106E-1,-7.142598033E-1,4.207794666E-1
2.269516928E0,2.039981484E-1,-6.977482438E-1,4.143878818E-1
2.271500570E0,1.874865443E-1,-6.828345060E-1,4.053331316E-1
2.273514730E0,1.693770438E-1,-6.641923785E-1,3.920173049E-1
2.275467855E0,1.507349163E-1,-6.450176239E-1,3.781688809E-1
2.277451498E0,1.326254308E-1,-6.332997084E-1,3.669835925E-1
2.279496176E0,1.182443574E-1,-6.114618182E-1,3.542004228E-1
2.281449301E0,1.012001261E-1,-5.906891227E-1,3.408846259E-1
2.283432943E0,8.362326026E-2,-5.667206645E-1,3.312972486E-1
2.285447104E0,6.817692518E-2,-5.443501472E-1,3.318298757E-1
2.287461264E0,4.953479767E-2,-5.145227313E-1,3.296993375E-1
2.289444906E0,3.888215125E-2,-4.820321798E-1,3.190467060E-1
2.291428549E0,2.024002373E-2,-4.511395097E-1,3.078614175E-1
2.293412191E0,5.326322280E-3,-4.207794666E-1,2.988066673E-1
2.295426352E0,-1.384843793E-2,-3.925499618E-1,2.849582434E-1
2.297440512E0,-2.982740477E-2,-3.584614992E-1,2.679139972E-1
2.299424154E0,-4.474110901E-2,-3.281014562E-1,2.577939928E-1
2.301377279E0,-5.805691332E-2,-3.041329980E-1,2.444781959E-1
2.303391439E0,-7.510114461E-2,-2.727077007E-1,2.332929224E-1
2.305375082E0,-9.001484513E-2,-2.418150306E-1,2.263686955E-1
2.307358725E0,-1.038632840E-1,-2.205097377E-1,2.322276533E-1
2.309372885E0,-1.187769845E-1,-1.890844405E-1,2.263686955E-1
2.311387045E0,-1.283643693E-1,-1.688444167E-1,2.247707993E-1
2.313340170E0,-1.422128081E-1,-1.352885813E-1,2.183792144E-1
2.315323812E0,-1.587243974E-1,-1.102548689E-1,2.173139453E-1
2.317337973E0,-1.747033745E-1,-7.829693705E-2,2.093244642E-1
2.319352133E0,-1.938781291E-1,-4.846953228E-2,2.034655064E-1
2.321305258E0,-2.082591951E-1,-2.183792181E-2,1.922802329E-1
2.323319418E0,-2.237055302E-1,-2.130528912E-3,1.842907518E-1
2.325333578E0,-2.407497615E-1,1.597896591E-2,1.773665249E-1
2.327286703E0,-2.556634545E-1,3.195793182E-2,1.715075821E-1
2.329270346E0,-2.716424465E-1,4.793690145E-2,1.635181010E-1
2.331253988E0,-2.870887816E-1,5.645901710E-2,1.555286050E-1
2.333268148E0,-2.993393242E-1,5.912217870E-2,1.395496428E-1
2.335251791E0,-3.115898669E-1,6.285060197E-2,1.283643693E-1
2.337235434E0,-3.217098713E-1,6.125270575E-2,1.171790883E-1
2.339280111E0,-3.344930410E-1,5.486112088E-2,1.129180342E-1
2.341263754E0,-3.488741219E-1,5.752427876E-2,1.043959185E-1
2.343247396E0,-3.600593805E-1,5.805691332E-2,9.747169912E-2
2.345200521E0,-3.723099232E-1,5.699164793E-2,8.948221803E-2
2.347214682E0,-3.861583769E-1,5.273059011E-2,8.735168725E-2
2.349228842E0,-3.952131271E-1,4.900216311E-2,8.681905270E-2
2.351212484E0,-3.973436356E-1,4.527373984E-2,7.989483327E-2
2.353226645E0,-4.048005044E-1,4.420847446E-2,7.403588295E-2
2.355240805E0,-4.069310129E-1,4.474110901E-2,7.243798673E-2
2.357254965E0,-4.090615511E-1,5.273059011E-2,6.285060197E-2
2.359238607E0,-4.048005044E-1,4.900216311E-2,5.592638254E-2
2.361191732E0,-4.016047120E-1,4.207794741E-2,5.006742850E-2
2.363205893E0,-3.978762627E-1,4.420847446E-2,4.580637068E-2
2.365189535E0,-3.946804702E-1,5.379585549E-2,4.101268202E-2
2.367173178E0,-3.888215125E-1,5.060006306E-2,3.728425503E-2
2.369187338E0,-3.834952116E-1,4.314320907E-2,3.302319720E-2
2.371170980E0,-3.728425503E-1,3.142530099E-2,2.982740477E-2
2.373185141E0,-3.536677957E-1,1.757686399E-2,2.290318534E-2
2.375138266E0,-3.408846259E-1,9.587380104E-3,1.970739290E-2
2.377121908E0,-3.286340833E-1,-5.326322280E-3,1.864212751E-2
2.379166586E0,-3.137203753E-1,-7.989482954E-3,2.290318534E-2
2.381119711E0,-2.988066673E-1,-9.587380104E-3,1.917476021E-2
2.383103354E0,-2.759034932E-1,-1.757686399E-2,1.491370238E-2
2.385117514E0,-2.530003190E-1,-2.716424316E-2,1.065264456E-2
2.387131674E0,-2.300971150E-1,-3.462109342E-2,6.391586736E-3
2.389115316E0,-2.050634027E-1,-4.740426689E-2,8.522115648E-3
2.391098959E0,-1.848233789E-1,-6.657902896E-2,9.587380104E-3
2.393113119E0,-1.619201899E-1,-9.214537591E-2,1.225054078E-2
2.395127279E0,-1.384843737E-1,-1.091896072E-1,1.491370238E-2
2.397080404E0,-1.134506613E-1,-1.257012039E-1,1.704423130E-2
2.399125082E0,-9.108011425E-2,-1.363538504E-1,2.130528912E-2
2.401108725E0,-6.498113275E-2,-1.438107044E-1,2.024002373E-2
2.403061850E0,-3.888215125E-2,-1.491370201E-1,1.757686399E-2
2.405045492E0,-1.597896591E-2,-1.613875628E-1,1.704423130E-2
2.407059652E0,4.793690052E-3,-1.725728363E-1,1.331580617E-2
2.409073812E0,2.822950855E-2,-1.874865443E-1,1.118527725E-2
2.411026937E0,5.006742850E-2,-2.034655064E-1,6.391586736E-3
2.413010580E0,7.190535218E-2,-2.189118415E-1,2.663161140E-3
2.415024740E0,9.001484513E-2,-2.375539690E-1,7.456851192E-3
2.417038900E0,1.065264493E-1,-2.588592768E-1,1.225054078E-2
2.419022543E0,1.230380461E-1,-2.753708661E-1,1.864212751E-2
2.420975668E0,1.347559541E-1,-2.892192900E-1,2.343581803E-2
2.422989828E0,1.470064968E-1,-3.046656251E-1,3.462109342E-2
2.424973471E0,1.581917703E-1,-3.126551211E-1,4.154531285E-2
2.426957113E0,1.656486243E-1,-3.265035450E-1,5.432848632E-2
2.428940756E0,1.693770438E-1,-3.323625028E-1,5.858954415E-2
2.430924398E0,1.763012707E-1,-3.446130455E-1,7.084008306E-2
2.432908041E0,1.826928556E-1,-3.510046303E-1,7.936219871E-2
2.434922201E0,1.837581247E-1,-3.552657068E-1,9.427590668E-2
2.436936361E0,1.842907518E-1,-3.600593805E-1,1.027980223E-1
2.438950521E0,1.874865443E-1,-3.643204570E-1,1.091896072E-1
2.440903646E0,1.890844405E-1,-3.717772961E-1,1.171790883E-1
2.442917807E0,1.917476058E-1,-3.797667921E-1,1.257012039E-1
2.444931967E0,1.890844405E-1,-3.792341352E-1,1.299622655E-1
2.446915609E0,1.896170676E-1,-3.882888854E-1,1.352885813E-1
2.448899252E0,1.885518134E-1,-3.930825889E-1,1.374191195E-1
2.450882895E0,1.853560209E-1,-3.962783813E-1,1.411475390E-1
2.452897055E0,1.821602285E-1,-4.085289240E-1,1.448759735E-1
2.454880697E0,1.794970632E-1,-4.127899706E-1,1.443433315E-1
2.456864340E0,1.741707325E-1,-4.181163013E-1,1.416801661E-1
2.458878500E0,1.688444167E-1,-4.255731404E-1,1.443433315E-1
2.460862143E0,1.603222936E-1,-4.319647253E-1,1.438107044E-1
2.462815268E0,1.549959779E-1,-4.394215941E-1,1.422128081E-1
2.464798910E0,1.539307088E-1,-4.495415986E-1,1.464738697E-1
2.466813070E0,1.448759735E-1,-4.500742257E-1,1.491370201E-1
2.468827230E0,1.379517466E-1,-4.458131790E-1,1.464738697E-1
2.470780355E0,1.288969964E-1,-4.426173866E-1,1.448759735E-1
2.472794516E0,1.198422536E-1,-4.378236830E-1,1.454086006E-1
2.474808676E0,1.150485575E-1,-4.330300093E-1,1.406149119E-1
2.476792318E0,1.097222418E-1,-4.303668439E-1,1.432780623E-1
2.478806479E0,1.038632840E-1,-4.282363057E-1,1.438107044E-1
2.480759604E0,9.747169912E-2,-4.191815555E-1,1.422128081E-1
2.482743246E0,8.788431436E-2,-4.149205089E-1,1.438107044E-1
2.484726889E0,8.042746782E-2,-4.048005044E-1,1.416801661E-1
2.486741049E0,7.137271762E-2,-3.882888854E-1,1.384843737E-1
2.488724691E0,6.498113275E-2,-3.776362538E-1,1.368864775E-1
2.490708334E0,5.965480953E-2,-3.755057156E-1,1.368864775E-1
2.492691977E0,4.900216311E-2,-3.584614992E-1,1.320927888E-1
2.494706137E0,3.728425503E-2,-3.398193717E-1,1.299622655E-1
2.496720297E0,2.716424316E-2,-3.243730366E-1,1.251685768E-1
2.498734457E0,1.384843793E-2,-3.099919558E-1,1.203748807E-1
2.500687582E0,6.924218964E-3,-3.078614175E-1,1.198422536E-1
2.502701742E0,-5.326322280E-3,-2.982740402E-1,1.209075153E-1
2.504715902E0,-2.077265643E-2,-2.897519469E-1,1.219727769E-1
2.506669027E0,-3.728425503E-2,-2.870887816E-1,1.225054115E-1
2.508652670E0,-5.379585549E-2,-2.881540358E-1,1.246359423E-1
2.510666830E0,-7.723167539E-2,-2.801645398E-1,1.267664731E-1
2.512619955E0,-1.043959185E-1,-2.743056118E-1,1.241033077E-1
2.514603598E0,-1.315601617E-1,-2.663161159E-1,1.193096191E-1
2.516617758E0,-1.581917703E-1,-2.663161159E-1,1.145159304E-1
2.518631918E0,-1.970739216E-1,-2.732403278E-1,1.182443574E-1
2.520585043E0,-2.253034264E-1,-2.689792812E-1,1.171790883E-1
2.522599203E0,-2.609897852E-1,-2.561961114E-1,1.161138266E-1
2.524613363E0,-2.945456207E-1,-2.391518652E-1,1.113201380E-1
2.526597006E0,-3.350256681E-1,-2.215750068E-1,1.065264493E-1
2.528580648E0,-3.728425503E-1,-2.082591951E-1,1.012001261E-1
2.530564291E0,-4.149205089E-1,-2.178465873E-1,1.145159304E-1
2.532578451E0,-4.564658105E-1,-1.997370869E-1,1.209075153E-1
2.534592611E0,-4.958806038E-1,-1.667138934E-1,1.251685768E-1
2.536545736E0,-5.326322317E-1,-1.395496428E-1,1.342233270E-1
2.538559896E0,-5.720469952E-1,-1.294296384E-1,1.438107044E-1
2.540543539E0,-6.061354876E-1,-1.129180342E-1,1.549959779E-1
2.542527182E0,-6.418218613E-1,-7.084008306E-2,1.597896665E-1
2.544510824E0,-6.572681665E-1,-5.060006306E-2,1.624528319E-1
2.546524984E0,-6.860303283E-1,-8.522115648E-3,1.565938741E-1
2.548539145E0,-7.089334726E-1,3.249056637E-2,1.470064968E-1
2.550522787E0,-7.297061682E-1,8.309062570E-2,1.363538504E-1
2.552506430E0,-7.520766854E-1,1.438107044E-1,1.235706806E-1
2.554520590E0,-7.717841268E-1,2.162486911E-1,1.022653878E-1
2.556534750E0,-7.845672965E-1,2.796319127E-1,8.202536404E-2
2.558548910E0,-7.930893898E-1,3.456783295E-1,5.166532472E-2
2.560502035E0,-7.952198982E-1,4.170510471E-1,2.290318534E-2
2.562516195E0,-8.016114831E-1,4.910869002E-1,-2.663161140E-3
2.564499838E0,-8.005462289E-1,5.667206645E-1,-3.408846259E-2
2.566483480E0,-7.930893898E-1,6.450176239E-1,-6.444849819E-2
2.568497641E0,-7.829693556E-1,7.360977530E-1,-1.017327532E-1
2.570481283E0,-7.659251690E-1,8.181231022E-1,-1.331580579E-1
2.572495443E0,-7.382282615E-1,8.878979087E-1,-1.677791476E-1
2.574448568E0,-7.073355913E-1,9.475527406E-1,-1.912149638E-1
2.576432211E0,-6.732471585E-1,9.965549111E-1,-2.103897333E-1
2.578476889E0,-6.402239203E-1,1.033306479E0,-2.237055302E-1
2.580430014E0,-6.002765298E-1,1.076982379E0,-2.316950262E-1
2.582413656E0,-5.581985712E-1,1.120658159E0,-2.338255495E-1
2.584427816E0,-5.150553584E-1,1.166997194E0,-2.322276533E-1
2.586441977E0,-4.676510990E-1,1.205346704E0,-2.327602804E-1
2.588425619E0,-4.138552547E-1,1.228782535E0,-2.316950262E-1
2.590409262E0,-3.589941263E-1,1.243696213E0,-2.343581766E-1
2.592423422E0,-3.025351167E-1,1.255946755E0,-2.306297570E-1
2.594407064E0,-2.460760921E-1,1.252750993E0,-2.231729031E-1
2.596390707E0,-1.853560209E-1,1.257544637E0,-2.231729031E-1
2.598435385E0,-1.257012039E-1,1.258077264E0,-2.173139453E-1
2.600419027E0,-6.817692518E-2,1.255414128E0,-2.189118415E-1
2.602372152E0,-4.261057824E-3,1.246892095E0,-2.199771106E-1
2.604355795E0,5.379585549E-2,1.235174179E0,-2.189118415E-1
2.606369955E0,1.107875034E-1,1.220793009E0,-2.167813182E-1
2.608384115E0,1.667138934E-1,1.193096161E0,-2.157160491E-1
2.610337240E0,2.226402760E-1,1.162203550E0,-2.178465873E-1
2.612320883E0,2.775014043E-1,1.127582431E0,-2.157160491E-1
2.614335043E0,3.296993375E-1,1.089765549E0,-2.135855258E-1
2.616349203E0,3.792341352E-1,1.049818158E0,-2.103897333E-1
2.618363363E0,4.319647253E-1,1.004544377E0,-2.018676102E-1
2.620316488E0,4.772384763E-1,9.598032832E-1,-1.997370869E-1
2.622330648E0,5.241101384E-1,9.102684855E-1,-1.917476058E-1
2.624344809E0,5.672533512E-1,8.617989421E-1,-1.853560209E-1
2.626328451E0,6.082659960E-1,8.101336360E-1,-1.763012707E-1
2.628312094E0,6.455502510E-1,7.579356432E-1,-1.672465205E-1
2.630295736E0,6.823018789E-1,7.046724558E-1,-1.619201899E-1
2.632279379E0,7.153250575E-1,6.503439546E-1,-1.523328125E-1
2.634263021E0,7.467503548E-1,5.954828262E-1,-1.427454352E-1
2.636246664E0,7.728493810E-1,5.443501472E-1,-1.374191195E-1
2.638260824E0,7.968178391E-1,4.884237647E-1,-1.288969964E-1
2.640213949E0,8.154599667E-1,4.383563101E-1,-1.225054115E-1
2.642228109E0,8.335694075E-1,3.861583769E-1,-1.139832959E-1
2.644242270E0,8.500810266E-1,3.382214606E-1,-1.102548689E-1
2.646225912E0,8.623315692E-1,2.908172011E-1,-1.038632840E-1
2.648209555E0,8.681905270E-1,2.444781959E-1,-9.960222989E-2
2.650193197E0,8.735168576E-1,1.970739216E-1,-9.374327213E-2
2.652207357E0,8.751147389E-1,1.512675583E-1,-8.788431436E-2
2.654221518E0,8.751147389E-1,1.038632840E-1,-8.309062570E-2
2.656174643E0,8.687231541E-1,3.834952042E-2,-6.817692518E-2
2.658188803E0,8.655273914E-1,-5.326322280E-3,-6.285060197E-2
2.660172445E0,8.575378656E-1,-4.527373984E-2,-5.486112088E-2
2.662156088E0,8.532768488E-1,-7.616640627E-2,-5.486112088E-2
2.664139730E0,8.426241875E-1,-1.075917110E-1,-5.912217870E-2
2.666153891E0,8.282431364E-1,-1.400822699E-1,-5.752427876E-2
2.668168051E0,8.090683818E-1,-1.672465205E-1,-5.432848632E-2
2.670151693E0,7.893609405E-1,-1.906823367E-1,-5.273059011E-2
2.672165854E0,7.643272281E-1,-2.061286718E-1,-4.953479767E-2
2.674180014E0,7.355651259E-1,-2.242381722E-1,-5.219795927E-2
2.676163656E0,7.073355913E-1,-2.402171344E-1,-4.740426689E-2
2.678177816E0,6.775081754E-1,-2.503371537E-1,-4.846953228E-2
2.680161459E0,6.620618701E-1,-2.604571581E-1,-4.527373984E-2
2.682175619E0,6.295713186E-1,-2.700445354E-1,-4.633900523E-2
2.684159262E0,5.965480804E-1,-2.764361203E-1,-4.314320907E-2
2.686142904E0,5.629922748E-1,-2.876214087E-1,-4.261057824E-2
2.688157064E0,5.331648588E-1,-2.945456207E-1,-3.834952042E-2
2.690140707E0,4.990763962E-1,-2.988066673E-1,-3.568635881E-2
2.692154867E0,4.644553065E-1,-3.025351167E-1,-3.355583176E-2
2.694138510E0,4.335626364E-1,-3.067961633E-1,-3.249056637E-2
2.696122152E0,4.005394280E-1,-3.009372056E-1,-3.355583176E-2
2.698166830E0,3.707120419E-1,-2.988066673E-1,-3.462109342E-2
2.700150473E0,3.387540877E-1,-2.908172011E-1,-3.781688958E-2
2.702103598E0,3.094593287E-1,-2.796319127E-1,-4.101268202E-2
2.704087240E0,2.785666585E-1,-2.668487430E-1,-5.006742850E-2
2.706101400E0,2.508697808E-1,-2.519350350E-1,-5.326322466E-2
2.708115561E0,2.194444835E-1,-2.343581766E-1,-6.231797114E-2
2.710068686E0,1.922802329E-1,-2.130528986E-1,-6.924218684E-2
2.712082846E0,1.677791476E-1,-1.917476058E-1,-7.882957160E-2
2.714097006E0,1.411475390E-1,-1.709749401E-1,-8.628641814E-2
2.716080648E0,1.187769845E-1,-1.491370201E-1,-9.267801046E-2
2.718125326E0,9.587380290E-2,-1.278317273E-1,-9.960222989E-2
2.720078451E0,7.616640627E-2,-1.091896072E-1,-1.070590764E-1
2.722062094E0,5.645901710E-2,-8.788431436E-2,-1.118527651E-1
2.724045736E0,3.941478580E-2,-6.870955974E-2,-1.161138266E-1
2.726059896E0,2.077265643E-2,-4.687163606E-2,-1.214401498E-1
2.728074057E0,9.054748341E-3,-2.716424316E-2,-1.203748807E-1
2.730027182E0,-3.195793368E-3,-8.522115648E-3,-1.214401498E-1
2.732010824E0,-1.491370238E-2,7.456851192E-3,-1.219727769E-1
2.734024984E0,-2.769687586E-2,2.929477207E-2,-1.182443574E-1
2.736039145E0,-3.781688958E-2,4.633900523E-2,-1.171790883E-1
2.738053305E0,-4.633900523E-2,6.338323653E-2,-1.134506613E-1
2.740006430E0,-5.060006306E-2,7.989483327E-2,-1.107875034E-1
2.742051107E0,-5.379585549E-2,9.534116834E-2,-1.097222418E-1
2.744034750E0,-5.592638254E-2,1.102548689E-1,-1.038632840E-1
2.746048910E0,-6.018744037E-2,1.225054115E-1,-1.001348570E-1
2.748002035E0,-5.965480953E-2,1.336906850E-1,-9.427590668E-2
2.749985678E0,-6.231797114E-2,1.406149119E-1,-9.161274135E-2
2.751969320E0,-6.178534031E-2,1.470064968E-1,-8.575379103E-2
2.753952963E0,-6.125270575E-2,1.502022892E-1,-8.042746782E-2
2.755967123E0,-5.965480953E-2,1.480717659E-1,-7.403588295E-2
2.758011801E0,-5.699164793E-2,1.507349163E-1,-6.977482140E-2
2.759964926E0,-5.326322466E-2,1.491370201E-1,-6.391586363E-2
2.761948568E0,-5.166532472E-2,1.459412277E-1,-5.645901710E-2
2.763962729E0,-5.060006306E-2,1.416801661E-1,-5.006742850E-2
2.765976889E0,-4.474110901E-2,1.363538504E-1,-4.367584363E-2
2.767960531E0,-3.941478580E-2,1.310275346E-1,-3.834952042E-2
2.769944174E0,-3.568635881E-2,1.272991002E-1,-3.249056637E-2
2.771927816E0,-3.089267015E-2,1.209075153E-1,-2.609897964E-2
2.773941977E0,-2.556634694E-2,1.161138266E-1,-1.704423130E-2
2.775956137E0,-2.183792181E-2,1.107875034E-1,-1.331580617E-2
2.777970297E0,-1.331580617E-2,1.038632840E-1,-7.456851192E-3
2.779923422E0,-1.331580617E-2,9.853696078E-2,-5.326322280E-4
2.781937582E0,-5.326322280E-3,9.054747969E-2,2.130528912E-3
2.783951742E0,-2.130528912E-3,8.468852192E-2,8.522115648E-3
2.785904867E0,1.597896684E-3,7.882957160E-2,9.054748341E-3
2.787888510E0,4.261057824E-3,6.977482140E-2,1.171790902E-2
2.789902670E0,8.522115648E-3,6.285060197E-2,1.757686399E-2
2.791886312E0,1.491370238E-2,5.486112088E-2,1.597896591E-2
2.793869955E0,1.544633508E-2,4.474110901E-2,1.810949668E-2
2.795884115E0,1.864212751E-2,3.621899337E-2,1.810949668E-2
2.797898275E0,1.704423130E-2,2.663161233E-2,1.917476021E-2
2.799851400E0,1.810949668E-2,1.757686399E-2,1.917476021E-2
2.801865561E0,1.864212751E-2,7.456851192E-3,2.024002373E-2
2.803879721E0,1.757686399E-2,-1.597896684E-3,2.077265643E-2
2.805832846E0,1.544633508E-2,-9.587380104E-3,1.970739290E-2
2.807816488E0,1.438106969E-2,-1.970739290E-2,1.597896591E-2
2.809800131E0,1.331580617E-2,-2.503371425E-2,1.704423130E-2
2.811814291E0,9.587380104E-3,-3.249056637E-2,1.757686399E-2
2.813767416E0,9.054748341E-3,-3.781688958E-2,1.544633508E-2
2.815751059E0,3.728425596E-3,-4.580637068E-2,1.544633508E-2
2.817795736E0,-1.597896684E-3,-5.273059011E-2,1.384843793E-2
2.819779379E0,-3.195793368E-3,-5.805691332E-2,1.278317347E-2
2.821732504E0,-9.054748341E-3,-6.444849819E-2,1.012001187E-2
2.823716146E0,-1.651159860E-2,-6.817692518E-2,1.012001187E-2
2.825730307E0,-2.237055451E-2,-7.084008306E-2,9.587380104E-3
2.827744467E0,-2.556634694E-2,-7.510114461E-2,6.924218964E-3
2.829697592E0,-3.249056637E-2,-7.616640627E-2,5.326322280E-3
2.831711752E0,-3.675162420E-2,-8.042746782E-2,3.728425596E-3
2.833725912E0,-4.367584363E-2,-8.255799860E-2,3.195793368E-3
2.835679037E0,-4.846953228E-2,-8.255799860E-2,2.663161140E-3
2.837693197E0,-5.645901710E-2,-8.255799860E-2,2.663161140E-3
2.839676840E0,-6.285060197E-2,-8.202536404E-2,5.326322280E-4
2.841660482E0,-6.764429063E-2,-8.096009493E-2,-5.326322280E-4
2.843644125E0,-7.350324839E-2,-8.522115648E-2,2.130528912E-3
2.845658285E0,-8.042746782E-2,-8.149272949E-2,5.326322280E-4
2.847672445E0,-8.841694891E-2,-8.468852192E-2,-5.326322280E-4
2.849686605E0,-9.161274135E-2,-8.522115648E-2,2.663161140E-3
2.851670248E0,-1.027980223E-1,-8.362326026E-2,2.663161140E-3
2.853653891E0,-1.065264493E-1,-8.681905270E-2,3.195793368E-3
2.855668051E0,-1.118527651E-1,-8.735168725E-2,4.261057824E-3
2.857712729E0,-1.203748807E-1,-8.894958347E-2,6.924218964E-3
2.859665854E0,-1.310275346E-1,-8.841694891E-2,7.989482954E-3
2.861649496E0,-1.352885813E-1,-8.894958347E-2,1.118527725E-2
2.863663656E0,-1.459412277E-1,-8.948221803E-2,1.118527725E-2
2.865677816E0,-1.486043930E-1,-9.161274135E-2,1.278317347E-2
2.867661459E0,-1.544633508E-1,-9.001484513E-2,1.704423130E-2
2.869645102E0,-1.635181010E-1,-9.054747969E-2,1.810949668E-2
2.871659262E0,-1.709749401E-1,-9.161274135E-2,2.343581803E-2
2.873673422E0,-1.699096859E-1,-9.108011425E-2,2.450108156E-2
2.875626547E0,-1.763012707E-1,-9.267801046E-2,3.036003746E-2
2.877671225E0,-1.805623323E-1,-9.374327213E-2,2.769687586E-2
2.879654867E0,-1.864212751E-1,-9.587380290E-2,3.089267015E-2
2.881607992E0,-1.880191714E-1,-9.587380290E-2,3.408846259E-2
2.883591635E0,-1.928128600E-1,-9.427590668E-2,3.515372798E-2
2.885605795E0,-1.928128600E-1,-9.054747969E-2,3.462109342E-2
2.887619955E0,-1.960086524E-1,-8.894958347E-2,3.515372798E-2
2.889603598E0,-1.933455020E-1,-8.841694891E-2,3.568635881E-2
2.891556723E0,-1.960086524E-1,-8.735168725E-2,3.462109342E-2
2.893540365E0,-1.944107562E-1,-8.628641814E-2,3.355583176E-2
2.895554525E0,-1.933455020E-1,-8.362326026E-2,3.195793182E-2
2.897599203E0,-1.912149638E-1,-7.829693705E-2,2.876213938E-2
2.899521811E0,-1.890844405E-1,-7.456851006E-2,2.609897964E-2
2.901535971E0,-1.869539171E-1,-7.243798673E-2,2.503371425E-2
2.903550131E0,-1.805623323E-1,-6.551376730E-2,1.810949668E-2
2.905564291E0,-1.773665249E-1,-5.965480953E-2,1.917476021E-2
2.907517416E0,-1.763012707E-1,-5.326322466E-2,1.012001187E-2
2.909501059E0,-1.661812514E-1,-4.527373984E-2,6.391586736E-3
2.911484701E0,-1.640507281E-1,-3.675162420E-2,3.195793368E-3
2.913468344E0,-1.597896665E-1,-2.876213938E-2,-4.793690052E-3
2.915482504E0,-1.549959779E-1,-2.130528912E-2,-1.065264456E-2
2.917527182E0,-1.475391239E-1,-1.065264456E-2,-1.491370238E-2
2.919480307E0,-1.427454352E-1,-4.793690052E-3,-2.183792181E-2
2.921463949E0,-1.390170157E-1,5.858954508E-3,-2.876213938E-2
2.923478109E0,-1.320927888E-1,1.438106969E-2,-3.621899337E-2
2.925492270E0,-1.294296384E-1,2.290318534E-2,-4.101268202E-2
2.927475912E0,-1.267664731E-1,2.982740477E-2,-4.527373984E-2
2.929459555E0,-1.251685768E-1,3.515372798E-2,-4.900216311E-2
2.931443197E0,-1.246359423E-1,4.101268202E-2,-5.166532472E-2
2.933457357E0,-1.257012039E-1,4.367584363E-2,-5.858954415E-2
2.935471518E0,-1.294296384E-1,4.580637068E-2,-5.912217870E-2
2.937455160E0,-1.358212233E-1,4.740426689E-2,-5.805691332E-2
2.939438803E0,-1.438107044E-1,4.793690145E-2,-5.699164793E-2
2.941452963E0,-1.480717659E-1,5.273059011E-2,-5.965480953E-2
2.943436605E0,-1.587243974E-1,5.379585549E-2,-5.752427876E-2
2.945420248E0,-1.704423130E-1,5.273059011E-2,-5.539375171E-2
2.947403891E0,-1.858886480E-1,4.900216311E-2,-5.326322466E-2
2.949418051E0,-2.039981484E-1,4.900216311E-2,-4.740426689E-2
2.951371176E0,-2.237055302E-1,4.527373984E-2,-4.154531285E-2
2.953354818E0,-2.466087192E-1,4.154531285E-2,-3.675162420E-2
2.955368979E0,-2.668487430E-1,3.941478580E-2,-2.982740477E-2
2.957383139E0,-2.950782478E-1,2.929477207E-2,-2.237055451E-2
2.959336264E0,-3.222424984E-1,2.077265643E-2,-1.225054078E-2
2.961350424E0,-3.526025414E-1,1.384843793E-2,-5.326322280E-3
2.963364584E0,-3.840278387E-1,5.326322280E-3,6.924218964E-3
2.965348227E0,-4.143878818E-1,-1.597896684E-3,1.331580617E-2
2.967331869E0,-4.436826408E-1,-3.728425596E-3,2.183792181E-2
2.969315512E0,-4.719121456E-1,-9.587380104E-3,2.982740477E-2
2.971329672E0,-5.012069345E-1,-1.118527725E-2,3.568635881E-2
2.973343832E0,-5.257080197E-1,-8.522115648E-3,4.314320907E-2
2.975296957E0,-5.464806557E-1,-2.663161140E-3,4.740426689E-2
2.977311117E0,-5.656554103E-1,-5.326322280E-4,5.432848632E-2
2.979294760E0,-5.853627920E-1,9.587380104E-3,5.699164793E-2
2.981278402E0,-5.965480804E-1,2.024002373E-2,5.752427876E-2
2.983262045E0,-6.093312502E-1,3.089267015E-2,5.912217870E-2
2.985276205E0,-6.151902080E-1,4.527373984E-2,6.125270575E-2
2.987290365E0,-6.189186573E-1,5.965480953E-2,5.912217870E-2
2.989274008E0,-6.183860302E-1,7.403588295E-2,5.858954415E-2
2.991288168E0,-6.146575809E-1,9.214537591E-2,5.539375171E-2
2.993302328E0,-6.103965044E-1,1.118527651E-1,4.580637068E-2
2.995285971E0,-5.997439027E-1,1.257012039E-1,4.633900523E-2
2.997300131E0,-5.837649107E-1,1.400822699E-1,3.834952042E-2
2.999283773E0,-5.704491138E-1,1.571265012E-1,3.142530099E-2
3.001297934E0,-5.486112237E-1,1.715075821E-1,2.769687586E-2
3.003281576E0,-5.230448246E-1,1.912149638E-1,2.024002373E-2
3.005265219E0,-4.985437691E-1,2.050634027E-1,1.384843793E-2
3.007279379E0,-4.713795185E-1,2.199771106E-1,7.456851192E-3
3.009263021E0,-4.372910559E-1,2.354234457E-1,2.130528912E-3
3.011277182E0,-4.042678475E-1,2.487392575E-1,0.000000000E0
3.013230307E0,-3.696467578E-1,2.615224123E-1,-9.587380104E-3
3.015213949E0,-3.302319944E-1,2.743056118E-1,-1.491370238E-2
3.017258627E0,-2.924150825E-1,2.865561247E-1,-2.183792181E-2
3.019211752E0,-2.508697808E-1,2.982740402E-1,-3.195793182E-2
3.021195395E0,-2.109223604E-1,3.067961633E-1,-3.355583176E-2
3.023209555E0,-1.709749401E-1,3.174487948E-1,-4.048004746E-2
3.025223715E0,-1.272991002E-1,3.233077526E-1,-4.740426689E-2
3.027237875E0,-8.628641814E-2,3.286340833E-1,-5.166532472E-2
3.029191000E0,-4.527373984E-2,3.360909224E-1,-5.273059011E-2
3.031205160E0,-1.597896684E-3,3.376888335E-1,-5.858954415E-2
3.033219320E0,3.781688958E-2,3.408846259E-1,-6.285060197E-2
3.035202963E0,7.669904083E-2,3.408846259E-1,-6.444849819E-2
3.037247641E0,1.187769845E-1,3.382214606E-1,-6.817692518E-2
3.039200766E0,1.565938741E-1,3.339604139E-1,-6.711166352E-2
3.041184408E0,1.928128600E-1,3.265035450E-1,-7.030745596E-2
3.043168051E0,2.311623842E-1,3.190467060E-1,-7.084008306E-2
3.045182211E0,2.609897852E-1,3.067961633E-1,-7.137271762E-2
3.047196371E0,2.918824553E-1,3.004045784E-1,-7.616640627E-2
3.049149496E0,3.211772442E-1,2.854908705E-1,-7.776430249E-2
3.051133139E0,3.483414650E-1,2.716424465E-1,-7.936219871E-2
3.053147299E0,3.728425503E-1,2.631203234E-1,-8.042746782E-2
3.055161459E0,3.941478431E-1,2.487392575E-1,-8.202536404E-2
3.057175619E0,4.154531360E-1,2.380866110E-1,-8.575379103E-2
3.059128744E0,4.335626364E-1,2.279665917E-1,-9.001484513E-2
3.061142904E0,4.484763443E-1,2.167813182E-1,-9.480853379E-2
3.063157064E0,4.617921412E-1,2.050634027E-1,-9.853696078E-2
3.065140707E0,4.751079381E-1,1.944107562E-1,-9.853696078E-2
3.067124350E0,4.868258536E-1,1.858886480E-1,-9.853696078E-2
3.069138510E0,4.953479767E-1,1.741707325E-1,-1.027980223E-1
3.071122152E0,5.012069345E-1,1.656486243E-1,-1.022653878E-1
3.073105795E0,5.054680109E-1,1.571265012E-1,-1.038632840E-1
3.075119955E0,5.086637735E-1,1.464738697E-1,-1.054611802E-1
3.077164633E0,5.102616549E-1,1.374191195E-1,-1.049285457E-1
3.079117758E0,5.081311464E-1,1.320927888E-1,-1.065264493E-1
3.081101400E0,5.065332651E-1,1.246359423E-1,-1.070590764E-1
3.083115561E0,5.033374429E-1,1.193096191E-1,-1.086569726E-1
3.085129721E0,5.006743073E-1,1.102548689E-1,-1.113201380E-1
3.087113363E0,4.926848114E-1,1.081243455E-1,-1.097222418E-1
3.089097006E0,4.905542731E-1,1.054611802E-1,-1.113201380E-1
3.091080648E0,4.804342687E-1,9.906959534E-2,-1.081243455E-1
3.093094809E0,4.772384763E-1,1.006674916E-1,-1.081243455E-1
3.095108969E0,4.681837261E-1,1.012001261E-1,-1.107875034E-1
3.097123129E0,4.559331834E-1,1.033306494E-1,-1.091896072E-1
3.099076254E0,4.452805519E-1,1.059938148E-1,-1.049285457E-1
3.101090414E0,4.324973822E-1,1.091896072E-1,-1.022653878E-1
3.103104574E0,4.245078862E-1,1.155811921E-1,-9.800432622E-2
3.105088217E0,4.138552547E-1,1.214401498E-1,-9.374327213E-2
3.107071859E0,4.005394280E-1,1.272991002E-1,-9.001484513E-2
3.109086020E0,3.877562582E-1,1.384843737E-1,-8.894958347E-2
3.111069662E0,3.787015080E-1,1.470064968E-1,-8.096009493E-2
3.113053305E0,3.680488765E-1,1.592570394E-1,-7.510114461E-2
3.115036947E0,3.573962152E-1,1.747033745E-1,-7.084008306E-2
3.117051107E0,3.504720032E-1,1.906823367E-1,-6.604639441E-2
3.119004232E0,3.403519988E-1,2.018676102E-1,-6.444849819E-2
3.121018393E0,3.312972486E-1,2.093244642E-1,-5.752427876E-2
3.123032553E0,3.211772442E-1,2.151834220E-1,-4.900216311E-2
3.125016195E0,3.094593287E-1,2.237055302E-1,-3.994741663E-2
3.126999838E0,2.982740402E-1,2.284992188E-1,-3.142530099E-2
3.128983480E0,2.865561247E-1,2.359560728E-1,-1.651159860E-2
3.130997641E0,2.711097896E-1,2.412824035E-1,-3.195793368E-3
3.133011801E0,2.625876963E-1,2.530003190E-1,9.587380104E-3
3.134995443E0,2.514024079E-1,2.599245310E-1,2.183792181E-2
3.137009604E0,2.428802997E-1,2.684466541E-1,3.515372798E-2
3.138993246E0,2.306297570E-1,2.727077007E-1,4.793690145E-2
3.141037924E0,2.221076339E-1,2.822950780E-1,6.072007492E-2
3.143021566E0,2.135855258E-1,2.870887816E-1,6.870955974E-2
3.145005209E0,2.013349831E-1,2.854908705E-1,8.149272949E-2
3.146988852E0,1.949433982E-1,2.854908705E-1,8.788431436E-2
3.149003012E0,1.837581247E-1,2.854908705E-1,9.587380290E-2
3.150956137E0,1.747033745E-1,2.881540358E-1,9.853696078E-2
3.152939779E0,1.709749401E-1,2.844256163E-1,1.065264493E-1
3.154953939E0,1.651159972E-1,2.860234976E-1,1.081243455E-1
3.156998617E0,1.619201899E-1,2.876214087E-1,1.091896072E-1
3.158951742E0,1.555286050E-1,2.881540358E-1,1.118527651E-1
3.160935385E0,1.549959779E-1,2.902845740E-1,1.107875034E-1
3.162949545E0,1.539307088E-1,2.908172011E-1,1.118527651E-1
3.164963705E0,1.523328125E-1,2.934803665E-1,1.123853996E-1
3.166916830E0,1.533980817E-1,2.929477394E-1,1.107875034E-1
3.168900473E0,1.528654546E-1,2.908172011E-1,1.118527651E-1
3.170914633E0,1.539307088E-1,2.913498282E-1,1.091896072E-1
3.172928793E0,1.592570394E-1,2.881540358E-1,1.075917110E-1
3.174942953E0,1.635181010E-1,2.838929892E-1,1.049285457E-1
3.176926596E0,1.683117896E-1,2.801645398E-1,1.043959185E-1
3.178910238E0,1.720402092E-1,2.753708661E-1,1.027980223E-1
3.180924398E0,1.747033745E-1,2.689792812E-1,9.853696078E-2
3.182908041E0,1.842907518E-1,2.593919039E-1,9.800432622E-2
3.184891684E0,1.933455020E-1,2.498045117E-1,9.587380290E-2
3.186905844E0,2.008023560E-1,2.402171344E-1,9.321063757E-2
3.188920004E0,2.061286718E-1,2.290318608E-1,8.948221803E-2
3.190873129E0,2.135855258E-1,2.151834220E-1,8.894958347E-2
3.192856771E0,2.189118415E-1,2.018676102E-1,8.255799860E-2
3.194870932E0,2.269013226E-1,1.858886480E-1,8.202536404E-2
3.196885092E0,2.338255495E-1,1.704423130E-1,7.829693705E-2
3.198838217E0,2.370213419E-1,1.523328125E-1,7.510114461E-2
3.200852377E0,2.402171344E-1,1.336906850E-1,7.510114461E-2
3.202836020E0,2.455434501E-1,1.150485575E-1,7.137271762E-2
3.204819662E0,2.492718846E-1,9.906959534E-2,6.711166352E-2
3.206803305E0,2.551308274E-1,7.936219871E-2,6.551376730E-2
3.208786947E0,2.551308274E-1,6.817692518E-2,6.178534031E-2
3.210801107E0,2.551308274E-1,4.687163606E-2,6.018744037E-2
3.212754232E0,2.588592768E-1,4.261057824E-2,5.858954415E-2
3.214737875E0,2.577939928E-1,2.929477207E-2,5.699164793E-2
3.216782553E0,2.599245310E-1,1.864212751E-2,5.539375171E-2
3.218735678E0,2.599245310E-1,5.858954508E-3,5.273059011E-2
3.220719320E0,2.572613657E-1,-3.728425596E-3,5.006742850E-2
3.222733480E0,2.561961114E-1,-1.118527725E-2,5.060006306E-2
3.224747641E0,2.545982003E-1,-2.024002373E-2,4.793690145E-2
3.226761801E0,2.535329461E-1,-2.556634694E-2,4.740426689E-2
3.228714926E0,2.487392575E-1,-3.408846259E-2,4.474110901E-2
3.230729086E0,2.466087192E-1,-3.675162420E-2,4.633900523E-2
3.232712729E0,2.460760921E-1,-4.367584363E-2,4.474110901E-2
3.234696371E0,2.418150306E-1,-4.953479767E-2,3.994741663E-2
3.236710531E0,2.370213419E-1,-5.273059011E-2,3.781688958E-2
3.238694174E0,2.306297570E-1,-5.805691332E-2,4.048004746E-2
3.240647299E0,2.274339646E-1,-5.858954415E-2,3.462109342E-2
3.242630941E0,2.199771106E-1,-6.125270575E-2,2.982740477E-2
3.244645102E0,2.146507949E-1,-6.072007492E-2,3.249056637E-2
3.246659262E0,2.087918371E-1,-6.231797114E-2,2.663161233E-2
3.248612387E0,2.061286718E-1,-6.231797114E-2,2.396845073E-2
3.250596029E0,1.954760253E-1,-6.125270575E-2,2.396845073E-2
3.252610189E0,1.928128600E-1,-5.699164793E-2,2.077265643E-2
3.254624350E0,1.858886480E-1,-5.592638254E-2,1.704423130E-2
3.256638510E0,1.869539171E-1,-3.781688958E-2,9.054748341E-3
3.258591635E0,1.869539171E-1,-3.195793182E-2,0.000000000E0
3.260605795E0,1.832254827E-1,-3.355583176E-2,-1.597896684E-3
3.262619955E0,1.763012707E-1,-3.888215125E-2,5.326322280E-4
3.264603598E0,1.693770438E-1,-4.527373984E-2,5.326322280E-4
3.266587240E0,1.624528319E-1,-5.006742850E-2,6.391586736E-3
3.268570883E0,1.560612470E-1,-5.486112088E-2,9.054748341E-3
3.270554525E0,1.432780623E-1,-5.752427876E-2,1.651159860E-2
3.272538168E0,1.331580579E-1,-5.805691332E-2,2.290318534E-2
3.274521811E0,1.257012039E-1,-5.539375171E-2,3.249056637E-2
3.276535971E0,1.155811921E-1,-5.219795927E-2,3.302319720E-2
3.278489096E0,1.059938148E-1,-4.474110901E-2,3.941478580E-2
3.280503256E0,9.853696078E-2,-4.474110901E-2,4.474110901E-2
3.282517416E0,9.001484513E-2,-3.781688958E-2,5.060006306E-2
3.284531576E0,7.936219871E-2,-3.462109342E-2,5.539375171E-2
3.286484701E0,7.084008306E-2,-3.408846259E-2,5.592638254E-2
3.288468344E0,5.752427876E-2,-3.515372798E-2,5.752427876E-2
3.290482504E0,4.953479767E-2,-3.302319720E-2,5.858954415E-2
3.292496664E0,4.048004746E-2,-3.728425503E-2,5.858954415E-2
3.294480307E0,3.089267015E-2,-3.302319720E-2,5.805691332E-2
3.296494467E0,1.757686399E-2,-3.195793182E-2,5.219795927E-2
3.298478109E0,9.054748341E-3,-3.036003746E-2,5.326322466E-2
3.300461752E0,3.728425596E-3,-2.876213938E-2,5.166532472E-2
3.302445395E0,-5.858954508E-3,-2.396845073E-2,4.633900523E-2
3.304429037E0,-1.331580617E-2,-2.503371425E-2,4.687163606E-2
3.306443197E0,-2.237055451E-2,-2.024002373E-2,4.633900523E-2
3.308426840E0,-2.982740477E-2,-2.290318534E-2,4.420847446E-2
3.310410482E0,-3.568635881E-2,-2.237055451E-2,4.154531285E-2
3.312424643E0,-4.367584363E-2,-2.024002373E-2,4.154531285E-2
3.314408285E0,-4.953479767E-2,-1.917476021E-2,3.834952042E-2
3.316422445E0,-5.379585549E-2,-1.917476021E-2,3.568635881E-2
3.318406088E0,-6.231797114E-2,-1.970739290E-2,3.888215125E-2
3.320420248E0,-6.551376730E-2,-2.024002373E-2,3.781688958E-2
3.322403891E0,-7.243798673E-2,-1.970739290E-2,3.781688958E-2
3.324387533E0,-7.563377917E-2,-1.757686399E-2,3.302319720E-2
3.326401693E0,-8.042746782E-2,-1.757686399E-2,2.982740477E-2
3.328385336E0,-8.042746782E-2,-1.491370238E-2,3.036003746E-2
3.330399496E0,-8.309062570E-2,-1.384843793E-2,3.195793182E-2
3.332352621E0,-8.788431436E-2,-1.118527725E-2,2.716424316E-2
3.334336264E0,-8.894958347E-2,-1.171790902E-2,2.663161233E-2
3.336380941E0,-8.522115648E-2,-1.384843793E-2,2.716424316E-2
3.338334066E0,-9.054747969E-2,-1.438106969E-2,2.822950855E-2
3.340317709E0,-9.108011425E-2,-1.225054078E-2,2.929477207E-2
3.342331869E0,-9.054747969E-2,-1.704423130E-2,2.822950855E-2
3.344346029E0,-8.894958347E-2,-1.757686399E-2,3.195793182E-2
3.346329672E0,-9.001484513E-2,-1.864212751E-2,3.355583176E-2
3.348313314E0,-8.841694891E-2,-1.970739290E-2,3.675162420E-2
3.350327475E0,-8.681905270E-2,-2.503371425E-2,3.888215125E-2
3.352341635E0,-8.628641814E-2,-2.716424316E-2,4.314320907E-2
3.354325277E0,-8.735168725E-2,-2.876213938E-2,4.900216311E-2
3.356339437E0,-8.362326026E-2,-3.036003746E-2,5.060006306E-2
3.358323080E0,-8.309062570E-2,-3.408846259E-2,5.486112088E-2
3.360306723E0,-8.042746782E-2,-3.675162420E-2,5.805691332E-2
3.362290365E0,-7.723167539E-2,-3.888215125E-2,6.391586363E-2
3.364304525E0,-7.297061384E-2,-4.207794741E-2,6.711166352E-2
3.366318686E0,-6.977482140E-2,-4.580637068E-2,6.977482140E-2
3.368332846E0,-6.764429063E-2,-4.580637068E-2,7.669904083E-2
3.370316488E0,-6.018744037E-2,-4.953479767E-2,7.989483327E-2
3.372300131E0,-5.699164793E-2,-5.113269389E-2,8.202536404E-2
3.374314291E0,-5.113269389E-2,-5.379585549E-2,8.735168725E-2
3.376358969E0,-4.687163606E-2,-5.645901710E-2,9.534116834E-2
3.378312094E0,-4.207794741E-2,-6.285060197E-2,9.693906456E-2
3.380295736E0,-3.621899337E-2,-6.764429063E-2,1.001348570E-1
3.382309896E0,-3.195793182E-2,-7.190535218E-2,1.043959185E-1
3.384324057E0,-2.556634694E-2,-7.350324839E-2,1.081243455E-1
3.386307699E0,-1.704423130E-2,-7.669904083E-2,1.113201380E-1
3.388291342E0,-9.587380104E-3,-8.202536404E-2,1.145159304E-1
3.390305502E0,-2.130528912E-3,-8.681905270E-2,1.161138266E-1
3.392289145E0,6.924218964E-3,-9.534116834E-2,1.209075153E-1
3.394272787E0,1.065264456E-2,-1.012001261E-1,1.230380461E-1
3.396317465E0,1.864212751E-2,-1.065264493E-1,1.251685768E-1
3.398301107E0,2.077265643E-2,-1.171790883E-1,1.283643693E-1
3.400254232E0,2.929477207E-2,-1.251685768E-1,1.278317273E-1
3.402237875E0,3.621899337E-2,-1.395496428E-1,1.304948926E-1
3.404252035E0,3.675162420E-2,-1.528654546E-1,1.320927888E-1
3.406266195E0,4.420847446E-2,-1.629854590E-1,1.331580579E-1
3.408249838E0,4.527373984E-2,-1.752360016E-1,1.358212233E-1
3.410233480E0,4.633900523E-2,-1.901497096E-1,1.384843737E-1
3.412217123E0,4.953479767E-2,-2.055960447E-1,1.427454352E-1
3.414231283E0,5.060006306E-2,-2.194444835E-1,1.454086006E-1
3.416245443E0,4.953479767E-2,-2.332929224E-1,1.507349163E-1
3.418198568E0,5.006742850E-2,-2.460760921E-1,1.533980817E-1
3.420212729E0,4.793690145E-2,-2.652508616E-1,1.592570394E-1
3.422226889E0,4.740426689E-2,-2.785666585E-1,1.651159972E-1
3.424210531E0,4.580637068E-2,-2.945456207E-1,1.715075821E-1
3.426194174E0,4.527373984E-2,-3.131877482E-1,1.741707325E-1
3.428177816E0,4.048004746E-2,-3.302319944E-1,1.805623323E-1
3.430191977E0,3.781688958E-2,-3.462109566E-1,1.832254827E-1
3.432145102E0,3.568635881E-2,-3.627225459E-1,1.848233789E-1
3.434128744E0,3.675162420E-2,-3.696467578E-1,1.800296903E-1
3.436173422E0,3.675162420E-2,-3.845604658E-1,1.778991669E-1
3.438126547E0,3.728425503E-2,-4.079962969E-1,1.773665249E-1
3.440110189E0,3.195793182E-2,-4.324973822E-1,1.837581247E-1
3.442124350E0,2.663161233E-2,-4.511395097E-1,1.858886480E-1
3.444138510E0,2.450108156E-2,-4.697816372E-1,1.922802329E-1
3.446091635E0,1.597896591E-2,-4.884237647E-1,2.008023560E-1
3.448075277E0,1.438106969E-2,-5.054680109E-1,2.071939409E-1
3.450058920E0,9.587380104E-3,-5.139901042E-1,2.151834220E-1
3.452073080E0,4.793690052E-3,-5.209143162E-1,2.221076339E-1
3.454087240E0,2.130528912E-3,-5.246427655E-1,2.295644879E-1
3.456070883E0,2.130528912E-3,-5.262406468E-1,2.338255495E-1
3.458054525E0,2.663161140E-3,-5.283711553E-1,2.380866110E-1
3.460068686E0,3.195793368E-3,-5.294364095E-1,2.407497615E-1
3.462052328E0,7.989482954E-3,-5.251753926E-1,2.423476577E-1
3.464035971E0,1.118527725E-2,-5.214469433E-1,2.434129268E-1
3.466050131E0,1.917476021E-2,-5.161206126E-1,2.370213419E-1
3.468033773E0,2.609897964E-2,-5.145227313E-1,2.343581766E-1
3.470017416E0,2.876213938E-2,-5.129248500E-1,2.311623842E-1
3.472031576E0,3.888215125E-2,-5.134574771E-1,2.300971150E-1
3.474045736E0,4.580637068E-2,-5.118595958E-1,2.290318608E-1
3.476059896E0,5.432848632E-2,-5.075985193E-1,2.274339646E-1
3.478013021E0,6.285060197E-2,-4.996090233E-1,2.226402760E-1
3.480027182E0,7.669904083E-2,-4.910869002E-1,2.226402760E-1
3.482041342E0,8.575379103E-2,-4.857605994E-1,2.215750068E-1
3.484024984E0,9.747169912E-2,-4.745753109E-1,2.146507949E-1
3.486008627E0,1.097222418E-1,-4.649879336E-1,2.114549875E-1
3.487992270E0,1.246359423E-1,-4.559331834E-1,2.071939409E-1
3.490006430E0,1.336906850E-1,-4.442152679E-1,2.034655064E-1
3.492020590E0,1.486043930E-1,-4.340952635E-1,1.981391907E-1
3.494004232E0,1.571265012E-1,-4.229099751E-1,1.928128600E-1
3.496018393E0,1.725728363E-1,-4.106594622E-1,1.826928556E-1
3.498002035E0,1.869539171E-1,-3.984089196E-1,1.747033745E-1
3.500016195E0,2.002697140E-1,-3.866910040E-1,1.661812514E-1
3.501969320E0,2.130528986E-1,-3.749730885E-1,1.592570394E-1
3.503952963E0,2.279665917E-1,-3.643204570E-1,1.523328125E-1
3.505967123E0,2.391518652E-1,-3.526025414E-1,1.475391239E-1
3.507950766E0,2.492718846E-1,-3.403519988E-1,1.390170157E-1
3.509934408E0,2.599245310E-1,-3.227751255E-1,1.384843737E-1
3.511948568E0,2.721750736E-1,-3.073287904E-1,1.326254308E-1
3.513962729E0,2.806971967E-1,-2.881540358E-1,1.262338310E-1
3.515946371E0,2.902845740E-1,-2.743056118E-1,1.246359423E-1
3.517930014E0,3.004045784E-1,-2.593919039E-1,1.203748807E-1
3.519913656E0,3.062635362E-1,-2.439455539E-1,1.182443574E-1
3.521897299E0,3.121224940E-1,-2.295644879E-1,1.166464612E-1
3.523880941E0,3.174487948E-1,-2.157160491E-1,1.129180342E-1
3.525895102E0,3.217098713E-1,-2.002697140E-1,1.097222418E-1
3.527878744E0,3.243730366E-1,-1.853560209E-1,1.059938148E-1
3.529862387E0,3.249056637E-1,-1.709749401E-1,1.075917110E-1
3.531876547E0,3.296993375E-1,-1.603222936E-1,1.075917110E-1
3.533890707E0,3.286340833E-1,-1.443433315E-1,1.075917110E-1
3.535904867E0,3.312972486E-1,-1.294296384E-1,1.075917110E-1
3.537857992E0,3.312972486E-1,-1.161138266E-1,1.075917110E-1
3.539902670E0,3.281014562E-1,-1.038632840E-1,1.097222418E-1
3.541886312E0,3.259709179E-1,-9.214537591E-2,1.097222418E-1
3.543900473E0,3.233077526E-1,-8.042746782E-2,1.145159304E-1
3.545853598E0,3.185140789E-1,-6.977482140E-2,1.166464612E-1
3.547867758E0,3.137203753E-1,-5.965480953E-2,1.251685768E-1
3.549851400E0,3.083940744E-1,-4.953479767E-2,1.288969964E-1
3.551835043E0,3.020024598E-1,-4.101268202E-2,1.374191195E-1
3.553818686E0,2.924150825E-1,-3.302319720E-2,1.411475390E-1
3.555863363E0,2.860234976E-1,-2.556634694E-2,1.523328125E-1
3.557816488E0,2.748382390E-1,-1.864212751E-2,1.613875628E-1
3.559800131E0,2.620550692E-1,-1.384843793E-2,1.720402092E-1
3.561814291E0,2.519350350E-1,-9.054748341E-3,1.821602285E-1
3.563828451E0,2.412824035E-1,-4.261057824E-3,1.906823367E-1
3.565812094E0,2.269013226E-1,2.663161140E-3,1.997370869E-1
3.567795736E0,2.125202566E-1,2.130528912E-3,2.098570913E-1
3.569779379E0,2.024002522E-1,6.924218964E-3,2.173139453E-1
3.571793539E0,1.906823367E-1,1.118527725E-2,2.258360684E-1
3.573807699E0,1.741707325E-1,6.391586736E-3,2.354234457E-1
3.575791342E0,1.592570394E-1,1.065264456E-3,2.444781959E-1
3.577744467E0,1.400822699E-1,-3.195793368E-3,2.508697808E-1
3.579758627E0,1.267664731E-1,-9.054748341E-3,2.551308274E-1
3.581742270E0,1.081243455E-1,-1.438106969E-2,2.609897852E-1
3.583725912E0,9.321063757E-2,-2.077265643E-2,2.679139972E-1
3.585740072E0,8.042746782E-2,-2.716424316E-2,2.711097896E-1
3.587754232E0,6.551376730E-2,-3.142530099E-2,2.753708661E-1
3.589707357E0,5.486112088E-2,-3.408846259E-2,2.775014043E-1
3.591691000E0,4.261057824E-2,-3.621899337E-2,2.806971967E-1
3.593705160E0,3.515372798E-2,-3.515372798E-2,2.796319127E-1
3.595719320E0,2.929477207E-2,-3.515372798E-2,2.812298238E-1
3.597672445E0,2.609897964E-2,-3.355583176E-2,2.806971967E-1
3.599686605E0,2.290318534E-2,-3.036003746E-2,2.796319127E-1
3.601700766E0,1.917476021E-2,-2.982740477E-2,2.780340314E-1
3.603653891E0,1.597896591E-2,-2.396845073E-2,2.759034932E-1
3.605637533E0,1.491370238E-2,-1.970739290E-2,2.743056118E-1
3.607621176E0,1.225054078E-2,-1.864212751E-2,2.689792812E-1
3.609635336E0,1.171790902E-2,-1.384843793E-2,2.657834888E-1
3.611618979E0,1.384843793E-2,-1.171790902E-2,2.647182047E-1
3.613602621E0,1.757686399E-2,-6.391586736E-3,2.572613657E-1
3.615647299E0,1.757686399E-2,-6.391586736E-3,2.545982003E-1
3.617630941E0,1.864212751E-2,-5.326322280E-3,2.482066154E-1
3.619584066E0,2.024002373E-2,-3.728425596E-3,2.444781959E-1
3.621567709E0,2.077265643E-2,-4.793690052E-3,2.407497615E-1
3.623581869E0,2.237055451E-2,-1.597896684E-3,2.370213419E-1
3.625596029E0,2.237055451E-2,-5.326322280E-3,2.343581766E-1
3.627579672E0,2.130528912E-2,-6.924218964E-3,2.311623842E-1
3.629593832E0,2.130528912E-2,-9.587380104E-3,2.279665917E-1
3.631607992E0,1.757686399E-2,-1.012001187E-2,2.274339646E-1
3.633591635E0,1.597896591E-2,-1.171790902E-2,2.290318608E-1
3.635605795E0,1.491370238E-2,-1.544633508E-2,2.284992188E-1
3.637589437E0,1.012001187E-2,-1.651159860E-2,2.269013226E-1
3.639603598E0,7.456851192E-3,-1.810949668E-2,2.269013226E-1
3.641587240E0,-5.326322280E-4,-2.130528912E-2,2.274339646E-1
3.643570883E0,-3.195793368E-3,-1.917476021E-2,2.295644879E-1
3.645585043E0,-9.054748341E-3,-2.130528912E-2,2.284992188E-1
3.647568686E0,-1.438106969E-2,-2.503371425E-2,2.253034264E-1
3.649582846E0,-1.917476021E-2,-2.450108156E-2,2.258360684E-1
3.651535971E0,-2.556634694E-2,-2.503371425E-2,2.231729031E-1
3.653519613E0,-3.568635881E-2,-2.237055451E-2,2.215750068E-1
3.655564291E0,-3.994741663E-2,-2.183792181E-2,2.199771106E-1
3.657517416E0,-4.687163606E-2,-1.864212751E-2,2.141181529E-1
3.659501059E0,-5.326322466E-2,-1.225054078E-2,2.098570913E-1
3.661515219E0,-6.125270575E-2,-1.012001187E-2,2.039981484E-1
3.663529379E0,-6.657902896E-2,-3.728425596E-3,1.970739216E-1
3.665513021E0,-7.243798673E-2,0.000000000E0,1.906823367E-1
3.667496664E0,-7.882957160E-2,4.793690052E-3,1.880191714E-1
3.669510824E0,-8.628641814E-2,1.118527725E-2,1.805623323E-1
3.671524984E0,-9.267801046E-2,1.704423130E-2,1.784317940E-1
3.673508627E0,-9.906959534E-2,2.663161233E-2,1.672465205E-1
3.675522787E0,-1.038632840E-1,3.408846259E-2,1.629854590E-1
3.677506430E0,-1.097222418E-1,4.420847446E-2,1.528654546E-1
3.679459555E0,-1.193096191E-1,5.432848632E-2,1.464738697E-1
3.681443197E0,-1.219727769E-1,6.072007492E-2,1.406149119E-1
3.683457357E0,-1.288969964E-1,6.924218684E-2,1.342233270E-1
3.685471518E0,-1.352885813E-1,8.042746782E-2,1.278317273E-1
3.687424643E0,-1.390170157E-1,9.054747969E-2,1.225054115E-1
3.689408285E0,-1.443433315E-1,9.906959534E-2,1.129180342E-1
3.691422445E0,-1.507349163E-1,1.091896072E-1,1.012001261E-1
3.693436605E0,-1.565938741E-1,1.155811921E-1,9.374327213E-2
3.695450766E0,-1.624528319E-1,1.257012039E-1,8.628641814E-2
3.697403891E0,-1.667138934E-1,1.331580579E-1,7.616640627E-2
3.699418051E0,-1.736381054E-1,1.416801661E-1,6.924218684E-2
3.701432211E0,-1.778991669E-1,1.475391239E-1,6.285060197E-2
3.703385336E0,-1.837581247E-1,1.544633508E-1,5.166532472E-2
3.705368979E0,-1.880191714E-1,1.635181010E-1,4.261057824E-2
3.707352621E0,-1.997370869E-1,1.640507281E-1,3.408846259E-2
3.709336264E0,-2.055960447E-1,1.704423130E-1,2.609897964E-2
3.711319906E0,-2.098570913E-1,1.773665249E-1,1.757686399E-2
3.713334066E0,-2.162486911E-1,1.794970632E-1,9.054748341E-3
3.715348227E0,-2.279665917E-1,1.816275865E-1,1.065264456E-3
3.717301352E0,-2.311623842E-1,1.826928556E-1,-6.924218964E-3
3.719315512E0,-2.434129268E-1,1.880191714E-1,-1.384843793E-2
3.721329672E0,-2.492718846E-1,1.906823367E-1,-2.396845073E-2
3.723282797E0,-2.593919039E-1,1.933455020E-1,-2.876213938E-2
3.725266439E0,-2.615224123E-1,1.938781291E-1,-3.302319720E-2
3.727250082E0,-2.721750736E-1,1.986718178E-1,-3.834952042E-2
3.729264242E0,-2.801645398E-1,1.986718178E-1,-4.793690145E-2
3.731247885E0,-2.940129936E-1,2.013349831E-1,-5.326322466E-2
3.733231527E0,-3.020024598E-1,2.045307755E-1,-6.018744037E-2
3.735276205E0,-3.126551211E-1,2.077265680E-1,-6.764429063E-2
3.737259848E0,-3.217098713E-1,2.087918371E-1,-7.190535218E-2
3.739243490E0,-3.328951299E-1,2.093244642E-1,-7.936219871E-2
3.741227133E0,-3.430151641E-1,2.130528986E-1,-8.735168725E-2
3.743241293E0,-3.552657068E-1,2.151834220E-1,-9.214537591E-2
3.745255453E0,-3.627225459E-1,2.210423797E-1,-9.853696078E-2
3.747239096E0,-3.739078343E-1,2.226402760E-1,-1.065264493E-1
3.749222738E0,-3.824299276E-1,2.300971150E-1,-1.118527651E-1
3.751236898E0,-3.946804702E-1,2.332929224E-1,-1.187769845E-1
3.753251059E0,-4.021373391E-1,2.375539690E-1,-1.230380461E-1
3.755265219E0,-4.090615511E-1,2.466087192E-1,-1.310275346E-1
3.757248861E0,-4.149205089E-1,2.519350350E-1,-1.379517466E-1
3.759263021E0,-4.191815555E-1,2.577939928E-1,-1.427454352E-1
3.761246664E0,-4.218447208E-1,2.679139972E-1,-1.464738697E-1
3.763230307E0,-4.298342168E-1,2.748382390E-1,-1.571265012E-1
3.765213949E0,-4.324973822E-1,2.833603323E-1,-1.629854590E-1
3.767197592E0,-4.367584288E-1,2.886866629E-1,-1.677791476E-1
3.769181234E0,-4.340952635E-1,2.993393242E-1,-1.773665249E-1
3.771164877E0,-4.383563101E-1,3.046656251E-1,-1.842907518E-1
3.773148520E0,-4.399542212E-1,3.121224940E-1,-1.917476058E-1
3.775193197E0,-4.367584288E-1,3.206445873E-1,-1.965412945E-1
3.777146322E0,-4.378236830E-1,3.296993375E-1,-2.029328793E-1
3.779129965E0,-4.372910559E-1,3.366235793E-1,-2.071939409E-1
3.781144125E0,-4.378236830E-1,3.435477912E-1,-2.173139453E-1
3.783158285E0,-4.394215941E-1,3.494067490E-1,-2.205097377E-1
3.785141928E0,-4.367584288E-1,3.520699143E-1,-2.274339646E-1
3.787125570E0,-4.404868484E-1,3.589941263E-1,-2.343581766E-1
3.789139730E0,-4.383563101E-1,3.632551730E-1,-2.386192381E-1
3.791092855E0,-4.404868484E-1,3.648530841E-1,-2.423476577E-1
3.793076498E0,-4.399542212E-1,3.707120419E-1,-2.455434501E-1
3.795121176E0,-4.415521026E-1,3.755057156E-1,-2.476739883E-1
3.797074301E0,-4.415521026E-1,3.771036267E-1,-2.498045117E-1
3.799057943E0,-4.426173866E-1,3.813646734E-1,-2.492718846E-1
3.801072104E0,-4.447479248E-1,3.818973005E-1,-2.487392575E-1
3.803086264E0,-4.458131790E-1,3.856257200E-1,-2.487392575E-1
3.805100424E0,-4.495415986E-1,3.866910040E-1,-2.498045117E-1
3.807053549E0,-4.511395097E-1,3.893541694E-1,-2.450108230E-1
3.809037191E0,-4.527373910E-1,3.914846778E-1,-2.444781959E-1
3.811051352E0,-4.543353021E-1,3.898867965E-1,-2.428802997E-1
3.813065512E0,-4.575310946E-1,3.898867965E-1,-2.418150306E-1
3.815079672E0,-4.591289759E-1,3.930825889E-1,-2.407497615E-1
3.817032797E0,-4.639226794E-1,3.914846778E-1,-2.386192381E-1
3.819046957E0,-4.644553065E-1,3.861583769E-1,-2.364887148E-1
3.821061117E0,-4.708468914E-1,3.824299276E-1,-2.396845073E-1
3.823044760E0,-4.751079381E-1,3.829625845E-1,-2.386192381E-1
3.825028402E0,-4.772384763E-1,3.765709996E-1,-2.380866110E-1
3.827012045E0,-4.809668958E-1,3.771036267E-1,-2.386192381E-1
3.828995687E0,-4.852279723E-1,3.749730885E-1,-2.418150306E-1
3.830979330E0,-4.862932265E-1,3.760383427E-1,-2.423476577E-1
3.832962973E0,-4.889563918E-1,3.771036267E-1,-2.428802997E-1
3.834977133E0,-4.932174385E-1,3.760383427E-1,-2.407497615E-1
3.836930258E0,-4.926848114E-1,3.808320463E-1,-2.439455539E-1
3.838944418E0,-4.932174385E-1,3.850930929E-1,-2.428802997E-1
3.840958578E0,-4.969458580E-1,3.866910040E-1,-2.455434501E-1
3.842942221E0,-4.953479767E-1,3.882888854E-1,-2.418150306E-1
3.844925863E0,-4.942827225E-1,3.898867965E-1,-2.450108230E-1
3.846909506E0,-4.996090233E-1,3.920173049E-1,-2.444781959E-1
3.848923666E0,-5.006743073E-1,3.925499618E-1,-2.460760921E-1
3.850937826E0,-5.022721887E-1,3.920173049E-1,-2.471413612E-1
3.852890951E0,-5.022721887E-1,3.936152160E-1,-2.471413612E-1
3.854905111E0,-5.060006380E-1,3.882888854E-1,-2.466087192E-1
3.856888754E0,-5.129248500E-1,3.845604658E-1,-2.466087192E-1
3.858872396E0,-5.166532397E-1,3.829625845E-1,-2.492718846E-1
3.860856039E0,-5.198490620E-1,3.787015080E-1,-2.530003190E-1
3.862870199E0,-5.299690962E-1,3.744404614E-1,-2.508697808E-1
3.864884359E0,-5.342301130E-1,3.696467578E-1,-2.540655732E-1
3.866868002E0,-5.400890708E-1,3.595267534E-1,-2.540655732E-1
3.868882162E0,-5.438175201E-1,3.611246645E-1,-2.535329461E-1
3.870896322E0,-5.502091050E-1,3.584614992E-1,-2.519350350E-1
3.872879965E0,-5.560680628E-1,3.478088379E-1,-2.540655732E-1
3.874894125E0,-5.661880374E-1,3.350256681E-1,-2.561961114E-1
3.876877768E0,-5.779059529E-1,3.227751255E-1,-2.588592768E-1
3.878891928E0,-5.885586143E-1,3.067961633E-1,-2.572613657E-1
3.880875570E0,-6.024070382E-1,2.929477394E-1,-2.593919039E-1
3.882859213E0,-6.135923266E-1,2.790992856E-1,-2.567287385E-1
3.884873373E0,-6.242449880E-1,2.647182047E-1,-2.609897852E-1
3.886857016E0,-6.375607848E-1,2.503371537E-1,-2.620550692E-1
3.888840658E0,-6.466155052E-1,2.370213419E-1,-2.593919039E-1
3.890824301E0,-6.588660479E-1,2.226402760E-1,-2.583266199E-1
3.892807943E0,-6.663229465E-1,2.141181529E-1,-2.545982003E-1
3.894852621E0,-6.705839634E-1,1.992044598E-1,-2.503371537E-1
3.896805746E0,-6.807039976E-1,1.901497096E-1,-2.466087192E-1
3.898789389E0,-6.823018789E-1,1.789644361E-1,-2.412824035E-1
3.900803549E0,-6.897587180E-1,1.677791476E-1,-2.391518652E-1
3.902817709E0,-6.886934638E-1,1.587243974E-1,-2.311623842E-1
3.904821533E0,-6.913566589E-1,1.459412277E-1,-2.253034264E-1
3.906835693E0,-6.902913451E-1,1.315601617E-1,-2.189118415E-1
3.908819336E0,-6.902913451E-1,1.203748807E-1,-2.125202566E-1
3.910802978E0,-6.860303283E-1,1.065264493E-1,-2.077265680E-1
3.912786621E0,-6.812366247E-1,9.108011425E-2,-2.002697140E-1
3.914800781E0,-6.737797856E-1,7.403588295E-2,-1.938781291E-1
3.916753906E0,-6.657902598E-1,5.539375171E-2,-1.853560209E-1
3.918768066E0,-6.572681665E-1,4.101268202E-2,-1.784317940E-1
3.920782226E0,-6.460828781E-1,1.864212751E-2,-1.725728363E-1
3.922765869E0,-6.322344542E-1,2.663161140E-3,-1.624528319E-1
3.924749512E0,-6.226470470E-1,-1.597896591E-2,-1.576591432E-1
3.926733154E0,-6.077333689E-1,-3.462109342E-2,-1.475391239E-1
3.928747314E0,-5.928196907E-1,-5.752427876E-2,-1.406149119E-1
3.930761475E0,-5.752428174E-1,-8.362326026E-2,-1.299622655E-1
3.932714600E0,-5.576659441E-1,-1.049285457E-1,-1.219727769E-1
3.934728760E0,-5.411543250E-1,-1.246359423E-1,-1.075917110E-1
3.936712402E0,-5.251753926E-1,-1.459412277E-1,-9.427590668E-2
3.938757080E0,-5.049353242E-1,-1.661812514E-1,-8.309062570E-2
3.940679687E0,-4.921521842E-1,-1.864212751E-1,-6.817692518E-2
3.942663330E0,-4.756405652E-1,-2.045307755E-1,-5.699164793E-2
3.944677490E0,-4.596616030E-1,-2.215750068E-1,-4.261057824E-2
3.946661133E0,-4.410194755E-1,-2.423476577E-1,-2.663161233E-2
3.948644775E0,-4.282363057E-1,-2.583266199E-1,-9.587380104E-3
3.950658935E0,-4.159857631E-1,-2.748382390E-1,7.989482954E-3
3.952673096E0,-4.042678475E-1,-2.929477394E-1,2.609897964E-2
3.954656738E0,-3.904194236E-1,-3.094593287E-1,4.687163606E-2
3.956640381E0,-3.813646734E-1,-3.243730366E-1,6.338323653E-2
3.958654541E0,-3.701793849E-1,-3.382214606E-1,8.522115648E-2
3.960668701E0,-3.600593805E-1,-3.552657068E-1,1.033306494E-1
3.962621826E0,-3.510046303E-1,-3.653857112E-1,1.225054115E-1
3.964605469E0,-3.414172530E-1,-3.781688809E-1,1.432780623E-1
3.966589111E0,-3.296993375E-1,-3.824299276E-1,1.597896665E-1
