"Time (s)","Acceleration x (m/s^2)","Acceleration y (m/s^2)","Acceleration z (m/s^2)"
2.054384700E-2,3.245873451E-1,4.111838818E0,8.797993660E0
2.300738800E-2,2.916495204E-1,4.144776821E0,9.056106567E0
2.547093000E-2,3.533330858E-1,4.163940430E0,9.118389130E0
2.793447200E-2,3.347681165E-1,4.202268124E0,9.232772827E0
3.039806600E-2,3.730957806E-1,4.245387077E0,9.266309738E0
3.286160700E-2,3.299771547E-1,4.278923512E0,9.395666122E0
3.532514900E-2,3.635138571E-1,4.365160942E0,9.495676994E0
3.778869100E-2,4.114234447E-1,4.355578899E0,9.490885735E0
4.025228400E-2,4.210053682E-1,4.436426163E0,9.467530251E0
4.271582600E-2,4.257963002E-1,4.469963074E0,9.323801041E0
4.517936800E-2,4.545420408E-1,4.474753857E0,9.257327080E0
4.764290900E-2,5.120335221E-1,4.493917942E0,9.199835777E0
5.010645100E-2,5.695250034E-1,4.469963074E0,9.199835777E0
5.257004500E-2,5.264064074E-1,4.407680511E0,9.099225044E0
5.503358600E-2,5.359883308E-1,4.441217422E0,8.946513176E0
5.749712800E-2,5.359883308E-1,4.417262554E0,8.936931610E0
5.996067000E-2,5.455702543E-1,4.383725643E0,8.936931610E0
6.242426300E-2,5.461691022E-1,4.359770775E0,8.841112137E0
6.488780500E-2,6.132425070E-1,4.311861515E0,8.750682831E0
6.735134700E-2,6.371973157E-1,4.254369736E0,8.707564354E0
6.981488800E-2,6.803159118E-1,4.221432209E0,8.645281792E0
7.227848200E-2,6.851068735E-1,4.159149647E0,8.564435005E0
7.474202400E-2,6.755249500E-1,4.192686558E0,8.521315575E0
7.720556600E-2,6.132425070E-1,4.159149647E0,8.621926308E0
7.966910700E-2,6.036605835E-1,4.154358864E0,8.688400269E0
8.213264900E-2,6.563611031E-1,4.106449127E0,8.851293564E0
8.459624300E-2,6.755249500E-1,4.039375782E0,8.884829521E0
8.705978400E-2,6.467791796E-1,4.034584522E0,8.899202347E0
8.952332600E-2,6.090503931E-1,3.991466045E0,8.980050087E0
9.198686800E-2,5.515589118E-1,3.953138351E0,8.970468521E0
9.445046100E-2,4.701126516E-1,3.962720394E0,8.899202347E0
9.691400300E-2,4.174121320E-1,3.924392700E0,8.846502304E0
9.937754500E-2,4.940674603E-1,3.876483202E0,8.827338219E0
1.018410860E-1,5.180222392E-1,3.804618835E0,8.851293564E0
1.043046800E-1,4.755024910E-1,3.781262875E0,8.827338219E0
1.067682220E-1,4.563386738E-1,3.823782682E0,8.822547913E0
1.092317630E-1,4.467567503E-1,3.790246010E0,8.841711044E0
1.116953050E-1,4.371748269E-1,3.766291142E0,8.799191475E0
1.141588470E-1,4.946663082E-1,3.704607487E0,8.851293564E0
1.166224410E-1,5.042482615E-1,3.699816704E0,8.908784866E0
1.190859820E-1,4.419657886E-1,3.732754469E0,8.951903343E0
1.215495240E-1,3.994460404E-1,3.704607487E0,8.908784866E0
1.240130660E-1,4.090279639E-1,3.671070814E0,8.918366432E0
1.264766590E-1,4.377737045E-1,3.699217796E0,8.975857735E0
1.289402010E-1,4.234008193E-1,3.671070814E0,8.866265297E0
1.314037430E-1,4.281917810E-1,3.684844971E0,8.770445824E0
1.338672840E-1,4.186098874E-1,3.670471907E0,8.808773041E0
1.363308780E-1,3.802822232E-1,3.723172426E0,8.760864258E0
1.387944200E-1,3.802822232E-1,3.747127295E0,8.736908913E0
1.412579610E-1,4.856832623E-1,3.799827814E0,8.770445824E0
1.437215030E-1,5.623385906E-1,3.823782682E0,8.760864258E0
1.461850450E-1,5.431747437E-1,3.852528334E0,8.689598083E0
1.486486380E-1,5.575476289E-1,3.828573465E0,8.579406738E0
1.511121800E-1,5.767114758E-1,3.838155508E0,8.493168831E0
1.535757220E-1,5.773103237E-1,3.857319355E0,8.282965660E0
1.560392630E-1,6.773215532E-1,3.809409857E0,8.273384094E0
1.585028050E-1,6.964854002E-1,3.732754469E0,8.436276436E0
1.609664510E-1,6.875023246E-1,3.680053949E0,8.531497002E0
1.634300970E-1,6.875023246E-1,3.636935234E0,8.541078568E0
1.658937430E-1,6.060560942E-1,3.646517277E0,8.541677475E0
1.683573360E-1,5.629374385E-1,3.680053949E0,8.517723083E0
1.708209820E-1,5.060448647E-1,3.636935234E0,8.646479607E0
1.732846280E-1,4.868810177E-1,3.589025736E0,8.723134995E0
1.757482740E-1,4.341804981E-1,3.608189583E0,8.861474037E0
1.782118680E-1,3.766889870E-1,3.565070868E0,9.053112030E0
1.806755130E-1,4.245985746E-1,3.445895910E0,9.234569550E0
1.831391590E-1,4.581352770E-1,3.393195391E0,9.463936806E0
1.856027530E-1,4.198076129E-1,3.345285892E0,9.669947624E0
1.880663990E-1,3.916607499E-1,3.263839483E0,9.894524574E0
1.905300450E-1,3.054235280E-1,3.168020487E0,9.636411667E0
1.929936910E-1,3.724969029E-1,3.120110750E0,9.335180283E0
1.954572840E-1,4.491522312E-1,3.063218117E0,9.416625977E0
1.979209300E-1,4.922708273E-1,3.039263487E0,9.483100891E0
2.003845760E-1,5.641351938E-1,2.981771946E0,9.311224937E0
2.028482220E-1,5.066437125E-1,3.048845291E0,9.072276115E0
2.053118160E-1,4.778979719E-1,3.086574078E0,8.977055550E0
2.077754610E-1,4.204064906E-1,2.996144772E0,8.919564247E0
2.102391070E-1,3.203952610E-1,2.972189903E0,8.886027336E0
2.127027010E-1,3.060223758E-1,2.914698601E0,8.948309898E0
2.151663470E-1,2.772766352E-1,2.919489384E0,8.785417557E0
2.176299930E-1,3.012314141E-1,2.890743732E0,8.804581642E0
2.200936380E-1,3.156042993E-1,2.756597042E0,8.828536034E0
2.225572320E-1,3.443500400E-1,2.756597042E0,8.871654510E0
2.250208780E-1,4.928697050E-1,2.737433195E0,8.876445770E0
2.274845240E-1,6.413893700E-1,2.684732676E0,8.733315468E0
2.299481700E-1,7.988920808E-1,2.493693113E0,8.603960037E0
2.324117630E-1,9.713665247E-1,2.359546423E0,8.441666603E0
2.348754090E-1,1.306134701E0,2.187670708E0,8.327281952E0
2.373390550E-1,1.660066605E0,1.833738804E0,8.226672173E0
2.398026490E-1,1.975670934E0,1.642699361E0,8.375191689E0
2.422662950E-1,2.220009804E0,1.723546863E0,8.666242599E0
2.447299410E-1,2.363738537E0,1.742710590E0,8.953101158E0
2.471935860E-1,2.358947515E0,1.766665459E0,9.402852058E0
2.496571800E-1,2.038552284E0,1.948721766E0,9.842422485E0
2.521208260E-1,1.737320781E0,2.168506861E0,1.025384617E1
2.545844720E-1,1.426507473E0,2.402664900E0,1.076048946E1
2.570480660E-1,1.072575569E0,2.579331636E0,1.117131424E1
2.595117110E-1,7.234345078E-1,2.851817131E0,1.153482819E1
2.619753570E-1,3.120110929E-1,3.057828426E0,1.184564114E1
2.644390030E-1,-3.233896196E-2,3.234494925E0,1.201751709E1
2.669025970E-1,-3.766889870E-1,3.325523138E0,1.206542683E1
2.693662430E-1,-7.066661716E-1,3.363850832E0,1.221334743E1
2.718298880E-1,-1.017479539E0,3.325523138E0,1.219897461E1
2.742935340E-1,-1.270801425E0,3.220122099E0,1.194565296E1
2.767571280E-1,-1.519332290E0,3.038664579E0,1.167376614E1
2.792207740E-1,-1.743908405E0,2.813489437E0,1.142044353E1
2.816844200E-1,-1.921173811E0,2.569749594E0,1.111921215E1
2.841480130E-1,-2.021184921E0,2.225399494E0,1.075090790E1
2.866116590E-1,-2.112213135E0,1.976868629E0,1.049279499E1
2.890753050E-1,-2.203241348E0,1.757083535E0,1.024426365E1
2.915389510E-1,-2.293670654E0,1.579818130E0,1.012987995E1
2.940025450E-1,-2.355953217E0,1.522326589E0,9.871767044E0
2.964661910E-1,-2.480518103E0,1.455253243E0,9.771157265E0
2.989298360E-1,-2.537410736E0,1.445671320E0,9.699891090E0
3.013934820E-1,-2.523037672E0,1.469626069E0,9.637609482E0
3.038570760E-1,-2.599693060E0,1.589400053E0,9.661563873E0
3.063207220E-1,-2.551783562E0,1.670846343E0,9.594490051E0
3.087843680E-1,-2.470337152E0,1.722947955E0,9.513044357E0
3.112479610E-1,-2.264925003E0,1.842721820E0,9.522625923E0
3.137116070E-1,-1.929557920E0,1.895422339E0,9.408242226E0
3.161752530E-1,-1.666654229E0,2.048134089E0,9.345959663E0
3.186388990E-1,-1.432496190E0,2.172698975E0,9.384286880E0
3.211024930E-1,-1.149829745E0,2.163117170E0,9.331586838E0
3.235661380E-1,-8.917168975E-1,2.248755455E0,9.307631493E0
3.260297840E-1,-6.000673771E-1,2.253546476E0,9.313021660E0
3.284934300E-1,-3.221918643E-1,2.258337498E0,9.260321617E0
3.309570240E-1,-7.366096228E-2,2.196653843E0,9.217202187E0
3.334206700E-1,1.179773211E-1,2.220009804E0,9.154920578E0
3.358843160E-1,3.185986578E-1,2.187071800E0,9.088445663E0
3.383479090E-1,4.527454376E-1,2.124789476E0,9.054908752E0
3.408115550E-1,5.725193620E-1,2.100834608E0,8.939926147E0
3.432752010E-1,7.114571333E-1,2.153535128E0,8.887225151E0
3.457388470E-1,8.162593246E-1,2.200845957E0,8.806378365E0
3.482024410E-1,8.024852872E-1,2.224800587E0,8.787214279E0
3.506660860E-1,7.402028441E-1,2.311038017E0,8.763258934E0
3.531297320E-1,6.922932863E-1,2.354156494E0,8.959089279E0
3.555933780E-1,5.347905755E-1,2.420631170E0,9.155518532E0
3.580569720E-1,3.766889870E-1,2.535614014E0,9.269903183E0
3.605206180E-1,2.910506427E-1,2.583523512E0,9.623834610E0
3.629842630E-1,2.527229786E-1,2.583523512E0,9.915484428E0
3.654478570E-1,1.904405504E-1,2.593105555E0,1.008256912E1
3.679115030E-1,9.941235930E-2,2.549986839E0,1.017838860E1
3.703751490E-1,1.233671457E-1,2.454167843E0,1.031672764E1
3.728387950E-1,9.522027522E-2,2.377512455E0,1.056585693E1
3.753023880E-1,8.563835919E-2,2.420631170E0,1.074731445E1
3.777660340E-1,1.095931455E-1,2.277501106E0,1.069461441E1
3.802296800E-1,1.239660159E-1,2.243964434E0,1.060897541E1
3.826933260E-1,4.731070250E-2,2.343975782E0,1.063712215E1
3.851569200E-1,4.192087334E-3,2.348766804E0,1.065628624E1
3.876205660E-1,-2.395478636E-2,2.348766804E0,1.072815037E1
3.900842110E-1,-1.437287182E-1,2.320020914E0,1.072336006E1
3.925478050E-1,-2.395478487E-1,2.430212975E0,1.063772106E1
3.950114510E-1,-3.012314141E-1,2.425421953E0,1.059460258E1
3.974750970E-1,-3.874686658E-1,2.372721434E0,1.061855793E1
3.999387430E-1,-3.395590782E-1,2.396676302E0,1.048920155E1
4.024023360E-1,-3.108133376E-1,2.430212975E0,1.002088547E1
4.048659820E-1,-2.724856734E-1,2.492495537E0,9.590897560E0
4.073296280E-1,-2.197851539E-1,2.449376822E0,9.332784653E0
4.097932740E-1,-2.197851539E-1,2.463749647E0,9.021970749E0
4.122568680E-1,-2.293670774E-1,2.454167843E0,8.792604446E0
4.147205130E-1,-2.054122835E-1,2.472732782E0,8.467417717E0
4.171841590E-1,-1.958303750E-1,2.435003996E0,8.285960197E0
4.196477530E-1,-1.239660159E-1,2.439196110E0,8.109293938E0
4.221113990E-1,-6.647452712E-2,2.453568935E0,8.027847290E0
4.245750450E-1,-1.089942753E-1,2.467941761E0,8.047011375E0
4.270386910E-1,-1.377400160E-1,2.602088451E0,8.142830849E0
4.295022840E-1,-1.664857566E-1,2.554178953E0,8.266796112E0
4.319659300E-1,-1.904405504E-1,2.582924843E0,8.381779671E0
4.344295760E-1,-8.024853468E-2,2.659579992E0,8.453643799E0
4.368932220E-1,5.988696590E-3,2.668563128E0,8.572818756E0
4.393568160E-1,1.587004513E-1,2.702099800E0,8.735711098E0
4.418204610E-1,2.688924670E-1,2.740427494E0,8.969869614E0
4.442841070E-1,3.455477655E-1,2.706890821E0,9.141744614E0
4.467477010E-1,4.030392766E-1,2.783545971E0,9.208818436E0
4.492113470E-1,5.132312775E-1,2.812291861E0,9.299846649E0
4.516749930E-1,5.467679501E-1,2.750009298E0,9.266309738E0
4.541386380E-1,5.563498735E-1,2.793128014E0,9.290265083E0
4.566022320E-1,5.084403157E-1,2.797919035E0,9.237564087E0
4.590658780E-1,3.748923838E-1,2.826664686E0,9.132761955E0
4.615295240E-1,2.886551619E-1,2.926675797E0,9.017779350E0
4.639931180E-1,1.407343596E-1,2.926675797E0,8.984242439E0
4.664567630E-1,7.845192403E-2,2.960212708E0,8.941722870E0
4.689204090E-1,-2.994348295E-3,3.017704010E0,9.089643478E0
4.713840550E-1,-3.653104603E-2,3.022495031E0,9.304637909E0
4.738476490E-1,-2.694913372E-2,2.960212708E0,9.486694336E0
4.763112950E-1,-2.635026351E-2,2.921885014E0,9.438784599E0
4.787749410E-1,-1.676834933E-2,2.883557320E0,9.371710777E0
4.812385860E-1,4.072313383E-2,2.821274757E0,9.199835777E0
4.837021800E-1,1.263614893E-1,2.682935953E0,9.142343521E0
4.861658260E-1,2.365535051E-1,2.548789263E0,9.047123909E0
4.886294720E-1,3.132088184E-1,2.420032263E0,9.075270653E0
4.910930660E-1,3.802822232E-1,2.228394032E0,9.156716347E0
4.935567110E-1,4.042370021E-1,2.127783775E0,9.257327080E0
4.960203570E-1,4.281917810E-1,2.008608818E0,9.429202080E0
4.984840030E-1,4.425646663E-1,1.951117277E0,9.682524681E0
5.009475970E-1,3.808811009E-1,1.917580605E0,9.945427895E0
5.034112430E-1,4.617284834E-1,1.931953430E0,1.018437672E1
5.058748880E-1,4.527454376E-1,1.888834834E0,1.032331467E1
5.083385340E-1,5.335928202E-1,1.831343293E0,1.047602654E1
5.108021280E-1,6.054571867E-1,1.836134315E0,1.064850140E1
5.132657740E-1,6.581577063E-1,1.864880085E0,1.077725792E1
5.157294200E-1,7.396039963E-1,1.879252911E0,1.096410561E1
5.181930130E-1,7.731407285E-1,1.917580605E0,1.106890774E1
5.206566590E-1,9.024965167E-1,1.884043932E0,1.113119030E1
5.231203050E-1,1.046225309E0,1.831343293E0,1.108807087E1
5.255839510E-1,1.222891808E0,1.907998681E0,1.110244465E1
5.280475450E-1,1.361829519E0,1.860089064E0,1.112160778E1
5.305111910E-1,1.558258772E0,1.802597642E0,1.102159691E1
5.329748360E-1,1.792416811E0,1.793015718E0,1.096889591E1
5.354384820E-1,1.988846064E0,1.769060850E0,1.084013939E1
5.379020760E-1,2.309241295E0,1.725942254E0,1.050537109E1
5.403657220E-1,2.639218569E0,1.678032756E0,1.003226376E1
5.428293680E-1,2.940449953E0,1.606767178E0,9.511247635E0
5.452929610E-1,3.308754683E0,1.558857679E0,9.042931557E0
5.477566070E-1,3.519556761E0,1.501366138E0,8.684208870E0
5.502202530E-1,3.620167017E0,1.515739083E0,8.339859009E0
5.526838990E-1,3.677658319E0,1.554066658E0,8.086536407E0
5.551474930E-1,3.668076515E0,1.606168389E0,8.029644012E0
5.576111380E-1,3.701613188E0,1.563049793E0,8.096118927E0
5.600747840E-1,3.610584974E0,1.644495964E0,8.230265617E0
5.625384300E-1,3.462664127E0,1.663659811E0,8.321293831E0
5.650020240E-1,3.328517437E0,1.759479046E0,8.584197044E0
5.674656700E-1,3.041658878E0,1.807388544E0,8.813564301E0
5.699293160E-1,2.802709818E0,1.893026948E0,8.918965340E0
5.723929090E-1,2.544597149E0,2.093648195E0,9.172286987E0
5.748565550E-1,2.291275263E0,2.213422060E0,9.267507553E0
5.773202010E-1,2.027772665E0,2.309241295E0,9.253134727E0
5.797838470E-1,1.693004489E0,2.519444466E0,9.138751030E0
5.822474410E-1,1.530710816E0,2.648800373E0,9.081258774E0
5.847110860E-1,1.415727854E0,2.758393526E0,9.081258774E0
5.871747320E-1,1.277388930E0,2.873376608E0,9.105214119E0
5.896383780E-1,1.048021913E0,3.006924391E0,9.129168510E0
5.921019720E-1,8.755474091E-1,3.117116451E0,9.301643372E0
5.945656180E-1,7.994909883E-1,3.188980818E0,9.487891197E0
5.970292630E-1,6.988808513E-1,3.279410124E0,9.611857414E0
5.994928570E-1,6.701351404E-1,3.351274490E0,9.779541016E0
6.019565030E-1,6.557622552E-1,3.403975010E0,9.922671318E0
6.044201490E-1,7.228356600E-1,3.351274490E0,9.903507233E0
6.068837950E-1,7.947000265E-1,3.389602184E0,9.898715973E0
6.093473880E-1,7.994909883E-1,3.375229359E0,9.937044144E0
6.118110340E-1,8.617734313E-1,3.279410124E0,9.994535446E0
6.142746800E-1,9.480106235E-1,3.269828320E0,1.004723549E1
6.167383260E-1,9.096829891E-1,3.260246277E0,1.006160831E1
6.192019200E-1,1.019874930E0,3.265037298E0,9.899314880E0
6.216655660E-1,1.115694165E0,3.293782949E0,9.860987663E0
6.241292110E-1,1.288168550E0,3.183590889E0,9.884942055E0
6.265928050E-1,1.469626069E0,3.193172932E0,9.913687706E0
6.290564510E-1,1.699591994E0,3.178800106E0,9.607666016E0
6.315200970E-1,1.909795284E0,3.174009085E0,9.497473717E0
6.339837430E-1,2.058315039E0,3.350675583E0,9.172885895E0
6.364473360E-1,2.125388384E0,3.699816704E0,8.254818916E0
6.389109820E-1,2.354755402E0,3.833963394E0,7.284650326E0
6.413746280E-1,2.383501053E0,4.048957825E0,6.801961422E0
6.438382740E-1,2.326009750E0,4.283115864E0,7.122356415E0
6.463018680E-1,2.178088903E0,4.431635380E0,7.552344799E0
6.487655130E-1,2.058315039E0,4.345397949E0,8.044615746E0
6.512291590E-1,1.991840363E0,4.287906647E0,8.097316742E0
6.536927530E-1,1.939139843E0,4.211251259E0,8.097316742E0
6.561563990E-1,1.791219115E0,4.206460476E0,7.843994617E0
6.586198880E-1,1.709772825E0,4.239996910E0,7.638582230E0
6.610833780E-1,1.690608978E0,4.374143600E0,7.581090927E0
6.635468160E-1,1.661863208E0,4.598720074E0,7.304412842E0
6.660102530E-1,1.666654229E0,4.751431465E0,6.998390675E0
6.684736910E-1,1.585806847E0,4.832878113E0,6.730695724E0
6.709371800E-1,1.537897229E0,4.938279152E0,6.610921860E0
6.734006180E-1,1.422914267E0,5.153273106E0,6.582176208E0
6.758640550E-1,1.432496190E0,5.249092579E0,6.711532116E0
6.783274930E-1,1.366021633E0,5.382640362E0,7.012763500E0
6.807909300E-1,1.222292900E0,5.435340881E0,7.390051365E0
6.832544200E-1,9.881349206E-1,5.588052750E0,7.777520180E0
6.857178570E-1,7.779316306E-1,5.750945091E0,8.054796219E0
6.881812950E-1,4.719092846E-1,5.918029785E0,8.399147034E0
6.906447320E-1,1.610959321E-1,5.980312347E0,8.738705635E0
6.931082220E-1,-1.401354969E-1,6.013848782E0,9.092039108E0
6.955716590E-1,-3.605195284E-1,6.099487305E0,9.340569496E0
6.980350970E-1,-5.132312775E-1,6.076131344E0,9.546581268E0
7.004985340E-1,-6.665419340E-1,5.951566219E0,9.737620354E0
7.029619720E-1,-8.240446448E-1,5.841374397E0,9.799902916E0
7.054254610E-1,-1.058202624E0,5.788673878E0,9.847812653E0
7.078888990E-1,-1.249840975E0,5.626380444E0,9.871168137E0
7.103523360E-1,-1.359434128E0,5.329939842E0,9.895122528E0
7.128157740E-1,-1.373806953E0,4.966425896E0,9.828648567E0
7.152792630E-1,-1.306733489E0,4.583748341E0,9.436388969E0
7.177427010E-1,-9.240558743E-1,4.029194832E0,9.274095535E0
7.202061380E-1,-5.174233913E-1,3.512969255E0,9.259722710E0
7.226695760E-1,7.545757294E-2,3.082381964E0,9.341168404E0
7.251330130E-1,3.629150093E-1,2.738031864E0,9.140546799E0
7.275965030E-1,4.868810177E-1,2.503874063E0,8.934535980E0
7.300599410E-1,5.779091716E-1,2.455964327E0,8.753078461E0
7.325233780E-1,5.443724990E-1,2.499083042E0,8.585993767E0
7.349868160E-1,5.162256360E-1,2.532619715E0,8.409327507E0
7.374503050E-1,5.874910951E-1,2.513455868E0,8.212898254E0
7.399137430E-1,6.449825764E-1,2.575738192E0,8.418909073E0
7.423771800E-1,7.599655390E-1,2.561365366E0,8.600366592E0
7.448406180E-1,9.036942720E-1,2.565557480E0,8.638694763E0
7.473040550E-1,1.042631984E0,2.647003889E0,8.829733849E0
7.497675450E-1,1.195343852E0,2.694913387E0,8.744095802E0
7.522309820E-1,1.243253350E0,2.651794672E0,8.614739418E0
7.546944200E-1,1.295953870E0,2.666167736E0,8.600366592E0
7.571578570E-1,1.334281564E0,2.670958519E0,8.409327507E0
7.596213470E-1,1.272598028E0,2.661376715E0,8.256615639E0
7.620847840E-1,1.162405968E0,2.685331345E0,8.045813560E0
7.645482220E-1,1.018677235E0,2.637421846E0,7.864356041E0
7.670116590E-1,8.132649660E-1,2.642212868E0,7.726016998E0
7.694750970E-1,6.078526974E-1,2.642212868E0,7.386457920E0
7.719385860E-1,5.120335221E-1,2.666167736E0,7.147509098E0
7.744020240E-1,3.401579559E-1,2.751806021E0,6.951678753E0
7.768654610E-1,1.772654057E-1,2.704495192E0,6.722311497E0
7.793288990E-1,1.868473291E-1,2.723060131E0,6.521690369E0
7.817923880E-1,1.922371536E-1,2.828461409E0,6.387543678E0
7.842558260E-1,2.305648029E-1,2.790133715E0,6.043792248E0
7.867192630E-1,3.257850707E-1,2.737433195E0,5.584459305E0
7.891827010E-1,4.024403989E-1,2.727851152E0,5.594041348E0
7.916461380E-1,4.551409185E-1,2.647003889E0,5.508402824E0
7.941096280E-1,5.653329492E-1,2.618257999E0,5.537148476E0
7.965730660E-1,6.419882774E-1,2.551184654E0,5.446120262E0
7.990365030E-1,7.186435461E-1,2.488902092E0,5.374256134E0
8.014999410E-1,6.994797587E-1,2.373919249E0,5.455702305E0
8.039634300E-1,6.707339883E-1,2.240371227E0,5.575476170E0
8.064268680E-1,6.515701413E-1,2.206834555E0,5.609013081E0
8.088903050E-1,5.707227588E-1,2.115806341E0,5.804843426E0
8.113537430E-1,4.365759790E-1,2.053524017E0,5.919826508E0
8.138171800E-1,1.592993289E-1,2.077478647E0,6.130029678E0
8.162806700E-1,-1.275592297E-1,2.067896843E0,6.263577461E0
8.187441070E-1,-3.712991774E-1,2.010405302E0,6.273159504E0
8.212075450E-1,-6.964854002E-1,1.915185094E0,6.412096977E0
8.236709820E-1,-9.306434393E-1,1.824156880E0,6.526481152E0
8.261344200E-1,-1.174982190E0,1.737919688E0,6.641464233E0
8.285979090E-1,-1.413931251E0,1.594789863E0,6.794775009E0
8.310613470E-1,-1.542688131E0,1.570835114E0,6.909159184E0
8.335247840E-1,-1.609761596E0,1.498970747E0,7.038514614E0
8.359882220E-1,-1.624134421E0,1.407942533E0,7.138525963E0
8.384517110E-1,-1.643298268E0,1.345660090E0,7.468502998E0
8.409151490E-1,-1.590597749E0,1.245648861E0,7.617022991E0
8.433785860E-1,-1.523524404E0,1.063592434E0,7.659542561E0
8.458420240E-1,-1.408541441E0,7.719429731E-1,7.559531212E0
8.483054610E-1,-1.288767457E0,4.755024910E-1,7.473294258E0
8.507689510E-1,-1.126473784E0,2.748811543E-1,7.411610603E0
8.532323880E-1,-9.827450514E-1,1.071976647E-1,7.129542828E0
8.556958260E-1,-9.396264553E-1,-6.946887821E-2,6.756447315E0
8.581592630E-1,-9.683722258E-1,-1.700789779E-1,6.283340454E0
8.606227530E-1,-1.106711030E0,-2.850619555E-1,5.924617290E0
8.630861910E-1,-1.188157320E0,-3.707002997E-1,5.614402771E0
8.655496280E-1,-1.173784494E0,-4.138189256E-1,5.183815479E0
8.680130660E-1,-1.188157320E0,-4.329827428E-1,4.859228134E0
8.704765030E-1,-1.168993473E0,-4.425646663E-1,4.586742401E0
8.729399930E-1,-1.178575397E0,-3.138076961E-1,4.333420753E0
8.754034300E-1,-8.911179900E-1,-4.048358798E-1,4.036980152E0
8.778668680E-1,-7.240334153E-1,-4.904742241E-1,3.687839270E0
8.803303050E-1,-6.809147596E-1,-3.808811009E-1,3.396788597E0
8.827937950E-1,-5.707227588E-1,-3.808811009E-1,3.315342188E0
8.852572320E-1,-4.605307579E-1,-2.179885507E-1,3.166822672E0
8.877206700E-1,-2.736834288E-1,-2.467342913E-1,2.927873611E0
8.901841070E-1,-8.743496984E-2,-2.850619555E-1,2.770370960E0
8.926475450E-1,8.384174667E-3,-1.515140235E-1,2.464348555E0
8.951110340E-1,5.150279030E-2,-1.227682754E-1,2.311636686E0
8.975744720E-1,1.425309777E-1,-1.083954051E-1,2.335591555E0
9.000379090E-1,2.814687192E-1,-7.006774843E-2,2.335591555E0
9.025013470E-1,3.437511623E-1,-3.653104603E-2,2.359546423E0
9.049648360E-1,4.341804981E-1,2.096043713E-2,2.258936167E0
9.074282740E-1,4.868810177E-1,1.640902758E-1,2.282891035E0
9.098917110E-1,6.066549420E-1,3.365647495E-1,2.550585747E0
9.123551490E-1,7.455927134E-1,4.749036133E-1,2.455365419E0
9.148185860E-1,8.605756760E-1,5.659317970E-1,2.335591555E0
9.172820760E-1,9.372310042E-1,7.521802783E-1,2.421828747E0
9.197455130E-1,9.372310042E-1,9.288467765E-1,2.588913441E0
9.222089510E-1,9.611857533E-1,1.091739297E0,2.737433195E0
9.246723880E-1,1.204925656E0,1.086948395E0,2.794924498E0
9.271358780E-1,1.482202291E0,1.139648914E0,2.957218170E0
9.295993160E-1,1.621140122E0,1.210914373E0,3.301568270E0
9.320627530E-1,1.716959238E0,1.096530318E0,3.717183828E0
9.345261910E-1,1.769659758E0,1.058202624E0,3.913613081E0
9.369896280E-1,1.807987452E0,1.029456854E0,4.166934967E0
9.394531180E-1,1.793614507E0,1.034247875E0,4.195680618E0
9.419165550E-1,1.693603277E0,1.029456854E0,4.247782230E0
9.443799930E-1,1.736721992E0,9.528015852E-1,4.295691967E0
9.468434300E-1,1.707976222E0,1.024665952E0,4.276527882E0
9.493069200E-1,1.636111856E0,1.034247875E0,4.142980099E0
9.517703570E-1,1.660066605E0,1.043829799E0,4.004641056E0
9.542337950E-1,1.813377261E0,1.100722432E0,3.789048195E0
9.566972320E-1,1.928360224E0,1.067185640E0,3.760901213E0
9.591606700E-1,2.128981590E0,9.575925469E-1,3.689036846E0
9.616241590E-1,2.401467323E0,8.809372187E-1,3.454879045E0
9.640875970E-1,2.679342747E0,8.282366991E-1,3.273421526E0
9.665510340E-1,3.047647476E0,7.372085452E-1,3.153647423E0
9.690144720E-1,3.411161423E0,6.419882774E-1,2.914698601E0
9.714779610E-1,3.817793846E0,5.413781404E-1,2.709286213E0
9.739413990E-1,4.162144184E0,5.222142935E-1,2.579930305E0
9.764048360E-1,4.444211483E0,5.365871787E-1,2.556574583E0
9.788682740E-1,4.789160252E0,4.359771013E-1,2.594303370E0
9.813317110E-1,5.095182896E0,3.880675137E-1,2.718868256E0
9.837952010E-1,5.382041454E0,4.695138037E-1,2.871579885E0
9.862586380E-1,5.511397362E0,4.790956974E-1,3.005726814E0
9.887220760E-1,5.477860451E0,5.317962170E-1,3.024890423E0
9.911855130E-1,5.401205063E0,6.126436591E-1,3.201557159E0
9.936490030E-1,5.238911629E0,7.372085452E-1,3.374031544E0
9.961124410E-1,4.769996643E0,8.521915078E-1,3.608189583E0
9.985758780E-1,4.258562088E0,1.033648968E0,3.789647102E0
1.001039316E0,3.976494312E0,1.263016105E0,4.086087704E0
1.003502753E0,3.799228907E0,1.330089450E0,4.281918049E0
1.005966243E0,3.689635754E0,1.430699587E0,4.420855522E0
1.008429680E0,3.704008579E0,1.506755948E0,4.702923298E0
1.010893118E0,3.622562408E0,1.564247489E0,4.927499294E0
1.013356555E0,3.656099081E0,1.655275702E0,5.137702465E0
1.015819993E0,3.713590622E0,1.626529932E0,5.338922977E0
1.018283482E0,3.623161316E0,1.660066605E0,5.797657013E0
1.020746920E0,3.548302650E0,1.649286985E0,6.737882137E0
1.023210357E0,3.448291302E0,1.452857733E0,8.381779671E0
1.025673795E0,3.687240362E0,1.218699694E0,9.094434738E0
1.028137284E0,4.505296230E0,8.503949046E-1,8.635101318E0
1.030600722E0,5.280233383E0,5.443724990E-1,7.636186600E0
1.033064159E0,5.796459198E0,2.670958638E-1,6.948085308E0
1.035527597E0,6.136018276E0,-5.329939723E-2,6.613317490E0
1.037991034E0,6.537859917E0,-3.736946583E-1,6.570198536E0
1.040454524E0,6.915746689E0,-4.593330026E-1,6.579780579E0
1.042917961E0,7.154695511E0,-4.353782237E-1,6.670808792E0
1.045381399E0,7.384661674E0,-3.449489176E-1,6.871430397E0
1.047844836E0,7.618819714E0,-2.251749784E-1,7.063068390E0
1.050308326E0,7.724220753E0,1.377400197E-2,7.354119301E0
1.052771763E0,7.934423923E0,1.239660159E-1,7.602650166E0
1.055235201E0,8.345847130E0,1.377400197E-2,7.760751724E0
1.057698638E0,8.556649208E0,3.293782845E-2,8.033237457E0
1.060162076E0,8.771643639E0,2.054122835E-1,8.339260101E0
1.062625566E0,9.096829414E0,1.814575046E-1,8.506343842E0
1.065089003E0,9.321405411E0,1.287569702E-1,8.697383881E0
1.067552441E0,9.297451019E0,1.048021838E-1,8.750083923E0
1.070015878E0,9.278885841E0,3.772878647E-2,8.630908966E0
1.072479368E0,9.139948845E0,-2.455365472E-2,8.535090446E0
1.074942805E0,9.163903236E0,-8.683609962E-2,8.444062233E0
1.077406243E0,9.139948845E0,-1.054010540E-1,8.200322151E0
1.079869680E0,9.068083763E0,-1.293558478E-1,8.023654938E0
1.082333118E0,9.029756546E0,-1.581015885E-1,7.947000027E0
1.084796607E0,9.101620674E0,-2.347569019E-1,7.918254375E0
1.087260045E0,9.316615105E0,-3.976494372E-1,7.799079418E0
1.089723482E0,9.412433624E0,-4.210053682E-1,7.669723511E0
1.092186920E0,9.623235703E0,-4.401691854E-1,7.684096336E0
1.094650409E0,9.618445396E0,-5.695250034E-1,7.684096336E0
1.097113847E0,9.474716187E0,-5.743159652E-1,7.674514294E0
1.099577284E0,9.422016144E0,-5.216154456E-1,7.588876247E0
1.102040722E0,9.359733582E0,-4.545420408E-1,7.473893166E0
1.104504159E0,9.426807404E0,-4.018415213E-1,7.344537258E0
1.106967649E0,9.718456268E0,-2.203840315E-1,7.139124870E0
1.109431086E0,1.031193638E1,-3.413556889E-2,6.861848354E0
1.111894524E0,1.083295250E1,2.096043676E-1,6.565407753E0
1.114357961E0,1.114855671E1,4.826889336E-1,6.255193233E0
1.116821451E0,1.133540440E1,7.168469429E-1,6.149792194E0
1.119284888E0,1.146416187E1,9.366320968E-1,6.101882935E0
1.121748326E0,1.144080544E1,1.223490715E0,6.264775276E0
1.124211763E0,1.136894131E1,1.495976329E0,6.417487144E0
1.126675201E0,1.127791309E1,1.625332236E0,6.704345703E0
1.129138691E0,1.125395775E1,1.849908352E0,7.201407433E0
1.131602128E0,1.124437618E1,1.960100293E0,7.650559425E0
1.134065566E0,1.126833153E1,2.103230238E0,8.320096016E0
1.136529003E0,1.133540440E1,2.064902544E0,8.984242439E0
1.138992493E0,1.139289570E1,1.998427987E0,9.596286774E0
1.141455930E0,1.125395775E1,1.955309391E0,1.027959728E1
1.143919368E0,1.116772079E1,1.744507194E0,1.096350670E1
1.146382805E0,1.097668171E1,1.715761542E0,1.162765312E1
1.148846243E0,1.067065907E1,1.701987505E0,1.206243229E1
1.151309732E0,1.037362003E1,1.591795444E0,1.246427345E1
1.153773170E0,1.001489735E1,1.654077888E0,1.282239819E1
1.156236607E0,9.594490051E0,1.725343466E0,1.307571983E1
1.158700045E0,9.532208443E0,1.582213521E0,1.319549370E1
1.161163586E0,9.450761795E0,1.610959291E0,1.326735783E1
1.163627128E0,9.192648888E0,1.548676848E0,1.326735783E1
1.166090618E0,9.029756546E0,1.563049793E0,1.333383274E1
1.168554159E0,8.910581589E0,1.563049793E0,1.332904148E1
1.171017649E0,8.929744720E0,1.539094925E0,1.325298500E1
1.173481191E0,9.029756546E0,1.630123138E0,1.302840900E1
1.175944680E0,9.259722710E0,1.720552444E0,1.277508736E1
1.178408222E0,9.441180229E0,1.706778407E0,1.231096268E1
1.180871763E0,9.532208443E0,1.678032756E0,1.165160751E1
1.183335253E0,9.833439827E0,1.563049793E0,1.122161961E1
1.185798795E0,1.020653534E1,1.424111962E0,1.090122414E1
1.188262284E0,1.037841034E1,1.801998734E0,1.079582310E1
1.190725826E0,1.070419598E1,1.916981697E0,1.105872631E1
1.193189316E0,1.144559669E1,1.113298655E0,1.152704239E1
1.195652857E0,1.219118881E1,3.102144599E-1,1.135516739E1
1.198116347E0,1.266489506E1,-5.329939723E-2,1.100123501E1
1.200579888E0,1.300924492E1,-5.389826838E-3,1.050417328E1
1.203043430E0,1.328173065E1,2.383501083E-1,9.840026855E0
1.205506920E0,1.355002403E1,4.731070101E-1,9.213609695E0
1.207970461E0,1.375543690E1,7.503836751E-1,8.893813133E0
1.210433951E0,1.398480415E1,9.845416546E-1,8.687801361E0
1.212897493E0,1.436269093E1,1.127671480E0,8.721338272E0
1.215360982E0,1.467410278E1,1.108507752E0,8.955496788E0
1.217824524E0,1.489388752E1,1.022869349E0,9.147134781E0
1.220288066E0,1.501845264E1,8.695586920E-1,9.471722603E0
1.222751555E0,1.497054291E1,8.551858664E-1,9.844818115E0
1.225215097E0,1.505139065E1,6.545644999E-1,1.021731472E1
1.227678586E0,1.510409069E1,4.826889336E-1,1.066706562E1
1.230142128E0,1.516158295E1,2.718868256E-1,1.121682835E1
1.232605618E0,1.511367321E1,6.647452712E-2,1.182348347E1
1.235069159E0,1.486993313E1,4.251974449E-2,1.223011589E1
1.237532649E0,1.450641918E1,8.563835919E-2,1.267926788E1
1.239996191E0,1.401354980E1,1.527117640E-1,1.301403618E1
1.242459732E0,1.350690556E1,2.191862911E-1,1.332964039E1
1.244923222E0,1.303799057E1,2.670958638E-1,1.359194565E1
1.247386763E0,1.271759605E1,2.623049021E-1,1.384107494E1
1.249850253E0,1.251697445E1,1.766665429E-1,1.420398998E1
1.252313795E0,1.241636372E1,-9.641800821E-2,1.449084854E1
1.254777284E0,1.240678215E1,-3.497398794E-1,1.477770710E1
1.257240826E0,1.251218319E1,-5.216154456E-1,1.512684822E1
1.259704368E0,1.267447662E1,-6.749261022E-1,1.543706226E1
1.262167857E0,1.275113201E1,-7.988920808E-1,1.558079147E1
1.264631399E0,1.289006996E1,-8.851293325E-1,1.567660999E1
1.267094888E0,1.277987766E1,-7.366096377E-1,1.566702843E1
1.269558430E0,1.249301910E1,-5.024515986E-1,1.567660999E1
1.272021920E0,1.227263546E1,-4.018415213E-1,1.569517517E1
1.274485461E0,1.210555077E1,-3.449489176E-1,1.556162739E1
1.276948951E0,1.202889538E1,-8.204513788E-2,1.527956009E1
1.279412493E0,1.244990063E1,4.635250866E-1,1.470584297E1
1.281876034E0,1.217741489E1,2.239772379E-1,1.418003559E1
1.284339524E0,1.095751762E1,-8.204513788E-2,1.414170742E1
1.286803066E0,1.019695282E1,-2.970393300E-1,1.403211403E1
1.289266555E0,1.016341686E1,-4.737058878E-1,1.375962830E1
1.291730097E0,1.062754059E1,-7.174458504E-1,1.329610348E1
1.294193586E0,1.090960789E1,-8.803383708E-1,1.271280479E1
1.296657128E0,1.082816219E1,-8.132649660E-1,1.223011589E1
1.299120670E0,1.061795902E1,-7.461915612E-1,1.192409325E1
1.301584159E0,1.062754059E1,-6.797170639E-1,1.178036499E1
1.304047701E0,1.091919041E1,-6.892989278E-1,1.176599216E1
1.306511191E0,1.124437618E1,-6.126436591E-1,1.184264660E1
1.308974732E0,1.152165318E1,-6.365984082E-1,1.204326820E1
1.311438222E0,1.194744968E1,-7.893101573E-1,1.208638668E1
1.313901763E0,1.236366367E1,-1.033050179E0,1.227802563E1
1.316365305E0,1.296612644E1,-1.516337872E0,1.263135815E1
1.318828795E0,1.330089474E1,-1.611558199E0,1.313800240E1
1.321292336E0,1.314818287E1,-1.315117717E0,1.322423935E1
1.323755826E0,1.290384388E1,-9.713665247E-1,1.318112087E1
1.326219368E0,1.257386684E1,-5.599430799E-1,1.313800240E1
1.328682857E0,1.235887241E1,-2.922483683E-1,1.324340343E1
1.331146399E0,1.225826263E1,1.856495813E-2,1.294696236E1
1.333609888E0,1.215825176E1,2.527229786E-1,1.280862331E1
1.336073430E0,1.212950516E1,5.827001333E-1,1.262177658E1
1.338536972E0,1.238761806E1,7.791293859E-1,1.244031906E1
1.341000461E0,1.196182251E1,7.024740577E-1,1.217741489E1
1.343464003E0,1.103417301E1,6.497735381E-1,1.221574306E1
1.345927493E0,1.080899811E1,4.922708273E-1,1.220137024E1
1.348391034E0,1.108208275E1,2.048134208E-1,1.228760719E1
1.350854524E0,1.136415005E1,7.605644315E-2,1.200553989E1
1.353318066E0,1.139768696E1,1.048021838E-1,1.189534760E1
1.355781607E0,1.128749466E1,1.239660159E-1,1.177557373E1
1.358245097E0,1.112460232E1,7.126548886E-2,1.164202595E1
1.360708638E0,1.110124683E1,5.689261481E-2,1.145577717E1
1.363172128E0,1.111022949E1,1.335479319E-1,1.137912178E1
1.365635670E0,1.112460232E1,1.766665429E-1,1.113059139E1
1.368099159E0,1.111981106E1,1.766665429E-1,1.100602627E1
1.370562701E0,1.102938175E1,2.048134208E-1,1.080540466E1
1.373026191E0,1.101980019E1,3.245873451E-1,1.053291893E1
1.375489732E0,1.103417301E1,4.395703077E-1,1.060478306E1
1.377953274E0,1.100542736E1,4.970617890E-1,1.037062550E1
1.380416763E0,1.086648941E1,5.060448647E-1,1.003585720E1
1.382880305E0,1.079941654E1,5.060448647E-1,9.849609375E0
1.385343795E0,1.074731445E1,6.066549420E-1,9.519631386E0
1.387807336E0,1.066586781E1,6.449825764E-1,9.208818436E0
1.390270826E0,1.079462528E1,5.347905755E-1,9.027360916E0
1.392734368E0,1.094793606E1,3.245873451E-1,8.841112137E0
1.395197909E0,1.113418388E1,2.958416045E-1,8.592581749E0
1.397661399E0,1.116772079E1,3.197963834E-1,8.453643799E0
1.400124941E0,1.114376640E1,3.581240475E-1,8.262604713E0
1.402588430E0,1.124437618E1,3.916607499E-1,8.181158066E0
1.405051972E0,1.172766399E1,5.299996138E-1,8.076355934E0
1.407515461E0,1.275592327E1,8.839315772E-1,6.967249393E0
1.409979003E0,1.408541393E1,1.338473678E0,5.585657120E0
1.412442493E0,1.521907425E1,1.758880138E0,4.228019714E0
1.414906034E0,1.712767220E1,1.840326428E0,1.933750033E0
1.417369576E0,1.793135452E1,1.964891315E0,6.467792392E-2
1.419833066E0,1.694561577E1,2.189467430E0,-9.006999135E-1
1.422296607E0,1.514721012E1,2.304450274E0,-1.024665952E0
1.424760097E0,1.390395641E1,1.926563621E0,-4.467567503E-1
1.427223638E0,1.322483826E1,1.472021580E0,4.072313383E-2
1.429687128E0,1.346378708E1,7.120559812E-1,1.413332373E-1
1.432150670E0,1.398959446E1,6.168357283E-2,4.234008193E-1
1.434614211E0,1.411415958E1,-3.593217731E-1,8.773440123E-1
1.437077701E0,1.433454323E1,-6.892989278E-1,1.159411669E0
1.439541243E0,1.414290524E1,-8.563835621E-1,1.417524457E0
1.442004732E0,1.367878151E1,-9.474117756E-1,1.991241574E0
1.444468274E0,1.327214909E1,-1.037841082E0,2.669760942E0
1.446931763E0,1.283736992E1,-9.378298521E-1,3.195568323E0
1.449395305E0,1.270801353E1,-8.036830425E-1,3.664483309E0
1.451858847E0,1.200494099E1,-6.413893700E-1,3.917805195E0
1.454322336E0,1.129228592E1,-4.928697050E-1,4.295093060E0
1.456785878E0,1.118688488E1,-5.838978887E-1,4.524460316E0
1.459249368E0,1.068982315E1,-6.413893700E-1,4.658607006E0
1.461712909E0,1.045506573E1,-7.461915612E-1,4.931092739E0
1.464176399E0,9.910094261E0,-7.414005995E-1,5.189205170E0
1.466639941E0,9.871767044E0,-9.474117756E-1,5.107758999E0
1.469103430E0,1.000112247E1,-1.229479313E0,5.064640522E0
1.471566972E0,9.795111656E0,-1.296552777E0,5.031103611E0
1.474030513E0,9.230976105E0,-1.282179832E0,5.389826775E0
1.476494003E0,9.441180229E0,-1.018677235E0,5.614402771E0
1.478957545E0,9.493880272E0,-7.366096377E-1,5.609611988E0
1.481421034E0,9.819067001E0,-6.988808513E-1,5.963543892E0
1.483884576E0,9.699292183E0,-3.832765818E-1,6.292922020E0
1.486348066E0,9.689710617E0,-3.784856200E-1,6.039600372E0
1.488811607E0,9.034546852E0,-1.533106267E-1,6.125837326E0
1.491275149E0,8.307519913E0,4.192087334E-3,6.302504063E0
1.493738638E0,7.614028454E0,-5.329939723E-2,6.383950233E0
1.496202180E0,7.255305767E0,-1.389377564E-1,5.977916718E0
1.498665670E0,7.045102596E0,-2.826664746E-1,5.623984814E0
1.501129211E0,7.327169895E0,-4.066324830E-1,5.055058479E0
1.503592701E0,7.504435539E0,-3.497398794E-1,4.596324444E0
1.506056243E0,7.705056667E0,-7.557734847E-1,4.338211536E0
1.508519732E0,8.197926521E0,-1.449264526E0,4.414866924E0
1.510983274E0,8.642287254E0,-2.018190622E0,5.232324123E0
1.513446816E0,7.585282803E0,-2.386495590E0,7.584084988E0
1.515910305E0,3.893251419E0,-3.122506380E0,1.194804764E1
1.518373847E0,7.408017516E-1,-3.978889942E0,1.646951294E1
1.520837336E0,-6.461803317E-1,-4.064527988E0,1.833379555E1
1.523300878E0,-4.832877815E-1,-3.591421127E0,1.670906258E1
1.525764368E0,8.653666377E-1,-3.022495031E0,1.277987766E1
1.528227909E0,1.931953430E0,-2.606280565E0,8.654265404E0
1.530691451E0,3.089568377E0,-2.453568935E0,5.485645771E0
1.533154941E0,4.156155109E0,-2.620653629E0,3.057229519E0
1.535618482E0,4.371149540E0,-3.911816359E0,9.156716466E-1
1.538081972E0,3.658494711E0,-4.805928707E0,1.383987784E0
1.540545513E0,4.146573544E0,-4.083692074E0,3.535127401E0
1.543009003E0,5.213160038E0,-4.265748501E0,6.427068710E0
1.545472545E0,6.413893700E0,-5.556312561E0,9.686716080E0
1.547936034E0,5.500018597E0,-5.628176689E0,1.302361774E1
1.550399576E0,4.069918156E0,-4.595725536E0,1.581494904E1
1.552863118E0,4.524460316E0,-3.954935074E0,1.640303993E1
1.555326607E0,5.973724842E0,-4.035782337E0,1.635992050E1
1.557790149E0,7.594864845E0,-3.285398722E0,1.490646458E1
1.560253638E0,9.312422752E0,-1.449264526E0,1.074791336E1
1.562717180E0,8.627914429E0,1.048021838E-1,7.139124870E0
1.565180670E0,8.981846809E0,8.024852872E-1,4.376539230E0
1.567644211E0,7.900887012E0,1.022869349E0,3.143466711E0
1.570107753E0,5.380244732E0,8.216491342E-1,2.215817690E0
1.572571243E0,5.150877953E0,5.299996138E-1,1.407942533E0
1.575034784E0,3.123105049E0,6.401916146E-1,1.240857840E0
1.577498274E0,4.481341362E0,2.814687230E-2,1.312722206E0
1.579961816E0,1.089044476E1,-3.323726416E0,2.603286266E0
1.582425305E0,6.136018276E0,-3.218325377E0,7.674514294E0
1.584888847E0,1.431298405E-1,-3.641127348E-1,8.152412415E0
1.587352336E0,-4.018415213E-1,-6.222255230E-1,7.865553856E0
1.589815878E0,1.864880085E0,-2.242766857E0,7.961372852E0
1.592279420E0,4.007635593E0,-2.988958359E0,6.914548874E0
1.594742909E0,6.207882881E0,-4.022008419E0,6.053973198E0
1.597206451E0,8.063779831E0,-4.566979885E0,6.049182415E0
1.599669941E0,8.718942642E0,-4.141183376E0,6.369577408E0
1.602133482E0,8.441666603E0,-3.509974957E0,6.800164700E0
1.604596972E0,7.944005489E0,-3.065613747E0,7.684096336E0
1.607060513E0,7.040311337E0,-2.658981085E0,8.224276543E0
1.609524055E0,6.590560436E0,-2.869184494E0,8.602163315E0
1.611987545E0,6.021634102E0,-3.008122206E0,8.300931931E0
1.614451086E0,5.184414387E0,-3.141670227E0,7.297226429E0
1.616914576E0,4.974211216E0,-3.452483416E0,6.685181618E0
1.619378118E0,4.385522366E0,-3.357263088E0,6.030617237E0
1.621841607E0,4.232810497E0,-3.490811110E0,5.428154469E0
1.624305149E0,4.228019714E0,-3.644121647E0,5.088595390E0
1.626768691E0,3.912415266E0,-3.677658319E0,5.102968216E0
1.629232180E0,3.677658319E0,-3.758505821E0,5.303589344E0
1.631695722E0,3.644121647E0,-4.040573597E0,5.385035992E0
1.634159211E0,4.170527935E0,-4.241793633E0,5.513792515E0
1.636622753E0,4.662798882E0,-3.930980206E0,5.872515678E0
1.639086243E0,5.155668736E0,-3.519556761E0,6.216865540E0
1.641549784E0,5.586256027E0,-3.514765978E0,6.618108273E0
1.644013274E0,6.207882881E0,-3.763296843E0,7.067859650E0
1.646476816E0,6.260583401E0,-3.959726095E0,6.785791874E0
1.648940357E0,6.193509579E0,-3.940562248E0,6.451023579E0
1.651403847E0,6.212673664E0,-3.653703690E0,6.331249714E0
1.653867388E0,5.921024323E0,-3.232698202E0,6.192910671E0
1.656330878E0,5.873114586E0,-2.778755188E0,5.767713547E0
1.658794263E0,5.729984760E0,-2.534416199E0,5.500018597E0
1.661257597E0,5.452109337E0,-2.596698761E0,5.050267696E0
1.663720930E0,4.772991180E0,-2.773964167E0,4.075307846E0
1.666184211E0,5.050267696E0,-3.079986572E0,4.142381191E0
1.668647545E0,5.131713867E0,-3.070404530E0,4.510087013E0
1.671110878E0,5.672492981E0,-3.748924017E0,5.189205170E0
1.673574159E0,6.308492661E0,-4.074110031E0,5.069431305E0
1.676037493E0,6.351611137E0,-4.328031063E0,5.356289864E0
1.678500826E0,6.442639351E0,-4.131601810E0,5.705430984E0
1.680964107E0,6.992402077E0,-3.902234554E0,5.891679287E0
1.683427441E0,7.719429493E0,-3.581839323E0,6.236029625E0
1.685890774E0,7.939214706E0,-2.974585533E0,5.858142853E0
1.688354055E0,8.063779831E0,-2.620653629E0,5.767713547E0
1.690817388E0,8.221880913E0,-2.295467377E0,5.691058159E0
1.693280722E0,8.231463432E0,-2.242766857E0,5.858142853E0
1.695744003E0,7.733802319E0,-2.247557640E0,6.245611668E0
1.698207336E0,7.245723724E0,-2.429614067E0,6.345622540E0
1.700670618E0,6.877418995E0,-2.859602451E0,6.537261009E0
1.703133951E0,6.002470493E0,-3.232698202E0,7.067859650E0
1.705597284E0,5.131713867E0,-3.481229305E0,7.464311123E0
1.708060566E0,4.428640842E0,-3.854325056E0,7.808660984E0
1.710523899E0,2.969794512E0,-4.112437725E0,8.200322151E0
1.712987232E0,2.429614067E0,-4.299284935E0,7.292435646E0
1.715450513E0,3.577647209E0,-4.485533714E0,6.154583454E0
1.717913847E0,4.749036312E0,-4.576561928E0,6.494142532E0
1.720377180E0,5.022120953E0,-4.509488583E0,7.363700867E0
1.722840461E0,3.845341921E0,-4.150765419E0,6.073136806E0
1.725303795E0,2.860201359E0,-4.050155163E0,5.509600639E0
1.727767128E0,3.032077074E0,-4.533442974E0,6.149792194E0
1.730230409E0,9.324400425E-1,-4.935284615E0,7.512220860E0
1.732693743E0,4.922708273E-1,-5.059250832E0,7.129542828E0
1.735157076E0,1.960699201E0,-5.743159771E0,7.497848034E0
1.737620357E0,1.300744891E0,-6.273758411E0,9.166298866E0
1.740083691E0,3.147059917E0,-7.340344906E0,8.626118660E0
1.742547024E0,6.461803436E0,-7.999700546E0,8.955496788E0
1.745010305E0,6.915746689E0,-7.052887917E0,9.816072464E0
1.747473638E0,6.590560436E0,-6.044391155E0,1.106351757E1
1.749936972E0,4.763409138E0,-5.121532917E0,1.212950516E1
1.752400253E0,1.515739083E0,-3.509974957E0,9.319010735E0
1.754863586E0,1.965490103E0,-3.452483416E0,5.413781643E0
1.757326920E0,-4.114234447E-1,-2.788336992E0,3.090766191E0
1.759790201E0,3.964516878E0,-3.950144053E0,1.470224977E0
1.762253534E0,4.308866978E0,-3.156043053E0,2.966201305E0
1.764716816E0,1.209716678E0,-2.008608818E0,1.976868629E0
1.767180149E0,2.133173704E0,-2.955421686E0,9.156716466E-1
1.769643482E0,4.060336113E0,-4.150765419E0,2.120597363E0
1.772106763E0,4.902346611E0,-3.825579166E0,4.166336060E0
1.774570097E0,5.404199600E0,-3.620167017E0,5.222742081E0
1.777033430E0,4.753827095E0,-2.897930145E0,8.730920792E0
1.779496711E0,3.954935074E0,-1.382191062E0,8.334468842E0
1.781960045E0,3.214133263E0,-1.286970854E0,8.320096016E0
1.784423378E0,3.156641960E0,-1.497174144E0,8.444062233E0
1.786886659E0,3.041658878E0,-1.999026895E0,8.692592621E0
1.789349993E0,3.544110537E0,-2.458359957E0,9.963993073E0
1.791813326E0,3.677658319E0,-2.228394032E0,8.941123962E0
1.794276607E0,3.142268896E0,-3.027286053E0,9.137553215E0
1.796739941E0,2.482314587E0,-3.075195551E0,1.245948315E1
1.799203274E0,2.429614067E0,-2.706890821E0,1.162286186E1
1.801666555E0,1.554066658E0,-2.563162088E0,1.220616055E1
1.804129888E0,9.042931348E-2,-2.400868416E0,1.353026199E1
1.806593222E0,-8.623722941E-2,-2.448777914E0,1.289426231E1
1.809056503E0,1.257626176E0,-2.878766298E0,9.883145332E0
1.811519836E0,2.783545971E0,-3.658494711E0,6.279148102E0
1.813983170E0,4.677171707E0,-4.939476967E0,2.966201305E0
1.816446451E0,5.012538910E0,-5.207770348E0,8.108695149E-1
1.818909784E0,3.242280245E0,-4.375341415E0,-1.359434128E-1
1.821373118E0,3.304562569E0,-3.729760170E0,5.988696218E-2
1.823836399E0,3.333308458E0,-3.481229305E0,1.111502051E0
1.826299732E0,2.247557640E0,-3.065613747E0,1.350450993E0
1.828763066E0,2.018190622E0,-2.663772106E0,1.795411110E0
1.831226347E0,2.410450220E0,-2.926675797E0,2.478721380E0
1.833689680E0,3.500991821E0,-3.457274437E0,3.262641668E0
1.836152961E0,4.428640842E0,-3.873488903E0,4.261556149E0
1.838616295E0,4.796945572E0,-3.782460690E0,5.313171387E0
1.841079628E0,4.796945572E0,-3.581839323E0,6.364786625E0
1.843542909E0,4.974211216E0,-3.424336672E0,7.794288158E0
1.846006243E0,5.308979511E0,-3.405172825E0,9.022569656E0
1.848469576E0,5.366470814E0,-3.151252031E0,9.534004211E0
1.850932857E0,5.275442600E0,-2.883557320E0,9.682524681E0
1.853396191E0,5.304188251E0,-2.764382124E0,9.849609375E0
1.855859524E0,5.150877953E0,-2.587116718E0,1.021252346E1
1.858322805E0,4.902346611E0,-2.205038071E0,9.959201813E0
1.860786138E0,4.873600960E0,-2.070891142E0,9.519631386E0
1.863249472E0,5.055058479E0,-1.894224644E0,9.065688133E0
1.865712753E0,5.308979511E0,-1.764868855E0,8.621327400E0
1.868176086E0,5.069431305E0,-1.688213468E0,7.990118504E0
1.870639420E0,5.184414387E0,-1.927162528E0,7.631395817E0
1.873102701E0,5.323352337E0,-2.070891142E0,7.321181297E0
1.875566034E0,5.328143120E0,-2.314631224E0,6.981622219E0
1.878029368E0,5.031702518E0,-2.496687412E0,6.737882137E0
1.880492649E0,4.686753750E0,-2.702099800E0,6.518096924E0
1.882955982E0,4.964629173E0,-2.941048861E0,6.613317490E0
1.885419316E0,4.787364006E0,-3.123105049E0,6.379159451E0
1.887882597E0,4.849646091E0,-3.237489223E0,6.269566059E0
1.890345930E0,4.974211216E0,-3.309353590E0,6.546843052E0
1.892809263E0,5.323352337E0,-3.056031704E0,6.316876888E0
1.895272545E0,5.413781643E0,-2.840438604E0,5.571284294E0
1.897735878E0,5.002956867E0,-3.156043053E0,5.958753109E0
1.900199211E0,4.572369576E0,-3.476438284E0,5.977916718E0
1.902662493E0,4.299883842E0,-3.629748821E0,5.872515678E0
1.905125826E0,4.189692020E0,-3.725568056E0,5.705430984E0
1.907589107E0,4.079499722E0,-3.739341974E0,5.686267376E0
1.910052441E0,3.907624483E0,-3.806415319E0,5.604820728E0
1.912515774E0,3.648912668E0,-3.873488903E0,5.542538643E0
1.914979055E0,3.572856188E0,-3.911816359E0,5.671894550E0
1.917442388E0,3.261444092E0,-4.040573597E0,5.858142853E0
1.919905722E0,3.251862049E0,-4.384923458E0,6.025826454E0
1.922369003E0,2.993749380E0,-4.634053230E0,6.236029625E0
1.924832336E0,2.649399281E0,-4.877793312E0,6.374368191E0
1.927295670E0,2.443986893E0,-5.111951351E0,6.369577408E0
1.929758951E0,2.109218836E0,-4.953849792E0,6.321667671E0
1.932222284E0,2.228394032E0,-5.236515999E0,6.527678967E0
1.934685618E0,2.223603010E0,-5.556312561E0,6.847475529E0
1.937148899E0,1.898416758E0,-5.609013081E0,6.694763660E0
1.939612232E0,1.721750259E0,-5.551521301E0,6.871430397E0
1.942075566E0,1.611558199E0,-5.480256081E0,7.077441216E0
1.944538847E0,1.348654389E0,-5.480256081E0,7.263689995E0
1.947002180E0,1.430100679E0,-5.222143173E0,7.249317169E0
1.949465513E0,1.281581044E0,-5.044878006E0,7.086424351E0
1.951928795E0,1.209716678E0,-5.494628906E0,7.039113522E0
1.954392128E0,1.649885893E0,-5.915035248E0,7.636186600E0
1.956855461E0,1.052213907E0,-5.781487465E0,8.004491806E0
1.959318743E0,7.312198281E-1,-5.728786945E0,7.287644386E0
1.961782076E0,1.224089503E0,-5.556312561E0,7.497848034E0
1.964245409E0,5.880900025E-1,-5.298199654E0,7.196616650E0
1.966708691E0,5.114346743E-1,-5.394018650E0,6.627690315E0
1.969172024E0,1.137852311E0,-5.513792515E0,6.130628586E0
1.971635357E0,1.300744891E0,-5.331736565E0,6.737882137E0
1.974098638E0,4.683160484E-1,-5.097578526E0,5.805442333E0
1.976561972E0,3.293782845E-2,-5.283826828E0,4.620279312E0
1.979025253E0,5.114346743E-1,-5.389227867E0,4.911928654E0
1.981488586E0,5.401803851E-1,-5.350900173E0,4.868810177E0
1.983951920E0,9.468128681E-1,-5.102369308E0,5.026312828E0
1.986415201E0,1.214507580E0,-5.006550312E0,4.477149487E0
1.988878534E0,2.745218515E0,-5.159860611E0,4.333420753E0
1.991341868E0,3.840550900E0,-5.135906219E0,5.045476913E0
1.993805149E0,5.476063728E0,-5.174233437E0,5.566493034E0
1.996268482E0,6.246210098E0,-4.786765099E0,5.260470867E0
1.998731816E0,6.839091301E0,-4.356177807E0,3.802822113E0
2.001195097E0,6.944492340E0,-4.480742455E0,2.273309231E0
2.003658430E0,6.079125881E0,-4.399296284E0,1.274394631E0
2.006121763E0,5.184414387E0,-3.859115839E0,1.168993473E0
2.008585045E0,5.528764248E0,-3.825579166E0,2.340382576E0
2.011048378E0,6.480368137E0,-3.505183935E0,3.597409964E0
2.013511711E0,6.729497910E0,-3.127896070E0,5.361081123E0
2.015974993E0,7.389452457E0,-3.022495031E0,8.291350365E0
2.018438326E0,7.140921593E0,-3.227907419E0,1.037062550E1
2.020901659E0,6.131227493E0,-3.658494711E0,1.045626354E1
2.023364941E0,5.796459198E0,-4.432833195E0,9.801699638E0
2.025828274E0,5.122131824E0,-5.317363262E0,8.200322151E0
2.028291607E0,5.050267696E0,-5.876707554E0,7.230153084E0
2.030754888E0,5.064640522E0,-5.986899853E0,6.842684269E0
2.033218222E0,4.591533661E0,-5.862334728E0,7.143915653E0
2.035681555E0,4.701126575E0,-5.613803864E0,7.526593685E0
2.038144836E0,4.371149540E0,-5.346109390E0,7.855971813E0
2.040608170E0,3.935771227E0,-5.183815479E0,8.181158066E0
2.043071451E0,3.529737711E0,-5.126324177E0,7.918254375E0
2.045534784E0,3.290189743E0,-5.499419689E0,7.129542828E0
2.047998118E0,2.902721167E0,-5.656922817E0,6.446232796E0
2.050461399E0,2.596698761E0,-5.857543945E0,5.710221767E0
2.052924732E0,2.194857121E0,-5.767114639E0,5.298798561E0
2.055388066E0,1.693004489E0,-5.613803864E0,4.969420433E0
2.057851347E0,1.463038564E0,-5.637758732E0,4.232810497E0
2.060314680E0,1.295953870E0,-5.656922817E0,4.008234501E0
2.062778013E0,1.434292793E0,-5.647340775E0,4.524460316E0
2.065241295E0,1.180970907E0,-5.551521301E0,4.849646091E0
2.067704628E0,1.094733715E0,-5.623385906E0,5.480854988E0
2.070167961E0,1.176180005E0,-5.446719170E0,5.753340721E0
2.072631243E0,1.712168336E0,-5.604221821E0,5.958753109E0
2.075094576E0,2.290676355E0,-5.938990116E0,6.379159451E0
2.077557909E0,1.903207660E0,-5.852753162E0,6.034809113E0
2.080021191E0,1.736123085E0,-5.867125988E0,6.001871586E0
2.082484524E0,2.305049181E0,-6.158775330E0,6.470187664E0
2.084947857E0,2.281094551E0,-6.149193287E0,6.800164700E0
2.087411138E0,2.396077394E0,-6.369577408E0,6.503724098E0
2.089874472E0,2.692517996E0,-6.622899532E0,6.598944664E0
2.092337805E0,2.883557320E0,-6.403114319E0,6.904966831E0
2.094801086E0,2.706890821E0,-6.182730198E0,7.206198215E0
2.097264420E0,2.467342854E0,-6.097091675E0,7.354119301E0
2.099727753E0,2.122992754E0,-6.025227547E0,7.344537258E0
2.102191034E0,1.783433795E0,-6.015645504E0,6.733091354E0
2.104654368E0,1.740315199E0,-6.316876888E0,5.939589024E0
2.107117701E0,1.248044372E0,-6.197103024E0,5.485645771E0
2.109580982E0,1.137852311E0,-6.158775330E0,5.710221767E0
2.112044316E0,9.372310042E-1,-6.121046543E0,5.198787212E0
2.114507597E0,1.061197042E0,-6.379159451E0,4.835273266E0
2.116970930E0,1.123479486E0,-6.488752365E0,5.370662689E0
2.119434263E0,9.084852338E-1,-6.469588757E0,5.886888504E0
2.121897545E0,7.982932329E-1,-6.646853924E0,6.116255760E0
2.124360878E0,1.271999121E0,-7.052887917E0,6.269566059E0
2.126824211E0,1.807388544E0,-7.177452564E0,7.143915653E0
2.129287493E0,1.754688025E0,-7.210989475E0,8.057191849E0
2.131750826E0,1.788224697E0,-7.531384468E0,7.344537258E0
2.134214159E0,1.013886333E0,-7.191825390E0,6.589362621E0
2.136677441E0,2.054122835E-1,-6.699554443E0,6.861848354E0
2.139140774E0,-4.210053682E-1,-6.603735447E0,7.053486347E0
2.141604107E0,-5.886888504E-1,-7.100797176E0,5.968334675E0
2.144067388E0,-1.157614946E0,-7.220571041E0,5.265261650E0
2.146530722E0,-1.569038391E0,-7.244525909E0,5.370662689E0
2.148994055E0,-2.324811935E0,-7.316390514E0,5.389826775E0
2.151457336E0,-2.592506647E0,-7.387655735E0,5.566493034E0
2.153920670E0,-2.540405035E0,-7.994909763E0,5.155668736E0
2.156384055E0,-2.932065725E0,-8.191338539E0,4.921510696E0
2.158847336E0,-2.430212975E0,-8.822547913E0,5.590447903E0
2.161310670E0,3.012314141E-1,-1.120365334E1,7.363700867E0
2.163774055E0,3.079986572E0,-1.375184345E1,8.238649368E0
2.166237388E0,3.663285494E0,-1.351289463E1,7.187034607E0
2.168700774E0,4.567578793E0,-1.249421692E1,5.513792515E0
2.171164107E0,5.925815105E0,-1.146655655E1,4.208855629E0
2.173627493E0,8.379384041E0,-1.122281742E1,4.208855629E0
2.176090826E0,9.924468040E0,-1.110783386E1,4.132799149E0
2.178554211E0,1.092398071E1,-1.055807209E1,2.632032156E0
2.181017545E0,1.147374344E1,-9.180671692E0,2.316427708E0
2.183480930E0,9.656173706E0,-7.105588436E0,2.770370960E0
2.185944263E0,8.054197311E0,-6.144402504E0,2.230190516E0
2.188407649E0,1.052693081E1,-6.379159451E0,1.192948341E0
2.190870982E0,1.221514416E1,-5.972527027E0,1.255230784E0
2.193334368E0,1.183246613E1,-5.231126308E0,7.917056680E-1
2.195797701E0,1.074671555E1,-4.758019447E0,-6.282142401E-1
2.198261086E0,1.023048973E1,-4.858629227E0,-1.001309991E0
2.200724420E0,1.047422981E1,-5.006550312E0,-1.866077781E0
2.203187805E0,9.517834663E0,-4.657409191E0,-1.660665512E0
2.205651138E0,8.637496948E0,-4.566979885E0,-1.245049953E0
2.208114524E0,7.915259838E0,-4.695736885E0,-1.818168163E0
2.210577857E0,8.035034180E0,-4.920911789E0,-1.245049953E0
2.213041243E0,7.475689888E0,-5.150279045E0,-3.533330932E-2
2.215504576E0,6.303701878E0,-5.264662743E0,-6.713328362E-1
2.217967961E0,5.968933582E0,-5.427555561E0,-7.144514918E-1
2.220431295E0,6.164763927E0,-5.723996162E0,-2.934461236E-1
2.222894680E0,5.801249981E0,-5.666504383E0,2.131975889E-1
2.225358013E0,5.432945251E0,-5.719204903E0,1.097129226E0
2.227821399E0,5.543137550E0,-6.450424671E0,4.186098874E-1
2.230284732E0,5.107758999E0,-6.943294525E0,6.767227054E-1
2.232748118E0,4.433432102E0,-7.454729080E0,6.767227054E-1
2.235211451E0,4.409477234E0,-7.851779938E0,6.144402623E-1
2.237674836E0,4.199274063E0,-8.052401543E0,2.036156803E-1
2.240138170E0,4.763409138E0,-8.502152443E0,7.869147062E-1
2.242601555E0,5.399408817E0,-9.209417343E0,1.848111749E0
2.245064888E0,5.648538589E0,-9.138152122E0,1.546880245E0
2.247528274E0,6.016843319E0,-8.741101265E0,1.307931304E0
2.249991607E0,5.500018597E0,-7.827825069E0,1.513343573E0
2.252454993E0,5.380244732E0,-7.449938297E0,1.465433955E0
2.254918326E0,4.950256348E0,-6.933712482E0,1.570835114E0
2.257381711E0,4.658008099E0,-6.871430397E0,6.719317436E-1
2.259845045E0,4.720290661E0,-6.861848354E0,-2.455365509E-1
2.262308430E0,4.811318874E0,-6.709136486E0,-1.263614893E-1
2.264771763E0,4.505296230E0,-6.818729877E0,2.227794975E-1
2.267235149E0,3.629748821E0,-6.618108273E0,-4.755024910E-1
2.269698482E0,2.348167896E0,-5.996481895E0,-1.412134647E0
2.272161868E0,1.578021526E0,-5.719204903E0,-2.210427761E0
2.274625201E0,1.310326815E0,-5.594640255E0,-2.081072092E0
2.277088586E0,1.712168336E0,-6.025227547E0,-2.028970242E0
2.279551920E0,1.702586412E0,-5.695250034E0,-2.311038017E0
2.282015305E0,1.094733715E0,-5.107160091E0,-1.775648475E0
2.284478638E0,1.219298601E0,-5.059250832E0,-6.904966831E-1
2.286942024E0,5.832990408E-1,-5.336527348E0,2.084066272E-1
2.289405357E0,4.635250866E-1,-5.728786945E0,1.670846343E0
2.291868743E0,1.329490542E0,-6.689972878E0,2.641015053E0
2.294332076E0,8.701575994E-1,-7.143915653E0,2.143953323E0
2.296795461E0,1.424710870E0,-7.942209244E0,1.972077727E0
2.299258795E0,1.869670987E0,-8.052401543E0,2.569749594E0
2.301722180E0,2.998540163E0,-8.769846916E0,2.736834288E0
2.304185513E0,4.213646889E0,-9.462738991E0,2.645806074E0
2.306648899E0,4.897555828E0,-9.955608368E0,1.656473398E0
2.309112232E0,4.792154789E0,-1.034786797E1,7.725418210E-1
2.311575618E0,4.036381245E0,-1.039517879E1,1.752292514E0
2.314038951E0,5.399408817E0,-1.156656837E1,1.885840535E0
2.316502336E0,3.773477554E0,-1.222173119E1,2.579331636E0
2.318965670E0,3.099150419E0,-1.253733540E1,2.961410284E0
2.321429055E0,3.199161530E0,-1.241816044E1,2.569749594E0
2.323892388E0,2.773964167E0,-1.212651157E1,2.201444864E0
2.326355774E0,2.500879526E0,-1.200194645E1,2.770370960E0
2.328819107E0,3.366845131E0,-1.263315487E1,1.580416918E0
2.331282493E0,1.659467816E0,-1.187738132E1,1.976868629E0
2.333745826E0,2.070891142E0,-1.160010529E1,1.709173918E0
2.336209211E0,1.999026895E0,-1.137552834E1,1.455852032E0
2.338672545E0,1.836134315E0,-1.102638817E1,8.198525310E-1
2.341135930E0,2.032563448E0,-1.088325787E1,3.802822232E-1
2.343599263E0,1.850507140E0,-1.077306557E1,5.665307045E-1
2.346062649E0,2.175693274E0,-1.076348400E1,-1.742710620E-1
2.348525982E0,1.434292793E0,-1.021851254E1,-6.587565877E-3
2.350989368E0,1.625931025E0,-1.000830936E1,-4.707115293E-1
2.353452701E0,2.668563128E0,-1.029516792E1,-3.844743073E-1
2.355916086E0,2.654190302E0,-1.018497562E1,-8.479993939E-1
2.358379420E0,1.702586412E0,-9.807088852E0,-5.228132010E-1
2.360842805E0,3.065613747E0,-1.097368717E1,-1.245049953E0
2.363306138E0,3.515364647E0,-1.144260216E1,-1.622337818E0
2.365769524E0,3.041658878E0,-1.167675972E1,-1.349852204E0
2.368232857E0,4.084290981E0,-1.238941479E1,-1.607964993E0
2.370696243E0,2.529625416E0,-1.224089527E1,-6.665419340E-1
2.373159576E0,3.084777594E0,-1.328352737E1,2.215817571E-2
2.375622961E0,4.156155109E0,-1.422554970E1,-1.934348941E-1
2.378086295E0,3.103941441E0,-1.470823860E1,2.988359630E-1
2.380549680E0,2.434405088E0,-1.539693832E1,8.390163779E-1
2.383013013E0,3.022495031E0,-1.631500626E1,1.231275916E0
2.385476399E0,2.481715679E0,-1.598981953E1,2.124789476E0
2.387939732E0,1.343863487E0,-1.585567284E1,1.575626016E0
2.390403118E0,9.611857533E-1,-1.646292686E1,7.725418210E-1
2.392866451E0,1.051615119E0,-1.657790947E1,1.121083975E0
2.395329836E0,6.976830959E-1,-1.641501617E1,1.240857840E0
2.397793170E0,3.581240475E-1,-1.628146935E1,9.252535701E-1
2.400256555E0,2.149941921E-1,-1.625272369E1,8.060785532E-1
2.402719888E0,-1.485196650E-1,-1.594670105E1,8.677620888E-1
2.405183274E0,-2.635026276E-1,-1.573170662E1,6.815136671E-1
2.407646607E0,4.108245671E-1,-1.579339027E1,7.533779740E-1
2.410109993E0,3.197963834E-1,-1.505737972E1,6.575588584E-1
2.412573326E0,-1.820563674E-1,-1.420638561E1,4.808923304E-1
2.415036711E0,1.095931455E-1,-1.394348145E1,4.713104069E-1
2.417500045E0,4.251974523E-1,-1.355122185E1,8.198525310E-1
2.419963430E0,8.557847142E-1,-1.326915455E1,5.952764153E-1
2.422426763E0,1.367818236E0,-1.282419395E1,5.904854536E-1
2.424890149E0,1.702586412E0,-1.246127892E1,8.390163779E-1
2.427353482E0,1.975072026E0,-1.243253326E1,8.390163779E-1
2.429816868E0,1.984653950E0,-1.228880501E1,7.102593780E-1
2.432280201E0,1.888834834E0,-1.199715519E1,3.850731850E-1
2.434743586E0,2.013399601E0,-1.169113350E1,1.652880162E-1
2.437206920E0,1.812179565E0,-1.130366421E1,3.275817037E-1
2.439670305E0,1.563648582E0,-1.082097530E1,5.192199945E-1
2.442133638E0,1.281581044E0,-1.026163101E1,4.569375217E-1
2.444597024E0,1.046824098E0,-9.821461678E0,7.905079424E-2
2.447060357E0,6.072537899E-1,-9.457947731E0,-5.563498735E-1
2.449523743E0,-1.018078346E-2,-9.133360863E0,-8.815361261E-1
2.451987076E0,-3.401579559E-1,-9.032751083E0,-6.473780870E-1
2.454450461E0,-3.928584754E-1,-9.071078300E0,-1.838529855E-1
2.456913795E0,-2.251749784E-1,-8.994422913E0,2.215817571E-2
2.459377180E0,-1.006100997E-1,-8.855484962E0,4.904742241E-1
2.461840513E0,7.605644315E-2,-8.817756653E0,1.264812708E0
2.464303899E0,3.150054216E-1,-8.702773094E0,1.694801092E0
2.466767232E0,2.916495204E-1,-8.535689354E0,1.570835114E0
2.469230618E0,2.772766352E-1,-8.329677582E0,1.064191341E0
2.471693951E0,3.724969029E-1,-8.320096016E0,8.485983014E-1
2.474157336E0,4.683160484E-1,-8.334468842E0,9.779540896E-1
2.476620670E0,6.833102703E-1,-8.272186279E0,1.149829745E0
2.479084055E0,8.797395229E-1,-8.324887276E0,1.336078167E0
2.481547388E0,1.099524617E0,-8.248231888E0,1.054609418E0
2.484010774E0,1.190552831E0,-8.257813454E0,8.965078592E-1
2.486474107E0,1.276790023E0,-8.276977539E0,8.917168975E-1
2.488937493E0,1.453456640E0,-8.210502625E0,9.492083788E-1
2.491400826E0,1.573230505E0,-8.239248276E0,8.821349740E-1
2.493864211E0,1.563648582E0,-8.257813454E0,9.060897827E-1
2.496327545E0,1.592394352E0,-8.148220062E0,1.178575397E0
2.498790930E0,1.544484735E0,-8.105101585E0,1.580416918E0
2.501254263E0,1.496575236E0,-8.018864632E0,1.685219169E0
2.503717649E0,1.381592274E0,-7.938016891E0,1.943331957E0
2.506180982E0,1.262417197E0,-7.861361504E0,2.201444864E0
2.508644368E0,1.324699640E0,-7.885316372E0,2.502676249E0
2.511107701E0,1.267208099E0,-7.827825069E0,2.985365152E0
2.513571086E0,1.271999121E0,-8.004491806E0,3.439308405E0
2.516034420E0,1.200134754E0,-7.990118504E0,3.296178579E0
2.518497805E0,1.176180005E0,-8.009282112E0,3.095557213E0
2.520961138E0,1.061197042E0,-7.918853283E0,2.382902384E0
2.523424524E0,9.276490808E-1,-7.645768642E0,1.168993473E0
2.525887857E0,9.180671573E-1,-7.321181297E0,4.551409185E-2
2.528351243E0,9.276490808E-1,-6.976831436E0,-8.815361261E-1
2.530814576E0,8.941123486E-1,-6.699554443E0,-1.201931357E0
2.533277961E0,9.755586386E-1,-6.403114319E0,-1.173185587E0
2.535741295E0,1.109106541E0,-6.235430717E0,-9.246547222E-1
2.538204680E0,9.899315238E-1,-6.240221500E0,-5.755137205E-1
2.540668013E0,9.036942720E-1,-6.139611721E0,-2.647003829E-1
2.543131399E0,8.078751564E-1,-5.967735767E0,2.611071467E-1
2.545594732E0,7.551746368E-1,-5.685668468E0,4.761013687E-1
2.548058118E0,6.928921938E-1,-5.422764778E0,9.587903023E-1
2.550521451E0,6.312085986E-1,-5.360482216E0,1.776247382E0
2.552984836E0,6.641464233E-1,-5.169442654E0,2.101433516E0
2.555448170E0,6.641464233E-1,-4.853838444E0,2.063105822E0
2.557911555E0,6.120447516E-1,-4.614889622E0,2.326009750E0
2.560374888E0,4.922708273E-1,-4.432833195E0,2.698506594E0
2.562838274E0,3.293783069E-1,-4.356177807E0,2.732043266E0
2.565301607E0,2.964404821E-1,-4.165138245E0,2.426020861E0
2.567764993E0,2.820675969E-1,-3.959726095E0,2.330800533E0
2.570228326E0,9.522027522E-2,-3.873488903E0,2.679342747E0
2.572691711E0,-8.144626766E-2,-3.787251472E0,3.411161423E0
2.575155045E0,-1.101920158E-1,-3.658494711E0,3.754912615E0
2.577618430E0,-1.149829701E-1,-3.533929825E0,3.826776981E0
2.580081763E0,-1.101920158E-1,-3.466856241E0,4.065725803E0
2.582545149E0,-1.149829701E-1,-3.462065458E0,4.581951618E0
2.585008482E0,-1.485196650E-1,-3.639330864E0,5.079013348E0
2.587471868E0,-1.341467947E-1,-3.998053789E0,5.385035992E0
2.589935201E0,-5.329939723E-2,-4.203465939E0,5.671894550E0
2.592398586E0,3.772878647E-2,-4.590934753E0,6.589362621E0
2.594861920E0,2.006213218E-1,-4.963431358E0,7.177452564E0
2.597325305E0,3.197963834E-1,-5.432346344E0,6.981622219E0
2.599788638E0,4.443612695E-1,-5.852753162E0,5.461690903E0
2.602252024E0,6.168357134E-1,-6.216266632E0,3.568664074E0
2.604715357E0,8.318299055E-1,-6.689972878E0,2.449975729E0
2.607178743E0,1.109106541E0,-7.163079739E0,1.613354802E0
2.609642076E0,1.329490542E0,-7.645768642E0,5.096380711E-1
2.612105461E0,1.458247542E0,-8.066774368E0,-3.413556814E-1
2.614568795E0,1.597185373E0,-8.774638176E0,-1.455253243E0
2.617032180E0,1.840925217E0,-9.515439987E0,-2.382303476E0
2.619495513E0,1.975072026E0,-1.010352993E1,-3.080585480E0
2.621958899E0,1.989444971E0,-1.077785683E1,-3.592020035E0
2.624422232E0,2.037354469E0,-1.142822933E1,-3.462664127E0
2.626885618E0,2.027772665E0,-1.188696384E1,-3.281206846E0
2.629348951E0,1.975072026E0,-1.232234192E1,-3.066212654E0
2.631812336E0,2.056518316E0,-1.277149391E1,-2.745817184E0
2.634275670E0,2.085263968E0,-1.299666882E1,-2.263128281E0
2.636739055E0,2.022981644E0,-1.305895138E1,-1.708575130E0
2.639202388E0,1.984653950E0,-1.312542534E1,-1.177976608E0
2.641665774E0,1.975072026E0,-1.291522217E1,-4.036381245E-1
2.644129107E0,1.816970468E0,-1.293917751E1,5.713216066E-1
2.646592493E0,1.587603450E0,-1.344582081E1,8.198525310E-1
2.649055826E0,1.544484735E0,-1.372309780E1,1.680428147E0
2.651519211E0,1.587603450E0,-1.367099571E1,2.632032156E0
2.653982545E0,1.453456640E0,-1.365662289E1,3.339297056E0
2.656445930E0,1.190552831E0,-1.360392284E1,3.515963554E0
2.658909316E0,8.797395229E-1,-1.344582081E1,3.621364594E0
2.661372753E0,7.935022712E-1,-1.351289463E1,3.453681231E0
2.663836191E0,6.976830959E-1,-1.345061207E1,3.296178579E0
2.666299628E0,5.832990408E-1,-1.340270233E1,2.674551725E0
2.668763066E0,5.832990408E-1,-1.334101868E1,1.852303743E0
2.671226451E0,6.024628282E-1,-1.335060120E1,1.202530265E0
2.673689888E0,5.689261556E-1,-1.341707516E1,2.515252531E-1
2.676153326E0,5.162256360E-1,-1.346977615E1,-8.288355470E-1
2.678616763E0,5.210165977E-1,-1.358955002E1,-1.455253243E0
2.681080201E0,6.216266751E-1,-1.355122185E1,-2.162518263E0
2.683543638E0,3.581240475E-1,-1.347935772E1,-2.535614014E0
2.686007024E0,4.204064906E-1,-1.349852180E1,-2.635625362E0
2.688470461E0,4.395703077E-1,-1.367518806E1,-2.521241188E0
2.690933899E0,3.485421240E-1,-1.377100754E1,-2.024179459E0
2.693397336E0,2.964404821E-1,-1.383808041E1,-1.072575569E0
2.695860774E0,1.239660159E-1,-1.389078140E1,-1.359434128E-1
2.698324211E0,3.293782845E-2,-1.386682606E1,7.725418210E-1
2.700787649E0,-1.054010540E-1,-1.396743679E1,1.566044092E0
2.703251034E0,-4.257963002E-1,-1.400516510E1,2.211026669E0
2.705714472E0,-6.653441787E-1,-1.402432919E1,2.775161982E0
2.708177909E0,-6.270164847E-1,-1.403391075E1,2.832653284E0
2.710641347E0,-7.941011190E-1,-1.393389988E1,2.736834288E0
2.713104784E0,-8.372197747E-1,-1.387161732E1,2.664969921E0
2.715568222E0,-7.749373317E-1,-1.390036297E1,2.411648035E0
2.718031607E0,-7.084627748E-1,-1.396743679E1,2.010405302E0
2.720495045E0,-8.036830425E-1,-1.380454445E1,1.666055322E0
2.722958482E0,-6.797170639E-1,-1.391952705E1,1.317513227E0
2.725421920E0,-5.934798121E-1,-1.394348145E1,9.108807445E-1
2.727885357E0,-5.982707739E-1,-1.388599014E1,5.617397428E-1
2.730348795E0,-5.743159652E-1,-1.390515423E1,1.509151459E-1
2.732812180E0,-3.593217731E-1,-1.388599014E1,5.509600788E-2
2.735275618E0,-6.228244305E-2,-1.377579784E1,2.994348295E-3
2.737739055E0,2.485308945E-1,-1.388599014E1,-1.137852296E-2
2.740202493E0,6.216266751E-1,-1.385245323E1,9.342366457E-2
2.742665930E0,8.557847142E-1,-1.362787724E1,2.706890702E-1
2.745129368E0,1.161807060E0,-1.350810337E1,5.521578193E-1
2.747592753E0,1.448665619E0,-1.336497402E1,8.390163779E-1
2.750056191E0,1.754688025E0,-1.313021660E1,1.226485014E0
2.752519628E0,1.965490103E0,-1.282419395E1,1.451061130E0
2.754983066E0,2.137365818E0,-1.250379944E1,1.713964939E0
2.757446503E0,2.281094551E0,-1.201631927E1,2.010405302E0
2.759909941E0,2.372122526E0,-1.150009346E1,2.196653843E0
2.762373326E0,2.357749701E0,-1.086888504E1,2.287682056E0
2.764836763E0,2.161320448E0,-1.026163101E1,2.297263861E0
2.767300201E0,1.931953430E0,-9.726242065E0,2.249354362E0
2.769763638E0,1.855298162E0,-9.343564034E0,2.206235647E0
2.772227076E0,1.907998681E0,-9.118988037E0,2.191862822E0
2.774690513E0,2.032563448E0,-8.951304436E0,2.091851711E0
2.777153899E0,2.194857121E0,-8.956095695E0,2.067896843E0
2.779617336E0,2.276303530E0,-8.893813133E0,2.072687864E0
2.782080774E0,2.276303530E0,-8.975258827E0,2.015196323E0
2.784544211E0,2.281094551E0,-9.047123909E0,1.905004263E0
2.787007649E0,2.194857121E0,-8.984841347E0,1.962495804E0
2.789471086E0,2.214020967E0,-9.037541389E0,1.981659651E0
2.791934524E0,2.218811989E0,-9.142942429E0,1.957704782E0
2.794397909E0,2.166111469E0,-9.209417343E0,1.981659651E0
2.796861347E0,2.151738644E0,-9.276490211E0,1.952913880E0
2.799324784E0,2.137365818E0,-9.290863991E0,1.933750033E0
2.801788222E0,2.061309338E0,-9.319609642E0,1.962495804E0
2.804251659E0,1.783433795E0,-7.975745678E0,1.881049514E0
2.806715097E0,6.976830959E-1,-2.702099800E0,1.556462169E0
2.809178482E0,-1.808586359E0,7.057079792E0,-1.598981917E-1
2.811641920E0,-4.405284882E0,1.735164833E1,-2.128981590E0
2.814105357E0,-3.372234821E0,1.716480064E1,-1.306733489E0
2.816568795E0,2.102032453E-1,7.124153137E0,1.412733436E0
2.819032232E0,3.290189743E0,-3.070404530E0,4.295093060E0
2.821495670E0,4.686753750E0,-8.688400269E0,6.216865540E0
2.823959055E0,5.011940002E0,-1.119886208E1,7.302017689E0
2.826422493E0,4.619680405E0,-1.144260216E1,7.741587639E0
2.828885930E0,3.538720608E0,-1.022330379E1,7.445147514E0
2.831349368E0,2.917093992E0,-9.644795418E0,6.632481098E0
2.833812805E0,2.663772106E0,-9.568140030E0,5.284425735E0
2.836276243E0,2.510461569E0,-1.007478428E1,4.190290928E0
2.838739628E0,2.496088743E0,-1.120365334E1,3.262641668E0
2.841203066E0,2.348167896E0,-1.175820637E1,2.483512402E0
2.843666503E0,2.175693274E0,-1.267627335E1,1.924168110E0
2.846129941E0,2.094846010E0,-1.341228390E1,1.264812708E0
2.848593378E0,2.118201971E0,-1.430639648E1,7.342141867E-1
2.851056816E0,2.127783775E0,-1.518613625E1,1.988247186E-1
2.853520201E0,2.237975836E0,-1.619523239E1,-1.646891534E-1
2.855983638E0,2.348167896E0,-1.717078972E1,-4.467567503E-1
2.858447076E0,2.300258160E0,-1.774929810E1,-6.713328362E-1
2.860910513E0,2.415241241E0,-1.820324135E1,-7.479881644E-1
2.863373951E0,2.391286373E0,-1.840446091E1,-6.330052018E-1
2.865837388E0,2.046936512E0,-1.807927513E1,-6.234232783E-1
2.868300774E0,1.664258718E0,-1.768222427E1,-4.275929332E-1
2.870764211E0,1.315117717E0,-1.718995476E1,-1.742710620E-1
2.873227649E0,9.324400425E-1,-1.635333252E1,2.467342913E-1
2.875691086E0,6.312085986E-1,-1.516757107E1,7.150503397E-1
2.878154524E0,2.149941921E-1,-1.398600101E1,1.221694112E0
2.880617961E0,-9.102818370E-2,-1.296792316E1,1.871467590E0
2.883081399E0,-1.245648861E-1,-1.221214962E1,2.268518209E0
2.885544784E0,1.287569702E-1,-1.173425198E1,2.507467270E0
2.888008222E0,5.545532703E-1,-1.146176624E1,2.603286266E0
2.890471659E0,9.803496003E-1,-1.112220669E1,2.449975729E0
2.892935097E0,1.085151792E0,-1.064430904E1,2.387693167E0
2.895398534E0,1.137852311E0,-1.014185715E1,2.316427708E0
2.897861972E0,1.176180005E0,-9.620841026E0,2.163117170E0
2.900325357E0,1.281581044E0,-8.989631653E0,2.153535128E0
2.902788795E0,1.472620487E0,-8.368005753E0,2.167908192E0
2.905252232E0,1.693004489E0,-7.956582069E0,2.087060690E0
2.907715670E0,2.037354469E0,-7.765542507E0,2.106224537E0
2.910179107E0,2.319422007E0,-7.698469162E0,2.106224537E0
2.912642545E0,2.458359957E0,-7.660141468E0,2.172698975E0
2.915105930E0,2.534416199E0,-7.608039856E0,2.115207672E0
2.917569368E0,2.462551832E0,-7.640977859E0,1.905004263E0
2.920032805E0,2.333795071E0,-7.775124550E0,1.518134475E0
2.922496243E0,2.333795071E0,-8.071564674E0,1.776247382E0
2.924959680E0,2.209230185E0,-8.320096016E0,2.230190516E0
2.927423118E0,2.003817797E0,-8.406332970E0,2.521840096E0
2.929886503E0,1.826552391E0,-8.602163315E0,2.584122419E0
2.932349941E0,1.654676795E0,-8.808174133E0,2.430811882E0
2.934813378E0,1.510948062E0,-8.903394699E0,2.139162302E0
2.937276816E0,1.367818236E0,-9.027959824E0,1.928959131E0
2.939740253E0,1.324699640E0,-9.095032692E0,1.833738804E0
2.942203691E0,1.300744891E0,-9.161507607E0,1.771456361E0
2.944667076E0,1.305535793E0,-9.223790169E0,1.694801092E0
2.947130513E0,1.315117717E0,-9.372309685E0,1.622936726E0
2.949593951E0,1.334281564E0,-9.415428162E0,1.632518649E0
2.952057388E0,1.295953870E0,-9.386682510E0,1.685219169E0
2.954520826E0,1.339072466E0,-9.401055336E0,1.675637245E0
2.956984263E0,1.400756121E0,-9.439383507E0,1.828947902E0
2.959447649E0,1.434292793E0,-9.343564034E0,1.824156880E0
2.961911086E0,1.424710870E0,-9.381891251E0,1.909795284E0
2.964374524E0,1.458247542E0,-9.396265030E0,1.957704782E0
2.966837961E0,1.453456640E0,-9.396265030E0,1.972077727E0
2.969301399E0,1.405547023E0,-9.434592247E0,1.928959131E0
2.971764836E0,1.391174197E0,-9.372309685E0,1.905004263E0
2.974228274E0,1.405547023E0,-9.381891251E0,1.819365978E0
2.976691659E0,1.381592274E0,-9.439383507E0,1.733128667E0
2.979155097E0,1.372609258E0,-9.515439987E0,1.723546863E0
2.981618534E0,1.343863487E0,-9.491484642E0,1.680428147E0
2.984081972E0,1.386383176E0,-9.582512856E0,1.651682496E0
2.986545409E0,1.353445411E0,-9.611258507E0,1.646891475E0
2.989008847E0,1.358236313E0,-9.635213852E0,1.656473398E0
2.991472232E0,1.367818236E0,-9.745405197E0,1.661264420E0
2.993935670E0,1.381592274E0,-9.826252937E0,1.622936726E0
2.996399107E0,1.334281564E0,-9.826252937E0,1.551671267E0
2.998862545E0,1.276790023E0,-9.955608368E0,1.542089343E0
3.001325982E0,1.271999121E0,-1.007478428E1,1.479806900E0
3.003789420E0,1.286371946E0,-1.012269306E1,1.427106380E0
3.006252805E0,1.257626176E0,-1.018976688E1,1.431897283E0
3.008716243E0,1.243253350E0,-1.022330379E1,1.542089343E0
3.011179680E0,1.257626176E0,-1.019934845E1,1.637309551E0
3.013643118E0,1.233671427E0,-1.021851254E1,1.656473398E0
3.016106555E0,1.271999121E0,-1.011790276E1,1.699591994E0
3.018569993E0,1.334281564E0,-9.984354973E0,1.699591994E0
3.021033378E0,1.363027334E0,-9.888535500E0,1.785829306E0
3.023496816E0,1.419919848E0,-9.768761635E0,1.781038284E0
3.025960253E0,1.501366138E0,-9.616049767E0,1.819365978E0
3.028423691E0,1.549275756E0,-9.496275902E0,1.876258612E0
3.030887128E0,1.611558199E0,-9.377100945E0,1.852303743E0
3.033350566E0,1.678631544E0,-9.295654297E0,1.866676688E0
3.035813951E0,1.702586412E0,-9.233371735E0,1.766665459E0
3.038277388E0,1.721750259E0,-9.233371735E0,1.694801092E0
3.040740826E0,1.616349101E0,-9.218998909E0,1.608563900E0
3.043204263E0,1.654676795E0,-9.314818382E0,1.532507420E0
3.045667701E0,1.601976275E0,-9.472320557E0,1.422315359E0
3.048131138E0,1.491784215E0,-9.563348770E0,1.216903090E0
3.050594576E0,1.415128946E0,-9.611258507E0,1.283976555E0
3.053057961E0,1.386383176E0,-9.673541069E0,1.312722206E0
3.055521399E0,1.286371946E0,-9.721450806E0,1.279185534E0
3.057984836E0,1.171388984E0,-9.707077980E0,1.264812708E0
3.060448274E0,1.224089503E0,-9.845417023E0,1.331287146E0
3.062911711E0,1.238462448E0,-9.883744240E0,1.312722206E0
3.065375149E0,1.180970907E0,-9.912489891E0,1.221694112E0
3.067838534E0,1.137852311E0,-9.831044197E0,1.192948341E0
3.070301972E0,1.166598082E0,-9.707077980E0,1.264812708E0
3.072765409E0,1.300744891E0,-9.644795418E0,1.303140283E0
3.075228847E0,1.410338044E0,-9.649586678E0,1.336078167E0
3.077692284E0,1.358236313E0,-9.649586678E0,1.374405861E0
3.080155722E0,1.348654389E0,-9.520230293E0,1.527716398E0
3.082619107E0,1.419919848E0,-9.553767204E0,1.642100573E0
3.085082545E0,1.429501772E0,-9.477111816E0,1.646891475E0
3.087545982E0,1.400756121E0,-9.434592247E0,1.675637245E0
3.090009420E0,1.400756121E0,-9.453157425E0,1.771456361E0
3.092472857E0,1.405547023E0,-9.429800987E0,1.637309551E0
3.094936295E0,1.353445411E0,-9.434592247E0,1.451061130E0
3.097399680E0,1.204925656E0,-9.401055336E0,1.403151512E0
3.099863118E0,1.267208099E0,-9.377100945E0,1.135456800E0
3.102326555E0,1.238462448E0,-9.314818382E0,9.971179366E-1
3.104789993E0,8.462027907E-1,-9.080659866E0,8.060785532E-1
3.107253430E0,8.749485612E-1,-8.941722870E0,1.570835114E0
3.109716868E0,1.386383176E0,-9.233371735E0,2.340382576E0
3.112180253E0,1.635512948E0,-9.171089172E0,2.306845903E0
3.114643691E0,1.410338044E0,-9.133360863E0,1.561253190E0
3.117107128E0,1.395965099E0,-9.214208603E0,1.566044092E0
3.119570566E0,1.367818236E0,-9.175880432E0,1.694801092E0
3.122034003E0,1.291162968E0,-9.156716347E0,1.513343573E0
3.124497441E0,1.262417197E0,-9.204626083E0,1.484597802E0
3.126960826E0,1.176180005E0,-9.286072731E0,1.383987784E0
3.129424263E0,1.276790023E0,-9.434592247E0,1.537298322E0
3.131887701E0,1.693004489E0,-9.835834503E0,1.924168110E0
3.134351138E0,1.740315199E0,-9.998727798E0,2.244563341E0
3.136814576E0,1.439083695E0,-9.854998589E0,2.072687864E0
3.139278013E0,9.803496003E-1,-9.640004158E0,1.733128667E0
3.141741451E0,1.042033195E0,-9.553767204E0,1.603772879E0
3.144204836E0,1.252835274E0,-9.501067162E0,1.685219169E0
3.146668274E0,1.209716678E0,-9.620841026E0,1.905004263E0
3.149131711E0,1.305535793E0,-9.816671371E0,2.106224537E0
3.151595149E0,1.568439603E0,-1.004184628E1,2.034360170E0
3.154058586E0,1.515739083E0,-1.013227558E1,2.019987345E0
3.156522024E0,1.549275756E0,-1.005562019E1,2.010405302E0
3.158985513E0,1.625931025E0,-1.006999302E1,1.928959131E0
3.161449055E0,1.520529985E0,-9.989145279E0,1.828947902E0
3.163912545E0,1.228880525E0,-9.907699585E0,1.642100573E0
3.166376086E0,1.056406021E0,-9.826252937E0,1.407942533E0
3.168839576E0,1.046824098E0,-9.831044197E0,1.317513227E0
3.171303118E0,1.128270388E0,-9.840625763E0,1.327095151E0
3.173766607E0,1.262417197E0,-9.859789848E0,1.360032916E0
3.176230149E0,1.348654389E0,-9.835834503E0,1.412733436E0
3.178693691E0,1.372609258E0,-9.821461678E0,1.575626016E0
3.181157180E0,1.496575236E0,-9.745405197E0,1.637309551E0
3.183620722E0,1.635512948E0,-9.778343201E0,1.690010071E0
3.186084211E0,1.645094872E0,-9.702286720E0,1.852303743E0
3.188547753E0,1.759479046E0,-9.707077980E0,1.914586186E0
3.191011243E0,1.840925217E0,-9.778343201E0,1.924168110E0
3.193474784E0,1.845716238E0,-9.826252937E0,1.895422339E0
3.195938326E0,1.716959238E0,-9.831044197E0,1.857094765E0
3.198401816E0,1.807388544E0,-9.763970375E0,1.795411110E0
3.200865357E0,1.716959238E0,-9.711869240E0,1.857094765E0
3.203328847E0,1.645094872E0,-9.659168243E0,1.924168110E0
3.205792388E0,1.621140122E0,-9.635213852E0,1.819365978E0
3.208255878E0,1.611558199E0,-9.429800987E0,1.852303743E0
3.210719420E0,1.673840642E0,-9.367518425E0,1.919377208E0
3.213182961E0,1.520529985E0,-9.138152122E0,1.742710590E0
3.215646451E0,1.582812428E0,-8.965677261E0,1.317513227E0
3.218109993E0,1.907998681E0,-9.372309685E0,1.747501612E0
3.220573482E0,1.802597642E0,-9.491484642E0,2.148744345E0
3.223037024E0,1.434292793E0,-9.295654297E0,2.278100014E0
3.225500513E0,1.467829466E0,-9.515439987E0,2.115207672E0
3.227964055E0,1.353445411E0,-9.749597549E0,2.053524017E0
3.230427597E0,6.216266751E-1,-8.090728760E0,1.656473398E0
3.232891086E0,1.856495813E-2,-4.920911789E0,2.940450013E-1
3.235354628E0,1.180970907E0,-6.307294846E0,2.940450013E-1
3.237818118E0,1.176180005E0,-6.063555241E0,2.323614210E-1
3.240281659E0,2.233184814E0,-6.584571838E0,4.186098874E-1
3.242745149E0,2.797919035E0,-7.746378899E0,2.019987345E0
3.245208691E0,2.854811668E0,-8.927350044E0,4.974211216E0
3.247672180E0,3.510573864E0,-1.137552834E1,5.800651073E0
3.250135722E0,2.802709818E0,-1.284814930E1,4.969420433E0
3.252599263E0,1.506157160E0,-1.256129074E1,3.783658266E0
3.255062753E0,7.839203477E-1,-1.219298553E1,2.029569149E0
3.257526295E0,5.497623086E-1,-1.148572063E1,1.245648861E0
3.259989784E0,5.928809643E-1,-1.111741638E1,9.539993405E-1
3.262453326E0,5.737171173E-1,-1.230796909E1,2.215817571E-2
3.264916816E0,4.970617890E-1,-1.257566357E1,-4.707115293E-1
3.267380357E0,5.785080791E-1,-1.293917751E1,1.257626247E-2
3.269843899E0,6.168357134E-1,-1.336976433E1,5.509600788E-2
3.272307388E0,3.197963834E-1,-1.252296257E1,3.802822232E-1
3.274770930E0,4.192087334E-3,-1.147613907E1,4.329827428E-1
3.277234420E0,-7.186435908E-2,-1.021372128E1,7.821237445E-1
3.279697961E0,5.928809643E-1,-1.070120144E1,7.150503397E-1
3.282161451E0,1.104315639E0,-1.143302059E1,4.665194452E-1
3.284624993E0,9.276490808E-1,-1.169113350E1,5.713216066E-1
3.287088534E0,5.018527508E-1,-1.096889591E1,1.059400439E0
3.289552024E0,2.102032453E-1,-9.731032372E0,1.790620208E0
3.292015566E0,4.108245671E-1,-9.123779297E0,2.015196323E0
3.294479055E0,8.030841947E-1,-8.808174133E0,2.087060690E0
3.296942597E0,1.032451272E0,-8.544672012E0,2.254145384E0
3.299406086E0,1.262417197E0,-8.487779617E0,2.369128227E0
3.301869628E0,1.391174197E0,-8.444661140E0,2.382902384E0
3.304333170E0,1.506157160E0,-8.401541710E0,2.430811882E0
3.306796659E0,1.496575236E0,-8.449451447E0,2.416439056E0
3.309260201E0,1.424710870E0,-8.526106834E0,2.230190516E0
3.311723691E0,1.415128946E0,-8.760265350E0,1.976868629E0
3.314187232E0,1.243253350E0,-8.927350044E0,1.766665459E0
3.316650722E0,1.070778966E0,-8.975258827E0,1.608563900E0
3.319114263E0,1.137852311E0,-9.161507607E0,1.527716398E0
3.321577753E0,1.180970907E0,-9.295654297E0,1.503761649E0
3.324041295E0,1.161807060E0,-9.319609642E0,1.479806900E0
3.326504836E0,1.061197042E0,-9.377100945E0,1.427106380E0
3.328968326E0,9.899315238E-1,-9.415428162E0,1.393569589E0
3.331431868E0,1.037242174E0,-9.496275902E0,1.431897283E0
3.333895357E0,9.707676768E-1,-9.472320557E0,1.407942533E0
3.336358899E0,9.276490808E-1,-9.381891251E0,1.293558359E0
3.338822388E0,9.563947916E-1,-9.353145599E0,1.231275916E0
3.341285930E0,9.180671573E-1,-9.367518425E0,1.197739244E0
3.343749472E0,9.372310042E-1,-9.420219421E0,1.312722206E0
3.346212961E0,1.032451272E0,-9.529812813E0,1.398360610E0
3.348676503E0,9.659767151E-1,-9.467530251E0,1.388778687E0
3.351139993E0,9.084852338E-1,-9.329191208E0,1.498970747E0
3.353603534E0,9.851405621E-1,-9.252535820E0,1.465433955E0
3.356067024E0,1.243253350E0,-8.908185959E0,1.513343573E0
3.358530566E0,1.233671427E0,-8.912977219E0,1.656473398E0
3.360994107E0,1.137852311E0,-8.956095695E0,1.666055322E0
3.363457597E0,1.046824098E0,-9.066287041E0,1.627727628E0
3.365921138E0,1.056406021E0,-9.166298866E0,1.690010071E0
3.368384628E0,1.037242174E0,-9.314818382E0,1.723546863E0
3.370848170E0,9.803496003E-1,-9.386682510E0,1.785829306E0
3.373311659E0,9.180671573E-1,-9.472320557E0,1.752292514E0
3.375775201E0,8.797395229E-1,-9.707077980E0,1.838529825E0
3.378238743E0,7.072650194E-1,-9.883744240E0,1.833738804E0
3.380702232E0,4.826889336E-1,-1.027121353E1,1.804993033E0
3.383165774E0,3.724969029E-1,-1.050537109E1,1.843320727E0
3.385629263E0,4.443612695E-1,-1.034786797E1,1.790620208E0
3.388092805E0,6.928921938E-1,-1.006041145E1,1.446270227E0
3.390556295E0,6.551634073E-1,-9.783134460E0,1.279185534E0
3.393019836E0,6.503724456E-1,-9.525021553E0,1.489388824E0
3.395483378E0,8.222479820E-1,-9.396265030E0,1.699591994E0
3.397946868E0,8.845304251E-1,-9.295654297E0,1.861885667E0
3.400410409E0,9.132761955E-1,-9.161507607E0,2.039151192E0
3.402873899E0,9.899315238E-1,-9.090242386E0,2.096642494E0
3.405337441E0,1.137852311E0,-9.061496735E0,1.962495804E0
3.407800930E0,1.233671427E0,-9.085451126E0,1.895422339E0
3.410264472E0,1.372609258E0,-9.276490211E0,1.905004263E0
3.412727961E0,1.549275756E0,-9.596885681E0,2.124789476E0
3.415191503E0,1.573230505E0,-9.926862717E0,2.234981537E0
3.417655045E0,1.118688464E0,-9.946026802E0,2.039151192E0
3.420118534E0,6.024628282E-1,-9.840625763E0,1.804993033E0
3.422582076E0,3.677059710E-1,-9.816671371E0,1.570835114E0
3.425045566E0,6.168357134E-1,-9.936445236E0,1.685219169E0
3.427509107E0,7.887113094E-1,-1.013706589E1,1.909795284E0
3.429972597E0,7.599655390E-1,-1.001789093E1,1.513343573E0
3.432436138E0,6.168357134E-1,-9.663959503E0,1.087547302E0
3.434899680E0,9.659767151E-1,-9.467530251E0,9.923269749E-1
3.437363170E0,1.051615119E0,-9.807088852E0,1.737919688E0
3.439826711E0,9.516038299E-1,-9.768761635E0,2.058315039E0
3.442290201E0,8.845304251E-1,-9.563348770E0,1.909795284E0
3.444753743E0,8.893213868E-1,-9.429800987E0,1.680428147E0
3.447217232E0,1.147434235E0,-9.539394379E0,1.212112188E0
3.449680774E0,1.209716678E0,-9.611258507E0,6.767227054E-1
3.452144316E0,9.851405621E-1,-9.558558464E0,4.808923304E-1
3.454607805E0,7.887113094E-1,-9.472320557E0,5.192199945E-1
3.457071347E0,7.024740577E-1,-9.481903076E0,5.335928202E-1
3.459534836E0,6.216266751E-1,-9.429800987E0,7.294232249E-1
3.461998378E0,6.120447516E-1,-9.434592247E0,8.917168975E-1
3.464461868E0,5.593442321E-1,-9.539394379E0,9.252535701E-1
3.466925409E0,5.641351938E-1,-9.529812813E0,1.059400439E0
3.469388951E0,6.024628282E-1,-9.534603119E0,1.178575397E0
3.471852441E0,5.737171173E-1,-9.477111816E0,1.279185534E0
3.474315982E0,5.353894830E-1,-9.381891251E0,1.465433955E0
3.476779472E0,5.976719260E-1,-9.305236816E0,1.508552670E0
3.479243013E0,6.216266751E-1,-9.353145599E0,1.508552670E0
3.481706503E0,5.737171173E-1,-9.381891251E0,1.489388824E0
3.484170045E0,5.401803851E-1,-9.481903076E0,1.690010071E0
3.486633534E0,6.216266751E-1,-9.572931290E0,1.733128667E0
3.489097076E0,5.258075595E-1,-9.635213852E0,1.833738804E0
3.491560618E0,5.689261556E-1,-9.702286720E0,1.914586186E0
3.494024107E0,5.401803851E-1,-9.692705154E0,1.996032476E0
3.496487649E0,5.210165977E-1,-9.707077980E0,1.981659651E0
3.498951138E0,5.449713469E-1,-9.783134460E0,2.106224537E0
3.501414680E0,5.832990408E-1,-9.726242065E0,2.172698975E0
3.503878170E0,5.258075595E-1,-9.663959503E0,2.215817690E0
3.506341711E0,5.593442321E-1,-9.692705154E0,2.220608711E0
3.508805253E0,6.833102703E-1,-9.702286720E0,2.087060690E0
3.511268743E0,6.976830959E-1,-9.659168243E0,2.072687864E0
3.513732284E0,6.737283468E-1,-9.611258507E0,2.039151192E0
3.516195774E0,7.312198281E-1,-9.444173813E0,2.101433516E0
3.518659316E0,8.126661181E-1,-9.271699905E0,2.010405302E0
3.521122805E0,9.516038299E-1,-9.262117386E0,1.857094765E0
3.523586347E0,1.032451272E0,-9.190253258E0,1.809784055E0
3.526049888E0,1.089942694E0,-9.080659866E0,1.804993033E0
3.528513378E0,1.089942694E0,-8.884230614E0,1.670846343E0
3.530976920E0,1.161807060E0,-8.726728439E0,1.054609418E0
3.533440409E0,1.324699640E0,-8.774638176E0,9.635812640E-1
3.535903951E0,1.395965099E0,-8.927350044E0,1.183366418E0
3.538367441E0,1.358236313E0,-8.912977219E0,1.340869069E0
3.540830982E0,1.319908619E0,-9.037541389E0,1.608563900E0
3.543294524E0,1.133061409E0,-9.075869560E0,1.513343573E0
3.545758013E0,9.707676768E-1,-9.004005432E0,1.303140283E0
3.548221555E0,8.557847142E-1,-8.951304436E0,1.417524457E0
3.550685045E0,7.982932329E-1,-9.180671692E0,1.513343573E0
3.553148586E0,8.749485612E-1,-9.204626083E0,1.231275916E0
3.555612076E0,9.180671573E-1,-9.295654297E0,1.011490822E0
3.558075618E0,9.084852338E-1,-9.386682510E0,9.396264553E-1
3.560539107E0,8.270389438E-1,-9.444173813E0,1.154620647E0
3.563002649E0,5.545532703E-1,-9.630422592E0,1.475015879E0
3.565466191E0,4.060336053E-1,-9.907699585E0,1.503761649E0
3.567929680E0,1.814575046E-1,-9.941235542E0,1.441479206E0
3.570393222E0,-1.018078346E-2,-1.000351810E1,1.561253190E0
3.572856711E0,-2.635026276E-1,-1.022809410E1,1.838529825E0
3.575320253E0,-3.784856200E-1,-1.065808296E1,1.996032476E0
3.577783743E0,-1.533106267E-1,-1.102159691E1,1.776247382E0
3.580247284E0,4.251974449E-2,-1.110783386E1,1.498970747E0
3.582710826E0,-7.186435908E-2,-1.063951778E1,1.857094765E0
3.585174316E0,-7.132537365E-1,-9.787925720E0,3.253059864E0
3.587637857E0,-1.014485121E0,-9.716659546E0,5.686267376E0
3.590101347E0,1.670846343E-1,-1.068682861E1,4.481341362E0
3.592564888E0,1.000112295E-1,-1.159052277E1,1.298349380E0
3.595028378E0,-1.018078346E-2,-1.196361828E1,2.179885507E-1
3.597491920E0,3.677059710E-1,-1.230317783E1,7.425983250E-2
3.599955461E0,1.191750541E-1,-1.193008232E1,-2.096043713E-2
3.602418951E0,-4.832877815E-1,-1.159531403E1,3.419545591E-1
3.604882493E0,-6.461803317E-1,-1.139469242E1,1.403151512E0
3.607345982E0,-3.928584754E-1,-1.126533699E1,2.645806074E0
3.609809524E0,-5.024515986E-1,-1.087367630E1,3.181195498E0
3.612273013E0,-7.132537365E-1,-1.065808296E1,3.148257732E0
3.614736555E0,-6.988808513E-1,-1.037122440E1,2.593704462E0
3.617200097E0,-5.647340417E-1,-9.787925720E0,2.464348555E0
3.619663586E0,-7.372085452E-1,-9.391473770E0,2.622450113E0
3.622127128E0,-3.162031770E-1,-9.161507607E0,2.564958572E0
3.624590618E0,6.928921938E-1,-8.912977219E0,1.269603610E0
3.627054159E0,9.707676768E-1,-8.334468842E0,1.030055806E-1
3.629517649E0,5.162256360E-1,-7.818243027E0,-4.491522163E-2
3.631981191E0,8.893213868E-1,-7.923644066E0,1.988247186E-1
3.634444732E0,1.032451272E0,-8.143429756E0,-3.509376049E-1
3.636908222E0,-7.665531337E-2,-7.923644066E0,-8.959089518E-1
3.639371763E0,-3.114122152E-1,-8.085937500E0,-8.815361261E-1
3.641835253E0,-2.682935894E-1,-8.052401543E0,-7.857169509E-1
3.644298795E0,-8.084740043E-1,-7.005577087E0,3.941161156E0
3.646762284E0,-7.845191956E-1,-7.421192646E0,1.475015879E0
3.649225826E0,1.745106101E0,-9.329191208E0,-2.621252298E0
3.651689316E0,2.883557320E0,-9.218998909E0,-2.229591608E0
3.654152857E0,7.551746368E-1,-8.300931931E0,-1.120485067E0
3.656616347E0,-5.695250034E-1,-8.487779617E0,-8.432084322E-1
3.659079993E0,-9.102818370E-2,-9.075869560E0,-6.809147596E-1
3.661543691E0,-4.497511089E-1,-9.266908646E0,-6.425871253E-1
3.664007388E0,-1.006100997E-1,-9.544185638E0,-4.180110097E-1
3.666471034E0,1.248044372E0,-9.811880112E0,5.048471093E-1
3.668934732E0,2.070891142E0,-9.759179115E0,1.383987784E0
3.671398430E0,1.683422565E0,-9.467530251E0,1.866676688E0
3.673862076E0,9.228581190E-1,-9.238162994E0,1.790620208E0
3.676325774E0,8.941123486E-1,-9.592095375E0,7.773327827E-1
3.678789420E0,4.251974523E-1,-9.582512856E0,-4.371748269E-1
3.681253118E0,3.012314141E-1,-9.515439987E0,-4.419657886E-1
3.683716816E0,8.701575994E-1,-9.625631332E0,5.856944919E-1
3.686180461E0,1.089942694E0,-9.663959503E0,1.164202571E0
3.688644159E0,1.291162968E0,-9.611258507E0,1.532507420E0
3.691107857E0,1.434292793E0,-9.572931290E0,2.148744345E0
3.693571503E0,1.238462448E0,-9.391473770E0,2.473930359E0
3.696035201E0,1.291162968E0,-9.324399948E0,2.579331636E0
3.698498847E0,1.405547023E0,-9.329191208E0,2.569749594E0
3.700962545E0,1.176180005E0,-9.324399948E0,2.326009750E0
3.703426243E0,9.132761955E-1,-9.367518425E0,1.938541055E0
3.705889888E0,8.653666377E-1,-9.501067162E0,1.627727628E0
3.708353586E0,8.030841947E-1,-9.448366165E0,1.298349380E0
3.710817232E0,8.845304251E-1,-9.486694336E0,1.178575397E0
3.713280930E0,1.037242174E0,-9.596885681E0,1.513343573E0
3.715744628E0,7.647565007E-1,-9.467530251E0,1.646891475E0
3.718208274E0,7.120559812E-1,-9.357936859E0,1.704383016E0
3.720671972E0,7.982932329E-1,-9.271699905E0,1.651682496E0
3.723135670E0,6.024628282E-1,-9.118988037E0,1.322304130E0
3.725599316E0,4.347793460E-1,-9.023168564E0,1.030654669E0
3.728063013E0,5.305985212E-1,-9.032751083E0,9.683722258E-1
3.730526659E0,5.353894830E-1,-9.018378258E0,9.923269749E-1
3.732990357E0,6.407905221E-1,-9.051914215E0,1.125874877E0
3.735454055E0,6.359995604E-1,-9.199835777E0,1.178575397E0
3.737917701E0,4.491522312E-1,-9.276490211E0,1.255230784E0
3.740381399E0,6.455814838E-1,-9.324399948E0,1.446270227E0
3.742845097E0,6.407905221E-1,-9.462738991E0,1.350450993E0
3.745308743E0,4.251974523E-1,-9.529812813E0,1.183366418E0
3.747772441E0,3.054235280E-1,-9.654376984E0,9.539993405E-1
3.750236086E0,3.629150093E-1,-9.821461678E0,7.917056680E-1
3.752699784E0,6.120447516E-1,-9.955608368E0,8.629711270E-1
3.755163482E0,4.539431930E-1,-1.003705502E1,6.671407819E-1
3.757627128E0,2.724856734E-1,-1.009873867E1,4.521465898E-1
3.760090826E0,4.587341547E-1,-1.024246693E1,3.850731850E-1
3.762554524E0,4.970617890E-1,-1.032870483E1,2.563162148E-1
3.765018170E0,3.820788264E-1,-1.039517879E1,1.077965349E-1
3.767481868E0,2.724856734E-1,-1.046225262E1,-1.646891534E-1
3.769945513E0,1.479208022E-1,-1.049578953E1,-6.407905370E-2
3.772409211E0,-4.371748492E-2,-1.055807209E1,4.072313383E-2
3.774872909E0,3.197963834E-1,-1.078264809E1,1.700789779E-1
3.777336555E0,8.318299055E-1,-1.086888504E1,2.275704592E-1
3.779800253E0,5.497623086E-1,-1.066766453E1,2.036156803E-1
3.782263951E0,1.670846343E-1,-1.046225262E1,-6.407905370E-2
3.784727597E0,4.539431930E-1,-1.045267105E1,-6.587565877E-3
3.787191295E0,7.312198281E-1,-1.046225262E1,7.905079424E-2
3.789654941E0,8.366208673E-1,-1.039517879E1,2.892540395E-1
3.792118638E0,8.941123486E-1,-1.028558636E1,3.754912615E-1
3.794582336E0,6.120447516E-1,-1.006520176E1,3.132088184E-1
3.797045982E0,5.593442321E-1,-9.965190887E0,3.132088184E-1
3.799509680E0,6.312085986E-1,-9.955608368E0,2.658981085E-1
3.801973378E0,3.772878647E-1,-9.840625763E0,1.077965349E-1
3.804437024E0,4.635250866E-1,-9.773552895E0,3.850731850E-1
3.806900722E0,5.832990408E-1,-9.763970375E0,6.240221858E-1
3.809364368E0,7.982932329E-1,-9.835834503E0,4.952651858E-1
3.811828066E0,1.061197042E0,-9.692705154E0,6.096493006E-1
3.814291763E0,8.797395229E-1,-9.472320557E0,3.994460404E-1
3.816755409E0,7.551746368E-1,-9.525021553E0,4.473556280E-1
3.819219107E0,7.695474625E-1,-9.448366165E0,8.390163779E-1
3.821682753E0,8.462027907E-1,-9.439383507E0,9.779540896E-1
3.824146451E0,9.132761955E-1,-9.477111816E0,9.971179366E-1
3.826610149E0,8.845304251E-1,-9.568140030E0,9.683722258E-1
3.829073795E0,7.455927134E-1,-9.496275902E0,9.731631875E-1
3.831537493E0,6.120447516E-1,-9.496275902E0,9.923269749E-1
3.834001191E0,6.359995604E-1,-9.616049767E0,8.533892035E-1
3.836464836E0,5.976719260E-1,-9.745405197E0,7.533779740E-1
3.838928534E0,4.443612695E-1,-9.792716026E0,6.048583388E-1
3.841392180E0,4.204064906E-1,-9.763970375E0,5.617397428E-1
3.843855878E0,7.168469429E-1,-9.831044197E0,8.012875915E-1
3.846319576E0,7.551746368E-1,-9.835834503E0,9.731631875E-1
3.848783222E0,5.401803851E-1,-9.811880112E0,8.821349740E-1
3.851246920E0,5.210165977E-1,-9.878953934E0,7.964966297E-1
3.853710618E0,4.587341547E-1,-9.912489891E0,7.102593780E-1
3.856174263E0,4.635250866E-1,-9.931653976E0,7.869147062E-1
3.858637961E0,5.305985212E-1,-9.984354973E0,8.294344544E-1
3.861101607E0,5.305985212E-1,-9.993936539E0,8.342254162E-1
3.863565305E0,5.401803851E-1,-1.000351810E1,7.869147062E-1
3.866029003E0,6.503724456E-1,-9.989145279E0,8.821349740E-1
3.868492649E0,7.408017516E-1,-9.941235542E0,1.021072745E0
3.870956347E0,8.318299055E-1,-9.969982147E0,1.159411669E0
3.873420045E0,6.359995604E-1,-9.984354973E0,1.082756281E0
3.875883691E0,3.820788264E-1,-9.922072411E0,7.629598975E-1
3.878347388E0,6.120447516E-1,-1.006999302E1,7.342141867E-1
3.880811034E0,8.174570799E-1,-9.998727798E0,8.917168975E-1
3.883274732E0,7.503836751E-1,-9.874162674E0,1.164202571E0
3.885738430E0,7.360107899E-1,-9.941235542E0,1.111502051E0
3.888202076E0,6.881012321E-1,-9.902908325E0,1.059400439E0
3.890665774E0,7.120559812E-1,-9.840625763E0,1.307931304E0
3.893129472E0,8.270389438E-1,-9.831044197E0,1.283976555E0
3.895593118E0,9.468128681E-1,-9.740614891E0,1.427106380E0
3.898056816E0,9.611857533E-1,-9.702286720E0,1.455852032E0
3.900520461E0,9.324400425E-1,-9.630422592E0,1.350450993E0
3.902984159E0,9.899315238E-1,-9.577722549E0,1.518134475E0
3.905447857E0,9.611857533E-1,-9.577722549E0,1.436688304E0
3.907911503E0,8.557847142E-1,-9.501067162E0,1.455852032E0
3.910375201E0,8.030841947E-1,-9.563348770E0,1.431897283E0
3.912838899E0,7.743384242E-1,-9.505857468E0,1.412733436E0
3.915302545E0,7.072650194E-1,-9.457947731E0,1.312722206E0
3.917766243E0,6.407905221E-1,-9.453157425E0,1.279185534E0
3.920229888E0,7.072650194E-1,-9.510648727E0,1.279185534E0
3.922693586E0,7.599655390E-1,-9.491484642E0,1.226485014E0
3.925157284E0,7.887113094E-1,-9.496275902E0,1.183366418E0
3.927620930E0,8.078751564E-1,-9.577722549E0,9.539993405E-1
3.930084628E0,3.389602005E-1,-9.491484642E0,1.087547302E0
3.932548274E0,2.437399477E-1,-9.491484642E0,1.260021687E0
3.935011972E0,4.635250866E-1,-9.606468201E0,1.379196763E0
3.937475670E0,6.168357134E-1,-9.644795418E0,1.417524457E0
3.939939316E0,7.647565007E-1,-9.654376984E0,1.475015879E0
3.942403013E0,8.941123486E-1,-9.845417023E0,1.479806900E0
3.944866711E0,6.024628282E-1,-9.716659546E0,1.551671267E0
3.947330357E0,2.868585587E-1,-9.558558464E0,1.460643053E0
3.949794055E0,3.677059710E-1,-9.472320557E0,1.374405861E0
3.952257701E0,5.114346743E-1,-9.467530251E0,1.355242014E0
3.954721399E0,7.360107899E-1,-9.486694336E0,1.255230784E0
3.957185097E0,9.228581190E-1,-9.553767204E0,1.125874877E0
3.959648743E0,5.353894830E-1,-9.242954254E0,1.603772879E0
3.962112441E0,4.347793460E-1,-9.175880432E0,1.666055322E0
3.964576138E0,6.455814838E-1,-9.276490211E0,1.666055322E0
3.967039784E0,8.557847142E-1,-9.209417343E0,1.981659651E0
3.969503482E0,8.701575994E-1,-9.247744560E0,1.957704782E0
3.971967128E0,8.653666377E-1,-9.171089172E0,1.828947902E0
3.974430826E0,9.036942720E-1,-9.013586998E0,1.809784055E0
3.976894524E0,8.414118290E-1,-8.946513176E0,1.761874437E0
3.979358170E0,7.072650194E-1,-9.066287041E0,1.771456361E0
3.981821868E0,6.881012321E-1,-9.166298866E0,1.627727628E0
3.984285566E0,4.731070101E-1,-9.104615211E0,1.451061130E0
3.986749211E0,4.731070101E-1,-9.300445557E0,1.412733436E0
3.989212909E0,8.989033103E-1,-9.649586678E0,1.164202571E0
3.991676555E0,4.635250866E-1,-9.429800987E0,1.202530265E0
3.994140253E0,1.287569702E-1,-9.314818382E0,1.537298322E0
3.996603951E0,2.916495204E-1,-9.496275902E0,1.465433955E0
3.999067597E0,2.581128180E-1,-9.529812813E0,1.269603610E0
4.001531295E0,4.108245671E-1,-9.611258507E0,1.101920128E0
4.003994993E0,4.635250866E-1,-9.539394379E0,1.040236592E0
4.006458638E0,4.826889336E-1,-9.462738991E0,1.045027494E0
4.008922336E0,4.108245671E-1,-9.568140030E0,1.006699800E0
4.011385982E0,4.539431930E-1,-9.616049767E0,9.444174170E-1
4.013849680E0,5.401803851E-1,-9.601676941E0,9.923269749E-1
4.016313378E0,3.245873451E-1,-9.568140030E0,1.068383455E0
4.018777024E0,4.575363994E-1,-9.581913948E0,1.068383455E0
4.021240722E0,9.743608832E-1,-9.763970375E0,7.527791262E-1
4.023704420E0,4.144177735E-1,-9.558558464E0,1.054010510E0
4.026168066E0,2.617060244E-1,-9.696897507E0,1.402552724E0
4.028631763E0,2.664969862E-1,-9.658569336E0,1.503162742E0
4.031095409E0,3.425534368E-1,-9.763970375E0,1.392970800E0
4.033559107E0,4.287906587E-1,-9.883145332E0,1.369614840E0
4.036022805E0,4.671183228E-1,-9.787925720E0,1.416925550E0
4.038486451E0,4.239996970E-1,-9.672942162E0,1.541490436E0
4.040950149E0,3.521353602E-1,-9.648987770E0,1.536699533E0
4.043413795E0,5.006549954E-1,-9.735224724E0,1.546281457E0
4.045877493E0,4.000449181E-1,-9.701687813E0,1.579818130E0
4.048341191E0,4.575363994E-1,-9.735224724E0,1.584609032E0
4.050804836E0,4.527454376E-1,-9.759179115E0,1.570236206E0
4.053268534E0,3.617172539E-1,-9.768761635E0,1.555863261E0
4.055732232E0,5.629374385E-1,-9.902309418E0,1.388179779E0
4.058195878E0,2.760789096E-1,-9.816671371E0,1.402552724E0
4.060659576E0,8.444061875E-2,-9.883145332E0,1.618145704E0
4.063123222E0,2.856608033E-1,-1.003645611E1,1.507953763E0
4.065586920E0,4.910731018E-1,-1.018437672E1,1.388179779E0
4.068050618E0,4.862821400E-1,-1.026103210E1,1.259422898E0
4.070514263E0,3.712991774E-1,-1.028019619E1,1.264213800E0
4.072977961E0,3.090167344E-1,-1.035685158E1,1.168394685E0
4.075441659E0,3.281805515E-1,-1.047602654E1,1.077965379E0
4.077905305E0,4.719092846E-1,-1.064850140E1,9.677733183E-1
4.080369003E0,5.341917276E-1,-1.061496449E1,9.342366457E-1
4.082832649E0,5.677284002E-1,-1.054789066E1,9.198637605E-1
4.085296347E0,6.869034767E-1,-1.048081779E1,9.390276074E-1
4.087760045E0,6.533667445E-1,-1.050477219E1,9.725642800E-1
4.090223691E0,6.773215532E-1,-1.056705475E1,1.010891914E0
4.092687388E0,7.108582854E-1,-1.056226349E1,1.010891914E0
4.095151086E0,7.396039963E-1,-1.045686245E1,1.058801532E0
4.097614732E0,7.970954776E-1,-1.028019619E1,1.106112242E0
4.100078430E0,8.689598441E-1,-1.009394741E1,1.249840975E0
4.102542076E0,9.120784402E-1,-9.887936592E0,1.312123418E0
4.105005774E0,8.737508059E-1,-9.701687813E0,1.407343626E0
4.107469472E0,8.450050354E-1,-9.687314987E0,1.355242014E0
4.109933118E0,9.360332489E-1,-9.787925720E0,1.388179779E0
4.112396816E0,1.127072692E0,-1.014664841E1,1.392970800E0
4.114860513E0,8.977055550E-1,-1.044308853E1,1.110903144E0
4.117324159E0,1.802597642E-1,-9.720851898E0,1.412134647E0
4.119787857E0,4.000449181E-1,-9.725643158E0,1.426507473E0
4.122251503E0,6.108470559E-1,-9.778343201E0,1.517535686E0
4.124715201E0,6.629486680E-1,-9.716060638E0,1.665456414E0
4.127178899E0,6.198300719E-1,-9.706479073E0,1.631919742E0
4.129642545E0,5.725193620E-1,-9.844818115E0,1.364225030E0
4.132106243E0,5.198188424E-1,-1.016521358E1,1.106112242E0
4.134569941E0,3.856720328E-1,-1.013227558E1,1.283377647E0
4.137033586E0,2.946438491E-1,-1.024665928E1,1.273795724E0
4.139497284E0,5.150278807E-1,-1.012269306E1,1.392970800E0
4.141960930E0,7.635588050E-1,-9.778343201E0,1.603772879E0
4.144424628E0,8.785417676E-1,-9.615450859E0,1.512744665E0
4.146888326E0,9.456151724E-1,-9.395666122E0,1.517535686E0
4.149351972E0,8.929146528E-1,-9.271100998E0,1.369015932E0
4.151815670E0,8.689598441E-1,-9.266309738E0,1.297750473E0
4.154279316E0,8.114683628E-1,-9.290265083E0,1.326496243E0
4.156743013E0,7.683497667E-1,-9.390874863E0,1.211513281E0
4.159206555E0,7.443949580E-1,-9.462738991E0,1.163603663E0
4.161670149E0,7.012763619E-1,-9.591496468E0,1.168394685E0
4.164133743E0,7.300220728E-1,-9.644196510E0,1.245049953E0
4.166597284E0,6.821125150E-1,-9.658569336E0,1.354643106E0
4.169060878E0,5.815024376E-1,-9.610659599E0,1.283377647E0
4.171524472E0,5.815024376E-1,-9.672942162E0,1.211513281E0
4.173988013E0,5.341917276E-1,-9.716060638E0,1.144439816E0
4.176451607E0,5.437736511E-1,-9.701687813E0,1.168394685E0
4.178915149E0,4.719092846E-1,-9.663360596E0,1.106112242E0
4.181378743E0,5.198188424E-1,-9.639405251E0,1.058801532E0
4.183842336E0,6.725305915E-1,-9.620242119E0,1.096530318E0
4.186305878E0,7.491859198E-1,-9.548377037E0,1.130066991E0
4.188769472E0,7.252311110E-1,-9.453157425E0,1.158812761E0
4.191233013E0,7.491859198E-1,-9.424411774E0,1.154021740E0
4.193696607E0,7.156491876E-1,-9.376502037E0,1.082157373E0
4.196160201E0,6.437848806E-1,-9.429202080E0,1.091739297E0
4.198623743E0,1.012089729E0,-1.040955162E1,6.713328362E-1
4.201087336E0,9.881348908E-2,-9.596286774E0,9.917281270E-1
4.203550878E0,2.323614210E-1,-9.070479393E0,1.182767510E0
4.206014472E0,8.545869589E-1,-9.472320557E0,1.077366471E0
4.208478066E0,5.671295524E-1,-9.376502037E0,1.326496243E0
4.210941607E0,6.869034767E-1,-9.328592300E0,1.670247436E0
4.213405201E0,8.306322098E-1,-9.462738991E0,1.607964993E0
4.215868795E0,6.437848806E-1,-9.429202080E0,1.622337818E0
4.218332336E0,6.054571867E-1,-9.538795471E0,1.531908512E0
4.220795930E0,6.102481484E-1,-9.658569336E0,1.570236206E0
4.223259472E0,4.000449181E-1,-9.529213905E0,1.603173971E0
4.225723066E0,4.048358798E-1,-9.496275902E0,1.622337818E0
4.228186659E0,4.767002165E-1,-9.807088852E0,1.565445185E0
4.230650201E0,3.473443985E-1,-9.754388809E0,1.631919742E0
4.233113795E0,2.611071467E-1,-9.658569336E0,1.622337818E0
4.235577336E0,5.767114758E-1,-9.921473503E0,1.612755895E0
4.238040930E0,5.294007659E-1,-1.001729202E1,1.622337818E0
4.240504524E0,3.760901392E-1,-9.959800720E0,1.575027108E0
4.242968066E0,2.515252531E-1,-9.983756065E0,1.445671320E0
4.245431659E0,2.850619555E-1,-1.016521358E1,1.364225030E0
4.247895201E0,2.419433296E-1,-1.026103210E1,1.216304183E0
4.250358795E0,1.467230618E-1,-1.026582336E1,1.163603663E0
4.252822388E0,1.563049704E-1,-1.037122440E1,1.173185587E0
4.255285930E0,1.563049704E-1,-1.020354080E1,1.163603663E0
4.257749524E0,9.402253479E-2,-1.017000389E1,1.106112242E0
4.260213118E0,1.131863594E-1,-1.018437672E1,1.039637685E0
4.262676659E0,-5.449713767E-2,-1.022749519E1,9.629823565E-1
4.265140253E0,7.785305381E-3,-1.022749519E1,1.034846783E0
4.267603795E0,-8.324287832E-2,-1.023228645E1,9.677733183E-1
4.270067388E0,-6.587565877E-3,-1.024186897E1,1.020473838E0
4.272530982E0,-2.030168027E-1,-1.030894184E1,8.575813174E-1
4.274994524E0,-1.215705350E-1,-1.030894184E1,9.390276074E-1
4.277458118E0,-1.503162831E-1,-1.032331467E1,9.246547222E-1
4.279921659E0,-8.803384006E-2,-1.029936028E1,1.025264859E0
4.282385253E0,-1.455253214E-1,-1.026582336E1,9.725642800E-1
4.284848847E0,-9.761574864E-2,-1.022749519E1,1.015682936E0
4.287312388E0,-4.491522163E-2,-1.026582336E1,1.072575569E0
4.289775982E0,-7.366096228E-2,-1.020833206E1,1.134858012E0
4.292239524E0,-1.311524510E-1,-1.007478428E1,1.163603663E0
4.294703118E0,-6.407905370E-2,-1.007478428E1,1.154021740E0
4.297166711E0,-1.796608907E-3,-1.005562019E1,1.245049953E0
4.299630253E0,1.179773211E-1,-1.006520176E1,1.187558532E0
4.302093847E0,1.652880162E-1,-9.935846329E0,1.288168550E0
4.304557441E0,2.419433296E-1,-9.811880112E0,1.507953763E0
4.307020982E0,4.335816205E-1,-9.802298546E0,1.593592048E0
4.309484576E0,4.192087352E-1,-9.677733421E0,1.560654283E0
4.311948118E0,5.048471093E-1,-9.557959557E0,1.627128839E0
4.314411711E0,5.527566671E-1,-9.481903076E0,1.675038338E0
4.316875305E0,6.198300719E-1,-9.496275902E0,1.655874491E0
4.319338847E0,7.683497667E-1,-9.357337952E0,1.746902704E0
4.321802441E0,9.929258823E-1,-9.424411774E0,1.785230398E0
4.324265982E0,1.031253457E0,-9.333383560E0,1.804394245E0
4.326729576E0,9.689710736E-1,-9.237564087E0,1.918778300E0
4.329193170E0,1.184564114E0,-9.271100998E0,1.880450606E0
4.331656711E0,1.203129053E0,-9.304637909E0,1.928360224E0
4.334120305E0,1.198338151E0,-9.266309738E0,1.928360224E0
4.336583899E0,1.212710977E0,-9.113597870E0,1.894823551E0
4.339047441E0,1.207920074E0,-9.089643478E0,1.875659704E0
4.341511034E0,1.399558306E0,-9.247145653E0,1.823558092E0
4.343974576E0,1.380394459E0,-9.051315308E0,1.890032530E0
4.346438170E0,1.423513174E0,-9.027360916E0,1.933151126E0
4.348901763E0,1.542688131E0,-9.089643478E0,1.961896896E0
4.351365305E0,1.590597749E0,-9.099225044E0,1.933151126E0
4.353828899E0,1.604970574E0,-9.080060959E0,1.918778300E0
4.356292441E0,1.734326482E0,-9.147134781E0,1.923569322E0
4.358756034E0,1.705580711E0,-9.041733742E0,1.971478820E0
4.361219628E0,1.691207886E0,-9.036942482E0,1.952314973E0
4.363683170E0,1.715162635E0,-9.171089172E0,1.957105994E0
4.366146763E0,1.662462115E0,-9.208818436E0,1.966687918E0
4.368610305E0,1.619343519E0,-9.275892258E0,1.937942147E0
4.371073899E0,1.609761596E0,-9.280682564E0,1.928360224E0
4.373537493E0,1.705580711E0,-9.486694336E0,1.861286879E0
4.376001034E0,1.604970574E0,-9.538795471E0,1.870868683E0
4.378464628E0,1.547479153E0,-9.639405251E0,1.851704955E0
4.380928222E0,1.542688131E0,-9.749597549E0,1.766066551E0
4.383391763E0,1.509151459E0,-9.835235596E0,1.742111802E0
4.385855357E0,1.513942480E0,-9.907100677E0,1.822959185E0
4.388318899E0,1.461840749E0,-9.974173546E0,1.756484628E0
4.390782493E0,1.375603557E0,-1.004124737E1,1.780439377E0
4.393246086E0,1.346857786E0,-1.005562019E1,1.751693726E0
4.395709628E0,1.274993420E0,-1.008436584E1,1.761275649E0
4.398173222E0,1.198338151E0,-1.006041145E1,1.746902704E0
4.400636763E0,1.127072692E0,-1.006041145E1,1.746902704E0
4.403100357E0,1.183965325E0,-1.004603767E1,1.727738857E0
4.405563951E0,1.203129053E0,-1.001729202E1,1.746902704E0
4.408027493E0,1.198338151E0,-9.911890984E0,1.780439377E0
4.410491086E0,1.174383402E0,-9.868772507E0,1.727738857E0
4.412954628E0,1.265411496E0,-9.859190941E0,1.713366032E0
4.415418222E0,1.437886000E0,-9.816072464E0,1.708575130E0
4.417881816E0,1.342066884E0,-9.701687813E0,1.775648475E0
4.420345357E0,1.318112016E0,-9.692106247E0,1.761275649E0
4.422808951E0,1.409140229E0,-9.730433464E0,1.742111802E0
4.425272545E0,1.489987612E0,-9.735224724E0,1.708575130E0
4.427736086E0,1.509151459E0,-9.735224724E0,1.665456414E0
4.430199680E0,1.547479153E0,-9.701687813E0,1.646292686E0
4.432663222E0,1.581015825E0,-9.749597549E0,1.698993206E0
4.435126816E0,1.585806847E0,-9.677733421E0,1.670247436E0
4.437590409E0,1.552270055E0,-9.629823685E0,1.727738857E0
4.440053951E0,1.571433902E0,-9.768761635E0,1.737320781E0
4.442517545E0,1.595388651E0,-9.796908379E0,1.870868683E0
4.444981086E0,1.676834941E0,-9.796908379E0,1.923569322E0
4.447444680E0,1.681625962E0,-9.825654030E0,1.942733049E0
4.449908274E0,1.595388651E0,-9.854399681E0,1.928360224E0
4.452371816E0,1.566643000E0,-9.792117119E0,1.856495857E0
4.454835409E0,1.557061076E0,-9.778343201E0,1.761275649E0
4.457298951E0,1.614552498E0,-9.830445290E0,1.713366032E0
4.459762545E0,1.662462115E0,-9.840026855E0,1.631919742E0
4.462226138E0,1.604970574E0,-9.854399681E0,1.665456414E0
4.464689680E0,1.590597749E0,-9.878355026E0,1.737320781E0
4.467153274E0,1.624134421E0,-9.811281204E0,1.655874491E0
4.469616868E0,1.719953537E0,-9.782535553E0,1.679829359E0
4.472080409E0,1.743908405E0,-9.716060638E0,1.665456414E0
4.474544003E0,1.676834941E0,-9.615450859E0,1.679829359E0
4.477007545E0,1.695998788E0,-9.557959557E0,1.646292686E0
4.479471138E0,1.648089290E0,-9.467530251E0,1.622337818E0
4.481934732E0,1.619343519E0,-9.405247688E0,1.593592048E0
4.484398274E0,1.614552498E0,-9.362129211E0,1.531908512E0
4.486861868E0,1.643298268E0,-9.323801041E0,1.555264473E0
4.489325409E0,1.633716345E0,-9.261518478E0,1.574428320E0
4.491789003E0,1.652880192E0,-9.242355347E0,1.584010243E0
4.494252597E0,1.604970574E0,-9.256728172E0,1.636710763E0
4.496716138E0,1.499569535E0,-9.247145653E0,1.670247436E0
4.499179732E0,1.470823884E0,-9.204027176E0,1.732529879E0
4.501643274E0,1.456450939E0,-9.218400002E0,1.742111802E0
4.504106868E0,1.322903037E0,-9.184864044E0,1.665456414E0
4.506570461E0,1.251038671E0,-9.204027176E0,1.742111802E0
4.509034003E0,1.270202518E0,-9.247145653E0,1.775648475E0
4.511497597E0,1.183965325E0,-9.223191261E0,1.842123032E0
4.513961191E0,1.140846610E0,-9.223191261E0,1.808586359E0
4.516424732E0,1.131264687E0,-9.304637909E0,1.861286879E0
4.518888326E0,1.088146091E0,-9.295055389E0,1.856495857E0
4.521351868E0,1.073773265E0,-9.314219475E0,1.846913934E0
4.523815461E0,1.012089729E0,-9.390874863E0,1.870868683E0
4.526279055E0,9.450162649E-1,-9.395666122E0,1.846913934E0
4.528742597E0,9.162705541E-1,-9.457947731E0,1.837332010E0
4.531206191E0,8.875247836E-1,-9.476512909E0,1.870868683E0
4.533669732E0,8.204513788E-1,-9.457947731E0,1.904405475E0
4.536133326E0,7.581689358E-1,-9.490885735E0,1.866077781E0
4.538596920E0,7.485870719E-1,-9.490885735E0,1.894823551E0
4.541060461E0,7.198413014E-1,-9.486095428E0,1.890032530E0
4.543524055E0,7.006774545E-1,-9.443574905E0,1.818168163E0
4.545987597E0,6.150391102E-1,-9.424411774E0,1.775648475E0
4.548451191E0,6.294119954E-1,-9.486095428E0,1.766066551E0
4.550914784E0,6.102481484E-1,-9.424411774E0,1.732529879E0
4.553378326E0,5.862933993E-1,-9.357337952E0,1.684620261E0
4.555841920E0,6.677396297E-1,-9.342965126E0,1.651083589E0
4.558305513E0,6.767227054E-1,-9.304637909E0,1.622337818E0
4.560769055E0,6.581577063E-1,-9.280682564E0,1.617546916E0
4.563232649E0,6.767227054E-1,-9.285473824E0,1.603173971E0
4.565696191E0,7.150503397E-1,-9.180072784E0,1.493580818E0
4.568159784E0,7.198413014E-1,-9.194445610E0,1.412134647E0
4.570623378E0,7.102593780E-1,-9.247145653E0,1.369015932E0
4.573086920E0,7.198413014E-1,-9.213609695E0,1.316315413E0
4.575550513E0,7.342141867E-1,-9.247145653E0,1.249840975E0
4.578014055E0,6.910955310E-1,-9.271100998E0,1.235468030E0
4.580477649E0,7.102593780E-1,-9.376502037E0,1.149230838E0
4.582941243E0,6.910955310E-1,-9.438784599E0,1.062993646E0
4.585404784E0,6.671407819E-1,-9.462140083E0,1.101321220E0
4.587868378E0,6.527678967E-1,-9.500468254E0,1.019874930E0
4.590331920E0,6.389939189E-1,-9.553168297E0,1.005502105E0
4.592795513E0,6.246210337E-1,-9.538795471E0,9.959201813E-1
4.595259107E0,6.246210337E-1,-9.639405251E0,1.058202624E0
4.597722649E0,6.150391102E-1,-9.634614944E0,1.043829799E0
4.600186243E0,5.910843015E-1,-9.653778076E0,1.039038777E0
4.602649836E0,5.719205141E-1,-9.692106247E0,1.053411722E0
4.605113378E0,5.383837819E-1,-9.725643158E0,1.072575569E0
4.607576972E0,5.527566671E-1,-9.754388809E0,1.062993646E0
4.610040513E0,5.383837819E-1,-9.701687813E0,1.086948395E0
4.612504107E0,5.383837819E-1,-9.740015984E0,1.201931357E0
4.614967701E0,5.575476289E-1,-9.772953987E0,1.211513281E0
4.617431243E0,5.671295524E-1,-9.749597549E0,1.216304183E0
4.619894836E0,5.767114758E-1,-9.701687813E0,1.273196816E0
4.622358378E0,6.006662250E-1,-9.653778076E0,1.297151685E0
4.624821972E0,6.527678967E-1,-9.711270332E0,1.345061183E0
4.627285566E0,6.623498201E-1,-9.687314987E0,1.330688357E0
4.629749107E0,6.102481484E-1,-9.644196510E0,1.369015932E0
4.632212701E0,6.623498201E-1,-9.677733421E0,1.416925550E0
4.634676295E0,7.006774545E-1,-9.658569336E0,1.416925550E0
4.637139836E0,7.246322632E-1,-9.658569336E0,1.421716571E0
4.639603430E0,7.677508593E-1,-9.648987770E0,1.412134647E0
4.642066972E0,7.342141867E-1,-9.615450859E0,1.407343626E0
4.644530566E0,7.437961102E-1,-9.605869293E0,1.330688357E0
4.646994159E0,7.677508593E-1,-9.634614944E0,1.383388877E0
4.649457701E0,7.437961102E-1,-9.701687813E0,1.335479259E0
4.651921295E0,7.006774545E-1,-9.682524681E0,1.268405914E0
4.654384836E0,7.437961102E-1,-9.625032425E0,1.201931357E0
4.656848430E0,7.198413014E-1,-9.620242119E0,1.173185587E0
4.659311763E0,6.767227054E-1,-9.658569336E0,1.144439816E0
4.661775097E0,6.910955310E-1,-9.706479073E0,1.062993646E0
4.664238430E0,6.336040497E-1,-9.648987770E0,1.005502105E0
4.666701763E0,5.952764153E-1,-9.725643158E0,1.024665952E0
4.669165097E0,6.096493006E-1,-9.787326813E0,9.629823565E-1
4.671628430E0,5.192199945E-1,-9.796908379E0,9.438185692E-1
4.674091763E0,4.952651858E-1,-9.849609375E0,9.150727987E-1
4.676555097E0,4.425646663E-1,-9.859190941E0,8.863270879E-1
4.679018430E0,3.659093380E-1,-9.955010414E0,8.479993939E-1
4.681481763E0,3.132088184E-1,-9.921473503E0,8.336265087E-1
4.683945097E0,3.084178567E-1,-9.916682243E0,8.000898361E-1
4.686408430E0,2.557173371E-1,-9.897518158E0,8.144627213E-1
4.688871763E0,1.988247186E-1,-9.974173546E0,8.048807979E-1
4.691335097E0,1.748699397E-1,-9.983756065E0,7.234345078E-1
4.693798430E0,6.946887821E-2,-9.964591980E0,6.952876449E-1
4.696261763E0,5.030504987E-2,-9.988546371E0,7.138525844E-1
4.698725097E0,1.676834933E-2,-9.978964806E0,7.713440657E-1
4.701188430E0,4.072313383E-2,-9.931055069E0,7.665531635E-1
4.703651816E0,4.072313383E-2,-9.887936592E0,7.000786066E-1
4.706115149E0,2.155930735E-2,-9.873563766E0,7.096605301E-1
4.708578482E0,-4.072313383E-2,-9.835235596E0,7.282254696E-1
4.711041816E0,-2.635026351E-2,-9.849609375E0,7.761350274E-1
4.713505149E0,-7.186435629E-3,-9.811281204E0,8.048807979E-1
4.715968482E0,-1.197739318E-2,-9.782535553E0,8.527903557E-1
4.718431816E0,-1.197739318E-2,-9.782535553E0,8.048807979E-1
4.720895149E0,-2.635026351E-2,-9.758581161E0,8.863270879E-1
4.723358482E0,-1.197739318E-2,-9.711270332E0,9.486095309E-1
4.725821816E0,2.155930735E-2,-9.677733421E0,9.534004331E-1
4.728285149E0,5.988696218E-2,-9.672942162E0,9.342366457E-1
4.730748482E0,3.593217954E-2,-9.648987770E0,9.767563939E-1
4.733211816E0,1.125874892E-1,-9.610659599E0,9.629823565E-1
4.735675149E0,1.365422755E-1,-9.610659599E0,9.671744704E-1
4.738138482E0,1.886439323E-1,-9.605869293E0,1.010293126E0
4.740601816E0,1.652880162E-1,-9.610659599E0,1.039038777E0
4.743065149E0,1.604970694E-1,-9.663360596E0,9.719654322E-1
4.745528482E0,1.461241841E-1,-9.716060638E0,9.863383174E-1
4.747991868E0,1.748699397E-1,-9.716060638E0,1.010293126E0
4.750455201E0,1.838529855E-1,-9.729834557E0,9.863383174E-1
4.752918534E0,2.173896730E-1,-9.806489944E0,9.534004331E-1
4.755381868E0,2.461354136E-1,-9.811281204E0,9.390276074E-1
4.757845201E0,2.557173371E-1,-9.830445290E0,9.767563939E-1
4.760308534E0,2.413444668E-1,-9.873563766E0,9.863383174E-1
4.762771868E0,2.988359630E-1,-9.840026855E0,9.863383174E-1
4.765235201E0,3.084178567E-1,-9.868772507E0,9.438185692E-1
4.767698534E0,3.515364826E-1,-9.883145332E0,9.294456840E-1
4.770161868E0,3.707002997E-1,-9.868772507E0,9.246547222E-1
4.772625201E0,3.515364826E-1,-9.916682243E0,8.815361261E-1
4.775088534E0,4.329827428E-1,-9.935846329E0,8.719542027E-1
4.777551868E0,4.569375217E-1,-9.974173546E0,8.767451644E-1
4.780015201E0,4.234008193E-1,-9.988546371E0,8.527903557E-1
4.782478534E0,4.329827428E-1,-9.983756065E0,8.479993939E-1
4.784941868E0,4.521465898E-1,-9.974173546E0,8.767451644E-1
4.787405201E0,4.281917810E-1,-9.950219154E0,8.527903557E-1
4.789868534E0,4.377737045E-1,-1.000291920E1,9.150727987E-1
4.792331868E0,4.665194452E-1,-9.969383240E0,9.006999135E-1
4.794795253E0,4.377737045E-1,-1.002208328E1,9.390276074E-1
4.797258586E0,4.808923304E-1,-1.001250172E1,9.054908752E-1
4.799721920E0,4.952651858E-1,-1.000771046E1,8.959089518E-1
4.802185253E0,5.138301253E-1,-1.000771046E1,9.671744704E-1
4.804648586E0,5.042482615E-1,-9.978964806E0,9.528015852E-1
4.807111920E0,5.521578193E-1,-1.002627563E1,9.486095309E-1
4.809575253E0,5.665307045E-1,-9.969383240E0,9.438185692E-1
4.812038586E0,5.425758958E-1,-9.959800720E0,9.671744704E-1
4.814501920E0,5.665307045E-1,-9.974173546E0,9.390276074E-1
4.816965253E0,5.761125684E-1,-9.931055069E0,9.054908752E-1
4.819428586E0,5.713216066E-1,-9.959800720E0,9.623835087E-1
4.821891920E0,5.282030106E-1,-9.916682243E0,9.438185692E-1
4.824355253E0,5.473668575E-1,-9.887936592E0,9.390276074E-1
4.826818586E0,5.665307045E-1,-9.883145332E0,9.390276074E-1
4.829281920E0,5.617397428E-1,-9.940636635E0,9.480106235E-1
4.831745253E0,5.377849340E-1,-9.868772507E0,9.671744704E-1
4.834208586E0,5.473668575E-1,-9.892727852E0,9.390276074E-1
4.836671920E0,5.377849340E-1,-9.911890984E0,9.390276074E-1
4.839135305E0,5.473668575E-1,-9.801699638E0,1.000711203E0
4.841598638E0,4.898753762E-1,-9.748998642E0,9.815473557E-1
4.844061972E0,4.755024910E-1,-9.715461731E0,9.246547222E-1
4.846525305E0,4.946663082E-1,-9.701687813E0,9.671744704E-1
4.848988638E0,5.090391636E-1,-9.692106247E0,9.246547222E-1
4.851451972E0,5.473668575E-1,-9.687314987E0,9.480106235E-1
4.853915305E0,5.713216066E-1,-9.663360596E0,9.575925469E-1
4.856378638E0,6.383950114E-1,-9.644196510E0,8.863270879E-1
4.858841972E0,6.719317436E-1,-9.668151855E0,9.480106235E-1
4.861305305E0,6.144402623E-1,-9.658569336E0,9.815473557E-1
4.863768638E0,6.288130879E-1,-9.629823685E0,9.528015852E-1
4.866231972E0,6.527678967E-1,-9.677733421E0,9.671744704E-1
4.868695305E0,6.719317436E-1,-9.715461731E0,1.034247875E0
4.871158638E0,6.623498201E-1,-9.729834557E0,1.048620701E0
4.873621972E0,6.863046288E-1,-9.672942162E0,1.005502105E0
4.876085305E0,6.958864927E-1,-9.692106247E0,1.019874930E0
4.878548638E0,6.719317436E-1,-9.658569336E0,1.077366471E0
4.881011972E0,6.767227054E-1,-9.653778076E0,1.086948395E0
4.883475305E0,6.910955310E-1,-9.639405251E0,1.120485067E0
4.885938691E0,7.390051484E-1,-9.692106247E0,1.106112242E0
4.888402024E0,6.910955310E-1,-9.663360596E0,1.106112242E0
4.890865357E0,7.198413014E-1,-9.663360596E0,1.154021740E0
4.893328691E0,7.581689358E-1,-9.672942162E0,1.053411722E0
4.895792024E0,7.102593780E-1,-9.734625816E0,1.067784548E0
4.898255357E0,7.102593780E-1,-9.748998642E0,1.139648914E0
4.900718691E0,7.294232249E-1,-9.753789902E0,1.182767510E0
4.903182024E0,6.767227054E-1,-9.782535553E0,1.215705395E0
4.905645357E0,6.815136671E-1,-9.820862770E0,1.196541548E0
4.908108691E0,6.719317436E-1,-9.820862770E0,1.220496297E0
4.910572024E0,6.623498201E-1,-9.897518158E0,1.249242067E0
4.913035357E0,6.240221858E-1,-9.825654030E0,1.258823991E0
4.915498691E0,6.240221858E-1,-9.887936592E0,1.306733489E0
4.917962024E0,6.048583388E-1,-9.911890984E0,1.282778740E0
4.920425357E0,6.144402623E-1,-9.931055069E0,1.277987838E0
4.922888691E0,5.713216066E-1,-9.950219154E0,1.287569761E0
4.925352024E0,5.713216066E-1,-9.892727852E0,1.321106434E0
4.927815357E0,6.815136671E-1,-9.950219154E0,1.196541548E0
4.930278743E0,7.006774545E-1,-9.964591980E0,1.201332450E0
4.932742076E0,6.336040497E-1,-9.959800720E0,1.168394685E0
4.935205409E0,5.713216066E-1,-9.931055069E0,1.206123471E0
4.937668743E0,6.240221858E-1,-9.897518158E0,1.316315413E0
4.940132076E0,6.767227054E-1,-9.887936592E0,1.311524510E0
4.942595409E0,7.054684162E-1,-9.878355026E0,1.354643106E0
4.945058743E0,6.431859732E-1,-9.873563766E0,1.345061183E0
4.947522076E0,6.575588584E-1,-9.844818115E0,1.392970800E0
4.949985409E0,6.336040497E-1,-9.883145332E0,1.282778740E0
4.952448743E0,6.336040497E-1,-9.863982201E0,1.330688357E0
4.954912076E0,6.096493006E-1,-9.811281204E0,1.254032969E0
4.957375409E0,6.767227054E-1,-9.768162727E0,1.225287318E0
4.959838743E0,6.575588584E-1,-9.748998642E0,1.254032969E0
4.962302076E0,6.383950114E-1,-9.753789902E0,1.230078220E0
4.964765409E0,6.623498201E-1,-9.725044250E0,1.234869242E0
4.967228743E0,6.623498201E-1,-9.715461731E0,1.225287318E0
4.969692076E0,6.240221858E-1,-9.672942162E0,1.230078220E0
4.972155409E0,6.096493006E-1,-9.653778076E0,1.201332450E0
4.974618743E0,5.761125684E-1,-9.639405251E0,1.277987838E0
4.977082128E0,7.815248966E-1,-9.677733421E0,1.149230838E0
4.979545461E0,6.958864927E-1,-9.572332382E0,1.287569761E0
4.982008795E0,6.383950114E-1,-9.572332382E0,1.306733489E0
4.984472128E0,6.623498201E-1,-9.572332382E0,1.258823991E0
4.986935461E0,6.431859732E-1,-9.562750816E0,1.254032969E0
4.989398795E0,7.767339349E-1,-9.572332382E0,1.144439816E0
4.991862128E0,7.246322632E-1,-9.490885735E0,1.201332450E0
4.994325461E0,7.054684162E-1,-9.442975998E0,1.182168603E0
4.996788795E0,7.288243175E-1,-9.466931343E0,1.239660144E0
4.999252128E0,6.383950114E-1,-9.428603172E0,1.234869242E0
5.001715461E0,7.054684162E-1,-9.447767258E0,1.154021740E0
5.004178795E0,7.479881644E-1,-9.462140083E0,1.106112242E0
5.006642128E0,7.150503397E-1,-9.399857521E0,1.134858012E0
5.009105461E0,7.288243175E-1,-9.380694389E0,1.120485067E0
5.011568795E0,7.144514918E-1,-9.357337952E0,1.077366471E0
5.014032128E0,7.192424536E-1,-9.419021606E0,1.077366471E0
5.016495461E0,6.288130879E-1,-9.481304169E0,1.158812761E0
5.018958795E0,7.431972027E-1,-9.538795471E0,1.029456854E0
5.021422180E0,7.863158584E-1,-9.586705208E0,1.043829799E0
5.023885513E0,7.144514918E-1,-9.529213905E0,1.034247875E0
5.026348847E0,7.144514918E-1,-9.543586731E0,1.034247875E0
5.028812180E0,7.240334153E-1,-9.644196510E0,9.719654322E-1
5.031275513E0,7.479881644E-1,-9.657970428E0,9.911292195E-1
5.033738847E0,6.713328362E-1,-9.710671425E0,9.528015852E-1
5.036202180E0,5.946775675E-1,-9.705880165E0,9.528015852E-1
5.038665513E0,5.755137205E-1,-9.748998642E0,9.096829891E-1
5.041128847E0,7.431972027E-1,-9.792117119E0,8.527903557E-1
5.043592180E0,5.994685292E-1,-9.677134514E0,9.384287000E-1
5.046055513E0,5.994685292E-1,-9.748998642E0,8.953101039E-1
5.048518847E0,5.946775675E-1,-9.720252991E0,8.575813174E-1
5.050982180E0,6.090503931E-1,-9.705880165E0,9.048920274E-1
5.053445513E0,5.755137205E-1,-9.710671425E0,8.617734313E-1
5.055908847E0,5.377849340E-1,-9.667552948E0,8.905191422E-1
5.058372180E0,5.946775675E-1,-9.729834557E0,8.432084322E-1
5.060835513E0,7.000786066E-1,-9.681925774E0,8.000898361E-1
5.063298847E0,6.234232783E-1,-9.677134514E0,8.336265087E-1
5.065762232E0,6.713328362E-1,-9.625032425E0,9.384287000E-1
5.068225566E0,6.521690488E-1,-9.681925774E0,9.192649126E-1
5.070688899E0,6.042594910E-1,-9.715461731E0,9.240558743E-1
5.073152232E0,6.042594910E-1,-9.710671425E0,1.015084028E0
5.075615566E0,5.803046823E-1,-9.710671425E0,1.077366471E0
5.078078899E0,5.371860862E-1,-9.691507339E0,1.115095258E0
5.080542232E0,4.371748269E-1,-9.705880165E0,1.196541548E0
5.083005566E0,5.994685292E-1,-9.744207382E0,1.086948395E0
5.085468899E0,6.042594910E-1,-9.657970428E0,1.062993646E0
5.087932232E0,4.994572699E-1,-9.586705208E0,1.082157373E0
5.090395566E0,5.419770479E-1,-9.691507339E0,1.148631930E0
5.092858899E0,5.090391636E-1,-9.648388863E0,1.134259105E0
5.095322232E0,5.228132010E-1,-9.701088905E0,1.110304356E0
5.097785566E0,4.323838651E-1,-9.686716080E0,1.210914373E0
5.100248899E0,5.276041627E-1,-9.715461731E0,1.110304356E0
5.102712232E0,5.707227588E-1,-9.605869293E0,1.101321220E0
5.105175566E0,5.090391636E-1,-9.548377037E0,1.196541548E0
5.107638899E0,5.042482615E-1,-9.610659599E0,1.119886160E0
5.110102232E0,5.180222392E-1,-9.534004211E0,1.067784548E0
5.112565618E0,5.084403157E-1,-9.514841080E0,1.086948395E0
5.115028951E0,4.084290862E-1,-9.572332382E0,1.124677181E0
5.117492284E0,5.803046823E-1,-9.581913948E0,9.528015852E-1
5.119955618E0,5.707227588E-1,-9.490885735E0,1.039038777E0
5.122418951E0,5.228132010E-1,-9.562750816E0,9.623835087E-1
5.124882284E0,5.419770479E-1,-9.586705208E0,9.767563939E-1
