"Time (s)","Gyroscope x (rad/s)","Gyroscope y (rad/s)","Gyroscope z (rad/s)"
1.117934010E-1,-1.200866699E-1,-2.302551270E-1,6.515502930E-2
1.141432540E-1,-1.194763184E-1,-2.326965332E-1,6.576538086E-2
1.164625900E-1,-1.200866699E-1,-2.290344238E-1,6.515502930E-2
1.187819260E-1,-1.206970215E-1,-2.296447754E-1,6.637573242E-2
1.211317800E-1,-1.194763184E-1,-2.290344238E-1,6.698608398E-2
1.234511160E-1,-1.219177246E-1,-2.290344238E-1,6.637573242E-2
1.257704520E-1,-1.225280762E-1,-2.278137207E-1,6.759643555E-2
1.281203050E-1,-1.231384277E-1,-2.296447754E-1,6.759643555E-2
1.304396410E-1,-1.231384277E-1,-2.156066895E-1,7.003784180E-2
1.327589770E-1,-1.219177246E-1,-2.290344238E-1,6.942749023E-2
1.351088310E-1,-1.243591309E-1,-2.247619629E-1,6.942749023E-2
1.374281670E-1,-1.237487793E-1,-2.326965332E-1,6.942749023E-2
1.397475030E-1,-1.231384277E-1,-2.278137207E-1,7.064819336E-2
1.420668380E-1,-1.243591309E-1,-2.253723145E-1,6.942749023E-2
1.444166920E-1,-1.231384277E-1,-2.265930176E-1,7.064819336E-2
1.467360280E-1,-1.249694824E-1,-2.265930176E-1,7.186889648E-2
1.490553640E-1,-1.249694824E-1,-2.278137207E-1,7.247924805E-2
1.514052170E-1,-1.243591309E-1,-2.302551270E-1,7.308959961E-2
1.537245530E-1,-1.237487793E-1,-2.259826660E-1,7.431030273E-2
1.560438890E-1,-1.225280762E-1,-2.326965332E-1,7.553100586E-2
1.583937430E-1,-1.225280762E-1,-2.302551270E-1,7.553100586E-2
1.607130790E-1,-1.219177246E-1,-2.308654785E-1,7.492065430E-2
1.630324150E-1,-1.194763184E-1,-2.290344238E-1,7.675170898E-2
1.653822680E-1,-1.200866699E-1,-2.290344238E-1,7.797241211E-2
1.677016040E-1,-1.200866699E-1,-2.320861816E-1,7.858276367E-2
1.700209400E-1,-1.206970215E-1,-2.290344238E-1,7.919311523E-2
1.723402760E-1,-1.206970215E-1,-2.320861816E-1,7.919311523E-2
1.746901290E-1,-1.194763184E-1,-2.278137207E-1,7.919311523E-2
1.770094650E-1,-1.206970215E-1,-2.320861816E-1,7.858276367E-2
1.793288010E-1,-1.200866699E-1,-2.290344238E-1,7.919311523E-2
1.816786550E-1,-1.200866699E-1,-2.253723145E-1,7.919311523E-2
1.839979910E-1,-1.200866699E-1,-2.253723145E-1,8.041381836E-2
1.863173270E-1,-1.219177246E-1,-2.247619629E-1,8.041381836E-2
1.886366630E-1,-1.219177246E-1,-2.278137207E-1,8.041381836E-2
1.909865160E-1,-1.219177246E-1,-2.235412598E-1,7.980346680E-2
1.933058520E-1,-1.219177246E-1,-2.241516113E-1,7.736206055E-2
1.956251880E-1,-1.219177246E-1,-2.180480957E-1,7.797241211E-2
1.979750420E-1,-1.219177246E-1,-2.162170410E-1,7.797241211E-2
2.002943780E-1,-1.249694824E-1,-2.180480957E-1,7.492065430E-2
2.026137130E-1,-1.255798340E-1,-2.149963379E-1,7.308959961E-2
2.049635670E-1,-1.237487793E-1,-2.143859863E-1,7.247924805E-2
2.072829030E-1,-1.268005371E-1,-2.095031738E-1,7.186889648E-2
2.096022390E-1,-1.249694824E-1,-2.095031738E-1,7.125854492E-2
2.119520920E-1,-1.249694824E-1,-2.058410645E-1,6.942749023E-2
2.142714280E-1,-1.243591309E-1,-2.009582520E-1,6.820678711E-2
2.165907640E-1,-1.237487793E-1,-1.985168457E-1,6.698608398E-2
2.189406180E-1,-1.255798340E-1,-1.942443848E-1,6.515502930E-2
2.212599540E-1,-1.255798340E-1,-1.930236816E-1,6.271362305E-2
2.235792900E-1,-1.237487793E-1,-1.844787598E-1,6.088256836E-2
2.258986260E-1,-1.231384277E-1,-1.826477051E-1,6.088256836E-2
2.282484790E-1,-1.225280762E-1,-1.789855957E-1,5.966186523E-2
2.305678150E-1,-1.194763184E-1,-1.820373535E-1,5.783081055E-2
2.328871510E-1,-1.206970215E-1,-1.661682129E-1,5.844116211E-2
2.352370040E-1,-1.188659668E-1,-1.692199707E-1,5.783081055E-2
2.375563400E-1,-1.164245605E-1,-1.618957520E-1,5.477905273E-2
2.398756760E-1,-1.152038574E-1,-1.570129395E-1,5.477905273E-2
2.422255300E-1,-1.115417480E-1,-1.533508301E-1,5.355834961E-2
2.445448660E-1,-1.084899902E-1,-1.490783691E-1,5.233764648E-2
2.468642020E-1,-1.066589355E-1,-1.435852051E-1,5.111694336E-2
2.491835380E-1,-1.036071777E-1,-1.405334473E-1,4.867553711E-2
2.515333910E-1,-1.036071777E-1,-1.380920410E-1,4.745483398E-2
2.538527270E-1,-9.750366211E-2,-1.258850098E-1,4.684448242E-2
2.561720630E-1,-8.956909180E-2,-1.177978516E-1,4.562377930E-2
2.585219170E-1,-8.895874023E-2,-1.129150391E-1,4.379272461E-2
2.608412530E-1,-8.773803711E-2,-1.177978516E-1,4.379272461E-2
2.631605880E-1,-8.956909180E-2,-1.148986816E-1,4.318237305E-2
2.655104420E-1,-9.017944336E-2,-1.098632812E-1,4.196166992E-2
2.678297780E-1,-8.773803711E-2,-1.074218750E-1,4.135131836E-2
2.701491140E-1,-8.529663086E-2,-9.948730469E-2,4.135131836E-2
2.724989670E-1,-8.163452148E-2,-1.049804688E-1,4.074096680E-2
2.748183030E-1,-8.102416992E-2,-1.007080078E-1,4.013061523E-2
2.771376390E-1,-7.797241211E-2,-1.037597656E-1,4.074096680E-2
2.794874930E-1,-7.736206055E-2,-1.007080078E-1,4.196166992E-2
2.818068290E-1,-7.553100586E-2,-9.948730469E-2,4.074096680E-2
2.841261650E-1,-7.125854492E-2,-9.643554688E-2,4.135131836E-2
2.864455010E-1,-7.003784180E-2,-9.521484375E-2,3.952026367E-2
2.887953540E-1,-6.805419922E-2,-9.582519531E-2,3.890991211E-2
2.911146900E-1,-6.561279297E-2,-9.582519531E-2,3.829956055E-2
2.934340260E-1,-6.622314453E-2,-8.972167969E-2,3.707885742E-2
2.957838790E-1,-6.439208984E-2,-8.483886719E-2,3.707885742E-2
2.981032150E-1,-6.317138672E-2,-8.300781250E-2,3.768920898E-2
3.004225510E-1,-6.500244141E-2,-7.873535156E-2,3.585815430E-2
3.027724050E-1,-6.317138672E-2,-7.690429688E-2,3.524780273E-2
3.050917410E-1,-6.134033203E-2,-7.446289062E-2,3.524780273E-2
3.074110770E-1,-6.317138672E-2,-7.202148438E-2,3.463745117E-2
3.097304130E-1,-6.256103516E-2,-6.347656250E-2,3.524780273E-2
3.120802660E-1,-6.256103516E-2,-6.286621094E-2,3.280639648E-2
3.143996020E-1,-6.134033203E-2,-6.652832031E-2,3.219604492E-2
3.167189380E-1,-6.256103516E-2,-5.920410156E-2,3.097534180E-2
3.190687920E-1,-6.134033203E-2,-5.798339844E-2,2.853393555E-2
3.213881280E-1,-6.195068359E-2,-5.615234375E-2,2.731323242E-2
3.237074630E-1,-6.134033203E-2,-5.371093750E-2,2.609252930E-2
3.260573170E-1,-6.134033203E-2,-5.310058594E-2,2.487182617E-2
3.283766530E-1,-6.317138672E-2,-4.516601562E-2,2.426147461E-2
3.306959890E-1,-6.134033203E-2,-3.967285156E-2,2.365112305E-2
3.330458420E-1,-6.134033203E-2,-3.906250000E-2,2.304077148E-2
3.353651780E-1,-6.195068359E-2,-3.967285156E-2,1.937866211E-2
3.376845140E-1,-6.195068359E-2,-3.479003906E-2,1.876831055E-2
3.400343680E-1,-6.195068359E-2,-3.723144531E-2,1.998901367E-2
3.423537040E-1,-6.195068359E-2,-3.051757812E-2,1.632690430E-2
3.446730400E-1,-6.072998047E-2,-2.807617188E-2,1.571655273E-2
3.469923760E-1,-6.072998047E-2,-2.624511719E-2,1.571655273E-2
3.493422290E-1,-6.256103516E-2,-1.953125000E-2,1.571655273E-2
3.516920830E-1,-5.950927734E-2,-2.258300781E-2,1.510620117E-2
3.540114190E-1,-6.072998047E-2,-2.380371094E-2,1.266479492E-2
3.563612720E-1,-6.195068359E-2,-2.197265625E-2,1.327514648E-2
3.586806080E-1,-6.072998047E-2,-2.502441406E-2,1.266479492E-2
3.609999440E-1,-6.317138672E-2,-2.258300781E-2,1.327514648E-2
3.633497970E-1,-6.256103516E-2,-2.258300781E-2,1.266479492E-2
3.656691330E-1,-6.622314453E-2,-2.014160156E-2,1.083374023E-2
3.679884690E-1,-6.561279297E-2,-2.075195312E-2,9.613037109E-3
3.703078050E-1,-6.439208984E-2,-2.929687500E-2,8.392333984E-3
3.726576590E-1,-6.561279297E-2,-1.647949219E-2,9.613037109E-3
3.749769950E-1,-6.683349609E-2,-1.831054688E-2,9.613037109E-3
3.772963310E-1,-6.378173828E-2,-1.586914062E-2,1.022338867E-2
3.796461840E-1,-6.500244141E-2,-1.892089844E-2,1.022338867E-2
3.819655200E-1,-6.439208984E-2,-1.831054688E-2,9.613037109E-3
3.842848560E-1,-6.500244141E-2,-1.953125000E-2,1.022338867E-2
3.866347100E-1,-6.439208984E-2,-2.197265625E-2,1.022338867E-2
3.889540450E-1,-6.439208984E-2,-2.197265625E-2,1.144409180E-2
3.912733810E-1,-6.195068359E-2,-2.380371094E-2,1.266479492E-2
3.936232350E-1,-6.134033203E-2,-2.502441406E-2,1.266479492E-2
3.959425710E-1,-6.072998047E-2,-2.441406250E-2,1.327514648E-2
3.982619070E-1,-6.378173828E-2,-2.624511719E-2,1.388549805E-2
4.005812430E-1,-6.134033203E-2,-2.685546875E-2,1.083374023E-2
4.029310960E-1,-6.134033203E-2,-2.563476562E-2,1.083374023E-2
4.052504320E-1,-6.256103516E-2,-2.685546875E-2,9.613037109E-3
4.075697680E-1,-6.134033203E-2,-2.624511719E-2,9.613037109E-3
4.099196220E-1,-6.256103516E-2,-2.136230469E-2,9.002685547E-3
4.122389580E-1,-6.256103516E-2,-2.197265625E-2,8.392333984E-3
4.145582940E-1,-6.256103516E-2,-2.502441406E-2,9.613037109E-3
4.169081470E-1,-6.256103516E-2,-2.197265625E-2,1.022338867E-2
4.192274830E-1,-6.256103516E-2,-2.441406250E-2,8.392333984E-3
4.215468190E-1,-6.195068359E-2,-1.831054688E-2,7.171630859E-3
4.238966720E-1,-6.134033203E-2,-2.197265625E-2,7.781982422E-3
4.262160080E-1,-6.072998047E-2,-1.831054688E-2,5.340576172E-3
4.285353440E-1,-5.889892578E-2,-1.953125000E-2,5.340576172E-3
4.308546800E-1,-5.645751953E-2,-2.685546875E-2,4.119873047E-3
4.332045340E-1,-5.523681641E-2,-9.765625000E-3,4.730224609E-3
4.355238700E-1,-5.401611328E-2,-1.220703125E-2,2.746582031E-3
4.378432060E-1,-5.218505859E-2,-6.713867188E-3,2.288818359E-3
4.401930590E-1,-5.035400391E-2,-7.324218750E-3,2.288818359E-3
4.425123950E-1,-4.913330078E-2,-4.272460938E-3,2.288818359E-3
4.448317310E-1,-4.974365234E-2,-4.882812500E-3,2.746582031E-3
4.471815850E-1,-4.730224609E-2,-2.441406250E-3,1.068115234E-3
4.495009200E-1,-4.364013672E-2,6.103515625E-3,2.746582031E-3
4.518202560E-1,-4.364013672E-2,1.220703125E-3,1.068115234E-3
4.541701100E-1,-4.302978516E-2,1.220703125E-2,2.288818359E-3
4.564894460E-1,-3.875732422E-2,9.155273438E-3,2.288818359E-3
4.588087820E-1,-3.814697266E-2,1.281738281E-2,2.288818359E-3
4.611281180E-1,-3.814697266E-2,1.586914062E-2,2.288818359E-3
4.634779710E-1,-3.875732422E-2,1.403808594E-2,2.746582031E-3
4.657973070E-1,-3.936767578E-2,1.647949219E-2,3.509521484E-3
4.681166430E-1,-3.692626953E-2,1.708984375E-2,2.288818359E-3
4.704664970E-1,-3.875732422E-2,2.075195312E-2,2.288818359E-3
4.727858330E-1,-3.753662109E-2,1.159667969E-2,1.525878906E-3
4.751051690E-1,-3.692626953E-2,1.342773438E-2,2.288818359E-3
4.774550220E-1,-3.753662109E-2,1.342773438E-2,1.525878906E-3
4.797743580E-1,-3.631591797E-2,1.037597656E-2,1.525878906E-3
4.820936940E-1,-3.875732422E-2,4.272460938E-3,1.525878906E-3
4.844130300E-1,-3.875732422E-2,6.103515625E-3,3.051757812E-4
4.867628830E-1,-3.692626953E-2,6.103515625E-3,3.051757812E-4
4.890822190E-1,-3.814697266E-2,-6.103515625E-4,3.051757812E-4
4.914015550E-1,-3.692626953E-2,3.051757812E-3,-2.136230469E-3
4.937514090E-1,-3.936767578E-2,6.103515625E-4,-2.746582031E-3
4.960707450E-1,-3.997802734E-2,4.882812500E-3,-2.746582031E-3
4.983900810E-1,-3.997802734E-2,1.220703125E-3,-2.136230469E-3
5.007399340E-1,-4.180908203E-2,0.000000000E0,-4.577636719E-3
5.030592700E-1,-3.997802734E-2,-6.103515625E-4,-3.967285156E-3
5.053786060E-1,-4.180908203E-2,1.831054688E-3,-5.187988281E-3
5.076979420E-1,-4.119873047E-2,1.220703125E-3,-6.408691406E-3
5.100477950E-1,-3.875732422E-2,-6.713867188E-3,-8.239746094E-3
5.123671310E-1,-3.814697266E-2,-4.272460938E-3,-1.007080078E-2
5.146864670E-1,-3.875732422E-2,-6.103515625E-4,-1.190185547E-2
5.170363210E-1,-3.692626953E-2,-3.051757812E-3,-1.251220703E-2
5.193556570E-1,-3.265380859E-2,1.831054688E-3,-1.556396484E-2
5.216749930E-1,-3.082275391E-2,-4.272460938E-3,-1.739501953E-2
5.240248460E-1,-2.838134766E-2,-3.051757812E-3,-1.983642578E-2
5.263441820E-1,-2.655029297E-2,-2.441406250E-3,-2.166748047E-2
5.286635180E-1,-2.349853516E-2,-1.831054688E-3,-2.288818359E-2
5.310133720E-1,-1.983642578E-2,-2.441406250E-3,-2.471923828E-2
5.333327080E-1,-1.678466797E-2,2.441406250E-3,-2.349853516E-2
5.356520440E-1,-1.373291016E-2,-4.272460938E-3,-2.410888672E-2
5.380018970E-1,-9.460449219E-3,1.220703125E-3,-2.471923828E-2
5.403212330E-1,-7.019042969E-3,3.662109375E-3,-2.288818359E-2
5.426405690E-1,-5.798339844E-3,4.882812500E-3,-2.471923828E-2
5.449599050E-1,-3.356933594E-3,7.324218750E-3,-2.593994141E-2
5.473097580E-1,-3.356933594E-3,1.098632812E-2,-2.410888672E-2
5.496290940E-1,3.051757812E-4,6.713867188E-3,-2.410888672E-2
5.519484300E-1,2.136230469E-3,1.220703125E-2,-2.471923828E-2
5.542982840E-1,1.525878906E-3,1.953125000E-2,-2.288818359E-2
5.566176200E-1,5.187988281E-3,1.770019531E-2,-2.105712891E-2
5.589369560E-1,7.019042969E-3,2.502441406E-2,-2.044677734E-2
5.612868090E-1,8.239746094E-3,2.380371094E-2,-1.983642578E-2
5.636061450E-1,8.239746094E-3,2.990722656E-2,-1.739501953E-2
5.659254810E-1,1.068115234E-2,2.563476562E-2,-1.739501953E-2
5.682753350E-1,1.129150391E-2,3.601074219E-2,-1.556396484E-2
5.705946700E-1,1.251220703E-2,4.089355469E-2,-1.434326172E-2
5.729140060E-1,1.068115234E-2,3.845214844E-2,-1.434326172E-2
5.752333420E-1,1.434326172E-2,4.577636719E-2,-1.312255859E-2
5.775831960E-1,1.495361328E-2,4.455566406E-2,-1.190185547E-2
5.799025320E-1,1.312255859E-2,5.493164062E-2,-1.007080078E-2
5.822218680E-1,1.495361328E-2,5.447387695E-2,-8.850097656E-3
5.845717210E-1,1.312255859E-2,6.118774414E-2,-8.850097656E-3
5.868910570E-1,1.434326172E-2,6.912231445E-2,-7.019042969E-3
5.892103930E-1,1.434326172E-2,7.461547852E-2,-5.798339844E-3
5.915602470E-1,1.312255859E-2,8.255004883E-2,-6.408691406E-3
5.938795830E-1,1.434326172E-2,8.865356445E-2,-5.798339844E-3
5.961989190E-1,1.312255859E-2,9.292602539E-2,-6.408691406E-3
5.985487720E-1,1.312255859E-2,1.020812988E-1,-6.408691406E-3
6.008681080E-1,1.312255859E-2,1.069641113E-1,-5.187988281E-3
6.031874440E-1,1.251220703E-2,1.148986816E-1,-7.019042969E-3
6.055067800E-1,1.190185547E-2,1.197814941E-1,-6.408691406E-3
6.078566330E-1,1.190185547E-2,1.295471191E-1,-5.798339844E-3
6.101759690E-1,1.129150391E-2,1.283264160E-1,-6.408691406E-3
6.124953050E-1,8.239746094E-3,1.362609863E-1,-5.798339844E-3
6.148451590E-1,9.460449219E-3,1.441955566E-1,-6.408691406E-3
6.171644950E-1,8.850097656E-3,1.454162598E-1,-6.408691406E-3
6.194838310E-1,7.629394531E-3,1.509094238E-1,-5.798339844E-3
6.218336840E-1,5.798339844E-3,1.515197754E-1,-7.019042969E-3
6.241530200E-1,3.356933594E-3,1.570129395E-1,-6.408691406E-3
6.264723560E-1,3.967285156E-3,1.600646973E-1,-6.408691406E-3
6.287916920E-1,2.746582031E-3,1.582336426E-1,-6.408691406E-3
6.311415450E-1,3.967285156E-3,1.588439941E-1,-6.408691406E-3
6.334608810E-1,3.967285156E-3,1.625061035E-1,-5.798339844E-3
6.357802170E-1,2.746582031E-3,1.679992676E-1,-5.187988281E-3
6.381300710E-1,4.577636719E-3,1.649475098E-1,-3.967285156E-3
6.404799240E-1,3.967285156E-3,1.673889160E-1,-5.187988281E-3
6.427992600E-1,3.356933594E-3,1.692199707E-1,-3.356933594E-3
6.451491140E-1,5.187988281E-3,1.673889160E-1,-3.356933594E-3
6.474684500E-1,3.356933594E-3,1.686096191E-1,-1.525878906E-3
6.497877860E-1,3.967285156E-3,1.649475098E-1,-9.155273438E-4
6.521376390E-1,4.577636719E-3,1.637268066E-1,-3.051757812E-4
6.544569750E-1,5.798339844E-3,1.686096191E-1,1.068115234E-3
6.567763110E-1,5.798339844E-3,1.661682129E-1,2.288818359E-3
6.590956470E-1,5.798339844E-3,1.698303223E-1,3.509521484E-3
6.614455010E-1,4.577636719E-3,1.679992676E-1,3.509521484E-3
6.637648360E-1,5.187988281E-3,1.667785645E-1,5.950927734E-3
6.660841720E-1,5.798339844E-3,1.649475098E-1,4.730224609E-3
6.684340260E-1,7.629394531E-3,1.618957520E-1,8.392333984E-3
6.707533620E-1,7.019042969E-3,1.582336426E-1,9.002685547E-3
6.730726980E-1,7.629394531E-3,1.576232910E-1,6.561279297E-3
6.754225510E-1,7.629394531E-3,1.576232910E-1,7.171630859E-3
6.777418870E-1,9.460449219E-3,1.564025879E-1,6.561279297E-3
6.800612230E-1,1.007080078E-2,1.570129395E-1,5.950927734E-3
6.824110770E-1,9.460449219E-3,1.600646973E-1,4.730224609E-3
6.847304130E-1,1.068115234E-2,1.582336426E-1,4.119873047E-3
6.870497490E-1,1.129150391E-2,1.643371582E-1,2.288818359E-3
6.893690850E-1,1.312255859E-2,1.576232910E-1,1.068115234E-3
6.917189380E-1,1.190185547E-2,1.631164551E-1,3.051757812E-4
6.940382740E-1,1.312255859E-2,1.673889160E-1,-2.746582031E-3
6.963576100E-1,1.373291016E-2,1.710510254E-1,-5.187988281E-3
6.987074630E-1,1.495361328E-2,1.771545410E-1,-5.187988281E-3
7.010267990E-1,1.739501953E-2,1.765441895E-1,-7.019042969E-3
7.033461350E-1,1.617431641E-2,1.826477051E-1,-7.629394531E-3
7.056959890E-1,1.800537109E-2,1.826477051E-1,-7.629394531E-3
7.080153250E-1,1.800537109E-2,1.844787598E-1,-7.629394531E-3
7.103346610E-1,2.044677734E-2,1.887512207E-1,-1.007080078E-2
7.126845140E-1,2.044677734E-2,1.905822754E-1,-1.251220703E-2
7.150038500E-1,2.105712891E-2,1.899719238E-1,-1.190185547E-2
7.173231860E-1,2.044677734E-2,1.936340332E-1,-1.251220703E-2
7.196425220E-1,2.227783203E-2,1.979064941E-1,-1.373291016E-2
7.219923760E-1,2.410888672E-2,1.972961426E-1,-1.373291016E-2
7.243117110E-1,2.532958984E-2,1.997375488E-1,-1.373291016E-2
7.266310470E-1,2.593994141E-2,1.979064941E-1,-1.312255859E-2
7.289809010E-1,2.960205078E-2,2.003479004E-1,-1.312255859E-2
7.313002370E-1,3.082275391E-2,1.979064941E-1,-1.373291016E-2
7.336195730E-1,2.960205078E-2,2.052307129E-1,-1.251220703E-2
7.359694260E-1,3.082275391E-2,2.040100098E-1,-1.434326172E-2
7.382887620E-1,3.021240234E-2,2.052307129E-1,-1.373291016E-2
7.406080980E-1,3.143310547E-2,2.095031738E-1,-1.312255859E-2
7.429579520E-1,3.082275391E-2,2.082824707E-1,-1.373291016E-2
7.452772880E-1,3.082275391E-2,2.125549316E-1,-1.495361328E-2
7.475966240E-1,3.143310547E-2,2.125549316E-1,-1.556396484E-2
7.499159600E-1,3.204345703E-2,2.088928223E-1,-1.617431641E-2
7.522658130E-1,2.838134766E-2,2.131652832E-1,-1.800537109E-2
7.545851490E-1,2.838134766E-2,2.125549316E-1,-1.800537109E-2
7.569044850E-1,2.960205078E-2,2.162170410E-1,-1.739501953E-2
7.592543380E-1,2.960205078E-2,2.168273926E-1,-1.739501953E-2
7.615736740E-1,2.777099609E-2,2.113342285E-1,-1.861572266E-2
7.638930100E-1,2.655029297E-2,2.113342285E-1,-1.922607422E-2
7.662428640E-1,2.655029297E-2,2.070617676E-1,-1.983642578E-2
7.685622000E-1,2.655029297E-2,2.088928223E-1,-2.166748047E-2
7.708815360E-1,2.410888672E-2,2.180480957E-1,-2.044677734E-2
7.732008720E-1,2.716064453E-2,2.052307129E-1,-2.227783203E-2
7.755507250E-1,2.655029297E-2,2.125549316E-1,-2.410888672E-2
7.778700610E-1,2.593994141E-2,2.113342285E-1,-2.532958984E-2
7.801893970E-1,2.655029297E-2,2.125549316E-1,-2.593994141E-2
7.825392510E-1,2.471923828E-2,2.113342285E-1,-2.593994141E-2
7.848585860E-1,2.532958984E-2,2.101135254E-1,-2.593994141E-2
7.871779220E-1,2.655029297E-2,2.119445801E-1,-2.655029297E-2
7.894972580E-1,2.777099609E-2,2.101135254E-1,-2.716064453E-2
7.918471120E-1,2.838134766E-2,2.101135254E-1,-2.655029297E-2
7.941664480E-1,2.838134766E-2,2.082824707E-1,-2.716064453E-2
7.965163010E-1,3.021240234E-2,2.088928223E-1,-2.838134766E-2
7.988356370E-1,3.082275391E-2,2.052307129E-1,-2.655029297E-2
8.011549730E-1,3.143310547E-2,2.033996582E-1,-2.655029297E-2
8.034743090E-1,3.265380859E-2,2.003479004E-1,-2.471923828E-2
8.058241630E-1,3.448486328E-2,1.997375488E-1,-2.532958984E-2
8.081434990E-1,3.753662109E-2,1.979064941E-1,-2.532958984E-2
8.104628350E-1,3.936767578E-2,1.918029785E-1,-2.471923828E-2
8.128126880E-1,3.997802734E-2,1.918029785E-1,-2.349853516E-2
8.151320240E-1,4.241943359E-2,1.918029785E-1,-2.288818359E-2
8.174513600E-1,4.486083984E-2,1.869201660E-1,-2.288818359E-2
8.198012130E-1,4.608154297E-2,1.881408691E-1,-2.349853516E-2
8.221205490E-1,4.913330078E-2,1.869201660E-1,-2.349853516E-2
8.244398850E-1,4.974365234E-2,1.869201660E-1,-2.166748047E-2
8.267897390E-1,5.218505859E-2,1.856994629E-1,-2.044677734E-2
8.291090750E-1,5.279541016E-2,1.795959473E-1,-1.922607422E-2
8.314284110E-1,5.584716797E-2,1.814270020E-1,-1.983642578E-2
8.337477470E-1,5.645751953E-2,1.789855957E-1,-2.105712891E-2
8.360976000E-1,5.828857422E-2,1.820373535E-1,-2.044677734E-2
8.384169360E-1,6.195068359E-2,1.814270020E-1,-1.983642578E-2
8.407362720E-1,6.256103516E-2,1.856994629E-1,-1.983642578E-2
8.430861260E-1,6.439208984E-2,1.826477051E-1,-2.105712891E-2
8.454054610E-1,6.439208984E-2,1.826477051E-1,-2.044677734E-2
8.477247970E-1,6.500244141E-2,1.832580566E-1,-1.861572266E-2
8.500441330E-1,6.744384766E-2,1.783752441E-1,-1.983642578E-2
8.523939870E-1,6.744384766E-2,1.826477051E-1,-1.983642578E-2
8.547133230E-1,6.805419922E-2,1.869201660E-1,-1.861572266E-2
8.570631760E-1,6.866455078E-2,1.856994629E-1,-1.800537109E-2
8.593825120E-1,6.805419922E-2,1.893615723E-1,-1.922607422E-2
8.617018480E-1,6.744384766E-2,1.869201660E-1,-1.861572266E-2
8.640211840E-1,6.683349609E-2,1.905822754E-1,-1.800537109E-2
8.663710380E-1,6.500244141E-2,1.881408691E-1,-1.922607422E-2
8.686903740E-1,6.500244141E-2,1.918029785E-1,-1.861572266E-2
8.710097100E-1,6.500244141E-2,1.850891113E-1,-1.922607422E-2
8.733595630E-1,6.317138672E-2,1.899719238E-1,-1.800537109E-2
8.756788990E-1,6.500244141E-2,1.863098145E-1,-1.739501953E-2
8.779982350E-1,5.950927734E-2,1.881408691E-1,-1.739501953E-2
8.803480880E-1,5.950927734E-2,1.850891113E-1,-1.800537109E-2
8.826674240E-1,5.828857422E-2,1.820373535E-1,-1.800537109E-2
8.849867600E-1,5.584716797E-2,1.808166504E-1,-1.556396484E-2
8.873366140E-1,5.401611328E-2,1.802062988E-1,-1.556396484E-2
8.896559500E-1,5.523681641E-2,1.728820801E-1,-1.434326172E-2
8.919752860E-1,5.401611328E-2,1.667785645E-1,-1.312255859E-2
8.942946220E-1,5.218505859E-2,1.679992676E-1,-1.251220703E-2
8.966444750E-1,4.974365234E-2,1.582336426E-1,-1.068115234E-2
8.989638110E-1,4.974365234E-2,1.564025879E-1,-1.068115234E-2
9.012831470E-1,4.974365234E-2,1.490783691E-1,-7.629394531E-3
9.036330010E-1,4.791259766E-2,1.484680176E-1,-6.408691406E-3
9.059523360E-1,4.791259766E-2,1.405334473E-1,-4.577636719E-3
9.082716720E-1,4.730224609E-2,1.362609863E-1,-3.967285156E-3
9.106215260E-1,4.486083984E-2,1.387023926E-1,-1.525878906E-3
9.129408620E-1,4.669189453E-2,1.246643066E-1,3.051757812E-4
9.152601980E-1,4.669189453E-2,1.222229004E-1,1.068115234E-3
9.176100510E-1,4.608154297E-2,1.161193848E-1,1.068115234E-3
9.199293870E-1,4.547119141E-2,1.173400879E-1,2.288818359E-3
9.222487230E-1,4.547119141E-2,1.094055176E-1,2.288818359E-3
9.245985770E-1,4.486083984E-2,1.100158691E-1,4.119873047E-3
9.269484300E-1,4.425048828E-2,1.063537598E-1,2.746582031E-3
9.292677660E-1,4.608154297E-2,9.841918945E-2,2.746582031E-3
9.315871020E-1,4.486083984E-2,9.475708008E-2,2.288818359E-3
9.339369560E-1,4.119873047E-2,9.658813477E-2,2.746582031E-3
9.362562920E-1,4.364013672E-2,9.658813477E-2,4.730224609E-3
9.385756280E-1,4.364013672E-2,9.353637695E-2,3.509521484E-3
9.409254810E-1,4.302978516E-2,9.292602539E-2,4.119873047E-3
9.432448170E-1,4.180908203E-2,9.170532227E-2,2.288818359E-3
9.455641530E-1,4.119873047E-2,9.048461914E-2,1.068115234E-3
9.478834890E-1,4.241943359E-2,8.804321289E-2,3.051757812E-4
9.502333420E-1,4.241943359E-2,8.560180664E-2,3.051757812E-4
9.525526780E-1,4.180908203E-2,8.316040039E-2,1.068115234E-3
9.548720140E-1,4.241943359E-2,7.949829102E-2,-9.155273438E-4
9.572218680E-1,4.364013672E-2,8.071899414E-2,-9.155273438E-4
9.595412040E-1,4.486083984E-2,7.644653320E-2,-1.525878906E-3
9.618605400E-1,4.669189453E-2,7.339477539E-2,-2.136230469E-3
9.642103930E-1,4.669189453E-2,7.400512695E-2,-3.356933594E-3
9.665297290E-1,4.852294922E-2,6.973266602E-2,-2.746582031E-3
9.688490650E-1,4.974365234E-2,7.095336914E-2,-3.967285156E-3
9.711989190E-1,4.974365234E-2,7.522583008E-2,-4.577636719E-3
9.735182540E-1,5.340576172E-2,6.240844727E-2,-5.798339844E-3
9.758375900E-1,5.462646484E-2,6.729125977E-2,-5.187988281E-3
9.781569260E-1,5.706787109E-2,6.546020508E-2,-7.019042969E-3
9.805067800E-1,5.645751953E-2,6.301879883E-2,-7.629394531E-3
9.828261160E-1,6.011962891E-2,6.546020508E-2,-8.239746094E-3
9.851454520E-1,6.317138672E-2,6.057739258E-2,-8.850097656E-3
9.874953050E-1,6.500244141E-2,6.240844727E-2,-9.460449219E-3
9.898146410E-1,6.561279297E-2,6.851196289E-2,-1.068115234E-2
9.921339770E-1,6.805419922E-2,6.607055664E-2,-1.007080078E-2
9.944838310E-1,6.927490234E-2,6.423950195E-2,-1.129150391E-2
9.968031670E-1,7.049560547E-2,6.301879883E-2,-1.190185547E-2
9.991225030E-1,7.232666016E-2,6.423950195E-2,-1.251220703E-2
1.001472356E0,7.476806641E-2,6.301879883E-2,-1.235961914E-2
1.003791692E0,7.781982422E-2,6.668090820E-2,-1.358032227E-2
1.006111028E0,8.026123047E-2,6.362915039E-2,-1.541137695E-2
1.008430364E0,7.965087891E-2,6.423950195E-2,-1.602172852E-2
1.010780217E0,8.209228516E-2,6.607055664E-2,-1.724243164E-2
1.013099553E0,8.331298828E-2,6.790161133E-2,-2.029418945E-2
1.015418889E0,8.697509766E-2,6.301879883E-2,-1.968383789E-2
1.017768743E0,8.956909180E-2,6.607055664E-2,-2.090454102E-2
1.020088079E0,8.956909180E-2,6.668090820E-2,-2.334594727E-2
1.022407415E0,9.140014648E-2,5.996704102E-2,-2.517700195E-2
1.024757268E0,8.956909180E-2,6.484985352E-2,-2.517700195E-2
1.027076604E0,9.384155273E-2,6.057739258E-2,-2.716064453E-2
1.029395940E0,9.384155273E-2,6.362915039E-2,-2.716064453E-2
1.031745794E0,9.506225586E-2,5.874633789E-2,-2.838134766E-2
1.034065129E0,9.811401367E-2,5.935668945E-2,-3.082275391E-2
1.036384465E0,9.933471680E-2,5.691528320E-2,-3.265380859E-2
1.038703801E0,1.011657715E-1,5.691528320E-2,-3.387451172E-2
1.041053655E0,1.017761230E-1,6.240844727E-2,-3.509521484E-2
1.043372991E0,1.048278809E-1,6.057739258E-2,-3.814697266E-2
1.045692327E0,1.072692871E-1,6.423950195E-2,-3.997802734E-2
1.048042180E0,1.084899902E-1,6.423950195E-2,-4.241943359E-2
1.050361516E0,1.121520996E-1,6.607055664E-2,-4.608154297E-2
1.052680852E0,1.121520996E-1,6.484985352E-2,-4.852294922E-2
1.055030706E0,1.127624512E-1,7.705688477E-2,-4.852294922E-2
1.057350042E0,1.145935059E-1,7.827758789E-2,-5.096435547E-2
1.059669378E0,1.164245605E-1,8.255004883E-2,-5.035400391E-2
1.062019231E0,1.188659668E-1,8.682250977E-2,-5.279541016E-2
1.064338567E0,1.219177246E-1,9.109497070E-2,-5.340576172E-2
1.066657903E0,1.237487793E-1,9.414672852E-2,-5.401611328E-2
1.068977239E0,1.249694824E-1,9.475708008E-2,-5.340576172E-2
1.071327092E0,1.261901855E-1,9.231567383E-2,-5.645751953E-2
1.073646428E0,1.280212402E-1,1.106262207E-1,-5.828857422E-2
1.075965764E0,1.292419434E-1,1.130676270E-1,-5.706787109E-2
1.078315618E0,1.292419434E-1,1.222229004E-1,-5.889892578E-2
1.080634954E0,1.329040527E-1,1.246643066E-1,-5.889892578E-2
1.082954290E0,1.347351074E-1,1.301574707E-1,-5.950927734E-2
1.085304143E0,1.359558105E-1,1.325988770E-1,-5.889892578E-2
1.087623479E0,1.377868652E-1,1.362609863E-1,-5.950927734E-2
1.089942815E0,1.377868652E-1,1.448059082E-1,-5.889892578E-2
1.092292669E0,1.396179199E-1,1.515197754E-1,-6.011962891E-2
1.094612004E0,1.414489746E-1,1.515197754E-1,-6.011962891E-2
1.096931340E0,1.408386230E-1,1.600646973E-1,-6.011962891E-2
1.099250676E0,1.408386230E-1,1.600646973E-1,-6.011962891E-2
1.101600530E0,1.426696777E-1,1.643371582E-1,-5.828857422E-2
1.103919866E0,1.432800293E-1,1.649475098E-1,-5.767822266E-2
1.106239202E0,1.420593262E-1,1.679992676E-1,-5.706787109E-2
1.108589055E0,1.432800293E-1,1.722717285E-1,-5.645751953E-2
1.110908391E0,1.438903809E-1,1.808166504E-1,-5.523681641E-2
1.113227727E0,1.445007324E-1,1.783752441E-1,-5.340576172E-2
1.115577581E0,1.445007324E-1,1.844787598E-1,-5.096435547E-2
1.117896917E0,1.457214355E-1,1.838684082E-1,-4.913330078E-2
1.120216253E0,1.432800293E-1,1.875305176E-1,-4.669189453E-2
1.122535588E0,1.445007324E-1,1.905822754E-1,-4.364013672E-2
1.124885442E0,1.432800293E-1,1.924133301E-1,-4.241943359E-2
1.127204778E0,1.408386230E-1,1.960754395E-1,-3.875732422E-2
1.129524114E0,1.426696777E-1,1.887512207E-1,-3.692626953E-2
1.131873967E0,1.420593262E-1,1.942443848E-1,-3.326416016E-2
1.134193303E0,1.408386230E-1,1.942443848E-1,-3.082275391E-2
1.136512639E0,1.390075684E-1,1.997375488E-1,-2.838134766E-2
1.138862493E0,1.414489746E-1,1.966857910E-1,-2.456665039E-2
1.141181829E0,1.396179199E-1,1.960754395E-1,-2.029418945E-2
1.143501165E0,1.377868652E-1,1.972961426E-1,-1.968383789E-2
1.145851018E0,1.353454590E-1,1.960754395E-1,-1.541137695E-2
1.148170354E0,1.329040527E-1,1.918029785E-1,-1.174926758E-2
1.150489690E0,1.286315918E-1,1.942443848E-1,-9.918212891E-3
1.152809026E0,1.286315918E-1,1.869201660E-1,-8.697509766E-3
1.155158879E0,1.255798340E-1,1.795959473E-1,-5.645751953E-3
1.157478215E0,1.237487793E-1,1.826477051E-1,-1.983642578E-3
1.159797551E0,1.206970215E-1,1.789855957E-1,-1.525878906E-4
1.162147405E0,1.182556152E-1,1.777648926E-1,1.678466797E-3
1.164466741E0,1.133728027E-1,1.747131348E-1,2.899169922E-3
1.166786077E0,1.109313965E-1,1.698303223E-1,4.119873047E-3
1.169135930E0,1.084899902E-1,1.667785645E-1,6.561279297E-3
1.171455266E0,1.029968262E-1,1.588439941E-1,7.171630859E-3
1.173774602E0,1.023864746E-1,1.576232910E-1,9.002685547E-3
1.176124456E0,9.628295898E-2,1.490783691E-1,1.083374023E-2
1.178443792E0,9.201049805E-2,1.496887207E-1,1.327514648E-2
1.180763128E0,8.773803711E-2,1.441955566E-1,1.205444336E-2
1.183082463E0,8.529663086E-2,1.411437988E-1,1.266479492E-2
1.185432317E0,7.904052734E-2,1.380920410E-1,1.205444336E-2
1.187751653E0,7.720947266E-2,1.283264160E-1,1.449584961E-2
1.190070989E0,7.232666016E-2,1.191711426E-1,1.388549805E-2
1.192420842E0,6.744384766E-2,1.130676270E-1,1.632690430E-2
1.194740178E0,6.317138672E-2,1.112365723E-1,1.815795898E-2
1.197059514E0,6.378173828E-2,1.075744629E-1,1.876831055E-2
1.199409368E0,5.767822266E-2,1.081848145E-1,1.998901367E-2
1.201728704E0,5.462646484E-2,1.026916504E-1,2.059936523E-2
1.204048040E0,5.096435547E-2,9.780883789E-2,2.182006836E-2
1.206397893E0,4.791259766E-2,9.414672852E-2,1.937866211E-2
1.208717229E0,4.547119141E-2,8.621215820E-2,1.998901367E-2
1.211067083E0,4.180908203E-2,9.292602539E-2,2.059936523E-2
1.213386419E0,3.997802734E-2,7.766723633E-2,2.182006836E-2
1.215736272E0,3.814697266E-2,7.461547852E-2,1.998901367E-2
1.218055608E0,3.631591797E-2,6.423950195E-2,2.059936523E-2
1.220374944E0,3.570556641E-2,6.057739258E-2,2.059936523E-2
1.222724797E0,3.570556641E-2,5.493164062E-2,2.243041992E-2
1.225044133E0,3.326416016E-2,5.065917969E-2,2.304077148E-2
1.227363469E0,3.204345703E-2,4.394531250E-2,2.182006836E-2
1.229682805E0,3.204345703E-2,3.967285156E-2,2.243041992E-2
1.232032659E0,3.204345703E-2,3.112792969E-2,2.243041992E-2
1.234351995E0,2.960205078E-2,2.807617188E-2,2.426147461E-2
1.236671331E0,2.960205078E-2,2.136230469E-2,2.426147461E-2
1.239021184E0,2.777099609E-2,1.220703125E-2,2.426147461E-2
1.241340520E0,2.838134766E-2,8.544921875E-3,2.548217773E-2
1.243659856E0,2.593994141E-2,2.441406250E-3,2.487182617E-2
1.246009710E0,2.655029297E-2,-3.662109375E-3,2.548217773E-2
1.248329045E0,2.777099609E-2,-9.155273438E-3,2.487182617E-2
1.250648381E0,2.838134766E-2,-1.037597656E-2,2.731323242E-2
1.252998235E0,2.899169922E-2,-1.892089844E-2,2.548217773E-2
1.255317571E0,2.899169922E-2,-2.563476562E-2,2.609252930E-2
1.257636907E0,3.143310547E-2,-2.807617188E-2,2.487182617E-2
1.259986760E0,3.326416016E-2,-3.356933594E-2,2.670288086E-2
1.262306096E0,3.448486328E-2,-3.845214844E-2,2.609252930E-2
1.264625432E0,3.692626953E-2,-4.150390625E-2,2.426147461E-2
1.266944768E0,3.448486328E-2,-4.882812500E-2,2.426147461E-2
1.269294622E0,3.936767578E-2,-5.249023438E-2,2.365112305E-2
1.271613958E0,4.058837891E-2,-6.103515625E-2,2.487182617E-2
1.273933294E0,4.119873047E-2,-5.920410156E-2,2.120971680E-2
1.276283147E0,4.364013672E-2,-6.469726562E-2,2.120971680E-2
1.278602483E0,4.302978516E-2,-7.202148438E-2,1.998901367E-2
1.280921819E0,4.608154297E-2,-7.507324219E-2,1.876831055E-2
1.283271672E0,4.852294922E-2,-8.300781250E-2,1.815795898E-2
1.285591008E0,4.974365234E-2,-8.422851562E-2,1.754760742E-2
1.287910344E0,5.157470703E-2,-8.972167969E-2,1.571655273E-2
1.290229680E0,5.218505859E-2,-9.826660156E-2,1.449584961E-2
1.292579534E0,5.340576172E-2,-9.765625000E-2,1.266479492E-2
1.294898870E0,5.523681641E-2,-1.037597656E-1,1.205444336E-2
1.297218206E0,5.523681641E-2,-1.049804688E-1,1.205444336E-2
1.299568059E0,5.401611328E-2,-1.092529297E-1,1.022338867E-2
1.301887395E0,5.523681641E-2,-1.173400879E-1,9.613037109E-3
1.304206731E0,5.462646484E-2,-1.177978516E-1,8.392333984E-3
1.306556585E0,5.462646484E-2,-1.283264160E-1,7.781982422E-3
1.308875920E0,5.401611328E-2,-1.307678223E-1,7.171630859E-3
1.311195256E0,5.218505859E-2,-1.423645020E-1,5.950927734E-3
1.313545110E0,5.096435547E-2,-1.387023926E-1,7.781982422E-3
1.315864446E0,5.096435547E-2,-1.417541504E-1,6.561279297E-3
1.318183782E0,4.730224609E-2,-1.405334473E-1,5.950927734E-3
1.320533635E0,4.791259766E-2,-1.460266113E-1,6.561279297E-3
1.322852971E0,4.669189453E-2,-1.460266113E-1,7.171630859E-3
1.325172307E0,4.364013672E-2,-1.496887207E-1,7.171630859E-3
1.327491643E0,4.486083984E-2,-1.496887207E-1,6.561279297E-3
1.329841497E0,4.302978516E-2,-1.551818848E-1,7.171630859E-3
1.332160833E0,4.302978516E-2,-1.582336426E-1,6.561279297E-3
1.334480169E0,4.241943359E-2,-1.545715332E-1,7.171630859E-3
1.336830022E0,3.997802734E-2,-1.545715332E-1,9.002685547E-3
1.339149358E0,3.997802734E-2,-1.533508301E-1,9.002685547E-3
1.341468694E0,3.814697266E-2,-1.564025879E-1,8.392333984E-3
1.343818547E0,3.448486328E-2,-1.527404785E-1,9.002685547E-3
1.346137883E0,3.387451172E-2,-1.521301270E-1,1.022338867E-2
1.348457219E0,3.204345703E-2,-1.527404785E-1,1.022338867E-2
1.350776555E0,3.082275391E-2,-1.539611816E-1,9.002685547E-3
1.353126409E0,2.899169922E-2,-1.521301270E-1,1.083374023E-2
1.355445745E0,2.838134766E-2,-1.551818848E-1,1.266479492E-2
1.357765081E0,2.532958984E-2,-1.545715332E-1,1.266479492E-2
1.360114934E0,2.410888672E-2,-1.527404785E-1,1.266479492E-2
1.362434270E0,2.288818359E-2,-1.539611816E-1,1.266479492E-2
1.364753606E0,1.922607422E-2,-1.521301270E-1,1.510620117E-2
1.367103460E0,1.739501953E-2,-1.533508301E-1,1.571655273E-2
1.369422795E0,1.678466797E-2,-1.521301270E-1,1.632690430E-2
1.371742131E0,1.556396484E-2,-1.600646973E-1,1.571655273E-2
1.374091985E0,1.373291016E-2,-1.502990723E-1,1.754760742E-2
1.376411321E0,1.251220703E-2,-1.527404785E-1,1.693725586E-2
1.378730657E0,8.850097656E-3,-1.502990723E-1,1.876831055E-2
1.381080510E0,8.239746094E-3,-1.496887207E-1,1.815795898E-2
1.383399846E0,8.239746094E-3,-1.496887207E-1,1.876831055E-2
1.385719182E0,8.239746094E-3,-1.490783691E-1,1.815795898E-2
1.388038518E0,7.629394531E-3,-1.466369629E-1,1.876831055E-2
1.390388372E0,3.967285156E-3,-1.551818848E-1,1.998901367E-2
1.392707708E0,3.356933594E-3,-1.496887207E-1,2.182006836E-2
1.395027044E0,9.155273438E-4,-1.454162598E-1,2.243041992E-2
1.397376897E0,3.051757812E-4,-1.441955566E-1,2.243041992E-2
1.399696233E0,-9.155273438E-4,-1.417541504E-1,2.304077148E-2
1.402015569E0,3.051757812E-4,-1.441955566E-1,2.304077148E-2
1.404365422E0,-3.051757812E-4,-1.411437988E-1,2.426147461E-2
1.406684758E0,-2.136230469E-3,-1.423645020E-1,2.609252930E-2
1.409004094E0,-2.136230469E-3,-1.380920410E-1,2.609252930E-2
1.411353948E0,-2.746582031E-3,-1.307678223E-1,2.792358398E-2
1.413673284E0,-2.136230469E-3,-1.411437988E-1,2.914428711E-2
1.415992620E0,-3.356933594E-3,-1.307678223E-1,2.914428711E-2
1.418311956E0,-1.525878906E-3,-1.325988770E-1,2.975463867E-2
1.420661809E0,3.051757812E-4,-1.289367676E-1,3.158569336E-2
1.422981145E0,-3.051757812E-4,-1.325988770E-1,3.097534180E-2
1.425300481E0,1.525878906E-3,-1.283264160E-1,3.219604492E-2
1.427650335E0,1.525878906E-3,-1.271057129E-1,3.219604492E-2
1.429969670E0,-3.051757812E-4,-1.307678223E-1,3.219604492E-2
1.432289006E0,9.155273438E-4,-1.258850098E-1,3.219604492E-2
1.434638860E0,9.155273438E-4,-1.240539551E-1,3.219604492E-2
1.436958196E0,2.746582031E-3,-1.190185547E-1,3.158569336E-2
1.439277532E0,3.356933594E-3,-1.234436035E-1,3.158569336E-2
1.441596868E0,4.577636719E-3,-1.210021973E-1,3.158569336E-2
1.443946721E0,6.408691406E-3,-1.210021973E-1,3.219604492E-2
1.446266057E0,7.629394531E-3,-1.222229004E-1,2.975463867E-2
1.448585393E0,9.460449219E-3,-1.190185547E-1,3.036499023E-2
1.450935247E0,1.190185547E-2,-1.202392578E-1,2.731323242E-2
1.453254583E0,1.373291016E-2,-1.197814941E-1,2.670288086E-2
1.455573919E0,1.678466797E-2,-1.190185547E-1,2.731323242E-2
1.457923772E0,1.800537109E-2,-1.165771484E-1,2.609252930E-2
1.460243108E0,1.739501953E-2,-1.148986816E-1,2.365112305E-2
1.462562444E0,2.044677734E-2,-1.197814941E-1,2.426147461E-2
1.464912297E0,2.227783203E-2,-1.153564453E-1,2.365112305E-2
1.467231633E0,2.288818359E-2,-1.190185547E-1,2.243041992E-2
1.469550969E0,2.716064453E-2,-1.148986816E-1,2.059936523E-2
1.471870305E0,2.838134766E-2,-1.092529297E-1,1.815795898E-2
1.474220159E0,2.960205078E-2,-1.129150391E-1,1.632690430E-2
1.476539495E0,3.021240234E-2,-1.173400879E-1,1.327514648E-2
1.478858831E0,3.143310547E-2,-1.116943359E-1,1.266479492E-2
1.481208684E0,3.387451172E-2,-1.153564453E-1,1.083374023E-2
1.483528020E0,3.326416016E-2,-1.129150391E-1,8.392333984E-3
1.485847356E0,3.326416016E-2,-1.148986816E-1,6.561279297E-3
1.488197210E0,3.204345703E-2,-1.092529297E-1,3.509521484E-3
1.490516545E0,3.509521484E-2,-1.173400879E-1,1.678466797E-3
1.492835881E0,3.265380859E-2,-1.129150391E-1,4.577636719E-4
1.495185735E0,3.448486328E-2,-1.141357422E-1,-1.373291016E-3
1.497535588E0,3.387451172E-2,-1.185607910E-1,-4.577636719E-3
1.499854924E0,3.326416016E-2,-1.177978516E-1,-5.645751953E-3
1.502174260E0,3.082275391E-2,-1.214599609E-1,-7.629394531E-3
1.504524114E0,3.021240234E-2,-1.173400879E-1,-9.307861328E-3
1.506843450E0,2.960205078E-2,-1.222229004E-1,-8.087158203E-3
1.509162786E0,2.838134766E-2,-1.202392578E-1,-8.087158203E-3
1.511512639E0,2.593994141E-2,-1.277160645E-1,-1.052856445E-2
1.513831975E0,2.838134766E-2,-1.197814941E-1,-8.850097656E-3
1.516151311E0,2.899169922E-2,-1.246643066E-1,-7.629394531E-3
1.518501165E0,2.899169922E-2,-1.246643066E-1,-6.866455078E-3
1.520820501E0,2.838134766E-2,-1.301574707E-1,-7.629394531E-3
1.523139836E0,2.532958984E-2,-1.289367676E-1,-5.645751953E-3
1.525459172E0,2.349853516E-2,-1.283264160E-1,-3.814697266E-3
1.527809026E0,2.166748047E-2,-1.252746582E-1,-3.814697266E-3
1.530128362E0,2.044677734E-2,-1.252746582E-1,-3.356933594E-3
1.532447698E0,1.800537109E-2,-1.222229004E-1,-3.356933594E-3
1.534797551E0,1.800537109E-2,-1.202392578E-1,-1.525878906E-4
1.537116887E0,1.495361328E-2,-1.246643066E-1,1.678466797E-3
1.539436223E0,1.556396484E-2,-1.214599609E-1,1.068115234E-3
1.541786077E0,1.495361328E-2,-1.190185547E-1,2.899169922E-3
1.544105413E0,1.251220703E-2,-1.190185547E-1,4.730224609E-3
1.546424749E0,1.312255859E-2,-1.197814941E-1,6.561279297E-3
1.548744085E0,1.251220703E-2,-1.214599609E-1,7.781982422E-3
1.551093938E0,1.312255859E-2,-1.197814941E-1,9.613037109E-3
1.553413274E0,1.373291016E-2,-1.210021973E-1,9.002685547E-3
1.555732610E0,1.495361328E-2,-1.252746582E-1,8.392333984E-3
1.558082463E0,1.312255859E-2,-1.240539551E-1,9.002685547E-3
1.560401799E0,1.312255859E-2,-1.258850098E-1,9.002685547E-3
1.562721135E0,1.312255859E-2,-1.264953613E-1,1.022338867E-2
1.565070989E0,1.190185547E-2,-1.252746582E-1,9.002685547E-3
1.567390325E0,1.251220703E-2,-1.252746582E-1,8.392333984E-3
1.569709661E0,1.434326172E-2,-1.258850098E-1,5.950927734E-3
1.572059514E0,1.312255859E-2,-1.289367676E-1,4.119873047E-3
1.574378850E0,1.617431641E-2,-1.197814941E-1,3.509521484E-3
1.576698186E0,1.556396484E-2,-1.153564453E-1,2.899169922E-3
1.579048040E0,1.556396484E-2,-1.148986816E-1,2.288818359E-3
1.581367376E0,1.495361328E-2,-1.068115234E-1,4.577636719E-4
1.583686711E0,1.617431641E-2,-1.049804688E-1,4.577636719E-4
1.586006047E0,1.739501953E-2,-9.948730469E-2,-9.155273438E-4
1.588355901E0,1.556396484E-2,-9.826660156E-2,-2.593994141E-3
1.590675237E0,1.861572266E-2,-9.826660156E-2,-4.577636719E-3
1.592994573E0,1.983642578E-2,-8.972167969E-2,-4.577636719E-3
1.595344426E0,1.983642578E-2,-8.300781250E-2,-5.035400391E-3
1.597663762E0,2.349853516E-2,-7.995605469E-2,-7.629394531E-3
1.599983098E0,2.471923828E-2,-7.568359375E-2,-8.087158203E-3
1.602332952E0,2.532958984E-2,-6.469726562E-2,-9.307861328E-3
1.604652288E0,2.899169922E-2,-6.591796875E-2,-1.129150391E-2
1.606971624E0,3.021240234E-2,-5.371093750E-2,-1.251220703E-2
1.609321477E0,3.326416016E-2,-5.249023438E-2,-1.434326172E-2
1.611640813E0,3.631591797E-2,-4.455566406E-2,-1.373291016E-2
1.613960149E0,4.058837891E-2,-4.760742188E-2,-1.556396484E-2
1.616279485E0,4.241943359E-2,-3.967285156E-2,-1.617431641E-2
1.618629338E0,4.547119141E-2,-3.356933594E-2,-1.739501953E-2
1.620948674E0,4.913330078E-2,-3.234863281E-2,-1.922607422E-2
1.623268010E0,5.157470703E-2,-2.807617188E-2,-1.983642578E-2
1.625617864E0,5.462646484E-2,-2.685546875E-2,-2.105712891E-2
1.627937200E0,5.645751953E-2,-2.380371094E-2,-2.044677734E-2
1.630256536E0,6.072998047E-2,-2.685546875E-2,-2.105712891E-2
1.632606389E0,6.378173828E-2,-1.831054688E-2,-2.044677734E-2
1.634925725E0,6.256103516E-2,-1.525878906E-2,-2.044677734E-2
1.637245061E0,6.500244141E-2,-1.403808594E-2,-2.044677734E-2
1.639594915E0,6.744384766E-2,-8.544921875E-3,-1.922607422E-2
1.641914251E0,6.805419922E-2,-1.098632812E-2,-1.861572266E-2
1.644233586E0,6.683349609E-2,-4.882812500E-3,-1.678466797E-2
1.646552922E0,6.927490234E-2,-8.544921875E-3,-1.739501953E-2
1.648902776E0,6.927490234E-2,-4.882812500E-3,-1.556396484E-2
1.651222112E0,7.232666016E-2,-7.934570312E-3,-1.434326172E-2
1.653541448E0,7.232666016E-2,-7.934570312E-3,-1.495361328E-2
1.655891301E0,7.354736328E-2,0.000000000E0,-1.373291016E-2
1.658210637E0,7.232666016E-2,-4.882812500E-3,-1.296997070E-2
1.660529973E0,7.293701172E-2,-6.103515625E-4,-1.251220703E-2
1.662879827E0,7.476806641E-2,-2.441406250E-3,-1.129150391E-2
1.665199163E0,7.232666016E-2,-1.831054688E-3,-1.251220703E-2
1.667518499E0,7.293701172E-2,2.441406250E-3,-1.129150391E-2
1.669837835E0,7.232666016E-2,6.103515625E-4,-1.129150391E-2
1.672187688E0,7.293701172E-2,-1.831054688E-3,-1.174926758E-2
1.674507024E0,6.988525391E-2,-6.103515625E-4,-1.052856445E-2
1.676826360E0,6.988525391E-2,-6.103515625E-4,-9.307861328E-3
1.679176213E0,6.805419922E-2,1.220703125E-3,-8.087158203E-3
1.681495549E0,6.744384766E-2,4.272460938E-3,-5.645751953E-3
1.683814885E0,6.622314453E-2,1.831054688E-3,-4.577636719E-3
1.686164739E0,6.378173828E-2,5.493164062E-3,-4.577636719E-3
1.688484075E0,6.256103516E-2,1.220703125E-3,-2.136230469E-3
1.690803411E0,5.889892578E-2,-6.103515625E-4,-1.373291016E-3
1.693153264E0,5.462646484E-2,-1.220703125E-3,1.068115234E-3
1.695472600E0,4.852294922E-2,4.882812500E-3,2.288818359E-3
1.697791936E0,4.547119141E-2,4.272460938E-3,3.509521484E-3
1.700141790E0,4.058837891E-2,7.934570312E-3,4.119873047E-3
1.702461126E0,3.631591797E-2,6.103515625E-3,4.119873047E-3
1.704780461E0,3.082275391E-2,2.441406250E-3,6.561279297E-3
1.707099797E0,2.471923828E-2,1.831054688E-3,1.083374023E-2
1.709449651E0,1.861572266E-2,2.441406250E-3,1.144409180E-2
1.711768987E0,1.556396484E-2,1.281738281E-2,9.613037109E-3
1.714088323E0,1.495361328E-2,2.441406250E-3,1.022338867E-2
1.716438176E0,1.251220703E-2,9.155273438E-3,1.388549805E-2
1.718757512E0,1.007080078E-2,4.272460938E-3,1.449584961E-2
1.721076848E0,4.577636719E-3,1.159667969E-2,1.510620117E-2
1.723426702E0,2.746582031E-3,1.525878906E-2,1.693725586E-2
1.725746038E0,3.356933594E-3,1.220703125E-2,1.754760742E-2
1.728065374E0,2.746582031E-3,1.586914062E-2,2.059936523E-2
1.730384710E0,1.525878906E-3,1.953125000E-2,2.365112305E-2
1.732734563E0,9.155273438E-4,2.014160156E-2,2.548217773E-2
1.735053899E0,2.746582031E-3,2.136230469E-2,2.853393555E-2
1.737373235E0,5.798339844E-3,2.014160156E-2,2.914428711E-2
1.739723088E0,6.408691406E-3,2.746582031E-2,2.975463867E-2
1.742042424E0,1.007080078E-2,2.868652344E-2,3.219604492E-2
1.744361760E0,1.190185547E-2,2.807617188E-2,3.280639648E-2
1.746711614E0,1.495361328E-2,3.112792969E-2,3.341674805E-2
1.749030950E0,1.922607422E-2,3.356933594E-2,3.402709961E-2
1.751350286E0,2.410888672E-2,3.662109375E-2,3.219604492E-2
1.753700139E0,2.716064453E-2,3.601074219E-2,3.097534180E-2
1.756019475E0,3.204345703E-2,4.455566406E-2,2.975463867E-2
1.758338811E0,3.387451172E-2,4.577636719E-2,2.731323242E-2
1.760658147E0,3.814697266E-2,5.065917969E-2,2.426147461E-2
1.763008001E0,4.241943359E-2,5.493164062E-2,2.182006836E-2
1.765327336E0,4.425048828E-2,5.874633789E-2,1.693725586E-2
1.767646672E0,4.791259766E-2,6.607055664E-2,1.327514648E-2
1.769996526E0,5.218505859E-2,6.668090820E-2,1.144409180E-2
1.772315862E0,5.706787109E-2,7.461547852E-2,7.171630859E-3
1.774635198E0,6.134033203E-2,8.071899414E-2,2.899169922E-3
1.776985051E0,6.134033203E-2,8.987426758E-2,-1.525878906E-4
1.779304387E0,6.683349609E-2,8.987426758E-2,-3.814697266E-3
1.781654241E0,6.805419922E-2,9.902954102E-2,-5.035400391E-3
1.784004094E0,7.293701172E-2,1.026916504E-1,-9.307861328E-3
1.786323430E0,7.415771484E-2,1.100158691E-1,-1.373291016E-2
1.788642766E0,7.598876953E-2,1.167297363E-1,-1.739501953E-2
1.790962102E0,7.843017578E-2,1.161193848E-1,-2.166748047E-2
1.793311956E0,8.087158203E-2,1.252746582E-1,-2.410888672E-2
1.795631292E0,8.087158203E-2,1.380920410E-1,-2.532958984E-2
1.797950628E0,8.331298828E-2,1.460266113E-1,-2.593994141E-2
1.800300481E0,8.575439453E-2,1.539611816E-1,-3.204345703E-2
1.802619817E0,8.758544922E-2,1.564025879E-1,-3.570556641E-2
1.804939153E0,8.941650391E-2,1.594543457E-1,-3.875732422E-2
1.807289006E0,8.880615234E-2,1.655578613E-1,-3.875732422E-2
1.809608342E0,9.124755859E-2,1.716613770E-1,-4.302978516E-2
1.811927678E0,8.941650391E-2,1.789855957E-1,-4.791259766E-2
1.814277532E0,8.880615234E-2,1.869201660E-1,-4.852294922E-2
1.816596868E0,9.124755859E-2,1.869201660E-1,-5.157470703E-2
1.818916204E0,9.124755859E-2,1.954650879E-1,-5.218505859E-2
1.821235540E0,9.185791016E-2,1.924133301E-1,-5.462646484E-2
1.823585393E0,9.368896484E-2,1.972961426E-1,-5.462646484E-2
1.825904729E0,9.490966797E-2,1.979064941E-1,-5.401611328E-2
1.828224065E0,9.674072266E-2,1.985168457E-1,-5.279541016E-2
1.830573919E0,9.796142578E-2,1.960754395E-1,-5.279541016E-2
1.832893254E0,9.674072266E-2,1.972961426E-1,-5.218505859E-2
1.835212590E0,9.674072266E-2,1.966857910E-1,-5.157470703E-2
1.837562444E0,9.674072266E-2,1.887512207E-1,-4.974365234E-2
1.839881780E0,9.552001953E-2,1.887512207E-1,-4.913330078E-2
1.842201116E0,9.552001953E-2,1.789855957E-1,-4.913330078E-2
1.844520452E0,9.429931641E-2,1.783752441E-1,-4.791259766E-2
1.846870305E0,9.368896484E-2,1.734924316E-1,-4.730224609E-2
1.849189641E0,9.368896484E-2,1.655578613E-1,-4.608154297E-2
1.851508977E0,9.124755859E-2,1.698303223E-1,-4.486083984E-2
1.853858831E0,8.880615234E-2,1.600646973E-1,-4.486083984E-2
1.856178167E0,9.002685547E-2,1.509094238E-1,-4.302978516E-2
1.858497503E0,8.575439453E-2,1.466369629E-1,-4.241943359E-2
1.860847356E0,8.331298828E-2,1.411437988E-1,-4.119873047E-2
1.863166692E0,8.209228516E-2,1.362609863E-1,-3.936767578E-2
1.865486028E0,7.843017578E-2,1.350402832E-1,-3.875732422E-2
1.867835881E0,7.781982422E-2,1.283264160E-1,-3.753662109E-2
1.870155217E0,7.293701172E-2,1.264953613E-1,-3.692626953E-2
1.872474553E0,7.049560547E-2,1.173400879E-1,-3.631591797E-2
1.874793889E0,6.744384766E-2,1.240539551E-1,-3.204345703E-2
1.877143743E0,6.256103516E-2,1.191711426E-1,-3.326416016E-2
1.879463079E0,5.889892578E-2,1.185607910E-1,-3.204345703E-2
1.881782415E0,5.401611328E-2,1.191711426E-1,-3.143310547E-2
1.884132268E0,5.035400391E-2,1.173400879E-1,-3.021240234E-2
1.886451604E0,4.669189453E-2,1.210021973E-1,-2.838134766E-2
1.888770940E0,4.302978516E-2,1.191711426E-1,-2.716064453E-2
1.891090276E0,3.814697266E-2,1.173400879E-1,-2.716064453E-2
1.893440129E0,3.448486328E-2,1.210021973E-1,-2.593994141E-2
1.895759465E0,2.899169922E-2,1.179504395E-1,-2.532958984E-2
1.898109319E0,2.532958984E-2,1.197814941E-1,-2.349853516E-2
1.900428655E0,2.288818359E-2,1.191711426E-1,-2.288818359E-2
1.902747991E0,1.739501953E-2,1.179504395E-1,-2.349853516E-2
1.905067327E0,1.617431641E-2,1.161193848E-1,-2.166748047E-2
1.907417180E0,1.434326172E-2,1.130676270E-1,-1.800537109E-2
1.909736516E0,1.129150391E-2,1.075744629E-1,-1.678466797E-2
1.912055852E0,8.850097656E-3,1.148986816E-1,-1.556396484E-2
1.914405706E0,5.798339844E-3,9.719848633E-2,-1.251220703E-2
1.916725042E0,6.408691406E-3,9.963989258E-2,-8.850097656E-3
1.919044378E0,5.798339844E-3,9.109497070E-2,-6.866455078E-3
1.921394231E0,5.798339844E-3,8.682250977E-2,-2.593994141E-3
1.923713567E0,5.798339844E-3,8.255004883E-2,1.678466797E-3
1.926032903E0,7.019042969E-3,7.095336914E-2,5.340576172E-3
1.928382756E0,4.577636719E-3,7.156372070E-2,9.613037109E-3
1.930702092E0,5.798339844E-3,6.484985352E-2,1.144409180E-2
1.933021428E0,5.798339844E-3,5.935668945E-2,1.266479492E-2
1.935340764E0,6.408691406E-3,5.004882812E-2,1.388549805E-2
1.937690618E0,7.019042969E-3,4.577636719E-2,1.571655273E-2
1.940009954E0,8.239746094E-3,3.723144531E-2,1.571655273E-2
1.942329290E0,7.019042969E-3,3.540039062E-2,1.510620117E-2
1.944679143E0,7.629394531E-3,2.807617188E-2,1.510620117E-2
1.946998479E0,8.239746094E-3,2.197265625E-2,1.388549805E-2
1.949317815E0,9.460449219E-3,1.892089844E-2,1.510620117E-2
1.951667669E0,1.007080078E-2,1.159667969E-2,1.205444336E-2
1.953987004E0,1.007080078E-2,1.037597656E-2,1.144409180E-2
1.956306340E0,8.850097656E-3,1.037597656E-2,1.022338867E-2
1.958656194E0,1.068115234E-2,7.324218750E-3,9.002685547E-3
1.960975530E0,1.190185547E-2,4.272460938E-3,7.171630859E-3
1.963294866E0,1.190185547E-2,2.441406250E-3,9.002685547E-3
1.965614202E0,1.068115234E-2,-2.441406250E-3,7.171630859E-3
1.967964055E0,1.190185547E-2,-1.831054688E-3,7.171630859E-3
1.970283391E0,1.251220703E-2,-4.882812500E-3,7.781982422E-3
1.972602727E0,1.312255859E-2,-6.103515625E-4,8.392333984E-3
1.974952581E0,1.190185547E-2,-3.051757812E-3,8.392333984E-3
1.977271917E0,8.239746094E-3,3.662109375E-3,9.002685547E-3
1.979591253E0,7.019042969E-3,4.882812500E-3,9.613037109E-3
1.981941106E0,5.798339844E-3,7.324218750E-3,1.083374023E-2
1.984260442E0,9.155273438E-4,1.281738281E-2,1.144409180E-2
1.986579778E0,-3.967285156E-3,1.464843750E-2,9.002685547E-3
1.988899114E0,-7.629394531E-3,1.892089844E-2,1.205444336E-2
1.991248967E0,-1.068115234E-2,2.014160156E-2,9.613037109E-3
1.993568303E0,-1.739501953E-2,2.380371094E-2,1.022338867E-2
1.995887639E0,-2.044677734E-2,2.990722656E-2,1.022338867E-2
1.998237493E0,-2.349853516E-2,2.990722656E-2,1.083374023E-2
2.000556829E0,-2.655029297E-2,3.234863281E-2,1.022338867E-2
2.002876165E0,-3.143310547E-2,3.356933594E-2,1.205444336E-2
2.005226018E0,-3.387451172E-2,2.929687500E-2,1.205444336E-2
2.007545354E0,-3.875732422E-2,3.051757812E-2,1.266479492E-2
2.009864690E0,-4.180908203E-2,2.807617188E-2,1.449584961E-2
2.012214544E0,-4.302978516E-2,2.075195312E-2,1.754760742E-2
2.014533879E0,-4.791259766E-2,2.563476562E-2,1.937866211E-2
2.016853215E0,-5.035400391E-2,2.014160156E-2,2.059936523E-2
2.019172551E0,-5.096435547E-2,1.770019531E-2,2.304077148E-2
2.021522405E0,-5.462646484E-2,1.770019531E-2,2.731323242E-2
2.023841741E0,-5.462646484E-2,1.098632812E-2,2.975463867E-2
2.026161077E0,-5.828857422E-2,1.037597656E-2,3.219604492E-2
2.028510930E0,-5.889892578E-2,6.103515625E-3,3.707885742E-2
2.030830266E0,-6.195068359E-2,4.272460938E-3,3.952026367E-2
2.033149602E0,-6.317138672E-2,3.051757812E-3,4.440307617E-2
2.035499456E0,-6.317138672E-2,4.272460938E-3,4.684448242E-2
2.037818792E0,-6.439208984E-2,-1.220703125E-3,5.111694336E-2
2.040138128E0,-6.378173828E-2,0.000000000E0,5.294799805E-2
2.042487981E0,-6.256103516E-2,-3.051757812E-3,5.538940430E-2
2.044807317E0,-6.256103516E-2,-1.220703125E-3,5.966186523E-2
2.047126653E0,-6.072998047E-2,-4.882812500E-3,6.332397461E-2
2.049445989E0,-6.256103516E-2,-2.441406250E-3,6.393432617E-2
2.051795842E0,-6.072998047E-2,4.272460938E-3,6.576538086E-2
2.054115178E0,-6.072998047E-2,-2.441406250E-3,6.698608398E-2
2.056434514E0,-6.256103516E-2,3.051757812E-3,6.759643555E-2
2.058784368E0,-5.950927734E-2,-1.220703125E-3,6.942749023E-2
2.061103704E0,-6.134033203E-2,3.051757812E-3,6.942749023E-2
2.063423040E0,-6.134033203E-2,-1.220703125E-3,6.942749023E-2
2.065772893E0,-6.195068359E-2,3.662109375E-3,6.759643555E-2
2.068122747E0,-6.195068359E-2,1.220703125E-3,6.881713867E-2
2.070442083E0,-6.195068359E-2,-3.662109375E-3,6.759643555E-2
2.072791936E0,-6.072998047E-2,-3.051757812E-3,6.881713867E-2
2.075111272E0,-6.378173828E-2,-6.103515625E-4,6.820678711E-2
2.077430608E0,-6.500244141E-2,2.441406250E-3,6.820678711E-2
2.079749944E0,-6.500244141E-2,-1.220703125E-3,6.698608398E-2
2.082099797E0,-6.561279297E-2,-3.662109375E-3,6.637573242E-2
2.084419133E0,-6.683349609E-2,-1.831054688E-3,6.515502930E-2
2.086738469E0,-6.805419922E-2,-3.051757812E-3,6.332397461E-2
2.089088323E0,-6.622314453E-2,-1.831054688E-3,6.149291992E-2
2.091407659E0,-6.744384766E-2,-6.713867188E-3,5.966186523E-2
2.093726995E0,-6.927490234E-2,-9.765625000E-3,5.661010742E-2
2.096076848E0,-6.866455078E-2,-2.441406250E-3,5.416870117E-2
2.098396184E0,-6.805419922E-2,-9.155273438E-3,5.233764648E-2
2.100715520E0,-6.927490234E-2,-9.765625000E-3,4.989624023E-2
2.103065374E0,-6.927490234E-2,-1.708984375E-2,4.806518555E-2
2.105384710E0,-6.988525391E-2,-2.075195312E-2,4.623413086E-2
2.107704045E0,-7.110595703E-2,-2.380371094E-2,4.501342773E-2
2.110023381E0,-6.927490234E-2,-2.624511719E-2,4.379272461E-2
2.112373235E0,-6.988525391E-2,-2.990722656E-2,4.135131836E-2
2.114692571E0,-6.927490234E-2,-3.540039062E-2,4.135131836E-2
2.117011907E0,-6.927490234E-2,-4.211425781E-2,3.952026367E-2
2.119361760E0,-6.927490234E-2,-4.028320312E-2,3.890991211E-2
2.121681096E0,-6.683349609E-2,-4.821777344E-2,3.890991211E-2
2.124000432E0,-6.744384766E-2,-4.760742188E-2,3.768920898E-2
2.126350286E0,-6.805419922E-2,-5.432128906E-2,3.585815430E-2
2.128669622E0,-6.744384766E-2,-5.920410156E-2,3.646850586E-2
2.130988958E0,-6.439208984E-2,-5.615234375E-2,3.646850586E-2
2.133338811E0,-6.439208984E-2,-6.225585938E-2,3.646850586E-2
2.135658147E0,-6.195068359E-2,-6.896972656E-2,3.524780273E-2
2.137977483E0,-6.317138672E-2,-7.324218750E-2,3.524780273E-2
2.140296819E0,-6.256103516E-2,-7.751464844E-2,3.524780273E-2
2.142646672E0,-5.950927734E-2,-7.934570312E-2,3.707885742E-2
2.144966008E0,-5.950927734E-2,-8.666992188E-2,3.646850586E-2
2.147285344E0,-5.889892578E-2,-8.911132812E-2,3.524780273E-2
2.149635198E0,-5.767822266E-2,-9.582519531E-2,3.463745117E-2
2.151954534E0,-5.767822266E-2,-9.338378906E-2,3.585815430E-2
2.154273870E0,-5.828857422E-2,-9.704589844E-2,3.463745117E-2
2.156623723E0,-5.767822266E-2,-1.062011719E-1,3.463745117E-2
2.158943059E0,-5.828857422E-2,-1.110839844E-1,3.524780273E-2
2.161262395E0,-5.950927734E-2,-1.086425781E-1,3.341674805E-2
2.163612249E0,-5.767822266E-2,-1.141357422E-1,3.219604492E-2
2.165931585E0,-5.889892578E-2,-1.165771484E-1,3.036499023E-2
2.168250920E0,-5.706787109E-2,-1.202392578E-1,2.853393555E-2
2.170570256E0,-5.645751953E-2,-1.173400879E-1,2.853393555E-2
2.172920110E0,-5.462646484E-2,-1.197814941E-1,2.792358398E-2
2.175239446E0,-5.462646484E-2,-1.234436035E-1,2.487182617E-2
2.177558782E0,-5.523681641E-2,-1.271057129E-1,2.426147461E-2
2.179908635E0,-5.340576172E-2,-1.264953613E-1,2.059936523E-2
2.182227971E0,-5.096435547E-2,-1.264953613E-1,1.998901367E-2
2.184547307E0,-5.096435547E-2,-1.252746582E-1,1.632690430E-2
2.186897161E0,-4.974365234E-2,-1.246643066E-1,1.449584961E-2
2.189216497E0,-4.730224609E-2,-1.234436035E-1,1.083374023E-2
2.191535833E0,-4.608154297E-2,-1.246643066E-1,8.392333984E-3
2.193885686E0,-4.791259766E-2,-1.202392578E-1,5.950927734E-3
2.196205022E0,-4.547119141E-2,-1.148986816E-1,4.730224609E-3
2.198524358E0,-4.364013672E-2,-1.141357422E-1,2.288818359E-3
2.200843694E0,-4.302978516E-2,-1.049804688E-1,1.068115234E-3
2.203193547E0,-4.425048828E-2,-1.055908203E-1,-7.629394531E-4
2.205512883E0,-4.364013672E-2,-9.948730469E-2,-1.983642578E-3
2.207832219E0,-4.302978516E-2,-9.582519531E-2,-4.425048828E-3
2.210182073E0,-4.119873047E-2,-9.399414062E-2,-5.035400391E-3
2.212501409E0,-3.936767578E-2,-9.582519531E-2,-5.035400391E-3
2.214820745E0,-4.119873047E-2,-8.239746094E-2,-6.256103516E-3
2.217170598E0,-4.119873047E-2,-7.812500000E-2,-7.476806641E-3
2.219489934E0,-4.180908203E-2,-7.507324219E-2,-8.087158203E-3
2.221809270E0,-4.180908203E-2,-6.774902344E-2,-8.697509766E-3
2.224128606E0,-4.058837891E-2,-6.774902344E-2,-9.918212891E-3
2.226478460E0,-4.058837891E-2,-6.103515625E-2,-9.918212891E-3
2.228797795E0,-4.058837891E-2,-6.164550781E-2,-9.918212891E-3
2.231117131E0,-4.058837891E-2,-6.103515625E-2,-1.052856445E-2
2.233466985E0,-4.119873047E-2,-5.615234375E-2,-9.918212891E-3
2.235786321E0,-3.936767578E-2,-5.493164062E-2,-8.697509766E-3
2.238105657E0,-3.997802734E-2,-5.187988281E-2,-9.918212891E-3
2.240455510E0,-3.814697266E-2,-5.004882812E-2,-8.087158203E-3
2.242774846E0,-3.692626953E-2,-5.187988281E-2,-7.476806641E-3
2.245094182E0,-3.814697266E-2,-4.821777344E-2,-5.645751953E-3
2.247444036E0,-3.692626953E-2,-5.126953125E-2,-5.035400391E-3
2.249763372E0,-3.631591797E-2,-5.004882812E-2,-4.425048828E-3
2.252082708E0,-3.692626953E-2,-4.516601562E-2,-3.814697266E-3
2.254402044E0,-3.387451172E-2,-5.493164062E-2,-2.593994141E-3
2.256751897E0,-3.570556641E-2,-5.065917969E-2,-7.629394531E-4
2.259071233E0,-3.265380859E-2,-5.187988281E-2,-7.629394531E-4
2.261390569E0,-3.509521484E-2,-5.310058594E-2,4.577636719E-4
2.263740422E0,-3.448486328E-2,-5.065917969E-2,1.678466797E-3
2.266059758E0,-3.509521484E-2,-5.187988281E-2,2.899169922E-3
2.268379094E0,-3.387451172E-2,-4.943847656E-2,4.730224609E-3
2.270698430E0,-3.265380859E-2,-5.371093750E-2,5.340576172E-3
2.273048284E0,-3.326416016E-2,-4.821777344E-2,5.950927734E-3
2.275367620E0,-3.265380859E-2,-4.760742188E-2,8.392333984E-3
2.277717473E0,-3.326416016E-2,-4.150390625E-2,1.022338867E-2
2.280036809E0,-3.082275391E-2,-3.967285156E-2,1.205444336E-2
2.282356145E0,-3.387451172E-2,-4.089355469E-2,1.510620117E-2
2.284675481E0,-3.265380859E-2,-3.112792969E-2,1.510620117E-2
2.287025335E0,-2.899169922E-2,-3.417968750E-2,1.510620117E-2
2.289344670E0,-3.204345703E-2,-2.685546875E-2,1.693725586E-2
2.291664006E0,-3.021240234E-2,-2.868652344E-2,1.876831055E-2
2.294013860E0,-2.960205078E-2,-2.136230469E-2,1.876831055E-2
2.296333196E0,-2.899169922E-2,-1.525878906E-2,1.754760742E-2
2.298652532E0,-2.655029297E-2,-9.765625000E-3,1.693725586E-2
2.301002385E0,-2.777099609E-2,-7.934570312E-3,1.876831055E-2
2.303321721E0,-2.593994141E-2,-4.272460938E-3,1.876831055E-2
2.305641057E0,-2.471923828E-2,3.051757812E-3,1.693725586E-2
2.307960393E0,-2.410888672E-2,7.934570312E-3,1.632690430E-2
2.310310247E0,-2.227783203E-2,1.464843750E-2,1.632690430E-2
2.312629583E0,-1.861572266E-2,1.525878906E-2,1.632690430E-2
2.314948919E0,-1.861572266E-2,2.624511719E-2,1.571655273E-2
2.317298772E0,-1.739501953E-2,2.685546875E-2,1.632690430E-2
2.319618108E0,-1.678466797E-2,3.540039062E-2,1.510620117E-2
2.321937444E0,-1.495361328E-2,3.906250000E-2,1.449584961E-2
2.324287297E0,-1.495361328E-2,4.150390625E-2,1.266479492E-2
2.326606633E0,-1.434326172E-2,4.943847656E-2,1.449584961E-2
2.328925969E0,-1.434326172E-2,5.065917969E-2,1.327514648E-2
2.331245305E0,-1.312255859E-2,5.615234375E-2,1.266479492E-2
2.333595159E0,-1.251220703E-2,6.240844727E-2,1.205444336E-2
2.335914495E0,-1.190185547E-2,5.996704102E-2,1.205444336E-2
2.338233831E0,-1.129150391E-2,6.912231445E-2,1.205444336E-2
2.340583684E0,-1.129150391E-2,6.546020508E-2,1.144409180E-2
2.342903020E0,-1.007080078E-2,6.851196289E-2,1.144409180E-2
2.345222356E0,-9.460449219E-3,7.278442383E-2,1.144409180E-2
2.347572210E0,-8.239746094E-3,7.461547852E-2,1.266479492E-2
2.349891545E0,-7.019042969E-3,7.949829102E-2,1.144409180E-2
2.352210881E0,-5.798339844E-3,8.743286133E-2,1.144409180E-2
2.354560735E0,-3.356933594E-3,7.949829102E-2,1.144409180E-2
2.356910588E0,-2.136230469E-3,8.377075195E-2,1.205444336E-2
2.359229924E0,9.155273438E-4,8.071899414E-2,1.083374023E-2
2.361579778E0,3.051757812E-4,8.438110352E-2,1.083374023E-2
2.363899114E0,3.967285156E-3,8.132934570E-2,9.613037109E-3
2.366218450E0,3.356933594E-3,8.010864258E-2,8.392333984E-3
2.368537786E0,5.187988281E-3,8.071899414E-2,9.613037109E-3
2.370887639E0,7.629394531E-3,7.705688477E-2,8.392333984E-3
2.373206975E0,9.460449219E-3,7.278442383E-2,7.171630859E-3
2.375526311E0,1.251220703E-2,7.461547852E-2,7.171630859E-3
2.377876165E0,1.373291016E-2,7.766723633E-2,6.561279297E-3
2.380195501E0,1.617431641E-2,6.851196289E-2,5.950927734E-3
2.382514836E0,1.678466797E-2,7.034301758E-2,5.950927734E-3
2.384864690E0,2.044677734E-2,6.668090820E-2,5.340576172E-3
2.387184026E0,2.288818359E-2,6.607055664E-2,4.730224609E-3
2.389503362E0,2.227783203E-2,6.240844727E-2,3.509521484E-3
2.391822698E0,2.227783203E-2,6.484985352E-2,2.899169922E-3
2.394172551E0,2.471923828E-2,6.362915039E-2,3.509521484E-3
2.396491887E0,2.655029297E-2,5.691528320E-2,2.899169922E-3
2.398811223E0,2.532958984E-2,5.310058594E-2,2.288818359E-3
2.401161077E0,2.593994141E-2,4.760742188E-2,4.577636719E-4
2.403480413E0,2.716064453E-2,4.882812500E-2,-1.373291016E-3
2.405799749E0,2.777099609E-2,4.455566406E-2,-1.983642578E-3
2.408149602E0,2.716064453E-2,4.699707031E-2,-7.629394531E-4
2.410468938E0,2.655029297E-2,4.089355469E-2,-1.373291016E-3
2.412788274E0,2.532958984E-2,3.845214844E-2,-3.204345703E-3
2.415138128E0,2.410888672E-2,3.417968750E-2,-5.035400391E-3
2.417457463E0,2.410888672E-2,3.723144531E-2,-5.035400391E-3
2.419776799E0,2.288818359E-2,3.417968750E-2,-4.425048828E-3
2.422126653E0,1.983642578E-2,3.356933594E-2,-6.866455078E-3
2.424445989E0,1.861572266E-2,2.990722656E-2,-6.256103516E-3
2.426765325E0,1.739501953E-2,2.807617188E-2,-5.035400391E-3
2.429084661E0,1.190185547E-2,3.051757812E-2,-6.866455078E-3
2.431434514E0,1.312255859E-2,2.258300781E-2,-6.866455078E-3
2.433753850E0,8.850097656E-3,2.136230469E-2,-7.476806641E-3
2.436073186E0,7.019042969E-3,2.685546875E-2,-6.866455078E-3
2.438423040E0,3.967285156E-3,2.258300781E-2,-6.866455078E-3
2.440742376E0,2.746582031E-3,2.502441406E-2,-6.866455078E-3
2.443061711E0,1.525878906E-3,2.441406250E-2,-8.087158203E-3
2.445411565E0,-3.356933594E-3,2.380371094E-2,-6.256103516E-3
2.447730901E0,-4.577636719E-3,2.441406250E-2,-7.476806641E-3
2.450050237E0,-7.629394531E-3,2.441406250E-2,-7.476806641E-3
2.452400090E0,-1.068115234E-2,1.770019531E-2,-8.697509766E-3
2.454719426E0,-1.129150391E-2,2.258300781E-2,-6.866455078E-3
2.457038762E0,-1.373291016E-2,2.014160156E-2,-9.918212891E-3
2.459358098E0,-1.251220703E-2,2.319335938E-2,-1.052856445E-2
2.461707952E0,-1.434326172E-2,2.197265625E-2,-1.052856445E-2
2.464027288E0,-1.495361328E-2,2.014160156E-2,-1.052856445E-2
2.466346624E0,-1.617431641E-2,2.319335938E-2,-1.113891602E-2
2.468696477E0,-1.678466797E-2,2.197265625E-2,-1.052856445E-2
2.471015813E0,-1.739501953E-2,1.770019531E-2,-1.174926758E-2
2.473335149E0,-1.678466797E-2,1.770019531E-2,-1.235961914E-2
2.475685003E0,-1.434326172E-2,1.342773438E-2,-1.113891602E-2
2.478004338E0,-1.373291016E-2,1.647949219E-2,-1.052856445E-2
2.480323674E0,-1.373291016E-2,1.037597656E-2,-1.235961914E-2
2.482643010E0,-1.068115234E-2,9.765625000E-3,-1.174926758E-2
2.484992864E0,-8.850097656E-3,9.155273438E-3,-1.174926758E-2
2.487312200E0,-5.187988281E-3,4.272460938E-3,-1.174926758E-2
2.489631536E0,-2.136230469E-3,3.662109375E-3,-1.235961914E-2
2.491981389E0,-3.051757812E-4,1.831054688E-3,-1.113891602E-2
2.494300725E0,2.136230469E-3,1.220703125E-3,-1.174926758E-2
2.496620061E0,6.408691406E-3,-6.713867188E-3,-1.174926758E-2
2.498969915E0,8.239746094E-3,-6.713867188E-3,-1.480102539E-2
2.501289251E0,1.129150391E-2,-1.098632812E-2,-1.480102539E-2
2.503608586E0,1.373291016E-2,-1.037597656E-2,-1.358032227E-2
2.505958440E0,1.800537109E-2,-1.220703125E-2,-1.602172852E-2
2.508277776E0,1.800537109E-2,-1.342773438E-2,-1.785278320E-2
2.510597112E0,1.983642578E-2,-1.403808594E-2,-1.846313477E-2
2.512916448E0,2.227783203E-2,-2.136230469E-2,-1.846313477E-2
2.515266301E0,2.288818359E-2,-1.342773438E-2,-2.090454102E-2
2.517585637E0,2.532958984E-2,-1.342773438E-2,-2.151489258E-2
2.519904973E0,2.593994141E-2,-1.403808594E-2,-2.334594727E-2
2.522254827E0,2.777099609E-2,-9.155273438E-3,-2.212524414E-2
2.524574163E0,2.899169922E-2,-1.098632812E-2,-2.334594727E-2
2.526893499E0,3.082275391E-2,-1.159667969E-2,-2.517700195E-2
2.529243352E0,3.265380859E-2,-7.324218750E-3,-2.593994141E-2
2.531562688E0,3.326416016E-2,-3.051757812E-3,-2.639770508E-2
2.533882024E0,3.509521484E-2,-6.103515625E-4,-2.716064453E-2
2.536231878E0,3.509521484E-2,0.000000000E0,-2.761840820E-2
2.538551213E0,3.692626953E-2,3.051757812E-3,-2.593994141E-2
2.540870549E0,3.753662109E-2,7.324218750E-3,-2.639770508E-2
2.543189885E0,3.997802734E-2,7.324218750E-3,-2.593994141E-2
2.545539739E0,3.936767578E-2,1.159667969E-2,-2.639770508E-2
2.547859075E0,3.875732422E-2,1.403808594E-2,-2.761840820E-2
2.550178411E0,3.692626953E-2,1.586914062E-2,-2.761840820E-2
2.552528264E0,3.692626953E-2,2.746582031E-2,-2.761840820E-2
2.554847600E0,3.814697266E-2,1.770019531E-2,-2.716064453E-2
2.557166936E0,3.509521484E-2,2.502441406E-2,-2.838134766E-2
2.559516790E0,3.509521484E-2,2.258300781E-2,-2.716064453E-2
2.561836126E0,3.326416016E-2,2.563476562E-2,-2.639770508E-2
2.564155461E0,3.143310547E-2,3.051757812E-2,-2.456665039E-2
2.566505315E0,3.021240234E-2,2.746582031E-2,-2.456665039E-2
2.568824651E0,2.899169922E-2,3.051757812E-2,-2.334594727E-2
2.571143987E0,2.716064453E-2,2.746582031E-2,-2.151489258E-2
2.573463323E0,2.838134766E-2,3.173828125E-2,-2.029418945E-2
2.575813176E0,2.349853516E-2,2.990722656E-2,-1.968383789E-2
2.578132512E0,2.166748047E-2,4.211425781E-2,-1.602172852E-2
2.580451848E0,2.044677734E-2,3.723144531E-2,-1.419067383E-2
2.582801702E0,1.861572266E-2,4.028320312E-2,-1.358032227E-2
2.585121038E0,1.678466797E-2,4.211425781E-2,-1.113891602E-2
2.587440374E0,1.312255859E-2,4.028320312E-2,-8.697509766E-3
2.589759710E0,1.068115234E-2,4.455566406E-2,-5.035400391E-3
2.592109563E0,1.068115234E-2,3.967285156E-2,-3.814697266E-3
2.594428899E0,8.239746094E-3,4.333496094E-2,-1.983642578E-3
2.596778753E0,5.798339844E-3,4.150390625E-2,1.068115234E-3
2.599098088E0,5.187988281E-3,4.455566406E-2,4.119873047E-3
2.601417424E0,2.746582031E-3,4.516601562E-2,5.340576172E-3
2.603736760E0,2.136230469E-3,4.150390625E-2,9.002685547E-3
2.606086614E0,3.051757812E-4,4.272460938E-2,1.144409180E-2
2.608405950E0,-3.967285156E-3,4.150390625E-2,1.327514648E-2
2.610725286E0,-2.136230469E-3,4.272460938E-2,1.571655273E-2
2.613075139E0,-4.577636719E-3,4.272460938E-2,1.693725586E-2
2.615394475E0,-2.746582031E-3,4.394531250E-2,1.876831055E-2
2.617713811E0,-3.356933594E-3,3.662109375E-2,2.182006836E-2
2.620063665E0,-4.577636719E-3,3.967285156E-2,2.243041992E-2
2.622383001E0,-6.408691406E-3,3.173828125E-2,2.243041992E-2
2.624702336E0,-3.356933594E-3,3.295898438E-2,2.487182617E-2
2.627052190E0,-7.019042969E-3,3.784179688E-2,2.609252930E-2
2.629371526E0,-7.629394531E-3,3.601074219E-2,2.731323242E-2
2.631690862E0,-8.239746094E-3,3.112792969E-2,2.731323242E-2
2.634010198E0,-7.019042969E-3,3.479003906E-2,2.670288086E-2
2.636360051E0,-1.007080078E-2,3.601074219E-2,2.853393555E-2
2.638679387E0,-1.068115234E-2,3.723144531E-2,2.792358398E-2
2.641029241E0,-1.190185547E-2,3.784179688E-2,2.731323242E-2
2.643379094E0,-1.129150391E-2,3.723144531E-2,2.609252930E-2
2.645698430E0,-1.373291016E-2,4.699707031E-2,2.670288086E-2
2.648017766E0,-1.312255859E-2,4.150390625E-2,2.487182617E-2
2.650367620E0,-1.495361328E-2,4.394531250E-2,2.365112305E-2
2.652686956E0,-1.556396484E-2,3.479003906E-2,2.243041992E-2
2.655006292E0,-1.800537109E-2,4.638671875E-2,2.365112305E-2
2.657356145E0,-1.922607422E-2,4.699707031E-2,2.304077148E-2
2.659675481E0,-1.800537109E-2,4.882812500E-2,2.243041992E-2
2.661994817E0,-1.861572266E-2,5.187988281E-2,2.059936523E-2
2.664314153E0,-1.861572266E-2,5.310058594E-2,1.937866211E-2
2.666664006E0,-1.800537109E-2,5.310058594E-2,1.998901367E-2
2.668983342E0,-1.922607422E-2,5.371093750E-2,1.876831055E-2
2.671302678E0,-1.922607422E-2,5.371093750E-2,1.815795898E-2
2.673652532E0,-1.983642578E-2,5.874633789E-2,1.754760742E-2
2.675971868E0,-1.739501953E-2,5.996704102E-2,1.754760742E-2
2.678291204E0,-1.617431641E-2,5.813598633E-2,1.632690430E-2
2.680641057E0,-1.678466797E-2,6.179809570E-2,1.632690430E-2
2.682960393E0,-1.678466797E-2,5.935668945E-2,1.815795898E-2
2.685279729E0,-1.495361328E-2,6.118774414E-2,1.815795898E-2
2.687629583E0,-1.190185547E-2,6.423950195E-2,1.632690430E-2
2.689948919E0,-1.312255859E-2,6.179809570E-2,1.632690430E-2
2.692268254E0,-1.373291016E-2,6.301879883E-2,1.449584961E-2
2.694587590E0,-1.007080078E-2,5.813598633E-2,1.510620117E-2
2.696937444E0,-1.007080078E-2,6.668090820E-2,1.571655273E-2
2.699256780E0,-8.239746094E-3,6.240844727E-2,1.510620117E-2
2.701576116E0,-7.019042969E-3,6.240844727E-2,1.510620117E-2
2.703925969E0,-7.019042969E-3,6.179809570E-2,1.449584961E-2
2.706245305E0,-5.187988281E-3,6.057739258E-2,1.266479492E-2
2.708564641E0,-3.967285156E-3,6.118774414E-2,1.327514648E-2
2.710883977E0,-3.967285156E-3,5.752563477E-2,1.205444336E-2
2.713233831E0,-1.525878906E-3,5.187988281E-2,1.083374023E-2
2.715553167E0,-2.746582031E-3,5.447387695E-2,1.144409180E-2
2.717872503E0,-2.136230469E-3,5.187988281E-2,1.144409180E-2
2.720222356E0,-2.136230469E-3,5.126953125E-2,1.205444336E-2
2.722541692E0,-9.155273438E-4,5.126953125E-2,1.083374023E-2
2.724861028E0,3.051757812E-4,4.760742188E-2,1.083374023E-2
2.727210881E0,2.746582031E-3,4.699707031E-2,1.144409180E-2
2.729530217E0,2.136230469E-3,4.516601562E-2,1.205444336E-2
2.731849553E0,2.746582031E-3,3.723144531E-2,1.022338867E-2
2.734199407E0,1.525878906E-3,3.723144531E-2,1.083374023E-2
2.736518743E0,2.136230469E-3,4.028320312E-2,9.613037109E-3
2.738838079E0,9.155273438E-4,3.479003906E-2,9.613037109E-3
2.741187932E0,9.155273438E-4,3.723144531E-2,9.002685547E-3
2.743507268E0,3.356933594E-3,3.234863281E-2,9.002685547E-3
2.745826604E0,2.746582031E-3,3.173828125E-2,7.781982422E-3
2.748145940E0,2.746582031E-3,3.234863281E-2,6.561279297E-3
2.750495794E0,2.136230469E-3,3.173828125E-2,7.781982422E-3
2.752815129E0,3.051757812E-4,3.417968750E-2,7.171630859E-3
2.755134465E0,9.155273438E-4,2.563476562E-2,5.340576172E-3
2.757484319E0,-3.051757812E-4,2.441406250E-2,4.119873047E-3
2.759803655E0,3.051757812E-4,2.319335938E-2,4.119873047E-3
2.762122991E0,3.051757812E-4,1.953125000E-2,3.509521484E-3
2.764472844E0,1.525878906E-3,2.136230469E-2,2.288818359E-3
2.766792180E0,1.525878906E-3,1.647949219E-2,4.577636719E-4
2.769111516E0,2.746582031E-3,1.586914062E-2,1.068115234E-3
2.771430852E0,1.525878906E-3,8.544921875E-3,-7.629394531E-4
2.773780706E0,1.525878906E-3,9.765625000E-3,-1.373291016E-3
2.776100042E0,3.356933594E-3,9.155273438E-3,-1.983642578E-3
2.778419378E0,1.525878906E-3,4.882812500E-3,-2.593994141E-3
2.780769231E0,5.187988281E-3,1.403808594E-2,-3.814697266E-3
2.783088567E0,4.577636719E-3,8.544921875E-3,-3.204345703E-3
2.785407903E0,4.577636719E-3,1.037597656E-2,-3.204345703E-3
2.787757756E0,5.798339844E-3,9.765625000E-3,-3.814697266E-3
2.790077092E0,5.798339844E-3,9.765625000E-3,-5.645751953E-3
2.792396428E0,5.798339844E-3,1.098632812E-2,-5.035400391E-3
2.794746282E0,6.408691406E-3,1.220703125E-2,-6.866455078E-3
2.797065618E0,8.850097656E-3,5.493164062E-3,-8.087158203E-3
2.799384954E0,7.019042969E-3,1.159667969E-2,-6.866455078E-3
2.801704290E0,1.007080078E-2,9.155273438E-3,-8.087158203E-3
2.804054143E0,1.007080078E-2,1.159667969E-2,-7.476806641E-3
2.806373479E0,8.850097656E-3,1.281738281E-2,-7.476806641E-3
2.808692815E0,1.129150391E-2,1.159667969E-2,-9.307861328E-3
2.811042669E0,1.068115234E-2,1.586914062E-2,-9.307861328E-3
2.813362004E0,1.251220703E-2,1.220703125E-2,-9.918212891E-3
2.815681340E0,1.190185547E-2,1.464843750E-2,-9.307861328E-3
2.818031194E0,1.068115234E-2,1.281738281E-2,-9.918212891E-3
2.820350530E0,1.190185547E-2,1.403808594E-2,-9.918212891E-3
2.822669866E0,1.190185547E-2,1.342773438E-2,-9.307861328E-3
2.825019719E0,1.251220703E-2,1.342773438E-2,-9.918212891E-3
2.827339055E0,1.129150391E-2,1.220703125E-2,-9.307861328E-3
2.829658391E0,1.373291016E-2,9.765625000E-3,-9.918212891E-3
2.831977727E0,1.312255859E-2,5.493164062E-3,-9.918212891E-3
2.834327581E0,1.251220703E-2,8.544921875E-3,-1.052856445E-2
2.836646917E0,1.312255859E-2,6.103515625E-3,-9.307861328E-3
2.838966253E0,1.312255859E-2,4.882812500E-3,-9.307861328E-3
2.841316106E0,1.129150391E-2,6.103515625E-3,-9.307861328E-3
2.843635442E0,1.373291016E-2,3.662109375E-3,-9.918212891E-3
2.845954778E0,1.129150391E-2,6.713867188E-3,-1.052856445E-2
2.848304631E0,1.312255859E-2,3.662109375E-3,-1.113891602E-2
2.850623967E0,1.312255859E-2,3.051757812E-3,-1.052856445E-2
2.852943303E0,1.434326172E-2,-5.493164062E-3,-1.052856445E-2
2.855293157E0,1.312255859E-2,5.493164062E-3,-1.113891602E-2
2.857612493E0,1.556396484E-2,3.051757812E-3,-9.918212891E-3
2.859931829E0,1.312255859E-2,1.831054688E-3,-1.113891602E-2
2.862251165E0,1.373291016E-2,3.662109375E-3,-1.052856445E-2
2.864601018E0,1.495361328E-2,-1.220703125E-3,-1.174926758E-2
2.866920354E0,1.434326172E-2,2.441406250E-3,-1.113891602E-2
2.869239690E0,1.556396484E-2,0.000000000E0,-1.174926758E-2
2.871589544E0,1.434326172E-2,-6.103515625E-4,-1.113891602E-2
2.873908879E0,1.556396484E-2,-1.831054688E-3,-1.113891602E-2
2.876228215E0,1.495361328E-2,1.831054688E-3,-1.113891602E-2
2.878578069E0,1.495361328E-2,-1.220703125E-3,-1.174926758E-2
2.880897405E0,1.373291016E-2,3.051757812E-3,-1.235961914E-2
2.883216741E0,1.678466797E-2,1.831054688E-3,-1.296997070E-2
2.885566594E0,1.678466797E-2,1.220703125E-3,-1.235961914E-2
2.887885930E0,1.434326172E-2,1.831054688E-3,-1.113891602E-2
2.890205266E0,1.495361328E-2,3.051757812E-3,-1.174926758E-2
2.892524602E0,1.617431641E-2,2.441406250E-3,-1.174926758E-2
2.894874456E0,1.617431641E-2,6.103515625E-4,-1.174926758E-2
2.897193792E0,1.556396484E-2,3.051757812E-3,-1.174926758E-2
2.899513128E0,1.678466797E-2,3.051757812E-3,-1.174926758E-2
2.901862981E0,1.617431641E-2,3.662109375E-3,-1.052856445E-2
2.904182317E0,1.617431641E-2,4.882812500E-3,-1.113891602E-2
2.906501653E0,1.739501953E-2,1.831054688E-3,-9.307861328E-3
2.908851506E0,1.861572266E-2,4.272460938E-3,-1.052856445E-2
2.911170842E0,1.678466797E-2,-1.831054688E-3,-9.307861328E-3
2.913490178E0,1.739501953E-2,-1.220703125E-3,-8.697509766E-3
2.915840032E0,1.800537109E-2,-2.441406250E-3,-8.697509766E-3
2.918159368E0,1.861572266E-2,2.441406250E-3,-8.697509766E-3
2.920478704E0,1.678466797E-2,0.000000000E0,-8.087158203E-3
2.922798040E0,1.739501953E-2,0.000000000E0,-6.866455078E-3
2.925147893E0,1.678466797E-2,0.000000000E0,-7.476806641E-3
2.927497747E0,1.678466797E-2,-2.441406250E-3,-7.476806641E-3
2.929817083E0,1.678466797E-2,-1.220703125E-3,-7.476806641E-3
2.932166936E0,1.739501953E-2,-5.493164062E-3,-7.476806641E-3
2.934486272E0,1.800537109E-2,-6.713867188E-3,-6.866455078E-3
2.936805608E0,1.617431641E-2,1.831054688E-3,-7.476806641E-3
2.939155461E0,1.678466797E-2,-2.441406250E-3,-7.476806641E-3
2.941474797E0,1.617431641E-2,-2.441406250E-3,-8.087158203E-3
2.943794133E0,1.556396484E-2,-6.103515625E-4,-8.087158203E-3
2.946143987E0,1.617431641E-2,-4.272460938E-3,-8.087158203E-3
2.948463323E0,1.678466797E-2,-2.441406250E-3,-8.087158203E-3
2.950782659E0,1.617431641E-2,-6.103515625E-4,-7.476806641E-3
2.953101995E0,1.678466797E-2,-4.882812500E-3,-8.697509766E-3
2.955451848E0,1.556396484E-2,3.051757812E-3,-9.307861328E-3
2.957771184E0,1.617431641E-2,-6.103515625E-4,-7.476806641E-3
2.960090520E0,1.617431641E-2,6.103515625E-4,-8.087158203E-3
2.962440374E0,1.556396484E-2,0.000000000E0,-9.307861328E-3
2.964759710E0,1.556396484E-2,6.103515625E-4,-8.697509766E-3
2.967079045E0,1.495361328E-2,0.000000000E0,-9.918212891E-3
2.969428899E0,1.434326172E-2,-6.103515625E-4,-8.697509766E-3
2.971748235E0,1.373291016E-2,3.051757812E-3,-7.476806641E-3
2.974067571E0,1.312255859E-2,1.220703125E-3,-6.866455078E-3
2.976417424E0,1.190185547E-2,-6.103515625E-4,-6.866455078E-3
2.978736760E0,1.251220703E-2,-1.220703125E-3,-6.866455078E-3
2.981056096E0,1.312255859E-2,-4.882812500E-3,-7.476806641E-3
2.983375432E0,1.190185547E-2,0.000000000E0,-5.035400391E-3
2.985725286E0,1.068115234E-2,-4.882812500E-3,-6.256103516E-3
2.988044622E0,8.239746094E-3,-4.272460938E-3,-6.256103516E-3
2.990363958E0,1.129150391E-2,-3.662109375E-3,-5.645751953E-3
2.992713811E0,8.239746094E-3,5.493164062E-3,-3.204345703E-3
2.995033147E0,7.019042969E-3,-7.324218750E-3,-2.593994141E-3
2.997352483E0,8.239746094E-3,-3.662109375E-3,-3.204345703E-3
2.999702336E0,5.798339844E-3,-9.155273438E-3,-2.593994141E-3
3.002021672E0,5.187988281E-3,-9.765625000E-3,-1.525878906E-4
3.004341008E0,5.798339844E-3,-1.159667969E-2,-1.525878906E-4
3.006660344E0,5.187988281E-3,-1.220703125E-2,4.577636719E-4
3.009010198E0,3.967285156E-3,-9.765625000E-3,1.678466797E-3
3.011329534E0,4.577636719E-3,-1.525878906E-2,2.288818359E-3
3.013648870E0,3.356933594E-3,-1.953125000E-2,3.509521484E-3
3.015998723E0,3.356933594E-3,-2.136230469E-2,4.119873047E-3
3.018318059E0,2.746582031E-3,-1.770019531E-2,5.340576172E-3
3.020637395E0,1.525878906E-3,-2.380371094E-2,6.561279297E-3
3.022987249E0,3.051757812E-4,-1.953125000E-2,8.392333984E-3
3.025306585E0,-3.051757812E-4,-2.258300781E-2,1.083374023E-2
3.027625920E0,-1.525878906E-3,-2.380371094E-2,1.205444336E-2
3.029945256E0,-3.051757812E-4,-2.624511719E-2,1.327514648E-2
3.032295110E0,-9.155273438E-4,-3.356933594E-2,1.266479492E-2
3.034614446E0,-2.136230469E-3,-3.173828125E-2,1.327514648E-2
3.036933782E0,-6.408691406E-3,-2.746582031E-2,1.327514648E-2
3.039283635E0,-5.187988281E-3,-2.990722656E-2,1.388549805E-2
3.041602971E0,-4.577636719E-3,-3.051757812E-2,1.388549805E-2
3.043922307E0,-5.798339844E-3,-3.112792969E-2,1.449584961E-2
3.046272161E0,-5.798339844E-3,-3.051757812E-2,1.449584961E-2
3.048591497E0,-7.629394531E-3,-2.746582031E-2,1.510620117E-2
3.050910833E0,-8.239746094E-3,-2.807617188E-2,1.327514648E-2
3.053260686E0,-7.019042969E-3,-2.319335938E-2,1.266479492E-2
3.055580022E0,-8.239746094E-3,-3.173828125E-2,1.144409180E-2
3.057899358E0,-8.239746094E-3,-3.051757812E-2,1.205444336E-2
3.060249211E0,-8.850097656E-3,-2.746582031E-2,1.205444336E-2
3.062568547E0,-8.850097656E-3,-3.295898438E-2,1.205444336E-2
3.064887883E0,-8.239746094E-3,-3.173828125E-2,9.613037109E-3
3.067207219E0,-8.850097656E-3,-3.112792969E-2,9.613037109E-3
3.069557073E0,-7.629394531E-3,-2.990722656E-2,9.002685547E-3
3.071876409E0,-8.239746094E-3,-2.929687500E-2,9.613037109E-3
3.074195745E0,-7.629394531E-3,-2.746582031E-2,1.083374023E-2
3.076545598E0,-8.850097656E-3,-2.563476562E-2,7.781982422E-3
3.078864934E0,-7.629394531E-3,-2.746582031E-2,7.171630859E-3
3.081184270E0,-7.019042969E-3,-2.990722656E-2,6.561279297E-3
3.083534124E0,-5.798339844E-3,-2.563476562E-2,7.781982422E-3
3.085853460E0,-6.408691406E-3,-2.624511719E-2,5.950927734E-3
3.088172795E0,-2.746582031E-3,-2.258300781E-2,5.950927734E-3
3.090522649E0,-2.746582031E-3,-2.380371094E-2,6.561279297E-3
3.092841985E0,-2.136230469E-3,-2.685546875E-2,5.950927734E-3
3.095161321E0,-3.051757812E-4,-2.563476562E-2,6.561279297E-3
3.097480657E0,-9.155273438E-4,-2.319335938E-2,6.561279297E-3
3.099830510E0,3.051757812E-4,-2.258300781E-2,7.171630859E-3
3.102149846E0,1.525878906E-3,-2.258300781E-2,7.781982422E-3
3.104469182E0,2.746582031E-3,-2.075195312E-2,7.781982422E-3
3.106819036E0,3.967285156E-3,-2.380371094E-2,6.561279297E-3
3.109138372E0,3.356933594E-3,-2.441406250E-2,7.171630859E-3
3.111457708E0,6.408691406E-3,-2.685546875E-2,6.561279297E-3
3.113807561E0,7.629394531E-3,-2.014160156E-2,7.171630859E-3
3.116126897E0,7.019042969E-3,-2.502441406E-2,7.781982422E-3
3.118446233E0,6.408691406E-3,-2.075195312E-2,7.781982422E-3
3.120796086E0,8.850097656E-3,-2.380371094E-2,7.781982422E-3
3.123115422E0,9.460449219E-3,-2.563476562E-2,7.781982422E-3
3.125434758E0,9.460449219E-3,-2.258300781E-2,7.781982422E-3
3.127754094E0,1.007080078E-2,-2.746582031E-2,9.002685547E-3
3.130103948E0,1.190185547E-2,-2.319335938E-2,9.002685547E-3
3.132423284E0,1.312255859E-2,-2.868652344E-2,7.171630859E-3
3.134742620E0,1.068115234E-2,-2.319335938E-2,6.561279297E-3
3.137092473E0,1.251220703E-2,-2.258300781E-2,8.392333984E-3
3.139411809E0,1.251220703E-2,-2.380371094E-2,7.781982422E-3
3.141731145E0,1.190185547E-2,-1.831054688E-2,7.781982422E-3
3.144080999E0,1.556396484E-2,-2.319335938E-2,7.171630859E-3
3.146400335E0,1.556396484E-2,-1.586914062E-2,6.561279297E-3
3.148719670E0,1.373291016E-2,-1.831054688E-2,5.950927734E-3
3.151069524E0,1.373291016E-2,-1.342773438E-2,6.561279297E-3
3.153388860E0,1.251220703E-2,-2.319335938E-2,5.950927734E-3
3.155708196E0,1.190185547E-2,-9.765625000E-3,7.781982422E-3
3.158027532E0,1.312255859E-2,-1.159667969E-2,8.392333984E-3
3.160377385E0,1.190185547E-2,-8.544921875E-3,7.781982422E-3
3.162696721E0,1.190185547E-2,-8.544921875E-3,7.171630859E-3
3.165016057E0,1.129150391E-2,-1.098632812E-2,9.613037109E-3
3.167365911E0,1.129150391E-2,-4.882812500E-3,9.002685547E-3
3.169685247E0,1.251220703E-2,-6.713867188E-3,9.002685547E-3
3.172004583E0,1.190185547E-2,-5.493164062E-3,9.002685547E-3
3.174354436E0,9.460449219E-3,-4.272460938E-3,7.781982422E-3
3.176673772E0,1.129150391E-2,-2.441406250E-3,9.002685547E-3
3.178993108E0,1.068115234E-2,4.272460938E-3,9.002685547E-3
3.181312444E0,1.068115234E-2,6.103515625E-3,8.392333984E-3
3.183662297E0,1.129150391E-2,7.934570312E-3,9.613037109E-3
3.185981633E0,1.007080078E-2,9.765625000E-3,7.171630859E-3
3.188300969E0,1.068115234E-2,7.324218750E-3,7.171630859E-3
3.190650823E0,1.129150391E-2,9.765625000E-3,5.950927734E-3
3.192970159E0,9.460449219E-3,1.464843750E-2,5.950927734E-3
3.195289495E0,1.129150391E-2,9.155273438E-3,5.340576172E-3
3.197639348E0,1.129150391E-2,1.220703125E-2,3.509521484E-3
3.199958684E0,1.190185547E-2,1.220703125E-2,5.950927734E-3
3.202278020E0,1.190185547E-2,1.342773438E-2,4.119873047E-3
3.204627874E0,1.129150391E-2,1.281738281E-2,2.899169922E-3
3.206947210E0,1.312255859E-2,1.342773438E-2,1.678466797E-3
3.209266545E0,1.312255859E-2,1.525878906E-2,2.288818359E-3
3.211585881E0,1.312255859E-2,1.953125000E-2,2.288818359E-3
3.213935735E0,1.251220703E-2,1.831054688E-2,3.509521484E-3
3.216285588E0,1.434326172E-2,1.586914062E-2,2.288818359E-3
3.218604924E0,1.617431641E-2,1.281738281E-2,2.288818359E-3
3.220954778E0,1.495361328E-2,1.647949219E-2,2.288818359E-3
3.223274114E0,1.617431641E-2,1.220703125E-2,1.678466797E-3
3.225593450E0,1.739501953E-2,1.281738281E-2,1.678466797E-3
3.227943303E0,1.800537109E-2,1.342773438E-2,1.678466797E-3
3.230262639E0,1.983642578E-2,1.220703125E-2,1.678466797E-3
3.232581975E0,1.983642578E-2,1.037597656E-2,1.068115234E-3
3.234931829E0,1.983642578E-2,1.281738281E-2,4.577636719E-4
3.237251165E0,2.044677734E-2,1.220703125E-2,2.288818359E-3
3.239570501E0,2.288818359E-2,1.159667969E-2,2.288818359E-3
3.241889836E0,2.166748047E-2,1.708984375E-2,1.678466797E-3
3.244239690E0,2.471923828E-2,1.342773438E-2,4.577636719E-4
3.246559026E0,2.349853516E-2,1.647949219E-2,1.678466797E-3
3.248878362E0,2.288818359E-2,1.403808594E-2,1.068115234E-3
3.251228215E0,2.349853516E-2,1.708984375E-2,1.068115234E-3
3.253547551E0,2.410888672E-2,1.831054688E-2,4.577636719E-4
3.255866887E0,2.410888672E-2,1.892089844E-2,4.577636719E-4
3.258216741E0,2.532958984E-2,1.342773438E-2,4.577636719E-4
3.260536077E0,2.655029297E-2,1.953125000E-2,4.577636719E-4
3.262855413E0,2.593994141E-2,1.281738281E-2,4.577636719E-4
3.265205266E0,2.777099609E-2,1.831054688E-2,4.577636719E-4
3.267524602E0,2.655029297E-2,1.525878906E-2,4.577636719E-4
3.269843938E0,2.716064453E-2,1.342773438E-2,-7.629394531E-4
3.272163274E0,2.838134766E-2,1.098632812E-2,1.068115234E-3
3.274513128E0,2.532958984E-2,1.220703125E-2,4.577636719E-4
3.276832463E0,2.655029297E-2,1.647949219E-2,4.577636719E-4
3.279151799E0,2.471923828E-2,1.892089844E-2,-7.629394531E-4
3.281501653E0,2.593994141E-2,1.647949219E-2,-1.983642578E-3
3.283820989E0,2.471923828E-2,1.647949219E-2,-1.373291016E-3
3.286140325E0,2.410888672E-2,1.708984375E-2,-1.373291016E-3
3.288490178E0,2.532958984E-2,1.831054688E-2,-2.593994141E-3
3.290809514E0,2.349853516E-2,2.014160156E-2,-2.593994141E-3
3.293128850E0,2.471923828E-2,1.037597656E-2,-3.814697266E-3
3.295448186E0,2.410888672E-2,2.136230469E-2,-2.593994141E-3
3.297798040E0,2.288818359E-2,1.525878906E-2,-3.204345703E-3
3.300117376E0,2.105712891E-2,2.258300781E-2,-2.593994141E-3
3.302436711E0,1.861572266E-2,1.586914062E-2,-1.983642578E-3
3.304786565E0,1.861572266E-2,2.075195312E-2,-1.983642578E-3
3.307105901E0,1.800537109E-2,1.953125000E-2,-3.204345703E-3
3.309425237E0,1.678466797E-2,1.708984375E-2,-3.204345703E-3
3.311775090E0,1.739501953E-2,2.014160156E-2,-1.983642578E-3
3.314094426E0,1.495361328E-2,1.953125000E-2,-1.373291016E-3
3.316413762E0,1.434326172E-2,1.953125000E-2,-1.373291016E-3
3.318763616E0,1.495361328E-2,1.647949219E-2,-1.373291016E-3
3.321082952E0,1.434326172E-2,1.770019531E-2,-7.629394531E-4
3.323402288E0,1.434326172E-2,1.159667969E-2,-7.629394531E-4
3.325721624E0,1.373291016E-2,1.525878906E-2,-1.373291016E-3
3.328071477E0,1.251220703E-2,1.647949219E-2,4.577636719E-4
3.330390813E0,1.129150391E-2,1.464843750E-2,-1.525878906E-4
3.332710149E0,1.251220703E-2,1.586914062E-2,-1.525878906E-4
3.335060003E0,1.068115234E-2,1.586914062E-2,1.678466797E-3
3.337379338E0,1.129150391E-2,1.464843750E-2,2.899169922E-3
3.339698674E0,1.068115234E-2,1.281738281E-2,1.068115234E-3
3.342048528E0,8.850097656E-3,1.770019531E-2,2.899169922E-3
3.344367864E0,1.007080078E-2,1.464843750E-2,4.730224609E-3
3.346687200E0,8.239746094E-3,1.525878906E-2,3.509521484E-3
3.349037053E0,7.019042969E-3,1.464843750E-2,4.119873047E-3
3.351356389E0,6.408691406E-3,1.525878906E-2,4.119873047E-3
3.353675725E0,8.239746094E-3,1.037597656E-2,5.340576172E-3
3.355995061E0,4.577636719E-3,1.708984375E-2,5.340576172E-3
3.358344915E0,5.798339844E-3,1.892089844E-2,6.561279297E-3
3.360664251E0,4.577636719E-3,1.586914062E-2,5.950927734E-3
3.362983586E0,5.798339844E-3,1.831054688E-2,6.561279297E-3
3.365333440E0,6.408691406E-3,1.831054688E-2,7.171630859E-3
3.367652776E0,2.136230469E-3,1.708984375E-2,8.392333984E-3
3.369972112E0,3.356933594E-3,1.647949219E-2,8.392333984E-3
3.372291448E0,4.577636719E-3,6.713867188E-3,7.781982422E-3
3.374641301E0,4.577636719E-3,1.098632812E-2,9.613037109E-3
3.376960637E0,2.746582031E-3,1.159667969E-2,1.083374023E-2
3.379310491E0,3.356933594E-3,1.281738281E-2,1.144409180E-2
3.381629827E0,3.967285156E-3,1.159667969E-2,9.002685547E-3
3.383949163E0,1.525878906E-3,6.713867188E-3,1.083374023E-2
3.386268499E0,1.525878906E-3,5.493164062E-3,1.266479492E-2
3.388618352E0,9.155273438E-4,4.882812500E-3,1.327514648E-2
3.390937688E0,2.136230469E-3,3.662109375E-3,1.449584961E-2
3.393257024E0,9.155273438E-4,7.324218750E-3,1.449584961E-2
3.395606878E0,3.051757812E-4,2.441406250E-3,1.449584961E-2
3.397926213E0,-9.155273438E-4,2.441406250E-3,1.449584961E-2
3.400245549E0,-9.155273438E-4,2.441406250E-3,1.571655273E-2
3.402595403E0,-3.051757812E-4,3.662109375E-3,1.571655273E-2
3.404914739E0,9.155273438E-4,6.713867188E-3,1.632690430E-2
3.407234075E0,-3.051757812E-4,3.051757812E-3,1.571655273E-2
3.409583928E0,-9.155273438E-4,6.713867188E-3,1.632690430E-2
3.411903264E0,-1.525878906E-3,1.220703125E-3,1.632690430E-2
3.414222600E0,-2.746582031E-3,6.103515625E-3,1.571655273E-2
3.416541936E0,-2.746582031E-3,7.934570312E-3,1.693725586E-2
3.418891790E0,-2.746582031E-3,7.934570312E-3,1.571655273E-2
3.421211126E0,-2.136230469E-3,8.544921875E-3,1.449584961E-2
3.423530461E0,-2.136230469E-3,6.103515625E-3,1.510620117E-2
3.425880315E0,-2.746582031E-3,7.324218750E-3,1.327514648E-2
3.428199651E0,-4.577636719E-3,6.103515625E-3,1.388549805E-2
3.430518987E0,-5.187988281E-3,5.493164062E-3,1.449584961E-2
3.432838323E0,-5.798339844E-3,8.544921875E-3,1.388549805E-2
3.435188176E0,-3.967285156E-3,7.324218750E-3,1.266479492E-2
3.437507512E0,-3.967285156E-3,-1.831054688E-3,1.205444336E-2
3.439857366E0,-4.577636719E-3,3.662109375E-3,1.327514648E-2
3.442176702E0,-4.577636719E-3,2.441406250E-3,1.388549805E-2
3.444496038E0,-7.019042969E-3,2.441406250E-3,1.327514648E-2
3.446815374E0,-7.629394531E-3,1.831054688E-3,1.388549805E-2
3.449165227E0,-7.019042969E-3,1.831054688E-3,1.449584961E-2
3.451484563E0,-8.850097656E-3,1.220703125E-3,1.388549805E-2
3.453803899E0,-8.239746094E-3,-6.713867188E-3,1.266479492E-2
3.456153753E0,-1.007080078E-2,1.831054688E-3,1.266479492E-2
3.458473088E0,-1.007080078E-2,0.000000000E0,1.388549805E-2
3.460792424E0,-8.850097656E-3,6.103515625E-4,1.266479492E-2
3.463142278E0,-8.850097656E-3,6.103515625E-4,1.327514648E-2
3.465461614E0,-9.460449219E-3,-1.220703125E-3,1.327514648E-2
3.467780950E0,-8.239746094E-3,-6.103515625E-4,1.388549805E-2
3.470130803E0,-1.007080078E-2,-1.220703125E-3,1.266479492E-2
3.472450139E0,-9.460449219E-3,-4.882812500E-3,1.144409180E-2
3.474769475E0,-9.460449219E-3,-4.272460938E-3,1.205444336E-2
3.477088811E0,-1.068115234E-2,6.103515625E-4,1.266479492E-2
3.479438665E0,-1.068115234E-2,-4.272460938E-3,1.205444336E-2
3.481758001E0,-1.129150391E-2,-1.220703125E-3,1.205444336E-2
3.484077336E0,-8.850097656E-3,-1.220703125E-3,1.144409180E-2
3.486427190E0,-1.007080078E-2,-4.882812500E-3,1.083374023E-2
3.488746526E0,-8.850097656E-3,-6.103515625E-3,1.022338867E-2
3.491065862E0,-7.629394531E-3,-5.493164062E-3,1.022338867E-2
3.493415715E0,-8.850097656E-3,3.051757812E-3,1.083374023E-2
3.495735051E0,-8.850097656E-3,-7.324218750E-3,1.022338867E-2
3.498054387E0,-7.629394531E-3,-7.934570312E-3,9.613037109E-3
3.500404241E0,-5.798339844E-3,-9.765625000E-3,1.022338867E-2
3.502754094E0,-8.239746094E-3,-6.103515625E-3,9.613037109E-3
3.505073430E0,-5.798339844E-3,-7.934570312E-3,9.613037109E-3
3.507392766E0,-5.187988281E-3,-7.324218750E-3,1.022338867E-2
3.509742620E0,-6.408691406E-3,-9.155273438E-3,9.002685547E-3
3.512061956E0,-3.967285156E-3,-1.220703125E-2,7.171630859E-3
3.514381292E0,-3.356933594E-3,-1.098632812E-2,7.171630859E-3
3.516731145E0,-3.356933594E-3,-9.155273438E-3,7.781982422E-3
3.519050481E0,-3.356933594E-3,-4.882812500E-3,7.781982422E-3
3.521369817E0,-2.136230469E-3,-6.103515625E-3,5.950927734E-3
3.523719670E0,-2.746582031E-3,-4.882812500E-3,5.340576172E-3
3.526039006E0,-3.356933594E-3,-6.713867188E-3,4.730224609E-3
3.528358342E0,-2.746582031E-3,-5.493164062E-3,5.950927734E-3
3.530677678E0,-1.525878906E-3,-4.272460938E-3,4.119873047E-3
3.533027532E0,-1.525878906E-3,-8.544921875E-3,3.509521484E-3
3.535346868E0,-3.967285156E-3,-4.882812500E-3,3.509521484E-3
3.537666204E0,-9.155273438E-4,-7.934570312E-3,4.730224609E-3
3.540016057E0,-2.746582031E-3,-5.493164062E-3,3.509521484E-3
3.542335393E0,-2.136230469E-3,-5.493164062E-3,3.509521484E-3
3.544654729E0,-1.525878906E-3,-4.882812500E-3,3.509521484E-3
3.547004583E0,-1.525878906E-3,-4.272460938E-3,2.288818359E-3
3.549323919E0,-9.155273438E-4,-5.493164062E-3,2.899169922E-3
3.551643254E0,-3.051757812E-4,-4.882812500E-3,2.288818359E-3
3.553993108E0,-3.051757812E-4,-6.103515625E-3,2.899169922E-3
3.556312444E0,-9.155273438E-4,-3.051757812E-3,1.068115234E-3
3.558631780E0,-9.155273438E-4,6.103515625E-4,1.068115234E-3
3.560951116E0,-9.155273438E-4,-6.103515625E-4,4.577636719E-4
3.563300969E0,3.051757812E-4,0.000000000E0,4.577636719E-4
3.565620305E0,-9.155273438E-4,1.831054688E-3,1.678466797E-3
3.567939641E0,3.051757812E-4,1.831054688E-3,1.068115234E-3
3.570289495E0,9.155273438E-4,1.831054688E-3,1.068115234E-3
3.572608831E0,3.051757812E-4,-3.662109375E-3,-7.629394531E-4
3.574928167E0,-3.051757812E-4,0.000000000E0,-1.525878906E-4
3.577278020E0,1.525878906E-3,-6.103515625E-4,-1.373291016E-3
3.579597356E0,9.155273438E-4,1.831054688E-3,-1.983642578E-3
3.581916692E0,2.136230469E-3,1.831054688E-3,-7.629394531E-4
3.584266545E0,3.967285156E-3,0.000000000E0,-7.629394531E-4
3.586585881E0,9.155273438E-4,6.103515625E-4,-1.983642578E-3
3.588905217E0,1.525878906E-3,-1.220703125E-3,-1.983642578E-3
3.591224553E0,9.155273438E-4,0.000000000E0,-1.373291016E-3
3.593574407E0,9.155273438E-4,-7.324218750E-3,-2.593994141E-3
3.595893743E0,9.155273438E-4,3.662109375E-3,-7.629394531E-4
3.598213079E0,3.051757812E-4,-3.051757812E-3,-1.983642578E-3
3.600562932E0,-3.051757812E-4,3.662109375E-3,-7.629394531E-4
3.602882268E0,-2.136230469E-3,-1.220703125E-3,1.068115234E-3
3.605201604E0,-9.155273438E-4,-3.662109375E-3,-1.525878906E-4
3.607551458E0,-2.136230469E-3,6.103515625E-4,4.577636719E-4
3.609870794E0,-3.967285156E-3,0.000000000E0,1.068115234E-3
3.612190129E0,-3.967285156E-3,0.000000000E0,-1.525878906E-4
3.614509465E0,-3.967285156E-3,-1.220703125E-3,-7.629394531E-4
3.616859319E0,-5.187988281E-3,3.051757812E-3,-1.525878906E-4
3.619178655E0,-5.187988281E-3,-2.441406250E-3,1.068115234E-3
3.621497991E0,-5.187988281E-3,6.103515625E-4,4.577636719E-4
3.623847844E0,-6.408691406E-3,6.103515625E-4,4.577636719E-4
3.626167180E0,-7.019042969E-3,3.662109375E-3,1.678466797E-3
3.628486516E0,-8.239746094E-3,0.000000000E0,2.288818359E-3
3.630805852E0,-8.850097656E-3,-1.220703125E-3,1.678466797E-3
3.633155706E0,-8.850097656E-3,3.662109375E-3,2.899169922E-3
3.635475042E0,-8.239746094E-3,-2.441406250E-3,2.899169922E-3
3.637824895E0,-1.007080078E-2,5.493164062E-3,3.509521484E-3
3.640144231E0,-8.850097656E-3,-1.831054688E-3,2.288818359E-3
3.642463567E0,-1.129150391E-2,6.103515625E-4,4.119873047E-3
3.644813420E0,-1.007080078E-2,1.831054688E-3,4.730224609E-3
3.647132756E0,-9.460449219E-3,0.000000000E0,4.119873047E-3
3.649452092E0,-1.007080078E-2,2.441406250E-3,4.119873047E-3
3.651771428E0,-9.460449219E-3,1.220703125E-3,4.730224609E-3
3.654121282E0,-1.007080078E-2,-3.662109375E-3,2.899169922E-3
3.656440618E0,-9.460449219E-3,2.441406250E-3,3.509521484E-3
3.658759954E0,-1.068115234E-2,3.051757812E-3,2.288818359E-3
3.661109807E0,-1.129150391E-2,6.103515625E-4,4.730224609E-3
3.663429143E0,-1.129150391E-2,3.662109375E-3,2.288818359E-3
3.665748479E0,-1.190185547E-2,3.051757812E-3,1.678466797E-3
3.668098333E0,-9.460449219E-3,4.882812500E-3,2.288818359E-3
3.670417669E0,-1.068115234E-2,2.441406250E-3,2.899169922E-3
3.672737004E0,-1.190185547E-2,-6.103515625E-4,1.678466797E-3
3.675056340E0,-1.068115234E-2,6.103515625E-4,1.678466797E-3
3.677406194E0,-1.068115234E-2,1.220703125E-3,1.068115234E-3
3.679725530E0,-1.190185547E-2,6.103515625E-4,1.068115234E-3
3.682044866E0,-1.007080078E-2,0.000000000E0,1.068115234E-3
3.684394719E0,-1.129150391E-2,1.220703125E-3,-1.525878906E-4
3.686714055E0,-1.251220703E-2,-1.831054688E-3,1.678466797E-3
3.689033391E0,-1.251220703E-2,-1.831054688E-3,1.678466797E-3
3.691383245E0,-1.190185547E-2,-4.272460938E-3,1.068115234E-3
3.693702581E0,-1.251220703E-2,-1.220703125E-3,-1.525878906E-4
3.696021917E0,-1.007080078E-2,-5.493164062E-3,-7.629394531E-4
3.698371770E0,-1.129150391E-2,-7.324218750E-3,-1.373291016E-3
3.700691106E0,-9.460449219E-3,-3.662109375E-3,-1.373291016E-3
3.703010442E0,-8.239746094E-3,-6.713867188E-3,-7.629394531E-4
3.705329778E0,-1.007080078E-2,-3.662109375E-3,-1.983642578E-3
3.707679631E0,-9.460449219E-3,-4.272460938E-3,-1.373291016E-3
3.709998967E0,-7.629394531E-3,-5.493164062E-3,-1.373291016E-3
3.712318303E0,-1.007080078E-2,-1.220703125E-3,-1.983642578E-3
3.714668157E0,-9.460449219E-3,-1.831054688E-3,-1.983642578E-3
3.716987493E0,-1.068115234E-2,-1.831054688E-3,-2.593994141E-3
3.719306829E0,-8.850097656E-3,-2.441406250E-3,-1.373291016E-3
3.721656682E0,-1.068115234E-2,-2.441406250E-3,-1.983642578E-3
3.723976018E0,-1.068115234E-2,-1.831054688E-3,-1.983642578E-3
3.726295354E0,-1.129150391E-2,-2.441406250E-3,-1.373291016E-3
3.728645208E0,-1.190185547E-2,-1.220703125E-3,-7.629394531E-4
3.730964544E0,-1.251220703E-2,-6.103515625E-4,-1.525878906E-4
3.733283879E0,-1.190185547E-2,-9.155273438E-3,4.577636719E-4
3.735603215E0,-1.373291016E-2,-3.662109375E-3,-1.525878906E-4
3.737953069E0,-1.373291016E-2,-7.934570312E-3,4.577636719E-4
3.740272405E0,-1.373291016E-2,-5.493164062E-3,4.577636719E-4
3.742591741E0,-1.556396484E-2,-8.544921875E-3,1.068115234E-3
3.744941594E0,-1.495361328E-2,-4.882812500E-3,1.068115234E-3
3.747260930E0,-1.678466797E-2,-8.544921875E-3,1.678466797E-3
3.749580266E0,-1.617431641E-2,-1.159667969E-2,1.068115234E-3
3.751899602E0,-1.617431641E-2,-7.934570312E-3,2.899169922E-3
3.754249456E0,-1.800537109E-2,-4.882812500E-3,3.509521484E-3
3.756568792E0,-1.678466797E-2,-9.155273438E-3,2.899169922E-3
3.758918645E0,-1.800537109E-2,-1.098632812E-2,1.678466797E-3
3.761237981E0,-1.800537109E-2,-1.037597656E-2,-1.525878906E-4
3.763557317E0,-1.800537109E-2,-1.037597656E-2,1.678466797E-3
3.765876653E0,-1.739501953E-2,-7.934570312E-3,2.899169922E-3
3.768226506E0,-1.739501953E-2,-7.934570312E-3,2.899169922E-3
3.770545842E0,-1.739501953E-2,-7.324218750E-3,2.288818359E-3
3.772865178E0,-1.922607422E-2,-1.342773438E-2,1.678466797E-3
3.775215032E0,-1.739501953E-2,-1.281738281E-2,1.678466797E-3
3.777534368E0,-1.617431641E-2,-6.103515625E-3,1.678466797E-3
3.779853704E0,-1.739501953E-2,-1.098632812E-2,2.288818359E-3
3.782203557E0,-1.678466797E-2,-4.272460938E-3,2.288818359E-3
3.784553411E0,-1.495361328E-2,-7.324218750E-3,1.678466797E-3
3.786872747E0,-1.495361328E-2,-3.662109375E-3,-1.525878906E-4
3.789192083E0,-1.617431641E-2,-4.272460938E-3,4.577636719E-4
3.791541936E0,-1.434326172E-2,-5.493164062E-3,-7.629394531E-4
3.793861272E0,-1.129150391E-2,-1.403808594E-2,-2.593994141E-3
3.796180608E0,-1.434326172E-2,6.103515625E-4,-1.983642578E-3
3.798530461E0,-1.251220703E-2,-3.662109375E-3,-3.814697266E-3
3.800849797E0,-1.251220703E-2,-1.220703125E-3,-4.425048828E-3
3.803169133E0,-1.251220703E-2,-6.103515625E-4,-3.814697266E-3
3.805518987E0,-1.190185547E-2,0.000000000E0,-5.645751953E-3
3.807838323E0,-1.312255859E-2,-6.103515625E-4,-5.035400391E-3
3.810157659E0,-1.129150391E-2,-1.220703125E-3,-6.256103516E-3
3.812476995E0,-1.251220703E-2,3.662109375E-3,-7.476806641E-3
3.814826848E0,-1.312255859E-2,2.441406250E-3,-8.697509766E-3
3.817146184E0,-1.190185547E-2,4.272460938E-3,-8.087158203E-3
3.819465520E0,-1.129150391E-2,-1.220703125E-3,-9.307861328E-3
3.821815374E0,-1.312255859E-2,2.441406250E-3,-8.087158203E-3
3.824134710E0,-1.190185547E-2,1.831054688E-3,-9.307861328E-3
3.826454045E0,-1.129150391E-2,6.103515625E-4,-9.307861328E-3
3.828803899E0,-1.251220703E-2,0.000000000E0,-9.307861328E-3
3.831123235E0,-1.251220703E-2,-6.103515625E-4,-7.476806641E-3
3.833442571E0,-1.312255859E-2,5.493164062E-3,-8.697509766E-3
3.835792424E0,-1.312255859E-2,-6.713867188E-3,-1.052856445E-2
3.838111760E0,-1.251220703E-2,0.000000000E0,-9.307861328E-3
3.840431096E0,-1.312255859E-2,-4.272460938E-3,-8.697509766E-3
3.842780950E0,-1.068115234E-2,-1.831054688E-3,-8.087158203E-3
3.845100286E0,-1.129150391E-2,-1.831054688E-3,-8.697509766E-3
3.847419622E0,-1.129150391E-2,-3.662109375E-3,-8.087158203E-3
3.849738958E0,-1.312255859E-2,-4.272460938E-3,-8.697509766E-3
3.852088811E0,-1.190185547E-2,-7.324218750E-3,-9.307861328E-3
3.854408147E0,-1.129150391E-2,-7.934570312E-3,-7.476806641E-3
3.856727483E0,-1.312255859E-2,-7.324218750E-3,-7.476806641E-3
3.859077336E0,-1.373291016E-2,-1.831054688E-3,-6.866455078E-3
3.861396672E0,-1.251220703E-2,-4.882812500E-3,-6.866455078E-3
3.863716008E0,-1.251220703E-2,-4.272460938E-3,-8.087158203E-3
3.866065862E0,-1.434326172E-2,-4.272460938E-3,-8.087158203E-3
3.868385198E0,-1.373291016E-2,-6.103515625E-3,-6.866455078E-3
3.870704534E0,-1.434326172E-2,-4.272460938E-3,-7.476806641E-3
3.873023870E0,-1.251220703E-2,-9.155273438E-3,-6.256103516E-3
3.875373723E0,-1.312255859E-2,-6.103515625E-3,-6.256103516E-3
3.877693059E0,-1.434326172E-2,-3.051757812E-3,-5.645751953E-3
3.880012395E0,-1.434326172E-2,-6.103515625E-3,-6.866455078E-3
3.882362249E0,-1.617431641E-2,-4.272460938E-3,-6.866455078E-3
3.884681585E0,-1.495361328E-2,-7.324218750E-3,-6.256103516E-3
3.887000920E0,-1.556396484E-2,-3.051757812E-3,-5.645751953E-3
3.889350774E0,-1.678466797E-2,-3.051757812E-3,-6.256103516E-3
3.891670110E0,-1.800537109E-2,0.000000000E0,-5.645751953E-3
3.893989446E0,-1.800537109E-2,2.441406250E-3,-5.645751953E-3
3.896339299E0,-1.739501953E-2,2.441406250E-3,-5.645751953E-3
3.898658635E0,-1.800537109E-2,0.000000000E0,-5.645751953E-3
3.900977971E0,-1.983642578E-2,3.051757812E-3,-5.035400391E-3
3.903327825E0,-1.739501953E-2,4.882812500E-3,-5.035400391E-3
3.905647161E0,-1.861572266E-2,3.662109375E-3,-5.645751953E-3
3.907966497E0,-1.922607422E-2,5.493164062E-3,-6.256103516E-3
3.910285833E0,-1.861572266E-2,6.713867188E-3,-5.035400391E-3
3.912635686E0,-1.861572266E-2,6.103515625E-4,-6.256103516E-3
3.914955022E0,-1.739501953E-2,5.493164062E-3,-8.087158203E-3
3.917274358E0,-1.739501953E-2,5.493164062E-3,-6.256103516E-3
3.919624211E0,-1.739501953E-2,3.051757812E-3,-5.645751953E-3
3.921943547E0,-1.922607422E-2,5.493164062E-3,-7.476806641E-3
3.924262883E0,-1.800537109E-2,3.662109375E-3,-7.476806641E-3
3.926612737E0,-1.617431641E-2,6.103515625E-3,-7.476806641E-3
3.928932073E0,-1.617431641E-2,4.882812500E-3,-6.256103516E-3
3.931251409E0,-1.739501953E-2,4.882812500E-3,-6.866455078E-3
3.933601262E0,-1.739501953E-2,1.281738281E-2,-5.035400391E-3
3.935920598E0,-1.434326172E-2,6.713867188E-3,-6.866455078E-3
3.938239934E0,-1.617431641E-2,3.662109375E-3,-6.256103516E-3
3.940559270E0,-1.556396484E-2,1.831054688E-3,-7.476806641E-3
3.942909124E0,-1.556396484E-2,6.713867188E-3,-6.256103516E-3
3.945228460E0,-1.373291016E-2,4.882812500E-3,-6.256103516E-3
3.947547795E0,-1.434326172E-2,4.272460938E-3,-8.087158203E-3
3.949897649E0,-1.434326172E-2,6.103515625E-3,-7.476806641E-3
3.952216985E0,-1.373291016E-2,7.934570312E-3,-6.866455078E-3
3.954536321E0,-1.495361328E-2,4.272460938E-3,-5.645751953E-3
3.956886174E0,-1.495361328E-2,4.272460938E-3,-6.866455078E-3
3.959205510E0,-1.312255859E-2,3.662109375E-3,-6.866455078E-3
3.961524846E0,-1.373291016E-2,3.662109375E-3,-6.866455078E-3
3.963874700E0,-1.495361328E-2,6.713867188E-3,-6.866455078E-3
3.966194036E0,-1.251220703E-2,4.882812500E-3,-6.256103516E-3
3.968513372E0,-1.312255859E-2,5.493164062E-3,-6.866455078E-3
3.970832708E0,-1.373291016E-2,5.493164062E-3,-6.866455078E-3
3.973182561E0,-1.312255859E-2,2.441406250E-3,-5.035400391E-3
3.975501897E0,-1.373291016E-2,6.103515625E-3,-5.645751953E-3
3.977821233E0,-1.434326172E-2,6.103515625E-4,-5.035400391E-3
3.980171086E0,-1.434326172E-2,3.051757812E-3,-5.645751953E-3
3.982490422E0,-1.312255859E-2,6.103515625E-4,-6.256103516E-3
3.984809758E0,-1.129150391E-2,1.831054688E-3,-5.645751953E-3
3.987159612E0,-1.190185547E-2,1.220703125E-3,-5.035400391E-3
3.989478948E0,-1.312255859E-2,-6.103515625E-4,-5.035400391E-3
3.991798284E0,-1.190185547E-2,0.000000000E0,-5.035400391E-3
3.994117620E0,-1.190185547E-2,-8.544921875E-3,-5.645751953E-3
3.996467473E0,-1.190185547E-2,6.103515625E-4,-5.645751953E-3
3.998786809E0,-1.251220703E-2,-3.051757812E-3,-5.035400391E-3
4.001106145E0,-1.129150391E-2,-3.662109375E-3,-6.256103516E-3
4.003455999E0,-1.068115234E-2,-4.272460938E-3,-6.866455078E-3
4.005775335E0,-1.312255859E-2,-3.662109375E-3,-5.645751953E-3
4.008094670E0,-1.190185547E-2,-3.051757812E-3,-6.256103516E-3
4.010444524E0,-1.251220703E-2,-4.882812500E-3,-6.256103516E-3
4.012763860E0,-1.190185547E-2,-6.713867188E-3,-7.476806641E-3
4.015083196E0,-1.251220703E-2,-6.713867188E-3,-6.256103516E-3
4.017433049E0,-1.434326172E-2,-3.662109375E-3,-8.087158203E-3
4.019752385E0,-1.312255859E-2,-7.324218750E-3,-8.087158203E-3
4.022071721E0,-1.434326172E-2,-6.103515625E-3,-8.087158203E-3
4.024391057E0,-1.434326172E-2,-6.713867188E-3,-8.697509766E-3
4.026740911E0,-1.556396484E-2,-9.155273438E-3,-8.697509766E-3
4.029060247E0,-1.678466797E-2,-1.037597656E-2,-8.697509766E-3
4.031379583E0,-1.678466797E-2,-1.220703125E-2,-9.307861328E-3
4.033729436E0,-1.739501953E-2,-1.281738281E-2,-9.307861328E-3
4.036048772E0,-1.861572266E-2,-1.586914062E-2,-8.087158203E-3
4.038368108E0,-1.678466797E-2,-1.037597656E-2,-9.307861328E-3
4.040717961E0,-1.617431641E-2,-1.464843750E-2,-9.307861328E-3
4.043037297E0,-1.800537109E-2,-1.464843750E-2,-9.307861328E-3
4.045356633E0,-1.861572266E-2,-1.342773438E-2,-9.307861328E-3
4.047706487E0,-1.861572266E-2,-1.647949219E-2,-9.307861328E-3
4.050025823E0,-1.922607422E-2,-1.586914062E-2,-9.307861328E-3
4.052345159E0,-1.739501953E-2,-2.136230469E-2,-1.052856445E-2
4.054664495E0,-1.983642578E-2,-1.464843750E-2,-9.307861328E-3
4.057014348E0,-1.861572266E-2,-2.014160156E-2,-9.918212891E-3
4.059333684E0,-1.922607422E-2,-1.647949219E-2,-9.918212891E-3
4.061653020E0,-1.861572266E-2,-1.953125000E-2,-1.052856445E-2
4.064002874E0,-1.800537109E-2,-2.075195312E-2,-1.052856445E-2
4.066322210E0,-1.861572266E-2,-1.831054688E-2,-1.052856445E-2
4.068641545E0,-1.678466797E-2,-2.075195312E-2,-1.174926758E-2
4.070991399E0,-1.739501953E-2,-2.075195312E-2,-1.052856445E-2
4.073341253E0,-1.617431641E-2,-2.441406250E-2,-1.296997070E-2
4.075660588E0,-1.556396484E-2,-2.319335938E-2,-1.358032227E-2
4.078010442E0,-1.495361328E-2,-2.319335938E-2,-1.174926758E-2
4.080329778E0,-1.495361328E-2,-2.319335938E-2,-1.235961914E-2
4.082649114E0,-1.190185547E-2,-2.014160156E-2,-1.235961914E-2
4.084968450E0,-1.373291016E-2,-2.380371094E-2,-1.296997070E-2
4.087318303E0,-1.190185547E-2,-2.258300781E-2,-1.296997070E-2
4.089637639E0,-1.129150391E-2,-2.319335938E-2,-1.235961914E-2
4.091956975E0,-1.129150391E-2,-1.953125000E-2,-1.419067383E-2
4.094306829E0,-1.068115234E-2,-2.868652344E-2,-1.419067383E-2
4.096626165E0,-8.850097656E-3,-1.770019531E-2,-1.419067383E-2
4.098945501E0,-9.460449219E-3,-2.136230469E-2,-1.541137695E-2
4.101295354E0,-7.629394531E-3,-1.525878906E-2,-1.541137695E-2
4.103614690E0,-7.629394531E-3,-1.953125000E-2,-1.541137695E-2
4.105934026E0,-8.850097656E-3,-1.892089844E-2,-1.663208008E-2
4.108253362E0,-7.629394531E-3,-1.831054688E-2,-1.663208008E-2
4.110603215E0,-7.019042969E-3,-2.136230469E-2,-1.602172852E-2
4.112922551E0,-7.629394531E-3,-2.258300781E-2,-1.663208008E-2
4.115241887E0,-7.019042969E-3,-2.319335938E-2,-1.663208008E-2
4.117591741E0,-4.577636719E-3,-1.464843750E-2,-1.785278320E-2
4.119911077E0,-3.967285156E-3,-2.014160156E-2,-1.663208008E-2
4.122230413E0,-7.019042969E-3,-1.831054688E-2,-1.602172852E-2
4.124580266E0,-4.577636719E-3,-2.075195312E-2,-1.663208008E-2
4.126899602E0,-4.577636719E-3,-2.197265625E-2,-1.663208008E-2
4.129218938E0,-6.408691406E-3,-1.892089844E-2,-1.724243164E-2
4.131568792E0,-5.798339844E-3,-2.136230469E-2,-1.602172852E-2
4.133888128E0,-5.798339844E-3,-9.765625000E-3,-1.663208008E-2
4.136207463E0,-5.798339844E-3,-1.770019531E-2,-1.602172852E-2
4.138557317E0,-4.577636719E-3,-1.525878906E-2,-1.663208008E-2
4.140876653E0,-4.577636719E-3,-2.014160156E-2,-1.663208008E-2
4.143195989E0,-3.967285156E-3,-1.586914062E-2,-1.663208008E-2
4.145515325E0,-3.356933594E-3,-1.403808594E-2,-1.602172852E-2
4.147865178E0,-3.356933594E-3,-1.403808594E-2,-1.602172852E-2
4.150184514E0,-3.967285156E-3,-1.525878906E-2,-1.663208008E-2
4.152503850E0,-4.577636719E-3,-1.708984375E-2,-1.724243164E-2
4.154853704E0,-4.577636719E-3,-1.525878906E-2,-1.724243164E-2
4.157173040E0,-3.967285156E-3,-1.586914062E-2,-1.602172852E-2
4.159492376E0,-5.798339844E-3,-1.037597656E-2,-1.602172852E-2
4.161842229E0,-6.408691406E-3,-1.281738281E-2,-1.602172852E-2
4.164161565E0,-6.408691406E-3,-9.765625000E-3,-1.724243164E-2
4.166480901E0,-5.798339844E-3,-1.342773438E-2,-1.663208008E-2
4.168800237E0,-5.798339844E-3,-1.342773438E-2,-1.846313477E-2
4.171150090E0,-5.798339844E-3,-1.098632812E-2,-1.724243164E-2
4.173469426E0,-6.408691406E-3,-1.525878906E-2,-1.724243164E-2
4.175788762E0,-5.798339844E-3,-1.525878906E-2,-1.602172852E-2
4.178138616E0,-3.967285156E-3,-1.953125000E-2,-1.663208008E-2
4.180457952E0,-6.408691406E-3,-1.770019531E-2,-1.602172852E-2
4.182777288E0,-5.798339844E-3,-1.708984375E-2,-1.602172852E-2
4.185127141E0,-3.967285156E-3,-1.831054688E-2,-1.785278320E-2
4.187446477E0,-5.187988281E-3,-1.708984375E-2,-1.541137695E-2
4.189765813E0,-4.577636719E-3,-1.708984375E-2,-1.541137695E-2
4.192115667E0,-4.577636719E-3,-1.953125000E-2,-1.419067383E-2
4.194435003E0,-3.967285156E-3,-1.525878906E-2,-1.419067383E-2
4.196754338E0,-3.967285156E-3,-2.197265625E-2,-1.480102539E-2
4.199073674E0,-3.967285156E-3,-1.403808594E-2,-1.480102539E-2
4.201423528E0,-3.356933594E-3,-1.831054688E-2,-1.358032227E-2
4.203742864E0,-3.356933594E-3,-2.014160156E-2,-1.541137695E-2
4.206062200E0,-4.577636719E-3,-1.403808594E-2,-1.419067383E-2
4.208412053E0,-2.746582031E-3,-1.342773438E-2,-1.358032227E-2
4.210731389E0,-2.746582031E-3,-7.324218750E-3,-1.480102539E-2
4.213050725E0,-2.746582031E-3,-1.037597656E-2,-1.419067383E-2
4.215400579E0,-3.356933594E-3,-6.713867188E-3,-1.296997070E-2
4.217719915E0,-3.967285156E-3,-2.441406250E-3,-1.296997070E-2
4.220039251E0,-3.356933594E-3,-7.934570312E-3,-1.480102539E-2
4.222389104E0,-5.187988281E-3,-3.051757812E-3,-1.480102539E-2
4.224708440E0,-4.577636719E-3,-1.831054688E-3,-1.358032227E-2
4.227027776E0,-5.187988281E-3,-3.662109375E-3,-1.358032227E-2
4.229347112E0,-6.408691406E-3,-2.441406250E-3,-1.358032227E-2
4.231696965E0,-3.967285156E-3,-3.662109375E-3,-1.296997070E-2
4.234016301E0,-4.577636719E-3,-9.765625000E-3,-1.358032227E-2
4.236335637E0,-7.019042969E-3,-6.713867188E-3,-1.480102539E-2
4.238685491E0,-5.798339844E-3,-7.934570312E-3,-1.358032227E-2
4.241004827E0,-7.019042969E-3,-5.493164062E-3,-1.296997070E-2
4.243324163E0,-5.798339844E-3,-6.103515625E-3,-1.358032227E-2
4.245674016E0,-7.629394531E-3,-7.324218750E-3,-1.235961914E-2
4.247993352E0,-8.850097656E-3,-9.155273438E-3,-1.296997070E-2
4.250312688E0,-7.629394531E-3,-9.155273438E-3,-1.235961914E-2
4.252632024E0,-8.850097656E-3,-1.098632812E-2,-1.174926758E-2
4.254981878E0,-1.068115234E-2,-9.765625000E-3,-1.174926758E-2
4.257301213E0,-8.850097656E-3,-9.155273438E-3,-1.296997070E-2
4.259620549E0,-1.007080078E-2,-1.159667969E-2,-1.235961914E-2
4.261970403E0,-9.460449219E-3,-9.155273438E-3,-1.113891602E-2
4.264289739E0,-1.007080078E-2,-1.403808594E-2,-1.174926758E-2
4.266609075E0,-1.068115234E-2,-9.155273438E-3,-1.052856445E-2
4.268958928E0,-1.007080078E-2,-1.159667969E-2,-1.174926758E-2
4.271278264E0,-8.850097656E-3,-1.037597656E-2,-1.174926758E-2
4.273597600E0,-1.007080078E-2,-1.098632812E-2,-1.296997070E-2
4.275947454E0,-1.068115234E-2,-1.220703125E-2,-1.235961914E-2
4.278266790E0,-9.460449219E-3,-1.220703125E-2,-1.113891602E-2
4.280586126E0,-9.460449219E-3,-1.220703125E-2,-1.235961914E-2
4.282905461E0,-1.129150391E-2,-1.037597656E-2,-1.296997070E-2
4.285255315E0,-1.007080078E-2,-1.220703125E-2,-1.358032227E-2
4.287574651E0,-8.850097656E-3,-1.098632812E-2,-1.113891602E-2
4.289893987E0,-8.850097656E-3,-1.342773438E-2,-1.174926758E-2
4.292243840E0,-8.239746094E-3,-1.525878906E-2,-1.235961914E-2
4.294563176E0,-8.239746094E-3,-2.258300781E-2,-1.235961914E-2
4.296882512E0,-7.629394531E-3,-1.342773438E-2,-1.113891602E-2
4.299232366E0,-8.850097656E-3,-1.464843750E-2,-1.052856445E-2
4.301551702E0,-7.629394531E-3,-1.708984375E-2,-9.918212891E-3
4.303871038E0,-7.629394531E-3,-1.342773438E-2,-1.052856445E-2
4.306220891E0,-7.019042969E-3,-1.464843750E-2,-9.307861328E-3
4.308540227E0,-6.408691406E-3,-1.403808594E-2,-9.307861328E-3
4.310859563E0,-7.019042969E-3,-1.281738281E-2,-8.697509766E-3
4.313178899E0,-5.187988281E-3,-1.647949219E-2,-9.307861328E-3
4.315528753E0,-7.019042969E-3,-1.464843750E-2,-7.476806641E-3
4.317848088E0,-6.408691406E-3,-8.544921875E-3,-8.087158203E-3
4.320167424E0,-5.798339844E-3,-1.220703125E-2,-8.697509766E-3
4.322517278E0,-5.798339844E-3,-6.103515625E-3,-8.087158203E-3
4.324836614E0,-6.408691406E-3,-9.155273438E-3,-8.697509766E-3
4.327155950E0,-5.187988281E-3,-7.934570312E-3,-8.087158203E-3
4.329505803E0,-6.408691406E-3,-7.324218750E-3,-8.697509766E-3
4.331825139E0,-6.408691406E-3,-8.544921875E-3,-9.918212891E-3
4.334144475E0,-7.629394531E-3,-1.831054688E-3,-1.052856445E-2
4.336494329E0,-5.798339844E-3,-1.037597656E-2,-1.113891602E-2
4.338813665E0,-6.408691406E-3,-9.155273438E-3,-1.235961914E-2
4.341133001E0,-7.629394531E-3,-4.882812500E-3,-1.235961914E-2
4.343452336E0,-6.408691406E-3,-8.544921875E-3,-1.235961914E-2
4.345802190E0,-8.239746094E-3,-6.103515625E-3,-1.358032227E-2
4.348121526E0,-7.629394531E-3,-8.544921875E-3,-1.358032227E-2
4.350440862E0,-5.798339844E-3,-6.713867188E-3,-1.541137695E-2
4.352790715E0,-7.629394531E-3,-1.342773438E-2,-1.541137695E-2
4.355110051E0,-6.408691406E-3,-1.281738281E-2,-1.602172852E-2
4.357459905E0,-7.629394531E-3,-1.281738281E-2,-1.602172852E-2
4.359809758E0,-7.019042969E-3,-1.037597656E-2,-1.602172852E-2
4.362129094E0,-3.967285156E-3,-1.281738281E-2,-1.724243164E-2
4.364448430E0,-7.019042969E-3,-1.281738281E-2,-1.663208008E-2
4.366798284E0,-5.798339844E-3,-7.934570312E-3,-1.907348633E-2
4.369117620E0,-5.187988281E-3,-9.155273438E-3,-1.785278320E-2
4.371436956E0,-6.408691406E-3,-4.882812500E-3,-1.968383789E-2
4.373756292E0,-3.356933594E-3,-2.441406250E-3,-2.151489258E-2
4.376106145E0,-6.408691406E-3,-6.103515625E-4,-2.273559570E-2
4.378425481E0,-3.356933594E-3,-4.882812500E-3,-2.395629883E-2
4.380744817E0,-4.577636719E-3,1.220703125E-3,-2.395629883E-2
4.383094670E0,-3.356933594E-3,3.051757812E-3,-2.395629883E-2
4.385414006E0,-9.155273438E-4,2.441406250E-3,-2.456665039E-2
4.387733342E0,3.051757812E-4,6.103515625E-3,-2.593994141E-2
4.390083196E0,2.136230469E-3,4.882812500E-3,-2.639770508E-2
4.392402532E0,3.356933594E-3,1.037597656E-2,-2.716064453E-2
4.394721868E0,4.577636719E-3,4.882812500E-3,-2.838134766E-2
4.397071721E0,6.408691406E-3,1.220703125E-2,-2.761840820E-2
4.399391057E0,6.408691406E-3,7.324218750E-3,-3.005981445E-2
4.401710393E0,5.798339844E-3,9.155273438E-3,-2.838134766E-2
4.404029729E0,8.850097656E-3,7.934570312E-3,-2.883911133E-2
4.406379583E0,7.629394531E-3,8.544921875E-3,-2.716064453E-2
4.408698919E0,7.019042969E-3,7.934570312E-3,-2.716064453E-2
4.411018254E0,7.019042969E-3,9.155273438E-3,-2.838134766E-2
4.413368108E0,8.239746094E-3,4.272460938E-3,-2.838134766E-2
4.415687444E0,6.408691406E-3,6.713867188E-3,-2.883911133E-2
4.418006780E0,4.577636719E-3,9.765625000E-3,-2.716064453E-2
4.420326116E0,4.577636719E-3,9.155273438E-3,-2.716064453E-2
4.422675969E0,2.136230469E-3,1.098632812E-2,-2.639770508E-2
4.424995305E0,-1.525878906E-3,7.934570312E-3,-2.639770508E-2
4.427314641E0,-3.356933594E-3,1.281738281E-2,-2.456665039E-2
4.429664495E0,-2.746582031E-3,7.324218750E-3,-2.456665039E-2
4.431983831E0,-6.408691406E-3,6.103515625E-3,-2.334594727E-2
4.434303167E0,-5.798339844E-3,-3.662109375E-3,-2.151489258E-2
4.436653020E0,-1.007080078E-2,6.713867188E-3,-2.090454102E-2
4.438972356E0,-1.373291016E-2,1.831054688E-3,-2.029418945E-2
4.441291692E0,-1.495361328E-2,5.493164062E-3,-1.846313477E-2
4.443641545E0,-1.800537109E-2,3.051757812E-3,-1.541137695E-2
4.445960881E0,-1.983642578E-2,1.220703125E-3,-1.358032227E-2
4.448280217E0,-2.288818359E-2,4.882812500E-3,-1.113891602E-2
4.450630071E0,-2.899169922E-2,1.220703125E-3,-8.697509766E-3
4.452949407E0,-3.204345703E-2,7.324218750E-3,-8.697509766E-3
4.455268743E0,-3.509521484E-2,6.103515625E-3,-4.425048828E-3
4.457618596E0,-3.570556641E-2,3.051757812E-3,-1.373291016E-3
4.459937932E0,-3.936767578E-2,3.051757812E-3,2.288818359E-3
4.462257268E0,-4.486083984E-2,2.441406250E-3,6.561279297E-3
4.464576604E0,-4.547119141E-2,3.662109375E-3,1.022338867E-2
4.466926458E0,-5.035400391E-2,3.051757812E-3,1.388549805E-2
4.469245794E0,-5.401611328E-2,3.051757812E-3,1.632690430E-2
4.471565129E0,-5.706787109E-2,3.051757812E-3,1.876831055E-2
4.473914983E0,-6.195068359E-2,7.324218750E-3,1.937866211E-2
4.476234319E0,-6.683349609E-2,6.103515625E-3,2.609252930E-2
4.478553655E0,-7.293701172E-2,3.662109375E-3,3.219604492E-2
4.480903508E0,-7.843017578E-2,1.831054688E-3,3.646850586E-2
4.483222844E0,-8.392333984E-2,0.000000000E0,4.013061523E-2
4.485542180E0,-9.201049805E-2,-5.493164062E-3,4.440307617E-2
4.487861516E0,-9.872436523E-2,-9.155273438E-3,4.745483398E-2
4.490211370E0,-1.072692871E-1,-1.281738281E-2,4.867553711E-2
4.492530706E0,-1.145935059E-1,-1.953125000E-2,5.172729492E-2
4.494850042E0,-1.213073730E-1,-2.746582031E-2,5.416870117E-2
4.497199895E0,-1.298522949E-1,-2.441406250E-2,5.661010742E-2
4.499519231E0,-1.383972168E-1,-2.624511719E-2,5.844116211E-2
4.501838567E0,-1.469421387E-1,-3.051757812E-2,6.027221680E-2
4.504188420E0,-1.530456543E-1,-3.356933594E-2,6.149291992E-2
4.506507756E0,-1.634216309E-1,-3.723144531E-2,6.393432617E-2
4.508827092E0,-1.707458496E-1,-3.967285156E-2,6.698608398E-2
4.511176946E0,-1.774597168E-1,-4.089355469E-2,6.637573242E-2
4.513496282E0,-1.866149902E-1,-3.906250000E-2,6.820678711E-2
4.515815618E0,-1.939392090E-1,-3.784179688E-2,7.064819336E-2
4.518134954E0,-2.006530762E-1,-4.150390625E-2,7.064819336E-2
4.520484807E0,-2.067565918E-1,-4.150390625E-2,7.186889648E-2
4.522804143E0,-2.128601074E-1,-3.967285156E-2,7.247924805E-2
4.525123479E0,-2.153015137E-1,-3.906250000E-2,7.369995117E-2
4.527473333E0,-2.214050293E-1,-4.089355469E-2,7.553100586E-2
4.529792669E0,-2.238464355E-1,-3.540039062E-2,7.431030273E-2
4.532112004E0,-2.311706543E-1,-3.784179688E-2,7.614135742E-2
4.534461858E0,-2.317810059E-1,-3.540039062E-2,7.614135742E-2
4.536781194E0,-2.354431152E-1,-3.417968750E-2,7.736206055E-2
4.539100530E0,-2.391052246E-1,-3.356933594E-2,7.797241211E-2
4.541450383E0,-2.403259277E-1,-2.868652344E-2,7.919311523E-2
4.543769719E0,-2.427673340E-1,-2.868652344E-2,7.980346680E-2
4.546089055E0,-2.482604980E-1,-2.746582031E-2,8.224487305E-2
4.548408391E0,-2.476501465E-1,-2.502441406E-2,8.224487305E-2
4.550758245E0,-2.507019043E-1,-2.746582031E-2,8.285522461E-2
4.553077581E0,-2.507019043E-1,-2.441406250E-2,8.651733398E-2
4.555396917E0,-2.525329590E-1,-2.685546875E-2,8.651733398E-2
4.557746770E0,-2.537536621E-1,-1.892089844E-2,9.078979492E-2
4.560066106E0,-2.555847168E-1,-2.197265625E-2,9.445190430E-2
4.562385442E0,-2.561950684E-1,-1.525878906E-2,9.750366211E-2
4.564735295E0,-2.580261230E-1,-1.586914062E-2,9.933471680E-2
4.567054631E0,-2.604675293E-1,-1.586914062E-2,1.029968262E-1
4.569373967E0,-2.598571777E-1,-7.324218750E-3,1.048278809E-1
4.571693303E0,-2.604675293E-1,-1.525878906E-2,1.060485840E-1
4.574043157E0,-2.598571777E-1,-8.544921875E-3,1.072692871E-1
4.576362493E0,-2.610778809E-1,-1.281738281E-2,1.115417480E-1
4.578681829E0,-2.622985840E-1,-6.713867188E-3,1.133728027E-1
4.581031682E0,-2.616882324E-1,-4.882812500E-3,1.145935059E-1
4.583351018E0,-2.622985840E-1,-1.831054688E-3,1.164245605E-1
4.585670354E0,-2.641296387E-1,1.220703125E-3,1.152038574E-1
4.588020208E0,-2.616882324E-1,3.051757812E-3,1.164245605E-1
4.590339544E0,-2.636718750E-1,7.934570312E-3,1.164245605E-1
4.592658879E0,-2.641296387E-1,1.281738281E-2,1.164245605E-1
4.595008733E0,-2.636718750E-1,8.544921875E-3,1.145935059E-1
4.597328069E0,-2.629089355E-1,1.770019531E-2,1.152038574E-1
4.599647405E0,-2.653503418E-1,1.586914062E-2,1.133728027E-1
4.601966741E0,-2.673339844E-1,1.953125000E-2,1.121520996E-1
4.604316594E0,-2.697753906E-1,2.258300781E-2,1.115417480E-1
4.606635930E0,-2.722167969E-1,2.746582031E-2,1.091003418E-1
4.608955266E0,-2.740478516E-1,3.051757812E-2,1.060485840E-1
4.611305120E0,-2.770996094E-1,3.356933594E-2,1.060485840E-1
4.613624456E0,-2.807617188E-1,2.929687500E-2,1.054382324E-1
4.615943792E0,-2.856445312E-1,3.173828125E-2,1.060485840E-1
4.618293645E0,-2.911376953E-1,3.662109375E-2,1.048278809E-1
4.620612981E0,-2.947998047E-1,3.234863281E-2,1.042175293E-1
4.622932317E0,-3.009033203E-1,3.234863281E-2,1.048278809E-1
4.625282170E0,-3.063964844E-1,3.112792969E-2,1.066589355E-1
4.627601506E0,-3.100585938E-1,2.868652344E-2,1.072692871E-1
4.629920842E0,-3.167724609E-1,2.685546875E-2,1.084899902E-1
4.632270696E0,-3.210449219E-1,2.929687500E-2,1.109313965E-1
4.634590032E0,-3.265380859E-1,3.173828125E-2,1.121520996E-1
4.636909368E0,-3.289794922E-1,1.586914062E-2,1.152038574E-1
4.639228704E0,-3.344726562E-1,1.586914062E-2,1.176452637E-1
4.641578557E0,-3.393554688E-1,7.324218750E-3,1.194763184E-1
4.643928411E0,-3.442382812E-1,1.220703125E-3,1.243591309E-1
4.646247747E0,-3.479003906E-1,-7.934570312E-3,1.274108887E-1
4.648597600E0,-3.527832031E-1,-1.770019531E-2,1.335144043E-1
4.650916936E0,-3.582763672E-1,-2.563476562E-2,1.390075684E-1
4.653236272E0,-3.613281250E-1,-2.563476562E-2,1.446533203E-1
4.655586126E0,-3.649902344E-1,-3.295898438E-2,1.513671875E-1
4.657905461E0,-3.686523438E-1,-4.821777344E-2,1.550292969E-1
4.660224797E0,-3.723144531E-1,-6.042480469E-2,1.605224609E-1
4.662544133E0,-3.753662109E-1,-7.080078125E-2,1.702880859E-1
4.664893987E0,-3.784179688E-1,-7.812500000E-2,1.782226562E-1
4.667213323E0,-3.820800781E-1,-8.728027344E-2,1.843261719E-1
4.669532659E0,-3.869628906E-1,-9.033203125E-2,1.910400391E-1
4.671882512E0,-3.912353516E-1,-9.460449219E-2,1.953125000E-1
4.674201848E0,-3.900146484E-1,-1.031494141E-1,1.989746094E-1
4.676521184E0,-3.900146484E-1,-1.055908203E-1,2.026367188E-1
4.678871038E0,-3.918457031E-1,-1.086425781E-1,2.069091797E-1
4.681190374E0,-3.936767578E-1,-1.104736328E-1,2.087402344E-1
4.683509710E0,-3.961181641E-1,-1.110839844E-1,2.130126953E-1
4.685859563E0,-4.022216797E-1,-1.074218750E-1,2.160644531E-1
4.688178899E0,-4.022216797E-1,-1.062011719E-1,2.185058594E-1
4.690498235E0,-4.028320312E-1,-9.826660156E-2,2.203369141E-1
4.692817571E0,-4.064941406E-1,-9.521484375E-2,2.221679688E-1
4.695167424E0,-4.064941406E-1,-8.422851562E-2,2.264404297E-1
4.697486760E0,-4.089355469E-1,-8.117675781E-2,2.294921875E-1
4.699806096E0,-4.113769531E-1,-7.080078125E-2,2.294921875E-1
4.702155950E0,-4.156494141E-1,-5.615234375E-2,2.325439453E-1
4.704475286E0,-4.187011719E-1,-5.615234375E-2,2.374267578E-1
4.706794622E0,-4.254150391E-1,-4.577636719E-2,2.404785156E-1
4.709144475E0,-4.309082031E-1,-3.784179688E-2,2.435302734E-1
4.711463811E0,-4.394531250E-1,-2.746582031E-2,2.435302734E-1
4.713783147E0,-4.463195801E-1,-1.647949219E-2,2.441406250E-1
