"Time (s)","Acceleration x (m/s^2)","Acceleration y (m/s^2)","Acceleration z (m/s^2)"
9.957671000E-3,-1.993221283E0,6.503093719E0,6.780063152E0
1.992923400E-2,-1.677368641E0,6.340381622E0,6.923632145E0
2.242209800E-2,-1.730010748E0,6.364310265E0,6.928418159E0
2.491496300E-2,-1.734796405E0,6.335596085E0,6.808776855E0
2.737902500E-2,-1.634297848E0,6.028716564E0,6.353542328E0
2.987194200E-2,-1.518844128E0,5.017749310E0,5.246861935E0
3.236485900E-2,-1.730010748E0,5.434698582E0,6.085546017E0
3.485772300E-2,-1.878365755E0,5.559125423E0,6.123831272E0
3.735058800E-2,-2.237887383E0,5.262415409E0,5.654240131E0
3.985163000E-2,-2.036292076E0,5.501697540E0,5.831308842E0
4.234454600E-2,-1.801795483E0,5.842076302E0,5.821737289E0
4.483741100E-2,-1.720439434E0,6.105287075E0,5.539384365E0
4.733032700E-2,-1.562513232E0,6.354738712E0,5.400002480E0
4.982319200E-2,-1.442273855E0,6.594020844E0,5.434100151E0
5.231605700E-2,-1.360917926E0,6.689733982E0,5.423930645E0
5.480897300E-2,-1.212562919E0,6.732804775E0,5.520241737E0
5.730183800E-2,-1.150349498E0,6.732804775E0,5.778666496E0
5.979475500E-2,-1.107278705E0,6.718447685E0,5.941378593E0
6.228761900E-2,-1.059422255E0,6.632306099E0,6.018547058E0
6.478053600E-2,-1.083350420E0,6.608377934E0,6.147759438E0
6.727340000E-2,-1.078564763E0,6.493522644E0,6.281757832E0
6.973663000E-2,-1.112064362E0,6.402595043E0,6.348756790E0
7.222949400E-2,-1.174277663E0,6.263213158E0,6.367899418E0
7.472241100E-2,-1.265205026E0,6.143572330E0,6.415755749E0
7.721527500E-2,-1.279561877E0,5.966503143E0,6.434898376E0
7.970819200E-2,-1.341775298E0,5.808577061E0,6.410970211E0
8.220105700E-2,-1.356132269E0,5.721837044E0,6.425326824E0
8.469397300E-2,-1.308275819E0,5.654838085E0,6.439683914E0
8.718683800E-2,-1.303490162E0,5.673980713E0,6.377470493E0
8.967975500E-2,-1.265205026E0,5.688337803E0,6.415755749E0
9.217261900E-2,-1.231705427E0,5.726622581E0,6.401398659E0
9.466548400E-2,-1.207777262E0,5.765506268E0,6.434898376E0
9.715840000E-2,-1.116850019E0,5.775077343E0,6.507281303E0
9.966048400E-2,-1.011565804E0,5.760720730E0,6.526423931E0
1.021533480E-1,-9.439685345E-1,5.822933674E0,6.598208427E0
1.046462650E-1,-9.678967595E-1,5.813362598E0,6.631708145E0
1.071391300E-1,-9.822536707E-1,5.789434433E0,6.679564476E0
1.096320460E-1,-1.049850941E0,5.755934715E0,6.784848690E0
1.121249110E-1,-1.088136077E0,5.726622581E0,6.909275532E0
1.146178270E-1,-1.155135155E0,5.731408596E0,7.067800045E0
1.171106920E-1,-1.231705427E0,5.697908878E0,7.125227451E0
1.196035570E-1,-1.370489120E0,5.669195175E0,7.302296638E0
1.220964730E-1,-1.442273855E0,5.630909920E0,7.383652687E0
1.245893380E-1,-1.557727575E0,5.563910961E0,7.455437183E0
1.270822550E-1,-1.663011789E0,5.520840168E0,7.609176159E0
1.295757440E-1,-1.730010748E0,5.453841209E0,7.642675400E0
1.320686090E-1,-1.744367719E0,5.444269657E0,7.719245911E0
1.345615250E-1,-1.725225091E0,5.401198864E0,7.762316704E0
1.370543900E-1,-1.706082582E0,5.377270699E0,7.771887779E0
1.395473070E-1,-1.706082582E0,5.386841774E0,7.810173035E0
1.420401710E-1,-1.706082582E0,5.353342533E0,7.824530125E0
1.445330880E-1,-1.667797327E0,5.257629395E0,7.915457249E0
1.470259520E-1,-1.586441398E0,5.123033047E0,8.030312538E0
1.495188690E-1,-1.494915962E0,5.032105923E0,7.987242222E0
1.520117340E-1,-1.461416483E0,4.950749874E0,7.867600918E0
1.545045980E-1,-1.456630826E0,4.821537495E0,7.819744587E0
1.569975150E-1,-1.494915962E0,4.807180882E0,7.743174076E0
1.594844940E-1,-1.523629785E0,4.759324074E0,7.700103283E0
1.619773590E-1,-1.572084427E0,4.634299278E0,7.666603565E0
1.644702750E-1,-1.639083505E0,4.591228485E0,7.719245911E0
1.669631400E-1,-1.696511269E0,4.457230568E0,7.757531166E0
1.694560570E-1,-1.624726534E0,4.280161381E0,7.738388538E0
1.719489210E-1,-1.494915962E0,4.088137627E0,7.805387497E0
1.744418380E-1,-1.255633712E0,3.944568157E0,7.791030407E0
1.769347020E-1,-1.088136077E0,3.877569199E0,7.805387497E0
1.794276190E-1,-8.482556343E-1,3.757927895E0,7.853243828E0
1.819204840E-1,-6.137589812E-1,3.710071564E0,7.786244869E0
1.844133480E-1,-3.930211067E-1,3.628715515E0,7.752745152E0
1.869062650E-1,-1.776670814E-1,3.589832067E0,7.719245911E0
1.894128270E-1,-2.931207791E-2,3.565903902E0,7.633104324E0
1.919056920E-1,5.682953820E-2,3.537189960E0,7.498507977E0
1.943986090E-1,1.387837082E-1,3.608974695E0,7.359724045E0
1.968914730E-1,1.818545163E-1,3.695714474E0,7.182655334E0
1.993843900E-1,2.009970993E-1,3.786641836E0,7.014559746E0
2.018772550E-1,1.435693651E-1,3.877569199E0,6.866204739E0
2.043701710E-1,2.333002165E-2,4.006781578E0,6.717849731E0
2.068630360E-1,-1.058823988E-1,4.131208420E0,6.703492641E0
2.093559520E-1,-3.020938635E-1,4.275375843E0,6.703492641E0
2.118488170E-1,-4.749752879E-1,4.418945312E0,6.741777897E0
2.143416820E-1,-6.424728632E-1,4.476373196E0,6.827919483E0
2.168345980E-1,-7.908278704E-1,4.557728767E0,6.990631580E0
2.193122020E-1,-9.391828775E-1,4.653441906E0,7.144370079E0
2.218050670E-1,-1.102493048E0,4.811966419E0,7.287939548E0
2.242979840E-1,-1.236491084E0,4.950749874E0,7.412366390E0
2.267908480E-1,-1.327418327E0,5.084748268E0,7.541578770E0
2.292837650E-1,-1.475773335E0,5.194818020E0,7.575676441E0
2.317766300E-1,-1.600798368E0,5.286343575E0,7.637889862E0
2.342695460E-1,-1.682154298E0,5.315057278E0,7.800601959E0
2.367624110E-1,-1.720439434E0,5.291129112E0,7.920242786E0
2.392553270E-1,-1.806581140E0,5.267200947E0,7.968099594E0
2.417481920E-1,-1.864008784E0,5.166104317E0,7.925028801E0
2.442410570E-1,-1.854437590E0,5.070391178E0,8.006384850E0
2.467339730E-1,-1.931007862E0,4.936393261E0,8.030312538E0
2.492280880E-1,-1.921436548E0,4.797609329E0,8.044670105E0
2.517209520E-1,-1.940579176E0,4.634299278E0,8.073383331E0
2.542138690E-1,-1.878365755E0,4.552943230E0,8.169694901E0
2.567067340E-1,-1.797009826E0,4.447659016E0,8.188837051E0
2.591996500E-1,-1.696511269E0,4.371088982E0,8.222336769E0
2.616925150E-1,-1.591227055E0,4.385445595E0,8.298907280E0
2.641854320E-1,-1.480558991E0,4.418945312E0,8.318049431E0
2.666782960E-1,-1.365703583E0,4.476373196E0,8.380263329E0
2.691712130E-1,-1.279561877E0,4.490729809E0,8.385048866E0
2.716640770E-1,-1.246062398E0,4.538586140E0,8.385048866E0
2.741569420E-1,-1.188634634E0,4.543372154E0,8.389834404E0
2.766498590E-1,-1.116850019E0,4.548157692E0,8.298907280E0
2.791439210E-1,-1.064207911E0,4.581656933E0,8.198408127E0
2.816367860E-1,-1.054636598E0,4.557728767E0,8.145766258E0
2.841297020E-1,-1.073779106E0,4.529015064E0,8.020741463E0
2.866225670E-1,-1.102493048E0,4.476373196E0,7.910671711E0
2.891154840E-1,-1.135992527E0,4.524229527E0,7.824530125E0
2.916083480E-1,-1.193420291E0,4.572085857E0,7.728816986E0
2.941012650E-1,-1.222134113E0,4.576871395E0,7.642675400E0
2.965941300E-1,-1.260419369E0,4.610371113E0,7.560721397E0
2.990870460E-1,-1.298704505E0,4.721039295E0,7.445865631E0
3.015799110E-1,-1.360917926E0,4.859822750E0,7.283154011E0
3.040727750E-1,-1.399203062E0,4.984249592E0,7.077371120E0
3.065656920E-1,-1.504487276E0,5.190032482E0,6.928418159E0
3.090531920E-1,-1.562513232E0,5.324628353E0,6.990631580E0
3.115460570E-1,-1.878365755E0,5.271986485E0,7.287939548E0
3.140389730E-1,-2.529811859E0,5.238486767E0,7.240083218E0
3.165318380E-1,-2.841476917E0,5.070391178E0,7.240083218E0
3.190247550E-1,-2.582453728E0,4.792823792E0,7.043871880E0
3.215176190E-1,-1.907079697E0,4.433301926E0,6.842276573E0
3.240105360E-1,-1.059422255E0,4.006781578E0,6.832705021E0
3.265034000E-1,-1.298106313E-1,3.686143398E0,6.928418159E0
3.289963170E-1,5.264210105E-1,3.796213150E0,6.961917400E0
3.314891820E-1,7.088736892E-1,4.275375843E0,7.043871880E0
3.339820460E-1,6.466603279E-1,4.576871395E0,7.302296638E0
3.364749630E-1,3.062812984E-1,4.711467743E0,7.512865067E0
3.389736090E-1,-1.298106313E-1,4.740181446E0,7.594819069E0
3.414664730E-1,-5.898307562E-1,4.730610371E0,7.623532772E0
3.439593900E-1,-9.678967595E-1,4.706682205E0,7.585247993E0
3.464522550E-1,-1.303490162E0,4.687539577E0,7.450651646E0
3.489451710E-1,-1.494915962E0,4.749752998E0,7.206583500E0
3.514380360E-1,-1.619940877E0,4.773681164E0,6.952346325E0
3.539309520E-1,-1.773081541E0,4.898108006E0,6.631708145E0
3.564238170E-1,-1.974078655E0,5.094319344E0,6.410970211E0
3.589167340E-1,-2.137388945E0,5.233701229E0,6.444469452E0
3.614095980E-1,-2.257030010E0,5.310271740E0,6.439683914E0
3.639024630E-1,-2.314457655E0,5.300700188E0,6.458826542E0
3.663953800E-1,-2.395813704E0,5.262415409E0,6.410970211E0
3.688826710E-1,-2.477169752E0,5.175675392E0,6.458826542E0
3.713755360E-1,-2.481955290E0,5.118247509E0,6.487540245E0
3.738684520E-1,-2.529811859E0,4.984249592E0,6.550352097E0
3.763613170E-1,-2.510669231E0,4.811966419E0,6.598208427E0
3.788542340E-1,-2.558525562E0,4.687539577E0,6.689135551E0
3.813470980E-1,-2.616551638E0,4.548157692E0,6.722635269E0
3.838400150E-1,-2.626122952E0,4.423730850E0,6.646064758E0
3.863328800E-1,-2.640479803E0,4.380660057E0,6.583851337E0
3.888257960E-1,-2.635694027E0,4.404588223E0,6.593422890E0
3.913186610E-1,-2.616551638E0,4.399802685E0,6.665207386E0
3.938115250E-1,-2.572882652E0,4.404588223E0,6.760920525E0
3.963044420E-1,-2.481955290E0,4.366302967E0,6.847062111E0
3.988034520E-1,-2.419741869E0,4.337589264E0,6.976274490E0
4.012963170E-1,-2.347957134E0,4.237090588E0,7.134799004E0
4.037892340E-1,-2.271386862E0,4.116851330E0,7.230511665E0
4.062820980E-1,-2.266601324E0,4.064209461E0,7.283154011E0
4.087750150E-1,-2.170888424E0,4.068994999E0,7.398009300E0
4.112678800E-1,-2.055434704E0,4.102494240E0,7.590033531E0
4.137607960E-1,-1.940579176E0,4.121636868E0,7.834101200E0
4.162536610E-1,-1.978864312E0,4.116851330E0,8.150551796E0
4.187465770E-1,-2.228316069E0,4.107280254E0,8.533403397E0
4.212394420E-1,-2.683550596E0,4.256233215E0,8.859425545E0
4.237323070E-1,-3.234498024E0,4.643870354E0,9.946963310E0
4.262252230E-1,-3.881158352E0,5.477769375E0,1.264905834E1
4.287135050E-1,-4.317250252E0,6.584449768E0,1.537508202E1
4.312063690E-1,-4.360321045E0,6.728019238E0,1.436411476E1
4.336992860E-1,-4.408177376E0,6.210571289E0,1.208854008E1
4.361921500E-1,-4.460819721E0,5.803791523E0,1.105364418E1
4.386850670E-1,-4.484747887E0,5.477769375E0,1.064148045E1
4.411779320E-1,-4.475176334E0,5.175675392E0,1.032084274E1
4.436708480E-1,-4.288536549E0,4.826323509E0,1.015274620E1
4.461637130E-1,-3.948157310E0,4.615156651E0,1.006660461E1
4.486566300E-1,-3.631706476E0,4.476373196E0,9.970891953E0
4.511494940E-1,-3.248854876E0,4.328018188E0,9.975677490E0
4.536423590E-1,-2.846262455E0,4.140779495E0,9.879964828E0
4.561352750E-1,-2.405385017E0,3.815355778E0,9.549157143E0
4.586277230E-1,-1.945364833E0,3.537189960E0,9.122636795E0
4.611205880E-1,-1.557727575E0,3.302693367E0,8.734998703E0
4.636135050E-1,-1.260419369E0,3.116053343E0,8.380263329E0
4.661063690E-1,-1.073779106E0,2.986242771E0,7.996813297E0
4.685992860E-1,-9.056833982E-1,2.947957516E0,7.652246952E0
4.710921500E-1,-7.094719410E-1,2.957528830E0,7.546364307E0
4.735850670E-1,-6.568298340E-1,3.034099102E0,7.321439266E0
4.760779320E-1,-5.802595019E-1,3.072384357E0,7.144370079E0
4.785708480E-1,-6.329016089E-1,3.297907829E0,6.885347366E0
4.810637130E-1,-7.668996453E-1,3.628715515E0,6.741777897E0
4.835565770E-1,-9.391828775E-1,3.901497364E0,6.564708710E0
4.860494940E-1,-1.231705427E0,4.198805332E0,6.367899418E0
4.885452230E-1,-1.576870084E0,4.562514782E0,6.257829189E0
4.910380880E-1,-2.055434704E0,4.936393261E0,6.291328907E0
4.935310050E-1,-2.496312141E0,5.353342533E0,6.233901024E0
4.960238690E-1,-2.846262455E0,5.712265968E0,6.171687603E0
4.985167860E-1,-3.075973511E0,5.966503143E0,6.291328907E0
5.010096500E-1,-3.263211966E0,6.157928944E0,6.396613121E0
5.035025670E-1,-3.435495138E0,6.224927902E0,6.535995007E0
5.059954320E-1,-3.574278831E0,6.267998695E0,6.722635269E0
5.084883480E-1,-3.669991732E0,6.272784710E0,6.957131863E0
5.109812130E-1,-3.761517286E0,6.263213158E0,7.043871880E0
5.134740770E-1,-3.938585997E0,6.258427620E0,7.130013466E0
5.159669940E-1,-4.067798615E0,6.253642082E0,7.201797962E0
5.184584520E-1,-4.158725739E0,6.229713917E0,7.441080093E0
5.209513170E-1,-4.120440483E0,6.114858150E0,7.685746193E0
5.234442340E-1,-4.110869408E0,6.105287075E0,7.445865631E0
5.259370980E-1,-4.255036831E0,6.067001820E0,7.594819069E0
5.284300150E-1,-4.153940201E0,5.889933109E0,8.179265976E0
5.309228800E-1,-3.981656790E0,5.803791523E0,8.318049431E0
5.334157960E-1,-3.871587038E0,5.745765209E0,8.284550667E0
5.359086610E-1,-3.818944931E0,5.669195175E0,8.145766258E0
5.384015770E-1,-3.718446493E0,5.760720730E0,7.724031448E0
5.408944420E-1,-3.674777269E0,5.784648895E0,7.240083218E0
5.433873070E-1,-3.497708559E0,5.827719688E0,6.722635269E0
5.458802230E-1,-3.325425386E0,5.779862881E0,6.281757832E0
5.483722020E-1,-3.181855917E0,5.775077343E0,5.941378593E0
5.508650670E-1,-3.013760090E0,5.803791523E0,5.606383324E0
5.533579320E-1,-2.946761131E0,5.779862881E0,5.208576679E0
5.558507960E-1,-2.980260611E0,5.659623623E0,4.791627407E0
5.583436090E-1,-3.181855917E0,5.324628353E0,4.408775806E0
5.608364730E-1,-3.454637766E0,4.993820667E0,3.963112593E0
5.633293380E-1,-3.607778311E0,4.788038254E0,3.728017569E0
5.658222020E-1,-3.622135162E0,4.744967461E0,3.483949661E0
5.683150670E-1,-3.559921980E0,4.788038254E0,3.239283562E0
5.708079320E-1,-3.449851990E0,4.811966419E0,3.177070379E0
5.733007960E-1,-3.229712248E0,4.754538536E0,3.157927752E0
5.757936610E-1,-3.018545866E0,4.802394867E0,3.234498024E0
5.782849630E-1,-2.760120869E0,4.888536453E0,3.436093330E0
5.807778270E-1,-2.558525562E0,4.979464054E0,4.164109707E0
5.832706400E-1,-2.328814745E0,5.051248550E0,5.213362217E0
5.857635570E-1,-2.170888424E0,5.194818020E0,6.291328907E0
5.882563690E-1,-2.065006018E0,5.338985443E0,7.149155617E0
5.907492340E-1,-2.103889227E0,5.425127029E0,7.359724045E0
5.932420980E-1,-2.405385017E0,5.386841774E0,7.048657417E0
5.957349630E-1,-2.865405083E0,5.334199905E0,6.622136593E0
5.982278270E-1,-3.406781197E0,5.219344616E0,6.665207386E0
6.007206920E-1,-3.924229145E0,5.099104881E0,7.067800045E0
6.032135570E-1,-4.518247128E0,5.008177757E0,7.666603565E0
6.057064210E-1,-5.035695076E0,4.845465660E0,8.375477791E0
6.082099630E-1,-5.514857769E0,4.672584534E0,8.935996056E0
6.107028270E-1,-5.994020939E0,4.576871395E0,9.252447128E0
6.131956920E-1,-6.247660160E0,4.332803726E0,9.812965393E0
6.156885570E-1,-6.521039963E0,4.208376884E0,1.015753174E1
6.181813690E-1,-6.841678143E0,4.160520554E0,1.040698433E1
6.206742340E-1,-7.196413994E0,4.203591347E0,1.071805096E1
6.231670980E-1,-7.479365349E0,4.371088982E0,1.101535892E1
6.256599630E-1,-7.637291908E0,4.619942188E0,1.110150051E1
6.281528270E-1,-7.575078487E0,4.979464054E0,1.097707367E1
6.306456920E-1,-7.249056339E0,5.262415409E0,1.097707367E1
6.331385570E-1,-6.798607349E0,5.425127029E0,1.104407310E1
6.356314210E-1,-6.228517532E0,5.377270699E0,1.107278633E1
6.381143380E-1,-5.534000397E0,5.286343575E0,1.124028397E1
6.406072020E-1,-4.652245522E0,5.219344616E0,1.134616661E1
6.431000670E-1,-3.550350666E0,5.334199905E0,1.123549843E1
6.455929320E-1,-2.204387903E0,5.583053589E0,1.125942707E1
6.480857440E-1,-7.238288522E-1,5.856433392E0,1.168594742E1
6.505786090E-1,5.647061467E-1,5.995217323E0,1.223689461E1
6.530714730E-1,1.231107235E0,6.028716564E0,1.255813122E1
6.555643380E-1,1.010369420E0,5.909075737E0,1.268734360E1
6.580572020E-1,2.249253243E-1,5.799005508E0,1.288834095E1
6.605500670E-1,-9.535398483E-1,5.511268616E0,1.273519993E1
6.630429320E-1,-2.180459738E0,4.850251675E0,1.215075302E1
6.655357960E-1,-3.210569859E0,4.351946354E0,1.163330555E1
6.680327230E-1,-4.091726780E0,4.116851330E0,1.151844978E1
6.705255880E-1,-4.959125042E0,4.073780537E0,1.158066368E1
6.730184520E-1,-5.648856163E0,4.078566074E0,1.146580791E1
6.755113170E-1,-5.893522263E0,4.189234257E0,1.150409317E1
6.780041300E-1,-5.801996708E0,4.375874519E0,1.183908844E1
6.804969940E-1,-5.553143024E0,4.538586140E0,1.169551849E1
6.829898590E-1,-5.299503803E0,4.735395908E0,1.149930763E1
6.854827230E-1,-5.006981373E0,5.060820103E0,1.169073296E1
6.879755880E-1,-4.685744762E0,5.338985443E0,1.183430290E1
6.904684520E-1,-4.393820763E0,5.621338367E0,1.187318611E1
6.929613170E-1,-4.072584152E0,5.875576019E0,1.176251793E1
6.954541820E-1,-3.823730469E0,6.100501537E0,1.166201973E1
6.979487130E-1,-3.564707518E0,6.167500496E0,1.142273712E1
7.004415250E-1,-3.416352510E0,6.306882381E0,1.102014446E1
7.029344420E-1,-3.363710403E0,6.297310829E0,1.054576778E1
7.054273070E-1,-3.397209883E0,6.244070530E0,1.025862885E1
7.079201190E-1,-3.564707518E0,6.105287075E0,9.856036186E0
7.104129840E-1,-3.679563046E0,5.961717606E0,9.362516403E0
7.129058480E-1,-3.756731510E0,5.966503143E0,8.993423462E0
7.153987130E-1,-3.795016766E0,6.067001820E0,8.873783112E0
7.178915770E-1,-3.938585997E0,6.090929985E0,8.792427063E0
7.203844420E-1,-4.072584152E0,6.138786316E0,8.514261246E0
7.228773070E-1,-4.110869408E0,6.335596085E0,8.504690170E0
7.253701710E-1,-4.125226021E0,6.469594002E0,8.687142372E0
7.278609520E-1,-4.168296814E0,6.579664230E0,8.873783112E0
7.303538170E-1,-4.206582069E0,6.780661106E0,9.074779510E0
7.328466820E-1,-4.182653904E0,6.934400082E0,9.300303459E0
7.353395460E-1,-4.134797573E0,7.164111137E0,9.453444481E0
7.378323590E-1,-4.106083870E0,7.384849072E0,9.635298729E0
7.403252230E-1,-4.077369690E0,7.547560692E0,9.812965393E0
7.428180880E-1,-4.063013077E0,7.748558044E0,9.932606697E0
7.453109520E-1,-4.130012035E0,7.969295979E0,1.007617569E1
7.478038170E-1,-4.082155228E0,7.877770424E0,1.035912704E1
7.502966820E-1,-3.737588882E0,7.509275436E0,1.082871914E1
7.527895460E-1,-3.866801500E0,7.700701237E0,1.035912704E1
7.552824110E-1,-4.144368649E0,7.849056244E0,1.016710377E1
7.577792860E-1,-4.546961308E0,8.112865448E0,1.023888779E1
7.602721500E-1,-4.829912663E0,8.390432358E0,1.053619671E1
7.627650150E-1,-4.930410862E0,8.678169250E0,1.067976570E1
7.652578800E-1,-4.925625324E0,9.008976936E0,1.066062355E1
7.677506920E-1,-4.887340069E0,9.190832138E0,1.061755180E1
7.702435570E-1,-4.743172646E0,9.315258980E0,1.048833942E1
7.727364210E-1,-4.446462631E0,9.133403778E0,1.045962620E1
7.752292860E-1,-4.015156269E0,8.778668404E0,1.033041382E1
7.777221500E-1,-3.363710403E0,8.304290771E0,1.009531879E1
7.802150150E-1,-2.740978241E0,7.748558044E0,9.640084267E0
7.827078800E-1,-2.103889227E0,6.977470875E0,8.873783112E0
7.852007440E-1,-1.269990563E0,6.062216282E0,8.715856552E0
7.876920460E-1,-7.908278704E-1,5.611767292E0,8.878568649E0
7.901849110E-1,-5.036891699E-1,5.185246468E0,8.825926781E0
7.926777230E-1,-2.590230405E-1,4.754538536E0,8.754141808E0
7.951705880E-1,8.973085321E-3,4.313661098E0,8.883354187E0
7.976634520E-1,1.866401732E-1,4.016352654E0,9.108279228E0
8.001563170E-1,2.632105052E-1,3.815355778E0,9.290732384E0
8.026491820E-1,1.244267747E-1,3.781856298E0,9.510871887E0
8.051420460E-1,-1.489532143E-1,3.829712629E0,9.784252167E0
8.076349110E-1,-5.276173949E-1,3.987638950E0,1.024367332E1
8.101277750E-1,-9.152546525E-1,4.160520554E0,1.066540909E1
8.126206400E-1,-1.380060434E0,4.251447678E0,1.101057339E1
8.151135050E-1,-1.782652855E0,4.323232174E0,1.120199966E1
8.176072550E-1,-2.065006018E0,4.280161381E0,1.123071289E1
8.201001190E-1,-2.209173441E0,4.112065792E0,1.126421261E1
8.225929840E-1,-2.228316069E0,3.887140274E0,1.134616661E1
8.250858480E-1,-2.209173441E0,3.729214191E0,1.136530972E1
8.275786610E-1,-2.123031855E0,3.479762316E0,1.139402294E1
8.300715250E-1,-2.026720762E0,3.307479143E0,1.137488079E1
8.325643900E-1,-2.045863390E0,3.111267567E0,1.122592735E1
8.350572550E-1,-1.969292998E0,2.847458839E0,1.104407310E1
8.375501190E-1,-1.720439434E0,2.593819857E0,1.113978577E1
8.400429840E-1,-1.322632670E0,2.320439816E0,1.124507046E1
8.425358480E-1,-9.296116233E-1,2.003988981E0,1.118285656E1
8.450287130E-1,-5.132604837E-1,1.683350682E0,1.107278633E1
8.475190250E-1,-5.802594870E-2,1.362114310E0,1.102493000E1
8.500118900E-1,3.924229145E-1,1.146760225E0,1.099621677E1
8.525047550E-1,8.237292171E-1,9.840483069E-1,1.099621677E1
8.549976190E-1,1.106082320E0,8.303094506E-1,1.090528965E1
8.574904320E-1,1.317248821E0,7.489534616E-1,1.093400288E1
8.599832960E-1,1.508674622E0,7.010970116E-1,1.101535892E1
8.624761610E-1,1.681556106E0,5.048855543E-1,1.120199966E1
8.649690250E-1,1.681556106E0,2.315055877E-1,1.113500023E1
8.674618900E-1,1.676770449E0,-1.615155339E-1,1.109192944E1
8.699547550E-1,1.729412556E0,-3.194418252E-1,1.069890785E1
8.724476190E-1,1.801197290E0,-3.433700502E-1,1.033041382E1
8.749404840E-1,1.901695848E0,-3.481557071E-1,1.009531879E1
8.774391820E-1,1.868196249E0,-3.385843933E-1,9.702297211E0
8.799320460E-1,1.834696770E0,-3.242274821E-1,9.372088432E0
8.824249110E-1,1.882553220E0,-3.194418252E-1,9.199805260E0
8.849177230E-1,1.906481385E0,-3.337987661E-1,9.214161873E0
8.874105880E-1,1.868196249E0,-3.625126183E-1,9.156135559E0
8.899034520E-1,1.772483349E0,-3.768695593E-1,9.214161873E0
8.923963170E-1,1.633101463E0,-3.768695593E-1,9.367302895E0
8.948891820E-1,1.566102386E0,-3.672982752E-1,9.553942680E0
8.973820460E-1,1.503889084E0,-3.385843933E-1,9.755537987E0
8.998749110E-1,1.451246977E0,-3.002992272E-1,9.951749802E0
9.023677750E-1,1.456032634E0,-2.620140910E-1,1.017188931E1
9.048606400E-1,1.403390527E0,-2.763710022E-1,1.029691410E1
9.073477750E-1,1.398604870E0,-2.667997181E-1,1.040219784E1
9.098405880E-1,1.293320656E0,-2.428714931E-1,1.048833942E1
9.123335050E-1,1.235892892E0,-2.715853751E-1,1.047876835E1
9.148263170E-1,1.134796143E0,-2.285145670E-1,1.052662468E1
9.173191820E-1,1.019940615E0,-1.854437590E-1,1.049791145E1
9.198120460E-1,9.050851464E-1,-1.710868180E-1,1.043091202E1
9.223049110E-1,8.285148144E-1,-1.471585929E-1,1.043569756E1
9.247977750E-1,7.375875711E-1,-7.956135273E-2,1.039741230E1
9.272906400E-1,6.897311211E-1,-1.256231871E-2,1.031605625E1
9.297835050E-1,7.375875711E-1,4.007977992E-2,1.025862885E1
9.322763690E-1,7.567301393E-1,1.357926875E-1,1.016710377E1
9.347692340E-1,7.758727670E-1,1.262213886E-1,1.012403297E1
9.372618380E-1,7.902296782E-1,2.123630047E-1,1.018146038E1
9.397547020E-1,7.950153351E-1,2.937189937E-1,1.018624592E1
9.422475670E-1,7.328019142E-1,3.846462369E-1,1.020060253E1
9.447404320E-1,6.897311211E-1,4.666004181E-1,1.026819992E1
9.472332440E-1,6.993024349E-1,5.288137794E-1,1.027777100E1
9.497261090E-1,7.232306600E-1,5.718846321E-1,1.019581699E1
9.522189730E-1,7.806583643E-1,5.718846321E-1,1.006181908E1
9.547118380E-1,7.998009920E-1,5.623133183E-1,9.884750366E0
9.572047020E-1,8.955138922E-1,5.670989752E-1,9.755537987E0
9.596975670E-1,8.045865893E-1,7.010970116E-1,9.415159225E0
9.621904320E-1,3.732803464E-1,1.218544960E0,8.428119659E0
9.646832960E-1,-1.250249892E-1,1.893919110E0,7.508079052E0
9.671776190E-1,-3.643072546E-1,2.454437733E0,7.474579811E0
9.696704840E-1,-3.260220885E-1,2.947957516E0,7.527221680E0
9.721633480E-1,-1.968096644E-1,3.384049416E0,7.101299286E0
9.746562130E-1,-2.931207791E-2,3.753142357E0,6.713063717E0
9.771490250E-1,2.009970993E-1,4.112065792E0,6.540780544E0
9.796418900E-1,2.440679073E-1,4.313661098E0,6.334399700E0
9.821347550E-1,-8.673982322E-2,4.184448719E0,6.367899418E0
9.846276190E-1,-6.999006271E-1,3.944568157E0,6.674778938E0
9.871204840E-1,-1.634297848E0,4.194019794E0,8.590831757E0
9.896133480E-1,-3.119044304E0,5.051248550E0,1.133181000E1
9.921062130E-1,-4.355535507E0,5.726622581E0,1.201675510E1
9.945990770E-1,-4.264608383E0,5.904289722E0,8.677571297E0
9.970941300E-1,-3.066402197E0,5.750551224E0,5.730810165E0
9.995869940E-1,-1.514058471E0,5.616552830E0,6.765706062E0
1.002079859E0,4.187439568E-3,5.267200947E0,8.859425545E0
1.004572723E0,1.336391449E0,5.146961689E0,9.333803177E0
1.007065536E0,2.261217356E0,5.036891460E0,9.108279228E0
1.009558400E0,2.490928411E0,4.850251675E0,8.614759445E0
1.012051265E0,2.198405743E0,4.735395908E0,7.944170952E0
1.014544130E0,1.968694806E0,4.538586140E0,7.594819069E0
1.017036994E0,2.557927370E0,3.963710785E0,8.025527000E0
1.019529859E0,2.500499725E0,3.753142357E0,8.294121742E0
1.022022723E0,2.002194405E0,3.599403381E0,8.112266541E0
1.024515588E0,1.460818172E0,3.522833109E0,8.126624107E0
1.027012775E0,8.763712645E-1,3.513261795E0,8.375477791E0
1.029505640E0,3.302095234E-1,3.479762316E0,8.576474190E0
1.031998505E0,-4.366901144E-2,3.503690481E0,8.629117012E0
1.034491369E0,-4.169493318E-1,3.412763357E0,8.504690170E0
1.036984182E0,-6.233302951E-1,3.273979664E0,8.394619942E0
1.039477046E0,-7.573283911E-1,3.168695450E0,8.260622025E0
1.041969911E0,-7.142575383E-1,3.077768087E0,8.015955925E0
1.044462775E0,-5.515456200E-1,2.909672260E0,7.910671711E0
1.046955640E0,-2.446661144E-1,2.675175667E0,7.891529083E0
1.049448505E0,8.973085321E-3,2.459223509E0,8.020741463E0
1.051941369E0,2.536391914E-1,2.267797709E0,8.106883049E0
1.054434234E0,4.307080805E-1,2.100300074E0,8.117053032E0
1.056927515E0,6.323033571E-1,1.913061738E0,8.015955925E0
1.059420380E0,6.849454641E-1,1.774278045E0,7.814958572E0
1.061913244E0,7.232306600E-1,1.726421595E0,7.488936901E0
1.064406109E0,9.385846853E-1,1.889133453E0,7.455437183E0
1.066898973E0,1.067797065E0,2.100300074E0,7.728816986E0
1.069391890E0,9.816554785E-1,2.239083767E0,8.030312538E0
1.071884755E0,8.572286963E-1,2.368296146E0,8.227122307E0
1.074377619E0,8.428717852E-1,2.507079840E0,8.308478355E0
1.076870484E0,8.668000102E-1,2.679961443E0,8.265407562E0
1.079363348E0,9.194421172E-1,2.746960402E0,8.198408127E0
1.081856213E0,1.130010486E0,2.656033039E0,8.466404915E0
1.084349077E0,1.355534077E0,2.526222467E0,8.701499939E0
1.086838452E0,1.546959877E0,2.425724030E0,8.768498421E0
1.089331317E0,1.661815286E0,2.210369825E0,8.773283958E0
1.091824182E0,1.724626899E0,1.984846354E0,8.797212601E0
1.094317046E0,1.868196249E0,1.764706731E0,8.821140289E0
1.096809911E0,2.011765718E0,1.554138303E0,8.811569214E0
1.099302827E0,2.126621008E0,1.400399446E0,8.677571297E0
1.101795692E0,1.782054663E0,1.007976532E0,8.279764175E0
1.104288557E0,1.298106313E0,6.101697683E-1,7.771887779E0
1.106781421E0,1.115653515E0,3.511467278E-1,7.590033531E0
1.109274286E0,1.202393413E0,3.128615618E-1,7.680960655E0
1.111767150E0,1.345962763E0,3.463610709E-1,7.709674358E0
1.114260015E0,1.417747378E0,3.367897868E-1,7.575676441E0
1.116750327E0,1.436890006E0,4.043870270E-1,7.412366390E0
1.119243192E0,1.355534077E0,5.575276613E-1,7.484150887E0
1.121736057E0,1.307677627E0,8.063812256E-1,7.709674358E0
1.124228921E0,1.250249863E0,1.242473125E0,7.891529083E0
1.126721786E0,1.091725349E0,1.731207132E0,7.977670670E0
1.129214702E0,9.720842242E-1,1.946561217E0,7.891529083E0
1.131707567E0,9.290133715E-1,1.975275040E0,7.676175117E0
1.134200432E0,9.481559992E-1,1.999203324E0,7.551149845E0
1.136693296E0,9.625129104E-1,1.922633052E0,7.469794273E0
1.139186161E0,1.019940615E0,1.831705689E0,7.340581894E0
1.141679025E0,9.960124493E-1,1.726421595E0,7.249654293E0
1.144171890E0,9.625129104E-1,1.630708575E0,7.326224804E0
1.146665223E0,9.433703423E-1,1.482353687E0,7.388438225E0
1.149158088E0,8.476574421E-1,1.366899967E0,7.431509018E0
1.151650952E0,7.854440212E-1,1.328614831E0,7.436294556E0
1.154143817E0,7.567301393E-1,1.271187067E0,7.431509018E0
1.156636682E0,7.806583643E-1,1.122832060E0,7.465008259E0
1.159129546E0,8.428717852E-1,9.936196208E-1,7.488936901E0
1.161622463E0,9.002995491E-1,8.877372146E-1,7.585247993E0
1.164115327E0,9.529415965E-1,8.063812256E-1,7.676175117E0
1.166608192E0,1.034297585E0,7.345965505E-1,7.719245911E0
1.169101057E0,1.096511006E0,6.436693072E-1,7.829315662E0
1.171593921E0,1.140179992E0,5.479564071E-1,7.958528042E0
1.174086786E0,1.211964726E0,4.187439680E-1,8.087740898E0
1.176578244E0,1.207179070E0,2.889333367E-1,8.222336769E0
1.179071109E0,1.144965649E0,1.214357466E-1,8.313263893E0
1.181563973E0,1.063011408E0,-3.649054468E-2,8.351549149E0
1.184056838E0,1.043868899E0,-1.806581169E-1,8.442476273E0
1.186549702E0,9.481559992E-1,-3.194418252E-1,8.547760963E0
1.189042567E0,8.189435601E-1,-5.874379873E-1,8.485547066E0
1.191535484E0,6.610172391E-1,-9.326026440E-1,8.499904633E0
1.194028348E0,4.067798555E-1,-1.220339537E0,8.595617294E0
1.196521213E0,7.178468257E-2,-1.435693622E0,8.691927910E0
1.199014077E0,-3.164508045E-1,-1.512263894E0,8.653642654E0
1.201506942E0,-7.142575383E-1,-1.526620865E0,8.638688087E0
1.203999807E0,-1.049850941E0,-1.497906923E0,8.595617294E0
1.206496942E0,-1.317847013E0,-1.387837172E0,8.471190453E0
1.208989807E0,-1.548156261E0,-1.272981644E0,8.356334686E0
1.211482671E0,-1.696511269E0,-1.225125194E0,8.298907280E0
1.213975536E0,-1.706082582E0,-1.277767301E0,8.241478920E0
1.216468400E0,-1.696511269E0,-1.459621787E0,8.236693382E0
1.218961317E0,-1.677368641E0,-1.612762451E0,8.251050949E0
1.221454182E0,-1.572084427E0,-1.742573142E0,8.298907280E0
1.223947046E0,-1.456630826E0,-1.819143414E0,8.394619942E0
1.226439911E0,-1.423131227E0,-1.670190215E0,8.471190453E0
1.228932775E0,-1.461416483E0,-1.488335729E0,8.480761528E0
1.231425640E0,-1.279561877E0,-1.574477315E0,8.691927910E0
1.233918505E0,-1.107278705E0,-1.622333765E0,8.859425545E0
1.236409650E0,-9.726824164E-1,-1.679761529E0,8.897710800E0
1.238902515E0,-7.860422134E-1,-1.795215130E0,8.945567131E0
1.241395380E0,-6.376872063E-1,-1.895713687E0,9.065208435E0
1.243888244E0,-5.563312769E-1,-1.953141451E0,9.190233231E0
1.246381109E0,-4.456632137E-1,-2.048854351E0,9.300303459E0
1.248874025E0,-3.212364316E-1,-2.044068813E0,9.281160355E0
1.251366890E0,-1.680957973E-1,-2.072782516E0,9.257232666E0
1.253859755E0,4.725824669E-2,-2.130210400E0,9.242876053E0
1.256352619E0,2.392822653E-1,-2.139781713E0,9.165707588E0
1.258845484E0,4.115654826E-1,-2.087139606E0,8.998209953E0
1.261338348E0,6.275177598E-1,-2.182852507E0,8.845068932E0
1.263831213E0,8.333004713E-1,-2.235494614E0,8.644071579E0
1.266324338E0,9.146564603E-1,-2.211566210E0,8.447261810E0
1.268817202E0,1.077368379E0,-2.221137524E0,8.308478355E0
1.271310067E0,1.130010486E0,-2.163709879E0,8.184051514E0
1.273802932E0,1.245464206E0,-2.134995937E0,8.073383331E0
1.276295796E0,1.255035520E0,-2.024926186E0,8.082955360E0
1.278788661E0,1.288534999E0,-1.866999865E0,8.169694901E0
1.281281577E0,1.379462242E0,-1.761715651E0,8.207980156E0
1.283774442E0,1.168893814E0,-1.402194023E0,8.068597794E0
1.286267307E0,1.159322619E0,-1.119242787E0,8.121838570E0
1.288760171E0,1.590030670E0,-7.124629617E-1,8.318049431E0
1.291253036E0,2.218146563E0,-3.625126183E-1,8.241478920E0
1.293745900E0,2.912663460E0,-2.380858511E-1,8.136195183E0
1.296237932E0,3.506681681E0,-2.141576260E-1,7.934599876E0
1.298730796E0,3.880560160E0,-4.821537733E-1,7.565506935E0
1.301223661E0,4.000201225E0,-7.507480979E-1,7.110870838E0
1.303716525E0,4.052843571E0,-8.703892231E-1,6.837490559E0
1.306209390E0,4.177269936E0,-9.756734371E-1,6.598208427E0
1.308702255E0,4.445864677E0,-1.009172916E0,6.434898376E0
1.311195171E0,4.508078098E0,-9.421738982E-1,6.233901024E0
1.313688036E0,4.474578381E0,-9.613165259E-1,6.205187321E0
1.316180900E0,4.350151539E0,-9.421738982E-1,6.315257072E0
1.318673765E0,4.220340729E0,-8.991031051E-1,6.391827583E0
1.321166630E0,4.038486481E0,-6.687939167E-1,6.540780544E0
1.323659494E0,4.038486481E0,-1.998006850E-1,6.607779503E0
1.326162307E0,4.508078098E0,1.884347796E-1,6.770491600E0
1.328655171E0,5.173880577E0,3.607180119E-1,6.736992359E0
1.331148036E0,5.471189022E0,5.910272002E-1,6.736992359E0
1.333640900E0,5.705685616E0,7.728816867E-1,6.770491600E0
1.336133765E0,6.127420425E0,8.542376757E-1,6.813562393E0
1.338626630E0,6.568298340E0,1.017547846E0,6.813562393E0
1.341119546E0,7.124031067E0,1.065404296E0,6.909275532E0
1.343612411E0,7.703692436E0,1.252044439E0,7.082156658E0
1.346105275E0,8.187641144E0,1.237687469E0,7.115656376E0
1.348598140E0,8.249854088E0,7.298108935E-1,6.722635269E0
1.351091005E0,8.714659691E0,7.585247755E-1,6.952346325E0
1.353583869E0,9.289535522E0,1.213759303E0,7.445865631E0
1.356069338E0,9.667601585E0,1.846062660E0,7.450651646E0
1.358562202E0,1.008933640E1,2.425724030E0,7.450651646E0
1.361055067E0,1.057328510E1,2.842673302E0,7.604390144E0
1.363547932E0,1.096630573E1,3.211766243E0,7.680960655E0
1.366040796E0,1.155553913E1,3.403192043E0,7.666603565E0
1.368533713E0,1.216391373E1,3.537189960E0,7.738388538E0
1.371026577E0,1.293081379E1,3.522833109E0,7.920242786E0
1.373519442E0,1.371147156E1,3.527618885E0,8.092526436E0
1.376012307E0,1.426241970E1,3.508476257E0,8.092526436E0
1.378505171E0,1.478465271E1,3.278765202E0,8.030312538E0
1.380998036E0,1.530210114E1,2.904886723E0,7.934599876E0
1.383490900E0,1.558983803E1,2.622533560E0,7.747959614E0
1.385980588E0,1.561855125E1,2.181656122E0,7.450651646E0
1.388473452E0,1.523988724E1,1.673779488E0,7.264011383E0
1.390966317E0,1.452622795E1,1.242473125E0,7.278368473E0
1.393459182E0,1.379761314E1,6.819544435E-1,7.488936901E0
1.395952046E0,1.224048424E1,-2.715853751E-1,7.249654293E0
1.398444963E0,9.605388641E0,-1.191027522E0,6.808776855E0
1.400937827E0,7.569694519E0,-1.397408366E0,6.894918442E0
1.403430692E0,7.018148899E0,-7.603194118E-1,7.168298244E0
1.405923557E0,6.884150982E0,3.607180119E-1,6.957131863E0
1.408416421E0,6.060421467E0,1.424327731E0,6.760920525E0
1.410909286E0,5.250451088E0,2.095514536E0,6.693921566E0
1.413402150E0,4.987240791E0,1.443470240E0,6.463612080E0
1.415896942E0,5.274379253E0,2.985046208E-1,6.291328907E0
1.418389807E0,5.724828243E0,-4.247260094E-1,6.229115486E0
1.420882671E0,5.906682491E0,-8.321040869E-1,6.444469452E0
1.423375536E0,5.638686657E0,-1.200598717E0,7.058228493E0
1.425868400E0,4.756931305E0,-1.684547186E0,7.838887215E0
1.428361265E0,2.836092949E0,-2.685943365E0,8.102097511E0
1.430854182E0,2.440679073E-1,-4.027718544E0,8.092526436E0
1.433347046E0,-1.241276741E0,-4.597808838E0,8.471190453E0
1.435839911E0,-9.678967595E-1,-4.338785648E0,9.180662155E0
1.438332775E0,-1.250249892E-1,-3.783052683E0,9.266803741E0
1.440825640E0,-1.824527234E-1,-3.093321562E0,8.998209953E0
1.443318505E0,-3.882354796E-1,-2.523231506E0,8.087740898E0
1.445809598E0,6.699903309E-2,-2.379662037E0,7.225726128E0
1.448302463E0,8.476574421E-1,-2.192423820E0,7.244868755E0
1.450795327E0,1.465603828E0,-1.195813060E0,6.760920525E0
1.453288192E0,2.218146563E0,-8.608179688E-1,6.008975983E0
1.455781057E0,3.080160856E0,-1.176670551E0,5.520241737E0
1.458273921E0,3.583251953E0,-1.708475351E0,4.858626366E0
1.460766838E0,3.875774384E0,-2.437089920E0,4.341178417E0
1.463259702E0,3.813561201E0,-3.189034462E0,4.317250252E0
1.465752567E0,2.979662418E0,-3.908077478E0,4.609772682E0
1.468245432E0,1.288534999E0,-4.482953072E0,4.858626366E0
1.470738296E0,-3.451646566E-1,-5.100899696E0,4.988437176E0
1.473231161E0,-1.068993568E0,-5.210969448E0,5.318646431E0
1.475724911E0,-8.482556343E-1,-4.817948341E0,5.568098068E0
1.478217775E0,-3.882354796E-1,-4.037290096E0,5.740381718E0
1.480710640E0,-1.202393398E-1,-3.165106058E0,5.678168297E0
1.483203505E0,7.657032460E-2,-2.671586514E0,5.404788017E0
1.485696369E0,3.828516304E-1,-2.662015200E0,5.117649555E0
1.488189234E0,9.433703423E-1,-2.983251572E0,4.839483738E0
1.490682150E0,1.460818172E0,-3.495913982E0,4.490131855E0
1.493175015E0,1.959123492E0,-3.912863255E0,4.418346882E0
1.495667880E0,2.414358139E0,-4.008575916E0,4.959722996E0
1.498160744E0,2.826521635E0,-3.922434568E0,5.242076397E0
1.500653609E0,3.339184046E0,-3.548556089E0,5.438885689E0
1.503146473E0,3.928416491E0,-3.265604734E0,5.644668579E0
1.505640588E0,4.369294167E0,-2.973680258E0,5.783452511E0
1.508133452E0,4.517649174E0,-2.542374134E0,5.965306759E0
1.510626317E0,4.704289436E0,-2.413161755E0,6.061617851E0
1.513119182E0,4.871787071E0,-2.796013355E0,6.056832314E0
1.515612046E0,4.599005222E0,-3.241676569E0,6.013761520E0
1.518104963E0,4.339982033E0,-3.217748165E0,6.023332596E0
1.520597827E0,5.274379253E0,-2.355733871E0,6.138188362E0
1.523090692E0,6.879364967E0,-1.416550994E0,6.286543369E0
1.525583557E0,7.976474285E0,-9.373882413E-1,6.152545452E0
1.528076421E0,7.947760582E0,-8.177471161E-1,5.773880959E0
1.530569286E0,7.670193195E0,-8.321040869E-1,5.544169903E0
1.533062150E0,7.895118237E0,-8.991031051E-1,5.423930645E0
1.535563088E0,8.402995110E0,-8.368897438E-1,5.376074314E0
1.538055952E0,8.858229637E0,-6.789634228E-1,5.318646431E0
1.540548817E0,9.121439934E0,-6.448656917E-1,5.419145107E0
1.543041682E0,9.016156197E0,-7.220342159E-1,5.620740414E0
1.545534546E0,8.829515457E0,-9.756734371E-1,5.941378593E0
1.548027411E0,8.652446747E0,-1.239482164E0,6.310471535E0
1.550520327E0,8.335995674E0,-1.488335729E0,6.665207386E0
1.553013192E0,7.971688747E0,-1.651047587E0,7.019345284E0
1.555506057E0,7.612765312E0,-1.900499344E0,7.398009300E0
1.557998921E0,7.157530785E0,-1.981855392E0,7.762316704E0
1.560491786E0,6.673582554E0,-2.034497499E0,8.169694901E0
1.562984650E0,6.189633846E0,-2.077568293E0,8.605188370E0
1.565468192E0,5.590830326E0,-2.178066730E0,9.036494255E0
1.567961057E0,5.063810825E0,-2.374876499E0,9.405587196E0
1.570453921E0,4.603790760E0,-2.595016241E0,9.702297211E0
1.572946786E0,3.947559118E0,-2.709871531E0,9.980463028E0
1.575439650E0,3.358326674E0,-3.021536827E0,1.033998489E1
1.577932515E0,2.893520832E0,-3.538984776E0,1.071805096E1
1.580425380E0,2.476571321E0,-3.816552162E0,1.087657547E1
1.582918244E0,2.102692842E0,-3.970290899E0,1.094836044E1
1.585411109E0,1.758126378E0,-4.022933006E0,1.094357395E1
1.587903973E0,1.259821177E0,-4.271786690E0,1.092443180E1
1.590396838E0,6.323033571E-1,-4.621737003E0,1.081436157E1
1.592889702E0,2.823530734E-1,-4.841876507E0,1.079043388E1
1.595388348E0,1.339980662E-1,-4.846662045E0,1.081914711E1
1.597881213E0,2.440679073E-1,-4.521238327E0,1.071805096E1
1.600374077E0,4.450650215E-1,-3.994219303E0,1.036391354E1
1.602866942E0,8.524430394E-1,-3.481556892E0,9.659226418E0
1.605359807E0,1.446461320E0,-3.246462107E0,8.614759445E0
1.607852671E0,2.136192322E0,-3.227319479E0,7.690532207E0
1.610345536E0,3.104089260E0,-3.275176048E0,7.067800045E0
1.612838400E0,4.172484398E0,-2.992822886E0,6.569494724E0
1.615331265E0,5.111667156E0,-2.288734913E0,6.152545452E0
1.617824130E0,6.227919102E0,-1.981855392E0,5.860022545E0
1.620316994E0,7.176673412E0,-1.737189293E0,5.477170944E0
1.622809859E0,7.933403492E0,-1.603191137E0,4.926223755E0
1.625303296E0,8.657232285E0,-1.651047587E0,4.331607342E0
1.627796161E0,9.351749420E0,-1.866999865E0,4.121038914E0
1.630289025E0,1.016112137E1,-2.192423820E0,4.293322086E0
1.632781890E0,1.075513935E1,-2.365305185E0,4.633700848E0
1.635274755E0,1.106680489E1,-2.461018085E0,5.261219025E0
1.637767619E0,1.119123173E1,-2.642872572E0,5.922235966E0
1.640260484E0,1.119123173E1,-2.786442041E0,6.415755749E0
1.642753348E0,1.107637596E1,-2.776870728E0,6.760920525E0
1.645246213E0,1.108116150E1,-2.762513638E0,7.101299286E0
1.647739077E0,1.115773201E1,-2.666800737E0,7.254439831E0
1.650231942E0,1.121515942E1,-2.662015200E0,7.321439266E0
1.652724807E0,1.113380337E1,-2.642872572E0,7.359724045E0
1.655226473E0,1.108594704E1,-2.633301258E0,7.311867714E0
1.657719338E0,1.115773201E1,-2.729014158E0,7.244868755E0
1.660212202E0,1.152203941E1,-3.002394199E0,7.450651646E0
1.662705067E0,1.203948689E1,-3.294318676E0,7.752745152E0
1.665197932E0,1.257607746E1,-3.519842148E0,8.270193100E0
1.667690796E0,1.298345566E1,-3.672982693E0,8.840283394E0
1.670183661E0,1.334716511E1,-3.859622955E0,9.568299294E0
1.672676525E0,1.367797279E1,-4.247858524E0,1.025862885E1
1.675169390E0,1.379282761E1,-4.492524624E0,1.089571762E1
1.677662255E0,1.387896919E1,-4.760520458E0,1.153759289E1
1.680155119E0,1.384068394E1,-5.081757069E0,1.208854008E1
1.682647984E0,1.380718517E1,-5.397609711E0,1.250070381E1
1.685132046E0,1.360140228E1,-5.503491879E0,1.269212914E1
1.687624911E0,1.333280754E1,-5.618347645E0,1.271605778E1
1.690117775E0,1.307916832E1,-5.618347645E0,1.267298698E1
1.692610640E0,1.297388458E1,-5.551348686E0,1.244806194E1
1.695103505E0,1.280100250E1,-5.402395248E0,1.218425274E1
1.697596369E0,1.271964741E1,-5.177470207E0,1.184865952E1
1.700089234E0,1.286800194E1,-5.019543648E0,1.135095215E1
1.702582098E0,1.306002617E1,-4.947160721E0,1.067976570E1
1.705074963E0,1.326580906E1,-4.942375183E0,1.004267693E1
1.707567827E0,1.348654652E1,-4.899304390E0,9.329017639E0
1.710060692E0,1.360140228E1,-4.746163845E0,8.552546501E0
1.712553557E0,1.354876041E1,-4.482953072E0,7.805387497E0
1.715045588E0,1.348654652E1,-4.180859566E0,7.197012424E0
1.717538452E0,1.350090313E1,-3.989433527E0,6.569494724E0
1.720031317E0,1.352961731E1,-3.975076675E0,5.946164131E0
1.722524182E0,1.356790257E1,-4.056432724E0,5.409573555E0
1.725017046E0,1.359661674E1,-4.089931965E0,4.959722996E0
1.727509911E0,1.360618782E1,-4.123431683E0,4.638486862E0
1.730002775E0,1.360618782E1,-4.142574310E0,4.509274483E0
1.732495640E0,1.358704472E1,-4.223930359E0,4.475774765E0
1.734988505E0,1.347697544E1,-4.295714855E0,4.528416634E0
1.737481369E0,1.337587833E1,-4.478167534E0,4.667200565E0
1.739974234E0,1.333759308E1,-4.640879631E0,4.907081127E0
1.742467098E0,1.328973675E1,-4.865804672E0,5.318646431E0
1.744976890E0,1.327538013E1,-5.120042324E0,5.845665932E0
1.747469755E0,1.323230934E1,-5.340181828E0,6.410970211E0
1.749962619E0,1.311266804E1,-5.627918720E0,7.096513748E0
1.752455484E0,1.303131199E1,-5.809773445E0,7.719245911E0
1.754948348E0,1.276750374E1,-5.915057659E0,8.308478355E0
1.757441213E0,1.246122169E1,-6.049654007E0,8.758927345E0
1.759934077E0,1.220219898E1,-6.231508255E0,9.093922615E0
1.762426942E0,1.182832050E1,-6.432505608E0,9.276374817E0
1.764919807E0,1.133061314E1,-6.586244106E0,9.352945328E0
1.767412671E0,1.086102200E1,-6.820741177E0,9.195018768E0
1.769905536E0,1.025743294E1,-7.026523590E0,8.787641525E0
1.772398400E0,9.610174179E0,-7.189833641E0,8.265407562E0
1.774877046E0,8.977870941E0,-7.433901787E0,7.690532207E0
1.777369911E0,8.407780647E0,-7.582256794E0,7.130013466E0
1.779862775E0,7.919046402E0,-7.688138962E0,6.588637352E0
1.782355640E0,7.449455261E0,-7.735995770E0,6.128616810E0
1.784848505E0,7.124031067E0,-7.707281590E0,5.639883041E0
1.787341369E0,6.798008919E0,-7.692924976E0,5.199005604E0
1.789834234E0,6.515655994E0,-7.692924976E0,4.638486862E0
1.792327098E0,6.285346985E0,-7.640282631E0,4.121038914E0
1.794819963E0,6.031707764E0,-7.615756035E0,3.771088600E0
1.797312827E0,5.877968788E0,-7.630711555E0,3.316452265E0
1.799805692E0,5.796612740E0,-7.596613884E0,2.818146944E0
1.802298557E0,5.705685616E0,-7.419544697E0,2.544766903E0
1.804788348E0,5.643472195E0,-7.237690449E0,2.429911375E0
1.807281213E0,5.676971912E0,-7.088737011E0,2.319841623E0
1.809774077E0,5.777470112E0,-7.064808846E0,2.257628202E0
1.812266942E0,5.844469070E0,-7.055237770E0,2.199602127E0
1.814759807E0,6.050850391E0,-7.118049145E0,2.194816589E0
1.817252671E0,6.041278839E0,-7.151548862E0,2.213959217E0
1.819745536E0,6.060421467E0,-7.151548862E0,2.218744755E0
1.822238400E0,5.979065418E0,-7.108478069E0,2.199602127E0
1.824731265E0,5.777470112E0,-7.074379921E0,2.103889227E0
1.827224130E0,5.609972477E0,-7.213762283E0,1.936391711E0
1.829716994E0,5.490331650E0,-7.314260483E0,1.586441398E0
1.832209859E0,5.428118229E0,-7.342974663E0,1.145563841E0
1.834706630E0,5.533402443E0,-7.386045456E0,6.909275651E-1
1.837199494E0,5.643472195E0,-7.481758118E0,4.414757788E-1
1.839692359E0,5.437689304E0,-7.659425259E0,-1.854437590E-2
1.842185223E0,4.881358147E0,-7.721638680E0,-5.216353536E-1
1.844678088E0,4.388436794E0,-7.702496052E0,-4.348955154E-1
1.847170952E0,4.167698860E0,-7.884350777E0,-6.460621357E-1
1.849663817E0,3.731606960E0,-8.349156380E0,-1.235294700E0
1.852156682E0,3.080160856E0,-8.502297401E0,-1.479362607E0
1.854649546E0,2.960519791E0,-8.296514511E0,-1.652244091E0
1.857142411E0,2.912663460E0,-8.282156944E0,-1.824527264E0
1.859635275E0,2.946162939E0,-8.306085587E0,-1.752742529E0
1.862128140E0,3.171088219E0,-8.248658180E0,-1.724028707E0
1.864620952E0,3.296113253E0,-8.186444283E0,-1.580459356E0
1.867113817E0,3.592823267E0,-8.157132149E0,-1.302293777E0
1.869606682E0,4.095914364E0,-8.147561073E0,-8.374879360E-1
1.872099546E0,4.618147850E0,-8.142775536E0,-3.152543902E-1
1.874592411E0,5.087738991E0,-8.118846893E0,2.548356056E-1
1.877085275E0,5.538187981E0,-8.147561073E0,8.632107973E-1
1.879578140E0,6.007779598E0,-8.027919769E0,1.318445325E0
1.882071005E0,6.582654953E0,-7.855636597E0,1.759322882E0
1.884563869E0,7.147959232E0,-7.707281590E0,2.156531334E0
1.887056734E0,7.847261906E0,-7.668996811E0,2.410768747E0
1.889549598E0,8.192426682E0,-7.472187042E0,2.501696110E0
1.892042463E0,8.264211655E0,-7.285546780E0,2.334198475E0
1.894534025E0,8.268997192E0,-7.218547821E0,1.993819475E0
1.897026890E0,8.426922798E0,-7.405188084E0,1.778465390E0
1.899519755E0,8.474779129E0,-7.424330235E0,1.543370605E0
1.902012619E0,8.312067986E0,-7.069594383E0,1.025922656E0
1.904505484E0,8.321639061E0,-7.194619656E0,6.041877270E-1
1.906998348E0,8.254639626E0,-7.529614449E0,3.984049559E-1
1.909491213E0,8.000402451E0,-7.285546780E0,-1.094716340E-1
1.911984077E0,7.363313675E0,-6.595815659E0,-6.460621357E-1
1.914476942E0,7.114459991E0,-6.422934055E0,-1.077368379E0
1.916969807E0,7.171887875E0,-6.523432732E0,-1.311864972E0
1.919462671E0,7.119245529E0,-6.370292187E0,-1.431506157E0
1.921955536E0,7.022934437E0,-6.322435856E0,-1.479362607E0
1.924446682E0,7.200601578E0,-6.634100914E0,-9.427721500E-1
1.926939546E0,7.191030025E0,-6.782455921E0,-6.460621357E-1
1.929432411E0,6.817151546E0,-6.010770321E0,-7.417750359E-1
1.931925275E0,6.975078106E0,-6.341578007E0,-3.631108403E-1
1.934418140E0,7.033103943E0,-6.677171707E0,6.281159073E-2
1.936911005E0,6.893722057E0,-6.653243542E0,-1.381855011E-1
1.939403869E0,6.692724705E0,-6.839883327E0,-1.238285750E-1
1.941896734E0,6.400202274E0,-6.528218269E0,-2.865405083E-1
1.944389598E0,6.304489613E0,-6.729813576E0,-3.056831062E-1
1.946882463E0,6.323632240E0,-7.620542049E0,6.759724021E-2
1.949375327E0,5.964708805E0,-7.625327587E0,1.926222295E-1
1.951868192E0,5.691328526E0,-7.520043373E0,2.931207716E-1
1.954373505E0,5.609972477E0,-7.577471256E0,4.462614357E-1
1.956866369E0,5.566901684E0,-7.424330235E0,3.936193287E-1
1.959359234E0,5.629115105E0,-7.610970497E0,5.371887088E-1
1.961852098E0,5.806184292E0,-7.659425259E0,6.909275651E-1
1.964344963E0,6.113063812E0,-7.941778183E0,7.674978375E-1
1.966837827E0,6.175277233E0,-7.975277901E0,1.035493970E0
1.969330692E0,6.098706722E0,-7.654639721E0,9.302098155E-1
1.971823557E0,6.074778557E0,-7.726424217E0,9.780662656E-1
1.974316421E0,5.955137253E0,-7.750352383E0,1.049850941E0
1.976809286E0,5.581258774E0,-7.553543091E0,9.110672474E-1
1.979302150E0,5.159523964E0,-7.127620220E0,5.276173949E-1
1.981795015E0,5.030311584E0,-6.926024914E0,2.691925466E-1
1.984274130E0,4.934598446E0,-7.223333359E0,4.893322289E-1
1.986766994E0,4.939383984E0,-7.429116249E0,1.600798368E0
1.989259859E0,5.485546112E0,-7.659425259E0,1.059422255E0
1.991752723E0,5.379663467E0,-7.275975227E0,1.399801224E-1
1.994245588E0,5.370092392E0,-7.122834682E0,1.898106575E0
1.996738452E0,5.360520840E0,-6.787241459E0,1.634297848E0
1.999231317E0,5.839683533E0,-6.839883327E0,1.888535261E0
2.001724182E0,6.208776474E0,-7.026523590E0,2.156531334E0
2.004217046E0,6.515655994E0,-7.175477028E0,2.358126640E0
2.006709911E0,6.721438885E0,-7.132406235E0,2.358126640E0
2.009202775E0,6.774080753E0,-6.892525673E0,2.243271112E0
2.011695640E0,6.831508636E0,-6.653243542E0,1.883749604E0
2.014191734E0,7.114459991E0,-6.715456963E0,1.572084427E0
2.016684598E0,7.339385033E0,-6.830312252E0,1.213161111E0
2.019177463E0,7.353742123E0,-6.513861656E0,8.201399446E-1
2.021670327E0,7.277172089E0,-6.140581131E0,4.319044948E-1
2.024163192E0,7.439883709E0,-5.977271080E0,-1.860419661E-1
2.026656057E0,7.502097130E0,-6.461219311E0,-2.291127741E-1
2.029148921E0,7.028318405E0,-6.567101955E0,-4.109672904E-1
2.031641786E0,6.433701992E0,-6.341578007E0,-7.896314859E-1
2.034134650E0,6.046064377E0,-6.260222435E0,-8.949156404E-1
2.036627515E0,5.442475319E0,-5.886343479E0,-1.264008522E0
2.039120380E0,5.145166874E0,-5.843272686E0,-8.135597110E-1
2.041613244E0,4.761716843E0,-5.800201893E0,-9.236295223E-1
2.044104807E0,4.258625984E0,-5.728417397E0,-1.762313843E0
2.046597671E0,4.589433670E0,-6.624529362E0,-1.508076429E0
2.049090536E0,4.339982033E0,-7.433901787E0,-1.771885157E0
2.051583400E0,3.276372433E0,-6.988238335E0,-2.035095692E0
2.054076265E0,2.495713949E0,-6.403791428E0,-1.575673699E0
2.056569130E0,2.266003132E0,-6.801598549E0,-1.106082320E0
2.059061994E0,2.289931297E0,-7.275975227E0,-1.378864050E0
2.061554859E0,1.925624013E0,-7.232904434E0,-1.484148264E0
2.064047723E0,1.734198213E0,-7.036095142E0,-1.590030670E0
2.066540588E0,1.829911113E0,-6.494719028E0,-1.604387641E0
2.069033452E0,1.618744493E0,-6.629314899E0,-2.188834429E0
2.071526317E0,1.436890006E0,-6.945167542E0,-2.715853691E0
2.074016005E0,2.078764677E0,-7.496115208E0,-2.337189436E0
2.076508869E0,2.600998163E0,-7.678567886E0,-1.690529227E0
2.079001734E0,3.487539053E0,-7.860422611E0,-8.614161611E-1
2.081494598E0,4.551148891E0,-8.167302132E0,2.596212626E-1
2.083987463E0,5.322235584E0,-8.291728973E0,1.241874933E0
2.086480327E0,5.734399319E0,-8.080561638E0,2.213959217E0
2.088973192E0,7.521239758E0,-7.678567886E0,1.404586911E0
2.091466057E0,8.608778000E0,-8.837890625E0,2.027318954E0
2.093958973E0,9.083154678E0,-9.196813583E0,4.365705013E0
2.096451838E0,1.061157036E1,-9.427123070E0,4.537988186E0
2.098944702E0,1.193420315E1,-9.293125153E0,4.164109707E0
2.101437567E0,1.195813084E1,-8.991030693E0,4.044468403E0
2.103932150E0,1.176610756E1,-8.933603287E0,4.025325775E0
2.106425015E0,1.170389366E1,-9.360123634E0,3.924827337E0
2.108917880E0,1.125823021E1,-9.518050194E0,3.584448338E0
2.111410744E0,1.170867920E1,-1.003549862E1,3.253640652E0
2.113903609E0,1.147896862E1,-1.026999474E1,2.808575630E0
2.116396473E0,1.041535854E1,-1.028435135E1,2.458625317E0
2.118889338E0,9.509675026E0,-1.046201897E1,1.955534339E0
2.121382202E0,8.810373306E0,-1.074437141E1,1.663011789E0
2.123875119E0,7.708477974E0,-1.069651508E1,1.591227055E0
2.126367984E0,6.716653347E0,-1.049551868E1,1.615155339E0
2.128860848E0,6.309275150E0,-1.042851925E1,1.505085468E0
2.131353713E0,6.050850391E0,-1.035194874E1,1.232303619E0
2.133851630E0,5.882754326E0,-1.034237766E1,8.823533654E-1
2.136344494E0,6.194419384E0,-1.026999474E1,3.457628787E-1
2.138837359E0,6.256632805E0,-9.963713646E0,-1.381855011E-1
2.141330223E0,5.753541946E0,-9.522835732E0,-3.200400174E-1
2.143823088E0,5.428118229E0,-9.532406807E0,-7.130611539E-1
2.146315952E0,4.733003139E0,-9.345767021E0,-1.043868899E0
2.148808817E0,4.296911240E0,-9.192028046E0,-8.853443861E-1
2.151301734E0,4.565505505E0,-9.086744308E0,-4.444667995E-1
2.153794598E0,5.705685616E0,-9.369695663E0,-7.082754970E-1
2.156287463E0,6.759724140E0,-9.906285286E0,-7.752745152E-1
2.158780327E0,5.935396671E0,-9.915857315E0,-7.322037220E-1
2.161273192E0,4.843072891E0,-9.441479683E0,-7.896314859E-1
2.163765067E0,4.091128349E0,-9.345767021E0,-8.087740541E-1
2.166257932E0,3.051447153E0,-8.626724243E0,-1.652244091E0
2.168750796E0,1.508674622E0,-6.796812534E0,-2.107478619E0
2.171243661E0,3.972085714E-1,-4.774877548E0,-2.088335991E0
2.173736525E0,5.599204898E-1,-3.797409534E0,-2.365903378E0
2.176229390E0,1.997408748E0,-4.128217220E0,-2.528615236E0
2.178722255E0,1.782054663E0,-3.903291941E0,-3.923032761E0
2.181215119E0,-2.788834810E0,1.051047325E0,-3.295515060E0
2.183708036E0,-1.336989641E0,2.550748825E0,5.860022545E0
2.186200900E0,6.180062771E0,-6.360720634E0,5.611168861E0
2.188693765E0,8.963513374E0,-8.147561073E0,1.922034740E0
2.191186630E0,9.437891006E0,-7.567899704E0,4.509274483E0
2.193681265E0,8.638090134E0,-7.165905476E0,2.659622431E0
2.196174130E0,6.984649181E0,-6.485147476E0,5.994020700E-1
2.198666994E0,5.581258774E0,-5.704489231E0,1.016949639E-1
2.201159859E0,4.685146809E0,-5.421537876E0,-1.573280841E-1
2.203652723E0,4.038486481E0,-6.073582172E0,-2.333002165E-2
2.206145588E0,3.540181160E0,-5.733202934E0,-3.768695518E-2
2.208638452E0,3.296113253E0,-4.554738045E0,7.962117195E-1
2.211131317E0,4.512863636E0,-6.015556335E0,2.228914261E0
2.213624234E0,5.255236626E0,-6.485147476E0,1.581655741E0
2.216117098E0,5.480760098E0,-6.049654007E0,1.337587833E0
2.218609963E0,5.897111416E0,-6.494719028E0,1.375872970E0
2.221102827E0,5.657829285E0,-5.493920803E0,1.165304661E0
2.223595900E0,5.724828243E0,-5.306682587E0,7.100701332E-1
2.226088765E0,6.577869415E0,-6.945167542E0,-1.764706671E-1
2.228581630E0,7.358527660E0,-8.440083504E0,-1.359721422E0
2.231074494E0,7.052246571E0,-8.224729538E0,-1.886740685E0
2.233567359E0,6.357131481E0,-7.290332317E0,-1.479362607E0
2.236060223E0,5.964708805E0,-6.926024914E0,-1.302293777E0
2.238553088E0,5.787041664E0,-5.996413708E0,-1.426720500E0
2.241046005E0,5.906682491E0,-5.210969448E0,-5.742774606E-1
2.243538869E0,6.136991978E0,-4.827519894E0,1.304088384E-1
2.246031734E0,6.525227547E0,-5.134399414E0,2.931207791E-2
2.248524598E0,7.205387115E0,-6.193223000E0,-4.061816335E-1
2.251017463E0,7.861618996E0,-7.314260483E0,-1.321436286E0
2.253504859E0,8.197212219E0,-7.683353424E0,-1.244866014E0
2.255997723E0,7.852047443E0,-7.802994728E0,-3.918247223E-1
2.258490588E0,7.176673412E0,-7.438687325E0,5.383851007E-3
2.260983452E0,6.817151546E0,-7.712067604E0,3.409772217E-1
2.263476317E0,6.735795975E0,-6.964310169E0,7.579265833E-1
2.265969182E0,6.065207005E0,-6.408577442E0,1.399801254E0
2.268462046E0,4.934598446E0,-7.357331276E0,8.297112584E-1
2.270954963E0,2.754737139E0,-1.039501953E1,9.690931439E-2
2.273447827E0,1.939980984E0,-1.185583782E1,-3.104687333E-1
2.275940692E0,1.820339799E0,-1.203829098E1,-5.503492355E-1
2.278433557E0,1.082154036E0,-1.256530952E1,-5.312066078E-1
2.280926421E0,4.833501875E-1,-1.287637711E1,-8.039883971E-1
2.283423088E0,7.328019142E-1,-1.204307652E1,-2.093121529E0
2.285915952E0,8.189435601E-1,-1.146820068E1,-2.754138947E0
2.288408817E0,-1.968096644E-1,-1.186062336E1,-2.634497643E0
2.290901682E0,-8.482556343E-1,-1.226321602E1,-2.265404940E0
2.293394546E0,-9.487541914E-1,-1.284287739E1,-1.618744493E0
2.295887411E0,-8.434699774E-1,-1.304447269E1,-1.585245013E0
2.298380275E0,-6.855437160E-1,-1.309711456E1,-2.519043922E0
2.300873192E0,-4.456632137E-1,-1.311625767E1,-2.140978098E0
2.303366057E0,-3.409772366E-2,-1.265623760E1,-1.992024899E0
2.305858921E0,3.158525825E-1,-1.235414314E1,-2.404188633E0
2.308351786E0,6.083751321E-1,-1.187019539E1,-2.346760750E0
2.310844650E0,8.763712645E-1,-1.124746323E1,-2.284547329E0
2.313336942E0,1.029511929E0,-1.078265667E1,-1.211366415E0
2.315829807E0,1.475175142E0,-9.666405678E0,-1.058225870E0
2.318322671E0,1.796411633E0,-8.373085022E0,-1.134796143E0
2.320815536E0,1.877767563E0,-7.462615490E0,-8.518448472E-1
2.323308400E0,1.829911113E0,-6.835097790E0,-8.183453679E-1
2.325801265E0,1.796411633E0,-6.255436420E0,2.261217386E-1
2.328294130E0,1.561316729E0,-6.183651924E0,-1.216152072E0
2.330787046E0,1.067797065E0,-7.055237770E0,-2.327618122E0
2.333279911E0,8.333004713E-1,-8.344370842E0,-1.996810555E0
2.335772775E0,6.849454641E-1,-9.656833649E0,-1.311864972E0
2.338265640E0,5.503492355E-1,-1.085025406E1,-8.662018180E-1
2.340758505E0,2.105683982E-1,-1.174098206E1,-3.391826153E-1
2.343256005E0,-1.393819153E-1,-1.246959686E1,2.452643216E-1
2.345748869E0,-1.489532143E-1,-1.335075378E1,9.493523836E-1
2.348241734E0,-1.010967568E-1,-1.431865025E1,8.823533654E-1
2.350734598E0,-7.716853172E-2,-1.509452343E1,1.088136077E0
2.353227463E0,3.768695518E-2,-1.581835270E1,1.356730461E0
2.355720327E0,3.972085714E-1,-1.642194176E1,1.332802176E0
2.358213192E0,8.859425783E-1,-1.694896126E1,1.011565804E0
2.360706109E0,1.283749342E0,-1.745205116E1,9.541380405E-1
2.363198973E0,2.030908108E0,-1.780200195E1,8.201399446E-1
2.365691838E0,2.567498684E0,-1.769133377E1,8.297112584E-1
2.368184702E0,3.161516905E0,-1.735633850E1,3.026920557E-1
2.370677567E0,3.635894060E0,-1.702074623E1,-1.286142170E-1
2.373167671E0,3.909274101E0,-1.665165329E1,-3.918247223E-1
2.375660536E0,3.909274101E0,-1.615813255E1,-4.396811724E-1
2.378153400E0,3.698107481E0,-1.501316738E1,1.160518974E-1
2.380646265E0,3.401397467E0,-1.416551018E1,4.606183469E-1
2.383139130E0,3.271586657E0,-1.381077385E1,6.861419082E-1
2.385631994E0,3.348755360E0,-1.361934853E1,7.435696125E-1
2.388124859E0,3.592823267E0,-1.352363491E1,1.064207911E0
2.390617723E0,3.818346739E0,-1.323589802E1,1.600798368E0
2.393110640E0,4.105485439E0,-1.323589802E1,1.984248161E0
2.395603505E0,4.258625984E0,-1.293859005E1,2.161317110E0
2.398096369E0,3.914059639E0,-1.219621658E1,1.979462504E0
2.400589234E0,3.525824070E0,-1.110389328E1,9.254241586E-1
2.403083713E0,3.113660574E0,-9.915857315E0,-9.511470050E-2
2.405576577E0,2.759522676E0,-8.981459618E0,-3.631108403E-1
2.408069442E0,2.615355253E0,-8.291728973E0,-1.333998591E-1
2.410562307E0,2.769093990E0,-8.018348694E0,1.974078640E-2
2.413055171E0,2.672782898E0,-8.008777618E0,-1.046859920E-1
2.415548036E0,2.318645239E0,-7.884350777E0,4.366901144E-2
2.418040900E0,1.935195327E0,-7.846065521E0,4.079762697E-1
2.420533817E0,1.695913076E0,-7.673782349E0,5.324030519E-1
2.423026682E0,1.556531072E0,-7.668996811E0,4.606183469E-1
2.425519546E0,1.432104349E0,-7.817351341E0,6.759724021E-2
2.428012411E0,1.259821177E0,-8.042277336E0,-1.621137410E-1
2.430505275E0,9.864411354E-1,-8.210372925E0,-2.386840582E-1
2.432997515E0,7.998009920E-1,-8.368298531E0,-9.032905847E-2
2.435490380E0,7.232306600E-1,-8.578866959E0,1.686939895E-1
2.437983244E0,5.982056856E-1,-8.809176445E0,2.356930375E-1
2.440476109E0,4.689932466E-1,-8.876175880E0,3.122633696E-1
2.442968973E0,3.062812984E-1,-9.014959335E0,4.510470629E-1
2.445461838E0,1.818545163E-1,-9.264410973E0,3.984049559E-1
2.447954702E0,2.344966233E-1,-9.494122505E0,1.878365725E-1
2.450447619E0,2.344966233E-1,-9.671191216E0,-3.535395563E-1
2.452940484E0,1.531406492E-1,-9.805787086E0,-8.614161611E-1
2.455433348E0,2.249253243E-1,-9.887143135E0,-1.479362607E0
2.457926213E0,3.062812984E-1,-1.011685371E1,-2.126621008E0
2.460419077E0,3.541377485E-1,-1.028913784E1,-2.677568436E0
2.462907202E0,4.737788737E-1,-1.044766140E1,-3.055634499E0
2.465400067E0,6.418746710E-1,-1.054816055E1,-3.386442184E0
2.467892932E0,8.285148144E-1,-1.043809032E1,-3.851248026E0
2.470385796E0,1.149751306E0,-1.029870892E1,-4.588835716E0
2.472878661E0,1.599601984E0,-1.031366348E1,-5.609374523E0
2.475371525E0,1.661815286E0,-1.020778179E1,-5.599802971E0
2.477864390E0,1.326820135E0,-1.013599682E1,-4.478765965E0
2.480357307E0,9.385846853E-1,-1.014078236E1,-3.180659533E0
2.482850171E0,5.934200287E-1,-1.002114105E1,-2.298904419E0
2.485343036E0,3.924229145E-1,-9.863214493E0,-1.637887120E0
2.487835900E0,1.818545163E-1,-9.714262009E0,-1.225723386E0
2.490328765E0,8.973085321E-3,-9.618548393E0,-1.072582722E0
2.492821838E0,-2.931207791E-2,-9.675976753E0,-9.667003751E-1
2.495314702E0,-4.845465720E-2,-9.982855797E0,-7.561319470E-1
2.497807567E0,-1.393819153E-1,-1.028913784E1,-5.551348329E-1
2.500300432E0,-2.398804724E-1,-1.057208824E1,-3.966103494E-1
2.502793296E0,-3.882354796E-1,-1.081615639E1,-2.291127741E-1
2.505286161E0,-5.371887088E-1,-1.105603695E1,-1.286142170E-1
2.507779025E0,-6.424728632E-1,-1.130967617E1,-2.811566554E-2
2.510271890E0,-7.381857634E-1,-1.144905853E1,4.845465720E-2
2.512764807E0,-8.386843204E-1,-1.161176968E1,1.016949639E-1
2.515257671E0,-9.152546525E-1,-1.171705437E1,1.447657645E-1
2.517750536E0,-1.045065284E0,-1.085503960E1,2.931207791E-2
2.520243400E0,-1.322632670E0,-7.922635555E0,-3.631108403E-1
2.522741577E0,-1.663011789E0,-5.546562672E0,-7.118647546E-2
2.525234442E0,-2.137388945E0,-3.591626883E0,3.744767308E-1
2.527727307E0,-2.592025042E0,-1.914856315E0,6.526423693E-1
2.530220171E0,-2.702693224E0,-1.244267821E0,1.097707391E0
2.532713036E0,-2.486740828E0,-1.631905079E0,1.265803218E0
2.535205900E0,-2.031506538E0,-2.805584431E0,1.514656782E0
2.537698765E0,-1.504487276E0,-4.348356724E0,1.462014675E0
2.540191682E0,-1.135992527E0,-5.718846321E0,1.198804140E0
2.542684546E0,-1.030708313E0,-6.466004848E0,8.584251404E-1
2.545177411E0,-9.439685345E-1,-6.629314899E0,5.659025311E-1
2.547670275E0,-9.152546525E-1,-6.403791428E0,5.802594870E-2
2.550163140E0,-6.759724021E-1,-6.116652966E0,-7.130611539E-1
2.552659650E0,-7.477570772E-1,-5.297111034E0,-1.149153113E0
2.555152515E0,-8.291130662E-1,-4.449453831E0,-1.264008522E0
2.557645380E0,-9.966106415E-1,-3.792623997E0,-1.345364571E0
2.560138244E0,-1.188634634E0,-3.217748165E0,-1.292722464E0
2.562631109E0,-1.217348576E0,-3.064607620E0,-1.091725349E0
2.565123973E0,-1.284347534E0,-3.227319479E0,-9.379864931E-1
2.567616838E0,-1.336989641E0,-3.806980848E0,-8.279166222E-1
2.570109755E0,-1.293918848E0,-4.698307037E0,-9.475577474E-1
2.572602619E0,-1.097707391E0,-5.584847927E0,-1.024726272E0
2.575095484E0,-9.056833982E-1,-6.260222435E0,-1.235294700E0
2.577588348E0,-8.195417523E-1,-6.677171707E0,-1.488933921E0
2.580081213E0,-7.190431952E-1,-6.782455921E0,-1.752742529E0
2.582575900E0,-6.616154313E-1,-6.820741177E0,-2.006381750E0
2.585068765E0,-6.041877270E-1,-6.906882763E0,-2.136192322E0
2.587561630E0,-6.089733839E-1,-6.983452797E0,-2.093121529E0
2.590054546E0,-6.520441771E-1,-6.777669907E0,-1.996810555E0
2.592547411E0,-7.812566161E-1,-6.533003807E0,-1.877169371E0
2.595040327E0,-6.951149702E-1,-6.408577442E0,-1.762313843E0
2.597533192E0,-6.903293133E-1,-6.116652966E0,-1.714457393E0
2.600026057E0,-6.999006271E-1,-5.948556900E0,-1.743171334E0
2.602518973E0,-6.616154313E-1,-5.900700569E0,-1.498505235E0
2.605011838E0,-7.429714203E-1,-5.862415314E0,-1.139581800E0
2.607504755E0,-6.807580590E-1,-6.015556335E0,-8.901300430E-1
2.609997619E0,-6.664010882E-1,-6.298507214E0,-6.604190469E-1
2.612486317E0,-7.621139884E-1,-7.275975227E0,-5.599204898E-1
2.614979182E0,-8.386843204E-1,-8.114061356E0,-5.742774606E-1
2.617472098E0,-9.056833982E-1,-8.833105087E0,-7.704889178E-1
2.619964963E0,-1.102493048E0,-9.738189697E0,-5.742774606E-1
2.622457827E0,-1.207777262E0,-1.049551868E1,4.366901144E-2
2.624950744E0,-1.370489120E0,-1.102253723E1,6.137589812E-1
2.627443609E0,-1.672582984E0,-1.125703430E1,9.397810698E-1
2.629936473E0,-1.926222205E0,-1.096032429E1,7.914260626E-1
2.632429390E0,-1.978864312E0,-1.069651508E1,5.563312769E-1
2.634922255E0,-1.959721804E0,-1.085982513E1,3.553341627E-1
2.637415171E0,-1.835294962E0,-1.134317589E1,1.447657645E-1
2.639908036E0,-1.725225091E0,-1.181276703E1,-2.482553422E-1
2.642397880E0,-1.576870084E0,-1.239242840E1,-5.647061467E-1
2.644890744E0,-1.442273855E0,-1.285244846E1,-5.742774606E-1
2.647383661E0,-1.284347534E0,-1.321197033E1,-6.891329288E-1
2.649876525E0,-1.183848977E0,-1.362891960E1,-7.513462901E-1
2.652369390E0,-1.030708313E0,-1.380120277E1,-7.992027402E-1
2.654862307E0,-9.631111026E-1,-1.392562962E1,-8.422735929E-1
2.657355171E0,-7.812566161E-1,-1.405543995E1,-8.087740541E-1
2.659848036E0,-6.376872063E-1,-1.397348595E1,-9.188438654E-1
2.662340952E0,-4.797609448E-1,-1.388255882E1,-6.125625968E-1
2.664833817E0,-3.260220885E-1,-1.378684616E1,-3.583251834E-1
2.667326734E0,-2.542374134E-1,-1.342253876E1,-2.482553422E-1
2.669819598E0,-2.398804724E-1,-1.304447269E1,-9.990034252E-2
2.672311265E0,-2.255235314E-1,-1.269452190E1,5.982056609E-4
2.674804130E0,-1.393819153E-1,-1.219143105E1,1.543370634E-1
2.677296994E0,-5.802594870E-2,-1.171226883E1,2.069791555E-1
2.679789911E0,-1.106680483E-1,-1.127139091E1,8.255238086E-2
2.682282775E0,-1.537388563E-1,-1.141077328E1,-1.142572835E-1
2.684775692E0,5.204389244E-2,-1.296730423E1,-1.956132501E-1
2.687268557E0,8.428717852E-1,-1.804128456E1,-9.858429432E-1
2.689761421E0,9.529415965E-1,-2.556790733E1,-2.251047850E0
2.692254338E0,7.280163169E-1,-2.965485001E1,-3.625724554E0
2.694747202E0,3.541377485E-1,-2.941018295E1,-2.845066071E0
2.697240067E0,9.092725813E-2,-2.679422951E1,-2.025524378E0
2.699732984E0,2.440679073E-1,-2.305723953E1,-1.599601984E0
2.702225692E0,8.476574421E-1,-1.919103622E1,-1.149153113E0
2.704718557E0,1.451246977E0,-1.574656773E1,-5.599204898E-1
2.707211421E0,1.906481385E0,-1.303490162E1,1.782652885E-1
2.709704338E0,2.140978098E0,-1.179841042E1,7.579265833E-1
2.712197202E0,2.026122570E0,-1.162612724E1,9.110672474E-1
2.714690119E0,1.508674622E0,-1.174098206E1,7.052844763E-1
2.717182984E0,6.849454641E-1,-1.181755257E1,3.457628787E-1
2.719675848E0,-1.393819153E-1,-1.196650600E1,-9.511470050E-2
2.722168765E0,-7.477570772E-1,-1.181755257E1,-4.594219327E-1
2.724661630E0,-1.236491084E0,-1.165484047E1,-7.369893789E-1
2.727154546E0,-1.610369682E0,-1.160698414E1,-9.571290612E-1
2.729647411E0,-1.945364833E0,-1.176491070E1,-1.039083242E0
2.732139755E0,-2.190030813E0,-1.176491070E1,-1.082154036E0
2.734632619E0,-2.357528448E0,-1.156869888E1,-1.063011408E0
2.737125536E0,-2.434098721E0,-1.150648594E1,-1.029511929E0
2.739618400E0,-2.544168711E0,-1.144427204E1,-1.082154036E0
2.742111265E0,-2.515454769E0,-1.130489063E1,-1.158724308E0
2.744604182E0,-2.458027124E0,-1.098903847E1,-1.153938770E0
2.747097046E0,-2.481955290E0,-1.059123135E1,-1.034297585E0
2.749589911E0,-2.486740828E0,-1.043330479E1,-9.858429432E-1
2.752082827E0,-2.448455811E0,-1.026520920E1,-1.043868899E0
2.754575692E0,-2.395813704E0,-9.992427826E0,-1.010369420E0
2.757068609E0,-2.338385820E0,-9.844072342E0,-9.762716293E-1
2.759561473E0,-2.343171597E0,-9.834501266E0,-1.053440213E0
2.762051890E0,-2.400599241E0,-9.719047546E0,-1.077368379E0
2.764544755E0,-2.438884497E0,-9.781859398E0,-1.120439172E0
2.767037619E0,-2.400599241E0,-9.868000984E0,-1.168295622E0
2.769530536E0,-2.391027927E0,-9.944570541E0,-1.134796143E0
2.772023400E0,-2.352742910E0,-1.007378292E1,-1.211366415E0
2.774516317E0,-2.285743713E0,-1.011206818E1,-1.254437327E0
2.777009182E0,-2.223530531E0,-9.978070259E0,-1.316650629E0
2.779502046E0,-2.175673962E0,-9.858428955E0,-1.331007600E0
2.781994963E0,-2.213959217E0,-9.872786522E0,-1.369292736E0
2.784487827E0,-2.242672920E0,-9.887143135E0,-1.378864050E0
2.786980744E0,-2.185245275E0,-9.978070259E0,-1.292722464E0
2.789473609E0,-2.204387903E0,-1.008335495E1,-1.216152072E0
2.791969911E0,-2.213959217E0,-1.011206818E1,-1.115653515E0
2.794462775E0,-2.185245275E0,-1.014078236E1,-1.063011408E0
2.796955692E0,-2.242672920E0,-1.022692394E1,-1.005583763E0
2.799448557E0,-2.276172638E0,-1.030887794E1,-9.714859724E-1
2.801941421E0,-2.324028969E0,-1.031366348E1,-8.901300430E-1
2.804434338E0,-2.324028969E0,-1.018863869E1,-8.757730722E-1
2.806927202E0,-2.266601324E0,-9.858428955E0,-8.566305041E-1
2.809420067E0,-2.218744755E0,-9.398408890E0,-8.566305041E-1
2.811912984E0,-2.338385820E0,-8.861818314E0,-7.704889178E-1
2.814405848E0,-2.424527645E0,-7.683353424E0,-4.444667995E-1
2.816898765E0,-2.094317913E0,-7.185048103E0,-4.492524564E-1
2.819391630E0,-1.768295884E0,-7.419544697E0,-5.694918036E-1
2.821884234E0,-1.504487276E0,-8.075776100E0,-4.642075896E-1
2.824377098E0,-1.370489120E0,-8.885746956E0,-9.906286001E-1
2.826870015E0,-2.831905603E0,-1.007378292E1,-1.757528186E0
2.829362880E0,-3.655634880E0,-1.181276703E1,-9.762716293E-1
2.831855744E0,-3.411566973E0,-1.321675587E1,-6.161518395E-2
2.834348661E0,-3.037688255E0,-1.383470249E1,-4.247260094E-2
2.836841525E0,-2.650051117E0,-1.354756355E1,-7.597211748E-2
2.839334390E0,-2.290529490E0,-1.297687531E1,-2.147558331E-1
2.841827307E0,-1.763510346E0,-1.233021545E1,-3.487538993E-1
2.844320171E0,-1.169492126E0,-1.147298622E1,-3.583251834E-1
2.846813088E0,-9.439685345E-1,-1.079701424E1,-5.120640397E-1
2.849305952E0,-7.142575383E-1,-1.043330479E1,-6.412764788E-1
2.851794025E0,-6.759724021E-1,-1.012642574E1,-6.939185858E-1
2.854286890E0,-7.238288522E-1,-9.853643417E0,-7.800601721E-1
2.856779807E0,-8.147560954E-1,-9.719047546E0,-8.039883971E-1
2.859272671E0,-8.530412912E-1,-9.675976753E0,-7.561319470E-1
2.861765536E0,-9.535398483E-1,-9.608977318E0,-6.939185858E-1
2.864258452E0,-9.966106415E-1,-9.508479118E0,-6.604190469E-1
2.866751317E0,-1.054636598E0,-9.427123070E0,-7.082754970E-1
2.869244182E0,-1.040279627E0,-9.350552559E0,-7.082754970E-1
2.871737098E0,-1.088136077E0,-9.364909172E0,-7.082754970E-1
2.874229963E0,-1.174277663E0,-9.345767021E0,-6.987041831E-1
2.876722880E0,-1.198205948E0,-9.278767586E0,-7.417750359E-1
2.879215744E0,-1.236491084E0,-9.331410408E0,-7.944171429E-1
2.881724546E0,-1.255633712E0,-9.326624870E0,-8.327022791E-1
2.884217411E0,-1.250848055E0,-9.379266739E0,-8.374879360E-1
2.886710275E0,-1.198205948E0,-9.374481201E0,-8.662018180E-1
2.889203192E0,-1.159920812E0,-9.384052277E0,-8.997012973E-1
2.891696057E0,-1.121635556E0,-9.336195946E0,-9.332008362E-1
2.894188973E0,-1.078564763E0,-9.355338097E0,-9.523434043E-1
2.896681838E0,-1.016351461E0,-9.446265221E0,-9.523434043E-1
2.899174702E0,-9.296116233E-1,-9.541978836E0,-9.475577474E-1
2.901667619E0,-8.434699774E-1,-9.503693581E0,-9.379864931E-1
2.904160484E0,-7.956135273E-1,-9.613762856E0,-9.427721500E-1
2.906653348E0,-7.477570772E-1,-9.762118340E0,-9.475577474E-1
2.909146265E0,-6.903293133E-1,-9.853643417E0,-9.427721500E-1
2.911628348E0,-6.281159520E-1,-9.877572060E0,-9.571290612E-1
2.914121213E0,-5.898307562E-1,-9.949356079E0,-9.906286001E-1
2.916614130E0,-5.659025311E-1,-1.008814049E1,-1.000798106E0
2.919106994E0,-5.419743061E-1,-1.010249710E1,-1.005583763E0
2.921599859E0,-5.467599630E-1,-1.008814049E1,-1.043868899E0
2.924092775E0,-5.228317380E-1,-1.020778179E1,-1.063011408E0
2.926585640E0,-4.941178858E-1,-1.024128056E1,-1.072582722E0
2.929078505E0,-4.749752879E-1,-1.026520920E1,-1.053440213E0
2.931571421E0,-4.600201547E-1,-1.026042366E1,-1.072582722E0
2.934064286E0,-4.648058116E-1,-1.032323551E1,-1.101296663E0
2.936557202E0,-4.265206456E-1,-1.035673428E1,-1.115653515E0
2.939050067E0,-4.313062727E-1,-1.039023399E1,-1.144367456E0
2.941546161E0,-3.690928817E-1,-1.042373371E1,-1.201795220E0
2.944039025E0,-3.643072546E-1,-1.046680450E1,-1.177866936E0
2.946531890E0,-3.403790295E-1,-1.044287586E1,-1.187438250E0
2.949024807E0,-2.829512656E-1,-1.048594666E1,-1.158724308E0
2.951517671E0,-2.781656384E-1,-1.047637558E1,-1.206580877E0
2.954010588E0,-2.111666054E-1,-1.045244789E1,-1.235294700E0
2.956503452E0,-2.063809484E-1,-1.041894817E1,-1.225723386E0
2.958996317E0,-2.207378894E-1,-1.042373371E1,-1.244866014E0
2.961489234E0,-1.920240223E-1,-1.038066292E1,-1.321436286E0
2.963982098E0,-1.776670814E-1,-1.037109184E1,-1.273579836E0
2.966474963E0,-9.152546525E-2,-1.038066292E1,-1.254437327E0
2.968967880E0,-1.202393398E-1,-1.034716320E1,-1.264008522E0
2.971462046E0,-1.298106313E-1,-1.027478027E1,-1.268794179E0
2.973954911E0,-9.631111473E-2,-1.026999474E1,-1.268794179E0
2.976447775E0,-6.281159073E-2,-1.021256733E1,-1.278365493E0
2.978940692E0,-5.802594870E-2,-1.012642574E1,-1.292722464E0
2.981433557E0,-5.383851007E-3,-1.008335495E1,-1.273579836E0
2.983926473E0,-5.324030295E-2,-1.000678444E1,-1.264008522E0
2.986419338E0,-6.281159073E-2,-9.968499184E0,-1.297508121E0
2.988912202E0,-9.631111473E-2,-9.934999466E0,-1.292722464E0
2.991405119E0,-7.716853172E-2,-9.882357597E0,-1.307079315E0
2.993897984E0,-1.441675574E-1,-9.853643417E0,-1.235294700E0
2.996390900E0,-1.010967568E-1,-9.805787086E0,-1.201795220E0
2.998883765E0,-1.058823988E-1,-9.791430473E0,-1.201795220E0
3.001378557E0,-8.195417374E-2,-9.742975235E0,-1.168295622E0
3.003871421E0,-6.759724021E-2,-9.747760773E0,-1.134796143E0
3.006364338E0,-1.202393398E-1,-9.709476471E0,-1.173081279E0
3.008857202E0,-1.106680483E-1,-9.656833649E0,-1.197009563E0
3.011350067E0,-1.489532143E-1,-9.637691498E0,-1.197009563E0
3.013842984E0,-6.759724021E-2,-9.594620705E0,-1.197009563E0
3.016335848E0,-3.888336942E-2,-9.589835167E0,-1.230509043E0
3.018828713E0,-5.324030295E-2,-9.580264091E0,-1.230509043E0
3.021321630E0,-2.931207791E-2,-9.498908043E0,-1.268794179E0
3.023814494E0,2.333002165E-2,-9.427123070E0,-1.292722464E0
3.026307411E0,4.247260094E-2,-9.474979401E0,-1.311864972E0
3.028800275E0,1.854437590E-2,-9.474979401E0,-1.302293777E0
3.031289286E0,6.699903309E-2,-9.431908607E0,-1.378864050E0
3.033782150E0,2.057827413E-1,-9.489336014E0,-1.407577872E0
3.036275067E0,2.201396823E-1,-9.585049629E0,-1.421934843E0
3.038767932E0,1.914258152E-1,-9.652048111E0,-1.465005636E0
3.041260796E0,1.531406492E-1,-9.728618622E0,-1.479362607E0
3.043753713E0,2.249253243E-1,-9.801001549E0,-1.546959877E0
3.046246577E0,2.919243574E-1,-9.939785004E0,-1.642672777E0
3.048739442E0,3.349951804E-1,-1.007856941E1,-1.714457393E0
3.051232359E0,3.780659735E-1,-1.019342422E1,-1.781456470E0
3.053725223E0,4.546363056E-1,-1.031844902E1,-1.915454507E0
3.056218088E0,5.694918036E-1,-1.040937710E1,-2.044667006E0
3.058711005E0,6.514459848E-1,-1.057687473E1,-2.203191519E0
3.061197463E0,6.562315822E-1,-1.065822983E1,-2.375474691E0
3.063690327E0,7.423732281E-1,-1.066301632E1,-2.538186550E0
3.066183192E0,9.098708034E-1,-1.084068298E1,-2.605783939E0
3.068676109E0,1.010369420E0,-1.096032429E1,-2.739781857E0
3.071168973E0,1.043868899E0,-1.103210926E1,-2.921636343E0
3.073661890E0,1.192822099E0,-1.112303638E1,-3.055634499E0
3.076154755E0,1.307677627E0,-1.118046379E1,-3.171088219E0
3.078647619E0,1.389033556E0,-1.120917797E1,-3.309871912E0
3.081140536E0,1.503889084E0,-1.126660538E1,-3.458226919E0
3.083633400E0,1.594816327E0,-1.133839035E1,-3.496512175E0
3.086126317E0,1.715055585E0,-1.142512989E1,-3.587439299E0
3.088619182E0,1.853839397E0,-1.147777176E1,-3.649652719E0
3.091135223E0,1.911267042E0,-1.150170040E1,-3.625724554E0
3.093628088E0,1.954337835E0,-1.162134171E1,-3.644867182E0
3.096121005E0,2.021337032E0,-1.170748329E1,-3.654438496E0
3.098613921E0,2.093121529E0,-1.181755257E1,-3.577867985E0
3.101106786E0,2.054836512E0,-1.181276703E1,-3.539582968E0
3.103599702E0,2.026122570E0,-1.181755257E1,-3.486940861E0
3.106092567E0,2.011765718E0,-1.182712460E1,-3.376870871E0
3.108585484E0,2.050050735E0,-1.178405285E1,-3.300300598E0
3.111078348E0,2.026122570E0,-1.178405285E1,-3.252444267E0
3.113571265E0,1.987837434E0,-1.178883934E1,-3.046063185E0
3.116064182E0,1.963909149E0,-1.177926731E1,-2.969492912E0
3.118557046E0,1.911267042E0,-1.173141098E1,-2.883351326E0
3.121038609E0,1.872981906E0,-1.171226883E1,-2.715853691E0
3.123531473E0,1.844268084E0,-1.170269775E1,-2.542972326E0
3.126024390E0,1.844268084E0,-1.166919804E1,-2.413759947E0
3.128517307E0,1.772483349E0,-1.161176968E1,-2.255833626E0
3.131010171E0,1.715055585E0,-1.156869888E1,-2.083550215E0
3.133503088E0,1.618744493E0,-1.151605701E1,-1.929811478E0
3.135995952E0,1.503889084E0,-1.147298622E1,-1.800599098E0
3.138488869E0,1.403390527E0,-1.137727356E1,-1.628315806E0
3.140981734E0,1.231107235E0,-1.130967617E1,-1.599601984E0
3.143474650E0,1.134796143E0,-1.122353458E1,-1.647458434E0
3.145967567E0,1.005583763E0,-1.114217854E1,-1.326221943E0
3.148460432E0,9.625129104E-1,-1.109910774E1,-1.297508121E0
3.150944650E0,8.668000102E-1,-1.102253723E1,-1.230509043E0
3.153437515E0,7.758727670E-1,-1.094596672E1,-1.153938770E0
3.155930432E0,6.993024349E-1,-1.085025406E1,-1.153938770E0
3.158423348E0,6.418746710E-1,-1.080658531E1,-1.130010486E0
3.160916213E0,6.610172391E-1,-1.073958588E1,-1.024726272E0
3.163409130E0,6.610172391E-1,-1.064387321E1,-9.810572863E-1
3.165901994E0,6.945167780E-1,-1.058644581E1,-9.714859724E-1
3.168394911E0,7.471588850E-1,-1.047637558E1,-9.140582681E-1
3.170887775E0,7.615157962E-1,-1.035673428E1,-9.044869542E-1
3.173380692E0,8.476574421E-1,-1.021735287E1,-8.709874153E-1
3.175873609E0,9.290133715E-1,-1.012164021E1,-9.427721500E-1
3.178366473E0,9.625129104E-1,-1.006421185E1,-1.034297585E0
3.180860432E0,1.010369420E0,-9.973284721E0,-1.067797065E0
3.183353296E0,1.029511929E0,-9.834501266E0,-1.163509965E0
3.185846213E0,1.043868899E0,-9.675976753E0,-1.192223907E0
3.188339130E0,1.005583763E0,-9.537193298E0,-1.187438250E0
3.190831994E0,9.290133715E-1,-9.364909172E0,-1.273579836E0
3.193324911E0,8.285148144E-1,-9.225527763E0,-1.407577872E0
3.195817775E0,6.993024349E-1,-9.086744308E0,-1.642672777E0
3.198310692E0,3.924229145E-1,-9.019744873E0,-1.982453585E0
3.200803557E0,8.135596663E-2,-9.014959335E0,-2.260619164E0
3.203296473E0,-1.298106313E-1,-9.038887978E0,-2.428116798E0
3.205789390E0,-4.552344978E-1,-9.062815666E0,-2.701496840E0
3.208282255E0,-7.286145091E-1,-9.067601204E0,-2.945564747E0
3.210781213E0,-1.107278705E0,-9.110671997E0,-2.993421078E0
3.213274077E0,-1.394417405E0,-9.101100922E0,-3.137588739E0
3.215766994E0,-1.653440475E0,-9.058030128E0,-3.238087177E0
3.218259911E0,-1.792224169E0,-9.000602722E0,-3.190230846E0
3.220752775E0,-1.730010748E0,-8.957531929E0,-3.223730326E0
3.223245692E0,-1.701296926E0,-9.019744873E0,-3.074777126E0
3.225738557E0,-1.504487276E0,-9.010173798E0,-2.806781054E0
3.228231473E0,-1.236491084E0,-9.062815666E0,-2.318047047E0
3.230724338E0,-1.030708313E0,-9.000602722E0,-2.140978098E0
3.233217255E0,-7.381857634E-1,-8.876175880E0,-2.064407825E0
3.235710171E0,-3.834498227E-1,-8.880961418E0,-2.150549412E0
3.238203036E0,-1.495514158E-2,-8.924032211E0,-2.174477577E0
3.240697932E0,4.163511395E-1,-8.866603851E0,-2.365903378E0
3.243190796E0,8.045865893E-1,-8.962317467E0,-2.490330219E0
3.245683713E0,1.120439172E0,-8.967103004E0,-2.691925526E0
3.248176630E0,1.355534077E0,-8.938388824E0,-2.921636343E0
3.250669494E0,1.561316729E0,-8.914461136E0,-3.108276606E0
3.253162411E0,1.758126378E0,-8.857032776E0,-3.195016384E0
3.255655275E0,1.911267042E0,-8.809176445E0,-3.238087177E0
3.258148192E0,1.968694806E0,-8.833105087E0,-3.386442184E0
3.260641057E0,2.054836512E0,-8.847461700E0,-3.486940861E0
3.263133973E0,2.193620205E0,-8.967103004E0,-3.372085333E0
3.265626890E0,2.285145521E0,-9.038887978E0,-3.348157167E0
3.268119755E0,2.376072884E0,-9.077172279E0,-3.242872953E0
3.270599911E0,2.404786825E0,-9.125029564E0,-3.180659533E0
3.273092775E0,2.352144718E0,-9.168100357E0,-2.993421078E0
3.275585692E0,2.251646042E0,-9.153742790E0,-2.897708178E0
3.278078609E0,2.140978098E0,-9.105886459E0,-2.677568436E0
3.280571473E0,2.035693884E0,-9.048459053E0,-2.475973129E0
3.283064390E0,1.887338877E0,-9.005388260E0,-2.361117840E0
3.285557255E0,1.691127419E0,-8.947959900E0,-2.327618122E0
3.288050171E0,1.695913076E0,-8.857032776E0,-2.025524378E0
3.290543036E0,1.599601984E0,-8.833105087E0,-1.910668850E0
3.293035952E0,1.590030670E0,-8.828319550E0,-1.853241086E0
3.295528869E0,1.657029629E0,-8.794819832E0,-1.814955950E0
3.298021734E0,1.681556106E0,-8.737391472E0,-1.824527264E0
3.300545380E0,1.652244091E0,-8.718249321E0,-1.786242127E0
3.303038244E0,1.671386600E0,-8.655437469E0,-1.824527264E0
3.305531161E0,1.705484390E0,-8.636295319E0,-1.767099500E0
3.308024077E0,1.777269006E0,-8.645866394E0,-1.810170293E0
3.310516942E0,1.805982947E0,-8.665008545E0,-1.824527264E0
3.313009859E0,1.916052699E0,-8.598010063E0,-1.858026743E0
3.315502723E0,1.930409670E0,-8.593224525E0,-1.891526341E0
3.317995640E0,1.920838356E0,-8.621937752E0,-1.853241086E0
3.320488505E0,2.054836512E0,-8.636295319E0,-2.294118643E0
3.322981421E0,2.107478619E0,-8.669795036E0,-2.035095692E0
3.325474338E0,1.983051777E0,-8.564510345E0,-1.958525300E0
3.327967202E0,2.045265198E0,-8.511868477E0,-2.140978098E0
3.330448192E0,2.150549412E0,-8.559724808E0,-2.174477577E0
3.332941057E0,2.203191519E0,-8.502297401E0,-2.112264156E0
3.335433973E0,2.237289190E0,-8.483154297E0,-2.174477577E0
3.337926890E0,2.222932339E0,-8.521439552E0,-2.432902336E0
3.340419755E0,2.193620205E0,-8.507082939E0,-2.365903378E0
3.342912671E0,2.136192322E0,-8.497511864E0,-2.413759947E0
3.345405536E0,2.169692039E0,-8.511868477E0,-2.576471806E0
3.347898452E0,2.261217356E0,-8.497511864E0,-2.658426046E0
3.350391317E0,2.227717876E0,-8.497511864E0,-2.682354212E0
3.352884234E0,2.213361025E0,-8.516654015E0,-2.782852650E0
3.355377150E0,2.299502611E0,-8.550153732E0,-3.012563705E0
3.357870015E0,2.251646042E0,-8.492725372E0,-2.998206854E0
3.360357984E0,2.227717876E0,-8.497511864E0,-2.959921598E0
3.362850848E0,2.323430777E0,-8.497511864E0,-3.122633457E0
3.365343765E0,2.356930256E0,-8.449654579E0,-3.276372433E0
3.367836682E0,2.318645239E0,-8.401798248E0,-3.290729284E0
3.370329546E0,2.380858421E0,-8.320442200E0,-3.391227961E0
3.372822463E0,2.395215511E0,-8.267800331E0,-3.491726398E0
3.375315327E0,2.337787628E0,-8.263014793E0,-3.405584812E0
3.377808244E0,2.371287346E0,-8.219944000E0,-3.419941664E0
3.380301109E0,2.419143677E0,-8.152346611E0,-3.582653761E0
3.382794025E0,2.318645239E0,-8.094919205E0,-3.597010612E0
3.385286942E0,2.280359983E0,-8.080561638E0,-3.506083488E0
3.387779807E0,2.294716835E0,-8.070990562E0,-3.482155085E0
3.390269702E0,2.222932339E0,-8.104490280E0,-3.611367464E0
3.392762567E0,2.107478619E0,-8.075776100E0,-3.625724554E0
3.395255484E0,2.145763636E0,-8.056633949E0,-3.563511133E0
3.397748400E0,2.131406784E0,-8.008777618E0,-3.654438496E0
3.400241265E0,1.968694806E0,-8.056633949E0,-3.539582968E0
3.402734182E0,1.877767563E0,-8.056633949E0,-3.582653761E0
3.405227046E0,1.868196249E0,-7.994420528E0,-3.582653761E0
3.407719963E0,1.810768485E0,-8.023134232E0,-3.640081406E0
3.410212827E0,1.791625977E0,-7.980063438E0,-3.678964853E0
3.412705744E0,1.829911113E0,-7.960920811E0,-3.808177233E0
3.415198661E0,1.767697692E0,-7.956135273E0,-3.726821184E0
3.417691525E0,1.738983870E0,-8.037490845E0,-3.755535126E0
3.420192984E0,1.748555183E0,-7.970492363E0,-3.856033802E0
3.422685848E0,1.715055585E0,-7.932207108E0,-3.942175388E0
3.425178765E0,1.585245013E0,-7.917850018E0,-3.999603033E0
3.427671682E0,1.570888042E0,-7.932207108E0,-4.047459602E0
3.430164546E0,1.532602906E0,-7.922635555E0,-4.071387768E0
3.432657463E0,1.532602906E0,-7.970492363E0,-4.143172264E0
3.435150327E0,1.585245013E0,-7.951349735E0,-4.157529354E0
3.437643244E0,1.542174220E0,-7.951349735E0,-4.186243057E0
3.440136109E0,1.518245935E0,-7.984848976E0,-4.186243057E0
3.442629025E0,1.618744493E0,-8.027919769E0,-4.258625984E0
3.445121942E0,1.681556106E0,-8.080561638E0,-4.296911240E0
3.447614807E0,1.647458434E0,-8.066205025E0,-4.335196495E0
3.450094182E0,1.671386600E0,-8.161917686E0,-4.383052826E0
3.452587046E0,1.700698733E0,-8.152346611E0,-4.483551502E0
3.455079963E0,1.724626899E0,-8.219944000E0,-4.421338081E0
3.457572880E0,1.844268084E0,-8.219944000E0,-4.464408875E0
3.460065744E0,1.877767563E0,-8.172087669E0,-4.584050179E0
3.462558661E0,1.853839397E0,-8.200801849E0,-4.598406792E0
3.465051525E0,1.863410592E0,-8.224729538E0,-4.627120972E0
3.467544442E0,2.069193363E0,-8.200801849E0,-4.670191765E0
3.470037307E0,2.121835470E0,-8.200801849E0,-4.732405186E0
3.472530223E0,2.131406784E0,-8.215158463E0,-4.742574692E0
3.475023088E0,2.280359983E0,-8.234300613E0,-4.895715237E0
3.477516005E0,2.404786825E0,-8.219944000E0,-4.972285271E0
3.480013921E0,2.500499725E0,-8.243872643E0,-4.948357105E0
3.482506786E0,2.600998163E0,-8.229515076E0,-5.015356064E0
3.484999702E0,2.682354212E0,-8.272585869E0,-5.087141037E0
3.487492619E0,2.759522676E0,-8.282156944E0,-5.111069202E0
3.489985484E0,2.855235577E0,-8.382656097E0,-5.130211830E0
3.492478400E0,2.974876642E0,-8.377870560E0,-5.125426292E0
3.494971265E0,3.037090063E0,-8.368298531E0,-5.120640278E0
3.497464182E0,3.056232691E0,-8.440083504E0,-5.077569485E0
3.499957046E0,3.137588739E0,-8.444869041E0,-5.067998409E0
3.502449963E0,3.185445070E0,-8.397012711E0,-5.063212872E0
3.504942880E0,3.180659533E0,-8.363512993E0,-4.991427898E0
3.507435744E0,3.137588739E0,-8.349156380E0,-4.919643402E0
3.509933140E0,3.180659533E0,-8.310871124E0,-4.871787071E0
3.512426005E0,3.180659533E0,-8.267800331E0,-4.838287354E0
3.514918921E0,3.132802963E0,-8.215158463E0,-4.814359188E0
3.517411838E0,3.113660574E0,-8.118846893E0,-4.742574692E0
3.519904702E0,3.070589542E0,-8.027919769E0,-4.752145767E0
3.522397619E0,3.027518749E0,-7.989634991E0,-4.776073933E0
3.524890484E0,2.955734253E0,-7.941778183E0,-4.684548378E0
3.527383400E0,2.936591625E0,-7.898707390E0,-4.631906509E0
3.529876265E0,2.893520832E0,-7.936992645E0,-4.627120972E0
3.532369182E0,2.850450039E0,-7.850851059E0,-4.598406792E0
3.534862098E0,2.821736097E0,-7.807780266E0,-4.512265205E0
3.537354963E0,2.816950560E0,-7.798209190E0,-4.493122578E0
3.539834598E0,2.691925526E0,-7.769495010E0,-4.397409916E0
3.542327463E0,2.663211584E0,-7.707281590E0,-4.325624943E0
3.544820380E0,2.663211584E0,-7.678567886E0,-4.249054909E0
3.547313296E0,2.644068956E0,-7.692924976E0,-4.191029072E0
3.549806161E0,2.562713146E0,-7.582256794E0,-4.157529354E0
3.552299077E0,2.481357098E0,-7.582256794E0,-4.157529354E0
3.554791942E0,2.471785784E0,-7.534400463E0,-4.157529354E0
3.557284859E0,2.419143677E0,-7.476972580E0,-4.090530396E0
3.559777723E0,2.337787628E0,-7.453044415E0,-4.061816216E0
3.562270640E0,2.275574446E0,-7.376473904E0,-4.061816216E0
3.564763557E0,2.232503414E0,-7.390830994E0,-4.047459602E0
3.567256421E0,2.160120726E0,-7.390830994E0,-4.080958843E0
3.569757984E0,2.107478619E0,-7.362117290E0,-4.061816216E0
3.572250848E0,2.059622049E0,-7.357331276E0,-4.124029636E0
3.574743765E0,1.992623091E0,-7.429116249E0,-4.215555191E0
3.577236682E0,1.944766641E0,-7.429116249E0,-4.234697819E0
3.579729546E0,1.853839397E0,-7.400402069E0,-4.220340729E0
3.582222463E0,1.820339799E0,-7.491329670E0,-4.282554150E0
3.584715327E0,1.815554142E0,-7.515257835E0,-4.292125702E0
3.587208244E0,1.791625977E0,-7.620542049E0,-4.301696777E0
3.589701109E0,1.777269006E0,-7.692924976E0,-4.411766529E0
3.592194025E0,1.748555183E0,-7.735995770E0,-4.464408875E0
3.594686942E0,1.647458434E0,-7.793423176E0,-4.579264164E0
3.597179807E0,1.623530149E0,-7.846065521E0,-4.670191765E0
3.599675067E0,1.652244091E0,-7.869993687E0,-4.756931305E0
3.602167932E0,1.623530149E0,-7.927421570E0,-4.828716278E0
3.604660796E0,1.661815286E0,-8.047062874E0,-4.890929699E0
3.607153713E0,1.671386600E0,-8.099704742E0,-5.053641319E0
3.609646577E0,1.666600943E0,-8.161917686E0,-5.173282623E0
3.612139494E0,1.805982947E0,-8.243872643E0,-5.254638672E0
3.614632359E0,1.935195327E0,-8.267800331E0,-5.317450047E0
3.617125223E0,2.069193363E0,-8.330014229E0,-5.298307419E0
3.619618140E0,2.069193363E0,-8.291728973E0,-5.384449005E0
3.622111005E0,2.140978098E0,-8.315656662E0,-5.432305813E0
3.624603869E0,2.299502611E0,-8.368298531E0,-5.417948723E0
3.627096786E0,2.356930256E0,-8.353941917E0,-5.417948723E0
3.629589859E0,2.404786825E0,-8.315656662E0,-5.408377171E0
3.632082723E0,2.447857618E0,-8.267800331E0,-5.408377171E0
3.634575588E0,2.481357098E0,-8.229515076E0,-5.360520840E0
3.637068505E0,2.567498684E0,-8.215158463E0,-5.346164227E0
3.639561369E0,2.543570518E0,-8.243872643E0,-5.322235584E0
3.642054286E0,2.481357098E0,-8.181658745E0,-5.293521881E0
3.644547150E0,2.495713949E0,-8.147561073E0,-5.327021599E0
3.647040015E0,2.567498684E0,-8.142775536E0,-5.327021599E0
3.649532932E0,2.553141832E0,-8.128418922E0,-5.303092957E0
3.652025796E0,2.557927370E0,-8.090133667E0,-5.365306377E0
3.654518661E0,2.615355253E0,-8.085348129E0,-5.394020557E0
3.657011577E0,2.591426849E0,-8.172087669E0,-5.437091351E0
3.659489598E0,2.634497643E0,-8.215158463E0,-5.427519798E0
3.661982463E0,2.644068956E0,-8.186444283E0,-5.384449005E0
3.664475327E0,2.495713949E0,-8.291728973E0,-5.489733219E0
3.666968244E0,2.529213428E0,-8.373085022E0,-5.537590027E0
3.669461109E0,2.538784742E0,-8.554939270E0,-5.532804012E0
3.671954025E0,2.562713146E0,-8.699107170E0,-5.547161102E0
3.674446890E0,2.581855536E0,-8.847461700E0,-5.551946640E0
3.676939755E0,2.533999205E0,-9.038887978E0,-5.575874805E0
3.679432671E0,2.510071039E0,-9.230313301E0,-5.671587944E0
3.681925536E0,2.467000246E0,-9.355338097E0,-5.724229813E0
3.684418400E0,2.409572363E0,-9.556335449E0,-5.834897995E0
3.686911317E0,2.356930256E0,-9.796216011E0,-5.968895912E0
3.689417567E0,2.227717876E0,-1.000199890E1,-6.078966141E0
3.691910432E0,2.150549412E0,-1.022692394E1,-6.045466423E0
3.694403296E0,2.078764677E0,-1.054816055E1,-6.021538258E0
3.696896213E0,1.916052699E0,-1.085503960E1,-6.102894306E0
3.699389077E0,1.686341763E0,-1.120439243E1,-6.236892223E0
3.701881994E0,1.432104349E0,-1.158305645E1,-6.251249313E0
3.704374859E0,1.264606714E0,-1.197607708E1,-6.289534092E0
3.706867723E0,1.164108157E0,-1.247438240E1,-6.390631199E0
3.709360640E0,1.063011408E0,-1.300618744E1,-6.481558323E0
3.711853505E0,8.907282352E-1,-1.354277802E1,-6.538986206E0
3.714346421E0,8.333004713E-1,-1.407458305E1,-6.629913330E0
3.716839286E0,7.423732281E-1,-1.450529099E1,-6.711269379E0
3.719331682E0,8.811569214E-1,-1.503231049E1,-6.773482800E0
3.721824546E0,9.625129104E-1,-1.544925976E1,-6.903293133E0
3.724317411E0,1.077368379E0,-1.579920959E1,-7.042077065E0
3.726810327E0,1.360319614E0,-1.606241989E1,-7.338787079E0
3.729303192E0,1.585245013E0,-1.622573090E1,-7.573882103E0
3.731796109E0,1.983051777E0,-1.636929893E1,-7.727022648E0
3.734288973E0,2.404786825E0,-1.631187248E1,-7.962117195E0
3.736781838E0,2.749951363E0,-1.620180130E1,-8.239685059E0
3.739274755E0,3.075375319E0,-1.601456451E1,-8.513064384E0
3.741767619E0,3.377469063E0,-1.577528191E1,-8.656634331E0
3.744260484E0,3.774677753E0,-1.553061581E1,-8.637491226E0
3.746753400E0,4.220340729E0,-1.524347687E1,-8.340183258E0
3.749233088E0,4.862215519E0,-1.492702579E1,-8.029116631E0
3.751725952E0,5.135595798E0,-1.450050545E1,-7.502097130E0
3.754218869E0,5.255236626E0,-1.408893967E1,-6.888936520E0
3.756711734E0,5.279164791E0,-1.359063435E1,-6.505486488E0
3.759204598E0,5.374877930E0,-1.296730423E1,-5.599802971E0
3.761697515E0,5.149952412E0,-1.217228889E1,-4.843072891E0
3.764190380E0,4.670789719E0,-1.126660538E1,-4.215555191E0
3.766683244E0,4.095914364E0,-1.022213840E1,-3.644867182E0
3.769176161E0,3.242872953E0,-9.144171715E0,-3.238087177E0
3.771669025E0,2.256431818E0,-7.855636597E0,-3.031706333E0
3.774161890E0,1.269392371E0,-6.557530403E0,-2.811566591E0
3.776654807E0,3.254238665E-1,-5.249254704E0,-2.557329178E0
3.779150171E0,-6.951149702E-1,-3.903291941E0,-2.265404940E0
3.781643036E0,-1.629512191E0,-2.599801779E0,-1.886740685E0
3.784135900E0,-2.827120066E0,-1.368694544E0,-1.417149186E0
3.786628817E0,-3.881158352E0,-1.950150430E-1,-1.101296663E0
3.789121682E0,-4.992624283E0,6.628118753E-1,-8.662018180E-1
3.791614598E0,-6.089733601E0,1.323829174E0,-7.944171429E-1
3.794107463E0,-6.985845566E0,1.702493310E0,-7.609176040E-1
3.796600327E0,-7.685148239E0,1.745564103E0,-8.039883971E-1
3.799093244E0,-8.307880402E0,1.544566989E0,-8.470591903E-1
3.801586109E0,-8.806185722E0,8.829515576E-1,-1.015154958E0
3.804079025E0,-9.189635277E0,1.214357466E-1,-1.163509965E0
3.806571890E0,-9.026325226E0,-5.395814776E-1,-1.259222865E0
3.809060848E0,-8.197810173E0,-1.354337573E0,-1.115653515E0
3.811553713E0,-7.220342159E0,-2.230708838E0,-1.063011408E0
3.814046577E0,-6.142375946E0,-3.303889751E0,-9.906286001E-1
3.816539494E0,-4.920839787E0,-4.381856441E0,-1.000798106E0
3.819032359E0,-3.622135162E0,-5.489135265E0,-1.130010486E0
3.821525275E0,-2.304886341E0,-6.634100914E0,-1.393221021E0
3.824018140E0,-7.286145091E-1,-7.740781307E0,-1.867598057E0
3.826511005E0,7.519445419E-1,-8.919246674E0,-2.442473650E0
3.829003921E0,2.121835470E0,-1.004506969E1,-2.998206854E0
3.831496786E0,3.320041418E0,-1.110389328E1,-3.463012457E0
3.833989650E0,4.594219685E0,-1.206221867E1,-3.717249870E0
3.836482567E0,5.581258774E0,-1.293859005E1,-3.726821184E0
3.838979546E0,6.165705681E0,-1.370549011E1,-3.625724554E0
3.841472411E0,6.640082836E0,-1.451007652E1,-3.348157167E0
3.843965327E0,6.759724140E0,-1.509930897E1,-2.835494757E0
3.846458192E0,6.462415695E0,-1.558325768E1,-2.246262312E0
3.848951057E0,5.930611134E0,-1.584706593E1,-1.585245013E0
3.851443973E0,5.001597404E0,-1.587099457E1,-1.010369420E0
3.853936838E0,3.880560160E0,-1.566042614E1,-6.652047038E-1
3.856429702E0,2.931805849E0,-1.528654766E1,-4.540380836E-1
3.858922619E0,2.021337032E0,-1.474517155E1,-2.721835673E-1
3.861415484E0,1.379462242E0,-1.402612782E1,-1.764706671E-1
3.863908400E0,8.476574421E-1,-1.319761372E1,-2.291127741E-1
3.866401265E0,1.962114573E-1,-1.244028473E1,-2.291127741E-1
3.868896838E0,-3.499503136E-1,-1.174098206E1,-3.056831062E-1
3.871389702E0,-8.673982024E-1,-1.112782192E1,-3.104687333E-1
3.873882619E0,-1.250848055E0,-1.049073315E1,-3.487538993E-1
3.876375484E0,-1.494915962E0,-9.920642853E0,-4.833501875E-1
3.878868348E0,-1.720439434E0,-9.412766457E0,-6.173482537E-1
3.881361265E0,-1.768295884E0,-8.967103004E0,-6.939185858E-1
3.883854130E0,-1.816152334E0,-8.526225090E0,-8.518448472E-1
3.886346994E0,-1.663011789E0,-8.224729538E0,-1.120439172E0
3.888839911E0,-1.537986755E0,-7.951349735E0,-1.278365493E0
3.891332775E0,-1.260419369E0,-7.764709473E0,-1.508076429E0
3.893825692E0,-1.045065284E0,-7.645068169E0,-1.628315806E0
3.896318557E0,-7.286145091E-1,-7.558328629E0,-1.671386600E0
3.898811734E0,-4.169493318E-1,-7.524828911E0,-1.532602906E0
3.901304598E0,-4.845465720E-2,-7.543971539E0,-1.326221943E0
3.903797463E0,2.488535494E-1,-7.654639721E0,-1.106082320E0
3.906290380E0,5.790630579E-1,-7.788637638E0,-8.614161611E-1
3.908783244E0,8.524430394E-1,-7.922635555E0,-4.881358147E-1
3.911276161E0,1.048654556E0,-8.118846893E0,-2.051845491E-1
3.913769025E0,1.178465128E0,-8.368298531E0,4.845465720E-2
3.916261890E0,1.274178028E0,-8.593224525E0,2.404786795E-1
3.918754807E0,1.317248821E0,-8.904889107E0,5.228317380E-1
3.921247671E0,1.326820135E0,-9.215956688E0,7.866404653E-1
3.923740588E0,1.264606714E0,-9.451051712E0,9.302098155E-1
3.926233452E0,1.293320656E0,-9.723833084E0,1.030708313E0
3.928728088E0,1.235892892E0,-1.002114105E1,1.208375454E0
3.931220952E0,1.207179070E0,-1.026999474E1,1.083350420E0
3.933713869E0,1.106082320E0,-1.048116112E1,1.059422255E0
3.936206734E0,1.096511006E0,-1.062951660E1,1.083350420E0
3.938699598E0,1.130010486E0,-1.078265667E1,1.006780148E0
3.941192515E0,1.086939692E0,-1.093639565E1,8.249256015E-1
3.943685380E0,1.125224829E0,-1.104168034E1,7.914260626E-1
3.946178244E0,1.154536963E0,-1.113739300E1,7.292127013E-1
3.948671161E0,1.125224829E0,-1.121396351E1,6.957131624E-1
3.951164025E0,1.110867858E0,-1.131924725E1,7.148557901E-1
3.953656942E0,1.106082320E0,-1.138205910E1,6.861419082E-1
3.956149807E0,9.529415965E-1,-1.140598774E1,6.861419082E-1
3.958638088E0,7.471588850E-1,-1.143948650E1,6.574280262E-1
3.961130952E0,3.780659735E-1,-1.138205910E1,5.946164131E-1
3.963623869E0,-9.631111473E-2,-1.133839035E1,5.419743061E-1
3.966116734E0,-4.313062727E-1,-1.123310566E1,4.271188378E-1
3.968609598E0,-2.590230405E-1,-1.124746323E1,2.452643216E-1
3.971102515E0,2.584248483E-1,-1.126181984E1,1.064806059E-1
3.973595380E0,7.184450030E-1,-1.137189007E1,1.016949639E-1
3.976088244E0,1.575673699E0,-1.159741306E1,2.500499785E-1
3.978581161E0,1.585245013E0,-1.157827091E1,3.553341627E-1
3.981074025E0,4.498506486E-1,-1.146820068E1,4.749752879E-1
3.983566942E0,3.637090325E-1,-1.138205910E1,6.089733839E-1
3.986059807E0,2.871387303E-1,-1.131924725E1,6.669993401E-1
3.988551161E0,3.684946895E-1,-1.127139091E1,8.153542876E-1
3.991044025E0,1.259821177E0,-1.137189007E1,1.194018483E0
3.993536942E0,1.398604870E0,-1.138684464E1,1.030708313E0
3.996029807E0,1.000798106E0,-1.130010509E1,1.213161111E0
3.998522671E0,6.562315822E-1,-1.116610718E1,1.299302697E0
4.001015588E0,4.498506486E-1,-1.108475113E1,1.116850019E0
4.003508452E0,4.833501875E-1,-1.101296616E1,1.073779106E0
4.006001317E0,7.567301393E-1,-1.093639565E1,1.160519004E0
4.008494234E0,8.859425783E-1,-1.089332485E1,1.073779106E0
4.010987098E0,9.146564603E-1,-1.085025406E1,8.679963946E-1
4.013480015E0,8.955138922E-1,-1.075394344E1,7.196413875E-1
4.015972880E0,8.572286963E-1,-1.061994553E1,6.574280262E-1
4.018466525E0,8.620143533E-1,-1.048594666E1,6.334998012E-1
4.020959390E0,9.002995491E-1,-1.039980507E1,6.813562512E-1
4.023452307E0,9.960124493E-1,-1.026999474E1,8.009973764E-1
4.025945171E0,1.086939692E0,-1.022213840E1,9.254241586E-1
4.028438036E0,9.912267923E-1,-1.020778179E1,7.339983582E-1
4.030930952E0,9.194421172E-1,-1.014556789E1,6.574280262E-1
4.033423817E0,9.146564603E-1,-1.009292603E1,7.052844763E-1
4.035916682E0,8.476574421E-1,-1.004985523E1,5.754738450E-1
4.038409598E0,7.519445419E-1,-1.001635551E1,5.563312769E-1
4.040902463E0,7.854440212E-1,-9.954142570E0,8.440681696E-1
4.043395327E0,8.763712645E-1,-9.954142570E0,1.102493048E0
4.045888244E0,6.275177598E-1,-9.906285286E0,6.089733839E-1
4.048379234E0,3.972085714E-1,-9.781859398E0,4.127618968E-1
4.050872098E0,3.397808075E-1,-9.699904442E0,5.036891699E-1
4.053365015E0,3.397808075E-1,-9.647262573E0,6.041877270E-1
4.055857880E0,3.062812984E-1,-9.637691498E0,5.467599630E-1
4.058350744E0,3.732803464E-1,-9.580264091E0,5.898307562E-1
4.060843661E0,3.780659735E-1,-9.522835732E0,6.382854581E-1
4.063336525E0,4.067798555E-1,-9.527621269E0,6.382854581E-1
4.065829390E0,3.397808075E-1,-9.407979965E0,6.137589812E-1
4.068322307E0,3.302095234E-1,-9.307481766E0,6.957131624E-1
4.070815171E0,4.115654826E-1,-9.321838379E0,7.100701332E-1
4.073308088E0,4.163511395E-1,-9.317052841E0,5.419743061E-1
4.075800952E0,3.206382394E-1,-9.206384659E0,3.314059377E-1
4.078295223E0,2.057827413E-1,-9.105886459E0,1.016949639E-1
4.080788088E0,2.057827413E-1,-9.024530411E0,-9.990034252E-2
4.083281005E0,2.009970993E-1,-8.938388824E0,-2.338984162E-1
4.085773869E0,2.105683982E-1,-8.837890625E0,-3.343969584E-1
4.088266734E0,2.823530734E-1,-8.809176445E0,-4.109672904E-1
4.090759650E0,4.546363056E-1,-8.871390343E0,-2.817548811E-1
4.093252515E0,6.801598072E-1,-8.986245155E0,-1.238285750E-1
4.095745380E0,6.418746710E-1,-8.938388824E0,-4.253242314E-1
4.098238296E0,3.876372576E-1,-8.823533058E0,-8.566305041E-1
4.100731161E0,2.919243574E-1,-8.794819832E0,-8.422735929E-1
4.103224025E0,3.876372576E-1,-8.780462265E0,-6.508477330E-1
4.105716942E0,3.876372576E-1,-8.809176445E0,-5.886343718E-1
4.108210015E0,3.684946895E-1,-8.756534576E0,-5.024927258E-1
4.110702880E0,3.780659735E-1,-8.818747520E0,-4.540380836E-1
4.113195744E0,3.541377485E-1,-8.775676727E0,-3.343969584E-1
4.115688609E0,3.493520916E-1,-8.790034294E0,-2.913261652E-1
4.118181473E0,4.307080805E-1,-8.794819832E0,-2.530409992E-1
4.120674338E0,5.024927258E-1,-8.876175880E0,-1.668993831E-1
4.123167255E0,5.216353536E-1,-8.957531929E0,-1.046859920E-1
4.125660119E0,4.929214716E-1,-9.019744873E0,-1.286142170E-1
4.128152984E0,4.689932466E-1,-9.072386742E0,-1.381855011E-1
4.130645848E0,5.072783828E-1,-9.086744308E0,-4.247260094E-2
4.133138713E0,5.838487148E-1,-9.129815102E0,-6.640082598E-2
4.135631577E0,6.083751321E-1,-9.240483284E0,-7.597211748E-2
4.138126005E0,6.514459848E-1,-9.215956688E0,1.974078715E-1
4.140618869E0,7.567301393E-1,-9.163313866E0,-4.247260094E-2
4.143111734E0,7.423732281E-1,-9.129815102E0,-1.854437590E-2
4.145604598E0,8.333004713E-1,-9.177671432E0,-1.375873014E-2
4.148097463E0,9.337990284E-1,-9.211171150E0,-6.161518395E-2
4.150590327E0,1.019940615E0,-9.182456970E0,-3.768695518E-2
4.153083244E0,1.106082320E0,-9.206384659E0,1.016949583E-2
4.155576109E0,1.154536963E0,-9.211171150E0,5.982056609E-4
4.158068973E0,1.245464206E0,-9.134600639E0,-9.511470050E-2
4.160561838E0,1.278963685E0,-9.062815666E0,-1.716850251E-1
4.163054702E0,1.278963685E0,-9.034101486E0,-3.487538993E-1
4.165547567E0,1.345962763E0,-9.019744873E0,-4.833501875E-1
4.168041942E0,1.355534077E0,-8.967103004E0,-6.029912829E-1
4.170534807E0,1.336391449E0,-8.928817749E0,-7.417750359E-1
4.173027671E0,1.326820135E0,-8.938388824E0,-8.901300430E-1
4.175520536E0,1.278963685E0,-8.914461136E0,-9.810572863E-1
4.178013400E0,1.235892892E0,-8.928817749E0,-1.043868899E0
4.180506265E0,1.226321578E0,-8.914461136E0,-1.130010486E0
4.182999130E0,1.173679471E0,-8.904889107E0,-1.197009563E0
4.185492046E0,1.115653515E0,-8.924032211E0,-1.235294700E0
4.187984911E0,1.024726272E0,-8.976674080E0,-1.335793257E0
4.190477775E0,9.050851464E-1,-8.962317467E0,-1.398006678E0
4.192970640E0,8.045865893E-1,-8.967103004E0,-1.479362607E0
4.195463505E0,6.562315822E-1,-8.991030693E0,-1.542174220E0
4.197953921E0,5.694918036E-1,-8.986245155E0,-1.580459356E0
4.200446786E0,4.115654826E-1,-8.971888542E0,-1.618744493E0
4.202939650E0,2.775674164E-1,-8.962317467E0,-1.599601984E0
4.205432515E0,1.627119333E-1,-8.957531929E0,-1.556531072E0
4.207925380E0,4.187439568E-3,-8.947959900E0,-1.469791293E0
4.210418244E0,-1.393819153E-1,-8.967103004E0,-1.369292736E0
4.212911161E0,-2.685943544E-1,-9.014959335E0,-1.163509965E0
4.215404025E0,-3.499503136E-1,-9.125029564E0,-9.236295223E-1
4.217896890E0,-3.643072546E-1,-9.269196510E0,-6.221339107E-1
4.220389755E0,-3.499503136E-1,-9.489336014E0,-3.678964674E-1
4.222882619E0,-2.638086975E-1,-9.695118904E0,-5.682953820E-2
4.225375484E0,-1.202393398E-1,-9.882357597E0,2.931207716E-1
4.227868348E0,1.375873014E-2,-1.009771156E1,4.941178858E-1
4.230361213E0,1.866401732E-1,-1.030409241E1,7.531409264E-1
4.232854077E0,3.397808075E-1,-1.039023399E1,9.158528447E-1
4.235346942E0,5.838487148E-1,-1.043330479E1,9.732806087E-1
4.237839807E0,7.328019142E-1,-1.040459061E1,9.349954724E-1
4.240332671E0,8.620143533E-1,-1.037109184E1,7.914260626E-1
4.242825536E0,1.053440213E0,-1.028435135E1,6.669993401E-1
4.245318452E0,1.245464206E0,-1.014556789E1,4.989035130E-1
4.247811317E0,1.446461320E0,-9.958928108E0,3.122633696E-1
4.250304182E0,1.705484390E0,-9.757332802E0,5.324030295E-2
4.252797046E0,1.973480463E0,-9.575477600E0,-1.716850251E-1
4.255289911E0,2.193620205E0,-9.369695663E0,-3.678964674E-1
4.257784494E0,2.361716032E0,-9.225527763E0,-6.221339107E-1
4.260277359E0,2.524427891E0,-9.129815102E0,-8.614161611E-1
4.262770223E0,2.687139750E0,-9.048459053E0,-9.427721500E-1
4.265263088E0,2.745165825E0,-9.000602722E0,-1.029511929E0
4.267755952E0,2.687139750E0,-8.943174362E0,-1.067797065E0
4.270248817E0,2.739781857E0,-9.005388260E0,-9.906286001E-1
4.272741682E0,2.696711063E0,-9.067601204E0,-8.614161611E-1
4.275234598E0,2.481357098E0,-9.081958771E0,-8.279166222E-1
4.277727463E0,2.246860504E0,-9.196813583E0,-7.657032609E-1
4.280220327E0,1.978266120E0,-9.283554077E0,-6.843472719E-1
4.282713192E0,1.652244091E0,-9.532406807E0,-6.699903607E-1
4.285206057E0,1.369890928E0,-9.695118904E0,-6.795616150E-1
4.287696161E0,1.058225870E0,-9.858428955E0,-7.274180651E-1
4.290189025E0,7.184450030E-1,-1.009292603E1,-8.853443861E-1
4.292681890E0,3.732803464E-1,-1.026042366E1,-1.034297585E0
4.295174755E0,3.290131316E-2,-1.039980507E1,-1.144367456E0
4.297667619E0,-1.824527234E-1,-1.057687473E1,-1.326221943E0
4.300160484E0,-3.690928817E-1,-1.071087265E1,-1.570888042E0
4.302653348E0,-4.265206456E-1,-1.078744221E1,-1.709671736E0
4.305146265E0,-4.600201547E-1,-1.090289593E1,-1.853241086E0
4.307639130E0,-4.169493318E-1,-1.101775169E1,-1.963310957E0
4.310131994E0,-2.542374134E-1,-1.112782192E1,-2.112264156E0
4.312624859E0,-3.409772366E-2,-1.122832012E1,-2.097907305E0
4.315117723E0,2.057827413E-1,-1.127139091E1,-1.987239242E0
4.317609807E0,4.929214716E-1,-1.132403278E1,-1.829312921E0
4.320102671E0,8.333004713E-1,-1.140598774E1,-1.637887120E0
4.322595536E0,1.130010486E0,-1.142991543E1,-1.345364571E0
4.325088400E0,1.422533035E0,-1.141077328E1,-1.053440213E0
4.327581265E0,1.676770449E0,-1.141077328E1,-7.609176040E-1
4.330074130E0,1.920838356E0,-1.141077328E1,-4.492524564E-1
4.332567046E0,2.021337032E0,-1.140120125E1,-2.673979402E-1
4.335059911E0,2.150549412E0,-1.142034435E1,-1.381855011E-1
4.337552775E0,2.266003132E0,-1.140120125E1,8.733802289E-2
4.340045640E0,2.352144718E0,-1.137727356E1,2.213360965E-1
4.342538505E0,2.256431818E0,-1.137189007E1,4.031906128E-1
4.345031369E0,2.242074728E0,-1.139163017E1,4.701896608E-1
4.347529911E0,2.213361025E0,-1.139641571E1,4.654040039E-1
4.350022775E0,2.160120726E0,-1.139163017E1,3.840480447E-1
4.352515640E0,2.088335991E0,-1.140598774E1,2.021935135E-1
4.355008505E0,2.045265198E0,-1.139163017E1,5.383851007E-3
4.357501369E0,1.968694806E0,-1.135753250E1,-1.429711580E-1
4.359994234E0,1.896910191E0,-1.140120125E1,-3.008974493E-1
4.362487150E0,1.935195327E0,-1.144905853E1,-4.881358147E-1
4.364980015E0,1.925624013E0,-1.148255730E1,-6.077769399E-1
4.367472880E0,1.911267042E0,-1.149691486E1,-6.221339107E-1
4.369965744E0,1.968694806E0,-1.162134171E1,-6.604190469E-1
4.372458609E0,2.064407825E0,-1.172662544E1,-6.364908218E-1
4.374951473E0,2.275574446E0,-1.189412308E1,-5.264210105E-1
4.377442359E0,2.404786825E0,-1.210050392E1,-4.642075896E-1
4.379935223E0,2.538784742E0,-1.235892868E1,-3.200400174E-1
4.382428088E0,2.734996319E0,-1.262752342E1,-9.032905847E-2
4.384920952E0,2.989233732E0,-1.289551926E1,1.926222295E-1
4.387413817E0,3.190230846E0,-1.312582874E1,4.749752879E-1
4.389906682E0,3.382254839E0,-1.338903904E1,7.531409264E-1
4.392399546E0,3.540181160E0,-1.355234909E1,1.006780148E0
4.394892463E0,3.731606960E0,-1.380120277E1,1.251446247E0
4.397385327E0,3.966701746E0,-1.398784256E1,1.414158225E0
4.399878192E0,4.081557274E0,-1.415115356E1,1.490728498E0
4.402371057E0,4.229912281E0,-1.429950809E1,1.576870084E0
4.404863921E0,4.364508629E0,-1.431865025E1,1.572084427E0
4.407354702E0,4.374079704E0,-1.427557945E1,1.538584948E0
4.409847567E0,4.374079704E0,-1.421336651E1,1.462014675E0
4.412340432E0,4.417150497E0,-1.417029572E1,1.428515077E0
4.414833296E0,4.388436794E0,-1.404048538E1,1.361516118E0
4.417326161E0,4.369294167E0,-1.393998623E1,1.203589797E0
4.419819025E0,4.272983074E0,-1.382513142E1,1.006780148E0
4.422311942E0,4.148556232E0,-1.375334644E1,7.579265833E-1
4.424804807E0,4.086342812E0,-1.372463226E1,4.462614357E-1
4.427297671E0,3.933202267E0,-1.360977745E1,9.690931439E-2
4.429790536E0,3.722035646E0,-1.355234909E1,-3.296113312E-1
4.432283400E0,3.506681681E0,-1.360499096E1,-7.800601721E-1
4.434776265E0,3.204587698E0,-1.357149220E1,-1.201795220E0
4.437271682E0,2.941377163E0,-1.353320694E1,-1.585245013E0
4.439764546E0,2.577069998E0,-1.349910927E1,-1.958525300E0
4.442257411E0,2.266003132E0,-1.343689537E1,-2.131406784E0
4.444750275E0,1.992623091E0,-1.336511135E1,-2.375474691E0
4.447243140E0,1.671386600E0,-1.323589802E1,-2.538186550E0
4.449736005E0,1.312463164E0,-1.304447269E1,-2.653640270E0
4.452228921E0,1.000798106E0,-1.285244846E1,-2.730210543E0
4.454721786E0,6.849454641E-1,-1.262752342E1,-2.754138947E0
4.457214650E0,3.014956415E-1,-1.242114258E1,-2.816352367E0
4.459707515E0,-3.888336942E-2,-1.221057415E1,-2.897708178E0
4.462200380E0,-3.834498227E-1,-1.199043465E1,-2.931207657E0
4.464693244E0,-6.472585201E-1,-1.175533962E1,-2.835494757E0
4.467187723E0,-7.908278704E-1,-1.146820068E1,-2.523829699E0
4.469680588E0,-9.487541914E-1,-1.126660538E1,-2.294118643E0
4.472173452E0,-1.188634634E0,-1.108953667E1,-2.442473650E0
4.474666317E0,-1.423131227E0,-1.098425198E1,-2.648854733E0
4.477159182E0,-1.586441398E0,-1.086461163E1,-2.763710260E0
4.479652046E0,-1.801795483E0,-1.079222870E1,-2.873780012E0
4.482144963E0,-1.983649969E0,-1.071087265E1,-2.935993433E0
4.484637827E0,-2.137388945E0,-1.063430214E1,-2.921636343E0
4.487130692E0,-2.290529490E0,-1.051466084E1,-2.825923443E0
4.489623557E0,-2.429313183E0,-1.036630630E1,-2.600998163E0
4.492116421E0,-2.458027124E0,-1.024128056E1,-2.351546526E0
4.494609286E0,-2.510669231E0,-1.009771156E1,-2.064407825E0
4.497099025E0,-2.491526604E0,-1.000678444E1,-1.848455548E0
4.499591890E0,-2.352742910E0,-9.954142570E0,-1.474576950E0
4.502084755E0,-2.175673962E0,-9.887143135E0,-1.115653515E0
4.504577619E0,-2.007578135E0,-9.901499748E0,-8.757730722E-1
4.507070484E0,-1.835294962E0,-9.973284721E0,-6.795616150E-1
4.509563348E0,-1.696511269E0,-1.008335495E1,-5.551348329E-1
4.512056265E0,-1.629512191E0,-1.033280659E1,-4.594219327E-1
4.514549130E0,-1.572084427E0,-1.063430214E1,-4.540380836E-1
4.517041994E0,-1.557727575E0,-1.102253723E1,-4.737788737E-1
4.519534859E0,-1.596012712E0,-1.140120125E1,-5.551348329E-1
4.522027723E0,-1.639083505E0,-1.185583782E1,-5.982056856E-1
4.524520588E0,-1.686939955E0,-1.231585789E1,-7.130611539E-1
4.527013192E0,-1.758724689E0,-1.277109241E1,-8.374879360E-1
4.529506057E0,-1.811366796E0,-1.328375530E1,-8.853443861E-1
4.531998921E0,-1.902294040E0,-1.370070457E1,-8.374879360E-1
4.534491786E0,-1.978864312E0,-1.415115356E1,-7.992027402E-1
4.536984650E0,-2.050648928E0,-1.445264912E1,-6.652047038E-1
4.539477515E0,-2.190030813E0,-1.475474262E1,-4.929214716E-1
4.541970380E0,-2.338385820E0,-1.498445320E1,-3.583251834E-1
4.544463296E0,-2.626122952E0,-1.521476269E1,-2.243271172E-1
4.546956161E0,-2.941975355E0,-1.536790371E1,-1.716850251E-1
4.549449025E0,-3.220141172E0,-1.549711609E1,-5.682953820E-2
4.551941890E0,-3.497708559E0,-1.563589954E1,3.409772366E-2
4.554434755E0,-3.728017569E0,-1.581356621E1,5.324030295E-2
4.556931161E0,-3.909872293E0,-1.595235062E1,2.931207791E-2
4.559424025E0,-4.082155228E0,-1.601935005E1,9.690931439E-2
4.561916890E0,-4.110869408E0,-1.619701576E1,2.117647976E-1
4.564409755E0,-4.163511276E0,-1.631187248E1,2.500499785E-1
4.566902619E0,-4.130012035E0,-1.641715622E1,1.926222295E-1
4.569395484E0,-4.110869408E0,-1.648415565E1,-1.854437590E-2
4.571888400E0,-4.091726780E0,-1.650329781E1,-2.243271172E-1
4.574381265E0,-4.015156269E0,-1.646501350E1,-2.913261652E-1
4.576874130E0,-3.833301783E0,-1.646022606E1,-2.003988922E-1
4.579366994E0,-3.564707518E0,-1.643151283E1,-9.511470050E-2
4.581859859E0,-3.172284603E0,-1.642672729E1,2.452643216E-2
4.584352723E0,-2.798406124E0,-1.646979904E1,2.117647976E-1
4.586842463E0,-2.544168711E0,-1.638844299E1,1.016949639E-1
4.589335327E0,-2.376671076E0,-1.622573090E1,-1.429711580E-1
4.591828192E0,-2.252244234E0,-1.606720543E1,-3.726821244E-1
4.594321057E0,-2.055434704E0,-1.579920959E1,-6.843472719E-1
4.596813921E0,-1.663011789E0,-1.562154293E1,-7.944171429E-1
4.599306786E0,-1.279561877E0,-1.552104378E1,-8.757730722E-1
4.601799650E0,-8.578268886E-1,-1.536311817E1,-9.619147182E-1
4.604292567E0,-5.611169338E-1,-1.513340664E1,-1.072582722E0
4.606785432E0,-3.499503136E-1,-1.488395500E1,-1.115653515E0
4.609278296E0,4.725824669E-2,-1.463988686E1,-1.072582722E0
4.611771161E0,5.072783828E-1,-1.439043522E1,-1.216152072E0
4.614264025E0,8.141579032E-1,-1.404048538E1,-1.445863128E0
4.616754077E0,1.034297585E0,-1.372463226E1,-1.542174220E0
4.619246942E0,1.240678549E0,-1.340339565E1,-1.484148264E0
4.621739807E0,1.508674622E0,-1.313061428E1,-1.216152072E0
4.624232671E0,1.829911113E0,-1.301575851E1,-8.853443861E-1
4.626725536E0,2.117049932E0,-1.290509033E1,-5.455635786E-1
4.629218400E0,2.371287346E0,-1.283330631E1,-2.721835673E-1
4.631711265E0,2.553141832E0,-1.279023552E1,4.366901144E-2
4.634204130E0,2.797807932E0,-1.280937767E1,3.553341627E-1
4.636697046E0,2.936591625E0,-1.283330631E1,5.802595019E-1
4.639189911E0,3.003590584E0,-1.276630688E1,8.057830334E-1
4.641682775E0,3.094517946E0,-1.266580868E1,9.110672474E-1
4.644175640E0,3.180659533E0,-1.255573845E1,6.717849374E-1
4.646683661E0,3.209373474E0,-1.238285732E1,3.601198196E-1
4.649176525E0,3.108874798E0,-1.222493076E1,-4.187439568E-3
4.651669390E0,3.104089260E0,-1.208136177E1,-2.913261652E-1
4.654162255E0,3.037090063E0,-1.194257736E1,-3.966103494E-1
4.656655119E0,2.965305567E0,-1.181755257E1,-4.977070987E-1
4.659147984E0,2.998805046E0,-1.171226883E1,-4.444667995E-1
4.661640848E0,2.994019270E0,-1.158305645E1,-2.195414752E-1
4.664133713E0,2.903092146E0,-1.149212933E1,-1.854437590E-2
4.666626630E0,2.696711063E0,-1.138205910E1,1.782652885E-1
4.669119494E0,2.428714991E0,-1.128574753E1,3.553341627E-1
4.671612359E0,2.179263115E0,-1.115653515E1,4.749752879E-1
4.674105223E0,1.839482427E0,-1.098903847E1,6.191428304E-1
4.676586942E0,1.465603828E0,-1.080179977E1,7.339983582E-1
4.679079807E0,1.125224829E0,-1.060080242E1,8.249256015E-1
4.681572671E0,8.141579032E-1,-1.039023399E1,8.919246197E-1
4.684065536E0,4.977070987E-1,-1.014078236E1,9.397810698E-1
4.686558400E0,2.201396823E-1,-9.848857880E0,8.967102766E-1
4.689051265E0,2.333002165E-2,-9.532406807E0,8.297112584E-1
4.691544130E0,-1.585244983E-1,-9.240483284E0,7.435696125E-1
4.694036994E0,-3.738785386E-1,-8.919246674E0,5.611169338E-1
4.696529911E0,-5.563312769E-1,-8.569295883E0,3.840480447E-1
4.699022775E0,-6.759724021E-1,-8.196015358E0,2.165504545E-1
4.701515640E0,-8.243274093E-1,-7.932207108E0,1.112662554E-1
4.704008505E0,-9.535398483E-1,-7.625327587E0,-5.204389244E-2
4.706498817E0,-1.135992527E0,-7.338188648E0,-1.812563092E-1
4.708991682E0,-1.188634634E0,-7.079165936E0,-2.003988922E-1
4.711484546E0,-1.226919770E0,-6.863811970E0,-2.721835673E-1
4.713977411E0,-1.303490162E0,-6.624529362E0,-3.487538993E-1
4.716470275E0,-1.403988719E0,-6.355935097E0,-4.013960063E-1
4.718963140E0,-1.408774376E0,-6.188437462E0,-1.908276081E-1
4.721456005E0,-1.365703583E0,-6.005984783E0,-5.682953820E-2
4.723948869E0,-1.356132269E0,-5.852844238E0,1.495514158E-2
4.726441786E0,-1.365703583E0,-5.680561066E0,1.974078640E-2
4.728934650E0,-1.399203062E0,-5.416752338E0,-5.682953820E-2
4.731427515E0,-1.384846091E0,-5.225326538E0,-5.204389244E-2
4.733920380E0,-1.423131227E0,-5.048257351E0,-3.768695518E-2
4.736412202E0,-1.475773335E0,-4.841876507E0,1.974078640E-2
4.738905067E0,-1.461416483E0,-4.655236244E0,1.016949639E-1
4.741397932E0,-1.413560033E0,-4.497310162E0,1.830509305E-1
4.743890796E0,-1.432702541E0,-4.310071945E0,2.452643216E-1
4.746383661E0,-1.451845169E0,-4.113860130E0,3.505485058E-1
4.748876525E0,-1.442273855E0,-3.888935089E0,4.031906128E-1
4.751369390E0,-1.456630826E0,-3.711267948E0,4.366901219E-1
4.753862255E0,-1.432702541E0,-3.591626883E0,5.371887088E-1
4.756355171E0,-1.375274777E0,-3.381058455E0,5.515456200E-1
4.758848036E0,-1.313061476E0,-3.193820000E0,5.467599630E-1
4.761340900E0,-1.226919770E0,-3.026322365E0,5.754738450E-1
4.763833765E0,-1.179063320E0,-2.901895761E0,5.802595019E-1
4.766331942E0,-1.145563841E0,-2.752942562E0,5.802595019E-1
4.768824807E0,-1.121635556E0,-2.647658348E0,5.084748268E-1
4.771317671E0,-1.073779106E0,-2.580659151E0,5.276173949E-1
4.773810536E0,-1.064207911E0,-2.465803623E0,4.845465720E-1
4.776303400E0,-1.035493970E0,-2.360519648E0,4.223332107E-1
4.778796265E0,-1.030708313E0,-2.264208317E0,3.888336718E-1
4.781289130E0,-1.021137118E0,-2.206780672E0,4.127618968E-1
4.783781994E0,-1.006780148E0,-2.163709879E0,3.984049559E-1
4.786274859E0,-9.822536707E-1,-2.039283037E0,3.888336718E-1
4.788767775E0,-9.774680734E-1,-2.053640127E0,3.696911037E-1
4.791260640E0,-9.966106415E-1,-2.072782516E0,3.792623878E-1
4.793753505E0,-9.391828775E-1,-2.048854351E0,3.409772217E-1
4.796241421E0,-9.056833982E-1,-2.044068813E0,3.409772217E-1
4.798734286E0,-8.195417523E-1,-2.101496458E0,3.409772217E-1
4.801227150E0,-7.668996453E-1,-2.158924341E0,3.122633696E-1
4.803720015E0,-7.668996453E-1,-2.125424623E0,2.739782035E-1
4.806212880E0,-7.429714203E-1,-2.125424623E0,2.452643216E-1
4.808705744E0,-7.477570772E-1,-2.182852507E0,1.974078715E-1
4.811198609E0,-6.807580590E-1,-2.293520451E0,2.500499785E-1
4.813691473E0,-6.089733839E-1,-2.327019930E0,2.261217386E-1
4.816184390E0,-5.706881881E-1,-2.312663078E0,1.351944804E-1
4.818677255E0,-5.515456200E-1,-2.374876499E0,5.324030295E-2
4.821170119E0,-4.941178858E-1,-2.427518606E0,1.495514158E-2
4.823662984E0,-4.504488707E-1,-2.470589399E0,-5.682953820E-2
4.826162932E0,-4.169493318E-1,-2.551945448E0,-2.578266263E-1
4.828655796E0,-3.738785386E-1,-2.571087837E0,-3.487538993E-1
4.831148661E0,-2.973082066E-1,-2.657229662E0,-4.540380836E-1
4.833641525E0,-2.542374134E-1,-2.743371248E0,-5.886343718E-1
4.836134390E0,-2.303091735E-1,-2.709871531E0,-7.465606928E-1
4.838627255E0,-1.298106313E-1,-2.810968399E0,-8.757730722E-1
4.841120119E0,-1.974078640E-2,-2.882753134E0,-1.019940615E0
4.843612984E0,8.135596663E-2,-2.954537868E0,-1.139581800E0
4.846105900E0,2.153540403E-1,-2.992822886E0,-1.302293777E0
4.848598765E0,3.589234054E-1,-3.098107100E0,-1.460219979E0
4.851091630E0,4.929214716E-1,-3.236890793E0,-1.676172256E0
4.853584494E0,5.455635786E-1,-3.357130051E0,-1.901097536E0
4.856078452E0,5.407779217E-1,-3.448057413E0,-2.140978098E0
4.858571317E0,6.227321029E-1,-3.591626883E0,-2.313261271E0
4.861064182E0,6.945167780E-1,-3.749552965E0,-2.504687071E0
4.863557046E0,7.184450030E-1,-3.878765583E0,-2.730210543E0
4.866049911E0,7.710871100E-1,-4.032504559E0,-3.022135019E0
4.868542775E0,6.658028960E-1,-4.161716938E0,-3.357728481E0
4.871035640E0,5.790630579E-1,-4.310071945E0,-3.582653761E0
4.873528505E0,5.934200287E-1,-4.597808838E0,-3.841676712E0
4.876021421E0,5.790630579E-1,-4.827519894E0,-4.143172264E0
4.878514286E0,5.072783828E-1,-5.172684193E0,-4.378267288E0
4.881007150E0,5.024927258E-1,-5.459823132E0,-4.631906509E0
4.883500015E0,4.594219327E-1,-5.804987907E0,-4.953142643E0
4.885985171E0,4.689932466E-1,-6.150152206E0,-5.283950806E0
4.888478036E0,5.264210105E-1,-6.523432732E0,-5.724229813E0
4.890970900E0,6.705885530E-1,-6.930810928E0,-6.227321148E0
4.893463765E0,8.237292171E-1,-7.347760201E0,-6.754340172E0
4.895956630E0,1.101296663E0,-7.740781307E0,-7.305287361E0
4.898449494E0,1.389033556E0,-8.118846893E0,-7.947162151E0
4.900942359E0,1.906481385E0,-8.564510345E0,-8.632705688E0
4.903435223E0,2.600998163E0,-9.139386177E0,-9.413364410E0
4.905928140E0,3.415754318E0,-9.728618622E0,-1.014676476E1
4.908421005E0,4.388436794E0,-1.046680450E1,-1.065464115E1
4.910913869E0,5.307878971E0,-1.106560802E1,-1.099920750E1
4.913406734E0,6.170491219E0,-1.173141098E1,-1.102313614E1
4.915901786E0,7.018148899E0,-1.238285732E1,-1.075992489E1
4.918394650E0,7.694121361E0,-1.305404377E1,-1.032383347E1
4.920887515E0,8.158926964E0,-1.373898983E1,-9.993025780E0
4.923380380E0,8.436494827E0,-1.435214996E1,-9.701101303E0
4.925873244E0,8.584849358E0,-1.507059479E1,-9.653244972E0
4.928366109E0,8.618349075E0,-1.569871140E1,-9.796813965E0
4.930858973E0,8.412566185E0,-1.633580017E1,-1.006002426E1
4.933351838E0,8.081758499E0,-1.683410645E1,-1.040997505E1
4.935844755E0,7.708477974E0,-1.722652817E1,-1.077428246E1
4.938337619E0,7.401598454E0,-1.756212234E1,-1.093699455E1
4.940830484E0,7.052246571E0,-1.776790428E1,-1.093220806E1
4.943323348E0,6.592226505E0,-1.782592964E1,-1.094178009E1
4.945817150E0,6.156134605E0,-1.781157303E1,-1.086999512E1
4.948310015E0,5.576473236E0,-1.762912178E1,-1.078385353E1
4.950802880E0,5.059025288E0,-1.726002884E1,-1.065942669E1
4.953295744E0,4.680361271E0,-1.678146362E1,-1.044347477E1
4.955788609E0,4.469792843E0,-1.623051643E1,-1.018983555E1
4.958281473E0,4.148556232E0,-1.557847214E1,-9.978668213E0
4.960774338E0,3.832703590E0,-1.490788364E1,-9.748957634E0
4.963267202E0,3.544966698E0,-1.422293758E1,-9.537791252E0
4.965760119E0,3.286541939E0,-1.356670666E1,-9.265008926E0
4.968252984E0,2.802593470E0,-1.287159157E1,-9.049654961E0
4.970745848E0,2.538784742E0,-1.196650600E1,-8.187042236E0
4.973238713E0,2.912663460E0,-1.119003487E1,-7.875377655E0
4.975731577E0,2.701496840E0,-1.093639565E1,-8.306683540E0
4.978224442E0,2.227717876E0,-1.050508976E1,-8.282755852E0
4.980717307E0,2.140978098E0,-1.004028416E1,-8.234899521E0
4.983210171E0,2.150549412E0,-9.589835167E0,-8.273183823E0
4.985703036E0,2.145763636E0,-9.220742226E0,-7.957331657E0
4.988195900E0,2.126621008E0,-9.010173798E0,-7.947162151E0
4.990688765E0,2.002194405E0,-8.880961418E0,-7.966903210E0
4.993181630E0,1.920838356E0,-8.957531929E0,-7.875377655E0
4.995674546E0,2.145763636E0,-9.307481766E0,-7.750950813E0
4.998167411E0,2.667997360E0,-9.747760773E0,-7.492526054E0
5.000660275E0,3.027518749E0,-1.032323551E1,-7.176074982E0
5.003153140E0,3.147160053E0,-1.093161011E1,-6.898507595E0
5.005650900E0,2.912663460E0,-1.152562809E1,-6.524629116E0
5.008143765E0,2.275574446E0,-1.218664551E1,-5.978467464E0
5.010636630E0,1.245464206E0,-1.270409393E1,-5.547161102E0
5.013129494E0,2.249253243E-1,-1.312104321E1,-5.499304771E0
5.015622359E0,-4.169493318E-1,-1.332682610E1,-5.312664509E0
5.018115223E0,-1.135992527E0,-1.343210983E1,-5.268995285E0
5.020608088E0,-1.518844128E0,-1.349910927E1,-5.432305813E0
5.023100952E0,-1.658226132E0,-1.355713463E1,-5.662016392E0
5.025593869E0,-1.806581140E0,-1.356670666E1,-6.011966705E0
5.028086734E0,-1.365703583E0,-1.376770306E1,-6.515058041E0
5.030579598E0,-8.003991842E-1,-1.420379543E1,-7.113861561E0
5.033072463E0,-4.941178858E-1,-1.464945889E1,-7.899305820E0
5.035565380E0,-1.298106313E-1,-1.540618896E1,-8.742775917E0
5.038058244E0,6.753742099E-1,-1.645544052E1,-9.619745255E0
5.040551109E0,1.556531072E0,-1.769133377E1,-1.038604641E1
5.043043973E0,2.242074728E0,-1.903310966E1,-1.084128094E1
5.045536838E0,2.946162939E0,-2.031207275E1,-1.090828037E1
5.048029702E0,3.961916208E0,-2.145225334E1,-1.042911720E1
5.050522567E0,5.197809219E0,-2.220479584E1,-9.332008362E0
5.053015432E0,6.491727829E0,-2.253500557E1,-7.535596848E0
5.055508348E0,7.837690353E0,-2.235315132E1,-5.216353416E0
5.058001213E0,8.681160927E0,-2.142354012E1,-2.682354212E0
5.060494077E0,8.638090134E0,-1.971805573E1,-4.205385745E-1
5.062986942E0,8.005187988E0,-1.740898132E1,1.725823283E0
5.065492255E0,7.310671329E0,-1.494616890E1,3.977469444E0
5.067985119E0,6.539584160E0,-1.238764286E1,5.663811207E0
5.070477984E0,5.341378212E0,-9.675976753E0,6.430112839E0
5.072970848E0,3.410968781E0,-6.926024914E0,6.219544411E0
5.075463713E0,7.615157962E-1,-4.492524624E0,5.529813290E0
5.077956577E0,-2.084746838E0,-2.532802820E0,5.021936417E0
5.080449442E0,-4.738387108E0,-1.057029366E0,4.676771641E0
5.082942307E0,-7.306483746E0,4.007977992E-2,4.490131855E0
5.085435223E0,-9.788438797E0,7.537391186E-1,4.413561344E0
5.087928088E0,-1.199701500E1,1.347757339E0,4.121038914E0
5.090420952E0,-1.385145187E1,2.009372711E0,3.637090445E0
5.092913817E0,-1.539362621E1,2.459223509E0,3.148356438E0
5.095393140E0,-1.652961922E1,2.919243574E0,2.669193745E0
5.097886005E0,-1.711885071E1,3.283550978E0,1.893320918E0
5.100378869E0,-1.711885071E1,3.527618885E0,1.433300734E0
5.102871734E0,-1.645723534E1,3.498904943E0,9.780662656E-1
5.105364598E0,-1.519262886E1,2.947957516E0,3.170489967E-1
5.107857463E0,-1.330947781E1,2.129014015E0,-4.444667995E-1
5.110350327E0,-1.095254707E1,1.103689432E0,-1.192223907E0
5.112843192E0,-8.255238533E0,1.794616925E-3,-1.680957913E0
5.115336109E0,-5.255835056E0,-1.306481123E0,-1.829312921E0
5.117828973E0,-2.328814745E0,-2.757728100E0,-1.268794179E0
5.120321838E0,3.302095234E-1,-3.955934048E0,-2.578266263E-1
5.122814702E0,2.514856577E0,-5.033900738E0,1.001994491E0
5.125313765E0,4.033700943E0,-6.087938786E0,2.132603168E0
5.127806630E0,5.126024246E0,-7.223333359E0,3.129213810E0
5.130299546E0,5.925825119E0,-8.435297966E0,3.896113396E0
5.132792411E0,6.530013084E0,-9.853643417E0,4.499702930E0
