Time (s),Gyroscope x (rad/s),Gyroscope y (rad/s),Gyroscope z (rad/s)
21.00,-1.88,1.47,-0.69
21.00,-1.92,1.55,-0.76
21.00,-1.96,1.62,-0.83
21.00,-1.99,1.67,-0.92
21.01,-2.02,1.71,-1.01
21.01,-2.05,1.71,-1.10
21.01,-2.06,1.69,-1.19
21.01,-2.07,1.65,-1.28
21.02,-2.06,1.59,-1.36
21.02,-2.03,1.50,-1.45
21.02,-1.99,1.39,-1.52
21.02,-1.93,1.27,-1.59
21.03,-1.86,1.14,-1.66
21.03,-1.79,1.00,-1.72
21.03,-1.70,0.87,-1.77
21.03,-1.62,0.75,-1.81
21.04,-1.54,0.65,-1.85
21.04,-1.47,0.56,-1.89
21.04,-1.41,0.50,-1.91
21.04,-1.36,0.44,-1.93
21.04,-1.32,0.39,-1.95
21.05,-1.29,0.37,-1.96
21.05,-1.28,0.36,-1.96
21.05,-1.28,0.36,-1.95
21.05,-1.29,0.36,-1.92
21.06,-1.31,0.37,-1.89
21.06,-1.34,0.38,-1.85
21.06,-1.37,0.39,-1.81
21.06,-1.41,0.40,-1.77
21.07,-1.44,0.40,-1.73
21.07,-1.48,0.40,-1.70
21.07,-1.52,0.40,-1.67
21.07,-1.56,0.41,-1.64
21.08,-1.58,0.40,-1.61
21.08,-1.60,0.40,-1.58
21.08,-1.63,0.39,-1.54
21.08,-1.64,0.39,-1.51
21.08,-1.65,0.38,-1.47
21.09,-1.65,0.37,-1.43
21.09,-1.65,0.37,-1.39
21.09,-1.65,0.36,-1.35
21.09,-1.63,0.36,-1.30
21.10,-1.61,0.36,-1.26
21.10,-1.59,0.36,-1.21
21.10,-1.56,0.36,-1.15
21.10,-1.52,0.36,-1.09
21.11,-1.48,0.36,-1.02
21.11,-1.44,0.37,-0.96
21.11,-1.40,0.38,-0.88
21.11,-1.35,0.40,-0.81
21.12,-1.32,0.42,-0.73
21.12,-1.28,0.43,-0.65
21.12,-1.25,0.45,-0.57
21.12,-1.23,0.45,-0.50
21.13,-1.21,0.45,-0.44
21.13,-1.20,0.44,-0.39
21.13,-1.19,0.40,-0.35
21.13,-1.19,0.35,-0.34
21.13,-1.19,0.29,-0.34
21.14,-1.20,0.24,-0.35
21.14,-1.20,0.19,-0.36
21.14,-1.21,0.17,-0.36
21.14,-1.22,0.16,-0.37
21.15,-1.24,0.15,-0.38
21.15,-1.27,0.15,-0.39
21.15,-1.29,0.15,-0.39
21.15,-1.32,0.15,-0.40
21.16,-1.34,0.16,-0.42
21.16,-1.35,0.15,-0.43
21.16,-1.37,0.16,-0.44
21.16,-1.37,0.16,-0.44
21.17,-1.36,0.18,-0.44
21.17,-1.35,0.19,-0.44
21.17,-1.33,0.21,-0.43
21.17,-1.30,0.24,-0.43
21.18,-1.26,0.27,-0.42
21.18,-1.22,0.32,-0.41
21.18,-1.18,0.36,-0.41
21.18,-1.14,0.41,-0.41
21.18,-1.09,0.46,-0.41
21.19,-1.04,0.51,-0.42
21.19,-1.00,0.56,-0.43
21.19,-0.95,0.61,-0.45
21.19,-0.91,0.65,-0.47
21.20,-0.86,0.68,-0.49
21.20,-0.82,0.72,-0.50
21.20,-0.78,0.74,-0.51
21.20,-0.75,0.76,-0.52
21.21,-0.71,0.78,-0.53
21.21,-0.68,0.79,-0.54
21.21,-0.65,0.81,-0.55
21.21,-0.62,0.82,-0.56
21.22,-0.60,0.83,-0.56
21.22,-0.57,0.85,-0.56
21.22,-0.55,0.85,-0.55
21.22,-0.54,0.86,-0.55
21.23,-0.52,0.86,-0.54
21.23,-0.51,0.86,-0.54
21.23,-0.50,0.85,-0.53
21.23,-0.49,0.84,-0.53
21.23,-0.48,0.83,-0.52
21.24,-0.47,0.82,-0.51
21.24,-0.47,0.81,-0.49
21.24,-0.46,0.80,-0.47
21.24,-0.45,0.79,-0.45
21.25,-0.44,0.78,-0.43
21.25,-0.44,0.77,-0.40
21.25,-0.43,0.76,-0.37
21.25,-0.42,0.75,-0.35
21.26,-0.41,0.74,-0.33
21.26,-0.40,0.73,-0.30
21.26,-0.38,0.72,-0.28
21.26,-0.37,0.71,-0.25
21.27,-0.35,0.71,-0.23
21.27,-0.34,0.70,-0.20
21.27,-0.33,0.69,-0.18
21.27,-0.31,0.68,-0.16
21.28,-0.29,0.67,-0.14
21.28,-0.28,0.65,-0.12
21.28,-0.26,0.64,-0.10
21.28,-0.25,0.62,-0.07
21.28,-0.23,0.60,-0.05
21.29,-0.21,0.57,-0.03
21.29,-0.19,0.55,-0.01
21.29,-0.17,0.51,0.00
21.29,-0.14,0.48,0.02
21.30,-0.12,0.45,0.04
21.30,-0.10,0.42,0.06
21.30,-0.08,0.39,0.08
21.30,-0.05,0.36,0.10
21.31,-0.03,0.33,0.12
21.31,-0.01,0.31,0.13
21.31,0.02,0.28,0.15
21.31,0.04,0.26,0.17
21.32,0.06,0.24,0.19
21.32,0.08,0.23,0.21
21.32,0.10,0.21,0.24
21.32,0.12,0.21,0.26
21.32,0.14,0.20,0.29
21.33,0.15,0.19,0.30
21.33,0.17,0.18,0.32
21.33,0.18,0.17,0.33
21.33,0.19,0.17,0.36
21.34,0.20,0.17,0.38
21.34,0.20,0.16,0.41
21.34,0.21,0.16,0.43
21.34,0.21,0.17,0.46
21.35,0.21,0.17,0.48
21.35,0.22,0.17,0.50
21.35,0.22,0.18,0.52
21.35,0.21,0.18,0.55
21.36,0.21,0.18,0.57
21.36,0.21,0.18,0.59
21.36,0.20,0.19,0.61
21.36,0.20,0.19,0.63
21.37,0.20,0.20,0.65
21.37,0.20,0.21,0.67
21.37,0.19,0.21,0.68
21.37,0.20,0.22,0.70
21.37,0.20,0.23,0.71
21.38,0.20,0.23,0.73
21.38,0.21,0.22,0.74
21.38,0.22,0.23,0.75
21.38,0.23,0.24,0.77
21.39,0.24,0.25,0.78
21.39,0.26,0.26,0.79
21.39,0.27,0.27,0.80
21.39,0.29,0.28,0.81
21.40,0.31,0.29,0.81
21.40,0.33,0.29,0.82
21.40,0.35,0.30,0.82
21.40,0.37,0.30,0.82
21.41,0.39,0.29,0.82
21.41,0.41,0.29,0.81
21.41,0.42,0.29,0.81
21.41,0.44,0.28,0.80
21.42,0.45,0.28,0.80
21.42,0.46,0.27,0.79
21.42,0.47,0.27,0.78
21.42,0.48,0.27,0.77
21.42,0.49,0.27,0.76
21.43,0.49,0.28,0.75
21.43,0.50,0.28,0.74
21.43,0.50,0.29,0.72
21.43,0.50,0.31,0.71
21.44,0.49,0.32,0.69
21.44,0.49,0.34,0.67
21.44,0.48,0.36,0.64
21.44,0.47,0.37,0.61
21.45,0.46,0.39,0.58
21.45,0.45,0.40,0.54
21.45,0.43,0.41,0.50
21.45,0.41,0.42,0.47
21.46,0.39,0.43,0.42
21.46,0.37,0.44,0.38
21.46,0.34,0.45,0.34
21.46,0.31,0.45,0.30
21.47,0.28,0.45,0.27
21.47,0.24,0.45,0.24
21.47,0.21,0.45,0.21
21.47,0.16,0.45,0.18
21.47,0.12,0.45,0.16
21.48,0.07,0.44,0.14
21.48,0.02,0.40,0.12
21.48,-0.01,0.35,0.10
21.48,-0.05,0.28,0.08
21.49,-0.08,0.22,0.07
21.49,-0.11,0.15,0.05
21.49,-0.13,0.10,0.03
21.49,-0.16,0.05,0.02
21.50,-0.18,0.01,0.00
21.50,-0.20,-0.03,-0.01
21.50,-0.21,-0.05,-0.01
21.50,-0.22,-0.07,-0.02
21.51,-0.23,-0.08,-0.02
21.51,-0.23,-0.08,-0.02
21.51,-0.23,-0.07,-0.02
21.51,-0.22,-0.05,-0.02
21.51,-0.21,-0.03,-0.02
21.52,-0.20,0.00,-0.01
21.52,-0.18,0.02,-0.01
21.52,-0.16,0.04,-0.01
21.52,-0.13,0.06,-0.01
21.53,-0.11,0.09,0.00
21.53,-0.08,0.12,0.01
21.53,-0.05,0.16,0.03
21.53,-0.02,0.18,0.05
21.54,0.01,0.21,0.07
21.54,0.04,0.24,0.08
21.54,0.06,0.26,0.09
21.54,0.09,0.28,0.10
21.55,0.11,0.31,0.12
21.55,0.12,0.35,0.13
21.55,0.14,0.38,0.15
21.55,0.15,0.40,0.17
21.56,0.16,0.42,0.20
21.56,0.17,0.44,0.22
21.56,0.18,0.46,0.25
21.56,0.19,0.49,0.27
21.56,0.20,0.53,0.30
21.57,0.20,0.57,0.32
21.57,0.20,0.62,0.34
21.57,0.20,0.66,0.35
21.57,0.20,0.71,0.37
21.58,0.21,0.75,0.37
21.58,0.21,0.79,0.38
21.58,0.22,0.83,0.38
21.58,0.23,0.86,0.37
21.59,0.24,0.89,0.37
21.59,0.26,0.90,0.35
21.59,0.27,0.91,0.34
21.59,0.29,0.90,0.32
21.60,0.31,0.89,0.30
21.60,0.34,0.87,0.28
21.60,0.36,0.84,0.26
21.60,0.38,0.80,0.24
21.61,0.40,0.75,0.22
21.61,0.42,0.71,0.20
21.61,0.43,0.65,0.18
21.61,0.43,0.59,0.17
21.61,0.42,0.53,0.15
21.62,0.41,0.47,0.14
21.62,0.39,0.41,0.12
21.62,0.37,0.36,0.09
21.62,0.35,0.31,0.07
21.63,0.31,0.26,0.04
21.63,0.28,0.22,0.02
21.63,0.25,0.19,0.00
21.63,0.21,0.16,-0.02
21.64,0.18,0.12,-0.04
21.64,0.16,0.10,-0.06
21.64,0.14,0.07,-0.07
21.64,0.12,0.04,-0.09
21.65,0.11,0.01,-0.10
21.65,0.11,-0.02,-0.10
21.65,0.10,-0.06,-0.10
21.65,0.11,-0.09,-0.09
21.66,0.11,-0.12,-0.08
21.66,0.12,-0.15,-0.07
21.66,0.13,-0.19,-0.05
21.66,0.14,-0.22,-0.03
21.66,0.15,-0.26,-0.01
21.67,0.16,-0.29,0.01
21.67,0.18,-0.31,0.02
21.67,0.19,-0.34,0.04
21.67,0.20,-0.36,0.06
21.68,0.22,-0.38,0.08
21.68,0.24,-0.40,0.10
21.68,0.26,-0.41,0.11
21.68,0.29,-0.41,0.13
21.69,0.31,-0.41,0.15
21.69,0.34,-0.41,0.17
21.69,0.36,-0.40,0.20
21.69,0.39,-0.38,0.24
21.70,0.40,-0.36,0.28
21.70,0.41,-0.33,0.32
21.70,0.42,-0.29,0.37
21.70,0.42,-0.25,0.42
21.71,0.41,-0.21,0.48
21.71,0.40,-0.17,0.54
21.71,0.38,-0.13,0.61
21.71,0.36,-0.09,0.67
21.71,0.34,-0.05,0.73
21.72,0.32,-0.01,0.78
21.72,0.30,0.04,0.82
21.72,0.29,0.08,0.86
21.72,0.27,0.11,0.88
21.73,0.25,0.12,0.91
21.73,0.23,0.12,0.93
21.73,0.22,0.11,0.95
21.73,0.20,0.09,0.96
21.74,0.18,0.05,0.99
21.74,0.16,0.01,1.01
21.74,0.15,-0.03,1.03
21.74,0.13,-0.05,1.05
21.75,0.12,-0.06,1.07
21.75,0.12,-0.06,1.09
21.75,0.11,-0.06,1.10
21.75,0.10,-0.06,1.11
21.75,0.09,-0.06,1.11
21.76,0.08,-0.07,1.10
21.76,0.08,-0.09,1.08
21.76,0.08,-0.11,1.06
21.76,0.08,-0.14,1.03
21.77,0.08,-0.19,1.00
21.77,0.09,-0.27,0.96
21.77,0.10,-0.37,0.91
21.77,0.12,-0.48,0.86
21.78,0.14,-0.59,0.81
21.78,0.16,-0.69,0.75
21.78,0.20,-0.77,0.69
21.78,0.25,-0.83,0.63
21.79,0.30,-0.88,0.57
21.79,0.35,-0.92,0.51
21.79,0.41,-0.95,0.45
21.79,0.46,-0.98,0.39
21.80,0.51,-1.01,0.33
21.80,0.56,-1.05,0.28
21.80,0.60,-1.09,0.23
21.80,0.64,-1.13,0.19
21.80,0.67,-1.16,0.15
21.81,0.68,-1.19,0.13
21.81,0.69,-1.23,0.12
21.81,0.70,-1.27,0.09
21.81,0.71,-1.28,0.06
21.82,0.71,-1.27,0.05
21.82,0.71,-1.25,0.04
21.82,0.70,-1.23,0.03
21.82,0.71,-1.19,0.03
21.83,0.71,-1.14,0.04
21.83,0.71,-1.06,0.05
21.83,0.72,-0.99,0.07
21.83,0.73,-0.92,0.09
21.84,0.74,-0.86,0.11
21.84,0.75,-0.80,0.15
21.84,0.76,-0.76,0.18
21.84,0.76,-0.72,0.22
21.85,0.76,-0.69,0.26
21.85,0.76,-0.66,0.30
21.85,0.76,-0.63,0.34
21.85,0.75,-0.63,0.38
21.85,0.74,-0.63,0.41
21.86,0.72,-0.64,0.45
21.86,0.71,-0.67,0.48
21.86,0.68,-0.71,0.52
21.86,0.66,-0.75,0.55
21.87,0.64,-0.79,0.58
21.87,0.62,-0.84,0.60
21.87,0.61,-0.89,0.63
21.87,0.59,-0.93,0.65
21.88,0.58,-0.98,0.66
21.88,0.57,-1.02,0.68
21.88,0.56,-1.06,0.69
21.88,0.56,-1.09,0.69
21.89,0.55,-1.13,0.69
21.89,0.55,-1.17,0.68
21.89,0.55,-1.20,0.68
21.89,0.55,-1.23,0.66
21.90,0.56,-1.27,0.65
21.90,0.56,-1.30,0.63
21.90,0.57,-1.32,0.61
21.90,0.57,-1.35,0.58
21.90,0.58,-1.37,0.56
21.91,0.59,-1.39,0.53
21.91,0.60,-1.40,0.50
21.91,0.60,-1.42,0.48
21.91,0.61,-1.42,0.45
21.92,0.61,-1.43,0.43
21.92,0.60,-1.44,0.41
21.92,0.61,-1.42,0.39
21.92,0.62,-1.40,0.37
21.93,0.62,-1.37,0.35
21.93,0.63,-1.35,0.33
21.93,0.63,-1.32,0.30
21.93,0.63,-1.29,0.28
21.94,0.64,-1.26,0.25
21.94,0.64,-1.22,0.23
21.94,0.64,-1.18,0.21
21.94,0.65,-1.15,0.19
21.94,0.66,-1.11,0.18
21.95,0.67,-1.07,0.16
21.95,0.68,-1.02,0.15
21.95,0.70,-0.98,0.14
21.95,0.71,-0.95,0.13
21.96,0.73,-0.92,0.12
21.96,0.74,-0.89,0.11
21.96,0.76,-0.86,0.10
21.96,0.78,-0.84,0.09
21.97,0.80,-0.82,0.08
21.97,0.82,-0.80,0.07
21.97,0.85,-0.79,0.07
21.97,0.87,-0.77,0.06
21.98,0.90,-0.75,0.06
21.98,0.92,-0.74,0.06
21.98,0.94,-0.72,0.05
21.98,0.96,-0.71,0.05
21.99,0.97,-0.69,0.05
21.99,0.99,-0.68,0.05
21.99,1.00,-0.67,0.05
21.99,1.00,-0.66,0.05
21.99,1.00,-0.65,0.06
22.00,1.00,-0.64,0.06
22.00,1.00,-0.63,0.07
22.00,0.99,-0.62,0.07
22.00,0.99,-0.61,0.08
22.01,0.98,-0.60,0.08
22.01,0.96,-0.59,0.09
22.01,0.95,-0.59,0.10
22.01,0.94,-0.57,0.11
22.02,0.93,-0.56,0.11
22.02,0.92,-0.54,0.12
22.02,0.91,-0.52,0.13
22.02,0.90,-0.50,0.14
22.03,0.90,-0.48,0.15
22.03,0.89,-0.46,0.16
22.03,0.88,-0.44,0.17
22.03,0.87,-0.42,0.17
22.04,0.86,-0.40,0.17
22.04,0.86,-0.37,0.17
22.04,0.85,-0.35,0.16
22.04,0.84,-0.32,0.16
22.04,0.84,-0.30,0.16
22.05,0.83,-0.27,0.16
22.05,0.83,-0.24,0.16
22.05,0.82,-0.21,0.16
22.05,0.82,-0.19,0.16
22.06,0.81,-0.16,0.16
22.06,0.81,-0.14,0.15
22.06,0.80,-0.11,0.15
22.06,0.80,-0.09,0.15
22.07,0.79,-0.06,0.15
22.07,0.79,-0.04,0.15
22.07,0.78,-0.03,0.15
22.07,0.77,-0.01,0.16
22.08,0.77,0.00,0.16
22.08,0.76,0.01,0.16
22.08,0.75,0.02,0.16
22.08,0.74,0.03,0.16
22.09,0.73,0.03,0.17
22.09,0.72,0.04,0.18
22.09,0.71,0.03,0.18
22.09,0.70,0.03,0.18
22.09,0.68,0.02,0.19
22.10,0.67,0.01,0.19
22.10,0.66,0.00,0.18
22.10,0.65,0.00,0.19
22.10,0.63,-0.01,0.19
22.11,0.62,-0.03,0.19
22.11,0.60,-0.04,0.19
22.11,0.59,-0.05,0.19
22.11,0.57,-0.07,0.19
22.12,0.55,-0.09,0.19
22.12,0.54,-0.11,0.19
22.12,0.52,-0.13,0.19
22.12,0.50,-0.15,0.19
22.13,0.49,-0.17,0.20
22.13,0.48,-0.20,0.20
22.13,0.47,-0.23,0.19
22.13,0.46,-0.25,0.19
22.14,0.45,-0.28,0.19
22.14,0.45,-0.32,0.18
22.14,0.44,-0.37,0.18
22.14,0.43,-0.40,0.17
22.14,0.43,-0.43,0.17
22.15,0.43,-0.47,0.16
22.15,0.43,-0.49,0.16
22.15,0.43,-0.50,0.16
22.15,0.43,-0.50,0.16
22.16,0.44,-0.51,0.16
22.16,0.44,-0.52,0.16
22.16,0.45,-0.52,0.15
22.16,0.45,-0.51,0.15
22.17,0.46,-0.51,0.14
22.17,0.47,-0.52,0.13
22.17,0.46,-0.52,0.13
22.17,0.46,-0.53,0.12
22.18,0.46,-0.52,0.12
22.18,0.46,-0.52,0.12
22.18,0.45,-0.52,0.12
22.18,0.45,-0.52,0.12
22.18,0.44,-0.51,0.12
22.19,0.44,-0.50,0.12
22.19,0.43,-0.50,0.13
22.19,0.42,-0.49,0.14
22.19,0.40,-0.49,0.15
22.20,0.39,-0.48,0.15
22.20,0.38,-0.47,0.16
22.20,0.37,-0.47,0.16
22.20,0.35,-0.46,0.17
22.21,0.34,-0.46,0.18
22.21,0.32,-0.47,0.19
22.21,0.31,-0.47,0.20
22.21,0.29,-0.49,0.21
22.22,0.28,-0.50,0.21
22.22,0.27,-0.51,0.21
22.22,0.25,-0.53,0.22
22.22,0.24,-0.54,0.22
22.23,0.23,-0.55,0.21
22.23,0.22,-0.57,0.21
22.23,0.21,-0.58,0.21
22.23,0.20,-0.59,0.20
22.23,0.18,-0.60,0.20
22.24,0.17,-0.61,0.19
22.24,0.15,-0.62,0.18
22.24,0.13,-0.62,0.17
22.24,0.11,-0.63,0.15
22.25,0.09,-0.63,0.14
22.25,0.06,-0.63,0.13
22.25,0.03,-0.64,0.11
22.25,0.00,-0.64,0.09
22.26,-0.04,-0.65,0.07
22.26,-0.08,-0.65,0.05
22.26,-0.11,-0.65,0.04
22.26,-0.15,-0.65,0.01
22.27,-0.18,-0.65,-0.01
22.27,-0.21,-0.64,-0.04
22.27,-0.25,-0.64,-0.06
22.27,-0.28,-0.63,-0.09
22.28,-0.31,-0.63,-0.11
22.28,-0.34,-0.62,-0.14
22.28,-0.37,-0.60,-0.16
22.28,-0.40,-0.58,-0.18
22.28,-0.44,-0.56,-0.19
22.29,-0.47,-0.53,-0.21
22.29,-0.51,-0.50,-0.23
22.29,-0.55,-0.46,-0.25
22.29,-0.59,-0.42,-0.26
22.30,-0.63,-0.36,-0.28
22.30,-0.68,-0.31,-0.29
22.30,-0.73,-0.25,-0.31
22.30,-0.77,-0.18,-0.32
22.31,-0.82,-0.11,-0.34
22.31,-0.87,-0.03,-0.35
22.31,-0.92,0.05,-0.37
22.31,-0.96,0.13,-0.38
22.32,-1.01,0.21,-0.40
22.32,-1.05,0.29,-0.42
22.32,-1.09,0.37,-0.43
22.32,-1.13,0.44,-0.45
22.33,-1.16,0.50,-0.47
22.33,-1.19,0.56,-0.49
22.33,-1.22,0.62,-0.51
22.33,-1.24,0.66,-0.54
22.33,-1.27,0.69,-0.56
22.34,-1.29,0.71,-0.59
22.34,-1.31,0.73,-0.61
22.34,-1.33,0.74,-0.65
22.34,-1.35,0.75,-0.68
22.35,-1.37,0.75,-0.71
22.35,-1.39,0.75,-0.74
22.35,-1.41,0.75,-0.77
22.35,-1.43,0.75,-0.80
22.36,-1.45,0.75,-0.83
22.36,-1.48,0.76,-0.85
22.36,-1.50,0.77,-0.88
22.36,-1.52,0.77,-0.91
22.37,-1.55,0.79,-0.94
22.37,-1.58,0.80,-0.97
22.37,-1.60,0.82,-1.00
22.37,-1.62,0.84,-1.03
22.37,-1.65,0.86,-1.05
22.38,-1.67,0.87,-1.09
22.38,-1.69,0.88,-1.12
22.38,-1.70,0.88,-1.14
22.38,-1.72,0.89,-1.17
22.39,-1.73,0.89,-1.20
22.39,-1.75,0.89,-1.23
22.39,-1.76,0.89,-1.26
22.39,-1.77,0.89,-1.29
22.40,-1.77,0.89,-1.32
22.40,-1.78,0.88,-1.34
22.40,-1.78,0.87,-1.36
22.40,-1.78,0.86,-1.38
22.41,-1.78,0.83,-1.40
22.41,-1.78,0.81,-1.42
22.41,-1.79,0.79,-1.44
22.41,-1.79,0.78,-1.45
22.42,-1.79,0.76,-1.46
22.42,-1.79,0.74,-1.46
22.42,-1.78,0.72,-1.47
22.42,-1.77,0.69,-1.48
22.42,-1.76,0.65,-1.50
22.43,-1.75,0.61,-1.52
22.43,-1.73,0.57,-1.53
22.43,-1.71,0.52,-1.54
22.43,-1.69,0.47,-1.54
22.44,-1.66,0.41,-1.54
22.44,-1.64,0.36,-1.53
22.44,-1.61,0.32,-1.50
22.44,-1.58,0.28,-1.46
22.45,-1.55,0.24,-1.42
22.45,-1.51,0.20,-1.36
22.45,-1.48,0.18,-1.30
22.45,-1.44,0.17,-1.23
22.46,-1.40,0.16,-1.16
22.46,-1.36,0.17,-1.10
22.46,-1.32,0.19,-1.03
22.46,-1.28,0.22,-0.98
22.47,-1.24,0.25,-0.93
22.47,-1.20,0.28,-0.89
22.47,-1.17,0.32,-0.86
22.47,-1.13,0.36,-0.83
22.47,-1.11,0.39,-0.81
22.48,-1.08,0.42,-0.79
22.48,-1.05,0.44,-0.77
22.48,-1.03,0.46,-0.76
22.48,-1.02,0.46,-0.75
22.49,-1.02,0.46,-0.75
22.49,-1.02,0.43,-0.76
22.49,-1.03,0.40,-0.78
22.49,-1.04,0.36,-0.81
22.50,-1.05,0.32,-0.83
22.50,-1.06,0.27,-0.85
22.50,-1.08,0.21,-0.87
22.50,-1.10,0.15,-0.87
22.51,-1.12,0.10,-0.87
22.51,-1.14,0.04,-0.86
22.51,-1.17,-0.02,-0.85
22.51,-1.19,-0.08,-0.84
22.52,-1.21,-0.12,-0.84
22.52,-1.23,-0.14,-0.83
22.52,-1.24,-0.14,-0.82
22.52,-1.25,-0.12,-0.80
22.52,-1.24,-0.08,-0.78
22.53,-1.24,-0.04,-0.76
22.53,-1.23,0.02,-0.74
22.53,-1.22,0.09,-0.71
22.53,-1.21,0.17,-0.69
22.54,-1.20,0.24,-0.67
22.54,-1.18,0.32,-0.65
22.54,-1.17,0.40,-0.62
22.54,-1.15,0.49,-0.61
22.55,-1.14,0.58,-0.59
22.55,-1.13,0.67,-0.57
22.55,-1.13,0.75,-0.55
22.55,-1.12,0.82,-0.53
22.56,-1.12,0.87,-0.51
22.56,-1.12,0.90,-0.50
22.56,-1.12,0.92,-0.48
22.56,-1.12,0.92,-0.46
22.57,-1.13,0.91,-0.44
22.57,-1.13,0.89,-0.43
22.57,-1.13,0.86,-0.41
22.57,-1.14,0.83,-0.39
22.57,-1.14,0.80,-0.38
22.58,-1.14,0.76,-0.36
22.58,-1.14,0.73,-0.35
22.58,-1.14,0.69,-0.34
22.58,-1.13,0.67,-0.34
22.59,-1.12,0.64,-0.33
22.59,-1.11,0.62,-0.32
22.59,-1.09,0.59,-0.31
22.59,-1.06,0.57,-0.30
22.60,-1.04,0.55,-0.28
22.60,-1.00,0.54,-0.27
22.60,-0.97,0.52,-0.26
22.60,-0.93,0.50,-0.24
22.61,-0.89,0.48,-0.23
22.61,-0.84,0.46,-0.21
22.61,-0.80,0.44,-0.19
22.61,-0.76,0.43,-0.18
22.61,-0.71,0.41,-0.16
22.62,-0.66,0.40,-0.15
22.62,-0.62,0.38,-0.14
22.62,-0.57,0.37,-0.13
22.62,-0.52,0.35,-0.12
22.63,-0.47,0.34,-0.12
22.63,-0.43,0.32,-0.11
22.63,-0.39,0.31,-0.10
22.63,-0.34,0.30,-0.08
22.64,-0.30,0.30,-0.07
22.64,-0.25,0.29,-0.06
22.64,-0.21,0.29,-0.06
22.64,-0.18,0.29,-0.05
22.65,-0.14,0.29,-0.04
22.65,-0.10,0.30,-0.03
22.65,-0.07,0.30,-0.02
22.65,-0.03,0.30,-0.02
22.66,0.00,0.31,-0.01
22.66,0.02,0.31,0.01
22.66,0.05,0.32,0.03
22.66,0.08,0.33,0.04
22.66,0.10,0.34,0.06
22.67,0.12,0.34,0.07
22.67,0.14,0.35,0.09
22.67,0.16,0.37,0.11
22.67,0.18,0.38,0.13
22.68,0.20,0.39,0.16
22.68,0.21,0.40,0.18
22.68,0.22,0.42,0.21
22.68,0.22,0.45,0.24
22.69,0.23,0.46,0.26
22.69,0.24,0.47,0.29
22.69,0.25,0.48,0.32
22.69,0.25,0.48,0.34
22.70,0.26,0.49,0.37
22.70,0.27,0.50,0.39
22.70,0.28,0.50,0.42
22.70,0.29,0.51,0.45
22.71,0.30,0.51,0.48
22.71,0.31,0.51,0.51
22.71,0.31,0.52,0.54
22.71,0.32,0.52,0.57
22.71,0.33,0.52,0.59
22.72,0.34,0.52,0.62
22.72,0.35,0.51,0.64
22.72,0.36,0.50,0.67
22.72,0.37,0.49,0.70
22.73,0.38,0.48,0.72
22.73,0.39,0.47,0.75
22.73,0.40,0.46,0.77
22.73,0.41,0.45,0.79
22.74,0.42,0.44,0.81
22.74,0.43,0.43,0.83
22.74,0.45,0.42,0.85
22.74,0.46,0.41,0.87
22.75,0.47,0.40,0.88
22.75,0.48,0.38,0.90
22.75,0.49,0.37,0.91
22.75,0.50,0.37,0.92
22.76,0.52,0.36,0.93
22.76,0.52,0.35,0.93
22.76,0.53,0.34,0.95
22.76,0.53,0.33,0.96
22.76,0.54,0.33,0.97
22.77,0.54,0.32,0.97
22.77,0.54,0.32,0.97
22.77,0.54,0.32,0.98
22.77,0.53,0.32,0.98
22.78,0.53,0.32,0.98
22.78,0.52,0.32,0.97
22.78,0.51,0.33,0.96
22.78,0.51,0.34,0.96
22.79,0.50,0.35,0.94
22.79,0.49,0.37,0.92
22.79,0.48,0.38,0.91
22.79,0.48,0.39,0.89
22.80,0.47,0.41,0.86
22.80,0.46,0.42,0.84
22.80,0.45,0.44,0.81
22.80,0.44,0.45,0.77
22.80,0.42,0.46,0.73
22.81,0.40,0.47,0.69
22.81,0.38,0.47,0.65
22.81,0.36,0.48,0.60
22.81,0.33,0.49,0.55
22.82,0.30,0.49,0.50
22.82,0.27,0.50,0.45
22.82,0.23,0.51,0.40
22.82,0.20,0.52,0.36
22.83,0.17,0.52,0.33
22.83,0.15,0.52,0.29
22.83,0.13,0.51,0.26
22.83,0.11,0.50,0.24
22.84,0.10,0.48,0.21
22.84,0.09,0.46,0.19
22.84,0.08,0.45,0.18
22.84,0.08,0.43,0.16
22.85,0.08,0.39,0.15
22.85,0.08,0.35,0.13
22.85,0.09,0.30,0.12
22.85,0.10,0.26,0.11
22.85,0.11,0.23,0.10
22.86,0.12,0.20,0.09
22.86,0.14,0.17,0.09
22.86,0.15,0.14,0.09
22.86,0.15,0.11,0.09
22.87,0.16,0.09,0.10
22.87,0.17,0.07,0.10
22.87,0.18,0.04,0.10
22.87,0.18,0.02,0.11
22.88,0.18,0.00,0.12
22.88,0.18,-0.02,0.13
22.88,0.18,-0.02,0.15
22.88,0.18,-0.02,0.16
22.89,0.18,-0.02,0.17
22.89,0.18,-0.02,0.19
22.89,0.18,-0.01,0.20
22.89,0.18,0.01,0.22
22.90,0.18,0.03,0.24
22.90,0.17,0.06,0.26
22.90,0.16,0.11,0.28
22.90,0.16,0.16,0.30
22.90,0.15,0.22,0.32
22.91,0.15,0.29,0.34
22.91,0.14,0.37,0.36
22.91,0.14,0.45,0.37
22.91,0.15,0.53,0.39
22.92,0.16,0.61,0.40
22.92,0.17,0.68,0.40
22.92,0.18,0.75,0.40
22.92,0.20,0.80,0.39
22.93,0.21,0.85,0.38
22.93,0.23,0.88,0.36
22.93,0.25,0.91,0.33
22.93,0.27,0.92,0.29
22.94,0.29,0.92,0.25
22.94,0.30,0.91,0.20
22.94,0.32,0.88,0.15
22.94,0.33,0.84,0.11
22.95,0.34,0.80,0.06
22.95,0.34,0.75,0.03
22.95,0.33,0.70,0.00
22.95,0.32,0.65,-0.02
22.95,0.31,0.61,-0.04
22.96,0.28,0.57,-0.05
22.96,0.26,0.53,-0.06
22.96,0.23,0.50,-0.07
22.96,0.20,0.47,-0.07
22.97,0.18,0.44,-0.07
22.97,0.15,0.41,-0.06
22.97,0.13,0.38,-0.05
22.97,0.10,0.34,-0.03
22.98,0.08,0.30,-0.01
22.98,0.05,0.26,0.01
22.98,0.03,0.22,0.03
22.98,0.01,0.19,0.05
22.99,-0.01,0.16,0.07
22.99,-0.02,0.13,0.09
22.99,-0.03,0.11,0.11
22.99,-0.03,0.07,0.12
23.00,-0.03,0.04,0.14
23.00,-0.02,0.01,0.16
23.00,-0.01,-0.02,0.17
23.00,0.00,-0.06,0.18
23.00,0.02,-0.10,0.18
23.01,0.03,-0.15,0.19
23.01,0.05,-0.19,0.19
23.01,0.07,-0.24,0.19
23.01,0.09,-0.27,0.19
23.02,0.11,-0.31,0.19
23.02,0.13,-0.34,0.19
23.02,0.16,-0.36,0.19
23.02,0.19,-0.38,0.19
23.03,0.23,-0.39,0.20
23.03,0.26,-0.39,0.21
23.03,0.30,-0.39,0.21
23.03,0.33,-0.39,0.18
23.04,0.35,-0.40,0.15
23.04,0.35,-0.42,0.15
23.04,0.34,-0.43,0.20
23.04,0.34,-0.42,0.29
23.04,0.33,-0.40,0.40
23.05,0.32,-0.36,0.52
23.05,0.32,-0.32,0.64
23.05,0.31,-0.27,0.75
23.05,0.31,-0.21,0.85
23.06,0.30,-0.14,0.93
23.06,0.30,-0.07,0.99
23.06,0.29,0.00,1.03
23.06,0.29,0.08,1.06
23.07,0.29,0.17,1.08
23.07,0.29,0.25,1.09
23.07,0.29,0.34,1.09
23.07,0.30,0.44,1.09
23.08,0.30,0.51,1.10
23.08,0.30,0.56,1.10
23.08,0.30,0.60,1.10
23.08,0.29,0.60,1.10
23.09,0.28,0.57,1.10
23.09,0.26,0.52,1.10
23.09,0.25,0.45,1.09
23.09,0.23,0.36,1.08
23.09,0.20,0.27,1.06
23.10,0.18,0.17,1.03
23.10,0.17,0.07,1.00
23.10,0.16,-0.03,0.96
23.10,0.16,-0.12,0.91
23.11,0.18,-0.21,0.86
23.11,0.20,-0.30,0.80
23.11,0.23,-0.38,0.74
23.11,0.27,-0.44,0.68
23.12,0.31,-0.49,0.61
23.12,0.36,-0.54,0.55
23.12,0.41,-0.58,0.49
23.12,0.47,-0.61,0.42
23.13,0.52,-0.65,0.36
23.13,0.57,-0.68,0.30
23.13,0.62,-0.71,0.24
23.13,0.67,-0.72,0.19
23.14,0.72,-0.69,0.14
23.14,0.76,-0.63,0.10
23.14,0.79,-0.59,0.09
23.14,0.79,-0.58,0.09
23.14,0.79,-0.59,0.09
23.15,0.78,-0.58,0.07
23.15,0.77,-0.58,0.05
23.15,0.75,-0.57,0.04
23.15,0.73,-0.57,0.04
23.16,0.70,-0.57,0.04
23.16,0.67,-0.55,0.05
23.16,0.64,-0.52,0.07
23.16,0.62,-0.48,0.09
23.17,0.60,-0.42,0.11
23.17,0.58,-0.35,0.14
23.17,0.57,-0.28,0.17
23.17,0.55,-0.21,0.21
23.18,0.54,-0.16,0.26
23.18,0.54,-0.12,0.30
23.18,0.53,-0.09,0.35
23.18,0.52,-0.09,0.40
23.19,0.52,-0.11,0.44
23.19,0.51,-0.15,0.49
23.19,0.51,-0.20,0.54
23.19,0.51,-0.27,0.58
23.19,0.51,-0.36,0.63
23.20,0.50,-0.46,0.67
23.20,0.50,-0.56,0.70
23.20,0.50,-0.65,0.73
23.20,0.50,-0.74,0.76
23.21,0.50,-0.82,0.79
23.21,0.50,-0.88,0.82
23.21,0.51,-0.93,0.84
23.21,0.51,-0.97,0.86
23.22,0.51,-1.01,0.88
23.22,0.51,-1.04,0.89
23.22,0.51,-1.07,0.89
23.22,0.50,-1.10,0.89
23.23,0.50,-1.12,0.88
23.23,0.50,-1.15,0.87
23.23,0.49,-1.17,0.86
23.23,0.49,-1.20,0.84
23.23,0.48,-1.22,0.81
23.24,0.47,-1.25,0.79
23.24,0.46,-1.29,0.76
23.24,0.45,-1.33,0.73
23.24,0.43,-1.37,0.71
23.25,0.42,-1.39,0.68
23.25,0.42,-1.40,0.65
23.25,0.42,-1.41,0.62
23.25,0.41,-1.41,0.59
23.26,0.41,-1.41,0.56
23.26,0.41,-1.41,0.52
23.26,0.41,-1.41,0.48
23.26,0.41,-1.41,0.45
23.27,0.42,-1.40,0.41
23.27,0.43,-1.39,0.37
23.27,0.44,-1.38,0.34
23.27,0.45,-1.36,0.31
23.28,0.47,-1.34,0.27
23.28,0.48,-1.32,0.24
23.28,0.50,-1.30,0.21
23.28,0.52,-1.27,0.18
23.28,0.54,-1.25,0.15
23.29,0.56,-1.23,0.12
23.29,0.58,-1.21,0.10
23.29,0.60,-1.18,0.07
23.29,0.62,-1.16,0.05
23.30,0.64,-1.13,0.03
23.30,0.66,-1.10,0.01
23.30,0.68,-1.07,0.00
23.30,0.71,-1.03,-0.02
23.31,0.73,-1.00,-0.03
23.31,0.75,-0.96,-0.03
23.31,0.78,-0.92,-0.04
23.31,0.80,-0.89,-0.04
23.32,0.82,-0.86,-0.04
23.32,0.84,-0.84,-0.03
23.32,0.86,-0.82,-0.03
23.32,0.87,-0.80,-0.02
23.33,0.88,-0.78,-0.01
23.33,0.88,-0.76,0.00
23.33,0.88,-0.74,0.01
23.33,0.88,-0.72,0.02
23.33,0.88,-0.69,0.03
23.34,0.88,-0.67,0.04
23.34,0.87,-0.64,0.05
23.34,0.86,-0.62,0.06
23.34,0.84,-0.60,0.07
23.35,0.83,-0.59,0.07
23.35,0.82,-0.58,0.08
23.35,0.81,-0.57,0.09
23.35,0.80,-0.56,0.09
23.36,0.79,-0.54,0.09
23.36,0.78,-0.52,0.09
23.36,0.77,-0.50,0.09
23.36,0.75,-0.48,0.09
23.37,0.74,-0.46,0.09
23.37,0.74,-0.43,0.09
23.37,0.74,-0.41,0.09
23.37,0.73,-0.38,0.09
23.38,0.73,-0.36,0.08
23.38,0.72,-0.33,0.08
23.38,0.72,-0.31,0.08
23.38,0.72,-0.28,0.07
23.38,0.72,-0.26,0.07
23.39,0.72,-0.24,0.07
23.39,0.72,-0.21,0.06
23.39,0.72,-0.18,0.06
23.39,0.71,-0.15,0.07
23.40,0.71,-0.12,0.07
23.40,0.70,-0.09,0.07
23.40,0.70,-0.06,0.08
23.40,0.69,-0.04,0.09
23.41,0.69,-0.01,0.10
23.41,0.68,0.01,0.11
23.41,0.68,0.03,0.11
23.41,0.67,0.05,0.13
23.42,0.67,0.07,0.13
23.42,0.66,0.08,0.15
23.42,0.66,0.09,0.16
23.42,0.66,0.10,0.17
23.43,0.65,0.10,0.18
23.43,0.65,0.10,0.19
23.43,0.65,0.10,0.20
23.43,0.66,0.10,0.21
23.43,0.66,0.09,0.22
23.44,0.66,0.08,0.23
23.44,0.67,0.07,0.25
23.44,0.67,0.05,0.26
23.44,0.68,0.02,0.28
23.45,0.69,0.01,0.29
23.45,0.69,-0.01,0.31
23.45,0.70,-0.04,0.32
23.45,0.70,-0.06,0.33
23.46,0.71,-0.09,0.34
23.46,0.71,-0.12,0.35
23.46,0.71,-0.15,0.35
23.46,0.71,-0.19,0.36
23.47,0.70,-0.23,0.36
23.47,0.69,-0.27,0.36
23.47,0.69,-0.31,0.36
23.47,0.68,-0.36,0.36
23.47,0.67,-0.43,0.34
23.48,0.65,-0.49,0.33
23.48,0.64,-0.53,0.32
23.48,0.63,-0.56,0.31
23.48,0.62,-0.59,0.30
23.49,0.61,-0.61,0.29
23.49,0.60,-0.62,0.28
23.49,0.59,-0.63,0.28
23.49,0.58,-0.64,0.27
23.50,0.57,-0.65,0.26
23.50,0.56,-0.65,0.24
23.50,0.55,-0.64,0.23
23.50,0.54,-0.63,0.22
23.51,0.54,-0.61,0.20
23.51,0.53,-0.60,0.18
23.51,0.52,-0.60,0.16
23.51,0.50,-0.61,0.14
23.52,0.48,-0.62,0.12
23.52,0.47,-0.62,0.10
23.52,0.45,-0.61,0.08
23.52,0.43,-0.59,0.06
23.52,0.41,-0.57,0.05
23.53,0.39,-0.55,0.03
23.53,0.37,-0.53,0.01
23.53,0.35,-0.52,0.00
23.53,0.32,-0.51,-0.01
23.54,0.30,-0.49,-0.01
23.54,0.28,-0.48,-0.02
23.54,0.26,-0.47,-0.02
23.54,0.24,-0.47,-0.02
23.55,0.22,-0.47,-0.01
23.55,0.19,-0.46,-0.01
23.55,0.17,-0.46,0.00
23.55,0.15,-0.46,0.01
23.56,0.13,-0.47,0.02
23.56,0.12,-0.47,0.02
23.56,0.10,-0.49,0.03
23.56,0.08,-0.50,0.04
23.57,0.07,-0.52,0.05
23.57,0.05,-0.54,0.06
23.57,0.03,-0.56,0.06
23.57,0.01,-0.58,0.07
23.57,-0.01,-0.61,0.07
23.58,-0.03,-0.64,0.06
23.58,-0.06,-0.67,0.06
23.58,-0.08,-0.70,0.04
23.58,-0.11,-0.73,0.03
23.59,-0.13,-0.74,0.01
23.59,-0.17,-0.75,-0.01
23.59,-0.21,-0.76,-0.03
23.59,-0.25,-0.77,-0.05
23.60,-0.30,-0.78,-0.07
23.60,-0.35,-0.79,-0.09
23.60,-0.40,-0.79,-0.11
23.60,-0.46,-0.79,-0.13
23.61,-0.52,-0.77,-0.15
23.61,-0.59,-0.76,-0.17
23.61,-0.65,-0.74,-0.19
23.61,-0.71,-0.73,-0.21
23.62,-0.77,-0.70,-0.23
23.62,-0.83,-0.68,-0.25
23.62,-0.89,-0.66,-0.28
23.62,-0.94,-0.64,-0.30
23.62,-0.99,-0.60,-0.33
23.63,-1.05,-0.56,-0.35
23.63,-1.09,-0.51,-0.38
23.63,-1.14,-0.44,-0.42
23.63,-1.19,-0.38,-0.45
23.64,-1.24,-0.30,-0.49
23.64,-1.29,-0.21,-0.53
23.64,-1.34,-0.12,-0.57
23.64,-1.39,-0.02,-0.61
23.65,-1.45,0.09,-0.65
23.65,-1.50,0.19,-0.69
23.65,-1.55,0.29,-0.73
23.65,-1.61,0.40,-0.77
23.66,-1.66,0.50,-0.81
23.66,-1.72,0.60,-0.86
23.66,-1.77,0.68,-0.90
23.66,-1.82,0.76,-0.95
23.66,-1.87,0.83,-0.99
23.67,-1.92,0.89,-1.04
23.67,-1.96,0.94,-1.09
23.67,-2.00,0.97,-1.14
23.67,-2.02,1.00,-1.18
23.68,-2.04,1.02,-1.22
23.68,-2.05,1.02,-1.27
23.68,-2.05,1.00,-1.31
23.68,-2.04,0.98,-1.35
23.69,-2.02,0.93,-1.39
23.69,-2.00,0.88,-1.44
23.69,-1.96,0.83,-1.48
23.69,-1.92,0.78,-1.53
23.70,-1.88,0.74,-1.58
23.70,-1.83,0.70,-1.63
23.70,-1.79,0.66,-1.68
23.70,-1.74,0.63,-1.73
23.71,-1.69,0.61,-1.78
23.71,-1.65,0.59,-1.82
23.71,-1.61,0.58,-1.86
23.71,-1.57,0.57,-1.89
23.71,-1.54,0.57,-1.92
23.72,-1.51,0.59,-1.94
23.72,-1.50,0.61,-1.96
23.72,-1.49,0.64,-1.96
23.72,-1.49,0.66,-1.96
23.73,-1.50,0.69,-1.96
23.73,-1.52,0.72,-1.94
23.73,-1.55,0.74,-1.91
23.73,-1.58,0.76,-1.87
23.74,-1.62,0.77,-1.85
23.74,-1.66,0.76,-1.82
23.74,-1.69,0.75,-1.80
23.74,-1.72,0.73,-1.78
23.75,-1.75,0.69,-1.76
23.75,-1.77,0.65,-1.75
23.75,-1.78,0.59,-1.72
23.75,-1.79,0.54,-1.69
23.76,-1.78,0.50,-1.64
23.76,-1.77,0.47,-1.58
23.76,-1.75,0.46,-1.51
23.76,-1.73,0.44,-1.43
23.76,-1.70,0.43,-1.33
23.77,-1.66,0.42,-1.22
23.77,-1.62,0.43,-1.11
23.77,-1.57,0.45,-1.00
23.77,-1.52,0.48,-0.88
23.78,-1.47,0.51,-0.76
23.78,-1.41,0.54,-0.65
23.78,-1.35,0.57,-0.53
23.78,-1.30,0.60,-0.43
23.79,-1.24,0.61,-0.33
23.79,-1.19,0.62,-0.23
23.79,-1.14,0.62,-0.14
23.79,-1.10,0.64,-0.07
23.80,-1.05,0.67,-0.01
23.80,-1.02,0.70,0.02
23.80,-1.00,0.73,0.04
23.80,-0.98,0.75,0.03
23.81,-0.97,0.75,0.00
23.81,-0.98,0.72,-0.06
23.81,-1.00,0.66,-0.13
23.81,-1.02,0.60,-0.21
23.81,-1.04,0.54,-0.27
23.82,-1.07,0.48,-0.31
23.82,-1.11,0.41,-0.34
23.82,-1.14,0.35,-0.36
23.82,-1.16,0.30,-0.37
23.83,-1.19,0.26,-0.37
23.83,-1.20,0.24,-0.36
23.83,-1.21,0.23,-0.34
23.83,-1.21,0.23,-0.32
23.84,-1.21,0.25,-0.31
23.84,-1.21,0.29,-0.30
23.84,-1.19,0.34,-0.29
23.84,-1.18,0.42,-0.30
23.85,-1.16,0.50,-0.30
23.85,-1.14,0.59,-0.31
23.85,-1.11,0.69,-0.32
23.85,-1.08,0.77,-0.33
23.86,-1.05,0.84,-0.34
23.86,-1.01,0.90,-0.34
23.86,-0.97,0.95,-0.35
23.86,-0.93,0.99,-0.35
23.86,-0.88,1.02,-0.36
23.87,-0.84,1.04,-0.36
23.87,-0.79,1.04,-0.37
23.87,-0.75,1.04,-0.37
23.87,-0.71,1.04,-0.38
23.88,-0.67,1.03,-0.38
23.88,-0.64,1.02,-0.38
23.88,-0.61,1.01,-0.39
23.88,-0.58,1.00,-0.39
23.89,-0.56,0.99,-0.40
23.89,-0.54,0.99,-0.40
23.89,-0.52,0.99,-0.41
23.89,-0.51,0.99,-0.41
23.90,-0.50,0.99,-0.41
23.90,-0.49,0.98,-0.41
23.90,-0.49,0.98,-0.41
23.90,-0.49,0.96,-0.40
23.90,-0.49,0.95,-0.40
23.91,-0.48,0.93,-0.39
23.91,-0.48,0.90,-0.39
23.91,-0.49,0.88,-0.37
23.91,-0.49,0.86,-0.36
23.92,-0.49,0.83,-0.33
23.92,-0.49,0.80,-0.30
23.92,-0.49,0.77,-0.28
23.92,-0.49,0.74,-0.25
23.93,-0.49,0.71,-0.22
23.93,-0.48,0.68,-0.20
23.93,-0.48,0.66,-0.17
23.93,-0.47,0.64,-0.15
23.94,-0.46,0.62,-0.12
23.94,-0.45,0.61,-0.09
23.94,-0.44,0.60,-0.06
23.94,-0.43,0.58,-0.03
23.95,-0.41,0.57,0.00
23.95,-0.40,0.55,0.03
23.95,-0.38,0.54,0.05
23.95,-0.37,0.52,0.07
23.95,-0.35,0.51,0.09
23.96,-0.34,0.49,0.11
23.96,-0.32,0.47,0.13
23.96,-0.31,0.45,0.15
23.96,-0.29,0.43,0.17
23.97,-0.27,0.41,0.19
23.97,-0.25,0.38,0.21
23.97,-0.23,0.37,0.22
23.97,-0.21,0.34,0.23
23.98,-0.20,0.33,0.25
23.98,-0.18,0.31,0.26
23.98,-0.16,0.29,0.28
23.98,-0.15,0.28,0.29
23.99,-0.13,0.26,0.30
23.99,-0.12,0.25,0.31
23.99,-0.11,0.24,0.33
23.99,-0.10,0.23,0.34
24.00,-0.09,0.22,0.35
24.00,-0.08,0.21,0.37
24.00,-0.06,0.21,0.39
24.00,-0.05,0.21,0.40
24.00,-0.04,0.21,0.42
24.01,-0.02,0.22,0.44
24.01,-0.01,0.23,0.46
24.01,0.00,0.24,0.48
24.01,0.02,0.25,0.50
24.02,0.03,0.25,0.52
24.02,0.05,0.26,0.54
24.02,0.07,0.27,0.56
24.02,0.08,0.27,0.57
24.03,0.10,0.28,0.59
24.03,0.12,0.29,0.61
24.03,0.14,0.29,0.62
24.03,0.16,0.30,0.64
24.04,0.18,0.30,0.65
24.04,0.21,0.31,0.67
24.04,0.23,0.31,0.68
24.04,0.26,0.31,0.69
24.05,0.28,0.31,0.71
24.05,0.31,0.31,0.72
24.05,0.34,0.32,0.73
24.05,0.36,0.32,0.74
24.05,0.39,0.32,0.74
24.06,0.42,0.33,0.75
24.06,0.45,0.33,0.76
24.06,0.47,0.33,0.76
24.06,0.51,0.33,0.76
24.07,0.53,0.33,0.76
24.07,0.56,0.32,0.76
24.07,0.59,0.31,0.76
24.07,0.62,0.31,0.76
24.08,0.65,0.30,0.76
24.08,0.68,0.29,0.76
24.08,0.71,0.28,0.76
24.08,0.74,0.27,0.76
24.09,0.76,0.27,0.76
24.09,0.79,0.27,0.76
24.09,0.80,0.27,0.76
24.09,0.82,0.27,0.76
24.09,0.84,0.28,0.76
24.10,0.85,0.28,0.76
24.10,0.85,0.30,0.76
24.10,0.85,0.31,0.76
24.10,0.85,0.32,0.75
24.11,0.84,0.33,0.74
24.11,0.82,0.35,0.73
24.11,0.81,0.36,0.71
24.11,0.78,0.37,0.70
24.12,0.76,0.38,0.68
24.12,0.73,0.39,0.66
24.12,0.69,0.41,0.63
24.12,0.65,0.44,0.61
24.13,0.60,0.47,0.58
24.13,0.55,0.51,0.55
24.13,0.50,0.53,0.52
24.13,0.45,0.54,0.48
24.14,0.40,0.55,0.45
24.14,0.35,0.55,0.41
24.14,0.30,0.54,0.38
24.14,0.24,0.53,0.34
24.14,0.19,0.52,0.31
24.15,0.13,0.50,0.27
24.15,0.08,0.48,0.24
24.15,0.03,0.45,0.21
24.15,-0.02,0.41,0.19
24.16,-0.08,0.37,0.16
24.16,-0.12,0.34,0.14
24.16,-0.17,0.30,0.12
24.16,-0.22,0.26,0.11
24.17,-0.26,0.23,0.09
24.17,-0.30,0.21,0.08
24.17,-0.33,0.18,0.07
24.17,-0.36,0.16,0.06
24.18,-0.38,0.13,0.07
24.18,-0.39,0.11,0.07
24.18,-0.39,0.10,0.08
24.18,-0.39,0.08,0.09
24.19,-0.39,0.08,0.10
24.19,-0.39,0.08,0.11
24.19,-0.38,0.09,0.12
24.19,-0.37,0.10,0.14
24.19,-0.36,0.11,0.15
24.20,-0.35,0.13,0.17
24.20,-0.33,0.14,0.18
24.20,-0.31,0.17,0.20
24.20,-0.30,0.19,0.22
24.21,-0.28,0.21,0.23
24.21,-0.27,0.23,0.25
24.21,-0.25,0.25,0.26
24.21,-0.24,0.26,0.28
24.22,-0.23,0.27,0.29
24.22,-0.21,0.28,0.31
24.22,-0.20,0.29,0.31
24.22,-0.20,0.30,0.32
24.23,-0.19,0.31,0.33
24.23,-0.19,0.32,0.34
24.23,-0.19,0.34,0.35
24.23,-0.19,0.35,0.35
24.24,-0.19,0.37,0.36
24.24,-0.20,0.39,0.36
24.24,-0.20,0.42,0.37
24.24,-0.20,0.45,0.37
24.24,-0.20,0.49,0.37
24.25,-0.20,0.52,0.36
24.25,-0.20,0.55,0.36
24.25,-0.19,0.58,0.34
24.25,-0.19,0.61,0.33
24.26,-0.18,0.63,0.31
24.26,-0.17,0.64,0.29
24.26,-0.16,0.65,0.27
24.26,-0.14,0.65,0.25
24.27,-0.12,0.64,0.22
24.27,-0.09,0.63,0.20
24.27,-0.06,0.61,0.18
24.27,-0.03,0.59,0.15
24.28,-0.01,0.56,0.13
24.28,0.02,0.54,0.11
24.28,0.05,0.51,0.08
24.28,0.08,0.49,0.05
24.29,0.10,0.46,0.03
24.29,0.12,0.44,-0.01
24.29,0.13,0.42,-0.04
24.29,0.15,0.42,-0.08
24.29,0.17,0.41,-0.12
24.30,0.18,0.42,-0.16
24.30,0.20,0.42,-0.20
24.30,0.23,0.43,-0.23
24.30,0.25,0.43,-0.25
24.31,0.28,0.44,-0.28
24.31,0.31,0.44,-0.29
24.31,0.34,0.44,-0.31
24.31,0.36,0.43,-0.32
24.32,0.39,0.42,-0.33
24.32,0.42,0.41,-0.33
24.32,0.45,0.39,-0.33
24.32,0.47,0.36,-0.32
24.33,0.50,0.34,-0.31
24.33,0.53,0.31,-0.30
24.33,0.56,0.28,-0.29
24.33,0.58,0.24,-0.28
24.33,0.61,0.20,-0.27
24.34,0.64,0.16,-0.26
24.34,0.67,0.12,-0.25
24.34,0.70,0.08,-0.24
24.34,0.73,0.04,-0.23
24.35,0.76,0.00,-0.21
24.35,0.79,-0.04,-0.20
24.35,0.81,-0.09,-0.18
24.35,0.84,-0.13,-0.16
24.36,0.86,-0.18,-0.13
24.36,0.88,-0.23,-0.10
24.36,0.88,-0.29,-0.06
24.36,0.88,-0.34,-0.01
24.37,0.86,-0.39,0.05
24.37,0.83,-0.44,0.12
24.37,0.79,-0.49,0.19
24.37,0.74,-0.54,0.26
24.38,0.67,-0.60,0.35
24.38,0.59,-0.66,0.44
24.38,0.51,-0.72,0.54
24.38,0.42,-0.76,0.63
24.38,0.33,-0.79,0.72
24.39,0.24,-0.80,0.81
24.39,0.15,-0.79,0.90
24.39,0.07,-0.75,0.98
24.39,-0.01,-0.70,1.05
24.40,-0.08,-0.62,1.12
24.40,-0.14,-0.53,1.18
24.40,-0.19,-0.43,1.22
24.40,-0.23,-0.31,1.25
24.41,-0.26,-0.19,1.28
24.41,-0.28,-0.05,1.28
24.41,-0.28,0.08,1.28
24.41,-0.28,0.21,1.26
24.42,-0.27,0.33,1.24
24.42,-0.26,0.45,1.21
24.42,-0.24,0.55,1.19
24.42,-0.22,0.65,1.16
24.43,-0.20,0.72,1.13
24.43,-0.18,0.77,1.10
24.43,-0.16,0.79,1.08
24.43,-0.15,0.76,1.06
24.43,-0.14,0.68,1.05
24.44,-0.13,0.57,1.03
24.44,-0.12,0.43,1.01
24.44,-0.10,0.28,0.97
24.44,-0.07,0.14,0.92
24.45,-0.02,0.01,0.86
24.45,0.03,-0.11,0.80
24.45,0.11,-0.20,0.73
24.45,0.20,-0.29,0.65
24.46,0.29,-0.36,0.58
24.46,0.40,-0.43,0.51
24.46,0.51,-0.52,0.45
24.46,0.62,-0.61,0.38
24.47,0.74,-0.70,0.31
24.47,0.84,-0.79,0.25
24.47,0.94,-0.87,0.18
24.47,1.03,-0.95,0.12
24.48,1.11,-1.01,0.07
24.48,1.18,-1.07,0.02
24.48,1.23,-1.09,-0.02
24.48,1.28,-1.07,-0.06
24.48,1.31,-1.03,-0.09
24.49,1.33,-0.97,-0.11
24.49,1.34,-0.94,-0.12
24.49,1.33,-0.92,-0.11
24.49,1.30,-0.94,-0.10
24.50,1.26,-0.97,-0.10
24.50,1.23,-0.97,-0.11
24.50,1.19,-0.96,-0.10
24.50,1.15,-0.95,-0.08
24.51,1.11,-0.93,-0.06
24.51,1.07,-0.90,-0.02
24.51,1.04,-0.86,0.02
24.51,1.00,-0.80,0.07
24.52,0.96,-0.74,0.13
24.52,0.93,-0.66,0.20
24.52,0.90,-0.59,0.27
24.52,0.86,-0.52,0.33
24.52,0.83,-0.46,0.40
24.53,0.80,-0.41,0.46
24.53,0.76,-0.37,0.52
24.53,0.72,-0.36,0.58
24.53,0.68,-0.36,0.64
24.54,0.64,-0.39,0.69
24.54,0.60,-0.44,0.73
24.54,0.57,-0.50,0.78
24.54,0.54,-0.57,0.82
24.55,0.52,-0.66,0.85
24.55,0.50,-0.74,0.88
24.55,0.49,-0.84,0.90
24.55,0.48,-0.93,0.92
24.56,0.48,-1.01,0.93
24.56,0.49,-1.10,0.95
24.56,0.50,-1.16,0.95
24.56,0.51,-1.22,0.96
24.57,0.54,-1.27,0.95
24.57,0.56,-1.30,0.94
24.57,0.59,-1.33,0.92
24.57,0.61,-1.35,0.90
24.57,0.64,-1.38,0.88
24.58,0.67,-1.40,0.86
24.58,0.69,-1.42,0.84
24.58,0.72,-1.45,0.82
24.58,0.74,-1.48,0.79
24.59,0.76,-1.51,0.77
24.59,0.77,-1.54,0.74
24.59,0.79,-1.56,0.71
24.59,0.80,-1.58,0.69
24.60,0.80,-1.60,0.66
24.60,0.82,-1.59,0.64
24.60,0.83,-1.56,0.62
24.60,0.84,-1.54,0.59
24.61,0.85,-1.52,0.55
24.61,0.86,-1.51,0.52
24.61,0.86,-1.49,0.48
24.61,0.87,-1.48,0.45
24.62,0.88,-1.48,0.41
24.62,0.89,-1.47,0.38
24.62,0.90,-1.46,0.34
24.62,0.92,-1.45,0.31
24.62,0.94,-1.44,0.28
24.63,0.96,-1.41,0.25
24.63,0.99,-1.38,0.22
24.63,1.01,-1.34,0.20
24.63,1.04,-1.30,0.18
24.64,1.07,-1.27,0.16
24.64,1.10,-1.23,0.14
24.64,1.13,-1.19,0.12
24.64,1.17,-1.15,0.11
24.65,1.20,-1.11,0.10
24.65,1.23,-1.08,0.09
24.65,1.27,-1.04,0.08
24.65,1.29,-1.01,0.08
24.66,1.32,-0.99,0.08
24.66,1.34,-0.97,0.08
24.66,1.36,-0.95,0.09
24.66,1.38,-0.93,0.09
24.67,1.39,-0.91,0.10
24.67,1.39,-0.90,0.10
24.67,1.39,-0.87,0.11
24.67,1.39,-0.85,0.12
24.67,1.38,-0.81,0.13
24.68,1.36,-0.78,0.15
24.68,1.34,-0.74,0.16
24.68,1.31,-0.71,0.17
24.68,1.28,-0.68,0.18
24.69,1.24,-0.65,0.19
24.69,1.20,-0.63,0.21
24.69,1.16,-0.60,0.22
24.69,1.11,-0.57,0.22
24.70,1.06,-0.53,0.23
24.70,1.01,-0.48,0.23
24.70,0.95,-0.44,0.23
24.70,0.90,-0.40,0.23
24.71,0.85,-0.36,0.24
24.71,0.80,-0.32,0.23
24.71,0.75,-0.27,0.23
24.71,0.70,-0.22,0.21
24.72,0.66,-0.17,0.20
24.72,0.61,-0.13,0.18
24.72,0.57,-0.08,0.16
24.72,0.53,-0.05,0.14
24.72,0.50,-0.02,0.11
24.73,0.47,0.01,0.08
24.73,0.44,0.04,0.06
24.73,0.41,0.07,0.04
24.73,0.39,0.09,0.03
24.74,0.37,0.12,0.01
24.74,0.35,0.14,0.01
24.74,0.33,0.16,0.00
24.74,0.31,0.18,0.00
24.75,0.30,0.19,0.00
24.75,0.29,0.20,0.00
24.75,0.29,0.22,0.00
24.75,0.29,0.22,0.00
24.76,0.30,0.22,0.01
24.76,0.31,0.21,0.01
24.76,0.33,0.20,0.02
24.76,0.36,0.18,0.03
24.76,0.38,0.15,0.04
24.77,0.41,0.12,0.05
24.77,0.44,0.08,0.06
24.77,0.48,0.03,0.08
24.77,0.51,-0.02,0.09
24.78,0.55,-0.08,0.11
24.78,0.59,-0.15,0.12
24.78,0.62,-0.22,0.14
24.78,0.66,-0.29,0.16
24.79,0.69,-0.37,0.18
24.79,0.72,-0.44,0.20
24.79,0.75,-0.52,0.22
24.79,0.78,-0.58,0.24
24.80,0.80,-0.65,0.26
24.80,0.82,-0.71,0.27
24.80,0.84,-0.76,0.28
24.80,0.85,-0.82,0.29
24.81,0.85,-0.87,0.30
24.81,0.84,-0.94,0.29
24.81,0.82,-1.01,0.28
24.81,0.79,-1.06,0.28
24.81,0.76,-1.07,0.28
24.82,0.72,-1.07,0.28
24.82,0.68,-1.07,0.28
24.82,0.64,-1.06,0.29
24.82,0.60,-1.04,0.29
24.83,0.56,-1.00,0.28
24.83,0.53,-0.97,0.27
24.83,0.48,-0.96,0.27
24.83,0.44,-0.95,0.27
24.84,0.40,-0.94,0.27
24.84,0.36,-0.94,0.27
24.84,0.32,-0.93,0.27
24.84,0.29,-0.92,0.27
24.85,0.25,-0.91,0.27
24.85,0.22,-0.90,0.27
24.85,0.20,-0.87,0.27
24.85,0.17,-0.85,0.27
24.86,0.15,-0.82,0.27
24.86,0.13,-0.79,0.27
24.86,0.12,-0.75,0.27
24.86,0.11,-0.71,0.27
24.86,0.10,-0.68,0.28
24.87,0.09,-0.65,0.28
24.87,0.09,-0.63,0.28
24.87,0.09,-0.62,0.27
24.87,0.10,-0.61,0.27
24.88,0.11,-0.62,0.26
24.88,0.12,-0.64,0.25
24.88,0.14,-0.65,0.24
24.88,0.15,-0.65,0.22
24.89,0.15,-0.66,0.20
24.89,0.15,-0.66,0.18
24.89,0.15,-0.67,0.15
24.89,0.14,-0.67,0.13
24.90,0.11,-0.67,0.10
24.90,0.08,-0.68,0.08
24.90,0.04,-0.68,0.05
24.90,0.00,-0.68,0.02
24.91,-0.06,-0.68,-0.01
24.91,-0.13,-0.68,-0.05
24.91,-0.19,-0.67,-0.08
24.91,-0.27,-0.66,-0.12
24.91,-0.34,-0.65,-0.16
24.92,-0.42,-0.64,-0.21
24.92,-0.50,-0.62,-0.25
24.92,-0.58,-0.60,-0.29
24.92,-0.66,-0.58,-0.34
24.93,-0.74,-0.55,-0.38
24.93,-0.81,-0.53,-0.43
24.93,-0.88,-0.50,-0.48
24.93,-0.95,-0.47,-0.52
24.94,-1.02,-0.44,-0.56
24.94,-1.09,-0.41,-0.60
24.94,-1.15,-0.37,-0.63
24.94,-1.21,-0.32,-0.66
24.95,-1.27,-0.27,-0.69
24.95,-1.33,-0.20,-0.72
24.95,-1.39,-0.12,-0.75
24.95,-1.45,-0.03,-0.79
24.95,-1.50,0.07,-0.82
24.96,-1.54,0.17,-0.85
24.96,-1.58,0.27,-0.88
24.96,-1.61,0.37,-0.90
24.96,-1.64,0.47,-0.93
24.97,-1.67,0.57,-0.96
24.97,-1.69,0.65,-0.98
24.97,-1.71,0.73,-1.00
24.97,-1.73,0.81,-1.02
24.98,-1.75,0.87,-1.03
24.98,-1.76,0.92,-1.04
24.98,-1.78,0.96,-1.06
24.98,-1.80,0.98,-1.06
24.99,-1.81,0.99,-1.07
24.99,-1.81,0.99,-1.08
24.99,-1.81,0.98,-1.09
24.99,-1.79,0.96,-1.10
25.00,-1.77,0.94,-1.11
25.00,-1.75,0.92,-1.12
25.00,-1.73,0.90,-1.13
25.00,-1.70,0.88,-1.14
25.00,-1.68,0.87,-1.15
25.01,-1.66,0.87,-1.17
25.01,-1.65,0.88,-1.19
25.01,-1.65,0.90,-1.21
25.01,-1.65,0.93,-1.23
25.02,-1.65,0.96,-1.25
25.02,-1.66,1.01,-1.28
25.02,-1.67,1.05,-1.30
25.02,-1.69,1.09,-1.31
25.03,-1.72,1.12,-1.33
25.03,-1.75,1.14,-1.35
25.03,-1.79,1.17,-1.36
25.03,-1.83,1.19,-1.36
25.04,-1.88,1.20,-1.35
25.04,-1.93,1.21,-1.33
25.04,-1.98,1.21,-1.31
25.04,-2.04,1.22,-1.30
25.05,-2.10,1.24,-1.30
25.05,-2.16,1.25,-1.31
25.05,-2.21,1.25,-1.31
25.05,-2.25,1.23,-1.31
25.05,-2.27,1.19,-1.32
25.06,-2.29,1.14,-1.34
25.06,-2.29,1.08,-1.36
25.06,-2.28,1.02,-1.38
25.06,-2.27,0.95,-1.41
25.07,-2.25,0.88,-1.43
25.07,-2.22,0.81,-1.45
25.07,-2.19,0.73,-1.46
25.07,-2.16,0.65,-1.46
25.08,-2.12,0.58,-1.44
25.08,-2.07,0.51,-1.41
25.08,-2.02,0.46,-1.36
25.08,-1.97,0.41,-1.29
25.09,-1.92,0.36,-1.21
25.09,-1.87,0.31,-1.11
25.09,-1.81,0.26,-1.00
25.09,-1.75,0.24,-0.88
25.10,-1.69,0.22,-0.77
25.10,-1.62,0.22,-0.65
25.10,-1.55,0.23,-0.55
25.10,-1.48,0.24,-0.45
25.10,-1.41,0.24,-0.36
25.11,-1.34,0.23,-0.27
25.11,-1.28,0.22,-0.21
25.11,-1.22,0.20,-0.15
25.11,-1.16,0.20,-0.12
25.12,-1.12,0.21,-0.11
25.12,-1.09,0.23,-0.12
25.12,-1.06,0.25,-0.16
25.12,-1.05,0.27,-0.22
25.13,-1.04,0.27,-0.29
25.13,-1.04,0.28,-0.36
25.13,-1.04,0.29,-0.43
25.13,-1.04,0.28,-0.49
25.14,-1.05,0.27,-0.54
25.14,-1.06,0.26,-0.56
25.14,-1.06,0.27,-0.58
25.14,-1.06,0.28,-0.59
25.15,-1.05,0.30,-0.59
25.15,-1.05,0.32,-0.60
25.15,-1.05,0.36,-0.61
25.15,-1.05,0.42,-0.61
25.15,-1.05,0.48,-0.60
25.16,-1.04,0.56,-0.59
25.16,-1.02,0.64,-0.59
25.16,-1.00,0.73,-0.60
25.16,-0.98,0.82,-0.61
25.17,-0.95,0.91,-0.63
25.17,-0.93,0.98,-0.65
25.17,-0.92,1.05,-0.66
25.17,-0.91,1.10,-0.68
25.18,-0.90,1.14,-0.68
25.18,-0.90,1.17,-0.69
25.18,-0.89,1.19,-0.69
25.18,-0.88,1.20,-0.69
25.19,-0.88,1.20,-0.69
25.19,-0.87,1.21,-0.69
25.19,-0.87,1.22,-0.69
25.19,-0.87,1.22,-0.69
25.19,-0.88,1.22,-0.70
25.20,-0.88,1.22,-0.69
25.20,-0.89,1.22,-0.69
25.20,-0.91,1.22,-0.69
25.20,-0.92,1.22,-0.69
25.21,-0.94,1.22,-0.69
25.21,-0.96,1.22,-0.69
25.21,-0.97,1.20,-0.69
25.21,-0.99,1.18,-0.68
25.22,-1.00,1.15,-0.67
25.22,-1.00,1.12,-0.66
25.22,-1.01,1.07,-0.65
25.22,-1.01,1.02,-0.63
25.23,-1.01,0.96,-0.61
25.23,-1.00,0.90,-0.59
25.23,-0.99,0.84,-0.57
25.23,-0.98,0.78,-0.54
25.24,-0.96,0.73,-0.52
25.24,-0.94,0.69,-0.49
25.24,-0.92,0.64,-0.46
25.24,-0.89,0.60,-0.43
25.24,-0.86,0.56,-0.40
25.25,-0.83,0.52,-0.36
25.25,-0.79,0.48,-0.33
25.25,-0.75,0.44,-0.30
25.25,-0.70,0.41,-0.27
25.26,-0.66,0.37,-0.25
25.26,-0.61,0.34,-0.23
25.26,-0.57,0.30,-0.22
25.26,-0.52,0.27,-0.21
25.27,-0.48,0.23,-0.20
25.27,-0.43,0.20,-0.19
25.27,-0.38,0.16,-0.18
25.27,-0.33,0.13,-0.18
25.28,-0.29,0.10,-0.17
25.28,-0.24,0.07,-0.16
25.28,-0.19,0.05,-0.15
25.28,-0.14,0.03,-0.14
25.29,-0.10,0.01,-0.13
25.29,-0.05,0.00,-0.13
25.29,-0.01,-0.01,-0.12
25.29,0.03,-0.02,-0.12
25.29,0.06,-0.02,-0.11
25.30,0.09,-0.02,-0.10
25.30,0.13,-0.02,-0.09
25.30,0.15,-0.02,-0.07
25.30,0.18,-0.01,-0.06
25.31,0.21,0.00,-0.05
25.31,0.23,0.01,-0.03
25.31,0.25,0.03,-0.01
25.31,0.27,0.05,0.01
25.32,0.28,0.07,0.03
25.32,0.30,0.09,0.06
25.32,0.31,0.11,0.09
25.32,0.32,0.13,0.12
25.33,0.34,0.15,0.15
25.33,0.35,0.18,0.18
25.33,0.36,0.20,0.21
25.33,0.36,0.22,0.24
25.34,0.37,0.23,0.26
25.34,0.38,0.24,0.30
25.34,0.39,0.26,0.33
25.34,0.40,0.27,0.37
25.34,0.40,0.28,0.40
25.35,0.41,0.29,0.43
25.35,0.42,0.30,0.46
25.35,0.42,0.30,0.49
25.35,0.43,0.31,0.52
25.36,0.43,0.31,0.55
25.36,0.43,0.31,0.57
25.36,0.43,0.31,0.60
25.36,0.43,0.31,0.62
25.37,0.43,0.30,0.64
25.37,0.43,0.29,0.66
25.37,0.43,0.28,0.68
25.37,0.44,0.27,0.70
25.38,0.44,0.26,0.72
25.38,0.44,0.24,0.74
25.38,0.44,0.23,0.75
25.38,0.44,0.21,0.77
25.38,0.45,0.19,0.78
25.39,0.45,0.17,0.79
25.39,0.46,0.15,0.80
25.39,0.46,0.13,0.82
25.39,0.47,0.10,0.83
25.40,0.48,0.07,0.84
25.40,0.49,0.04,0.85
25.40,0.50,0.01,0.86
25.40,0.51,-0.01,0.86
25.41,0.51,-0.03,0.86
25.41,0.52,-0.05,0.87
25.41,0.52,-0.07,0.87
25.41,0.52,-0.08,0.87
25.42,0.52,-0.09,0.87
25.42,0.52,-0.09,0.86
25.42,0.51,-0.09,0.86
25.42,0.50,-0.09,0.85
25.43,0.49,-0.08,0.84
25.43,0.48,-0.07,0.83
25.43,0.47,-0.06,0.81
25.43,0.46,-0.04,0.79
25.43,0.44,-0.02,0.76
25.44,0.43,0.00,0.73
25.44,0.41,0.02,0.70
25.44,0.39,0.04,0.66
25.44,0.38,0.07,0.62
25.45,0.36,0.09,0.57
25.45,0.35,0.12,0.53
25.45,0.34,0.15,0.48
25.45,0.32,0.18,0.42
25.46,0.31,0.21,0.37
25.46,0.29,0.25,0.32
25.46,0.27,0.28,0.27
25.46,0.25,0.32,0.23
25.47,0.22,0.34,0.19
25.47,0.19,0.36,0.15
25.47,0.16,0.36,0.12
25.47,0.13,0.36,0.09
25.48,0.10,0.34,0.06
25.48,0.07,0.32,0.04
25.48,0.04,0.30,0.03
25.48,0.00,0.27,0.01
25.48,-0.02,0.25,0.00
25.49,-0.05,0.23,0.00
25.49,-0.08,0.22,-0.01
25.49,-0.10,0.21,-0.01
25.49,-0.13,0.20,-0.01
25.50,-0.15,0.19,0.00
25.50,-0.16,0.18,0.00
25.50,-0.17,0.18,0.01
25.50,-0.19,0.17,0.02
25.51,-0.19,0.17,0.03
25.51,-0.20,0.17,0.04
25.51,-0.20,0.18,0.05
25.51,-0.20,0.18,0.06
25.52,-0.20,0.18,0.08
25.52,-0.19,0.18,0.09
25.52,-0.19,0.18,0.10
25.52,-0.18,0.18,0.11
25.53,-0.16,0.18,0.13
25.53,-0.15,0.17,0.14
25.53,-0.14,0.16,0.16
25.53,-0.12,0.15,0.19
25.53,-0.11,0.15,0.21
25.54,-0.09,0.14,0.23
25.54,-0.07,0.12,0.25
25.54,-0.04,0.11,0.28
25.54,-0.02,0.10,0.30
25.55,0.01,0.09,0.32
25.55,0.04,0.08,0.34
25.55,0.07,0.08,0.36
25.55,0.10,0.09,0.39
25.56,0.13,0.11,0.41
25.56,0.16,0.14,0.43
25.56,0.20,0.18,0.46
25.56,0.23,0.22,0.48
25.57,0.26,0.28,0.50
25.57,0.30,0.34,0.52
25.57,0.34,0.41,0.53
25.57,0.38,0.48,0.54
25.58,0.42,0.56,0.55
25.58,0.46,0.64,0.55
25.58,0.51,0.72,0.55
25.58,0.56,0.80,0.55
25.58,0.60,0.88,0.54
25.59,0.65,0.94,0.54
25.59,0.69,1.00,0.53
25.59,0.73,1.04,0.52
25.59,0.77,1.05,0.50
25.60,0.80,1.06,0.48
25.60,0.82,1.05,0.46
25.60,0.84,1.02,0.44
25.60,0.86,0.98,0.41
25.61,0.86,0.92,0.37
25.61,0.86,0.84,0.34
25.61,0.85,0.75,0.32
25.61,0.82,0.64,0.29
25.62,0.78,0.54,0.27
25.62,0.72,0.44,0.24
25.62,0.66,0.35,0.22
25.62,0.58,0.28,0.19
25.62,0.50,0.23,0.16
25.63,0.41,0.21,0.13
25.63,0.33,0.22,0.09
25.63,0.25,0.26,0.05
25.63,0.17,0.33,0.01
25.64,0.12,0.40,-0.03
25.64,0.07,0.47,-0.07
25.64,0.02,0.52,-0.10
25.64,-0.01,0.56,-0.13
25.65,-0.03,0.57,-0.15
25.65,-0.03,0.55,-0.17
25.65,-0.04,0.52,-0.17
25.65,-0.03,0.45,-0.16
25.66,-0.01,0.37,-0.14
25.66,0.01,0.26,-0.12
25.66,0.03,0.14,-0.10
25.66,0.06,0.02,-0.07
25.67,0.10,-0.11,-0.05
25.67,0.14,-0.23,-0.02
25.67,0.17,-0.34,0.01
25.67,0.21,-0.45,0.03
25.67,0.25,-0.54,0.05
25.68,0.31,-0.61,0.07
25.68,0.37,-0.66,0.09
25.68,0.43,-0.70,0.11
25.68,0.49,-0.72,0.14
25.69,0.56,-0.72,0.17
25.69,0.61,-0.71,0.21
25.69,0.66,-0.70,0.26
25.69,0.69,-0.67,0.33
25.70,0.70,-0.65,0.42
25.70,0.70,-0.62,0.53
25.70,0.67,-0.59,0.65
25.70,0.62,-0.57,0.77
25.71,0.56,-0.56,0.90
25.71,0.50,-0.54,1.03
25.71,0.42,-0.53,1.14
25.71,0.35,-0.51,1.24
25.72,0.27,-0.49,1.32
25.72,0.20,-0.45,1.39
25.72,0.14,-0.40,1.44
25.72,0.09,-0.35,1.47
25.72,0.04,-0.29,1.49
25.73,0.02,-0.22,1.50
25.73,0.01,-0.15,1.50
25.73,0.02,-0.12,1.51
25.73,0.04,-0.12,1.51
25.74,0.08,-0.14,1.52
25.74,0.13,-0.14,1.52
25.74,0.18,-0.14,1.52
25.74,0.22,-0.16,1.50
25.75,0.26,-0.19,1.47
25.75,0.28,-0.23,1.42
25.75,0.30,-0.28,1.36
25.75,0.32,-0.32,1.30
25.76,0.33,-0.35,1.24
25.76,0.34,-0.38,1.18
25.76,0.36,-0.41,1.11
25.76,0.37,-0.43,1.04
25.77,0.38,-0.44,0.97
25.77,0.40,-0.44,0.90
25.77,0.41,-0.44,0.83
25.77,0.42,-0.50,0.76
25.77,0.44,-0.57,0.71
25.78,0.46,-0.62,0.65
25.78,0.49,-0.68,0.59
25.78,0.52,-0.74,0.52
25.78,0.56,-0.79,0.46
25.79,0.60,-0.84,0.40
25.79,0.64,-0.89,0.33
25.79,0.68,-0.95,0.28
25.79,0.73,-1.02,0.22
25.80,0.77,-1.07,0.16
25.80,0.80,-1.10,0.11
25.80,0.84,-1.10,0.07
25.80,0.88,-1.08,0.03
25.81,0.91,-1.04,0.00
25.81,0.94,-1.00,-0.03
25.81,0.96,-0.96,-0.05
25.81,0.98,-0.93,-0.06
25.81,0.99,-0.92,-0.06
25.82,0.98,-0.92,-0.05
25.82,0.98,-0.94,-0.04
25.82,0.96,-0.97,-0.01
25.82,0.95,-1.01,0.01
25.83,0.92,-1.06,0.05
25.83,0.90,-1.11,0.09
25.83,0.87,-1.16,0.14
25.83,0.84,-1.21,0.20
25.84,0.81,-1.25,0.26
25.84,0.79,-1.29,0.31
25.84,0.76,-1.32,0.37
25.84,0.74,-1.34,0.42
25.85,0.72,-1.35,0.48
25.85,0.70,-1.35,0.53
25.85,0.69,-1.35,0.59
25.85,0.68,-1.36,0.63
25.86,0.67,-1.36,0.67
25.86,0.66,-1.36,0.71
25.86,0.66,-1.35,0.74
25.86,0.66,-1.34,0.77
25.86,0.66,-1.34,0.79
25.87,0.65,-1.34,0.81
25.87,0.64,-1.35,0.83
25.87,0.63,-1.37,0.84
25.87,0.62,-1.38,0.84
25.88,0.63,-1.38,0.83
25.88,0.62,-1.38,0.82
25.88,0.61,-1.38,0.80
25.88,0.61,-1.38,0.78
25.89,0.60,-1.38,0.75
25.89,0.58,-1.38,0.72
25.89,0.56,-1.37,0.69
25.89,0.54,-1.35,0.67
25.90,0.52,-1.32,0.64
25.90,0.49,-1.28,0.62
25.90,0.47,-1.24,0.60
25.90,0.44,-1.20,0.58
25.91,0.42,-1.16,0.56
25.91,0.40,-1.12,0.54
25.91,0.38,-1.09,0.52
25.91,0.36,-1.06,0.50
25.91,0.34,-1.03,0.47
25.92,0.33,-1.01,0.45
25.92,0.33,-0.99,0.42
25.92,0.33,-0.98,0.40
25.92,0.34,-0.96,0.37
25.93,0.35,-0.94,0.35
25.93,0.36,-0.92,0.33
25.93,0.39,-0.91,0.31
25.93,0.42,-0.89,0.29
25.94,0.46,-0.87,0.27
25.94,0.50,-0.85,0.25
25.94,0.55,-0.83,0.24
25.94,0.61,-0.81,0.22
25.95,0.66,-0.80,0.21
25.95,0.71,-0.78,0.20
25.95,0.77,-0.77,0.19
25.95,0.82,-0.76,0.18
25.96,0.87,-0.74,0.18
25.96,0.91,-0.74,0.18
25.96,0.96,-0.73,0.17
25.96,1.00,-0.73,0.17
25.96,1.03,-0.72,0.17
25.97,1.07,-0.71,0.17
25.97,1.10,-0.70,0.17
25.97,1.12,-0.69,0.17
25.97,1.15,-0.68,0.17
25.98,1.16,-0.67,0.17
25.98,1.18,-0.66,0.18
25.98,1.19,-0.64,0.18
25.98,1.20,-0.63,0.18
25.99,1.21,-0.61,0.19
25.99,1.21,-0.60,0.19
25.99,1.22,-0.58,0.19
25.99,1.22,-0.56,0.20
26.00,1.22,-0.54,0.20
26.00,1.22,-0.52,0.19
26.00,1.21,-0.51,0.19
26.00,1.21,-0.49,0.18
26.01,1.20,-0.47,0.17
26.01,1.20,-0.45,0.17
26.01,1.19,-0.44,0.16
26.01,1.19,-0.43,0.15
26.01,1.18,-0.42,0.14
26.02,1.18,-0.40,0.12
26.02,1.18,-0.38,0.11
26.02,1.17,-0.36,0.10
26.02,1.17,-0.35,0.09
26.03,1.16,-0.34,0.08
26.03,1.16,-0.32,0.08
26.03,1.15,-0.30,0.07
26.03,1.14,-0.29,0.07
26.04,1.14,-0.27,0.06
26.04,1.13,-0.26,0.07
26.04,1.11,-0.25,0.07
26.04,1.10,-0.24,0.07
26.05,1.10,-0.23,0.07
26.05,1.09,-0.23,0.08
26.05,1.07,-0.22,0.08
26.05,1.06,-0.22,0.09
26.05,1.05,-0.21,0.10
26.06,1.04,-0.22,0.10
26.06,1.02,-0.23,0.11
26.06,1.01,-0.23,0.13
26.06,1.00,-0.24,0.14
26.07,0.98,-0.25,0.14
26.07,0.96,-0.27,0.15
26.07,0.95,-0.28,0.15
26.07,0.94,-0.30,0.16
26.08,0.92,-0.33,0.16
26.08,0.90,-0.36,0.17
26.08,0.87,-0.40,0.18
26.08,0.85,-0.44,0.18
26.09,0.82,-0.49,0.18
26.09,0.79,-0.55,0.18
26.09,0.76,-0.60,0.19
26.09,0.73,-0.62,0.20
26.10,0.70,-0.64,0.21
26.10,0.68,-0.66,0.21
26.10,0.66,-0.68,0.21
26.10,0.63,-0.71,0.21
26.10,0.61,-0.74,0.21
26.11,0.58,-0.77,0.20
26.11,0.55,-0.80,0.20
26.11,0.52,-0.82,0.19
26.11,0.50,-0.84,0.17
26.12,0.48,-0.85,0.16
26.12,0.45,-0.86,0.14
26.12,0.42,-0.87,0.12
26.12,0.40,-0.87,0.10
26.13,0.37,-0.87,0.08
26.13,0.34,-0.86,0.05
26.13,0.31,-0.84,0.03
26.13,0.28,-0.82,0.00
26.14,0.25,-0.80,-0.02
26.14,0.22,-0.76,-0.05
26.14,0.19,-0.73,-0.08
26.14,0.16,-0.70,-0.10
26.15,0.14,-0.67,-0.11
26.15,0.11,-0.64,-0.12
26.15,0.09,-0.62,-0.12
26.15,0.07,-0.59,-0.13
26.15,0.05,-0.56,-0.13
26.16,0.04,-0.54,-0.13
26.16,0.02,-0.51,-0.12
26.16,0.01,-0.49,-0.12
26.16,-0.01,-0.46,-0.11
26.17,-0.02,-0.44,-0.11
26.17,-0.03,-0.43,-0.10
26.17,-0.05,-0.42,-0.10
26.17,-0.06,-0.42,-0.10
26.18,-0.08,-0.41,-0.10
26.18,-0.09,-0.41,-0.10
26.18,-0.12,-0.41,-0.10
26.18,-0.14,-0.40,-0.11
26.19,-0.17,-0.40,-0.11
26.19,-0.21,-0.39,-0.12
26.19,-0.25,-0.39,-0.13
26.19,-0.29,-0.39,-0.14
26.20,-0.35,-0.38,-0.15
26.20,-0.40,-0.38,-0.16
26.20,-0.46,-0.37,-0.17
26.20,-0.52,-0.36,-0.19
26.20,-0.58,-0.34,-0.20
26.21,-0.64,-0.32,-0.22
26.21,-0.70,-0.31,-0.23
26.21,-0.75,-0.28,-0.25
26.21,-0.81,-0.25,-0.27
26.22,-0.87,-0.22,-0.29
26.22,-0.93,-0.18,-0.32
26.22,-0.98,-0.14,-0.34
26.22,-1.04,-0.09,-0.37
26.23,-1.10,-0.02,-0.40
26.23,-1.16,0.04,-0.42
26.23,-1.22,0.10,-0.45
26.23,-1.29,0.17,-0.48
26.24,-1.35,0.23,-0.51
26.24,-1.42,0.29,-0.53
26.24,-1.48,0.35,-0.56
26.24,-1.54,0.41,-0.59
26.24,-1.59,0.46,-0.63
26.25,-1.64,0.51,-0.66
26.25,-1.69,0.57,-0.69
26.25,-1.73,0.61,-0.73
26.25,-1.77,0.65,-0.76
26.26,-1.80,0.69,-0.78
26.26,-1.84,0.73,-0.80
26.26,-1.87,0.77,-0.81
26.26,-1.90,0.79,-0.82
26.27,-1.92,0.81,-0.83
26.27,-1.94,0.83,-0.84
26.27,-1.96,0.85,-0.84
26.27,-1.97,0.87,-0.85
26.28,-1.99,0.90,-0.86
26.28,-1.99,0.92,-0.87
26.28,-2.00,0.94,-0.89
26.28,-1.99,0.97,-0.91
26.29,-1.99,0.99,-0.93
26.29,-1.98,1.01,-0.96
26.29,-1.97,1.04,-0.99
26.29,-1.96,1.07,-1.03
26.29,-1.95,1.10,-1.07
26.30,-1.95,1.13,-1.12
26.30,-1.95,1.18,-1.17
26.30,-1.97,1.23,-1.22
26.30,-1.98,1.29,-1.28
26.31,-2.00,1.35,-1.34
26.31,-2.02,1.41,-1.40
26.31,-2.03,1.45,-1.46
26.31,-2.04,1.49,-1.52
26.32,-2.04,1.51,-1.57
26.32,-2.04,1.52,-1.61
26.32,-2.04,1.54,-1.65
26.32,-2.02,1.54,-1.67
26.33,-2.01,1.54,-1.69
26.33,-1.99,1.53,-1.70
26.33,-1.97,1.51,-1.72
26.33,-1.95,1.48,-1.74
26.34,-1.92,1.44,-1.75
26.34,-1.88,1.39,-1.75
26.34,-1.84,1.32,-1.75
26.34,-1.81,1.24,-1.77
26.34,-1.77,1.16,-1.77
26.35,-1.74,1.07,-1.78
26.35,-1.70,0.98,-1.79
26.35,-1.67,0.87,-1.78
26.35,-1.65,0.76,-1.76
26.36,-1.62,0.63,-1.73
26.36,-1.59,0.52,-1.69
26.36,-1.56,0.42,-1.63
26.36,-1.53,0.33,-1.55
26.37,-1.50,0.25,-1.47
26.37,-1.47,0.18,-1.36
26.37,-1.43,0.14,-1.23
26.37,-1.39,0.12,-1.09
26.38,-1.35,0.13,-0.95
26.38,-1.30,0.15,-0.81
26.38,-1.26,0.20,-0.68
26.38,-1.21,0.25,-0.56
26.39,-1.16,0.32,-0.45
26.39,-1.12,0.40,-0.36
26.39,-1.07,0.49,-0.29
26.39,-1.03,0.58,-0.24
26.39,-1.00,0.66,-0.20
26.40,-0.96,0.72,-0.17
26.40,-0.94,0.77,-0.15
26.40,-0.92,0.81,-0.14
26.40,-0.90,0.84,-0.14
26.41,-0.89,0.85,-0.15
26.41,-0.89,0.86,-0.18
26.41,-0.89,0.84,-0.21
26.41,-0.90,0.82,-0.24
26.42,-0.91,0.77,-0.27
26.42,-0.93,0.72,-0.30
26.42,-0.94,0.66,-0.32
26.42,-0.97,0.59,-0.34
26.43,-1.00,0.50,-0.36
26.43,-1.02,0.42,-0.37
26.43,-1.06,0.34,-0.38
26.43,-1.09,0.28,-0.39
26.44,-1.12,0.23,-0.39
26.44,-1.13,0.21,-0.39
26.44,-1.14,0.21,-0.40
26.44,-1.15,0.22,-0.40
26.44,-1.14,0.24,-0.42
26.45,-1.14,0.27,-0.42
26.45,-1.14,0.32,-0.43
26.45,-1.14,0.36,-0.44
26.45,-1.14,0.40,-0.45
26.46,-1.13,0.45,-0.46
26.46,-1.11,0.51,-0.48
26.46,-1.10,0.57,-0.50
26.46,-1.07,0.63,-0.51
26.47,-1.04,0.70,-0.52
26.47,-1.01,0.76,-0.52
26.47,-0.98,0.81,-0.53
26.47,-0.94,0.87,-0.53
26.48,-0.90,0.93,-0.54
26.48,-0.88,0.98,-0.54
26.48,-0.85,1.02,-0.54
26.48,-0.82,1.05,-0.53
26.48,-0.80,1.08,-0.53
26.49,-0.78,1.09,-0.52
26.49,-0.77,1.11,-0.52
26.49,-0.76,1.10,-0.51
26.49,-0.75,1.09,-0.51
26.50,-0.74,1.07,-0.50
26.50,-0.73,1.05,-0.49
26.50,-0.73,1.03,-0.48
26.50,-0.72,1.00,-0.47
26.51,-0.72,0.98,-0.45
26.51,-0.71,0.94,-0.43
26.51,-0.70,0.91,-0.41
26.51,-0.68,0.87,-0.39
26.52,-0.67,0.84,-0.38
26.52,-0.65,0.80,-0.36
26.52,-0.64,0.76,-0.35
26.52,-0.61,0.73,-0.33
26.53,-0.59,0.69,-0.32
26.53,-0.56,0.65,-0.30
26.53,-0.54,0.62,-0.28
26.53,-0.51,0.59,-0.26
26.53,-0.47,0.56,-0.24
26.54,-0.43,0.53,-0.22
26.54,-0.39,0.51,-0.20
26.54,-0.35,0.49,-0.18
26.54,-0.30,0.46,-0.16
26.55,-0.25,0.45,-0.14
26.55,-0.21,0.42,-0.12
26.55,-0.16,0.40,-0.11
26.55,-0.11,0.39,-0.10
26.56,-0.07,0.37,-0.08
26.56,-0.02,0.35,-0.07
26.56,0.02,0.34,-0.06
26.56,0.06,0.33,-0.04
26.57,0.09,0.32,-0.03
26.57,0.13,0.31,-0.02
26.57,0.16,0.30,-0.01
26.57,0.19,0.30,0.01
26.58,0.21,0.29,0.02
26.58,0.24,0.29,0.04
26.58,0.26,0.29,0.06
26.58,0.28,0.29,0.08
26.58,0.29,0.30,0.10
26.59,0.30,0.32,0.13
26.59,0.31,0.34,0.15
26.59,0.32,0.35,0.18
26.59,0.32,0.37,0.21
26.60,0.32,0.39,0.23
26.60,0.32,0.41,0.26
26.60,0.32,0.42,0.28
26.60,0.31,0.44,0.31
26.61,0.31,0.45,0.33
26.61,0.31,0.45,0.36
26.61,0.31,0.45,0.38
26.61,0.31,0.45,0.41
26.62,0.31,0.45,0.43
26.62,0.31,0.45,0.46
26.62,0.32,0.44,0.48
26.62,0.32,0.44,0.50
26.63,0.33,0.43,0.52
26.63,0.34,0.42,0.54
26.63,0.36,0.42,0.56
26.63,0.37,0.41,0.58
26.63,0.38,0.40,0.60
26.64,0.39,0.38,0.61
26.64,0.40,0.37,0.63
26.64,0.41,0.35,0.64
26.64,0.42,0.34,0.66
26.65,0.42,0.32,0.67
26.65,0.43,0.30,0.69
26.65,0.44,0.28,0.70
26.65,0.45,0.27,0.71
26.66,0.46,0.25,0.73
26.66,0.47,0.23,0.74
26.66,0.49,0.22,0.75
26.66,0.50,0.21,0.76
26.67,0.51,0.19,0.77
26.67,0.53,0.18,0.78
26.67,0.54,0.17,0.79
26.67,0.55,0.17,0.80
26.67,0.57,0.17,0.82
26.68,0.58,0.16,0.83
26.68,0.59,0.17,0.85
26.68,0.60,0.17,0.86
26.68,0.60,0.18,0.87
26.69,0.61,0.18,0.87
26.69,0.62,0.20,0.88
26.69,0.62,0.21,0.88
26.69,0.62,0.23,0.88
26.70,0.62,0.25,0.87
26.70,0.62,0.28,0.86
26.70,0.61,0.30,0.85
26.70,0.60,0.32,0.83
26.71,0.60,0.34,0.81
26.71,0.60,0.35,0.79
26.71,0.59,0.36,0.76
26.71,0.58,0.38,0.74
26.72,0.57,0.40,0.71
26.72,0.56,0.41,0.68
26.72,0.55,0.42,0.65
26.72,0.54,0.43,0.62
26.72,0.52,0.43,0.59
26.73,0.50,0.43,0.55
26.73,0.49,0.43,0.51
26.73,0.47,0.42,0.47
26.73,0.45,0.40,0.43
26.74,0.42,0.38,0.40
26.74,0.40,0.36,0.36
26.74,0.37,0.34,0.33
26.74,0.34,0.31,0.29
26.75,0.30,0.29,0.26
26.75,0.27,0.26,0.22
26.75,0.23,0.24,0.20
26.75,0.19,0.21,0.17
26.76,0.14,0.19,0.14
26.76,0.10,0.16,0.12
26.76,0.05,0.14,0.10
26.76,0.00,0.12,0.08
26.77,-0.06,0.09,0.07
26.77,-0.11,0.07,0.06
26.77,-0.17,0.06,0.05
26.77,-0.24,0.08,0.04
26.77,-0.30,0.09,0.04
26.78,-0.35,0.09,0.05
26.78,-0.40,0.08,0.05
26.78,-0.43,0.07,0.06
26.78,-0.46,0.05,0.08
26.79,-0.47,0.03,0.09
26.79,-0.48,0.01,0.10
26.79,-0.48,0.00,0.11
26.79,-0.47,-0.01,0.12
26.80,-0.46,-0.01,0.13
26.80,-0.45,-0.01,0.14
26.80,-0.43,0.00,0.15
26.80,-0.41,0.02,0.16
26.81,-0.39,0.04,0.16
26.81,-0.36,0.06,0.17
26.81,-0.34,0.09,0.18
26.81,-0.31,0.13,0.19
26.82,-0.29,0.16,0.20
26.82,-0.27,0.19,0.21
26.82,-0.24,0.21,0.21
26.82,-0.23,0.23,0.21
26.82,-0.21,0.25,0.20
26.83,-0.20,0.27,0.20
26.83,-0.19,0.29,0.20
26.83,-0.17,0.31,0.20
26.83,-0.15,0.33,0.21
26.84,-0.13,0.35,0.21
26.84,-0.11,0.37,0.21
26.84,-0.09,0.40,0.22
26.84,-0.06,0.44,0.22
26.85,-0.03,0.47,0.22
26.85,0.00,0.50,0.22
26.85,0.03,0.54,0.21
26.85,0.07,0.57,0.20
26.86,0.10,0.60,0.19
26.86,0.14,0.62,0.18
26.86,0.17,0.64,0.16
26.86,0.21,0.65,0.15
26.87,0.24,0.66,0.13
26.87,0.26,0.66,0.11
26.87,0.28,0.66,0.10
26.87,0.29,0.65,0.07
26.87,0.29,0.64,0.04
26.88,0.28,0.62,0.01
26.88,0.27,0.61,-0.02
26.88,0.25,0.61,-0.07
26.88,0.24,0.60,-0.11
26.89,0.23,0.60,-0.16
26.89,0.22,0.60,-0.21
26.89,0.22,0.59,-0.26
26.89,0.22,0.59,-0.30
26.90,0.22,0.58,-0.33
26.90,0.24,0.57,-0.35
26.90,0.25,0.55,-0.37
26.90,0.27,0.53,-0.37
26.91,0.29,0.50,-0.36
26.91,0.31,0.47,-0.34
26.91,0.34,0.43,-0.32
26.91,0.36,0.39,-0.29
26.91,0.38,0.34,-0.27
26.92,0.39,0.29,-0.25
26.92,0.41,0.23,-0.23
26.92,0.42,0.15,-0.21
26.92,0.43,0.08,-0.19
26.93,0.43,-0.01,-0.17
26.93,0.42,-0.10,-0.14
26.93,0.41,-0.19,-0.11
26.93,0.40,-0.29,-0.08
26.94,0.38,-0.38,-0.06
26.94,0.37,-0.47,-0.02
26.94,0.35,-0.54,0.02
26.94,0.34,-0.61,0.05
26.95,0.32,-0.68,0.09
26.95,0.31,-0.74,0.13
26.95,0.30,-0.78,0.17
26.95,0.29,-0.81,0.22
26.96,0.28,-0.83,0.28
26.96,0.26,-0.83,0.34
26.96,0.24,-0.82,0.41
26.96,0.21,-0.80,0.49
26.96,0.17,-0.78,0.58
26.97,0.14,-0.74,0.68
26.97,0.11,-0.69,0.77
26.97,0.07,-0.63,0.86
26.97,0.04,-0.58,0.94
26.98,0.01,-0.51,1.00
26.98,-0.02,-0.45,1.05
26.98,-0.04,-0.37,1.08
26.98,-0.05,-0.28,1.10
26.99,-0.06,-0.20,1.11
26.99,-0.06,-0.10,1.11
26.99,-0.04,-0.01,1.10
26.99,-0.02,0.09,1.10
27.00,0.02,0.18,1.10
27.00,0.06,0.27,1.09
27.00,0.10,0.36,1.07
27.00,0.14,0.45,1.05
27.01,0.18,0.53,1.04
27.01,0.22,0.60,1.01
27.01,0.24,0.65,0.99
27.01,0.26,0.66,0.97
27.01,0.27,0.64,0.95
27.02,0.28,0.58,0.93
27.02,0.28,0.50,0.89
27.02,0.29,0.38,0.85
27.02,0.29,0.23,0.81
27.03,0.29,0.06,0.76
27.03,0.30,-0.12,0.71
27.03,0.31,-0.27,0.65
27.03,0.33,-0.38,0.60
27.04,0.36,-0.46,0.54
27.04,0.39,-0.53,0.49
27.04,0.44,-0.59,0.45
27.04,0.48,-0.65,0.39
27.05,0.53,-0.72,0.34
27.05,0.58,-0.78,0.28
27.05,0.63,-0.84,0.21
27.05,0.68,-0.89,0.14
27.06,0.74,-0.92,0.07
27.06,0.79,-0.94,0.01
27.06,0.84,-0.97,-0.04
27.06,0.88,-0.99,-0.08
27.06,0.91,-1.02,-0.11
27.07,0.93,-1.03,-0.13
27.07,0.95,-1.02,-0.15
27.07,0.96,-1.00,-0.17
27.07,0.97,-0.96,-0.18
27.08,0.97,-0.91,-0.18
27.08,0.97,-0.87,-0.17
27.08,0.96,-0.90,-0.14
27.08,0.94,-0.94,-0.09
27.09,0.93,-0.95,-0.05
27.09,0.91,-0.95,0.00
27.09,0.89,-0.95,0.05
27.09,0.87,-0.97,0.11
27.10,0.86,-0.99,0.17
27.10,0.83,-0.99,0.23
27.10,0.81,-0.99,0.30
27.10,0.79,-0.98,0.37
27.10,0.76,-0.97,0.44
27.11,0.73,-0.96,0.50
27.11,0.70,-0.96,0.56
27.11,0.67,-0.96,0.61
27.11,0.64,-0.96,0.66
27.12,0.60,-0.96,0.71
27.12,0.57,-0.97,0.75
27.12,0.55,-0.98,0.80
27.12,0.52,-0.99,0.83
27.13,0.51,-1.01,0.87
27.13,0.49,-1.03,0.90
27.13,0.48,-1.06,0.92
27.13,0.47,-1.08,0.94
27.14,0.47,-1.11,0.95
27.14,0.47,-1.12,0.96
27.14,0.47,-1.14,0.96
27.14,0.46,-1.14,0.95
27.15,0.47,-1.15,0.93
27.15,0.47,-1.15,0.90
27.15,0.47,-1.16,0.87
27.15,0.46,-1.17,0.84
27.15,0.46,-1.18,0.80
27.16,0.47,-1.20,0.76
27.16,0.46,-1.22,0.73
27.16,0.46,-1.23,0.69
27.16,0.45,-1.25,0.65
27.17,0.44,-1.26,0.62
27.17,0.44,-1.24,0.58
27.17,0.44,-1.22,0.54
27.17,0.44,-1.20,0.51
27.18,0.44,-1.20,0.47
27.18,0.44,-1.20,0.42
27.18,0.44,-1.21,0.39
27.18,0.45,-1.22,0.35
27.19,0.46,-1.22,0.32
27.19,0.47,-1.22,0.28
27.19,0.49,-1.21,0.25
27.19,0.51,-1.21,0.23
27.20,0.53,-1.19,0.21
27.20,0.56,-1.18,0.19
27.20,0.59,-1.16,0.17
27.20,0.63,-1.13,0.16
27.20,0.67,-1.11,0.14
27.21,0.71,-1.09,0.13
27.21,0.75,-1.06,0.12
27.21,0.79,-1.04,0.11
27.21,0.84,-1.02,0.11
27.22,0.88,-1.00,0.10
27.22,0.92,-0.98,0.10
27.22,0.96,-0.97,0.10
27.22,1.00,-0.95,0.10
27.23,1.04,-0.93,0.10
27.23,1.07,-0.92,0.10
27.23,1.11,-0.90,0.11
27.23,1.14,-0.88,0.11
27.24,1.16,-0.87,0.12
27.24,1.18,-0.85,0.13
27.24,1.21,-0.83,0.14
27.24,1.22,-0.81,0.15
27.25,1.23,-0.79,0.16
27.25,1.24,-0.76,0.17
27.25,1.24,-0.74,0.18
27.25,1.24,-0.72,0.19
27.25,1.24,-0.70,0.20
27.26,1.24,-0.67,0.22
27.26,1.23,-0.65,0.23
27.26,1.23,-0.64,0.24
27.26,1.22,-0.62,0.24
27.27,1.21,-0.60,0.25
27.27,1.21,-0.58,0.25
27.27,1.20,-0.55,0.26
27.27,1.20,-0.54,0.26
27.28,1.19,-0.52,0.26
27.28,1.19,-0.49,0.26
27.28,1.19,-0.47,0.26
27.28,1.19,-0.44,0.26
27.29,1.19,-0.42,0.26
27.29,1.19,-0.41,0.26
27.29,1.20,-0.39,0.26
27.29,1.20,-0.38,0.26
27.30,1.21,-0.38,0.26
27.30,1.22,-0.38,0.26
27.30,1.23,-0.38,0.26
27.30,1.24,-0.38,0.26
27.30,1.26,-0.38,0.26
27.31,1.28,-0.38,0.26
27.31,1.29,-0.39,0.27
27.31,1.31,-0.39,0.28
27.31,1.32,-0.40,0.30
27.32,1.34,-0.42,0.31
27.32,1.36,-0.42,0.31
27.32,1.38,-0.43,0.30
27.32,1.40,-0.43,0.30
27.33,1.41,-0.44,0.29
27.33,1.42,-0.44,0.29
27.33,1.43,-0.44,0.29
27.33,1.43,-0.45,0.29
27.34,1.43,-0.46,0.30
27.34,1.42,-0.48,0.30
27.34,1.41,-0.49,0.31
27.34,1.40,-0.51,0.31
27.34,1.38,-0.53,0.32
27.35,1.36,-0.55,0.32
27.35,1.34,-0.58,0.33
27.35,1.32,-0.60,0.33
27.35,1.28,-0.64,0.33
27.36,1.25,-0.67,0.34
27.36,1.21,-0.70,0.34
27.36,1.17,-0.72,0.34
27.36,1.11,-0.75,0.35
27.37,1.06,-0.76,0.35
27.37,1.00,-0.77,0.35
27.37,0.93,-0.77,0.35
27.37,0.87,-0.77,0.35
27.38,0.79,-0.77,0.36
27.38,0.72,-0.78,0.38
27.38,0.66,-0.80,0.39
27.38,0.61,-0.84,0.40
27.39,0.56,-0.87,0.40
27.39,0.52,-0.91,0.41
27.39,0.50,-0.93,0.40
27.39,0.46,-0.92,0.38
27.39,0.42,-0.88,0.35
27.40,0.37,-0.82,0.32
27.40,0.32,-0.76,0.28
27.40,0.26,-0.72,0.24
27.40,0.20,-0.69,0.21
27.41,0.14,-0.67,0.18
27.41,0.08,-0.67,0.16
27.41,0.03,-0.68,0.13
27.41,-0.02,-0.69,0.11
27.42,-0.07,-0.71,0.09
27.42,-0.11,-0.73,0.07
27.42,-0.14,-0.73,0.05
27.42,-0.17,-0.73,0.04
27.43,-0.20,-0.73,0.02
27.43,-0.23,-0.72,0.00
27.43,-0.25,-0.71,-0.02
27.43,-0.27,-0.71,-0.03
27.44,-0.29,-0.70,-0.04
27.44,-0.31,-0.70,-0.04
27.44,-0.33,-0.70,-0.05
27.44,-0.35,-0.70,-0.05
27.44,-0.37,-0.72,-0.05
27.45,-0.39,-0.73,-0.05
27.45,-0.42,-0.73,-0.04
27.45,-0.45,-0.74,-0.04
27.45,-0.49,-0.74,-0.03
27.46,-0.52,-0.74,-0.02
27.46,-0.57,-0.74,-0.01
27.46,-0.61,-0.74,-0.01
27.46,-0.66,-0.73,0.00
27.47,-0.71,-0.71,0.00
27.47,-0.77,-0.70,0.00
27.47,-0.82,-0.68,0.00
27.47,-0.88,-0.66,0.00
27.48,-0.94,-0.63,-0.01
27.48,-1.00,-0.60,-0.02
27.48,-1.06,-0.55,-0.04
27.48,-1.12,-0.50,-0.06
27.49,-1.17,-0.45,-0.07
27.49,-1.23,-0.39,-0.09
27.49,-1.28,-0.33,-0.12
27.49,-1.33,-0.26,-0.13
27.49,-1.37,-0.18,-0.15
27.50,-1.42,-0.11,-0.18
27.50,-1.46,-0.05,-0.20
27.50,-1.50,0.02,-0.22
27.50,-1.55,0.08,-0.25
27.51,-1.60,0.15,-0.28
27.51,-1.65,0.22,-0.31
27.51,-1.70,0.30,-0.34
27.51,-1.76,0.39,-0.38
27.52,-1.81,0.48,-0.42
27.52,-1.85,0.57,-0.46
27.52,-1.88,0.65,-0.51
27.52,-1.91,0.73,-0.55
27.53,-1.92,0.81,-0.59
27.53,-1.93,0.88,-0.62
27.53,-1.94,0.95,-0.65
27.53,-1.94,1.01,-0.68
27.53,-1.94,1.07,-0.71
27.54,-1.94,1.12,-0.74
27.54,-1.93,1.16,-0.77
27.54,-1.93,1.20,-0.81
27.54,-1.92,1.22,-0.84
27.55,-1.90,1.24,-0.88
27.55,-1.88,1.24,-0.92
27.55,-1.86,1.23,-0.96
27.55,-1.83,1.22,-1.01
27.56,-1.81,1.21,-1.06
27.56,-1.79,1.20,-1.12
27.56,-1.77,1.19,-1.18
27.56,-1.75,1.20,-1.23
27.57,-1.74,1.21,-1.29
27.57,-1.74,1.24,-1.35
27.57,-1.74,1.27,-1.41
27.57,-1.75,1.31,-1.46
27.58,-1.78,1.36,-1.51
27.58,-1.82,1.40,-1.55
27.58,-1.86,1.43,-1.59
27.58,-1.89,1.45,-1.62
27.58,-1.92,1.44,-1.65
27.59,-1.94,1.42,-1.66
27.59,-1.96,1.39,-1.68
27.59,-1.98,1.36,-1.68
27.59,-1.99,1.33,-1.67
27.60,-2.01,1.29,-1.65
27.60,-2.02,1.25,-1.63
27.60,-2.03,1.22,-1.61
27.60,-2.04,1.20,-1.61
27.61,-2.05,1.18,-1.61
27.61,-2.05,1.15,-1.62
27.61,-2.04,1.11,-1.62
27.61,-2.02,1.05,-1.62
27.62,-1.99,0.99,-1.63
27.62,-1.96,0.92,-1.64
27.62,-1.92,0.84,-1.64
27.62,-1.88,0.77,-1.65
27.63,-1.84,0.70,-1.66
27.63,-1.79,0.62,-1.66
27.63,-1.75,0.53,-1.65
27.63,-1.71,0.44,-1.63
27.63,-1.67,0.34,-1.59
27.64,-1.62,0.25,-1.54
27.64,-1.58,0.18,-1.48
27.64,-1.54,0.14,-1.41
27.64,-1.49,0.13,-1.33
27.65,-1.45,0.14,-1.23
27.65,-1.41,0.17,-1.13
27.65,-1.36,0.21,-1.03
27.65,-1.32,0.25,-0.93
27.66,-1.27,0.31,-0.84
27.66,-1.23,0.38,-0.74
27.66,-1.19,0.45,-0.65
27.66,-1.15,0.50,-0.57
27.67,-1.11,0.54,-0.50
27.67,-1.08,0.57,-0.44
27.67,-1.05,0.58,-0.40
27.67,-1.03,0.58,-0.38
27.68,-1.01,0.57,-0.36
27.68,-0.99,0.56,-0.36
27.68,-0.99,0.54,-0.37
27.68,-0.98,0.51,-0.38
27.68,-0.97,0.47,-0.39
27.69,-0.97,0.42,-0.41
27.69,-0.97,0.38,-0.43
27.69,-0.97,0.34,-0.46
27.69,-0.97,0.30,-0.50
27.70,-0.98,0.25,-0.55
27.70,-0.99,0.22,-0.61
27.70,-0.99,0.19,-0.67
27.70,-0.99,0.17,-0.73
27.71,-0.99,0.15,-0.77
27.71,-0.98,0.15,-0.80
27.71,-0.97,0.15,-0.81
27.71,-0.96,0.17,-0.81
27.72,-0.94,0.20,-0.81
27.72,-0.93,0.23,-0.80
27.72,-0.93,0.28,-0.78
27.72,-0.92,0.34,-0.76
27.73,-0.92,0.41,-0.74
27.73,-0.92,0.48,-0.72
27.73,-0.93,0.56,-0.71
27.73,-0.94,0.63,-0.70
27.73,-0.94,0.69,-0.69
27.74,-0.95,0.75,-0.69
27.74,-0.95,0.79,-0.67
27.74,-0.96,0.84,-0.66
27.74,-0.96,0.88,-0.65
27.75,-0.96,0.93,-0.64
27.75,-0.97,0.99,-0.62
27.75,-0.97,1.04,-0.61
27.75,-0.97,1.09,-0.60
27.76,-0.96,1.13,-0.58
27.76,-0.96,1.17,-0.57
27.76,-0.96,1.20,-0.56
27.76,-0.95,1.21,-0.54
27.77,-0.94,1.23,-0.53
27.77,-0.94,1.24,-0.51
27.77,-0.93,1.24,-0.48
27.77,-0.91,1.24,-0.46
27.77,-0.90,1.23,-0.43
27.78,-0.89,1.22,-0.40
27.78,-0.87,1.20,-0.38
27.78,-0.84,1.17,-0.35
27.78,-0.82,1.14,-0.33
27.79,-0.79,1.09,-0.30
27.79,-0.76,1.04,-0.28
27.79,-0.72,0.98,-0.26
27.79,-0.68,0.92,-0.24
27.80,-0.65,0.86,-0.23
27.80,-0.60,0.80,-0.21
27.80,-0.56,0.73,-0.20
27.80,-0.51,0.67,-0.18
27.81,-0.47,0.61,-0.17
27.81,-0.42,0.56,-0.15
27.81,-0.37,0.51,-0.14
27.81,-0.32,0.46,-0.13
27.82,-0.27,0.42,-0.11
27.82,-0.22,0.38,-0.10
27.82,-0.17,0.34,-0.09
27.82,-0.12,0.31,-0.07
27.82,-0.07,0.28,-0.06
27.83,-0.02,0.26,-0.05
27.83,0.02,0.24,-0.04
27.83,0.07,0.23,-0.04
27.83,0.11,0.21,-0.03
27.84,0.15,0.20,-0.03
27.84,0.19,0.19,-0.02
27.84,0.23,0.19,-0.02
27.84,0.26,0.19,0.00
27.85,0.29,0.19,0.01
27.85,0.32,0.20,0.03
27.85,0.35,0.21,0.05
27.85,0.37,0.22,0.06
27.86,0.39,0.23,0.09
27.86,0.41,0.25,0.11
27.86,0.42,0.26,0.13
27.86,0.43,0.28,0.16
27.87,0.44,0.30,0.19
27.87,0.45,0.31,0.21
27.87,0.46,0.32,0.24
27.87,0.46,0.33,0.27
27.87,0.47,0.33,0.30
27.88,0.47,0.34,0.33
27.88,0.48,0.33,0.35
27.88,0.48,0.32,0.37
27.88,0.49,0.30,0.40
27.89,0.50,0.29,0.42
27.89,0.50,0.28,0.45
27.89,0.51,0.27,0.47
27.89,0.51,0.26,0.50
27.90,0.52,0.25,0.52
27.90,0.52,0.24,0.54
27.90,0.53,0.23,0.56
27.90,0.53,0.21,0.58
27.91,0.53,0.20,0.61
27.91,0.54,0.18,0.63
27.91,0.54,0.16,0.65
27.91,0.55,0.13,0.67
27.92,0.55,0.11,0.69
27.92,0.56,0.09,0.71
27.92,0.57,0.07,0.73
27.92,0.57,0.06,0.75
27.92,0.58,0.05,0.76
27.93,0.58,0.04,0.78
27.93,0.59,0.03,0.80
27.93,0.60,0.02,0.81
27.93,0.61,0.02,0.82
27.94,0.61,0.01,0.84
27.94,0.62,0.01,0.85
27.94,0.62,0.01,0.85
27.94,0.62,0.01,0.86
27.95,0.61,0.01,0.87
27.95,0.61,0.02,0.87
27.95,0.60,0.03,0.88
27.95,0.59,0.04,0.88
27.96,0.58,0.05,0.88
27.96,0.56,0.07,0.87
27.96,0.55,0.09,0.87
27.96,0.53,0.12,0.86
27.96,0.51,0.15,0.84
27.97,0.48,0.18,0.82
27.97,0.46,0.21,0.79
27.97,0.43,0.23,0.76
27.97,0.41,0.25,0.71
27.98,0.38,0.27,0.67
27.98,0.36,0.28,0.62
27.98,0.33,0.28,0.56
27.98,0.30,0.29,0.50
27.99,0.28,0.31,0.44
27.99,0.25,0.32,0.37
27.99,0.22,0.34,0.31
27.99,0.20,0.36,0.25
28.00,0.16,0.37,0.19
28.00,0.13,0.38,0.14
28.00,0.10,0.38,0.10
28.00,0.06,0.37,0.05
28.01,0.02,0.35,0.01
28.01,-0.03,0.34,-0.03
28.01,-0.10,0.35,-0.06
28.01,-0.16,0.34,-0.10
28.01,-0.22,0.30,-0.13
28.02,-0.28,0.24,-0.16
28.02,-0.33,0.17,-0.18
28.02,-0.37,0.10,-0.19
28.02,-0.42,0.03,-0.19
28.03,-0.45,-0.03,-0.19
28.03,-0.49,-0.09,-0.19
28.03,-0.52,-0.14,-0.19
28.03,-0.54,-0.18,-0.18
28.04,-0.57,-0.22,-0.17
28.04,-0.58,-0.25,-0.15
28.04,-0.59,-0.26,-0.14
28.04,-0.60,-0.27,-0.13
28.05,-0.60,-0.27,-0.12
28.05,-0.59,-0.26,-0.10
28.05,-0.57,-0.24,-0.08
28.05,-0.56,-0.21,-0.06
28.06,-0.53,-0.19,-0.03
28.06,-0.50,-0.17,-0.01
28.06,-0.46,-0.15,0.01
28.06,-0.42,-0.13,0.03
28.06,-0.38,-0.12,0.05
28.07,-0.34,-0.11,0.07
28.07,-0.29,-0.11,0.10
28.07,-0.25,-0.12,0.12
28.07,-0.21,-0.13,0.15
28.08,-0.17,-0.13,0.17
28.08,-0.14,-0.15,0.20
28.08,-0.11,-0.15,0.22
28.08,-0.08,-0.16,0.24
28.09,-0.06,-0.15,0.26
28.09,-0.04,-0.13,0.27
28.09,-0.02,-0.10,0.29
28.09,0.01,-0.06,0.31
28.10,0.03,0.01,0.33
28.10,0.06,0.09,0.36
28.10,0.09,0.18,0.38
28.10,0.14,0.29,0.41
28.11,0.19,0.40,0.43
28.11,0.25,0.52,0.44
28.11,0.31,0.65,0.44
28.11,0.38,0.77,0.43
28.11,0.45,0.89,0.42
28.12,0.52,0.99,0.41
28.12,0.58,1.08,0.40
28.12,0.65,1.13,0.38
28.12,0.71,1.17,0.36
28.13,0.76,1.18,0.34
28.13,0.81,1.17,0.32
28.13,0.84,1.13,0.30
28.13,0.86,1.07,0.28
28.14,0.87,1.00,0.26
28.14,0.86,0.92,0.23
28.14,0.85,0.83,0.19
28.14,0.82,0.76,0.15
28.15,0.78,0.71,0.10
28.15,0.73,0.67,0.04
28.15,0.68,0.64,-0.02
28.15,0.63,0.62,-0.08
28.16,0.57,0.60,-0.12
28.16,0.52,0.58,-0.16
28.16,0.47,0.55,-0.19
28.16,0.42,0.53,-0.21
28.16,0.38,0.49,-0.22
28.17,0.34,0.43,-0.22
28.17,0.30,0.36,-0.20
28.17,0.27,0.26,-0.18
28.17,0.24,0.16,-0.14
28.18,0.22,0.05,-0.10
28.18,0.20,-0.06,-0.04
28.18,0.19,-0.17,0.01
28.18,0.17,-0.27,0.07
28.19,0.16,-0.37,0.14
28.19,0.15,-0.46,0.20
28.19,0.15,-0.53,0.26
28.19,0.15,-0.60,0.31
28.20,0.16,-0.65,0.35
28.20,0.19,-0.69,0.38
28.20,0.23,-0.71,0.41
28.20,0.28,-0.72,0.43
28.20,0.33,-0.70,0.45
28.21,0.39,-0.68,0.48
28.21,0.45,-0.63,0.52
28.21,0.49,-0.57,0.57
28.21,0.52,-0.49,0.64
28.22,0.52,-0.42,0.72
28.22,0.51,-0.35,0.81
28.22,0.48,-0.29,0.91
28.22,0.43,-0.25,1.01
28.23,0.38,-0.21,1.11
28.23,0.32,-0.18,1.20
28.23,0.27,-0.15,1.28
28.23,0.21,-0.12,1.35
28.24,0.16,-0.10,1.39
28.24,0.13,-0.08,1.42
28.24,0.11,-0.06,1.43
28.24,0.11,-0.03,1.43
28.25,0.13,0.00,1.43
28.25,0.16,0.04,1.42
28.25,0.21,0.08,1.42
28.25,0.27,0.08,1.42
28.25,0.32,0.04,1.42
28.26,0.39,-0.02,1.43
28.26,0.46,-0.09,1.43
28.26,0.52,-0.15,1.43
28.26,0.58,-0.21,1.41
28.27,0.62,-0.29,1.39
28.27,0.65,-0.37,1.36
28.27,0.68,-0.46,1.31
28.27,0.69,-0.53,1.24
28.28,0.71,-0.60,1.18
28.28,0.71,-0.67,1.12
28.28,0.71,-0.72,1.06
28.28,0.71,-0.76,1.00
28.29,0.71,-0.80,0.93
28.29,0.70,-0.85,0.87
28.29,0.68,-0.91,0.80
28.29,0.66,-0.98,0.73
28.30,0.64,-1.05,0.66
28.30,0.63,-1.11,0.59
28.30,0.63,-1.14,0.51
28.30,0.64,-1.15,0.44
28.30,0.65,-1.20,0.39
28.31,0.67,-1.28,0.34
28.31,0.71,-1.27,0.28
28.31,0.75,-1.23,0.21
28.31,0.79,-1.23,0.15
28.32,0.84,-1.25,0.09
28.32,0.89,-1.28,0.05
28.32,0.94,-1.34,0.01
28.32,0.98,-1.40,-0.03
28.33,1.02,-1.41,-0.06
28.33,1.05,-1.39,-0.09
28.33,1.08,-1.34,-0.11
28.33,1.10,-1.30,-0.12
28.34,1.11,-1.26,-0.12
28.34,1.10,-1.25,-0.11
28.34,1.09,-1.25,-0.09
28.34,1.07,-1.26,-0.06
28.35,1.04,-1.29,-0.02
28.35,1.01,-1.32,0.03
28.35,0.97,-1.35,0.08
28.35,0.93,-1.38,0.14
28.35,0.89,-1.41,0.20
28.36,0.85,-1.43,0.26
28.36,0.82,-1.44,0.33
28.36,0.79,-1.45,0.39
28.36,0.77,-1.46,0.46
28.37,0.76,-1.45,0.52
28.37,0.74,-1.44,0.58
28.37,0.74,-1.43,0.63
28.37,0.74,-1.43,0.67
28.38,0.74,-1.43,0.71
28.38,0.74,-1.44,0.74
28.38,0.74,-1.46,0.78
28.38,0.74,-1.49,0.80
28.39,0.75,-1.51,0.83
28.39,0.76,-1.53,0.85
28.39,0.76,-1.56,0.86
28.39,0.76,-1.59,0.87
28.39,0.76,-1.61,0.87
28.40,0.76,-1.62,0.87
28.40,0.76,-1.63,0.86
28.40,0.74,-1.64,0.84
28.40,0.73,-1.63,0.82
28.41,0.70,-1.62,0.80
28.41,0.68,-1.59,0.78
28.41,0.65,-1.56,0.75
28.41,0.62,-1.53,0.73
28.42,0.59,-1.50,0.71
28.42,0.56,-1.47,0.68
28.42,0.54,-1.44,0.65
28.42,0.52,-1.40,0.62
28.43,0.51,-1.38,0.58
28.43,0.49,-1.35,0.54
28.43,0.48,-1.32,0.51
28.43,0.47,-1.29,0.47
28.44,0.47,-1.27,0.43
28.44,0.48,-1.24,0.39
28.44,0.49,-1.21,0.35
28.44,0.50,-1.17,0.31
28.44,0.52,-1.12,0.27
28.45,0.55,-1.08,0.24
28.45,0.58,-1.04,0.21
28.45,0.61,-1.00,0.17
28.45,0.65,-0.96,0.14
28.46,0.69,-0.92,0.11
28.46,0.74,-0.88,0.08
28.46,0.78,-0.84,0.05
28.46,0.82,-0.80,0.03
28.47,0.86,-0.77,0.00
28.47,0.90,-0.74,-0.02
28.47,0.94,-0.71,-0.04
28.47,0.97,-0.69,-0.06
28.48,0.99,-0.67,-0.07
28.48,1.01,-0.65,-0.08
28.48,1.03,-0.64,-0.08
28.48,1.04,-0.62,-0.08
28.49,1.05,-0.60,-0.07
28.49,1.06,-0.59,-0.07
28.49,1.06,-0.58,-0.05
28.49,1.06,-0.57,-0.04
28.49,1.05,-0.55,-0.02
28.50,1.05,-0.52,-0.01
28.50,1.04,-0.50,0.00
28.50,1.03,-0.48,0.02
28.50,1.01,-0.46,0.04
28.51,1.00,-0.44,0.05
28.51,0.98,-0.42,0.07
28.51,0.96,-0.41,0.08
28.51,0.94,-0.39,0.09
28.52,0.91,-0.36,0.10
28.52,0.89,-0.33,0.11
28.52,0.87,-0.30,0.11
28.52,0.85,-0.27,0.12
28.53,0.83,-0.24,0.12
28.53,0.82,-0.21,0.13
28.53,0.80,-0.19,0.13
28.53,0.78,-0.16,0.14
28.54,0.78,-0.13,0.14
28.54,0.77,-0.11,0.15
28.54,0.76,-0.08,0.16
28.54,0.76,-0.07,0.17
28.54,0.75,-0.06,0.18
28.55,0.75,-0.04,0.19
28.55,0.75,-0.04,0.20
28.55,0.75,-0.04,0.22
28.55,0.75,-0.03,0.23
28.56,0.76,-0.02,0.24
28.56,0.76,-0.03,0.25
28.56,0.76,-0.04,0.27
28.56,0.77,-0.05,0.28
28.57,0.78,-0.07,0.29
28.57,0.79,-0.09,0.30
28.57,0.80,-0.11,0.31
28.57,0.82,-0.14,0.32
28.58,0.84,-0.16,0.32
28.58,0.86,-0.19,0.33
28.58,0.87,-0.22,0.33
28.58,0.90,-0.25,0.33
28.59,0.91,-0.28,0.33
28.59,0.93,-0.32,0.33
28.59,0.95,-0.35,0.32
28.59,0.97,-0.39,0.32
28.59,0.98,-0.42,0.31
28.60,0.99,-0.45,0.30
28.60,0.99,-0.49,0.29
28.60,0.99,-0.51,0.28
28.60,0.99,-0.54,0.27
28.61,0.97,-0.58,0.26
28.61,0.94,-0.64,0.25
28.61,0.91,-0.68,0.24
28.61,0.89,-0.70,0.22
28.62,0.87,-0.70,0.21
28.62,0.85,-0.71,0.20
28.62,0.82,-0.73,0.19
28.62,0.79,-0.75,0.18
28.63,0.76,-0.77,0.16
28.63,0.73,-0.77,0.15
28.63,0.70,-0.77,0.14
28.63,0.67,-0.77,0.12
28.63,0.63,-0.76,0.11
28.64,0.61,-0.75,0.10
28.64,0.58,-0.73,0.09
28.64,0.56,-0.72,0.08
28.64,0.53,-0.71,0.07
28.65,0.51,-0.69,0.07
28.65,0.49,-0.66,0.06
28.65,0.47,-0.63,0.06
28.65,0.45,-0.63,0.05
28.66,0.44,-0.62,0.04
28.66,0.42,-0.60,0.03
28.66,0.41,-0.58,0.02
28.66,0.39,-0.57,0.01
28.67,0.37,-0.55,0.01
28.67,0.35,-0.54,0.01
28.67,0.33,-0.53,0.01
28.67,0.31,-0.53,0.02
28.68,0.28,-0.53,0.02
28.68,0.26,-0.53,0.02
28.68,0.23,-0.53,0.03
28.68,0.21,-0.53,0.04
28.68,0.19,-0.53,0.04
28.69,0.16,-0.53,0.05
28.69,0.14,-0.52,0.05
28.69,0.12,-0.53,0.05
28.69,0.10,-0.53,0.05
28.70,0.07,-0.53,0.05
28.70,0.04,-0.53,0.04
28.70,0.01,-0.53,0.03
28.70,-0.03,-0.53,0.02
28.71,-0.07,-0.52,0.02
28.71,-0.11,-0.51,0.01
28.71,-0.16,-0.50,0.00
28.71,-0.22,-0.48,-0.01
28.72,-0.27,-0.46,-0.02
28.72,-0.33,-0.44,-0.04
28.72,-0.39,-0.41,-0.05
28.72,-0.45,-0.38,-0.07
28.73,-0.51,-0.35,-0.09
28.73,-0.58,-0.31,-0.12
28.73,-0.64,-0.28,-0.13
28.73,-0.71,-0.25,-0.15
28.73,-0.78,-0.21,-0.18
28.74,-0.85,-0.17,-0.20
28.74,-0.92,-0.13,-0.23
28.74,-0.99,-0.09,-0.27
28.74,-1.05,-0.04,-0.31
28.75,-1.12,0.02,-0.35
28.75,-1.19,0.08,-0.39
28.75,-1.26,0.15,-0.44
28.75,-1.32,0.21,-0.48
28.76,-1.38,0.28,-0.53
28.76,-1.44,0.35,-0.58
28.76,-1.49,0.42,-0.63
28.76,-1.54,0.48,-0.68
28.77,-1.59,0.55,-0.73
28.77,-1.62,0.61,-0.77
28.77,-1.65,0.66,-0.82
28.77,-1.68,0.71,-0.86
28.78,-1.71,0.76,-0.90
28.78,-1.74,0.80,-0.94
28.78,-1.76,0.84,-0.98
28.78,-1.78,0.89,-1.01
28.78,-1.79,0.95,-1.04
28.79,-1.81,1.00,-1.06
28.79,-1.82,1.04,-1.09
28.79,-1.84,1.06,-1.11
28.79,-1.86,1.09,-1.13
28.80,-1.89,1.09,-1.15
28.80,-1.91,1.08,-1.18
28.80,-1.92,1.07,-1.20
28.80,-1.94,1.06,-1.23
28.81,-1.96,1.05,-1.27
28.81,-1.97,1.05,-1.30
28.81,-1.98,1.06,-1.34
28.81,-1.99,1.07,-1.38
28.82,-2.00,1.08,-1.42
28.82,-2.00,1.09,-1.47
28.82,-2.00,1.11,-1.52
28.82,-2.00,1.13,-1.58
28.82,-1.99,1.15,-1.65
28.83,-1.98,1.18,-1.71
28.83,-1.97,1.21,-1.77
28.83,-1.95,1.24,-1.82
28.83,-1.93,1.25,-1.86
28.84,-1.91,1.28,-1.90
28.84,-1.88,1.30,-1.92
28.84,-1.86,1.33,-1.94
28.84,-1.84,1.36,-1.95
28.85,-1.83,1.40,-1.96
28.85,-1.82,1.44,-1.95
28.85,-1.80,1.46,-1.94
28.85,-1.79,1.46,-1.93
28.86,-1.77,1.44,-1.93
28.86,-1.75,1.39,-1.94
28.86,-1.73,1.34,-1.94
28.86,-1.70,1.28,-1.95
28.87,-1.67,1.20,-1.96
28.87,-1.64,1.09,-1.96
28.87,-1.61,0.98,-1.94
28.87,-1.57,0.86,-1.91
28.87,-1.54,0.75,-1.87
28.88,-1.50,0.64,-1.80
28.88,-1.48,0.53,-1.73
28.88,-1.44,0.44,-1.63
28.88,-1.41,0.37,-1.53
28.89,-1.38,0.32,-1.42
28.89,-1.35,0.29,-1.29
28.89,-1.31,0.28,-1.16
28.89,-1.28,0.30,-1.04
28.90,-1.24,0.33,-0.91
28.90,-1.21,0.39,-0.79
28.90,-1.18,0.46,-0.68
28.90,-1.15,0.53,-0.58
28.91,-1.13,0.61,-0.50
28.91,-1.12,0.69,-0.44
28.91,-1.11,0.77,-0.39
28.91,-1.10,0.84,-0.37
28.92,-1.11,0.91,-0.36
28.92,-1.11,0.96,-0.36
28.92,-1.12,0.99,-0.37
28.92,-1.12,0.99,-0.38
28.92,-1.13,0.99,-0.39
28.93,-1.14,0.97,-0.39
28.93,-1.15,0.93,-0.38
28.93,-1.15,0.90,-0.38
28.93,-1.16,0.86,-0.37
28.94,-1.17,0.83,-0.36
28.94,-1.18,0.80,-0.37
28.94,-1.19,0.76,-0.37
28.94,-1.21,0.72,-0.38
28.95,-1.24,0.67,-0.38
28.95,-1.27,0.62,-0.40
28.95,-1.31,0.56,-0.42
28.95,-1.34,0.49,-0.44
28.96,-1.37,0.43,-0.45
28.96,-1.40,0.38,-0.46
28.96,-1.41,0.33,-0.47
28.96,-1.43,0.30,-0.46
28.97,-1.45,0.28,-0.45
28.97,-1.48,0.27,-0.43
28.97,-1.51,0.27,-0.42
28.97,-1.53,0.28,-0.42
28.97,-1.55,0.31,-0.42
28.98,-1.56,0.35,-0.42
28.98,-1.56,0.39,-0.41
28.98,-1.55,0.45,-0.41
28.98,-1.53,0.51,-0.40
28.99,-1.51,0.58,-0.40
28.99,-1.47,0.66,-0.40
28.99,-1.43,0.73,-0.40
28.99,-1.39,0.81,-0.40
29.00,-1.34,0.89,-0.40
29.00,-1.30,0.97,-0.39
29.00,-1.26,1.04,-0.38
29.00,-1.22,1.11,-0.37
29.01,-1.19,1.15,-0.36
29.01,-1.16,1.18,-0.35
29.01,-1.14,1.19,-0.33
29.01,-1.12,1.19,-0.32
29.02,-1.10,1.18,-0.31
29.02,-1.09,1.16,-0.30
29.02,-1.08,1.14,-0.28
29.02,-1.07,1.12,-0.27
29.02,-1.06,1.10,-0.25
29.03,-1.05,1.08,-0.23
29.03,-1.03,1.05,-0.21
29.03,-1.01,1.02,-0.19
29.03,-1.00,0.99,-0.17
29.04,-0.98,0.95,-0.16
29.04,-0.96,0.91,-0.14
29.04,-0.93,0.87,-0.12
29.04,-0.91,0.83,-0.10
29.05,-0.88,0.79,-0.08
29.05,-0.85,0.76,-0.07
29.05,-0.81,0.72,-0.05
29.05,-0.78,0.68,-0.03
29.06,-0.74,0.65,-0.01
29.06,-0.71,0.63,0.01
29.06,-0.66,0.61,0.04
29.06,-0.62,0.59,0.06
29.06,-0.57,0.57,0.08
29.07,-0.52,0.55,0.10
29.07,-0.47,0.54,0.12
29.07,-0.42,0.52,0.14
29.07,-0.37,0.51,0.16
29.08,-0.33,0.50,0.17
29.08,-0.28,0.50,0.19
29.08,-0.23,0.49,0.21
29.08,-0.19,0.48,0.23
29.09,-0.14,0.49,0.26
29.09,-0.09,0.49,0.28
29.09,-0.05,0.50,0.30
29.09,-0.01,0.52,0.32
29.10,0.03,0.54,0.34
29.10,0.07,0.56,0.37
29.10,0.11,0.59,0.38
29.10,0.15,0.62,0.40
29.11,0.18,0.65,0.42
29.11,0.21,0.68,0.45
29.11,0.24,0.71,0.47
29.11,0.27,0.73,0.49
29.11,0.30,0.75,0.52
29.12,0.32,0.77,0.54
29.12,0.35,0.79,0.57
29.12,0.37,0.80,0.59
29.12,0.39,0.80,0.61
29.13,0.41,0.80,0.63
29.13,0.43,0.80,0.66
29.13,0.44,0.80,0.68
29.13,0.46,0.79,0.71
29.14,0.48,0.79,0.74
29.14,0.50,0.78,0.76
29.14,0.52,0.77,0.79
29.14,0.53,0.76,0.81
29.15,0.55,0.74,0.83
29.15,0.56,0.72,0.86
29.15,0.57,0.70,0.87
29.15,0.58,0.67,0.89
29.16,0.60,0.65,0.91
29.16,0.61,0.63,0.93
29.16,0.62,0.60,0.94
29.16,0.63,0.58,0.96
29.16,0.65,0.55,0.97
29.17,0.66,0.53,0.98
29.17,0.68,0.51,0.99
29.17,0.69,0.48,1.00
29.17,0.70,0.46,1.01
29.18,0.72,0.44,1.01
29.18,0.73,0.42,1.02
29.18,0.74,0.40,1.03
29.18,0.76,0.38,1.03
29.19,0.77,0.37,1.03
29.19,0.77,0.35,1.04
29.19,0.77,0.34,1.04
29.19,0.77,0.33,1.03
29.20,0.77,0.32,1.03
29.20,0.75,0.32,1.02
29.20,0.74,0.32,1.02
29.20,0.72,0.31,1.01
29.21,0.69,0.30,1.00
29.21,0.67,0.30,0.99
29.21,0.63,0.29,0.97
29.21,0.60,0.28,0.95
29.21,0.56,0.27,0.93
29.22,0.52,0.25,0.90
29.22,0.48,0.24,0.87
29.22,0.44,0.23,0.84
29.22,0.40,0.22,0.81
29.23,0.36,0.21,0.77
29.23,0.32,0.20,0.73
29.23,0.28,0.19,0.69
29.23,0.24,0.19,0.65
29.24,0.20,0.19,0.61
29.24,0.15,0.20,0.57
29.24,0.11,0.20,0.53
29.24,0.07,0.21,0.48
29.25,0.03,0.21,0.44
29.25,-0.01,0.21,0.39
29.25,-0.04,0.21,0.35
29.25,-0.08,0.20,0.31
29.25,-0.12,0.20,0.26
29.26,-0.15,0.19,0.23
29.26,-0.20,0.22,0.19
29.26,-0.25,0.26,0.16
29.26,-0.30,0.27,0.14
29.27,-0.34,0.26,0.11
29.27,-0.37,0.24,0.09
29.27,-0.40,0.21,0.07
29.27,-0.43,0.18,0.05
29.28,-0.46,0.15,0.04
29.28,-0.48,0.12,0.03
29.28,-0.51,0.09,0.03
29.28,-0.53,0.08,0.03
29.29,-0.55,0.07,0.03
29.29,-0.57,0.06,0.03
29.29,-0.59,0.05,0.04
29.29,-0.61,0.04,0.05
29.30,-0.62,0.04,0.06
29.30,-0.62,0.03,0.07
29.30,-0.62,0.03,0.09
29.30,-0.61,0.03,0.10
29.30,-0.59,0.03,0.12
29.31,-0.57,0.03,0.14
29.31,-0.55,0.03,0.17
29.31,-0.51,0.04,0.19
29.31,-0.48,0.04,0.21
29.32,-0.44,0.05,0.24
29.32,-0.40,0.05,0.27
29.32,-0.36,0.05,0.31
29.32,-0.31,0.06,0.35
29.33,-0.26,0.07,0.38
29.33,-0.21,0.08,0.41
29.33,-0.16,0.10,0.44
29.33,-0.12,0.13,0.47
29.34,-0.07,0.17,0.49
29.34,-0.03,0.23,0.51
29.34,0.01,0.29,0.53
29.34,0.05,0.37,0.55
29.35,0.09,0.45,0.57
29.35,0.14,0.53,0.59
29.35,0.18,0.61,0.60
29.35,0.23,0.69,0.61
29.35,0.28,0.77,0.62
29.36,0.34,0.85,0.62
29.36,0.40,0.92,0.61
29.36,0.46,0.99,0.59
29.36,0.53,1.05,0.58
29.37,0.60,1.11,0.55
29.37,0.67,1.15,0.52
29.37,0.73,1.17,0.48
29.37,0.79,1.18,0.44
29.38,0.85,1.19,0.40
29.38,0.90,1.17,0.36
29.38,0.94,1.14,0.31
29.38,0.97,1.08,0.27
29.39,0.98,1.02,0.22
29.39,0.98,0.94,0.17
29.39,0.96,0.85,0.12
29.39,0.92,0.76,0.06
29.40,0.87,0.66,0.01
29.40,0.81,0.58,-0.04
29.40,0.73,0.51,-0.10
29.40,0.65,0.44,-0.16
29.40,0.57,0.40,-0.21
29.41,0.49,0.38,-0.26
29.41,0.41,0.37,-0.31
29.41,0.34,0.38,-0.35
29.41,0.27,0.39,-0.39
29.42,0.22,0.40,-0.42
29.42,0.19,0.40,-0.45
29.42,0.16,0.39,-0.47
29.42,0.14,0.36,-0.48
29.43,0.13,0.31,-0.48
29.43,0.12,0.22,-0.47
29.43,0.12,0.11,-0.45
29.43,0.12,-0.02,-0.41
29.44,0.13,-0.15,-0.36
29.44,0.15,-0.29,-0.29
29.44,0.17,-0.42,-0.21
29.44,0.20,-0.55,-0.12
29.45,0.23,-0.67,-0.04
29.45,0.27,-0.77,0.04
29.45,0.33,-0.85,0.11
29.45,0.40,-0.91,0.17
29.45,0.49,-0.94,0.24
29.46,0.57,-0.93,0.31
29.46,0.64,-0.91,0.39
29.46,0.67,-0.86,0.49
29.46,0.68,-0.80,0.60
29.47,0.66,-0.73,0.72
29.47,0.61,-0.65,0.85
29.47,0.54,-0.57,0.98
29.47,0.46,-0.47,1.11
29.48,0.36,-0.37,1.23
29.48,0.26,-0.26,1.33
29.48,0.16,-0.14,1.43
29.48,0.05,-0.02,1.50
29.49,-0.05,0.11,1.56
29.49,-0.14,0.23,1.61
29.49,-0.21,0.34,1.65
29.49,-0.28,0.45,1.67
29.49,-0.32,0.56,1.69
29.50,-0.33,0.63,1.70
29.50,-0.32,0.68,1.70
29.50,-0.28,0.69,1.69
29.50,-0.21,0.66,1.69
29.51,-0.13,0.57,1.68
29.51,-0.04,0.42,1.67
29.51,0.05,0.23,1.66
29.51,0.15,0.04,1.62
29.52,0.23,-0.11,1.58
29.52,0.32,-0.22,1.53
29.52,0.39,-0.28,1.47
29.52,0.45,-0.33,1.42
29.53,0.49,-0.40,1.37
29.53,0.53,-0.47,1.32
29.53,0.56,-0.54,1.27
29.53,0.59,-0.60,1.20
29.54,0.61,-0.65,1.13
29.54,0.63,-0.70,1.06
29.54,0.65,-0.74,0.99
29.54,0.67,-0.78,0.93
29.54,0.70,-0.80,0.86
29.55,0.74,-0.82,0.78
29.55,0.77,-0.85,0.70
29.55,0.80,-0.88,0.62
29.55,0.84,-0.91,0.53
29.56,0.88,-0.94,0.44
29.56,0.92,-0.97,0.36
29.56,0.97,-1.01,0.27
29.56,1.02,-1.04,0.18
29.57,1.07,-1.07,0.10
29.57,1.12,-1.09,0.04
29.57,1.17,-1.12,-0.01
29.57,1.20,-1.14,-0.06
29.58,1.24,-1.16,-0.09
29.58,1.26,-1.18,-0.12
29.58,1.28,-1.21,-0.14
29.58,1.28,-1.24,-0.15
29.59,1.28,-1.28,-0.15
29.59,1.27,-1.33,-0.14
29.59,1.26,-1.37,-0.12
29.59,1.23,-1.41,-0.09
29.59,1.20,-1.46,-0.06
29.60,1.17,-1.50,-0.01
29.60,1.13,-1.54,0.04
29.60,1.09,-1.58,0.09
29.60,1.04,-1.61,0.15
29.61,1.00,-1.64,0.22
29.61,0.95,-1.66,0.28
29.61,0.90,-1.67,0.34
29.61,0.86,-1.68,0.41
29.62,0.83,-1.67,0.47
29.62,0.80,-1.64,0.53
29.62,0.78,-1.61,0.58
29.62,0.76,-1.59,0.61
29.63,0.75,-1.58,0.64
29.63,0.74,-1.58,0.68
29.63,0.73,-1.58,0.71
29.63,0.73,-1.59,0.75
29.64,0.72,-1.61,0.77
29.64,0.73,-1.63,0.79
29.64,0.73,-1.66,0.80
29.64,0.74,-1.68,0.81
29.64,0.74,-1.70,0.81
29.65,0.74,-1.71,0.81
29.65,0.75,-1.70,0.81
29.65,0.74,-1.69,0.79
29.65,0.73,-1.65,0.77
29.66,0.72,-1.61,0.75
29.66,0.70,-1.55,0.73
29.66,0.67,-1.51,0.69
29.66,0.65,-1.46,0.66
29.67,0.62,-1.41,0.62
29.67,0.59,-1.38,0.58
29.67,0.56,-1.34,0.53
29.67,0.53,-1.30,0.48
29.68,0.49,-1.27,0.44
29.68,0.46,-1.23,0.39
29.68,0.44,-1.20,0.34
29.68,0.41,-1.17,0.30
29.68,0.39,-1.13,0.26
29.69,0.37,-1.11,0.22
29.69,0.35,-1.08,0.18
29.69,0.35,-1.05,0.15
29.69,0.34,-1.01,0.11
29.70,0.34,-0.97,0.08
29.70,0.35,-0.94,0.05
29.70,0.37,-0.90,0.03
29.70,0.39,-0.87,0.00
29.71,0.41,-0.84,-0.02
29.71,0.43,-0.80,-0.04
29.71,0.46,-0.77,-0.06
29.71,0.48,-0.74,-0.08
29.72,0.50,-0.72,-0.10
29.72,0.52,-0.69,-0.11
29.72,0.54,-0.67,-0.12
29.72,0.54,-0.64,-0.13
29.73,0.55,-0.62,-0.14
29.73,0.54,-0.60,-0.15
29.73,0.54,-0.58,-0.16
29.73,0.53,-0.56,-0.16
29.73,0.52,-0.54,-0.17
29.74,0.51,-0.52,-0.17
29.74,0.51,-0.51,-0.17
29.74,0.50,-0.49,-0.17
29.74,0.50,-0.48,-0.16
29.75,0.49,-0.48,-0.16
29.75,0.49,-0.47,-0.14
29.75,0.49,-0.46,-0.13
29.75,0.48,-0.46,-0.12
29.76,0.47,-0.45,-0.10
29.76,0.47,-0.45,-0.09
29.76,0.46,-0.45,-0.07
29.76,0.46,-0.44,-0.06
29.77,0.45,-0.43,-0.04
29.77,0.44,-0.42,-0.02
29.77,0.43,-0.41,-0.01
29.77,0.43,-0.40,0.01
29.78,0.43,-0.39,0.02
29.78,0.43,-0.38,0.04
29.78,0.42,-0.36,0.05
29.78,0.43,-0.34,0.06
29.78,0.43,-0.33,0.08
29.79,0.44,-0.31,0.09
29.79,0.45,-0.28,0.11
29.79,0.46,-0.26,0.12
29.79,0.47,-0.24,0.13
29.80,0.49,-0.23,0.15
29.80,0.51,-0.21,0.16
29.80,0.52,-0.20,0.17
29.80,0.55,-0.18,0.19
29.81,0.57,-0.16,0.20
29.81,0.59,-0.15,0.21
29.81,0.61,-0.15,0.21
29.81,0.63,-0.15,0.22
29.82,0.65,-0.15,0.23
29.82,0.67,-0.14,0.23
29.82,0.69,-0.14,0.24
29.82,0.71,-0.14,0.24
29.83,0.73,-0.14,0.25
29.83,0.75,-0.15,0.25
29.83,0.76,-0.15,0.26
29.83,0.78,-0.15,0.26
29.83,0.80,-0.16,0.27
29.84,0.81,-0.17,0.27
29.84,0.83,-0.18,0.26
29.84,0.85,-0.20,0.27
29.84,0.86,-0.22,0.26
29.85,0.88,-0.23,0.26
29.85,0.90,-0.23,0.26
29.85,0.91,-0.24,0.25
29.85,0.93,-0.25,0.25
29.86,0.94,-0.27,0.24
29.86,0.95,-0.29,0.24
29.86,0.96,-0.31,0.23
29.86,0.97,-0.33,0.22
29.87,0.98,-0.34,0.21
29.87,0.98,-0.36,0.20
29.87,0.98,-0.37,0.20
29.87,0.99,-0.39,0.19
29.88,0.99,-0.41,0.18
29.88,0.98,-0.43,0.17
29.88,0.98,-0.44,0.16
29.88,0.97,-0.46,0.15
29.88,0.96,-0.51,0.14
29.89,0.94,-0.56,0.12
29.89,0.92,-0.58,0.11
29.89,0.91,-0.58,0.10
29.89,0.90,-0.58,0.10
29.90,0.88,-0.57,0.10
29.90,0.87,-0.55,0.10
29.90,0.85,-0.54,0.11
29.90,0.83,-0.53,0.11
29.91,0.81,-0.52,0.12
29.91,0.78,-0.50,0.13
29.91,0.76,-0.48,0.13
29.91,0.73,-0.47,0.14
29.92,0.70,-0.45,0.14
29.92,0.68,-0.43,0.15
29.92,0.66,-0.39,0.15
29.92,0.63,-0.36,0.16
29.92,0.61,-0.33,0.17
29.93,0.58,-0.32,0.19
29.93,0.55,-0.31,0.20
29.93,0.52,-0.30,0.22
29.93,0.48,-0.31,0.24
29.94,0.45,-0.32,0.25
29.94,0.42,-0.34,0.27
29.94,0.39,-0.36,0.28
29.94,0.37,-0.39,0.30
29.95,0.34,-0.42,0.31
29.95,0.32,-0.45,0.32
29.95,0.30,-0.47,0.33
29.95,0.28,-0.49,0.34
29.96,0.25,-0.53,0.34
29.96,0.23,-0.57,0.34
29.96,0.22,-0.60,0.33
29.96,0.20,-0.63,0.33
29.97,0.19,-0.66,0.32
29.97,0.17,-0.68,0.31
29.97,0.15,-0.71,0.29
29.97,0.14,-0.72,0.28
29.97,0.12,-0.74,0.26
29.98,0.09,-0.75,0.24
29.98,0.07,-0.76,0.22
29.98,0.03,-0.77,0.20
29.98,0.00,-0.77,0.17
29.99,-0.04,-0.77,0.14
29.99,-0.08,-0.78,0.12
29.99,-0.12,-0.78,0.09
29.99,-0.17,-0.78,0.06
30.00,-0.22,-0.78,0.04
30.00,-0.27,-0.77,0.02
30.00,-0.33,-0.76,0.00
30.00,-0.38,-0.75,-0.02
30.01,-0.44,-0.74,-0.04
30.01,-0.49,-0.72,-0.06
30.01,-0.55,-0.71,-0.07
30.01,-0.60,-0.69,-0.09
30.02,-0.65,-0.67,-0.11
30.02,-0.70,-0.64,-0.13
30.02,-0.75,-0.61,-0.15
30.02,-0.79,-0.57,-0.17
30.02,-0.84,-0.52,-0.19
30.03,-0.88,-0.47,-0.21
30.03,-0.91,-0.42,-0.24
30.03,-0.95,-0.35,-0.27
30.03,-0.99,-0.27,-0.29
30.04,-1.03,-0.19,-0.32
30.04,-1.06,-0.09,-0.34
30.04,-1.11,0.01,-0.37
30.04,-1.15,0.11,-0.39
30.05,-1.20,0.21,-0.42
30.05,-1.24,0.32,-0.44
30.05,-1.30,0.42,-0.47
30.05,-1.34,0.51,-0.50
30.06,-1.39,0.59,-0.52
30.06,-1.43,0.67,-0.55
30.06,-1.47,0.73,-0.58
30.06,-1.49,0.78,-0.61
30.07,-1.51,0.82,-0.64
30.07,-1.51,0.85,-0.67
30.07,-1.51,0.87,-0.70
30.07,-1.51,0.88,-0.73
30.07,-1.50,0.90,-0.76
30.08,-1.49,0.90,-0.78
30.08,-1.48,0.91,-0.81
30.08,-1.47,0.92,-0.83
30.08,-1.47,0.93,-0.84
30.09,-1.47,0.94,-0.86
30.09,-1.47,0.95,-0.87
30.09,-1.48,0.96,-0.89
30.09,-1.50,0.96,-0.90
30.10,-1.52,0.97,-0.92
30.10,-1.54,0.98,-0.94
30.10,-1.57,0.99,-0.96
30.10,-1.60,1.00,-0.99
30.11,-1.64,1.02,-1.02
30.11,-1.67,1.04,-1.06
30.11,-1.70,1.07,-1.11
30.11,-1.74,1.09,-1.16
30.11,-1.78,1.11,-1.22
30.12,-1.81,1.13,-1.27
30.12,-1.84,1.16,-1.33
30.12,-1.87,1.18,-1.38
30.12,-1.89,1.21,-1.44
30.13,-1.91,1.23,-1.49
30.13,-1.92,1.25,-1.53
30.13,-1.92,1.26,-1.57
30.13,-1.92,1.26,-1.61
30.14,-1.92,1.26,-1.63
30.14,-1.91,1.25,-1.66
30.14,-1.90,1.24,-1.67
30.14,-1.89,1.22,-1.70
30.15,-1.87,1.21,-1.72
30.15,-1.85,1.18,-1.74
30.15,-1.83,1.15,-1.75
30.15,-1.80,1.10,-1.76
30.16,-1.76,1.04,-1.78
30.16,-1.72,0.98,-1.81
30.16,-1.69,0.90,-1.83
30.16,-1.65,0.83,-1.86
30.16,-1.61,0.75,-1.88
30.17,-1.57,0.65,-1.89
30.17,-1.53,0.55,-1.88
30.17,-1.48,0.45,-1.86
30.17,-1.44,0.36,-1.83
30.18,-1.40,0.27,-1.76
30.18,-1.37,0.20,-1.69
30.18,-1.34,0.14,-1.60
30.18,-1.31,0.12,-1.51
30.19,-1.28,0.14,-1.40
30.19,-1.25,0.17,-1.29
30.19,-1.23,0.20,-1.19
30.19,-1.21,0.22,-1.10
30.20,-1.18,0.25,-1.01
30.20,-1.15,0.28,-0.94
30.20,-1.13,0.33,-0.87
30.20,-1.12,0.38,-0.80
30.21,-1.10,0.43,-0.76
30.21,-1.09,0.49,-0.73
30.21,-1.08,0.55,-0.71
30.21,-1.07,0.60,-0.72
30.21,-1.06,0.63,-0.74
30.22,-1.05,0.63,-0.76
30.22,-1.05,0.59,-0.80
30.22,-1.04,0.51,-0.83
30.22,-1.05,0.40,-0.86
30.23,-1.05,0.28,-0.88
30.23,-1.05,0.17,-0.90
30.23,-1.04,0.07,-0.92
30.23,-1.03,-0.01,-0.93
30.24,-1.03,-0.08,-0.93
30.24,-1.05,-0.15,-0.92
30.24,-1.07,-0.22,-0.90
30.24,-1.11,-0.28,-0.88
30.25,-1.15,-0.33,-0.84
30.25,-1.20,-0.36,-0.81
30.25,-1.25,-0.38,-0.79
30.25,-1.30,-0.37,-0.77
30.26,-1.35,-0.35,-0.76
30.26,-1.39,-0.32,-0.75
30.26,-1.43,-0.28,-0.73
30.26,-1.46,-0.25,-0.72
30.26,-1.48,-0.20,-0.71
30.27,-1.50,-0.14,-0.70
30.27,-1.50,-0.05,-0.70
30.27,-1.50,0.03,-0.68
30.27,-1.49,0.12,-0.66
30.28,-1.47,0.22,-0.65
30.28,-1.44,0.32,-0.64
30.28,-1.40,0.42,-0.63
30.28,-1.37,0.52,-0.62
30.29,-1.33,0.62,-0.62
30.29,-1.29,0.73,-0.62
30.29,-1.25,0.82,-0.61
30.29,-1.21,0.89,-0.61
30.30,-1.18,0.94,-0.60
30.30,-1.15,0.97,-0.60
30.30,-1.13,0.98,-0.61
30.30,-1.11,0.98,-0.61
30.31,-1.09,0.98,-0.62
30.31,-1.07,0.96,-0.62
30.31,-1.06,0.94,-0.62
30.31,-1.05,0.93,-0.63
30.31,-1.04,0.89,-0.63
30.32,-1.03,0.84,-0.62
30.32,-1.02,0.78,-0.61
30.32,-1.01,0.72,-0.61
30.32,-1.00,0.66,-0.60
30.33,-0.98,0.59,-0.58
30.33,-0.96,0.53,-0.57
30.33,-0.93,0.48,-0.55
30.33,-0.91,0.43,-0.54
30.34,-0.87,0.38,-0.52
30.34,-0.84,0.34,-0.50
30.34,-0.81,0.29,-0.48
30.34,-0.77,0.25,-0.45
30.35,-0.72,0.22,-0.43
30.35,-0.68,0.19,-0.41
30.35,-0.62,0.17,-0.39
30.35,-0.57,0.15,-0.37
30.35,-0.51,0.13,-0.36
30.36,-0.46,0.12,-0.34
30.36,-0.41,0.11,-0.33
30.36,-0.36,0.10,-0.31
30.36,-0.31,0.09,-0.29
30.37,-0.25,0.09,-0.28
30.37,-0.20,0.09,-0.26
30.37,-0.14,0.09,-0.25
30.37,-0.08,0.09,-0.24
30.38,-0.03,0.10,-0.23
30.38,0.03,0.11,-0.21
30.38,0.08,0.13,-0.19
30.38,0.13,0.14,-0.18
30.39,0.18,0.17,-0.17
30.39,0.23,0.19,-0.15
30.39,0.27,0.21,-0.14
30.39,0.31,0.23,-0.13
30.40,0.35,0.25,-0.12
30.40,0.39,0.27,-0.10
30.40,0.42,0.29,-0.09
30.40,0.45,0.31,-0.07
30.40,0.48,0.33,-0.05
30.41,0.50,0.35,-0.03
30.41,0.52,0.37,-0.01
30.41,0.54,0.38,0.01
30.41,0.56,0.39,0.04
30.42,0.58,0.39,0.06
30.42,0.59,0.40,0.08
30.42,0.60,0.41,0.11
30.42,0.62,0.42,0.13
30.43,0.63,0.43,0.16
30.43,0.64,0.44,0.19
30.43,0.65,0.45,0.22
30.43,0.65,0.45,0.25
30.44,0.66,0.46,0.28
30.44,0.67,0.46,0.32
30.44,0.67,0.46,0.35
30.44,0.68,0.46,0.38
30.45,0.68,0.46,0.42
30.45,0.69,0.47,0.45
30.45,0.69,0.47,0.49
30.45,0.69,0.48,0.52
30.45,0.70,0.47,0.55
30.46,0.70,0.46,0.58
30.46,0.70,0.45,0.60
30.46,0.71,0.45,0.63
30.46,0.71,0.44,0.66
30.47,0.71,0.43,0.68
30.47,0.72,0.42,0.70
30.47,0.72,0.41,0.72
30.47,0.73,0.39,0.75
30.48,0.73,0.38,0.77
30.48,0.74,0.36,0.79
30.48,0.75,0.34,0.81
30.48,0.76,0.33,0.83
30.49,0.76,0.32,0.85
30.49,0.77,0.31,0.87
30.49,0.77,0.30,0.88
30.49,0.77,0.28,0.89
30.50,0.77,0.27,0.90
30.50,0.77,0.26,0.91
30.50,0.76,0.25,0.93
30.50,0.75,0.23,0.94
30.50,0.74,0.23,0.95
30.51,0.73,0.22,0.95
30.51,0.71,0.21,0.95
30.51,0.69,0.20,0.95
30.51,0.67,0.19,0.95
30.52,0.65,0.18,0.95
30.52,0.63,0.18,0.94
30.52,0.61,0.18,0.93
30.52,0.58,0.18,0.92
30.53,0.56,0.19,0.91
30.53,0.53,0.20,0.89
30.53,0.50,0.21,0.87
30.53,0.48,0.22,0.83
30.54,0.45,0.23,0.80
30.54,0.43,0.25,0.76
30.54,0.40,0.27,0.72
30.54,0.38,0.29,0.67
30.54,0.36,0.32,0.62
30.55,0.33,0.35,0.56
30.55,0.31,0.38,0.50
30.55,0.28,0.41,0.45
30.55,0.25,0.45,0.39
30.56,0.22,0.49,0.34
30.56,0.18,0.54,0.30
30.56,0.13,0.60,0.25
30.56,0.07,0.64,0.21
30.57,0.01,0.66,0.17
30.57,-0.05,0.66,0.13
30.57,-0.11,0.63,0.10
30.57,-0.17,0.58,0.06
30.58,-0.23,0.51,0.04
30.58,-0.29,0.43,0.02
30.58,-0.35,0.35,0.01
30.58,-0.41,0.27,0.01
30.59,-0.47,0.21,0.01
30.59,-0.52,0.15,0.02
30.59,-0.57,0.10,0.04
30.59,-0.62,0.06,0.07
30.59,-0.66,0.03,0.09
30.60,-0.69,0.00,0.12
30.60,-0.71,-0.03,0.15
30.60,-0.72,-0.06,0.17
30.60,-0.72,-0.08,0.19
30.61,-0.70,-0.11,0.21
30.61,-0.68,-0.13,0.22
30.61,-0.65,-0.14,0.23
30.61,-0.62,-0.15,0.23
30.62,-0.58,-0.15,0.23
30.62,-0.54,-0.14,0.23
30.62,-0.49,-0.13,0.22
30.62,-0.44,-0.12,0.21
30.63,-0.39,-0.09,0.19
30.63,-0.34,-0.06,0.18
30.63,-0.30,-0.03,0.17
30.63,-0.25,0.01,0.17
30.64,-0.20,0.07,0.16
30.64,-0.15,0.12,0.17
30.64,-0.09,0.19,0.17
30.64,-0.04,0.26,0.18
30.64,0.02,0.35,0.20
30.65,0.09,0.45,0.21
30.65,0.15,0.55,0.23
30.65,0.22,0.66,0.24
30.65,0.30,0.77,0.24
30.66,0.37,0.88,0.23
30.66,0.44,0.97,0.21
30.66,0.51,1.05,0.20
30.66,0.57,1.12,0.17
30.67,0.63,1.16,0.15
30.67,0.68,1.19,0.11
30.67,0.71,1.19,0.08
30.67,0.74,1.17,0.04
30.68,0.75,1.15,0.00
30.68,0.76,1.11,-0.04
30.68,0.76,1.07,-0.07
30.68,0.74,1.03,-0.10
30.69,0.71,0.98,-0.13
30.69,0.67,0.93,-0.16
30.69,0.61,0.89,-0.19
30.69,0.54,0.85,-0.22
30.69,0.46,0.83,-0.25
30.70,0.37,0.82,-0.27
30.70,0.29,0.82,-0.30
30.70,0.21,0.84,-0.31
30.70,0.14,0.86,-0.33
30.71,0.09,0.89,-0.34
30.71,0.05,0.91,-0.34
30.71,0.02,0.93,-0.33
30.71,0.01,0.93,-0.32
30.72,0.01,0.92,-0.31
30.72,0.02,0.89,-0.29
30.72,0.03,0.83,-0.28
30.72,0.06,0.76,-0.26
30.73,0.09,0.67,-0.25
30.73,0.12,0.57,-0.23
30.73,0.14,0.45,-0.22
30.73,0.17,0.30,-0.21
30.74,0.18,0.13,-0.19
30.74,0.17,-0.07,-0.16
30.74,0.16,-0.27,-0.10
30.74,0.16,-0.47,-0.03
30.74,0.16,-0.65,0.05
30.75,0.16,-0.80,0.14
30.75,0.17,-0.92,0.22
30.75,0.19,-1.02,0.31
30.75,0.21,-1.09,0.39
30.76,0.24,-1.12,0.48
30.76,0.26,-1.13,0.58
30.76,0.29,-1.10,0.68
30.76,0.30,-1.05,0.78
30.77,0.31,-0.97,0.89
30.77,0.31,-0.86,1.00
30.77,0.30,-0.74,1.10
30.77,0.29,-0.59,1.20
30.78,0.27,-0.43,1.28
30.78,0.25,-0.26,1.35
30.78,0.22,-0.07,1.40
30.78,0.19,0.13,1.43
30.78,0.16,0.32,1.45
30.79,0.14,0.51,1.46
30.79,0.11,0.68,1.45
30.79,0.10,0.83,1.44
30.79,0.09,0.94,1.42
30.80,0.08,1.00,1.41
30.80,0.08,1.02,1.40
30.80,0.09,0.99,1.39
30.80,0.10,0.93,1.39
30.81,0.12,0.83,1.38
30.81,0.13,0.72,1.38
30.81,0.15,0.62,1.36
30.81,0.16,0.53,1.34
30.82,0.18,0.46,1.30
30.82,0.20,0.38,1.26
30.82,0.21,0.30,1.22
30.82,0.24,0.22,1.17
30.83,0.26,0.15,1.11
30.83,0.30,0.10,1.05
30.83,0.34,0.04,0.98
30.83,0.38,-0.01,0.91
30.83,0.42,-0.05,0.83
30.84,0.47,-0.08,0.75
30.84,0.52,-0.11,0.68
30.84,0.57,-0.20,0.62
30.84,0.60,-0.35,0.58
30.85,0.64,-0.48,0.52
30.85,0.69,-0.59,0.44
30.85,0.74,-0.72,0.37
30.85,0.78,-0.86,0.29
30.86,0.83,-0.98,0.22
30.86,0.88,-1.07,0.15
30.86,0.93,-1.11,0.10
30.86,0.97,-1.13,0.05
30.87,1.01,-1.14,0.01
30.87,1.04,-1.15,-0.02
30.87,1.06,-1.15,-0.05
30.87,1.07,-1.15,-0.07
30.88,1.07,-1.15,-0.08
30.88,1.07,-1.13,-0.09
30.88,1.07,-1.11,-0.08
30.88,1.06,-1.09,-0.07
30.88,1.04,-1.06,-0.05
30.89,1.01,-1.04,-0.02
30.89,0.98,-1.03,0.02
30.89,0.95,-1.03,0.07
30.89,0.91,-1.03,0.12
30.90,0.87,-1.04,0.19
30.90,0.82,-1.05,0.26
30.90,0.78,-1.06,0.33
30.90,0.74,-1.07,0.40
30.91,0.70,-1.08,0.46
30.91,0.66,-1.09,0.53
30.91,0.63,-1.11,0.59
30.91,0.60,-1.12,0.64
30.92,0.58,-1.13,0.70
30.92,0.56,-1.14,0.75
30.92,0.56,-1.16,0.80
30.92,0.55,-1.18,0.85
30.93,0.55,-1.19,0.89
30.93,0.55,-1.20,0.92
30.93,0.55,-1.21,0.95
30.93,0.55,-1.22,0.97
30.93,0.55,-1.22,0.98
30.94,0.55,-1.23,0.98
30.94,0.55,-1.23,0.98
30.94,0.54,-1.25,0.97
30.94,0.52,-1.26,0.96
30.95,0.51,-1.25,0.96
30.95,0.50,-1.23,0.94
30.95,0.49,-1.23,0.92
30.95,0.48,-1.24,0.89
30.96,0.46,-1.24,0.86
30.96,0.44,-1.24,0.82
30.96,0.42,-1.23,0.78
30.96,0.40,-1.22,0.74
30.97,0.38,-1.21,0.70
30.97,0.36,-1.20,0.66
30.97,0.34,-1.19,0.63
30.97,0.33,-1.18,0.59
30.97,0.31,-1.17,0.55
30.98,0.31,-1.16,0.51
30.98,0.31,-1.15,0.47
30.98,0.31,-1.13,0.43
30.98,0.32,-1.11,0.39
30.99,0.33,-1.09,0.35
30.99,0.35,-1.07,0.31
30.99,0.38,-1.05,0.27
30.99,0.41,-1.03,0.24
31.00,0.44,-1.01,0.20
31.00,0.48,-0.98,0.17
31.00,0.52,-0.96,0.14
31.00,0.56,-0.92,0.11
31.01,0.60,-0.90,0.08
31.01,0.65,-0.86,0.05
31.01,0.69,-0.83,0.03
31.01,0.74,-0.80,0.00
31.02,0.78,-0.77,-0.02
31.02,0.82,-0.73,-0.04
31.02,0.86,-0.69,-0.07
31.02,0.90,-0.66,-0.08
31.02,0.93,-0.63,-0.10
31.03,0.96,-0.59,-0.11
31.03,0.99,-0.56,-0.12
31.03,1.01,-0.53,-0.12
31.03,1.03,-0.50,-0.12
31.04,1.05,-0.48,-0.12
31.04,1.06,-0.46,-0.11
31.04,1.07,-0.44,-0.10
31.04,1.08,-0.41,-0.09
31.05,1.08,-0.39,-0.07
31.05,1.08,-0.37,-0.05
31.05,1.08,-0.35,-0.02
31.05,1.08,-0.33,0.00
31.06,1.07,-0.31,0.03
31.06,1.06,-0.29,0.06
31.06,1.05,-0.27,0.09
31.06,1.04,-0.25,0.12
31.07,1.02,-0.23,0.15
31.07,1.00,-0.21,0.17
31.07,0.99,-0.19,0.20
31.07,0.97,-0.17,0.22
31.07,0.95,-0.15,0.25
31.08,0.94,-0.14,0.26
31.08,0.93,-0.12,0.28
31.08,0.92,-0.11,0.29
31.08,0.91,-0.11,0.30
31.09,0.90,-0.10,0.31
31.09,0.90,-0.10,0.31
31.09,0.90,-0.10,0.31
31.09,0.90,-0.11,0.31
31.10,0.89,-0.12,0.31
31.10,0.90,-0.12,0.31
31.10,0.90,-0.13,0.31
31.10,0.90,-0.14,0.32
31.11,0.91,-0.15,0.33
31.11,0.91,-0.16,0.33
31.11,0.92,-0.17,0.34
31.11,0.93,-0.18,0.34
31.12,0.94,-0.20,0.35
31.12,0.95,-0.22,0.36
31.12,0.96,-0.24,0.36
31.12,0.97,-0.26,0.37
31.12,0.98,-0.28,0.37
31.13,0.99,-0.31,0.38
31.13,1.00,-0.33,0.38
31.13,1.01,-0.35,0.38
31.13,1.02,-0.39,0.38
31.14,1.03,-0.43,0.38
31.14,1.04,-0.47,0.38
31.14,1.04,-0.52,0.37
31.14,1.05,-0.58,0.37
31.15,1.06,-0.64,0.37
31.15,1.06,-0.70,0.36
31.15,1.07,-0.76,0.35
31.15,1.07,-0.83,0.34
31.16,1.07,-0.89,0.33
31.16,1.07,-0.95,0.32
31.16,1.07,-1.01,0.31
31.16,1.06,-1.07,0.30
31.17,1.05,-1.11,0.28
31.17,1.03,-1.16,0.27
31.17,1.01,-1.19,0.25
31.17,0.98,-1.22,0.24
31.17,0.95,-1.24,0.22
31.18,0.90,-1.26,0.21
31.18,0.86,-1.27,0.20
31.18,0.81,-1.27,0.18
31.18,0.75,-1.27,0.16
31.19,0.69,-1.26,0.15
31.19,0.64,-1.24,0.13
31.19,0.58,-1.23,0.12
31.19,0.53,-1.22,0.12
31.20,0.48,-1.21,0.11
31.20,0.44,-1.22,0.10
31.20,0.41,-1.21,0.08
31.20,0.39,-1.20,0.07
31.21,0.37,-1.17,0.06
31.21,0.35,-1.14,0.04
31.21,0.34,-1.11,0.03
31.21,0.33,-1.09,0.02
31.21,0.32,-1.06,0.01
31.22,0.32,-1.04,0.00
31.22,0.31,-1.00,0.00
31.22,0.30,-0.95,-0.01
31.22,0.29,-0.91,-0.02
31.23,0.27,-0.89,-0.03
31.23,0.27,-0.86,-0.04
31.23,0.27,-0.83,-0.05
31.23,0.27,-0.81,-0.07
31.24,0.27,-0.79,-0.07
31.24,0.27,-0.77,-0.08
31.24,0.27,-0.76,-0.09
31.24,0.27,-0.74,-0.10
31.25,0.27,-0.73,-0.11
31.25,0.27,-0.72,-0.12
31.25,0.25,-0.72,-0.12
31.25,0.24,-0.71,-0.13
31.26,0.21,-0.71,-0.13
31.26,0.18,-0.71,-0.14
31.26,0.14,-0.72,-0.14
31.26,0.10,-0.73,-0.15
31.26,0.05,-0.74,-0.15
31.27,0.00,-0.75,-0.16
31.27,-0.05,-0.76,-0.17
31.27,-0.11,-0.77,-0.17
31.27,-0.16,-0.77,-0.18
31.28,-0.22,-0.78,-0.19
31.28,-0.27,-0.78,-0.20
31.28,-0.33,-0.78,-0.21
31.28,-0.39,-0.78,-0.22
31.29,-0.44,-0.78,-0.23
31.29,-0.50,-0.77,-0.25
31.29,-0.55,-0.75,-0.26
31.29,-0.61,-0.73,-0.27
31.30,-0.66,-0.70,-0.29
31.30,-0.71,-0.66,-0.30
31.30,-0.76,-0.62,-0.31
31.30,-0.80,-0.58,-0.32
31.31,-0.85,-0.52,-0.33
31.31,-0.90,-0.45,-0.34
31.31,-0.95,-0.38,-0.35
31.31,-1.00,-0.29,-0.36
31.31,-1.06,-0.19,-0.37
31.32,-1.11,-0.08,-0.38
31.32,-1.17,0.05,-0.39
31.32,-1.24,0.18,-0.40
31.32,-1.30,0.31,-0.41
31.33,-1.36,0.43,-0.42
31.33,-1.42,0.56,-0.44
31.33,-1.48,0.68,-0.46
31.33,-1.53,0.78,-0.48
31.34,-1.57,0.87,-0.50
31.34,-1.60,0.94,-0.53
31.34,-1.62,1.00,-0.55
31.34,-1.63,1.06,-0.58
31.35,-1.64,1.10,-0.61
31.35,-1.64,1.13,-0.63
31.35,-1.64,1.16,-0.65
31.35,-1.63,1.17,-0.68
31.36,-1.62,1.18,-0.70
31.36,-1.62,1.19,-0.71
31.36,-1.61,1.18,-0.73
31.36,-1.61,1.17,-0.74
31.36,-1.60,1.15,-0.76
31.37,-1.61,1.13,-0.77
31.37,-1.61,1.12,-0.79
31.37,-1.62,1.10,-0.81
31.37,-1.64,1.09,-0.82
31.38,-1.66,1.09,-0.84
31.38,-1.69,1.09,-0.87
31.38,-1.72,1.09,-0.89
31.38,-1.75,1.10,-0.92
31.39,-1.79,1.11,-0.95
31.39,-1.83,1.13,-0.98
31.39,-1.86,1.15,-1.02
31.39,-1.90,1.18,-1.06
31.40,-1.94,1.21,-1.09
31.40,-1.97,1.24,-1.13
31.40,-2.00,1.25,-1.16
31.40,-2.03,1.25,-1.19
31.40,-2.05,1.25,-1.22
31.41,-2.07,1.24,-1.23
31.41,-2.09,1.23,-1.24
31.41,-2.09,1.21,-1.25
31.41,-2.10,1.20,-1.24
31.42,-2.10,1.19,-1.23
31.42,-2.11,1.19,-1.24
31.42,-2.11,1.19,-1.26
31.42,-2.10,1.19,-1.28
31.43,-2.09,1.18,-1.30
31.43,-2.08,1.16,-1.31
31.43,-2.05,1.13,-1.33
31.43,-2.01,1.09,-1.36
31.44,-1.98,1.05,-1.39
31.44,-1.94,1.02,-1.42
31.44,-1.90,0.98,-1.44
31.44,-1.86,0.94,-1.46
31.45,-1.81,0.88,-1.47
31.45,-1.76,0.81,-1.46
31.45,-1.72,0.73,-1.44
31.45,-1.67,0.66,-1.40
31.45,-1.62,0.59,-1.35
31.46,-1.58,0.52,-1.28
31.46,-1.54,0.47,-1.20
31.46,-1.48,0.44,-1.10
31.46,-1.43,0.44,-1.00
31.47,-1.39,0.45,-0.89
31.47,-1.34,0.47,-0.77
31.47,-1.30,0.51,-0.65
31.47,-1.25,0.57,-0.53
31.48,-1.21,0.64,-0.42
31.48,-1.16,0.71,-0.33
31.48,-1.12,0.79,-0.25
31.48,-1.07,0.86,-0.19
31.49,-1.03,0.93,-0.15
31.49,-1.00,0.98,-0.12
31.49,-0.97,1.02,-0.10
31.49,-0.95,1.05,-0.09
31.50,-0.94,1.06,-0.09
31.50,-0.93,1.06,-0.10
31.50,-0.93,1.04,-0.13
31.50,-0.94,1.00,-0.17
31.50,-0.94,0.95,-0.22
31.51,-0.95,0.90,-0.27
31.51,-0.96,0.83,-0.32
31.51,-0.97,0.76,-0.37
31.51,-0.98,0.70,-0.41
31.52,-0.98,0.64,-0.44
31.52,-0.99,0.58,-0.48
31.52,-1.00,0.52,-0.51
31.52,-1.02,0.46,-0.54
31.53,-1.04,0.39,-0.56
31.53,-1.07,0.34,-0.57
31.53,-1.10,0.31,-0.59
31.53,-1.13,0.29,-0.60
31.54,-1.17,0.28,-0.61
31.54,-1.20,0.28,-0.62
31.54,-1.24,0.30,-0.64
31.54,-1.26,0.33,-0.66
31.55,-1.28,0.36,-0.68
31.55,-1.29,0.39,-0.70
31.55,-1.29,0.42,-0.72
31.55,-1.29,0.45,-0.74
31.55,-1.28,0.49,-0.76
31.56,-1.27,0.53,-0.77
31.56,-1.25,0.57,-0.78
31.56,-1.22,0.61,-0.79
31.56,-1.19,0.64,-0.80
31.57,-1.16,0.67,-0.80
31.57,-1.14,0.70,-0.80
31.57,-1.11,0.72,-0.80
31.57,-1.09,0.74,-0.80
31.58,-1.07,0.75,-0.79
31.58,-1.05,0.75,-0.78
31.58,-1.04,0.74,-0.77
31.58,-1.02,0.72,-0.76
31.59,-1.00,0.70,-0.75
31.59,-0.99,0.67,-0.74
31.59,-0.98,0.65,-0.73
31.59,-0.97,0.62,-0.71
31.60,-0.96,0.58,-0.70
31.60,-0.94,0.54,-0.67
31.60,-0.93,0.49,-0.65
31.60,-0.91,0.44,-0.62
31.60,-0.89,0.40,-0.60
31.61,-0.87,0.35,-0.57
31.61,-0.84,0.32,-0.54
31.61,-0.82,0.28,-0.51
31.61,-0.79,0.24,-0.48
31.62,-0.76,0.21,-0.45
31.62,-0.72,0.19,-0.42
31.62,-0.69,0.17,-0.39
31.62,-0.65,0.15,-0.36
31.63,-0.62,0.14,-0.34
31.63,-0.58,0.13,-0.31
31.63,-0.54,0.12,-0.29
31.63,-0.50,0.11,-0.27
31.64,-0.46,0.11,-0.25
31.64,-0.42,0.10,-0.23
31.64,-0.37,0.10,-0.22
31.64,-0.32,0.10,-0.20
31.64,-0.28,0.09,-0.19
31.65,-0.23,0.09,-0.17
31.65,-0.18,0.10,-0.16
31.65,-0.13,0.10,-0.14
31.65,-0.08,0.11,-0.12
31.66,-0.03,0.12,-0.11
31.66,0.02,0.14,-0.09
31.66,0.07,0.15,-0.07
31.66,0.11,0.18,-0.06
31.67,0.16,0.20,-0.03
31.67,0.20,0.23,-0.02
31.67,0.24,0.25,0.01
31.67,0.28,0.27,0.03
31.68,0.31,0.29,0.05
31.68,0.34,0.31,0.08
31.68,0.38,0.34,0.11
31.68,0.40,0.36,0.14
31.69,0.43,0.38,0.17
31.69,0.46,0.41,0.21
31.69,0.48,0.43,0.24
31.69,0.50,0.45,0.28
31.69,0.52,0.46,0.32
31.70,0.53,0.48,0.36
31.70,0.55,0.50,0.39
31.70,0.57,0.51,0.43
31.70,0.58,0.52,0.46
31.71,0.59,0.53,0.49
31.71,0.60,0.54,0.52
31.71,0.61,0.54,0.54
31.71,0.62,0.54,0.57
31.72,0.63,0.54,0.59
31.72,0.63,0.53,0.61
31.72,0.64,0.52,0.64
31.72,0.65,0.51,0.65
31.73,0.65,0.50,0.67
31.73,0.66,0.48,0.69
31.73,0.66,0.46,0.71
31.73,0.67,0.44,0.73
31.74,0.67,0.42,0.75
31.74,0.68,0.40,0.77
31.74,0.69,0.37,0.79
31.74,0.69,0.35,0.81
31.74,0.70,0.32,0.83
31.75,0.71,0.29,0.85
31.75,0.72,0.26,0.87
31.75,0.73,0.24,0.89
31.75,0.74,0.21,0.91
31.76,0.74,0.18,0.93
31.76,0.75,0.15,0.94
31.76,0.76,0.13,0.95
31.76,0.76,0.10,0.96
31.77,0.77,0.08,0.97
31.77,0.77,0.06,0.98
31.77,0.77,0.04,0.98
31.77,0.77,0.03,0.99
31.78,0.76,0.02,0.99
31.78,0.76,0.02,0.98
31.78,0.75,0.02,0.97
31.78,0.74,0.02,0.96
31.79,0.73,0.02,0.94
31.79,0.72,0.02,0.92
31.79,0.70,0.03,0.89
31.79,0.68,0.04,0.86
31.79,0.66,0.05,0.83
31.80,0.64,0.06,0.80
31.80,0.61,0.06,0.76
31.80,0.59,0.08,0.71
31.80,0.56,0.09,0.67
31.81,0.53,0.11,0.62
31.81,0.50,0.14,0.56
31.81,0.46,0.18,0.50
31.81,0.42,0.22,0.45
31.82,0.37,0.26,0.39
31.82,0.33,0.31,0.34
31.82,0.28,0.35,0.30
31.82,0.24,0.39,0.26
31.83,0.19,0.42,0.22
31.83,0.14,0.43,0.19
31.83,0.09,0.44,0.16
31.83,0.04,0.44,0.13
31.83,-0.01,0.43,0.10
31.84,-0.06,0.42,0.08
31.84,-0.12,0.40,0.06
31.84,-0.18,0.39,0.04
31.84,-0.24,0.37,0.02
31.85,-0.30,0.35,0.01
31.85,-0.36,0.33,0.00
31.85,-0.43,0.31,0.00
31.85,-0.49,0.30,0.01
31.86,-0.55,0.28,0.01
31.86,-0.60,0.28,0.02
31.86,-0.66,0.27,0.03
31.86,-0.71,0.29,0.04
31.87,-0.76,0.31,0.05
31.87,-0.81,0.32,0.06
31.87,-0.84,0.32,0.08
31.87,-0.85,0.30,0.10
31.88,-0.84,0.28,0.11
31.88,-0.83,0.25,0.13
31.88,-0.80,0.23,0.14
31.88,-0.77,0.21,0.15
31.88,-0.73,0.19,0.16
31.89,-0.69,0.18,0.17
31.89,-0.65,0.18,0.17
31.89,-0.60,0.17,0.18
31.89,-0.55,0.17,0.18
31.90,-0.50,0.18,0.18
31.90,-0.45,0.18,0.18
31.90,-0.40,0.20,0.18
31.90,-0.34,0.22,0.19
31.91,-0.28,0.26,0.20
31.91,-0.22,0.32,0.21
31.91,-0.16,0.39,0.22
31.91,-0.09,0.48,0.24
31.92,-0.03,0.58,0.27
31.92,0.04,0.67,0.29
31.92,0.11,0.77,0.30
31.92,0.18,0.85,0.31
31.93,0.25,0.94,0.30
31.93,0.33,1.02,0.30
31.93,0.40,1.09,0.29
31.93,0.46,1.15,0.28
31.93,0.53,1.19,0.26
31.94,0.58,1.22,0.25
31.94,0.64,1.23,0.22
31.94,0.68,1.23,0.20
31.94,0.71,1.22,0.17
31.95,0.74,1.20,0.15
31.95,0.76,1.18,0.12
31.95,0.77,1.15,0.09
31.95,0.77,1.11,0.06
31.96,0.76,1.07,0.03
31.96,0.74,1.02,-0.01
31.96,0.72,0.96,-0.05
31.96,0.68,0.90,-0.09
31.97,0.62,0.85,-0.13
31.97,0.57,0.80,-0.18
31.97,0.50,0.75,-0.22
31.97,0.44,0.71,-0.28
31.98,0.38,0.67,-0.33
31.98,0.33,0.64,-0.37
31.98,0.27,0.61,-0.40
31.98,0.22,0.59,-0.41
31.98,0.18,0.56,-0.41
31.99,0.14,0.53,-0.41
31.99,0.11,0.49,-0.39
31.99,0.08,0.43,-0.37
31.99,0.05,0.35,-0.35
32.00,0.03,0.26,-0.32
32.00,0.01,0.15,-0.28
32.00,-0.01,0.04,-0.24
32.00,-0.02,-0.07,-0.19
32.01,-0.03,-0.19,-0.13
32.01,-0.04,-0.31,-0.06
32.01,-0.05,-0.42,0.02
32.01,-0.05,-0.52,0.09
32.02,-0.06,-0.62,0.16
32.02,-0.06,-0.70,0.23
32.02,-0.05,-0.78,0.28
32.02,-0.04,-0.84,0.33
32.03,-0.01,-0.87,0.37
32.03,0.02,-0.88,0.40
32.03,0.05,-0.87,0.43
32.03,0.09,-0.85,0.46
32.03,0.12,-0.80,0.50
32.04,0.15,-0.74,0.55
32.04,0.17,-0.68,0.61
32.04,0.18,-0.61,0.67
32.04,0.18,-0.54,0.74
32.05,0.16,-0.46,0.81
32.05,0.14,-0.38,0.88
32.05,0.10,-0.30,0.95
32.05,0.05,-0.21,1.01
32.06,0.01,-0.11,1.06
32.06,-0.04,-0.01,1.09
32.06,-0.09,0.10,1.12
32.06,-0.13,0.20,1.13
32.07,-0.17,0.29,1.13
32.07,-0.19,0.38,1.12
32.07,-0.19,0.45,1.11
32.07,-0.17,0.51,1.10
32.07,-0.14,0.55,1.08
32.08,-0.08,0.55,1.07
32.08,-0.01,0.51,1.07
32.08,0.08,0.45,1.05
32.08,0.17,0.37,1.04
32.09,0.26,0.28,1.02
32.09,0.35,0.18,1.00
32.09,0.42,0.07,0.96
32.09,0.49,-0.03,0.92
32.10,0.54,-0.13,0.89
32.10,0.57,-0.21,0.86
32.10,0.60,-0.27,0.83
32.10,0.63,-0.31,0.80
32.11,0.64,-0.35,0.76
32.11,0.65,-0.40,0.73
32.11,0.65,-0.43,0.69
32.11,0.66,-0.46,0.64
32.12,0.68,-0.48,0.59
32.12,0.69,-0.49,0.54
32.12,0.72,-0.49,0.49
32.12,0.74,-0.49,0.43
32.12,0.76,-0.49,0.39
32.13,0.78,-0.50,0.34
32.13,0.79,-0.56,0.31
32.13,0.79,-0.68,0.28
32.13,0.79,-0.74,0.25
32.14,0.79,-0.76,0.20
32.14,0.79,-0.81,0.16
32.14,0.79,-0.88,0.13
32.14,0.80,-0.94,0.09
32.15,0.80,-0.97,0.06
32.15,0.81,-0.96,0.05
32.15,0.82,-0.93,0.04
32.15,0.83,-0.87,0.04
32.16,0.84,-0.80,0.05
32.16,0.85,-0.74,0.07
32.16,0.86,-0.67,0.10
32.16,0.86,-0.62,0.14
32.17,0.86,-0.58,0.19
32.17,0.86,-0.58,0.24
32.17,0.85,-0.59,0.31
32.17,0.83,-0.63,0.37
32.17,0.82,-0.68,0.43
32.18,0.80,-0.74,0.50
32.18,0.78,-0.80,0.57
32.18,0.75,-0.86,0.64
32.18,0.73,-0.92,0.70
32.19,0.71,-0.97,0.76
32.19,0.69,-1.02,0.81
32.19,0.68,-1.07,0.85
32.19,0.67,-1.10,0.89
32.20,0.66,-1.14,0.92
32.20,0.66,-1.17,0.95
32.20,0.66,-1.21,0.97
32.20,0.65,-1.24,1.00
32.21,0.65,-1.27,1.01
32.21,0.65,-1.28,1.02
32.21,0.66,-1.28,1.02
32.21,0.67,-1.30,1.01
32.22,0.67,-1.33,0.99
32.22,0.67,-1.36,0.96
32.22,0.66,-1.39,0.92
32.22,0.66,-1.42,0.87
32.22,0.65,-1.45,0.83
32.23,0.63,-1.48,0.78
32.23,0.61,-1.51,0.74
32.23,0.59,-1.54,0.69
32.23,0.57,-1.56,0.65
32.24,0.54,-1.59,0.60
32.24,0.52,-1.61,0.56
32.24,0.49,-1.63,0.52
32.24,0.47,-1.64,0.49
32.25,0.45,-1.65,0.45
32.25,0.44,-1.65,0.42
32.25,0.42,-1.64,0.38
32.25,0.42,-1.64,0.35
32.26,0.41,-1.63,0.32
32.26,0.42,-1.63,0.29
32.26,0.42,-1.62,0.25
32.26,0.43,-1.61,0.22
32.26,0.45,-1.60,0.19
32.27,0.47,-1.58,0.16
32.27,0.49,-1.56,0.13
32.27,0.52,-1.53,0.10
32.27,0.56,-1.50,0.08
32.28,0.59,-1.46,0.05
32.28,0.63,-1.42,0.02
32.28,0.67,-1.39,0.00
32.28,0.70,-1.35,-0.02
32.29,0.75,-1.32,-0.05
32.29,0.79,-1.29,-0.07
32.29,0.83,-1.26,-0.09
32.29,0.86,-1.23,-0.11
32.30,0.90,-1.19,-0.12
32.30,0.93,-1.16,-0.13
32.30,0.97,-1.13,-0.14
32.30,0.99,-1.10,-0.14
32.31,1.02,-1.07,-0.14
32.31,1.04,-1.04,-0.14
32.31,1.06,-1.01,-0.14
32.31,1.08,-0.98,-0.13
32.31,1.09,-0.95,-0.12
32.32,1.11,-0.92,-0.12
32.32,1.12,-0.89,-0.11
32.32,1.13,-0.85,-0.09
32.32,1.14,-0.82,-0.08
32.33,1.15,-0.79,-0.06
32.33,1.16,-0.75,-0.05
32.33,1.17,-0.72,-0.03
32.33,1.18,-0.68,-0.02
32.34,1.18,-0.64,0.01
32.34,1.19,-0.60,0.03
32.34,1.20,-0.57,0.05
32.34,1.20,-0.55,0.06
32.35,1.20,-0.52,0.07
32.35,1.20,-0.49,0.09
32.35,1.20,-0.45,0.10
32.35,1.19,-0.42,0.11
32.36,1.19,-0.38,0.12
32.36,1.19,-0.35,0.12
32.36,1.19,-0.33,0.13
32.36,1.18,-0.31,0.13
32.36,1.18,-0.29,0.13
32.37,1.18,-0.27,0.12
32.37,1.17,-0.24,0.12
32.37,1.17,-0.23,0.11
32.37,1.17,-0.21,0.11
32.38,1.16,-0.20,0.10
32.38,1.15,-0.19,0.09
32.38,1.15,-0.17,0.09
32.38,1.14,-0.15,0.08
32.39,1.14,-0.15,0.08
32.39,1.13,-0.14,0.08
32.39,1.12,-0.13,0.08
32.39,1.11,-0.12,0.07
32.40,1.10,-0.12,0.07
32.40,1.09,-0.12,0.07
32.40,1.08,-0.12,0.06
32.40,1.07,-0.13,0.06
32.41,1.06,-0.13,0.06
32.41,1.05,-0.14,0.07
32.41,1.04,-0.15,0.07
32.41,1.03,-0.17,0.07
32.41,1.02,-0.20,0.07
32.42,1.02,-0.23,0.07
32.42,1.01,-0.27,0.06
32.42,1.00,-0.32,0.06
32.42,0.99,-0.36,0.06
32.43,0.98,-0.41,0.05
32.43,0.98,-0.45,0.06
32.43,0.97,-0.49,0.06
32.43,0.96,-0.54,0.06
32.44,0.95,-0.58,0.07
32.44,0.94,-0.63,0.08
32.44,0.92,-0.67,0.08
32.44,0.91,-0.70,0.09
32.45,0.89,-0.73,0.09
32.45,0.87,-0.74,0.09
32.45,0.85,-0.76,0.08
32.45,0.82,-0.79,0.09
32.46,0.78,-0.82,0.09
32.46,0.74,-0.85,0.09
32.46,0.70,-0.87,0.09
32.46,0.65,-0.88,0.08
32.46,0.60,-0.88,0.08
32.47,0.55,-0.88,0.07
32.47,0.50,-0.87,0.07
32.47,0.45,-0.86,0.06
32.47,0.39,-0.85,0.06
32.48,0.34,-0.84,0.05
32.48,0.29,-0.83,0.04
32.48,0.25,-0.82,0.04
32.48,0.21,-0.81,0.04
32.49,0.18,-0.81,0.05
32.49,0.15,-0.81,0.05
32.49,0.13,-0.82,0.06
32.49,0.12,-0.83,0.06
32.50,0.11,-0.82,0.06
32.50,0.11,-0.80,0.06
32.50,0.10,-0.78,0.06
32.50,0.10,-0.76,0.06
32.50,0.10,-0.74,0.06
32.51,0.10,-0.73,0.06
32.51,0.10,-0.71,0.07
32.51,0.10,-0.69,0.07
32.51,0.09,-0.68,0.07
32.52,0.08,-0.65,0.07
32.52,0.05,-0.62,0.07
32.52,0.02,-0.59,0.07
32.52,-0.01,-0.56,0.07
32.53,-0.04,-0.53,0.06
32.53,-0.08,-0.50,0.06
32.53,-0.12,-0.46,0.06
32.53,-0.18,-0.43,0.06
32.54,-0.24,-0.41,0.07
32.54,-0.31,-0.39,0.06
32.54,-0.39,-0.38,0.06
32.54,-0.47,-0.39,0.05
32.55,-0.54,-0.41,0.04
32.55,-0.62,-0.44,0.03
32.55,-0.70,-0.47,0.03
32.55,-0.78,-0.50,0.01
32.55,-0.85,-0.53,0.00
32.56,-0.93,-0.56,-0.02
32.56,-0.99,-0.58,-0.04
32.56,-1.05,-0.60,-0.06
32.56,-1.11,-0.61,-0.08
32.57,-1.16,-0.60,-0.10
32.57,-1.21,-0.57,-0.13
32.57,-1.25,-0.52,-0.16
32.57,-1.30,-0.45,-0.19
32.58,-1.34,-0.37,-0.22
32.58,-1.38,-0.26,-0.26
32.58,-1.42,-0.15,-0.30
32.58,-1.47,-0.02,-0.33
32.59,-1.53,0.11,-0.37
32.59,-1.59,0.26,-0.41
32.59,-1.66,0.41,-0.46
32.59,-1.74,0.57,-0.50
32.60,-1.82,0.73,-0.55
32.60,-1.91,0.87,-0.60
32.60,-2.00,0.99,-0.66
32.60,-2.08,1.08,-0.73
32.60,-2.15,1.16,-0.80
32.61,-2.21,1.22,-0.88
32.61,-2.25,1.26,-0.95
32.61,-2.27,1.28,-1.02
32.61,-2.27,1.29,-1.08
32.62,-2.25,1.28,-1.14
32.62,-2.22,1.27,-1.18
32.62,-2.18,1.24,-1.22
32.62,-2.13,1.21,-1.25
32.63,-2.07,1.19,-1.27
32.63,-2.01,1.15,-1.29
32.63,-1.95,1.12,-1.31
32.63,-1.88,1.08,-1.32
32.64,-1.82,1.05,-1.34
32.64,-1.76,1.02,-1.36
32.64,-1.72,1.00,-1.38
32.64,-1.68,0.98,-1.40
32.65,-1.65,0.96,-1.42
32.65,-1.62,0.94,-1.45
32.65,-1.60,0.92,-1.47
32.65,-1.59,0.90,-1.48
32.65,-1.59,0.89,-1.49
32.66,-1.59,0.89,-1.49
32.66,-1.60,0.90,-1.48
32.66,-1.62,0.90,-1.46
32.66,-1.64,0.91,-1.43
32.67,-1.67,0.93,-1.41
32.67,-1.70,0.96,-1.40
32.67,-1.74,0.99,-1.40
32.67,-1.79,1.00,-1.40
32.68,-1.82,0.98,-1.41
32.68,-1.86,0.95,-1.40
32.68,-1.89,0.90,-1.40
32.68,-1.92,0.83,-1.41
32.69,-1.95,0.76,-1.42
32.69,-1.97,0.70,-1.42
32.69,-1.99,0.64,-1.42
32.69,-2.01,0.57,-1.42
32.69,-2.01,0.51,-1.41
32.70,-2.01,0.45,-1.39
32.70,-2.01,0.40,-1.36
32.70,-2.00,0.34,-1.31
32.70,-1.98,0.30,-1.26
32.71,-1.96,0.26,-1.19
32.71,-1.93,0.23,-1.11
32.71,-1.89,0.23,-1.02
32.71,-1.86,0.25,-0.92
32.72,-1.81,0.27,-0.81
32.72,-1.77,0.30,-0.69
32.72,-1.72,0.34,-0.58
32.72,-1.66,0.40,-0.46
32.73,-1.60,0.47,-0.36
32.73,-1.54,0.54,-0.26
32.73,-1.48,0.60,-0.17
32.73,-1.42,0.65,-0.08
32.74,-1.35,0.70,-0.01
32.74,-1.28,0.73,0.05
32.74,-1.21,0.76,0.10
32.74,-1.14,0.79,0.14
32.74,-1.09,0.82,0.16
32.75,-1.04,0.84,0.17
32.75,-0.99,0.86,0.16
32.75,-0.96,0.89,0.13
32.75,-0.93,0.92,0.09
32.76,-0.91,0.95,0.04
32.76,-0.89,0.97,-0.01
32.76,-0.89,0.98,-0.07
32.76,-0.89,0.98,-0.13
32.77,-0.90,0.96,-0.19
32.77,-0.91,0.94,-0.23
32.77,-0.92,0.91,-0.27
32.77,-0.94,0.87,-0.30
32.78,-0.95,0.81,-0.32
32.78,-0.97,0.76,-0.34
32.78,-0.98,0.71,-0.38
32.78,-0.99,0.67,-0.41
32.79,-1.00,0.65,-0.43
32.79,-1.00,0.64,-0.45
32.79,-0.99,0.63,-0.46
32.79,-0.98,0.64,-0.46
32.79,-0.98,0.67,-0.46
32.80,-0.97,0.71,-0.47
32.80,-0.96,0.77,-0.47
32.80,-0.94,0.83,-0.48
32.80,-0.93,0.89,-0.49
32.81,-0.91,0.94,-0.50
32.81,-0.89,0.99,-0.51
32.81,-0.86,1.03,-0.52
32.81,-0.83,1.06,-0.53
32.82,-0.80,1.08,-0.53
32.82,-0.77,1.09,-0.53
32.82,-0.74,1.10,-0.53
32.82,-0.71,1.11,-0.53
32.83,-0.69,1.10,-0.53
32.83,-0.68,1.10,-0.53
32.83,-0.66,1.09,-0.53
32.83,-0.65,1.08,-0.52
32.84,-0.64,1.07,-0.51
32.84,-0.64,1.05,-0.50
32.84,-0.63,1.04,-0.49
32.84,-0.64,1.02,-0.47
32.84,-0.64,0.99,-0.45
32.85,-0.64,0.96,-0.43
32.85,-0.64,0.93,-0.41
32.85,-0.65,0.91,-0.39
32.85,-0.65,0.88,-0.38
32.86,-0.65,0.84,-0.35
32.86,-0.65,0.80,-0.33
32.86,-0.65,0.75,-0.30
32.86,-0.65,0.71,-0.28
32.87,-0.64,0.66,-0.25
32.87,-0.63,0.62,-0.22
32.87,-0.62,0.58,-0.20
32.87,-0.61,0.54,-0.17
32.88,-0.59,0.51,-0.15
32.88,-0.57,0.48,-0.13
32.88,-0.54,0.45,-0.11
32.88,-0.51,0.43,-0.09
32.89,-0.48,0.41,-0.07
32.89,-0.45,0.39,-0.05
32.89,-0.42,0.38,-0.03
32.89,-0.39,0.38,-0.02
32.89,-0.35,0.37,0.00
32.90,-0.31,0.37,0.02
32.90,-0.28,0.37,0.04
32.90,-0.24,0.37,0.05
32.90,-0.21,0.38,0.07
32.91,-0.18,0.39,0.08
32.91,-0.14,0.41,0.10
32.91,-0.11,0.42,0.11
32.91,-0.08,0.43,0.12
32.92,-0.05,0.44,0.13
32.92,-0.02,0.45,0.15
32.92,0.02,0.45,0.16
32.92,0.05,0.46,0.18
32.93,0.08,0.47,0.20
32.93,0.11,0.48,0.22
32.93,0.14,0.49,0.24
32.93,0.16,0.50,0.26
32.93,0.19,0.51,0.28
32.94,0.21,0.52,0.30
32.94,0.23,0.52,0.31
32.94,0.25,0.52,0.33
32.94,0.27,0.51,0.35
32.95,0.29,0.51,0.36
32.95,0.31,0.49,0.39
32.95,0.34,0.48,0.41
32.95,0.36,0.47,0.44
32.96,0.38,0.45,0.46
32.96,0.40,0.44,0.48
32.96,0.42,0.42,0.51
32.96,0.44,0.40,0.53
32.97,0.46,0.39,0.56
32.97,0.47,0.38,0.58
32.97,0.49,0.36,0.61
32.97,0.50,0.34,0.63
32.98,0.52,0.32,0.65
32.98,0.53,0.30,0.67
32.98,0.54,0.28,0.69
32.98,0.55,0.27,0.71
32.98,0.56,0.26,0.73
32.99,0.57,0.24,0.75
32.99,0.58,0.23,0.76
32.99,0.59,0.21,0.78
32.99,0.60,0.19,0.80
33.00,0.61,0.17,0.81
33.00,0.62,0.16,0.83
33.00,0.63,0.14,0.84
33.00,0.63,0.13,0.86
33.01,0.65,0.12,0.87
33.01,0.66,0.11,0.88
33.01,0.67,0.11,0.89
33.01,0.69,0.10,0.90
33.02,0.70,0.10,0.90
33.02,0.72,0.09,0.91
33.02,0.74,0.08,0.92
33.02,0.75,0.08,0.93
33.03,0.77,0.07,0.93
33.03,0.79,0.06,0.93
33.03,0.80,0.05,0.93
33.03,0.81,0.03,0.93
33.03,0.82,0.02,0.93
33.04,0.82,0.01,0.93
33.04,0.82,0.01,0.92
33.04,0.82,0.00,0.92
33.04,0.81,0.01,0.91
33.05,0.80,0.02,0.91
33.05,0.79,0.03,0.89
33.05,0.77,0.04,0.88
33.05,0.74,0.06,0.86
33.06,0.71,0.07,0.84
33.06,0.68,0.10,0.82
33.06,0.64,0.12,0.79
33.06,0.61,0.14,0.76
33.07,0.57,0.16,0.73
33.07,0.53,0.18,0.70
33.07,0.49,0.20,0.66
33.07,0.44,0.23,0.62
33.08,0.39,0.26,0.58
33.08,0.35,0.28,0.53
33.08,0.30,0.31,0.49
33.08,0.24,0.33,0.45
33.08,0.19,0.35,0.40
33.09,0.13,0.35,0.36
33.09,0.07,0.34,0.31
33.09,0.01,0.32,0.27
33.09,-0.05,0.29,0.23
33.10,-0.11,0.26,0.19
33.10,-0.18,0.21,0.15
33.10,-0.24,0.16,0.11
33.10,-0.32,0.12,0.07
33.11,-0.40,0.10,0.04
33.11,-0.49,0.10,0.00
33.11,-0.57,0.08,-0.03
33.11,-0.65,0.06,-0.07
33.12,-0.73,0.04,-0.10
33.12,-0.81,0.01,-0.12
33.12,-0.89,-0.02,-0.14
33.12,-0.96,-0.05,-0.14
33.12,-1.02,-0.07,-0.15
33.13,-1.08,-0.10,-0.14
33.13,-1.13,-0.11,-0.14
33.13,-1.17,-0.12,-0.13
33.13,-1.20,-0.12,-0.12
33.14,-1.21,-0.12,-0.11
33.14,-1.20,-0.11,-0.10
33.14,-1.18,-0.09,-0.09
33.14,-1.14,-0.07,-0.07
33.15,-1.10,-0.04,-0.05
33.15,-1.04,-0.02,-0.02
33.15,-0.98,0.02,0.01
33.15,-0.92,0.05,0.04
33.16,-0.85,0.08,0.06
33.16,-0.77,0.12,0.09
33.16,-0.70,0.14,0.12
33.16,-0.63,0.16,0.14
33.17,-0.55,0.18,0.17
33.17,-0.48,0.19,0.19
33.17,-0.40,0.20,0.22
33.17,-0.33,0.20,0.24
33.17,-0.26,0.20,0.27
33.18,-0.19,0.20,0.30
33.18,-0.12,0.21,0.33
33.18,-0.06,0.23,0.36
33.18,-0.01,0.25,0.38
33.19,0.04,0.28,0.40
33.19,0.08,0.32,0.42
33.19,0.13,0.37,0.45
33.19,0.16,0.43,0.47
33.20,0.20,0.49,0.50
33.20,0.23,0.56,0.53
33.20,0.27,0.63,0.55
33.20,0.31,0.71,0.57
33.21,0.35,0.80,0.58
33.21,0.39,0.90,0.58
33.21,0.43,0.99,0.58
33.21,0.48,1.08,0.58
33.22,0.53,1.17,0.57
33.22,0.58,1.25,0.57
33.22,0.63,1.31,0.56
33.22,0.68,1.36,0.56
33.22,0.74,1.40,0.56
33.23,0.78,1.42,0.56
33.23,0.83,1.42,0.55
33.23,0.86,1.41,0.54
33.23,0.90,1.37,0.53
33.24,0.92,1.31,0.51
33.24,0.94,1.24,0.48
33.24,0.95,1.16,0.45
33.24,0.95,1.06,0.41
33.25,0.93,0.95,0.35
33.25,0.90,0.83,0.29
33.25,0.85,0.73,0.22
33.25,0.78,0.63,0.15
33.26,0.71,0.55,0.06
33.26,0.63,0.49,-0.02
33.26,0.55,0.47,-0.10
33.26,0.47,0.47,-0.18
33.27,0.40,0.50,-0.24
33.27,0.34,0.54,-0.30
33.27,0.29,0.59,-0.35
33.27,0.25,0.62,-0.39
33.27,0.23,0.64,-0.42
33.28,0.21,0.64,-0.45
33.28,0.20,0.61,-0.48
33.28,0.21,0.54,-0.51
33.28,0.21,0.44,-0.53
33.29,0.22,0.32,-0.55
33.29,0.23,0.16,-0.55
33.29,0.24,-0.02,-0.54
33.29,0.24,-0.21,-0.51
33.30,0.23,-0.41,-0.46
33.30,0.22,-0.59,-0.40
33.30,0.20,-0.77,-0.32
33.30,0.18,-0.92,-0.24
33.31,0.16,-1.06,-0.15
33.31,0.14,-1.16,-0.05
33.31,0.13,-1.24,0.04
33.31,0.13,-1.30,0.13
33.32,0.15,-1.34,0.21
33.32,0.18,-1.34,0.28
33.32,0.21,-1.31,0.34
33.32,0.25,-1.26,0.41
33.32,0.27,-1.18,0.48
33.33,0.29,-1.09,0.56
33.33,0.28,-0.99,0.64
33.33,0.26,-0.88,0.73
33.33,0.22,-0.77,0.81
33.34,0.17,-0.66,0.90
33.34,0.11,-0.53,0.98
33.34,0.04,-0.39,1.07
33.34,-0.03,-0.23,1.15
33.35,-0.10,-0.06,1.23
33.35,-0.16,0.12,1.30
33.35,-0.21,0.30,1.36
33.35,-0.25,0.49,1.40
33.36,-0.28,0.67,1.42
33.36,-0.28,0.84,1.43
33.36,-0.27,0.99,1.43
33.36,-0.24,1.11,1.42
33.36,-0.20,1.16,1.41
33.37,-0.13,1.12,1.39
33.37,-0.05,1.02,1.38
33.37,0.04,0.87,1.35
33.37,0.14,0.67,1.32
33.38,0.24,0.46,1.29
33.38,0.33,0.26,1.24
33.38,0.40,0.07,1.18
33.38,0.46,-0.09,1.12
33.39,0.51,-0.23,1.06
33.39,0.53,-0.35,0.99
33.39,0.54,-0.45,0.93
33.39,0.53,-0.55,0.86
33.40,0.52,-0.63,0.79
33.40,0.51,-0.71,0.72
33.40,0.49,-0.77,0.66
33.40,0.48,-0.81,0.59
33.41,0.48,-0.82,0.52
33.41,0.48,-0.80,0.46
33.41,0.50,-0.78,0.41
33.41,0.52,-0.77,0.36
33.41,0.55,-0.78,0.31
33.42,0.59,-0.80,0.26
33.42,0.64,-0.84,0.21
33.42,0.69,-0.87,0.16
33.42,0.75,-0.90,0.11
33.43,0.80,-0.92,0.05
33.43,0.85,-0.93,-0.01
33.43,0.90,-0.93,-0.08
33.43,0.93,-0.91,-0.13
33.44,0.95,-0.92,-0.18
33.44,0.97,-0.96,-0.19
33.44,0.97,-0.93,-0.19
33.44,0.97,-0.88,-0.20
33.45,0.96,-0.85,-0.20
33.45,0.94,-0.86,-0.18
33.45,0.92,-0.88,-0.17
33.45,0.90,-0.88,-0.15
33.46,0.87,-0.85,-0.12
33.46,0.84,-0.80,-0.08
33.46,0.82,-0.74,-0.02
33.46,0.80,-0.69,0.04
33.46,0.78,-0.65,0.10
33.47,0.76,-0.62,0.18
33.47,0.74,-0.61,0.25
33.47,0.72,-0.62,0.32
33.47,0.71,-0.65,0.40
33.48,0.70,-0.69,0.48
33.48,0.69,-0.74,0.55
33.48,0.68,-0.80,0.62
33.48,0.68,-0.86,0.69
33.49,0.68,-0.93,0.75
33.49,0.69,-0.98,0.79
33.49,0.70,-1.04,0.83
33.49,0.71,-1.10,0.87
33.50,0.72,-1.14,0.89
33.50,0.72,-1.19,0.91
33.50,0.73,-1.22,0.92
33.50,0.74,-1.25,0.92
33.51,0.73,-1.28,0.92
33.51,0.72,-1.31,0.91
33.51,0.70,-1.34,0.91
33.51,0.69,-1.35,0.90
33.51,0.68,-1.34,0.88
33.52,0.65,-1.35,0.86
33.52,0.63,-1.37,0.83
33.52,0.60,-1.39,0.79
33.52,0.57,-1.41,0.75
33.53,0.54,-1.44,0.70
33.53,0.52,-1.46,0.65
33.53,0.49,-1.48,0.61
33.53,0.46,-1.50,0.56
33.54,0.44,-1.52,0.52
33.54,0.43,-1.53,0.48
33.54,0.42,-1.53,0.43
33.54,0.42,-1.53,0.40
33.55,0.43,-1.53,0.36
33.55,0.44,-1.52,0.33
33.55,0.46,-1.50,0.30
33.55,0.49,-1.49,0.27
33.55,0.52,-1.47,0.24
33.56,0.56,-1.46,0.21
33.56,0.60,-1.44,0.18
33.56,0.65,-1.42,0.15
33.56,0.70,-1.40,0.12
33.57,0.75,-1.38,0.10
33.57,0.81,-1.36,0.07
33.57,0.87,-1.32,0.05
33.57,0.92,-1.29,0.03
33.58,0.98,-1.25,0.02
33.58,1.03,-1.21,0.00
33.58,1.08,-1.17,-0.01
33.58,1.12,-1.13,-0.03
33.59,1.16,-1.10,-0.04
33.59,1.19,-1.06,-0.04
33.59,1.22,-1.03,-0.04
33.59,1.25,-1.00,-0.04
33.60,1.27,-0.97,-0.04
33.60,1.28,-0.95,-0.03
33.60,1.30,-0.92,-0.02
33.60,1.31,-0.89,-0.01
33.60,1.33,-0.85,0.01
33.61,1.34,-0.82,0.03
33.61,1.34,-0.80,0.06
33.61,1.35,-0.78,0.08
33.61,1.35,-0.76,0.10
33.62,1.35,-0.74,0.11
33.62,1.35,-0.72,0.13
33.62,1.34,-0.69,0.15
33.62,1.34,-0.66,0.17
33.63,1.33,-0.64,0.18
33.63,1.32,-0.62,0.19
33.63,1.32,-0.60,0.20
33.63,1.31,-0.58,0.21
33.64,1.29,-0.56,0.21
33.64,1.27,-0.54,0.21
33.64,1.26,-0.52,0.21
33.64,1.23,-0.50,0.21
33.65,1.21,-0.48,0.21
33.65,1.19,-0.46,0.20
33.65,1.16,-0.45,0.19
33.65,1.13,-0.44,0.19
33.65,1.11,-0.43,0.18
33.66,1.08,-0.42,0.17
33.66,1.06,-0.41,0.17
33.66,1.03,-0.39,0.16
33.66,1.01,-0.38,0.15
33.67,0.98,-0.37,0.14
33.67,0.96,-0.37,0.13
33.67,0.93,-0.37,0.13
33.67,0.91,-0.36,0.12
33.68,0.89,-0.36,0.12
33.68,0.87,-0.36,0.12
33.68,0.85,-0.36,0.11
33.68,0.83,-0.36,0.11
33.69,0.81,-0.36,0.11
33.69,0.79,-0.37,0.11
33.69,0.77,-0.37,0.11
33.69,0.76,-0.38,0.11
33.70,0.74,-0.39,0.12
33.70,0.73,-0.40,0.12
33.70,0.72,-0.41,0.12
33.70,0.71,-0.42,0.12
33.70,0.70,-0.45,0.12
33.71,0.69,-0.47,0.11
33.71,0.68,-0.49,0.11
33.71,0.68,-0.51,0.11
33.71,0.68,-0.54,0.11
33.72,0.67,-0.58,0.11
33.72,0.67,-0.63,0.11
33.72,0.66,-0.70,0.10
33.72,0.65,-0.77,0.09
33.73,0.65,-0.82,0.09
33.73,0.65,-0.86,0.08
33.73,0.65,-0.89,0.08
33.73,0.65,-0.91,0.08
33.74,0.65,-0.93,0.08
33.74,0.65,-0.95,0.08
33.74,0.65,-0.95,0.09
33.74,0.65,-0.95,0.09
33.75,0.65,-0.95,0.10
33.75,0.64,-0.95,0.10
33.75,0.63,-0.96,0.10
33.75,0.61,-0.96,0.10
33.75,0.59,-0.97,0.10
33.76,0.57,-0.97,0.10
33.76,0.55,-0.98,0.10
33.76,0.54,-0.99,0.10
33.76,0.52,-1.00,0.10
33.77,0.50,-1.00,0.10
33.77,0.48,-1.00,0.10
33.77,0.47,-0.99,0.11
33.77,0.45,-1.00,0.10
33.78,0.45,-1.00,0.10
33.78,0.44,-0.99,0.11
33.78,0.43,-0.99,0.11
33.78,0.42,-0.98,0.11
33.79,0.40,-0.96,0.12
33.79,0.38,-0.93,0.12
33.79,0.36,-0.90,0.13
33.79,0.34,-0.86,0.13
33.79,0.31,-0.83,0.14
33.80,0.29,-0.81,0.15
33.80,0.26,-0.78,0.16
33.80,0.23,-0.76,0.16
33.80,0.19,-0.73,0.16
33.81,0.15,-0.70,0.16
33.81,0.10,-0.67,0.15
33.81,0.05,-0.64,0.15
33.81,0.00,-0.62,0.14
33.82,-0.05,-0.61,0.14
33.82,-0.11,-0.60,0.13
33.82,-0.16,-0.59,0.12
