"Time (s)","Acceleration x (m/s^2)","Acceleration y (m/s^2)","Acceleration z (m/s^2)"
1.051600000E-4,2.189047337E0,4.342488289E0,7.526795387E0
2.100472000E-3,2.205567360E0,4.314437389E0,7.635070801E0
4.100472000E-3,2.217164755E0,4.304286003E0,7.694207668E0
6.100472000E-3,2.223773003E0,4.298501968E0,7.727946758E0
8.100472000E-3,2.225822210E0,4.296700954E0,7.738395214E0
1.010047200E-2,2.220401764E0,4.282307625E0,7.865642071E0
1.210047200E-2,2.203910589E0,4.273353100E0,8.028017044E0
1.410047200E-2,2.182276726E0,4.263220787E0,8.134022713E0
1.610047200E-2,2.139487267E0,4.254333496E0,8.221018791E0
1.810047200E-2,2.114759922E0,4.248061180E0,8.257581711E0
2.010047200E-2,2.100902319E0,4.250042915E0,8.286255836E0
2.210984700E-2,2.070017338E0,4.240159988E0,8.292595863E0
2.410047200E-2,2.056063652E0,4.222730160E0,8.305676460E0
2.610047200E-2,2.032255888E0,4.205032349E0,8.326056480E0
2.810047200E-2,2.018407822E0,4.199008465E0,8.340661049E0
3.010047200E-2,1.998507261E0,4.178159714E0,8.338018417E0
3.210047200E-2,1.978654385E0,4.159590244E0,8.351876259E0
3.410359700E-2,1.970763206E0,4.149630547E0,8.378566742E0
3.610047200E-2,1.951341391E0,4.153279305E0,8.421958923E0
3.810047200E-2,1.916855335E0,4.149965286E0,8.464699745E0
4.010047200E-2,1.884016514E0,4.151258469E0,8.505660057E0
4.210516000E-2,1.841888070E0,4.141470909E0,8.545001984E0
4.410047200E-2,1.810868740E0,4.135916710E0,8.578644753E0
4.610047200E-2,1.754959464E0,4.132363319E0,8.635732651E0
4.810047200E-2,1.721603394E0,4.138721943E0,8.664634705E0
5.010516000E-2,1.691685438E0,4.136347294E0,8.695300102E0
5.210047200E-2,1.649432659E0,4.125515938E0,8.710909843E0
5.410047200E-2,1.618911266E0,4.125908852E0,8.720209122E0
5.610047200E-2,1.553520918E0,4.116734028E0,8.727219582E0
5.810828500E-2,1.519829750E0,4.123830795E0,8.731155396E0
6.010047200E-2,1.476446748E0,4.123571873E0,8.719357491E0
6.210047200E-2,1.402092457E0,4.119511127E0,8.703938484E0
6.410047200E-2,1.347293973E0,4.113784313E0,8.676883698E0
6.610047200E-2,1.295741916E0,4.109139442E0,8.649944305E0
6.810047200E-2,1.180896878E0,4.127258778E0,8.591669083E0
7.010047200E-2,1.112863302E0,4.149496078E0,8.556818962E0
7.210047200E-2,1.078291059E0,4.155663490E0,8.514288902E0
7.410047200E-2,1.041161776E0,4.140369415E0,8.491765022E0
7.610047200E-2,1.048631549E0,4.093031406E0,8.468463898E0
7.810047200E-2,1.153880715E0,3.995204449E0,8.462152481E0
8.010047200E-2,1.296939135E0,3.900691032E0,8.483968735E0
8.210516000E-2,1.439164162E0,3.835625887E0,8.500622749E0
8.410047200E-2,1.558692336E0,3.788402796E0,8.550412178E0
8.610047200E-2,1.658137918E0,3.764096975E0,8.594322205E0
8.810047200E-2,1.772992611E0,3.797299623E0,8.713237762E0
9.016141000E-2,1.836975217E0,3.835788727E0,8.786950111E0
9.210047200E-2,1.869210720E0,3.860018015E0,8.866226196E0
9.410047200E-2,1.894177437E0,3.883241892E0,8.932746887E0
9.610047200E-2,1.902624249E0,3.897578478E0,9.028161049E0
9.810047200E-2,1.861654639E0,3.813034534E0,9.205255508E0
1.001004720E-1,1.674370646E0,3.584187031E0,9.483241081E0
1.021004720E-1,1.662476182E0,3.563730955E0,9.613323212E0
1.041004720E-1,1.764095664E0,3.669621468E0,9.631834984E0
1.061004720E-1,1.920944571E0,3.811281681E0,9.592052460E0
1.081004720E-1,2.143471479E0,3.942043543E0,9.500470161E0
1.101004720E-1,2.306411028E0,4.009129047E0,9.435117722E0
1.121004720E-1,2.737070560E0,4.086653233E0,9.345152855E0
1.141004720E-1,2.771058559E0,4.019395351E0,9.341543198E0
1.161004720E-1,2.766107321E0,3.985426426E0,9.315006256E0
1.181004720E-1,2.756923437E0,3.953392029E0,9.276967049E0
1.201004720E-1,2.732904434E0,3.921165943E0,9.238669395E0
1.221004720E-1,2.716566563E0,3.907921314E0,9.224485397E0
1.241004720E-1,2.682492495E0,3.878913403E0,9.183947563E0
1.261004720E-1,2.634972095E0,3.859740496E0,9.142584801E0
1.281004720E-1,2.560071945E0,3.855593681E0,9.098387718E0
1.301004720E-1,2.495926619E0,3.853640079E0,9.054919243E0
1.321004720E-1,2.433064461E0,3.850652218E0,9.029617310E0
1.341317220E-1,2.397218466E0,3.840088844E0,9.009275436E0
1.361004720E-1,2.354103565E0,3.830646038E0,9.002781868E0
1.381004720E-1,2.318228960E0,3.792386770E0,9.005234718E0
1.401067220E-1,2.303375244E0,3.772371292E0,8.993800163E0
1.421020350E-1,2.299391270E0,3.747538567E0,8.988206863E0
1.441004720E-1,2.295551062E0,3.741361618E0,8.968899727E0
1.461004720E-1,2.300741673E0,3.719143391E0,8.941893578E0
1.481051600E-1,2.308154106E0,3.695172548E0,8.897542953E0
1.501004720E-1,2.306890011E0,3.697212458E0,8.854533195E0
1.521004720E-1,2.319924116E0,3.698457479E0,8.799467087E0
1.541176600E-1,2.338177443E0,3.717323780E0,8.740406990E0
1.561348470E-1,2.333341122E0,3.728049755E0,8.663409233E0
1.581004720E-1,2.341519833E0,3.743535519E0,8.611167908E0
1.601004720E-1,2.350598335E0,3.755621433E0,8.558839798E0
1.621114100E-1,2.393224955E0,3.778969765E0,8.507441521E0
1.641004720E-1,2.434596777E0,3.793076277E0,8.461510658E0
1.661004720E-1,2.532624722E0,3.810755014E0,8.412036896E0
1.681145350E-1,2.604996920E0,3.811367989E0,8.392031670E0
1.701020350E-1,2.946467638E0,3.750382900E0,8.383277893E0
1.721457850E-1,3.436493397E0,3.660294056E0,8.418243408E0
1.741004720E-1,3.676948071E0,3.668415070E0,8.384858131E0
1.761004720E-1,3.632703066E0,3.719181538E0,8.335068703E0
1.781004720E-1,3.493619204E0,3.773779154E0,8.299155235E0
1.801223470E-1,3.333954573E0,3.810486794E0,8.264391899E0
1.821145350E-1,3.176349163E0,3.837886333E0,8.236187935E0
1.841082850E-1,3.041852236E0,3.852069378E0,8.216976166E0
1.861004720E-1,2.856866598E0,3.854387045E0,8.147899628E0
1.881098470E-1,2.770713806E0,3.857585669E0,8.112589836E0
1.901020350E-1,2.594577074E0,3.830799341E0,8.059399605E0
1.921035970E-1,2.445763111E0,3.792712450E0,8.008068085E0
1.941004720E-1,2.274893761E0,3.732167721E0,7.954323292E0
1.961129720E-1,2.054617643E0,3.622541904E0,7.892964840E0
1.981114100E-1,1.394344687E0,3.047416449E0,7.785368919E0
2.001004720E-1,-3.103077114E-1,1.363804340E0,7.621098042E0
2.021004720E-1,-1.638907671E0,4.051564038E-1,7.403685570E0
2.041004720E-1,-2.221886158E0,2.956072986E-1,7.372541904E0
2.061051600E-1,-2.440285444E0,5.846640468E-1,7.443400860E0
2.081035970E-1,-2.467243910E0,1.070945501E0,7.480223656E0
2.101004720E-1,-2.307770967E0,1.789282680E0,7.470273495E0
2.121051600E-1,-2.083769560E0,2.298471928E0,7.567621708E0
2.141098470E-1,-1.870446205E0,2.740058661E0,7.673799515E0
2.161114100E-1,-1.630547166E0,3.071597815E0,7.838903904E0
2.181145350E-1,-1.392630458E0,3.315758467E0,7.977451324E0
2.201020350E-1,-9.679948688E-1,3.531342030E0,8.097601891E0
2.221098470E-1,-5.808524489E-1,3.618788004E0,8.145054817E0
2.241020350E-1,-1.118954122E-1,3.638094664E0,8.233783722E0
2.261129720E-1,4.205654562E-1,3.641925573E0,8.371603966E0
2.281004720E-1,1.219692469E0,3.614009380E0,8.642713547E0
2.301317220E-1,1.824506283E0,3.608502388E0,8.873016357E0
2.321004720E-1,2.365998030E0,3.589147806E0,9.081254959E0
2.341114100E-1,2.844072342E0,3.578967571E0,9.235345840E0
2.361004720E-1,3.367722511E0,3.565742016E0,9.403131485E0
2.381317220E-1,3.583822966E0,3.569850683E0,9.470083237E0
2.401114100E-1,3.919911623E0,3.564765215E0,9.602175713E0
2.421004720E-1,4.108325481E0,3.559095621E0,9.687418938E0
2.441004720E-1,4.249506950E0,3.537672281E0,9.751688004E0
2.461004720E-1,4.367837906E0,3.510311604E0,9.805510521E0
2.481020350E-1,4.451424122E0,3.462800980E0,9.890092850E0
2.501004720E-1,4.437241077E0,3.372453451E0,9.904085159E0
2.521020350E-1,4.375977993E0,3.296777248E0,9.873917580E0
2.541426600E-1,4.290083885E0,3.230496407E0,9.826579094E0
2.561004720E-1,4.125985146E0,3.139267683E0,9.732956886E0
2.581004720E-1,4.003325462E0,3.099045277E0,9.664253235E0
2.601051600E-1,3.843287706E0,3.059454679E0,9.609607697E0
2.621004720E-1,3.651827812E0,3.011589527E0,9.505412102E0
2.641020350E-1,3.463030815E0,2.982006788E0,9.403820992E0
2.661035970E-1,3.285227776E0,2.967574596E0,9.279102325E0
2.681160970E-1,3.085417271E0,2.956906319E0,9.147105217E0
2.701004720E-1,2.825177193E0,2.956896544E0,8.987363815E0
2.721020350E-1,2.314177990E0,3.061245441E0,8.645462036E0
2.741004720E-1,2.064711571E0,3.094036341E0,8.398294449E0
2.761004720E-1,1.983040690E0,3.092772245E0,8.315216064E0
2.781004720E-1,1.952050090E0,3.071636200E0,8.243399620E0
2.801051600E-1,1.907268882E0,3.061925411E0,8.120711327E0
2.821004720E-1,1.869067073E0,3.061800718E0,8.015758514E0
2.841004720E-1,1.809231162E0,3.080399275E0,7.920804501E0
2.861004720E-1,1.741934896E0,3.105222225E0,7.919291496E0
2.881035970E-1,1.654383779E0,3.140330791E0,7.933982372E0
2.901004720E-1,1.582241654E0,3.180543661E0,7.970852852E0
2.921004720E-1,1.541090250E0,3.222700834E0,8.039624214E0
2.941223470E-1,1.507705450E0,3.246853590E0,8.149996758E0
2.961004720E-1,1.488762498E0,3.265422821E0,8.230863571E0
2.981395350E-1,1.486358762E0,3.261008024E0,8.276611328E0
3.001004720E-1,1.492152691E0,3.225085497E0,8.340402603E0
3.021098470E-1,1.510961533E0,3.165172815E0,8.433469772E0
3.041114100E-1,1.554555178E0,3.104015350E0,8.491103172E0
3.061067220E-1,1.619715691E0,3.026395559E0,8.526068687E0
3.081004720E-1,1.689741373E0,2.948047638E0,8.551475525E0
3.101114100E-1,1.807995677E0,2.852490187E0,8.588097572E0
3.121270350E-1,1.905286551E0,2.793612003E0,8.602337837E0
3.141082850E-1,2.005383253E0,2.751406908E0,8.603832245E0
3.161004720E-1,2.110259056E0,2.715264082E0,8.614098549E0
3.181004720E-1,2.250338793E0,2.697374821E0,8.637589455E0
3.201239100E-1,2.366610765E0,2.684034109E0,8.646880150E0
3.221098470E-1,2.545611143E0,2.681735754E0,8.687351227E0
3.241129720E-1,2.827360630E0,2.709029436E0,8.793127060E0
3.261004720E-1,3.082218647E0,2.732942820E0,8.851996422E0
3.281114100E-1,3.291481495E0,2.736084223E0,8.880429268E0
3.301004720E-1,3.457936049E0,2.735049725E0,8.875823021E0
3.321004720E-1,3.599816322E0,2.738574028E0,8.840848923E0
3.341004720E-1,3.719478607E0,2.737884521E0,8.783196449E0
3.361004720E-1,3.830282211E0,2.739072084E0,8.723407745E0
3.381004720E-1,3.974499226E0,2.706348181E0,8.609405518E0
3.401004720E-1,4.088405609E0,2.671162844E0,8.532131195E0
3.421114100E-1,4.228083611E0,2.646110058E0,8.461846352E0
3.441004720E-1,4.384846210E0,2.596703291E0,8.403656960E0
3.461004720E-1,4.506443024E0,2.559698582E0,8.354585648E0
3.481004720E-1,4.570483208E0,2.556921244E0,8.317102432E0
3.501004720E-1,4.621661663E0,2.577166557E0,8.270482063E0
3.521114100E-1,4.701828957E0,2.584895134E0,8.192786217E0
3.541004720E-1,4.814701080E0,2.572799444E0,8.096031189E0
3.561004720E-1,4.847645283E0,2.589903831E0,8.011372566E0
3.581004720E-1,4.760822296E0,2.641474962E0,7.946776867E0
3.601254720E-1,4.634772301E0,2.699634790E0,7.875305176E0
3.621223470E-1,4.480547428E0,2.743391037E0,7.828896046E0
3.641473470E-1,4.317129135E0,2.784992933E0,7.802865982E0
3.661207850E-1,4.164752007E0,2.788661003E0,7.810910702E0
3.681004720E-1,4.002357960E0,2.795948744E0,7.840675354E0
3.701192220E-1,3.843555689E0,2.770857334E0,7.872278690E0
3.721051600E-1,3.685729980E0,2.752709389E0,7.916178703E0
3.741004720E-1,3.554767132E0,2.716432571E0,7.969292164E0
3.761004720E-1,3.433735371E0,2.723423481E0,8.036636353E0
3.781035970E-1,3.217165470E0,2.776699543E0,8.218010902E0
3.801004720E-1,3.057596684E0,2.841572762E0,8.460265160E0
3.821004720E-1,2.947463274E0,2.898229122E0,8.636737823E0
3.841004720E-1,2.880607605E0,2.995376110E0,8.719088554E0
3.861082850E-1,2.771250248E0,3.152359247E0,8.734334946E0
3.881457850E-1,2.534588099E0,3.488380671E0,8.768687248E0
3.901051600E-1,2.044035196E0,4.058774948E0,8.884738922E0
3.921004720E-1,1.615952015E0,4.549021721E0,9.104344368E0
3.941004720E-1,1.544853926E0,4.696303368E0,9.197670937E0
3.961004720E-1,1.650380731E0,4.674975395E0,9.106355667E0
3.981004720E-1,1.794109344E0,4.579964161E0,8.815019608E0
4.001004720E-1,1.931450486E0,4.419878483E0,8.582447052E0
4.021254720E-1,2.034056187E0,4.269464970E0,8.447088242E0
4.041067220E-1,2.147426605E0,4.015123844E0,8.279876709E0
4.061035970E-1,2.279404640E0,3.710897684E0,8.148694038E0
4.081004720E-1,2.396116972E0,3.382499456E0,8.061583519E0
4.101520350E-1,2.443292379E0,3.083061457E0,7.990207672E0
4.121145350E-1,2.477261305E0,2.779945850E0,7.952197075E0
4.141098470E-1,2.513461590E0,2.488111734E0,7.933991909E0
4.161020350E-1,2.555168629E0,2.180744171E0,7.917490959E0
4.181192220E-1,2.568882465E0,2.028722048E0,7.910251141E0
4.201317220E-1,2.555676222E0,1.948410869E0,7.917078972E0
4.221004720E-1,2.505694866E0,1.948592901E0,7.967922211E0
4.241004720E-1,2.368813515E0,2.057873726E0,8.061429977E0
4.261614100E-1,2.260413885E0,2.243970156E0,8.153655052E0
4.281098470E-1,2.183492661E0,2.475135326E0,8.188447952E0
4.301004720E-1,2.145089865E0,2.741475821E0,8.200160027E0
4.321004720E-1,2.287851334E0,3.755975723E0,8.175327301E0
4.341020350E-1,2.602669716E0,3.939275980E0,8.097535133E0
4.361348470E-1,2.973052740E0,3.888595343E0,7.980276585E0
4.381004720E-1,3.257905245E0,3.758532763E0,7.856314659E0
4.401004720E-1,3.500878334E0,3.631515741E0,7.736977577E0
4.421020350E-1,3.767582655E0,3.438686609E0,7.646304607E0
4.441004720E-1,4.004675865E0,3.255530119E0,7.534744263E0
4.461020350E-1,4.174730778E0,3.060048342E0,7.477704525E0
4.481004720E-1,4.357284069E0,2.768894196E0,7.431544304E0
4.501004720E-1,4.490698814E0,2.543379545E0,7.409738064E0
4.521004720E-1,4.611366749E0,2.325287104E0,7.401779652E0
4.541004720E-1,4.684399605E0,2.124423027E0,7.402823925E0
4.561004720E-1,4.692338467E0,1.965553403E0,7.414421558E0
4.581004720E-1,4.715906620E0,1.816758513E0,7.474831581E0
4.601004720E-1,4.713637352E0,1.672014594E0,7.534945488E0
4.621004720E-1,4.702499390E0,1.540917873E0,7.573328972E0
4.641004720E-1,4.690289021E0,1.401833892E0,7.595011234E0
4.661004720E-1,4.678298950E0,1.263630986E0,7.589667320E0
4.681082850E-1,4.716300011E0,1.084037066E0,7.561003685E0
4.701145350E-1,4.756292343E0,8.947036266E-1,7.479447842E0
4.721004720E-1,4.817746639E0,6.915029287E-1,7.404289246E0
4.741004720E-1,5.021933556E0,4.783136249E-1,7.250609875E0
4.761067220E-1,5.263097286E0,2.532107830E-1,7.064561367E0
4.781051600E-1,5.429111004E0,1.067239344E-1,6.948136330E0
4.801004720E-1,5.751054287E0,-1.553836912E-1,6.766014099E0
4.821004720E-1,6.094057083E0,-4.458673894E-1,6.665582180E0
4.841004720E-1,6.345218658E0,-6.505908370E-1,6.635520458E0
4.861004720E-1,6.548984528E0,-8.159726858E-1,6.614940166E0
4.881004720E-1,6.632944107E0,-9.019820094E-1,6.626585484E0
4.901004720E-1,6.593468666E0,-9.188945889E-1,6.677917004E0
4.921067220E-1,6.443371773E0,-8.699092269E-1,6.796209335E0
4.941004720E-1,6.243474483E0,-7.911208272E-1,6.939411640E0
4.961004720E-1,6.080122948E0,-7.556387782E-1,7.063421726E0
4.981504720E-1,5.924317837E0,-6.826061010E-1,7.171017170E0
5.001035970E-1,5.929508686E0,-7.302219272E-1,7.199613094E0
5.021004720E-1,5.994132996E0,-8.130613565E-1,7.191904068E0
5.041004720E-1,6.144699574E0,-9.297259450E-1,7.142660141E0
5.061035970E-1,6.375452518E0,-1.108620763E0,7.115423679E0
5.081129720E-1,6.539369106E0,-1.207482100E0,7.096950054E0
5.101067220E-1,6.654654980E0,-1.271072149E0,7.091137409E0
5.121004720E-1,6.765870094E0,-1.329797149E0,7.114552021E0
5.141004720E-1,6.805556774E0,-1.352972865E0,7.173756123E0
5.161067220E-1,6.795951366E0,-1.349180579E0,7.248465061E0
5.181004720E-1,6.712173462E0,-1.304169536E0,7.379542351E0
5.201020350E-1,6.521939278E0,-1.215593576E0,7.603304863E0
5.221051600E-1,6.350801945E0,-1.152779460E0,7.802444935E0
5.241551600E-1,6.178534031E0,-1.111953497E0,7.941289425E0
5.261067220E-1,5.989497662E0,-1.064165115E0,8.079626083E0
5.281457850E-1,5.781039715E0,-9.971658587E-1,8.183659554E0
5.301489100E-1,5.579955101E0,-9.163471460E-1,8.251185417E0
5.321020350E-1,5.447450638E0,-8.835466504E-1,8.244155884E0
5.341098470E-1,5.390688896E0,-9.170366526E-1,8.207438469E0
5.361004720E-1,5.419467449E0,-1.004568696E0,8.121639252E0
5.381067220E-1,5.475711346E0,-1.108812213E0,8.088953972E0
5.401004720E-1,5.602393627E0,-1.281041503E0,8.008403778E0
5.421004720E-1,5.763686180E0,-1.490620375E0,7.971149921E0
5.441004720E-1,5.990321159E0,-1.800296068E0,7.855088234E0
5.461004720E-1,6.208327770E0,-2.073905468E0,7.757452965E0
5.481004720E-1,6.392250538E0,-2.312942266E0,7.668800354E0
5.501004720E-1,6.544531345E0,-2.544241428E0,7.616348267E0
5.521004720E-1,6.622256279E0,-2.741131067E0,7.666166782E0
5.541004720E-1,6.632733345E0,-2.910966396E0,7.800242424E0
5.561004720E-1,6.580750465E0,-3.055154562E0,8.060616493E0
5.581035970E-1,6.452057838E0,-3.177958012E0,8.375185966E0
5.601645350E-1,6.193311691E0,-3.231904030E0,8.735072136E0
5.621004720E-1,5.766530991E0,-3.356086731E0,9.164304733E0
5.641004720E-1,5.484952927E0,-3.673854828E0,9.308550835E0
5.661035970E-1,5.284884453E0,-3.865074635E0,9.259900093E0
5.681051600E-1,4.759376049E0,-3.791869640E0,8.993933678E0
5.701004720E-1,4.372454166E0,-3.561939955E0,8.645194054E0
5.721004720E-1,4.024863720E0,-3.340380669E0,8.191282272E0
5.741145350E-1,3.776230812E0,-3.249352932E0,7.687963486E0
5.761426600E-1,3.511671305E0,-3.099408865E0,7.211335659E0
5.781364100E-1,3.314073324E0,-2.989141703E0,7.028284550E0
5.801035970E-1,3.176176786E0,-2.991650820E0,6.885753155E0
5.821035970E-1,3.073465347E0,-3.036987305E0,6.795424461E0
5.841129720E-1,2.998057604E0,-3.034794092E0,6.814329147E0
5.861035970E-1,3.043269873E0,-3.004091024E0,6.989546299E0
5.881004720E-1,3.131634951E0,-3.019998074E0,7.078668118E0
5.901035970E-1,3.249774456E0,-3.015372515E0,7.163470745E0
5.921004720E-1,3.408462048E0,-3.014366865E0,7.252228737E0
5.941020350E-1,3.623528481E0,-3.022861481E0,7.325491428E0
5.961473470E-1,3.904674768E0,-3.012633562E0,7.470512867E0
5.981004720E-1,4.358069897E0,-3.012164354E0,7.682284832E0
6.001020350E-1,4.747903347E0,-3.010411978E0,7.828637123E0
6.021004720E-1,5.195714474E0,-3.057070017E0,8.036961555E0
6.041004720E-1,6.877536297E0,-3.384060621E0,8.711877823E0
6.061004720E-1,7.724824905E0,-3.645047665E0,8.775362015E0
6.081004720E-1,8.375741005E0,-3.864538431E0,8.681681633E0
6.101020350E-1,8.788405418E0,-4.025447845E0,8.596027374E0
6.121004720E-1,9.173259735E0,-4.172834873E0,8.531019211E0
6.141004720E-1,9.528203964E0,-4.282872677E0,8.556197166E0
6.161004720E-1,9.829529762E0,-4.400312901E0,8.582179070E0
6.181004720E-1,1.009408855E1,-4.445046425E0,8.619958878E0
6.201004720E-1,1.029363060E1,-4.429311752E0,8.655116081E0
6.221082850E-1,1.043430424E1,-4.393982410E0,8.651888847E0
6.241051600E-1,1.048072338E1,-4.328707218E0,8.643671989E0
6.261020350E-1,1.046119595E1,-4.286846638E0,8.602778435E0
6.281051600E-1,1.041984367E1,-4.218353748E0,8.514145851E0
6.301098470E-1,1.038715839E1,-4.168592453E0,8.444511414E0
6.321004720E-1,1.032174778E1,-4.116801262E0,8.365685463E0
6.341004720E-1,1.018460846E1,-4.065699100E0,8.268776894E0
6.361348470E-1,1.001596069E1,-4.020506382E0,8.210024834E0
6.381035970E-1,9.815881729E0,-3.959310532E0,8.169399261E0
6.401489100E-1,9.574929237E0,-3.898660660E0,8.108605385E0
6.421082850E-1,9.284800529E0,-3.851073503E0,8.069139481E0
6.441004720E-1,8.955942154E0,-3.816309452E0,8.052131653E0
6.461004720E-1,8.594130516E0,-3.787215233E0,8.031071663E0
6.481004720E-1,8.251117706E0,-3.765552521E0,8.021897316E0
6.501004720E-1,7.881156921E0,-3.745613575E0,8.026389122E0
6.521004720E-1,7.528663158E0,-3.697126150E0,8.045015335E0
6.541082850E-1,7.174350262E0,-3.650937319E0,8.123315811E0
6.561020350E-1,6.846210003E0,-3.627167702E0,8.234923363E0
6.581004720E-1,6.533354759E0,-3.606395483E0,8.364699364E0
6.601020350E-1,6.259094238E0,-3.593840361E0,8.504444122E0
6.621004720E-1,6.013171673E0,-3.591704845E0,8.647205353E0
6.641332850E-1,5.792081356E0,-3.600563288E0,8.765498161E0
6.661004720E-1,5.629591942E0,-3.628479719E0,8.865796089E0
6.681364100E-1,5.497106552E0,-3.675760508E0,8.947485924E0
6.701176600E-1,5.437260628E0,-3.744799614E0,9.022702217E0
6.721004720E-1,5.433554649E0,-3.851197958E0,9.069666862E0
6.741067220E-1,5.481630325E0,-3.936182499E0,9.093465805E0
6.761145350E-1,5.575684071E0,-4.036528111E0,9.090353012E0
6.781004720E-1,5.657000542E0,-4.117165089E0,9.081523895E0
6.801004720E-1,5.833223820E0,-4.240092754E0,9.048770905E0
6.821004720E-1,6.027585030E0,-4.379895210E0,8.986290932E0
6.841004720E-1,6.233265400E0,-4.495583057E0,8.913784981E0
6.861004720E-1,6.399634361E0,-4.613540649E0,8.831635475E0
6.881004720E-1,6.573903084E0,-4.770743847E0,8.762902260E0
6.901129720E-1,6.713772297E0,-4.911695480E0,8.734450340E0
6.921364100E-1,6.819041252E0,-5.025879383E0,8.744687080E0
6.941004720E-1,6.969358444E0,-5.154256344E0,8.758688927E0
6.961317220E-1,7.039738178E0,-5.200024128E0,8.789277077E0
6.981004720E-1,7.161469460E0,-5.290055752E0,8.839297295E0
7.001317220E-1,7.211603642E0,-5.335296154E0,8.898682594E0
7.021551600E-1,7.249164104E0,-5.369706154E0,8.903231621E0
7.041223470E-1,7.271018028E0,-5.392805099E0,8.919857025E0
7.061270350E-1,7.244213104E0,-5.382921696E0,8.941884041E0
7.081004720E-1,7.199546337E0,-5.407831192E0,8.913651466E0
7.101317220E-1,7.154181004E0,-5.390133381E0,8.863191605E0
7.121129720E-1,7.093358994E0,-5.344997883E0,8.757061005E0
7.141004720E-1,7.037066460E0,-5.354622364E0,8.614395142E0
7.161004720E-1,6.978504181E0,-5.390075684E0,8.373615265E0
7.181317220E-1,6.943567753E0,-5.412705898E0,8.236896515E0
7.201004720E-1,6.876090050E0,-5.394500256E0,7.946451187E0
7.221176600E-1,6.838749886E0,-5.424542904E0,7.628606319E0
7.241473470E-1,6.818753242E0,-5.462945938E0,7.293255329E0
7.261004720E-1,6.770745277E0,-5.505543232E0,6.998385906E0
7.281035970E-1,6.695423126E0,-5.583268642E0,6.749388695E0
7.301067220E-1,6.581401825E0,-5.714748383E0,6.522313118E0
7.321395350E-1,6.446512699E0,-5.793862820E0,6.472800732E0
7.341004720E-1,6.273699284E0,-5.842302322E0,6.526804924E0
7.361004720E-1,6.069282055E0,-5.871788979E0,6.673320293E0
7.381020350E-1,5.779736996E0,-5.897857189E0,6.834009171E0
7.401020350E-1,5.513482571E0,-5.916024208E0,7.071389675E0
7.421145350E-1,5.218564987E0,-5.929413319E0,7.410398960E0
7.441457850E-1,4.903937817E0,-5.919204235E0,7.830361366E0
7.461379720E-1,4.604567051E0,-5.887561798E0,8.203512192E0
7.481004720E-1,4.276350498E0,-5.829153538E0,8.534591675E0
7.501004720E-1,4.098087788E0,-5.805805206E0,8.623952866E0
7.521051600E-1,3.971377134E0,-5.779746532E0,8.612833977E0
7.541004720E-1,3.915783882E0,-5.754808426E0,8.513972282E0
7.561317220E-1,3.901926279E0,-5.736995697E0,8.356271744E0
7.581004720E-1,3.958017588E0,-5.742033005E0,8.151681900E0
7.601051600E-1,4.015439987E0,-5.745126247E0,8.003691673E0
7.621004720E-1,4.086069107E0,-5.729353428E0,7.859915257E0
7.641004720E-1,4.394873142E0,-5.808448315E0,7.320175648E0
7.661004720E-1,4.512045383E0,-5.915823460E0,7.079750061E0
7.681035970E-1,4.561451912E0,-6.009149551E0,6.926779747E0
7.701051600E-1,4.613674164E0,-6.095302105E0,6.828406811E0
7.721004720E-1,4.646867752E0,-6.179702759E0,6.762489796E0
7.741004720E-1,4.663617611E0,-6.250944614E0,6.698267460E0
7.761004720E-1,4.687358379E0,-6.339663982E0,6.653141499E0
7.781004720E-1,4.724277496E0,-6.423298359E0,6.607604027E0
7.801004720E-1,4.747912407E0,-6.518156528E0,6.590298653E0
7.821051600E-1,4.764164448E0,-6.613379002E0,6.594254017E0
7.841004720E-1,4.754961491E0,-6.686727524E0,6.646246433E0
7.861176600E-1,4.750632286E0,-6.771769524E0,6.727132320E0
7.881332850E-1,4.742147446E0,-6.862672806E0,6.804675579E0
7.901160970E-1,4.740615368E0,-6.934096813E0,6.878158092E0
7.921098470E-1,4.748257160E0,-7.015307426E0,6.962099075E0
7.941004720E-1,4.796984196E0,-7.091366768E0,7.042889118E0
7.961535970E-1,4.846151352E0,-7.137804508E0,7.121064663E0
7.981223470E-1,4.895529747E0,-7.173909187E0,7.197746277E0
8.001020350E-1,4.950854778E0,-7.199393272E0,7.269983768E0
8.021067220E-1,4.978081703E0,-7.206595421E0,7.292106628E0
8.041035970E-1,5.021119595E0,-7.181551933E0,7.283094883E0
8.061004720E-1,5.078245640E0,-7.103175163E0,7.220270634E0
8.081004720E-1,5.081223488E0,-6.989000320E0,7.138408184E0
8.101004720E-1,5.095665455E0,-6.880073547E0,7.004064560E0
8.121114100E-1,5.132565022E0,-6.783080101E0,6.819643974E0
8.141020350E-1,5.165748596E0,-6.688001633E0,6.630760670E0
8.161004720E-1,5.203299522E0,-6.576067448E0,6.478728771E0
8.181067220E-1,5.252964973E0,-6.485375404E0,6.368614674E0
8.201285970E-1,5.290658951E0,-6.384991169E0,6.294068813E0
8.221223470E-1,5.327769279E0,-6.285104752E0,6.226887703E0
8.241004720E-1,5.446263313E0,-6.192181110E0,6.171524048E0
8.261004720E-1,5.568434238E0,-6.094421387E0,6.081214905E0
8.281004720E-1,5.647749424E0,-5.990646839E0,5.967528820E0
8.301098470E-1,5.667946815E0,-5.914406300E0,5.911963940E0
8.321004720E-1,5.673740864E0,-5.846171379E0,5.791612148E0
8.341004720E-1,5.633269310E0,-5.782600403E0,5.687694550E0
8.361067220E-1,5.558244705E0,-5.745317936E0,5.553590298E0
8.381051600E-1,5.465196133E0,-5.707201958E0,5.436494827E0
8.401004720E-1,5.358415127E0,-5.692913532E0,5.329694271E0
8.421004720E-1,5.209887981E0,-5.668042660E0,5.278122902E0
8.441364100E-1,5.009848118E0,-5.629562855E0,5.288542271E0
8.461004720E-1,4.770255566E0,-5.595134258E0,5.334530354E0
8.481004720E-1,4.610533237E0,-5.572849274E0,5.362849236E0
8.501004720E-1,4.356163502E0,-5.537462711E0,5.421890259E0
8.521020350E-1,4.068102837E0,-5.509670734E0,5.517744064E0
8.541004720E-1,3.807240486E0,-5.490086555E0,5.600238800E0
8.561004720E-1,3.459956646E0,-5.489291668E0,5.680186272E0
8.581004720E-1,3.227154016E0,-5.491456032E0,5.735252857E0
8.601020350E-1,3.019768238E0,-5.484551430E0,5.795260906E0
8.621004720E-1,2.844503164E0,-5.498763084E0,5.862854004E0
8.641504720E-1,2.684340477E0,-5.541465759E0,5.931078911E0
8.661004720E-1,2.542239904E0,-5.619430542E0,5.991873264E0
8.681192220E-1,2.381407022E0,-5.713331699E0,6.047236443E0
8.701004720E-1,2.227124691E0,-5.814022064E0,6.081943035E0
8.721020350E-1,2.085981607E0,-5.924413681E0,6.100981236E0
8.741176600E-1,1.948334336E0,-6.072375298E0,6.104783058E0
8.761082850E-1,1.898084879E0,-6.185228348E0,6.120843887E0
8.781004720E-1,1.858168721E0,-6.295572758E0,6.089498997E0
8.801254720E-1,1.856205463E0,-6.446953297E0,6.039115429E0
8.821020350E-1,1.847864032E0,-6.742771149E0,5.991824627E0
8.841004720E-1,1.843535304E0,-6.986424446E0,6.023735046E0
8.861004720E-1,1.842884064E0,-7.222837448E0,6.088646412E0
8.881364100E-1,1.837252975E0,-7.435260296E0,6.214744091E0
8.901098470E-1,1.830683231E0,-7.627179623E0,6.358166695E0
8.921004720E-1,1.838287234E0,-7.862750053E0,6.501301289E0
8.941004720E-1,1.859662652E0,-7.987554550E0,6.569230080E0
8.961004720E-1,1.881861687E0,-8.087096214E0,6.606052876E0
8.981004720E-1,1.945643187E0,-8.164371490E0,6.608475685E0
9.001395350E-1,2.032466650E0,-8.216928482E0,6.588699341E0
9.021004720E-1,2.195894718E0,-8.286552429E0,6.556981087E0
9.041114100E-1,2.300214767E0,-8.311385155E0,6.537128448E0
9.061035970E-1,2.421265841E0,-8.313588142E0,6.519181252E0
9.081004720E-1,2.545026779E0,-8.326813698E0,6.488248348E0
9.101020350E-1,2.657199860E0,-8.342174530E0,6.463310242E0
9.121114100E-1,2.727397919E0,-8.350458145E0,6.453810215E0
9.141160970E-1,2.851053715E0,-8.363932610E0,6.473097801E0
9.161020350E-1,2.949340582E0,-8.349576950E0,6.512601852E0
9.181489100E-1,3.050050020E0,-8.338861465E0,6.545709133E0
9.201035970E-1,3.132707596E0,-8.307784081E0,6.583747864E0
9.221254720E-1,3.178647518E0,-8.288726807E0,6.583575726E0
9.241004720E-1,3.211630106E0,-8.260283470E0,6.584073544E0
9.261020350E-1,3.221589804E0,-8.222474098E0,6.560582161E0
9.281004720E-1,3.187371969E0,-8.182280540E0,6.537080765E0
9.301004720E-1,3.148097515E0,-8.139863968E0,6.493295193E0
9.321004720E-1,2.855286598E0,-7.937085152E0,6.270529270E0
9.341004720E-1,2.715647221E0,-7.867786884E0,6.174263000E0
9.361004720E-1,2.596157551E0,-7.838731289E0,6.131014347E0
9.381051600E-1,2.473325253E0,-7.813036442E0,6.088081360E0
9.401004720E-1,2.351517916E0,-7.795118809E0,6.053403854E0
9.421004720E-1,2.231099129E0,-7.783118725E0,6.010375023E0
9.441004720E-1,2.113543749E0,-7.759358883E0,5.966427326E0
9.461520350E-1,2.009386539E0,-7.740157127E0,5.906705856E0
9.481160970E-1,1.922007680E0,-7.727467537E0,5.880006313E0
9.501489100E-1,1.859202981E0,-7.706600189E0,5.853765488E0
9.521035970E-1,1.797547460E0,-7.694456577E0,5.851046085E0
9.541035970E-1,1.756242633E0,-7.682610512E0,5.879086971E0
9.561020350E-1,1.733382940E0,-7.681451321E0,5.889602184E0
9.581004720E-1,1.724830866E0,-7.682744026E0,5.917652130E0
9.601035970E-1,1.745095372E0,-7.690989971E0,5.926903725E0
9.621004720E-1,1.763396621E0,-7.685119152E0,5.956218243E0
9.641004720E-1,1.795287371E0,-7.693575859E0,5.982247829E0
9.661551600E-1,1.819756150E0,-7.692368984E0,6.007942677E0
9.681426600E-1,1.829438210E0,-7.698871613E0,6.024549007E0
9.701004720E-1,1.845450640E0,-7.710823059E0,6.034173489E0
9.721004720E-1,1.858254910E0,-7.720208645E0,6.036491394E0
9.741004720E-1,1.863244414E0,-7.747991085E0,6.065968513E0
9.761067220E-1,1.865696073E0,-7.766388416E0,6.075267792E0
9.781004720E-1,1.881057262E0,-7.797962666E0,6.082737923E0
9.801004720E-1,1.896581292E0,-7.851861477E0,6.066907406E0
9.821004720E-1,1.899329782E0,-7.907847404E0,6.054275513E0
9.841004720E-1,1.896408796E0,-7.953317642E0,6.036778450E0
9.861020350E-1,1.885702014E0,-8.009418488E0,6.013200283E0
9.881332850E-1,1.856205463E0,-8.041395187E0,5.975611210E0
9.901270350E-1,1.805027008E0,-8.057877541E0,5.946565151E0
9.921051600E-1,1.742461681E0,-8.066717148E0,5.923254967E0
9.941004720E-1,1.676075339E0,-8.073832512E0,5.902061462E0
9.961004720E-1,1.603234172E0,-8.069388390E0,5.880571365E0
9.981442220E-1,1.543149114E0,-8.063355446E0,5.853152752E0
1.000103597E0,1.458873272E0,-8.054065704E0,5.821329117E0
1.002100472E0,1.391222835E0,-8.032144547E0,5.805355072E0
1.004100472E0,1.323323131E0,-7.997007370E0,5.771634579E0
1.006100472E0,1.263506413E0,-7.978830338E0,5.734974861E0
1.008100472E0,1.205767870E0,-7.971638203E0,5.690625191E0
1.010131722E0,1.154072285E0,-7.970939159E0,5.639187813E0
1.012100472E0,1.123196602E0,-7.973917484E0,5.563042641E0
1.014100472E0,1.116157770E0,-7.981856346E0,5.465119839E0
1.016102035E0,1.113447428E0,-8.014140129E0,5.377731323E0
1.018100472E0,1.117508054E0,-8.038292885E0,5.297564030E0
1.020100472E0,1.144955039E0,-8.090649605E0,5.227270126E0
1.022111410E0,1.174346328E0,-8.123842239E0,5.179203987E0
1.024100472E0,1.235168695E0,-8.162781715E0,5.139537334E0
1.026103597E0,1.275161386E0,-8.183754921E0,5.141988754E0
1.028122347E0,1.327805042E0,-8.186120987E0,5.164915562E0
1.030100472E0,1.386501312E0,-8.149795532E0,5.182527542E0
1.032100472E0,1.436166644E0,-8.103731155E0,5.183130741E0
1.034100472E0,1.475824237E0,-8.066151619E0,5.149410725E0
1.036100472E0,1.503443718E0,-8.061277390E0,5.132555485E0
1.038100472E0,1.538485289E0,-8.048702240E0,5.106966496E0
1.040100472E0,1.581130862E0,-8.036108971E0,5.080323696E0
1.042103597E0,1.628133774E0,-8.029606819E0,5.088760853E0
1.044100472E0,1.692480326E0,-8.035141945E0,5.123515129E0
1.046100472E0,1.722628117E0,-8.052791595E0,5.153720379E0
1.048100472E0,1.756319284E0,-8.086435318E0,5.191606045E0
1.050114535E0,1.773174524E0,-8.115098953E0,5.227538109E0
1.052102035E0,1.795019150E0,-8.147755623E0,5.303846359E0
1.054100472E0,1.802393317E0,-8.202506065E0,5.368652344E0
1.056102035E0,1.782770514E0,-8.255216599E0,5.404891014E0
1.058103597E0,1.768702149E0,-8.308196068E0,5.426525593E0
1.060102035E0,1.737826586E0,-8.356701851E0,5.429714203E0
1.062103597E0,1.715196490E0,-8.402499199E0,5.446569443E0
1.064119222E0,1.688170791E0,-8.449061394E0,5.473767757E0
1.066100472E0,1.639693022E0,-8.502183914E0,5.497201920E0
1.068105160E0,1.609506845E0,-8.535396576E0,5.511165142E0
1.070100472E0,1.591808915E0,-8.552328110E0,5.510446548E0
1.072105160E0,1.571735978E0,-8.561790466E0,5.499672890E0
1.074100472E0,1.539462209E0,-8.572601318E0,5.470329762E0
1.076106722E0,1.510722160E0,-8.583567619E0,5.433611870E0
1.078109847E0,1.459036112E0,-8.584734917E0,5.402018070E0
1.080109847E0,1.426589847E0,-8.579037666E0,5.343178272E0
1.082100472E0,1.385342479E0,-8.588231087E0,5.265002728E0
1.084117660E0,1.353097439E0,-8.591985703E0,5.214303017E0
1.086100472E0,1.288406134E0,-8.587408066E0,5.129605770E0
1.088100472E0,1.235206962E0,-8.598803520E0,5.095704079E0
1.090112972E0,1.164941907E0,-8.593345642E0,5.079337597E0
1.092100472E0,1.077074766E0,-8.577783585E0,5.080008030E0
1.094100472E0,9.410266280E-1,-8.537981033E0,5.114685059E0
1.096102035E0,8.191713095E-1,-8.517707825E0,5.140475750E0
1.098130160E0,6.963583231E-1,-8.507124901E0,5.160797596E0
1.100100472E0,5.866560340E-1,-8.499387741E0,5.174990177E0
1.102109847E0,5.011255741E-1,-8.469852448E0,5.179386139E0
1.104111410E0,4.419887960E-1,-8.437569618E0,5.177690983E0
1.106112972E0,3.669545054E-1,-8.396197319E0,5.169090748E0
1.108109847E0,3.435392082E-1,-8.348620415E0,5.174885273E0
1.110100472E0,3.400149643E-1,-8.318156242E0,5.175842762E0
1.112103597E0,3.309648633E-1,-8.251673698E0,5.173601627E0
1.114153597E0,3.135350645E-1,-8.149632454E0,5.156411171E0
1.116102035E0,3.113802969E-1,-7.981665134E0,5.103796482E0
1.118103597E0,3.641293347E-1,-7.878896713E0,5.042361259E0
1.120100472E0,4.471890032E-1,-7.775936127E0,4.978292465E0
1.122100472E0,5.346540213E-1,-7.704560280E0,4.929833412E0
1.124100472E0,9.738176465E-1,-7.671424389E0,4.879421234E0
1.126103597E0,1.064146042E0,-7.716195583E0,4.939879894E0
1.128116097E0,1.079037905E0,-7.737896919E0,4.993577003E0
1.130106722E0,1.070581675E0,-7.764960766E0,5.070421219E0
1.132100472E0,1.059051156E0,-7.781088352E0,5.110557556E0
1.134127035E0,1.037694931E0,-7.783166409E0,5.152187824E0
1.136100472E0,1.012383461E0,-7.796957016E0,5.185036659E0
1.138100472E0,9.932394028E-1,-7.817719936E0,5.213613987E0
1.140100472E0,9.770258069E-1,-7.834939003E0,5.230679512E0
1.142100472E0,9.742294550E-1,-7.844659328E0,5.242774963E0
1.144112972E0,9.676884413E-1,-7.875458717E0,5.271179676E0
1.146102035E0,9.569624066E-1,-7.918908119E0,5.282605171E0
1.148117660E0,9.478740096E-1,-7.947083473E0,5.300350666E0
1.150125472E0,9.465715885E-1,-7.986013412E0,5.326284885E0
1.152100472E0,9.399923086E-1,-8.006095886E0,5.340707302E0
1.154123910E0,9.339972734E-1,-8.017395973E0,5.335584164E0
1.156100472E0,9.300515652E-1,-8.029175758E0,5.336024284E0
1.158100472E0,9.113097787E-1,-8.027040482E0,5.316813469E0
1.160100472E0,8.836615682E-1,-8.007024765E0,5.296194553E0
1.162116097E0,8.454692364E-1,-7.988062382E0,5.259658813E0
1.164122347E0,8.012147546E-1,-7.966198921E0,5.215672970E0
1.166150472E0,7.747541070E-1,-7.938272476E0,5.170517921E0
1.168109847E0,7.371938229E-1,-7.909599781E0,5.113306046E0
1.170100472E0,7.245333195E-1,-7.880313873E0,5.049745083E0
1.172100472E0,7.111736536E-1,-7.853718758E0,4.987447739E0
1.174112972E0,6.974022388E-1,-7.835705280E0,4.929115295E0
1.176100472E0,6.568540335E-1,-7.786336422E0,4.879363537E0
1.178100472E0,6.170719862E-1,-7.714549065E0,4.856216908E0
1.180100472E0,5.860909820E-1,-7.651418686E0,4.831776619E0
1.182100472E0,5.442690849E-1,-7.576824665E0,4.783423424E0
1.184112972E0,4.976779222E-1,-7.505860806E0,4.690164566E0
1.186103597E0,4.171274006E-1,-7.405715942E0,4.543514729E0
1.188127035E0,3.792607188E-1,-7.364602566E0,4.469390392E0
1.190100472E0,3.142054379E-1,-7.288294792E0,4.330325603E0
1.192112972E0,2.541397214E-1,-7.243532658E0,4.247917175E0
1.194100472E0,2.047616988E-1,-7.183754444E0,4.191394806E0
1.196100472E0,1.497812718E-1,-7.143531799E0,4.142773628E0
1.198100472E0,8.171889186E-2,-7.111133099E0,4.106726170E0
1.200100472E0,1.386721618E-2,-7.097352505E0,4.102416515E0
1.202136410E0,-1.814804785E-2,-7.109486103E0,4.117576599E0
1.204102035E0,-3.385401145E-2,-7.124244213E0,4.152762413E0
1.206100472E0,-4.061523825E-2,-7.159371376E0,4.208623409E0
1.208100472E0,-4.184106737E-2,-7.184357643E0,4.239250183E0
1.210100472E0,-1.737232693E-2,-7.268260479E0,4.285228729E0
1.212131722E0,2.948698774E-2,-7.321507454E0,4.325374603E0
1.214102035E0,7.068640739E-2,-7.388018131E0,4.358433723E0
1.216112972E0,1.094245911E-1,-7.460428238E0,4.371582508E0
1.218122347E0,1.625567228E-1,-7.601226330E0,4.384798527E0
1.220152035E0,2.182841599E-1,-7.712010860E0,4.391779900E0
1.222147347E0,2.762908638E-1,-7.816034317E0,4.392890453E0
1.224114535E0,3.507984281E-1,-7.909111500E0,4.404277802E0
1.226100472E0,4.485393465E-1,-8.051805496E0,4.417656422E0
1.228153597E0,5.109513998E-1,-8.118670464E0,4.423517704E0
1.230100472E0,6.333908439E-1,-8.257918358E0,4.456423283E0
1.232103597E0,7.273105979E-1,-8.356855392E0,4.502794266E0
1.234153597E0,8.100063205E-1,-8.463914871E0,4.544319153E0
1.236108285E0,8.765938878E-1,-8.557767868E0,4.591370106E0
1.238100472E0,9.490998387E-1,-8.692111015E0,4.680357933E0
1.240103597E0,9.866122603E-1,-8.779939651E0,4.744819164E0
1.242125472E0,9.974436164E-1,-8.860691071E0,4.794379234E0
1.244105160E0,9.829442501E-1,-8.953184128E0,4.862930298E0
1.246153597E0,9.511396885E-1,-9.014542580E0,4.898364067E0
1.248148910E0,9.208770394E-1,-9.060319901E0,4.926989079E0
1.250102035E0,8.839871287E-1,-9.093426704E0,4.939918041E0
1.252102035E0,8.405084014E-1,-9.110923767E0,4.940952301E0
1.254112972E0,7.971638441E-1,-9.101979256E0,4.961102009E0
1.256114535E0,7.704732418E-1,-9.093542099E0,4.978301525E0
1.258100472E0,7.493181229E-1,-9.057983398E0,5.029614449E0
1.260112972E0,7.512909174E-1,-9.026206970E0,5.057818413E0
1.262102035E0,7.724747658E-1,-8.993626595E0,5.108891010E0
1.264100472E0,8.057925701E-1,-8.962616920E0,5.178045273E0
1.266100472E0,8.644121885E-1,-8.902245522E0,5.248913765E0
1.268112972E0,9.071438313E-1,-8.873504639E0,5.293455601E0
1.270147347E0,9.545778036E-1,-8.837860107E0,5.351098061E0
1.272141097E0,9.954803586E-1,-8.795664787E0,5.400399685E0
1.274112972E0,1.032513738E0,-8.770085335E0,5.425146103E0
1.276112972E0,1.081422567E0,-8.755470276E0,5.458598137E0
1.278102035E0,1.121147275E0,-8.742407799E0,5.485987663E0
1.280100472E0,1.149858475E0,-8.736795425E0,5.497901440E0
1.282100472E0,1.223906398E0,-8.805979729E0,5.452670097E0
1.284100472E0,1.263487339E0,-8.890245438E0,5.403770447E0
1.286122347E0,1.288291216E0,-8.967655182E0,5.371497154E0
1.288100472E0,1.299237490E0,-9.026417732E0,5.324359894E0
1.290117660E0,1.291183352E0,-9.080527306E0,5.262618065E0
1.292100472E0,1.276760697E0,-9.136072159E0,5.188780785E0
1.294109847E0,1.243969679E0,-9.201731682E0,5.110883236E0
1.296100472E0,1.185139418E0,-9.260312080E0,5.011255741E0
1.298100472E0,1.138088584E0,-9.301080704E0,4.955231667E0
1.300102035E0,1.042090654E0,-9.368338585E0,4.859606743E0
1.302105160E0,9.402413368E-1,-9.411252975E0,4.752049923E0
1.304100472E0,8.390623927E-1,-9.452633858E0,4.655448914E0
1.306144222E0,7.249451280E-1,-9.468301773E0,4.564813614E0
1.308105160E0,6.455246806E-1,-9.502854347E0,4.474858761E0
1.310136410E0,5.736411810E-1,-9.535856247E0,4.394652843E0
1.312100472E0,5.027344823E-1,-9.570351601E0,4.328841209E0
1.314102035E0,4.344039559E-1,-9.596065521E0,4.294373989E0
1.316100472E0,3.654605150E-1,-9.636336327E0,4.247169971E0
1.318111410E0,3.042838871E-1,-9.687715530E0,4.202436924E0
1.320102035E0,2.753523588E-1,-9.715382576E0,4.182143688E0
1.322100472E0,2.081135809E-1,-9.751487732E0,4.153326988E0
1.324100472E0,1.279365569E-1,-9.795215607E0,4.124472141E0
1.326108285E0,5.067088455E-2,-9.827499390E0,4.083904743E0
1.328120785E0,-6.284300983E-2,-9.854773521E0,4.012624741E0
1.330127035E0,-1.321216226E-1,-9.871417999E0,3.976472139E0
1.332100472E0,-1.785499901E-1,-9.865643501E0,3.961283445E0
1.334119222E0,-2.183033079E-1,-9.848750114E0,3.966818571E0
1.336142660E0,-2.500695884E-1,-9.851259232E0,3.975533724E0
1.338111410E0,-2.788478732E-1,-9.842658997E0,4.005710125E0
1.340100472E0,-3.269425929E-1,-9.829471588E0,4.028167725E0
1.342100472E0,-3.467187285E-1,-9.816763878E0,4.046421051E0
1.344105160E0,-3.337900341E-1,-9.801037788E0,4.065756798E0
1.346116097E0,-3.269042969E-1,-9.785274506E0,4.087907791E0
1.348155160E0,-2.981068492E-1,-9.757492065E0,4.100328922E0
1.350102035E0,-2.515060902E-1,-9.725496292E0,4.095904350E0
1.352106722E0,-1.910764426E-1,-9.683378220E0,4.094017982E0
1.354102035E0,-1.142034233E-1,-9.638586998E0,4.113362789E0
1.356139535E0,-2.817496471E-2,-9.598057747E0,4.137094021E0
1.358109847E0,7.405745238E-2,-9.549216270E0,4.164905071E0
1.360100472E0,1.658224016E-1,-9.493095398E0,4.183943748E0
1.362108285E0,2.432604730E-1,-9.435242653E0,4.210385799E0
1.364100472E0,3.484425247E-1,-9.375637054E0,4.220920086E0
1.366100472E0,4.376600683E-1,-9.339034081E0,4.229797840E0
1.368100472E0,5.096681118E-1,-9.302670479E0,4.230296135E0
1.370100472E0,5.792148709E-1,-9.274697304E0,4.233389378E0
1.372109847E0,6.513569355E-1,-9.220358849E0,4.214685440E0
1.374100472E0,6.985706091E-1,-9.161911011E0,4.214130402E0
1.376100472E0,7.505152225E-1,-9.109286308E0,4.210998535E0
1.378100472E0,7.787380219E-1,-9.085095406E0,4.205511093E0
1.380100472E0,8.003050089E-1,-9.062962532E0,4.205185413E0
1.382125472E0,8.104372621E-1,-9.049977303E0,4.215270042E0
1.384100472E0,8.408148885E-1,-9.013038635E0,4.195110798E0
1.386111410E0,8.797829747E-1,-9.011123657E0,4.165508747E0
1.388147347E0,9.008901715E-1,-9.018085480E0,4.132918835E0
1.390100472E0,9.252919555E-1,-9.029501915E0,4.090876579E0
1.392100472E0,9.317753911E-1,-9.041396141E0,4.045827389E0
1.394100472E0,9.155331254E-1,-9.066219330E0,3.999389410E0
1.396116097E0,9.001144767E-1,-9.096683502E0,3.964271307E0
1.398122347E0,8.792849183E-1,-9.124015808E0,3.930857897E0
1.400100472E0,8.457278013E-1,-9.137709618E0,3.907394648E0
1.402155160E0,8.197076321E-1,-9.147823334E0,3.903209448E0
1.404100472E0,7.529572845E-1,-9.156969070E0,3.883289814E0
1.406100472E0,6.834201217E-1,-9.178430557E0,3.870093107E0
1.408111410E0,6.059149504E-1,-9.197153091E0,3.825024366E0
1.410100472E0,5.388486385E-1,-9.205561638E0,3.784380674E0
1.412102035E0,4.947569966E-1,-9.191877365E0,3.753734827E0
1.414100472E0,4.326514006E-1,-9.174800873E0,3.732991457E0
1.416100472E0,3.794713914E-1,-9.122003555E0,3.736429453E0
1.418111410E0,3.056533635E-1,-9.072443962E0,3.755985260E0
1.420111410E0,1.953476965E-1,-8.999105453E0,3.810189962E0
1.422100472E0,9.886137396E-2,-8.935227394E0,3.859520197E0
1.424108285E0,2.189257927E-2,-8.863775253E0,3.904952526E0
1.426100472E0,-5.998911709E-2,-8.799218178E0,3.972382784E0
1.428152035E0,-1.288750917E-1,-8.723916054E0,4.037064552E0
1.430100472E0,-1.966597289E-1,-8.653841972E0,4.106429100E0
1.432100472E0,-1.972917914E-1,-8.584965706E0,4.163871288E0
1.434112972E0,-1.776976436E-1,-8.504405022E0,4.202350616E0
1.436112972E0,-1.648360044E-1,-8.436276436E0,4.233283520E0
1.438112972E0,-1.457590014E-1,-8.378882408E0,4.271313667E0
1.440100472E0,-9.213846177E-2,-8.307008743E0,4.345686913E0
1.442106722E0,-4.467580467E-2,-8.263577461E0,4.367675304E0
1.444100472E0,2.706405707E-2,-8.211939812E0,4.405063152E0
1.446111410E0,1.088308319E-1,-8.157667160E0,4.445228100E0
1.448102035E0,1.750927567E-1,-8.127500534E0,4.492154121E0
1.450117660E0,2.419963330E-1,-8.113030434E0,4.512514591E0
1.452100472E0,4.250282645E-1,-8.196673393E0,4.540268421E0
1.454100472E0,5.248855948E-1,-8.296837807E0,4.528421879E0
1.456102035E0,6.000826955E-1,-8.384254456E0,4.530682087E0
1.458100472E0,6.927191615E-1,-8.454692841E0,4.532903671E0
1.460100472E0,7.771099806E-1,-8.536516190E0,4.542183399E0
1.462100472E0,8.686929941E-1,-8.636153221E0,4.548369884E0
1.464100472E0,9.682918191E-1,-8.733511925E0,4.568089008E0
1.466100472E0,1.058811784E0,-8.823955536E0,4.582971096E0
1.468100472E0,1.158860683E0,-8.930774689E0,4.590316772E0
1.470100472E0,1.229547143E0,-9.017033577E0,4.594884872E0
1.472100472E0,1.289564967E0,-9.113336563E0,4.575482368E0
1.474100472E0,1.321944118E0,-9.195794106E0,4.562103748E0
1.476100472E0,1.335686803E0,-9.260561943E0,4.555045605E0
1.478100472E0,1.336309314E0,-9.311280251E0,4.536763191E0
1.480100472E0,1.318640113E0,-9.337779045E0,4.509363651E0
1.482134847E0,1.284929633E0,-9.352335930E0,4.484742165E0
1.484100472E0,1.235829473E0,-9.361242294E0,4.466651440E0
1.486103597E0,1.154867172E0,-9.347480774E0,4.438630104E0
1.488100472E0,1.092378378E0,-9.347049713E0,4.428190708E0
1.490100472E0,1.059309840E0,-9.333948135E0,4.421822071E0
1.492111410E0,1.002117038E0,-9.313464165E0,4.398196220E0
1.494100472E0,9.507662058E-1,-9.275357246E0,4.361363888E0
1.496100472E0,9.085420966E-1,-9.241618156E0,4.301250458E0
1.498102035E0,8.916869164E-1,-9.181638718E0,4.248223782E0
1.500100472E0,8.748413324E-1,-9.114438057E0,4.186941624E0
1.502100472E0,8.549694419E-1,-9.019715309E0,4.134958267E0
1.504100472E0,8.307305574E-1,-8.924615860E0,4.079020500E0
1.506130160E0,7.913315296E-1,-8.825113297E0,4.043059349E0
1.508148910E0,7.351348400E-1,-8.722603798E0,4.014443874E0
1.510100472E0,6.741210222E-1,-8.637274742E0,3.995328903E0
1.512102035E0,6.175316572E-1,-8.568052292E0,3.978128910E0
1.514100472E0,5.931299329E-1,-8.518157959E0,3.954646587E0
1.516100472E0,5.726451278E-1,-8.474439621E0,3.927256823E0
1.518100472E0,5.754895210E-1,-8.449635506E0,3.916109562E0
1.520100472E0,6.137679219E-1,-8.427197456E0,3.928683758E0
1.522100472E0,6.625905037E-1,-8.422591209E0,3.924881935E0
1.524106722E0,7.099669576E-1,-8.419297218E0,3.927122831E0
1.526119222E0,7.492606044E-1,-8.438306808E0,3.918915510E0
1.528109847E0,8.266124725E-1,-8.471701622E0,3.903372288E0
1.530102035E0,9.124685526E-1,-8.513207436E0,3.876997709E0
1.532103597E0,9.899449348E-1,-8.566989899E0,3.872056246E0
1.534106722E0,1.047396183E0,-8.633184433E0,3.869049072E0
1.536100472E0,1.070955157E0,-8.682151794E0,3.879229307E0
1.538100472E0,1.104397297E0,-8.762864113E0,3.877620459E0
1.540102035E0,1.113677263E0,-8.840369225E0,3.872994661E0
1.542100472E0,1.086977124E0,-8.910941124E0,3.887503624E0
1.544142660E0,1.022113442E0,-9.035170555E0,3.893240213E0
1.546100472E0,9.467726946E-1,-9.121985435E0,3.877620459E0
1.548117660E0,8.719586730E-1,-9.217991829E0,3.868819237E0
1.550102035E0,7.860547304E-1,-9.289254189E0,3.865362167E0
1.552100472E0,6.944813132E-1,-9.365188599E0,3.872937202E0
1.554100472E0,6.234501600E-1,-9.461760521E0,3.891966343E0
1.556100472E0,4.994975030E-1,-9.545834541E0,3.901207924E0
1.558112972E0,4.286291599E-1,-9.619318008E0,3.909482479E0
1.560102035E0,3.588142097E-1,-9.686518669E0,3.909233332E0
1.562100472E0,3.099341989E-1,-9.745838165E0,3.898009300E0
1.564100472E0,2.682367861E-1,-9.793146133E0,3.892426014E0
1.566100472E0,2.044839710E-1,-9.862856865E0,3.887857914E0
1.568100472E0,1.545600891E-1,-9.904784203E0,3.860544920E0
1.570100472E0,1.077295020E-1,-9.928620338E0,3.840328455E0
1.572100472E0,7.358817756E-2,-9.943703651E0,3.806570053E0
1.574111410E0,3.055001423E-2,-9.954506874E0,3.767487049E0
1.576103597E0,-1.725740544E-2,-9.941040993E0,3.750363827E0
1.578100472E0,-6.246950850E-2,-9.929645538E0,3.724295616E0
1.580112972E0,-1.065707058E-1,-9.904496193E0,3.714402914E0
1.582100472E0,-1.449928582E-1,-9.878829956E0,3.710763693E0
1.584100472E0,-1.764239371E-1,-9.849668503E0,3.695909977E0
1.586100472E0,-1.962670684E-1,-9.801200867E0,3.691102505E0
1.588100472E0,-2.152866274E-1,-9.761495590E0,3.686591864E0
1.590100472E0,-2.343157381E-1,-9.723140717E0,3.678307772E0
1.592112972E0,-2.449364215E-1,-9.683280945E0,3.669803619E0
1.594100472E0,-2.675376832E-1,-9.638290405E0,3.681946993E0
1.596100472E0,-2.910200059E-1,-9.582869530E0,3.700391769E0
1.598139535E0,-3.022057116E-1,-9.512699127E0,3.714316607E0
1.600100472E0,-3.113036752E-1,-9.437943459E0,3.721671581E0
1.602103597E0,-3.039965928E-1,-9.366748810E0,3.745345354E0
1.604112972E0,-2.780817151E-1,-9.295296669E0,3.767199755E0
1.606103597E0,-2.256200016E-1,-9.237204552E0,3.769469500E0
1.608100472E0,-1.679388881E-1,-9.194893837E0,3.764010668E0
1.610100472E0,-1.004223973E-1,-9.167484283E0,3.763445616E0
1.612100472E0,1.549910456E-1,-9.107821465E0,3.806675196E0
1.614100472E0,2.738296390E-1,-9.120366096E0,3.842923641E0
1.616103597E0,3.523020148E-1,-9.129732132E0,3.874871731E0
1.618100472E0,4.176924229E-1,-9.130939484E0,3.898497820E0
1.620100472E0,5.082603097E-1,-9.149978638E0,3.913504601E0
1.622102035E0,6.064034104E-1,-9.173288345E0,3.941650867E0
1.624114535E0,7.041634321E-1,-9.196617126E0,3.981452227E0
1.626112972E0,7.788050771E-1,-9.222502708E0,4.011168957E0
1.628100472E0,8.523166776E-1,-9.259144783E0,4.039075851E0
1.630100472E0,9.085708261E-1,-9.274591446E0,4.062807083E0
1.632100472E0,9.544149637E-1,-9.287845612E0,4.099792480E0
1.634100472E0,1.000872016E0,-9.313828468E0,4.126837254E0
1.636100472E0,1.039160132E0,-9.351741791E0,4.180381298E0
1.638102035E0,1.061981678E0,-9.380865097E0,4.211400986E0
1.640102035E0,1.103650331E0,-9.414901733E0,4.240734577E0
1.642100472E0,1.131796598E0,-9.433614731E0,4.266927242E0
1.644102035E0,1.150050044E0,-9.452912331E0,4.270958900E0
1.646100472E0,1.149456143E0,-9.466338158E0,4.262684345E0
1.648102035E0,1.146161914E0,-9.458351135E0,4.279836655E0
1.650130160E0,1.130858064E0,-9.444293022E0,4.272012234E0
1.652100472E0,1.124489546E0,-9.427485466E0,4.258307934E0
1.654100472E0,1.119423389E0,-9.392137527E0,4.248520374E0
1.656100472E0,1.120697141E0,-9.357019424E0,4.217558384E0
1.658103597E0,1.131605148E0,-9.300966263E0,4.205501556E0
1.660100472E0,1.148211360E0,-9.234138489E0,4.183723450E0
1.662102035E0,1.146477938E0,-9.167982101E0,4.167529106E0
1.664106722E0,1.162011504E0,-9.101212502E0,4.140876770E0
1.666100472E0,1.174863577E0,-9.011746407E0,4.111476421E0
1.668116097E0,1.170956135E0,-8.953538895E0,4.062624931E0
1.670100472E0,1.163447976E0,-8.889029503E0,4.001783848E0
1.672100472E0,1.153363466E0,-8.819847107E0,3.952405453E0
1.674100472E0,1.130245090E0,-8.764358521E0,3.906111240E0
1.676102035E0,1.110287070E0,-8.716379166E0,3.852308750E0
1.678117660E0,1.087724090E0,-8.685254097E0,3.800776005E0
1.680100472E0,1.046831131E0,-8.665257454E0,3.749243259E0
1.682100472E0,1.003256679E0,-8.656820297E0,3.707220316E0
1.684109847E0,9.512929916E-1,-8.647818565E0,3.660830021E0
1.686100472E0,8.944641948E-1,-8.638710976E0,3.608129025E0
1.688100472E0,8.560132980E-1,-8.641813278E0,3.560685635E0
1.690100472E0,8.344175816E-1,-8.654770851E0,3.524839640E0
1.692112972E0,7.996059060E-1,-8.678253174E0,3.514984846E0
1.694100472E0,7.428058386E-1,-8.703420639E0,3.497373343E0
1.696100472E0,6.680493355E-1,-8.760221481E0,3.472856760E0
1.698100472E0,6.142659783E-1,-8.818208694E0,3.448818922E0
1.700100472E0,5.608369708E-1,-8.873064041E0,3.422559261E0
1.702142660E0,4.999284744E-1,-8.928034782E0,3.398463964E0
1.704100472E0,4.427070618E-1,-8.981062889E0,3.388504267E0
1.706112972E0,3.961063027E-1,-9.021926880E0,3.389164686E0
1.708100472E0,3.426102698E-1,-9.107208252E0,3.399258852E0
1.710147347E0,3.051362336E-1,-9.167063713E0,3.421180248E0
1.712106722E0,2.842300534E-1,-9.217111588E0,3.436053038E0
1.714112972E0,2.613510489E-1,-9.265781403E0,3.440324306E0
1.716100472E0,2.497631162E-1,-9.321891785E0,3.462523222E0
1.718112972E0,2.386157215E-1,-9.361912727E0,3.466947794E0
1.720111410E0,2.316150665E-1,-9.411568642E0,3.453588247E0
1.722102035E0,2.135149091E-1,-9.447347641E0,3.428745747E0
1.724100472E0,1.933461428E-1,-9.480292320E0,3.418345451E0
1.726108285E0,1.661097109E-1,-9.510075569E0,3.403290749E0
1.728108285E0,1.527117640E-1,-9.530933380E0,3.399249315E0
1.730100472E0,1.173063070E-1,-9.546151161E0,3.419743538E0
1.732114535E0,9.514557570E-2,-9.549004555E0,3.433045864E0
1.734145785E0,7.857769728E-2,-9.544034958E0,3.432049751E0
1.736102035E0,7.131848484E-2,-9.541391373E0,3.440812588E0
1.738100472E0,7.521624118E-2,-9.532485008E0,3.467627764E0
1.740111410E0,9.123823792E-2,-9.513830185E0,3.476888418E0
1.742123910E0,1.102482006E-1,-9.489072800E0,3.482203722E0
1.744153597E0,1.409227103E-1,-9.456071854E0,3.483850718E0
1.746148910E0,1.536981612E-1,-9.414873123E0,3.482950449E0
1.748100472E0,1.720760614E-1,-9.351866722E0,3.491263151E0
1.750111410E0,1.935185343E-1,-9.300966263E0,3.490200281E0
1.752105160E0,2.163209021E-1,-9.236926079E0,3.495898485E0
1.754125472E0,2.093298435E-1,-9.170941353E0,3.506049871E0
1.756136410E0,1.733593643E-1,-9.126811981E0,3.559478760E0
1.758100472E0,3.986824676E-2,-9.055148125E0,3.648945332E0
1.760131722E0,-1.099321693E-1,-8.978802681E0,3.737875462E0
1.762112972E0,-2.588323653E-1,-8.877814293E0,3.796840191E0
1.764103597E0,-3.421984613E-1,-8.772862434E0,3.775809288E0
1.766100472E0,-3.529819250E-1,-8.685397148E0,3.702537060E0
1.768100472E0,-2.545419335E-1,-8.601304054E0,3.582367420E0
1.770103597E0,-1.496184468E-1,-8.567162514E0,3.547833443E0
1.772106722E0,-5.649358407E-2,-8.550210953E0,3.577732086E0
1.774112972E0,1.899080910E-2,-8.537608147E0,3.648217440E0
1.776103597E0,8.042602241E-2,-8.507699966E0,3.713109970E0
1.778100472E0,9.181284159E-2,-8.483470917E0,3.819182634E0
1.780100472E0,-1.114740316E-2,-8.463158607E0,3.929632187E0
1.782100472E0,-6.560304165E-1,-8.545547485E0,4.107377529E0
1.784100472E0,-1.335964501E-1,-8.692196846E0,3.655132055E0
1.786100472E0,4.045338929E-1,-8.837343216E0,3.404535532E0
1.788106722E0,9.585521817E-1,-9.026752472E0,3.249889374E0
1.790100472E0,1.396173954E0,-9.223326683E0,3.199783564E0
1.792100472E0,1.605762362E0,-9.359480858E0,3.245398045E0
1.794105160E0,1.790288210E0,-9.555728912E0,3.361756086E0
1.796106722E0,1.846015692E0,-9.748384476E0,3.503713131E0
1.798103597E0,1.833249927E0,-9.927968979E0,3.645449638E0
1.800106722E0,1.806559205E0,-1.011820316E1,3.739369631E0
1.802100472E0,1.785672188E0,-1.026177788E1,3.749760389E0
1.804100472E0,1.787894011E0,-1.038806725E1,3.699127913E0
1.806100472E0,1.786581993E0,-1.047217083E1,3.608071566E0
1.808109847E0,1.766058922E0,-1.051692390E1,3.531552792E0
1.810100472E0,1.736322999E0,-1.052593517E1,3.477453470E0
1.812100472E0,1.693256140E0,-1.050448322E1,3.484224319E0
1.814100472E0,1.623977423E0,-1.048195934E1,3.513921976E0
1.816100472E0,1.546692610E0,-1.044482899E1,3.572790623E0
1.818100472E0,1.484730721E0,-1.041454792E1,3.612208843E0
1.820133285E0,1.399612069E0,-1.037110710E1,3.666518688E0
1.822100472E0,1.325123668E0,-1.031504536E1,3.705812454E0
1.824100472E0,1.255097985E0,-1.025414562E1,3.727609158E0
1.826100472E0,1.188721180E0,-1.019219303E1,3.747318268E0
1.828155160E0,1.107758760E0,-1.013517284E1,3.756253481E0
1.830100472E0,1.028865099E0,-1.008122635E1,3.764412880E0
1.832111410E0,9.388144016E-1,-1.001492691E1,3.784179449E0
1.834100472E0,8.517324924E-1,-9.960961342E0,3.796418667E0
1.836100472E0,7.402583957E-1,-9.910902977E0,3.814767838E0
1.838102035E0,6.268786192E-1,-9.865605354E0,3.842760801E0
1.840111410E0,5.275384188E-1,-9.815805435E0,3.875819921E0
1.842102035E0,4.263881743E-1,-9.760173798E0,3.887656689E0
1.844100472E0,3.542365134E-1,-9.701008797E0,3.906235933E0
1.846133285E0,2.872467339E-1,-9.664205551E0,3.900556803E0
1.848100472E0,2.437776178E-1,-9.613467216E0,3.885377407E0
1.850108285E0,2.667619586E-1,-9.568552017E0,3.877380848E0
1.852100472E0,3.718195260E-1,-9.541066170E0,3.876346588E0
1.854100472E0,5.809482336E-1,-9.531537056E0,3.897070885E0
1.856102035E0,8.544043899E-1,-9.594580650E0,3.965238571E0
1.858100472E0,1.125332236E0,-9.728743553E0,4.037629604E0
1.860100472E0,1.307540536E0,-9.917942047E0,4.143156052E0
1.862109847E0,1.351919532E0,-1.010196972E1,4.263278484E0
1.864100472E0,1.269061089E0,-1.034211826E1,4.409468174E0
1.866100472E0,1.206859589E0,-1.050198364E1,4.500467300E0
1.868100472E0,1.174030304E0,-1.059274292E1,4.528412342E0
1.870100472E0,1.134430170E0,-1.071126556E1,4.525568008E0
1.872100472E0,1.109128237E0,-1.081191826E1,4.429656029E0
1.874100472E0,1.087360263E0,-1.088598537E1,4.287296772E0
1.876116097E0,1.066252947E0,-1.093506622E1,4.116149902E0
1.878112972E0,1.046649218E0,-1.097559452E1,3.964338303E0
1.880100472E0,1.050594807E0,-1.104059315E1,3.792137623E0
1.882100472E0,1.057078362E0,-1.105875111E1,3.688497543E0
1.884127035E0,1.070418835E0,-1.106704426E1,3.587663412E0
1.886125472E0,1.098095775E0,-1.104157925E1,3.508616447E0
1.888162972E0,1.167460680E0,-1.102256966E1,3.403989792E0
1.890100472E0,1.249935985E0,-1.094251633E1,3.275478601E0
1.892100472E0,1.295876026E0,-1.086160278E1,3.193261623E0
1.894100472E0,1.319693565E0,-1.075994396E1,3.151784658E0
1.896103597E0,1.317730308E0,-1.064693832E1,3.155203581E0
1.898120785E0,1.268926859E0,-1.052997684E1,3.172470570E0
1.900100472E0,1.190492749E0,-1.034891796E1,3.229988813E0
1.902102035E0,1.105259299E0,-1.020765972E1,3.282900572E0
1.904100472E0,1.004166484E0,-1.009085178E1,3.317300558E0
1.906112972E0,9.128995538E-1,-9.969667435E0,3.357676268E0
1.908112972E0,8.039728999E-1,-9.839699745E0,3.362129688E0
1.910100472E0,6.768120527E-1,-9.677334785E0,3.310443640E0
1.912100472E0,6.028121114E-1,-9.577927589E0,3.250885248E0
1.914100472E0,5.425739884E-1,-9.499971390E0,3.170133829E0
1.916136410E0,4.899207056E-1,-9.449999809E0,3.088117838E0
1.918130160E0,4.580107629E-1,-9.410323143E0,3.014989614E0
1.920111410E0,4.707192183E-1,-9.379026413E0,2.937321424E0
1.922100472E0,5.232479572E-1,-9.345661163E0,2.868445158E0
1.924106722E0,5.944228768E-1,-9.307124138E0,2.808369875E0
1.926100472E0,6.884287596E-1,-9.265445709E0,2.774927616E0
1.928103597E0,7.727429867E-1,-9.225021362E0,2.740393877E0
1.930103597E0,8.494340181E-1,-9.182960510E0,2.724160910E0
1.932111410E0,9.390920997E-1,-9.151031494E0,2.711701632E0
1.934100472E0,9.998186231E-1,-9.128679276E0,2.686782598E0
1.936100472E0,1.050652385E0,-9.131993294E0,2.673289061E0
1.938100472E0,1.090759993E0,-9.136111259E0,2.685892105E0
1.940100472E0,1.120256543E0,-9.169112206E0,2.729150534E0
1.942100472E0,1.102031827E0,-9.241446495E0,2.855545282E0
1.944100472E0,1.065189958E0,-9.249672890E0,2.919240475E0
1.946106722E0,1.027438164E0,-9.264689445E0,2.944542408E0
1.948100472E0,1.003046036E0,-9.289559364E0,2.975647926E0
1.950100472E0,1.000067592E0,-9.301885605E0,3.002414942E0
1.952100472E0,9.963231087E-1,-9.316786766E0,3.005211592E0
1.954111410E0,1.016329050E0,-9.332751274E0,3.010296822E0
1.956102035E0,1.040855169E0,-9.346456528E0,2.990501404E0
1.958100472E0,1.083768964E0,-9.355429649E0,2.975705385E0
1.960106722E0,1.135368824E0,-9.355956078E0,2.957662582E0
1.962100472E0,1.191680431E0,-9.348485947E0,2.927505255E0
1.964103597E0,1.230993152E0,-9.348763466E0,2.913350821E0
1.966142660E0,1.278436661E0,-9.348706245E0,2.903074980E0
1.968100472E0,1.315498948E0,-9.347691536E0,2.897051096E0
1.970100472E0,1.325315237E0,-9.360313416E0,2.909070015E0
1.972109847E0,1.316303372E0,-9.361299515E0,2.909261465E0
1.974108285E0,1.314589143E0,-9.373519897E0,2.922381878E0
1.976100472E0,1.310308218E0,-9.394646645E0,2.948507309E0
1.978100472E0,1.300654888E0,-9.415906906E0,2.968657017E0
1.980100472E0,1.288463593E0,-9.431526184E0,2.978377342E0
1.982100472E0,1.286270499E0,-9.470829964E0,2.958266020E0
1.984100472E0,1.282755852E0,-9.511340141E0,2.923732281E0
1.986100472E0,1.289727807E0,-9.578185081E0,2.889743805E0
1.988102035E0,1.300109029E0,-9.639736176E0,2.855344057E0
1.990153597E0,1.315776587E0,-9.680858612E0,2.829151630E0
1.992111410E0,1.356899381E0,-9.723120689E0,2.806521416E0
1.994102035E0,1.409389853E0,-9.770018578E0,2.786889076E0
1.996100472E0,1.453807116E0,-9.818649292E0,2.774027348E0
1.998100472E0,1.492727280E0,-9.856756210E0,2.780635595E0
2.000100472E0,1.544509053E0,-9.907580376E0,2.789053440E0
2.002100472E0,1.579703808E0,-9.958404541E0,2.790365458E0
2.004100472E0,1.605762362E0,-9.997755051E0,2.808829546E0
2.006102035E0,1.622818589E0,-1.005282211E1,2.809212685E0
2.008100472E0,1.630777001E0,-1.011162376E1,2.799434900E0
2.010105160E0,1.639367342E0,-1.014863777E1,2.797701359E0
2.012105160E0,1.657094002E0,-1.016791630E1,2.799664497E0
2.014122347E0,1.668586135E0,-1.017253208E1,2.780922890E0
2.016153597E0,1.686015964E0,-1.018138123E1,2.769238949E0
2.018108285E0,1.708329916E0,-1.018525982E1,2.778212309E0
2.020100472E0,1.714938045E0,-1.020459461E1,2.759240627E0
2.022109847E0,1.726027846E0,-1.023106575E1,2.736352205E0
2.024106722E0,1.734646916E0,-1.025390625E1,2.713827610E0
2.026109847E0,1.740565419E0,-1.029246330E1,2.695650816E0
2.028100472E0,1.747661829E0,-1.032276344E1,2.674533844E0
2.030109847E0,1.743160725E0,-1.035463524E1,2.648159504E0
2.032100472E0,1.732846498E0,-1.039541340E1,2.618710756E0
2.034109847E0,1.724706292E0,-1.042073441E1,2.591196537E0
2.036100472E0,1.713070393E0,-1.046531487E1,2.569668055E0
2.038100472E0,1.718519688E0,-1.049834442E1,2.535804510E0
2.040100472E0,1.738937378E0,-1.052054405E1,2.423928261E0
2.042111410E0,1.768903255E0,-1.053623009E1,2.331176758E0
2.044100472E0,1.811692357E0,-1.053580856E1,2.248423576E0
2.046100472E0,1.856071234E0,-1.051153183E1,2.183856726E0
2.048117660E0,1.906656027E0,-1.047518730E1,2.138194561E0
2.050103597E0,1.950709343E0,-1.044130516E1,2.088011980E0
2.052103597E0,1.980847478E0,-1.040303612E1,2.069404364E0
2.054112972E0,2.006063461E0,-1.037388515E1,2.072909355E0
2.056100472E0,2.024575233E0,-1.032001495E1,2.096315145E0
2.058102035E0,2.026098013E0,-1.029637909E1,2.116493464E0
2.060100472E0,2.012661695E0,-1.026780128E1,2.160374165E0
2.062112972E0,2.006388903E0,-1.024700069E1,2.208392620E0
2.064105160E0,1.981326461E0,-1.021534920E1,2.305912971E0
2.066102035E0,1.949617505E0,-1.019029713E1,2.398817539E0
2.068117660E0,1.908322334E0,-1.016036892E1,2.497008801E0
2.070100472E0,1.863656163E0,-1.013152409E1,2.592920303E0
2.072116097E0,1.821987510E0,-1.009442425E1,2.676362991E0
2.074109847E0,1.779093027E0,-1.005408573E1,2.749396086E0
2.076119222E0,1.723451734E0,-9.985066414E0,2.826728582E0
2.078112972E0,1.672828794E0,-9.922118187E0,2.894063234E0
2.080102035E0,1.632491231E0,-9.863440514E0,2.940252066E0
2.082111410E0,1.594653249E0,-9.806583405E0,2.946898460E0
2.084208285E0,1.546529770E0,-9.757089615E0,2.954751492E0
2.086103597E0,1.517598271E0,-9.714521408E0,2.953496933E0
2.088122347E0,1.501614571E0,-9.668753624E0,2.938729286E0
2.090114535E0,1.497419953E0,-9.652874947E0,2.898564100E0
2.092100472E0,1.492535710E0,-9.628214836E0,2.871126652E0
2.094100472E0,1.502964973E0,-9.592273712E0,2.798505783E0
2.096100472E0,1.502150893E0,-9.580532074E0,2.759958982E0
2.098100472E0,1.491980314E0,-9.571636200E0,2.742596388E0
2.100137972E0,1.500848413E0,-9.561330795E0,2.732186317E0
2.102117660E0,1.494317055E0,-9.559329033E0,2.724122763E0
2.104137972E0,1.509486675E0,-9.554531097E0,2.724333525E0
2.106100472E0,1.542517066E0,-9.552347183E0,2.717217684E0
2.108105160E0,1.587260008E0,-9.574106216E0,2.707037687E0
2.110100472E0,1.619983912E0,-9.603966713E0,2.720627308E0
2.112100472E0,1.647555590E0,-9.639832497E0,2.759183407E0
2.114100472E0,1.658463478E0,-9.702405930E0,2.854443789E0
2.116100472E0,1.632864714E0,-9.717547417E0,2.833585739E0
2.118153597E0,1.586723685E0,-9.742102623E0,2.821557045E0
2.120100472E0,1.477471471E0,-9.799611092E0,2.819804668E0
2.122111410E0,1.380764842E0,-9.843827248E0,2.795115471E0
2.124100472E0,1.262941360E0,-9.884049416E0,2.768482447E0
2.126111410E0,1.078166485E0,-9.930564880E0,2.756185770E0
2.128102035E0,9.181763530E-1,-9.953998566E0,2.711845160E0
2.130100472E0,8.097956777E-1,-9.957446098E0,2.649145842E0
2.132100472E0,7.002561092E-1,-9.951297760E0,2.566919327E0
2.134142660E0,6.391273737E-1,-9.941204071E0,2.457877874E0
2.136100472E0,6.433028579E-1,-9.931790352E0,2.346480370E0
2.138100472E0,6.909857988E-1,-9.908872604E0,2.237841129E0
2.140100472E0,7.730015516E-1,-9.886261940E0,2.135292768E0
2.142102035E0,8.598439693E-1,-9.853414536E0,2.042876482E0
2.144100472E0,9.402891994E-1,-9.821801186E0,1.979286551E0
2.146102035E0,1.093307376E0,-9.771034241E0,1.906972051E0
2.148100472E0,1.173982382E0,-9.766350746E0,1.877762794E0
2.150133285E0,1.207405567E0,-9.785648346E0,1.864058375E0
2.152120785E0,1.219874501E0,-9.802991867E0,1.875282526E0
2.154112972E0,1.206198812E0,-9.806669235E0,1.852336407E0
2.156108285E0,1.215402126E0,-9.821484566E0,1.761931419E0
2.158100472E0,1.244640112E0,-9.813641548E0,1.728374243E0
2.160100472E0,1.265948534E0,-9.789067268E0,1.782655478E0
2.162108285E0,1.329682112E0,-9.760470390E0,1.922649264E0
2.164102035E0,1.401326299E0,-9.728282928E0,2.131873846E0
2.166100472E0,1.488915801E0,-9.691067696E0,2.406584501E0
2.168106722E0,1.646655321E0,-9.655633926E0,2.745986462E0
2.170105160E0,1.794521213E0,-9.624987602E0,3.001869202E0
2.172111410E0,1.943737388E0,-9.589983940E0,3.209609270E0
2.174100472E0,2.091114998E0,-9.550747871E0,3.369972944E0
2.176100472E0,2.303452015E0,-9.486344337E0,3.479780436E0
2.178112972E0,2.464035988E0,-9.446734428E0,3.512226820E0
2.180100472E0,2.623738527E0,-9.393401146E0,3.501941442E0
2.182102035E0,2.781909227E0,-9.351033211E0,3.446577787E0
2.184100472E0,2.920600414E0,-9.315072060E0,3.357743502E0
2.186100472E0,3.089468241E0,-9.290364265E0,3.218400955E0
2.188112972E0,3.205893517E0,-9.306693077E0,3.130026102E0
2.190103597E0,3.330104828E0,-9.332358360E0,3.068083286E0
2.192100472E0,3.406250000E0,-9.367974281E0,3.124682188E0
2.194100472E0,3.444815636E0,-9.421135902E0,3.261821985E0
2.196125472E0,3.276110649E0,-9.554282188E0,3.682828188E0
2.198136410E0,3.039496660E0,-9.676339149E0,4.172020912E0
2.200105160E0,2.978971243E0,-9.701189995E0,4.402754784E0
2.202109847E0,2.993863106E0,-9.685522079E0,4.490957737E0
2.204114535E0,3.027257442E0,-9.636049271E0,4.490430832E0
2.206100472E0,3.045750141E0,-9.561435699E0,4.417445660E0
2.208100472E0,3.032457590E0,-9.493459702E0,4.322913170E0
2.210120785E0,3.004282713E0,-9.414556503E0,4.214608669E0
2.212103597E0,2.949790478E0,-9.322437286E0,4.069874763E0
2.214102035E0,2.887416840E0,-9.235488892E0,3.920792580E0
2.216112972E0,2.796820402E0,-9.160676003E0,3.758264542E0
2.218103597E0,2.620290995E0,-9.081542015E0,3.557295322E0
2.220131722E0,2.448454380E0,-9.044384003E0,3.403271437E0
2.222112972E0,2.240015030E0,-9.019207001E0,3.255463123E0
2.224102035E0,2.021271229E0,-9.002140999E0,3.097426414E0
2.226102035E0,1.693591237E0,-8.996376038E0,2.904214621E0
2.228100472E0,1.525259733E0,-9.001135826E0,2.803323030E0
2.230111410E0,1.177353501E0,-9.023708344E0,2.610072613E0
2.232100472E0,8.994920254E-1,-9.077539444E0,2.457590580E0
2.234103597E0,6.445190907E-1,-9.177233696E0,2.308795691E0
2.236100472E0,4.090254307E-1,-9.307162285E0,2.169606447E0
2.238111410E0,1.419378519E-1,-9.530666351E0,2.003573418E0
2.240105160E0,3.543418366E-3,-9.734048843E0,1.887674809E0
2.242112972E0,-9.271306545E-2,-9.940007210E0,1.763262630E0
2.244100472E0,-1.519839168E-1,-1.012806702E1,1.675194263E0
2.246105160E0,-1.637634039E-1,-1.029942513E1,1.605570793E0
2.248100472E0,-1.717791855E-1,-1.046231651E1,1.545457125E0
2.250105160E0,-1.629972607E-1,-1.066332436E1,1.489222169E0
2.252105160E0,-1.574427038E-1,-1.079157734E1,1.451930046E0
2.254100472E0,-1.311831027E-1,-1.090987873E1,1.434385419E0
2.256112972E0,-1.082562283E-1,-1.100263119E1,1.429405451E0
2.258100472E0,-5.693411455E-2,-1.111145210E1,1.428696752E0
2.260100472E0,-4.050989170E-3,-1.114086246E1,1.440485835E0
2.262150472E0,5.045061931E-2,-1.114313221E1,1.479348540E0
2.264112972E0,1.070782766E-1,-1.112618065E1,1.511909723E0
2.266102035E0,1.517061889E-1,-1.109670353E1,1.544058919E0
2.268100472E0,1.756482124E-1,-1.104884911E1,1.614506006E0
2.270102035E0,1.691551358E-1,-1.100632668E1,1.675567746E0
2.272100472E0,1.416505426E-1,-1.092371750E1,1.738831997E0
2.274100472E0,-5.382165685E-2,-1.041998768E1,2.043115854E0
2.276139535E0,-1.934802234E-1,-1.021097374E1,2.152243614E0
2.278100472E0,-3.360693157E-1,-1.006824970E1,2.243731022E0
2.280100472E0,-4.426496029E-1,-9.979951859E0,2.291729927E0
2.282137972E0,-6.235458851E-1,-9.852139473E0,2.375211000E0
2.284100472E0,-8.327416182E-1,-9.738913536E0,2.460176229E0
2.286100472E0,-1.049541354E0,-9.641804695E0,2.526505470E0
2.288109847E0,-1.279490113E0,-9.563907623E0,2.593906641E0
2.290100472E0,-1.527510285E0,-9.510956764E0,2.666901350E0
2.292100472E0,-1.777828813E0,-9.459758759E0,2.737108946E0
2.294100472E0,-2.008888483E0,-9.424421310E0,2.817372084E0
2.296100472E0,-2.241279364E0,-9.382551193E0,2.873061180E0
2.298148910E0,-2.439212561E0,-9.357450485E0,2.939466715E0
2.300117660E0,-2.607247353E0,-9.340020180E0,3.003468513E0
2.302114535E0,-2.768808126E0,-9.320302010E0,3.073886633E0
2.304100472E0,-2.918235064E0,-9.325138092E0,3.144266844E0
2.306105160E0,-3.047703743E0,-9.360054970E0,3.224577904E0
2.308119222E0,-3.161457062E0,-9.386688232E0,3.283120871E0
2.310128597E0,-3.245033979E0,-9.418214798E0,3.357867956E0
2.312100472E0,-3.315040350E0,-9.450325966E0,3.436033726E0
2.314109847E0,-3.356594324E0,-9.473626137E0,3.524312735E0
2.316100472E0,-3.395102501E0,-9.490557671E0,3.592298508E0
2.318102035E0,-3.417473793E0,-9.490098953E0,3.668156385E0
2.320112972E0,-3.400321722E0,-9.487417221E0,3.722983599E0
2.322105160E0,-3.366659403E0,-9.481719017E0,3.770446301E0
2.324100472E0,-3.312598467E0,-9.458293915E0,3.814892292E0
2.326122347E0,-3.233225822E0,-9.415945053E0,3.844187737E0
2.328100472E0,-3.139008999E0,-9.364632607E0,3.861358881E0
2.330103597E0,-3.056246281E0,-9.330319405E0,3.891717196E0
2.332102035E0,-2.956637859E0,-9.324888229E0,3.912183046E0
2.334106722E0,-2.854233265E0,-9.344195366E0,3.947416067E0
2.336122347E0,-2.726957560E0,-9.395038605E0,3.985589266E0
2.338123910E0,-2.593964338E0,-9.452538490E0,4.048202515E0
2.340109847E0,-2.455483675E0,-9.504204750E0,4.126722813E0
2.342100472E0,-2.383552313E0,-9.602424622E0,4.324790001E0
2.344100472E0,-2.508740187E0,-9.688769341E0,4.538113594E0
2.346100472E0,-2.869479418E0,-9.792399406E0,4.992284298E0
2.348109847E0,-3.129566431E0,-9.895934105E0,5.444117546E0
2.350100472E0,-2.895174026E0,-9.948376656E0,5.685979843E0
2.352100472E0,-2.236644030E0,-9.916458130E0,5.632838249E0
2.354103597E0,-1.439528108E0,-9.816677094E0,5.441915035E0
2.356112972E0,-7.087124586E-1,-9.695578575E0,5.241961002E0
2.358102035E0,1.252837777E-1,-9.579823494E0,5.054811001E0
2.360100472E0,6.717651486E-1,-9.553391457E0,4.982908249E0
2.362100472E0,1.148939133E0,-9.555957794E0,4.926682949E0
2.364100472E0,1.547401190E0,-9.594485283E0,4.873598576E0
2.366103597E0,1.868310571E0,-9.647081375E0,4.832561970E0
2.368100472E0,2.096104383E0,-9.703019142E0,4.797453403E0
2.370100472E0,2.270383120E0,-9.754552841E0,4.768732548E0
2.372100472E0,2.301239729E0,-9.757875443E0,4.754549503E0
2.374100472E0,2.280745268E0,-9.723925591E0,4.731172562E0
2.376100472E0,2.217605352E0,-9.664751053E0,4.714173317E0
2.378106722E0,2.110651493E0,-9.585502625E0,4.673798084E0
2.380125472E0,1.988011003E0,-9.488891602E0,4.631774902E0
2.382105160E0,1.795201182E0,-9.352297783E0,4.590824127E0
2.384100472E0,1.638821483E0,-9.265187263E0,4.555361271E0
2.386112972E0,1.447860003E0,-9.212150574E0,4.515837669E0
2.388153597E0,1.257166624E0,-9.172770500E0,4.461288452E0
2.390105160E0,9.893128872E-1,-9.156087875E0,4.406882763E0
2.392100472E0,7.697933316E-1,-9.174858093E0,4.377692223E0
2.394100472E0,5.518539548E-1,-9.218384743E0,4.361315727E0
2.396100472E0,2.969384789E-1,-9.291350365E0,4.374723434E0
2.398100472E0,2.579034120E-2,-9.383153915E0,4.400197983E0
2.400100472E0,-3.127976656E-1,-9.484687805E0,4.496866226E0
2.402100472E0,-4.821730554E-1,-9.525906563E0,4.557343960E0
2.404137972E0,-8.042027354E-1,-9.602990150E0,4.671968937E0
2.406122347E0,-1.039428353E0,-9.658333778E0,4.784620762E0
2.408102035E0,-1.301066637E0,-9.711256027E0,4.910162926E0
2.410128597E0,-1.570720792E0,-9.735772133E0,5.036222458E0
2.412100472E0,-1.945059061E0,-9.732573509E0,5.217558861E0
2.414108285E0,-2.238205194E0,-9.696306229E0,5.345993519E0
2.416100472E0,-2.538983822E0,-9.623838425E0,5.493802071E0
2.418106722E0,-2.821058989E0,-9.516233444E0,5.628576756E0
2.420111410E0,-3.185360909E0,-9.348265648E0,5.812566280E0
2.422102035E0,-3.445122004E0,-9.195458412E0,5.947264194E0
2.424103597E0,-3.678049326E0,-9.018297195E0,6.062635899E0
2.426100472E0,-3.891382217E0,-8.840063095E0,6.162904739E0
2.428122347E0,-4.061217308E0,-8.662844658E0,6.270864487E0
2.430100472E0,-4.262282372E0,-8.403082848E0,6.379647255E0
2.432100472E0,-4.399230480E0,-8.216709137E0,6.458234310E0
2.434100472E0,-4.546847820E0,-8.035419464E0,6.535164833E0
2.436100472E0,-4.682867050E0,-7.876847267E0,6.596370697E0
2.438102035E0,-4.784773827E0,-7.713945389E0,6.647826672E0
2.440100472E0,-4.880666733E0,-7.547807217E0,6.688010693E0
2.442100472E0,-4.970525265E0,-7.357975483E0,6.724431515E0
2.444100472E0,-5.124827385E0,-6.997092724E0,6.730647087E0
2.446100472E0,-5.219599247E0,-6.888271332E0,6.717066765E0
2.448100472E0,-5.340094566E0,-6.823532104E0,6.669547081E0
2.450100472E0,-5.408626080E0,-6.804579735E0,6.625790596E0
2.452100472E0,-5.421641350E0,-6.778138161E0,6.572342396E0
2.454100472E0,-5.398704529E0,-6.756667137E0,6.492672920E0
2.456100472E0,-5.339204311E0,-6.724699497E0,6.388074875E0
2.458100472E0,-5.212991238E0,-6.693536758E0,6.284683704E0
2.460100472E0,-5.014885426E0,-6.663216591E0,6.142161846E0
2.462105160E0,-4.834324360E0,-6.655459404E0,6.028341293E0
2.464100472E0,-4.624582291E0,-6.641295433E0,5.905518532E0
2.466100472E0,-4.399230480E0,-6.618368149E0,5.776107311E0
2.468122347E0,-4.158805370E0,-6.601359844E0,5.614603996E0
2.470100472E0,-3.902769089E0,-6.575780392E0,5.444615841E0
2.472117660E0,-3.656731129E0,-6.544751644E0,5.253903389E0
2.474100472E0,-3.432404041E0,-6.494118690E0,5.079432964E0
2.476100472E0,-3.209331512E0,-6.460331917E0,4.946401596E0
2.478117660E0,-3.003842115E0,-6.419946194E0,4.819796562E0
2.480106722E0,-2.842415571E0,-6.387625217E0,4.725043297E0
2.482100472E0,-2.708349705E0,-6.352123737E0,4.643582821E0
2.484106722E0,-2.571794033E0,-6.313212872E0,4.573672295E0
2.486150472E0,-2.398587942E0,-6.260368347E0,4.485699654E0
2.488100472E0,-2.289575100E0,-6.221984386E0,4.432538986E0
2.490102035E0,-2.183176756E0,-6.195379734E0,4.368651867E0
2.492100472E0,-2.070879221E0,-6.174617767E0,4.318383217E0
2.494100472E0,-1.955038071E0,-6.161286831E0,4.267942429E0
2.496105160E0,-1.868540406E0,-6.175642014E0,4.243502617E0
2.498100472E0,-1.806607127E0,-6.192334652E0,4.230353355E0
2.500100472E0,-1.774189711E0,-6.210022926E0,4.257819176E0
2.502100472E0,-1.747431993E0,-6.192315578E0,4.298587799E0
2.504103597E0,-1.734905601E0,-6.145819664E0,4.349249363E0
2.506103597E0,-1.715512514E0,-6.079634666E0,4.425231934E0
2.508100472E0,-1.648905873E0,-5.988884926E0,4.493131161E0
2.510102035E0,-1.568221331E0,-5.878071785E0,4.567801952E0
2.512102035E0,-1.418602824E0,-5.749435902E0,4.718961716E0
2.514100472E0,-1.286395073E0,-5.666567802E0,4.859932423E0
2.516100472E0,-1.208075881E0,-5.580893517E0,4.958870411E0
2.518100472E0,-1.158372164E0,-5.515551090E0,5.053901196E0
2.520108285E0,-1.146449089E0,-5.478029251E0,5.110385418E0
2.522109847E0,-1.136632919E0,-5.427271843E0,5.185496330E0
2.524100472E0,-1.162155032E0,-5.380949020E0,5.261105061E0
2.526100472E0,-1.249026299E0,-5.360272884E0,5.344902039E0
2.528100472E0,-1.445695519E0,-5.380862713E0,5.492269993E0
2.530100472E0,-1.592431426E0,-5.409076214E0,5.589091301E0
2.532102035E0,-1.869957805E0,-5.452420712E0,5.736478329E0
2.534100472E0,-2.201142788E0,-5.487797260E0,5.887878418E0
2.536102035E0,-2.565530777E0,-5.513607025E0,6.054667950E0
2.538106722E0,-2.959673882E0,-5.513070583E0,6.221745014E0
2.540111410E0,-3.225794077E0,-5.504260063E0,6.330326557E0
2.542114535E0,-3.624237299E0,-5.463912964E0,6.471536636E0
2.544108285E0,-3.992618561E0,-5.420434475E0,6.602116585E0
2.546102035E0,-4.334367275E0,-5.375385284E0,6.728147507E0
2.548106722E0,-4.730032921E0,-5.324608803E0,6.874940395E0
2.550134847E0,-4.989008904E0,-5.297343731E0,6.965048790E0
2.552108285E0,-5.199583530E0,-5.271419525E0,7.048386097E0
2.554100472E0,-5.372043133E0,-5.279195786E0,7.118670464E0
2.556109847E0,-5.499835491E0,-5.292133808E0,7.167962551E0
2.558100472E0,-5.566940308E0,-5.325413227E0,7.227194786E0
2.560116097E0,-5.624267101E0,-5.390420437E0,7.261144638E0
2.562100472E0,-5.617438793E0,-5.443083286E0,7.273670673E0
2.564100472E0,-5.569497585E0,-5.496579647E0,7.285632133E0
2.566105160E0,-5.493687630E0,-5.560706139E0,7.271305561E0
2.568102035E0,-5.377846241E0,-5.614393711E0,7.246300220E0
2.570108285E0,-5.258567333E0,-5.660792828E0,7.211229801E0
2.572109847E0,-5.068218708E0,-5.721969604E0,7.157782078E0
2.574111410E0,-4.917355061E0,-5.762958527E0,7.093828201E0
2.576100472E0,-4.744991779E0,-5.787292957E0,7.021465778E0
2.578111410E0,-4.560676098E0,-5.811618328E0,6.940953732E0
2.580100472E0,-4.368575096E0,-5.830311775E0,6.845223427E0
2.582100472E0,-4.184624195E0,-5.842962742E0,6.755718708E0
2.584100472E0,-3.979919672E0,-5.854819298E0,6.665218353E0
2.586111410E0,-3.751397848E0,-5.869749546E0,6.583307743E0
2.588100472E0,-3.531734943E0,-5.890645981E0,6.500401497E0
2.590100472E0,-3.314140081E0,-5.904627800E0,6.425204277E0
2.592100472E0,-3.106926680E0,-5.907041550E0,6.348139763E0
2.594105160E0,-2.911004305E0,-5.896918774E0,6.278516293E0
2.596100472E0,-2.663070440E0,-5.862605095E0,6.189509392E0
2.598105160E0,-2.506326914E0,-5.825102329E0,6.126379013E0
2.600109847E0,-2.350177050E0,-5.774747372E0,6.092036724E0
2.602100472E0,-2.171560049E0,-5.723157406E0,6.036347866E0
2.604100472E0,-1.611221075E0,-5.397086143E0,5.882544041E0
2.606125472E0,-1.360337496E0,-5.205204964E0,5.857433796E0
2.608100472E0,-1.209426165E0,-5.103106976E0,5.841986179E0
2.610102035E0,-1.073741913E0,-5.004542351E0,5.834037781E0
2.612105160E0,-9.453649521E-1,-4.917211533E0,5.823014736E0
2.614155160E0,-8.145552874E-1,-4.841679096E0,5.819797039E0
2.616112972E0,-6.908516884E-1,-4.769843578E0,5.802644730E0
2.618111410E0,-5.961657763E-1,-4.681928158E0,5.778424740E0
2.620100472E0,-5.397201180E-1,-4.587002754E0,5.765371799E0
2.622112972E0,-5.379101038E-1,-4.499805927E0,5.742262840E0
2.624100472E0,-5.580980182E-1,-4.443561554E0,5.727409363E0
2.626103597E0,-6.371641159E-1,-4.370777607E0,5.704243183E0
2.628100472E0,-7.413310409E-1,-4.308499813E0,5.699962616E0
2.630111410E0,-8.453447223E-1,-4.291462898E0,5.691563606E0
2.632102035E0,-9.623541832E-1,-4.271131516E0,5.679056168E0
2.634103597E0,-1.163409710E0,-4.274684429E0,5.678184509E0
2.636103597E0,-1.323552966E0,-4.287354469E0,5.669756889E0
2.638112972E0,-1.590631008E0,-4.306508064E0,5.675311565E0
2.640100472E0,-1.895882130E0,-4.338953972E0,5.672285080E0
2.642102035E0,-2.202885628E0,-4.378190517E0,5.683059216E0
2.644100472E0,-2.409198999E0,-4.406672001E0,5.698803425E0
2.646100472E0,-2.722839355E0,-4.443992615E0,5.751427650E0
2.648100472E0,-3.057845592E0,-4.494682789E0,5.804320812E0
2.650117660E0,-3.382001400E0,-4.546282768E0,5.859770298E0
2.652111410E0,-3.695383310E0,-4.608311653E0,5.918897629E0
2.654102035E0,-4.013323784E0,-4.667946339E0,5.985408783E0
2.656128597E0,-4.443418026E0,-4.740127087E0,6.086280823E0
2.658133285E0,-4.745422840E0,-4.806312084E0,6.184375763E0
2.660100472E0,-5.045368195E0,-4.876969814E0,6.259085178E0
2.662100472E0,-5.345984459E0,-4.933271885E0,6.323058128E0
2.664100472E0,-5.640872955E0,-4.987466812E0,6.393782616E0
2.666112972E0,-5.920783997E0,-5.036911964E0,6.455170155E0
2.668111410E0,-6.258529186E0,-5.109628201E0,6.518865108E0
2.670100472E0,-6.479763031E0,-5.158834457E0,6.556167126E0
2.672100472E0,-6.664950371E0,-5.203510284E0,6.585404873E0
2.674100472E0,-6.823752403E0,-5.255751610E0,6.608054161E0
2.676105160E0,-6.943137169E0,-5.293790340E0,6.619201660E0
2.678100472E0,-7.044804096E0,-5.372377872E0,6.604797840E0
2.680100472E0,-7.080008984E0,-5.420482635E0,6.592922688E0
2.682148910E0,-7.068047523E0,-5.473719597E0,6.577704906E0
2.684137972E0,-7.026522636E0,-5.525051117E0,6.545853138E0
2.686100472E0,-6.911409378E0,-5.618712425E0,6.499041557E0
2.688100472E0,-6.767843246E0,-5.691065311E0,6.460456371E0
2.690100472E0,-6.586726665E0,-5.760688305E0,6.434196949E0
2.692100472E0,-6.369610786E0,-5.830589771E0,6.393610477E0
2.694105160E0,-6.116304398E0,-5.896774769E0,6.373393536E0
2.696152035E0,-5.845261574E0,-5.944755077E0,6.377023220E0
2.698100472E0,-5.468538761E0,-6.012759686E0,6.380298138E0
2.700119222E0,-5.188196659E0,-6.054553032E0,6.409929276E0
2.702112972E0,-4.923062801E0,-6.106085777E0,6.446052551E0
2.704100472E0,-4.689379215E0,-6.146365643E0,6.498456955E0
2.706106722E0,-4.421659470E0,-6.188283920E0,6.566251278E0
2.708133285E0,-4.323133469E0,-6.200503349E0,6.610036850E0
2.710111410E0,-4.158546448E0,-6.213921070E0,6.680579185E0
2.712100472E0,-4.084575176E0,-6.200513363E0,6.725580692E0
2.714100472E0,-4.035982609E0,-6.181551456E0,6.757663250E0
2.716102035E0,-4.014329433E0,-6.139757633E0,6.784478188E0
2.718103597E0,-4.025026798E0,-6.090360641E0,6.790253162E0
2.720108285E0,-4.075410366E0,-6.035045147E0,6.789946079E0
2.722120785E0,-4.123390198E0,-5.983723164E0,6.798077106E0
2.724103597E0,-4.197447300E0,-5.936413765E0,6.789103508E0
2.726102035E0,-4.262703419E0,-5.888309002E0,6.763811588E0
2.728100472E0,-4.312369347E0,-5.854522228E0,6.735377789E0
2.730111410E0,-4.410358906E0,-5.796352386E0,6.694676399E0
2.732100472E0,-4.494366646E0,-5.748651028E0,6.633825302E0
2.734127035E0,-4.526678562E0,-5.732992649E0,6.605947495E0
2.736127035E0,-4.565972805E0,-5.703093529E0,6.562525749E0
2.738116097E0,-4.633383751E0,-5.681249142E0,6.493620872E0
2.740119222E0,-4.684954643E0,-5.667649746E0,6.449644089E0
2.742112972E0,-4.727705479E0,-5.642931938E0,6.399078846E0
2.744100472E0,-4.786832809E0,-5.636410713E0,6.346367836E0
2.746114535E0,-4.859760284E0,-5.638182163E0,6.295457363E0
2.748100472E0,-4.965880871E0,-5.648180008E0,6.232949734E0
2.750141097E0,-5.068439007E0,-5.643784523E0,6.185803413E0
2.752102035E0,-5.187430859E0,-5.633212090E0,6.127921104E0
2.754108285E0,-5.304487705E0,-5.612717152E0,6.073677540E0
2.756109847E0,-5.441340446E0,-5.604912758E0,6.039460182E0
2.758116097E0,-5.573031425E0,-5.564756870E0,5.995703697E0
2.760100472E0,-5.741190434E0,-5.510552406E0,5.949667931E0
2.762100472E0,-5.851974487E0,-5.457745552E0,5.914894581E0
2.764103597E0,-5.932314396E0,-5.400016785E0,5.887753963E0
2.766100472E0,-5.998892784E0,-5.344902039E0,5.849149704E0
2.768100472E0,-6.059341431E0,-5.287603855E0,5.818494320E0
2.770100472E0,-6.118372917E0,-5.244968414E0,5.802482128E0
2.772100472E0,-5.969798565E0,-5.422100544E0,5.824594498E0
2.774106722E0,-5.772630692E0,-5.580769062E0,5.871636391E0
2.776100472E0,-5.581793785E0,-5.698171616E0,5.926913738E0
2.778103597E0,-5.370864868E0,-5.803353310E0,5.987285614E0
2.780122347E0,-5.103096962E0,-5.909981251E0,6.112185955E0
2.782128597E0,-4.911005974E0,-5.976588249E0,6.212493420E0
2.784150472E0,-4.756579399E0,-6.007080555E0,6.301855087E0
2.786105160E0,-4.605390549E0,-6.010336876E0,6.412534237E0
2.788102035E0,-4.525098801E0,-5.983799934E0,6.466873169E0
2.790100472E0,-4.447325230E0,-5.924279690E0,6.546714783E0
2.792105160E0,-4.400102139E0,-5.836373806E0,6.605937481E0
2.794100472E0,-4.352323532E0,-5.728060722E0,6.653496265E0
2.796100472E0,-4.322395802E0,-5.615542412E0,6.672889233E0
2.798100472E0,-4.305713177E0,-5.484091282E0,6.677265644E0
2.800100472E0,-4.287009716E0,-5.357131958E0,6.669239998E0
2.802100472E0,-4.253864288E0,-5.238379478E0,6.654855728E0
2.804100472E0,-4.225986481E0,-5.114091396E0,6.619575024E0
2.806106722E0,-4.176388264E0,-4.969874382E0,6.564039230E0
2.808106722E0,-4.139143467E0,-4.868944168E0,6.507737160E0
2.810100472E0,-4.112165928E0,-4.813264847E0,6.479715347E0
2.812145785E0,-4.065660954E0,-4.741591930E0,6.436447144E0
2.814114535E0,-4.037237167E0,-4.681229591E0,6.389616489E0
2.816111410E0,-4.026894093E0,-4.628777504E0,6.325040340E0
2.818131722E0,-4.025543690E0,-4.564775467E0,6.252745152E0
2.820100472E0,-4.039592743E0,-4.519965172E0,6.170595169E0
2.822109847E0,-4.057932377E0,-4.473623753E0,6.082507610E0
2.824105160E0,-4.082439423E0,-4.427721500E0,6.000233173E0
2.826100472E0,-4.119367599E0,-4.383831024E0,5.913467407E0
2.828100472E0,-4.163066387E0,-4.347286224E0,5.835972309E0
2.830100472E0,-4.252025604E0,-4.317416191E0,5.758582115E0
2.832120785E0,-4.323410988E0,-4.285008430E0,5.704577923E0
2.834100472E0,-4.445744991E0,-4.226695061E0,5.636381626E0
2.836100472E0,-4.576756001E0,-4.163085938E0,5.572724819E0
2.838100472E0,-4.676594257E0,-4.116714954E0,5.527129173E0
2.840103597E0,-4.870955467E0,-4.010910511E0,5.459603310E0
2.842100472E0,-4.975160599E0,-3.962662458E0,5.439607143E0
2.844103597E0,-5.129749298E0,-3.895414114E0,5.417063713E0
2.846105160E0,-5.302371502E0,-3.789236069E0,5.392527580E0
2.848103597E0,-5.552019596E0,-3.616642714E0,5.375834942E0
2.850100472E0,-6.504385471E0,-2.612313509E0,5.413587093E0
2.852100472E0,-7.087967396E0,-2.038365841E0,5.482118607E0
2.854100472E0,-7.288696766E0,-1.940577149E0,5.602805614E0
2.856105160E0,-7.340880871E0,-2.085004807E0,5.720370293E0
2.858100472E0,-7.281849384E0,-2.438503981E0,5.839036465E0
2.860106722E0,-7.139451981E0,-2.761117935E0,5.870716572E0
2.862100472E0,-6.917997837E0,-3.092255116E0,5.821788788E0
2.864105160E0,-6.636841774E0,-3.430852890E0,5.741927624E0
2.866100472E0,-6.353531361E0,-3.752480268E0,5.651158810E0
2.868100472E0,-6.132297516E0,-4.048729420E0,5.560294151E0
2.870119222E0,-5.957999706E0,-4.303835869E0,5.474744797E0
2.872100472E0,-5.840348721E0,-4.539741516E0,5.353693485E0
2.874147347E0,-5.798708439E0,-4.658944130E0,5.236511707E0
2.876150472E0,-5.790635109E0,-4.722878933E0,5.142601490E0
2.878100472E0,-5.823608398E0,-4.723118305E0,5.051966667E0
2.880108285E0,-5.910958290E0,-4.636304855E0,4.932562828E0
2.882102035E0,-5.998892784E0,-4.540153503E0,4.861302376E0
2.884122347E0,-6.105166435E0,-4.436484337E0,4.809424400E0
2.886147347E0,-6.199517250E0,-4.308672428E0,4.755411148E0
2.888141097E0,-6.285210609E0,-4.178811073E0,4.724813461E0
2.890100472E0,-6.342268944E0,-4.049533844E0,4.719622612E0
2.892100472E0,-6.355484962E0,-3.859998941E0,4.769383907E0
2.894100472E0,-6.307237148E0,-3.767065763E0,4.805124283E0
2.896103597E0,-6.242546082E0,-3.718434572E0,4.841018677E0
2.898100472E0,-6.118640900E0,-3.672485113E0,4.907960415E0
2.900106722E0,-5.901812553E0,-3.638401270E0,5.021790028E0
2.902147347E0,-5.783031464E0,-3.620435238E0,5.093587399E0
2.904103597E0,-5.505112171E0,-3.620214939E0,5.250139713E0
2.906100472E0,-5.255914688E0,-3.632444620E0,5.372215271E0
2.908109847E0,-5.017786980E0,-3.663454056E0,5.486629486E0
2.910100472E0,-4.685385704E0,-3.716758728E0,5.644368649E0
2.912100472E0,-4.443312645E0,-3.758073092E0,5.751284122E0
2.914111410E0,-4.228992939E0,-3.818473816E0,5.839716434E0
2.916100472E0,-4.043605328E0,-3.859759569E0,5.931979656E0
2.918100472E0,-3.917325735E0,-3.901026011E0,6.018381119E0
2.920112972E0,-3.847482204E0,-3.945088863E0,6.120565891E0
2.922105160E0,-3.862738132E0,-3.987839937E0,6.262886524E0
2.924100472E0,-3.925839663E0,-3.994581699E0,6.368203163E0
2.926117660E0,-4.022632122E0,-3.983185530E0,6.470550060E0
2.928100472E0,-4.207119942E0,-3.955651999E0,6.585816860E0
2.930100472E0,-4.379368305E0,-3.921041489E0,6.651599884E0
2.932100472E0,-4.998059273E0,-3.732129335E0,6.706752777E0
2.934100472E0,-5.320318222E0,-3.638592720E0,6.670839787E0
2.936100472E0,-5.518031597E0,-3.584541321E0,6.639600277E0
2.938100472E0,-5.719192505E0,-3.534770727E0,6.592491627E0
2.940100472E0,-5.928014755E0,-3.485038280E0,6.547662735E0
2.942100472E0,-6.136329651E0,-3.438992977E0,6.497997761E0
2.944100472E0,-6.324733734E0,-3.389691591E0,6.419745445E0
2.946120785E0,-6.533546448E0,-3.323851109E0,6.320434093E0
2.948114535E0,-6.674095631E0,-3.277796030E0,6.251873493E0
2.950103597E0,-6.804244518E0,-3.244794369E0,6.166467667E0
2.952122347E0,-6.957330227E0,-3.214579582E0,6.087535858E0
2.954100472E0,-7.111545563E0,-3.189067125E0,6.011045456E0
2.956122347E0,-7.282902718E0,-3.176454306E0,5.903114796E0
2.958139535E0,-7.457555294E0,-3.174816847E0,5.796161175E0
2.960116097E0,-7.634180069E0,-3.186892986E0,5.675445080E0
2.962100472E0,-7.799370766E0,-3.212808132E0,5.556252480E0
2.964103597E0,-7.934920788E0,-3.246307611E0,5.448283672E0
2.966106722E0,-8.074005127E0,-3.286741018E0,5.322310448E0
2.968100472E0,-8.135497093E0,-3.334577084E0,5.228725433E0
2.970111410E0,-8.161153793E0,-3.382796288E0,5.153825760E0
2.972109847E0,-8.160703659E0,-3.433448076E0,5.094870567E0
2.974100472E0,-8.126457214E0,-3.508798361E0,5.044142723E0
2.976100472E0,-8.056593895E0,-3.607793808E0,5.004551888E0
2.978103597E0,-7.947581291E0,-3.723366737E0,4.966819286E0
2.980106722E0,-7.775371075E0,-3.869393826E0,4.950663090E0
2.982100472E0,-7.495699883E0,-4.024068832E0,4.932285309E0
2.984100472E0,-7.143598557E0,-4.180065632E0,4.913084030E0
2.986103597E0,-6.707432747E0,-4.339777946E0,4.918657780E0
2.988100472E0,-6.242363930E0,-4.483420372E0,4.935541630E0
2.990105160E0,-5.763801098E0,-4.614124298E0,4.969385624E0
2.992100472E0,-5.298923969E0,-4.690567017E0,5.036499977E0
2.994153597E0,-4.837848663E0,-4.764078140E0,5.111525059E0
2.996134847E0,-4.416516781E0,-4.801561832E0,5.194028854E0
2.998142660E0,-3.902108192E0,-4.830550671E0,5.298129082E0
3.000102035E0,-3.587280273E0,-4.821797848E0,5.376888752E0
3.002114535E0,-3.347046137E0,-4.785166740E0,5.453378201E0
3.004112972E0,-3.164205790E0,-4.726747990E0,5.512074471E0
3.006109847E0,-3.061379671E0,-4.667726040E0,5.554126263E0
3.008103597E0,-3.045127630E0,-4.601157665E0,5.583498478E0
3.010106722E0,-3.102396965E0,-4.505916595E0,5.601033688E0
3.012100472E0,-3.218544483E0,-4.417244434E0,5.592816830E0
3.014100472E0,-3.397640467E0,-4.313508987E0,5.561108112E0
3.016100472E0,-3.627215624E0,-4.191375256E0,5.513415337E0
3.018106722E0,-3.958735943E0,-4.042207241E0,5.412265301E0
3.020100472E0,-4.293167591E0,-3.915199757E0,5.295907021E0
3.022109847E0,-4.541446209E0,-3.824497700E0,5.212933540E0
3.024102035E0,-4.788719177E0,-3.734609842E0,5.137736797E0
3.026100472E0,-5.023561954E0,-3.672178745E0,5.037313938E0
3.028111410E0,-5.255311012E0,-3.623413563E0,4.938203812E0
3.030119222E0,-5.396952152E0,-3.602306366E0,4.878272057E0
3.032100472E0,-5.591265678E0,-3.589061499E0,4.793699265E0
3.034100472E0,-5.777409554E0,-3.578038692E0,4.690863609E0
3.036108285E0,-5.943624973E0,-3.572503090E0,4.592117310E0
3.038100472E0,-6.085351944E0,-3.559919357E0,4.486916065E0
3.040102035E0,-6.224847794E0,-3.551539660E0,4.381140232E0
3.042123910E0,-6.346128464E0,-3.527645588E0,4.285764694E0
3.044109847E0,-6.466479778E0,-3.490420341E0,4.207282543E0
3.046109847E0,-6.553983212E0,-3.471343517E0,4.178906918E0
3.048100472E0,-6.656033993E0,-3.459458828E0,4.116887093E0
3.050100472E0,-6.714998722E0,-3.450887442E0,4.072786331E0
3.052105160E0,-6.726557732E0,-3.449106216E0,4.040809155E0
3.054100472E0,-6.708409786E0,-3.453176260E0,4.009234428E0
3.056111410E0,-6.670839787E0,-3.478047132E0,4.012413979E0
3.058100472E0,-6.608216763E0,-3.519917011E0,4.033587933E0
3.060102035E0,-6.516183853E0,-3.576678753E0,4.056495667E0
3.062100472E0,-6.388611317E0,-3.638784409E0,4.101334572E0
3.064103597E0,-6.208998203E0,-3.697451830E0,4.143520355E0
3.066100472E0,-5.899495125E0,-3.774688721E0,4.200617313E0
3.068120785E0,-5.622035503E0,-3.818703890E0,4.250062466E0
3.070111410E0,-5.357179642E0,-3.824775696E0,4.291539669E0
3.072103597E0,-5.091164589E0,-3.807575703E0,4.337613583E0
3.074105160E0,-4.767199993E0,-3.763838291E0,4.385736942E0
3.076119222E0,-4.564191341E0,-3.709710121E0,4.437193394E0
3.078134847E0,-4.373239040E0,-3.650764942E0,4.467657089E0
3.080100472E0,-4.225641727E0,-3.593255997E0,4.489463329E0
3.082100472E0,-4.146134853E0,-3.534071445E0,4.516718864E0
3.084109847E0,-4.113056660E0,-3.463710785E0,4.559766769E0
3.086100472E0,-4.131894112E0,-3.428726673E0,4.584359646E0
3.088100472E0,-4.213651180E0,-3.403511047E0,4.579427719E0
3.090100472E0,-4.332087994E0,-3.393867254E0,4.565206528E0
3.092142660E0,-4.475567341E0,-3.389586210E0,4.536313057E0
3.094109847E0,-4.674765110E0,-3.393608570E0,4.462044716E0
3.096100472E0,-4.827323914E0,-3.394259691E0,4.390372276E0
3.098100472E0,-4.951630592E0,-3.407964230E0,4.286329746E0
3.100116097E0,-5.050683498E0,-3.442737579E0,4.182105541E0
3.102100472E0,-5.124233246E0,-3.483601809E0,4.073226452E0
3.104100472E0,-5.340305328E0,-3.628958464E0,3.708771706E0
3.106102035E0,-5.534992218E0,-3.681841850E0,3.563654184E0
3.108100472E0,-5.795596123E0,-3.732493401E0,3.479033709E0
3.110100472E0,-6.030189514E0,-3.761204481E0,3.434932470E0
3.112111410E0,-6.287681103E0,-3.791294813E0,3.394949198E0
3.114100472E0,-6.578615189E0,-3.835913420E0,3.380584002E0
3.116100472E0,-6.898566246E0,-3.878233194E0,3.379779577E0
3.118106722E0,-7.254009724E0,-3.921386242E0,3.404736757E0
3.120100472E0,-7.622687817E0,-3.955680847E0,3.429780006E0
3.122100472E0,-8.008202553E0,-3.984851837E0,3.445447683E0
3.124122347E0,-8.398495674E0,-4.004187584E0,3.463806629E0
3.126100472E0,-8.890561104E0,-4.021741867E0,3.478755951E0
3.128109847E0,-9.244367599E0,-4.028397560E0,3.495812178E0
3.130100472E0,-9.468521118E0,-4.035120487E0,3.501137018E0
3.132106722E0,-9.675725937E0,-4.038980007E0,3.496137857E0
3.134148910E0,-9.870038986E0,-4.037639141E0,3.487815619E0
3.136100472E0,-1.005332947E1,-4.027229309E0,3.473364353E0
3.138100472E0,-1.021907520E1,-4.013266087E0,3.448818922E0
3.140106722E0,-1.037650871E1,-3.996554613E0,3.415692568E0
3.142100472E0,-1.051162815E1,-3.979766607E0,3.375412703E0
3.144100472E0,-1.063140392E1,-3.970850468E0,3.329731226E0
3.146112972E0,-1.078574371E1,-3.943844080E0,3.259619474E0
3.148100472E0,-1.094343662E1,-3.937389135E0,3.174874306E0
3.150133285E0,-1.103609180E1,-3.930235386E0,3.090406656E0
3.152100472E0,-1.107286739E1,-3.907500029E0,3.017738104E0
3.154103597E0,-1.105958366E1,-3.888202667E0,2.956398726E0
3.156105160E0,-1.096350861E1,-3.839332342E0,2.877677202E0
3.158119222E0,-1.086415958E1,-3.783509016E0,2.797375679E0
3.160102035E0,-1.073642349E1,-3.710150719E0,2.715991974E0
3.162100472E0,-1.056321812E1,-3.627359152E0,2.636054516E0
3.164111410E0,-1.035988235E1,-3.546799183E0,2.555063248E0
3.166109847E0,-1.015781212E1,-3.467292547E0,2.467713356E0
3.168100472E0,-9.822337151E0,-3.344699621E0,2.319330215E0
3.170100472E0,-9.604426384E0,-3.302044630E0,2.249869585E0
3.172103597E0,-9.456483841E0,-3.295494080E0,2.212903023E0
3.174105160E0,-9.261605263E0,-3.331972122E0,2.167413235E0
3.176123910E0,-9.128870964E0,-3.410607338E0,2.127056599E0
3.178100472E0,-8.999794960E0,-3.571670055E0,2.107443333E0
3.180148910E0,-8.951086998E0,-3.692021847E0,2.091421366E0
3.182133285E0,-8.936204910E0,-3.818885803E0,2.095979929E0
3.184100472E0,-8.950923920E0,-3.930321455E0,2.106026173E0
3.186100472E0,-9.007896423E0,-4.066092014E0,2.151621103E0
3.188100472E0,-9.090170860E0,-4.163124084E0,2.202196360E0
3.190103597E0,-9.156777382E0,-4.234193325E0,2.271206856E0
3.192100472E0,-9.194481850E0,-4.264389038E0,2.325622082E0
3.194105160E0,-9.191158295E0,-4.249344349E0,2.375565290E0
3.196100472E0,-9.146846771E0,-4.195761681E0,2.410012960E0
3.198100472E0,-9.055953026E0,-4.101334572E0,2.430430651E0
3.200108285E0,-8.911917686E0,-3.949887037E0,2.451193333E0
3.202100472E0,-8.765095711E0,-3.828778505E0,2.462723732E0
3.204102035E0,-8.567755699E0,-3.702527523E0,2.470098019E0
3.206105160E0,-8.253512383E0,-3.539683580E0,2.473459482E0
3.208102035E0,-8.008297920E0,-3.435095310E0,2.447937250E0
3.210100472E0,-7.795310020E0,-3.337478876E0,2.420595407E0
3.212100472E0,-7.608399391E0,-3.262616873E0,2.397591829E0
3.214100472E0,-7.472179413E0,-3.201267719E0,2.354697227E0
3.216119222E0,-7.370942593E0,-3.144812822E0,2.343894720E0
3.218100472E0,-7.320089817E0,-3.102703333E0,2.300875664E0
3.220100472E0,-7.351166725E0,-3.084861755E0,2.264627457E0
3.222109847E0,-7.424065113E0,-3.093643904E0,2.247130632E0
3.224142660E0,-7.537444592E0,-3.105825424E0,2.233847618E0
3.226102035E0,-7.675274372E0,-3.134010077E0,2.234278679E0
3.228152035E0,-7.848116875E0,-3.172096968E0,2.222824812E0
3.230111410E0,-8.125097275E0,-3.192801952E0,2.231664181E0
3.232109847E0,-8.326985359E0,-3.219166994E0,2.248299122E0
3.234100472E0,-8.548325539E0,-3.242429018E0,2.258986712E0
3.236127035E0,-8.778733253E0,-3.271686316E0,2.286740303E0
3.238100472E0,-9.110589027E0,-3.327298880E0,2.334537983E0
3.240136410E0,-9.356808662E0,-3.385324717E0,2.363651514E0
3.242102035E0,-9.613390923E0,-3.429502487E0,2.395705223E0
3.244100472E0,-9.849306107E0,-3.469926119E0,2.415806770E0
3.246100472E0,-1.008820820E1,-3.521908998E0,2.419245005E0
3.248106722E0,-1.031716156E1,-3.569783449E0,2.435228825E0
3.250103597E0,-1.064502335E1,-3.634034157E0,2.450446367E0
3.252106722E0,-1.086935043E1,-3.691322803E0,2.447640419E0
3.254100472E0,-1.107917786E1,-3.752192974E0,2.435046911E0
3.256100472E0,-1.127738857E1,-3.839274883E0,2.407379389E0
3.258100472E0,-1.149482155E1,-3.988241911E0,2.414131165E0
3.260102035E0,-1.164769554E1,-4.119472980E0,2.442114592E0
3.262100472E0,-1.179301357E1,-4.260376453E0,2.474072218E0
3.264100472E0,-1.206254387E1,-4.775005341E0,2.606825829E0
3.266103597E0,-1.195448875E1,-4.889074802E0,2.613204002E0
3.268100472E0,-1.182004929E1,-4.908084869E0,2.607888937E0
3.270100472E0,-1.166247272E1,-4.888806820E0,2.586839199E0
3.272100472E0,-1.145876503E1,-4.849561214E0,2.564486742E0
3.274100472E0,-1.113170719E1,-4.784352303E0,2.531303167E0
3.276100472E0,-1.088003826E1,-4.727724552E0,2.515501499E0
3.278100472E0,-1.062804317E1,-4.690318108E0,2.498090744E0
3.280100472E0,-1.036516953E1,-4.652355671E0,2.498435497E0
3.282100472E0,-1.011411285E1,-4.629907131E0,2.505043745E0
3.284142660E0,-9.960473061E0,-4.630635262E0,2.513011456E0
3.286155160E0,-9.744746208E0,-4.637329102E0,2.523823738E0
3.288114535E0,-9.523828506E0,-4.680846214E0,2.544365883E0
3.290127035E0,-9.263079643E0,-4.747223377E0,2.562753439E0
3.292100472E0,-9.089098930E0,-4.790452480E0,2.596282005E0
3.294100472E0,-8.918774605E0,-4.834640026E0,2.631658792E0
3.296100472E0,-8.791518211E0,-4.872430325E0,2.670473337E0
3.298100472E0,-8.737753868E0,-4.913179874E0,2.715292931E0
3.300100472E0,-8.718007088E0,-4.943365574E0,2.780520439E0
3.302100472E0,-8.751592636E0,-4.957616329E0,2.848371983E0
3.304100472E0,-8.854227066E0,-4.950127125E0,2.928290606E0
3.306102035E0,-8.994393349E0,-4.934248447E0,3.002041817E0
3.308109847E0,-9.167924881E0,-4.903554916E0,3.084689379E0
3.310100472E0,-9.383001328E0,-4.860143185E0,3.153661728E0
3.312100472E0,-9.630139351E0,-4.816903591E0,3.226569891E0
3.314100472E0,-9.888369560E0,-4.778079510E0,3.302437305E0
3.316100472E0,-1.024688625E1,-4.724171638E0,3.396481752E0
3.318106722E0,-1.050900364E1,-4.699348450E0,3.453837156E0
3.320100472E0,-1.076283646E1,-4.674678802E0,3.516268253E0
3.322100472E0,-1.100034142E1,-4.663129330E0,3.552075863E0
3.324125472E0,-1.121293736E1,-4.664498329E0,3.577301264E0
3.326144222E0,-1.139103699E1,-4.687684059E0,3.594941616E0
3.328100472E0,-1.148396111E1,-4.713503361E0,3.597297668E0
3.330105160E0,-1.159936142E1,-4.765419006E0,3.600256920E0
3.332100472E0,-1.167078495E1,-4.807432652E0,3.596971989E0
3.334100472E0,-1.175641155E1,-4.884746075E0,3.591675997E0
3.336102035E0,-1.180687237E1,-4.956447601E0,3.591972828E0
3.338105160E0,-1.184239197E1,-5.017030239E0,3.572235107E0
3.340106722E0,-1.186580753E1,-5.071943760E0,3.538160801E0
3.342142660E0,-1.186554909E1,-5.105683327E0,3.493820429E0
3.344102035E0,-1.184951782E1,-5.114387989E0,3.450609684E0
3.346112972E0,-1.181190872E1,-5.108211517E0,3.421074629E0
3.348100472E0,-1.177278805E1,-5.083340168E0,3.386741877E0
3.350102035E0,-1.168909550E1,-5.034498692E0,3.332757473E0
3.352108285E0,-1.155092144E1,-4.979508877E0,3.282728195E0
3.354100472E0,-1.141753578E1,-4.910823822E0,3.220498085E0
3.356100472E0,-1.125646400E1,-4.837446213E0,3.163947105E0
3.358100472E0,-1.110470963E1,-4.770954609E0,3.329769611E0
3.360100472E0,-1.092586327E1,-4.694732189E0,3.384060621E0
3.362100472E0,-1.068872166E1,-4.572178364E0,3.269560099E0
3.364100472E0,-1.057960320E1,-4.520434380E0,3.237094641E0
3.366137972E0,-1.043841267E1,-4.433650017E0,3.177709103E0
3.368137972E0,-1.030031586E1,-4.365778923E0,3.124749184E0
3.370100472E0,-1.014205837E1,-4.310874939E0,3.071253061E0
3.372100472E0,-1.001503181E1,-4.286473274E0,3.017853022E0
3.374102035E0,-9.913306236E0,-4.303673267E0,2.971127748E0
3.376100472E0,-9.811515808E0,-4.331857681E0,2.927476645E0
3.378117660E0,-9.709235191E0,-4.352821350E0,2.878673077E0
3.380111410E0,-9.609444618E0,-4.374148846E0,2.811597109E0
3.382100472E0,-9.539256096E0,-4.377261639E0,2.751952887E0
3.384100472E0,-9.459501266E0,-4.389481544E0,2.698830366E0
3.386103597E0,-9.392022133E0,-4.403904438E0,2.660523176E0
3.388141097E0,-9.333651543E0,-4.433257103E0,2.601079941E0
3.390100472E0,-9.309796333E0,-4.461537361E0,2.569131613E0
3.392100472E0,-9.278412819E0,-4.499988079E0,2.552334070E0
3.394112972E0,-9.239521027E0,-4.525175095E0,2.521257162E0
3.396106722E0,-9.237222672E0,-4.556654453E0,2.485669613E0
3.398100472E0,-9.261251450E0,-4.562994003E0,2.459017515E0
3.400133285E0,-9.302326202E0,-4.560399055E0,2.426025391E0
3.402103597E0,-9.408666611E0,-4.528565407E0,2.406852722E0
3.404102035E0,-9.516406059E0,-4.478564739E0,2.401068449E0
3.406103597E0,-9.643988609E0,-4.421267033E0,2.405157566E0
3.408100472E0,-9.789650917E0,-4.367291927E0,2.399382830E0
3.410114535E0,-9.954736710E0,-4.300848007E0,2.386837244E0
3.412111410E0,-1.017749310E1,-4.193913460E0,2.376848698E0
3.414100472E0,-1.033860397E1,-4.114732265E0,2.349391937E0
3.416102035E0,-1.047085953E1,-4.032295227E0,2.333159208E0
3.418100472E0,-1.059614277E1,-3.971004009E0,2.292170525E0
3.420106722E0,-1.072948074E1,-3.883222580E0,2.221168041E0
3.422100472E0,-1.081068230E1,-3.830368519E0,2.159263372E0
3.424103597E0,-1.088367653E1,-3.790279865E0,2.104369164E0
3.426100472E0,-1.094765949E1,-3.748659134E0,2.038672447E0
3.428100472E0,-1.100301361E1,-3.716979027E0,1.984640002E0
3.430103597E0,-1.105846310E1,-3.660868406E0,1.918990970E0
3.432100472E0,-1.115440369E1,-3.503377914E0,1.706606030E0
3.434100472E0,-1.109958553E1,-3.434894085E0,1.600543022E0
3.436103597E0,-1.104835892E1,-3.396558046E0,1.508442879E0
3.438100472E0,-1.099925041E1,-3.396452904E0,1.440045238E0
3.440120785E0,-1.096276283E1,-3.406939507E0,1.386855721E0
3.442100472E0,-1.093010521E1,-3.454162598E0,1.341011524E0
3.444103597E0,-1.091845989E1,-3.553742409E0,1.329739571E0
3.446100472E0,-1.090745640E1,-3.681353331E0,1.302426457E0
3.448148910E0,-1.090035915E1,-3.831986904E0,1.284958482E0
3.450103597E0,-1.087541199E1,-4.004263878E0,1.284067869E0
3.452116097E0,-1.082969284E1,-4.189738274E0,1.279490113E0
3.454109847E0,-1.074996567E1,-4.385354042E0,1.281836390E0
3.456100472E0,-1.061290264E1,-4.643238068E0,1.302426457E0
3.458100472E0,-1.048852825E1,-4.829277515E0,1.336156130E0
3.460100472E0,-1.036250687E1,-4.985110760E0,1.377642870E0
3.462100472E0,-1.024102497E1,-5.097016335E0,1.421217322E0
3.464109847E0,-1.011272430E1,-5.156804085E0,1.476197720E0
3.466100472E0,-1.000745678E1,-5.186482430E0,1.512091517E0
3.468111410E0,-9.920738220E0,-5.168324471E0,1.557887912E0
3.470100472E0,-9.833331108E0,-5.105567932E0,1.602171063E0
3.472106722E0,-9.754120827E0,-5.016800880E0,1.669132113E0
3.474100472E0,-9.668504715E0,-4.849962711E0,1.729341388E0
3.476100472E0,-9.608544350E0,-4.751274109E0,1.762333632E0
3.478111410E0,-9.506713867E0,-4.590987206E0,1.815504074E0
3.480106722E0,-9.415169716E0,-4.443964005E0,1.844445109E0
3.482100472E0,-9.339991570E0,-4.284423828E0,1.860878944E0
3.484122347E0,-9.267208099E0,-4.131999493E0,1.856598020E0
3.486144222E0,-9.145410538E0,-3.941746473E0,1.837281585E0
3.488105160E0,-9.035803795E0,-3.817535400E0,1.796197176E0
3.490116097E0,-8.927135468E0,-3.706272125E0,1.729418039E0
3.492136410E0,-8.817834854E0,-3.614420891E0,1.666038871E0
3.494125472E0,-8.740166664E0,-3.546349049E0,1.608041644E0
3.496102035E0,-8.715870857E0,-3.493293524E0,1.526456833E0
3.498102035E0,-8.689343452E0,-3.444040060E0,1.440428376E0
3.500147347E0,-8.666923523E0,-3.423536062E0,1.363488317E0
3.502111410E0,-8.679172516E0,-3.404286623E0,1.290091634E0
3.504100472E0,-8.724614143E0,-3.392114401E0,1.224969387E0
3.506111410E0,-8.786461830E0,-3.383533716E0,1.166455030E0
3.508117660E0,-8.876914978E0,-3.398502111E0,1.107576847E0
3.510100472E0,-8.961094856E0,-3.410339117E0,1.065084577E0
3.512100472E0,-9.073756218E0,-3.427194357E0,1.005248666E0
3.514100472E0,-9.208501816E0,-3.449968100E0,9.558227658E-1
3.516111410E0,-9.354806900E0,-3.450561762E0,9.009093642E-1
3.518119222E0,-9.495049477E0,-3.461565495E0,8.739411235E-1
3.520114535E0,-9.639286041E0,-3.471793413E0,8.495872617E-1
3.522100472E0,-9.802685738E0,-3.453702927E0,8.235383034E-1
3.524103597E0,-9.945369720E0,-3.419638157E0,8.208664060E-1
3.526114535E0,-1.006258106E1,-3.394939661E0,8.234233856E-1
3.528100472E0,-1.013289356E1,-3.379980803E0,8.134922385E-1
3.530100472E0,-1.024297905E1,-3.369972944E0,7.779815197E-1
3.532100472E0,-1.032357693E1,-3.354123354E0,7.615284920E-1
3.534100472E0,-1.038437080E1,-3.347812176E0,7.547768354E-1
3.536105160E0,-1.046065998E1,-3.355119467E0,7.456789017E-1
3.538100472E0,-1.052489185E1,-3.355167150E0,7.147266865E-1
3.540100472E0,-1.055749130E1,-3.366525412E0,6.962434053E-1
3.542102035E0,-1.057032394E1,-3.389768362E0,6.881893277E-1
3.544122347E0,-1.056578445E1,-3.414686918E0,6.888597608E-1
3.546141097E0,-1.058796501E1,-3.434951544E0,6.783730984E-1
3.548100472E0,-1.060849667E1,-3.449307203E0,6.704435349E-1
3.550102035E0,-1.059617233E1,-3.451423883E0,6.903153658E-1
3.552112972E0,-1.058134651E1,-3.475643635E0,6.954581141E-1
3.554150472E0,-1.056515217E1,-3.507706642E0,6.812652946E-1
3.556100472E0,-1.054690838E1,-3.552861214E0,6.788423657E-1
3.558103597E0,-1.051402187E1,-3.618567705E0,6.609432697E-1
3.560120785E0,-1.044223404E1,-3.712248087E0,6.380355954E-1
3.562100472E0,-1.035135937E1,-3.809596300E0,6.243215799E-1
3.564103597E0,-1.024811268E1,-3.924690485E0,6.153289676E-1
3.566102035E0,-1.015851212E1,-4.024126053E0,6.001210213E-1
3.568100472E0,-1.007455158E1,-4.108526707E0,5.720226169E-1
3.570100472E0,-9.976905823E0,-4.168697834E0,5.423346162E-1
3.572100472E0,-9.879855156E0,-4.216332912E0,5.219647288E-1
3.574100472E0,-9.778350830E0,-4.248156548E0,4.810430110E-1
3.576100472E0,-9.675294876E0,-4.251881599E0,4.517858624E-1
3.578100472E0,-9.550183296E0,-4.228888035E0,4.405426979E-1
3.580102035E0,-9.421097755E0,-4.185370922E0,4.503972232E-1
3.582114535E0,-9.283986092E0,-4.120718002E0,4.682579637E-1
3.584111410E0,-9.118872643E0,-4.011590481E0,4.715236425E-1
3.586100472E0,-9.006958008E0,-3.933577538E0,4.576277137E-1
3.588100472E0,-8.900770187E0,-3.858581543E0,4.377558231E-1
3.590102035E0,-8.802971840E0,-3.773281097E0,4.421324432E-1
3.592100472E0,-8.730628967E0,-3.708110809E0,4.397861362E-1
3.594100472E0,-8.647789001E0,-3.502171040E0,4.402362406E-1
3.596100472E0,-8.630896568E0,-3.402285099E0,4.204984307E-1
3.598100472E0,-8.640309334E0,-3.320154190E0,3.717620671E-1
3.600100472E0,-8.660641670E0,-3.272998333E0,3.555485308E-1
3.602100472E0,-8.694457054E0,-3.254495859E0,3.663128614E-1
3.604100472E0,-8.732831955E0,-3.238138676E0,3.900537789E-1
3.606100472E0,-8.781577110E0,-3.230611324E0,4.394509196E-1
3.608100472E0,-8.857129097E0,-3.241509676E0,4.661223590E-1
3.610100472E0,-8.909140587E0,-3.248462439E0,4.851514697E-1
3.612100472E0,-8.949879646E0,-3.276206493E0,4.956572354E-1
3.614100472E0,-8.973583221E0,-3.285802603E0,4.883022010E-1
3.616105160E0,-8.966055870E0,-3.311496973E0,5.120047927E-1
3.618108285E0,-8.956823349E0,-3.333178997E0,5.393274426E-1
3.620100472E0,-8.956392288E0,-3.357839108E0,5.711511970E-1
3.622100472E0,-8.958614349E0,-3.375652075E0,5.999103189E-1
3.624109847E0,-8.959773064E0,-3.420979023E0,6.174837351E-1
3.626100472E0,-8.977729797E0,-3.477128029E0,6.093435287E-1
3.628106722E0,-9.018555641E0,-3.540890217E0,6.106650829E-1
3.630112972E0,-9.051538467E0,-3.598571301E0,6.207494736E-1
3.632103597E0,-9.096090317E0,-3.636696577E0,6.179530621E-1
3.634141097E0,-9.152477264E0,-3.688813448E0,6.234117746E-1
3.636100472E0,-9.188687325E0,-3.716959715E0,6.418759227E-1
3.638100472E0,-9.227397919E0,-3.742826939E0,6.838606000E-1
3.640134847E0,-9.272408485E0,-3.753188848E0,7.189691663E-1
3.642139535E0,-9.332684517E0,-3.770206690E0,7.179540396E-1
3.644100472E0,-9.396878242E0,-3.797826529E0,7.204152942E-1
3.646102035E0,-9.453601837E0,-3.807498932E0,7.343974113E-1
3.648105160E0,-9.494992256E0,-3.796456814E0,7.267168760E-1
3.650108285E0,-9.509414673E0,-3.801925182E0,7.224934697E-1
3.652100472E0,-9.519872665E0,-3.787598372E0,7.120739222E-1
3.654100472E0,-9.533155441E0,-3.786784410E0,6.831902266E-1
3.656100472E0,-9.539112091E0,-3.763129711E0,6.572275162E-1
3.658100472E0,-9.539993286E0,-3.717333317E0,6.261220574E-1
3.660109847E0,-9.528731346E0,-3.696053743E0,5.844629407E-1
3.662100472E0,-9.517190933E0,-3.674237728E0,5.534149408E-1
3.664100472E0,-9.506982803E0,-3.628268957E0,5.347018242E-1
3.666100472E0,-9.484611511E0,-3.597307205E0,5.481859446E-1
3.668133285E0,-9.451868057E0,-3.564678907E0,5.541810989E-1
3.670128597E0,-9.413762093E0,-3.530384541E0,5.515570045E-1
3.672111410E0,-9.371231079E0,-3.493868113E0,5.600037575E-1
3.674109847E0,-9.319027901E0,-3.448454857E0,5.520071387E-1
3.676142660E0,-9.277186394E0,-3.434434652E0,5.380920172E-1
3.678112972E0,-9.215186119E0,-3.425461054E0,5.342326164E-1
3.680131722E0,-9.128526688E0,-3.400580406E0,5.215433240E-1
3.682148910E0,-9.050024986E0,-3.380497694E0,4.771356881E-1
3.684122347E0,-8.940993309E0,-3.354267120E0,4.451203942E-1
3.686103597E0,-8.836069107E0,-3.333619356E0,4.239556491E-1
3.688102035E0,-8.732027054E0,-3.309868813E0,4.049169719E-1
3.690137972E0,-8.621788025E0,-3.265451670E0,3.910401464E-1
3.692100472E0,-8.465284348E0,-3.210739613E0,3.723749816E-1
3.694106722E0,-8.332903862E0,-3.163238525E0,3.473028839E-1
3.696103597E0,-8.211556435E0,-3.108104706E0,3.232747018E-1
3.698106722E0,-8.097295761E0,-3.064836740E0,2.898325026E-1
3.700100472E0,-7.973189354E0,-3.005575418E0,2.638889253E-1
3.702100472E0,-7.792140007E0,-2.929392099E0,2.606327832E-1
3.704100472E0,-7.684554100E0,-2.909979820E0,2.177382857E-1
3.706117660E0,-7.571979046E0,-2.912192106E0,1.763473153E-1
3.708100472E0,-7.471661568E0,-2.934103727E0,1.804078817E-1
3.710100472E0,-7.392748833E0,-2.976413965E0,1.727368683E-1
3.712100472E0,-7.319112778E0,-3.021109104E0,1.336156130E-1
3.714108285E0,-7.241799355E0,-3.064022779E0,1.229853481E-1
3.716109847E0,-7.152878761E0,-3.105001926E0,1.418516636E-1
3.718100472E0,-7.087631702E0,-3.143175125E0,1.586589515E-1
3.720100472E0,-7.040772438E0,-3.157051802E0,1.752938628E-1
3.722100472E0,-7.034480572E0,-3.170746565E0,1.871212274E-1
3.724100472E0,-7.048127651E0,-3.211199045E0,1.733402163E-1
3.726102035E0,-7.073448658E0,-3.253356218E0,1.520605385E-1
3.728100472E0,-7.123717308E0,-3.308767557E0,1.413823962E-1
3.730116097E0,-7.190247536E0,-3.359189510E0,1.315087080E-1
3.732100472E0,-7.269265652E0,-3.411584139E0,9.543287754E-2
3.734100472E0,-7.352650642E0,-3.460272789E0,6.571605057E-2
3.736100472E0,-7.430347443E0,-3.489635229E0,1.497812569E-2
3.738108285E0,-7.497787476E0,-3.523374319E0,-4.324885830E-2
3.740112972E0,-7.600594044E0,-3.578488827E0,-1.189152077E-1
3.742111410E0,-7.707088470E0,-3.614028215E0,-1.377240568E-1
3.744100472E0,-7.821521759E0,-3.649040937E0,-1.802833825E-1
3.746106722E0,-7.973879337E0,-3.703782320E0,-2.361832112E-1
3.748100472E0,-8.188303947E0,-3.787014246E0,-2.735327482E-1
3.750100472E0,-8.427177429E0,-3.872832060E0,-2.441989928E-1
3.752100472E0,-8.698210716E0,-3.927151680E0,-1.616277546E-1
3.754111410E0,-8.968086243E0,-3.965602636E0,-9.795157611E-2
3.756102035E0,-9.298954964E0,-3.988213301E0,-7.270711660E-2
3.758100472E0,-9.511215210E0,-4.003334999E0,-8.468770236E-2
3.760111410E0,-9.682582855E0,-4.013514996E0,-5.174348876E-2
3.762100472E0,-1.009747887E1,-3.920524359E0,-5.392699689E-2
3.764100472E0,-1.015669250E1,-3.857039690E0,-6.160759553E-2
3.766119222E0,-1.021482277E1,-3.819096327E0,-1.140023097E-1
3.768100472E0,-1.024908924E1,-3.790902376E0,-1.608520448E-1
3.770100472E0,-1.027987862E1,-3.811952114E0,-1.651328802E-1
3.772105160E0,-1.028560543E1,-3.853869915E0,-4.102703929E-2
3.774109847E0,-1.027770424E1,-3.885071039E0,1.447246969E-1
3.776100472E0,-1.025163651E1,-3.918791056E0,3.024547100E-1
3.778100472E0,-1.021017838E1,-3.945864677E0,4.481945634E-1
3.780102035E0,-1.014873314E1,-3.943882227E0,6.121302843E-1
3.782111410E0,-1.008440590E1,-3.917134285E0,7.344931960E-1
3.784105160E0,-9.983399391E0,-3.852126837E0,8.262485862E-1
3.786100472E0,-9.852790833E0,-3.778988838E0,8.871283531E-1
3.788100472E0,-9.705921173E0,-3.720551014E0,8.542607427E-1
3.790100472E0,-9.535702705E0,-3.694425583E0,7.761044502E-1
3.792100472E0,-9.345814705E0,-3.691361189E0,6.624851823E-1
3.794152035E0,-9.180939674E0,-3.680184841E0,6.238523722E-1
3.796109847E0,-9.064888000E0,-3.677752495E0,6.881510019E-1
3.798103597E0,-8.962732315E0,-3.696072817E0,8.385834694E-1
3.800100472E0,-8.862645149E0,-3.697480679E0,1.035588026E0
3.802105160E0,-8.741441727E0,-3.667371035E0,1.221531272E0
3.804103597E0,-8.618340492E0,-3.652785540E0,1.330132365E0
3.806100472E0,-8.514548302E0,-3.663789272E0,1.336290121E0
3.808100472E0,-8.382846832E0,-3.649031401E0,1.325650215E0
3.810103597E0,-8.238018036E0,-3.616872549E0,1.287687898E0
3.812106722E0,-8.103425026E0,-3.573987722E0,1.175840378E0
3.814112972E0,-7.986482620E0,-3.580088139E0,1.011914134E0
3.816100472E0,-7.881319523E0,-3.604030132E0,8.234425783E-1
3.818108285E0,-7.933915138E0,-3.641829729E0,6.513665318E-1
3.820127035E0,-8.406243324E0,-3.759116888E0,4.622245729E-1
3.822106722E0,-9.021045685E0,-3.877419233E0,2.755343020E-1
3.824109847E0,-9.646008492E0,-4.004493713E0,4.802768677E-2
3.826108285E0,-1.016023540E1,-4.181176186E0,-1.930684149E-1
3.828116097E0,-1.056089020E1,-4.358423710E0,-3.701818883E-1
3.830122347E0,-1.084656620E1,-4.507467747E0,-4.528105855E-1
3.832100472E0,-1.105453682E1,-4.614115238E0,-4.932247102E-1
3.834109847E0,-1.119282627E1,-4.697653770E0,-5.815898776E-1
3.836103597E0,-1.124816132E1,-4.753208637E0,-7.048242688E-1
3.838109847E0,-1.122056007E1,-4.814873695E0,-8.874922395E-1
3.840100472E0,-1.113389969E1,-4.893939972E0,-1.121702671E0
3.842111410E0,-1.101469707E1,-4.965220451E0,-1.320612907E0
3.844102035E0,-1.086791420E1,-5.010326862E0,-1.446346760E0
3.846130160E0,-1.070316410E1,-5.015727997E0,-1.502687097E0
3.848100472E0,-1.052689362E1,-4.963802814E0,-1.382957935E0
3.850100472E0,-1.034842968E1,-4.875705719E0,-1.174882650E0
3.852100472E0,-1.018402481E1,-4.779640675E0,-8.826081157E-1
3.854125472E0,-1.003561211E1,-4.702240944E0,-5.745701194E-1
3.856100472E0,-9.896892548E0,-4.638229370E0,-2.676526010E-1
3.858103597E0,-9.747129440E0,-4.568644524E0,2.993709780E-2
3.860102035E0,-9.618331909E0,-4.473058224E0,3.273256719E-1
3.862122347E0,-9.527639389E0,-4.366085529E0,5.761886239E-1
3.864112972E0,-9.421183586E0,-4.172346592E0,8.076887131E-1
3.866108285E0,-9.373021126E0,-4.021080971E0,8.753009439E-1
3.868103597E0,-9.353648186E0,-3.866310120E0,8.484572172E-1
3.870158285E0,-9.362401009E0,-3.713014126E0,7.370597720E-1
3.872105160E0,-9.400852203E0,-3.603886366E0,6.026780605E-1
3.874103597E0,-9.437799454E0,-3.514659405E0,4.375547171E-1
3.876103597E0,-9.481497765E0,-3.411957741E0,2.444671541E-1
3.878105160E0,-9.495862961E0,-3.364514112E0,9.646718204E-2
3.880100472E0,-9.530225754E0,-3.312349319E0,-5.508579314E-2
3.882109847E0,-9.577879906E0,-3.273180246E0,-2.098469883E-1
3.884100472E0,-9.623110771E0,-3.243290901E0,-3.616393805E-1
3.886102035E0,-9.652004242E0,-3.210203171E0,-4.738029540E-1
3.888134847E0,-9.670668602E0,-3.172939777E0,-5.787168741E-1
3.890105160E0,-9.706084251E0,-3.128790855E0,-7.010988593E-1
3.892100472E0,-9.716675758E0,-3.102329731E0,-7.771483064E-1
3.894116097E0,-9.728081703E0,-3.079652071E0,-8.511769772E-1
3.896109847E0,-9.747714996E0,-3.066388130E0,-8.981320858E-1
3.898100472E0,-9.761620522E0,-3.021281481E0,-9.230892062E-1
3.900100472E0,-9.780831337E0,-2.968972921E0,-9.297738671E-1
3.902109847E0,-9.814369202E0,-2.929343939E0,-8.908537030E-1
3.904100472E0,-9.828704834E0,-2.891458273E0,-8.354135752E-1
3.906100472E0,-9.869186401E0,-2.846724749E0,-7.852598429E-1
3.908100472E0,-9.869482994E0,-2.799693346E0,-7.940800786E-1
3.910100472E0,-9.881196022E0,-2.755582571E0,-8.086368442E-1
3.912100472E0,-9.863938332E0,-2.717945576E0,-7.789966464E-1
3.914100472E0,-9.840024948E0,-2.682271957E0,-7.040964365E-1
3.916102035E0,-9.789162636E0,-2.621018887E0,-5.516145229E-1
3.918100472E0,-9.727536201E0,-2.568269730E0,-4.012107551E-1
3.920100472E0,-9.726970673E0,-2.464945555E0,5.329493061E-2
3.922100472E0,-9.710929871E0,-2.423008680E0,2.012949139E-1
3.924100472E0,-9.860989571E0,-2.249515295E0,1.708167076E0
3.926103597E0,-9.591123581E0,-2.030694723E0,1.259417057E0
3.928100472E0,-9.711945534E0,-1.904539585E0,1.555024385E0
3.930103597E0,-9.708755493E0,-1.953017354E0,1.456143975E0
3.932100472E0,-9.623943329E0,-1.987905622E0,1.106216908E0
3.934100472E0,-9.262697220E0,-1.996563077E0,8.234138787E-2
3.936100472E0,-9.118738174E0,-2.012661695E0,-3.063524663E-1
3.938100472E0,-9.054976463E0,-2.007404089E0,-3.820475340E-1
3.940100472E0,-9.057639122E0,-1.948516250E0,-1.105163470E-1
3.942108285E0,-8.995398521E0,-1.891476750E0,7.877881825E-2
3.944130160E0,-8.980947495E0,-1.903677583E0,2.337889969E-1
3.946100472E0,-8.962368011E0,-2.014155626E0,2.594835758E-1
3.948119222E0,-8.937468529E0,-2.127008677E0,2.098086923E-1
3.950111410E0,-8.937956810E0,-2.213774681E0,1.503271312E-1
3.952100472E0,-8.900981903E0,-2.316792488E0,-2.525403909E-2
3.954100472E0,-8.828714371E0,-2.394642353E0,-2.645592988E-1
3.956100472E0,-8.778982162E0,-2.542278290E0,-5.568817258E-1
3.958100472E0,-8.825553894E0,-2.691350937E0,-6.612497568E-1
3.960105160E0,-8.916984558E0,-2.822131872E0,-6.106076241E-1
3.962100472E0,-9.008337021E0,-2.930023909E0,-4.894801676E-1
3.964100472E0,-9.119188309E0,-2.998124838E0,-2.876106501E-1
3.966100472E0,-9.333383560E0,-3.042561054E0,1.072315052E-1
3.968100472E0,-9.535367966E0,-3.063017130E0,2.172019780E-1
3.970100472E0,-9.708564758E0,-3.106553316E0,1.175648794E-1
3.972100472E0,-9.825209618E0,-3.143433571E0,-4.089296237E-2
3.974100472E0,-9.905990601E0,-3.167586327E0,-1.569255590E-1
3.976106722E0,-9.988839149E0,-3.170286894E0,-2.714162767E-1
3.978100472E0,-1.005985165E1,-3.125314236E0,-3.543418646E-1
3.980141097E0,-1.007031822E1,-3.100088835E0,-4.472560287E-1
3.982109847E0,-1.003907871E1,-3.150367260E0,-5.119856596E-1
3.984100472E0,-1.002549934E1,-3.220019341E0,-5.777687430E-1
3.986100472E0,-1.003445435E1,-3.298788548E0,-5.920190215E-1
3.988111410E0,-1.003975010E1,-3.319838285E0,-5.388199091E-1
3.990100472E0,-1.005951691E1,-3.328840494E0,-4.329291284E-1
3.992100472E0,-1.007234001E1,-3.337929010E0,-3.049063683E-1
3.994100472E0,-1.004490280E1,-3.334040880E0,-1.786074489E-1
3.996137972E0,-1.000183487E1,-3.315672398E0,-1.231002733E-1
3.998103597E0,-9.976762772E0,-3.353721142E0,-1.997147202E-1
4.000108285E0,-9.910165787E0,-3.474551678E0,-3.797682822E-1
4.002106722E0,-9.851029396E0,-3.559296846E0,-5.316564441E-1
4.004100472E0,-9.836941719E0,-3.631869793E0,-5.511835217E-1
4.006106722E0,-9.887248993E0,-3.696245193E0,-4.196844101E-1
4.008102035E0,-9.937430382E0,-3.687549591E0,-1.935185343E-1
4.010103597E0,-1.000748539E1,-3.668357372E0,3.010948002E-2
4.012100472E0,-1.006939983E1,-3.655189514E0,1.401086897E-1
4.014100472E0,-1.008756638E1,-3.650678635E0,1.349563599E-1
4.016100472E0,-1.009026718E1,-3.649855137E0,-5.487510003E-3
4.018100472E0,-1.006702423E1,-3.669104576E0,-1.575193107E-1
4.020100472E0,-1.000731373E1,-3.678901672E0,-2.628354430E-1
4.022100472E0,-9.943004608E0,-3.664210796E0,-3.766558170E-1
4.024100472E0,-9.887594223E0,-3.645047665E0,-5.457822084E-1
4.026100472E0,-9.804754257E0,-3.649050713E0,-7.735186815E-1
4.028100472E0,-9.720592499E0,-3.638717175E0,-9.611858130E-1
4.030108285E0,-9.663717270E0,-3.588755131E0,-1.001465797E0
4.032100472E0,-9.627219200E0,-3.499891758E0,-8.906525970E-1
4.034102035E0,-9.609368324E0,-3.377260923E0,-7.056765556E-1
4.036117660E0,-9.546410561E0,-3.281148195E0,-5.688814521E-1
4.038100472E0,-9.460927963E0,-3.202637434E0,-4.721557200E-1
4.040100472E0,-9.370368958E0,-3.130572081E0,-4.131434262E-1
4.042131722E0,-9.302843094E0,-3.056457043E0,-3.249123096E-1
4.044100472E0,-9.226593018E0,-3.003583431E0,-2.619065344E-1
4.046116097E0,-9.153186798E0,-2.954636574E0,-2.588898242E-1
4.048116097E0,-9.024272919E0,-2.941573620E0,-3.423421085E-1
4.050125472E0,-8.933800697E0,-2.934324026E0,-3.942962885E-1
4.052100472E0,-8.883992195E0,-2.942014217E0,-4.289164543E-1
4.054100472E0,-8.810681343E0,-2.985847235E0,-5.049084425E-1
4.056100472E0,-8.749945641E0,-3.030494452E0,-5.419610739E-1
4.058100472E0,-8.725907326E0,-3.065210104E0,-5.247802734E-1
4.060102035E0,-8.745482445E0,-3.121684551E0,-4.758715332E-1
4.062103597E0,-8.781970024E0,-3.202196836E0,-4.392402470E-1
4.064112972E0,-8.806333542E0,-3.329539776E0,-4.835808575E-1
4.066103597E0,-8.854524612E0,-3.492460251E0,-5.356978178E-1
4.068100472E0,-8.911075592E0,-3.590373516E0,-5.431964993E-1
4.070119222E0,-8.975392342E0,-3.673452377E0,-5.267435312E-1
4.072131722E0,-9.052515030E0,-3.726584435E0,-5.007137656E-1
4.074106722E0,-9.195448875E0,-3.840864420E0,-5.718024373E-1
4.076100472E0,-9.259861946E0,-3.910899639E0,-6.082996130E-1
4.078170785E0,-9.328164101E0,-3.898468971E0,-5.073696375E-1
4.080100472E0,-9.367438316E0,-3.854051828E0,-3.766653836E-1
4.082102035E0,-9.390950203E0,-3.779419661E0,-2.838661075E-1
4.084100472E0,-9.402576447E0,-3.677129984E0,-2.252273411E-1
4.086114535E0,-9.397232056E0,-3.574609995E0,-2.242600918E-1
4.088100472E0,-9.362564087E0,-3.464572668E0,-3.594271243E-1
4.090108285E0,-9.331123352E0,-3.389260769E0,-4.631247818E-1
4.092100472E0,-9.235977173E0,-3.258728743E0,-8.896853924E-1
4.094100472E0,-9.209774971E0,-3.340160370E0,-1.055900335E0
4.096112972E0,-9.211422920E0,-3.417703867E0,-1.096362472E0
4.098100472E0,-9.203215599E0,-3.470807076E0,-1.058064818E0
4.100102035E0,-9.180116653E0,-3.512102365E0,-9.824558496E-1
4.102100472E0,-9.142776489E0,-3.534291744E0,-8.602463007E-1
4.104100472E0,-9.098483086E0,-3.523393393E0,-7.170921564E-1
4.106100472E0,-9.041865349E0,-3.485996008E0,-5.749531984E-1
4.108100472E0,-8.994345665E0,-3.428966045E0,-4.418930113E-1
4.110100472E0,-8.963930130E0,-3.377146006E0,-3.551079929E-1
4.112108285E0,-8.951652527E0,-3.311583281E0,-3.062183857E-1
4.114100472E0,-8.925852776E0,-3.259389639E0,-3.015353382E-1
4.116111410E0,-8.917289734E0,-3.215652227E0,-3.088328540E-1
4.118100472E0,-8.911802292E0,-3.176042795E0,-3.106428981E-1
4.120100472E0,-8.901699066E0,-3.114320040E0,-3.089669347E-1
4.122102035E0,-8.891039848E0,-3.068830252E0,-3.039774299E-1
4.124122347E0,-8.891049385E0,-3.039573193E0,-2.891046405E-1
4.126122347E0,-8.896767616E0,-3.023426771E0,-3.146747053E-1
4.128100472E0,-8.886903763E0,-3.024528027E0,-3.660638630E-1
4.130103597E0,-8.888118744E0,-3.040559530E0,-4.014980495E-1
4.132100472E0,-8.894870758E0,-3.079566002E0,-4.602900743E-1
