"Time (s)","Gyroscope x (rad/s)","Gyroscope y (rad/s)","Gyroscope z (rad/s)"
3.112625800E-2,9.972081333E-2,-2.370087355E-1,1.113269106E-1
3.347474700E-2,5.451811850E-2,-2.147128135E-1,9.025268257E-2
3.582323700E-2,8.093725890E-3,-1.947075576E-1,7.040014863E-2
3.817172600E-2,-4.611896724E-2,-1.889045089E-1,5.665608495E-2
4.052021600E-2,-1.050657257E-1,-1.698155403E-1,4.902049154E-2
4.286870600E-2,-1.551551968E-1,-1.171299592E-1,4.245388508E-2
4.521719500E-2,-2.035648525E-1,-4.398100078E-2,3.939964995E-2
4.756568500E-2,-2.580829561E-1,3.161134571E-2,3.863608837E-2
4.991417400E-2,-3.138227761E-1,1.110214889E-1,3.909422457E-2
5.226266400E-2,-3.669664860E-1,1.998997629E-1,4.077405483E-2
5.461115300E-2,-4.185830951E-1,2.971771955E-1,3.497100621E-2
5.695964300E-2,-4.691306949E-1,3.883461356E-1,2.199050039E-2
5.930813300E-2,-5.160132051E-1,4.698942602E-1,1.267508045E-2
6.165657000E-2,-5.606050491E-1,5.500679612E-1,7.024743594E-3
6.400506000E-2,-5.989357233E-1,6.277982593E-1,2.748812549E-3
6.635354900E-2,-6.323796511E-1,7.043069005E-1,9.162708884E-4
6.870203900E-2,-6.597150564E-1,7.855495811E-1,1.374406274E-3
7.105052800E-2,-6.809419990E-1,8.594620824E-1,6.872031838E-3
7.339901800E-2,-6.949914694E-1,9.272661209E-1,1.985253580E-2
7.574750800E-2,-7.122479081E-1,9.518527389E-1,4.153761268E-2
7.809599700E-2,-7.337802649E-1,9.416210651E-1,7.223268598E-2
8.044448700E-2,-7.510367036E-1,9.025267959E-1,1.090362370E-1
8.279297600E-2,-7.504258752E-1,8.797727823E-1,1.362189353E-1
8.514146600E-2,-7.270609736E-1,8.854231238E-1,1.472141892E-1
8.748995600E-2,-6.810947061E-1,8.990144730E-1,1.484358907E-1
8.983844500E-2,-6.277982593E-1,8.993198872E-1,1.437018216E-1
9.218693500E-2,-5.722111464E-1,8.958075047E-1,1.401894391E-1
9.453542400E-2,-5.103628635E-1,8.861866593E-1,1.319430023E-1
9.688391400E-2,-4.462239146E-1,8.657232523E-1,1.273616552E-1
9.923240300E-2,-3.811686933E-1,8.246437907E-1,1.229330078E-1
1.015808410E-1,-3.190149665E-1,7.597413063E-1,1.223221645E-1
1.039293310E-1,-2.559449971E-1,6.815528274E-1,1.267508119E-1
1.062778200E-1,-1.930277348E-1,5.913001299E-1,1.337755471E-1
1.086263100E-1,-1.301104724E-1,5.010474920E-1,1.455343664E-1
1.109747990E-1,-6.337540597E-2,4.191939235E-1,1.609582454E-1
1.133232890E-1,3.359660041E-3,3.434488773E-1,1.739387512E-1
1.156717780E-1,6.749862432E-2,2.640387416E-1,1.930277348E-1
1.180202680E-1,1.120904684E-1,1.285833418E-1,2.260134816E-1
1.203687580E-1,1.282779276E-1,-5.909947306E-2,2.921377122E-1
1.227172470E-1,1.452289373E-1,-1.950129867E-1,3.518480062E-1
1.250657370E-1,1.756185889E-1,-2.880144715E-1,3.906368315E-1
1.274142260E-1,2.163926363E-1,-3.524588645E-1,4.107947946E-1
1.297627160E-1,2.617480457E-1,-3.785725832E-1,4.159869850E-1
1.321112060E-1,3.239017725E-1,-3.652866483E-1,4.086568058E-1
1.344596950E-1,3.929274976E-1,-3.089359999E-1,3.950654566E-1
1.368081850E-1,4.789042473E-1,-2.070772201E-1,3.700207174E-1
1.391566740E-1,5.716003180E-1,-7.666133344E-2,3.290939629E-1
1.415051120E-1,6.627692580E-1,2.504473738E-2,2.918322682E-1
1.438536010E-1,7.319477201E-1,8.368607610E-2,2.672456801E-1
1.462020910E-1,7.821899056E-1,1.224748790E-1,2.499892414E-1
1.485505810E-1,8.147175312E-1,1.349972486E-1,2.389939874E-1
1.508990700E-1,8.368607163E-1,1.189625040E-1,2.354816198E-1
1.532475600E-1,8.412894011E-1,8.506047726E-2,2.356343269E-1
1.555960490E-1,8.354863524E-1,3.100049868E-2,2.360924631E-1
1.579445390E-1,8.159392476E-1,-3.848337755E-2,2.402156889E-1
1.602930280E-1,7.976137996E-1,-9.712471068E-2,2.478512824E-1
1.626415180E-1,7.835643291E-1,-1.293469071E-1,2.444916219E-1
1.649900080E-1,7.786775231E-1,-1.426328421E-1,2.310529798E-1
1.673384970E-1,7.788302302E-1,-1.464506239E-1,2.115058601E-1
1.696869870E-1,7.776085734E-1,-1.658450365E-1,1.945548505E-1
1.720354760E-1,7.705838084E-1,-2.270824611E-1,1.852394342E-1
1.743839660E-1,7.543963790E-1,-3.196258247E-1,1.858502775E-1
1.767324560E-1,7.423321605E-1,-3.965925872E-1,1.740914732E-1
1.790809450E-1,7.365291119E-1,-4.700469673E-1,1.490467340E-1
1.814294350E-1,7.188144922E-1,-5.975613594E-1,1.327065676E-1
1.837779240E-1,7.024743557E-1,-7.250757217E-1,1.116323397E-1
1.861263620E-1,6.939224601E-1,-8.214368224E-1,8.674030751E-2
1.884748510E-1,6.956022978E-1,-8.890882134E-1,6.765133142E-2
1.908233410E-1,7.075138092E-1,-9.278770089E-1,6.062658876E-2
1.931718310E-1,7.209524512E-1,-9.426900148E-1,5.589252338E-2
1.955203200E-1,7.420266867E-1,-9.394831061E-1,5.711421743E-2
1.978688100E-1,7.670714259E-1,-9.217684865E-1,6.200099736E-2
2.002172990E-1,7.957812548E-1,-9.029849768E-1,6.551336497E-2
2.025657890E-1,8.218950033E-1,-8.866447806E-1,6.429167092E-2
2.049142780E-1,8.469397426E-1,-8.703046441E-1,6.184828654E-2
2.072627680E-1,8.695410490E-1,-8.586985469E-1,4.947862774E-2
2.096112580E-1,8.883246183E-1,-8.579349518E-1,3.619270027E-2
2.119597470E-1,9.057337642E-1,-8.669449687E-1,1.664558798E-2
2.143082370E-1,9.170344472E-1,-8.780929446E-1,-5.192201585E-3
2.166567260E-1,9.243646264E-1,-8.988617659E-1,-2.458660305E-2
2.190052160E-1,9.205468297E-1,-9.315420985E-1,-4.398100078E-2
2.213537060E-1,9.103151560E-1,-9.614735842E-1,-5.955760926E-2
2.237021950E-1,8.953493834E-1,-9.781191945E-1,-6.810946763E-2
2.260506330E-1,8.794673681E-1,-9.755230546E-1,-7.314895838E-2
2.283991220E-1,8.660287261E-1,-9.535325766E-1,-6.597150117E-2
2.307476120E-1,8.501466513E-1,-9.290986657E-1,-5.390727147E-2
2.330961010E-1,8.368607163E-1,-9.034430981E-1,-4.566083103E-2
2.354445910E-1,8.257128000E-1,-9.032903910E-1,-4.688252881E-2
2.377930810E-1,8.148702383E-1,-8.861866593E-1,-5.314370990E-2
2.401415700E-1,8.121214509E-1,-8.272398710E-1,-6.093201414E-2
2.424900600E-1,8.156337738E-1,-7.646280527E-1,-6.383354217E-2
2.448385490E-1,8.148702383E-1,-7.261446714E-1,-6.291726977E-2
2.471870390E-1,8.076927662E-1,-7.043069005E-1,-6.184828654E-2
2.495355280E-1,7.970029712E-1,-6.800256968E-1,-5.833591148E-2
2.518840180E-1,7.863131166E-1,-6.447492838E-1,-5.253286287E-2
2.542325080E-1,7.731798887E-1,-5.938962698E-1,-3.588727489E-2
2.565809970E-1,7.663078904E-1,-5.285356045E-1,-1.313321572E-2
2.589294870E-1,7.580614686E-1,-4.824166298E-1,1.710372418E-2
2.612779760E-1,7.456917763E-1,-4.469874799E-1,4.978405312E-2
2.636264660E-1,7.321004272E-1,-4.140017331E-1,8.246438205E-2
2.659749560E-1,7.212579250E-1,-3.652866483E-1,1.151447073E-1
2.683233930E-1,7.194253802E-1,-3.000787199E-1,1.391204596E-1
2.706718830E-1,7.165238261E-1,-2.250972092E-1,1.592784226E-1
2.730203720E-1,7.047650218E-1,-1.658450365E-1,1.759240031E-1
2.753688620E-1,6.879667044E-1,-1.185043678E-1,1.866138428E-1
2.777173510E-1,6.569662094E-1,-3.833066672E-2,1.980672181E-1
2.800658410E-1,6.178719997E-1,1.168245375E-1,2.273878902E-1
2.824143310E-1,5.807630420E-1,2.237228155E-1,2.596100867E-1
2.847628200E-1,5.405998230E-1,2.982461751E-1,2.883199155E-1
2.871113100E-1,5.128062963E-1,3.602471650E-1,3.035911024E-1
2.894597990E-1,4.888305068E-1,4.149180055E-1,3.129065037E-1
2.918082890E-1,4.746283293E-1,4.573718905E-1,3.113794029E-1
2.941567780E-1,4.614951015E-1,4.840964675E-1,3.061871827E-1
2.965052680E-1,4.468347728E-1,4.975350797E-1,2.974826097E-1
2.988537580E-1,4.384356141E-1,4.963133931E-1,2.816005945E-1
3.012022470E-1,4.297310412E-1,4.782933891E-1,2.609844804E-1
3.035507370E-1,4.210264683E-1,4.469874799E-1,2.354816198E-1
3.058992260E-1,4.121691883E-1,4.046863019E-1,2.028012872E-1
3.082477160E-1,4.019374847E-1,3.553603888E-1,1.725643575E-1
3.105961530E-1,3.929274976E-1,3.107685447E-1,1.472141892E-1
3.129446430E-1,3.878880143E-1,2.841966748E-1,1.278197914E-1
3.152931330E-1,3.817795515E-1,2.733541429E-1,1.143811494E-1
3.176416220E-1,3.755183518E-1,2.673983872E-1,1.131594554E-1
3.199901120E-1,3.666610718E-1,2.603736520E-1,1.180462316E-1
3.223386010E-1,3.576510847E-1,2.473931462E-1,1.291942000E-1
3.246740180E-1,3.481829464E-1,2.237228155E-1,1.659977436E-1
3.270355810E-1,3.405473530E-1,1.797417998E-1,2.188360244E-1
3.293840700E-1,3.268032968E-1,1.346918195E-1,2.741177082E-1
3.317325600E-1,3.045073450E-1,9.208522737E-2,3.220692277E-1
3.340810490E-1,2.771719396E-1,4.107947648E-2,3.651339412E-1
3.364295390E-1,2.538070381E-1,-1.130067464E-2,3.936910629E-1
3.387780280E-1,2.367033064E-1,-6.749862432E-2,4.123218954E-1
3.411265180E-1,2.270824611E-1,-1.165191159E-1,4.272876680E-1
3.434750080E-1,2.174616307E-1,-1.692046970E-1,4.362976551E-1
3.458234970E-1,2.055501044E-1,-2.220429778E-1,4.427115619E-1
3.481719350E-1,1.910424829E-1,-2.747285664E-1,4.491254389E-1
3.505204240E-1,1.765348613E-1,-3.358132839E-1,4.532486796E-1
3.528689140E-1,1.620272398E-1,-3.921639323E-1,4.596625566E-1
3.552174030E-1,1.450762302E-1,-4.459185004E-1,4.650074840E-1
3.575658930E-1,1.282779276E-1,-4.950917065E-1,4.653128982E-1
3.599143830E-1,1.140757278E-1,-5.297572613E-1,4.642439187E-1
3.622628720E-1,9.773556143E-2,-5.523586273E-1,4.631749392E-1
3.646113620E-1,7.910472155E-2,-5.627430081E-1,4.607315361E-1
3.669598510E-1,6.047387794E-2,-5.648810267E-1,4.582881629E-1
3.693083410E-1,4.092676565E-2,-5.500679612E-1,4.569137394E-1
3.716568310E-1,1.542389300E-2,-5.170822144E-1,4.517215490E-1
3.740053200E-1,-6.108472589E-3,-4.830274582E-1,4.453076422E-1
3.763538100E-1,-3.038965166E-2,-4.477510452E-1,4.387410581E-1
3.787022990E-1,-4.932591692E-2,-4.004103839E-1,4.298837483E-1
3.810507890E-1,-7.314895838E-2,-3.434488773E-1,4.194993675E-1
3.833992780E-1,-9.193251282E-2,-2.878617644E-1,4.080459774E-1
3.857477680E-1,-1.143811494E-1,-2.284568697E-1,3.929274976E-1
3.880962580E-1,-1.366770715E-1,-1.667613089E-1,3.729222417E-1
3.904446950E-1,-1.594311297E-1,-1.256818175E-1,3.504736125E-1
3.927931850E-1,-1.808107942E-1,-8.689302206E-2,3.257342875E-1
3.951416740E-1,-2.035648525E-1,-5.650337040E-2,3.009949923E-1
3.974901640E-1,-2.299840003E-1,-3.222219273E-2,2.738122940E-1
3.998386530E-1,-2.570139766E-1,-4.275930673E-2,2.444916219E-1
4.021871430E-1,-2.767138183E-1,-6.902574003E-2,2.128802687E-1
4.045356330E-1,-3.002314270E-1,-9.177979827E-2,1.860029846E-1
4.068841220E-1,-3.298575282E-1,-1.227803007E-1,1.507265568E-1
4.092326120E-1,-3.538332880E-1,-1.889045089E-1,1.157555580E-1
4.115811010E-1,-3.735330999E-1,-2.849602401E-1,9.193251282E-2
4.139295910E-1,-3.982724249E-1,-3.907895386E-1,7.177454978E-2
4.162780810E-1,-4.257605374E-1,-5.034908652E-1,5.665608495E-2
4.186265700E-1,-4.446968138E-1,-6.261184216E-1,4.291202128E-2
4.209750600E-1,-4.534013867E-1,-7.272136807E-1,3.008422814E-2
4.233235490E-1,-4.540122151E-1,-7.864658237E-1,1.343864016E-2
4.256720390E-1,-4.479037523E-1,-8.070819378E-1,-4.734066315E-3
4.280204760E-1,-4.393518865E-1,-8.364025950E-1,-3.130592033E-2
4.303558930E-1,-4.236225784E-1,-8.863393664E-1,-5.909947306E-2
4.327174560E-1,-4.051444530E-1,-9.254335761E-1,-8.933641016E-2
4.350659450E-1,-3.828485310E-1,-9.452861547E-1,-1.185043678E-1
4.374144350E-1,-3.666610718E-1,-9.614735842E-1,-1.440072358E-1
4.397629240E-1,-3.468085229E-1,-9.813261032E-1,-1.718007922E-1
4.421114140E-1,-3.208475113E-1,-1.012021184E0,-1.947075576E-1
4.444599030E-1,-2.912214398E-1,-1.030804753E0,-2.116585821E-1
4.468083930E-1,-2.577775419E-1,-1.035233378E0,-2.273878902E-1
4.491568830E-1,-2.266243398E-1,-1.030957460E0,-2.298312783E-1
4.515053720E-1,-1.864611208E-1,-1.055696726E0,-2.099787444E-1
4.538538620E-1,-1.432436854E-1,-1.113879919E0,-1.666085869E-1
4.562023510E-1,-9.391776472E-2,-1.160304427E0,-1.185043678E-1
4.585508410E-1,-4.627167806E-2,-1.174048424E0,-8.399149776E-2
4.608993310E-1,-6.413896102E-3,-1.145796776E0,-7.192726433E-2
4.632478200E-1,3.023693897E-2,-1.104411840E0,-8.551861346E-2
4.655963100E-1,6.963659078E-2,-1.054780483E0,-1.127013192E-1
4.679447470E-1,1.081199646E-1,-1.002858520E0,-1.496575773E-1
4.702932370E-1,1.437018216E-1,-9.688037634E-1,-1.876828223E-1
4.726417260E-1,1.751604527E-1,-9.539906979E-1,-2.133384049E-1
4.749902160E-1,2.060082406E-1,-9.883508682E-1,-2.362451702E-1
4.773387060E-1,2.373141646E-1,-1.054169655E0,-2.490729690E-1
4.796871950E-1,2.707580328E-1,-1.139077425E0,-2.545706034E-1
4.820356850E-1,3.003841341E-1,-1.222763538E0,-2.525853515E-1
4.843841740E-1,3.239017725E-1,-1.312252641E0,-2.506000996E-1
4.867326640E-1,3.483356535E-1,-1.411515355E0,-2.461714447E-1
4.890811530E-1,3.730749488E-1,-1.496270418E0,-2.467822880E-1
4.914296430E-1,3.897205591E-1,-1.553231835E0,-2.536543310E-1
4.937781330E-1,4.030064642E-1,-1.589730024E0,-2.704526186E-1
4.961266220E-1,4.042281806E-1,-1.614011168E0,-2.971771955E-1
4.984751120E-1,3.982724249E-1,-1.633405566E0,-3.324536085E-1
5.008104760E-1,3.837648034E-1,-1.651578307E0,-3.776563108E-1
5.031720910E-1,3.655920923E-1,-1.667307615E0,-4.288147688E-1
5.055205810E-1,3.411581814E-1,-1.693726778E0,-4.837910235E-1
5.078559450E-1,3.118375242E-1,-1.720145941E0,-5.398362875E-1
5.102175080E-1,2.739650011E-1,-1.745190620E0,-5.984776020E-1
5.125659970E-1,2.298312783E-1,-1.768860936E0,-6.485670805E-1
5.149014140E-1,1.831014603E-1,-1.790087938E0,-6.962131858E-1
5.172629760E-1,1.314848661E-1,-1.802610278E0,-7.377507687E-1
5.196114660E-1,7.146912813E-2,-1.803068399E0,-7.771504521E-1
5.219468830E-1,1.130067464E-2,-1.800930381E0,-8.102889061E-1
5.243084450E-1,-5.146388337E-2,-1.795127392E0,-8.350282311E-1
5.266569350E-1,-1.130067408E-1,-1.785659194E0,-8.498412371E-1
5.290054240E-1,-1.710372269E-1,-1.775122166E0,-8.586985469E-1
5.313539140E-1,-2.301367074E-1,-1.760767221E0,-8.614473343E-1
5.337024030E-1,-2.806843221E-1,-1.746564984E0,-8.603783846E-1
5.360508930E-1,-3.249707520E-1,-1.725185394E0,-8.545753360E-1
5.383993830E-1,-3.668137789E-1,-1.702736735E0,-8.475505710E-1
5.407478720E-1,-4.075878263E-1,-1.689908981E0,-8.342646360E-1
5.430963620E-1,-4.408790171E-1,-1.672194362E0,-8.211314082E-1
5.454448510E-1,-4.705050886E-1,-1.651120186E0,-8.078454733E-1
5.477933410E-1,-4.950917065E-1,-1.634932637E0,-7.945595980E-1
5.501417780E-1,-5.089884996E-1,-1.634474516E0,-7.737907767E-1
5.524902680E-1,-5.125008225E-1,-1.669140100E0,-7.406523228E-1
5.548387580E-1,-5.109737515E-1,-1.702584028E0,-7.012526393E-1
5.571872470E-1,-5.089884996E-1,-1.709608793E0,-6.705575585E-1
5.595357370E-1,-5.044071078E-1,-1.703500271E0,-6.438329816E-1
5.618842260E-1,-5.019637346E-1,-1.686549306E0,-6.242858768E-1
5.642327160E-1,-4.953971207E-1,-1.654021621E0,-6.099309921E-1
5.665812060E-1,-4.889832437E-1,-1.625159144E0,-6.015318632E-1
5.689296950E-1,-4.776825607E-1,-1.607291818E0,-5.966450572E-1
5.712781850E-1,-4.679090083E-1,-1.608513594E0,-5.893148780E-1
5.736266740E-1,-4.555393457E-1,-1.614774704E0,-5.868715048E-1
5.759751640E-1,-4.483618736E-1,-1.614927411E0,-5.781669021E-1
5.783236530E-1,-4.472928941E-1,-1.613553047E0,-5.586197972E-1
5.806721430E-1,-4.407263100E-1,-1.660588264E0,-5.448757410E-1
5.830206330E-1,-4.220954478E-1,-1.735569715E0,-5.405998230E-1
5.853691220E-1,-3.999522328E-1,-1.823837161E0,-5.386145711E-1
5.877175600E-1,-3.753656447E-1,-1.916991353E0,-5.366293192E-1
5.900661010E-1,-3.518480062E-1,-2.006633282E0,-5.360184908E-1
5.924145390E-1,-3.321481943E-1,-2.092457294E0,-5.315898061E-1
5.947630280E-1,-3.185568452E-1,-2.172172785E0,-5.309789777E-1
5.971115180E-1,-3.095468581E-1,-2.238602400E0,-5.354076028E-1
5.994600080E-1,-3.002314270E-1,-2.285943270E0,-5.471664071E-1
6.018084970E-1,-2.944283783E-1,-2.327022552E0,-5.651864409E-1
6.041569870E-1,-2.872509360E-1,-2.361077309E0,-5.821374655E-1
6.065054760E-1,-2.797680497E-1,-2.379402876E0,-6.015318632E-1
6.088539660E-1,-2.747285664E-1,-2.394063234E0,-6.233696342E-1
6.112024560E-1,-2.684673667E-1,-2.401698828E0,-6.453601122E-1
6.135509450E-1,-2.632751763E-1,-2.413915634E0,-6.720846891E-1
6.158994350E-1,-2.547233105E-1,-2.444458008E0,-6.975875497E-1
6.182479240E-1,-2.473931462E-1,-2.473625898E0,-7.180509567E-1
6.205964140E-1,-2.412846684E-1,-2.484621286E0,-7.266027927E-1
6.229449030E-1,-2.374668717E-1,-2.481108904E0,-7.266027927E-1
6.252933930E-1,-2.302894145E-1,-2.473931313E0,-7.082774043E-1
6.276287580E-1,-2.205158621E-1,-2.524326324E0,-6.626165509E-1
6.299903720E-1,-2.168507725E-1,-2.543109894E0,-5.879405141E-1
6.323388100E-1,-2.234173864E-1,-2.474694967E0,-4.857762754E-1
6.346742260E-1,-2.356343269E-1,-2.367644072E0,-3.765873313E-1
6.370357890E-1,-2.518217862E-1,-2.268992186E0,-2.672456801E-1
6.393842780E-1,-2.680092454E-1,-2.193247080E0,-1.725643575E-1
6.417327680E-1,-2.802261710E-1,-2.122694254E0,-1.021642014E-1
6.440812580E-1,-2.825168669E-1,-2.059624195E0,-4.886778072E-2
6.464297470E-1,-2.861819267E-1,-2.011061907E0,-8.857285604E-3
6.487782370E-1,-2.857238054E-1,-1.958987117E0,2.122694254E-2
6.511267260E-1,-2.753393948E-1,-1.900040388E0,4.413371533E-2
6.534752160E-1,-2.611372173E-1,-1.843536973E0,6.948387623E-2
6.558237060E-1,-2.422009408E-1,-1.788255334E0,9.345962852E-2
6.581721950E-1,-2.170034945E-1,-1.740303874E0,1.165191159E-1
6.605206850E-1,-1.928750277E-1,-1.680440784E0,1.356080920E-1
6.628691740E-1,-1.676775664E-1,-1.632642031E0,1.548497826E-1
6.652176640E-1,-1.388150454E-1,-1.600572586E0,1.646233350E-1
6.675661530E-1,-1.097997949E-1,-1.562394619E0,1.716480851E-1
6.699145910E-1,-7.482878864E-2,-1.530630469E0,1.727170646E-1
6.722630810E-1,-3.970507160E-2,-1.507265568E0,1.629435122E-1
6.746115700E-1,-4.581354442E-4,-1.470767498E0,1.444653720E-1
6.769469870E-1,4.001049697E-2,-1.435491085E0,1.162136942E-1
6.793085490E-1,8.154810965E-2,-1.416096687E0,8.551861346E-2
6.816570390E-1,1.207950488E-1,-1.384485364E0,5.008947477E-2
6.840055280E-1,1.586675793E-1,-1.365090966E0,1.328592747E-2
6.863540180E-1,1.924168915E-1,-1.378071427E0,-2.321219631E-2
6.887025080E-1,2.238755226E-1,-1.376391530E0,-6.215370819E-2
6.910509970E-1,2.568612695E-1,-1.359287858E0,-1.075091213E-1
6.933994870E-1,2.845021188E-1,-1.377155185E0,-1.562241912E-1
6.957479760E-1,3.086305857E-1,-1.381583810E0,-2.049392611E-1
6.980964660E-1,3.266505599E-1,-1.375017166E0,-2.513636351E-1
7.004449560E-1,3.379512429E-1,-1.406781197E0,-2.927485406E-1
7.027934450E-1,3.403946459E-1,-1.437323570E0,-3.290939629E-1
7.051419350E-1,3.371876776E-1,-1.437476277E0,-3.634541333E-1
7.074904240E-1,3.269560039E-1,-1.480846524E0,-3.912476599E-1
7.098388620E-1,3.104631305E-1,-1.533684731E0,-4.141544402E-1
7.121873510E-1,2.906105816E-1,-1.551552057E0,-4.323271513E-1
7.145358410E-1,2.643441558E-1,-1.586064935E0,-4.492781460E-1
7.168843310E-1,2.367033064E-1,-1.637528777E0,-4.660764635E-1
7.192328200E-1,2.044811249E-1,-1.649134874E0,-4.819584787E-1
7.215813100E-1,1.699682474E-1,-1.654632568E0,-4.943281412E-1
7.239297990E-1,1.337755471E-1,-1.684105873E0,-5.088357925E-1
7.262782890E-1,1.007898003E-1,-1.678761005E0,-5.236487985E-1
7.286267780E-1,7.131642103E-2,-1.671125412E0,-5.360184908E-1
7.309752680E-1,4.153761268E-2,-1.686243892E0,-5.457920432E-1
7.333237580E-1,1.343864016E-2,-1.675095916E0,-5.569399595E-1
7.356722470E-1,-7.330167107E-3,-1.660282850E0,-5.607577562E-1
7.380207370E-1,-2.596100792E-2,-1.663489819E0,-5.668662786E-1
7.403692260E-1,-4.046862945E-2,-1.654937983E0,-5.743491650E-1
7.427177160E-1,-5.131116882E-2,-1.629435062E0,-5.757235289E-1
7.450662060E-1,-6.093201414E-2,-1.620883226E0,-5.832064152E-1
7.474146430E-1,-6.780404598E-2,-1.585912228E0,-5.908420086E-1
7.497631330E-1,-6.933116168E-2,-1.537655234E0,-5.984776020E-1
7.521116220E-1,-7.498150319E-2,-1.512457848E0,-6.109999418E-1
7.544601120E-1,-7.803573459E-2,-1.475043416E0,-6.209262609E-1
7.568086010E-1,-8.597674966E-2,-1.436560035E0,-6.336013079E-1
7.591570910E-1,-9.559759498E-2,-1.425564766E0,-6.458182931E-1
7.615055810E-1,-1.075091213E-1,-1.413347840E0,-6.606312990E-1
7.638540700E-1,-1.221694499E-1,-1.407239318E0,-6.717792749E-1
7.662025600E-1,-1.371352077E-1,-1.433505774E0,-6.875085831E-1
7.685510490E-1,-1.571404636E-1,-1.456107140E0,-7.020162344E-1
7.708995390E-1,-1.792836636E-1,-1.451067686E0,-7.143858671E-1
7.732480280E-1,-2.038702667E-1,-1.456717968E0,-7.278245091E-1
7.755965180E-1,-2.347180545E-1,-1.463437319E0,-7.412631512E-1
7.779450080E-1,-2.652604282E-1,-1.446180940E0,-7.513421178E-1
7.802934970E-1,-3.057290614E-1,-1.428619027E0,-7.600467205E-1
7.826419870E-1,-3.440597057E-1,-1.429077148E0,-7.675296068E-1
7.849904760E-1,-3.869717419E-1,-1.406628489E0,-7.690566778E-1
7.873389660E-1,-4.311054647E-1,-1.374559045E0,-7.693621516E-1
7.896874030E-1,-4.767662883E-1,-1.371199369E0,-7.658497691E-1
7.920358930E-1,-5.164713860E-1,-1.365701795E0,-7.562289238E-1
7.943843830E-1,-5.534276366E-1,-1.344322085E0,-7.406523228E-1
7.967328720E-1,-5.856497884E-1,-1.332868695E0,-7.237012982E-1
7.990813620E-1,-6.068767309E-1,-1.320193648E0,-7.030851841E-1
8.014298510E-1,-6.204680800E-1,-1.296828747E0,-6.751389503E-1
8.037783410E-1,-6.293253899E-1,-1.287971497E0,-6.459710002E-1
8.061268310E-1,-6.310052276E-1,-1.279266834E0,-6.129852533E-1
8.084753200E-1,-6.262711287E-1,-1.261094213E0,-5.716003180E-1
8.108238100E-1,-6.180247068E-1,-1.256054640E0,-5.337277651E-1
8.131722990E-1,-6.009209752E-1,-1.230857253E0,-4.934118688E-1
8.155207890E-1,-5.786250830E-1,-1.186265349E0,-4.534013867E-1
8.178692780E-1,-5.488462448E-1,-1.150378108E0,-4.132381678E-1
8.202177680E-1,-5.143333673E-1,-1.123042703E0,-3.765873313E-1
8.225662580E-1,-4.784461260E-1,-1.090973258E0,-3.413109183E-1
8.249146950E-1,-4.376720488E-1,-1.056460381E0,-3.048127890E-1
8.272631850E-1,-3.894151151E-1,-1.029430389E0,-2.706053257E-1
8.296116740E-1,-3.474193811E-1,-1.005912781E0,-2.388412803E-1
8.319601640E-1,-3.005368412E-1,-9.836167693E-1,-2.095206082E-1
8.343086530E-1,-2.460187376E-1,-9.518527389E-1,-1.803526580E-1
8.366571430E-1,-1.879882365E-1,-9.384140968E-1,-1.557660550E-1
8.390056330E-1,-1.362189353E-1,-9.451334476E-1,-1.360662282E-1
8.413541220E-1,-8.826743066E-2,-9.544488192E-1,-1.224748790E-1
8.437026120E-1,-4.153761268E-2,-9.660549164E-1,-1.148392856E-1
8.460511010E-1,-4.886778072E-3,-9.932376146E-1,-1.181989461E-1
8.483995910E-1,2.458660305E-2,-1.020267606E0,-1.227803007E-1
8.507480810E-1,5.161659420E-2,-1.043785214E0,-1.336228400E-1
8.530965700E-1,7.986827940E-2,-1.072189689E0,-1.504211426E-1
8.554450600E-1,9.819369763E-2,-1.101510286E0,-1.635543555E-1
8.577935490E-1,1.192679256E-1,-1.112810969E0,-1.829487532E-1
8.601420390E-1,1.380514801E-1,-1.123042703E0,-2.061609477E-1
8.624905280E-1,1.579040140E-1,-1.131899953E0,-2.231119573E-1
8.648390180E-1,1.853921413E-1,-1.130220175E0,-2.426590770E-1
8.671875080E-1,2.142546773E-1,-1.122431874E0,-2.634278834E-1
8.695359450E-1,2.296785712E-1,-1.099983215E0,-2.854183912E-1
8.718844350E-1,2.490729690E-1,-1.060736299E0,-3.077143133E-1
8.742329240E-1,2.609844804E-1,-1.034622550E0,-3.310792148E-1
8.765814140E-1,2.667875290E-1,-1.001331329E0,-3.558185399E-1
8.789299030E-1,2.701472044E-1,-9.617789984E-1,-3.817795515E-1
8.812783930E-1,2.648022771E-1,-9.281824231E-1,-4.039227366E-1
8.836268830E-1,2.570139766E-1,-8.872556686E-1,-4.251496792E-1
8.859753720E-1,2.455606014E-1,-8.402203918E-1,-4.462239146E-1
8.883238620E-1,2.302894145E-1,-8.026533127E-1,-4.672981501E-1
8.906723510E-1,2.150182426E-1,-7.640172243E-1,-4.811949134E-1
8.930208410E-1,1.959292591E-1,-7.275190949E-1,-4.949389994E-1
8.953693310E-1,1.742441803E-1,-7.020162344E-1,-5.085303187E-1
8.977178200E-1,1.513374150E-1,-6.655181050E-1,-5.150969625E-1
9.000663100E-1,1.270562261E-1,-6.374191046E-1,-5.238015056E-1
9.024147990E-1,9.529217333E-2,-6.163448691E-1,-5.277720094E-1
9.047632890E-1,6.230641901E-2,-5.940489769E-1,-5.317425132E-1
9.071117260E-1,2.916795574E-2,-5.778614879E-1,-5.331169367E-1
9.094602160E-1,-5.192201585E-3,-5.615213513E-1,-5.322006941E-1
9.118087060E-1,-3.603998944E-2,-5.465555787E-1,-5.274665952E-1
9.141571950E-1,-6.566607952E-2,-5.338805318E-1,-5.227325559E-1
9.165056850E-1,-9.269607067E-2,-5.140279531E-1,-5.143333673E-1
9.188541740E-1,-1.107160673E-1,-4.726430774E-1,-5.025745630E-1
9.212026640E-1,-1.214058921E-1,-4.253024161E-1,-4.857762754E-1
9.235511530E-1,-1.386623234E-1,-3.959817290E-1,-4.653128982E-1
9.258996430E-1,-1.585148573E-1,-3.881934285E-1,-4.433223903E-1
9.282481330E-1,-1.864611208E-1,-3.959817290E-1,-4.164451063E-1
9.305966220E-1,-2.191414535E-1,-4.120164812E-1,-3.932329118E-1
9.329451120E-1,-2.519744933E-1,-4.388937652E-1,-3.674246371E-1
9.352936010E-1,-2.887780368E-1,-4.705050886E-1,-3.428380191E-1
9.376420910E-1,-3.289412558E-1,-4.877615273E-1,-3.171824515E-1
9.399905810E-1,-3.675773442E-1,-4.831801951E-1,-2.904578745E-1
9.423390700E-1,-4.023956358E-1,-4.787515402E-1,-2.661767006E-1
9.446875080E-1,-4.312581718E-1,-4.853181541E-1,-2.441861928E-1
9.470359970E-1,-4.575245976E-1,-4.822639227E-1,-2.246390730E-1
9.493844870E-1,-4.836383164E-1,-4.779879749E-1,-2.125748396E-1
9.517329760E-1,-5.158604980E-1,-4.724903405E-1,-2.029540092E-1
9.540814660E-1,-5.575508475E-1,-4.453076422E-1,-1.995943487E-1
9.564299560E-1,-5.942016840E-1,-4.156815708E-1,-1.998997629E-1
9.587784450E-1,-6.271874309E-1,-3.970507085E-1,-2.063136548E-1
9.611269350E-1,-6.539120078E-1,-3.736858070E-1,-2.174616307E-1
9.634754240E-1,-6.778877378E-1,-3.361186981E-1,-2.350234836E-1
9.658239140E-1,-6.995728016E-1,-3.141281903E-1,-2.559449971E-1
9.681724030E-1,-7.211052179E-1,-2.922904193E-1,-2.831276953E-1
9.705208930E-1,-7.414158583E-1,-2.596100867E-1,-3.090887070E-1
9.728693830E-1,-7.582141757E-1,-2.498365343E-1,-3.373403847E-1
9.752178720E-1,-7.725690603E-1,-2.522799075E-1,-3.691044450E-1
9.775663620E-1,-7.892146707E-1,-2.414373755E-1,-4.046863019E-1
9.799148510E-1,-8.020424247E-1,-2.209739983E-1,-4.402681589E-1
9.822633410E-1,-8.147175312E-1,-1.933331639E-1,-4.808894992E-1
9.846118310E-1,-8.133431077E-1,-1.369825006E-1,-5.216635466E-1
9.869602680E-1,-7.965448499E-1,-4.856235534E-2,-5.686988235E-1
9.893087580E-1,-7.611156702E-1,5.161659420E-2,-6.206207871E-1
9.916572470E-1,-7.183563709E-1,1.310267299E-1,-6.723901033E-1
9.939926640E-1,-6.752916574E-1,1.553079188E-1,-7.165238261E-1
9.963542260E-1,-6.343649030E-1,1.276670843E-1,-7.577560544E-1
9.987027160E-1,-5.862606764E-1,9.162709117E-2,-7.879929543E-1
1.001051206E0,-5.548020005E-1,9.804098308E-2,-8.122741580E-1
1.003399695E0,-5.346440673E-1,1.084253863E-1,-8.307522535E-1
1.005748185E0,-5.193728805E-1,1.261399537E-1,-8.478559852E-1
1.008096674E0,-5.100574493E-1,1.571404636E-1,-8.616000414E-1
1.010445164E0,-5.042544007E-1,2.003578991E-1,-8.716790676E-1
1.012793653E0,-4.964661002E-1,2.290677279E-1,-8.779402375E-1
1.015142143E0,-4.824166298E-1,2.504473627E-1,-8.805363178E-1
1.017490633E0,-4.720322192E-1,2.875563502E-1,-8.794673681E-1
1.019839122E0,-4.569137394E-1,3.126010895E-1,-8.747332692E-1
1.022187612E0,-4.321744442E-1,3.135173619E-1,-8.649597168E-1
1.024536101E0,-4.051444530E-1,3.167243004E-1,-8.538117409E-1
1.026884539E0,-3.756710589E-1,3.138227761E-1,-8.428165317E-1
1.029219956E0,-3.461976945E-1,3.109212518E-1,-8.304468393E-1
1.031581518E0,-3.083251417E-1,2.861819267E-1,-8.179244995E-1
1.033930008E0,-2.623589039E-1,2.373141646E-1,-7.979192138E-1
1.036265424E0,-2.098260373E-1,2.064663768E-1,-7.766922712E-1
1.038626987E0,-1.546970755E-1,1.814216375E-1,-7.556180358E-1
1.040975476E0,-9.452861547E-2,1.685938388E-1,-7.308787704E-1
1.043310893E0,-2.809897438E-2,1.771457046E-1,-7.014053464E-1
1.045672456E0,4.077405483E-2,1.760767251E-1,-6.694886088E-1
1.048020945E0,1.123958975E-1,1.099525094E-1,-6.369609833E-1
1.050369435E0,1.777565479E-1,4.520269856E-2,-6.021426916E-1
1.052717924E0,2.423536479E-1,1.908897609E-2,-5.613686442E-1
1.055066414E0,3.023693860E-1,8.551862091E-3,-5.207473040E-1
1.057414903E0,3.535278440E-1,-7.635590620E-3,-4.801259339E-1
1.059763341E0,3.936910629E-1,-1.175880991E-2,-4.408790171E-1
1.062111831E0,4.208737612E-1,1.206423342E-2,-4.068242610E-1
1.064460320E0,4.497362971E-1,-1.466033421E-2,-3.747547865E-1
1.066808810E0,4.718795121E-1,-7.635590434E-2,-3.436015844E-1
1.069157299E0,4.871506989E-1,-1.064401343E-1,-3.139754832E-1
1.071492716E0,4.915793240E-1,-1.062874198E-1,-2.797680497E-1
1.073854278E0,4.888305068E-1,-9.391776472E-2,-2.457133085E-1
1.076202768E0,4.911212027E-1,-8.292251825E-2,-2.115058601E-1
1.078551258E0,4.931064546E-1,-9.116895497E-2,-1.895153672E-1
1.080899747E0,4.973823726E-1,-1.285833418E-1,-1.855448484E-1
1.083248237E0,5.054761171E-1,-1.684411317E-1,-1.766875684E-1
1.085596726E0,5.111264586E-1,-1.889045089E-1,-1.629435122E-1
1.087945216E0,5.196782947E-1,-1.756185889E-1,-1.472141892E-1
1.090293706E0,5.398362875E-1,-1.409530044E-1,-1.278197914E-1
1.092642195E0,5.560237169E-1,-1.146865711E-1,-1.145338640E-1
1.094990685E0,5.659499764E-1,-1.062874198E-1,-1.010952219E-1
1.097339174E0,5.705313683E-1,-1.171299592E-1,-8.994726092E-2
1.099687612E0,5.755708218E-1,-9.788827598E-2,-7.910472155E-2
1.102036101E0,5.799994469E-1,-4.001049697E-2,-6.612421572E-2
1.104384591E0,5.867187977E-1,9.162708884E-4,-5.543438718E-2
1.106733081E0,5.845808387E-1,3.344388679E-2,-4.581354558E-2
1.109081570E0,5.850389600E-1,8.170082420E-2,-3.527642787E-2
1.111430060E0,5.954233408E-1,2.733541466E-2,-3.237490356E-2
1.113778549E0,6.053496599E-1,-5.955760926E-2,-4.016320780E-2
1.116127039E0,6.090146899E-1,-7.421794534E-2,-5.482354015E-2
1.118475528E0,6.062659025E-1,-3.222219273E-2,-7.345438004E-2
1.120824018E0,5.998520255E-1,1.710372418E-2,-9.575030953E-2
1.123172508E0,5.906893015E-1,4.367557913E-2,-1.241547018E-1
1.125520997E0,5.801522136E-1,5.803048983E-2,-1.560714692E-1
1.127856414E0,5.685460567E-1,7.482878864E-2,-1.965401024E-1
1.130217976E0,5.632011890E-1,9.269607067E-2,-2.382304370E-1
1.132566466E0,5.578562617E-1,1.056765765E-1,-2.848075330E-1
1.134914956E0,5.535803437E-1,1.114796251E-1,-3.277195692E-1
1.137263393E0,5.456393361E-1,1.148392856E-1,-3.753656447E-1
1.139611883E0,5.338805318E-1,1.220167428E-1,-4.146125913E-1
1.141960372E0,5.209000111E-1,1.316375881E-1,-4.501944184E-1
1.144308862E0,5.066977739E-1,1.388150454E-1,-4.844018817E-1
1.146657351E0,4.860817194E-1,1.414111406E-1,-5.126535892E-1
1.149005841E0,4.691306949E-1,1.524063945E-1,-5.311316848E-1
1.151354331E0,4.544703662E-1,1.501157135E-1,-5.445703268E-1
1.153702820E0,4.396573007E-1,1.430909634E-1,-5.543438792E-1
1.156051310E0,4.187358022E-1,1.495048702E-1,-5.557183027E-1
1.158399799E0,3.990359604E-1,1.704263836E-1,-5.473191738E-1
1.160748289E0,3.778090179E-1,1.757712960E-1,-5.267030597E-1
1.163083706E0,3.611634374E-1,1.643179059E-1,-4.935645759E-1
1.165445268E0,3.396310806E-1,1.698155403E-1,-4.509579837E-1
1.167793758E0,3.168770075E-1,1.779092699E-1,-4.059080184E-1
1.170129122E0,2.912214398E-1,1.641651988E-1,-3.581092060E-1
1.172490737E0,2.716743052E-1,1.360662282E-1,-3.078670204E-1
1.174839226E0,2.447970361E-1,1.224748790E-1,-2.626643181E-1
1.177187664E0,2.157817930E-1,1.244601309E-1,-2.199050188E-1
1.179536153E0,1.966928244E-1,1.227803007E-1,-1.783674061E-1
1.181884643E0,1.867665499E-1,7.742489129E-2,-1.377460510E-1
1.184220060E0,1.925695986E-1,-1.832541777E-3,-1.004843712E-1
1.186581622E0,2.044811249E-1,-8.246438205E-2,-6.688777357E-2
1.188930112E0,2.241809368E-1,-1.440072358E-1,-3.329117596E-2
1.191278601E0,2.406738251E-1,-1.789782494E-1,-2.443389036E-3
1.193627091E0,2.660239935E-1,-1.937913001E-1,2.214321308E-2
1.195975581E0,2.832804024E-1,-1.806580722E-1,4.169032723E-2
1.198324070E0,3.026748300E-1,-1.942494214E-1,5.772506446E-2
1.200672560E0,3.266505599E-1,-2.283041626E-1,7.269082218E-2
1.203021049E0,3.532224298E-1,-2.695363462E-1,8.414421231E-2
1.205369539E0,3.846810758E-1,-3.014531136E-1,9.544488788E-2
1.207718028E0,4.104893506E-1,-3.042019308E-1,1.052184403E-1
1.210066518E0,4.329380095E-1,-2.913741469E-1,1.052184403E-1
1.212415008E0,4.442386627E-1,-2.867927849E-1,1.027750522E-1
1.214763497E0,4.532486796E-1,-2.738122940E-1,9.422318637E-2
1.217111935E0,4.547757804E-1,-2.557922900E-1,8.429691941E-2
1.219460424E0,4.526378214E-1,-2.473931462E-1,6.948387623E-2
1.221808914E0,4.361449480E-1,-2.183778882E-1,4.718795046E-2
1.224157403E0,4.167505503E-1,-2.014268786E-1,2.626643144E-2
1.226505893E0,4.048390090E-1,-1.904316396E-1,5.344913341E-3
1.228854383E0,3.932329118E-1,-1.687465608E-1,-2.290677279E-2
1.231202872E0,3.840702176E-1,-1.423274130E-1,-5.375456065E-2
1.233551362E0,3.750602305E-1,-1.195733473E-1,-8.811471611E-2
1.235899851E0,3.645231128E-1,-1.050657257E-1,-1.200314835E-1
1.238248341E0,3.527642787E-1,-9.315420687E-2,-1.556133330E-1
1.240596831E0,3.460449576E-1,-8.612946421E-2,-1.910424829E-1
1.242945320E0,3.416163325E-1,-7.895200700E-2,-2.266243398E-1
1.245293810E0,3.410054743E-1,-7.330167294E-2,-2.644968629E-1
1.247642299E0,3.355078697E-1,-5.299099907E-2,-3.014531136E-1
1.249990737E0,3.239017725E-1,-3.863608837E-2,-3.358132839E-1
1.252339226E0,3.132119179E-1,-3.619270027E-2,-3.626905680E-1
1.254687716E0,2.936648130E-1,-4.321744293E-2,-3.932329118E-1
1.257036206E0,2.704526186E-1,-5.024218559E-2,-4.188885093E-1
1.259384695E0,2.545706034E-1,-5.131116882E-2,-4.361449480E-1
1.261733185E0,2.409792393E-1,-5.238015205E-2,-4.434750974E-1
1.264081674E0,2.197522968E-1,-6.872031838E-2,-4.446968138E-1
1.266430164E0,1.947075576E-1,-8.994726092E-2,-4.457657933E-1
1.268778653E0,1.759240031E-1,-1.017060652E-1,-4.469874799E-1
1.271127143E0,1.598892659E-1,-1.085781008E-1,-4.469874799E-1
1.273475633E0,1.412584335E-1,-1.119377613E-1,-4.469874799E-1
1.275824122E0,1.275143623E-1,-1.165191159E-1,-4.433223903E-1
1.278172612E0,1.211004704E-1,-1.247655526E-1,-4.359922409E-1
1.280521101E0,1.207950488E-1,-1.342336833E-1,-4.199574888E-1
1.282869591E0,1.229330078E-1,-1.365243644E-1,-3.991886973E-1
1.285218081E0,1.214058921E-1,-1.314848661E-1,-3.784198761E-1
1.287566518E0,1.227803007E-1,-1.169772521E-1,-3.651339412E-1
1.289915060E0,1.252236813E-1,-1.000262350E-1,-3.518480062E-1
1.292263497E0,1.287360638E-1,-9.758284688E-2,-3.371876776E-1
1.294611987E0,1.385096163E-1,-9.758284688E-2,-3.187095523E-1
1.296960476E0,1.493521482E-1,-9.651386738E-2,-3.016058207E-1
1.299308966E0,1.650814712E-1,-1.027750522E-1,-2.855710983E-1
1.301657456E0,1.821851879E-1,-1.101052165E-1,-2.745758295E-1
1.304005945E0,1.982199401E-1,-1.079672500E-1,-2.634278834E-1
1.306354435E0,2.156290859E-1,-9.376505762E-2,-2.574721277E-1
1.308702924E0,2.354816198E-1,-8.689302206E-2,-2.550287247E-1
1.311051414E0,2.539597452E-1,-9.208522737E-2,-2.585411072E-1
1.313399903E0,2.701472044E-1,-8.887827396E-2,-2.609844804E-1
1.315748393E0,2.890834510E-1,-7.467607409E-2,-2.670929730E-1
1.318096883E0,3.023693860E-1,-9.193251282E-2,-2.718270421E-1
1.320445372E0,3.096995652E-1,-1.101052165E-1,-2.777827978E-1
1.322793862E0,3.223746419E-1,-1.020114943E-1,-2.901524603E-1
1.325142351E0,3.376458287E-1,-8.429691941E-2,-3.011476994E-1
1.327490789E0,3.480302393E-1,-5.925218388E-2,-3.110739589E-1
1.329839278E0,3.594835997E-1,-4.520269856E-2,-3.210002482E-1
1.332187768E0,3.695625961E-1,-3.573456407E-2,-3.295520842E-1
1.334536258E0,3.761292100E-1,-1.542389300E-2,-3.370349705E-1
1.336884747E0,3.825430870E-1,-9.620844387E-3,-3.443651497E-1
1.339233237E0,3.863608837E-1,-1.084253844E-2,-3.492519259E-1
1.341581726E0,3.799470067E-1,-2.535016090E-2,-3.539859951E-1
1.343930216E0,3.756710589E-1,-7.941014320E-2,-3.622324169E-1
1.346278706E0,3.640649617E-1,-1.240019947E-1,-3.765873313E-1
1.348627195E0,3.544441164E-1,-1.142284349E-1,-3.865135908E-1
1.350975685E0,3.474193811E-1,-8.399149776E-2,-3.915531039E-1
1.353324174E0,3.402419090E-1,-6.810946763E-2,-3.868190348E-1
1.355672664E0,3.327590525E-1,-6.795676053E-2,-3.807105422E-1
1.358021153E0,3.228327632E-1,-6.902574003E-2,-3.770454824E-1
1.360369643E0,3.072561622E-1,-1.679829881E-2,-3.665083647E-1
1.362718133E0,2.954973578E-1,3.038965166E-2,-3.559712470E-1
1.365066622E0,2.854183912E-1,1.863084175E-2,-3.545968235E-1
1.367415060E0,2.765611112E-1,6.719320081E-3,-3.521534503E-1
1.369763549E0,2.687727809E-1,-1.114796288E-2,-3.483356535E-1
1.372112039E0,2.461714447E-1,-2.626643144E-2,-3.348970115E-1
1.374460528E0,2.261662036E-1,-1.496575773E-2,-3.106158376E-1
1.376809018E0,2.070772201E-1,-2.397575416E-2,-2.823641598E-1
1.379157508E0,1.910424829E-1,-8.490777016E-2,-2.564031482E-1
1.381505997E0,1.765348613E-1,-1.241547018E-1,-2.316638231E-1
1.383854487E0,1.612636745E-1,-1.285833418E-1,-2.060082406E-1
1.386202976E0,1.475196183E-1,-1.137702987E-1,-1.890572309E-1
1.388551466E0,1.339282542E-1,-1.061347127E-1,-1.743968874E-1
1.390899956E0,1.238492802E-1,-1.058292910E-1,-1.647760421E-1
1.393248445E0,1.062874198E-1,-3.069507517E-2,-1.542389393E-1
1.395596935E0,9.208522737E-2,1.771457121E-2,-1.461452097E-1
1.397945424E0,8.078455180E-2,7.177455351E-3,-1.449235082E-1
1.400293862E0,7.146912813E-2,-3.130592033E-2,-1.433963925E-1
1.402642351E0,6.230641901E-2,-6.474980712E-2,-1.420219839E-1
1.404990841E0,5.314370990E-2,-1.007898003E-1,-1.380514801E-1
1.407339331E0,4.138490185E-2,-1.438545287E-1,-1.401894391E-1
1.409687820E0,3.588727489E-2,-1.774511337E-1,-1.351499557E-1
1.412036310E0,3.298575059E-2,-1.918060333E-1,-1.276670843E-1
1.414384799E0,3.649812192E-2,-2.014268786E-1,-1.177408099E-1
1.416733289E0,4.107947648E-2,-2.134911120E-1,-1.043021679E-1
1.419081778E0,4.566083103E-2,-2.254026383E-1,-8.704573661E-2
1.421430268E0,4.657710344E-2,-2.362451702E-1,-7.345438004E-2
1.423778758E0,4.978405312E-2,-2.432699203E-1,-4.902049154E-2
1.426127247E0,5.680879578E-2,-2.226538211E-1,3.359660041E-3
1.428475737E0,6.139015034E-2,-2.041756958E-1,4.978405312E-2
1.430824226E0,5.573981255E-2,-2.171562016E-1,8.903098851E-2
1.433172716E0,4.749337584E-2,-2.371614426E-1,1.246128380E-1
1.435521206E0,3.833066672E-2,-2.512109280E-1,1.478250325E-1
1.437869643E0,2.550287358E-2,-2.605263591E-1,1.685938388E-1
1.440218133E0,1.068982668E-2,-2.322746664E-1,2.014268786E-1
1.442566622E0,4.734066315E-3,-1.751604527E-1,2.437280566E-1
1.444915112E0,-1.679830020E-3,-1.592784226E-1,2.753393948E-1
1.447263601E0,-4.428642802E-3,-1.638597846E-1,2.999260128E-1
1.449612091E0,-8.551862091E-3,-1.733279079E-1,3.109212518E-1
1.451960581E0,-8.551862091E-3,-1.817270666E-1,3.086305857E-1
1.454309070E0,-1.603474095E-2,-1.889045089E-1,2.976353168E-1
1.456657560E0,-2.580829710E-2,-2.057028115E-1,2.744231224E-1
1.458992976E0,-4.795150831E-2,-2.249445021E-1,2.403683960E-1
1.461354539E0,-7.864658535E-2,-2.547233105E-1,1.976090819E-1
1.463703028E0,-1.094943732E-1,-2.881672084E-1,1.550024897E-1
1.466038393E0,-1.429382563E-1,-3.277195692E-1,1.087308154E-1
1.468400008E0,-1.800472289E-1,-3.744493723E-1,5.528167635E-2
1.470748497E0,-2.145601064E-1,-4.103366435E-1,3.970507067E-3
1.473096935E0,-2.412846684E-1,-4.124746025E-1,-3.512371704E-2
1.475445424E0,-2.583884001E-1,-4.184303582E-1,-6.200099736E-2
1.477793966E0,-2.730487287E-1,-4.327852726E-1,-8.399149776E-2
1.480142403E0,-2.812951505E-1,-4.219427407E-1,-1.012479365E-1
1.482490893E0,-2.855710983E-1,-3.820849657E-1,-1.088835225E-1
1.484839383E0,-2.849602401E-1,-3.400892019E-1,-1.152974218E-1
1.487187872E0,-2.733541429E-1,-3.064926267E-1,-1.142284349E-1
1.489536362E0,-2.556395829E-1,-2.828222811E-1,-1.143811494E-1
1.491884851E0,-2.377723008E-1,-2.397575527E-1,-1.122431830E-1
1.494233341E0,-2.173089087E-1,-1.905843467E-1,-1.003316641E-1
1.496581831E0,-1.988307834E-1,-1.835595965E-1,-8.796200156E-2
1.498930320E0,-1.779092699E-1,-1.815743446E-1,-8.551861346E-2
1.501278810E0,-1.504211426E-1,-1.821851879E-1,-9.529217333E-2
1.503627299E0,-1.244601309E-1,-1.924168915E-1,-1.036913246E-1
1.505975789E0,-1.047603041E-1,-2.145601064E-1,-1.168245375E-1
1.508324278E0,-9.086353332E-2,-2.052446753E-1,-1.255291104E-1
1.510672768E0,-8.796200156E-2,-1.776038408E-1,-1.293469071E-1
1.513021258E0,-8.628217876E-2,-1.534753740E-1,-1.356080920E-1
1.515369695E0,-8.735115826E-2,-1.403421611E-1,-1.369825006E-1
1.517718185E0,-9.468132257E-2,-1.414111406E-1,-1.394258887E-1
1.520066674E0,-9.559759498E-2,-1.246128380E-1,-1.469087601E-1
1.522415164E0,-8.521319181E-2,-1.018587798E-1,-1.543916464E-1
1.524763653E0,-7.605048269E-2,-7.559234649E-2,-1.630962193E-1
1.527112143E0,-6.688777357E-2,-4.214845970E-2,-1.693574041E-1
1.529460633E0,-5.665608495E-2,-2.061609551E-2,-1.743968874E-1
1.531809122E0,-4.520269856E-2,-1.374406368E-2,-1.829487532E-1
1.534157612E0,-3.374931216E-2,-1.985253533E-3,-1.953184158E-1
1.536506101E0,-2.473931387E-2,1.954711229E-2,-1.977618039E-1
1.538854591E0,-2.336490713E-2,2.916795574E-2,-1.966928244E-1
1.541203081E0,-2.443389036E-2,5.085303262E-2,-1.895153672E-1
1.543551570E0,-1.649287529E-2,8.444963396E-2,-1.860029846E-1
1.545900060E0,-3.970507067E-3,1.023169160E-1,-1.800472289E-1
1.548248497E0,3.359660041E-3,1.131594554E-1,-1.678302884E-1
1.550596987E0,5.039489828E-3,1.554606259E-1,-1.485885978E-1
1.552945476E0,7.788302377E-3,1.965401024E-1,-1.244601309E-1
1.555293966E0,1.588202827E-2,1.724116355E-1,-1.059819981E-1
1.557642456E0,1.756185852E-2,1.400367320E-1,-9.223793447E-2
1.559990945E0,-3.359660041E-3,1.403421611E-1,-8.979454637E-2
1.562339435E0,-2.947338112E-2,1.432436854E-1,-8.383878320E-2
1.564687924E0,-4.474456236E-2,1.244601309E-1,-7.146912813E-2
1.567036414E0,-4.306473210E-2,8.719844371E-2,-5.528167635E-2
1.569384903E0,-2.428117767E-2,2.916795574E-2,-3.649812192E-2
1.571733393E0,-4.581354442E-4,-8.399149403E-3,-1.298050396E-2
1.574081883E0,1.527118124E-2,-6.108472589E-3,1.511846948E-2
1.576430372E0,2.122694254E-2,5.955760833E-3,4.321744293E-2
1.578778862E0,1.969982497E-2,6.261184346E-3,6.642963737E-2
1.581127351E0,1.924168877E-2,-5.650337320E-3,9.223793447E-2
1.583475841E0,1.756185852E-2,-7.788302377E-3,1.154501289E-1
1.585824278E0,2.092151903E-2,-1.847812906E-2,1.375933439E-1
1.588172768E0,2.794626169E-2,-2.580829710E-2,1.522536725E-1
1.590521258E0,3.390202299E-2,-2.702999115E-2,1.681357026E-1
1.592869747E0,3.756710514E-2,-1.740914769E-2,1.791309565E-1
1.595218237E0,4.367557913E-2,-2.214321308E-2,1.864611208E-1
1.597566726E0,5.207473040E-2,-3.436015919E-2,1.927223057E-1
1.599915216E0,6.306997687E-2,-4.046862945E-2,2.002051920E-1
1.602263706E0,7.162184268E-2,-4.306473210E-2,2.050919682E-1
1.604612195E0,8.124268800E-2,-5.039490014E-2,2.076880634E-1
1.606960685E0,8.872556686E-2,-4.459185153E-2,2.112004459E-1
1.609309174E0,9.620844573E-2,-4.107947648E-2,2.124221325E-1
1.611657664E0,9.987352788E-2,-4.596625641E-2,2.101314515E-1
1.614006153E0,9.987352788E-2,-4.963133857E-2,2.040229887E-1
1.616354643E0,9.651386738E-2,-4.001049697E-2,1.953184158E-1
1.618703133E0,9.422318637E-2,-2.550287358E-2,1.902789176E-1
1.621051570E0,9.330692142E-2,-9.926267900E-3,1.841704547E-1
1.623400112E0,8.506047726E-2,5.803049076E-3,1.742441803E-1
1.625748549E0,7.696675509E-2,2.519745007E-2,1.568350345E-1
1.628097039E0,6.139015034E-2,4.337015375E-2,1.395785958E-1
1.630445528E0,4.092676565E-2,6.520794332E-2,1.188097894E-1
1.632794018E0,2.290677279E-2,8.826743066E-2,1.026223376E-1
1.635142508E0,5.039489828E-3,1.125486046E-1,8.276980370E-2
1.637490997E0,-9.315420873E-3,1.343863904E-1,6.658235192E-2
1.639839487E0,-2.733541466E-2,1.527118087E-1,4.688252881E-2
1.642187976E0,-4.062134400E-2,1.612636745E-1,2.840439789E-2
1.644536466E0,-4.779879749E-2,1.612636745E-1,1.252236869E-2
1.646884956E0,-5.635065958E-2,1.577513069E-1,3.970507067E-3
1.649233445E0,-6.123743951E-2,1.553079188E-1,-7.024743594E-3
1.651581935E0,-6.123743951E-2,1.479777545E-1,-1.679829881E-2
1.653930424E0,-5.741964281E-2,1.418692768E-1,-2.764083818E-2
1.656278914E0,-5.619794875E-2,1.357607991E-1,-3.985778242E-2
1.658627351E0,-4.734066129E-2,1.294996142E-1,-5.207473040E-2
1.660975841E0,-4.001049697E-2,1.232384369E-1,-5.925218388E-2
1.663324331E0,-3.497100621E-2,1.169772521E-1,-6.658235192E-2
1.665672820E0,-2.748812735E-2,1.131594554E-1,-7.391251624E-2
1.668021310E0,-2.015795931E-2,1.142284349E-1,-7.513421029E-2
1.670369799E0,-1.267508045E-2,1.177408099E-1,-7.269082218E-2
1.672718289E0,-6.413896102E-3,1.212531775E-1,-7.024743408E-2
1.675066778E0,-4.123218823E-3,1.236965731E-1,-6.047387794E-2
1.677415268E0,-1.679830020E-3,1.285833418E-1,-4.947862774E-2
1.679763758E0,1.985253533E-3,1.334701329E-1,-3.726168349E-2
1.682112247E0,7.941014133E-3,1.322484314E-1,-2.748812735E-2
1.684460737E0,1.511846948E-2,1.236965731E-1,-1.878355257E-2
1.686809226E0,1.985253580E-2,1.104106456E-1,-1.130067464E-2
1.689157716E0,2.565558441E-2,9.468132257E-2,-5.039489828E-3
1.691506206E0,2.916795574E-2,7.528692484E-2,-6.108472589E-3
1.693854643E0,3.252761811E-2,5.115845799E-2,-7.177455351E-3
1.696203133E0,3.833066672E-2,2.580829710E-2,-1.068982668E-2
1.698551622E0,4.550812021E-2,6.261184346E-3,-1.542389300E-2
1.700900112E0,5.161659420E-2,-8.246437646E-3,-1.893626526E-2
1.703248601E0,5.894676223E-2,-1.679829881E-2,-2.260134928E-2
1.705597091E0,6.749862432E-2,-2.428117767E-2,-2.489202656E-2
1.707945581E0,7.620319724E-2,-2.199050039E-2,-2.611372061E-2
1.710294070E0,8.368607610E-2,-1.374406368E-2,-2.367033064E-2
1.712642560E0,8.994726092E-2,-9.009997360E-3,-2.122694254E-2
1.714991049E0,9.620844573E-2,-3.054236295E-3,-1.649287529E-2
1.717339539E0,1.036913246E-1,1.007897966E-2,-9.162709117E-3
1.719688028E0,1.062874198E-1,2.092151903E-2,-1.832541777E-3
1.722036518E0,1.073564067E-1,2.336490713E-2,3.054236295E-3
1.724385008E0,1.075091213E-1,2.947338112E-2,7.788302377E-3
1.726733497E0,1.073564067E-1,3.191677108E-2,1.145338640E-2
1.729081935E0,1.087308154E-1,3.665083647E-2,1.634016447E-2
1.731430424E0,1.075091213E-1,4.153761268E-2,2.000524849E-2
1.733778914E0,1.024696305E-1,4.535540938E-2,2.229592577E-2
1.736127403E0,9.743013978E-2,3.573456407E-2,2.244863659E-2
1.738475893E0,9.361234307E-2,3.100049868E-2,2.244863659E-2
1.740824383E0,8.994726092E-2,3.710897267E-2,2.489202656E-2
1.743172872E0,8.399149776E-2,4.688252881E-2,2.596100792E-2
1.745521362E0,8.047912270E-2,5.894676223E-2,2.336490713E-2
1.747869851E0,7.696675509E-2,6.994201243E-2,2.336490713E-2
1.750218341E0,7.452336699E-2,7.345438004E-2,1.847812906E-2
1.752566831E0,7.711946964E-2,7.467607409E-2,1.236965694E-2
1.754915320E0,8.200624585E-2,6.719319522E-2,3.817795310E-3
1.757263810E0,8.582404256E-2,5.741964281E-2,-5.955760833E-3
1.759612299E0,9.330692142E-2,5.848862603E-2,-1.450762246E-2
1.761960789E0,9.849911928E-2,6.551336497E-2,-2.183778957E-2
1.764309226E0,9.987352788E-2,7.146912813E-2,-3.038965166E-2
1.766657716E0,1.049130186E-1,6.536065787E-2,-3.771981969E-2
1.769006206E0,1.075091213E-1,6.642963737E-2,-4.504998401E-2
1.771354695E0,1.127013192E-1,7.223268598E-2,-5.604523420E-2
1.773703185E0,1.140757278E-1,7.696675509E-2,-6.459710002E-2
1.776051674E0,1.178935245E-1,7.437065244E-2,-7.070557028E-2
1.778400164E0,1.201841980E-1,5.375456065E-2,-8.399149776E-2
1.780748653E0,1.224748790E-1,3.084778599E-2,-9.727742523E-2
1.783097143E0,1.261399537E-1,1.863084175E-2,-1.105633527E-1
1.785445633E0,1.275143623E-1,1.114796288E-2,-1.240019947E-1
1.787794122E0,1.285833418E-1,-1.298050396E-2,-1.409530044E-1
1.790142612E0,1.307213157E-1,-5.176930502E-2,-1.589729935E-1
1.792491101E0,1.282779276E-1,-6.749862432E-2,-1.734806150E-1
1.794839591E0,1.265980899E-1,-1.679829881E-2,-1.776038408E-1
1.797188081E0,1.249182671E-1,-4.459185153E-2,-1.798945218E-1
1.799536518E0,1.241547018E-1,-1.169772521E-1,-1.951656938E-1
1.801885008E0,1.233911440E-1,-1.930277348E-1,-2.179197669E-1
1.804233497E0,1.207950488E-1,-2.075353563E-1,-2.336490750E-1
1.806581987E0,1.198787764E-1,-1.966928244E-1,-2.374668717E-1
1.808930476E0,1.148392856E-1,-1.953184158E-1,-2.362451702E-1
1.811278966E0,1.123958975E-1,-2.024958730E-1,-2.386885732E-1
1.813627456E0,1.148392856E-1,-2.063136548E-1,-2.422009408E-1
1.815975945E0,1.160609797E-1,-2.075353563E-1,-2.446443290E-1
1.818324435E0,1.197260618E-1,-2.124221325E-1,-2.483094037E-1
1.820672924E0,1.223221645E-1,-2.101314515E-1,-2.519744933E-1
1.823021414E0,1.188097894E-1,-2.064663768E-1,-2.605263591E-1
1.825369903E0,1.212531775E-1,-2.064663768E-1,-2.641914487E-1
1.827718393E0,1.201841980E-1,-2.089097649E-1,-2.727433145E-1
1.830066883E0,1.191152185E-1,-2.018850148E-1,-2.838912606E-1
1.832415372E0,1.204896197E-1,-1.994416267E-1,-2.936648130E-1
1.834763810E0,1.139230132E-1,-1.440072358E-1,-2.951919436E-1
1.837112351E0,1.064401343E-1,-6.077930331E-2,-2.898470163E-1
1.839460789E0,1.068982705E-1,-1.162136942E-1,-2.954973578E-1
1.841809278E0,1.082726792E-1,-2.127275616E-1,-3.155026138E-1
1.844157768E0,1.185043678E-1,-3.034383655E-1,-3.490992188E-1
1.846506258E0,1.320957243E-1,-3.280249834E-1,-3.782671690E-1
1.848854747E0,1.502684206E-1,-2.899997234E-1,-3.955236077E-1
1.851203237E0,1.707318127E-1,-2.518217862E-1,-4.043808877E-1
1.853551726E0,1.884463727E-1,-2.330382317E-1,-4.141544402E-1
1.855900216E0,2.122694254E-1,-2.275405973E-1,-4.263713956E-1
1.858248706E0,2.371614426E-1,-2.279987335E-1,-4.398100376E-1
1.860597195E0,2.570139766E-1,-2.296785712E-1,-4.518742561E-1
1.862945685E0,2.733541429E-1,-2.338017821E-1,-4.689779878E-1
1.865294174E0,2.858765125E-1,-2.316638231E-1,-4.811949134E-1
1.867642664E0,2.948864996E-1,-2.247917950E-1,-4.970769584E-1
1.869991101E0,3.026748300E-1,-2.141019702E-1,-5.117372870E-1
1.872339591E0,3.129065037E-1,-2.000524700E-1,-5.241069198E-1
1.874688081E0,3.255815804E-1,-1.907370538E-1,-5.375455618E-1
1.877036570E0,3.382566571E-1,-1.873773932E-1,-5.509842038E-1
1.879385060E0,3.521534503E-1,-1.841704547E-1,-5.680879354E-1
1.881733549E0,3.634541333E-1,-1.905843467E-1,-5.876350403E-1
1.884082039E0,3.782671690E-1,-2.115058601E-1,-6.082511544E-1
1.886430528E0,3.993414044E-1,-2.192941606E-1,-6.264238358E-1
1.888779018E0,4.169032574E-1,-2.160872221E-1,-6.410841942E-1
1.891127508E0,4.358395338E-1,-2.079934925E-1,-6.533011198E-1
1.893475997E0,4.520269632E-1,-2.023431510E-1,-6.630746722E-1
1.895824487E0,4.659237564E-1,-1.942494214E-1,-6.679614782E-1
1.898172976E0,4.735593498E-1,-1.872246861E-1,-6.752916574E-1
1.900521466E0,4.761554301E-1,-1.788255423E-1,-6.766660213E-1
1.902869956E0,4.740174711E-1,-1.632489264E-1,-6.839962006E-1
1.905218393E0,4.654656053E-1,-1.559187621E-1,-6.902574301E-1
1.907566883E0,4.544703662E-1,-1.557660550E-1,-6.975875497E-1
1.909915372E0,4.471401870E-1,-1.568350345E-1,-7.036960125E-1
1.912263862E0,4.408790171E-1,-1.615691036E-1,-7.098045349E-1
1.914612351E0,4.489727318E-1,-2.112004459E-1,-7.204943299E-1
1.916960841E0,4.743228853E-1,-2.648022771E-1,-7.298097610E-1
1.919309331E0,5.100574493E-1,-2.823641598E-1,-7.331694365E-1
1.921657820E0,5.483881235E-1,-2.866400778E-1,-7.342383862E-1
1.924006310E0,5.792359114E-1,-2.823641598E-1,-7.317950130E-1
1.926354799E0,6.090146899E-1,-2.793098986E-1,-7.305732965E-1
1.928703289E0,6.288672686E-1,-2.820587158E-1,-7.340856791E-1
1.931051778E0,6.386408210E-1,-2.919849753E-1,-7.388197780E-1
1.933400268E0,6.358919740E-1,-3.161134422E-1,-7.508839965E-1
1.935748758E0,6.282563806E-1,-3.497100472E-1,-7.653915882E-1
1.938097247E0,6.154286265E-1,-3.967452943E-1,-7.870767117E-1
1.940445685E0,6.015318632E-1,-4.375193417E-1,-8.087617755E-1
1.942794174E0,5.902311802E-1,-4.737120569E-1,-8.342646360E-1
1.945142664E0,5.827482939E-1,-5.037962794E-1,-8.609892130E-1
1.947491153E0,5.778614879E-1,-5.256340504E-1,-8.889354467E-1
1.949839643E0,5.780141950E-1,-5.439594984E-1,-9.168817401E-1
1.952188133E0,5.767925382E-1,-5.670189857E-1,-9.484930634E-1
1.954536622E0,5.830537081E-1,-5.926745534E-1,-9.801044464E-1
1.956885112E0,5.928272605E-1,-6.279509664E-1,-1.011563063E0
1.959233601E0,6.064186096E-1,-6.623111367E-1,-1.048061132E0
1.961582091E0,6.287145615E-1,-6.931589246E-1,-1.086849928E0
1.963930581E0,6.537593007E-1,-7.215633392E-1,-1.131747246E0
1.966279070E0,6.836907864E-1,-7.417212725E-1,-1.176797271E0
1.968627560E0,7.137750387E-1,-7.608102560E-1,-1.227955699E0
1.970976049E0,7.453863621E-1,-7.737907767E-1,-1.287665963E0
1.973324539E0,7.805100679E-1,-7.930324674E-1,-1.348445296E0
1.975672976E0,8.182299137E-1,-8.194515705E-1,-1.414264083E0
1.978021466E0,8.521319032E-1,-8.460234404E-1,-1.488482118E0
1.980369956E0,8.886300325E-1,-8.736643195E-1,-1.561478257E0
1.982718445E0,9.202414155E-1,-9.002361298E-1,-1.641957402E0
1.985066935E0,9.458969831E-1,-9.193251133E-1,-1.723658204E0
1.987415424E0,9.665130973E-1,-9.359707236E-1,-1.805359125E0
1.989763914E0,9.822424054E-1,-9.526162744E-1,-1.889503241E0
1.992112403E0,9.943066239E-1,-9.666658044E-1,-1.969982386E0
1.994460893E0,1.002553105E0,-9.794935584E-1,-2.049392462E0
1.996809383E0,1.009577751E0,-9.946120381E-1,-2.128649950E0
1.999157872E0,1.012784719E0,-1.014617324E0,-2.200729847E0
2.001506362E0,1.017060637E0,-1.036760569E0,-2.265326977E0
2.003854851E0,1.021183848E0,-1.061499834E0,-2.328702450E0
2.006203341E0,1.024085402E0,-1.087308168E0,-2.387191057E0
2.008551831E0,1.025612593E0,-1.111742020E0,-2.438349485E0
2.010900268E0,1.028514028E0,-1.135106921E0,-2.487064600E0
2.013248758E0,1.028666735E0,-1.157097459E0,-2.529671192E0
2.015597247E0,1.031262875E0,-1.177866220E0,-2.563725948E0
2.017945737E0,1.034011722E0,-1.192526579E0,-2.596559048E0
2.020294226E0,1.036760569E0,-1.201231122E0,-2.620992899E0
2.022642716E0,1.040578246E0,-1.213600755E0,-2.645274162E0
2.024991206E0,1.045617819E0,-1.222305417E0,-2.666042805E0
2.027339695E0,1.055696726E0,-1.234675050E0,-2.685437202E0
2.029688185E0,1.066691995E0,-1.249335408E0,-2.699944973E0
2.032036674E0,1.080283403E0,-1.262926698E0,-2.712161779E0
2.034385164E0,1.096318126E0,-1.276670814E0,-2.721782684E0
2.036733653E0,1.111131191E0,-1.287818789E0,-2.727738380E0
2.039082143E0,1.127013206E0,-1.300188422E0,-2.731250763E0
2.041430633E0,1.141673565E0,-1.313627005E0,-2.732319832E0
2.043779122E0,1.156486630E0,-1.322331548E0,-2.733388662E0
2.046127560E0,1.168703556E0,-1.334548593E0,-2.732167006E0
2.048476049E0,1.179698825E0,-1.343253136E0,-2.735679388E0
2.050824539E0,1.189472318E0,-1.351957679E0,-2.737970114E0
2.053173028E0,1.192984700E0,-1.367686987E0,-2.739191771E0
2.055521518E0,1.199093223E0,-1.378682256E0,-2.746369362E0
2.057870008E0,1.200314879E0,-1.389524817E0,-2.752325058E0
2.060218497E0,1.197566032E0,-1.408766508E0,-2.759655237E0
2.062566987E0,1.192526579E0,-1.419609070E0,-2.764389277E0
2.064915476E0,1.186112642E0,-1.437628984E0,-2.769123316E0
2.067263966E0,1.178477049E0,-1.466491580E0,-2.776300907E0
2.069612456E0,1.169467092E0,-1.493979692E0,-2.779813051E0
2.071960945E0,1.158013701E0,-1.515512109E0,-2.783325434E0
2.074309435E0,1.145338655E0,-1.541778445E0,-2.789281368E0
2.076657872E0,1.134037971E0,-1.557355046E0,-2.796611547E0
2.079006362E0,1.121668339E0,-1.565601468E0,-2.802719831E0
2.081354851E0,1.108229637E0,-1.565296054E0,-2.811271906E0
2.083703341E0,1.094791055E0,-1.553079128E0,-2.818754673E0
2.086051831E0,1.084101200E0,-1.533684731E0,-2.825015783E0
2.088400320E0,1.073411345E0,-1.508334637E0,-2.833720446E0
2.090748810E0,1.065317631E0,-1.482831717E0,-2.841356039E0
2.093097299E0,1.060736299E0,-1.456412554E0,-2.850060701E0
2.095445789E0,1.061194420E0,-1.433505774E0,-2.857543468E0
2.097794278E0,1.065317631E0,-1.411973476E0,-2.862582922E0
2.100142768E0,1.071884274E0,-1.391662717E0,-2.865179062E0
2.102491258E0,1.082115889E0,-1.371352077E0,-2.866553545E0
2.104839747E0,1.092347622E0,-1.341420531E0,-2.865484476E0
2.107188237E0,1.100135922E0,-1.307824016E0,-2.858459711E0
2.109536726E0,1.114185452E0,-1.274227381E0,-2.846395493E0
2.111885216E0,1.129151106E0,-1.245517612E0,-2.825779438E0
2.114233653E0,1.148851037E0,-1.226428628E0,-2.803788900E0
2.116582143E0,1.170841455E0,-1.219403863E0,-2.775689840E0
2.118930633E0,1.198940516E0,-1.214822531E0,-2.740260839E0
2.121279122E0,1.230551839E0,-1.221083641E0,-2.704679012E0
2.123627612E0,1.263232112E0,-1.228719234E0,-2.665431976E0
2.125976101E0,1.298508525E0,-1.237423778E0,-2.623589039E0
2.128324591E0,1.333937645E0,-1.235438585E0,-2.584494829E0
2.130673081E0,1.368145108E0,-1.230857253E0,-2.547691107E0
2.133021570E0,1.398534775E0,-1.223985195E0,-2.509818792E0
2.135370060E0,1.428160906E0,-1.207339644E0,-2.476832867E0
2.137718549E0,1.447860718E0,-1.184738278E0,-2.449955702E0
2.140067039E0,1.465269804E0,-1.154654026E0,-2.423231125E0
2.142415528E0,1.475348830E0,-1.121057391E0,-2.403989315E0
2.144764018E0,1.481915474E0,-1.086086392E0,-2.387038469E0
2.147112508E0,1.482220888E0,-1.048672080E0,-2.372683525E0
2.149460945E0,1.475196123E0,-1.012326598E0,-2.360771894E0
2.151809435E0,1.465575337E0,-9.807152748E-1,-2.348860502E0
2.154157924E0,1.452136636E0,-9.575030804E-1,-2.340461254E0
2.156506414E0,1.432589531E0,-9.390249252E-1,-2.333283901E0
2.158854903E0,1.409224629E0,-9.203941226E-1,-2.326106310E0
2.161203393E0,1.383416295E0,-9.029849768E-1,-2.315416574E0
2.163551883E0,1.353790283E0,-8.831323981E-1,-2.308238983E0
2.165900372E0,1.323095202E0,-8.608365059E-1,-2.299992561E0
2.168248862E0,1.292400122E0,-8.360971808E-1,-2.281819820E0
2.170597351E0,1.262773991E0,-8.101361990E-1,-2.268686771E0
2.172945841E0,1.236965656E0,-7.841751575E-1,-2.249444962E0
2.175294331E0,1.207339644E0,-7.605048418E-1,-2.223942041E0
2.177642820E0,1.178782463E0,-7.404996157E-1,-2.197370291E0
2.179991310E0,1.157555580E0,-7.266027927E-1,-2.164537191E0
2.182339747E0,1.132358074E0,-7.211052179E-1,-2.126664639E0
2.184688237E0,1.107007980E0,-7.166765332E-1,-2.081614733E0
2.187036726E0,1.082879424E0,-7.169819474E-1,-2.031525373E0
2.189385216E0,1.056154966E0,-7.162184119E-1,-1.978992462E0
2.191733706E0,1.029277682E0,-7.200362086E-1,-1.917907715E0
2.194082195E0,1.001178622E0,-7.250757217E-1,-1.856822968E0
2.196430685E0,9.718579650E-1,-7.301151752E-1,-1.792073131E0
2.198779174E0,9.399412274E-1,-7.325585485E-1,-1.726254344E0
2.201127664E0,9.055810571E-1,-7.350019813E-1,-1.659061193E0
2.203476153E0,8.748859763E-1,-7.388197780E-1,-1.591867924E0
2.205824643E0,8.480086923E-1,-7.450809479E-1,-1.524674773E0
2.208173133E0,8.222004175E-1,-7.536327839E-1,-1.458703279E0
2.210521622E0,7.989882231E-1,-7.647807598E-1,-1.398687482E0
2.212870060E0,7.832589149E-1,-7.725690603E-1,-1.340046167E0
2.215218549E0,7.676823139E-1,-7.730271816E-1,-1.287513256E0
2.217567039E0,7.583668828E-1,-7.689039707E-1,-1.241088867E0
2.219915528E0,7.493568659E-1,-7.588250041E-1,-1.203369141E0
2.222264018E0,7.429429889E-1,-7.427902818E-1,-1.170536041E0
2.224612508E0,7.427902818E-1,-7.269082665E-1,-1.142437100E0
2.226960997E0,7.452336550E-1,-7.087355256E-1,-1.120599270E0
2.229309487E0,7.528692484E-1,-6.870504618E-1,-1.106091619E0
2.231657976E0,7.653915882E-1,-6.618530154E-1,-1.090362310E0
2.234006466E0,7.817317843E-1,-6.345176101E-1,-1.083184958E0
2.236354956E0,7.968502641E-1,-6.082511544E-1,-1.076007485E0
2.238703445E0,8.170081973E-1,-5.856497884E-1,-1.072342396E0
2.241051935E0,8.383878469E-1,-5.632011890E-1,-1.072495103E0
2.243400424E0,8.571714163E-1,-5.442649126E-1,-1.071426034E0
2.245748914E0,8.759549856E-1,-5.253286362E-1,-1.072647810E0
2.248097403E0,8.935168386E-1,-5.088357925E-1,-1.074022174E0
2.250445841E0,9.074136019E-1,-4.946335554E-1,-1.076465607E0
2.252794331E0,9.225320816E-1,-4.779879749E-1,-1.077839971E0
2.255142820E0,9.352071285E-1,-4.602734149E-1,-1.080283403E0
2.257491310E0,9.465078115E-1,-4.459185004E-1,-1.079214454E0
2.259839799E0,9.529217482E-1,-4.327852726E-1,-1.081657767E0
2.262188289E0,9.568922520E-1,-4.184303582E-1,-1.086697221E0
2.264536778E0,9.584193230E-1,-4.040754735E-1,-1.084406614E0
2.266885268E0,9.573503733E-1,-3.895678520E-1,-1.085628271E0
2.269233758E0,9.526162744E-1,-3.750602305E-1,-1.082115889E0
2.271582247E0,9.452861547E-1,-3.640649617E-1,-1.078603506E0
2.273930737E0,9.367342591E-1,-3.518480062E-1,-1.074938416E0
2.276279226E0,9.255862832E-1,-3.407000601E-1,-1.066539288E0
2.278627716E0,9.095515609E-1,-3.293993771E-1,-1.056918502E0
2.280976206E0,8.947384953E-1,-3.219164908E-1,-1.048519373E0
2.283324643E0,8.822161555E-1,-3.142809272E-1,-1.031415582E0
2.285673133E0,8.674030900E-1,-3.055763543E-1,-1.016907930E0
2.288021622E0,8.536590338E-1,-2.967190444E-1,-9.985825419E-1
2.290370112E0,8.399149776E-1,-2.878617644E-1,-9.779664874E-1
2.292718601E0,8.272398710E-1,-2.790044844E-1,-9.559759498E-1
2.295067091E0,8.134958148E-1,-2.689255178E-1,-9.341381788E-1
2.297415581E0,8.020424247E-1,-2.637332976E-1,-9.060391784E-1
2.299764070E0,7.882983685E-1,-2.583884001E-1,-8.793146014E-1
2.302112560E0,7.754706144E-1,-2.531961799E-1,-8.499939442E-1
2.304461049E0,7.641699314E-1,-2.490729690E-1,-8.232693672E-1
2.306809539E0,7.527165413E-1,-2.414373755E-1,-7.939487100E-1
2.309158028E0,7.424848676E-1,-2.301367074E-1,-7.598940134E-1
2.311506518E0,7.299624681E-1,-2.128802687E-1,-7.282826304E-1
2.313855008E0,7.211052179E-1,-1.956238300E-1,-6.965186000E-1
2.316203445E0,7.098045349E-1,-1.782146841E-1,-6.624638438E-1
2.318551935E0,7.021689415E-1,-1.670667231E-1,-6.332958937E-1
2.320900424E0,6.980457306E-1,-1.571404636E-1,-6.003101468E-1
2.323248914E0,6.928535104E-1,-1.507265568E-1,-5.699204803E-1
2.325597403E0,6.911736727E-1,-1.481304616E-1,-5.393781066E-1
2.327945893E0,6.884248853E-1,-1.417165697E-1,-5.100574493E-1
2.330294383E0,6.830799580E-1,-1.366770715E-1,-4.770717025E-1
2.332642872E0,6.777350307E-1,-1.339282542E-1,-4.453076422E-1
2.334991362E0,6.711684465E-1,-1.322484314E-1,-4.147652984E-1
2.337339851E0,6.621584296E-1,-1.319430023E-1,-3.842229247E-1
2.339688341E0,6.543701291E-1,-1.339282542E-1,-3.573456407E-1
2.342036831E0,6.478035450E-1,-1.324011385E-1,-3.280249834E-1
2.344385320E0,6.412369013E-1,-1.320957243E-1,-3.011476994E-1
2.346733810E0,6.346703172E-1,-1.317902952E-1,-2.767138183E-1
2.349082247E0,6.258130074E-1,-1.278197914E-1,-2.548760176E-1
2.351430737E0,6.206207871E-1,-1.240019947E-1,-2.353289127E-1
2.353779226E0,6.131379604E-1,-1.189625040E-1,-2.182251811E-1
2.356127716E0,6.068767309E-1,-1.114796251E-1,-2.049392611E-1
2.358476206E0,6.018372774E-1,-1.052184403E-1,-1.951656938E-1
2.360824695E0,5.957288146E-1,-9.666658193E-2,-1.878355294E-1
2.363173185E0,5.908420086E-1,-8.444963396E-2,-1.818797737E-1
2.365521674E0,5.885513425E-1,-7.360709459E-2,-1.795890927E-1
2.367870164E0,5.851916671E-1,-4.825693369E-2,-1.797417998E-1
2.370218653E0,5.830537081E-1,-2.046338283E-2,-1.774511337E-1
2.372567143E0,5.796940327E-1,0.000000000E0,-1.800472289E-1
2.374915633E0,5.763344169E-1,2.535016090E-2,-1.852394342E-1
2.377264122E0,5.780141950E-1,4.581354558E-2,-1.890572309E-1
2.379612612E0,5.796940327E-1,6.734590977E-2,-1.953184158E-1
2.381961049E0,5.838172436E-1,9.132166207E-2,-2.040229887E-1
2.384309539E0,5.879405141E-1,1.165191159E-1,-2.115058601E-1
2.386658028E0,5.909947157E-1,1.427855492E-1,-2.214321345E-1
2.389006518E0,5.963396430E-1,1.704263836E-1,-2.264716178E-1
2.391355008E0,6.030589342E-1,1.966928244E-1,-2.328855246E-1
2.393703497E0,6.084038615E-1,2.194468826E-1,-2.379250079E-1
2.396051987E0,6.149705052E-1,2.458660156E-1,-2.417428046E-1
2.398400476E0,6.190937161E-1,2.686200738E-1,-2.455606014E-1
2.400748966E0,6.244385839E-1,2.925958335E-1,-2.469350100E-1
2.403097456E0,6.297835112E-1,3.165715933E-1,-2.458660156E-1
2.405445945E0,6.349757314E-1,3.345915973E-1,-2.435753495E-1
2.407794435E0,6.400152445E-1,3.526115716E-1,-2.386885732E-1
2.410142924E0,6.476507783E-1,3.706315756E-1,-2.290677279E-1
2.412491414E0,6.490252018E-1,3.886515796E-1,-2.218902707E-1
2.414839903E0,6.503996253E-1,4.080459774E-1,-2.098260373E-1
2.417188341E0,6.505523324E-1,4.274403751E-1,-1.965401024E-1
2.419536831E0,6.493306160E-1,4.468347728E-1,-1.806580722E-1
2.421885320E0,6.468872428E-1,4.639385045E-1,-1.624853760E-1
2.424233810E0,6.442911625E-1,4.796678126E-1,-1.443126649E-1
2.426582299E0,6.381826997E-1,4.944808483E-1,-1.249182671E-1
2.428930789E0,6.305471063E-1,5.031854510E-1,-1.029277667E-1
2.431279278E0,6.216897964E-1,5.083776116E-1,-8.215895295E-2
2.433627768E0,6.126797795E-1,5.037962794E-1,-5.772506446E-2
2.435976258E0,6.035171151E-1,4.944808483E-1,-3.573456407E-2
2.438324747E0,5.943543911E-1,4.792096615E-1,-9.926267900E-3
2.440673237E0,5.850389600E-1,4.614951015E-1,1.588202827E-2
2.443021726E0,5.818319917E-1,4.364503622E-1,4.169032723E-2
2.445370216E0,5.749599934E-1,4.127800465E-1,6.994201243E-2
2.447718706E0,5.705313683E-1,3.950654566E-1,9.941539168E-2
2.450067143E0,5.651864409E-1,3.855973184E-1,1.250709742E-1
2.452415633E0,5.573981404E-1,3.883461356E-1,1.519482583E-1
2.454764122E0,5.486935377E-1,4.007157981E-1,1.701209545E-1
2.457112612E0,5.399889946E-1,4.130854607E-1,1.823379099E-1
2.459461101E0,5.325061083E-1,4.181249440E-1,1.919587553E-1
2.461809591E0,5.238015056E-1,4.146125913E-1,1.944021434E-1
2.464158081E0,5.186093450E-1,4.014793634E-1,1.957765520E-1
2.466506570E0,5.158604980E-1,3.773508966E-1,1.885990947E-1
2.468855060E0,5.080721974E-1,3.498627543E-1,1.838650256E-1
2.471203549E0,5.004366040E-1,3.197785318E-1,1.766875684E-1
2.473552039E0,4.914266169E-1,2.933593988E-1,1.719534993E-1
2.475900528E0,4.811949134E-1,2.754921019E-1,1.721062213E-1
2.478249018E0,4.688252807E-1,2.684673667E-1,1.708845198E-1
2.480597508E0,4.564556181E-1,2.735068500E-1,1.708845198E-1
2.482945945E0,4.430169761E-1,2.834331393E-1,1.682884246E-1
2.485294435E0,4.333961308E-1,2.956500649E-1,1.632489264E-1
2.487642924E0,4.286620617E-1,3.064926267E-1,1.534753740E-1
2.489991414E0,4.289674759E-1,3.136700690E-1,1.398840249E-1
2.492339903E0,4.306473136E-1,3.182514310E-1,1.191152185E-1
2.494688393E0,4.358395338E-1,3.155026138E-1,9.590301663E-2
2.497036883E0,4.460712075E-1,3.176405728E-1,7.146912813E-2
2.499385372E0,4.538595080E-1,3.184041381E-1,4.337015375E-2
2.501733862E0,4.605788291E-1,3.193204105E-1,1.282779220E-2
2.504082351E0,4.659237564E-1,3.261924386E-1,-1.771457121E-2
2.506430841E0,4.666872919E-1,3.403946459E-1,-5.207473040E-2
2.508779331E0,4.697415531E-1,3.533751369E-1,-8.276980370E-2
2.511127820E0,4.715740979E-1,3.686463237E-1,-1.146865711E-1
2.513476310E0,4.709632397E-1,3.840702176E-1,-1.453816444E-1
2.515824799E0,4.705050886E-1,4.031592011E-1,-1.736333370E-1
2.518173237E0,4.686725736E-1,4.259132445E-1,-2.031067163E-1
2.520521726E0,4.680617154E-1,4.486673176E-1,-2.276933193E-1
2.522870216E0,4.714213610E-1,4.772244096E-1,-2.535016239E-1
2.525218706E0,4.720322192E-1,5.024218559E-1,-2.721324563E-1
2.527567195E0,4.787515402E-1,5.286883116E-1,-2.869454920E-1
2.529915685E0,4.879142344E-1,5.525113344E-1,-2.968717813E-1
2.532264174E0,4.957025647E-1,5.703786016E-1,-3.043546379E-1
2.534612664E0,5.094466209E-1,5.821374655E-1,-3.055763543E-1
2.536961153E0,5.207473040E-1,5.940489769E-1,-3.043546379E-1
2.539309643E0,5.318952799E-1,5.963396430E-1,-2.970244884E-1
2.541658133E0,5.415160656E-1,5.913001299E-1,-2.835858464E-1
2.544006622E0,5.522059202E-1,5.829010010E-1,-2.651077211E-1
2.546355112E0,5.642701387E-1,5.755708218E-1,-2.441861928E-1
2.548703549E0,5.723638535E-1,5.647283196E-1,-2.197522968E-1
2.551052039E0,5.804576278E-1,5.528167486E-1,-1.927223057E-1
2.553400528E0,5.874823332E-1,5.444176197E-1,-1.644706279E-1
2.555749018E0,5.919110179E-1,5.373928547E-1,-1.388150454E-1
2.558097508E0,5.940489769E-1,5.399889946E-1,-1.094943732E-1
2.560445997E0,5.937435627E-1,5.473191738E-1,-8.261708915E-2
2.562794487E0,5.838172436E-1,5.633538961E-1,-5.955760926E-2
2.565142976E0,5.691569448E-1,5.867187977E-1,-4.382828996E-2
2.567491466E0,5.532749295E-1,6.158867478E-1,-3.069507517E-2
2.569839956E0,5.389199853E-1,6.487197876E-1,-2.718270384E-2
2.572188445E0,5.222744346E-1,6.923953891E-1,-3.497100621E-2
2.574536935E0,5.060869455E-1,7.443174124E-1,-5.741964281E-2
2.576885424E0,4.876088202E-1,8.105943203E-1,-8.842013776E-2
2.579233862E0,4.633276463E-1,8.854231238E-1,-1.343863904E-1
2.581582351E0,4.355340898E-1,9.662076235E-1,-1.887518018E-1
2.583930841E0,4.030064642E-1,1.045923233E0,-2.518217862E-1
2.586266258E0,3.691044450E-1,1.123042703E0,-3.159607351E-1
2.588627820E0,3.301629424E-1,1.189472318E0,-3.851391971E-1
2.590976310E0,2.887780368E-1,1.254832983E0,-4.578300118E-1
2.593324799E0,2.461714447E-1,1.316528559E0,-5.292991400E-1
2.595673289E0,2.009687424E-1,1.377002478E0,-6.044333577E-1
2.598021778E0,1.522536725E-1,1.442363143E0,-6.722373962E-1
2.600370268E0,1.032331884E-1,1.502989650E0,-7.363763452E-1
2.602718758E0,5.787777901E-2,1.555217147E0,-8.005153537E-1
2.605067247E0,1.588202827E-2,1.600114346E0,-8.547280431E-1
2.607415737E0,-1.771457121E-2,1.623326540E0,-9.026795626E-1
2.609764226E0,-4.672981426E-2,1.636765242E0,-9.431481957E-1
2.612112716E0,-6.719319522E-2,1.646538734E0,-9.762866497E-1
2.614461153E0,-8.429691941E-2,1.637070656E0,-9.982771277E-1
2.616809643E0,-9.804098308E-2,1.613094926E0,-1.010341406E0
2.619158133E0,-1.082726792E-1,1.592784286E0,-1.014006495E0
2.621493549E0,-1.186570823E-1,1.570182920E0,-1.004080176E0
2.623855112E0,-1.279724985E-1,1.534295559E0,-9.854493141E-1
2.626203601E0,-1.400367320E-1,1.493826985E0,-9.607100487E-1
2.628539018E0,-1.546970755E-1,1.458092451E0,-9.300149679E-1
2.630900581E0,-1.656923145E-1,1.429687977E0,-8.869501948E-1
2.633249070E0,-1.779092699E-1,1.396702290E0,-8.367080092E-1
2.635584487E0,-1.916533262E-1,1.356386304E0,-7.838697433E-1
2.637946049E0,-2.102841735E-1,1.317444801E0,-7.249229550E-1
2.640294539E0,-2.241809368E-1,1.279572248E0,-6.610894203E-1
2.642643028E0,-2.391466945E-1,1.241852522E0,-5.986303091E-1
2.644991518E0,-2.541124523E-1,1.205201626E0,-5.372401476E-1
2.647339956E0,-2.687727809E-1,1.180615067E0,-4.808894992E-1
2.649688445E0,-2.834331393E-1,1.159540772E0,-4.257605374E-1
2.652036935E0,-2.968717813E-1,1.139688253E0,-3.742966652E-1
2.654385424E0,-3.113794029E-1,1.121057391E0,-3.326063454E-1
2.656733914E0,-3.280249834E-1,1.102273822E0,-3.006895781E-1
2.659082403E0,-3.448232710E-1,1.084712029E0,-2.774773538E-1
2.661430893E0,-3.623851240E-1,1.074327588E0,-2.628170252E-1
2.663779383E0,-3.834593594E-1,1.079672575E0,-2.530434728E-1
2.666127872E0,-4.007157981E-1,1.093263865E0,-2.519744933E-1
2.668476362E0,-4.188885093E-1,1.115254402E0,-2.533488870E-1
2.670824851E0,-4.390464723E-1,1.178171635E0,-2.515163720E-1
2.673173341E0,-4.679090083E-1,1.229330063E0,-2.519744933E-1
2.675521831E0,-5.013529062E-1,1.220320106E0,-2.593046725E-1
2.677870320E0,-5.373928547E-1,1.202758312E0,-2.702999115E-1
2.680218810E0,-5.769452453E-1,1.190235853E0,-2.800734639E-1
2.682567247E0,-6.152759194E-1,1.184890985E0,-2.887780368E-1
2.684915737E0,-6.499415040E-1,1.179393291E0,-2.997733057E-1
2.687264226E0,-6.832326651E-1,1.180004239E0,-3.060344756E-1
2.689612716E0,-7.065975666E-1,1.179087877E0,-3.121429384E-1
2.691961206E0,-7.264500856E-1,1.175881028E0,-3.158080280E-1
2.694309695E0,-7.412631512E-1,1.171299577E0,-3.170297146E-1
2.696658185E0,-7.478297353E-1,1.155722976E0,-3.133646548E-1
2.699006674E0,-7.519529462E-1,1.125791550E0,-3.057290614E-1
2.701355164E0,-7.502731681E-1,1.086086392E0,-2.956500649E-1
2.703703653E0,-7.461498976E-1,1.040425539E0,-2.806843221E-1
2.706052143E0,-7.372926474E-1,9.897252917E-1,-2.594573796E-1
2.708400633E0,-7.261446714E-1,9.355126023E-1,-2.345653474E-1
2.710749122E0,-7.136223316E-1,8.849649429E-1,-2.049392611E-1
2.713097560E0,-6.962131858E-1,8.379297256E-1,-1.739387512E-1
2.715446049E0,-6.749862432E-1,7.992936373E-1,-1.369825006E-1
2.717794539E0,-6.499415040E-1,7.676823139E-1,-1.010952219E-1
2.720143028E0,-6.248967648E-1,7.374453545E-1,-6.413896382E-2
2.722491518E0,-5.923691392E-1,7.093463540E-1,-2.962609194E-2
2.724840008E0,-5.560237169E-1,6.824691296E-1,0.000000000E0
2.727188497E0,-5.146388412E-1,6.626165509E-1,2.718270384E-2
2.729536987E0,-4.694361091E-1,6.438329816E-1,5.299099907E-2
2.731885476E0,-4.230117202E-1,6.238277555E-1,6.917845458E-2
2.734233966E0,-3.715478480E-1,5.977140665E-1,8.307522535E-2
2.736582456E0,-3.225273490E-1,5.752654076E-1,8.582404256E-2
2.738930945E0,-2.793098986E-1,5.683933496E-1,8.597674966E-2
2.741279435E0,-2.408265322E-1,5.688515306E-1,8.353336155E-2
2.743627924E0,-2.049392611E-1,5.705313683E-1,8.002099395E-2
2.745976362E0,-1.714953631E-1,5.615213513E-1,7.162184268E-2
2.748324851E0,-1.369825006E-1,5.439594984E-1,6.322269142E-2
2.750673341E0,-1.036913246E-1,5.202891231E-1,5.497625470E-2
2.753021831E0,-7.284353673E-2,5.172349215E-1,4.902049154E-2
2.755370320E0,-4.291202128E-2,5.239542127E-1,4.657710344E-2
2.757718810E0,-1.328592747E-2,5.257867575E-1,4.779879749E-2
2.760067299E0,1.511846948E-2,5.216635466E-1,5.039490014E-2
2.762415789E0,3.726168349E-2,5.213581324E-1,5.665608495E-2
2.764764278E0,5.436540768E-2,5.175403357E-1,6.642963737E-2
2.767112768E0,6.642963737E-2,5.102101564E-1,8.002099395E-2
2.769461258E0,7.971556485E-2,4.943281412E-1,9.605573118E-2
2.771809747E0,8.414421231E-2,4.750864506E-1,1.120904684E-1
2.774158237E0,8.964183182E-2,4.523324072E-1,1.305686086E-1
2.776506674E0,9.269607067E-2,4.246915579E-1,1.540862173E-1
2.778855164E0,9.315420687E-2,3.923166394E-1,1.786728203E-1
2.781203653E0,9.223793447E-2,3.576510847E-1,2.034121305E-1
2.783552143E0,9.391776472E-2,3.264978528E-1,2.281514555E-1
2.785900633E0,9.437590092E-2,2.965663373E-1,2.551814318E-1
2.788249122E0,9.605573118E-2,2.629697323E-1,2.799207568E-1
2.790597612E0,9.895725548E-2,2.305948436E-1,3.022166789E-1
2.792946101E0,1.044548824E-1,1.945548505E-1,3.208475113E-1
2.795294591E0,1.113269106E-1,1.704263836E-1,3.368822634E-1
2.797643081E0,1.110214889E-1,1.777565479E-1,3.613161445E-1
2.799991570E0,1.072036922E-1,1.913478971E-1,3.843756318E-1
2.802340060E0,9.300149232E-2,1.566823274E-1,3.955236077E-1
2.804688549E0,7.742489129E-2,1.099525094E-1,3.946073353E-1
2.807037039E0,6.093201414E-2,7.650861889E-2,3.875826001E-1
2.809385476E0,4.474456236E-2,6.352811307E-2,3.814741075E-1
2.811733966E0,3.252761811E-2,6.001574174E-2,3.704788685E-1
2.814082456E0,2.641914412E-2,5.772506446E-2,3.545968235E-1
2.816430945E0,2.290677279E-2,5.635065958E-2,3.374931216E-1
2.818779435E0,2.565558441E-2,5.146388337E-2,3.216110766E-1
2.821127924E0,2.947338112E-2,4.642439261E-2,3.008422852E-1
2.823476414E0,3.466558084E-2,3.894151375E-2,2.826695740E-1
2.825824903E0,4.092676565E-2,3.497100621E-2,2.643441558E-1
2.828173393E0,4.856235534E-2,3.237490356E-2,2.484621257E-1
2.830521883E0,5.604523420E-2,2.611372061E-2,2.362451702E-1
2.832870372E0,6.597150117E-2,1.618745178E-2,2.254026383E-1
2.835218862E0,7.467607409E-2,1.236965694E-2,2.205158621E-1
2.837567351E0,8.322793990E-2,7.482878864E-3,2.182251811E-1
2.839915789E0,9.300149232E-2,-2.443389036E-3,2.182251811E-1
2.842264278E0,1.039967462E-1,-6.261184346E-3,2.220429778E-1
2.844612768E0,1.102579311E-1,2.137965523E-3,2.257080674E-1
2.846961258E0,1.154501289E-1,2.260134928E-2,2.304421216E-1
2.849309747E0,1.195733473E-1,5.146388337E-2,2.325800955E-1
2.851658237E0,1.273616552E-1,8.017370105E-2,2.385358512E-1
2.854006726E0,1.385096163E-1,9.086353332E-2,2.434226274E-1
2.856355216E0,1.496575773E-1,8.582404256E-2,2.422009408E-1
2.858703706E0,1.632489264E-1,8.429691941E-2,2.374668717E-1
2.861052195E0,1.794363856E-1,8.521319181E-2,2.313583940E-1
2.863400685E0,1.994416267E-1,9.086353332E-2,2.264716178E-1
2.865749174E0,2.267770469E-1,9.636115283E-2,2.203631550E-1
2.868097664E0,2.565558553E-1,9.452861547E-2,2.156290859E-1
2.870446101E0,2.811424434E-1,8.444963396E-2,2.084516287E-1
2.872794591E0,3.046600819E-1,7.666133344E-2,2.011214644E-1
2.875143081E0,3.258870244E-1,8.108997345E-2,1.939440072E-1
2.877491570E0,3.432961702E-1,8.185353130E-2,1.878355294E-1
2.879840060E0,3.629959822E-1,7.055285573E-2,1.818797737E-1
2.882188549E0,3.814741075E-1,5.696150661E-2,1.783674061E-1
2.884537039E0,3.997995257E-1,4.214845970E-2,1.760767251E-1
2.886885528E0,4.169032574E-1,2.382304333E-2,1.701209545E-1
2.889234018E0,4.315635860E-1,4.123218823E-3,1.653869003E-1
2.891582508E0,4.463766217E-1,3.054236295E-4,1.618745178E-1
2.893930997E0,4.599680007E-1,-1.221694518E-3,1.594311297E-1
2.896279487E0,4.758500159E-1,-1.832541823E-2,1.583621502E-1
2.898627976E0,4.941754341E-1,-4.169032723E-2,1.536280811E-1
2.900976466E0,5.137225389E-1,-6.245913357E-2,1.514901221E-1
2.903324903E0,5.344913602E-1,-7.849387079E-2,1.504211426E-1
2.905673393E0,5.589252710E-1,-9.345962852E-2,1.517955512E-1
2.908021883E0,5.836645365E-1,-1.047603041E-1,1.482831687E-1
2.910370372E0,6.047387719E-1,-1.052184403E-1,1.411057115E-1
2.912718862E0,6.247440577E-1,-9.468132257E-2,1.360662282E-1
2.915067351E0,6.459710002E-1,-7.834116369E-2,1.336228400E-1
2.917415841E0,6.722373962E-1,-6.795676053E-2,1.299577504E-1
2.919764331E0,6.983511448E-1,-6.123743951E-2,1.275143623E-1
2.922112820E0,7.256865501E-1,-5.207473040E-2,1.262926757E-1
2.924461310E0,7.543963790E-1,-4.306473210E-2,1.226275861E-1
2.926809799E0,7.841751575E-1,-4.001049697E-2,1.203369126E-1
2.929158289E0,8.138012886E-1,-4.062134400E-2,1.154501289E-1
2.931506778E0,8.449544907E-1,-3.878879920E-2,1.082726792E-1
2.933855268E0,8.735115528E-1,-3.451287001E-2,1.009425074E-1
2.936203758E0,8.997780085E-1,-2.550287358E-2,8.994726092E-2
2.938552195E0,9.199360013E-1,-1.023169141E-2,8.017370105E-2
2.940900685E0,9.364288449E-1,1.374406274E-3,6.780404598E-2
2.943249174E0,9.539906979E-1,1.298050396E-2,5.680879578E-2
2.945597664E0,9.665130973E-1,1.634016447E-2,4.459185153E-2
2.947946153E0,9.765920639E-1,1.725643501E-2,3.237490356E-2
2.950294643E0,9.817842841E-1,1.817270555E-2,1.893626526E-2
2.952643133E0,9.868237376E-1,1.679829881E-2,9.162709117E-3
2.954991622E0,9.894198179E-1,1.191152167E-2,-6.108472589E-4
2.957340112E0,9.906415343E-1,5.803049076E-3,-9.009997360E-3
2.959688601E0,9.930849075E-1,-2.748812549E-3,-1.511846948E-2
2.962037091E0,9.965972900E-1,-1.481304597E-2,-1.740914769E-2
2.964385581E0,9.988879561E-1,-2.687728032E-2,-1.740914769E-2
2.966734070E0,1.002553105E0,-3.787253052E-2,-1.969982497E-2
2.969082508E0,1.007287145E0,-4.275930673E-2,-1.481304597E-2
2.971430997E0,1.010035992E0,-2.229592577E-2,-6.413896102E-3
2.973779487E0,1.003011227E0,2.733541466E-2,1.160609815E-2
2.976127976E0,9.906415343E-1,2.764083818E-2,2.015795931E-2
2.978476466E0,9.729269743E-1,6.413896102E-3,2.519745007E-2
2.980824956E0,9.541434050E-1,-1.007897966E-2,2.519745007E-2
2.983173445E0,9.329164624E-1,-1.939439960E-2,2.275406010E-2
2.985521935E0,9.118422270E-1,-2.748812735E-2,1.420219894E-2
2.987870424E0,8.971819282E-1,-3.329117596E-2,4.428642802E-3
2.990218914E0,8.909206986E-1,-4.657710344E-2,-7.788302377E-3
2.992567403E0,8.883246183E-1,-5.741964281E-2,-1.740914769E-2
2.994915893E0,8.872556686E-1,-6.108472496E-2,-2.351761982E-2
2.997264383E0,8.921424150E-1,-6.352811307E-2,-2.718270384E-2
2.999612872E0,8.970292211E-1,-6.368082762E-2,-2.596100792E-2
3.001961310E0,9.031376839E-1,-6.978929788E-2,-2.092151903E-2
3.004309799E0,9.016105533E-1,-7.941014320E-2,-1.603474095E-2
3.006658289E0,8.990144730E-1,-8.292251825E-2,-8.704573847E-3
3.009006778E0,8.904625773E-1,-6.933116168E-2,-2.596100792E-3
3.011355268E0,8.782456517E-1,-5.222744122E-2,8.093725890E-3
3.013703758E0,8.646543026E-1,-4.107947648E-2,2.275406010E-2
3.016052247E0,8.533536196E-1,-3.955236077E-2,3.497100621E-2
3.018400737E0,8.408312798E-1,-4.169032723E-2,4.581354558E-2
3.020749226E0,8.319739699E-1,-4.138490185E-2,5.925218388E-2
3.023097716E0,8.255600929E-1,-4.352286831E-2,7.269082218E-2
3.025446206E0,8.153283596E-1,-5.528167635E-2,7.895200700E-2
3.027794695E0,8.014315963E-1,-7.192726433E-2,8.261708915E-2
3.030143185E0,7.826480269E-1,-8.597674966E-2,8.887827396E-2
3.032491622E0,7.589777112E-1,-9.147437662E-2,9.239064902E-2
3.034840112E0,7.427902818E-1,-9.483403713E-2,1.009425074E-1
3.037188601E0,7.252284288E-1,-1.039967462E-1,1.082726792E-1
3.039537091E0,7.099572420E-1,-1.229330078E-1,1.133121699E-1
3.041885581E0,6.971294284E-1,-1.455343664E-1,1.207950488E-1
3.044234070E0,6.846070886E-1,-1.550024897E-1,1.269035190E-1
3.046582560E0,6.685723066E-1,-1.461452097E-1,1.330119967E-1
3.048931049E0,6.587987542E-1,-1.290414780E-1,1.377460510E-1
3.051279539E0,6.464291215E-1,-1.240019947E-1,1.449235082E-1
3.053628028E0,6.363501549E-1,-1.382041872E-1,1.499630064E-1
3.055976518E0,6.299362183E-1,-1.550024897E-1,1.450762302E-1
3.058325008E0,6.189410090E-1,-1.536280811E-1,1.401894391E-1
3.060673497E0,6.056550741E-1,-1.317902952E-1,1.327065676E-1
3.063021987E0,5.961869359E-1,-1.111742035E-1,1.227803007E-1
3.065370424E0,5.890094638E-1,-1.050657257E-1,1.177408099E-1
3.067718914E0,5.903838873E-1,-1.027750522E-1,1.067455560E-1
3.070067403E0,5.928272605E-1,-1.149920002E-1,9.223793447E-2
3.072415893E0,5.943543911E-1,-1.175880954E-1,7.513421029E-2
3.074764383E0,5.974085927E-1,-8.765657991E-2,6.261184067E-2
3.077112872E0,5.992411375E-1,-4.428642616E-2,5.864133686E-2
3.079461362E0,6.045860648E-1,-2.382304333E-2,5.971032009E-2
3.081809851E0,6.080984473E-1,-2.626643144E-2,6.948387623E-2
3.084158341E0,6.164975762E-1,-3.237490356E-2,8.063183725E-2
3.086506831E0,6.273401380E-1,-4.214845970E-2,9.177979827E-2
3.088855320E0,6.296308041E-1,-4.214845970E-2,1.027750522E-1
3.091203810E0,6.294780970E-1,-3.359659761E-2,1.209477559E-1
3.093552299E0,6.281036735E-1,-2.611372061E-2,1.404948682E-1
3.095900737E0,6.305471063E-1,-1.511846948E-2,1.612636745E-1
3.098249226E0,6.314633489E-1,-1.374406368E-2,1.869192570E-1
3.100597716E0,6.285618544E-1,-1.954711229E-2,2.089097649E-1
3.102946206E0,6.268820167E-1,-3.145863488E-2,2.322746664E-1
3.105294695E0,6.151232123E-1,-4.795150831E-2,2.554868758E-1
3.107643185E0,6.061131954E-1,-5.115845799E-2,2.786990702E-1
3.109991674E0,5.958815217E-1,-5.436540768E-2,3.032856584E-1
3.112340164E0,5.854970813E-1,-6.734590977E-2,3.191677034E-1
3.114688653E0,5.738909841E-1,-9.239064902E-2,3.254288733E-1
3.117037143E0,5.662553906E-1,-1.102579311E-1,3.316900730E-1
3.119385633E0,5.573981404E-1,-1.149920002E-1,3.316900730E-1
3.121734122E0,5.488462448E-1,-1.087308154E-1,3.327590525E-1
3.124082612E0,5.380037427E-1,-9.529217333E-2,3.303156495E-1
3.126431049E0,5.294518471E-1,-8.429691941E-2,3.277195692E-1
3.128779539E0,5.186093450E-1,-7.574506104E-2,3.251234591E-1
3.131128028E0,5.062396526E-1,-7.666133344E-2,3.239017725E-1
3.133476518E0,4.900522232E-1,-8.246438205E-2,3.214583695E-1
3.135825008E0,4.724903405E-1,-9.773556143E-2,3.214583695E-1
3.138173497E0,4.500417113E-1,-1.105633527E-1,3.191677034E-1
3.140521987E0,4.301891923E-1,-1.174353883E-1,3.167243004E-1
3.142870476E0,4.129327536E-1,-1.148392856E-1,3.129065037E-1
3.145218966E0,3.898732662E-1,-8.918370306E-2,3.077143133E-1
3.147567456E0,3.668137789E-1,-6.826218218E-2,3.014531136E-1
3.149915945E0,3.446705639E-1,-7.040014863E-2,2.929012477E-1
3.152264435E0,3.197785318E-1,-8.811471611E-2,2.770192325E-1
3.154612872E0,2.948864996E-1,-1.191152185E-1,2.576248348E-1
3.156961414E0,2.699944973E-1,-1.513374150E-1,2.345653474E-1
3.159309903E0,2.530434728E-1,-1.511846930E-1,2.124221325E-1
3.161658341E0,2.411319613E-1,-1.281252056E-1,1.939440072E-1
3.164006831E0,2.367033064E-1,-1.137702987E-1,1.803526580E-1
3.166355320E0,2.305948436E-1,-1.149920002E-1,1.693574041E-1
3.168703810E0,2.218902707E-1,-1.244601309E-1,1.656923145E-1
3.171052299E0,2.194468826E-1,-1.256818175E-1,1.608055383E-1
3.173400789E0,2.108950168E-1,-1.159082651E-1,1.559187621E-1
3.175749278E0,2.014268786E-1,-9.636115283E-2,1.545443535E-1
3.178097768E0,1.878355294E-1,-8.643488586E-2,1.617218107E-1
3.180446258E0,1.704263836E-1,-8.490777016E-2,1.690519750E-1
3.182794747E0,1.540862173E-1,-9.422318637E-2,1.739387512E-1
3.185143237E0,1.388150454E-1,-1.143811494E-1,1.800472289E-1
3.187491726E0,1.349972486E-1,-1.287360638E-1,1.801999360E-1
3.189840164E0,1.298050433E-1,-1.406475753E-1,1.840177327E-1
3.192188653E0,1.198787764E-1,-1.441599578E-1,1.827960461E-1
3.194537143E0,1.038440317E-1,-1.340809762E-1,1.863084137E-1
3.196885633E0,9.391776472E-2,-1.290414780E-1,1.947075576E-1
3.199234122E0,8.002099395E-2,-1.383569092E-1,2.058555335E-1
3.201582612E0,7.085828483E-2,-1.658450365E-1,2.170034945E-1
3.203931101E0,6.536065787E-2,-1.933331639E-1,2.244863659E-1
3.206279591E0,6.749862432E-2,-2.090624720E-1,2.283041626E-1
3.208628081E0,6.872031838E-2,-2.150182426E-1,2.331909388E-1
3.210976570E0,6.734590977E-2,-2.089097649E-1,2.417428046E-1
3.213325060E0,6.749862432E-2,-1.968455315E-1,2.489202619E-1
3.215673549E0,6.627693027E-2,-1.858502775E-1,2.623589039E-1
3.218022039E0,6.872031838E-2,-1.774511337E-1,2.733541429E-1
3.220370476E0,7.238540053E-2,-1.713426560E-1,2.817533016E-1
3.222718966E0,7.482878864E-2,-1.641651988E-1,2.903051674E-1
3.225067456E0,7.605048269E-2,-1.605001241E-1,2.939702570E-1
3.227415945E0,6.978929788E-2,-1.615691036E-1,2.976353168E-1
3.229764435E0,6.230641901E-2,-1.650814712E-1,2.988570333E-1
3.232112924E0,4.734066129E-2,-1.682884246E-1,3.013004065E-1
3.234461414E0,2.870982140E-2,-1.763821393E-1,3.037438095E-1
3.236809903E0,8.704573847E-3,-1.856975704E-1,3.074088693E-1
3.239158393E0,-1.878355257E-2,-2.008160353E-1,3.122956753E-1
3.241506883E0,-4.398100078E-2,-2.195995897E-1,3.185568452E-1
3.243855372E0,-7.146912813E-2,-2.382304370E-1,3.258870244E-1
3.246203862E0,-1.053711548E-1,-2.593046725E-1,3.333698809E-1
3.248552299E0,-1.365243644E-1,-2.730487287E-1,3.443651497E-1
3.250900789E0,-1.667613089E-1,-2.845021188E-1,3.529170156E-1
3.253249278E0,-1.953184158E-1,-2.935121059E-1,3.565820754E-1
3.255597768E0,-2.214321345E-1,-3.038965166E-1,3.565820754E-1
3.257946258E0,-2.426590770E-1,-3.191677034E-1,3.516952991E-1
3.260294747E0,-2.600682080E-1,-3.333698809E-1,3.394783735E-1
3.262643237E0,-2.698417902E-1,-3.417690396E-1,3.187095523E-1
3.264991726E0,-2.744231224E-1,-3.394783735E-1,2.967190444E-1
3.267340216E0,-2.753393948E-1,-3.348970115E-1,2.759502530E-1
3.269688706E0,-2.722851634E-1,-3.231382072E-1,2.452551723E-1
3.272037195E0,-2.641914487E-1,-3.089359999E-1,2.195995897E-1
3.274385685E0,-2.501419485E-1,-2.961082160E-1,1.950129867E-1
3.276734174E0,-2.385358512E-1,-2.953446507E-1,1.669140160E-1
3.279082664E0,-2.232646793E-1,-2.838912606E-1,1.388150454E-1
3.281431153E0,-2.040229887E-1,-2.675510943E-1,1.093416587E-1
3.283779591E0,-1.837123185E-1,-2.560977042E-1,8.246438205E-2
3.286128081E0,-1.634016484E-1,-2.469350100E-1,5.925218388E-2
3.288476570E0,-1.404948682E-1,-2.367033064E-1,3.603998944E-2
3.290825060E0,-1.191152185E-1,-2.276933193E-1,1.771457121E-2
3.293173549E0,-9.895725548E-2,-2.160872221E-1,4.123218823E-3
3.295522039E0,-7.895200700E-2,-2.020377368E-1,-4.428642802E-3
3.297870528E0,-5.986303091E-2,-1.832541823E-1,-1.435491070E-2
3.300219018E0,-4.718795046E-2,-1.606528312E-1,-1.679829881E-2
3.302567508E0,-3.573456407E-2,-1.391204596E-1,-1.450762246E-2
3.304915997E0,-3.069507517E-2,-1.198787764E-1,-7.330167107E-3
3.307264487E0,-2.443389036E-2,-1.102579311E-1,-2.443389036E-3
3.309612976E0,-2.550287358E-2,-9.697200358E-2,3.512371797E-3
3.311961466E0,-2.657185495E-2,-8.002099395E-2,1.313321572E-2
3.314309903E0,-3.161134571E-2,-6.902574003E-2,2.535016090E-2
3.316658393E0,-3.787253052E-2,-6.276455522E-2,3.741439432E-2
3.319006883E0,-4.413371533E-2,-6.261184067E-2,4.963133857E-2
3.321355372E0,-5.543438718E-2,-6.474980712E-2,6.184828654E-2
3.323703862E0,-6.429167092E-2,-6.322269142E-2,7.773031294E-2
3.326052351E0,-7.559234649E-2,-5.925218388E-2,9.239064902E-2
3.328400841E0,-8.444963396E-2,-5.543438718E-2,1.093416587E-1
3.330749331E0,-8.948912472E-2,-4.795150831E-2,1.240019947E-1
3.333097820E0,-9.559759498E-2,-2.962609194E-2,1.385096163E-1
3.335446310E0,-9.926267713E-2,-1.618745178E-2,1.530172378E-1
3.337794799E0,-1.018587798E-1,-8.857285604E-3,1.676775664E-1
3.340143289E0,-1.006370857E-1,2.137965523E-3,1.835595965E-1
3.342491778E0,-9.956810623E-2,9.468132630E-3,2.005106062E-1
3.344840216E0,-9.605573118E-2,1.557660475E-2,2.188360244E-1
3.347188706E0,-9.239064902E-2,3.130592033E-2,2.371614426E-1
3.349537195E0,-8.506047726E-2,4.703523964E-2,2.638860047E-1
3.351885685E0,-7.162184268E-2,5.543438718E-2,2.919849753E-1
3.354234174E0,-5.467082933E-2,5.650337040E-2,3.188622594E-1
3.356582664E0,-3.894151375E-2,6.368082762E-2,3.469612300E-1
3.358931153E0,-2.764083818E-2,9.972081333E-2,3.761292100E-1
3.361279643E0,-2.764083818E-2,1.264453828E-1,4.028537571E-1
3.363628133E0,-2.901524492E-2,1.400367320E-1,4.320217371E-1
3.365976622E0,-2.825168520E-2,1.365243644E-1,4.590517282E-1
3.368325112E0,-2.504473738E-2,1.246128380E-1,4.859289825E-1
3.370673601E0,-2.580829710E-2,1.020114943E-1,5.141806602E-1
3.373022091E0,-3.283303976E-2,6.139015034E-2,5.376983285E-1
3.375370528E0,-4.092676565E-2,2.672456764E-2,5.514423847E-1
3.377719018E0,-5.131116882E-2,-1.985253533E-3,5.577035546E-1
3.380067508E0,-6.398624927E-2,-1.740914769E-2,5.578562617E-1
3.382415997E0,-7.650861889E-2,-2.565558441E-2,5.578562617E-1
3.384764487E0,-8.628217876E-2,-2.305948362E-2,5.577035546E-1
3.387112976E0,-9.620844573E-2,-2.519745007E-2,5.564818382E-1
3.389461466E0,-1.000262350E-1,-3.252761811E-2,5.517477989E-1
3.391809956E0,-1.049130186E-1,-4.092676565E-2,5.407525301E-1
3.394158445E0,-1.120904684E-1,-4.337015375E-2,5.199837089E-1
3.396506935E0,-1.252236813E-1,-2.764083818E-2,4.966188073E-1
3.398855424E0,-1.539335102E-1,1.863084175E-2,4.766135812E-1
3.401203914E0,-1.899735034E-1,8.170082420E-2,4.576773047E-1
3.403552403E0,-2.286095917E-1,1.316375881E-1,4.401154518E-1
3.405900893E0,-2.611372173E-1,1.658450365E-1,4.153761268E-1
3.408249331E0,-2.858765125E-1,2.263189107E-1,3.878880143E-1
3.410597820E0,-3.017585576E-1,2.974826097E-1,3.603998721E-1
3.412946310E0,-3.066453338E-1,3.611634374E-1,3.318427801E-1
3.415294799E0,-3.028275371E-1,4.271349311E-1,3.020639718E-1
3.417643289E0,-2.954973578E-1,4.821111858E-1,2.759502530E-1
3.419991778E0,-2.811424434E-1,5.106683373E-1,2.501419485E-1
3.422340268E0,-2.655658424E-1,5.331169367E-1,2.255553454E-1
3.424675685E0,-2.480039895E-1,5.349494815E-1,2.047865391E-1
3.427037247E0,-2.344126403E-1,5.152496696E-1,1.841704547E-1
3.429385737E0,-2.208212912E-1,5.004366040E-1,1.684411317E-1
3.431721101E0,-2.023431510E-1,4.747810364E-1,1.528645307E-1
3.434082664E0,-1.869192570E-1,4.213318825E-1,1.398840249E-1
3.436431206E0,-1.701209545E-1,3.752129376E-1,1.316375881E-1
3.438766570E0,-1.543916464E-1,3.387148082E-1,1.270562261E-1
3.441128133E0,-1.353026628E-1,2.950392365E-1,1.287360638E-1
3.443476622E0,-1.140757278E-1,2.235700935E-1,1.365243644E-1
3.445825112E0,-9.804098308E-2,1.317902952E-1,1.324011385E-1
3.448173601E0,-8.307522535E-2,5.558710173E-2,1.244601309E-1
3.450522091E0,-6.642963737E-2,-3.054236295E-4,1.139230132E-1
3.452870581E0,-4.840964451E-2,-5.253286287E-2,9.849911928E-2
3.455219070E0,-3.420744836E-2,-1.178935245E-1,7.941014320E-2
3.457567560E0,-1.985253580E-2,-1.737860441E-1,5.787777901E-2
3.459916049E0,4.581354558E-3,-2.092151791E-1,4.107947648E-2
3.462264539E0,2.794626169E-2,-2.255553454E-1,2.779355086E-2
3.464613028E0,4.779879749E-2,-2.258607745E-1,2.305948362E-2
3.466961466E0,6.872031838E-2,-2.371614426E-1,1.817270555E-2
3.469309956E0,8.826743066E-2,-2.580829561E-1,1.359135192E-2
3.471658445E0,1.079672500E-1,-2.776300907E-1,7.635590620E-3
3.474006935E0,1.224748790E-1,-2.948864996E-1,4.123218823E-3
3.476355424E0,1.272089481E-1,-3.226800561E-1,-2.901524538E-3
3.478703914E0,1.270562261E-1,-3.347443044E-1,-6.566607859E-3
3.481052403E0,1.294996142E-1,-3.300102353E-1,-4.123218823E-3
3.483400893E0,1.296523362E-1,-3.239017725E-1,-4.581354442E-4
3.485749383E0,1.220167428E-1,-3.237490356E-1,1.053711493E-2
3.488097872E0,1.133121699E-1,-3.185568452E-1,2.382304333E-2
3.490446362E0,1.033858955E-1,-3.086305857E-1,3.848337755E-2
3.492794851E0,8.704573661E-2,-3.106158376E-1,5.421269313E-2
3.495143341E0,7.330167294E-2,-2.958027720E-1,7.375980914E-2
3.497491778E0,6.872031838E-2,-2.557922900E-1,9.666658193E-2
3.499840268E0,7.253811508E-2,-2.232646793E-1,1.183516532E-1
3.502188758E0,7.498150319E-2,-2.050919682E-1,1.391204596E-1
3.504537247E0,7.971556485E-2,-1.977618039E-1,1.609582454E-1
3.506885737E0,8.551861346E-2,-2.037175596E-1,1.843231618E-1
3.509234226E0,9.620844573E-2,-2.217375487E-1,2.040229887E-1
3.511582716E0,1.043021679E-1,-2.423536479E-1,2.212794125E-1
3.513931206E0,1.188097894E-1,-2.509055138E-1,2.373141646E-1
3.516279695E0,1.322484314E-1,-2.522799075E-1,2.495311052E-1
3.518628185E0,1.495048702E-1,-2.403683960E-1,2.605263591E-1
3.520976674E0,1.695101112E-1,-2.263189107E-1,2.702999115E-1
3.523325164E0,1.869192570E-1,-2.133384049E-1,2.702999115E-1
3.525673653E0,2.069245130E-1,-2.089097649E-1,2.666348219E-1
3.528022091E0,2.279987335E-1,-2.069245130E-1,2.568612695E-1
3.530370581E0,2.492256761E-1,-2.014268786E-1,2.470877171E-1
3.532719070E0,2.667875290E-1,-1.982199401E-1,2.373141646E-1
3.535067560E0,2.866400778E-1,-1.998997629E-1,2.289150059E-1
3.537416049E0,3.016058207E-1,-2.012741715E-1,2.240282297E-1
3.539764539E0,3.164188862E-1,-2.040229887E-1,2.203631550E-1
3.542113028E0,3.287885487E-1,-2.053973973E-1,2.229592502E-1
3.544461518E0,3.410054743E-1,-2.069245130E-1,2.266243398E-1
3.546810008E0,3.530697227E-1,-2.166980654E-1,2.365505993E-1
3.549158497E0,3.639122546E-1,-2.336490750E-1,2.440334857E-1
3.551506987E0,3.721587062E-1,-2.553341687E-1,2.551814318E-1
3.553855476E0,3.741439581E-1,-2.782409191E-1,2.651077211E-1
3.556203966E0,3.686463237E-1,-3.069507480E-1,2.701472044E-1
3.558552403E0,3.594835997E-1,-3.381039500E-1,2.728960216E-1
3.560900893E0,3.504736125E-1,-3.681881726E-1,2.706053257E-1
3.563249383E0,3.414636254E-1,-3.956763148E-1,2.658712566E-1
3.565597872E0,3.350497186E-1,-4.196520746E-1,2.574721277E-1
3.567946362E0,3.338280320E-1,-4.330907166E-1,2.441861928E-1
3.570294851E0,3.364241421E-1,-4.332434237E-1,2.344126403E-1
3.572643341E0,3.475720882E-1,-4.382829070E-1,2.209739983E-1
3.574991831E0,3.561239541E-1,-4.602734149E-1,2.052446753E-1
3.577340320E0,3.549022675E-1,-4.784461260E-1,1.858502775E-1
3.579688810E0,3.578037918E-1,-4.642439187E-1,1.673721522E-1
3.582037299E0,3.582619131E-1,-4.631749392E-1,1.429382563E-1
3.584385737E0,3.574983478E-1,-4.465293586E-1,1.171299592E-1
3.586734278E0,3.587200642E-1,-3.924693763E-1,9.483403713E-2
3.589082716E0,3.622324169E-1,-3.324536085E-1,7.605048269E-2
3.591431206E0,3.756710589E-1,-2.774773538E-1,5.848862603E-2
3.593779695E0,3.877353072E-1,-2.247917950E-1,4.230117425E-2
3.596128185E0,3.961344361E-1,-1.721062213E-1,3.084778599E-2
3.598476674E0,3.994941115E-1,-1.178935245E-1,2.687728032E-2
3.600825164E0,3.988832533E-1,-6.368082762E-2,3.497100621E-2
3.603173653E0,3.796415627E-1,-2.718270384E-2,3.710897267E-2
3.605522143E0,3.428380191E-1,-5.955760833E-3,3.695625812E-2
3.607870633E0,2.898470163E-1,5.803049076E-3,3.542914242E-2
3.610219122E0,2.171562016E-1,1.786728203E-2,2.412846684E-2
3.612567612E0,1.349972486E-1,4.947862774E-2,7.788302377E-3
3.614916049E0,4.902049154E-2,6.887302548E-2,-1.710372418E-2
3.617264539E0,-3.695625812E-2,7.864658535E-2,-5.405998230E-2
3.619613028E0,-1.113269106E-1,1.279724985E-1,-8.521319181E-2
3.621961518E0,-1.753131598E-1,2.131856978E-1,-1.226275861E-1
3.624310008E0,-2.279987335E-1,2.896943092E-1,-1.649287641E-1
3.626658497E0,-2.748812735E-1,3.420744538E-1,-2.119639963E-1
3.628993914E0,-3.168770075E-1,3.845283389E-1,-2.637332976E-1
3.631355476E0,-3.574983478E-1,4.306473136E-1,-3.167243004E-1
3.633703966E0,-3.920112252E-1,4.802786708E-1,-3.672719002E-1
3.636039383E0,-4.277457893E-1,5.263976455E-1,-4.178195298E-1
3.638400945E0,-4.587462842E-1,5.639647245E-1,-4.610369802E-1
3.640749435E0,-4.865398407E-1,5.859552622E-1,-4.929537475E-1
3.643084799E0,-5.060869455E-1,5.873296261E-1,-5.065450668E-1
3.645446414E0,-5.196782947E-1,5.876350403E-1,-5.028799772E-1
3.647794851E0,-5.267030597E-1,5.529694557E-1,-4.842491746E-1
3.650130268E0,-5.263976455E-1,5.121954083E-1,-4.558447599E-1
3.652491831E0,-5.089884996E-1,4.724903405E-1,-4.164451063E-1
3.654840320E0,-4.761554301E-1,3.939964771E-1,-3.655920923E-1
3.657175737E0,-4.399627447E-1,3.009949923E-1,-3.110739589E-1
3.659537299E0,-3.985778391E-1,2.296785712E-1,-2.420482337E-1
3.661885789E0,-3.400892019E-1,1.556133330E-1,-1.655396074E-1
3.664221206E0,-2.745758295E-1,5.635065958E-2,-8.628217876E-2
3.666582768E0,-2.079934925E-1,-7.085828483E-2,-1.924168877E-2
3.668931258E0,-1.386623234E-1,-1.885990947E-1,3.558185324E-2
3.671279747E0,-7.284353673E-2,-2.991624475E-1,8.063183725E-2
3.673628237E0,-1.527118124E-2,-3.877353072E-1,1.194206402E-1
3.675976674E0,3.527642787E-2,-4.595098495E-1,1.493521482E-1
3.678312091E0,7.620319724E-2,-5.192201734E-1,1.682884246E-1
3.680673653E0,1.088835225E-1,-5.570927262E-1,1.808107942E-1
3.683022143E0,1.455343664E-1,-5.793886185E-1,1.908897758E-1
3.685357560E0,1.736333370E-1,-6.015318632E-1,1.924168915E-1
3.687719122E0,1.956238300E-1,-6.261184216E-1,1.889045089E-1
3.690067612E0,2.090624720E-1,-6.456655264E-1,1.792836636E-1
3.692403028E0,2.163926363E-1,-6.603258848E-1,1.647760421E-1
3.694764591E0,2.228065431E-1,-6.641436815E-1,1.464506239E-1
3.697113081E0,2.258607745E-1,-6.499415040E-1,1.220167428E-1
3.699448445E0,2.279987335E-1,-6.164975762E-1,9.361234307E-2
3.701810060E0,2.353289127E-1,-5.639647245E-1,6.139015034E-2
3.704158549E0,2.429644912E-1,-4.992149174E-1,2.550287358E-2
3.706493914E0,2.556395829E-1,-4.286620617E-1,-1.282779220E-2
3.708855476E0,2.732014358E-1,-3.668137789E-1,-5.482354015E-2
3.711203966E0,2.919849753E-1,-3.035911024E-1,-9.926267713E-2
3.713552456E0,3.132119179E-1,-2.452551723E-1,-1.411057115E-1
3.715900945E0,3.342861533E-1,-2.038702667E-1,-1.817270666E-1
3.718249435E0,3.524588645E-1,-1.707318127E-1,-2.136438340E-1
3.720597924E0,3.718532622E-1,-1.447708011E-1,-2.455606014E-1
3.722946414E0,3.860554695E-1,-1.235438585E-1,-2.640387416E-1
3.725294903E0,3.975088596E-1,-1.142284349E-1,-2.800734639E-1
3.727643393E0,4.039227366E-1,-1.059819981E-1,-2.849602401E-1
3.729991883E0,4.126273096E-1,-9.636115283E-2,-2.849602401E-1
3.732340372E0,4.211791754E-1,-9.407047927E-2,-2.739650011E-1
3.734675737E0,4.208737612E-1,-1.084253863E-1,-2.640387416E-1
3.737037351E0,4.103366435E-1,-1.371352077E-1,-2.480039895E-1
3.739385789E0,3.999522328E-1,-1.548497826E-1,-2.307475507E-1
3.741734278E0,3.895678520E-1,-1.676775664E-1,-2.112004459E-1
3.744082768E0,3.755183518E-1,-1.890572309E-1,-1.963873953E-1
3.746431258E0,3.500154912E-1,-2.257080674E-1,-1.803526580E-1
3.748779747E0,3.206948042E-1,-2.635805905E-1,-1.641651988E-1
3.751128237E0,2.866400778E-1,-2.965663373E-1,-1.456870735E-1
3.753476726E0,2.512109280E-1,-3.307738006E-1,-1.272089481E-1
3.755825216E0,2.046338320E-1,-3.707842827E-1,-1.123958975E-1
3.758173706E0,1.580567211E-1,-4.179722369E-1,-9.880454093E-2
3.760522195E0,1.078145429E-1,-4.590517282E-1,-8.643488586E-2
3.762870633E0,5.253286287E-2,-5.001311898E-1,-7.895200700E-2
3.765219174E0,-6.261184346E-3,-5.387672782E-1,-7.024743408E-2
3.767567612E0,-6.856760383E-2,-5.749599934E-1,-6.887302548E-2
3.769916101E0,-1.320957243E-1,-6.062659025E-1,-7.009471953E-2
3.772264591E0,-2.018850148E-1,-6.279509664E-1,-7.620319724E-2
3.774613081E0,-2.699944973E-1,-6.520794630E-1,-8.964183182E-2
3.776961570E0,-3.370349705E-1,-6.762079000E-1,-1.043021679E-1
3.779310060E0,-4.025483429E-1,-6.956022978E-1,-1.227803007E-1
3.781658549E0,-4.666872919E-1,-7.018635273E-1,-1.437018216E-1
3.784007039E0,-5.245651007E-1,-6.948387623E-1,-1.634016484E-1
3.786355528E0,-5.711421967E-1,-6.833853722E-1,-1.820324808E-1
3.788704018E0,-6.051968932E-1,-6.635328531E-1,-1.992889196E-1
3.791052508E0,-6.267293096E-1,-6.271874309E-1,-2.144073844E-1
3.793400997E0,-6.369609833E-1,-5.789304972E-1,-2.293731421E-1
3.795749435E0,-6.384881139E-1,-5.224271417E-1,-2.457133085E-1
3.798097924E0,-6.322268844E-1,-4.466820657E-1,-2.620534599E-1
3.800446414E0,-6.181774139E-1,-3.544441164E-1,-2.848075330E-1
3.802794903E0,-5.978667736E-1,-2.550287247E-1,-3.025220931E-1
3.805143393E0,-5.665608048E-1,-1.605001241E-1,-3.190149665E-1
3.807491883E0,-5.341859460E-1,-7.574506104E-2,-3.355078697E-1
3.809840372E0,-4.946335554E-1,-6.108472589E-4,-3.469612300E-1
3.812188862E0,-4.599680007E-1,6.490252167E-2,-3.607053161E-1
3.814537351E0,-4.219427407E-1,1.169772521E-1,-3.744493723E-1
3.816885841E0,-3.842229247E-1,1.536280811E-1,-3.794888556E-1
3.819234331E0,-3.516952991E-1,1.747023165E-1,-3.845283389E-1
3.821582820E0,-3.229855001E-1,1.861557066E-1,-3.918585181E-1
3.823931310E0,-2.958027720E-1,1.759240031E-1,-3.965925872E-1
3.826279747E0,-2.751866877E-1,1.406475753E-1,-4.023956358E-1
3.828628237E0,-2.597627938E-1,8.964183182E-2,-4.153761268E-1
3.830976726E0,-2.480039895E-1,2.672456764E-2,-4.344651103E-1
3.833325216E0,-2.426590770E-1,-4.703523964E-2,-4.509579837E-1
3.835673706E0,-2.362451702E-1,-1.365243644E-1,-4.784461260E-1
3.838022195E0,-2.348707765E-1,-2.354816198E-1,-5.070032477E-1
3.840370685E0,-2.260134816E-1,-3.419217467E-1,-5.441122055E-1
3.842719174E0,-2.133384049E-1,-4.472928941E-1,-5.824428797E-1
3.845067664E0,-2.044811249E-1,-5.451811552E-1,-6.122216582E-1
3.847416153E0,-1.933331639E-1,-6.516213417E-1,-6.432221532E-1
3.849764643E0,-1.809635013E-1,-7.664605975E-1,-6.693359017E-1
3.852113133E0,-1.601946950E-1,-8.947384953E-1,-6.975875497E-1
3.854461570E0,-1.403421611E-1,-1.000109673E0,-7.163711190E-1
3.856810060E0,-1.226275861E-1,-1.067913771E0,-7.267554998E-1
3.859158549E0,-9.590301663E-2,-1.118003249E0,-7.421793938E-1
3.861507039E0,-6.169557199E-2,-1.159540772E0,-7.540909648E-1
3.863855528E0,-2.214321308E-2,-1.171299577E0,-7.649334669E-1
3.866204018E0,1.557660475E-2,-1.125027895E0,-7.687512636E-1
3.868539435E0,6.352811307E-2,-1.062110662E0,-7.678350210E-1
3.870900997E0,1.065928489E-1,-9.941539168E-1,-7.609629631E-1
3.873249487E0,1.469087601E-1,-9.237537384E-1,-7.466080785E-1
3.875584903E0,1.885990947E-1,-8.580876589E-1,-7.324058414E-1
3.877946466E0,2.312056869E-1,-8.058602214E-1,-7.166765332E-1
3.880294956E0,2.675510943E-1,-7.496622801E-1,-6.974348426E-1
3.882630320E0,3.064926267E-1,-6.972821355E-1,-6.781931520E-1
3.884991883E0,3.379512429E-1,-6.447492838E-1,-6.613948941E-1
3.887340372E0,3.718532622E-1,-5.862606764E-1,-6.397097707E-1
3.889675789E0,4.025483429E-1,-4.961606860E-1,-6.146650314E-1
3.892037351E0,4.246915579E-1,-3.988832533E-1,-5.847335458E-1
3.894385841E0,4.462239146E-1,-3.352024257E-1,-5.569399595E-1
3.896721258E0,4.538595080E-1,-2.941229641E-1,-5.254813433E-1
3.899082820E0,4.405735731E-1,-2.394521236E-1,-4.953971207E-1
3.901431310E0,4.114056230E-1,-1.760767251E-1,-4.653128982E-1
3.903766726E0,3.674246371E-1,-1.111742035E-1,-4.329380095E-1
3.906128289E0,3.072561622E-1,-4.596625641E-2,-3.993414044E-1
3.908476778E0,2.408265322E-1,3.665083554E-3,-3.704788685E-1
3.910812143E0,1.681357026E-1,4.611896724E-2,-3.454341292E-1
3.913173706E0,9.529217333E-2,7.773031294E-2,-3.214583695E-1
3.915522195E0,2.962609194E-2,9.239064902E-2,-3.032856584E-1
3.917870685E0,-2.733541466E-2,1.007898003E-1,-2.816005945E-1
3.920219174E0,-7.711946964E-2,1.018587798E-1,-2.683146596E-1
3.922567664E0,-1.156028435E-1,9.422318637E-2,-2.573194206E-1
3.924903081E0,-1.408002973E-1,7.910472155E-2,-2.475458533E-1
3.927264643E0,-1.597365588E-1,6.994201243E-2,-2.377723008E-1
3.929613133E0,-1.696628332E-1,7.620319724E-2,-2.304421216E-1
3.931961622E0,-1.670667231E-1,8.933641016E-2,-2.220429778E-1
3.934310112E0,-1.595838517E-1,1.050657257E-1,-2.110477239E-1
3.936658601E0,-1.470614821E-1,1.084253863E-1,-2.098260373E-1
3.938993966E0,-1.322484314E-1,1.009425074E-1,-2.121167034E-1
3.941355581E0,-1.139230132E-1,8.490777016E-2,-2.095206082E-1
3.943704018E0,-9.330692142E-2,6.291726977E-2,-2.020377368E-1
3.946039435E0,-7.406523079E-2,3.008422814E-2,-2.005106062E-1
3.948400997E0,-4.749337584E-2,-1.985253580E-2,-2.024958730E-1
3.950749487E0,-1.985253580E-2,-7.711946964E-2,-2.130329758E-1
3.953097976E0,-7.482878864E-3,-8.460234851E-2,-2.177670449E-1
3.955446466E0,-5.803049076E-3,-6.047387794E-2,-2.191414535E-1
3.957794956E0,-5.497625098E-3,-4.367557913E-2,-2.229592502E-1
3.960143445E0,-7.635590737E-4,-5.696150661E-2,-2.215848416E-1
3.962491935E0,9.773556143E-3,-9.575030953E-2,-2.249445021E-1
3.964840424E0,2.275406010E-2,-1.478250325E-1,-2.344126403E-1
3.967188914E0,3.344388679E-2,-1.829487532E-1,-2.365505993E-1
3.969537403E0,4.321744293E-2,-1.916533262E-1,-2.388412803E-1
3.971885841E0,4.825693369E-2,-1.856975704E-1,-2.400629669E-1
3.974234331E0,5.451811850E-2,-1.846285909E-1,-2.425063550E-1
3.976582820E0,6.169557199E-2,-1.944021434E-1,-2.412846684E-1
3.978931310E0,7.375980914E-2,-2.199050188E-1,-2.385358512E-1
3.981279799E0,8.826743066E-2,-2.333436459E-1,-2.334963679E-1
3.983628289E0,9.468132257E-2,-2.118112892E-1,-2.238755226E-1
3.985976778E0,9.483403713E-2,-1.985253543E-1,-2.179197669E-1
3.988325268E0,9.468132257E-2,-2.044811249E-1,-2.142546773E-1
3.990673758E0,9.055810422E-2,-2.247917950E-1,-2.128802687E-1
3.993022247E0,8.521319181E-2,-2.536543310E-1,-2.125748396E-1
3.995370737E0,7.620319724E-2,-2.860292196E-1,-2.160872221E-1
3.997719226E0,6.352811307E-2,-3.075616062E-1,-2.208212912E-1
4.000067716E0,5.115845799E-2,-3.206948042E-1,-2.318165302E-1
4.002416153E0,4.153761268E-2,-3.168770075E-1,-2.464768738E-1
4.004764643E0,3.695625812E-2,-3.025220931E-1,-2.637332976E-1
4.007113133E0,3.390202299E-2,-2.736595869E-1,-2.848075330E-1
4.009461622E0,3.481829539E-2,-2.353289127E-1,-3.009949923E-1
4.011810112E0,3.542914242E-2,-1.980672181E-1,-3.158080280E-1
4.014158601E0,4.123219103E-2,-1.634016484E-1,-3.344388604E-1
4.016507091E0,4.443913698E-2,-1.287360638E-1,-3.518480062E-1
4.018855581E0,5.008947477E-2,-9.636115283E-2,-3.678827584E-1
4.021204070E0,5.955760926E-2,-6.062658876E-2,-3.865135908E-1
4.023552560E0,7.513421029E-2,-2.122694254E-2,-4.025483429E-1
4.025901049E0,8.948912472E-2,1.817270555E-2,-4.175141156E-1
4.028249487E0,1.014006436E-1,5.879404768E-2,-4.324798584E-1
4.030597976E0,1.145338640E-1,8.857285231E-2,-4.472928941E-1
4.032946466E0,1.259872466E-1,1.062874198E-1,-4.584408700E-1
4.035294956E0,1.336228400E-1,1.157555580E-1,-4.633276463E-1
4.037643445E0,1.398840249E-1,1.168245375E-1,-4.718795121E-1
4.039991935E0,1.412584335E-1,1.119377613E-1,-4.779879749E-1
4.042340424E0,1.409530044E-1,1.023169160E-1,-4.680617154E-1
4.044675841E0,1.429382563E-1,8.185353130E-2,-4.556920528E-1
4.047037403E0,1.400367320E-1,7.498150319E-2,-4.312581718E-1
4.049385893E0,1.308740228E-1,6.566607952E-2,-4.056025743E-1
4.051721258E0,1.288887709E-1,4.657710344E-2,-3.749074936E-1
4.054082872E0,1.255291104E-1,2.046338283E-2,-3.330644667E-1
4.056431362E0,1.308740228E-1,7.482878864E-3,-2.828222811E-1
4.058766726E0,1.349972486E-1,-4.275931045E-3,-2.376195788E-1
4.061128289E0,1.133121699E-1,-1.068982761E-3,-1.850867122E-1
4.063476778E0,1.127013192E-1,1.679830020E-3,-1.398840249E-1
4.065825268E0,9.758284688E-2,2.046338283E-2,-9.605573118E-2
4.068173758E0,7.482878864E-2,2.351761982E-2,-5.818320066E-2
4.070522247E0,5.696150661E-2,1.328592747E-2,-2.764083818E-2
4.072870737E0,2.443389036E-2,1.282779220E-2,1.679830020E-3
4.075219226E0,1.145338640E-2,-2.290677279E-3,2.733541466E-2
4.077567716E0,-8.857285604E-3,-1.023169141E-2,5.176930502E-2
4.079916206E0,-2.168507688E-2,-3.512371704E-2,6.413896382E-2
4.082264695E0,-3.558185324E-2,-4.566083103E-2,7.773031294E-2
4.084613185E0,-4.596625641E-2,-6.352811307E-2,8.506047726E-2
4.086961674E0,-4.489727318E-2,-8.032641560E-2,8.399149776E-2
4.089310112E0,-4.398100078E-2,-1.009425074E-1,8.292251825E-2
4.091658601E0,-3.542914242E-2,-1.227803007E-1,7.085828483E-2
4.093994018E0,-2.932066843E-2,-1.447708011E-1,5.757235363E-2
4.096355581E0,-3.558185324E-2,-1.591257155E-1,4.428642616E-2
4.098704070E0,-2.321219631E-2,-1.739387512E-1,2.611372061E-2
4.101052560E0,-1.695101149E-2,-1.873773932E-1,1.023169141E-2
4.103401049E0,-1.206423342E-2,-1.960819662E-1,-6.108472589E-4
4.105749539E0,-4.428642802E-3,-1.890572309E-1,-7.941014133E-3
4.108098028E0,1.053711493E-2,-1.844758689E-1,-1.282779220E-2
4.110446518E0,1.939439960E-2,-1.762294322E-1,-1.786728203E-2
4.112795008E0,3.436015919E-2,-1.705790907E-1,-2.153236605E-2
4.115143497E0,4.581354558E-2,-1.600419879E-1,-2.764083818E-2
4.117491987E0,5.085303262E-2,-1.516428292E-1,-2.764083818E-2
4.119840424E0,6.093201414E-2,-1.421747059E-1,-2.886253223E-2
4.122188914E0,6.826218218E-2,-1.386623234E-1,-2.519745007E-2
4.124537403E0,6.810946763E-2,-1.398840249E-1,-1.664558798E-2
4.126885893E0,6.810946763E-2,-1.362189353E-1,-8.246437646E-3
4.129234383E0,6.306997687E-2,-1.324011385E-1,7.635590620E-3
4.131582872E0,5.803048983E-2,-1.249182671E-1,2.351761982E-2
4.133931362E0,4.917320609E-2,-1.186570823E-1,3.558185324E-2
4.136279851E0,3.680354729E-2,-1.110214889E-1,5.146388337E-2
4.138628341E0,3.054236248E-2,-1.024696305E-1,6.230641901E-2
4.140976831E0,1.817270555E-2,-9.361234307E-2,7.330167294E-2
4.143325320E0,4.581354558E-3,-8.124268800E-2,8.536590636E-2
4.145673758E0,-1.404948719E-2,-7.116370648E-2,9.743013978E-2
4.148022247E0,-2.779355086E-2,-7.085828483E-2,1.084253863E-1
4.150370737E0,-4.291202128E-2,-7.895200700E-2,1.194206402E-1
4.152719226E0,-6.276455522E-2,-8.582404256E-2,1.206423342E-1
4.155067716E0,-7.788302749E-2,-9.758284688E-2,1.218640283E-1
4.157416206E0,-1.003316641E-1,-1.128540337E-1,1.195733473E-1
4.159764695E0,-1.252236813E-1,-1.279724985E-1,1.159082651E-1
4.162113185E0,-1.577513069E-1,-1.455343664E-1,1.146865711E-1
4.164461674E0,-1.939440072E-1,-1.617218107E-1,1.159082651E-1
4.166810164E0,-2.289150059E-1,-1.899735034E-1,1.136175916E-1
4.169158653E0,-2.589992285E-1,-2.195995897E-1,1.149920002E-1
4.171507143E0,-2.867927849E-1,-2.551814318E-1,1.175880954E-1
4.173855581E0,-3.072561622E-1,-2.909159958E-1,1.226275861E-1
4.176204070E0,-3.239017725E-1,-3.229855001E-1,1.302631795E-1
4.178552560E0,-3.344388604E-1,-3.552076817E-1,1.401894391E-1
4.180901049E0,-3.448232710E-1,-3.826957941E-1,1.501157135E-1
4.183249539E0,-3.490992188E-1,-4.089622498E-1,1.626380831E-1
4.185598028E0,-3.545968235E-1,-4.341596961E-1,1.762294322E-1
4.187946518E0,-3.588727713E-1,-4.592044353E-1,1.947075576E-1
4.190295008E0,-3.643703759E-1,-4.758500159E-1,2.119639963E-1
4.192643497E0,-3.707842827E-1,-4.792096615E-1,2.254026383E-1
4.194991987E0,-3.709369898E-1,-4.790569544E-1,2.449497581E-1
4.197340476E0,-3.736858070E-1,-4.727957845E-1,2.644968629E-1
4.199688966E0,-3.762819171E-1,-4.630222321E-1,2.887780368E-1
4.202037403E0,-3.790307343E-1,-4.579827189E-1,3.107685447E-1
4.204385893E0,-3.767400384E-1,-4.506525695E-1,3.315373361E-1
4.206734383E0,-3.828485310E-1,-4.358395338E-1,3.484883606E-1
4.209082872E0,-3.915531039E-1,-4.138490260E-1,3.666610718E-1
4.211431362E0,-4.002576768E-1,-4.039227366E-1,3.836120665E-1
4.213779851E0,-4.127800465E-1,-3.988832533E-1,3.970507085E-1
4.216128341E0,-4.240806997E-1,-4.010212123E-1,4.092676640E-1
4.218476831E0,-4.317162931E-1,-4.068242610E-1,4.178195298E-1
4.220825320E0,-4.416425824E-1,-4.114056230E-1,4.202629030E-1
4.223173810E0,-4.468347728E-1,-4.196520746E-1,4.263713956E-1
4.225522299E0,-4.544703662E-1,-4.327852726E-1,4.326325655E-1
4.227870789E0,-4.622586668E-1,-4.433223903E-1,4.399627447E-1
4.230219278E0,-4.671454430E-1,-4.433223903E-1,4.388937652E-1
4.232567768E0,-4.656183124E-1,-4.277457893E-1,4.326325655E-1
4.234916206E0,-4.637857676E-1,-4.001049399E-1,4.190412164E-1
4.237264695E0,-4.566083252E-1,-3.570402265E-1,3.979669809E-1
4.239613185E0,-4.504998624E-1,-2.983988822E-1,3.694098890E-1
4.241948601E0,-4.500417113E-1,-2.191414535E-1,3.358132839E-1
4.244310164E0,-4.618005157E-1,-1.264453828E-1,2.983988822E-1
4.246658653E0,-4.796678126E-1,-3.252761811E-2,2.536543310E-1
4.248994070E0,-4.964661002E-1,4.703523964E-2,2.137965411E-1
4.251355633E0,-5.125008225E-1,1.096470803E-1,1.791309565E-1
4.253704122E0,-5.326588154E-1,1.435490996E-1,1.568350345E-1
4.256052612E0,-5.543438792E-1,1.679829955E-1,1.430909634E-1
4.258401101E0,-5.661026835E-1,1.957765520E-1,1.220167428E-1
4.260749539E0,-5.639647245E-1,2.389939874E-1,1.082726792E-1
4.263098028E0,-5.471664071E-1,2.855710983E-1,1.030804738E-1
4.265446518E0,-5.218162537E-1,3.333698809E-1,1.101052165E-1
4.267795008E0,-4.990622103E-1,3.848337829E-1,1.307213157E-1
4.270130424E0,-4.679090083E-1,4.193466306E-1,1.525591016E-1
4.272491987E0,-4.382829070E-1,4.456130862E-1,1.792836636E-1
4.274840476E0,-3.936910629E-1,4.689779878E-1,2.061609477E-1
4.277175893E0,-3.579564989E-1,4.877615273E-1,2.344126403E-1
4.279537456E0,-3.261924386E-1,4.815003574E-1,2.614426315E-1
4.281885945E0,-3.025220931E-1,4.427115619E-1,2.910687327E-1
4.284234435E0,-2.892361879E-1,3.582619131E-1,3.161134422E-1
4.286582872E0,-2.744231224E-1,2.858765125E-1,3.411581814E-1
4.288931362E0,-2.644968629E-1,2.269297540E-1,3.611634374E-1
4.291279851E0,-2.646495700E-1,1.487413049E-1,3.764346242E-1
4.293628341E0,-2.446443290E-1,8.215895295E-2,3.868190348E-1
4.295976831E0,-2.397575527E-1,1.359135192E-2,4.007157981E-1
4.298325320E0,-2.345653474E-1,-4.428642616E-2,4.158342779E-1
4.300673810E0,-2.344126403E-1,-1.044548824E-1,4.285093546E-1
4.303022299E0,-2.177670449E-1,-1.406475753E-1,4.446968138E-1
4.305370789E0,-2.061609477E-1,-1.817270666E-1,4.559974670E-1
4.307719278E0,-1.907370538E-1,-2.133384049E-1,4.648547769E-1
4.310067768E0,-1.776038408E-1,-2.400629669E-1,4.700469673E-1
4.312416258E0,-1.605001241E-1,-2.583884001E-1,4.787515402E-1
4.314764695E0,-1.433963925E-1,-2.597627938E-1,4.909684956E-1
4.317113185E0,-1.209477559E-1,-2.444916219E-1,5.007420182E-1
4.319461674E0,-8.872556686E-2,-2.195995897E-1,5.190674663E-1
4.321810164E0,-7.253811508E-2,-1.931804419E-1,5.421269536E-1
4.324158653E0,-5.772506446E-2,-1.740914732E-1,5.676298141E-1
4.326507143E0,-5.039490014E-2,-1.546970755E-1,5.969504714E-1
4.328855633E0,-5.054761097E-2,-1.351499557E-1,6.236750484E-1
4.331204122E0,-5.787777901E-2,-1.023169160E-1,6.502469182E-1
4.333539539E0,-7.605048269E-2,-5.726693198E-2,6.755970716E-1
4.335901101E0,-1.001789495E-1,7.177455351E-3,7.006418109E-1
4.338249591E0,-1.267508119E-1,7.406523079E-2,7.221741676E-1
4.340598081E0,-1.472141892E-1,1.288887709E-1,7.424848676E-1
4.342946570E0,-1.605001241E-1,1.701209545E-1,7.617265582E-1
4.345295008E0,-1.693574041E-1,1.837123185E-1,7.774558663E-1
4.347643497E0,-1.707318127E-1,1.814216375E-1,7.860077024E-1
4.349991987E0,-1.705790907E-1,1.873773932E-1,7.847860456E-1
4.352340476E0,-1.728697717E-1,1.898207814E-1,7.760814428E-1
4.354688966E0,-1.629435122E-1,1.714953631E-1,7.627955079E-1
4.357037456E0,-1.433963925E-1,1.432436854E-1,7.447755337E-1
4.359385945E0,-1.172826737E-1,1.232384369E-1,7.156075835E-1
4.361721362E0,-8.567132801E-2,1.296523362E-1,6.791094542E-1
4.364082924E0,-5.238015205E-2,1.672194302E-1,6.336013079E-1
4.366431414E0,-1.710372418E-2,2.469350100E-1,5.854970813E-1
4.368766778E0,1.603474095E-2,3.567348123E-1,5.358657837E-1
4.371128393E0,2.932066843E-2,4.608842432E-1,4.874561131E-1
4.373476831E0,3.420744836E-2,5.711421967E-1,4.268295169E-1
4.375812247E0,3.573456407E-2,6.849125028E-1,3.477247953E-1
4.378173810E0,3.100049868E-2,7.941014171E-1,2.637332976E-1
4.380522299E0,1.863084175E-2,8.828269839E-1,1.809635013E-1
4.382857716E0,3.512371797E-3,9.571976662E-1,1.021642014E-1
4.385219278E0,-1.679829881E-2,1.025612593E0,2.702999115E-2
4.387567768E0,-3.985778242E-2,1.082115889E0,-3.939964995E-2
4.389916258E0,-5.818320066E-2,1.130220175E0,-9.361234307E-2
4.392264747E0,-7.681404054E-2,1.166412830E0,-1.403421611E-1
4.394613237E0,-9.193251282E-2,1.194053650E0,-1.760767251E-1
4.396961726E0,-9.636115283E-2,1.212073684E0,-2.043284029E-1
4.399310216E0,-9.361234307E-2,1.207034230E0,-2.238755226E-1
4.401658653E0,-5.741964281E-2,1.125486016E0,-2.463241518E-1
4.403994070E0,9.162708884E-4,9.507837296E-1,-2.693836391E-1
4.406355633E0,6.536065787E-2,7.566870451E-1,-2.971771955E-1
4.408704122E0,1.368297935E-1,5.442649126E-1,-3.295520842E-1
4.411039539E0,2.119639963E-1,3.246653080E-1,-3.570402265E-1
4.413401101E0,2.944283783E-1,1.001789495E-1,-3.820849657E-1
4.415749591E0,3.660502136E-1,-1.049130186E-1,-4.109475017E-1
4.418085008E0,4.353813827E-1,-2.919849753E-1,-4.411844313E-1
4.420446570E0,5.057815313E-1,-4.885250926E-1,-4.639385045E-1
4.422795060E0,5.702258945E-1,-6.754443645E-1,-4.892886579E-1
4.425130424E0,6.420004964E-1,-8.696937561E-1,-5.146388412E-1
4.427491987E0,7.081246972E-1,-1.098761559E0,-5.347967744E-1
4.429840476E0,7.815790772E-1,-1.350736022E0,-5.607577562E-1
4.432175893E0,8.875610828E-1,-1.666238666E0,-5.996993184E-1
4.434537456E0,9.926267862E-1,-2.058860779E0,-6.516213417E-1
4.436885945E0,1.160762548E0,-2.561282635E0,-7.379034758E-1
4.439221362E0,1.345543742E0,-3.158232927E0,-8.661814332E-1
4.441582924E0,1.531699538E0,-3.718532801E0,-1.052337170E0
4.443931414E0,1.639514089E0,-4.010212421E0,-1.290720224E0
4.446266831E0,1.632183909E0,-3.945309639E0,-1.501462579E0
4.448628393E0,1.601336122E0,-3.704788685E0,-1.612025857E0
4.450976883E0,1.650662065E0,-3.402419329E0,-1.642262816E0
4.453312247E0,1.629587770E0,-2.639318228E0,-1.638139606E0
4.455673862E0,1.608360887E0,-1.864153147E0,-1.609735250E0
4.458022299E0,1.725338101E0,-1.134496093E0,-1.508334637E0
4.460357716E0,1.793294787E0,-2.881672084E-1,-1.400672793E0
4.462719278E0,1.858502746E0,6.365028620E-1,-1.289956689E0
4.465067768E0,1.905843496E0,1.537655234E0,-1.161831498E0
4.467403185E0,1.938523769E0,2.377722979E0,-1.022405624E0
4.469764747E0,1.932568073E0,3.105242014E0,-8.872556686E-1
4.472113237E0,1.889197826E0,3.663556337E0,-7.423321605E-1
4.474448653E0,1.840177417E0,4.067784786E0,-6.061131954E-1
4.476810216E0,1.778939962E0,4.316857815E0,-4.808894992E-1
4.479158706E0,1.741678238E0,4.419632435E0,-3.558185399E-1
4.481494070E0,1.706249118E0,4.387410641E0,-2.359397560E-1
4.483855633E0,1.671888947E0,4.252718449E0,-1.287360638E-1
4.486204122E0,1.640888453E0,4.016931534E0,-9.620844387E-3
4.488539539E0,1.618287086E0,3.687073946E0,1.111742035E-1
4.490901101E0,1.590798974E0,3.276584625E0,2.363978922E-1
4.493249591E0,1.545443535E0,2.837538242E0,3.703261614E-1
4.495598081E0,1.478097677E0,2.485537529E0,4.876088202E-1
4.497946570E0,1.392884493E0,2.250666618E0,5.856497884E-1
4.500295060E0,1.301104665E0,2.067412615E0,6.734591126E-1
4.502630476E0,1.201078415E0,1.890266895E0,7.453863621E-1
4.504992039E0,1.094943762E0,1.711899400E0,8.038749695E-1
4.507340528E0,9.854493141E-1,1.536128163E0,8.489249945E-1
4.509675893E0,8.733588457E-1,1.350430608E0,8.793146014E-1
4.512037508E0,7.615737915E-1,1.162289619E0,8.962656260E-1
4.514385945E0,6.548282504E-1,9.764393568E-1,9.060391784E-1
4.516721362E0,5.919110179E-1,7.307260633E-1,9.000834227E-1
4.519082924E0,5.460974574E-1,4.688252807E-1,8.884773254E-1
4.521431414E0,4.972296655E-1,2.432699203E-1,8.716790676E-1
4.523766831E0,4.439332485E-1,4.413371533E-2,8.533536196E-1
4.526128393E0,3.846810758E-1,-1.272089481E-1,8.348754644E-1
4.528476883E0,3.220692277E-1,-2.863346636E-1,8.163973689E-1
4.530812299E0,2.560977042E-1,-4.178195298E-1,7.951704264E-1
4.533173862E0,1.916533262E-1,-5.202891231E-1,7.760814428E-1
4.535522351E0,1.319430023E-1,-5.748072863E-1,7.482879162E-1
4.537857716E0,7.269082218E-2,-5.932853818E-1,7.200362086E-1
4.540219278E0,1.450762246E-2,-6.152759194E-1,6.931589246E-1
4.542567768E0,-3.985778242E-2,-6.409314871E-1,6.626165509E-1
4.544903185E0,-8.933641016E-2,-6.668924689E-1,6.310052276E-1
4.547264747E0,-1.386623234E-1,-6.865923405E-1,5.992411375E-1
4.549613237E0,-1.846285909E-1,-7.137750387E-1,5.686988235E-1
4.551961726E0,-2.192941606E-1,-7.458444834E-1,5.370874405E-1
4.554310216E0,-2.267770469E-1,-7.050704360E-1,5.012001991E-1
4.556658706E0,-1.873773932E-1,-5.832064152E-1,4.540122151E-1
4.558994070E0,-1.038440317E-1,-3.429907262E-1,4.048390090E-1
4.561355685E0,-1.679830020E-3,-8.383878320E-2,3.616215885E-1
4.563704174E0,7.986827940E-2,1.214058921E-1,3.176405728E-1
4.566039539E0,1.482831687E-1,2.825168669E-1,2.811424434E-1
4.568401101E0,2.046338320E-1,3.848337829E-1,2.463241518E-1
4.570749591E0,2.530434728E-1,4.378247857E-1,2.057028115E-1
4.573085008E0,3.096995652E-1,4.677563012E-1,1.629435122E-1
4.575446570E0,3.587200642E-1,4.761554301E-1,1.140757278E-1
4.577795060E0,4.176668227E-1,4.928010404E-1,7.375980914E-2
4.580130476E0,4.750864506E-1,5.036435723E-1,4.825693369E-2
4.582492039E0,5.212054253E-1,5.109737515E-1,2.748812735E-2
4.584840528E0,5.624375939E-1,5.221216679E-1,1.282779220E-2
4.587175893E0,5.827482939E-1,5.482354164E-1,7.788302377E-3
4.589537508E0,6.068767309E-1,5.923691392E-1,1.130067464E-2
4.591885997E0,6.148177385E-1,6.429167390E-1,2.428117767E-2
4.594221362E0,6.256603003E-1,7.198835015E-1,3.726168349E-2
4.596582924E0,6.238277555E-1,7.803573608E-1,5.146388337E-2
4.598931414E0,6.120689511E-1,8.444963098E-1,7.299624383E-2
4.601266831E0,6.189410090E-1,9.071081877E-1,9.086353332E-2
4.603628393E0,6.155813336E-1,9.434536099E-1,1.101052165E-1
4.605976883E0,5.908420086E-1,9.816315174E-1,1.452289373E-1
4.608312299E0,5.651864409E-1,1.028055906E0,1.779092699E-1
4.610673862E0,5.366293192E-1,1.051726222E0,2.105895877E-1
4.613022351E0,5.117372870E-1,1.074022174E0,2.409792393E-1
4.615357716E0,4.726430774E-1,1.129303813E0,2.721324563E-1
4.617719331E0,4.424061179E-1,1.301104665E0,3.100049794E-1
4.620067820E0,4.114056230E-1,1.503142357E0,3.500154912E-1
4.622403185E0,3.697153032E-1,1.641499281E0,3.817795515E-1
4.624764747E0,3.194731176E-1,1.690825224E0,4.069769979E-1
4.627113237E0,2.556395829E-1,1.665627718E0,4.265241027E-1
4.629448653E0,1.716480851E-1,1.598587275E0,4.390464723E-1
4.631810216E0,7.498150319E-2,1.512457848E0,4.491254389E-1
4.634158706E0,-4.596625641E-2,1.450914979E0,4.553866386E-1
4.636494122E0,-2.266243398E-1,1.472447276E0,4.608842432E-1
4.638855685E0,-4.005630910E-1,1.406933904E0,4.523324072E-1
4.641204174E0,-5.486935377E-1,1.157708287E0,4.341596961E-1
4.643539539E0,-6.566607952E-1,7.777612805E-1,4.085040987E-1
4.645901153E0,-7.374453545E-1,3.851391971E-1,3.744493723E-1
4.648249643E0,-7.939487100E-1,3.161134571E-2,3.280249834E-1
4.650585008E0,-8.480086923E-1,-2.423536479E-1,2.809897363E-1
4.652946570E0,-8.973346353E-1,-4.489727318E-1,2.286095917E-1
4.655295060E0,-9.335273504E-1,-6.004628539E-1,1.745496094E-1
4.657630476E0,-9.616262913E-1,-7.050704360E-1,1.238492802E-1
4.659992039E0,-9.743013978E-1,-7.739434838E-1,7.055285573E-2
4.662340528E0,-9.715525508E-1,-8.118160367E-1,1.221694518E-2
4.664675945E0,-9.536852837E-1,-8.257128000E-1,-4.138490185E-2
4.667037508E0,-9.194778204E-1,-8.159392476E-1,-9.284878522E-2
4.669385997E0,-8.677085042E-1,-7.884510756E-1,-1.404948682E-1
4.671721362E0,-8.046385646E-1,-7.427902818E-1,-1.736333370E-1
4.674082976E0,-7.328640223E-1,-6.720846891E-1,-1.959292591E-1
4.676431466E0,-6.572716236E-1,-5.916055441E-1,-2.037175596E-1
4.678766831E0,-5.818319917E-1,-5.074613690E-1,-2.041756958E-1
4.681128393E0,-5.076140761E-1,-4.208737612E-1,-2.044811249E-1
4.683476883E0,-4.358395338E-1,-3.281776905E-1,-1.988307834E-1
