"Time (s)","Gyroscope x (rad/s)","Gyroscope y (rad/s)","Gyroscope z (rad/s)"
2.784875400E-2,2.683146596E-1,1.170536056E-1,1.885990985E-2
3.024484800E-2,2.683146596E-1,1.170536056E-1,1.885990985E-2
3.268885900E-2,2.683146596E-1,1.170536056E-1,1.885990985E-2
3.513286900E-2,2.683146596E-1,1.170536056E-1,1.885990985E-2
3.758406700E-2,2.683146596E-1,1.170536056E-1,1.885990985E-2
4.003359800E-2,2.683146596E-1,1.170536056E-1,1.885990985E-2
4.248208800E-2,2.683146596E-1,1.170536056E-1,1.885990985E-2
4.493000400E-2,2.683146596E-1,1.170536056E-1,1.885990985E-2
4.737740000E-2,2.683146596E-1,1.170536056E-1,1.885990985E-2
4.982427500E-2,2.683146596E-1,1.170536056E-1,1.885990985E-2
5.227083800E-2,2.683146596E-1,1.170536056E-1,1.885990985E-2
5.471714000E-2,2.683146596E-1,1.170536056E-1,1.885990985E-2
5.716323400E-2,2.683146596E-1,1.170536056E-1,1.885990985E-2
5.960906700E-2,2.683146596E-1,1.170536056E-1,1.885990985E-2
6.205474400E-2,2.683146596E-1,1.170536056E-1,1.885990985E-2
6.450036900E-2,2.683146596E-1,1.170536056E-1,1.885990985E-2
6.694589000E-2,2.683146596E-1,1.170536056E-1,1.885990985E-2
6.939125400E-2,2.683146596E-1,1.170536056E-1,1.885990985E-2
7.183651500E-2,2.683146596E-1,1.170536056E-1,1.885990985E-2
7.428172300E-2,2.683146596E-1,1.170536056E-1,1.885990985E-2
7.672687900E-2,2.683146596E-1,1.170536056E-1,1.885990985E-2
7.917193200E-2,2.683146596E-1,1.170536056E-1,1.885990985E-2
8.161693200E-2,2.683146596E-1,1.170536056E-1,1.885990985E-2
8.406193200E-2,-1.110214889E-1,2.966426909E-1,2.351761907E-1
8.650687900E-2,-9.758284688E-2,3.308501542E-1,2.394521236E-1
8.895172300E-2,-8.536590636E-2,3.699443638E-1,2.455606014E-1
9.139651500E-2,-6.337540597E-2,4.041518271E-1,2.516690791E-1
9.384130700E-2,-4.749337584E-2,4.444677234E-1,2.577775419E-1
9.628604600E-2,-2.550287358E-2,4.823402762E-1,2.675510943E-1
9.873068200E-2,-3.512371797E-3,5.183802843E-1,2.779355049E-1
1.011752650E-1,2.031067200E-2,5.495334864E-1,3.023693860E-1
1.036198480E-1,4.902049154E-2,5.812975168E-1,3.268032968E-1
1.060643790E-1,7.956285775E-2,6.093965173E-1,3.640649617E-1
1.085088590E-1,1.168245375E-1,6.405497193E-1,3.958290219E-1
1.109532860E-1,1.540862173E-1,6.717029214E-1,4.275930822E-1
1.133977130E-1,1.907370538E-1,7.101863027E-1,4.501944184E-1
1.158421400E-1,2.279987335E-1,7.553889751E-1,4.715740979E-1
1.182865150E-1,2.646495700E-1,7.981482744E-1,4.874561131E-1
1.207308900E-1,3.006895781E-1,8.445726633E-1,5.039489865E-1
1.231752650E-1,3.330644667E-1,8.922187686E-1,5.155550838E-1
1.256196400E-1,3.623851240E-1,9.386431575E-1,5.289937258E-1
1.280639630E-1,3.929274976E-1,9.820133448E-1,5.363239050E-1
1.305082860E-1,4.161396921E-1,1.026605129E0,5.515950918E-1
1.329526090E-1,4.369085133E-1,1.071807861E0,5.644228458E-1
1.353969320E-1,4.564556181E-1,1.116399765E0,5.796940327E-1
1.378412020E-1,4.747810364E-1,1.161602378E0,5.943543911E-1
1.402854730E-1,4.894413650E-1,1.207415938E0,6.102364063E-1
1.427297440E-1,4.979932308E-1,1.253229499E0,6.248967648E-1
1.451740150E-1,4.998257756E-1,1.289269447E0,6.407787800E-1
1.476182340E-1,4.955498278E-1,1.314925075E0,6.487197876E-1
1.500624520E-1,4.876088202E-1,1.339358926E0,6.517740488E-1
1.525066710E-1,4.735593498E-1,1.352186799E0,6.560499668E-1
1.549508900E-1,4.540122151E-1,1.359516978E0,6.578825116E-1
1.573950570E-1,4.338542521E-1,1.363792896E0,6.578825116E-1
1.598392230E-1,4.106420577E-1,1.361960292E0,6.554391384E-1
1.622833900E-1,3.843756318E-1,1.357684374E0,6.529957056E-1
1.647275570E-1,3.599417508E-1,1.349132538E0,6.493306160E-1
1.671716710E-1,3.336753249E-1,1.336304784E0,6.438329816E-1
1.696157860E-1,3.061871827E-1,1.317979336E0,6.358919740E-1
1.720599000E-1,2.799207568E-1,1.295988798E0,6.279509664E-1
1.745040150E-1,2.530434728E-1,1.269722342E0,6.255075932E-1
1.769480770E-1,2.243336588E-1,1.240401745E0,6.181774139E-1
1.793921400E-1,1.956238300E-1,1.201918364E0,6.139014959E-1
1.818362020E-1,1.687465608E-1,1.165878296E0,6.053496599E-1
1.842802650E-1,1.388150454E-1,1.122508168E0,5.992411375E-1
1.867242750E-1,1.131594554E-1,1.078527212E0,5.906893015E-1
1.891682860E-1,8.628217876E-2,1.025994301E0,5.845808387E-1
1.916122960E-1,6.184828654E-2,9.771265388E-1,5.772506595E-1
1.940563070E-1,3.436015919E-2,9.282587767E-1,5.632011890E-1
1.965002650E-1,1.420219894E-2,8.732824922E-1,5.509842038E-1
1.989442230E-1,-9.009997360E-3,8.231930137E-1,5.332696438E-1
2.013881820E-1,-3.100049868E-2,7.767686248E-1,5.149442554E-1
2.038321400E-1,-4.932591692E-2,7.272900343E-1,4.911212027E-1
2.062760460E-1,-7.131642103E-2,6.826981902E-1,4.685198367E-1
2.087199520E-1,-8.719844371E-2,6.344412565E-1,4.398100376E-1
2.111638590E-1,-1.006370857E-1,5.770215988E-1,4.141544402E-1
2.136077650E-1,-1.116323397E-1,5.092175603E-1,3.872771561E-1
2.160516190E-1,-1.220167428E-1,4.426352084E-1,3.640649617E-1
2.184954730E-1,-1.275143623E-1,3.729985952E-1,3.420744538E-1
2.209393270E-1,-1.372879148E-1,3.058054149E-1,3.170297146E-1
2.233831820E-1,-1.415638477E-1,2.434989959E-1,2.925958335E-1
2.258269840E-1,-1.452289373E-1,1.921878159E-1,2.657185495E-1
2.282707860E-1,-1.543916464E-1,1.524827480E-1,2.412846684E-1
2.307145880E-1,-1.635543555E-1,1.231620759E-1,2.186833173E-1
2.331583900E-1,-1.666085869E-1,1.060583517E-1,1.954711229E-1
2.356021400E-1,-1.800472289E-1,9.750649333E-2,1.710372269E-1
2.380458900E-1,-1.861557066E-1,9.506310523E-2,1.496575773E-1
2.404896400E-1,-1.922641695E-1,9.689565003E-2,1.220930964E-1
2.429333900E-1,-2.020377368E-1,1.005607322E-1,1.049893722E-1
2.453770360E-1,-2.063136548E-1,1.017824262E-1,8.727480471E-2
2.478206820E-1,-2.112004459E-1,1.030041203E-1,7.383616269E-2
2.502643270E-1,-2.105895877E-1,1.023932695E-1,6.223006546E-2
2.527079730E-1,-2.093679011E-1,9.933903813E-2,4.879142344E-2
2.551515670E-1,-2.063136548E-1,9.384141117E-2,4.207210615E-2
2.575951610E-1,-2.008160353E-1,8.895463496E-2,4.023956135E-2
2.600387540E-1,-1.916533262E-1,8.223531395E-2,3.535278514E-2
2.624823480E-1,-1.788255423E-1,7.429429889E-2,4.023956135E-2
2.649259420E-1,-1.672194302E-1,6.696412712E-2,4.390464723E-2
2.673695360E-1,-1.550024897E-1,5.719057471E-2,5.367820337E-2
2.698131290E-1,-1.366770715E-1,5.047125369E-2,6.772769243E-2
2.722567230E-1,-1.275143623E-1,4.741701856E-2,8.727480471E-2
2.747003170E-1,-1.091889441E-1,4.436278343E-2,1.068219170E-1
2.771439110E-1,-9.575030953E-2,4.191939160E-2,1.282015741E-1
2.795875040E-1,-8.475505561E-2,4.069769755E-2,1.539335102E-1
2.820310980E-1,-7.375980914E-2,4.619532451E-2,1.777565479E-1
2.844746920E-1,-6.765133142E-2,5.413633958E-2,2.070772201E-1
2.869182860E-1,-6.215370819E-2,6.940752268E-2,2.327328026E-1
2.893618790E-1,-5.909947306E-2,9.200886637E-2,2.577775419E-1
2.918054730E-1,-5.665608495E-2,1.219403818E-1,2.803788781E-1
2.942490670E-1,-5.848862603E-2,1.622563004E-1,3.029802442E-1
2.966926610E-1,-6.520794332E-2,2.050156146E-1,3.249707520E-1
2.991362540E-1,-7.375980914E-2,2.557159364E-1,3.469612300E-1
3.015798480E-1,-8.536590636E-2,3.076379597E-1,3.616215885E-1
3.040234420E-1,-9.391776472E-2,3.632250428E-1,3.781144619E-1
3.064670360E-1,-1.104106456E-1,4.175904691E-1,3.927747905E-1
3.089106290E-1,-1.214058921E-1,4.719558656E-1,4.043808877E-1
3.113542230E-1,-1.391204596E-1,5.244887471E-1,4.135435820E-1
3.137978170E-1,-1.519482583E-1,5.739673376E-1,4.196520746E-1
3.162414110E-1,-1.708845198E-1,6.210026145E-1,4.282039404E-1
3.186850040E-1,-1.837123185E-1,6.625401974E-1,4.306473136E-1
3.211285980E-1,-1.977618039E-1,7.040778399E-1,4.318690002E-1
3.235721920E-1,-2.130329758E-1,7.425612211E-1,4.312581718E-1
3.260157860E-1,-2.258607745E-1,7.828771472E-1,4.263713956E-1
3.284593790E-1,-2.380777150E-1,8.207496405E-1,4.202629030E-1
3.309029730E-1,-2.466295809E-1,8.574004769E-1,4.135435820E-1
3.333465670E-1,-2.533488870E-1,8.848885894E-1,4.098785222E-1
3.357901610E-1,-2.502946556E-1,9.117658734E-1,4.025483429E-1
3.382337540E-1,-2.496838123E-1,9.252045155E-1,3.939964771E-1
3.406773480E-1,-2.466295809E-1,9.307021499E-1,3.872771561E-1
3.431209420E-1,-2.392994165E-1,9.239828587E-1,3.830012381E-1
3.455645360E-1,-2.289150059E-1,9.123767614E-1,3.744493723E-1
3.480081290E-1,-2.148655206E-1,8.861103058E-1,3.701734245E-1
3.504517230E-1,-1.995943487E-1,8.512920141E-1,3.610107303E-1
3.528953170E-1,-1.861557066E-1,8.152520061E-1,3.530697227E-1
3.553389110E-1,-1.702736765E-1,7.743252516E-1,3.487937748E-1
3.577825040E-1,-1.556133330E-1,7.340093255E-1,3.457395434E-1
3.602260980E-1,-1.324011385E-1,6.881957650E-1,3.396310806E-1
3.626696920E-1,-1.140757278E-1,6.460473537E-1,3.365768492E-1
3.651132860E-1,-9.391776472E-2,6.026771665E-1,3.359659910E-1
3.675568790E-1,-7.681404054E-2,5.684697032E-1,3.347443044E-1
3.700004730E-1,-5.848862603E-2,5.312080383E-1,3.396310806E-1
3.724364110E-1,-4.077405483E-2,4.970006049E-1,3.451287150E-1
3.748318790E-1,-2.855710872E-2,4.689016342E-1,3.500154912E-1
3.772282340E-1,-1.572931744E-2,4.444677234E-1,3.591781855E-1
3.796237020E-1,-3.512371797E-3,4.218663871E-1,3.695625961E-1
3.820184940E-1,7.635590737E-4,4.102602899E-1,3.781144619E-1
3.844140150E-1,5.650337320E-3,4.047626555E-1,3.939964771E-1
3.868103690E-1,8.704573847E-3,4.017084241E-1,4.074351192E-1
3.892058380E-1,6.261184346E-3,4.035409689E-1,4.184303582E-1
3.916005770E-1,1.985253533E-3,4.139253795E-1,4.361449480E-1
3.939960980E-1,-4.123218823E-3,4.285857081E-1,4.514161348E-1
3.963924520E-1,-1.634016447E-2,4.493545294E-1,4.727957845E-1
3.987879210E-1,-3.038965166E-2,4.719558656E-1,4.941754341E-1
4.011826610E-1,-4.260659590E-2,4.976114631E-1,5.118899941E-1
4.035781820E-1,-5.971032009E-2,5.226562023E-1,5.357130170E-1
4.059745360E-1,-8.047912270E-2,5.458683968E-1,5.589252710E-1
4.083700040E-1,-9.880454093E-2,5.715239644E-1,5.845808387E-1
4.107647440E-1,-1.214058921E-1,5.984012485E-1,6.132906675E-1
4.131602650E-1,-1.409530044E-1,6.258893609E-1,6.383354068E-1
4.155566190E-1,-1.586675793E-1,6.539883614E-1,6.652126908E-1
4.179520880E-1,-1.757712960E-1,6.808656454E-1,6.859814525E-1
4.203468270E-1,-1.898207814E-1,7.114079595E-1,7.012526393E-1
4.227423480E-1,-1.983726472E-1,7.431720495E-1,7.140804529E-1
4.251387020E-1,-2.057028115E-1,7.767686248E-1,7.250757217E-1
4.275341710E-1,-2.124221325E-1,8.152520061E-1,7.275190949E-1
4.299289110E-1,-2.124221325E-1,8.598438501E-1,7.281299233E-1
4.323244320E-1,-2.148655206E-1,9.050465822E-1,7.226322889E-1
4.347207860E-1,-2.130329758E-1,9.520817995E-1,7.201889157E-1
4.371162540E-1,-2.142546773E-1,1.000338793E0,7.140804529E-1
4.395110460E-1,-2.099787444E-1,1.046763182E0,7.073611021E-1
4.419065670E-1,-2.038702667E-1,1.092576623E0,6.988092661E-1
4.443029210E-1,-1.995943487E-1,1.131060004E0,6.896465421E-1
4.466983900E-1,-1.904316396E-1,1.167100072E0,6.798729897E-1
4.490931290E-1,-1.837123185E-1,1.201307535E0,6.719319820E-1
4.514886500E-1,-1.733279079E-1,1.233071566E0,6.621584296E-1
4.538850040E-1,-1.659977436E-1,1.259948850E0,6.554391384E-1
4.562804730E-1,-1.574458778E-1,1.284993529E0,6.511631608E-1
4.586752130E-1,-1.495048702E-1,1.311259985E0,6.474980712E-1
4.610707340E-1,-1.391204596E-1,1.332028747E0,6.462764144E-1
4.634670880E-1,-1.372879148E-1,1.355240941E0,6.456655264E-1
4.658625570E-1,-1.305686086E-1,1.373566389E0,6.487197876E-1
4.682572960E-1,-1.250709742E-1,1.393724322E0,6.511631608E-1
4.706528170E-1,-1.214058921E-1,1.407773852E0,6.560499668E-1
4.730491710E-1,-1.201841980E-1,1.424877644E0,6.639909744E-1
4.754446400E-1,-1.177408099E-1,1.439537883E0,6.700994372E-1
4.778393790E-1,-1.165191159E-1,1.451754808E0,6.762079000E-1
4.802349000E-1,-1.152974218E-1,1.458474159E0,6.829272509E-1
4.826312540E-1,-1.122431830E-1,1.460306764E0,6.780404449E-1
4.850267230E-1,-1.146865711E-1,1.453587413E0,6.719319820E-1
4.874214630E-1,-1.122431830E-1,1.440148711E0,6.627692580E-1
4.898169840E-1,-1.122431830E-1,1.424877644E0,6.499415040E-1
4.922133380E-1,-1.085781008E-1,1.399832845E0,6.377245188E-1
4.946088590E-1,-1.030804738E-1,1.374177217E0,6.212316751E-1
4.970035980E-1,-9.758284688E-2,1.346078277E0,5.998520255E-1
4.993991190E-1,-8.658760041E-2,1.314925075E0,5.662553906E-1
5.017954730E-1,-7.437065244E-2,1.290491223E0,5.320479870E-1
5.041909420E-1,-5.787777901E-2,1.270333290E0,4.911212027E-1
5.065856820E-1,-3.894151375E-2,1.253840327E0,4.556920528E-1
5.089812020E-1,-1.634016447E-2,1.239790916E0,4.275930822E-1
5.113775570E-1,9.315420873E-3,1.230628133E0,4.043808877E-1
5.137730250E-1,3.069507517E-2,1.211691856E0,3.891097009E-1
5.161677650E-1,4.596625641E-2,1.173208475E0,3.768927455E-1
5.185632860E-1,5.329642445E-2,1.124951601E0,3.610107303E-1
5.209596400E-1,5.573981255E-2,1.074251294E0,3.481829464E-1
5.233551090E-1,5.696150661E-2,1.036989570E0,3.310792148E-1
5.257498480E-1,5.268557742E-2,1.010112286E0,3.164188862E-1
5.281453690E-1,5.207473040E-2,9.923977256E-1,2.968717813E-1
5.305417230E-1,4.840964451E-2,9.832350016E-1,2.822114229E-1
5.329371920E-1,4.474456236E-2,9.679638147E-1,2.596100867E-1
5.353319320E-1,4.291202128E-2,9.514709711E-1,2.406738251E-1
5.377274520E-1,4.352286831E-2,9.355889559E-1,2.168507725E-1
5.401238070E-1,4.291202128E-2,9.129875898E-1,1.875301152E-1
5.425192750E-1,3.985778242E-2,8.891645670E-1,1.588202864E-1
5.449140150E-1,3.802524135E-2,8.696174026E-1,1.294232607E-1
5.473095360E-1,3.191677108E-2,8.433510065E-1,9.643751383E-2
5.497058900E-1,2.702999115E-2,8.201388121E-1,6.467345357E-2
5.521013590E-1,1.114796288E-2,7.963157296E-1,3.107685409E-2
5.544961500E-1,-4.123218823E-3,7.706601620E-1,-6.872031372E-4
5.568916710E-1,-2.794626169E-2,7.413395047E-1,-3.061871976E-2
5.592880250E-1,-5.176930502E-2,7.114079595E-1,-5.505260825E-2
5.616834940E-1,-7.681404054E-2,6.833090186E-1,-8.376242965E-2
5.640782340E-1,-1.036913246E-1,6.588751078E-1,-1.081963181E-1
5.664737540E-1,-1.311794519E-1,6.356629133E-1,-1.295759678E-1
5.688701090E-1,-1.586675793E-1,6.277219057E-1,-1.466796994E-1
5.712655770E-1,-1.867665499E-1,6.118398905E-1,-1.650051177E-1
5.736603170E-1,-2.063136548E-1,5.739673376E-1,-1.796654463E-1
5.760558380E-1,-2.276933193E-1,5.250995755E-1,-1.937149316E-1
5.784521920E-1,-2.399102598E-1,4.517979026E-1,-2.040993422E-1
5.808476610E-1,-2.551814318E-1,3.784962296E-1,-2.150945961E-1
5.832424000E-1,-2.667875290E-1,3.039728701E-1,-2.260898352E-1
5.856379210E-1,-2.759502530E-1,2.184542567E-1,-2.401393354E-1
5.880342750E-1,-2.912214398E-1,1.231620759E-1,-2.486911863E-1
5.904297440E-1,-3.089359999E-1,2.359397523E-2,-2.615189850E-1
5.928244840E-1,-3.248180151E-1,-8.086090535E-2,-2.755684555E-1
5.952200040E-1,-3.480302393E-1,-1.810398549E-1,-2.945047319E-1
5.976163590E-1,-3.694098890E-1,-2.726669312E-1,-3.140518367E-1
6.000118270E-1,-3.975088596E-1,-3.539096415E-1,-3.329881132E-1
6.024065670E-1,-4.256078303E-1,-4.168269038E-1,-3.531460762E-1
6.048020880E-1,-4.598152637E-1,-4.534777403E-1,-3.745257258E-1
6.071984420E-1,-4.934118688E-1,-4.699706137E-1,-3.916294575E-1
6.095939110E-1,-5.263976455E-1,-4.724139869E-1,-4.032355547E-1
6.119886500E-1,-5.575508475E-1,-4.632512927E-1,-4.148416519E-1
6.143842230E-1,-5.905365944E-1,-4.284330010E-1,-4.240043461E-1
6.167805770E-1,-6.180247068E-1,-3.722350597E-1,-4.337778986E-1
6.191759940E-1,-6.394043565E-1,-3.288649023E-1,-4.288911223E-1
6.215707860E-1,-6.589514613E-1,-3.050418496E-1,-4.136199355E-1
6.239663070E-1,-6.730009913E-1,-2.916032076E-1,-3.977379203E-1
6.263626610E-1,-6.821636558E-1,-2.940466106E-1,-3.812450469E-1
6.287581290E-1,-6.870504618E-1,-2.909923494E-1,-3.568111658E-1
6.311528690E-1,-6.833853722E-1,-2.818296552E-1,-3.299338818E-1
6.335483900E-1,-6.717792749E-1,-2.720561028E-1,-3.036674559E-1
6.359447440E-1,-6.577298045E-1,-2.635042369E-1,-2.780118585E-1
6.383402130E-1,-6.320741773E-1,-2.604500055E-1,-2.480803430E-1
6.407349520E-1,-5.960342288E-1,-2.586174607E-1,-2.187596709E-1
6.431304730E-1,-5.593833923E-1,-2.592283189E-1,-1.882173121E-1
6.455268270E-1,-5.154023767E-1,-2.647259235E-1,-1.558424085E-1
6.479222960E-1,-4.677563012E-1,-2.818296552E-1,-1.259108931E-1
6.503170360E-1,-4.115583301E-1,-3.068743944E-1,-9.414683282E-2
6.527125570E-1,-3.529170156E-1,-3.490228653E-1,-6.116108224E-2
6.551089110E-1,-2.875563502E-1,-4.027774036E-1,-3.184041381E-2
6.575043790E-1,-2.209739983E-1,-4.730248451E-1,-6.872031372E-4
6.598991190E-1,-1.531699449E-1,-5.506024361E-1,3.107685409E-2
6.622946400E-1,-8.475505561E-2,-6.098546386E-1,6.406260282E-2
6.646909940E-1,-1.878355257E-2,-6.727718711E-1,1.019351333E-1
6.670864630E-1,4.352286831E-2,-7.350783348E-1,1.521009654E-1
6.694812020E-1,1.009425074E-1,-7.906654477E-1,1.991362125E-1
6.718767750E-1,1.449235082E-1,-8.407548666E-1,2.504473627E-1
6.742730770E-1,1.779092699E-1,-8.951203227E-1,3.103103936E-1
6.766685460E-1,1.956238300E-1,-9.482640028E-1,3.720059693E-1
6.790633380E-1,1.950129867E-1,-1.002629399E0,4.337015450E-1
6.814588590E-1,1.766875684E-1,-1.053329706E0,4.972296655E-1
6.838552130E-1,1.406475753E-1,-1.098608851E0,5.650337338E-1
6.862506820E-1,9.788827598E-2,-1.129762053E0,6.279509664E-1
6.886454210E-1,4.535540938E-2,-1.149309158E0,6.847597957E-1
6.910409420E-1,-1.267508045E-2,-1.156639338E0,7.403468490E-1
6.934372960E-1,-7.620319724E-2,-1.152363300E0,7.873821259E-1
6.958327650E-1,-1.421747059E-1,-1.140146375E0,8.319739699E-1
6.982275040E-1,-2.093679011E-1,-1.131594539E0,8.649597168E-1
7.006230250E-1,-2.716743052E-1,-1.121210098E0,8.863393664E-1
7.030193790E-1,-3.321481943E-1,-1.107771516E0,8.973346353E-1
7.054148480E-1,-3.822376728E-1,-1.079672575E0,8.936695457E-1
7.078095880E-1,-4.256078303E-1,-1.033782601E0,8.783983588E-1
7.102051090E-1,-4.665345848E-1,-9.684219956E-1,8.527427912E-1
7.126014630E-1,-4.964661002E-1,-8.847358823E-1,8.160919547E-1
7.149969320E-1,-5.215108395E-1,-7.827243805E-1,7.666133046E-1
7.173916710E-1,-5.435013771E-1,-6.733827591E-1,7.043069005E-1
7.197871920E-1,-5.563291311E-1,-5.615977049E-1,6.389462352E-1
7.221835460E-1,-5.642701387E-1,-4.522560537E-1,5.632011890E-1
7.245790150E-1,-5.691569448E-1,-3.441360891E-1,4.752391577E-1
7.269737540E-1,-5.709894896E-1,-2.457896620E-1,3.860554695E-1
7.293692750E-1,-5.654918551E-1,-1.608818918E-1,2.889307439E-1
7.317656290E-1,-5.563291311E-1,-8.269345015E-2,1.844758689E-1
7.341610980E-1,-5.489989519E-1,-1.244601328E-2,8.116632700E-2
7.365558380E-1,-5.361711979E-1,6.085565686E-2,-2.267770469E-2
7.389514110E-1,-5.233433843E-1,1.353790164E-1,-1.271325797E-1
7.413477130E-1,-5.215108395E-1,2.099023908E-1,-2.303657681E-1
7.437431820E-1,-5.141806602E-1,2.911450863E-1,-3.281013370E-1
7.461379730E-1,-5.209000111E-1,3.699443638E-1,-4.209501147E-1
7.485334940E-1,-5.312843919E-1,4.524087608E-1,-5.058578849E-1
7.509298480E-1,-5.544965863E-1,5.403707623E-1,-5.822138190E-1
7.533253170E-1,-5.893148780E-1,6.362738013E-1,-6.512395144E-1
7.557200570E-1,-6.369609833E-1,7.346202135E-1,-7.043832541E-1
7.581155770E-1,-6.943806410E-1,8.280798197E-1,-7.514184713E-1
7.605119320E-1,-7.597413063E-1,9.233719707E-1,-7.886801958E-1
7.629074000E-1,-8.336538076E-1,9.985061884E-1,-8.204442263E-1
7.653021400E-1,-9.136747718E-1,1.056536674E0,-8.460997939E-1
7.676976610E-1,-9.979717135E-1,1.099295974E0,-8.674794436E-1
7.700940150E-1,-1.089598775E0,1.132281780E0,-8.870265484E-1
7.724894840E-1,-1.178171635E0,1.155493975E0,-9.059628248E-1
7.748842230E-1,-1.266133666E0,1.168932557E0,-9.175689220E-1
7.772797440E-1,-1.351041436E0,1.167710900E0,-9.145147204E-1
7.796760980E-1,-1.425564766E0,1.148163795E0,-9.016869068E-1
7.820715670E-1,-1.493979692E0,1.120064855E0,-8.778638840E-1
7.844663070E-1,-1.545901656E0,1.081581473E0,-8.448781371E-1
7.868618270E-1,-1.588050127E0,1.033935308E0,-8.118923903E-1
7.892581820E-1,-1.624090195E0,9.771265388E-1,-7.721872926E-1
7.916536500E-1,-1.652189136E0,9.105442166E-1,-7.294279933E-1
7.940483900E-1,-1.673568726E0,8.402967453E-1,-6.854469776E-1
7.964439110E-1,-1.690672517E0,7.737144232E-1,-6.432985067E-1
7.988402650E-1,-1.710219622E0,7.065212131E-1,-5.980958343E-1
8.012357340E-1,-1.725490808E0,6.478798985E-1,-5.480063558E-1
8.036305250E-1,-1.744427085E0,5.990120769E-1,-4.954734743E-1
8.060260460E-1,-1.760996342E0,5.721347928E-1,-4.374429882E-1
8.084224000E-1,-1.782375932E0,5.611395836E-1,-3.726931810E-1
8.108178690E-1,-1.802533865E0,5.641937852E-1,-3.079433739E-1
8.132126090E-1,-1.823302746E0,5.819083452E-1,-2.450261116E-1
8.156081290E-1,-1.849569201E0,6.008446217E-1,-1.979908645E-1
8.180044840E-1,-1.867894530E0,6.283327341E-1,-1.582857966E-1
8.203999520E-1,-1.893550158E0,6.570425630E-1,-1.393495351E-1
8.227946920E-1,-1.924092531E0,6.851415634E-1,-1.326302141E-1
8.251902130E-1,-1.959521651E0,7.101863027E-1,-1.387386769E-1
8.275865670E-1,-2.002891779E0,7.346202135E-1,-1.601183414E-1
8.299820360E-1,-2.060922384E0,7.627191544E-1,-1.986017078E-1
8.323767750E-1,-2.125061274E0,7.963157296E-1,-2.474694997E-1
8.347722960E-1,-2.202638865E0,8.402967453E-1,-3.073325157E-1
8.371686500E-1,-2.286324978E0,8.903862238E-1,-3.690280914E-1
8.395641190E-1,-2.382227898E0,9.471950531E-1,-4.337778986E-1
8.419588590E-1,-2.483628511E0,1.007668853E0,-4.966951907E-1
8.443543790E-1,-2.589915991E0,1.072418690E0,-5.602232814E-1
8.467507340E-1,-2.701090336E0,1.139611959E0,-6.219188571E-1
8.491462020E-1,-2.808599234E0,1.215967774E0,-6.781167984E-1
8.515409420E-1,-2.910000086E0,1.285604358E0,-7.337039113E-1
8.539364630E-1,-2.996740341E0,1.336304784E0,-8.173899651E-1
8.563328170E-1,-3.059046745E0,1.385172486E0,-9.352834821E-1
8.587282860E-1,-3.101805925E0,1.438927054E0,-1.054398775E0
8.611230250E-1,-3.132959127E0,1.489016533E0,-1.168016315E0
8.635185460E-1,-3.150063038E0,1.540327668E0,-1.276747108E0
8.659149000E-1,-3.151284695E0,1.584919572E0,-1.373260975E0
8.683103690E-1,-3.143954515E0,1.636917949E0,-1.453892827E0
8.707051090E-1,-3.121353149E0,1.688839912E0,-1.518031836E0
8.731006820E-1,-3.088367462E0,1.738929391E0,-1.571786404E0
8.754969840E-1,-3.044997215E0,1.789018869E0,-1.612102270E0
8.778924520E-1,-2.996740341E0,1.829945683E0,-1.634092808E0
8.802872440E-1,-2.935044765E0,1.856212139E0,-1.643255472E0
8.826827650E-1,-2.877624989E0,1.873315811E0,-1.642644644E0
8.850791190E-1,-2.820816278E0,1.877591729E0,-1.634092808E0
8.874745880E-1,-2.767061710E0,1.876980901E0,-1.615767360E0
8.898693270E-1,-2.709642172E0,1.860488057E0,-1.594387650E0
8.922648480E-1,-2.665050268E0,1.834832430E0,-1.571175456E0
8.946612020E-1,-2.622901678E0,1.795127392E0,-1.546741605E0
8.970566710E-1,-2.586861849E0,1.746870399E0,-1.521085978E0
8.994514110E-1,-2.560595274E0,1.701667786E0,-1.490543723E0
9.018469320E-1,-2.537993908E0,1.657686710E0,-1.457557917E0
9.042432860E-1,-2.523944616E0,1.620425105E0,-1.423961282E0
9.066387540E-1,-2.519057751E0,1.586141229E0,-1.386699677E0
9.090334940E-1,-2.517225266E0,1.552544713E0,-1.343940377E0
9.114290150E-1,-2.523944616E0,1.523834825E0,-1.301791906E0
9.138253690E-1,-2.538604736E0,1.492681623E0,-1.259032607E0
9.162208380E-1,-2.552654266E0,1.460306764E0,-1.218105793E0
9.186155770E-1,-2.575866461E0,1.427931786E0,-1.178400755E0
9.210110980E-1,-2.598467827E0,1.393724322E0,-1.141749859E0
9.234074520E-1,-2.628399372E0,1.364403725E0,-1.111207485E0
9.258029210E-1,-2.655887604E0,1.338137269E0,-1.080665112E0
9.281976610E-1,-2.686429977E0,1.310038328E0,-1.058063865E0
9.305931820E-1,-2.716972351E0,1.286826134E0,-1.036684155E0
9.329895360E-1,-2.747514725E0,1.264224768E0,-1.019580483E0
9.353850040E-1,-2.779889584E0,1.247731924E0,-1.000033259E0
9.377797960E-1,-2.812264442E0,1.230017304E0,-9.792644978E-1
9.401752650E-1,-2.843417645E0,1.213524461E0,-9.597173929E-1
9.425716190E-1,-2.872127533E0,1.203140020E0,-9.365051985E-1
9.449670880E-1,-2.894728899E0,1.195199013E0,-9.132930040E-1
9.473618790E-1,-2.924049377E0,1.195809841E0,-8.870265484E-1
9.497574000E-1,-2.945429087E0,1.206805110E0,-8.583167791E-1
9.521537540E-1,-2.973528147E0,1.228184819E0,-8.265526891E-1
9.545492230E-1,-2.997351170E0,1.253840327E0,-7.929561138E-1
9.569439630E-1,-3.020563364E0,1.280106783E0,-7.593594790E-1
9.593394840E-1,-3.041943073E0,1.305762410E0,-7.251520753E-1
9.617358380E-1,-3.058435917E0,1.324087739E0,-6.958313584E-1
9.641313070E-1,-3.079204559E0,1.339358926E0,-6.646781564E-1
9.665260460E-1,-3.099973440E0,1.354019284E0,-6.365792155E-1
9.689215670E-1,-3.117077112E0,1.360738635E0,-6.109235883E-1
9.713179210E-1,-3.133570194E0,1.376620650E0,-5.864897370E-1
9.737133900E-1,-3.147619486E0,1.401054502E0,-5.565581918E-1
9.761081290E-1,-3.159836531E0,1.434040308E0,-5.302917957E-1
9.785036500E-1,-3.170831680E0,1.468858600E0,-5.040253401E-1
9.809000040E-1,-3.173275232E0,1.500622630E0,-4.838673770E-1
9.832954730E-1,-3.169610023E0,1.528110743E0,-4.698179066E-1
9.856902130E-1,-3.161058187E0,1.551933765E0,-4.655419588E-1
9.880857340E-1,-3.148230314E0,1.572091818E0,-4.655419588E-1
9.904820880E-1,-3.127461672E0,1.589195490E0,-4.679853618E-1
9.928775570E-1,-3.109746933E0,1.605153918E0,-4.759263694E-1
9.952722960E-1,-3.085313082E0,1.623479247E0,-4.869216084E-1
9.976678170E-1,-3.060879230E0,1.639972210E0,-4.985277057E-1
1.000064171E0,-3.031558514E0,1.657075882E0,-5.137988925E-1
1.002459640E0,-2.996129513E0,1.668071151E0,-5.296809077E-1
1.004854379E0,-2.963143587E0,1.673568726E0,-5.437304378E-1
1.007249900E0,-2.929547071E0,1.669292808E0,-5.541148186E-1
1.009646254E0,-2.894118071E0,1.659519315E0,-5.608341694E-1
1.012041723E0,-2.858688831E0,1.644248128E0,-5.602232814E-1
1.014436463E0,-2.820205450E0,1.617370844E0,-5.522822738E-1
1.016831984E0,-2.787830591E0,1.582476139E0,-5.431195498E-1
1.019228338E0,-2.755455732E0,1.543381929E0,-5.296809077E-1
1.021623807E0,-2.717583179E0,1.507341981E0,-5.186856985E-1
1.024018546E0,-2.681543112E0,1.468247771E0,-5.070796013E-1
1.026414119E0,-2.639394760E0,1.424266696E0,-4.991385639E-1
1.028810473E0,-2.596635342E0,1.369901299E0,-4.960843325E-1
1.031205942E0,-2.548989296E0,1.321644425E0,-4.930301011E-1
1.033600682E0,-2.503786564E0,1.264835596E0,-4.899758697E-1
1.035996202E0,-2.456751347E0,1.212302685E0,-4.863107800E-1
1.038392557E0,-2.409716129E0,1.164656639E0,-4.783697724E-1
1.040788025E0,-2.368789196E0,1.118843079E0,-4.685961902E-1
1.043182765E0,-2.328473330E0,1.087079048E0,-4.576009512E-1
1.045578286E0,-2.292433500E0,1.063866854E0,-4.423297644E-1
1.047974640E0,-2.264334440E0,1.053482413E0,-4.295019805E-1
1.050370109E0,-2.238068104E0,1.047374010E0,-4.130091071E-1
1.052764848E0,-2.217299223E0,1.050428271E0,-3.989596069E-1
1.055160369E0,-2.204471350E0,1.052871585E0,-3.849101365E-1
1.057556723E0,-2.198362827E0,1.057147503E0,-3.745257258E-1
1.059952192E0,-2.195308685E0,1.057147503E0,-3.665847182E-1
1.062346932E0,-2.198362827E0,1.055315018E0,-3.610870838E-1
1.064742452E0,-2.203249693E0,1.055315018E0,-3.574219942E-1
1.067138807E0,-2.208136559E0,1.056536674E0,-3.531460762E-1
1.069534275E0,-2.208747387E0,1.063256025E0,-3.543677628E-1
1.071929015E0,-2.212412357E0,1.069975376E0,-3.458158970E-1
1.074324536E0,-2.206914902E0,1.077916384E0,-3.397074342E-1
1.076720890E0,-2.198362827E0,1.085857391E0,-3.335989714E-1
1.079116359E0,-2.188589334E0,1.090133309E0,-3.238253891E-1
1.081511098E0,-2.172707319E0,1.088300705E0,-3.189386129E-1
1.083906619E0,-2.151327610E0,1.087079048E0,-3.085542321E-1
1.086302973E0,-2.126282930E0,1.083413959E0,-3.018349111E-1
1.088698442E0,-2.101238251E0,1.092576623E0,-2.896179557E-1
1.091093182E0,-2.072528362E0,1.104182720E0,-2.761793137E-1
1.093488702E0,-2.038931847E0,1.120064855E0,-2.633515298E-1
1.095885057E0,-2.005946159E0,1.140222788E0,-2.493020445E-1
1.098280525E0,-1.972349405E0,1.159159064E0,-2.321983129E-1
1.100675265E0,-1.938141942E0,1.180538654E0,-2.083752751E-1
1.103070838E0,-1.905767083E0,1.190312266E0,-1.882173121E-1
1.105467192E0,-1.875835538E0,1.197031617E0,-1.656159610E-1
1.107862609E0,-1.847736597E0,1.201307535E0,-1.405712217E-1
1.110257400E0,-1.827578664E0,1.197642446E0,-1.240783483E-1
1.112652921E0,-1.809864044E0,1.194588184E0,-1.106397063E-1
1.115049275E0,-1.790927768E0,1.186036348E0,-1.002553031E-1
1.117444744E0,-1.777489185E0,1.176873565E0,-9.536852688E-2
1.119839484E0,-1.761607170E0,1.164045811E0,-9.720107168E-2
1.122235004E0,-1.748779297E0,1.148774624E0,-9.842276573E-2
1.124631359E0,-1.735264301E0,1.136557698E0,-1.075854748E-1
1.127026827E0,-1.716938972E0,1.116399765E0,-1.155264899E-1
1.129421567E0,-1.699835181E0,1.102961063E0,-1.259108931E-1
1.131817088E0,-1.679677248E0,1.091965795E0,-1.326302141E-1
1.134213442E0,-1.653410792E0,1.088300705E0,-1.485122442E-1
1.136608911E0,-1.635696292E0,1.085246563E0,-1.588966399E-1
1.139003650E0,-1.609429836E0,1.093798399E0,-1.692810506E-1
1.141399171E0,-1.581330895E0,1.105404496E0,-1.839413792E-1
1.143795525E0,-1.556286097E0,1.123729944E0,-1.918824017E-1
1.146190994E0,-1.530630469E0,1.140833616E0,-1.986017078E-1
1.148585734E0,-1.507418275E0,1.156715631E0,-2.071535736E-1
1.150981254E0,-1.487260342E0,1.175651908E0,-2.138728946E-1
1.153377609E0,-1.468324065E0,1.187868834E0,-2.193705291E-1
1.155773077E0,-1.456717968E0,1.204972625E0,-2.230356038E-1
1.158167817E0,-1.448776960E0,1.224519730E0,-2.236464471E-1
1.160563338E0,-1.443890214E0,1.245899320E0,-2.260898352E-1
1.162959692E0,-1.442668557E0,1.259338021E0,-2.212030590E-1
1.165355161E0,-1.445111871E0,1.273387432E0,-2.199813724E-1
1.167749900E0,-1.454885483E0,1.286215305E0,-2.132620513E-1
1.170145421E0,-1.462215662E0,1.296599627E0,-2.077644169E-1
1.172541775E0,-1.477486849E0,1.304540634E0,-1.992125660E-1
1.174937244E0,-1.497644782E0,1.306373239E0,-1.869956106E-1
1.177331984E0,-1.523911238E0,1.302097321E0,-1.741678268E-1
1.179727504E0,-1.550177574E0,1.295377970E0,-1.582857966E-1
1.182123859E0,-1.580719948E0,1.292323709E0,-1.417929232E-1
1.184519327E0,-1.611262321E0,1.289269447E0,-1.253000498E-1
1.186914067E0,-1.641804695E0,1.294767141E0,-1.112505570E-1
1.189309640E0,-1.667460322E0,1.302708149E0,-9.781191498E-2
1.191705942E0,-1.694948435E0,1.316757679E0,-8.559497446E-2
1.194101463E0,-1.719993114E0,1.335693836E0,-7.154548168E-2
1.196496202E0,-1.740151167E0,1.351575971E0,-5.871769413E-2
1.198891723E0,-1.753666162E0,1.365014553E0,-4.588989913E-2
1.201288077E0,-1.764661431E0,1.376620650E0,-3.245126083E-2
1.203683546E0,-1.771991491E0,1.388226748E0,-1.962346770E-2
1.206078286E0,-1.770159006E0,1.403497934E0,-6.872031372E-4
1.208473807E0,-1.764661431E0,1.416325688E0,1.275143679E-2
1.210870161E0,-1.753666162E0,1.426710129E0,2.863346599E-2
1.213265629E0,-1.738318563E0,1.427320957E0,4.390464723E-2
1.215660369E0,-1.717549801E0,1.424877644E0,5.428905040E-2
1.218055890E0,-1.696780920E0,1.417547464E0,6.772769243E-2
1.220452244E0,-1.670514584E0,1.407773852E0,8.238802105E-2
1.222847713E0,-1.642415524E0,1.395556927E0,8.971819282E-2
1.225242452E0,-1.609429836E0,1.390059352E0,9.765920788E-2
1.227637973E0,-1.574611545E0,1.388837576E0,1.031568274E-1
1.230034327E0,-1.536738992E0,1.396778584E0,1.104869992E-1
1.232429796E0,-1.505585790E0,1.401054502E0,1.165954694E-1
1.234824536E0,-1.467102408E0,1.400443673E0,1.202605516E-1
1.237220057E0,-1.437781692E0,1.404108763E0,1.227039397E-1
1.239616411E0,-1.407239318E0,1.404108763E0,1.245364845E-1
1.242011879E0,-1.380972981E0,1.407773852E0,1.263690293E-1
1.244406619E0,-1.360204101E0,1.411438942E0,1.288124174E-1
1.246802140E0,-1.342489600E0,1.409606457E0,1.330883503E-1
1.249198494E0,-1.325996637E0,1.405941367E0,1.336991936E-1
1.251593963E0,-1.316833973E0,1.399832845E0,1.318666488E-1
1.253988702E0,-1.313779712E0,1.386394262E0,1.300341040E-1
1.256384223E0,-1.307671309E0,1.377842307E0,1.196497083E-1
1.258780577E0,-1.308892965E0,1.371123075E0,1.104869992E-1
1.261176046E0,-1.309503794E0,1.375398993E0,1.019351333E-1
1.263570786E0,-1.310114622E0,1.385172486E0,9.155073017E-2
1.265966307E0,-1.311336398E0,1.393113494E0,8.055548370E-2
1.268362661E0,-1.309503794E0,1.398000360E0,6.894938648E-2
1.270758129E0,-1.306449533E0,1.401054502E0,5.245650932E-2
1.273152869E0,-1.304617047E0,1.399832845E0,4.023956135E-2
1.275548390E0,-1.302784443E0,1.399222016E0,2.680092305E-2
1.277944796E0,-1.299730301E0,1.396167755E0,1.214058883E-2
1.280340213E0,-1.297286868E0,1.391891837E0,-6.872031372E-4
1.282735004E0,-1.298508525E0,1.390670180E0,-1.107160654E-2
1.285130525E0,-1.293621778E0,1.391281009E0,-1.779092662E-2
1.287526879E0,-1.294232607E0,1.387005091E0,-2.573194169E-2
1.289922348E0,-1.293010950E0,1.377231479E0,-2.939702384E-2
1.292317088E0,-1.294232607E0,1.363792896E0,-2.878617682E-2
1.294712609E0,-1.296065211E0,1.342413187E0,-2.634278871E-2
1.297108963E0,-1.297286868E0,1.319200993E0,-2.084516361E-2
1.299504432E0,-1.297286868E0,1.294767141E0,-9.849912487E-3
1.301899171E0,-1.299119353E0,1.268500686E0,2.367033157E-3
1.304294692E0,-1.300341129E0,1.252007842E0,2.130329795E-2
1.306691046E0,-1.297897696E0,1.239790916E0,4.695888236E-2
1.309086515E0,-1.297286868E0,1.228795648E0,7.872293890E-2
1.311481254E0,-1.291178346E0,1.222687125E0,1.147629321E-1
1.313876775E0,-1.283848286E0,1.222687125E0,1.551551968E-1
1.316273129E0,-1.272242069E0,1.222687125E0,2.009687424E-1
1.318668598E0,-1.253916740E0,1.212913632E0,2.431172132E-1
1.321063338E0,-1.240478039E0,1.204361677E0,2.828222811E-1
1.323458859E0,-1.222763538E0,1.196420670E0,3.243598938E-1
1.325855213E0,-1.208103180E0,1.186036348E0,3.585673273E-1
1.328250682E0,-1.198329568E0,1.180538654E0,3.933856487E-1
1.330645421E0,-1.189166903E0,1.184814572E0,4.239279926E-1
1.333040942E0,-1.186723471E0,1.195199013E0,4.495835900E-1
1.335437296E0,-1.184890985E0,1.214135289E0,4.752391577E-1
1.337832765E0,-1.186723471E0,1.239179969E0,5.021164417E-1
1.340227504E0,-1.190388560E0,1.261781335E0,5.222744346E-1
1.342623025E0,-1.195886254E0,1.283161044E0,5.424323678E-1
1.345019379E0,-1.208103180E0,1.300264716E0,5.595360994E-1
1.347414848E0,-1.222152710E0,1.319200993E0,5.754181147E-1
1.349809588E0,-1.239867210E0,1.337526441E0,5.858024955E-1
1.352205109E0,-1.264301062E0,1.355851889E0,5.900784731E-1
1.354601463E0,-1.291178346E0,1.373566389E0,5.894675851E-1
1.356996932E0,-1.318055630E0,1.388226748E0,5.809157491E-1
1.359391671E0,-1.348598003E0,1.394946098E0,5.680879354E-1
1.361787192E0,-1.380362034E0,1.402276278E0,5.528167486E-1
1.364183546E0,-1.410293579E0,1.399832845E0,5.405998230E-1
1.366579015E0,-1.443279386E0,1.399832845E0,5.326588154E-1
1.368973807E0,-1.475043416E0,1.401665449E0,5.302154422E-1
1.371369275E0,-1.506807446E0,1.451143980E0,5.405998230E-1
1.373765629E0,-1.539182425E0,1.556820631E0,5.430431962E-1
1.376161098E0,-1.571557283E0,1.599045396E0,5.332696438E-1
1.378555838E0,-1.610651493E0,1.542160273E0,5.155550838E-1
1.380951411E0,-1.653410792E0,1.454198241E0,5.008947253E-1
1.383347765E0,-1.697391868E0,1.376620650E0,4.947862923E-1
1.385743234E0,-1.738929391E0,1.306373239E0,5.094466209E-1
1.388137973E0,-1.787262678E0,1.239790916E0,5.351021886E-1
1.390533494E0,-1.831854582E0,1.184203744E0,5.827482939E-1
1.392929848E0,-1.870948792E0,1.137779355E0,6.420004964E-1
1.395325317E0,-1.900880337E0,1.106015325E0,7.091936469E-1
1.397720057E0,-1.922259927E0,1.080359697E0,7.831062078E-1
1.400115577E0,-1.933255196E0,1.054704189E0,8.576295376E-1
1.402511932E0,-1.936920285E0,1.021718383E0,9.272661209E-1
1.404907400E0,-1.928979278E0,9.771265388E-1,9.938485026E-1
1.407302140E0,-1.912486434E0,9.227611423E-1,1.054322362E0
1.409697661E0,-1.884998322E0,8.549571037E-1,1.105633497E0
1.412094015E0,-1.861175299E0,7.731035352E-1,1.149003744E0
1.414489484E0,-1.836741328E0,6.894174814E-1,1.190541267E0
1.416884223E0,-1.813529134E0,6.136724353E-1,1.224137902E0
1.419279744E0,-1.789095283E0,5.489225984E-1,1.256512761E0
1.421676098E0,-1.765272260E0,5.031090975E-1,1.288887739E0
1.424071567E0,-1.746335983E0,4.719558656E-1,1.315154195E0
1.426466307E0,-1.735875249E0,4.475219846E-1,1.335922956E0
1.428861827E0,-1.727323294E0,4.304182529E-1,1.354859233E0
1.431258182E0,-1.727323294E0,4.169796109E-1,1.370741248E0
1.433653650E0,-1.730988383E0,3.992650509E-1,1.384790778E0
1.436048390E0,-1.735875249E0,3.784962296E-1,1.390899181E0
1.438443911E0,-1.751222730E0,3.552840352E-1,1.393342614E0
1.440840265E0,-1.767104745E0,3.332935274E-1,1.395785928E0
1.443235734E0,-1.790316939E0,3.186331987E-1,1.396396875E0
1.445630473E0,-1.812307477E0,3.204657435E-1,1.393342614E0
1.448025994E0,-1.837352157E0,3.424562514E-1,1.389677525E0
1.450422348E0,-1.863618612E0,3.681118190E-1,1.386623263E0
1.452817817E0,-1.885609150E0,3.980433345E-1,1.376849771E0
1.455212557E0,-1.912486434E0,4.304182529E-1,1.360356808E0
1.457608077E0,-1.933866024E0,4.627931416E-1,1.342031479E0
1.460004432E0,-1.940585375E0,4.976114631E-1,1.305380583E0
1.462399900E0,-1.925925016E0,5.318188667E-1,1.259567022E0
1.464794640E0,-1.894771814E0,5.568636060E-1,1.202147365E0
1.467190213E0,-1.838573933E0,5.788541436E-1,1.134343386E0
1.469586515E0,-1.756720304E0,6.002337933E-1,1.061652541E0
1.471981984E0,-1.646080613E0,6.277219057E-1,9.871291518E-1
1.474376775E0,-1.485427856E0,6.588751078E-1,9.064973593E-1
1.476772244E0,-1.282626510E0,7.016344070E-1,8.270871639E-1
1.479168598E0,-1.043174386E0,7.346202135E-1,7.537854910E-1
1.481564119E0,-7.438592315E-1,7.437828779E-1,6.768187881E-1
1.483958859E0,-3.504736125E-1,6.961368322E-1,5.858024955E-1
1.486354379E0,1.009425074E-1,6.509341002E-1,4.917320311E-1
1.488750734E0,5.505260825E-1,6.460473537E-1,4.068242610E-1
1.491146202E0,9.470423460E-1,6.826981902E-1,3.365768492E-1
1.493540942E0,1.247579217E0,7.749360800E-1,2.858765125E-1
1.495936463E0,1.443050265E0,9.019923210E-1,2.486148328E-1
1.498332817E0,1.566441417E0,1.065088511E0,2.144073844E-1
1.500728286E0,1.615920067E0,1.199474931E0,1.838650256E-1
1.503123025E0,1.595151305E0,1.272165775E0,1.600419879E-1
1.505518546E0,1.521849632E0,1.296599627E0,1.343100369E-1
1.507914900E0,1.418005586E0,1.272776604E0,1.056002229E-1
1.510310369E0,1.293392658E0,1.201918364E0,7.689040154E-2
1.512705109E0,1.162060499E0,1.106626153E0,4.023956135E-2
1.515100629E0,1.036836863E0,1.010723114E0,2.367033157E-3
1.517496984E0,9.219212532E-1,9.258154035E-1,-3.489464894E-2
1.519892452E0,8.156337738E-1,8.537353873E-1,-6.604786217E-2
1.522287192E0,7.246175408E-1,8.005917072E-1,-9.231429547E-2
1.524682713E0,6.482616663E-1,7.584432364E-1,-1.112505570E-1
1.527079067E0,5.822901726E-1,7.266791463E-1,-1.161373332E-1
1.529474536E0,5.297572613E-1,6.979693770E-1,-1.161373332E-1
1.531869275E0,4.924955964E-1,6.607076526E-1,-1.124722511E-1
1.534264796E0,4.601207078E-1,6.069530845E-1,-1.094180122E-1
1.536661150E0,4.301891923E-1,5.379273891E-1,-1.063637808E-1
1.539056619E0,4.075878263E-1,4.615714550E-1,-1.020878479E-1
1.541451359E0,3.813214004E-1,3.846046925E-1,-9.659022093E-2
1.543846879E0,3.501681983E-1,3.186331987E-1,-8.192989230E-2
1.546243234E0,3.116848171E-1,2.758738995E-1,-4.711159319E-2
1.548638702E0,2.701472044E-1,2.502183020E-1,-8.017370477E-3
1.551033442E0,2.194468826E-1,2.276169658E-1,3.168770298E-2
1.553428963E0,1.571404636E-1,2.007396817E-1,6.833853573E-2
1.555825317E0,8.933641016E-2,1.653105468E-1,8.971819282E-2
1.558220786E0,1.298050396E-2,1.280488521E-1,1.001025960E-1
1.560615525E0,-6.887302548E-2,9.139802307E-2,9.277242422E-2
1.563011046E0,-1.495048702E-1,6.879667193E-2,7.689040154E-2
1.565407400E0,-2.283041626E-1,5.108210072E-2,4.390464723E-2
1.567802869E0,-3.022166789E-1,5.230379477E-2,1.756185899E-3
1.570197609E0,-3.694098890E-1,7.001836598E-2,-4.466820508E-2
1.572593129E0,-4.286620617E-1,1.005607322E-1,-1.002553031E-1
1.574989484E0,-4.793623984E-1,1.414874941E-1,-1.588966399E-1
1.577384952E0,-5.245651007E-1,1.879118830E-1,-2.242573053E-1
1.579779692E0,-5.606050491E-1,2.343362868E-1,-3.018349111E-1
1.582175265E0,-5.917583108E-1,2.752630413E-1,-3.788016438E-1
1.584571567E0,-6.174138784E-1,3.100813329E-1,-4.637094140E-1
1.586967036E0,-6.363501549E-1,3.369586170E-1,-5.486171842E-1
1.589361775E0,-6.516213417E-1,3.607816696E-1,-6.304707527E-1
1.591757296E0,-6.638382673E-1,3.723877668E-1,-7.092700005E-1
1.594153650E0,-6.766660213E-1,3.864372373E-1,-7.813500166E-1
1.596549119E0,-6.852179170E-1,4.029301107E-1,-8.460997939E-1
1.598943911E0,-6.925480962E-1,4.291965663E-1,-9.059628248E-1
1.601339432E0,-6.943806410E-1,4.634039998E-1,-9.609391093E-1
1.603735786E0,-6.949914694E-1,5.024982095E-1,-1.012250304E0
1.606131254E0,-6.870504618E-1,5.379273891E-1,-1.053176999E0
1.608525994E0,-6.736118197E-1,5.721347928E-1,-1.093492985E0
1.610921515E0,-6.565080881E-1,6.075639725E-1,-1.125257015E0
1.613317869E0,-6.375718117E-1,6.484907269E-1,-1.155188560E0
1.615713338E0,-6.161921620E-1,6.961368322E-1,-1.182065845E0
1.618108077E0,-5.935907960E-1,7.370635867E-1,-1.204667091E0
1.620503598E0,-5.777087808E-1,7.645516992E-1,-1.233376980E0
1.622899952E0,-5.581616759E-1,7.798228860E-1,-1.253534913E0
1.625295421E0,-5.471664071E-1,7.804337144E-1,-1.277968764E0
1.627690161E0,-5.422796607E-1,7.804337144E-1,-1.297515988E0
1.630085682E0,-5.325061083E-1,7.822662592E-1,-1.310954571E0
1.632482036E0,-5.251759291E-1,7.792120576E-1,-1.318895578E0
1.634877504E0,-5.209000111E-1,7.682167888E-1,-1.316452146E0
1.637272244E0,-5.074613690E-1,7.370635867E-1,-1.309122086E0
1.639667765E0,-4.915793240E-1,6.936933994E-1,-1.292018294E0
1.642064119E0,-4.756973088E-1,6.362738013E-1,-1.271249533E0
1.644459588E0,-4.573718905E-1,5.678588748E-1,-1.249258995E0
1.646854327E0,-4.268295169E-1,4.805077314E-1,-1.228490233E0
1.649249848E0,-3.877353072E-1,3.797179163E-1,-1.208943129E0
1.651646202E0,-3.370349705E-1,2.709871233E-1,-1.194282770E0
1.654041671E0,-2.832804024E-1,1.671430767E-1,-1.175346494E0
1.656436411E0,-2.344126403E-1,7.490514219E-2,-1.155799389E0
1.658831932E0,-1.947075576E-1,-4.504998680E-3,-1.126478672E0
1.661228286E0,-1.696628332E-1,-7.291989028E-2,-1.092271209E0
1.663623754E0,-1.415638477E-1,-1.431673318E-1,-1.067226529E0
1.666018494E0,-1.067455560E-1,-2.237991691E-1,-1.051344514E0
1.668414015E0,-5.726693198E-2,-3.062635362E-1,-1.046457767E0
1.670810369E0,-9.009997360E-3,-3.777326643E-1,-1.037294984E0
1.673205838E0,3.741439432E-2,-4.339306355E-1,-1.039738417E0
1.675600577E0,7.406523079E-2,-4.748573899E-1,-1.044625163E0
1.677996098E0,1.021642014E-1,-4.962370396E-1,-1.050122738E0
1.680392452E0,1.217113137E-1,-5.182275176E-1,-1.061118007E0
1.682787921E0,1.388150454E-1,-5.328878760E-1,-1.075167537E0
1.685182661E0,1.522536725E-1,-5.469373465E-1,-1.102044821E0
1.687578182E0,1.595838517E-1,-5.481590629E-1,-1.138084769E0
1.689974536E0,1.644706279E-1,-5.408288836E-1,-1.182065845E0
1.692370004E0,1.730224788E-1,-5.267794132E-1,-1.245593905E0
1.694764744E0,1.754658818E-1,-5.096756816E-1,-1.325004101E0
1.697160265E0,1.327065676E-1,-4.259895980E-1,-1.370817661E0
1.699556619E0,2.397575416E-2,-3.178696334E-1,-1.352492213E0
1.701952088E0,-9.269607067E-2,-2.445679754E-1,-1.312176228E0
1.704346827E0,-1.757712960E-1,-1.895917207E-1,-1.260865092E0
1.706742348E0,-1.873773932E-1,-1.749313772E-1,-1.171681404E0
1.709138702E0,-1.458397806E-1,-1.254527569E-1,-1.080054283E0
1.711534171E0,-8.475505561E-2,-7.902836055E-2,-1.006752610E0
1.713928911E0,-7.177455351E-3,-2.771719359E-2,-9.682692885E-1
1.716324432E0,6.429167092E-2,1.626380906E-2,-9.633824825E-1
1.718720786E0,1.259872466E-1,5.596888065E-2,-1.001255035E0
1.721116254E0,1.852394342E-1,8.467870206E-2,-1.059285522E0
1.723511046E0,2.310529798E-1,1.072800532E-1,-1.119148493E0
1.725906567E0,2.573194206E-1,1.396549493E-1,-1.183287501E0
1.728302921E0,2.664821148E-1,1.921878159E-1,-1.256589174E0
1.730698390E0,2.560977042E-1,2.624352574E-1,-1.334166765E0
1.733093129E0,2.359397560E-1,3.485647142E-1,-1.406246781E0
1.735488650E0,2.060082406E-1,4.438568950E-1,-1.472218275E0
1.737885004E0,1.663031727E-1,5.403707623E-1,-1.538800597E0
1.740280473E0,1.296523362E-1,6.246677041E-1,-1.604772091E0
1.742675213E0,8.872556686E-2,6.894174814E-1,-1.672576189E0
1.745070734E0,5.879404768E-2,7.346202135E-1,-1.734271765E0
1.747467088E0,3.985778242E-2,7.614974380E-1,-1.784972072E0
1.749862557E0,3.008422814E-2,7.688276172E-1,-1.813681841E0
1.752257296E0,2.153236605E-2,7.517238855E-1,-1.817346931E0
1.754652817E0,1.603474095E-2,7.162947655E-1,-1.805740833E0
1.757049171E0,2.214321308E-2,6.558209062E-1,-1.779474378E0
1.759444640E0,2.214321308E-2,5.794649720E-1,-1.731828332E0
1.761839379E0,3.436015919E-2,4.786751866E-1,-1.675019503E0
1.764234900E0,5.390727147E-2,3.546731770E-1,-1.601107001E0
1.766631254E0,8.017370105E-2,2.068481594E-1,-1.519253492E0
1.769026723E0,1.162136942E-1,4.924955964E-2,-1.437399983E0
1.771421463E0,1.534753740E-1,-1.175117418E-1,-1.352492213E0
1.773816984E0,1.980672181E-1,-2.744994760E-1,-1.270027757E0
1.776213338E0,2.426590770E-1,-4.058316350E-1,-1.191228509E0
1.778608807E0,2.866400778E-1,-4.669163823E-1,-1.122202754E0
1.781003546E0,3.190149665E-1,-4.400390983E-1,-1.068448186E0
1.783399067E0,3.513898849E-1,-3.710133433E-1,-1.017747879E0
1.785795421E0,3.880407214E-1,-3.117611706E-1,-9.786536694E-1
1.788190890E0,4.283566475E-1,-2.738886476E-1,-9.572740197E-1
1.790585629E0,4.631749392E-1,-2.647259235E-1,-9.591065645E-1
1.792981150E0,4.943281412E-1,-2.622825503E-1,-9.798753858E-1
1.795377504E0,5.175403357E-1,-2.531198263E-1,-1.017137051E0
1.797772973E0,4.839437306E-1,-1.169008911E-1,-1.100823164E0
1.800167713E0,4.033119082E-1,8.651123941E-2,-1.268806100E0
1.802563234E0,3.544441164E-1,2.373905182E-1,-1.400749087E0
1.804959588E0,3.434488773E-1,3.687226772E-1,-1.532081246E0
1.807355057E0,3.428380191E-1,4.805077314E-1,-1.650585651E0
1.809749796E0,3.520007432E-1,5.733565092E-1,-1.747710347E0
1.812145317E0,3.605526090E-1,6.564317346E-1,-1.820401192E0
1.814541671E0,3.733803928E-1,7.474479675E-1,-1.861328006E0
1.816937140E0,3.782671690E-1,8.561787605E-1,-1.891259432E0
1.819331879E0,3.709369898E-1,9.575794339E-1,-1.915693402E0
1.821727452E0,3.587200642E-1,1.050428271E0,-1.941959739E0
1.824123754E0,3.550549746E-1,1.133503437E0,-1.990827560E0
1.826519223E0,3.623851240E-1,1.190923095E0,-2.051912308E0
1.828913963E0,3.825430870E-1,1.219022036E0,-2.115440369E0
1.831309536E0,4.039227366E-1,1.225741386E0,-2.178968430E0
1.833705890E0,4.283566475E-1,1.225741386E0,-2.228447199E0
1.836101359E0,4.497362971E-1,1.234293222E0,-2.249216080E0
1.838496098E0,4.753918648E-1,1.248953581E0,-2.235777378E0
1.840891619E0,5.150969625E-1,1.253840327E0,-2.172860146E0
1.843287973E0,5.529694557E-1,1.235514879E0,-2.076346159E0
1.845683442E0,5.822901726E-1,1.189701438E0,-1.962728620E0
1.848078182E0,6.079457402E-1,1.104182720E0,-1.872934103E0
1.850473702E0,6.342121959E-1,9.917868972E-1,-1.786193728E0
1.852870057E0,6.617003083E-1,8.616763949E-1,-1.714113712E0
1.855265525E0,7.026270628E-1,7.303442359E-1,-1.631038547E0
1.857660265E0,7.624900937E-1,5.825192332E-1,-1.536357164E0
1.860055786E0,8.144121170E-1,4.414134920E-1,-1.431902289E0
1.862452140E0,8.577822447E-1,3.143572807E-1,-1.342107773E0
1.864847609E0,8.736643195E-1,2.202867866E-1,-1.303624392E0
1.867242348E0,8.412894011E-1,1.732515544E-1,-1.385477901E0
1.869637869E0,7.948650122E-1,1.695864648E-1,-1.498484731E0
1.872034223E0,7.606575489E-1,2.019613683E-1,-1.592555165E0
1.874429692E0,7.331694365E-1,2.777064443E-1,-1.677462935E0
1.876824432E0,7.105680704E-1,3.632250428E-1,-1.739158511E0
1.879219952E0,6.977402568E-1,4.084277451E-1,-1.778863549E0
1.881616307E0,7.007945180E-1,4.395809472E-1,-1.788637161E0
1.884011775E0,7.007945180E-1,4.634039998E-1,-1.734882593E0
1.886406515E0,6.959077120E-1,5.110501051E-1,-1.670743585E0
1.888802036E0,6.610894203E-1,5.867951512E-1,-1.629816890E0
1.891198390E0,6.036698222E-1,6.741462946E-1,-1.633481979E0
1.893593859E0,5.450284481E-1,7.523347735E-1,-1.650585651E0
1.895988598E0,5.273138881E-1,7.767686248E-1,-1.652418137E0
1.898384119E0,5.566345453E-1,7.309551239E-1,-1.599274516E0
1.900780473E0,5.963396430E-1,6.802547574E-1,-1.532081246E0
1.903175942E0,5.914528370E-1,6.698703766E-1,-1.500317216E0
1.905570682E0,5.303681493E-1,6.985802054E-1,-1.503982306E0
1.907966202E0,4.350759685E-1,7.401177883E-1,-1.544298172E0
1.910362557E0,3.471139669E-1,7.578324080E-1,-1.614545703E0
1.912758025E0,2.786990702E-1,7.071320415E-1,-1.672576189E0
1.915152765E0,2.579302490E-1,6.161158085E-1,-1.683571458E0
1.917548286E0,2.695363462E-1,4.939463735E-1,-1.651196480E0
1.919944640E0,2.725905776E-1,4.065952003E-1,-1.599885345E0
1.922340109E0,2.451024652E-1,3.656684458E-1,-1.574229717E0
1.924734848E0,1.840177327E-1,3.668901324E-1,-1.574840546E0
1.927130369E0,1.229330078E-1,3.821613193E-1,-1.615767360E0
1.929526723E0,5.573981255E-2,4.059843719E-1,-1.679906368E0
1.931922192E0,1.542389300E-2,4.017084241E-1,-1.734271765E0
1.934316932E0,1.236965694E-2,3.729985952E-1,-1.756873131E0
1.936712504E0,3.619270027E-2,3.516189456E-1,-1.747710347E0
1.939108859E0,7.773031294E-2,3.723877668E-1,-1.712281227E0
1.941504327E0,8.078455180E-2,4.640148580E-1,-1.684182286E0
1.943899067E0,7.040014863E-2,5.525876880E-1,-1.671354413E0
1.946294588E0,5.879404768E-2,6.252785325E-1,-1.686625600E0
1.948690942E0,3.924693540E-2,7.028561234E-1,-1.722665668E0
1.951086411E0,2.458660305E-2,7.572215199E-1,-1.779474378E0
1.953481150E0,3.252761811E-2,7.957049012E-1,-1.841169953E0
1.955876671E0,5.390727147E-2,8.201388121E-1,-1.879653335E0
1.958273025E0,8.078455180E-2,8.305231929E-1,-1.891870260E0
1.960668494E0,1.125486046E-1,8.219713569E-1,-1.874766588E0
1.963063234E0,1.589729935E-1,7.828771472E-1,-1.837504864E0
1.965458754E0,1.919587553E-1,7.572215199E-1,-1.802686572E0
1.967855109E0,2.316638231E-1,7.169055939E-1,-1.779474378E0
1.970250577E0,2.591519356E-1,6.558209062E-1,-1.768479228E0
1.972645317E0,2.933593988E-1,5.935144424E-1,-1.770311713E0
1.975040838E0,3.257342875E-1,5.318188667E-1,-1.778863549E0
1.977437192E0,3.648285270E-1,4.695124626E-1,-1.787415385E0
1.979832661E0,3.910949528E-1,4.072060585E-1,-1.792302251E0
1.982227400E0,4.198047817E-1,3.394020200E-1,-1.792302251E0
1.984622921E0,4.381301999E-1,2.795389891E-1,-1.773976803E0
1.987019275E0,4.601207078E-1,2.386122048E-1,-1.733049989E0
1.989414744E0,4.918847680E-1,1.958529055E-1,-1.682960510E0
1.991809484E0,5.230379701E-1,1.433200389E-1,-1.631038547E0
1.994205004E0,5.602996349E-1,7.490514219E-2,-1.580949068E0
1.996601359E0,6.207735538E-1,2.420482226E-2,-1.534524679E0
1.998996827E0,6.684195995E-1,-2.527380548E-2,-1.490543723E0
2.001391567E0,7.197307944E-1,-9.002361447E-2,-1.443508387E0
2.003787088E0,7.698202729E-1,-1.315612346E-1,-1.402581692E0
2.006183442E0,8.205205798E-1,-1.572168171E-1,-1.361044049E0
2.008578911E0,8.748859763E-1,-1.798181683E-1,-1.321949840E0
2.010973650E0,9.188669920E-1,-1.773747802E-1,-1.288964033E0
2.013369171E0,9.708653688E-1,-1.682120711E-1,-1.261475921E0
2.015765525E0,1.013013840E0,-1.578276604E-1,-1.245593905E0
2.018160994E0,1.062492490E0,-1.504974961E-1,-1.238874555E0
2.020555734E0,1.111360192E0,-1.462215632E-1,-1.235209465E0
2.022951254E0,1.163282275E0,-1.614927500E-1,-1.237652898E0
2.025347609E0,1.220090985E0,-1.651578248E-1,-1.241928816E0
2.027743077E0,1.280564904E0,-1.792073101E-1,-1.253534913E0
2.030137817E0,1.317826629E0,-1.926459521E-1,-1.270027757E0
2.032533338E0,1.347147226E0,-1.883700192E-1,-1.287742376E0
2.034929692E0,1.366694331E0,-1.908134073E-1,-1.299348474E0
2.037325161E0,1.374024510E0,-1.645469815E-1,-1.309122086E0
2.039719900E0,1.399680138E0,-1.504974961E-1,-1.328669190E0
2.042115421E0,1.422281504E0,-1.315612346E-1,-1.356157303E0
2.044511775E0,1.425946593E0,-9.063446522E-2,-1.374482632E0
2.046907244E0,1.425946593E0,-5.703786388E-2,-1.384867072E0
2.049302036E0,1.441828609E0,-2.893888950E-2,-1.399527431E0
2.051697504E0,1.447326183E0,4.069769755E-2,-1.395251513E0
2.054093911E0,1.439385176E0,1.017824262E-1,-1.379980326E0
2.056489327E0,1.443050265E0,1.708081663E-1,-1.373871803E0
2.058884119E0,1.443050265E0,2.160108685E-1,-1.357989788E0
2.061279640E0,1.407010317E0,2.606027126E-1,-1.332945108E0
2.063675994E0,1.361196756E0,3.204657435E-1,-1.308511138E0
2.066071463E0,1.312328935E0,3.974325061E-1,-1.288964033E0
2.068466202E0,1.246357441E0,4.548521340E-1,-1.276747108E0
2.070861723E0,1.173666596E0,5.183802843E-1,-1.274303794E0
2.073258077E0,1.074098587E0,5.892385244E-1,-1.267584443E0
2.075653546E0,9.714761972E-1,6.613185406E-1,-1.259643435E0
2.078048286E0,8.577822447E-1,7.529456019E-1,-1.243150473E0
2.080443807E0,7.466080785E-1,8.500702977E-1,-1.222992539E0
2.082840161E0,6.354338527E-1,9.343672395E-1,-1.198558688E0
2.085235629E0,5.248705149E-1,1.011333942E0,-1.171070576E0
2.087630369E0,4.094203711E-1,1.077916384E0,-1.146636605E0
2.090025890E0,2.970244884E-1,1.133503437E0,-1.120981097E0
2.092422244E0,1.724116355E-1,1.156104803E0,-1.097768903E0
2.094817713E0,5.207473040E-2,1.182982087E0,-1.069669962E0
2.097212452E0,-8.353336155E-2,1.203140020E0,-1.036684155E0
2.099607973E0,-2.148655206E-1,1.220854640E0,-1.003698349E0
2.102004327E0,-3.376458287E-1,1.233071566E0,-9.511655569E-1
2.104399796E0,-4.506525695E-1,1.241623402E0,-8.784747124E-1
2.106794536E0,-5.459447503E-1,1.269111514E0,-7.947886586E-1
2.109190057E0,-6.241331697E-1,1.295988798E0,-7.098808885E-1
2.111586411E0,-6.791094542E-1,1.338748097E0,-6.335249543E-1
2.113981879E0,-7.163711190E-1,1.383950830E0,-5.547256470E-1
2.116376619E0,-7.420266867E-1,1.441981316E0,-4.728721380E-1
2.118772140E0,-7.572978735E-1,1.499400973E0,-3.873535097E-1
2.121168494E0,-7.640172243E-1,1.548879623E0,-3.048891425E-1
2.123563963E0,-7.768449783E-1,1.579421997E0,-2.242573053E-1
2.125958702E0,-7.921161652E-1,1.595914841E0,-1.472905427E-1
2.128354223E0,-8.061656952E-1,1.600267053E0,-7.337802649E-2
2.130750577E0,-8.208259940E-1,1.584919572E0,1.756185899E-3
2.133146046E0,-8.434273601E-1,1.533608437E0,7.017108053E-2
2.135540786E0,-8.874083757E-1,1.387615919E0,1.355317384E-1
2.137936307E0,-9.466605186E-1,1.170765162E0,1.960819662E-1
2.140332661E0,-1.026070714E0,8.952730298E-1,2.644968629E-1
2.142728129E0,-1.107313395E0,6.148941517E-1,3.371876776E-1
2.145122869E0,-1.180615067E0,3.589491248E-1,4.135435820E-1
2.147518390E0,-1.210546613E0,1.390441060E-1,4.837910235E-1
2.149914744E0,-1.159846187E0,-2.048628926E-1,4.587462842E-1
2.152310213E0,-1.026681542E0,-4.510343373E-1,3.494046330E-1
2.154704952E0,-8.287670016E-1,-5.194492340E-1,1.869192570E-1
2.157100473E0,-5.874823332E-1,-4.864634871E-1,2.374668792E-2
2.159496827E0,-3.345915973E-1,-4.608078897E-1,-1.069746241E-1
2.161892296E0,-9.452861547E-2,-4.528668821E-1,-1.961583197E-1
2.164287036E0,1.388150454E-1,-4.510343373E-1,-2.602972984E-1
2.166682557E0,3.452814221E-1,-4.406499267E-1,-2.804552615E-1
2.169078911E0,5.273138881E-1,-4.333197773E-1,-2.804552615E-1
2.171474379E0,6.794148684E-1,-4.333197773E-1,-2.621298432E-1
2.173869119E0,7.966975570E-1,-4.412607849E-1,-2.370850891E-1
2.176264640E0,8.797727823E-1,-4.565319717E-1,-2.089861184E-1
2.178660994E0,9.255862832E-1,-4.937936664E-1,-1.760003716E-1
2.181056463E0,9.391012788E-1,-5.273902416E-1,-1.460688561E-1
2.183451202E0,9.299386144E-1,-5.469373465E-1,-1.314085126E-1
2.185846723E0,8.858812451E-1,-5.634302497E-1,-1.198024154E-1
2.188243077E0,8.192988634E-1,-5.732038021E-1,-1.161373332E-1
2.190638546E0,7.295043468E-1,-5.719820857E-1,-1.155264899E-1
2.193033286E0,6.293253899E-1,-5.640410781E-1,-1.149156392E-1
2.195428807E0,5.083776116E-1,-5.481590629E-1,-1.155264899E-1
2.197825161E0,3.770454824E-1,-5.267794132E-1,-1.173590273E-1
2.200220629E0,2.402156889E-1,-5.133407712E-1,-1.185807213E-1
2.202615369E0,9.361234307E-2,-5.035672188E-1,-1.253000498E-1
2.205010890E0,-4.566083103E-2,-4.919611216E-1,-1.301868260E-1
2.207407244E0,-1.812689304E-1,-4.766899347E-1,-1.350736022E-1
2.209802713E0,-3.040492237E-1,-4.632512927E-1,-1.332410574E-1
2.212197452E0,-4.060607255E-1,-4.479801059E-1,-1.283542812E-1
2.214592973E0,-4.897467792E-1,-4.308763742E-1,-1.198024154E-1
2.216989327E0,-5.459447503E-1,-4.143835008E-1,-1.143047959E-1
2.219384796E0,-5.789304972E-1,-3.905604780E-1,-1.081963181E-1
2.221779536E0,-5.911474228E-1,-3.752892911E-1,-1.057529300E-1
2.224175057E0,-5.801522136E-1,-3.575747013E-1,-1.069746241E-1
2.226571411E0,-5.618267655E-1,-3.429143727E-1,-1.051420867E-1
2.228966879E0,-5.233433843E-1,-3.258106709E-1,-1.069746241E-1
2.231361619E0,-4.744756222E-1,-3.123720288E-1,-1.057529300E-1
2.233757140E0,-4.201101959E-1,-3.038201630E-1,-1.008661538E-1
2.236153494E0,-3.578037918E-1,-2.897706628E-1,-9.964445978E-2
2.238548963E0,-2.930539846E-1,-2.781645656E-1,-9.048175067E-2
2.240943702E0,-2.252499312E-1,-2.683910131E-1,-7.887565345E-2
2.243339223E0,-1.605001241E-1,-2.555632293E-1,-6.910209358E-2
2.245735577E0,-9.880454093E-2,-2.451788187E-1,-5.749600008E-2
2.248131046E0,-4.382828996E-2,-2.311293334E-1,-4.772244394E-2
2.250525786E0,3.206948051E-3,-2.207449228E-1,-3.672719002E-2
2.252921307E0,3.924693540E-2,-2.085279822E-1,-2.695363574E-2
2.255317661E0,6.429167092E-2,-1.944784969E-1,-1.534753758E-2
2.257713129E0,7.834116369E-2,-1.785964668E-1,-1.298050396E-3
2.260107921E0,8.383878320E-2,-1.639361382E-1,1.152974181E-2
2.262503390E0,8.322793990E-2,-1.437781751E-1,2.374668792E-2
2.264899744E0,7.650861889E-2,-1.285069883E-1,3.718532622E-2
2.267295265E0,6.245913357E-2,-1.077381819E-1,4.634803534E-2
2.269690004E0,4.474456236E-2,-9.124530852E-2,5.306735635E-2
2.272085473E0,2.886253223E-2,-7.169819623E-2,5.551074445E-2
2.274481827E0,7.482878864E-3,-5.398362502E-2,5.673243850E-2
2.276877348E0,-1.145338640E-2,-3.138227761E-2,5.673243850E-2
2.279272088E0,-3.161134571E-2,-1.183516532E-2,5.978667364E-2
2.281667609E0,-4.504998401E-2,7.101099472E-3,5.734328553E-2
2.284063963E0,-5.726693198E-2,2.603736520E-2,5.428905040E-2
2.286459379E0,-6.887302548E-2,4.130854458E-2,5.367820337E-2
2.288854171E0,-7.498150319E-2,5.535803363E-2,5.367820337E-2
2.291249692E0,-7.314895838E-2,6.268820167E-2,5.123481527E-2
2.293646046E0,-7.437065244E-2,7.490514219E-2,5.001311749E-2
2.296041515E0,-7.192726433E-2,8.651123941E-2,5.245650932E-2
2.298436254E0,-6.276455522E-2,9.384141117E-2,5.367820337E-2
2.300831775E0,-5.115845799E-2,1.011715755E-1,5.612159148E-2
2.303228129E0,-4.443913698E-2,1.060583517E-1,6.100837141E-2
2.305623598E0,-8.399149403E-3,1.249946207E-1,8.605311066E-2
2.308018338E0,4.474456236E-2,1.482068151E-1,1.336991936E-1
2.310413859E0,1.027750522E-1,1.616454571E-1,1.740914732E-1
2.312810213E0,1.601946950E-1,1.732515544E-1,2.009687424E-1
2.315205682E0,2.249445021E-1,1.860793531E-1,2.089097649E-1
2.317600421E0,2.964136302E-1,1.976854503E-1,2.034121305E-1
2.319995942E0,3.611634374E-1,2.068481594E-1,1.869192570E-1
2.322392296E0,4.210264683E-1,2.129566222E-1,1.569877416E-1
2.324787765E0,4.766135812E-1,2.111240774E-1,1.233147904E-1
2.327182504E0,5.425850749E-1,2.172325552E-1,8.116632700E-2
2.329578025E0,6.006155610E-1,2.294494957E-1,3.474193811E-2
2.331974379E0,6.580352187E-1,2.215084881E-1,-2.023431472E-2
2.334369848E0,7.197307944E-1,2.160108685E-1,-8.315158635E-2
2.336764588E0,7.838697433E-1,2.245627195E-1,-1.643942744E-1
2.339160109E0,8.669449687E-1,2.502183020E-1,-2.511345744E-1
2.341556463E0,9.586484432E-1,2.905342281E-1,-3.494809866E-1
2.343951932E0,1.053940535E0,3.406237066E-1,-4.514924884E-1
2.346346671E0,1.154730439E0,4.200338423E-1,-5.473955274E-1
2.348742192E0,1.259796143E0,5.654155016E-1,-6.243622303E-1
2.351138546E0,1.339817047E0,6.808656454E-1,-7.092700005E-1
2.353534015E0,1.370359421E0,7.407286763E-1,-7.996754050E-1
2.355928754E0,1.369137764E0,7.407286763E-1,-8.803072572E-1
2.358324275E0,1.332486987E0,6.796439290E-1,-9.450570941E-1
2.360720629E0,1.278732419E0,5.990120769E-1,-1.004920125E0
2.363116098E0,1.194435477E0,5.134934783E-1,-1.063561440E0
2.365510838E0,1.118079543E0,4.634039998E-1,-1.126478672E0
2.367906359E0,1.032560945E0,4.298073947E-1,-1.193060994E0
2.370302713E0,9.409338236E-1,4.163687527E-1,-1.261475921E0
2.372698182E0,8.419002295E-1,4.108711481E-1,-1.325614929E0
2.375092921E0,7.343910933E-1,3.937674165E-1,-1.386088729E0
2.377488442E0,6.116108298E-1,3.778853714E-1,-1.447784305E0
2.379884796E0,4.778352678E-1,3.546731770E-1,-1.501538873E0
2.382280265E0,3.397837877E-1,3.326826990E-1,-1.558347702E0
2.384675004E0,2.011214644E-1,3.119138777E-1,-1.610269785E0
2.387070525E0,7.467607409E-2,2.862583101E-1,-1.665856838E0
2.389466879E0,-4.016320780E-2,2.569376230E-1,-1.709837794E0
2.391862348E0,-1.165191159E-1,6.085565686E-2,-1.623097539E0
2.394257088E0,-2.032594234E-1,-9.391776286E-3,-1.564456224E0
2.396652609E0,-2.893888950E-1,5.268557463E-3,-1.541244030E0
2.399048963E0,-3.419217467E-1,1.504211407E-2,-1.532692075E0
2.401444432E0,-3.651339412E-1,1.870719716E-2,-1.510090828E0
2.403839171E0,-3.547495604E-1,7.711946499E-3,-1.499095559E0
2.406234692E0,-3.333698809E-1,-1.672194339E-2,-1.494208694E0
2.408631046E0,-2.930539846E-1,-5.825955793E-2,-1.505814791E0
2.411026515E0,-2.411319613E-1,-1.034622565E-1,-1.516810060E0
2.413421254E0,-1.794363856E-1,-1.614927500E-1,-1.527194500E0
2.415816775E0,-1.091889441E-1,-2.115822136E-1,-1.540022254E0
2.418213129E0,-4.688252881E-2,-2.604500055E-1,-1.554071784E0
2.420608598E0,1.969982497E-2,-2.964899838E-1,-1.571786404E0
2.423003338E0,7.406523079E-2,-3.172588050E-1,-1.595609426E0
2.425398859E0,1.296523362E-1,-3.209238648E-1,-1.623097539E0
2.427795213E0,1.632489264E-1,-3.209238648E-1,-1.642644644E0
2.430190682E0,1.858502775E-1,-3.166479468E-1,-1.653639913E0
2.432585421E0,1.992889196E-1,-3.044309914E-1,-1.652418137E0
2.434980942E0,2.078407854E-1,-3.001550734E-1,-1.644477129E0
2.437377296E0,2.121167034E-1,-2.848838866E-1,-1.626762629E0
2.439772765E0,2.170034945E-1,-2.732777894E-1,-1.611491442E0
2.442167504E0,2.273878902E-1,-2.543415129E-1,-1.592555165E0
2.444563025E0,2.347180545E-1,-2.244100124E-1,-1.576062322E0
2.446959379E0,2.231119573E-1,-1.639361382E-1,-1.547963262E0
2.449354848E0,2.182251811E-1,-9.674293548E-2,-1.513755918E0
2.451749588E0,1.827960461E-1,-4.115583375E-2,-1.472218275E0
2.454145109E0,1.675248593E-1,-3.894151188E-3,-1.437399983E0
2.456541463E0,1.730224788E-1,8.933641016E-3,-1.410522699E0
2.458936932E0,1.889045089E-1,3.092414327E-2,-1.397083998E0
2.461331671E0,2.072299272E-1,6.635328382E-2,-1.394640684E0
2.463727192E0,2.047865391E-1,1.372115612E-1,-1.384867072E0
2.466123546E0,1.589729935E-1,2.300603539E-1,-1.353713870E0
2.468519015E0,1.156028435E-1,2.990860939E-1,-1.293850899E0
2.470913754E0,1.113269106E-1,2.740413547E-1,-1.241928816E0
2.473309275E0,1.461452097E-1,2.251735777E-1,-1.218716621E0
2.475705629E0,1.510319859E-1,2.508291602E-1,-1.207721353E0
2.478101098E0,1.217113137E-1,2.709871233E-1,-1.196726084E0
2.480495838E0,1.107160673E-1,2.789281309E-1,-1.186341763E0
2.482891359E0,8.933641016E-2,2.685437202E-1,-1.161907792E0
2.485287713E0,7.711946964E-2,2.697654068E-1,-1.130143762E0
2.487683182E0,3.680354729E-2,3.045837283E-1,-1.086162806E0
2.490077921E0,-1.328592747E-2,3.094705045E-1,-1.027521491E0
2.492473442E0,-2.367033064E-2,2.587701678E-1,-9.749885798E-1
2.494869796E0,-2.122694254E-2,2.080698460E-1,-9.365051985E-1
2.497265265E0,-5.299099907E-2,2.239518762E-1,-8.998543620E-1
2.499660004E0,-6.826218218E-2,2.068481594E-1,-8.748096228E-1
2.502055525E0,-5.299099907E-2,1.726407111E-1,-8.619818091E-1
2.504451879E0,-2.367033064E-2,1.518719047E-1,-8.277744055E-1
2.506847348E0,-1.152974218E-1,3.192440569E-1,-7.184327245E-1
2.509242088E0,-2.747285664E-1,4.963897467E-1,-5.602232814E-1
2.511637609E0,-2.838912606E-1,3.784962296E-1,-3.879643679E-1
2.514033963E0,-1.207950488E-1,2.044047713E-1,-2.425827235E-1
2.516429432E0,2.275406010E-2,1.873010397E-1,-1.460688561E-1
2.518824171E0,1.021642014E-1,2.349471301E-1,-1.100288630E-1
2.521219692E0,1.211004704E-1,2.056264579E-1,-1.106397063E-1
2.523616046E0,1.485885978E-1,1.408766508E-1,-1.387386769E-1
2.526011515E0,1.644706279E-1,1.286597103E-1,-1.485122442E-1
2.528406254E0,1.748550236E-1,1.225512326E-1,-1.350736022E-1
2.530801775E0,1.687465608E-1,1.225512326E-1,-1.179698780E-1
2.533198129E0,1.540862173E-1,1.372115612E-1,-9.414683282E-2
2.535593598E0,1.467560530E-1,1.616454571E-1,-7.154548168E-2
2.537988338E0,1.449235082E-1,1.555369794E-1,-4.527905211E-2
2.540383859E0,1.314848661E-1,1.683647782E-1,-2.267770469E-2
2.542780213E0,1.327065676E-1,1.701973230E-1,7.864658721E-3
2.545175682E0,1.302631795E-1,1.714190096E-1,4.512634128E-2
2.547570421E0,1.375933439E-1,1.732515544E-1,8.422056586E-2
2.549965942E0,1.339282542E-1,1.537044346E-1,1.184280142E-1
2.552362296E0,1.388150454E-1,1.439308822E-1,1.557660550E-1
2.554757765E0,1.363716573E-1,1.213295385E-1,1.856975704E-1
2.557152504E0,1.357607991E-1,1.036149636E-1,2.101314515E-1
2.559548025E0,1.339282542E-1,9.811734408E-2,2.327328026E-1
2.561944379E0,1.296523362E-1,9.872818738E-2,2.449497581E-1
2.564339848E0,1.259872466E-1,7.429429889E-2,2.522799075E-1
2.566734588E0,1.143811494E-1,6.696412712E-2,2.516690791E-1
2.569130109E0,1.107160673E-1,5.780142173E-2,2.498365343E-1
2.571526463E0,9.910997003E-2,2.909160033E-2,2.425063550E-1
2.573921932E0,8.872556686E-2,-8.780929260E-3,2.241809368E-1
2.576316671E0,7.284353673E-2,-6.948387716E-3,2.034121305E-1
2.578712192E0,6.001574174E-2,4.436278343E-2,2.247917950E-1
2.581108546E0,9.926267900E-3,8.834378421E-2,2.840439677E-1
2.583504015E0,3.741439432E-2,-3.993413970E-2,3.268032968E-1
2.585898754E0,7.589777559E-2,-1.120141149E-1,3.390202224E-1
2.588294275E0,8.200624585E-2,-9.674293548E-2,3.396310806E-1
2.590690629E0,9.239064902E-2,-9.979717433E-2,3.145863414E-1
2.593086098E0,1.070509851E-1,-1.150683537E-1,2.767138183E-1
2.595480838E0,1.235438585E-1,-1.382805556E-1,2.382304370E-1
2.597876359E0,1.437018216E-1,-1.266744435E-1,1.942494214E-1
2.600272713E0,1.510319859E-1,-1.028514057E-1,1.545443535E-1
2.602668182E0,1.601946950E-1,-1.083490327E-1,1.263690293E-1
2.605062921E0,1.919587553E-1,-1.407239437E-1,1.001025960E-1
2.607458442E0,1.974563748E-1,-9.368869662E-2,9.216158092E-2
2.609854796E0,1.705790907E-1,-7.719582319E-2,8.116632700E-2
2.612250265E0,1.760767251E-1,-9.613208473E-2,6.650599837E-2
2.614645004E0,1.699682474E-1,-7.658497244E-2,5.551074445E-2
2.617040525E0,1.736333370E-1,-6.742226332E-2,5.489989743E-2
2.619436879E0,2.041756958E-1,-2.832804248E-2,9.888090193E-2
2.621832348E0,1.858502775E-1,5.535803363E-2,1.893626451E-1
2.624227088E0,1.430909634E-1,3.397838026E-2,2.712161839E-1
2.626622609E0,1.944021434E-1,-1.614927500E-1,3.048127890E-1
2.629018963E0,2.304421216E-1,-1.804290116E-1,3.133646548E-1
2.631414432E0,2.188360244E-1,-1.217876747E-1,2.974826097E-1
2.633809171E0,2.047865391E-1,-1.150683537E-1,2.553341687E-1
2.636204692E0,2.005106062E-1,-1.107924208E-1,2.125748396E-1
2.638601046E0,1.901262105E-1,-1.034622565E-1,1.734806150E-1
2.640996515E0,1.821851879E-1,-8.086090535E-2,1.404185146E-1
2.643391254E0,1.754658818E-1,-7.475243509E-2,1.196497083E-1
2.645786775E0,1.760767251E-1,-1.022405624E-1,9.888090193E-2
2.648183129E0,1.834068894E-1,-1.034622565E-1,7.872293890E-2
2.650578598E0,1.852394342E-1,-7.658497244E-2,5.489989743E-2
2.652973338E0,1.882936656E-1,-6.009209901E-2,4.390464723E-2
2.655368859E0,1.730224788E-1,-3.687990457E-2,3.901786730E-2
2.657765213E0,1.748550236E-1,-4.726430774E-2,2.741177008E-2
2.660160682E0,1.638597846E-1,-2.283041552E-2,1.641651988E-2
2.662555421E0,1.595838517E-1,-3.894151188E-3,2.977880416E-3
2.664950942E0,1.504211426E-1,2.115058713E-2,-5.573981442E-3
2.667347296E0,1.479777545E-1,2.970244735E-2,-1.046075951E-2
2.669742765E0,1.455343664E-1,2.848075330E-2,-1.290414855E-2
2.672137504E0,1.394258887E-1,1.931804419E-2,-1.412584260E-2
2.674533025E0,1.272089481E-1,2.176143415E-2,-1.473669056E-2
2.676929379E0,1.198787764E-1,2.359397523E-2,-2.023431472E-2
2.679324848E0,1.003316641E-1,2.970244735E-2,-1.779092662E-2
2.681719588E0,9.910997003E-2,3.581092134E-2,-1.779092662E-2
2.684115109E0,5.879404768E-2,5.474718660E-2,-4.352286924E-3
2.686511463E0,1.236965694E-2,7.979192585E-2,2.924431302E-2
2.688906932E0,8.093725890E-3,6.390989572E-2,6.161921844E-2
2.691301671E0,-1.679830020E-3,4.924955964E-2,9.155073017E-2
2.693697192E0,-2.672456764E-2,6.024480984E-2,1.233147904E-1
2.696093546E0,-7.437065244E-2,7.001836598E-2,1.490467340E-1
2.698489015E0,-5.115845799E-2,-1.977618039E-2,1.667613089E-1
2.700883754E0,3.191677108E-2,-1.596602052E-1,1.844758689E-1
2.703279275E0,1.064401343E-1,-2.183015347E-1,1.899735034E-1
2.705675629E0,1.272089481E-1,-2.201340795E-1,1.801999360E-1
2.708071098E0,1.394258887E-1,-2.415137291E-1,1.569877416E-1
2.710465838E0,1.443126649E-1,-2.573957741E-1,1.367534250E-1
2.712861359E0,1.766875684E-1,-2.848838866E-1,1.233147904E-1
2.715257713E0,2.151709497E-1,-3.251998127E-1,1.123195365E-1
2.717653182E0,2.518217862E-1,-3.917821646E-1,1.019351333E-1
2.720047973E0,3.122956753E-1,-4.656946659E-1,8.055548370E-2
2.722443442E0,3.984251320E-1,-5.829773545E-1,3.107685409E-2
2.724839796E0,4.546230733E-1,-7.265264392E-1,-4.527905211E-2
2.727235265E0,5.431959033E-1,-8.896226883E-1,-1.448471546E-1
2.729630004E0,6.641436815E-1,-1.120599270E0,-2.841203213E-1
2.732025577E0,8.364025950E-1,-1.502989650E0,-4.612660408E-1
2.734421879E0,1.003851056E0,-1.883547544E0,-6.414659619E-1
2.736817400E0,1.196267962E0,-2.308697224E0,-8.082273006E-1
2.739212140E0,1.353255749E0,-2.777217150E0,-9.242882729E-1
2.741607661E0,1.452823877E0,-3.168770075E0,-9.682692885E-1
2.744003963E0,1.509632587E0,-3.464420319E0,-9.652150273E-1
2.746399432E0,1.513908625E0,-3.629959822E0,-9.328401089E-1
2.748794171E0,1.446715355E0,-3.637290001E0,-8.888590932E-1
2.751189744E0,1.331265211E0,-3.458311796E0,-8.546516895E-1
2.753586046E0,1.162060499E0,-3.160829067E0,-8.241093159E-1
2.755981567E0,9.720870852E-1,-2.763778448E0,-8.241093159E-1
2.758376307E0,7.783721089E-1,-2.298312902E0,-8.338828683E-1
2.760771827E0,6.250494719E-1,-1.785201073E0,-8.662577868E-1
2.763168129E0,5.022691488E-1,-1.367381573E0,-9.285641909E-1
2.765563598E0,3.813214004E-1,-9.678111076E-1,-8.845831752E-1
2.767958390E0,2.701472044E-1,-7.082010508E-1,-8.845831752E-1
2.770353911E0,2.078407854E-1,-5.102865100E-1,-8.974109888E-1
2.772750265E0,1.681357026E-1,-4.107184112E-1,-9.120712876E-1
2.775145734E0,1.693574041E-1,-4.168269038E-1,-9.285641909E-1
2.777540473E0,1.632489264E-1,-4.565319717E-1,-9.621607661E-1
2.779935942E0,1.834068894E-1,-5.115082264E-1,-1.008585215E0
2.782332348E0,1.876828223E-1,-5.884749889E-1,-1.051955342E0
2.784727817E0,1.925695986E-1,-6.581115723E-1,-1.092271209E0
2.787122557E0,2.096733153E-1,-7.271373272E-1,-1.122202754E0
2.789518077E0,2.292204350E-1,-8.034932017E-1,-1.133808851E0
2.791914432E0,2.487675399E-1,-8.890118003E-1,-1.135030508E0
2.794309848E0,2.664821148E-1,-9.843040109E-1,-1.128922105E0
2.796704640E0,2.951919436E-1,-1.074709415E0,-1.114872575E0
2.799100161E0,3.165715933E-1,-1.130372882E0,-1.089217067E0
2.801496515E0,3.196258247E-1,-1.162136912E0,-1.048901081E0
2.803891984E0,3.135173619E-1,-1.176186442E0,-1.014693618E0
2.806286723E0,2.994678617E-1,-1.178018928E0,-9.786536694E-1
2.808682244E0,2.799207568E-1,-1.160304427E0,-9.377269149E-1
2.811078598E0,2.506000996E-1,-1.130372882E0,-8.913025260E-1
2.813474067E0,2.322746664E-1,-1.082115889E0,-8.448781371E-1
2.815868807E0,1.980672181E-1,-1.014846325E0,-7.941777706E-1
2.818264327E0,1.724116355E-1,-9.403229952E-1,-7.312605381E-1
2.820660682E0,1.467560530E-1,-8.633562326E-1,-6.707866192E-1
2.823056150E0,1.223221645E-1,-7.857786417E-1,-6.145886779E-1
2.825450890E0,9.116895497E-2,-7.234722376E-1,-5.486171842E-1
2.827846411E0,6.734590977E-2,-6.660525799E-1,-4.820348322E-1
2.830242765E0,4.413371533E-2,-6.196281910E-1,-4.130091071E-1
2.832638234E0,2.947338112E-2,-5.774797201E-1,-3.445942104E-1
2.835032973E0,1.969982497E-2,-5.249468684E-1,-2.755684555E-1
2.837428494E0,1.359135192E-2,-4.614187479E-1,-1.961583197E-1
2.839824848E0,1.420219894E-2,-3.832302988E-1,-1.161373332E-1
2.842220317E0,1.175880991E-2,-3.087069392E-1,-3.550549597E-2
2.844615057E0,5.039489828E-3,-2.635042369E-1,3.352024406E-2
2.847010577E0,2.596100792E-3,-2.537306845E-1,8.422056586E-2
2.849406932E0,1.374406274E-3,-2.708344162E-1,1.056002229E-1
2.851802400E0,2.596100792E-3,-2.867164314E-1,1.208714023E-1
2.854197140E0,7.482878864E-3,-2.964899838E-1,1.373642832E-1
2.856592661E0,1.542389300E-2,-3.111503124E-1,1.496575773E-1
2.858989015E0,2.580829710E-2,-3.300865889E-1,1.588202864E-1
2.861384484E0,3.680354729E-2,-3.435252309E-1,1.679829955E-1
2.863779223E0,5.085303262E-2,-3.581855595E-1,1.734806150E-1
2.866174744E0,6.368082762E-2,-3.667374253E-1,1.783674061E-1
2.868571098E0,7.406523079E-2,-3.771218359E-1,1.832541823E-1
2.870966567E0,8.750387281E-2,-3.789543808E-1,1.875301152E-1
2.873361307E0,9.605573118E-2,-3.734567463E-1,1.905843467E-1
2.875756827E0,1.009425074E-1,-3.649048805E-1,1.948602796E-1
2.878153182E0,1.039967462E-1,-3.490228653E-1,1.973036677E-1
2.880548650E0,9.666658193E-2,-3.288649023E-1,1.973036677E-1
2.882943390E0,9.116895497E-2,-3.007659316E-1,1.985253543E-1
2.885338911E0,8.506047726E-2,-2.653367817E-1,1.997470558E-1
2.887735265E0,7.101099193E-2,-2.305184901E-1,2.028012872E-1
2.890130734E0,4.596625641E-2,-1.871483326E-1,1.924168915E-1
2.892525473E0,3.130592033E-2,-1.340046227E-1,1.924168915E-1
2.894920994E0,1.236965694E-2,-8.330429345E-2,1.905843467E-1
2.897317348E0,-1.679830020E-3,-3.504735976E-2,1.911951900E-1
2.899712817E0,-1.939439960E-2,1.076618303E-2,1.863084137E-1
2.902107557E0,-3.344388679E-2,5.169294775E-2,1.826433241E-1
2.904503077E0,-4.993676394E-2,8.956547827E-2,1.771457046E-1
2.906899432E0,-7.070557028E-2,1.194969937E-1,1.759240031E-1
2.909294900E0,-8.536590636E-2,1.500393599E-1,1.692046970E-1
2.911689640E0,-9.941539168E-2,1.689756215E-1,1.600419879E-1
2.914085161E0,-1.146865711E-1,1.866901964E-1,1.435490996E-1
2.916481515E0,-1.281252056E-1,2.007396817E-1,1.208714023E-1
2.918876984E0,-1.482831687E-1,2.251735777E-1,7.200361788E-2
2.921271723E0,-2.570139766E-1,2.508291602E-1,-4.833329096E-2
2.923667244E0,-3.388675153E-1,2.257844210E-1,-2.352525443E-1
2.926063598E0,-3.761292100E-1,1.748550311E-2,-4.252260625E-1
2.928459067E0,-3.370349705E-1,-2.954973653E-2,-5.186856985E-1
2.930853807E0,-2.673983872E-1,-2.954973653E-2,-5.431195498E-1
2.933249327E0,-1.916533262E-1,-5.337277800E-2,-5.247941613E-1
2.935645682E0,-1.244601309E-1,-9.979717433E-2,-4.740938246E-1
2.938041150E0,-5.665608495E-2,-1.651578248E-1,-4.007921517E-1
2.940435890E0,4.428642802E-3,-2.280751020E-1,-3.177169263E-1
2.942831411E0,6.184828654E-2,-2.903815210E-1,-2.273115367E-1
2.945227765E0,1.009425074E-1,-3.374167681E-1,-1.436254680E-1
2.947623234E0,1.339282542E-1,-3.704025149E-1,-7.826480269E-2
2.950017973E0,1.608055383E-1,-3.868953884E-1,-1.901262067E-2
2.952413494E0,1.864611208E-1,-3.978906274E-1,1.152974181E-2
2.954809848E0,1.925695986E-1,-4.333197773E-1,1.580567285E-2
2.957205317E0,1.846285909E-1,-4.510343373E-1,5.344913807E-4
2.959600057E0,1.827960461E-1,-4.455367327E-1,-3.130592173E-3
2.961995629E0,1.693574041E-1,-4.412607849E-1,9.086352773E-3
2.964391932E0,1.461452097E-1,-4.412607849E-1,8.475505747E-3
2.966787400E0,1.296523362E-1,-4.394282401E-1,2.313583903E-2
2.969182140E0,1.149920002E-1,-4.418716431E-1,4.268295318E-2
2.971577661E0,9.300149232E-2,-4.473692477E-1,5.917582661E-2
2.973974067E0,7.406523079E-2,-4.498126507E-1,7.566870749E-2
2.976369536E0,5.512896553E-2,-4.498126507E-1,9.277242422E-2
2.978764275E0,4.535540938E-2,-4.492017925E-1,1.178171635E-1
2.981159796E0,3.558185324E-2,-4.540885687E-1,1.312558055E-1
2.983556150E0,2.214321308E-2,-4.571428299E-1,1.379751265E-1
2.985951619E0,1.175880991E-2,-4.492017925E-1,1.391968131E-1
2.988346359E0,1.175880991E-2,-4.302655458E-1,1.379751265E-1
2.990741879E0,1.786728203E-2,-4.162160456E-1,1.385859698E-1
2.993138234E0,3.497100621E-2,-4.149943590E-1,1.441599578E-1
2.995533702E0,4.902049154E-2,-4.241570532E-1,1.478250325E-1
2.997928442E0,6.429167092E-2,-4.412607849E-1,1.521009654E-1
3.000323963E0,6.795676053E-2,-4.504235089E-1,1.502684206E-1
3.002720317E0,6.978929788E-2,-4.559211135E-1,1.472141892E-1
3.005115786E0,7.284353673E-2,-4.498126507E-1,1.441599578E-1
3.007510525E0,8.383878320E-2,-4.498126507E-1,1.422510594E-1
3.009906046E0,9.544488788E-2,-4.583645165E-1,1.410293579E-1
3.012302400E0,9.605573118E-2,-5.469373465E-1,9.338327497E-2
3.014697869E0,6.429167092E-2,-7.216396928E-1,3.413109109E-2
3.017092609E0,6.184828654E-2,-7.540146112E-1,2.863346599E-2
3.019488129E0,6.734590977E-2,-7.234722376E-1,4.818057641E-2
3.021884484E0,8.139539510E-2,-6.807129383E-1,6.772769243E-2
3.024279952E0,8.750387281E-2,-6.483380198E-1,8.299887180E-2
3.026674692E0,9.605573118E-2,-6.165739298E-1,9.277242422E-2
3.029070213E0,9.849911928E-2,-5.933617353E-1,1.001025960E-1
3.031466567E0,9.605573118E-2,-5.756471753E-1,1.031568274E-1
3.033862036E0,1.021642014E-1,-5.622085333E-1,1.043785289E-1
3.036256775E0,1.015533581E-1,-5.573217869E-1,1.031568274E-1
3.038652296E0,9.910997003E-2,-5.573217869E-1,1.037676781E-1
3.041048650E0,1.064401343E-1,-5.512133241E-1,1.019351333E-1
3.043444119E0,1.088835225E-1,-5.524349809E-1,1.007134393E-1
3.045838859E0,1.107160673E-1,-5.506024361E-1,9.827005118E-2
3.048234379E0,1.119377613E-1,-5.475482345E-1,9.949174523E-2
3.050630734E0,1.076618284E-1,-5.469373465E-1,9.704835713E-2
3.053026202E0,1.070509851E-1,-5.469373465E-1,9.949174523E-2
3.055420942E0,1.070509851E-1,-5.475482345E-1,9.521581978E-2
3.057816463E0,1.058292910E-1,-5.487698913E-1,9.399411827E-2
3.060212817E0,1.064401343E-1,-5.536566973E-1,9.338327497E-2
3.062608286E0,1.076618284E-1,-5.640410781E-1,8.788564801E-2
3.065003025E0,1.107160673E-1,-5.664844513E-1,9.032903612E-2
3.067398546E0,1.137702987E-1,-5.432722569E-1,9.277242422E-2
3.069794900E0,1.198787764E-1,-5.218926072E-1,9.704835713E-2
3.072190369E0,1.296523362E-1,-5.145624876E-1,9.765920788E-2
3.074585161E0,1.363716573E-1,-5.157841444E-1,9.765920788E-2
3.076980629E0,1.455343664E-1,-5.316661596E-1,9.032903612E-2
3.079376984E0,1.614163816E-1,-5.652627945E-1,7.872293890E-2
3.081772452E0,1.785201132E-1,-6.202390194E-1,6.650599837E-2
3.084167244E0,2.011214644E-1,-6.452837586E-1,5.856497958E-2
3.086562765E0,2.182251811E-1,-6.654417515E-1,5.001311749E-2
3.088959119E0,2.365505993E-1,-6.727718711E-1,4.451549426E-2
3.091354588E0,2.457133085E-1,-6.727718711E-1,4.023956135E-2
3.093749327E0,2.554868758E-1,-6.666634083E-1,3.779617324E-2
3.096144848E0,2.475458533E-1,-6.495596766E-1,3.840702027E-2
3.098541202E0,2.475458533E-1,-6.538356543E-1,4.146125913E-2
3.100936671E0,2.212794125E-1,-6.886539459E-1,4.268295318E-2
3.103331411E0,1.992889196E-1,-6.642200351E-1,5.673243850E-2
3.105726932E0,1.724116355E-1,-5.982485414E-1,7.078192383E-2
3.108123286E0,1.461452097E-1,-5.072323084E-1,6.956022978E-2
3.110518754E0,1.076618284E-1,-4.113292694E-1,7.811209559E-2
3.112913494E0,8.322793990E-2,-3.264214993E-1,9.216158092E-2
3.115309015E0,7.284353673E-2,-2.683910131E-1,1.135412306E-1
3.117705369E0,6.978929788E-2,-2.396811992E-1,1.343100369E-1
3.120100838E0,6.978929788E-2,-2.305184901E-1,1.459924877E-1
3.122495577E0,6.917845458E-2,-2.421245873E-1,1.545443535E-1
3.124891098E0,6.917845458E-2,-2.482330501E-1,1.630962193E-1
3.127287452E0,6.856760383E-2,-2.531198263E-1,1.661504507E-1
3.129682921E0,6.917845458E-2,-2.433462739E-1,1.722589284E-1
3.132077661E0,6.917845458E-2,-2.409028858E-1,1.771457046E-1
3.134473182E0,6.856760383E-2,-2.409028858E-1,1.801999360E-1
3.136869536E0,6.306997687E-2,-2.347944081E-1,1.863084137E-1
3.139265004E0,5.818320066E-2,-2.317401767E-1,1.905843467E-1
3.141659744E0,4.230117425E-2,-2.806079686E-1,2.040229887E-1
3.144055265E0,4.352286831E-2,-3.093177676E-1,2.113531530E-1
3.146451619E0,3.863608837E-2,-2.916032076E-1,2.119639963E-1
3.148847088E0,2.947338112E-2,-2.928248942E-1,2.192941606E-1
3.151241827E0,1.542389300E-2,-3.160370886E-1,2.302894145E-1
3.153637348E0,-5.344913341E-3,-3.844519854E-1,2.638860047E-1
3.156033702E0,1.374406274E-3,-4.082750380E-1,2.932066917E-1
3.158429171E0,2.031067200E-2,-2.867164314E-1,2.828222811E-1
3.160823963E0,1.985253533E-3,-2.030303627E-1,2.626643181E-1
3.163219484E0,-4.581354442E-4,-1.584385037E-1,2.437280566E-1
3.165615786E0,-1.817270555E-2,-1.547734290E-1,2.211267054E-1
3.168011307E0,-3.466558084E-2,-1.474432498E-1,2.089097649E-1
3.170406046E0,-4.321744293E-2,-1.340046227E-1,2.009687424E-1
3.172801567E0,-5.299099907E-2,-1.156791970E-1,1.911951900E-1
3.175197921E0,-5.971032009E-2,-1.028514057E-1,1.881409585E-1
3.177593390E0,-6.642963737E-2,-9.368869662E-2,1.850867122E-1
3.179988129E0,-7.437065244E-2,-9.002361447E-2,1.856975704E-1
3.182383650E0,-7.742489129E-2,-8.635853231E-2,1.832541823E-1
3.184780004E0,-8.353336155E-2,-8.696937561E-2,1.801999360E-1
3.187175473E0,-8.658760041E-2,-8.819106966E-2,1.765348613E-1
3.189570213E0,-9.147437662E-2,-9.002361447E-2,1.740914732E-1
3.191965734E0,-9.452861547E-2,-9.002361447E-2,1.673721522E-1
3.194362088E0,-1.024696305E-1,-9.185615927E-2,1.692046970E-1
3.196757557E0,-1.079672500E-1,-9.613208473E-2,1.679829955E-1
3.199152296E0,-1.146865711E-1,-1.022405624E-1,1.679829955E-1
3.201547817E0,-1.214058921E-1,-1.028514057E-1,1.649287641E-1
3.203944171E0,-1.262926757E-1,-1.034622565E-1,1.649287641E-1
3.206339640E0,-1.293469071E-1,-1.010188684E-1,1.673721522E-1
3.208734379E0,-1.324011385E-1,-9.918632358E-2,1.655396074E-1
3.211129900E0,-1.354553849E-1,-9.613208473E-2,1.673721522E-1
3.213526254E0,-1.372879148E-1,-8.880192041E-2,1.673721522E-1
3.215921723E0,-1.415638477E-1,-8.819106966E-2,1.667613089E-1
3.218316463E0,-1.440072358E-1,-7.963921130E-2,1.667613089E-1
3.220711984E0,-1.501157135E-1,-7.353074104E-2,1.649287641E-1
3.223108338E0,-1.525591016E-1,-6.497887522E-2,1.600419879E-1
3.225503807E0,-1.580567211E-1,-5.948125198E-2,1.569877416E-1
3.227898598E0,-1.666085869E-1,-5.520532280E-2,1.545443535E-1
3.230294119E0,-1.733279079E-1,-4.787515476E-2,1.539335102E-1
3.232690473E0,-1.745496094E-1,-4.726430774E-2,1.521009654E-1
3.235085890E0,-1.818797737E-1,-4.604261369E-2,1.490467340E-1
3.237480682E0,-1.879882365E-1,-4.543176666E-2,1.466033459E-1
3.239876202E0,-1.928750277E-1,-4.482091591E-2,1.447708011E-1
3.242272557E0,-1.989834905E-1,-4.726430774E-2,1.429382563E-1
3.244668025E0,-2.057028115E-1,-4.543176666E-2,1.416402012E-1
3.247062765E0,-2.118112892E-1,-4.543176666E-2,1.416402012E-1
3.249458286E0,-2.185306102E-1,-4.298837483E-2,1.422510594E-1
3.251854640E0,-2.283041626E-1,-4.176668078E-2,1.453816444E-1
3.254250109E0,-2.350234836E-1,-4.054498672E-2,1.453816444E-1
3.256644848E0,-2.392994165E-1,-3.871244565E-2,1.459924877E-1
3.259040369E0,-2.441861928E-1,-3.626905754E-2,1.514901221E-1
3.261436723E0,-2.484621257E-1,-3.443651274E-2,1.527118087E-1
3.263832192E0,-2.533488870E-1,-3.260397166E-2,1.521009654E-1
3.266226932E0,-2.551814318E-1,-3.504735976E-2,1.545443535E-1
3.268622452E0,-2.606790662E-1,-3.260397166E-2,1.563768983E-1
3.271018807E0,-2.655658424E-1,-3.199312463E-2,1.594311297E-1
3.273414275E0,-2.698417902E-1,-3.016058356E-2,1.630962193E-1
3.275809015E0,-2.759502530E-1,-3.199312463E-2,1.673721522E-1
3.278204536E0,-2.783936262E-1,-3.260397166E-2,1.716480851E-1
3.280600890E0,-2.777827978E-1,-3.565821052E-2,1.747023165E-1
3.282996359E0,-2.796153426E-1,-4.176668078E-2,1.771457046E-1
3.285391150E0,-2.838912606E-1,-4.909684882E-2,1.759240031E-1
3.287786671E0,-2.899997234E-1,-9.796462953E-2,1.618745178E-1
3.290183025E0,-2.954973578E-1,-1.333937645E-1,1.533226669E-1
3.292578494E0,-2.936648130E-1,-1.071273386E-1,1.569877416E-1
3.294973234E0,-2.857238054E-1,-8.269345015E-2,1.618745178E-1
3.297368754E0,-2.796153426E-1,-6.803311408E-2,1.643179059E-1
3.299765109E0,-2.747285664E-1,-5.887040496E-2,1.649287641E-1
3.302160577E0,-2.686200738E-1,-5.825955793E-2,1.704263836E-1
3.304555317E0,-2.704526186E-1,-6.131379306E-2,1.740914732E-1
3.306950838E0,-2.661767006E-1,-6.925480813E-2,1.753131598E-1
3.309347192E0,-2.619007528E-1,-7.230904698E-2,1.734806150E-1
3.311742661E0,-2.594573796E-1,-7.536327839E-2,1.734806150E-1
3.314137400E0,-2.539597452E-1,-7.414158434E-2,1.685938388E-1
3.316532921E0,-2.484621257E-1,-7.719582319E-2,1.655396074E-1
3.318929275E0,-2.441861928E-1,-7.169819623E-2,1.673721522E-1
3.321324744E0,-2.380777150E-1,-6.681142002E-2,1.661504507E-1
3.323719484E0,-2.325800955E-1,-6.192464009E-2,1.704263836E-1
3.326115004E0,-2.258607745E-1,-5.337277800E-2,1.667613089E-1
3.328511359E0,-2.191414535E-1,-4.604261369E-2,1.685938388E-1
3.330906827E0,-2.173089087E-1,-3.871244565E-2,1.698155403E-1
3.333301619E0,-2.057028115E-1,-2.954973653E-2,1.698155403E-1
3.335697140E0,-1.971509457E-1,-2.099787444E-2,1.685938388E-1
3.338093442E0,-1.904316396E-1,-8.780929260E-3,1.679829955E-1
3.340488963E0,-1.806580722E-1,1.603474026E-3,1.679829955E-1
3.342883702E0,-1.757712960E-1,1.259872504E-2,1.655396074E-1
3.345279223E0,-1.684411317E-1,2.603736520E-2,1.630962193E-1
3.347675577E0,-1.635543555E-1,3.947600350E-2,1.600419879E-1
3.350071046E0,-1.605001241E-1,5.230379477E-2,1.551551968E-1
3.352465786E0,-1.586675793E-1,6.146650389E-2,1.539335102E-1
3.354861307E0,-1.598892659E-1,7.124006003E-2,1.502684206E-1
3.357257661E0,-1.562241912E-1,7.246175408E-2,1.422510594E-1
3.359653129E0,-1.543916464E-1,6.940752268E-2,1.355317384E-1
3.362047869E0,-1.574458778E-1,4.619532451E-2,1.220930964E-1
3.364443390E0,-1.605001241E-1,1.076618303E-2,1.172063202E-1
3.366839744E0,-1.543916464E-1,3.764346242E-2,1.214822456E-1
3.369235213E0,-1.501157135E-1,6.024480984E-2,1.245364845E-1
3.371629952E0,-1.495048702E-1,4.924955964E-2,1.227039397E-1
3.374025473E0,-1.537808031E-1,4.375193641E-2,1.184280142E-1
3.376421827E0,-1.550024897E-1,4.986040667E-2,1.123195365E-1
3.378817296E0,-1.598892659E-1,5.902311578E-2,1.062110662E-1
3.381212036E0,-1.598892659E-1,6.757497787E-2,1.013242900E-1
3.383607609E0,-1.641651988E-1,7.001836598E-2,9.093988687E-2
3.386003963E0,-1.702736765E-1,7.185091078E-2,7.811209559E-2
3.388399432E0,-1.727170646E-1,6.879667193E-2,7.078192383E-2
3.390794171E0,-1.702736765E-1,6.146650389E-2,6.772769243E-2
3.393189692E0,-1.769929975E-1,5.780142173E-2,7.200361788E-2
3.395586046E0,-1.812689304E-1,4.558447748E-2,7.750124484E-2
3.397981515E0,-1.867665499E-1,4.375193641E-2,7.566870749E-2
3.400376254E0,-1.934858710E-1,4.863871261E-2,7.078192383E-2
3.402771775E0,-1.971509457E-1,5.474718660E-2,6.711684167E-2
3.405168129E0,-2.050919682E-1,5.780142173E-2,6.161921844E-2
3.407563598E0,-2.087570578E-1,5.352549255E-2,5.367820337E-2
3.409958338E0,-2.075353563E-1,4.314108938E-2,3.901786730E-2
3.412353859E0,-2.075353563E-1,3.642176837E-2,3.107685409E-2
3.414750213E0,-2.118112892E-1,3.275668249E-2,2.985516004E-2
3.417145682E0,-2.203631550E-1,1.931804419E-2,3.352024406E-2
3.419540473E0,-2.258607745E-1,4.657710437E-3,3.779617324E-2
3.421935942E0,-2.325800955E-1,-1.000262424E-2,3.901786730E-2
3.424332296E0,-2.399102598E-1,-2.527380548E-2,4.085041210E-2
3.426727817E0,-2.466295809E-1,-3.749075159E-2,4.268295318E-2
3.429122557E0,-2.533488870E-1,-5.520532280E-2,4.390464723E-2
3.431518077E0,-2.570139766E-1,-7.108735293E-2,5.062396824E-2
3.433914432E0,-2.649549842E-1,-8.758022636E-2,5.306735635E-2
3.436309900E0,-2.667875290E-1,-1.034622565E-1,5.612159148E-2
3.438704640E0,-2.722851634E-1,-1.126249656E-1,6.039752439E-2
3.441100161E0,-2.753393948E-1,-1.248419061E-1,6.161921844E-2
3.443496515E0,-2.796153426E-1,-1.358371526E-1,6.467345357E-2
3.445891984E0,-2.845021188E-1,-1.486649513E-1,6.589514762E-2
3.448286723E0,-2.887780368E-1,-1.633252800E-1,6.589514762E-2
3.450682244E0,-2.912214398E-1,-1.755422354E-1,6.894938648E-2
3.453078598E0,-2.948864996E-1,-1.889808774E-1,6.894938648E-2
3.455474067E0,-2.973299026E-1,-2.005869746E-1,6.711684167E-2
3.457868807E0,-3.009949923E-1,-2.073062956E-1,6.650599837E-2
3.460264327E0,-3.016058207E-1,-2.140256017E-1,6.406260282E-2
3.462660682E0,-3.028275371E-1,-2.195232362E-1,6.284090877E-2
3.465056150E0,-3.034383655E-1,-2.231883109E-1,5.795413256E-2
3.467450942E0,-3.040492237E-1,-2.250208557E-1,5.306735635E-2
3.469846463E0,-3.046600819E-1,-2.262425572E-1,5.001311749E-2
3.472242817E0,-3.040492237E-1,-2.286859453E-1,4.451549426E-2
3.474638286E0,-3.040492237E-1,-2.347944081E-1,4.695888236E-2
3.477033025E0,-3.058817685E-1,-2.366269529E-1,4.023956135E-2
3.479428546E0,-3.095468581E-1,-2.347944081E-1,3.352024406E-2
3.481824900E0,-3.101576865E-1,-2.299076319E-1,2.313583903E-2
3.484220369E0,-3.107685447E-1,-2.231883109E-1,1.397313084E-2
3.486615109E0,-3.083251417E-1,-2.140256017E-1,2.977880416E-3
3.489010629E0,-2.997733057E-1,-2.048628926E-1,-1.595838554E-2
3.491406984E0,-2.979407609E-1,-2.011978179E-1,-3.855973482E-2
3.493802452E0,-2.808370292E-1,-1.767639220E-1,-4.711159319E-2
3.496197192E0,-2.802261710E-1,-1.578276604E-1,-5.077667907E-2
3.498592713E0,-2.863346636E-1,-1.621035933E-1,-6.116108224E-2
3.500989067E0,-2.973299026E-1,-1.688229144E-1,-6.055023521E-2
3.503384536E0,-3.040492237E-1,-1.676012129E-1,-5.932854116E-2
3.505779327E0,-3.095468581E-1,-1.608818918E-1,-6.543701142E-2
3.508174848E0,-3.126010895E-1,-1.498866528E-1,-7.093463838E-2
3.510571202E0,-3.168770075E-1,-1.425564736E-1,-7.826480269E-2
3.512966671E0,-3.180987239E-1,-1.364480108E-1,-8.864920586E-2
3.515361411E0,-3.235963285E-1,-1.315612346E-1,-9.414683282E-2
3.517756932E0,-3.315373361E-1,-1.211768240E-1,-9.903360903E-2
3.520153286E0,-3.376458287E-1,-1.150683537E-1,-1.045312360E-1
3.522548754E0,-3.461976945E-1,-1.169008911E-1,-1.124722511E-1
3.524943494E0,-3.529170156E-1,-1.187334359E-1,-1.179698780E-1
3.527339015E0,-3.547495604E-1,-1.211768240E-1,-1.246891990E-1
3.529735369E0,-3.620797098E-1,-1.242310628E-1,-1.253000498E-1
3.532130838E0,-3.614688516E-1,-1.309503764E-1,-1.289651245E-1
3.534525577E0,-3.633013964E-1,-1.388913989E-1,-1.283542812E-1
3.536921098E0,-3.639122546E-1,-1.480541080E-1,-1.277434379E-1
3.539317452E0,-3.620797098E-1,-1.621035933E-1,-1.527881771E-1
3.541712921E0,-3.620797098E-1,-1.889808774E-1,-1.784437597E-1
3.544107713E0,-3.846810758E-1,-2.964899838E-1,-2.126512080E-1
3.546503234E0,-3.779617548E-1,-2.909923494E-1,-2.016559541E-1
3.548899588E0,-3.730749488E-1,-2.476222068E-1,-1.729461253E-1
3.551295057E0,-3.694098890E-1,-2.280751020E-1,-1.460688561E-1
3.553689796E0,-3.651339412E-1,-2.213557810E-1,-1.289651245E-1
3.556085317E0,-3.626905680E-1,-2.201340795E-1,-1.185807213E-1
3.558481671E0,-3.541387022E-1,-2.109713703E-1,-1.045312360E-1
3.560877140E0,-3.559712470E-1,-2.231883109E-1,-1.014770046E-1
3.563271879E0,-3.663556576E-1,-2.451788187E-1,-9.536852688E-2
3.565667400E0,-3.694098890E-1,-2.561740577E-1,-9.170344472E-2
3.568063754E0,-3.700207174E-1,-2.598391473E-1,-8.681666851E-2
3.570459223E0,-3.687990308E-1,-2.665584683E-1,-8.254073560E-2
3.572853963E0,-3.645231128E-1,-2.738886476E-1,-7.948649675E-2
3.575249484E0,-3.578037918E-1,-2.818296552E-1,-7.704310864E-2
3.577645838E0,-3.553603888E-1,-2.903815210E-1,-7.826480269E-2
3.580041307E0,-3.547495604E-1,-2.958791554E-1,-7.582141459E-2
3.582436098E0,-3.492519259E-1,-2.983225286E-1,-7.704310864E-2
3.584831619E0,-3.468085229E-1,-3.080960810E-1,-7.704310864E-2
3.587227973E0,-3.443651497E-1,-3.129828572E-1,-7.826480269E-2
3.589623442E0,-3.376458287E-1,-3.166479468E-1,-7.704310864E-2
3.592018182E0,-3.309265077E-1,-3.209238648E-1,-7.948649675E-2
3.594413702E0,-3.199312389E-1,-3.270323575E-1,-7.765395939E-2
3.596810057E0,-3.150444627E-1,-3.282540441E-1,-7.887565345E-2
3.599205525E0,-3.058817685E-1,-3.331408203E-1,-8.254073560E-2
3.601600265E0,-2.973299026E-1,-3.361950517E-1,-8.498412371E-2
3.603995786E0,-2.851129472E-1,-3.361950517E-1,-8.559497446E-2
3.606392140E0,-2.765611112E-1,-3.355842233E-1,-9.170344472E-2
3.608787609E0,-2.649549842E-1,-3.337516785E-1,-9.536852688E-2
3.611182348E0,-2.533488870E-1,-3.300865889E-1,-9.964445978E-2
3.613577869E0,-2.417428046E-1,-3.276431859E-1,-1.081963181E-1
3.615974275E0,-2.344126403E-1,-3.221455812E-1,-1.075854748E-1
3.618369744E0,-2.258607745E-1,-3.142045736E-1,-1.136939451E-1
3.620764484E0,-2.191414535E-1,-3.032093048E-1,-1.204132661E-1
3.623160004E0,-2.124221325E-1,-2.897706628E-1,-1.271325797E-1
3.625556359E0,-2.063136548E-1,-2.799971104E-1,-1.314085126E-1
3.627951827E0,-2.057028115E-1,-2.628933787E-1,-1.356844455E-1
3.630346567E0,-2.008160353E-1,-2.500655949E-1,-1.436254680E-1
3.632742088E0,-2.014268786E-1,-2.360161096E-1,-1.460688561E-1
3.635138442E0,-1.965401024E-1,-2.231883109E-1,-1.521773189E-1
3.637533911E0,-1.934858710E-1,-2.121930718E-1,-1.540098637E-1
3.639928650E0,-1.892099380E-1,-2.005869746E-1,-1.564532518E-1
3.642324171E0,-1.892099380E-1,-1.902025640E-1,-1.601183414E-1
3.644720525E0,-1.861557066E-1,-1.804290116E-1,-1.601183414E-1
3.647115994E0,-1.824906170E-1,-1.694337577E-1,-1.619508862E-1
3.649510786E0,-1.800472289E-1,-1.596602052E-1,-1.656159610E-1
3.651906307E0,-1.714953631E-1,-1.657686681E-1,-1.802763045E-1
3.654302661E0,-1.617218107E-1,-1.669903696E-1,-1.931040883E-1
3.656698129E0,-1.360662282E-1,-1.230093688E-1,-1.772220582E-1
3.659092869E0,-1.311794519E-1,-9.857547283E-2,-1.753895134E-1
3.661488390E0,-1.421747059E-1,-1.144575030E-1,-1.760003716E-1
3.663884744E0,-1.537808031E-1,-1.272853017E-1,-1.698918939E-1
3.666280213E0,-1.623326540E-1,-1.285069883E-1,-1.637834162E-1
3.668674952E0,-1.684411317E-1,-1.272853017E-1,-1.601183414E-1
3.671070473E0,-1.708845198E-1,-1.211768240E-1,-1.607291847E-1
3.673466827E0,-1.751604527E-1,-1.095707268E-1,-1.619508862E-1
3.675862296E0,-1.818797737E-1,-9.613208473E-2,-1.625617296E-1
3.678257036E0,-1.831014603E-1,-9.002361447E-2,-1.668376625E-1
3.680652609E0,-1.837123185E-1,-8.147175610E-2,-1.643942744E-1
3.683048963E0,-1.837123185E-1,-7.780666649E-2,-1.595074832E-1
3.685444432E0,-1.812689304E-1,-7.414158434E-2,-1.601183414E-1
3.687839171E0,-1.818797737E-1,-7.108735293E-2,-1.582857966E-1
3.690234692E0,-1.739387512E-1,-6.192464009E-2,-1.643942744E-1
3.692631046E0,-1.543916464E-1,-2.649549954E-2,-1.613400280E-1
3.695026515E0,-1.580567211E-1,-7.658497244E-2,-2.114295065E-1
3.697421254E0,-1.611109674E-1,-1.315612346E-1,-2.431935668E-1
3.699816775E0,-1.629435122E-1,-9.307785332E-2,-2.309766263E-1
3.702213129E0,-1.611109674E-1,-5.520532280E-2,-2.047101855E-1
3.704608598E0,-1.702736765E-1,-2.832804248E-2,-1.882173121E-1
3.707003338E0,-1.751604527E-1,-2.099787444E-2,-1.839413792E-1
3.709398859E0,-1.806580722E-1,-2.160872146E-2,-1.863847673E-1
3.711795213E0,-1.861557066E-1,-2.283041552E-2,-1.894390136E-1
3.714190734E0,-1.855448484E-1,-1.366770733E-2,-1.900498569E-1
3.716585473E0,-1.843231618E-1,3.817795368E-4,-1.912715435E-1
3.718980994E0,-1.843231618E-1,1.076618303E-2,-1.973800212E-1
3.721377348E0,-1.818797737E-1,1.443126611E-2,-2.022667974E-1
3.723772817E0,-1.788255423E-1,1.626380906E-2,-2.071535736E-1
3.726167557E0,-1.769929975E-1,1.687465608E-2,-2.260898352E-1
3.728563077E0,-1.733279079E-1,1.870719716E-2,-2.297549248E-1
3.730959432E0,-1.714953631E-1,2.542651631E-2,-2.297549248E-1
3.733354900E0,-1.751604527E-1,3.214583546E-2,-2.303657681E-1
3.735749640E0,-1.745496094E-1,4.008685052E-2,-2.370850891E-1
3.738145161E0,-1.727170646E-1,4.802786559E-2,-2.438044101E-1
3.740541515E0,-1.714953631E-1,5.413633958E-2,-2.511345744E-1
3.742936984E0,-1.776038408E-1,6.268820167E-2,-2.511345744E-1
3.745331723E0,-1.794363856E-1,6.940752268E-2,-2.547996640E-1
3.747727296E0,-1.794363856E-1,7.795938104E-2,-2.566322088E-1
3.750123650E0,-1.769929975E-1,8.528954536E-2,-2.627406716E-1
3.752519119E0,-1.635543555E-1,1.243837699E-1,-2.541888058E-1
3.754913859E0,-1.653869003E-1,1.323247850E-1,-2.651840746E-1
3.757309379E0,-1.794363856E-1,1.176644564E-1,-2.688491642E-1
3.759705734E0,-1.934858710E-1,1.115559787E-1,-2.688491642E-1
3.762101202E0,-2.105895877E-1,1.103342846E-1,-2.694599926E-1
3.764495942E0,-2.252499312E-1,1.091125906E-1,-2.719033957E-1
3.766891463E0,-2.362451702E-1,1.103342846E-1,-2.755684555E-1
3.769287817E0,-2.441861928E-1,1.164427623E-1,-2.792335451E-1
3.771683286E0,-2.527380586E-1,1.201078445E-1,-2.877854109E-1
3.774078025E0,-2.631224692E-1,1.249946207E-1,-2.926721871E-1
3.776473598E0,-2.753393948E-1,1.359898746E-1,-2.969481349E-1
3.778869952E0,-2.863346636E-1,1.433200389E-1,-3.006131947E-1
3.781265421E0,-2.985515893E-1,1.512610465E-1,-3.061108291E-1
3.783660161E0,-3.119902313E-1,1.616454571E-1,-3.116084635E-1
3.786055682E0,-3.229855001E-1,1.732515544E-1,-3.164952397E-1
3.788452036E0,-3.370349705E-1,1.860793531E-1,-3.201603293E-1
3.790847504E0,-3.516952991E-1,2.001288384E-1,-3.250471056E-1
3.793242244E0,-3.626905680E-1,2.129566222E-1,-3.299338818E-1
3.795637765E0,-3.767400384E-1,1.543152928E-1,-3.800233603E-1
3.798034119E0,-3.626905680E-1,1.879118830E-1,-4.020138383E-1
3.800429588E0,-3.596363366E-1,2.489966154E-1,-4.069006443E-1
3.802824327E0,-3.742966652E-1,2.758738995E-1,-3.952945471E-1
3.805219848E0,-3.999522328E-1,2.832040489E-1,-3.873535097E-1
3.807616202E0,-4.231644273E-1,2.880908251E-1,-3.769691288E-1
3.810011723E0,-4.402681589E-1,2.929776311E-1,-3.714714944E-1
3.812406463E0,-4.549284875E-1,3.015294671E-1,-3.696389496E-1
3.814801984E0,-4.701996744E-1,3.149681091E-1,-3.610870838E-1
3.817198338E0,-4.885250926E-1,3.192440569E-1,-3.604762256E-1
3.819593807E0,-4.952444136E-1,3.296284378E-1,-3.562003076E-1
3.821988546E0,-5.074613690E-1,3.375694752E-1,-3.555894494E-1
3.824384067E0,-5.160132051E-1,3.461213410E-1,-3.537569046E-1
3.826780421E0,-5.245651007E-1,3.510081172E-1,-3.549786210E-1
3.829175890E0,-5.294518471E-1,3.546731770E-1,-3.519243896E-1
3.831570629E0,-5.343386531E-1,3.620033562E-1,-3.531460762E-1
3.833966150E0,-5.398362875E-1,3.693335354E-1,-3.519243896E-1
3.836362504E0,-5.416688323E-1,3.736094534E-1,-3.476484418E-1
3.838758025E0,-5.453338623E-1,3.766636848E-1,-3.464267552E-1
3.841152765E0,-5.447230339E-1,3.852155507E-1,-3.452050686E-1
3.843548286E0,-5.477772951E-1,3.876589537E-1,-3.445942104E-1
3.845944640E0,-5.520532131E-1,3.913240135E-1,-3.397074342E-1
3.848340109E0,-5.459447503E-1,3.913240135E-1,-3.384857476E-1
3.850734848E0,-5.465555787E-1,3.919348717E-1,-3.317664266E-1
3.853130369E0,-5.453338623E-1,3.907131851E-1,-3.293230236E-1
3.855526723E0,-5.410579443E-1,3.931565583E-1,-3.287121952E-1
3.857922192E0,-5.221216679E-1,4.365267158E-1,-3.152735531E-1
3.860316932E0,-5.062396526E-1,4.579063654E-1,-3.299338818E-1
3.862712452E0,-5.068505406E-1,4.566846788E-1,-3.464267552E-1
3.865108807E0,-5.123481154E-1,4.469111264E-1,-3.513135314E-1
3.867504275E0,-5.196782947E-1,4.340833426E-1,-3.494809866E-1
3.869899067E0,-5.190674663E-1,4.206447005E-1,-3.464267552E-1
3.872294588E0,-5.202891231E-1,4.120928347E-1,-3.445942104E-1
3.874690942E0,-5.172349215E-1,4.084277451E-1,-3.427616656E-1
3.877086411E0,-5.105155706E-1,4.065952003E-1,-3.458158970E-1
3.879481150E0,-4.982986450E-1,4.078168869E-1,-3.488701284E-1
3.881876671E0,-4.879142344E-1,4.108711481E-1,-3.513135314E-1
3.884273025E0,-4.708105326E-1,4.120928347E-1,-3.586437106E-1
3.886668494E0,-4.567610323E-1,4.108711481E-1,-3.580328524E-1
3.889063234E0,-4.402681589E-1,4.090386033E-1,-3.598653972E-1
3.891458754E0,-4.201101959E-1,4.090386033E-1,-3.623087704E-1
3.893855109E0,-4.005630910E-1,4.065952003E-1,-3.647521734E-1
3.896250577E0,-3.816268146E-1,4.053735137E-1,-3.647521734E-1
3.898645317E0,-3.596363366E-1,4.065952003E-1,-3.641413152E-1
3.901040890E0,-3.321481943E-1,4.023192823E-1,-3.623087704E-1
3.903437244E0,-3.101576865E-1,4.017084241E-1,-3.598653972E-1
3.905832713E0,-2.796153426E-1,3.998758793E-1,-3.574219942E-1
3.908227452E0,-2.527380586E-1,4.004867375E-1,-3.537569046E-1
3.910622973E0,-2.179197669E-1,3.986541927E-1,-3.470376134E-1
3.913019327E0,-1.861557066E-1,3.968216479E-1,-3.421508074E-1
3.915414796E0,-1.488940120E-1,3.980433345E-1,-3.372640312E-1
3.917809536E0,-1.073564067E-1,3.986541927E-1,-3.317664266E-1
3.920205057E0,-6.826218218E-2,3.986541927E-1,-3.226037025E-1
3.922601411E0,-2.733541466E-2,4.004867375E-1,-3.128301501E-1
3.924996879E0,1.725643501E-2,3.986541927E-1,-2.987806797E-1
3.927391619E0,5.940489471E-2,3.955999613E-1,-2.828986347E-1
3.929787192E0,1.070509851E-1,3.894914687E-1,-2.639623582E-1
3.932183546E0,1.491994411E-1,3.803287745E-1,-2.462477982E-1
3.934579015E0,1.937913001E-1,3.675009906E-1,-2.267006934E-1
3.936973754E0,2.408265322E-1,3.479538560E-1,-2.022667974E-1
3.939369275E0,2.884726226E-1,3.296284378E-1,-1.833305359E-1
3.941765629E0,3.330644667E-1,3.051945567E-1,-1.625617296E-1
3.944161098E0,3.831539452E-1,2.777064443E-1,-1.417929232E-1
3.946555838E0,4.362976551E-1,2.465532273E-1,-1.210241169E-1
3.948951359E0,4.900522232E-1,2.129566222E-1,-9.720107168E-2
3.951347713E0,5.419742465E-1,1.763057858E-1,-7.704310864E-2
3.953743182E0,5.914528370E-1,1.372115612E-1,-5.138752609E-2
3.956137921E0,6.366555691E-1,9.567394853E-2,-1.901262067E-2
3.958533442E0,6.769714952E-1,5.108210072E-2,1.091889478E-2
3.960929848E0,7.069029808E-1,4.657710437E-3,4.512634128E-2
3.963325317E0,7.350019813E-1,-4.787515476E-2,8.055548370E-2
3.965720057E0,7.606575489E-1,-1.016297117E-1,1.202605516E-1
3.968115577E0,7.832589149E-1,-1.559951156E-1,1.606528312E-1
3.970511932E0,8.052493930E-1,-2.097496837E-1,1.954711229E-1
3.972907400E0,8.296833038E-1,-2.592283189E-1,2.345653474E-1
3.975302140E0,8.602256775E-1,-3.025984466E-1,2.706053257E-1
3.977697661E0,8.877137899E-1,-3.374167681E-1,3.035911024E-1
3.980094015E0,9.213103652E-1,-3.691807985E-1,3.353551328E-1
3.982489484E0,9.555941820E-1,-3.905604780E-1,3.603998721E-1
3.984884223E0,9.971317649E-1,-4.107184112E-1,3.805578351E-1
3.987279744E0,1.041112781E0,-4.272113144E-1,4.001049399E-1
3.989676150E0,1.088758826E0,-4.369848669E-1,4.153761268E-1
3.992071619E0,1.140680909E0,-4.479801059E-1,4.282039404E-1
3.994466359E0,1.196267962E0,-4.546994269E-1,4.343124032E-1
3.996861879E0,1.248800874E0,-4.626404345E-1,4.410317242E-1
3.999258234E0,1.308663845E0,-4.736357033E-1,4.483618736E-1
4.001653702E0,1.370359421E0,-4.889068604E-1,4.477510452E-1
4.004048442E0,1.435109258E0,-5.029563904E-1,4.398100376E-1
4.006443963E0,1.504135013E0,-5.194492340E-1,4.355340898E-1
4.008840317E0,1.571939111E0,-5.316661596E-1,4.257605374E-1
4.011235786E0,1.648294926E0,-5.451048017E-1,4.098785222E-1
4.013630525E0,1.724040031E0,-5.585434437E-1,3.921639323E-1
4.016026046E0,1.800395966E0,-5.719820857E-1,3.726168275E-1
4.018422452E0,1.878584385E0,-5.841990709E-1,3.530697227E-1
4.020817921E0,1.953718543E0,-5.945834517E-1,3.292466700E-1
4.023212661E0,2.023966074E0,-6.147413850E-1,3.066453338E-1
4.025608182E0,2.092991829E0,-6.275691986E-1,2.816005945E-1
4.028004536E0,2.157130718E0,-6.385644674E-1,2.602209449E-1
4.030400004E0,2.218215466E0,-6.501705647E-1,2.345653474E-1
4.032794744E0,2.276856899E0,-6.593332887E-1,2.082989216E-1
4.035190265E0,2.330611467E0,-6.715502143E-1,1.844758689E-1
4.037586619E0,2.379479170E0,-6.904864907E-1,1.600419879E-1
4.039982088E0,2.423460245E0,-7.051467896E-1,1.349208951E-1
4.042376827E0,2.464386940E0,-7.253047824E-1,1.098761484E-1
4.044772348E0,2.502870321E0,-7.399650812E-1,8.177717775E-2
4.047168702E0,2.534023523E0,-7.576796412E-1,6.223006546E-2
4.049564223E0,2.565176725E0,-7.723399997E-1,3.779617324E-2
4.051958963E0,2.591443062E0,-7.833352685E-1,1.397313084E-2
4.054354484E0,2.613433599E0,-7.943304777E-1,-1.046075951E-2
4.056750838E0,2.632980824E0,-8.004390001E-1,-2.878617682E-2
4.059146307E0,2.646419287E0,-8.016606569E-1,-5.077667907E-2
4.061541046E0,2.660468817E0,-7.979955673E-1,-6.971294433E-2
4.063936567E0,2.670853376E0,-7.931088209E-1,-9.170344472E-2
4.066332921E0,2.674518347E0,-7.833352685E-1,-1.069746241E-1
4.068728390E0,2.671464205E0,-7.668423653E-1,-1.234675050E-1
4.071123129E0,2.666577339E0,-7.442410588E-1,-1.375169903E-1
4.073518650E0,2.656803846E0,-7.136986852E-1,-1.466796994E-1
4.075915004E0,2.643975973E0,-6.788803935E-1,-1.588966399E-1
4.078310473E0,2.622596264E0,-6.355102062E-1,-1.643942744E-1
4.080705265E0,2.596940756E0,-5.860316157E-1,-1.686701924E-1
4.083100786E0,2.571285248E0,-5.310553312E-1,-1.723352820E-1
4.085497140E0,2.537077665E0,-4.681380689E-1,-1.747786701E-1
4.087892609E0,2.502259493E0,-4.009448588E-1,-1.772220582E-1
4.090287348E0,2.457667589E0,-3.337516785E-1,-1.747786701E-1
4.092682869E0,2.410021544E0,-2.616716921E-1,-1.692810506E-1
4.095079223E0,2.359931946E0,-1.975327283E-1,-1.637834162E-1
4.097474692E0,2.304344893E0,-1.291178465E-1,-1.570640951E-1
4.099869432E0,2.249979496E0,-6.253548712E-2,-1.479013860E-1
4.102264952E0,2.193781614E0,4.657710437E-3,-1.430146098E-1
4.104661307E0,2.135751009E0,6.146650389E-2,-1.314085126E-1
4.107056827E0,2.080774784E0,1.164427623E-1,-1.222458109E-1
4.109451567E0,2.026409388E0,1.634780020E-1,-1.161373332E-1
4.111847088E0,1.972654819E0,2.080698460E-1,-1.057529300E-1
4.114243442E0,1.926230431E0,2.581593096E-1,-1.020878479E-1
4.116638911E0,1.884081960E0,3.009186387E-1,-9.414683282E-2
4.119033650E0,1.837046742E0,3.326826990E-1,-8.742751181E-2
4.121429171E0,1.782070518E0,3.424562514E-1,-7.459972054E-2
4.123825525E0,1.730759382E0,3.418453932E-1,-5.749600008E-2
4.126220994E0,1.681280732E0,3.265742064E-1,-3.489464894E-2
4.128615734E0,1.632412910E0,2.832040489E-1,-1.290414855E-2
4.131011254E0,1.591486216E0,2.196759433E-1,1.214058883E-2
4.133407609E0,1.556057096E0,1.634780020E-1,3.535278514E-2
4.135803129E0,1.525514722E0,1.262163222E-1,5.551074445E-2
4.138197869E0,1.498026490E0,9.811734408E-2,7.261446863E-2
4.140593390E0,1.470538378E0,7.368344814E-2,8.666395396E-2
4.142989744E0,1.449769616E0,4.497363046E-2,1.056002229E-1
4.145385213E0,1.427168250E0,1.259872504E-2,1.239256412E-1
4.147779952E0,1.408842802E0,-2.649549954E-2,1.447708011E-1
4.150175473E0,1.391128302E0,-7.169819623E-2,1.661504507E-1
4.152571827E0,1.371581197E0,-1.083490327E-1,1.911951900E-1
4.154967296E0,1.356310010E0,-1.358371526E-1,2.119639963E-1
4.157362036E0,1.340427995E0,-1.468324065E-1,2.284568697E-1
4.159757557E0,1.322713375E0,-1.492757946E-1,2.473931462E-1
4.162153911E0,1.303166270E0,-1.541625708E-1,2.693836391E-1
4.164549432E0,1.282397509E0,-1.651578248E-1,2.950392365E-1
4.166944171E0,1.265904546E0,-1.792073101E-1,3.182514310E-1
4.169339692E0,1.247579217E0,-1.877591759E-1,3.487937748E-1
4.171736046E0,1.226810336E0,-2.024195045E-1,3.775036037E-1
4.174131515E0,1.203598142E0,-2.268534005E-1,4.068242610E-1
4.176526254E0,1.184051037E0,-2.409028858E-1,4.343124032E-1
4.178921775E0,1.159006357E0,-2.323510200E-1,4.556920528E-1
4.181318129E0,1.129074812E0,-2.152473032E-1,4.758500159E-1
4.183713598E0,1.099143267E0,-2.085279822E-1,4.923428893E-1
4.186108338E0,1.066768408E0,-2.042520493E-1,5.076140761E-1
4.188503911E0,1.035004377E0,-2.091388255E-1,5.259394646E-1
4.190900213E0,1.002629399E0,-2.207449228E-1,5.454866290E-1
4.193295734E0,9.702545404E-1,-2.274642438E-1,5.619794726E-1
4.195690473E0,9.342145324E-1,-2.207449228E-1,5.711421967E-1
4.198085994E0,8.950439692E-1,-2.140256017E-1,5.821374655E-1
4.200482348E0,8.571714163E-1,-2.109713703E-1,5.882459283E-1
4.202877817E0,8.223531246E-1,-2.195232362E-1,5.943543911E-1
4.205272557E0,7.863131166E-1,-2.299076319E-1,6.010736823E-1
4.207668077E0,7.466080785E-1,-2.250208557E-1,6.041279435E-1
4.210064432E0,7.075138092E-1,-2.115822136E-1,5.980194807E-1
4.212459900E0,6.708629727E-1,-2.036412060E-1,5.919110179E-1
4.214854640E0,6.311579347E-1,-1.987544298E-1,5.925218463E-1
4.217250161E0,5.883986354E-1,-1.957001835E-1,5.913001299E-1
4.219646515E0,5.548020005E-1,-2.054737508E-1,5.919110179E-1
4.222042036E0,5.199837089E-1,-2.085279822E-1,5.882459283E-1
4.224436775E0,4.845545888E-1,-1.981435865E-1,5.778614879E-1
4.226832296E0,4.485146105E-1,-1.895917207E-1,5.693096519E-1
4.229228650E0,4.179722369E-1,-1.847049445E-1,5.558710098E-1
4.231624119E0,3.862081766E-1,-1.926459521E-1,5.436540842E-1
4.234018859E0,3.562766612E-1,-2.036412060E-1,5.283828974E-1
4.236414379E0,3.287885487E-1,-2.054737508E-1,5.149442554E-1
4.238810734E0,3.013004065E-1,-1.993652731E-1,4.935645759E-1
4.241206202E0,2.713688910E-1,-1.950893402E-1,4.752391577E-1
4.243600942E0,2.475458533E-1,-1.963110417E-1,4.563029110E-1
4.245996463E0,2.231119573E-1,-2.066954374E-1,4.373666346E-1
4.248392817E0,1.968455315E-1,-2.152473032E-1,4.165978432E-1
4.250788338E0,1.742441803E-1,-2.244100124E-1,4.019374847E-1
4.253183077E0,1.504211426E-1,-2.372378111E-1,3.866663277E-1
4.255578598E0,1.259872466E-1,-2.464005202E-1,3.677300513E-1
4.257974952E0,1.021642014E-1,-2.506764531E-1,3.494046330E-1
4.260370421E0,8.078455180E-2,-2.635042369E-1,3.341334462E-1
4.262765161E0,5.451811850E-2,-2.744994760E-1,3.206948042E-1
4.265160682E0,3.008422814E-2,-2.824405134E-1,3.048127890E-1
4.267557036E0,5.039489828E-3,-2.934357524E-1,2.883199155E-1
4.269952504E0,-1.817270555E-2,-3.117611706E-1,2.724378705E-1
4.272347244E0,-4.504998401E-2,-3.264214993E-1,2.577775419E-1
4.274742765E0,-6.887302548E-2,-3.355842233E-1,2.449497581E-1
4.277139119E0,-9.636115283E-2,-3.435252309E-1,2.321219593E-1
4.279534588E0,-1.201841980E-1,-3.587964177E-1,2.199050188E-1
4.281929379E0,-1.476723254E-1,-3.691807985E-1,2.028012872E-1
4.284324900E0,-1.769929975E-1,-3.789543808E-1,1.881409585E-1
4.286721254E0,-2.087570578E-1,-3.813977540E-1,1.710372269E-1
4.289116723E0,-2.380777150E-1,-3.862845302E-1,1.588202864E-1
4.291511463E0,-2.686200738E-1,-3.881170750E-1,1.429382563E-1
4.293906984E0,-3.003841341E-1,-3.930038512E-1,1.282015741E-1
4.296303338E0,-3.327590525E-1,-3.948363960E-1,1.135412306E-1
4.298698807E0,-3.645231128E-1,-3.966689408E-1,9.827005118E-2
4.301093546E0,-3.950654566E-1,-3.972797990E-1,8.360971510E-2
4.303489067E0,-4.256078303E-1,-3.972797990E-1,6.833853573E-2
4.305885421E0,-4.616478086E-1,-4.113292694E-1,5.673243850E-2
4.308280890E0,-4.921901822E-1,-3.997231722E-1,4.695888236E-2
4.310675629E0,-5.221216679E-1,-3.685699701E-1,3.535278514E-2
4.313071202E0,-5.551074743E-1,-3.343625069E-1,2.496838197E-2
4.315467557E0,-5.838172436E-1,-3.038201630E-1,1.397313084E-2
4.317863025E0,-6.125270724E-1,-2.806079686E-1,4.199574701E-3
4.320257765E0,-6.375718117E-1,-2.555632293E-1,-4.352286924E-3
4.322653286E0,-6.620057225E-1,-2.292967886E-1,-1.290414855E-2
4.325049640E0,-6.870504618E-1,-1.993652731E-1,-1.595838554E-2
4.327445109E0,-7.072083950E-1,-1.694337577E-1,-2.206685767E-2
4.329839848E0,-7.255338430E-1,-1.376696974E-1,-2.695363574E-2
4.332235369E0,-7.414158583E-1,-1.095707268E-1,-3.061871976E-2
4.334631723E0,-7.572978735E-1,-7.902836055E-2,-3.122956678E-2
4.337027192E0,-7.695148587E-1,-5.092938989E-2,-3.184041381E-2
4.339421984E0,-7.811209559E-1,-2.038702741E-2,-3.428380191E-2
4.341817504E0,-7.933378816E-1,1.015533600E-2,-3.122956678E-2
4.344213859E0,-8.031114340E-1,4.130854458E-2,-3.122956678E-2
4.346609327E0,-8.165500760E-1,7.246175408E-2,-2.817532979E-2
4.349004067E0,-8.275453448E-1,1.017824262E-1,-2.695363574E-2
4.351399588E0,-8.336538076E-1,1.341573298E-1,-2.267770469E-2
4.353795942E0,-8.458707333E-1,1.677539349E-1,-1.840177365E-2
4.356191411E0,-8.544226289E-1,1.982962936E-1,-1.534753758E-2
4.358586150E0,-8.666395545E-1,2.251735777E-1,-8.017370477E-3
4.360981671E0,-8.751913905E-1,2.551050782E-1,-2.519744914E-3
4.363378025E0,-8.837432861E-1,2.850365937E-1,5.344913807E-4
4.365773494E0,-8.935168386E-1,3.088596463E-1,6.642963737E-3
4.368168234E0,-9.051229358E-1,3.326826990E-1,9.697199799E-3
4.370563807E0,-9.106205702E-1,3.552840352E-1,1.397313084E-2
4.372960161E0,-9.148964882E-1,3.687226772E-1,1.519482583E-2
4.375355629E0,-9.228374958E-1,3.852155507E-1,1.763821393E-2
4.377750369E0,-9.228374958E-1,3.937674165E-1,2.191414498E-2
4.380145890E0,-9.210049510E-1,3.992650509E-1,1.885990985E-2
4.382542244E0,-9.185615778E-1,3.968216479E-1,1.947075687E-2
4.384937713E0,-9.118422270E-1,3.919348717E-1,2.313583903E-2
4.387332452E0,-9.081771374E-1,3.809396327E-1,2.252499200E-2
4.389727973E0,-9.039012194E-1,3.650575876E-1,2.191414498E-2
4.392124327E0,-8.929060102E-1,3.510081172E-1,2.191414498E-2
4.394519796E0,-8.843541145E-1,3.290176094E-1,2.191414498E-2
4.396914536E0,-8.745805621E-1,3.076379597E-1,2.130329795E-2
4.399310057E0,-8.611419201E-1,2.758738995E-1,2.863346599E-2
4.401706463E0,-8.489249945E-1,2.459423840E-1,2.741177008E-2
4.404101932E0,-8.330429196E-1,2.117349356E-1,3.107685409E-2
4.406496671E0,-8.183826208E-1,1.793600321E-1,2.985516004E-2
4.408892192E0,-8.031114340E-1,1.494285166E-1,3.596363217E-2
4.411288546E0,-7.884510756E-1,1.194969937E-1,4.085041210E-2
4.413684015E0,-7.750124335E-1,9.017632902E-2,4.573718831E-2
4.416078754E0,-7.591304183E-1,6.207735091E-2,4.695888236E-2
4.418474275E0,-7.463026643E-1,3.397838026E-2,5.367820337E-2
4.420870629E0,-7.291989326E-1,1.076618303E-2,5.673243850E-2
4.423266098E0,-7.182036638E-1,-1.183516532E-2,6.161921844E-2
4.425660838E0,-7.041541934E-1,-3.443651274E-2,6.467345357E-2
4.428056359E0,-6.888830066E-1,-5.398362502E-2,6.833853573E-2
4.430452765E0,-6.778877378E-1,-7.597412914E-2,6.956022978E-2
4.432848234E0,-6.668924689E-1,-9.491039068E-2,6.894938648E-2
4.435242973E0,-6.571189165E-1,-1.107924208E-1,6.894938648E-2
4.437638494E0,-6.485670805E-1,-1.266744435E-1,6.833853573E-2
4.440034848E0,-6.400152445E-1,-1.407239437E-1,7.078192383E-2
4.442430317E0,-6.339067221E-1,-1.566059589E-1,7.139277458E-2
4.444825057E0,-6.277982593E-1,-1.694337577E-1,7.261446863E-2
4.447220577E0,-6.241331697E-1,-1.804290116E-1,7.200361788E-2
4.449616932E0,-6.204680800E-1,-1.926459521E-1,7.261446863E-2
4.452012400E0,-6.180247068E-1,-2.036412060E-1,7.322531193E-2
4.454407140E0,-6.168029904E-1,-2.158581465E-1,7.139277458E-2
4.456802661E0,-6.149705052E-1,-2.213557810E-1,6.772769243E-2
4.459199015E0,-6.137487888E-1,-2.311293334E-1,7.017108053E-2
4.461594536E0,-6.131379604E-1,-2.390703410E-1,6.894938648E-2
4.463989275E0,-6.143596172E-1,-2.415137291E-1,7.200361788E-2
4.466384796E0,-6.180247068E-1,-2.451788187E-1,7.322531193E-2
4.468781150E0,-6.174138784E-1,-2.470113635E-1,7.322531193E-2
4.471176619E0,-6.210789680E-1,-2.482330501E-1,7.689040154E-2
4.473571359E0,-6.241331697E-1,-2.457896620E-1,7.689040154E-2
4.475966879E0,-6.296308041E-1,-2.396811992E-1,7.872293890E-2
4.478363234E0,-6.290199757E-1,-2.354052663E-1,7.689040154E-2
4.480758702E0,-6.314633489E-1,-2.323510200E-1,7.811209559E-2
4.483153442E0,-6.345176101E-1,-2.292967886E-1,7.811209559E-2
4.485548963E0,-6.308525205E-1,-2.274642438E-1,7.444700599E-2
4.487945317E0,-6.296308041E-1,-2.262425572E-1,7.322531193E-2
4.490340786E0,-6.259657145E-1,-2.244100124E-1,7.200361788E-2
4.492735577E0,-6.241331697E-1,-2.262425572E-1,7.139277458E-2
4.495131098E0,-6.131379604E-1,-2.231883109E-1,6.589514762E-2
4.497527452E0,-6.088619828E-1,-2.213557810E-1,6.589514762E-2
4.499922921E0,-5.978667736E-1,-2.195232362E-1,6.345175952E-2
4.502317661E0,-5.917583108E-1,-2.207449228E-1,5.612159148E-2
4.504713182E0,-5.868715048E-1,-2.396811992E-1,4.512634128E-2
4.507109536E0,-5.764871240E-1,-2.244100124E-1,5.306735635E-2
4.509505004E0,-5.599942207E-1,-2.097496837E-1,5.612159148E-2
4.511899744E0,-5.422796607E-1,-2.042520493E-1,6.161921844E-2
4.514295265E0,-5.306735635E-1,-2.042520493E-1,6.711684167E-2
4.516691619E0,-5.166240931E-1,-2.011978179E-1,7.139277458E-2
4.519087088E0,-5.050179958E-1,-1.999761164E-1,8.177717775E-2
4.521481827E0,-4.915793240E-1,-1.999761164E-1,8.727480471E-2
4.523877400E0,-4.805840850E-1,-1.987544298E-1,9.216158092E-2
4.526273754E0,-4.714213610E-1,-1.950893402E-1,1.007134393E-1
4.528669223E0,-4.647020400E-1,-1.908134073E-1,1.080436110E-1
4.531063963E0,-4.549284875E-1,-1.828723997E-1,1.184280142E-1
4.533459484E0,-4.463766217E-1,-1.755422354E-1,1.251473278E-1
4.535855838E0,-4.396573007E-1,-1.712663025E-1,1.318666488E-1
4.538251307E0,-4.317162931E-1,-1.663795263E-1,1.404185146E-1
4.540646046E0,-4.243861437E-1,-1.535517275E-1,1.490467340E-1
4.543041567E0,-4.158342779E-1,-1.376696974E-1,1.563768983E-1
4.545437921E0,-4.054498672E-1,-1.162900478E-1,1.624853760E-1
4.547833390E0,-3.999522328E-1,-1.010188684E-1,1.704263836E-1
4.550228182E0,-3.914003670E-1,-8.574768156E-2,1.710372269E-1
4.552623702E0,-3.840702176E-1,-6.986565888E-2,1.740914732E-1
4.555020057E0,-3.779617548E-1,-5.215108395E-2,1.740914732E-1
4.557415525E0,-3.730749488E-1,-3.871244565E-2,1.740914732E-1
4.559810265E0,-3.730749488E-1,-2.160872146E-2,1.747023165E-1
4.562205786E0,-3.681881726E-1,-6.337540224E-3,1.722589284E-1
4.564602140E0,-3.681881726E-1,1.198787708E-2,1.698155403E-1
4.566997609E0,-3.681881726E-1,2.909160033E-2,1.673721522E-1
4.569392348E0,-3.681881726E-1,4.008685052E-2,1.643179059E-1
4.571787869E0,-3.706315756E-1,6.207735091E-2,1.661504507E-1
4.574184223E0,-3.706315756E-1,7.673768699E-2,1.673721522E-1
4.576579692E0,-3.736858070E-1,9.384141117E-2,1.679829955E-1
4.578974432E0,-3.718532622E-1,1.158319116E-1,1.728697717E-1
4.581370004E0,-3.700207174E-1,1.359898746E-1,1.783674061E-1
4.583766359E0,-3.675773442E-1,1.561478376E-1,1.881409585E-1
4.586161827E0,-3.590254784E-1,1.811925620E-1,1.948602796E-1
4.588556567E0,-3.504736125E-1,2.068481594E-1,2.082989216E-1
4.590952088E0,-3.278722763E-1,2.263952643E-1,2.235700935E-1
4.593348442E0,-2.930539846E-1,2.428881377E-1,2.309002578E-1
4.595743911E0,-2.472404242E-1,2.624352574E-1,2.370087355E-1
4.598138650E0,-1.922641695E-1,2.874799967E-1,2.461714447E-1
4.600534171E0,-1.311794519E-1,3.296284378E-1,2.504473627E-1
4.602930525E0,-6.704048812E-2,3.571165800E-1,2.345653474E-1
4.605325994E0,8.093725890E-3,4.377484024E-1,2.333436459E-1
4.607720734E0,8.750387281E-2,5.434249640E-1,2.345653474E-1
4.610116254E0,1.718007922E-1,6.564317346E-1,2.296785712E-1
4.612512609E0,2.591519356E-1,7.755469680E-1,2.247917950E-1
4.614908129E0,3.629959822E-1,8.812234998E-1,2.174616307E-1
4.617302869E0,4.686725736E-1,9.496384263E-1,2.107423097E-1
4.619698390E0,5.792359114E-1,9.746831656E-1,2.040229887E-1
4.622094744E0,6.959077120E-1,9.453625083E-1,1.924168915E-1
4.624490213E0,8.003626466E-1,8.677848577E-1,1.881409585E-1
4.626884952E0,8.889354467E-1,7.517238855E-1,1.808107942E-1
4.629280473E0,9.378796220E-1,5.971795321E-1,1.759240031E-1
4.631676827E0,9.470423460E-1,4.023192823E-1,1.740914732E-1
4.634072296E0,9.255862832E-1,1.848576516E-1,1.777565479E-1
4.636467036E0,8.840487003E-1,-4.787515476E-2,1.881409585E-1
4.638862557E0,8.327375054E-1,-2.635042369E-1,1.948602796E-1
4.641258911E0,7.679877281E-1,-4.174377322E-1,1.942494214E-1
4.643654379E0,6.800256968E-1,-5.182275176E-1,1.765348613E-1
4.646049171E0,5.780141950E-1,-4.650838375E-1,1.728697717E-1
4.648444692E0,4.631749392E-1,-2.922140658E-1,1.826433241E-1
4.650841046E0,3.361186981E-1,-6.009209901E-2,1.979145110E-1
4.653236515E0,2.102841735E-1,1.964637488E-1,2.137965411E-1
4.655631254E0,9.239064902E-2,4.475219846E-1,2.290677279E-1
4.658026775E0,-1.878355257E-2,6.613185406E-1,2.449497581E-1
4.660423129E0,-1.091889441E-1,8.354099989E-1,2.589992285E-1
4.662818598E0,-1.763821393E-1,9.734614491E-1,2.767138183E-1
4.665213338E0,-2.148655206E-1,1.080970526E0,2.852656841E-1
4.667608859E0,-2.264716178E-1,1.158548236E0,2.938175201E-1
4.670005213E0,-2.014268786E-1,1.198253274E0,2.993151546E-1
4.672400682E0,-1.391204596E-1,1.209248543E0,3.017585576E-1
4.674795473E0,-4.932591692E-2,1.203750849E0,2.974826097E-1
4.677190994E0,7.162184268E-2,1.182371259E0,2.889307439E-1
4.679587348E0,2.084516287E-1,1.142055273E0,2.974826097E-1
4.681982817E0,3.617742956E-1,1.091354966E0,3.121429384E-1
4.684377557E0,5.291464329E-1,1.027826905E0,3.390202224E-1
4.686773077E0,7.075138092E-1,9.557468891E-1,3.762819171E-1
4.689169432E0,9.029849768E-1,8.964946866E-1,4.257605374E-1
4.691564900E0,1.086315513E0,8.433510065E-1,4.862344265E-1
4.693959640E0,1.262850404E0,8.128086329E-1,5.613686442E-1
4.696355161E0,1.439996004E0,7.938723564E-1,6.554391384E-1
4.698751515E0,1.592097044E0,7.407286763E-1,7.348492742E-1
4.701146984E0,1.690443397E0,6.545991898E-1,8.014315963E-1
4.703541723E0,1.741754651E0,5.586961508E-1,8.356390595E-1
4.705937296E0,1.732591867E0,4.548521340E-1,8.429692388E-1
4.708333650E0,1.669674635E0,3.577274382E-1,8.191461563E-1
4.710729119E0,1.573160768E0,2.715979517E-1,7.653915882E-1
4.713123859E0,1.472370982E0,1.976854503E-1,6.908682585E-1
4.715519379E0,1.375857115E0,1.286597103E-1,6.071822047E-1
4.717915734E0,1.297057748E0,6.574243307E-2,5.137225389E-1
4.720311202E0,1.231697083E0,3.817795368E-4,4.135435820E-1
4.722705942E0,1.168169022E0,-5.092938989E-2,3.145863414E-1
4.725101463E0,1.096699953E0,-9.857547283E-2,2.156290859E-1
4.727497817E0,1.008737922E0,-1.419456303E-1,1.214822456E-1
4.729893286E0,9.097042680E-1,-1.669903696E-1,2.985516004E-2
4.732288025E0,7.930324674E-1,-1.669903696E-1,-5.566345528E-2
4.734683598E0,6.513158679E-1,-1.278961450E-1,-1.314085126E-1
4.737079900E0,4.924955964E-1,-4.970769584E-2,-1.961583197E-1
4.739475421E0,3.214583695E-1,5.780142173E-2,-2.523562610E-1
4.741870161E0,1.437018216E-1,1.873010397E-1,-3.042782843E-1
4.744265682E0,-3.771981969E-2,3.235199749E-1,-3.470376134E-1
4.746662036E0,-2.197522968E-1,4.627931416E-1,-3.879643679E-1
4.749057504E0,-3.926220834E-1,6.045097113E-1,-4.258368909E-1
4.751452244E0,-5.538857579E-1,7.175164819E-1,-4.624877274E-1
4.753847765E0,-6.962131858E-1,8.097543716E-1,-4.960843325E-1
4.756244119E0,-8.251019120E-1,8.726716638E-1,-5.339568853E-1
4.758639588E0,-9.356653094E-1,9.038248658E-1,-5.712185502E-1
4.761034327E0,-1.032179117E0,8.873320222E-1,-6.170321107E-1
4.763429900E0,-1.126860499E0,8.268581033E-1,-6.597914100E-1
4.765826254E0,-1.186723471E0,7.993699908E-1,-6.750625968E-1
4.768221671E0,-1.230093718E0,7.718818784E-1,-6.616239548E-1
4.770616463E0,-1.256360054E0,7.382852435E-1,-6.414659619E-1
4.773011984E0,-1.275907159E0,7.095754743E-1,-6.127561331E-1
4.775408338E0,-1.297897696E0,6.985802054E-1,-5.791595578E-1
4.777803807E0,-1.315612316E0,7.046886683E-1,-5.449520946E-1
4.780198546E0,-1.337602735E0,7.224032283E-1,-5.083012581E-1
4.782594067E0,-1.357760787E0,7.511130571E-1,-4.692070484E-1
4.784990421E0,-1.374253631E0,7.731035352E-1,-4.252260625E-1
4.787385890E0,-1.391968250E0,7.798228860E-1,-3.733040392E-1
4.789780629E0,-1.399909258E0,7.786011696E-1,-3.213820159E-1
4.792176150E0,-1.399909258E0,7.657734156E-1,-2.615189850E-1
4.794572504E0,-1.384027123E0,7.541673183E-1,-2.016559541E-1
4.796968025E0,-1.368755937E0,7.327876687E-1,-1.393495351E-1
4.799362765E0,-1.351652265E0,7.095754743E-1,-8.192989230E-2
4.801758286E0,-1.328440070E0,6.784222126E-1,-2.023431472E-2
4.804154640E0,-1.305227876E0,6.497124434E-1,3.474193811E-2
4.806550109E0,-1.283848286E0,6.203917265E-1,8.910734206E-2
4.808944848E0,-1.267355323E0,5.910710692E-1,1.379751265E-1
4.811340369E0,-1.248419046E0,5.574744940E-1,1.801999360E-1
4.813736723E0,-1.233147860E0,5.177693963E-1,2.144073844E-1
