"Time (s)","Acceleration x (m/s^2)","Acceleration y (m/s^2)","Acceleration z (m/s^2)"
1.164562500E-2,-4.637290478E0,3.229712248E0,7.450352192E0
1.408484400E-2,-4.666004181E0,3.232105255E0,7.510172844E0
1.652296900E-2,-4.694717884E0,3.196212769E0,7.543672562E0
1.896026100E-2,-4.721039295E0,3.155534744E0,7.587042332E0
2.137359400E-2,-4.713860512E0,3.138785124E0,7.615756035E0
2.375104200E-2,-4.713860512E0,3.138785124E0,7.615756035E0
2.615239600E-2,-4.603790760E0,3.002095222E0,7.852645874E0
2.858958400E-2,-4.603790760E0,3.002095222E0,7.852645874E0
3.100291700E-2,-4.558327198E0,2.966202736E0,7.943572998E0
3.339234400E-2,-4.527220249E0,2.939881802E0,8.032107353E0
3.580562500E-2,-4.486542225E0,2.863311291E0,8.214261055E0
3.824281300E-2,-4.486542225E0,2.863311291E0,8.214261055E0
4.068562500E-2,-4.498506546E0,2.832204819E0,8.350651741E0
4.313255200E-2,-4.558327198E0,2.836990356E0,8.424829483E0
4.558906300E-2,-4.591826439E0,2.868097067E0,8.544470787E0
4.805474000E-2,-4.639683247E0,2.870489836E0,8.654540062E0
5.051692700E-2,-4.634897232E0,2.896811008E0,8.779266357E0
5.297640700E-2,-4.622933388E0,2.908775091E0,8.874979019E0
5.543390700E-2,-4.610969067E0,2.901596546E0,8.963513374E0
5.788989600E-2,-4.582255363E0,2.927917719E0,9.023334503E0
6.034468800E-2,-4.529613495E0,2.930310488E0,9.104690552E0
6.279838600E-2,-4.500899315E0,2.927917719E0,9.116654396E0
6.525125000E-2,-4.467400074E0,2.918346405E0,9.068798065E0
6.770349000E-2,-4.374079704E0,2.954238653E0,9.097511292E0
7.015510500E-2,-4.278367043E0,2.892025232E0,9.126225471E0
7.260614600E-2,-4.228117466E0,2.860918522E0,9.142974854E0
7.505671900E-2,-4.172783375E0,2.870489836E0,9.114261627E0
7.750692700E-2,-4.151247978E0,2.868097067E0,9.087940216E0
7.995682300E-2,-4.170390606E0,2.892025232E0,9.044869423E0
8.240635500E-2,-4.184747696E0,2.925524712E0,8.999405861E0
8.485562500E-2,-4.211368084E0,2.992523909E0,8.946763992E0
8.730458400E-2,-4.264009953E0,3.057130098E0,8.894122124E0
8.975333400E-2,-4.292723656E0,3.073879719E0,8.793622971E0
9.220177100E-2,-4.311866283E0,3.122035265E0,8.709874153E0
9.464994800E-2,-4.328616142E0,3.138785124E0,8.644968987E0
9.709791700E-2,-4.331008911E0,3.172284603E0,8.592327118E0
9.954567700E-2,-4.295116425E0,3.162713289E0,8.518149376E0
1.019931770E-1,-4.275974274E0,3.169891834E0,8.453543663E0
1.044404690E-1,-4.242474556E0,3.177070379E0,8.405686378E0
1.068876050E-1,-4.189533234E0,3.186641455E0,8.345866203E0
1.093345320E-1,-4.167997837E0,3.186641455E0,8.298009872E0
1.117813020E-1,-4.115355968E0,3.172284603E0,8.262117386E0
1.142279170E-1,-4.105784416E0,3.169891834E0,8.221439362E0
1.166743750E-1,-4.081856251E0,3.179463148E0,8.211868286E0
1.191206770E-1,-4.057928085E0,3.208176851E0,8.173583031E0
1.215667710E-1,-4.045963764E0,3.193820000E0,8.154440880E0
1.240127610E-1,-4.060320854E0,3.196212769E0,8.166404724E0
1.264586460E-1,-4.067499161E0,3.208176851E0,8.173583031E0
1.289044270E-1,-4.079463482E0,3.248854876E0,8.190332413E0
1.313356250E-1,-4.103391647E0,3.246462107E0,8.207082748E0
1.337415110E-1,-4.112963200E0,3.258426189E0,8.223832130E0
1.361370320E-1,-4.096213341E0,3.275176048E0,8.231010437E0
1.385325520E-1,-4.103391647E0,3.272783279E0,8.238189697E0
1.409272920E-1,-4.103391647E0,3.287140131E0,8.276473999E0
1.433220840E-1,-4.146462440E0,3.296711445E0,8.283653259E0
1.457176050E-1,-4.175176620E0,3.301496983E0,8.319544792E0
1.481131250E-1,-4.184747696E0,3.325425386E0,8.333902359E0
1.505078650E-1,-4.194318771E0,3.320639610E0,8.381758690E0
1.529026570E-1,-4.189533234E0,3.320639610E0,8.400900841E0
1.552981770E-1,-4.199104786E0,3.306282759E0,8.384151459E0
1.576936980E-1,-4.196712017E0,3.272783279E0,8.372187614E0
1.600884380E-1,-4.187140465E0,3.234498024E0,8.350651741E0
1.624831770E-1,-4.225724697E0,3.234498024E0,8.326724052E0
1.648786980E-1,-4.290330887E0,3.198605776E0,8.283653259E0
1.672742710E-1,-4.347758770E0,3.150749207E0,8.214261055E0
1.696690110E-1,-4.407579422E0,3.122035265E0,8.183154106E0
1.720637500E-1,-4.486542225E0,3.107678413E0,8.168797493E0
1.744592710E-1,-4.546362877E0,3.090928555E0,8.147261620E0
1.768548440E-1,-4.601397991E0,3.098107100E0,8.118248940E0
1.792495840E-1,-4.637290478E0,3.100499868E0,8.094321251E0
1.816443230E-1,-4.704289436E0,3.117249727E0,8.044071198E0
1.840398440E-1,-4.711467743E0,3.098107100E0,8.022536278E0
1.864354170E-1,-4.692325115E0,3.095714331E0,8.044071198E0
1.888301570E-1,-4.668396950E0,3.114856958E0,8.063214302E0
1.912248960E-1,-4.575077057E0,3.126821041E0,8.087141991E0
1.936204170E-1,-4.508078098E0,3.081058264E0,8.103892326E0
1.960159900E-1,-4.409972191E0,3.083451033E0,8.142476082E0
1.984107300E-1,-4.307080746E0,3.083451033E0,8.197511673E0
2.008054690E-1,-4.230510235E0,3.078665495E0,8.235795975E0
2.032009900E-1,-4.136891365E0,3.085843801E0,8.274081230E0
2.055965630E-1,-4.055535316E0,3.078665495E0,8.295617104E0
2.079913020E-1,-4.007678986E0,3.073879719E0,8.293224335E0
2.103860420E-1,-3.928715706E0,3.100499868E0,8.336295128E0
2.127815630E-1,-3.897608995E0,3.100499868E0,8.336295128E0
2.151771360E-1,-3.878466368E0,3.129213810E0,8.345866203E0
2.175718750E-1,-3.854538202E0,3.136392355E0,8.333902359E0
2.199666150E-1,-3.840181351E0,3.150749207E0,8.298009872E0
2.223621880E-1,-3.833002806E0,3.138785124E0,8.235795975E0
2.247577090E-1,-3.821038723E0,3.150749207E0,8.195118904E0
2.271524480E-1,-3.818645954E0,3.138785124E0,8.156833649E0
2.295471880E-1,-3.794717550E0,3.155534744E0,8.101499557E0
2.319427610E-1,-3.780360699E0,3.165106058E0,8.039285660E0
2.343382820E-1,-3.787539244E0,3.179463148E0,7.972286701E0
2.367330210E-1,-3.775574923E0,3.224926710E0,7.890930653E0
2.391277610E-1,-3.804288864E0,3.244069338E0,7.819146156E0
2.415233340E-1,-3.828217030E0,3.279961586E0,7.742575645E0
2.439188550E-1,-3.873680830E0,3.313461065E0,7.697112083E0
2.463135420E-1,-3.885644913E0,3.349353552E0,7.649255753E0
2.487083340E-1,-3.911965847E0,3.378067255E0,7.632505894E0
2.511039070E-1,-3.916751623E0,3.373281717E0,7.599006653E0
2.534994270E-1,-3.900001764E0,3.378067255E0,7.558029652E0
2.558941150E-1,-3.883252144E0,3.409173965E0,7.555636406E0
2.582889070E-1,-3.871287823E0,3.437887907E0,7.512565613E0
2.606844800E-1,-3.888037682E0,3.423531055E0,7.486244678E0
2.630800000E-1,-3.897608995E0,3.437887907E0,7.500601768E0
2.654746880E-1,-3.935894251E0,3.447459221E0,7.498209000E0
2.678694800E-1,-3.983750582E0,3.468994617E0,7.536494255E0
2.702650520E-1,-4.053142548E0,3.485744476E0,7.574779034E0
2.726605730E-1,-4.110570431E0,3.516851187E0,7.639684677E0
2.750552610E-1,-4.177569389E0,3.519243956E0,7.706683636E0
2.774500520E-1,-4.230510235E0,3.535993576E0,7.811967850E0
2.798456250E-1,-4.295116425E0,3.528815269E0,7.914859295E0
2.822411460E-1,-4.331008911E0,3.509672642E0,8.012965202E0
2.846358340E-1,-4.371686935E0,3.524029493E0,8.125427246E0
2.870306250E-1,-4.383651257E0,3.492922783E0,8.223832130E0
2.894261980E-1,-4.386044025E0,3.471387386E0,8.333902359E0
2.918217190E-1,-4.388436794E0,3.473780155E0,8.393722534E0
2.942164070E-1,-4.388436794E0,3.476173162E0,8.460721970E0
2.966111980E-1,-4.398007870E0,3.473780155E0,8.527720451E0
2.990067710E-1,-4.383651257E0,3.485744476E0,8.554041862E0
3.014022920E-1,-4.378865242E0,3.485744476E0,8.573184013E0
3.037969800E-1,-4.366901398E0,3.490530014E0,8.587541580E0
3.061917710E-1,-4.350151539E0,3.480958700E0,8.563612938E0
3.085873440E-1,-4.347758770E0,3.492922783E0,8.551649094E0
3.109828650E-1,-4.333401680E0,3.502494097E0,8.534899712E0
3.133775520E-1,-4.309473515E0,3.526422262E0,8.510971069E0
3.157723440E-1,-4.319045067E0,3.531208038E0,8.458329201E0
3.181678650E-1,-4.292723656E0,3.555136204E0,8.403293610E0
3.205633860E-1,-4.256831646E0,3.581457376E0,8.357830048E0
3.229581250E-1,-4.225724697E0,3.602992773E0,8.341080666E0
3.253529170E-1,-4.182354927E0,3.653541088E0,8.321938515E0
3.277484380E-1,-4.127319813E0,3.708575964E0,8.264510155E0
3.301439590E-1,-4.072285175E0,3.749253988E0,8.238189697E0
3.325386980E-1,-4.050749779E0,3.794717550E0,8.183154106E0
3.349334900E-1,-4.048357010E0,3.844966888E0,8.134998322E0
3.373290630E-1,-4.033999920E0,3.888037682E0,8.070392609E0
3.397245840E-1,-4.038785458E0,3.945465326E0,7.998608112E0
3.421192710E-1,-4.050749779E0,3.986143351E0,7.929215908E0
3.445140630E-1,-4.120141506E0,4.060320854E0,7.912466049E0
3.469096360E-1,-4.189533234E0,4.160819530E0,7.890930653E0
3.493051570E-1,-4.256831646E0,4.235296249E0,7.912466049E0
3.516998440E-1,-4.333401680E0,4.278367043E0,7.898109436E0
3.540946360E-1,-4.354937077E0,4.309473515E0,7.919644833E0
3.564902090E-1,-4.414757729E0,4.340580463E0,7.924430370E0
3.588857300E-1,-4.398007870E0,4.314259052E0,7.953144073E0
3.612804170E-1,-4.378865242E0,4.287938118E0,7.962715626E0
3.636752090E-1,-4.350151539E0,4.172783375E0,7.974679470E0
3.660707820E-1,-4.340580463E0,4.062713623E0,7.955537319E0
3.684663020E-1,-4.347758770E0,3.904787540E0,7.936394691E0
3.708609900E-1,-4.338187218E0,3.720540047E0,7.898109436E0
3.732557820E-1,-4.364508629E0,3.538386583E0,7.864609718E0
3.756513550E-1,-4.407579422E0,3.375674486E0,7.828717709E0
3.780468750E-1,-4.441078663E0,3.212962627E0,7.788039684E0
3.804415630E-1,-4.505684853E0,3.071486950E0,7.740182877E0
3.828363550E-1,-4.622933388E0,2.918346405E0,7.666005611E0
3.852319270E-1,-4.721039295E0,2.817847729E0,7.654041290E0
3.876274480E-1,-4.874478817E0,2.683849812E0,7.627720356E0
3.900221360E-1,-5.058726311E0,2.549851656E0,7.582256794E0
3.924169270E-1,-5.252544880E0,2.348555326E0,7.536494255E0
3.948125000E-1,-5.350949764E0,2.082952023E0,7.534101009E0
3.972080210E-1,-5.516054630E0,2.070987940E0,7.498209000E0
3.996027090E-1,-5.695516109E0,2.020738840E0,7.433602810E0
4.019975000E-1,-5.947061539E0,2.001596212E0,7.134500027E0
4.043930730E-1,-6.009274960E0,2.044667006E0,7.167999268E0
4.067885940E-1,-6.085845470E0,2.102094650E0,7.304390430E0
4.091833340E-1,-6.157629967E0,2.042274237E0,7.553243637E0
4.115780730E-1,-6.191129684E0,1.994417667E0,7.814360619E0
4.139736460E-1,-5.633302689E0,1.840977907E0,7.811967850E0
4.163691670E-1,-5.334199905E0,1.611266971E0,7.833503246E0
4.187638550E-1,-5.405984402E0,1.683051586E0,8.278866768E0
4.211586460E-1,-5.559125423E0,1.769193292E0,9.020941734E0
4.235542190E-1,-5.798407555E0,1.850549221E0,9.839884758E0
4.259497400E-1,-6.042774677E0,1.917548299E0,1.032562828E1
4.283444800E-1,-6.033203125E0,1.917548299E0,1.088345432E1
4.307392190E-1,-5.886941910E0,1.896012783E0,1.114935684E1
4.331347920E-1,-5.080261707E0,1.474876046E0,1.114696407E1
4.355303130E-1,-4.465006828E0,9.792626500E-1,1.131206894E1
4.379250000E-1,-4.476971149E0,1.055832982E0,1.159232807E1
4.403197920E-1,-4.716253281E0,1.331007600E0,1.184836006E1
4.427153650E-1,-5.144867897E0,1.601695657E0,1.212144089E1
4.451108860E-1,-5.568696499E0,1.773978829E0,1.243490124E1
4.475056250E-1,-5.911169052E0,1.850549221E0,1.264576817E1
4.499003650E-1,-6.109773636E0,1.924726725E0,1.264337540E1
4.522959380E-1,-6.109773636E0,2.003988981E0,1.242772293E1
4.546914590E-1,-5.975775242E0,2.073380709E0,1.208554935E1
4.570861980E-1,-5.776872158E0,2.135594130E0,1.167846966E1
4.594809380E-1,-5.573482037E0,2.181057930E0,1.125703430E1
4.618765110E-1,-5.372485161E0,2.145165443E0,1.075902748E1
4.642720320E-1,-5.142475128E0,2.032702923E0,1.027537823E1
4.666667710E-1,-4.843372345E0,1.455733418E0,9.835099220E0
4.690615110E-1,-4.599005222E0,1.060618639E0,9.480662346E0
4.714570840E-1,-4.371686935E0,8.548358679E-1,9.253045082E0
4.738526050E-1,-4.148855209E0,6.702894568E-1,9.107083321E0
4.762473440E-1,-4.033999920E0,5.051847100E-1,9.030512810E0
4.786420840E-1,-3.998107433E0,3.640081584E-1,8.989834785E0
4.810376570E-1,-4.033999920E0,2.608176768E-1,8.980263710E0
4.834331770E-1,-4.110570431E0,2.321037948E-1,8.985049248E0
4.858279170E-1,-4.165605068E0,2.009970993E-1,8.975478172E0
4.882226570E-1,-4.144069672E0,2.177468538E-1,8.920442581E0
4.906182300E-1,-4.100998878E0,2.392822653E-1,8.796015739E0
4.930137500E-1,-4.014857292E0,2.584248483E-1,8.652147293E0
4.954084900E-1,-3.895216227E0,2.632105052E-1,8.482256889E0
4.978032300E-1,-3.751646757E0,2.584248483E-1,8.262117386E0
5.001988020E-1,-3.591028690E0,3.161516786E-1,8.103892326E0
5.025943230E-1,-3.385245800E0,3.305086195E-1,7.969893932E0
5.049890630E-1,-3.212962627E0,3.496512175E-1,7.859824181E0
5.073838020E-1,-2.999702215E0,3.137588799E-1,7.773682594E0
5.097793750E-1,-2.829811811E0,3.137588799E-1,7.675576687E0
5.121748960E-1,-2.635993242E0,3.281157911E-1,7.666005611E0
5.145696360E-1,-2.475374937E0,2.850449979E-1,7.725826263E0
5.169644270E-1,-2.355733871E0,3.041875660E-1,7.797610760E0
5.193599480E-1,-2.279163599E0,2.632105052E-1,7.895716667E0
5.217554690E-1,-2.207378864E0,2.703889608E-1,8.029714584E0
5.241502090E-1,-2.169093609E0,2.297109663E-1,8.152048111E0
5.265450000E-1,-2.111665964E0,1.890329868E-1,8.235795975E0
5.289405210E-1,-2.097309113E0,1.339980662E-1,8.281260490E0
5.313360420E-1,-2.066202402E0,5.503492057E-2,8.278866768E0
5.337307820E-1,-2.082952023E0,8.374879509E-2,8.228617668E0
5.361255730E-1,-2.020738840E0,4.785645381E-2,8.269295692E0
5.385210940E-1,-1.984846354E0,9.571290575E-3,8.424829483E0
5.409166150E-1,-1.872084618E0,-4.546362907E-2,8.443971634E0
5.433113550E-1,-1.757229090E0,-1.531406492E-1,8.355437279E0
5.457061460E-1,-1.620838284E0,-2.321037948E-1,8.197511673E0
5.481017190E-1,-1.565803289E0,-2.994019389E-1,8.063214302E0
5.504972400E-1,-1.534696579E0,-4.046861231E-1,7.991429329E0
5.528919270E-1,-1.417448282E0,-4.788636267E-1,7.929215908E0
5.552867190E-1,-1.244866014E0,-5.889334679E-1,7.886145115E0
5.576822920E-1,-1.005583763E0,-6.918248534E-1,7.862216949E0
5.600778130E-1,-8.162516356E-1,-7.779664397E-1,7.878966808E0
5.624725000E-1,-6.678966284E-1,-8.596215248E-1,7.936394691E0
5.648672920E-1,-5.817549825E-1,-9.529415965E-1,8.036892891E0
5.672628650E-1,-5.697908998E-1,-1.010369420E0,8.199904442E0
5.696583860E-1,-5.913262963E-1,-1.039083242E0,8.441578865E0
5.720531250E-1,-6.296114326E-1,-1.053440213E0,8.692825317E0
5.744478650E-1,-5.817549825E-1,-1.043868899E0,8.951549530E0
5.768434380E-1,-4.884349108E-1,-1.060618639E0,9.183652878E0
5.792389590E-1,-5.673980713E-1,-1.084546804E0,9.356235504E0
5.816336980E-1,-7.348956466E-1,-1.118046403E0,9.518947601E0
5.840284380E-1,-8.787640929E-1,-1.108475089E0,9.688838005E0
5.864240110E-1,-1.067797065E0,-1.079761267E0,9.839884758E0
5.888195320E-1,-1.338186026E0,-1.039083242E0,9.899705887E0
5.912142710E-1,-1.659123421E0,-1.000798106E0,9.964311600E0
5.936090110E-1,-2.047059774E0,-9.577272534E-1,9.981060982E0
5.960045840E-1,-2.472982168E0,-9.457631707E-1,9.971489906E0
5.984001050E-1,-2.887239695E0,-9.314061999E-1,9.890133858E0
6.007948440E-1,-3.306282759E0,-9.242277741E-1,9.786943436E0
6.031895840E-1,-3.744468451E0,-9.050851464E-1,9.633803368E0
6.055851570E-1,-4.146462440E0,-9.242277741E-1,9.485447884E0
6.079806770E-1,-4.536791801E0,-9.290133715E-1,9.310771942E0
6.103754170E-1,-4.864907742E0,-9.433703423E-1,9.114261627E0
6.127702090E-1,-5.164010525E0,-9.505487680E-1,8.951549530E0
6.151657300E-1,-5.405984402E0,-9.337990284E-1,8.817551613E0
6.175612500E-1,-5.587839127E0,-9.433703423E-1,8.688039780E0
6.199559900E-1,-5.626124382E0,-8.835497499E-1,8.367402077E0
6.223507820E-1,-5.712265968E0,-8.979067206E-1,8.333902359E0
6.247463020E-1,-5.788836002E0,-8.907282352E-1,8.341080666E0
6.271418230E-1,-5.791228771E0,-8.907282352E-1,8.396115303E0
6.295365630E-1,-5.752943993E0,-8.282157183E-1,8.391329765E0
6.319313550E-1,-5.693123341E0,-8.042874932E-1,8.386544228E0
6.343268750E-1,-5.573482037E0,-7.707880139E-1,8.350651741E0
6.367223960E-1,-5.477769375E0,-7.229315639E-1,8.345866203E0
6.391171360E-1,-5.377270699E0,-6.990033388E-1,8.324331284E0
6.415119270E-1,-5.245366573E0,-6.655037999E-1,8.343473434E0
6.439074480E-1,-5.097011566E0,-6.128616929E-1,8.374580383E0
6.463029690E-1,-4.953442097E0,-5.530411601E-1,8.388936996E0
6.486977090E-1,-4.759324074E0,-4.836492836E-1,8.379365921E0
6.510925000E-1,-4.462614059E0,-3.975076675E-1,8.343473434E0
6.534880730E-1,-4.024428368E0,-3.520440459E-1,8.264510155E0
6.558835940E-1,-3.559921980E0,-2.994019389E-1,8.132605553E0
6.582782820E-1,-3.110071182E0,-2.273181528E-1,8.036892891E0
6.606730730E-1,-2.805883646E0,-9.332008660E-2,7.967501163E0
6.630686460E-1,-2.714956284E0,1.746760458E-1,7.778468132E0
6.654641670E-1,-2.595315218E0,5.099703074E-1,7.706683636E0
6.678589070E-1,-2.425125837E0,8.955138922E-1,7.735397339E0
6.702536460E-1,-2.248056889E0,1.292722464E0,7.749754429E0
6.726492190E-1,-2.063809633E0,1.613659739E0,7.725826263E0
6.750447400E-1,-1.891227245E0,1.817049742E0,7.721040249E0
6.774394800E-1,-9.122636318E-1,1.680658817E0,8.103892326E0
6.798342190E-1,-5.503492057E-2,1.496411443E0,8.551649094E0
6.822297920E-1,3.161516786E-1,1.474876046E0,8.439186096E0
6.846253130E-1,6.296114326E-1,1.474876046E0,8.149654388E0
6.870200520E-1,9.002995491E-1,1.517946839E0,7.857431412E0
6.894147920E-1,1.189831018E0,1.580160260E0,7.567600727E0
6.918103650E-1,1.460519075E0,1.601695657E0,7.323532581E0
6.942058860E-1,1.666301847E0,1.625623941E0,7.141678333E0
6.966006250E-1,1.821835399E0,1.651944876E0,6.966702938E0
6.989954170E-1,1.934298038E0,1.668694735E0,6.815955162E0
7.013909380E-1,2.001596212E0,1.690230131E0,6.681957245E0
7.037864590E-1,2.078166485E0,1.692622900E0,6.569494724E0
7.061811980E-1,2.106880426E0,1.716551185E0,6.466603279E0
7.085759900E-1,2.123630047E0,1.723729610E0,6.428019047E0
7.109715110E-1,2.109273195E0,1.754836321E0,6.372983932E0
7.133670320E-1,2.051845312E0,1.742872238E0,6.334698677E0
7.157617710E-1,1.982453585E0,1.697408557E0,6.317949295E0
7.181565630E-1,1.867298961E0,1.651944876E0,6.315556049E0
7.205521360E-1,1.695015788E0,1.565803289E0,6.317949295E0
7.229476570E-1,1.467697620E0,1.484447360E0,6.325127602E0
7.253423440E-1,1.175474167E0,1.376471281E0,6.332305908E0
7.277371360E-1,8.715856671E-1,1.266401410E0,6.384948254E0
7.301327090E-1,5.697908998E-1,1.170688510E0,6.500102520E0
7.325282300E-1,2.632105052E-1,1.098903775E0,6.636493683E0
7.349229690E-1,-4.546362907E-2,9.768698215E-1,6.818347931E0
7.373177090E-1,-3.831507266E-1,9.050851464E-1,7.000202656E0
7.397132820E-1,-7.301099896E-1,8.596215248E-1,7.225427151E0
7.421088020E-1,-1.055832982E0,8.377870321E-1,7.457530975E0
7.445035420E-1,-1.366899967E0,8.306085467E-1,7.788039684E0
7.468982820E-1,-1.692622900E0,8.644071817E-1,8.132605553E0
7.492938550E-1,-1.984846354E0,9.098708034E-1,8.522934914E0
7.516893750E-1,-2.178664923E0,9.481559992E-1,8.906085968E0
7.540841150E-1,-2.312663078E0,1.046261668E0,9.233902931E0
7.564789070E-1,-2.413161755E0,1.103689432E0,9.585947037E0
7.588744270E-1,-2.707777977E0,1.254437327E0,1.051974583E1
7.612699480E-1,-3.112463951E0,1.453340650E0,1.165214920E1
7.636646880E-1,-3.248854876E0,1.632802367E0,1.217408371E1
7.660594800E-1,-3.033201694E0,1.726122379E0,1.173829079E1
7.684550000E-1,-2.612065077E0,1.766800404E0,1.086909771E1
7.708505210E-1,-2.300698996E0,1.759621978E0,9.772586823E0
7.732452610E-1,-2.114058733E0,1.843370795E0,9.169296265E0
7.756400520E-1,-2.030309916E0,2.037488461E0,8.874979019E0
7.780356250E-1,-1.953440547E0,2.193022013E0,9.047262192E0
7.804311460E-1,-1.831406593E0,2.271985054E0,9.356235504E0
7.828258340E-1,-1.587338686E0,2.336591244E0,9.495018959E0
7.852206250E-1,-1.247258782E0,2.327019930E0,9.372985840E0
7.876161980E-1,-8.258228898E-1,2.312663078E0,9.097511292E0
7.900117190E-1,-2.201396823E-1,2.216950178E0,8.743373871E0
7.924064590E-1,4.597210586E-1,2.011167526E0,8.353044510E0
7.948011980E-1,1.096511006E0,1.776371717E0,8.029714584E0
7.971967710E-1,1.661516190E0,1.482054472E0,7.864609718E0
7.995922920E-1,2.032702923E0,1.216152072E0,7.783253670E0
8.019870320E-1,2.331805706E0,9.888339639E-1,7.788039684E0
8.043817710E-1,2.506481647E0,8.401798606E-1,7.855038643E0
8.067773440E-1,2.583351135E0,7.851449251E-1,7.934001446E0
8.091728650E-1,2.607279301E0,7.755736113E-1,8.087141991E0
8.115676050E-1,2.616850615E0,7.827520967E-1,8.298009872E0
8.139623960E-1,2.540280342E0,7.971090674E-1,8.561220169E0
8.163579690E-1,2.391626120E0,8.330013752E-1,8.863015175E0
8.187534900E-1,2.245664120E0,8.787640929E-1,9.138189316E0
8.211481770E-1,2.128415823E0,9.026923180E-1,9.396913528E0
8.235429690E-1,1.987239242E0,8.931210637E-1,9.626625061E0
8.259385420E-1,1.905584097E0,8.883354068E-1,9.827920914E0
8.283340630E-1,1.836192250E0,8.548358679E-1,1.002891827E1
8.307287500E-1,1.778764486E0,8.162516356E-1,1.023230743E1
8.331235420E-1,1.745265007E0,7.420741320E-1,1.038066292E1
8.355191150E-1,1.750050664E0,6.702894568E-1,1.057717323E1
8.379146360E-1,1.762014747E0,5.793621540E-1,1.072313595E1
8.403093750E-1,1.773978829E0,4.908277392E-1,1.087149048E1
8.427041150E-1,1.795514345E0,3.975076675E-1,1.101535892E1
8.450996880E-1,1.819442511E0,2.703889608E-1,1.113500023E1
8.474952090E-1,1.843370795E0,1.818545163E-1,1.125703430E1
8.498899480E-1,1.869691849E0,1.004985496E-1,1.134556866E1
8.522847400E-1,1.824228168E0,4.067798331E-2,1.142692471E1
8.546802610E-1,1.800299883E0,-3.349951655E-2,1.153968620E1
8.570757820E-1,1.776371717E0,-6.460621208E-2,1.160907841E1
8.594705210E-1,1.747657895E0,-8.374879509E-2,1.164257812E1
8.618653130E-1,1.721336842E0,-1.196411327E-1,1.168804169E1
8.642608860E-1,1.685444474E0,-1.316052526E-1,1.170957661E1
8.666564070E-1,1.666301847E0,-1.459621787E-1,1.174786186E1
8.690510940E-1,1.601695657E0,-1.770688742E-1,1.176221848E1
8.714458860E-1,1.520339727E0,-1.866401732E-1,1.176461124E1
8.738414590E-1,1.436590910E0,-1.890329868E-1,1.173829079E1
8.762369800E-1,1.383649707E0,-2.201396823E-1,1.173589802E1
8.786317190E-1,1.309472203E0,-2.177468538E-1,1.170239830E1
8.810264590E-1,1.278365493E0,-2.392822653E-1,1.173111248E1
8.834220320E-1,1.259222865E0,-2.656033039E-1,1.170479107E1
8.858175520E-1,1.261615753E0,-2.898306549E-1,1.170718384E1
8.882122920E-1,1.362114310E0,-3.257229924E-1,1.171914768E1
8.906070840E-1,1.876870275E0,-4.357928336E-1,1.200389385E1
8.930026050E-1,1.843370795E0,-4.525425732E-1,1.203021526E1
8.953981250E-1,1.776371717E0,-4.238287210E-1,1.194407368E1
8.977928650E-1,1.764407635E0,-4.022932947E-1,1.190100288E1
9.001876570E-1,1.726122379E0,-3.640081584E-1,1.187707424E1
9.025832300E-1,1.680658817E0,-3.209373355E-1,1.183639622E1
9.049787500E-1,1.654337764E0,-2.799602449E-1,1.177179050E1
9.073734380E-1,1.692622900E0,-2.464607358E-1,1.176700401E1
9.097682300E-1,1.750050664E0,-2.057827413E-1,1.172393322E1
9.121638020E-1,1.802692771E0,-1.866401732E-1,1.170000553E1
9.145593230E-1,1.814656854E0,-1.674975902E-1,1.163300610E1
9.169540630E-1,1.884048700E0,-1.100698411E-1,1.155882931E1
9.193488020E-1,1.924726725E0,-1.028913707E-1,1.149392319E1
9.217443750E-1,1.960619092E0,-5.264209956E-2,1.137906837E1
9.241398960E-1,2.003988981E0,-4.307080805E-2,1.123310566E1
9.265346360E-1,2.044667006E0,7.178467698E-3,1.109671497E1
9.289294270E-1,2.047059774E0,4.546362907E-2,1.093609715E1
9.313249480E-1,2.056631088E0,8.135596663E-2,1.075663471E1
9.337204690E-1,1.972882271E0,1.148554832E-1,1.055324554E1
9.361152090E-1,1.912762642E0,1.770688742E-1,1.039053345E1
9.385100000E-1,1.831406593E0,2.201396823E-1,1.016291618E1
9.409055730E-1,1.764407635E0,2.632105052E-1,9.971489906E0
9.433010940E-1,1.678265929E0,3.017947674E-1,9.719944954E0
9.456957820E-1,1.601695657E0,3.592225015E-1,9.495018959E0
9.480905730E-1,1.527518153E0,3.687937856E-1,9.248259544E0
9.504861460E-1,1.462911963E0,3.927220106E-1,9.018548965E0
9.528816670E-1,1.386042476E0,4.070789516E-1,8.776873589E0
9.552764070E-1,1.314257860E0,4.334000051E-1,8.589934349E0
9.576711460E-1,1.242473125E0,4.357928336E-1,8.415258408E0
9.600667190E-1,1.192223907E0,4.668995142E-1,8.286046028E0
9.624622400E-1,1.161117196E0,4.621138871E-1,8.192725182E0
9.648569800E-1,1.134796143E0,4.860421121E-1,8.154440880E0
9.672517710E-1,1.118046403E0,5.171487927E-1,8.132605553E0
9.696472920E-1,1.113260746E0,5.362913609E-1,8.154440880E0
9.720428130E-1,1.108475089E0,5.506483316E-1,8.178368568E0
9.744375520E-1,1.079761267E0,5.769693851E-1,8.202297211E0
9.768323440E-1,1.058225870E0,5.913262963E-1,8.271688461E0
9.792279170E-1,1.060618639E0,5.841478109E-1,8.400900841E0
9.816234380E-1,1.110867858E0,6.080760360E-1,8.534899712E0
9.840181770E-1,1.199402332E0,5.937191248E-1,8.697610855E0
9.864129170E-1,1.290329576E0,5.769693851E-1,8.841479301E0
9.888084900E-1,1.352542996E0,5.195416212E-1,8.989834785E0
9.912040110E-1,1.429412484E0,5.147559643E-1,9.128618240E0
9.935987500E-1,1.503589988E0,5.027918816E-1,9.253045082E0
9.959935420E-1,1.541875124E0,4.956133962E-1,9.351449966E0
9.983890630E-1,1.539482236E0,4.381856322E-1,9.461520195E0
1.000784584E0,1.558624864E0,4.022932947E-1,9.492626190E0
1.003179323E0,1.618445396E0,4.214358926E-1,9.535696983E0
1.005574115E0,1.642373681E0,4.357928336E-1,9.609874725E0
1.007969688E0,1.740479350E0,4.381856322E-1,9.664909363E0
1.010365209E0,1.845763564E0,4.357928336E-1,9.705587387E0
1.012759896E0,1.977667928E0,4.453641176E-1,9.722337723E0
1.015154688E0,2.274377823E0,3.951148391E-1,9.854242325E0
1.017550261E0,2.724527597E0,2.297109663E-1,1.009113121E1
1.019945782E0,2.753241539E0,2.297109663E-1,1.006480980E1
1.022340521E0,2.762812853E0,2.368894368E-1,9.930811882E0
1.024735313E0,2.767598391E0,2.057827413E-1,9.882955551E0
1.027130834E0,2.774776936E0,2.416750938E-1,9.842277527E0
1.029526355E0,2.836990356E0,2.560320199E-1,9.808479309E0
1.031921094E0,3.023630619E0,2.826521695E-1,9.743872643E0
1.034315886E0,3.279961586E0,2.946162820E-1,9.724730492E0
1.036711459E0,3.614956856E0,3.281157911E-1,9.684052467E0
1.039106980E0,3.935894251E0,3.352942765E-1,9.657731056E0
1.041501667E0,4.079463482E0,3.281157911E-1,9.648159981E0
1.043896459E0,4.091427803E0,3.329014480E-1,9.643374443E0
1.046292032E0,4.029214382E0,3.448655605E-1,9.602696419E0
1.048687552E0,3.911965847E0,3.616153300E-1,9.545269012E0
1.051082292E0,3.794717550E0,3.735794425E-1,9.439984322E0
1.053477032E0,3.648755312E0,3.735794425E-1,9.315557480E0
1.055872605E0,3.512065411E0,3.903291821E-1,9.190832138E0
1.058268125E0,3.380460262E0,4.405784607E-1,9.028120041E0
1.060662865E0,3.311068296E0,4.908277392E-1,8.867800713E0
1.063057657E0,3.246462107E0,5.482555032E-1,8.697610855E0
1.065453230E0,3.217748165E0,5.889334679E-1,8.546863556E0
1.067848750E0,3.169891834E0,6.750751138E-1,8.396115303E0
1.070243438E0,3.160320520E0,7.396813035E-1,8.240582466E0
1.072638230E0,3.155534744E0,7.827520967E-1,8.082356453E0
1.075033802E0,3.160320520E0,8.401798606E-1,7.905287743E0
1.077429323E0,3.189034462E0,8.787640929E-1,7.737790108E0
1.079824063E0,3.208176851E0,9.218349457E-1,7.541279793E0
1.082218855E0,3.224926710E0,9.625129104E-1,7.342675209E0
1.084614375E0,3.260818958E0,1.003190875E0,7.124928474E0
1.087009896E0,3.337389469E0,9.936196208E-1,6.971488953E0
1.089404636E0,3.430709362E0,1.012762189E0,6.799205780E0
1.091799427E0,3.550350666E0,1.005583763E0,6.650850773E0
1.094195000E0,3.638885021E0,9.529415965E-1,6.507281303E0
1.096590521E0,3.722932816E0,9.170492887E-1,6.401698112E0
1.098985261E0,3.792324781E0,8.691928387E-1,6.334698677E0
1.101380000E0,3.789932013E0,7.947162390E-1,6.265306950E0
1.103775573E0,3.804288864E0,7.157530785E-1,6.227021694E0
1.106171094E0,3.773182154E0,6.008976102E-1,6.195915222E0
1.108565834E0,3.766003847E0,5.027918816E-1,6.167201042E0
1.110960625E0,3.730111361E0,3.975076675E-1,6.143272877E0
1.113356146E0,3.701397419E0,3.281157911E-1,6.090631008E0
1.115751667E0,3.696611881E0,2.679961324E-1,6.037988663E0
1.118146407E0,3.679862022E0,2.584248483E-1,5.992525101E0
1.120541198E0,3.682255030E0,2.751746178E-1,5.951847076E0
1.122936771E0,3.710968733E0,3.017947674E-1,5.915955067E0
1.125332292E0,3.742075443E0,3.352942765E-1,5.901597977E0
1.127727032E0,3.770789385E0,3.711866140E-1,5.892026424E0
1.130121771E0,3.804288864E0,3.879363835E-1,5.923133373E0
1.132517344E0,3.830610037E0,3.975076675E-1,5.966204166E0
1.134912865E0,3.823431492E0,3.903291821E-1,5.999703884E0
1.137307605E0,3.830610037E0,3.783650696E-1,6.066702843E0
1.139702396E0,3.828217030E0,3.616153300E-1,6.145665646E0
1.142097969E0,3.804288864E0,3.185445070E-1,6.234200478E0
1.144493490E0,3.794717550E0,2.799602449E-1,6.308377743E0
1.146888177E0,3.792324781E0,2.536391914E-1,6.404090881E0
1.149282969E0,3.775574923E0,2.081755698E-1,6.492924213E0
1.151678542E0,3.789932013E0,1.435693651E-1,6.583851337E0
1.154074063E0,3.754039526E0,9.332008660E-2,6.715456963E0
1.156468802E0,3.720540047E0,1.914258115E-2,6.811169624E0
1.158863594E0,3.701397419E0,-1.674975827E-2,6.906882763E0
1.161259115E0,3.665505171E0,-5.264209956E-2,6.961917400E0
1.163654636E0,3.691826344E0,-7.657032460E-2,7.036394119E0
1.166049375E0,3.708575964E0,-1.268195957E-1,7.053143978E0
1.168444167E0,3.718147278E0,-1.746760458E-1,7.108178616E0
1.170839740E0,3.689433336E0,-2.009970993E-1,7.103393078E0
1.173235261E0,3.715754509E0,-2.249253243E-1,7.069893837E0
1.175630000E0,3.713361740E0,-2.751746178E-1,7.029215813E0
1.178024740E0,3.720540047E0,-3.305086195E-1,6.959524632E0
1.180420313E0,3.722932816E0,-3.448655605E-1,6.873383045E0
1.182815834E0,3.725325823E0,-3.831507266E-1,6.823133945E0
1.185210573E0,3.766003847E0,-4.405784607E-1,6.720242500E0
1.187605365E0,3.799503326E0,-4.549354017E-1,6.619743824E0
1.190000938E0,3.792324781E0,-4.812564552E-1,6.533602238E0
1.192396459E0,3.809074640E0,-5.099703074E-1,6.430411816E0
1.194791146E0,3.859323740E0,-5.291129351E-1,6.289235115E0
1.197185938E0,3.916751623E0,-5.745765567E-1,6.128916264E0
1.199581511E0,3.938287020E0,-5.793621540E-1,5.963811398E0
1.201977032E0,3.921537161E0,-5.985047817E-1,5.784050465E0
1.204371771E0,3.895216227E0,-5.865406394E-1,5.626124382E0
1.206766563E0,3.833002806E0,-5.554339290E-1,5.451447964E0
1.209162084E0,3.727718592E0,-5.099703074E-1,5.309972763E0
1.211557605E0,3.562314749E0,-4.549354017E-1,5.168796062E0
1.213952344E0,3.401995659E0,-3.831507266E-1,5.046761990E0
1.216347136E0,3.284747362E0,-2.703889608E-1,4.919942379E0
1.218742709E0,3.141177893E0,-2.416750938E-1,4.809872627E0
1.221138230E0,3.018844843E0,-1.986042857E-1,4.718646049E0
1.223532969E0,2.963809967E0,-1.674975902E-1,4.646861553E0
1.225927709E0,2.913560629E0,-1.962114573E-1,4.596612453E0
1.228323282E0,2.889632463E0,-2.488535494E-1,4.579862595E0
1.230718802E0,2.851347208E0,-3.472583890E-1,4.563112736E0
1.233113542E0,2.810669184E0,-4.597210586E-1,4.591826439E0
1.235508334E0,2.741277456E0,-6.128616929E-1,4.644468784E0
1.237903907E0,2.631207705E0,-7.444669604E-1,4.721039295E0
1.240299427E0,2.549851656E0,-8.668000102E-1,4.840979099E0
1.242694167E0,2.492124796E0,-9.601200819E-1,4.974977493E0
1.245088907E0,2.477767944E0,-1.012762189E0,5.135296345E0
1.247484480E0,2.528316259E0,-1.029511929E0,5.312365532E0
1.249880000E0,2.631207705E0,-1.048654556E0,5.523232937E0
1.252274740E0,2.784348249E0,-1.012762189E0,5.707480431E0
1.254669532E0,2.961417198E0,-9.625129104E-1,5.829514027E0
1.257065105E0,3.122035265E0,-9.601200819E-1,5.913562298E0
1.259460625E0,3.150749207E0,-9.361918569E-1,5.805585861E0
1.261855313E0,3.126821041E0,-9.720842242E-1,5.642873764E0
1.264250105E0,3.253640652E0,-1.070189953E0,5.633302689E0
1.266645677E0,3.468994617E0,-1.254437327E0,5.618945599E0
1.269041198E0,3.749253988E0,-1.501197100E0,5.645267010E0
1.271435938E0,4.019642830E0,-1.773978829E0,5.635695457E0
1.273830730E0,4.230510235E0,-2.056631088E0,5.571089268E0
1.276226250E0,4.359723091E0,-2.312663078E0,5.461019516E0
1.278621771E0,4.417150497E0,-2.520838737E0,5.329114914E0
1.281016511E0,4.429114819E0,-2.700599432E0,5.152046204E0
1.283411302E0,4.453042984E0,-2.810669184E0,4.934299469E0
1.285806875E0,4.543970108E0,-2.865704298E0,4.788337231E0
1.288202396E0,4.570291042E0,-2.930310488E0,4.627718925E0
1.290597136E0,4.553541660E0,-2.968595505E0,4.541577339E0
1.292991927E0,4.529613495E0,-3.047558784E0,4.493721008E0
1.295387448E0,4.527220249E0,-3.093321562E0,4.503292084E0
1.297782969E0,4.572684288E0,-3.174677372E0,4.587040901E0
1.300177709E0,4.582255363E0,-3.244069338E0,4.699503899E0
1.302572500E0,4.594219685E0,-3.332603693E0,4.867300510E0
1.304968073E0,4.560719967E0,-3.454637766E0,5.030012131E0
1.307363594E0,4.488935471E0,-3.571886063E0,5.185545921E0
1.309758334E0,4.364508629E0,-3.713361740E0,5.326722145E0
1.312153073E0,4.120141506E0,-3.864109516E0,5.379663467E0
1.314548646E0,3.945465326E0,-3.974179268E0,5.501697540E0
1.316944167E0,3.837788343E0,-4.019642830E0,5.614160061E0
1.319338907E0,3.732504129E0,-4.043570995E0,5.712265968E0
1.321733698E0,3.643670797E0,-4.079463482E0,5.810371399E0
1.324129271E0,3.543172121E0,-4.110570431E0,5.911169052E0
1.326524792E0,3.418745279E0,-4.084249020E0,5.980561256E0
1.328919532E0,3.315854073E0,-4.062713623E0,6.057131290E0
1.331314271E0,3.236890793E0,-4.060320854E0,6.164808273E0
1.333709844E0,3.150749207E0,-4.036392689E0,6.243771553E0
1.336105365E0,3.069094181E0,-4.000500202E0,6.334698677E0
1.338500105E0,2.966202736E0,-3.959822416E0,6.370591164E0
1.340894896E0,2.820240498E0,-3.947858334E0,6.416054726E0
1.343290469E0,2.724527597E0,-3.955036640E0,6.447161674E0
1.345685990E0,2.633600473E0,-3.947858334E0,6.485745907E0
1.348080677E0,2.561815739E0,-4.014857292E0,6.535995007E0
1.350475469E0,2.537887573E0,-4.100998878E0,6.591030121E0
1.352871042E0,2.549851656E0,-4.191926003E0,6.677171707E0
1.355266563E0,2.616850615E0,-4.319045067E0,6.760920525E0
1.357661302E0,2.765205622E0,-4.479363918E0,6.851847649E0
1.360056094E0,2.966202736E0,-4.677968502E0,7.024429798E0
1.362451667E0,3.234498024E0,-4.876871586E0,7.201498985E0
1.364847188E0,3.557528973E0,-5.068297386E0,7.373782158E0
1.367241875E0,3.921537161E0,-5.271687508E0,7.538887024E0
1.369636667E0,4.302295208E0,-5.434698582E0,7.713861942E0
1.372032240E0,4.663611412E0,-5.592624664E0,7.869395256E0
1.374427761E0,4.991727352E0,-5.750551224E0,7.948358536E0
1.376822500E0,5.307579517E0,-5.899205208E0,7.998608112E0
1.379217292E0,5.604588985E0,-6.033203125E0,7.991429329E0
1.381612865E0,5.853442192E0,-6.169594288E0,7.960322857E0
1.384008386E0,6.052345753E0,-6.248557091E0,7.922037601E0
1.386403073E0,6.186343670E0,-6.298806667E0,7.864609718E0
1.388797865E0,6.313163280E0,-6.339484692E0,7.811967850E0
1.391193438E0,6.401698112E0,-6.361020088E0,7.740182877E0
1.393588959E0,6.497709751E0,-6.363412857E0,7.685148239E0
1.395983698E0,6.598208427E0,-6.339484692E0,7.601399422E0
1.398378490E0,6.624529362E0,-6.305984974E0,7.524529934E0
1.400774011E0,6.684350014E0,-6.238986015E0,7.445566654E0
1.403169532E0,6.748956203E0,-6.167201042E0,7.304390430E0
1.405564271E0,6.768098831E0,-6.095416546E0,7.189534664E0
1.407959063E0,6.748956203E0,-6.052345753E0,7.031608582E0
1.410354636E0,6.679564476E0,-6.021239281E0,6.926024914E0
1.412750157E0,6.636493683E0,-5.992525101E0,6.813562393E0
1.415144896E0,6.617351055E0,-5.930311680E0,6.667600155E0
1.417539688E0,6.665207386E0,-5.819942951E0,6.483353138E0
1.419935209E0,6.691528320E0,-5.743372440E0,6.332305908E0
1.422330730E0,6.756134510E0,-5.640480995E0,6.104988098E0
1.424725469E0,6.899703979E0,-5.566303730E0,5.889334679E0
1.427120261E0,7.072286606E0,-5.465805054E0,5.621338367E0
1.429515834E0,7.328318596E0,-5.362913609E0,5.343770981E0
1.431911355E0,7.649255753E0,-5.264508724E0,5.046761990E0
1.434306094E0,7.962715626E0,-5.192724228E0,4.747360229E0
1.436700886E0,8.345866203E0,-5.142475128E0,4.400400639E0
1.439096407E0,8.697610855E0,-5.092225552E0,4.026821613E0
1.441491927E0,9.075976372E0,-5.101797104E0,3.619742393E0
1.443886667E0,9.425627708E0,-5.089832783E0,3.224926710E0
1.446281459E0,9.832706451E0,-5.085047245E0,2.817847729E0
1.448677032E0,1.028973579E1,-5.065904617E0,2.429911375E0
1.451072552E0,1.077577782E1,-5.097011566E0,2.106880426E0
1.453467292E0,1.132403278E1,-5.185545921E0,1.838585138E0
1.455862084E0,1.193689442E1,-5.314758301E0,1.620838284E0
1.458257605E0,1.257368469E1,-5.458626747E0,1.501197100E0
1.460653125E0,1.319163132E1,-5.590231895E0,1.438983679E0
1.463047865E0,1.378295708E1,-5.731408596E0,1.427019596E0
1.465442657E0,1.431207085E1,-5.870192051E0,1.498804331E0
1.467838230E0,1.481934929E1,-5.997310638E0,1.637588024E0
1.470233750E0,1.523360634E1,-6.124130249E0,1.836192250E0
1.472628490E0,1.553300858E1,-6.210271835E0,2.099701881E0
1.475023282E0,1.576271915E1,-6.231807709E0,2.425125837E0
1.477418802E0,1.591586018E1,-6.212665081E0,2.796312332E0
1.479814323E0,1.598285866E1,-6.183950901E0,3.129213810E0
1.482209063E0,1.601905060E1,-6.109773636E0,3.454637766E0
1.484603855E0,1.605733490E1,-6.023632050E0,3.861716747E0
1.486999427E0,1.604537201E1,-6.018846035E0,4.067499161E0
1.489394948E0,1.596610928E1,-5.942276001E0,4.196712017E0
1.491789688E0,1.591107464E1,-5.894419670E0,4.309473515E0
1.494184480E0,1.596132374E1,-5.791228771E0,4.479363918E0
1.496580000E0,1.599003696E1,-5.748157978E0,4.543970108E0
1.498975521E0,1.596850204E1,-5.752943993E0,4.479363918E0
1.501370261E0,1.597089481E1,-5.714658737E0,4.398007870E0
1.503765052E0,1.606690598E1,-5.726622581E0,4.309473515E0
1.506160625E0,1.610279846E1,-5.767300606E0,4.100998878E0
1.508556146E0,1.611236954E1,-5.781657696E0,3.854538202E0
1.510950886E0,1.616740608E1,-5.810371399E0,3.557528973E0
1.513345677E0,1.618894005E1,-5.829514027E0,3.193820000E0
1.515741198E0,1.618894005E1,-5.829514027E0,2.839383125E0
1.518136719E0,1.606451416E1,-5.877370834E0,2.432304144E0
1.520531459E0,1.584407520E1,-5.987739563E0,1.934298038E0
1.522926250E0,1.569332695E1,-5.985346794E0,1.489233017E0
1.525321823E0,1.554975796E1,-5.944668770E0,1.027119160E0
1.527717344E0,1.532931900E1,-5.956633091E0,5.554339290E-1
1.530112084E0,1.514267921E1,-5.968596935E0,1.220339537E-1
1.532506875E0,1.502782345E1,-5.956633091E0,-1.483550072E-1
1.534902396E0,1.489143276E1,-5.980561256E0,-3.783650696E-1
1.537297917E0,1.475474262E1,-6.011667728E0,-5.027918816E-1
1.539692657E0,1.463270855E1,-6.021239281E0,-5.530411601E-1
1.542087448E0,1.451067448E1,-6.035595894E0,-5.985047817E-1
1.544483021E0,1.446521091E1,-6.014060497E0,-5.434698462E-1
1.546878542E0,1.439342594E1,-5.980561256E0,-4.932205677E-1
1.549273282E0,1.435992718E1,-5.870192051E0,-5.291129351E-1
1.551668073E0,1.437428379E1,-5.733801365E0,-5.889334679E-1
1.554063646E0,1.439581966E1,-5.544768333E0,-7.205387354E-1
1.556459167E0,1.442453289E1,-5.233402252E0,-1.187438250E0
1.558853855E0,1.446521091E1,-4.829015255E0,-1.905584097E0
1.561248646E0,1.454895973E1,-4.474578381E0,-2.712563515E0
1.563644219E0,1.467338657E1,-4.201497555E0,-3.480958700E0
1.566039740E0,1.486959839E1,-4.024428368E0,-4.156033993E0
1.568434480E0,1.514985752E1,-3.933501244E0,-4.766502857E0
1.570829271E0,1.548515129E1,-3.945465326E0,-5.262115955E0
1.573224792E0,1.589193153E1,-3.983750582E0,-5.626124382E0
1.575620365E0,1.635883141E1,-4.072285175E0,-5.872584820E0
1.578015105E0,1.687598038E1,-4.189533234E0,-5.990132332E0
1.580409844E0,1.744816399E1,-4.338187218E0,-6.061916828E0
1.582805417E0,1.795334816E1,-4.512863636E0,-6.095416546E0
1.585200938E0,1.843939018E1,-4.723432064E0,-6.128916264E0
1.587595677E0,1.891107559E1,-4.953442097E0,-6.207879066E0
1.589990469E0,1.927239227E1,-5.219045162E0,-6.547959328E0
1.592386042E0,1.929392624E1,-5.386841774E0,-8.558827400E0
1.594781563E0,1.885364723E1,-5.528018475E0,-1.064895821E1
1.597176250E0,1.788874245E1,-5.587839127E0,-1.187228870E1
1.599571042E0,1.669651794E1,-5.571089268E0,-1.226022530E1
1.601966615E0,1.549711609E1,-5.535196781E0,-1.204696465E1
1.604362136E0,1.428544998E1,-5.477769375E0,-1.136231804E1
1.606756875E0,1.310519028E1,-5.606981754E0,-1.058195877E1
1.609151667E0,1.222911835E1,-5.803193092E0,-9.547661781E0
1.611547240E0,1.158275700E1,-5.920740604E0,-8.221439362E0
1.613942761E0,1.092652512E1,-6.057131290E0,-6.777669907E0
1.616337500E0,1.055563831E1,-6.234200478E0,-5.482554913E0
1.618732240E0,1.051974583E1,-6.454638958E0,-4.302295208E0
1.621127813E0,1.081884861E1,-6.533602238E0,-3.169891834E0
1.623523334E0,1.079970551E1,-6.502495766E0,-1.850549221E0
1.625918073E0,1.084516907E1,-6.497709751E0,-5.985047817E-1
1.628312865E0,1.078774166E1,-6.591030121E0,6.870391965E-1
1.630708438E0,1.078056335E1,-6.775277138E0,2.039881229E0
1.633103959E0,1.080449200E1,-7.057929516E0,3.373281717E0
1.635498698E0,1.076142120E1,-7.385746002E0,4.656432629E0
1.637893438E0,1.076142120E1,-7.730611801E0,5.831906796E0
1.640289011E0,1.070399284E1,-8.125427246E0,6.760920525E0
1.642684532E0,1.067049313E1,-8.515756607E0,7.543672562E0
1.645079271E0,1.059870911E1,-8.975478172E0,8.084749222E0
1.647474063E0,1.065135098E1,-9.387342453E0,8.443971634E0
1.649869636E0,1.073031425E1,-9.715159416E0,8.647361755E0
1.652265157E0,1.076381397E1,-9.928419113E0,8.745766640E0
1.654659896E0,1.068006516E1,-9.976275444E0,8.676075935E0
1.657054636E0,1.052213860E1,-9.914062500E0,8.520542145E0
1.659450209E0,1.023948669E1,-9.736694336E0,8.288438797E0
1.661845730E0,9.882955551E0,-9.466305733E0,8.036892891E0
1.664240469E0,9.490233421E0,-9.183652878E0,7.962715626E0
1.666635261E0,9.171689034E0,-8.863015175E0,7.914859295E0
1.669030834E0,8.901300430E0,-8.661719322E0,7.941180229E0
1.671426355E0,8.573184013E0,-8.458329201E0,7.924430370E0
1.673821094E0,8.274081230E0,-8.276473999E0,7.900502205E0
1.676215834E0,8.140083313E0,-8.262117386E0,7.859824181E0
1.678611407E0,8.149654388E0,-8.350651741E0,7.771289825E0
1.681006927E0,8.192725182E0,-8.400900841E0,7.749754429E0
1.683401667E0,8.195118904E0,-8.388936996E0,7.766504288E0
1.685796459E0,8.166404724E0,-8.362615585E0,7.756932735E0
1.688192032E0,8.053643227E0,-8.242975235E0,7.761718273E0
1.690587552E0,7.974679470E0,-8.111070633E0,7.895716667E0
1.692982292E0,7.795217991E0,-8.123034477E0,7.697112083E0
1.695377084E0,7.792825222E0,-8.240582466E0,7.189534664E0
1.697772605E0,7.991429329E0,-8.350651741E0,6.588637352E0
1.700168125E0,8.154440880E0,-8.336295128E0,6.033203125E0
1.702562865E0,8.159226418E0,-8.197511673E0,5.535196781E0
1.704957657E0,8.056035995E0,-7.989036560E0,5.192724228E0
1.707353230E0,7.840681553E0,-7.759325504E0,4.852943420E0
1.709748750E0,7.562815189E0,-7.587042332E0,4.445864677E0
1.712143490E0,7.251748085E0,-7.438388348E0,3.938287020E0
1.714538230E0,6.882954121E0,-7.306783199E0,3.289532900E0
1.716933802E0,6.485745907E0,-7.199106216E0,2.545065880E0
1.719329323E0,6.181558132E0,-7.096214771E0,1.819442511E0
1.721724063E0,5.908776283E0,-6.926024914E0,1.197009563E0
1.724118855E0,5.676373482E0,-6.760920525E0,6.966105103E-1
1.726514427E0,5.614160061E0,-6.648457527E0,3.089732230E-1
1.728909948E0,5.664409637E0,-6.612565517E0,-4.307080805E-2
1.731304688E0,5.738586903E0,-6.641279221E0,-3.687937856E-1
1.733699480E0,5.872584820E0,-6.708278179E0,-5.913262963E-1
1.736095000E0,6.207879066E0,-6.789634228E0,-9.505487680E-1
1.738490521E0,6.641279221E0,-6.909275532E0,-1.671087503E0
1.740885261E0,7.153642178E0,-7.055536747E0,-2.815454960E0
1.743280052E0,7.733004570E0,-7.199106216E0,-4.074677944E0
1.745675625E0,8.231010437E0,-7.333104134E0,-5.290830135E0
1.748071146E0,8.625826836E0,-7.383353233E0,-6.320342064E0
1.750465886E0,8.817551613E0,-7.261319637E0,-7.072286606E0
1.752860677E0,8.853444099E0,-7.019644260E0,-7.294818878E0
1.755256250E0,8.836693764E0,-6.669992924E0,-6.878168583E0
1.757651771E0,8.755337715E0,-6.253343105E0,-6.083452702E0
1.760046459E0,8.640183449E0,-5.839085579E0,-4.903192520E0
1.762441250E0,8.453543663E0,-5.437091351E0,-3.555136204E0
1.764836823E0,8.231010437E0,-5.087440014E0,-2.212164640E0
1.767232344E0,8.024929047E0,-4.776372910E0,-1.060618639E0
1.769627084E0,7.845467091E0,-4.567898273E0,-4.546362907E-2
1.772021875E0,7.682755470E0,-4.424329281E0,7.683951855E-1
1.774417448E0,7.526922703E0,-4.386044025E0,1.503589988E0
1.776812969E0,7.510172844E0,-4.374079704E0,2.195414782E0
1.779207657E0,7.670791149E0,-4.421936035E0,2.827419043E0
1.781602448E0,7.936394691E0,-4.567898273E0,3.373281717E0
1.783998021E0,8.961120605E0,-4.793122768E0,3.962215185E0
1.786393542E0,1.032084274E1,-4.912764072E0,4.354937077E0
1.788788282E0,1.144128132E1,-4.845765114E0,4.599005222E0
1.791183073E0,1.167607689E1,-4.539184570E0,4.366901398E0
1.793578646E0,1.095075321E1,-4.062713623E0,3.947858334E0
1.795974167E0,9.937990189E0,-3.497708559E0,3.509672642E0
1.798368907E0,9.437591553E0,-3.294318676E0,3.368496180E0
1.800763646E0,9.260522842E0,-3.466601849E0,3.277568817E0
1.803159219E0,9.317950249E0,-3.641277790E0,3.061915636E0
1.805554740E0,9.401699066E0,-3.641277790E0,2.559422970E0
1.807949480E0,8.958727837E0,-3.430709362E0,1.778764486E0
1.810344271E0,8.127820015E0,-3.049951553E0,9.433703423E-1
1.812739844E0,7.175177574E0,-2.600100994E0,3.305086195E-1
1.815135365E0,6.351448536E0,-2.209771633E0,-1.244267747E-1
1.817530105E0,5.815157413E0,-1.955833435E0,-4.334000051E-1
1.819924896E0,5.530411243E0,-1.821835399E0,-5.027918816E-1
1.822320417E0,5.410770416E0,-1.852941990E0,-2.297109663E-1
1.824715938E0,5.396413326E0,-1.977667928E0,1.651047617E-1
1.827110677E0,5.578267574E0,-2.140379906E0,6.008976102E-1
1.829505469E0,5.788836002E0,-2.331805706E0,1.036690354E0
1.831901042E0,6.128916264E0,-2.434697151E0,1.357328653E0
1.834296563E0,6.559923172E0,-2.516052961E0,1.714158297E0
1.836691302E0,7.045965195E0,-2.501696110E0,2.116451740E0
1.839086094E0,7.297211647E0,-2.367697954E0,2.420340061E0
1.841481615E0,7.340282440E0,-2.109273195E0,2.427518606E0
1.843877136E0,7.316354275E0,-1.800299883E0,2.322234392E0
1.846271875E0,7.189534664E0,-1.465304732E0,2.178664923E0
1.848666667E0,7.108178616E0,-1.163509965E0,1.996810555E0
1.851062240E0,7.007380962E0,-8.500502706E-1,1.881655931E0
1.853457761E0,6.734599113E0,-5.961119533E-1,1.642373681E0
1.855852500E0,6.349055767E0,-3.711866140E-1,1.256830096E0
1.858247292E0,5.913562298E0,-1.842473447E-1,7.827520967E-1
1.860642865E0,5.389235020E0,-7.178467698E-3,3.496512175E-1
1.863038386E0,4.694717884E0,1.363908947E-1,-1.076770201E-1
1.865433073E0,3.835395575E0,2.922234535E-1,-6.200401783E-1
1.867827865E0,2.913560629E0,4.692923427E-1,-1.094118118E0
1.870223438E0,2.085345030E0,6.200401783E-1,-1.395613790E0
1.872618959E0,1.302293777E0,7.325028181E-1,-1.565803289E0
1.875013698E0,6.320042610E-1,8.114659786E-1,-1.776371717E0
1.877408490E0,1.674975827E-2,7.827520967E-1,-1.958226204E0
1.879804063E0,-4.812564552E-1,6.487540603E-1,-2.104487419E0
1.882199584E0,-7.420741320E-1,4.573282301E-1,-2.145165443E0
1.884594323E0,-9.601200819E-1,9.092725813E-2,-2.133201361E0
1.886989063E0,-1.376471281E0,-5.219344497E-1,-2.087737799E0
1.889384636E0,-1.675873160E0,-1.108475089E0,-2.044667006E0
1.891780157E0,-1.757229090E0,-1.587338686E0,-1.951047778E0
1.894174896E0,-1.675873160E0,-1.924726725E0,-1.968096614E0
1.896569688E0,-1.654337764E0,-2.291127682E0,-2.140379906E0
1.898965261E0,-1.759621978E0,-2.612065077E0,-2.425125837E0
1.901360782E0,-1.867298961E0,-2.882453918E0,-2.803490877E0
1.903755521E0,-2.061416626E0,-3.239283562E0,-3.227319479E0
1.906150261E0,-2.331805706E0,-3.622135162E0,-3.593421459E0
1.908545834E0,-2.626421928E0,-3.971786499E0,-3.787539244E0
1.910941355E0,-2.908775091E0,-4.302295208E0,-3.842574120E0
1.913336094E0,-3.136392355E0,-4.651647091E0,-3.701397419E0
1.915730886E0,-3.277568817E0,-5.030012131E0,-3.473780155E0
1.918126459E0,-3.315854073E0,-5.391627789E0,-3.138785124E0
1.920521980E0,-3.289532900E0,-5.702694416E0,-2.808276415E0
1.922916719E0,-3.174677372E0,-5.961418629E0,-2.410768747E0
1.925311511E0,-2.982952595E0,-6.179165363E0,-1.999203324E0
1.927707032E0,-2.717349291E0,-6.387341022E0,-1.549053550E0
1.930102552E0,-2.384447813E0,-6.588637352E0,-1.108475089E0
1.932497292E0,-1.934298038E0,-6.777669907E0,-6.702894568E-1
1.934892084E0,-1.374078393E0,-7.017251492E0,-1.698904037E-1
1.937287657E0,-8.042874932E-1,-7.270890713E0,2.799602449E-1
1.939683177E0,-1.627119333E-1,-7.534101009E0,7.612167001E-1
1.942077917E0,4.645066857E-1,-7.783253670E0,1.252044439E0
1.944472709E0,1.122832060E0,-8.001000404E0,1.697408557E0
1.946868230E0,1.802692771E0,-8.195118904E0,2.145165443E0
1.949263750E0,2.564208508E0,-8.388936996E0,2.516052961E0
1.951658490E0,3.342175007E0,-8.558827400E0,2.865704298E0
1.954053282E0,4.127319813E0,-8.726624489E0,3.222533941E0
1.956448855E0,4.829015255E0,-8.882157326E0,3.507279873E0
1.958844375E0,5.444269657E0,-9.013762474E0,3.763610840E0
1.961239115E0,5.956633091E0,-9.097511292E0,3.974179268E0
1.963633907E0,6.337091446E0,-9.152546883E0,4.206283092E0
1.966029480E0,6.672386169E0,-9.174081802E0,4.448257446E0
1.968425000E0,6.978667259E0,-9.152546883E0,4.718646049E0
1.970819688E0,7.292426109E0,-9.092725754E0,4.972584724E0
1.973214480E0,7.567600727E0,-9.032905579E0,5.171188831E0
1.975610052E0,7.740182877E0,-8.910871506E0,5.341378212E0
1.978005573E0,7.800003529E0,-8.788837433E0,5.511268616E0
1.980400313E0,7.795217991E0,-8.649754524E0,5.755336761E0
1.982795105E0,7.661220074E0,-8.479864120E0,6.047560215E0
1.985190677E0,7.471887589E0,-8.393722534E0,6.088238239E0
1.987586198E0,7.316354275E0,-8.333902359E0,6.021239281E0
1.989980938E0,7.266105175E0,-8.365009308E0,5.892026424E0
1.992375677E0,7.304390430E0,-8.391329765E0,5.843871117E0
1.994771250E0,7.435995579E0,-8.556434631E0,5.774479389E0
1.997166771E0,7.682755470E0,-8.788837433E0,5.645267010E0
1.999561511E0,7.941180229E0,-9.083154678E0,5.480162144E0
2.001956302E0,8.192725182E0,-9.444769859E0,5.281258583E0
2.004351875E0,8.470293045E0,-9.820742607E0,5.056333542E0
2.006747396E0,8.752944946E0,-1.019402313E1,4.831408024E0
2.009142136E0,9.073583603E0,-1.047667503E1,4.594219685E0
2.011536927E0,9.375378609E0,-1.077338505E1,4.364508629E0
2.013932448E0,9.765408516E0,-1.107039356E1,4.132105827E0
2.016327969E0,1.018684387E1,-1.131206894E1,3.794717550E0
2.018722709E0,1.050299549E1,-1.155404282E1,3.507279873E0
2.021117500E0,1.061067295E1,-1.182921791E1,3.160320520E0
2.023513073E0,1.058195877E1,-1.221236897E1,3.449851990E0
2.025908594E0,1.082124138E1,-1.250189972E1,4.256831646E0
2.028303334E0,1.133839035E1,-1.260957718E1,4.910371304E0
2.030698125E0,1.205414295E1,-1.249232864E1,5.070690155E0
2.033093646E0,1.282044506E1,-1.216690540E1,4.826622486E0
2.035489167E0,1.356730461E1,-1.186271763E1,4.369294167E0
2.037883907E0,1.420170116E1,-1.161147118E1,3.770789385E0
2.040278698E0,1.476909924E1,-1.144128132E1,3.081058264E0
2.042674271E0,1.520010662E1,-1.126181984E1,2.300698996E0
2.045069792E0,1.557847214E1,-1.107278633E1,1.577767372E0
2.047464532E0,1.602622795E1,-1.079970551E1,8.572286963E-1
2.049859323E0,1.646411514E1,-1.042164040E1,1.962114573E-1
2.052254896E0,1.688794327E1,-1.000259686E1,-5.027918816E-1
2.054650417E0,1.726630974E1,-9.576375008E0,-1.125224829E0
2.057045157E0,1.759651947E1,-9.207581520E0,-1.704586983E0
2.059439896E0,1.784088516E1,-8.874979019E0,-2.281556368E0
2.061835469E0,1.802273941E1,-8.623434067E0,-2.860918522E0
2.064230990E0,1.819741631E1,-8.487042427E0,-3.406781197E0
2.066625730E0,1.839871216E1,-8.451150894E0,-3.950251102E0
2.069020521E0,1.858296013E1,-8.491828918E0,-4.412364960E0
2.071416094E0,1.866670799E1,-8.585148811E0,-4.824229717E0
2.073811615E0,1.863560104E1,-8.705088615E0,-5.140082359E0
2.076206355E0,1.846331787E1,-8.836693764E0,-5.396413326E0
2.078601146E0,1.811366653E1,-8.906085968E0,-5.583053589E0
2.080996667E0,1.764676857E1,-8.903693199E0,-5.683551788E0
2.083392188E0,1.706022644E1,-8.834300995E0,-5.757729530E0
2.085786927E0,1.635165215E1,-8.709874153E0,-5.793622017E0
2.088181719E0,1.557847214E1,-8.544470787E0,-5.805585861E0
2.090577292E0,1.475952816E1,-8.393722534E0,-5.776872158E0
2.092972813E0,1.393131256E1,-8.250153542E0,-5.760122299E0
2.095367552E0,1.308365536E1,-8.130212784E0,-5.695516109E0
2.097762344E0,1.220997620E1,-8.063214302E0,-5.595017433E0
2.100157917E0,1.139103222E1,-8.020143509E0,-5.394020557E0
2.102553438E0,1.061067295E1,-8.024929047E0,-5.077868938E0
2.104948125E0,9.894919395E0,-8.044071198E0,-4.670789719E0
2.107342917E0,9.250652313E0,-8.152048111E0,-4.081856251E0
2.109738490E0,8.755337715E0,-8.293224335E0,-3.370888948E0
2.112134011E0,8.379365921E0,-8.503792763E0,-2.557030201E0
2.114528750E0,8.072785378E0,-8.769695282E0,-1.718943954E0
2.116923542E0,7.756932735E0,-9.052047729E0,-9.290133715E-1
2.119319115E0,7.447959423E0,-9.305986404E0,-2.344966233E-1
2.121714636E0,7.022037029E0,-9.463912964E0,3.568296731E-1
2.124109323E0,6.526423931E0,-9.564411163E0,8.524430394E-1
2.126504115E0,5.994917870E0,-9.576375008E0,1.285543919E0
2.128899688E0,5.427519798E0,-9.518947601E0,1.668694735E0
2.131295209E0,4.809872627E0,-9.411270142E0,2.047059774E0
2.133689948E0,4.252045631E0,-9.322735786E0,2.358126640E0
2.136084740E0,3.739682674E0,-9.229117393E0,2.580958366E0
2.138480313E0,3.375674486E0,-9.183652878E0,2.813062191E0
2.140875834E0,3.143570662E0,-9.198010445E0,2.925524712E0
2.143270573E0,3.085843801E0,-9.291629791E0,3.110071182E0
2.145665313E0,3.100499868E0,-9.466305733E0,3.241676569E0
2.148060886E0,3.260818958E0,-9.710372925E0,3.416352510E0
2.150456407E0,3.519243956E0,-1.000259686E1,3.646063566E0
2.152851146E0,3.904787540E0,-1.031366348E1,3.993321896E0
2.155245938E0,4.307080746E0,-1.065852928E1,4.357329845E0
2.157641511E0,4.761716843E0,-1.096750259E1,4.737788677E0
2.160037032E0,5.204688549E0,-1.125224876E1,5.097011566E0
2.162431771E0,5.599802971E0,-1.145803165E1,5.451447964E0
2.164826563E0,5.920740604E0,-1.156122208E1,5.769693375E0
2.167222136E0,6.164808273E0,-1.155404282E1,5.997310638E0
2.169617657E0,6.243771553E0,-1.144128132E1,6.176772594E0
2.172012344E0,6.181558132E0,-1.122592735E1,6.291627884E0
2.174407136E0,6.095416546E0,-1.094088268E1,6.392126560E0
2.176802709E0,5.944668770E0,-1.068485069E1,6.476174355E0
2.179198230E0,5.752943993E0,-1.038335514E1,6.591030121E0
2.181592969E0,5.611767292E0,-1.014377308E1,6.617351055E0
2.183987761E0,5.470590591E0,-9.880562782E0,6.550352097E0
2.186383334E0,5.360520840E0,-9.621838570E0,6.377769470E0
2.188778855E0,5.295615673E0,-9.394520760E0,6.148058891E0
2.191173542E0,5.331807137E0,-9.221938133E0,5.863013744E0
2.193568334E0,5.468197823E0,-9.023334503E0,5.547161102E0
2.195963907E0,5.688337803E0,-8.803194046E0,5.307579517E0
2.198359427E0,5.973382473E0,-8.577970505E0,5.056333542E0
2.200754167E0,6.320342064E0,-8.312366486E0,4.797908306E0
2.203148959E0,6.784848690E0,-8.063214302E0,4.577469826E0
2.205544532E0,7.414460182E0,-7.864609718E0,4.390829563E0
2.207940052E0,8.209475517E0,-7.730611801E0,4.228117466E0
2.210334792E0,9.042476654E0,-7.692326546E0,4.110570431E0
2.212729532E0,9.772586823E0,-7.673183918E0,3.959822416E0
2.215125105E0,1.046471119E1,-7.642077446E0,3.727718592E0
2.217520625E0,1.111346436E1,-7.569993496E0,3.533600807E0
2.219915365E0,1.186989594E1,-7.526922703E0,3.375674486E0
2.222310157E0,1.272951698E1,-7.560422421E0,3.320639610E0
2.224705730E0,1.362473202E1,-7.627720356E0,3.308675528E0
2.227101250E0,1.447956848E1,-7.661220074E0,3.330210924E0
2.229495990E0,1.526949883E1,-7.663612843E0,3.416352510E0
2.231890782E0,1.603819275E1,-7.689933777E0,3.535993576E0
2.234286302E0,1.667976761E1,-7.747361660E0,3.684647799E0
2.236681823E0,1.702194214E1,-7.852645874E0,3.368496180E0
2.239076563E0,1.712513161E1,-8.001000404E0,2.405983210E0
2.241471355E0,1.678983879E1,-8.156833649E0,-2.703889608E-1
2.243866927E0,1.616979790E1,-8.250153542E0,-3.483351469E0
2.246262448E0,1.534846210E1,-8.274081230E0,-6.451947212E0
2.248657188E0,1.439342594E1,-8.264510155E0,-9.028120041E0
2.251051980E0,1.336391449E1,-8.123034477E0,-1.081406307E1
2.253447552E0,1.240857983E1,-7.733004570E0,-1.225543976E1
2.255843073E0,1.159711361E1,-7.390532017E0,-1.226979637E1
2.258237761E0,1.102493000E1,-7.132106781E0,-1.045753193E1
2.260632552E0,1.033998489E1,-6.471388817E0,-7.534101009E0
2.263028125E0,9.813264847E0,-6.258128643E0,-5.008476734E0
2.265423646E0,9.475876808E0,-6.341877460E0,-3.059522867E0
2.267818386E0,9.154939651E0,-6.679564476E0,-1.429412484E0
2.270213177E0,8.731410027E0,-7.062715054E0,2.871387079E-2
2.272608750E0,8.298009872E0,-7.376174927E0,1.106082320E0
2.275004271E0,7.809575081E0,-7.613363266E0,1.860120535E0
2.277399011E0,7.246962547E0,-7.749754429E0,2.458625317E0
2.279793750E0,6.557530403E0,-7.721040249E0,3.004487991E0
2.282189323E0,5.932704449E0,-7.567600727E0,3.854538202E0
2.284584844E0,6.049952984E0,-7.630113125E0,5.085047245E0
2.286979584E0,6.574280262E0,-8.623434067E0,7.187141895E0
2.289374375E0,7.404888630E0,-9.786943436E0,8.937192917E0
2.291769948E0,8.477471352E0,-1.032323551E1,1.011027431E1
2.294165469E0,9.710372925E0,-1.048863888E1,1.145563793E1
2.296560209E0,1.037348461E1,-1.139581776E1,1.306451225E1
2.298955000E0,1.070638561E1,-1.177657604E1,1.240379429E1
2.301350521E0,1.043599701E1,-1.077817059E1,9.808479309E0
2.303746042E0,9.317950249E0,-9.190832138E0,7.536494255E0
2.306140782E0,7.196712971E0,-8.079963684E0,8.760123253E0
2.308535573E0,3.780360699E0,-7.321139812E0,1.325623703E1
2.310931146E0,2.006381750E0,-6.796812534E0,1.112542915E1
2.313326667E0,1.405484200E0,-6.550352097E0,7.828717709E0
2.315721407E0,1.659123421E0,-6.593422890E0,7.086643219E0
2.318116198E0,2.652743101E0,-6.772884369E0,6.952346325E0
2.320511771E0,3.928715706E0,-7.053143978E0,6.636493683E0
2.322907292E0,5.223830700E0,-7.569993496E0,6.526423931E0
2.325301980E0,6.372983932E0,-8.199904442E0,6.207879066E0
2.327696771E0,7.450352192E0,-8.736195564E0,6.160022736E0
2.330092344E0,8.140083313E0,-8.851051331E0,5.925526142E0
2.332487865E0,8.453543663E0,-8.879764557E0,5.149653435E0
2.334882605E0,8.396115303E0,-8.736195564E0,4.414757729E0
2.337277396E0,7.919644833E0,-8.298009872E0,3.234498024E0
2.339672969E0,7.246962547E0,-7.752147198E0,1.946262121E0
2.342068490E0,6.612565517E0,-7.323532581E0,5.626124144E-1
2.344463230E0,6.260521412E0,-7.019644260E0,-3.376871049E-1
2.346857969E0,6.023632050E0,-6.708278179E0,-6.463612318E-1
2.349253542E0,5.853442192E0,-6.504888535E0,-1.579262912E-1
2.351649063E0,5.662016392E0,-6.557530403E0,4.214358926E-1
2.354043802E0,5.341378212E0,-6.681957245E0,6.846463680E-1
2.356438594E0,5.080261707E0,-6.736992359E0,5.769693851E-1
2.358834167E0,4.539184570E0,-6.665207386E0,-3.855435550E-1
2.361229688E0,4.077070713E0,-6.509674072E0,-1.620838284E0
2.363624427E0,3.468994617E0,-6.313163280E0,-2.762812853E0
2.366019167E0,3.492922783E0,-6.495316982E0,-2.884846687E0
2.368414740E0,3.732504129E0,-6.873383045E0,-2.073380709E0
2.370810261E0,4.148855209E0,-7.359425068E0,3.520440459E-1
2.373205000E0,4.508078098E0,-7.742575645E0,3.399602890E0
2.375599792E0,5.013262749E0,-8.319544792E0,5.877370834E0
2.377995365E0,5.834300041E0,-9.152546883E0,8.379365921E0
2.380390886E0,6.183950901E0,-9.676874161E0,1.007198906E1
2.382785625E0,5.736194134E0,-9.957133293E0,9.648159981E0
2.385180417E0,4.771587372E0,-9.969097137E0,7.349853992E0
2.387575990E0,4.048357010E0,-9.957133293E0,5.793622017E0
2.389971511E0,3.337389469E0,-9.660123825E0,4.749752998E0
2.392366198E0,2.571387053E0,-9.186046600E0,3.545564890E0
2.394760990E0,1.817049742E0,-8.585148811E0,2.331805706E0
2.397156563E0,1.376471281E0,-7.929215908E0,9.720842242E-1
2.399552084E0,1.074975610E0,-7.457530975E0,9.571290761E-2
2.401946823E0,-3.281157911E-1,-5.992525101E0,-2.408375978E0
2.404341615E0,5.742774159E-2,-4.998905659E0,-5.731408596E0
2.406737188E0,2.468196630E0,-5.982954025E0,-4.177569389E0
2.409132709E0,3.828217030E0,-7.227819920E0,2.464607358E-1
2.411527448E0,4.364508629E0,-7.819146156E0,4.773980141E0
2.413922188E0,4.872086048E0,-7.996214867E0,7.776075363E0
2.416317761E0,5.736194134E0,-8.242975235E0,1.044556808E1
2.418713282E0,5.688337803E0,-8.271688461E0,1.199910831E1
2.421108021E0,4.941477776E0,-7.967501163E0,1.044317532E1
2.423502813E0,5.185545921E0,-8.180761337E0,8.534899712E0
2.425898386E0,5.961418629E0,-9.018548965E0,9.085547447E0
2.428293907E0,6.564708710E0,-9.736694336E0,1.073749256E1
2.430688646E0,6.930810928E0,-1.015095139E1,1.080688477E1
2.433083438E0,6.748956203E0,-9.997811317E0,8.432007790E0
2.435478959E0,7.062715054E0,-9.976275444E0,5.748157978E0
2.437874480E0,7.304390430E0,-9.983454704E0,4.898406982E0
2.440269219E0,5.595017433E0,-8.927620888E0,2.051845312E0
2.442664011E0,3.040380239E0,-7.452745438E0,-1.747657895E0
2.445059584E0,9.290133715E-1,-5.489733219E0,-5.046761990E0
2.447455105E0,-5.434698462E-1,-3.502494097E0,-6.935596466E0
2.449849844E0,-1.065404296E0,-1.829013824E0,-7.371389389E0
2.452244636E0,-7.755736113E-1,-9.290133715E-1,-7.189534664E0
2.454640209E0,7.896314561E-2,-6.439684033E-1,-5.874977589E0
2.457035730E0,1.163509965E0,-9.194421172E-1,-3.718147278E0
2.459430469E0,1.864906192E0,-1.381256819E0,-2.238485575E0
2.461825209E0,2.097309113E0,-1.601695657E0,-1.826620936E0
2.464220782E0,2.472982168E0,-1.884048700E0,-7.947162390E-1
2.466616302E0,2.707777977E0,-1.501197100E0,-9.290133715E-1
2.469011042E0,3.184248686E0,-1.685444474E0,-8.330013752E-1
2.471405834E0,4.098606110E0,-3.081058264E0,3.636492252E0
2.473801407E0,5.994917870E0,-5.252544880E0,1.280369473E1
2.476196927E0,8.757730484E0,-7.555636406E0,3.272484207E1
2.478591667E0,6.224628925E0,-6.404090881E0,3.934219360E1
2.480986407E0,3.821038723E0,-6.830312252E0,1.472124290E1
2.483381980E0,2.892025232E0,-6.713063717E0,7.273283482E0
2.485777500E0,1.539482236E0,-5.135296345E0,4.627718925E0
2.488172240E0,1.228116274E0,-3.375674486E0,5.099404335E0
2.490567032E0,1.905584097E0,-2.441875458E0,6.085845470E0
2.492962605E0,1.888834357E0,-1.644766450E0,1.150857925E1
2.495358125E0,5.051847100E-1,-1.673480392E0,5.264209956E-2
2.497752865E0,-1.363908947E-1,-9.314061999E-1,-7.199106216E0
2.500147657E0,-1.946262121E0,1.410269856E0,-1.481695557E1
2.502543177E0,-3.198605776E0,3.746861219E0,-1.876959991E1
2.504938698E0,-3.885644913E0,5.681159019E0,-1.889432526E1
2.507333438E0,-3.313461065E0,6.497709751E0,-1.663191223E1
2.509728230E0,-2.102094650E0,6.303592205E0,-1.294008541E1
2.512123802E0,-8.620143533E-1,5.623731613E0,-9.016156197E0
2.514519323E0,2.850449979E-1,4.668396950E0,-4.536791801E0
2.516914063E0,1.611266971E0,3.153141975E0,7.468597889E-1
2.519308855E0,2.564208508E0,1.376471281E0,5.860620975E0
2.521704427E0,3.047558784E0,-1.316052526E-1,9.229117393E0
2.524099948E0,3.282354355E0,-1.189831018E0,1.045753193E1
2.526494636E0,3.306282759E0,-1.867298961E0,1.017488003E1
2.528889427E0,3.181855917E0,-2.360519648E0,9.183652878E0
2.531285000E0,2.975774050E0,-2.798705101E0,7.950751305E0
2.533680521E0,2.674278498E0,-3.241676569E0,6.607779503E0
2.536075261E0,2.415554523E0,-3.651148319E0,5.348556995E0
2.538470052E0,2.219342947E0,-3.969393730E0,4.290330887E0
2.540865625E0,2.032702923E0,-4.201497555E0,3.461816072E0
2.543261146E0,2.020738840E0,-4.388436794E0,2.746062994E0
2.545655886E0,2.094916344E0,-4.582255363E0,2.281556368E0
2.548050677E0,2.245664120E0,-4.740181446E0,2.001596212E0
2.550446198E0,2.410768747E0,-4.768895626E0,1.771586061E0
2.552841719E0,2.576172590E0,-4.783551693E0,1.575374603E0
2.555236459E0,2.738884687E0,-4.637290478E0,1.450947881E0
2.557631250E0,2.994916677E0,-4.407579422E0,1.311864972E0
2.560026823E0,3.354139090E0,-4.335794449E0,1.515554070E0
2.562422344E0,3.904787540E0,-4.567898273E0,2.114058733E0
2.564817084E0,4.469792843E0,-4.860121727E0,2.923131943E0
2.567211875E0,4.900799751E0,-5.003691196E0,3.626920938E0
2.569607396E0,5.262115955E0,-5.209474087E0,3.763610840E0
2.572002917E0,5.547161102E0,-5.355735302E0,3.926322937E0
2.574397657E0,6.093023777E0,-5.542375565E0,4.132105827E0
2.576792448E0,6.476174355E0,-5.791228771E0,4.673182487E0
2.579188021E0,6.684350014E0,-6.128916264E0,5.082654476E0
2.581583542E0,7.122535706E0,-6.557530403E0,4.369294167E0
2.583978282E0,7.550850868E0,-7.220641613E0,4.850550652E0
2.586373073E0,7.433602810E0,-7.156035423E0,4.589433670E0
2.588768646E0,7.275676250E0,-6.926024914E0,3.361317635E0
2.591164167E0,6.792026997E0,-6.653243542E0,3.378067255E0
2.593558907E0,6.758527756E0,-6.413661957E0,3.270390272E0
2.595953646E0,6.799205780E0,-6.104988098E0,3.847359657E0
2.598349219E0,7.072286606E0,-5.973382473E0,4.807479858E0
2.600744740E0,8.479864120E0,-6.459424496E0,5.571089268E0
2.603139480E0,8.515756607E0,-6.796812534E0,6.107380867E0
2.605534271E0,8.137690544E0,-6.875775814E0,6.102594852E0
2.607929844E0,7.701898098E0,-6.813562393E0,6.028417587E0
2.610325365E0,7.464709282E0,-7.230212688E0,6.334698677E0
2.612720105E0,7.361817837E0,-7.457530975E0,6.612565517E0
2.615114896E0,7.328318596E0,-7.414460182E0,6.418447495E0
2.617510417E0,7.270890713E0,-7.340282440E0,6.140880108E0
2.619905938E0,7.053143978E0,-7.357032299E0,6.160022736E0
2.622300677E0,6.691528320E0,-7.871788502E0,5.987739563E0
2.624695469E0,6.775277138E0,-8.134998322E0,5.872584820E0
2.627091042E0,6.902096748E0,-8.103892326E0,5.738586903E0
2.629486563E0,6.923632145E0,-7.759325504E0,5.379663467E0
2.631881302E0,7.079464912E0,-7.630113125E0,5.257330418E0
2.634276094E0,6.995417118E0,-7.730611801E0,5.293222904E0
2.636671667E0,6.760920525E0,-7.943572998E0,5.472983360E0
2.639067188E0,6.550352097E0,-8.101499557E0,5.731408596E0
2.641461927E0,6.286842346E0,-8.266902924E0,5.556732178E0
2.643856667E0,5.990132332E0,-8.396115303E0,5.463412285E0
2.646252240E0,5.652445316E0,-8.331509590E0,5.413163185E0
2.648647761E0,5.288437366E0,-8.283653259E0,5.604588985E0
2.651042500E0,4.752145767E0,-8.719446182E0,5.892026424E0
2.653437292E0,3.622135162E0,-9.959526062E0,6.253343105E0
2.655832865E0,4.089034557E0,-1.090499020E1,6.753741741E0
2.658228386E0,4.893621445E0,-1.083320522E1,7.208677292E0
2.660623125E0,5.563910961E0,-1.043599701E1,7.038786888E0
2.663017917E0,6.047560215E0,-9.851848602E0,6.906882763E0
2.665413438E0,6.246164322E0,-9.506983757E0,6.906882763E0
2.667808959E0,5.353342533E0,-9.945169449E0,7.151249409E0
2.670203698E0,5.506483078E0,-9.981060982E0,7.285247803E0
2.672598490E0,5.925526142E0,-9.691230774E0,6.744170666E0
2.674994063E0,6.069095612E0,-9.497411728E0,6.023632050E0
2.677389584E0,6.382555485E0,-9.152546883E0,5.209474087E0
2.679784323E0,6.516852379E0,-8.676075935E0,4.637290478E0
2.682179115E0,6.485745907E0,-8.202297211E0,4.264009953E0
2.684574688E0,6.349055767E0,-7.780860901E0,4.354937077E0
2.686970209E0,6.210271835E0,-7.380960464E0,4.685146809E0
2.689364896E0,5.899205208E0,-7.050751209E0,4.905585289E0
2.691759688E0,5.520840168E0,-6.832705021E0,5.087440014E0
2.694155261E0,5.209474087E0,-6.736992359E0,4.807479858E0
2.696550782E0,5.164010525E0,-6.681957245E0,4.139284134E0
2.698945521E0,5.053940296E0,-6.655636311E0,3.413959742E0
2.701340313E0,5.123332500E0,-6.679564476E0,2.827419043E0
2.703735886E0,5.329114914E0,-6.598208427E0,2.695813894E0
2.706131407E0,5.324329376E0,-6.550352097E0,2.370090723E0
2.708526146E0,5.516054630E0,-6.490531445E0,2.137987137E0
2.710920886E0,5.657230854E0,-6.365805626E0,2.458625317E0
2.713316459E0,5.434698582E0,-6.174379826E0,3.342175007E0
2.715711980E0,5.413163185E0,-6.073881149E0,3.981357813E0
2.718106719E0,5.516054630E0,-6.095416546E0,4.055535316E0
2.720501511E0,5.544768333E0,-6.171987057E0,3.797110319E0
2.722897084E0,5.664409637E0,-6.349055767E0,3.315854073E0
2.725292605E0,5.798407555E0,-6.550352097E0,2.810669184E0
2.727687344E0,5.892026424E0,-6.792026997E0,2.547458887E0
2.730082136E0,6.119344711E0,-7.019644260E0,2.456232548E0
2.732477657E0,6.274878502E0,-7.285247803E0,2.425125837E0
2.734873230E0,6.490531445E0,-7.574779034E0,2.559422970E0
2.737267969E0,6.638886452E0,-7.912466049E0,2.698206663E0
2.739662709E0,6.839883327E0,-8.216653824E0,2.925524712E0
2.742058282E0,7.156035423E0,-8.441578865E0,3.167499065E0
2.744453802E0,7.510172844E0,-8.678468704E0,3.265604734E0
2.746848542E0,7.728219032E0,-8.867800713E0,3.114856958E0
2.749243334E0,7.754539967E0,-8.997013092E0,3.112463951E0
2.751638907E0,7.752147198E0,-9.109476089E0,2.829811811E0
2.754034427E0,7.500601768E0,-9.159725189E0,2.571387053E0
2.756429167E0,6.856633186E0,-9.040083885E0,2.379662037E0
2.758823907E0,6.018846035E0,-8.755337715E0,2.070987940E0
2.761219480E0,5.324329376E0,-8.400900841E0,1.907976985E0
2.763615000E0,4.682754040E0,-8.044071198E0,1.371685624E0
2.766009740E0,4.400400639E0,-7.773682594E0,1.127617717E0
2.768404532E0,4.216153622E0,-7.594220638E0,7.683951855E-1
2.770800105E0,3.799503326E0,-7.469494820E0,7.899305820E-1
2.773195625E0,3.318246841E0,-7.402495861E0,8.258228898E-1
2.775590365E0,2.588136673E0,-7.385746002E0,6.870391965E-1
2.777985157E0,2.181057930E0,-7.481459141E0,1.247258782E0
2.780380677E0,1.888834357E0,-7.637291908E0,1.872084618E0
2.782776198E0,1.589731574E0,-7.776075363E0,1.819442511E0
2.785170938E0,1.577767372E0,-7.905287743E0,2.374876499E0
2.787565730E0,1.551446438E0,-8.034500122E0,2.523231506E0
2.789961302E0,1.537089467E0,-8.077570915E0,2.365305185E0
2.792356823E0,1.515554070E0,-8.152048111E0,1.977667928E0
2.794751563E0,1.419841170E0,-8.113463402E0,2.260020971E0
2.797146355E0,1.007976532E0,-8.111070633E0,2.597707987E0
2.799541927E0,6.918248534E-1,-8.228617668E0,2.525923491E0
2.801937448E0,8.258228898E-1,-8.393722534E0,2.624029160E0
2.804332188E0,1.022333503E0,-8.484649658E0,3.124428272E0
2.806726927E0,1.419841170E0,-8.575576782E0,3.413959742E0
2.809122500E0,2.018345833E0,-8.609076500E0,3.282354355E0
2.811518021E0,2.695813894E0,-8.628219604E0,3.191427231E0
2.813912761E0,3.497708559E0,-8.537292480E0,3.468994617E0
2.816307552E0,4.733003139E0,-8.475078583E0,3.339782238E0
2.818703125E0,5.755336761E0,-8.422436714E0,2.736491680E0
2.821098646E0,6.145665646E0,-8.343473434E0,2.432304144E0
2.823493386E0,6.859025955E0,-8.214261055E0,2.343769789E0
2.825888177E0,8.056035995E0,-8.082356453E0,1.558624864E0
2.828283698E0,8.386544228E0,-8.070392609E0,1.482054472E0
2.830679219E0,9.138189316E0,-7.912466049E0,1.165902853E0
2.833073959E0,9.573982239E0,-7.917252064E0,5.578267574E-1
2.835468750E0,9.657731056E0,-8.044071198E0,3.352942765E-1
2.837864323E0,9.581160545E0,-7.158428192E0,6.846463680E-1
2.840259844E0,9.351449966E0,-5.781657696E0,1.620838284E0
2.842654584E0,9.693623543E0,-4.699503899E0,2.734098911E0
2.845049375E0,1.070160007E1,-3.849752426E0,2.913560629E0
2.847444948E0,1.183878899E1,-3.332603693E0,2.073380709E0
2.849840469E0,1.194646645E1,-2.963809967E0,1.237687469E0
2.852235209E0,1.125464153E1,-2.559422970E0,3.209373355E-1
2.854629948E0,1.089541912E1,-2.233700037E0,-4.573282301E-1
2.857025521E0,1.076142120E1,-2.085345030E0,-9.649057388E-1
2.859421042E0,1.090977573E1,-2.015953064E0,-1.074975610E0
2.861815782E0,1.096032429E1,-2.008774519E0,-9.290133715E-1
2.864210573E0,1.103928757E1,-1.809871197E0,-7.636095285E-1
2.866606146E0,1.097946644E1,-1.886441588E0,-6.894320250E-1
2.869001667E0,1.093131161E1,-2.197807550E0,-9.337990284E-1
2.871396407E0,1.079731274E1,-2.557030201E0,-9.385846853E-1
2.873791198E0,1.075663471E1,-3.026023388E0,-9.385846853E-1
2.876186719E0,1.072074318E1,-3.449851990E0,-7.540382147E-1
2.878582240E0,1.055803108E1,-3.883252144E0,-5.147559643E-1
2.880976980E0,1.017009449E1,-4.144069672E0,-2.105683982E-1
2.883371771E0,9.638588905E0,-4.228117466E0,1.698904037E-1
2.885767344E0,9.140582085E0,-4.264009953E0,5.985047817E-1
2.888162865E0,8.695218086E0,-4.371686935E0,8.835497499E-1
2.890557605E0,8.099106789E0,-4.467400074E0,9.409775138E-1
2.892952396E0,7.476673603E0,-4.563112736E0,7.444669604E-1
2.895347969E0,7.371389389E0,-4.764110088E0,4.477569461E-1
2.897743490E0,7.313961506E0,-4.929513931E0,2.727817893E-1
2.900138230E0,6.909275532E0,-4.756931305E0,2.994019389E-1
2.902532969E0,7.091429234E0,-4.862514496E0,4.046861231E-1
2.904928542E0,7.110571384E0,-4.711467743E0,3.975076675E-1
2.907324063E0,7.223034382E0,-4.567898273E0,3.065803945E-1
2.909718802E0,7.498209000E0,-4.558327198E0,1.339980662E-1
2.912113594E0,7.785646915E0,-4.608576298E0,-1.722832322E-1
2.914509167E0,8.034500122E0,-4.658825874E0,-3.137588799E-1
2.916904688E0,7.888537884E0,-4.812265396E0,-2.703889608E-1
2.919299427E0,7.531708241E0,-5.082654476E0,-4.549354017E-1
2.921694219E0,7.244569778E0,-5.367699623E0,-6.415755749E-1
2.924089740E0,7.072286606E0,-5.714658737E0,-8.811569214E-1
2.926485261E0,7.141678333E0,-6.476174355E0,-1.029511929E0
2.928880000E0,7.790432453E0,-7.905287743E0,-1.161117196E0
2.931274792E0,7.704290867E0,-8.132605553E0,-7.277171612E-1
2.933670365E0,7.292426109E0,-7.301997185E0,-3.281157911E-1
2.936065886E0,7.031608582E0,-6.878168583E0,-1.818545163E-1
2.938460625E0,7.108178616E0,-6.792026997E0,-2.153540403E-2
2.940855417E0,7.144071102E0,-6.835097790E0,1.172483116E-1
2.943250990E0,7.232605457E0,-7.069893837E0,3.927220106E-1
2.945646511E0,7.342675209E0,-7.778468132E0,3.999004960E-1
2.948041250E0,6.897311211E0,-7.967501163E0,5.769693851E-1
2.950435990E0,6.160022736E0,-7.900502205E0,1.029511929E0
2.952831563E0,5.506483078E0,-8.644968987E0,1.287936807E0
2.955227084E0,5.214259624E0,-9.854242325E0,1.268794179E0
2.957621823E0,5.166403294E0,-1.064177990E1,1.189831018E0
2.960016615E0,5.094618320E0,-1.073509979E1,1.252044439E0
2.962412188E0,5.149653435E0,-1.039292622E1,1.362114310E0
2.964807709E0,5.305186749E0,-1.018445110E1,1.486840129E0
2.967202448E0,5.097011566E0,-1.050778198E1,1.354935765E0
2.969597240E0,4.843372345E0,-1.083559799E1,1.113260746E0
2.971992813E0,4.694717884E0,-1.091216850E1,9.553344250E-1
2.974388334E0,4.721039295E0,-1.081645584E1,8.500502706E-1
2.976783021E0,4.896014214E0,-1.075424194E1,7.588238716E-1
2.979177813E0,5.125725269E0,-1.059631634E1,5.961119533E-1
2.981573386E0,5.496912003E0,-1.063699436E1,2.775674164E-1
2.983968907E0,5.475376606E0,-1.083559799E1,1.148554832E-1
2.986363646E0,5.252544880E0,-1.091216850E1,1.890329868E-1
2.988758438E0,4.893621445E0,-1.094357395E1,3.927220106E-1
2.991154011E0,4.479363918E0,-1.104168034E1,5.434698462E-1
2.993549532E0,3.888037682E0,-1.105603695E1,7.061817646E-1
2.995944271E0,3.622135162E0,-1.117089272E1,9.098708034E-1
2.998339063E0,3.856930971E0,-1.129292679E1,6.990033388E-1
3.000734584E0,4.170390606E0,-1.132881927E1,3.592225015E-1
3.003130105E0,4.331008911E0,-1.119721317E1,1.531406492E-1
3.005524844E0,4.369294167E0,-1.097707367E1,1.531406492E-1
3.007919636E0,4.496113777E0,-1.081645584E1,2.344966233E-1
3.010315209E0,4.666004181E0,-1.069442177E1,2.297109663E-1
3.012710730E0,4.898406982E0,-1.061545849E1,2.033899277E-1
3.015105469E0,5.257330418E0,-1.051496029E1,1.124626622E-1
3.017500261E0,5.563910961E0,-1.041924667E1,-2.871387079E-2
3.019895834E0,5.740979671E0,-1.039531898E1,-2.153540403E-2
3.022291355E0,5.736194134E0,-1.040249729E1,1.316052526E-1
3.024686094E0,5.626124382E0,-1.030648518E1,2.775674164E-1
3.027080834E0,5.537590027E0,-1.022273636E1,3.903291821E-1
3.029476407E0,5.413163185E0,-1.023230743E1,4.046861231E-1
3.031871927E0,5.571089268E0,-1.028255749E1,2.799602449E-1
3.034266667E0,5.824728489E0,-1.032323551E1,1.842473447E-1
3.036661459E0,5.911169052E0,-1.033041382E1,2.560320199E-1
3.039057032E0,6.045167446E0,-1.030887794E1,3.855435550E-1
3.041452552E0,6.188736439E0,-1.029212856E1,3.783650696E-1
3.043847292E0,6.274878502E0,-1.032084274E1,2.368894368E-1
3.046242084E0,6.384948254E0,-1.035673428E1,2.225325108E-1
3.048637657E0,6.504888535E0,-1.037348461E1,2.273181528E-1
3.051033177E0,6.619743824E0,-1.038814068E1,2.057827413E-1
3.053427865E0,6.854240417E0,-1.045753193E1,2.273181528E-1
3.055822657E0,7.316354275E0,-1.043360424E1,3.376871049E-1
3.058218230E0,7.800003529E0,-1.027059269E1,4.692923427E-1
3.060613750E0,7.957930088E0,-1.013420200E1,5.985047817E-1
3.063008490E0,7.931608677E0,-1.005523872E1,5.554339290E-1
3.065403282E0,7.876574039E0,-9.981060982E0,5.865406394E-1
3.067798855E0,7.747361660E0,-9.870991707E0,6.176473498E-1
3.070194375E0,7.450352192E0,-9.743872643E0,3.783650696E-1
3.072589115E0,6.947560310E0,-9.650552750E0,1.196411327E-1
3.074983855E0,6.521637917E0,-9.703194618E0,1.220339537E-1
3.077379427E0,6.224628925E0,-9.710372925E0,5.817549825E-1
3.079774948E0,6.040381432E0,-9.662516594E0,1.455733418E0
3.082169688E0,5.800800323E0,-9.554840088E0,2.085345030E0
3.084564480E0,5.307579517E0,-9.449555397E0,2.068595171E0
3.086960052E0,4.862514496E0,-9.260522842E0,1.486840129E0
3.089355573E0,4.057928085E0,-9.150154114E0,8.596215248E-1
3.091750313E0,3.547957659E0,-8.994620323E0,1.435693651E-1
3.094145105E0,3.311068296E0,-8.772088051E0,-3.927220106E-1
3.096540677E0,2.968595505E0,-8.577970505E0,-6.320042610E-1
3.098936198E0,3.110071182E0,-8.362615585E0,-7.420741320E-1
3.101330886E0,3.612564087E0,-7.955537319E0,-6.487540603E-1
3.103725677E0,3.856930971E0,-7.646862984E0,-4.980062246E-1
3.106121250E0,3.445066452E0,-7.455138206E0,-6.343970895E-1
3.108516771E0,2.489732027E0,-7.211070061E0,-9.792626500E-1
3.110911511E0,2.504088879E0,-7.342675209E0,-1.165902853E0
3.113306302E0,1.943869352E0,-7.531708241E0,-1.587338686E0
3.115701875E0,1.319043517E0,-7.721040249E0,-1.862513304E0
3.118097396E0,5.410770178E-1,-8.130212784E0,-1.745265007E0
3.120492136E0,-6.056832075E-1,-8.185546875E0,-1.630409479E0
3.122886927E0,-1.208973646E0,-8.108677864E0,-1.144367456E0
3.125282448E0,-1.228116274E0,-8.130212784E0,-8.883354068E-1
3.127677969E0,-1.237687469E0,-8.180761337E0,-7.899305820E-1
3.130072709E0,-1.094118118E0,-8.046463966E0,-7.037889361E-1
3.132467500E0,-7.085745931E-1,-8.003393173E0,-5.147559643E-1
3.134863073E0,-2.536391914E-1,-8.036892891E0,-5.243272781E-1
3.137258594E0,3.113660514E-1,-8.209475517E0,-5.075774789E-1
3.139653334E0,5.195416212E-1,-8.238189697E0,-5.865406394E-1
3.142048125E0,1.024726272E0,-8.417651176E0,-3.089732230E-1
3.144443698E0,1.613659739E0,-8.736195564E0,-2.392822644E-3
3.146839219E0,2.006381750E0,-9.073583603E0,2.153540403E-2
3.149233959E0,2.133201361E0,-9.329915047E0,-3.349951655E-2
3.151628698E0,2.051845312E0,-9.454340935E0,-1.722832322E-1
3.154024271E0,2.106880426E0,-9.602696419E0,-3.113660514E-1
3.156419792E0,2.099701881E0,-9.657731056E0,-1.890329868E-1
3.158814532E0,2.006381750E0,-9.576375008E0,4.546362907E-2
3.161209323E0,2.224128723E0,-9.509376526E0,2.584248483E-1
3.163604896E0,2.133201361E0,-9.334700584E0,5.697908998E-1
3.166000417E0,1.946262121E0,-9.066405296E0,5.530411601E-1
3.168395157E0,1.879263043E0,-8.791230202E0,6.774678826E-1
3.170789948E0,1.855334878E0,-8.721838951E0,1.084546804E0
3.173185521E0,1.893620014E0,-8.860622406E0,1.604088426E0
3.175581042E0,1.793121457E0,-9.169296265E0,1.752443433E0
3.177975730E0,1.759621978E0,-9.590732574E0,1.470090389E0
3.180370521E0,1.704586983E0,-1.004088211E1,1.381256819E0
3.182766094E0,2.023131609E0,-1.044317532E1,1.244866014E0
3.185161615E0,2.037488461E0,-1.075663471E1,6.846463680E-1
3.187556355E0,1.446162224E0,-1.103450203E1,-3.209373355E-1
3.189951146E0,-4.785645287E-3,-1.111107159E1,-9.074779749E-1
3.192346719E0,-3.646063566E0,-1.090738297E1,2.368894368E-1
3.194742240E0,-7.574779034E0,-1.004327488E1,1.992024899E0
3.197136980E0,-9.736694336E0,-9.377771378E0,2.724527597E0
3.199531719E0,-1.062742233E1,-9.308379173E0,2.980559587E0
3.201927292E0,-1.064895821E1,-9.753444672E0,3.119642496E0
3.204322813E0,-9.746265411E0,-1.038814068E1,2.683849812E0
3.206717552E0,-8.312366486E0,-1.106800079E1,2.451446772E0
3.209112344E0,-6.751348972E0,-1.159232807E1,2.647957325E0
3.211507917E0,-5.590231895E0,-1.186511040E1,2.992523909E0
3.213903438E0,-4.737788677E0,-1.191296673E1,3.629313707E0
3.216298177E0,-3.804288864E0,-1.192014503E1,4.517649174E0
3.218692969E0,-2.817847729E0,-1.170479107E1,4.821836948E0
3.221088490E0,-1.829013824E0,-1.137667561E1,4.826622486E0
3.223484011E0,-3.903291821E-1,-1.105364418E1,4.749752998E0
3.225878750E0,1.589731574E0,-1.060349464E1,4.259224415E0
3.228273542E0,3.399602890E0,-9.861420631E0,3.174677372E0
3.230669115E0,4.948656559E0,-9.159725189E0,2.729313374E0
3.233064636E0,6.780063152E0,-8.601898193E0,2.286342144E0
3.235459375E0,8.568398476E0,-8.029714584E0,1.474876046E0
3.237854167E0,1.050060272E1,-7.266105175E0,3.400799036E-1
3.240249740E0,1.189382362E1,-6.595815659E0,-1.603191197E-1
3.242645261E0,1.297358513E1,-6.021239281E0,-4.525425732E-1
3.245040000E0,1.412034512E1,-5.403591633E0,-1.003190875E0
3.247434740E0,1.476670647E1,-4.829015255E0,-1.836192250E0
3.249830313E0,1.517617893E1,-4.524827480E0,-2.231307030E0
3.252225834E0,1.507328701E1,-4.414757729E0,-2.161915302E0
3.254620573E0,1.511157227E1,-4.311866283E0,-2.183450699E0
3.257015365E0,1.490578938E1,-4.287938118E0,-2.362912416E0
3.259410938E0,1.442931843E1,-4.467400074E0,-2.391626120E0
3.261806459E0,1.359841156E1,-4.850550652E0,-2.159522533E0
3.264201198E0,1.258325577E1,-5.288437366E0,-1.910369754E0
3.266595990E0,1.166172028E1,-5.738586903E0,-1.757229090E0
3.268991563E0,1.062502956E1,-6.150451660E0,-1.618445396E0
3.271387084E0,9.562018394E0,-6.516852379E0,-1.398006678E0
3.273781823E0,8.489435196E0,-6.851847649E0,-1.185045362E0
3.276176563E0,7.567600727E0,-7.146463871E0,-8.330013752E-1
3.278572136E0,6.940382004E0,-7.447959423E0,-4.477569461E-1
3.280967657E0,6.274878502E0,-7.462316513E0,-2.392822690E-2
3.283362396E0,5.757729530E0,-7.361817837E0,4.046861231E-1
3.285757188E0,5.697908878E0,-7.474280834E0,6.750751138E-1
3.288152761E0,5.695516109E0,-7.685148239E0,7.971090674E-1
3.290548282E0,5.853442192E0,-7.993822098E0,7.229315639E-1
3.292943021E0,6.030810356E0,-8.262117386E0,6.870391965E-1
3.295337813E0,5.882156372E0,-8.463114738E0,6.320042610E-1
3.297733386E0,5.628517151E0,-8.719446182E0,7.875377536E-1
3.300128907E0,5.470590591E0,-8.877371788E0,8.234301209E-1
3.302523594E0,5.362913609E0,-8.882157326E0,9.888339639E-1
3.304918386E0,5.523232937E0,-8.781659126E0,1.113260746E0
3.307313959E0,5.721837044E0,-8.644968987E0,1.180259824E0
3.309709480E0,5.853442192E0,-8.302795410E0,1.173081279E0
3.312104219E0,5.930311680E0,-7.833503246E0,1.242473125E0
3.314499011E0,6.818347931E0,-7.673183918E0,1.218544960E0
3.316894584E0,6.222236156E0,-7.278069019E0,1.498804331E0
3.319290105E0,5.932704449E0,-6.890132904E0,1.371685624E0
3.321684844E0,5.743372440E0,-6.796812534E0,1.271187067E0
3.324079636E0,5.757729530E0,-6.823133945E0,1.070189953E0
3.326475157E0,5.650052547E0,-6.827919483E0,7.947162390E-1
3.328870677E0,5.480162144E0,-6.811169624E0,6.296114326E-1
3.331265417E0,5.324329376E0,-6.811169624E0,5.338985324E-1
3.333660209E0,5.348556995E0,-6.818347931E0,5.506483316E-1
3.336055782E0,5.427519798E0,-6.849454880E0,5.985047817E-1
3.338451302E0,5.463412285E0,-6.878168583E0,6.032904387E-1
3.340846042E0,5.499304771E0,-6.863811970E0,6.320042610E-1
3.343240834E0,5.573482037E0,-6.937989235E0,6.918248534E-1
3.345636407E0,5.606981754E0,-7.024429798E0,7.947162390E-1
3.348031927E0,5.590231895E0,-7.091429234E0,8.401798606E-1
3.350426667E0,5.520840168E0,-7.124928474E0,7.971090674E-1
3.352821407E0,5.305186749E0,-7.108178616E0,7.109674215E-1
3.355216980E0,5.104189873E0,-7.144071102E0,6.367899179E-1
3.357612500E0,5.046761990E0,-7.244569778E0,6.008976102E-1
3.360007240E0,4.960620403E0,-7.275676250E0,6.942176819E-1
3.362402032E0,4.931906700E0,-7.309175968E0,7.229315639E-1
3.364797605E0,5.018048286E0,-7.349853992E0,7.085745931E-1
3.367193125E0,5.221437931E0,-7.495816231E0,8.018946648E-1
3.369587865E0,5.317151070E0,-7.718647480E0,7.468597889E-1
3.371982657E0,5.324329376E0,-7.845467091E0,7.085745931E-1
3.374378230E0,5.472983360E0,-7.931608677E0,8.162516356E-1
3.376773750E0,5.417948723E0,-8.087141991E0,7.803592682E-1
3.379168490E0,5.449055195E0,-8.556434631E0,7.755736113E-1
3.381563230E0,5.429912567E0,-9.080761909E0,7.971090674E-1
3.383958802E0,5.317151070E0,-9.449555397E0,8.787640929E-1
3.386354323E0,5.120939732E0,-9.693623543E0,9.002995491E-1
3.388749063E0,4.989334106E0,-9.899705887E0,1.158724308E0
3.391143855E0,4.744967461E0,-1.008156013E1,1.249651670E0
3.393539427E0,4.632504463E0,-1.031366348E1,1.354935765E0
3.395934948E0,4.486542225E0,-1.065374374E1,1.383649707E0
3.398329688E0,4.139284134E0,-1.091216850E1,1.419841170E0
3.400724427E0,3.964607954E0,-1.105125141E1,1.402792215E0
3.403120000E0,5.020441055E0,-1.205653572E1,1.146760225E0
3.405515521E0,4.228117466E0,-1.186989594E1,1.199402332E0
3.407910261E0,3.145963669E0,-1.113021469E1,1.259222865E0
3.410305052E0,2.487339020E0,-1.053170967E1,1.438983679E0
3.412700625E0,2.647957325E0,-1.023948669E1,1.541875124E0
3.415096146E0,2.865704298E0,-1.010070229E1,1.563410521E0
3.417490886E0,2.901596546E0,-1.006480980E1,1.489233017E0
3.419885677E0,2.820240498E0,-1.005045319E1,1.388435364E0
3.422281250E0,2.851347208E0,-1.011266708E1,1.266401410E0
3.424676771E0,2.973381281E0,-1.020120144E1,1.156331539E0
3.427071511E0,3.069094181E0,-1.018205833E1,9.481559992E-1
3.429466250E0,3.141177893E0,-1.006002426E1,7.348956466E-1
3.431861823E0,3.358924866E0,-9.937990189E0,6.391827464E-1
3.434257344E0,3.734897137E0,-9.868598938E0,5.626124144E-1
3.436652084E0,3.998107433E0,-9.741479874E0,5.123631358E-1
3.439046875E0,4.029214382E0,-9.576375008E0,4.310071766E-1
3.441442448E0,4.124927044E0,-9.442377090E0,4.884349108E-1
3.443837969E0,4.115355968E0,-9.401699066E0,5.482555032E-1
3.446232709E0,3.921537161E0,-9.483055115E0,5.937191248E-1
3.448627500E0,3.545564890E0,-9.633803368E0,5.889334679E-1
3.451023073E0,3.289532900E0,-9.784550667E0,8.377870321E-1
3.453418594E0,3.200998545E0,-9.847063065E0,7.779664397E-1
3.455813334E0,3.095714331E0,-9.808479309E0,6.678966284E-1
3.458208073E0,3.030808926E0,-9.823135376E0,6.942176819E-1
3.460603646E0,3.282354355E0,-9.844670296E0,6.415755749E-1
3.462999167E0,3.516851187E0,-9.820742607E0,5.338985324E-1
3.465393907E0,3.710968733E0,-9.707980156E0,4.956133962E-1
3.467788698E0,3.878466368E0,-9.571589470E0,4.932205677E-1
3.470184271E0,4.230510235E0,-9.396913528E0,5.602195859E-1
3.472579792E0,4.465006828E0,-9.221938133E0,4.621138871E-1
3.474974532E0,4.740181446E0,-8.939585686E0,3.233301640E-1
3.477369323E0,5.080261707E0,-8.647361755E0,-1.196411345E-2
3.479764896E0,5.192724228E0,-8.314759254E0,-1.435693651E-1
3.482160417E0,5.360520840E0,-8.024929047E0,-4.262215197E-1
3.484555105E0,5.300401211E0,-7.831110477E0,-5.554339290E-1
3.486949896E0,5.410770416E0,-7.744968891E0,-7.444669604E-1
3.489345469E0,5.554339409E0,-7.948358536E0,-9.529415965E-1
3.491740990E0,5.717051506E0,-8.132605553E0,-1.127617717E0
3.494135730E0,5.807978630E0,-8.221439362E0,-1.237687469E0
3.496530521E0,5.465805054E0,-8.075178146E0,-1.003190875E0
3.498926094E0,5.164010525E0,-7.943572998E0,-7.947162390E-1
3.501321615E0,4.869693279E0,-7.747361660E0,-6.415755749E-1
3.503716355E0,4.689932346E0,-7.340282440E0,-5.219344497E-1
3.506111146E0,4.836193562E0,-6.964310169E0,-6.320042610E-1
3.508506667E0,5.020441055E0,-6.722635269E0,-3.664009571E-1
3.510902188E0,5.027619362E0,-6.882954121E0,-1.052841991E-1
3.513296927E0,4.864907742E0,-7.330711365E0,5.503492057E-2
3.515691719E0,4.189533234E0,-8.094321251E0,-5.024927482E-2
3.518087292E0,3.085843801E0,-8.776873589E0,-2.871387079E-2
3.520482813E0,2.185843468E0,-9.008976936E0,4.067798331E-2
3.522877552E0,1.208973646E0,-9.198010445E0,-4.310071766E-1
3.525272344E0,8.524430394E-1,-9.095118523E0,-6.176473498E-1
3.527667917E0,6.511468887E-1,-9.298808098E0,-4.525425732E-1
3.530063438E0,2.392822690E-2,-9.892526627E0,-8.853443712E-2
3.532458177E0,-3.735794425E-1,-1.037827015E1,1.213759303E0
3.534852969E0,-8.787640929E-1,-1.057478046E1,1.829013824E0
3.537248490E0,-1.434198022E0,-1.060349464E1,9.146564603E-1
3.539644011E0,-1.539482236E0,-1.097707367E1,4.668995142E-1
3.542038750E0,-1.223330617E0,-1.161864948E1,8.644071817E-1
3.544433542E0,-7.348956466E-1,-1.203739357E1,1.718943954E0
3.546829115E0,-5.626124144E-1,-1.220758247E1,2.248056889E0
3.549224636E0,-1.173081279E0,-1.228893852E1,1.891227245E0
3.551619375E0,-2.054238319E0,-1.244207954E1,1.043868899E0
3.554014167E0,-2.789133787E0,-1.245643616E1,3.472583890E-1
3.556409740E0,-3.160320520E0,-1.249950695E1,1.196411345E-2
3.558805261E0,-3.380460262E0,-1.257129192E1,-1.100698411E-1
3.561200000E0,-3.291925669E0,-1.270558929E1,-5.264209956E-2
3.563594740E0,-3.177070379E0,-1.265055466E1,-2.871387079E-2
3.565990313E0,-2.762812853E0,-1.256650639E1,4.067798331E-2
3.568385834E0,-2.231307030E0,-1.245643616E1,-7.178467698E-3
3.570780573E0,-1.685444474E0,-1.242772293E1,-2.392822690E-2
3.573175365E0,-1.024726272E0,-1.237747288E1,1.100698411E-1
3.575570938E0,-3.927220106E-1,-1.222194004E1,1.411765367E-1
3.577966459E0,2.703889608E-1,-1.205892849E1,1.722832322E-1
3.580361198E0,9.194421172E-1,-1.182443237E1,1.866401732E-1
3.582755990E0,1.242473125E0,-1.155882931E1,1.244267747E-1
3.585151563E0,1.508375525E0,-1.159472084E1,2.898306549E-1
3.587547084E0,1.915155411E0,-1.158514977E1,1.962114573E-1
3.589941823E0,2.190629244E0,-1.122353458E1,-1.363908947E-1
3.592336563E0,2.597707987E0,-1.096271706E1,-1.363908947E-1
3.594732136E0,2.681456804E0,-1.082363415E1,-3.349951655E-2
3.597127657E0,2.557030201E0,-1.067049313E1,-4.067798331E-2
3.599522396E0,2.429911375E0,-1.053888798E1,1.052841991E-1
3.601917188E0,2.386840582E0,-1.049103165E1,3.640081584E-1
3.604312761E0,2.456232548E0,-1.047667503E1,8.401798606E-1
3.606708282E0,2.437089920E0,-1.040489006E1,1.192223907E0
3.609103021E0,2.260020971E0,-1.032802105E1,1.364507079E0
3.611497813E0,2.061416626E0,-1.017248726E1,1.402792215E0
3.613893386E0,1.903191328E0,-9.971489906E0,1.359721422E0
3.616288907E0,1.781157374E0,-9.926026344E0,1.386042476E0
3.618683594E0,1.766800404E0,-9.945169449E0,1.546660781E0
3.621078386E0,1.776371717E0,-9.760622978E0,1.594517231E0
3.623473959E0,1.900798440E0,-9.779765129E0,1.395613790E0
3.625869480E0,2.092523336E0,-9.772586823E0,1.340578914E0
3.628264219E0,2.374876499E0,-9.576375008E0,1.383649707E0
3.630659011E0,2.341377020E0,-9.629017830E0,1.366899967E0
3.633054584E0,2.451446772E0,-9.705587387E0,1.309472203E0
3.635450105E0,2.872882605E0,-9.483055115E0,1.072582722E0
3.637844844E0,2.779562712E0,-9.487840652E0,9.242277741E-1
3.640239636E0,2.961417198E0,-9.504590988E0,6.774678826E-1
3.642635157E0,2.863311291E0,-9.485447884E0,5.243272781E-1
3.645030677E0,2.858525753E0,-9.351449966E0,4.525425732E-1
3.647425417E0,2.738884687E0,-9.198010445E0,5.123631358E-1
3.649820209E0,2.059023857E0,-8.767302513E0,6.152545214E-1
3.652215782E0,1.673480392E0,-8.326724052E0,7.516453862E-1
3.654611302E0,1.754836321E0,-8.044071198E0,7.875377536E-1
3.657006042E0,2.087737799E0,-7.991429329E0,7.372884750E-1
3.659400834E0,2.338984251E0,-8.087141991E0,7.660023570E-1
3.661796407E0,2.506481647E0,-8.221439362E0,8.763712645E-1
3.664191927E0,2.578565598E0,-8.360222816E0,1.029511929E0
3.666586667E0,2.691028118E0,-8.501399994E0,9.553344250E-1
3.668981407E0,2.753241539E0,-8.606683731E0,8.234301209E-1
3.671376980E0,2.738884687E0,-8.666504860E0,7.277171612E-1
3.673772500E0,2.805883646E0,-8.740981102E0,6.080760360E-1
3.676167240E0,2.894418001E0,-8.870193481E0,6.128616929E-1
3.678562032E0,2.903989315E0,-9.013762474E0,6.822535396E-1
3.680957605E0,3.037987471E0,-9.080761909E0,7.301099896E-1
3.683353125E0,3.143570662E0,-9.183652878E0,7.636095285E-1
3.685747865E0,3.105285645E0,-9.202795982E0,7.588238716E-1
3.688142657E0,3.189034462E0,-9.296415329E0,8.282157183E-1
3.690538230E0,3.284747362E0,-9.382556915E0,8.162516356E-1
3.692933750E0,3.332603693E0,-9.430413246E0,8.668000102E-1
3.695328490E0,3.385245800E0,-9.416056633E0,7.899305820E-1
3.697723230E0,3.339782238E0,-9.337093353E0,6.750751138E-1
3.700118802E0,3.260818958E0,-9.183652878E0,4.884349108E-1
3.702514323E0,3.153141975E0,-9.054440498E0,2.392822653E-1
3.704909063E0,3.069094181E0,-8.906085968E0,-7.178467698E-3
3.707303855E0,3.073879719E0,-8.786444664E0,4.785645381E-2
3.709699427E0,3.090928555E0,-8.731410027E0,-2.392822644E-3
3.712094948E0,3.196212769E0,-8.621041298E0,-4.067798331E-2
3.714489688E0,3.497708559E0,-8.690432549E0,2.033899277E-1
3.716884480E0,3.823431492E0,-8.752944946E0,5.482555032E-1
3.719280052E0,3.892823458E0,-8.822337151E0,8.114659786E-1
3.721675573E0,3.835395575E0,-8.791230202E0,6.224330068E-1
3.724070261E0,3.562314749E0,-8.836693764E0,5.338985324E-1
3.726465052E0,3.373281717E0,-9.042476654E0,8.186444640E-1
3.728860625E0,3.256033421E0,-9.341878891E0,1.024726272E0
3.731256146E0,3.110071182E0,-9.451948166E0,9.098708034E-1
3.733650886E0,2.966202736E0,-9.176474571E0,4.908277392E-1
3.736045677E0,2.786741018E0,-8.582756042E0,-7.827520967E-1
3.738441250E0,2.954238653E0,-7.989036560E0,-1.941476464E0
3.740836771E0,3.301496983E0,-7.910073280E0,4.286143482E-1
3.743231511E0,2.951845884E0,-8.408080101E0,3.998107433E0
3.745626302E0,2.405983210E0,-9.071190834E0,4.749752998E0
3.748021823E0,2.545065880E0,-9.662516594E0,4.297509670E0
3.750417344E0,3.061915636E0,-1.013898754E1,3.380460262E0
3.752812084E0,3.593421459E0,-1.048624611E1,2.025524378E0
3.755206875E0,3.859323740E0,-1.074467087E1,9.098708034E-1
3.757602448E0,3.964607954E0,-1.087866879E1,6.699903309E-2
3.759997969E0,3.868895054E0,-1.092652512E1,-4.166502357E-1
3.762392709E0,3.684647799E0,-1.095314598E1,-3.831507266E-1
3.764787500E0,3.535993576E0,-1.102732277E1,-1.411765367E-1
3.767183073E0,3.349353552E0,-1.112782192E1,2.368894368E-1
3.769578594E0,3.229712248E0,-1.110628605E1,8.258228898E-1
3.771973334E0,3.085843801E0,-1.105603695E1,1.125224829E0
3.774368125E0,2.791526794E0,-1.085713387E1,1.156331539E0
3.776763646E0,2.506481647E0,-1.054367352E1,1.091725349E0
3.779159167E0,2.279163599E0,-1.021795082E1,9.553344250E-1
3.781553907E0,2.193022013E0,-9.868598938E0,9.026923180E-1
3.783948698E0,2.214557409E0,-9.535696983E0,8.377870321E-1
3.786344271E0,2.228914261E0,-9.226723671E0,7.636095285E-1
3.788739792E0,2.298306227E0,-8.965906143E0,7.348956466E-1
3.791134532E0,2.461018085E0,-8.803194046E0,7.492526174E-1
3.793529323E0,2.676671267E0,-8.800801277E0,6.822535396E-1
3.795924896E0,2.844168901E0,-8.858229637E0,6.032904387E-1
3.798320417E0,2.944667339E0,-8.922835350E0,5.482555032E-1
3.800715157E0,3.040380239E0,-8.949156761E0,5.051847100E-1
3.803109948E0,3.157927752E0,-9.023334503E0,5.195416212E-1
3.805505469E0,3.227319479E0,-9.066405296E0,5.961119533E-1
3.807900990E0,3.282354355E0,-9.068798065E0,7.516453862E-1
3.810295730E0,3.181855917E0,-9.138189316E0,8.452646136E-1
3.812690521E0,2.923131943E0,-9.296415329E0,7.875377536E-1
3.815086094E0,3.057130098E0,-9.396913528E0,8.282157183E-1
3.817481615E0,3.586242914E0,-9.315557480E0,1.041476011E0
3.819876355E0,3.588635683E0,-9.349057198E0,1.046261668E0
3.822271146E0,3.320639610E0,-9.451948166E0,1.065404296E0
3.824666719E0,3.308675528E0,-9.521340370E0,1.132403374E0
3.827062240E0,3.289532900E0,-9.597910881E0,9.720842242E-1
3.829456980E0,3.208176851E0,-9.664909363E0,6.846463680E-1
3.831851771E0,3.279961586E0,-9.700801849E0,5.027918816E-1
3.834247292E0,3.406781197E0,-9.739087105E0,4.286143482E-1
3.836642813E0,3.471387386E0,-9.810872078E0,3.951148391E-1
3.839037552E0,3.495315790E0,-9.755837440E0,5.147559643E-1
3.841432344E0,3.476173162E0,-9.686445236E0,7.205387354E-1
3.843827917E0,3.387638569E0,-9.633803368E0,8.524430394E-1
3.846223438E0,3.289532900E0,-9.506983757E0,9.002995491E-1
3.848618177E0,3.205784082E0,-9.358628273E0,9.194421172E-1
3.851012969E0,3.155534744E0,-9.250652313E0,8.811569214E-1
3.853408542E0,3.143570662E0,-9.181260109E0,8.835497499E-1
3.855804063E0,3.131606579E0,-9.140582085E0,8.691928387E-1
3.858198802E0,3.131606579E0,-9.095118523E0,8.883354068E-1
3.860593594E0,3.212962627E0,-9.111868858E0,9.170492887E-1
3.862989115E0,3.258426189E0,-9.109476089E0,9.505487680E-1
3.865384636E0,3.342175007E0,-9.140582085E0,9.649057388E-1
3.867779375E0,3.306282759E0,-9.157332420E0,8.668000102E-1
3.870174167E0,3.303889751E0,-9.207581520E0,7.971090674E-1
3.872569740E0,3.325425386E0,-9.238688469E0,7.851449251E-1
3.874965261E0,3.313461065E0,-9.282057762E0,7.492526174E-1
3.877360000E0,3.313461065E0,-9.298808098E0,7.109674215E-1
3.879754792E0,3.289532900E0,-9.337093353E0,6.822535396E-1
3.882150365E0,3.287140131E0,-9.341878891E0,6.511468887E-1
3.884545886E0,3.236890793E0,-9.329915047E0,6.320042610E-1
3.886940625E0,3.210569859E0,-9.351449966E0,6.320042610E-1
3.889335365E0,3.196212769E0,-9.305986404E0,6.583253145E-1
3.891730938E0,3.186641455E0,-9.301200867E0,7.253243923E-1
3.894126459E0,3.177070379E0,-9.262915611E0,7.660023570E-1
3.896521198E0,3.136392355E0,-9.190832138E0,7.683951855E-1
3.898915990E0,3.117249727E0,-9.157332420E0,7.707880139E-1
3.901311563E0,3.143570662E0,-9.135796547E0,7.396813035E-1
3.903707084E0,3.189034462E0,-9.095118523E0,7.755736113E-1
3.906101823E0,3.232105255E0,-9.078369141E0,1.067797065E0
3.908496615E0,3.220141172E0,-9.044869423E0,1.165902853E0
3.910892188E0,3.196212769E0,-8.738588333E0,8.401798606E-1
3.913287709E0,3.373281717E0,-8.487042427E0,7.205387354E-1
3.915682448E0,3.490530014E0,-8.494221687E0,1.292124242E-1
3.918077188E0,3.390031576E0,-8.800801277E0,3.137588799E-1
3.920472761E0,3.308675528E0,-9.006584167E0,8.548358679E-1
3.922868282E0,3.325425386E0,-8.882157326E0,8.668000102E-1
3.925263021E0,3.157927752E0,-8.965906143E0,8.353942037E-1
3.927657813E0,3.339782238E0,-9.071190834E0,1.055832982E0
3.930053386E0,3.483351469E0,-9.296415329E0,9.337990284E-1
3.932448907E0,3.150749207E0,-9.650552750E0,7.707880139E-1
3.934843646E0,3.028416157E0,-9.957133293E0,7.731808424E-1
3.937238438E0,3.574278831E0,-9.724730492E0,6.846463680E-1
3.939634011E0,3.306282759E0,-9.727123260E0,4.908277392E-1
3.942029532E0,2.796312332E0,-9.842277527E0,4.740779996E-1
3.944424271E0,2.846561670E0,-9.940383911E0,6.702894568E-1
3.946819011E0,2.927917719E0,-9.954740524E0,7.133602500E-1
3.949214584E0,2.959024191E0,-9.899705887E0,7.181459069E-1
3.951610105E0,3.076272726E0,-9.810872078E0,7.157530785E-1
3.954004844E0,3.167499065E0,-9.703194618E0,7.229315639E-1
3.956399636E0,3.126821041E0,-9.640981674E0,6.798607111E-1
3.958795209E0,3.181855917E0,-9.595518112E0,6.487540603E-1
3.961190730E0,3.227319479E0,-9.511769295E0,6.296114326E-1
3.963585469E0,3.294318676E0,-9.478269577E0,6.343970895E-1
3.965980261E0,3.370888948E0,-9.463912964E0,5.697908998E-1
3.968375834E0,3.502494097E0,-9.416056633E0,5.315057039E-1
3.970771355E0,4.167997837E0,-8.953942299E0,3.472583890E-1
3.973166094E0,3.337389469E0,-8.903693199E0,4.046861231E-1
3.975560834E0,2.820240498E0,-9.150154114E0,6.750751138E-1
3.977956407E0,3.102892876E0,-9.351449966E0,8.979067206E-1
3.980351927E0,3.413959742E0,-9.468698502E0,8.691928387E-1
3.982746667E0,3.571886063E0,-9.468698502E0,7.037889361E-1
3.985141459E0,3.655933857E0,-9.370592117E0,6.224330068E-1
3.987537032E0,3.595814228E0,-9.267701149E0,5.530411601E-1
3.989932552E0,3.480958700E0,-9.157332420E0,4.812564552E-1
3.992327292E0,3.844966888E0,-8.757730484E0,3.855435550E-1
3.994722084E0,3.830610037E0,-8.700303078E0,-9.571290575E-3
3.997117657E0,3.270390272E0,-8.906085968E0,1.866401732E-1
3.999513177E0,3.193820000E0,-9.224330902E0,6.607181430E-1
4.001907917E0,3.466601849E0,-9.178867340E0,7.181459069E-1
4.004302709E0,3.320639610E0,-9.411270142E0,6.463612318E-1
4.006698230E0,3.198605776E0,-9.504590988E0,9.122636318E-1
4.009093750E0,3.246462107E0,-9.614660263E0,6.990033388E-1
4.011488490E0,3.186641455E0,-9.798908234E0,7.444669604E-1
4.013883282E0,3.112463951E0,-9.926026344E0,9.170492887E-1
4.016278855E0,3.308675528E0,-9.734301567E0,7.923234105E-1
4.018674375E0,3.409173965E0,-9.650552750E0,3.735794425E-1
4.021069115E0,3.392424345E0,-9.626625061E0,5.937191248E-1
4.023463907E0,3.459423304E0,-9.672088623E0,8.066803217E-1
4.025859480E0,3.411566973E0,-9.688838005E0,6.846463680E-1
4.028255000E0,3.437887907E0,-9.643374443E0,5.530411601E-1
4.030649740E0,3.514458179E0,-9.521340370E0,4.980062246E-1
4.033044480E0,3.588635683E0,-9.382556915E0,4.142574072E-1
4.035440052E0,3.581457376E0,-9.277272224E0,3.185445070E-1
4.037835573E0,3.658326626E0,-9.171689034E0,2.703889608E-1
4.040230313E0,3.699004650E0,-9.111868858E0,2.751746178E-1
4.042625105E0,3.708575964E0,-9.083154678E0,3.233301640E-1
4.045020677E0,3.696611881E0,-9.054440498E0,3.281157911E-1
4.047416198E0,3.710968733E0,-9.032905579E0,3.687937856E-1
4.049810938E0,3.689433336E0,-9.023334503E0,3.185445070E-1
4.052205730E0,3.667897940E0,-9.001798630E0,3.376871049E-1
4.054601302E0,3.655933857E0,-8.980263710E0,3.616153300E-1
4.056996823E0,3.622135162E0,-8.906085968E0,3.233301640E-1
4.059391563E0,3.576671600E0,-8.829515457E0,2.392822653E-1
4.061786302E0,3.521636724E0,-8.812766075E0,1.148554832E-1
4.064181875E0,3.492922783E0,-8.824729919E0,2.392822690E-2
4.066577396E0,3.579064369E0,-8.800801277E0,-4.785645287E-3
4.068972136E0,3.761218071E0,-8.748159409E0,8.614161611E-2
4.071366927E0,3.521636724E0,-8.796015739E0,4.046861231E-1
4.073762500E0,3.303889751E0,-8.822337151E0,5.913262963E-1
4.076158021E0,3.299104214E0,-8.841479301E0,5.961119533E-1
4.078552761E0,3.478565931E0,-8.848658562E0,5.985047817E-1
4.080947552E0,3.675076485E0,-8.831908226E0,5.673980713E-1
4.083343125E0,4.129712582E0,-8.767302513E0,6.631109715E-1
4.085738646E0,4.393222332E0,-8.791230202E0,6.080760360E-1
4.088133386E0,4.649254322E0,-8.920442581E0,5.003990531E-1
4.090528177E0,4.704289436E0,-8.999405861E0,4.262215197E-1
4.092923698E0,4.405186653E0,-9.097511292E0,1.603191197E-1
4.095319219E0,4.120141506E0,-9.056833267E0,8.210372925E-1
4.097713959E0,3.792324781E0,-9.095118523E0,8.210372925E-1
4.100108750E0,3.675076485E0,-9.217152596E0,3.113660514E-1
4.102504323E0,3.878466368E0,-9.267701149E0,-2.153540403E-1
4.104899844E0,3.653541088E0,-8.999405861E0,-6.104688644E-1
4.107294584E0,3.569493294E0,-9.004191399E0,-1.415055513E0
4.109689375E0,3.588635683E0,-9.013762474E0,-1.197009563E0
4.112084948E0,3.663112402E0,-9.087940216E0,-7.612167001E-1
4.114480469E0,3.864109516E0,-9.224330902E0,-3.161516786E-1
4.116875209E0,4.050749779E0,-9.370592117E0,2.225325108E-1
4.119270000E0,4.354937077E0,-9.485447884E0,7.085745931E-1
4.121665521E0,4.668396950E0,-9.562018394E0,1.010369420E0
4.124061042E0,4.903192520E0,-9.640981674E0,1.098903775E0
4.126455782E0,4.936692238E0,-9.686445236E0,9.098708034E-1
4.128850573E0,4.412364960E0,-9.705587387E0,4.980062246E-1
4.131246146E0,3.715754509E0,-9.813264847E0,-7.417750359E-2
4.133641667E0,3.284747362E0,-9.983454704E0,-4.860421121E-1
4.136036407E0,3.222533941E0,-1.015334511E1,-7.636095285E-1
4.138431198E0,3.380460262E0,-1.023948669E1,-8.811569214E-1
4.140826771E0,3.679862022E0,-1.019162941E1,-7.875377536E-1
4.143222292E0,3.945465326E0,-1.001456070E1,-6.583253145E-1
4.145617032E0,4.045963764E0,-9.818050385E0,-4.980062246E-1
4.148011823E0,3.952643871E0,-9.605089188E0,-2.201396823E-1
4.150407344E0,3.605385542E0,-9.404091835E0,1.028913707E-1
4.152802865E0,3.244069338E0,-9.176474571E0,4.621138871E-1
4.155197605E0,3.006880760E0,-8.999405861E0,7.229315639E-1
4.157592396E0,2.927917719E0,-8.831908226E0,8.548358679E-1
4.159987969E0,2.968595505E0,-8.664112091E0,9.577272534E-1
4.162383490E0,3.114856958E0,-8.513363838E0,1.003190875E0
4.164778230E0,3.375674486E0,-8.388936996E0,8.907282352E-1
4.167173021E0,3.598206997E0,-8.283653259E0,8.210372925E-1
4.169568594E0,3.823431492E0,-8.192725182E0,8.282157183E-1
4.171964115E0,4.098606110E0,-8.137690544E0,7.971090674E-1
4.174358855E0,4.151247978E0,-8.101499557E0,7.013961077E-1
4.176753646E0,4.120141506E0,-8.156833649E0,4.980062246E-1
4.179149167E0,4.000500202E0,-8.257331848E0,2.368894368E-1
4.181544688E0,3.907180309E0,-8.443971634E0,7.657032460E-2
4.183939427E0,3.830610037E0,-8.721838951E0,-4.785645287E-3
4.186334219E0,3.785146236E0,-9.013762474E0,-2.153540403E-2
4.188729792E0,3.761218071E0,-9.291629791E0,-3.349951655E-2
4.191125313E0,3.773182154E0,-9.557232857E0,3.589234129E-2
4.193520052E0,3.794717550E0,-9.782157898E0,1.220339537E-1
4.195914844E0,3.852145433E0,-9.964311600E0,1.531406492E-1
4.198310417E0,3.871287823E0,-1.006480980E1,1.507478207E-1
4.200705938E0,3.868895054E0,-1.011745262E1,9.092725813E-2
4.203100677E0,4.010071754E0,-1.032562828E1,0.000000000E0
4.205495469E0,4.055535316E0,-1.056042385E1,-3.589234129E-2
4.207891042E0,3.876073599E0,-1.054128075E1,-2.632104978E-2
4.210286563E0,3.524029493E0,-1.015334511E1,9.810572863E-2
4.212681302E0,3.275176048E0,-9.535696983E0,2.874378264E-1
4.215076042E0,3.258426189E0,-9.040083885E0,3.376871049E-1
4.217471615E0,3.614956856E0,-8.762516975E0,4.310071766E-1
4.219867136E0,3.904787540E0,-8.688039780E0,5.673980713E-1
4.222261875E0,3.847359657E0,-8.848658562E0,3.376871049E-1
4.224656667E0,3.998107433E0,-8.980263710E0,4.166502357E-1
4.227052240E0,3.737289906E0,-9.006584167E0,4.740779996E-1
4.229447761E0,3.260818958E0,-9.020941734E0,-1.076770201E-1
4.231842500E0,3.641277790E0,-9.025727272E0,-1.411765367E-1
4.234237292E0,3.988536358E0,-9.004191399E0,8.135596663E-2
4.236632865E0,3.974179268E0,-9.116654396E0,-4.307080805E-2
4.239028386E0,3.993321896E0,-9.238688469E0,-7.178467698E-3
4.241423073E0,3.952643871E0,-9.346664429E0,3.589234129E-2
4.243817865E0,3.933501244E0,-9.478269577E0,-5.742774159E-2
4.246213438E0,3.995714664E0,-9.571589470E0,4.785645287E-3
4.248608959E0,3.998107433E0,-9.660123825E0,1.220339537E-1
4.251003698E0,3.715754509E0,-9.667302132E0,8.853443712E-2
4.253398490E0,3.397209883E0,-9.557232857E0,-4.307080805E-2
4.255794063E0,3.256033421E0,-9.377771378E0,-1.435693651E-1
4.258189584E0,3.157927752E0,-9.207581520E0,-9.332008660E-2
4.260584323E0,3.071486950E0,-9.078369141E0,3.110669367E-2
4.262979115E0,2.932703257E0,-9.049654961E0,1.890329868E-1
4.265374688E0,2.860918522E0,-9.078369141E0,2.536391914E-1
4.267770209E0,2.853740215E0,-9.109476089E0,3.113660514E-1
4.270164948E0,2.791526794E0,-9.169296265E0,3.281157911E-1
4.272559740E0,2.825026274E0,-9.080761909E0,3.448655605E-1
4.274955261E0,2.851347208E0,-9.011369705E0,3.735794425E-1
4.277350782E0,2.903989315E0,-9.016156197E0,2.898306549E-1
4.279745521E0,2.951845884E0,-9.030512810E0,1.770688742E-1
4.282140313E0,3.136392355E0,-9.090332985E0,1.962114573E-1
4.284535886E0,3.299104214E0,-9.126225471E0,2.826521695E-1
4.286931407E0,3.413959742E0,-9.214759827E0,3.759722710E-1
4.289326146E0,3.418745279E0,-9.301200867E0,5.003990531E-1
4.291720938E0,3.392424345E0,-9.377771378E0,4.573282301E-1
4.294116511E0,3.220141172E0,-9.485447884E0,2.874378264E-1
4.296512032E0,3.002095222E0,-9.487840652E0,3.110669367E-2
4.298906771E0,2.975774050E0,-9.547661781E0,-2.105683982E-1
4.301301563E0,2.978166819E0,-9.564411163E0,-1.722832322E-1
4.303697084E0,2.927917719E0,-9.466305733E0,-3.589234129E-2
4.306092605E0,2.839383125E0,-9.322735786E0,0.000000000E0
4.308487344E0,2.844168901E0,-9.253045082E0,-6.939185411E-2
4.310882136E0,2.892025232E0,-9.212367058E0,6.939185411E-2
4.313277709E0,3.002095222E0,-9.200403214E0,1.100698411E-1
4.315673230E0,3.102892876E0,-9.171689034E0,2.727817893E-1
4.318067969E0,3.258426189E0,-9.142974854E0,3.209373355E-1
4.320462761E0,3.382853031E0,-9.188439369E0,4.645066857E-1
4.322858334E0,3.447459221E0,-9.277272224E0,5.554339290E-1
4.325253855E0,3.483351469E0,-9.353842735E0,5.219344497E-1
4.327648594E0,3.557528973E0,-9.423234940E0,4.429712892E-1
4.330043386E0,3.610171080E0,-9.538089752E0,3.640081584E-1
4.332438907E0,3.682255030E0,-9.593125343E0,2.850449979E-1
4.334834427E0,3.727718592E0,-9.679266930E0,2.560320199E-1
4.337229167E0,3.739682674E0,-9.727123260E0,2.584248483E-1
4.339623959E0,3.703790426E0,-9.801301003E0,2.440679073E-1
4.342019532E0,3.706183195E0,-9.803693771E0,2.727817893E-1
4.344415052E0,3.763610840E0,-9.734301567E0,2.033899277E-1
4.346809792E0,3.821038723E0,-9.552447319E0,1.579262912E-1
4.349204584E0,3.864109516E0,-9.329915047E0,5.264209956E-2
4.351600157E0,3.892823458E0,-9.064012527E0,5.024927482E-2
4.353995677E0,3.914358854E0,-8.796015739E0,1.435693540E-2
4.356390417E0,3.969393730E0,-8.549256325E0,2.871387079E-2
4.358785209E0,4.029214382E0,-8.374580383E0,5.742774159E-2
4.361180782E0,4.079463482E0,-8.281260490E0,1.052841991E-1
4.363576302E0,4.132105827E0,-8.245368004E0,1.531406492E-1
4.365971042E0,4.117748737E0,-8.305188179E0,2.297109663E-1
4.368365782E0,4.062713623E0,-8.434400558E0,2.970091105E-1
4.370761355E0,4.033999920E0,-8.604290962E0,3.520440459E-1
4.373156875E0,4.053142548E0,-8.724231720E0,3.879363835E-1
4.375551615E0,4.141676903E0,-8.803194046E0,4.070789516E-1
4.377946407E0,4.275974274E0,-8.836693764E0,3.879363835E-1
4.380341980E0,4.359723091E0,-8.920442581E0,3.329014480E-1
4.382737500E0,4.414757729E0,-8.999405861E0,3.281157911E-1
4.385132240E0,4.390829563E0,-9.028120041E0,3.209373355E-1
4.387527032E0,4.105784416E0,-9.052047729E0,2.344966233E-1
4.389922605E0,3.732504129E0,-9.080761909E0,8.614161611E-2
4.392318125E0,3.514458179E0,-9.083154678E0,-4.785645287E-3
4.394712865E0,3.413959742E0,-9.095118523E0,1.435693540E-2
4.397107605E0,3.368496180E0,-8.989834785E0,8.614161611E-2
4.399503177E0,3.191427231E0,-8.920442581E0,2.201396823E-1
4.401898698E0,3.028416157E0,-8.891729355E0,2.994019389E-1
4.404293438E0,3.033201694E0,-8.793622971E0,3.065803945E-1
4.406688230E0,3.059522867E0,-8.683254242E0,2.201396823E-1
4.409083802E0,3.033201694E0,-8.613862038E0,1.818545163E-1
4.411479323E0,3.064308405E0,-8.544470787E0,2.129612118E-1
4.413874063E0,3.083451033E0,-8.439186096E0,2.970091105E-1
4.416268855E0,3.090928555E0,-8.250153542E0,3.352942765E-1
4.418664427E0,3.040380239E0,-8.103892326E0,3.735794425E-1
4.421059948E0,3.023630619E0,-8.024929047E0,4.166502357E-1
4.423454688E0,3.282354355E0,-7.654041290E0,9.571290761E-2
4.425849480E0,3.217748165E0,-7.304390430E0,1.435693540E-2
4.428245000E0,3.064308405E0,-7.009773731E0,-9.092725813E-2
4.430640521E0,3.583850145E0,-6.437590122E0,-2.922234535E-1
4.433035261E0,3.480958700E0,-6.102594852E0,-4.525425732E-1
4.435430052E0,3.267997503E0,-5.992525101E0,-3.975076675E-1
4.437825625E0,3.471387386E0,-6.107380867E0,-2.177468538E-1
4.440221146E0,3.792324781E0,-6.365805626E0,9.571290575E-3
4.442615886E0,4.175176620E0,-6.602993965E0,9.092725813E-2
4.445010677E0,4.515256405E0,-6.801598549E0,9.092725813E-2
4.447406250E0,4.740181446E0,-6.988238335E0,2.153540403E-2
4.449801771E0,4.862514496E0,-7.156035423E0,-7.417750359E-2
4.452196511E0,4.924727917E0,-7.261319637E0,-1.316052526E-1
4.454591302E0,5.006083965E0,-7.385746002E0,-2.392822653E-1
4.456986875E0,5.132903576E0,-7.538887024E0,-3.376871049E-1
4.459382396E0,5.204688549E0,-7.768897057E0,-3.807578981E-1
4.461777084E0,5.240580559E0,-8.142476082E0,-2.177468538E-1
4.464171875E0,5.242973328E0,-8.245368004E0,-1.890329868E-1
4.466567448E0,5.087440014E0,-8.180761337E0,-2.874378264E-1
4.468962969E0,5.101797104E0,-8.207082748E0,-2.297109663E-1
4.471357709E0,5.211866856E0,-8.300402641E0,-1.172483116E-1
4.473752500E0,5.334199905E0,-8.405686378E0,-8.374879509E-2
4.476148073E0,5.343770981E0,-8.623434067E0,-9.092725813E-2
4.478543594E0,5.266901970E0,-9.037691116E0,-1.914258115E-2
4.480938334E0,5.149653435E0,-9.506983757E0,1.244267747E-1
4.483333125E0,4.972584724E0,-1.004806042E1,1.459621787E-1
4.485728698E0,4.855336189E0,-1.051017475E1,1.268195957E-1
4.488124219E0,4.342973232E0,-1.127856922E1,-3.828516230E-2
4.490518959E0,4.022035599E0,-1.195843029E1,1.028913707E-1
4.492913698E0,3.885644913E0,-1.248036480E1,4.980062246E-1
4.495309271E0,3.739682674E0,-1.282283783E1,7.779664397E-1
4.497704792E0,3.519243956E0,-1.292812157E1,9.768698215E-1
4.500099532E0,3.344567776E0,-1.271755314E1,1.175474167E0
4.502494323E0,3.418745279E0,-1.231525993E1,1.151545882E0
4.504889896E0,3.531208038E0,-1.166889858E1,9.218349457E-1
4.507285417E0,3.911965847E0,-1.134317589E1,6.415755749E-1
4.509680157E0,3.787539244E0,-1.073749256E1,4.956133962E-1
4.512074948E0,4.326223373E0,-1.096750259E1,2.033899277E-1
4.514470521E0,4.441078663E0,-1.106800079E1,-1.004985496E-1
4.516866042E0,4.323830605E0,-1.097946644E1,-3.855435550E-1
4.519260782E0,4.069892406E0,-1.082602692E1,-5.027918816E-1
4.521655573E0,3.833002806E0,-1.074706364E1,-5.865406394E-1
4.524051094E0,3.703790426E0,-1.083559799E1,-6.607181430E-1
4.526446615E0,3.559921980E0,-1.106560802E1,-7.683951855E-1
4.528841355E0,3.516851187E0,-1.131685448E1,-7.229315639E-1
4.531236146E0,3.512065411E0,-1.124507046E1,-7.899305820E-1
4.533631719E0,3.526422262E0,-1.066092205E1,-7.683951855E-1
4.536027240E0,3.526422262E0,-1.001934624E1,-7.253243923E-1
4.538421980E0,3.564707518E0,-9.597910881E0,-6.463612318E-1
4.540816771E0,3.571886063E0,-9.437591553E0,-5.913262963E-1
4.543212344E0,3.521636724E0,-9.322735786E0,-5.003990531E-1
4.545607865E0,3.497708559E0,-9.092725754E0,-3.664009571E-1
4.548002605E0,3.492922783E0,-8.901300430E0,-2.321037948E-1
4.550397396E0,3.528815269E0,-8.788837433E0,-1.555334777E-1
4.552792969E0,3.571886063E0,-8.748159409E0,-6.699903309E-2
4.555188490E0,3.631706476E0,-8.760123253E0,-1.196411345E-2
4.557583177E0,3.725325823E0,-8.800801277E0,4.785645381E-2
4.559977969E0,3.890430450E0,-8.898907661E0,-5.503492057E-2
4.562373542E0,3.938287020E0,-8.889336586E0,-1.196411345E-2
4.564769063E0,3.988536358E0,-8.774480820E0,8.135596663E-2
4.567163802E0,4.012464523E0,-8.680861473E0,1.148554832E-1
4.569558594E0,4.038785458E0,-8.702695847E0,3.589234129E-2
4.571954167E0,4.053142548E0,-8.719446182E0,4.785645287E-3
4.574349688E0,4.057928085E0,-8.776873589E0,3.110669367E-2
4.576744427E0,4.096213341E0,-8.812766075E0,2.632104978E-2
4.579139219E0,4.096213341E0,-8.851051331E0,4.785645287E-3
4.581534792E0,4.127319813E0,-8.901300430E0,-3.349951655E-2
4.583930313E0,4.129712582E0,-8.951549530E0,-4.307080805E-2
4.586325052E0,4.129712582E0,-8.999405861E0,-4.546362907E-2
4.588719844E0,4.148855209E0,-8.999405861E0,-4.307080805E-2
4.591115365E0,4.146462440E0,-9.025727272E0,-9.092725813E-2
4.593510886E0,4.151247978E0,-9.030512810E0,-1.435693651E-1
4.595905625E0,4.144069672E0,-9.059226990E0,-1.651047617E-1
4.598300417E0,4.165605068E0,-9.032905579E0,-1.627119333E-1
4.600695990E0,4.132105827E0,-9.032905579E0,-2.081755698E-1
4.603091511E0,4.132105827E0,-9.068798065E0,-2.033899277E-1
4.605486250E0,4.134498596E0,-9.047262192E0,-2.153540403E-1
4.607881042E0,4.136891365E0,-9.013762474E0,-1.938186288E-1
4.610276615E0,4.208974838E0,-9.025727272E0,-2.344966233E-1
4.612672136E0,4.249652863E0,-9.040083885E0,-2.874378264E-1
4.615066875E0,4.244867325E0,-9.028120041E0,-3.113660514E-1
4.617461667E0,4.271188259E0,-9.023334503E0,-2.679961324E-1
4.619857188E0,4.280759811E0,-8.968298912E0,-2.081755698E-1
4.622252709E0,4.292723656E0,-8.944371223E0,-1.435693651E-1
4.624647448E0,4.357329845E0,-8.937192917E0,-1.842473447E-1
4.627042240E0,4.338187218E0,-8.894122124E0,-1.866401732E-1
4.629437813E0,4.280759811E0,-8.865407944E0,-1.316052526E-1
4.631833334E0,4.266402721E0,-8.860622406E0,-9.332008660E-2
4.634228073E0,4.249652863E0,-8.841479301E0,-5.982056633E-2
4.636622865E0,4.228117466E0,-8.839086533E0,-3.110669367E-2
4.639018438E0,4.216153622E0,-8.822337151E0,-5.264209956E-2
4.641413959E0,4.256831646E0,-8.762516975E0,-6.221338734E-2
4.643808698E0,4.304687977E0,-8.724231720E0,-1.914258115E-2
4.646203490E0,4.081856251E0,-8.659325600E0,2.871387079E-2
4.648599063E0,3.830610037E0,-8.534899712E0,7.417750359E-2
4.650994584E0,3.777967930E0,-8.408080101E0,6.221338734E-2
4.653389323E0,3.926322937E0,-8.293224335E0,8.374879509E-2
4.655784063E0,4.117748737E0,-8.199904442E0,1.052841991E-1
4.658179636E0,4.271188259E0,-8.118248940E0,1.770688742E-1
4.660575157E0,4.342973232E0,-8.024929047E0,1.890329868E-1
4.662969896E0,4.354937077E0,-7.941180229E0,0.000000000E0
4.665364688E0,4.429114819E0,-7.828717709E0,-2.392822653E-1
4.667760261E0,4.634897232E0,-7.728219032E0,-3.903291821E-1
4.670155782E0,4.970191956E0,-7.737790108E0,-2.922234535E-1
4.672550521E0,5.518447399E0,-7.996214867E0,-1.028913707E-1
4.674945313E0,6.868597507E0,-8.534899712E0,3.735794425E-1
4.677340886E0,8.166404724E0,-8.772088051E0,2.344966233E-1
4.679736407E0,7.546065331E0,-8.925228119E0,-3.879363835E-1
4.682131146E0,6.026024818E0,-9.368199348E0,-2.081755698E-1
4.684525938E0,4.862514496E0,-9.868598938E0,-5.024927482E-2
4.686921511E0,4.338187218E0,-1.028495026E1,-1.196411327E-1
4.689317032E0,4.414757729E0,-1.051017475E1,-2.826521695E-1
4.691711719E0,4.805087090E0,-1.060110188E1,-3.927220106E-1
4.694106511E0,5.271687508E0,-1.042642593E1,-6.894320250E-1
4.696502084E0,5.413163185E0,-1.043838978E1,-9.361918569E-1
4.698897605E0,5.489733219E0,-1.036630630E1,-9.649057388E-1
4.701292344E0,5.360520840E0,-1.028495026E1,-7.899305820E-1
4.703687136E0,5.010869503E0,-1.007198906E1,-6.559324861E-1
4.706082709E0,4.395615101E0,-9.526125908E0,-5.243272781E-1
4.708478230E0,4.216153622E0,-9.114261627E0,-5.195416212E-1
4.710872969E0,4.218546391E0,-8.793622971E0,-5.243272781E-1
4.713267761E0,4.144069672E0,-8.465507507E0,-3.305086195E-1
4.715663334E0,4.069892406E0,-8.127820015E0,-2.129612118E-1
4.718058855E0,4.314259052E0,-7.881359577E0,-2.225325108E-1
4.720453594E0,4.654039860E0,-7.948358536E0,-2.368894368E-1
4.722848334E0,5.135296345E0,-8.343473434E0,-2.850449979E-1
4.725243907E0,5.309972763E0,-9.099904060E0,-1.938186288E-1
4.727639427E0,4.814658165E0,-9.739087105E0,-1.579262912E-1
4.730034167E0,4.184747696E0,-1.004566765E1,-2.057827413E-1
4.732428959E0,3.622135162E0,-1.012702370E1,-2.751746178E-1
4.734824532E0,3.401995659E0,-1.012702370E1,-2.129612118E-1
4.737220052E0,3.334996462E0,-1.003609657E1,-5.024927482E-2
4.739614792E0,3.119642496E0,-1.003370380E1,3.185445070E-1
4.742009584E0,2.899203777E0,-1.006002426E1,7.492526174E-1
4.744405157E0,2.839383125E0,-1.016770172E1,8.428717852E-1
4.746800677E0,3.416352510E0,-1.045035362E1,8.787640929E-1
4.749195417E0,3.940679789E0,-1.097468090E1,1.125224829E0
4.751590209E0,3.907180309E0,-1.148195934E1,1.051047325E0
4.753985782E0,3.861716747E0,-1.195843029E1,7.468597889E-1
4.756381302E0,3.792324781E0,-1.237986660E1,4.310071766E-1
4.758775990E0,3.799503326E0,-1.276301670E1,2.297109663E-1
4.761170782E0,3.931108475E0,-1.322513103E1,-9.092725813E-2
4.763566355E0,3.754039526E0,-1.303579903E1,-2.321037948E-1
4.765961875E0,3.478565931E0,-1.223151112E1,1.268195957E-1
4.768356615E0,3.260818958E0,-1.129771233E1,6.631109715E-1
4.770751407E0,3.157927752E0,-1.046710396E1,1.060618639E0
4.773146980E0,3.141177893E0,-9.813264847E0,1.175474167E0
4.775542500E0,3.339782238E0,-9.349057198E0,1.055832982E0
4.777937240E0,3.687040567E0,-9.032905579E0,7.707880139E-1
4.780332032E0,4.115355968E0,-8.796015739E0,3.185445070E-1
4.782727605E0,4.575077057E0,-8.496614456E0,-4.405784607E-1
4.785123125E0,4.977370262E0,-8.017750740E0,-1.031904817E0
4.787517865E0,5.362913609E0,-7.488637447E0,-1.460519075E0
4.789912657E0,5.657230854E0,-6.995417118E0,-1.869691849E0
4.792308177E0,5.889334679E0,-6.495316982E0,-2.154736757E0
4.794703698E0,6.176772594E0,-6.102594852E0,-2.262413740E0
4.797098438E0,6.449554443E0,-5.858228207E0,-2.178664923E0
4.799493230E0,6.583851337E0,-5.666802406E0,-2.001596212E0
4.801888802E0,6.717849731E0,-5.551946640E0,-1.836192250E0
4.804284323E0,6.765706062E0,-5.528018475E0,-1.654337764E0
4.806679063E0,6.739385128E0,-5.506483078E0,-1.151545882E0
4.809073855E0,6.748956203E0,-5.441876888E0,-7.516453862E-1
4.811469427E0,6.775277138E0,-5.415555954E0,-7.660023570E-1
4.813864948E0,6.990631580E0,-5.530411243E0,-1.192223907E0
4.816259688E0,7.146463871E0,-5.683551788E0,-1.383649707E0
4.818654480E0,7.101000309E0,-5.923133373E0,-1.208973646E0
4.821050052E0,6.863811970E0,-6.229414463E0,-8.691928387E-1
4.823445573E0,6.408876419E0,-6.540780544E0,-6.535396576E-1
4.825840313E0,6.078666687E0,-7.002595425E0,-4.908277392E-1
4.828235105E0,5.860620975E0,-7.634898663E0,-4.046861231E-1
4.830630625E0,5.712265968E0,-8.276473999E0,-3.257229924E-1
4.833026146E0,5.683551788E0,-8.953942299E0,-2.679961324E-1
4.835420886E0,5.697908878E0,-9.621838570E0,-1.531406492E-1
4.837815677E0,5.757729530E0,-1.030169964E1,-1.148554832E-1
4.840211250E0,5.874977589E0,-1.107996559E1,-2.033899277E-1
4.842606771E0,5.947061539E0,-1.191535950E1,-3.089732230E-1
4.845001511E0,6.100202084E0,-1.270319653E1,-2.344966233E-1
4.847396302E0,6.145665646E0,-1.348355579E1,-1.244267747E-1
4.849791875E0,6.028417587E0,-1.402223969E1,1.914258115E-2
4.852187396E0,5.774479389E0,-1.442453289E1,1.435693651E-1
4.854582136E0,5.496912003E0,-1.470927906E1,2.850449979E-1
4.856976927E0,5.192724228E0,-1.493928909E1,3.329014480E-1
4.859372500E0,4.673182487E0,-1.480259895E1,5.291129351E-1
4.861768021E0,4.242474556E0,-1.451546001E1,6.750751138E-1
4.864162761E0,4.108177185E0,-1.455613804E1,5.985047817E-1
4.866557500E0,4.086641788E0,-1.493689632E1,1.100698411E-1
4.868953073E0,4.077070713E0,-1.494407463E1,-2.153540403E-2
4.871348594E0,4.158426762E0,-1.491296768E1,-5.865406394E-1
4.873743334E0,4.273581028E0,-1.505414486E1,-1.086939692E0
4.876138125E0,4.445864677E0,-1.491057491E1,-1.527518153E0
4.878533698E0,4.577469826E0,-1.480738449E1,-2.195414782E0
4.880929219E0,4.716253281E0,-1.478584957E1,-2.667099953E0
4.883323959E0,4.644468784E0,-1.459442329E1,-3.198605776E0
4.885718750E0,4.783551693E0,-1.438624763E1,-3.825824261E0
4.888114323E0,5.001298428E0,-1.428066444E1,-3.990929127E0
4.890509844E0,5.314758301E0,-1.452503204E1,-3.890430450E0
4.892904584E0,5.563910961E0,-1.436471272E1,-3.694219112E0
4.895299375E0,5.726622581E0,-1.417777348E1,-3.631706476E0
4.897694948E0,6.037988663E0,-1.405095387E1,-4.022035599E0
4.900090469E0,6.162415504E0,-1.386670589E1,-4.639683247E0
4.902485209E0,5.992525101E0,-1.345005608E1,-4.749752998E0
4.904879948E0,5.872584820E0,-1.270319653E1,-4.002892971E0
4.907275521E0,5.700301647E0,-1.221236897E1,-2.439482689E0
4.909671042E0,5.733801365E0,-1.190578842E1,-5.291129351E-1
4.912065782E0,6.006882191E0,-1.172154045E1,7.588238716E-1
4.914460573E0,6.308377743E0,-1.162822056E1,1.482054472E0
4.916856146E0,6.457031727E0,-1.161864948E1,1.730908036E0
4.919251667E0,6.516852379E0,-1.158514977E1,1.256830096E0
4.921646407E0,6.535995007E0,-1.152532959E1,4.214358926E-1
4.924041198E0,6.524031162E0,-1.152532959E1,1.435693540E-2
4.926436771E0,6.619743824E0,-1.150618649E1,-3.664009571E-1
4.928832292E0,6.748956203E0,-1.144845963E1,-8.210372925E-1
4.931227032E0,6.832705021E0,-1.139821053E1,-1.005583763E0
4.933621823E0,7.002595425E0,-1.128096199E1,-1.065404296E0
4.936017396E0,7.139285564E0,-1.119960594E1,-9.409775138E-1
4.938412917E0,7.325925827E0,-1.118285656E1,-8.401798606E-1
4.940807605E0,7.574779034E0,-1.113739300E1,-1.323829174E0
4.943202396E0,7.847859859E0,-1.115414238E1,-1.764407635E0
4.945597969E0,8.123034477E0,-1.116849995E1,-2.111665964E0
4.947993490E0,8.331509590E0,-1.125464153E1,-2.408375978E0
4.950388230E0,8.367402077E0,-1.153968620E1,-2.166700840E0
4.952783021E0,8.329116821E0,-1.164018440E1,-2.398804665E0
4.955178594E0,8.420043945E0,-1.146999550E1,-2.985345364E0
4.957574115E0,8.776873589E0,-1.125224876E1,-3.344567776E0
4.959968855E0,9.406484604E0,-1.107039356E1,-3.457030535E0
4.962363646E0,1.018205833E1,-1.088106155E1,-3.631706476E0
4.964759219E0,1.090738297E1,-1.069920731E1,-3.835395575E0
4.967154740E0,1.154925728E1,-1.051496029E1,-3.864109516E0
