"Time (s)","Gyroscope x (rad/s)","Gyroscope y (rad/s)","Gyroscope z (rad/s)"
2.197324300E-2,-2.528907657E-1,-4.915793240E-1,-3.261924386E-1
2.447480600E-2,-2.528907657E-1,-4.915793240E-1,-3.261924386E-1
2.697709700E-2,-6.975875497E-1,-9.900307059E-1,-4.007157981E-1
2.945996200E-2,-7.415685654E-1,-1.005912781E0,-4.214846194E-1
3.198897200E-2,-7.879929543E-1,-1.019351363E0,-4.434750974E-1
3.449647200E-2,-8.368607163E-1,-1.027903199E0,-4.679090083E-1
3.700131600E-2,-8.869501948E-1,-1.035233378E0,-4.911212027E-1
3.951282700E-2,-9.370396733E-1,-1.038898468E0,-5.179984570E-1
4.201376400E-2,-9.871291518E-1,-1.043785214E0,-5.424323678E-1
4.449574300E-2,-1.038440347E0,-1.043785214E0,-5.680879354E-1
4.702824300E-2,-1.093416572E0,-1.036455035E0,-5.949652195E-1
4.950959700E-2,-1.148392797E0,-1.024238110E0,-6.181774139E-1
5.203980600E-2,-1.196038961E0,-1.007134438E0,-6.426113248E-1
5.452162900E-2,-1.238798261E0,-9.692618847E-1,-6.633801460E-1
5.704970200E-2,-1.285222650E0,-9.411629438E-1,-6.890357137E-1
5.955928500E-2,-1.330425382E0,-9.228374958E-1,-7.110261917E-1
6.204006600E-2,-1.379293084E0,-9.069554806E-1,-7.317950130E-1
6.454704500E-2,-1.424495816E0,-8.947384953E-1,-7.537854910E-1
6.707595200E-2,-1.468476772E0,-8.861866593E-1,-7.745543122E-1
6.956329500E-2,-1.521009684E0,-8.837432861E-1,-7.953231335E-1
7.208636800E-2,-1.569877505E0,-8.776348233E-1,-8.136485219E-1
7.455074300E-2,-1.623632073E0,-8.593093753E-1,-8.307522535E-1
7.707709700E-2,-1.673721433E0,-8.360971808E-1,-8.478559852E-1
7.958277400E-2,-1.728697777E0,-8.104416132E-1,-8.637380004E-1
8.208886800E-2,-1.784895658E0,-7.713474035E-1,-8.759549856E-1
8.462105600E-2,-1.842315316E0,-7.188144922E-1,-8.881719112E-1
8.712543100E-2,-1.902178407E0,-6.528429985E-1,-8.979454637E-1
8.963751400E-2,-1.957154632E0,-5.819846988E-1,-9.077190161E-1
9.213954500E-2,-2.012130976E0,-5.221216679E-1,-9.138274789E-1
9.461892000E-2,-2.068328857E0,-4.671454430E-1,-9.187142849E-1
9.714834700E-2,-2.128191948E0,-4.182776511E-1,-9.223793745E-1
9.965636800E-2,-2.185611486E0,-3.816268146E-1,-9.260444641E-1
1.021540770E-1,-2.240587711E0,-3.474193811E-1,-9.272661209E-1
1.046427220E-1,-2.298007488E0,-3.242071867E-1,-9.260444641E-1
1.071295450E-1,-2.355427027E0,-3.046600819E-1,-9.223793745E-1
1.095880870E-1,-2.415290117E0,-3.022166789E-1,-9.174925685E-1
1.120421490E-1,-2.476374865E0,-3.095468581E-1,-9.089407325E-1
1.145070970E-1,-2.537459612E0,-3.278722763E-1,-8.979454637E-1
1.169591290E-1,-2.592435837E0,-3.461976945E-1,-8.857285380E-1
1.193915770E-1,-2.638860226E0,-3.608580232E-1,-8.686248064E-1
1.218729830E-1,-2.679176092E0,-3.730749488E-1,-8.515210748E-1
1.243064720E-1,-2.717048645E0,-3.914003670E-1,-8.331956863E-1
1.267628790E-1,-2.746369362E0,-4.231644273E-1,-8.099834919E-1
1.292209520E-1,-2.778133392E0,-4.634803534E-1,-7.855495811E-1
1.316760560E-1,-2.809897423E0,-5.221216679E-1,-7.574505806E-1
1.341325660E-1,-2.841661453E0,-6.003101468E-1,-7.269082665E-1
1.365922540E-1,-2.877090693E0,-6.784985662E-1,-6.939224601E-1
1.390477220E-1,-2.917406559E0,-7.579087615E-1,-6.572716236E-1
1.415048580E-1,-2.957722425E0,-8.532009125E-1,-6.206207871E-1
1.439616290E-1,-3.002925158E0,-9.411629438E-1,-5.815265775E-1
1.464227220E-1,-3.046906233E0,-1.021794796E0,-5.387672782E-1
1.488756910E-1,-3.089665413E0,-1.102426648E0,-4.935645759E-1
1.513320450E-1,-3.127537966E0,-1.168398142E0,-4.459185004E-1
1.537913160E-1,-3.148306847E0,-1.190388560E0,-3.946073353E-1
1.562477740E-1,-3.154415131E0,-1.201383829E0,-3.432961702E-1
1.587029310E-1,-3.148306847E0,-1.220930934E0,-2.932066917E-1
1.611593370E-1,-3.133646488E0,-1.256360054E0,-2.443388999E-1
1.636175140E-1,-3.120207787E0,-1.293010950E0,-1.954711229E-1
1.660758470E-1,-3.107990742E0,-1.329661727E0,-1.502684206E-1
1.685311600E-1,-3.096995592E0,-1.388303161E0,-1.075091213E-1
1.709874620E-1,-3.088443756E0,-1.437170863E0,-6.719319522E-2
1.734515240E-1,-3.061566353E0,-1.438392639E0,-2.932066843E-2
1.759014200E-1,-3.033467531E0,-1.431062460E0,4.886778072E-3
1.783579830E-1,-3.004146814E0,-1.440835953E0,3.787253052E-2
1.807666810E-1,-2.968717575E0,-1.417623758E0,6.719319522E-2
1.832726180E-1,-2.916184902E0,-1.321109891E0,9.284878522E-2
1.857295970E-1,-2.867316961E0,-1.239256382E0,1.136175916E-1
1.881852740E-1,-2.822114229E0,-1.198940516E0,1.294996142E-1
1.906441290E-1,-2.772024870E0,-1.148851037E0,1.417165697E-1
1.930989200E-1,-2.715826988E0,-1.097539783E0,1.490467340E-1
1.955579830E-1,-2.659628868E0,-1.059667230E0,1.514901221E-1
1.980135560E-1,-2.607096195E0,-1.036455035E0,1.514901221E-1
2.004703790E-1,-2.554563284E0,-1.021794796E0,1.478250325E-1
2.029454310E-1,-2.504473686E0,-1.014464617E0,1.404948682E-1
2.053835040E-1,-2.455605984E0,-1.004691005E0,1.307213157E-1
2.078406390E-1,-2.407959938E0,-9.875873327E-1,1.172826737E-1
2.102978270E-1,-2.361535549E0,-9.546015263E-1,1.038440317E-1
2.127544930E-1,-2.313889503E0,-9.106205702E-1,8.796200156E-2
2.152114720E-1,-2.267465115E0,-8.495358229E-1,7.085828483E-2
2.176656910E-1,-2.224705696E0,-7.762341499E-1,5.375456065E-2
2.201220970E-1,-2.183168173E0,-6.870504618E-1,3.909422457E-2
2.226009520E-1,-2.144073963E0,-5.880932212E-1,2.443389036E-2
2.250358990E-1,-2.107423067E0,-4.830274582E-1,1.343864016E-2
2.274927740E-1,-2.068328857E0,-3.755183518E-1,3.665083554E-3
2.299501180E-1,-2.026791096E0,-2.619007528E-1,-4.886778072E-3
2.324065770E-1,-1.985253572E0,-1.519482583E-1,-9.773556143E-3
2.348648060E-1,-1.937607527E0,-4.688252881E-2,-9.773556143E-3
2.373205870E-1,-1.886296391E0,4.596625641E-2,-1.099525020E-2
2.397776180E-1,-1.834985137E0,1.400367320E-1,-7.330167107E-3
2.422344410E-1,-1.780008912E0,2.206685692E-1,-2.443389036E-3
2.446907430E-1,-1.722589254E0,2.951919436E-1,6.108472589E-3
2.471492850E-1,-1.666391373E0,3.660502136E-1,1.832541823E-2
2.496075660E-1,-1.601641536E0,4.308000207E-1,3.420744836E-2
2.520642330E-1,-1.532004952E0,4.869979918E-1,5.253286287E-2
2.545207430E-1,-1.451373100E0,5.370874405E-1,7.207997888E-2
2.569766810E-1,-1.368297815E0,5.835118294E-1,9.407047927E-2
2.594343370E-1,-1.279114127E0,6.287145615E-1,1.209477559E-1
2.618904310E-1,-1.189930439E0,6.751389503E-1,1.478250325E-1
2.643482430E-1,-1.093416572E0,7.276718020E-1,1.795890927E-1
2.667974100E-1,-9.993461370E-1,7.850914598E-1,2.137965411E-1
2.692620970E-1,-9.028322697E-1,8.510629535E-1,2.504473627E-1
2.716859520E-1,-8.063184023E-1,9.268079996E-1,2.846548259E-1
2.741762640E-1,-7.061394453E-1,1.006218195E0,3.213056624E-1
2.766317330E-1,-6.010736823E-1,1.083184958E0,3.616215885E-1
2.790895450E-1,-4.935645759E-1,1.150378108E0,4.056025743E-1
2.815462640E-1,-3.750602305E-1,1.199245930E0,4.654656053E-1
2.840040770E-1,-2.492256761E-1,1.248113632E0,5.289937258E-1
2.864610040E-1,-1.343863904E-1,1.327523828E0,5.766398311E-1
2.889145970E-1,1.221694518E-2,1.353179336E0,6.169557571E-1
2.913720970E-1,2.028012872E-1,1.311641812E0,6.474980712E-1
2.938290770E-1,4.361449480E-1,1.221236348E0,6.780404449E-1
2.962857950E-1,6.963658929E-1,1.127165914E0,7.146912813E-1
2.987422540E-1,9.663603902E-1,1.045312405E0,7.452336550E-1
3.011996490E-1,1.233911514E0,1.012326598E0,7.696675658E-1
3.036559520E-1,1.486954927E0,1.107618809E0,7.855495811E-1
3.061138680E-1,1.725185394E0,1.384943485E0,7.867712975E-1
3.085707430E-1,1.942646980E0,1.786880970E0,7.684458494E-1
3.110280350E-1,2.129566193E0,2.159650564E0,7.232431769E-1
3.134858990E-1,2.293273211E0,2.444305420E0,6.609367132E-1
3.159418890E-1,2.436211586E0,2.653215170E0,5.937435627E-1
3.183997020E-1,2.559602737E0,2.814478636E0,5.277720094E-1
3.208578270E-1,2.664668560E0,2.926874638E0,4.630222321E-1
3.233132950E-1,2.748965263E0,2.997732878E0,3.970507085E-1
3.257704310E-1,2.817380190E0,3.060039282E0,3.335226178E-1
3.282295450E-1,2.876021624E0,3.119902372E0,2.687727809E-1
3.306839200E-1,2.911450863E0,3.167548418E0,2.052446753E-1
3.331413680E-1,2.938328028E0,3.228633165E0,1.429382563E-1
3.355979830E-1,2.949323177E0,3.281166077E0,8.307522535E-2
3.380545450E-1,2.949323177E0,3.339807272E0,2.321219631E-2
3.405127220E-1,2.946879864E0,3.407000542E0,-2.809897438E-2
3.429693370E-1,2.932219505E0,3.464420319E0,-7.696675509E-2
3.454251180E-1,2.912672520E0,3.523061514E0,-1.185043678E-1
3.478823580E-1,2.895568609E0,3.582924604E0,-1.527118087E-1
3.503381910E-1,2.873578310E0,3.618353844E0,-1.808107942E-1
3.527957950E-1,2.841814280E0,3.647674322E0,-2.015796006E-1
3.552530870E-1,2.802719831E0,3.680660248E0,-2.174616307E-1
3.577279830E-1,2.751408815E0,3.700207233E0,-2.296785712E-1
3.601664200E-1,2.689102411E0,3.687990427E0,-2.382304370E-1
3.626257430E-1,2.635347843E0,3.655004501E0,-2.455606014E-1
3.650807950E-1,2.581593275E0,3.596363306E0,-2.431172132E-1
3.675370970E-1,2.515621662E0,3.519396544E0,-2.394521236E-1
3.699505870E-1,2.450871944E0,3.425326109E0,-2.321219593E-1
3.724511080E-1,2.377570152E0,3.321481943E0,-2.235700935E-1
3.749074620E-1,2.300603390E0,3.210307837E0,-2.089097649E-1
3.773647540E-1,2.221193314E0,3.096690178E0,-1.844758689E-1
3.798212640E-1,2.140561581E0,2.981850863E0,-1.539335102E-1
3.822785040E-1,2.053821087E0,2.859681368E0,-1.160609797E-1
3.847361600E-1,1.970745921E0,2.738733768E0,-7.207997888E-2
3.871920450E-1,1.877897143E0,2.645884991E0,-2.565558441E-2
3.896499620E-1,1.771609783E0,2.606790781E0,2.199050039E-2
3.921058990E-1,1.670209169E0,2.561588049E0,6.841489673E-2
3.945152740E-1,1.566365123E0,2.501724958E0,1.087308154E-1
3.970195970E-1,1.462521076E0,2.416206360E0,1.478250325E-1
3.994767330E-1,1.359898686E0,2.312362194E0,1.844758689E-1
4.019334520E-1,1.260788798E0,2.195079565E0,2.174616307E-1
4.043924100E-1,1.161831498E0,2.076575279E0,2.504473627E-1
4.068459520E-1,1.064095974E0,1.960514307E0,2.858765125E-1
4.093014200E-1,9.810206890E-1,1.838192105E0,3.200839758E-1
4.117584520E-1,9.064973593E-1,1.679371834E0,3.555130959E-1
4.142156910E-1,8.405258060E-1,1.481457353E0,3.884988427E-1
4.166744930E-1,7.904363275E-1,1.259108901E0,4.117110670E-1
4.191333470E-1,7.476770282E-1,1.037982225E0,4.239279926E-1
4.215884520E-1,7.122479081E-1,8.339592218E-1,4.288147688E-1
4.240473580E-1,6.878139973E-1,6.445965767E-1,4.263713956E-1
4.265024100E-1,6.731536984E-1,4.588989913E-1,4.239279926E-1
4.289591290E-1,6.682668924E-1,2.695363462E-1,4.202629030E-1
4.314163680E-1,6.719319820E-1,6.184828654E-2,4.117110670E-1
4.338728790E-1,6.853706241E-1,-1.592784226E-1,3.982724249E-1
4.363303270E-1,7.000309825E-1,-3.877353072E-1,3.775036037E-1
4.387426700E-1,7.171346545E-1,-6.259657145E-1,3.506263196E-1
4.412439200E-1,7.281299233E-1,-8.617527485E-1,3.127537966E-1
4.437003790E-1,7.342383862E-1,-1.091431379E0,2.638860047E-1
4.461576700E-1,7.391251922E-1,-1.305227876E0,2.101314515E-1
4.486152220E-1,7.379034758E-1,-1.501920700E0,1.478250325E-1
4.510888680E-1,7.354601026E-1,-1.682731509E0,8.063183725E-2
4.535281390E-1,7.317950130E-1,-1.842773438E0,9.773556143E-3
4.559848580E-1,7.244648337E-1,-1.982046604E0,-6.108472496E-2
4.584419930E-1,7.220214605E-1,-2.098107576E0,-1.294996142E-1
4.608987120E-1,7.207997441E-1,-2.184847832E0,-1.966928244E-1
4.633556910E-1,7.207997441E-1,-2.244710922E0,-2.577775419E-1
4.658132950E-1,7.220214605E-1,-2.276474953E0,-3.200839758E-1
4.682696490E-1,7.293516397E-1,-2.280140162E0,-3.762819171E-1
4.707255350E-1,7.354601026E-1,-2.259371281E0,-4.288147688E-1
4.732008990E-1,7.464553714E-1,-2.217833757E0,-4.764608741E-1
4.756402740E-1,7.586722970E-1,-2.161635637E0,-5.216635466E-1
4.780972020E-1,7.733326554E-1,-2.088334084E0,-5.619794726E-1
4.805538160E-1,7.892146707E-1,-1.996706963E0,-5.974085927E-1
4.830109520E-1,8.063184023E-1,-1.892862916E0,-6.316160560E-1
4.854669410E-1,8.246437907E-1,-1.782910466E0,-6.646018028E-1
4.879244930E-1,8.466343284E-1,-1.668071151E0,-6.927008033E-1
4.903800140E-1,8.747332692E-1,-1.559340358E0,-7.134696245E-1
4.928373580E-1,9.077190161E-1,-1.466491580E0,-7.305732965E-1
4.952941290E-1,9.541434050E-1,-1.396854997E0,-7.427902818E-1
4.977508470E-1,1.003011227E0,-1.350430608E0,-7.464553714E-1
5.002086600E-1,1.059209108E0,-1.330883503E0,-7.525638342E-1
5.026674100E-1,1.120293856E0,-1.336991906E0,-7.550072074E-1
5.051241810E-1,1.186265349E0,-1.374864459E0,-7.598940134E-1
5.075797020E-1,1.248571754E0,-1.435949206E0,-7.647807598E-1
5.100373060E-1,1.304769754E0,-1.528797984E0,-7.733326554E-1
5.124928790E-1,1.353790283E0,-1.646080613E0,-7.904363275E-1
5.149502220E-1,1.392884493E0,-1.785353780E0,-8.136485219E-1
5.174073580E-1,1.422205091E0,-1.939287305E0,-8.441908956E-1
5.198637640E-1,1.442973971E0,-2.104216099E0,-8.893936276E-1
5.223196490E-1,1.453969240E0,-2.272809982E0,-9.419264793E-1
5.247768370E-1,1.460077643E0,-2.438960314E0,-1.007897973E0
5.272324620E-1,1.461299300E0,-2.595337391E0,-1.079977989E0
5.296889200E-1,1.457634330E0,-2.760266066E0,-1.163053155E0
5.321456910E-1,1.453969240E0,-2.926416397E0,-1.247350097E0
5.346024620E-1,1.449082375E0,-3.096231937E0,-1.336533785E0
5.370613160E-1,1.442973971E0,-3.266047478E0,-1.423274159E0
5.395179310E-1,1.439308882E0,-3.432198048E0,-1.506349325E0
5.419757950E-1,1.435643792E0,-3.581397533E0,-1.585759521E0
5.444315770E-1,1.433200359E0,-3.712118864E0,-1.661504507E0
5.468893890E-1,1.428313613E0,-3.828179836E0,-1.728697777E0
5.493467330E-1,1.420983434E0,-3.933245420E0,-1.793447495E0
5.518032950E-1,1.405101418E0,-4.024872780E0,-1.849645495E0
5.542648060E-1,1.392884493E0,-4.110391140E0,-1.900956631E0
5.567176180E-1,1.374559045E0,-4.192244530E0,-1.942494273E0
5.591742330E-1,1.356233597E0,-4.277763367E0,-1.973036647E0
5.615992850E-1,1.336686492E0,-4.363282204E0,-1.993805408E0
5.640896490E-1,1.328134656E0,-4.447578907E0,-2.003578901E0
5.665448060E-1,1.298661232E0,-4.480564594E0,-1.995027184E0
5.690014720E-1,1.181378603E0,-4.277763367E0,-1.963263035E0
5.714589720E-1,9.907942414E-1,-3.884377718E0,-1.914395332E0
5.739158990E-1,8.136485219E-1,-3.534973145E0,-1.856975675E0
5.763766290E-1,6.646018028E-1,-3.244057178E0,-1.778787255E0
5.788292850E-1,5.008947253E-1,-2.862888336E0,-1.674943209E0
5.812855350E-1,3.090887070E-1,-2.320456028E0,-1.536891699E0
5.837423580E-1,1.075091213E-1,-1.735264301E0,-1.379293084E0
5.861997020E-1,-6.963659078E-2,-1.290567517E0,-1.219251156E0
5.886564200E-1,-2.052446753E-1,-1.042563558E0,-1.061652541E0
5.911110040E-1,-3.078670204E-1,-9.289459586E-1,-8.979454637E-1
5.935708990E-1,-3.909422457E-1,-8.837432861E-1,-7.281299233E-1
5.960274620E-1,-4.666872919E-1,-8.483141065E-1,-5.473191738E-1
5.984837640E-1,-5.412106514E-1,-7.847860456E-1,-3.579564989E-1
6.009407430E-1,-6.230642200E-1,-6.772769094E-1,-1.575985998E-1
6.034147020E-1,-7.073611021E-1,-5.404471159E-1,4.275930673E-2
6.058553270E-1,-7.782194018E-1,-3.901786804E-1,2.443388999E-1
6.083117850E-1,-8.368607163E-1,-2.460187376E-1,4.422534108E-1
6.107693890E-1,-8.783983588E-1,-1.128540337E-1,6.365028620E-1
6.132256390E-1,-9.016105533E-1,9.315420873E-3,8.283088803E-1
6.156825660E-1,-9.089407325E-1,1.302631795E-1,1.014006495E0
6.181391810E-1,-9.113841057E-1,2.426590770E-1,1.194817185E0
6.205958470E-1,-9.016105533E-1,3.330644667E-1,1.367228866E0
6.230542850E-1,-8.808417320E-1,3.782671690E-1,1.528492570E0
6.255107430E-1,-8.515210748E-1,3.636068404E-1,1.670209169E0
6.279656910E-1,-8.148702383E-1,2.927485406E-1,1.798487067E0
6.304223580E-1,-7.745543122E-1,1.742441803E-1,1.909661293E0
6.328792330E-1,-7.366818190E-1,3.008422814E-2,2.007396698E0
6.352922020E-1,-6.963658929E-1,-1.128540337E-1,2.089250326E0
6.377951700E-1,-6.523848772E-1,-2.374668717E-1,2.154000044E0
6.402507430E-1,-6.096255779E-1,-3.303156495E-1,2.193094254E0
6.427090240E-1,-5.656445622E-1,-3.877353072E-1,2.215084791E0
6.451655350E-1,-5.192201734E-1,-4.317162931E-1,2.215084791E0
6.476395450E-1,-4.703523815E-1,-4.732539058E-1,2.197981119E0
6.500789720E-1,-4.165978432E-1,-5.086830258E-1,2.167438745E0
6.525358990E-1,-3.579564989E-1,-5.770979524E-1,2.119792700E0
6.549925140E-1,-2.919849753E-1,-6.491779089E-1,2.066038132E0
6.574482430E-1,-2.150182426E-1,-7.481352091E-1,2.001288414E0
6.599056910E-1,-1.356080920E-1,-8.446490765E-1,1.931651711E0
6.623617330E-1,-4.886778072E-2,-9.570449591E-1,1.857128382E0
6.648187120E-1,4.398100078E-2,-1.085322857E0,1.782605052E0
6.672744410E-1,1.380514801E-1,-1.234369636E0,1.706859946E0
6.697311080E-1,2.394521236E-1,-1.395633221E0,1.632336617E0
6.721881390E-1,3.494046330E-1,-1.583774209E0,1.557813168E0
6.746447020E-1,4.581354558E-1,-1.773136854E0,1.484511495E0
6.771018370E-1,5.741963983E-1,-1.962499499E0,1.413653255E0
6.795590240E-1,6.927008033E-1,-2.160413980E0,1.347529054E0
6.820153790E-1,8.087617755E-1,-2.338781357E0,1.287665963E0
6.844724100E-1,9.260444641E-1,-2.500045061E0,1.238798261E0
6.869290770E-1,1.039662004E0,-2.653978586E0,1.197260618E0
6.893862120E-1,1.156944752E0,-2.806690454E0,1.161831498E0
6.918428270E-1,1.271783948E0,-2.959402323E0,1.134954214E0
6.942997540E-1,1.380667567E0,-3.108448982E0,1.114185452E0
6.967579830E-1,1.479624748E0,-3.245278835E0,1.097081661E0
6.992143370E-1,1.568808436E0,-3.368669987E0,1.084864736E0
7.016704830E-1,1.649440289E0,-3.482287407E0,1.077534556E0
7.041511080E-1,1.717855215E0,-3.578953981E0,1.070204377E0
7.065841290E-1,1.771609783E0,-3.660807610E0,1.067761064E0
7.090413160E-1,1.811925650E0,-3.735331059E0,1.062874198E0
7.114983990E-1,1.829029441E0,-3.811076164E0,1.055544019E0
7.139547540E-1,1.822920918E0,-3.881934404E0,1.045770526E0
7.164116290E-1,1.797265291E0,-3.935688972E0,1.031110168E0
7.188689200E-1,1.756949425E0,-3.971117973E0,1.017671585E0
7.213255870E-1,1.705638289E0,-3.991886854E0,1.006676316E0
7.238069930E-1,1.645775199E0,-4.000438690E0,9.981244206E-1
7.262391810E-1,1.582247138E0,-3.994330168E0,9.956810474E-1
7.286961080E-1,1.512610555E0,-3.971117973E0,9.932376146E-1
7.311529310E-1,1.445417285E0,-3.944240808E0,9.981244206E-1
7.336105870E-1,1.379445791E0,-3.910033226E0,1.009119630E0
7.360666810E-1,1.309656501E0,-3.870939016E0,1.028666735E0
7.385237640E-1,1.244906664E0,-3.828179836E0,1.054322362E0
7.409809520E-1,1.185043693E0,-3.781755447E0,1.084864736E0
7.434374620E-1,1.127624035E0,-3.731665850E0,1.121515512E0
7.458944410E-1,1.076312900E0,-3.684019804E0,1.160609841E0
7.483510560E-1,1.031110168E0,-3.636373758E0,1.207034230E0
7.508081390E-1,9.944593310E-1,-3.596057892E0,1.252236843E0
7.532648060E-1,9.688037634E-1,-3.566737175E0,1.297439575E0
7.557218370E-1,9.468132257E-1,-3.547189951E0,1.346307397E0
7.581789200E-1,9.309312105E-1,-3.541081667E0,1.397771239E0
7.606363680E-1,9.199360013E-1,-3.552076817E0,1.447860718E0
7.630929830E-1,9.126058221E-1,-3.576510668E0,1.497950196E0
7.655492330E-1,9.040539265E-1,-3.618048429E0,1.545596242E0
7.680062640E-1,8.991671801E-1,-3.671802759E0,1.592020631E0
7.704630870E-1,8.869501948E-1,-3.738996029E0,1.634779930E0
7.729198580E-1,8.820634484E-1,-3.825736284E0,1.673874259E0
7.753768890E-1,8.747332692E-1,-3.925915241E0,1.710525036E0
7.778336600E-1,8.649597168E-1,-4.033424377E0,1.745954156E0
7.802905350E-1,8.576295376E-1,-4.150707245E0,1.777718186E0
7.827476700E-1,8.502993584E-1,-4.267989635E0,1.811925650E0
7.852081910E-1,8.393041492E-1,-4.388937473E0,1.847354770E0
7.876633470E-1,8.283088803E-1,-4.506220341E0,1.882784009E0
7.901208990E-1,8.136485219E-1,-4.616172791E0,1.920656443E0
7.925767850E-1,7.892146707E-1,-4.722460270E0,1.959750772E0
7.950354830E-1,7.598940134E-1,-4.823860645E0,1.997623205E0
7.974910560E-1,7.195780873E-1,-4.921596527E0,2.035495758E0
7.999482430E-1,6.670452356E-1,-5.015666962E0,2.072146654E0
8.024051180E-1,6.047387719E-1,-5.115845680E0,2.106353998E0
8.048622020E-1,5.277720094E-1,-5.205029488E0,2.138118029E0
8.073187640E-1,4.508052766E-1,-5.283217907E0,2.167438745E0
8.097757950E-1,3.665083647E-1,-5.351633072E0,2.194316149E0
8.122335040E-1,2.773246467E-1,-5.415161133E0,2.217528343E0
8.146890770E-1,1.856975704E-1,-5.470137119E0,2.235853672E0
8.171460560E-1,9.162709117E-2,-5.505566120E0,2.249292374E0
8.196055350E-1,-2.443389036E-3,-5.531221867E0,2.260287523E0
8.220604830E-1,-9.529217333E-2,-5.539773941E0,2.272504568E0
8.245026180E-1,-1.856975704E-1,-5.527556896E0,2.284721375E0
8.269738160E-1,-2.699944973E-1,-5.498236179E0,2.299381733E0
8.294316810E-1,-3.445178568E-1,-5.439594746E0,2.315263748E0
8.318874620E-1,-4.056025743E-1,-5.355298042E0,2.336032629E0
8.343441290E-1,-4.495835900E-1,-5.246567249E0,2.358023167E0
8.368016290E-1,-4.727957845E-1,-5.125619411E0,2.386121988E0
8.392583470E-1,-4.776825607E-1,-4.997341633E0,2.417886257E0
8.417151180E-1,-4.618005157E-1,-4.861733437E0,2.455758810E0
8.441724100E-1,-4.251496792E-1,-4.734677315E0,2.496074677E0
8.466290770E-1,-3.701734245E-1,-4.619837761E0,2.536390543E0
8.490856390E-1,-2.993151546E-1,-4.524545670E0,2.576706409E0
8.515425140E-1,-2.101314515E-1,-4.448800564E0,2.615800619E0
8.539993890E-1,-1.062874198E-1,-4.398711205E0,2.651229858E0
8.564565770E-1,1.099525020E-2,-4.366947174E0,2.682993889E0
8.589128270E-1,1.392731816E-1,-4.354730129E0,2.704984426E0
8.613677740E-1,2.761029601E-1,-4.364503860E0,2.722088099E0
8.638255350E-1,4.263713956E-1,-4.396267891E0,2.730639935E0
8.662814720E-1,5.803049207E-1,-4.452465534E0,2.735526800E0
8.687383990E-1,7.452336550E-1,-4.512328625E0,2.733083248E0
8.711952740E-1,9.174925685E-1,-4.572191715E0,2.726974964E0
8.736524620E-1,1.095860004E0,-4.647936821E0,2.718423128E0
8.761088680E-1,1.275449038E0,-4.738342285E0,2.708649397E0
8.785665770E-1,1.457634330E0,-4.820195675E0,2.691545725E0
8.810230350E-1,1.637223363E0,-4.892275810E0,2.674442053E0
8.834794930E-1,1.816812515E0,-4.958247185E0,2.659781694E0
8.859365770E-1,1.987849712E0,-5.021775246E0,2.645121336E0
8.883931390E-1,2.154000044E0,-5.077973366E0,2.634126186E0
8.908501180E-1,2.317707300E0,-5.124397755E0,2.632904291E0
8.933071490E-1,2.476527452E0,-5.157383442E0,2.639012814E0
8.957638680E-1,2.625574112E0,-5.184260845E0,2.651229858E0
8.982210040E-1,2.766069174E0,-5.207472801E0,2.671998739E0
9.006778790E-1,2.895568609E0,-5.218468189E0,2.697654247E0
9.031344930E-1,3.018959761E0,-5.227019787E0,2.729418278E0
9.055917330E-1,3.135020733E0,-5.213581562E0,2.766069174E0
9.080486600E-1,3.237643242E0,-5.181817532E0,2.805163383E0
9.105052220E-1,3.334156990E0,-5.123176098E0,2.843035936E0
9.129624620E-1,3.428227425E0,-5.044987679E0,2.882130146E0
9.154189720E-1,3.510081053E0,-4.946030140E0,2.918780804E0
9.178759520E-1,3.587047815E0,-4.827526093E0,2.954210043E0
9.203333990E-1,3.657906055E0,-4.693139553E0,2.987195730E0
9.227899100E-1,3.716547489E0,-4.553866386E0,3.031176805E0
9.252464200E-1,3.756863356E0,-4.426810265E0,3.080044508E0
9.277032430E-1,3.784962416E0,-4.297310352E0,3.128912449E0
9.301603790E-1,3.804509401E0,-4.175140858E0,3.180223465E0
9.326170450E-1,3.813061237E0,-4.062745094E0,3.235199690E0
9.350741810E-1,3.814282894E0,-3.960122824E0,3.279180765E0
9.375307950E-1,3.814282894E0,-3.855057001E0,3.307279825E0
9.399876700E-1,3.805731058E0,-3.754878044E0,3.323161840E0
9.424447020E-1,3.786184072E0,-3.664472818E0,3.325605154E0
9.449019930E-1,3.766636848E0,-3.563071966E0,3.302392960E0
9.473586600E-1,3.739759684E0,-3.457853556E0,3.260855436E0
9.498153270E-1,3.692113638E0,-3.357674599E0,3.203435659E0
9.522726700E-1,3.640802383E0,-3.248943806E0,3.127690792E0
9.547293890E-1,3.576052666E0,-3.142656326E0,3.051945686E0
9.571864720E-1,3.492977381E0,-3.030260563E0,2.989639282E0
9.596431910E-1,3.412345409E0,-2.922751427E0,2.926110983E0
9.621193890E-1,3.337822199E0,-2.803025246E0,2.855252743E0
9.645573060E-1,3.260855436E0,-2.678412437E0,2.781951189E0
9.670143890E-1,2.854031086E0,-2.201951742E0,2.715979576E0
9.694702220E-1,2.599918604E0,-2.132315159E0,2.670776844E0
9.719273060E-1,2.599918604E0,-2.104216099E0,2.629239321E0
9.744072540E-1,2.597475290E0,-2.056570053E0,2.565711260E0
9.768407950E-1,2.579149723E0,-1.983268380E0,2.493631124E0
9.792986080E-1,2.417886257E0,-1.831778169E0,2.425216436E0
9.817545450E-1,2.397117376E0,-1.886754513E0,2.343362808E0
9.842126700E-1,2.398339033E0,-1.883089423E0,2.248070717E0
9.866683990E-1,2.382457018E0,-1.891641259E0,2.144226551E0
9.891258470E-1,2.371461868E0,-1.909966707E0,2.035495758E0
9.915823580E-1,2.397117376E0,-1.946617484E0,1.912104607E0
9.940423580E-1,2.431324720E0,-1.945395827E0,1.777718186E0
9.965027740E-1,2.470418930E0,-1.944174170E0,1.627449751E0
9.989562120E-1,2.520508528E0,-1.929513812E0,1.469851255E0
1.001409702E0,2.574263096E0,-1.946617484E0,1.313321590E0
1.003867618E0,2.640234470E0,-1.982046604E0,1.156944752E0
1.006323452E0,2.715979576E0,-2.037022829E0,9.969027042E-1
1.008780691E0,2.791724682E0,-2.076117039E0,8.429692388E-1
1.011237670E0,2.858917952E0,-2.107881069E0,6.914790869E-1
1.013694649E0,2.907785654E0,-2.128649950E0,5.485408306E-1
1.016150691E0,2.937106371E0,-2.157970667E0,4.104893506E-1
1.018607722E0,2.957875252E0,-2.199508190E0,2.797680497E-1
1.021065170E0,2.965205193E0,-2.261814594E0,1.588202864E-1
1.023521264E0,2.959096909E0,-2.320456028E0,3.909422457E-2
1.025978347E0,2.943214893E0,-2.375432253E0,-7.330167294E-2
1.028435743E0,2.917559147E0,-2.410861492E0,-1.771457046E-1
1.030892670E0,2.879686594E0,-2.437738657E0,-2.699944973E-1
1.033350014E0,2.825932026E0,-2.453620672E0,-3.518480062E-1
1.035806837E0,2.761182308E0,-2.456064224E0,-4.227063060E-1
1.038263399E0,2.682993889E0,-2.445068836E0,-4.813476503E-1
1.040719962E0,2.587701797E0,-2.423078299E0,-5.228852630E-1
1.043176524E0,2.480192661E0,-2.388870955E0,-5.473191738E-1
1.045633556E0,2.361688137E0,-2.360771894E0,-5.522059202E-1
1.048090274E0,2.233410358E0,-2.308238983E0,-5.399889946E-1
1.050547358E0,2.091693640E0,-2.162857533E0,-5.094466209E-1
1.052958139E0,1.932873487E0,-1.947839141E0,-4.581354558E-1
1.055415274E0,1.755727768E0,-1.715717196E0,-3.946073353E-1
1.057918972E0,1.555369854E0,-1.520246148E0,-3.371876776E-1
1.060375066E0,1.329356313E0,-1.373642802E0,-2.932066917E-1
1.062831681E0,1.097081661E0,-1.275907159E0,-2.651077211E-1
1.065288660E0,8.588512540E-1,-1.212379098E0,-2.516690791E-1
1.067746004E0,6.255075932E-1,-1.157402873E0,-2.528907657E-1
1.070202931E0,4.092676640E-1,-1.095096469E0,-2.761029601E-1
1.072659077E0,2.162399292E-1,-1.026681542E0,-3.176405728E-1
1.075116108E0,4.275930673E-2,-9.533798695E-1,-3.701734245E-1
1.077573087E0,-1.026223376E-1,-8.812998533E-1,-4.324798584E-1
1.080029858E0,-2.296785712E-1,-8.067765236E-1,-4.960079789E-1
1.082487514E0,-3.347443044E-1,-7.322531343E-1,-5.570927262E-1
1.084944337E0,-4.178195298E-1,-6.638382673E-1,-6.132906675E-1
1.087401108E0,-4.825693369E-1,-6.003101468E-1,-6.633801460E-1
1.089874649E0,-5.216635466E-1,-5.306735635E-1,-7.061394453E-1
1.092314910E0,-5.424323678E-1,-4.537068009E-1,-7.415685654E-1
1.094771264E0,-5.473191738E-1,-3.791834414E-1,-7.745543122E-1
1.097228035E0,-5.448757410E-1,-3.144336343E-1,-8.002098799E-1
1.099684806E0,-5.326588154E-1,-2.545706034E-1,-8.197570443E-1
1.102142045E0,-5.131117105E-1,-1.983726472E-1,-8.258655071E-1
1.104627879E0,-4.886777997E-1,-1.372879148E-1,-8.258655071E-1
1.107055847E0,-4.581354558E-1,-7.742489129E-2,-8.258655071E-1
1.109512514E0,-4.263713956E-1,-2.489202656E-2,-8.209787011E-1
1.111969806E0,-3.994941115E-1,2.519745007E-2,-8.087617755E-1
1.114426837E0,-3.750602305E-1,7.162184268E-2,-7.892146707E-1
1.116883347E0,-3.555130959E-1,1.192679256E-1,-7.611156702E-1
1.119339754E0,-3.408527672E-1,1.730224788E-1,-7.281299233E-1
1.121796785E0,-3.286358118E-1,2.304421216E-1,-6.853706241E-1
1.124253556E0,-3.225273490E-1,2.829749882E-1,-6.352811456E-1
1.126732149E0,-3.176405728E-1,3.379512429E-1,-5.827482939E-1
1.129167410E0,-3.090887070E-1,3.843756318E-1,-5.253286362E-1
1.131646212E0,-2.956500649E-1,4.271349311E-1,-4.703523815E-1
1.134105691E0,-2.846548259E-1,4.601207078E-1,-4.190412164E-1
1.136560222E0,-2.626643181E-1,4.796678126E-1,-3.750602305E-1
1.138994858E0,-2.370087355E-1,4.894413650E-1,-3.310792148E-1
1.141473608E0,-2.052446753E-1,4.845545888E-1,-2.895416021E-1
1.143908816E0,-1.673721522E-1,4.735593498E-1,-2.480039895E-1
1.146388452E0,-1.270562261E-1,4.674508572E-1,-2.089097649E-1
1.148847202E0,-8.307522535E-2,4.650074840E-1,-1.698155403E-1
1.151300952E0,-3.909422457E-2,4.662291706E-1,-1.356080920E-1
1.153736108E0,3.665083554E-3,4.772244096E-1,-1.026223376E-1
1.156193660E0,3.665083647E-2,5.004366040E-1,-8.063183725E-2
1.158649806E0,6.719319522E-2,5.114318728E-1,-6.230641901E-2
1.161129441E0,8.429691941E-2,4.943281412E-1,-4.398100078E-2
1.163563972E0,9.529217333E-2,4.344651103E-1,-2.443389036E-2
1.166043660E0,9.284878522E-2,3.416163325E-1,-1.221694518E-3
1.168501056E0,8.674030751E-2,2.267770469E-1,2.443389036E-2
1.170969024E0,8.185353130E-2,1.143811494E-1,5.864133686E-2
1.173393295E0,7.452336699E-2,2.764083818E-2,9.529217333E-2
1.175850847E0,6.719319522E-2,-2.733541466E-2,1.356080920E-1
1.178307410E0,6.230641901E-2,-4.932591692E-2,1.795890927E-1
1.180787358E0,6.108472496E-2,-4.810422286E-2,2.247917950E-1
1.183220743E0,5.741964281E-2,-3.100049868E-2,2.651077211E-1
1.185700691E0,5.619794875E-2,6.872031838E-3,3.005368412E-1
1.188134233E0,5.619794875E-2,5.818320066E-2,3.359659910E-1
1.190614493E0,5.497625470E-2,9.849911928E-2,3.640649617E-1
1.193070795E0,5.253286287E-2,1.046075895E-1,3.811686933E-1
1.195506577E0,4.886778072E-2,8.139539510E-2,3.933856487E-1
1.197964754E0,4.642439261E-2,6.062658876E-2,4.019374847E-1
1.200457931E0,4.642439261E-2,8.750387281E-2,4.068242610E-1
1.202900431E0,4.520269856E-2,1.754658818E-1,3.982724249E-1
1.205333556E0,4.153761268E-2,3.074088693E-1,3.848337829E-1
1.207816733E0,3.420744836E-2,4.405735731E-1,3.677300513E-1
1.210246629E0,1.832541823E-2,5.554128885E-1,3.396310806E-1
1.212703764E0,2.443389036E-3,6.201626658E-1,3.005368412E-1
1.215184389E0,-1.832541823E-2,6.226060390E-1,2.553341687E-1
1.217617931E0,-5.253286287E-2,5.578562617E-1,2.089097649E-1
1.220097149E0,-8.918370306E-2,4.430169761E-1,1.722589284E-1
1.222555170E0,-1.246128380E-1,3.025220931E-1,1.429382563E-1
1.225012097E0,-1.478250325E-1,1.669140160E-1,1.221694499E-1
1.227445431E0,-1.551551968E-1,5.818320066E-2,1.099525094E-1
1.229921785E0,-1.478250325E-1,-1.267508045E-2,1.087308154E-1
1.232357670E0,-1.307213157E-1,-5.176930502E-2,1.099525094E-1
1.234813347E0,-1.001789495E-1,-6.398624927E-2,1.160609797E-1
1.237270327E0,-5.741964281E-2,-2.855710872E-2,1.172826737E-1
1.239726889E0,-1.221694518E-3,8.139539510E-2,1.148392856E-1
1.242184077E0,6.352811307E-2,2.658712566E-1,1.111742035E-1
1.244640795E0,1.331647038E-1,4.808894992E-1,1.087308154E-1
1.247097722E0,1.954711229E-1,6.629219651E-1,1.111742035E-1
1.249525222E0,2.516690791E-1,7.802046537E-1,1.172826737E-1
1.251966108E0,2.883199155E-1,8.192988634E-1,1.258345395E-1
1.254450535E0,3.127537966E-1,7.997517586E-1,1.307213157E-1
1.256884597E0,3.139754832E-1,7.545490861E-1,1.233911440E-1
1.259386160E0,3.054236174E-1,7.081246972E-1,1.123958975E-1
1.261841577E0,2.895416021E-1,6.800256968E-1,9.895725548E-2
1.264298556E0,2.687727809E-1,6.763606071E-1,8.185353130E-2
1.266755274E0,2.431172132E-1,6.922426820E-1,6.841489673E-2
1.269213347E0,1.991362125E-1,6.922426820E-1,6.108472496E-2
1.271670118E0,1.478250325E-1,6.140542030E-1,6.597150117E-2
1.274127254E0,8.551861346E-2,4.698942602E-1,7.330167294E-2
1.276581681E0,1.588202827E-2,3.196258247E-1,8.307522535E-2
1.279039441E0,-4.642439261E-2,2.108950168E-1,9.407047927E-2
1.281494285E0,-1.014006436E-1,1.669140160E-1,1.075091213E-1
1.283950952E0,-1.539335102E-1,1.669140160E-1,1.258345395E-1
1.286407722E0,-2.052446753E-1,1.852394342E-1,1.551551968E-1
1.288864858E0,-2.528907657E-1,1.937913001E-1,1.918060333E-1
1.291321733E0,-2.993151546E-1,1.913478971E-1,2.284568697E-1
1.293778816E0,-3.457395434E-1,2.133384049E-1,2.663294077E-1
1.296235274E0,-3.921639323E-1,2.622061968E-1,2.980934680E-1
1.298692462E0,-4.361449480E-1,3.501681983E-1,3.274141252E-1
1.301149233E0,-4.911212027E-1,4.674508572E-1,3.567348123E-1
1.303606264E0,-5.131117105E-1,5.163186193E-1,3.665083647E-1
1.306063347E0,-5.363239050E-1,5.517477989E-1,3.762819171E-1
1.308519858E0,-5.851916671E-1,5.749599934E-1,3.860554695E-1
1.310976733E0,-6.096255779E-1,5.224271417E-1,3.848337829E-1
1.313433452E0,-6.548282504E-1,5.126535892E-1,3.860554695E-1
1.315890170E0,-6.780404449E-1,4.955498278E-1,3.775036037E-1
1.318347149E0,-7.146912813E-1,5.517477989E-1,3.787252903E-1
1.320804129E0,-7.415685654E-1,5.639647245E-1,3.750602305E-1
1.323262879E0,-7.769976854E-1,5.444176197E-1,3.811686933E-1
1.325717774E0,-7.928797603E-1,4.601207078E-1,3.750602305E-1
1.328175274E0,-8.075400591E-1,4.014793634E-1,3.652866483E-1
1.330631524E0,-8.185353279E-1,3.965925872E-1,3.396310806E-1
1.333088191E0,-8.148702383E-1,4.222481549E-1,3.054236174E-1
1.335546837E0,-8.295305967E-1,5.138752460E-1,2.736595869E-1
1.338002774E0,-8.368607163E-1,6.006155610E-1,2.394521236E-1
1.340459285E0,-8.625163436E-1,6.995728016E-1,2.113531530E-1
1.342917358E0,-9.089407325E-1,7.667660117E-1,1.893626451E-1
1.345372879E0,-9.663603902E-1,7.264500856E-1,1.637070626E-1
1.347829910E0,-1.037218690E0,6.482616663E-1,1.417165697E-1
1.350286681E0,-1.128845692E0,6.006155610E-1,1.197260618E-1
1.352744024E0,-1.235133171E0,5.725166202E-1,9.162709117E-2
1.355201420E0,-1.351194143E0,5.212054253E-1,5.864133686E-2
1.357657254E0,-1.474585295E0,4.772244096E-1,2.443389036E-2
1.360114285E0,-1.604084849E0,4.442386627E-1,-1.343864016E-2
1.362571004E0,-1.749466538E0,4.234698713E-1,-5.497625470E-2
1.365027827E0,-1.899734974E0,3.855973184E-1,-9.651386738E-2
1.367485535E0,-2.053668499E0,3.513898849E-1,-1.441599578E-1
1.369944858E0,-2.210045338E0,3.245126009E-1,-1.930277348E-1
1.372400170E0,-2.356648684E0,2.915268540E-1,-2.406738251E-1
1.374856837E0,-2.489813328E0,2.658712566E-1,-2.883199155E-1
1.377313660E0,-2.608317852E0,2.609844804E-1,-3.359659910E-1
1.379770483E0,-2.708496809E0,2.560977042E-1,-3.872771561E-1
1.382227514E0,-2.794015408E0,2.206685692E-1,-4.214846194E-1
1.384684597E0,-2.863651991E0,1.779092699E-1,-4.337015450E-1
1.387141316E0,-2.911298037E0,1.546970755E-1,-4.324798584E-1
1.389598452E0,-2.940618753E0,1.449235082E-1,-4.337015450E-1
1.392055327E0,-2.938175201E0,1.412584335E-1,-4.275930822E-1
1.394512774E0,-2.907633066E0,1.461452097E-1,-3.970507085E-1
1.396927462E0,-2.846548319E0,1.681357026E-1,-3.408527672E-1
1.399425587E0,-2.765916348E0,2.218902707E-1,-2.797680497E-1
1.401883243E0,-2.670624256E0,3.330644667E-1,-2.260134816E-1
1.404340639E0,-2.564336777E0,4.564556181E-1,-1.759240031E-1
1.406799389E0,-2.449497461E0,5.627430081E-1,-1.233911440E-1
1.409254337E0,-2.333436489E0,6.507050395E-1,-6.352811307E-2
1.411711785E0,-2.211266994E0,7.631009221E-1,8.551862091E-3
1.414168243E0,-2.093984365E0,9.145910740E-1,8.185353130E-2
1.416625066E0,-1.984031916E0,1.094180107E0,1.368297935E-1
1.419080952E0,-1.872857690E0,1.283542752E0,1.856975704E-1
1.421538920E0,-1.765348554E0,1.430146098E0,2.370087355E-1
1.423995379E0,-1.671278119E0,1.493674278E0,3.066453338E-1
1.426452358E0,-1.591867924E0,1.507112861E0,3.775036037E-1
1.428908920E0,-1.525896430E0,1.466796994E0,4.300364852E-1
1.431369545E0,-1.463590026E0,1.386165142E0,4.801259339E-1
1.433841733E0,-1.403727055E0,1.292094707E0,5.277720094E-1
1.436279910E0,-1.349972486E0,1.202911019E0,5.754181147E-1
1.438741785E0,-1.308434844E0,1.149156451E0,6.169557571E-1
1.441149962E0,-1.279114127E0,1.118614078E0,6.523848772E-1
1.443650170E0,-1.270562291E0,1.079519868E0,6.914790869E-1
1.446107254E0,-1.286444306E0,1.025765300E0,7.293516397E-1
1.448566160E0,-1.319430113E0,9.927794933E-1,7.721109390E-1
1.451021004E0,-1.369519591E0,9.817842841E-1,7.977665067E-1
1.453477931E0,-1.424495816E0,9.500201941E-1,7.941014171E-1
1.455934962E0,-1.478250384E0,8.913788795E-1,7.696675658E-1
1.458391993E0,-1.539335132E0,8.510629535E-1,7.464553714E-1
1.460848452E0,-1.606528282E0,8.816053271E-1,7.379034758E-1
1.463305743E0,-1.698155403E0,9.793408513E-1,7.379034758E-1
1.465762827E0,-1.820324779E0,1.118614078E0,7.501204610E-1
1.468219233E0,-1.953489542E0,1.255443811E0,7.660024762E-1
1.470677149E0,-2.078102350E0,1.342184186E0,7.708892226E-1
1.473133972E0,-2.184389830E0,1.405712247E0,7.660024762E-1
1.475589806E0,-2.276016951E0,1.466796994E0,7.623373866E-1
1.478047358E0,-2.361535549E0,1.519329786E0,7.647807598E-1
1.480522045E0,-2.440945625E0,1.562089205E0,7.623373866E-1
1.482960483E0,-2.510582209E0,1.625617266E0,7.525638342E-1
1.485415327E0,-2.569223642E0,1.701362371E0,7.342383862E-1
1.487872149E0,-2.611982822E0,1.731904745E0,7.098045349E-1
1.490329129E0,-2.640081882E0,1.656159639E0,6.817055345E-1
1.492785431E0,-2.646190405E0,1.509556293E0,6.548282504E-1
1.495243347E0,-2.638860226E0,1.348292589E0,6.120689511E-1
1.497699337E0,-2.631530046E0,1.216349602E0,5.375455618E-1
1.500156264E0,-2.619313002E0,1.211462855E0,4.544703662E-1
1.502613191E0,-2.611982822E0,1.288429618E0,3.897205591E-1
1.505070222E0,-2.596100807E0,1.515664816E0,3.848337829E-1
1.507527879E0,-2.554563284E0,1.855295897E0,4.520269632E-1
1.509983660E0,-2.516690731E0,2.028929234E0,5.351021886E-1
1.512440639E0,-2.480039835E0,2.112004280E0,6.242858768E-1
1.514898295E0,-2.449497461E0,2.261051178E0,7.000309825E-1
1.517355379E0,-2.415290117E0,2.498059750E0,7.672241330E-1
1.519811629E0,-2.390856266E0,2.754615784E0,8.417475224E-1
1.522268243E0,-2.383526087E0,2.968412161E0,9.187142849E-1
1.524725014E0,-2.400629759E0,3.095468521E0,9.907942414E-1
1.527182097E0,-2.423841953E0,3.064926147E0,1.040883780E0
1.529638816E0,-2.454384327E0,2.903662443E0,1.061652541E0
1.532095847E0,-2.482483149E0,2.794931650E0,1.048213840E0
1.534553399E0,-2.489813328E0,2.853573084E0,1.011563063E0
1.537010066E0,-2.487370014E0,3.024610281E0,9.590302110E-1
1.539466472E0,-2.473931313E0,3.183430433E0,9.016105533E-1
1.541924285E0,-2.456827641E0,3.253067017E0,8.405258060E-1
1.544380431E0,-2.444610834E0,3.204199314E0,7.745543122E-1
1.546836993E0,-2.466601133E0,2.952530146E0,6.694886088E-1
1.549294337E0,-2.587548971E0,2.513942003E0,5.143333673E-1
1.551750587E0,-2.759807825E0,2.101009130E0,3.298575282E-1
1.554207670E0,-2.925958395E0,1.746564984E0,1.319430023E-1
1.556665483E0,-3.061566353E0,1.437476277E0,-5.864133686E-2
1.559121785E0,-3.151971817E0,1.158929944E0,-2.260134816E-1
1.561578295E0,-3.206948042E0,8.926005363E-1,-3.652866483E-1
1.564035899E0,-3.225273609E0,7.117897868E-1,-4.605788291E-1
1.566492045E0,-3.216721773E0,6.873558760E-1,-5.008947253E-1
1.568903087E0,-3.211834908E0,8.437327743E-1,-4.764608741E-1
1.571360327E0,-3.219165087E0,1.112505555E0,-3.909422457E-1
1.573864337E0,-3.260702610E0,1.427702785E0,-2.602209449E-1
1.576323243E0,-3.340112925E0,1.708692551E0,-1.148392856E-1
1.578779181E0,-3.447621822E0,1.922641754E0,2.809897438E-2
1.581257410E0,-3.571012974E0,2.061914921E0,1.404948682E-1
1.583691160E0,-3.698069334E0,2.153542042E0,2.040229887E-1
1.586147774E0,-3.821460485E0,2.247612476E0,2.223484069E-1
1.588603920E0,-3.916752577E0,2.323357582E0,1.979145110E-1
1.591060743E0,-3.988832712E0,2.364895105E0,1.404948682E-1
1.593519024E0,-4.042739868E0,2.412541151E0,5.986303091E-2
1.595977306E0,-4.079390526E0,2.480956078E0,-2.809897438E-2
1.598431733E0,-4.106267929E0,2.511498451E0,-1.233911440E-1
1.600890899E0,-4.112376690E0,2.505389929E0,-2.186833173E-1
1.603348035E0,-4.119706631E0,2.501724958E0,-3.042019308E-1
1.605821681E0,-4.090385914E0,2.461409092E0,-3.799470067E-1
1.608263608E0,-4.024414539E0,2.394215822E0,-4.471401870E-1
1.610716889E0,-3.924082756E0,2.285485029E0,-5.008947253E-1
1.613172827E0,-3.803134918E0,2.181641102E0,-5.351021886E-1
1.615629597E0,-3.671191931E0,2.065579891E0,-5.595360994E-1
1.618086472E0,-3.536805630E0,1.899429560E0,-5.717530251E-1
1.620543712E0,-3.391423941E0,1.679371834E0,-5.644228458E-1
1.623000535E0,-3.242377281E0,1.475348830E0,-5.314370990E-1
1.625457410E0,-3.089665413E0,1.348292589E0,-4.740174711E-1
1.627914077E0,-2.925958395E0,1.276212692E0,-3.958290219E-1
1.630371629E0,-2.769581556E0,1.234675050E0,-2.956500649E-1
1.632828035E0,-2.610761166E0,1.176033735E0,-1.832541823E-1
1.635285170E0,-2.444610834E0,1.124722481E0,-5.131116882E-2
1.637741733E0,-2.305337667E0,1.157708287E0,8.429691941E-2
1.640200066E0,-2.190498352E0,1.281099439E0,2.101314515E-1
1.642657722E0,-2.108644724E0,1.454580069E0,3.176405728E-1
1.645066524E0,-2.047559977E0,1.648829460E0,3.982724249E-1
1.647523295E0,-2.014574289E0,1.824753523E0,4.556920528E-1
1.650028556E0,-1.998692274E0,1.920198321E0,4.837910235E-1
1.652485899E0,-1.981588483E0,1.806428075E0,4.679090083E-1
1.654960431E0,-1.943715930E0,1.537655234E0,4.165978432E-1
1.657399129E0,-1.889961362E0,1.162595034E0,3.384093940E-1
1.659855587E0,-1.822768211E0,7.667660117E-1,2.321219593E-1
1.662311264E0,-1.745801449E0,4.381301999E-1,1.099525094E-1
1.664767358E0,-1.677386522E0,2.560977042E-1,-1.343864016E-2
1.667224337E0,-1.596754789E0,5.329642445E-2,-1.233911440E-1
1.669682254E0,-1.535670042E0,-2.863346636E-1,-2.052446753E-1
1.672137983E0,-1.492910743E0,-5.147915483E-1,-2.541124523E-1
1.674595431E0,-1.468476772E0,-4.732539058E-1,-2.822114229E-1
1.677052410E0,-1.462368369E0,-1.885990947E-1,-2.932066917E-1
1.679508816E0,-1.466033459E0,1.815743446E-1,-2.834331393E-1
1.681991004E0,-1.489245653E0,5.089884996E-1,-2.528907657E-1
1.684422410E0,-1.521009684E0,7.838697433E-1,-2.040229887E-1
1.686879962E0,-1.562547326E0,9.842276573E-1,-1.478250325E-1
1.689336160E0,-1.611415029E0,1.119835734E0,-9.040539712E-2
1.691792983E0,-1.667613029E0,1.207797766E0,-2.932066843E-2
1.694249806E0,-1.723810911E0,1.274990916E0,3.298575059E-2
1.696706993E0,-1.793447495E0,1.336075664E0,9.040539712E-2
1.699163504E0,-1.864305854E0,1.408155680E0,1.417165697E-1
1.701621160E0,-1.930277348E0,1.458245158E0,1.795890927E-1
1.704078035E0,-1.996248841E0,1.474127173E0,1.954711229E-1
1.706561004E0,-2.071993828E0,1.472905397E0,1.905843467E-1
1.708991420E0,-2.129413605E0,1.485122442E0,1.747023165E-1
1.711447983E0,-2.155069113E0,1.525438309E0,1.563768983E-1
1.713904962E0,-2.166064262E0,1.558424115E0,1.258345395E-1
1.716361889E0,-2.147738934E0,1.582857966E0,8.918370306E-2
1.718818764E0,-2.119639874E0,1.604848504E0,4.886778072E-2
1.721275795E0,-2.076880693E0,1.620730519E0,1.099525020E-2
1.723732410E0,-2.015795946E0,1.620730519E0,-3.176405653E-2
1.726189910E0,-1.951046109E0,1.620730519E0,-7.696675509E-2
1.728646420E0,-1.887518048E0,1.593853235E0,-1.429382563E-1
1.731103608E0,-1.830098391E0,1.560867429E0,-2.345653474E-1
1.733560170E0,-1.770235300E0,1.507112861E0,-3.408527672E-1
1.736017306E0,-1.717702508E0,1.435032964E0,-4.459185004E-1
1.738473972E0,-1.671278119E0,1.364174604E0,-5.424323678E-1
1.740931889E0,-1.630962133E0,1.325080395E0,-6.181774139E-1
1.743387410E0,-1.584537745E0,1.299424887E0,-6.707102656E-1
1.745845274E0,-1.541778445E0,1.300646544E0,-6.902574301E-1
1.748301160E0,-1.508792758E0,1.307976723E0,-6.841489077E-1
1.750757774E0,-1.485580564E0,1.322637081E0,-6.658235192E-1
1.753214858E0,-1.472141862E0,1.327523828E0,-6.523848772E-1
1.755672045E0,-1.475806952E0,1.322637081E0,-6.584933400E-1
1.758130118E0,-1.497797489E0,1.294538021E0,-6.951441765E-1
1.760585639E0,-1.539335132E0,1.260330558E0,-7.562289238E-1
1.763042983E0,-1.591867924E0,1.234675050E0,-8.307522535E-1
1.765499858E0,-1.643179178E0,1.205354333E0,-9.126058221E-1
1.767956316E0,-1.695711970E0,1.178477049E0,-1.000567794E0
1.770413295E0,-1.751909971E0,1.136939406E0,-1.092194915E0
1.772870014E0,-1.808107853E0,1.083184958E0,-1.189930439E0
1.775326889E0,-1.866749167E0,1.023321867E0,-1.287665963E0
1.777784077E0,-1.921725512E0,9.573503733E-1,-1.390288353E0
1.780241160E0,-1.973036647E0,8.987090588E-1,-1.486802220E0
1.782721472E0,-2.009687424E0,8.473978639E-1,-1.574764252E0
1.785154337E0,-2.031677961E0,8.083036542E-1,-1.650509238E0
1.787612306E0,-2.041451454E0,7.863131166E-1,-1.716480851E0
1.790071785E0,-2.036564827E0,7.802046537E-1,-1.773900390E0
1.792527618E0,-2.026791096E0,7.789829373E-1,-1.821546555E0
1.794984649E0,-2.023126125E0,7.850914598E-1,-1.861862421E0
1.797441420E0,-2.014574289E0,7.887565494E-1,-1.893626451E0
1.799898243E0,-2.004800797E0,7.948650122E-1,-1.919282079E0
1.802358504E0,-1.991362095E0,7.997517586E-1,-1.942494273E0
1.804813087E0,-1.971814990E0,8.070819378E-1,-1.963263035E0
1.807286316E0,-1.948602796E0,8.168554902E-1,-1.986475229E0
1.809726941E0,-1.919282079E0,8.302941322E-1,-2.009687424E0
1.812179649E0,-1.886296391E0,8.461761475E-1,-2.030456305E0
1.814636993E0,-1.852088928E0,8.596147895E-1,-2.048781633E0
1.817093608E0,-1.816659689E0,8.767185211E-1,-2.062220335E0
1.819552879E0,-1.775122166E0,8.926005363E-1,-2.073215485E0
1.822011420E0,-1.734806180E0,9.084826112E-1,-2.069550514E0
1.824468035E0,-1.690825224E0,9.182561636E-1,-2.054890156E0
1.826925483E0,-1.638292313E0,9.329164624E-1,-2.023126125E0
1.829383087E0,-1.588202834E0,9.500201941E-1,-1.980366826E0
1.831854649E0,-1.540556788E0,9.634588361E-1,-1.937607527E0
1.834294493E0,-1.494132400E0,9.732323885E-1,-1.900956631E0
1.836751160E0,-1.448929667E0,9.854493141E-1,-1.866749167E0
1.839209024E0,-1.403727055E0,9.976662993E-1,-1.836206913E0
1.841617149E0,-1.362189412E0,1.007439852E0,-1.811772943E0
1.844074545E0,-1.324316859E0,1.023321867E0,-1.791004181E0
1.846557306E0,-1.290109396E0,1.042868972E0,-1.777565479E0
1.849035587E0,-1.262010455E0,1.063637733E0,-1.764126897E0
1.851491524E0,-1.237576604E0,1.081963181E0,-1.754353285E0
1.853949649E0,-1.220472813E0,1.101510286E0,-1.744579792E0
1.856406160E0,-1.207034230E0,1.113727212E0,-1.737249613E0
1.858863035E0,-1.205812454E0,1.117392302E0,-1.737249613E0
1.861320170E0,-1.210699320E0,1.119835734E0,-1.736027956E0
1.863778139E0,-1.220472813E0,1.135717750E0,-1.738471270E0
1.866234493E0,-1.235133171E0,1.150378108E0,-1.745801449E0
1.868690483E0,-1.254680276E0,1.149156451E0,-1.754353285E0
1.871147983E0,-1.279114127E0,1.140604496E0,-1.764126897E0
1.873604702E0,-1.303548098E0,1.124722481E0,-1.773900390E0
1.876062514E0,-1.335312128E0,1.107618809E0,-1.781230569E0
1.878517827E0,-1.370741248E0,1.089293361E0,-1.791004181E0
1.880973920E0,-1.406170368E0,1.057529330E0,-1.793447495E0
1.883431420E0,-1.447708011E0,1.017213345E0,-1.782452345E0
1.885887774E0,-1.496575832E0,9.634588361E-1,-1.767791986E0
1.888345327E0,-1.555217147E0,9.097042680E-1,-1.745801449E0
1.890802722E0,-1.610193372E0,8.632798791E-1,-1.721367598E0
1.893259389E0,-1.657839417E0,8.241856694E-1,-1.692046881E0
1.895715327E0,-1.706707239E0,7.826480269E-1,-1.657839417E0
1.898172358E0,-1.753131628E0,7.521057129E-1,-1.624853730E0
1.900630847E0,-1.800777674E0,7.203416228E-1,-1.585759521E0
1.903086577E0,-1.847202063E0,6.873558760E-1,-1.536891699E0
1.905544493E0,-1.896069884E0,6.507050395E-1,-1.486802220E0
1.908020952E0,-1.949824452E0,6.116108298E-1,-1.442821264E0
1.910455274E0,-2.007244110E0,5.627430081E-1,-1.407392025E0
1.912913087E0,-2.067107201E0,5.028799772E-1,-1.360967636E0
1.915369754E0,-2.133078575E0,4.576773047E-1,-1.292552829E0
1.917826004E0,-2.211266994E0,4.369085133E-1,-1.202147365E0
1.920285587E0,-2.300450802E0,4.002576768E-1,-1.106855273E0
1.922742931E0,-2.387191057E0,3.452814221E-1,-1.029888511E0
1.925199181E0,-2.476374865E0,2.817533016E-1,-9.846857786E-1
1.927655743E0,-2.566780090E0,2.451024652E-1,-9.602518678E-1
1.930113608E0,-2.664515734E0,2.170034945E-1,-9.517000318E-1
1.932569337E0,-2.759807825E0,1.950129867E-1,-9.504783154E-1
1.935026941E0,-2.862430334E0,1.730224788E-1,-9.590302110E-1
1.937483452E0,-2.965052605E0,1.571404636E-1,-9.712471366E-1
1.939940327E0,-3.065231562E0,1.351499557E-1,-9.822424054E-1
1.942397254E0,-3.161745310E0,1.094943732E-1,-9.907942414E-1
1.944855066E0,-3.257037640E0,8.383878320E-2,-9.932376146E-1
1.947311160E0,-3.348664761E0,5.940489471E-2,-9.944593310E-1
1.949767931E0,-3.432961702E0,3.741439432E-2,-1.001789451E0
1.952224806E0,-3.502598286E0,6.872031838E-3,-1.025001645E0
1.954681993E0,-3.557574511E0,-3.100049868E-2,-1.062874198E0
1.957138764E0,-3.600333691E0,-7.009471953E-2,-1.114185452E0
1.959598243E0,-3.636984587E0,-1.201841980E-1,-1.166718245E0
1.962072202E0,-3.668748617E0,-1.617218107E-1,-1.210699320E0
1.964510066E0,-3.687073946E0,-2.203631550E-1,-1.232689738E0
1.966965431E0,-3.685852289E0,-2.948864996E-1,-1.229024649E0
1.969422931E0,-3.669970274E0,-3.730749488E-1,-1.202147365E0
1.971879962E0,-3.643093109E0,-4.451549351E-1,-1.156944752E0
1.974288504E0,-3.608885527E0,-5.062396526E-1,-1.097081661E0
1.976793608E0,-3.573456526E0,-5.526640415E-1,-1.026223421E0
1.979249441E0,-3.534362316E0,-5.954233408E-1,-9.455915689E-1
1.981707306E0,-3.492824554E0,-6.271874309E-1,-8.551861644E-1
1.984163191E0,-3.447621822E0,-6.589514613E-1,-7.574505806E-1
1.986620274E0,-3.403640985E0,-6.870504618E-1,-6.523848772E-1
1.989077149E0,-3.352329731E0,-7.175928354E-1,-5.436540842E-1
1.991534077E0,-3.302240372E0,-7.420266867E-1,-4.349232614E-1
1.993990743E0,-3.246042252E0,-7.652388811E-1,-3.225273490E-1
1.996447410E0,-3.181292534E0,-7.860077024E-1,-2.137965411E-1
1.998903295E0,-3.109212637E0,-8.079982400E-1,-1.099525094E-1
2.001359910E0,-3.024915695E0,-8.238802552E-1,-1.466033421E-2
2.003817045E0,-2.929623365E0,-8.434273601E-1,6.841489673E-2
2.006273816E0,-2.827001095E0,-8.641961813E-1,1.368297935E-1
2.008749233E0,-2.713383436E0,-8.849649429E-1,1.979145110E-1
2.011187358E0,-2.593657494E0,-9.057337642E-1,2.480039895E-1
2.013644389E0,-2.466601133E0,-9.252808690E-1,2.858765125E-1
2.016101108E0,-2.335879803E0,-9.399412274E-1,3.115321100E-1
2.018558243E0,-2.196606636E0,-9.497147799E-1,3.274141252E-1
2.021014754E0,-2.057333469E0,-9.460496902E-1,3.323009014E-1
2.023471993E0,-1.918060422E0,-9.301676750E-1,3.310792148E-1
2.025929337E0,-1.773900390E0,-9.020686746E-1,3.188622594E-1
2.028385587E0,-1.633405566E0,-8.580876589E-1,3.066453338E-1
2.030842879E0,-1.496575832E0,-8.067765236E-1,2.883199155E-1
2.033323139E0,-1.364632726E0,-7.408050299E-1,2.687727809E-1
2.035756316E0,-1.238798261E0,-6.711684465E-1,2.504473627E-1
2.038167202E0,-1.123958945E0,-5.905365944E-1,2.296785712E-1
2.040625431E0,-1.016449809E0,-5.037962794E-1,2.076880634E-1
2.043127306E0,-9.236010313E-1,-4.085040987E-1,1.930277348E-1
2.045584337E0,-8.368607163E-1,-3.107685447E-1,1.795890927E-1
2.048041316E0,-7.647807598E-1,-2.069245130E-1,1.710372269E-1
2.050498035E0,-7.012526393E-1,-1.030804738E-1,1.624853760E-1
2.052954754E0,-6.462764144E-1,-5.344913341E-3,1.600419879E-1
2.055411108E0,-6.022953987E-1,8.750387281E-2,1.637070626E-1
2.057868556E0,-5.656445622E-1,1.718007922E-1,1.722589284E-1
2.060325691E0,-5.363239050E-1,2.438807636E-1,1.844758689E-1
2.062782306E0,-5.131117105E-1,3.098522723E-1,1.966928244E-1
2.065239285E0,-5.045598149E-1,3.636068404E-1,2.137965411E-1
2.067696108E0,-4.996730685E-1,4.027010500E-1,2.296785712E-1
2.070152774E0,-5.021164417E-1,4.356867969E-1,2.406738251E-1
2.072609545E0,-5.143333673E-1,4.625640810E-1,2.516690791E-1
2.075066316E0,-5.302154422E-1,4.918847680E-1,2.565558553E-1
2.077523347E0,-5.497625470E-1,5.150969625E-1,2.516690791E-1
2.079980066E0,-5.705313683E-1,5.370874405E-1,2.418955117E-1
2.082437410E0,-5.937435627E-1,5.529694557E-1,2.235700935E-1
2.084894024E0,-6.157340407E-1,5.651864409E-1,2.015796006E-1
2.087351785E0,-6.401679516E-1,5.725166202E-1,1.722589284E-1
2.089807566E0,-6.658235192E-1,5.774033666E-1,1.368297935E-1
2.092264962E0,-6.951441765E-1,5.761816502E-1,1.001789495E-1
2.094707722E0,-7.269082665E-1,5.688515306E-1,5.986303091E-2
2.097132827E0,-7.635591030E-1,5.615213513E-1,1.832541823E-2
2.099637566E0,-8.050966859E-1,5.517477989E-1,-3.176405653E-2
2.102095327E0,-8.502993584E-1,5.383091569E-1,-7.696675509E-2
2.104552410E0,-8.991671801E-1,5.273138881E-1,-1.185043678E-1
2.107008712E0,-9.541434050E-1,5.114318728E-1,-1.539335102E-1
2.109482827E0,-1.005454540E0,4.918847680E-1,-1.844758689E-1
2.111919858E0,-1.061652541E0,4.552339315E-1,-2.064663768E-1
2.114376524E0,-1.111742020E0,3.758237660E-1,-2.235700935E-1
2.116833191E0,-1.147171140E0,2.487675399E-1,-2.370087355E-1
2.119295639E0,-1.166718245E0,7.895200700E-2,-2.467822880E-1
2.121704233E0,-1.167939901E0,-1.128540337E-1,-2.614426315E-1
2.124207254E0,-1.152057886E0,-3.156553209E-1,-2.736595869E-1
2.126666160E0,-1.119072199E0,-5.086830258E-1,-2.834331393E-1
2.129119597E0,-1.067761064E0,-6.894938350E-1,-2.895416021E-1
2.131576420E0,-1.014006495E0,-8.458707333E-1,-2.919849753E-1
2.134056316E0,-9.504783154E-1,-9.765920639E-1,-2.932066917E-1
2.136490899E0,-8.893936276E-1,-1.085322857E0,-2.919849753E-1
2.138946733E0,-8.344173431E-1,-1.172063231E0,-2.907632887E-1
2.141402774E0,-7.818844914E-1,-1.251473308E0,-2.883199155E-1
2.143858608E0,-7.305732965E-1,-1.323553324E0,-2.834331393E-1
2.146316108E0,-6.902574301E-1,-1.385859728E0,-2.797680497E-1
2.148772827E0,-6.560499668E-1,-1.448166132E0,-2.773246467E-1
2.151229649E0,-6.255075932E-1,-1.511694312E0,-2.699944973E-1
2.153686420E0,-6.084038615E-1,-1.571557283E0,-2.589992285E-1
2.156143660E0,-5.961869359E-1,-1.622868419E0,-2.443388999E-1
2.158600431E0,-5.888567567E-1,-1.661962628E0,-2.272351831E-1
2.161057774E0,-5.864133835E-1,-1.679066420E0,-2.101314515E-1
2.163514702E0,-5.888567567E-1,-1.677844763E0,-1.869192570E-1
2.165971993E0,-5.974085927E-1,-1.658297539E0,-1.514901221E-1
2.168428399E0,-6.108472347E-1,-1.626533508E0,-1.160609797E-1
2.170884962E0,-6.279509664E-1,-1.581330895E0,-7.818844914E-2
2.173341681E0,-6.462764144E-1,-1.522689462E0,-4.153761268E-2
2.175798504E0,-6.658235192E-1,-1.451831222E0,-1.099525020E-2
2.178255379E0,-6.853706241E-1,-1.362647533E0,1.954711229E-2
2.180712410E0,-7.085828185E-1,-1.277128935E0,4.398100078E-2
2.183169389E0,-7.281299233E-1,-1.191610336E0,6.108472496E-2
2.185626212E0,-7.476770282E-1,-1.110978484E0,7.452336699E-2
2.188082983E0,-7.660024762E-1,-1.042563558E0,8.551861346E-2
2.190539910E0,-7.855495811E-1,-9.790354371E-1,9.040539712E-2
2.192996993E0,-8.014315963E-1,-9.301676750E-1,9.407047927E-2
2.195453764E0,-8.099834919E-1,-8.935168386E-1,9.040539712E-2
2.197910431E0,-8.136485219E-1,-8.654178381E-1,8.429691941E-2
2.200367149E0,-8.087617755E-1,-8.348754644E-1,6.963659078E-2
2.202823920E0,-7.953231335E-1,-8.067765236E-1,4.886778072E-2
2.205288347E0,-7.733326554E-1,-7.615737915E-1,2.076880634E-2
2.207738816E0,-7.452336550E-1,-7.053758502E-1,-1.099525020E-2
2.210212722E0,-7.085828185E-1,-6.442911625E-1,-5.008947477E-2
2.212651733E0,-6.682668924E-1,-5.734328628E-1,-1.001789495E-1
2.215109129E0,-6.230642200E-1,-5.160132051E-1,-1.539335102E-1
2.217565535E0,-5.705313683E-1,-4.818057716E-1,-2.101314515E-1
2.220023243E0,-5.216635466E-1,-4.622586668E-1,-2.675510943E-1
2.222479754E0,-4.727957845E-1,-4.549284875E-1,-3.261924386E-1
2.224890379E0,-4.300364852E-1,-4.414898455E-1,-3.836120665E-1
2.227352827E0,-3.921639323E-1,-4.378247857E-1,-4.385883212E-1
2.229849806E0,-3.603998721E-1,-4.414898455E-1,-4.898995161E-1
2.232307149E0,-3.371876776E-1,-4.524851143E-1,-5.363239050E-1
2.234782410E0,-3.176405728E-1,-4.634803534E-1,-5.766398311E-1
2.237288347E0,-2.956500649E-1,-4.585935771E-1,-6.303943992E-1
2.239795899E0,-2.919849753E-1,-4.512633979E-1,-6.450546980E-1
2.242279962E0,-2.883199155E-1,-4.390464723E-1,-6.523848772E-1
2.244807879E0,-2.822114229E-1,-4.219427407E-1,-6.560499668E-1
2.247315535E0,-2.736595869E-1,-4.072824121E-1,-6.560499668E-1
2.249820691E0,-2.614426315E-1,-3.999522328E-1,-6.560499668E-1
2.252303504E0,-2.443388999E-1,-3.877353072E-1,-6.548282504E-1
2.254831160E0,-2.199050188E-1,-3.804051280E-1,-6.474980712E-1
2.257337670E0,-1.869192570E-1,-3.755183518E-1,-6.340594292E-1
2.259844806E0,-1.478250325E-1,-3.730749488E-1,-6.120689511E-1
2.262354493E0,-1.038440317E-1,-3.718532622E-1,-5.839699507E-1
2.264856108E0,-5.131116882E-2,-3.804051280E-1,-5.546492934E-1
2.267339337E0,2.443389036E-3,-3.865135908E-1,-5.253286362E-1
2.269869702E0,6.352811307E-2,-3.938437700E-1,-4.947862923E-1
2.272375899E0,1.246128380E-1,-3.962871730E-1,-4.630222321E-1
2.274884493E0,1.832541823E-1,-4.023956358E-1,-4.300364852E-1
2.277387931E0,2.455606014E-1,-4.060607255E-1,-3.958290219E-1
2.279869181E0,3.078670204E-1,-4.121691883E-1,-3.616215885E-1
2.282398764E0,3.677300513E-1,-4.170559645E-1,-3.274141252E-1
2.284905431E0,4.312581718E-1,-4.304946065E-1,-2.968717813E-1
2.287410795E0,4.923428893E-1,-4.353813827E-1,-2.724378705E-1
2.289923139E0,5.570927262E-1,-4.304946065E-1,-2.504473627E-1
2.292421472E0,6.206207871E-1,-4.231644273E-1,-2.333436459E-1
2.294934702E0,6.829272509E-1,-4.109475017E-1,-2.186833173E-1
2.297433087E0,7.452336550E-1,-3.987305462E-1,-2.089097649E-1
2.299917618E0,8.026533127E-1,-3.779617548E-1,-2.003578991E-1
2.302445847E0,8.515210748E-1,-3.547495604E-1,-1.930277348E-1
2.304930327E0,8.930587173E-1,-3.339807391E-1,-1.893626451E-1
2.307459337E0,9.345963001E-1,-3.168770075E-1,-1.881409585E-1
2.309987670E0,9.700254202E-1,-3.107685447E-1,-1.869192570E-1
2.312447045E0,1.000567794E0,-3.107685447E-1,-1.918060333E-1
2.314976056E0,1.029888511E0,-3.058817685E-1,-1.954711229E-1
2.317459858E0,1.048213840E0,-3.022166789E-1,-2.003578991E-1
2.319988504E0,1.065317631E0,-3.009949923E-1,-2.003578991E-1
2.322495118E0,1.077534556E0,-3.034383655E-1,-1.930277348E-1
2.325000118E0,1.084864736E0,-3.168770075E-1,-1.820324808E-1
2.327483243E0,1.088529825E0,-3.400892019E-1,-1.685938388E-1
2.329989129E0,1.086086392E0,-3.694098890E-1,-1.527118087E-1
2.332494806E0,1.081199646E0,-3.926220834E-1,-1.343863904E-1
2.335023764E0,1.081199646E0,-4.097257853E-1,-1.087308154E-1
2.337530847E0,1.089751482E0,-3.865135908E-1,-6.841489673E-2
2.340036316E0,1.109298587E0,-3.498627543E-1,-1.954711229E-2
2.342519233E0,1.134954214E0,-3.071034551E-1,3.787253052E-2
2.345050066E0,1.166718245E0,-2.899997234E-1,9.529217333E-2
2.347531629E0,1.197260618E0,-2.985515893E-1,1.429382563E-1
2.350037254E0,1.236354828E0,-3.205420971E-1,1.783674061E-1
2.352543243E0,1.275449038E0,-3.400892019E-1,2.064663768E-1
2.355050118E0,1.314543247E0,-3.510844707E-1,2.309002578E-1
2.357555066E0,1.357455373E0,-3.523061574E-1,2.528907657E-1
2.360062254E0,1.402657986E0,-3.486410677E-1,2.687727809E-1
2.362522045E0,1.450304151E0,-3.364241421E-1,2.870981991E-1
2.364978608E0,1.500393629E0,-3.193204105E-1,3.078670204E-1
2.367435327E0,1.549261332E0,-3.022166789E-1,3.261924386E-1
2.369892722E0,1.594464064E0,-2.936648130E-1,3.432961702E-1
2.372349181E0,1.637223363E0,-2.961082160E-1,3.591781855E-1
2.374806316E0,1.673874259E0,-3.083251417E-1,3.665083647E-1
2.377263452E0,1.697086453E0,-3.865135908E-1,3.640649617E-1
2.379720691E0,1.703194857E0,-5.978667736E-1,3.359659910E-1
2.382177097E0,1.706859946E0,-7.469134927E-1,3.090887070E-1
2.384634181E0,1.734958887E0,-7.237012982E-1,3.029802442E-1
2.387090952E0,1.781383276E0,-5.722111464E-1,3.310792148E-1
2.389547670E0,1.842468023E0,-4.219427407E-1,3.884988427E-1
2.392004389E0,1.907217860E0,-3.058817685E-1,4.618005157E-1
2.394461004E0,1.964637518E0,-2.276933193E-1,5.387672782E-1
2.396917879E0,2.003731728E0,-1.739387512E-1,6.010736823E-1
2.399374649E0,2.017170429E0,-1.226275861E-1,6.474980712E-1
2.401831524E0,1.996401548E0,-7.131642103E-2,6.719319820E-1
2.404288712E0,1.953642249E0,-1.756185852E-2,6.853706241E-1
2.406745431E0,1.895000935E0,3.008422814E-2,6.902574301E-1
2.409202254E0,1.827807665E0,6.184828654E-2,6.878139973E-1
2.411659129E0,1.754505992E0,7.284353673E-2,6.865923405E-1
2.414115847E0,1.683647752E0,6.184828654E-2,6.841489077E-1
2.416573712E0,1.617676258E0,2.397575416E-2,6.804838181E-1
2.419029806E0,1.552926421E0,-3.344388679E-2,6.707102656E-1
2.421486889E0,1.485733271E0,-9.941539168E-2,6.487197876E-1
2.423944024E0,1.416096687E0,-1.702736765E-1,6.181774139E-1
2.426400274E0,1.334243178E0,-2.411319613E-1,5.864133835E-1
2.428857097E0,1.215586066E0,-3.425326049E-1,5.534276366E-1
2.431314754E0,1.035996914E0,-4.976878166E-1,5.106683373E-1
2.433725743E0,8.283088803E-1,-6.174138784E-1,4.776825607E-1
2.436182202E0,6.181774139E-1,-6.748335361E-1,4.556920528E-1
2.438685587E0,4.239279926E-1,-6.491779089E-1,4.532486796E-1
2.441142462E0,2.553341687E-1,-5.331169367E-1,4.666872919E-1
2.443598504E0,1.099525094E-1,-3.510844707E-1,4.898995161E-1
2.446078556E0,-1.832541823E-2,-1.372879148E-1,5.192201734E-1
2.448512149E0,-1.246128380E-1,8.994726092E-2,5.485408306E-1
2.450969597E0,-2.040229887E-1,2.951919436E-1,5.680879354E-1
2.453426472E0,-2.651077211E-1,4.210264683E-1,5.766398311E-1
2.455883399E0,-3.115321100E-1,4.760027230E-1,5.937435627E-1
2.458340170E0,-3.323009014E-1,5.199837089E-1,6.218425035E-1
2.460796993E0,-3.286358118E-1,5.419742465E-1,6.487197876E-1
2.463253556E0,-3.029802442E-1,5.260922313E-1,6.768187881E-1
2.465710795E0,-2.638860047E-1,4.955498278E-1,7.036960125E-1
2.468167202E0,-2.113531530E-1,4.747810364E-1,7.256865501E-1
2.470624493E0,-1.527118087E-1,4.698942602E-1,7.440119386E-1
2.473081577E0,-9.284878522E-2,4.808894992E-1,7.525638342E-1
2.475538608E0,-3.542914242E-2,4.894413650E-1,7.476770282E-1
2.477995014E0,1.466033421E-2,4.821111858E-1,7.403468490E-1
2.480451733E0,5.497625470E-2,4.393518865E-1,7.330167294E-1
2.482908764E0,8.674030751E-2,3.098522723E-1,7.207997441E-1
2.485365587E0,1.087308154E-1,-1.023169141E-2,7.036960125E-1
2.487822618E0,1.062874198E-1,-4.280512035E-1,7.098045349E-1
2.490279545E0,1.038440317E-1,-6.772769094E-1,7.611156702E-1
2.492736316E0,1.209477559E-1,-7.065975666E-1,8.380824327E-1
2.495193712E0,1.563768983E-1,-6.442911625E-1,9.309312105E-1
2.497650066E0,2.113531530E-1,-5.502206683E-1,1.020114899E0
2.500106733E0,2.614426315E-1,-4.170559645E-1,1.098303318E0
2.502563920E0,2.858765125E-1,-2.521272004E-1,1.137397647E0
2.505021368E0,2.724378705E-1,-9.086353332E-2,1.127624035E0
2.507477670E0,2.199050188E-1,6.551336497E-2,1.079977989E0
2.509934545E0,1.331647038E-1,1.937913001E-1,1.006676316E0
2.512392254E0,3.176405653E-2,2.878617644E-1,9.260444641E-1
2.514848504E0,-7.818844914E-2,3.306210935E-1,8.551861644E-1
2.517305587E0,-1.856975704E-1,3.342861533E-1,7.989882231E-1
2.519761941E0,-2.773246467E-1,3.196258247E-1,7.635591030E-1
2.522219337E0,-3.530697227E-1,3.025220931E-1,7.415685654E-1
2.524676212E0,-4.092676640E-1,3.049654961E-1,7.342383862E-1
2.527132722E0,-4.434750974E-1,3.257342875E-1,7.269082665E-1
2.529590587E0,-4.642439187E-1,3.526115716E-1,7.159129977E-1
2.532046472E0,-4.666872919E-1,3.953709006E-1,6.951441765E-1
2.534503243E0,-4.471401870E-1,4.356867969E-1,6.609367132E-1
2.536960743E0,-4.117110670E-1,4.674508572E-1,6.279509664E-1
2.539417254E0,-3.665083647E-1,4.601207078E-1,5.961869359E-1
2.541874441E0,-3.103103936E-1,4.625640810E-1,5.741963983E-1
2.544331577E0,-2.431172132E-1,4.943281412E-1,5.595360994E-1
2.546812410E0,-1.759240031E-1,4.735593498E-1,5.497625470E-1
2.549245118E0,-1.099525094E-1,4.442386627E-1,5.424323678E-1
2.551701524E0,-4.764608666E-2,4.112529159E-1,5.302154422E-1
2.554158295E0,1.343864016E-2,3.770454824E-1,5.192201734E-1
2.556615431E0,6.474980712E-2,3.403946459E-1,5.106683373E-1
2.559072202E0,1.111742035E-1,3.013004065E-1,4.947862923E-1
2.561528868E0,1.514901221E-1,2.646495700E-1,4.727957845E-1
2.563985795E0,1.832541823E-1,2.267770469E-1,4.385883212E-1
2.566442722E0,2.162399292E-1,1.950129867E-1,4.043808877E-1
2.568899858E0,2.455606014E-1,1.644706279E-1,3.726168275E-1
2.571356420E0,2.724378705E-1,1.290414780E-1,3.481829464E-1
2.573813347E0,3.017585576E-1,9.849911928E-2,3.249707520E-1
2.576270379E0,3.164188862E-1,6.429167092E-2,3.054236174E-1
2.578727202E0,3.176405728E-1,4.718795046E-2,2.968717813E-1
2.581184181E0,3.042019308E-1,4.107947648E-2,3.017585576E-1
2.583641160E0,2.846548259E-1,5.207473040E-2,3.151971996E-1
2.586097670E0,2.675510943E-1,6.917845458E-2,3.249707520E-1
2.588554858E0,2.443388999E-1,8.628217876E-2,3.347443044E-1
2.591012097E0,2.284568697E-1,9.239064902E-2,3.396310806E-1
2.593468660E0,2.076880634E-1,9.849911928E-2,3.359659910E-1
2.595925274E0,1.820324808E-1,1.021642014E-1,3.298575282E-1
2.598382254E0,1.624853760E-1,1.265980899E-1,3.188622594E-1
2.600839233E0,1.429382563E-1,1.730224788E-1,3.066453338E-1
2.603296004E0,1.233911440E-1,2.194468826E-1,2.932066917E-1
2.605753087E0,1.099525094E-1,2.512109280E-1,2.785463631E-1
2.608210795E0,9.895725548E-2,2.560977042E-1,2.602209449E-1
2.610666993E0,9.162709117E-2,2.426590770E-1,2.357870489E-1
2.613124024E0,9.773556143E-2,2.133384049E-1,2.089097649E-1
2.615581004E0,1.062874198E-1,1.742441803E-1,1.783674061E-1
2.618037566E0,1.233911440E-1,1.265980899E-1,1.514901221E-1
2.620494181E0,1.514901221E-1,8.261708915E-2,1.258345395E-1
2.622951681E0,1.856975704E-1,3.130592033E-2,1.038440317E-1
2.625408035E0,2.272351831E-1,-1.756185852E-2,8.185353130E-2
2.627866629E0,2.699944973E-1,-7.498150319E-2,6.230641901E-2
2.630276264E0,3.139754832E-1,-1.397313178E-1,4.275930673E-2
2.632733139E0,3.567348123E-1,-2.130329758E-1,2.443389036E-2
2.635237670E0,3.982724249E-1,-2.802261710E-1,1.343864016E-2
2.637694649E0,4.422534108E-1,-3.449759781E-1,8.551862091E-3
2.640151577E0,4.776825607E-1,-3.999522328E-1,6.108472589E-3
2.642606524E0,5.155550838E-1,-4.475983381E-1,4.886778072E-3
2.645063035E0,5.473191738E-1,-4.854708612E-1,9.773556143E-3
2.647545431E0,5.680879354E-1,-5.160132051E-1,1.588202827E-2
2.649976889E0,5.839699507E-1,-5.416688323E-1,2.443389036E-2
2.652433608E0,5.937435627E-1,-5.514423847E-1,3.420744836E-2
2.654890535E0,6.022953987E-1,-5.441122055E-1,3.909422457E-2
2.657347358E0,5.998520255E-1,-5.196782947E-1,4.642439261E-2
2.659804024E0,5.888567567E-1,-4.793623984E-1,5.619794875E-2
2.662261264E0,5.632011890E-1,-4.353813827E-1,7.330167294E-2
2.664719337E0,5.289937258E-1,-3.914003670E-1,8.429691941E-2
2.667176524E0,5.045598149E-1,-3.413109183E-1,8.551861346E-2
2.669633035E0,4.837910235E-1,-2.814478874E-1,7.818844914E-2
2.672092358E0,4.642439187E-1,-2.338017821E-1,7.207997888E-2
2.674548295E0,4.471401870E-1,-2.044811249E-1,7.452336699E-2
2.677005795E0,4.324798584E-1,-1.910424829E-1,8.185353130E-2
2.679466993E0,4.263713956E-1,-1.776038408E-1,8.063183725E-2
2.681918920E0,4.214846194E-1,-1.861557066E-1,8.307522535E-2
2.684377514E0,4.165978432E-1,-2.301367074E-1,9.162709117E-2
2.686832670E0,4.165978432E-1,-2.863346636E-1,9.773556143E-2
2.689289493E0,4.141544402E-1,-2.753393948E-1,9.773556143E-2
2.691746160E0,4.007157981E-1,-1.592784226E-1,1.087308154E-1
2.694203399E0,3.640649617E-1,-2.611372061E-2,1.368297935E-1
2.696660170E0,3.103103936E-1,5.085303262E-2,1.698155403E-1
2.699121420E0,2.394521236E-1,9.605573118E-2,1.991362125E-1
2.701574545E0,1.612636745E-1,1.241547018E-1,2.101314515E-1
2.704030795E0,8.918370306E-2,1.461452097E-1,2.101314515E-1
2.706487931E0,2.687728032E-2,1.559187621E-1,1.991362125E-1
2.708944389E0,-9.773556143E-3,1.595838517E-1,1.808107942E-1
2.711419806E0,-1.588202827E-2,1.412584335E-1,1.575985998E-1
2.713861472E0,-6.108472589E-3,1.009425074E-1,1.380514801E-1
2.716314337E0,1.710372418E-2,4.596625641E-2,1.185043678E-1
2.718770795E0,5.497625470E-2,-2.000524849E-2,1.014006436E-1
2.721227983E0,1.001789495E-1,-9.819369763E-2,8.674030751E-2
2.723684858E0,1.441599578E-1,-1.788255423E-1,7.085828483E-2
2.726141837E0,1.795890927E-1,-2.680092454E-1,6.352811307E-2
2.728598712E0,2.064663768E-1,-3.571929336E-1,6.230641901E-2
2.731055379E0,2.321219593E-1,-4.500417113E-1,6.230641901E-2
2.733512254E0,2.541124523E-1,-5.428904891E-1,6.230641901E-2
2.735969597E0,2.797680497E-1,-6.369609833E-1,5.986303091E-2
2.738425952E0,3.054236174E-1,-7.346965671E-1,5.619794875E-2
2.740884129E0,3.310792148E-1,-8.312104344E-1,5.375456065E-2
2.743341316E0,3.530697227E-1,-9.142856598E-1,5.497625470E-2
2.745797774E0,3.689517379E-1,-9.961391687E-1,5.741964281E-2
2.748253504E0,3.836120665E-1,-1.068219185E0,6.108472496E-2
2.750710379E0,3.921639323E-1,-1.132968903E0,6.841489673E-2
2.753167358E0,3.970507085E-1,-1.179393291E0,7.330167294E-2
2.755624858E0,3.970507085E-1,-1.217265844E0,7.574506104E-2
2.758081264E0,3.933856487E-1,-1.245364904E0,7.818844914E-2
2.760539597E0,3.823903799E-1,-1.274685502E0,7.696675509E-2
2.762997358E0,3.677300513E-1,-1.296676040E0,7.696675509E-2
2.765454024E0,3.555130959E-1,-1.299119353E0,7.330167294E-2
2.767909806E0,3.506263196E-1,-1.277128935E0,6.719319522E-2
2.770366420E0,3.432961702E-1,-1.234369636E0,5.864133686E-2
2.772822566E0,3.298575282E-1,-1.181836724E0,5.741964281E-2
2.775268452E0,3.176405728E-1,-1.117086887E0,5.986303091E-2
2.777735483E0,3.005368412E-1,-1.038898468E0,6.719319522E-2
2.780191420E0,2.809897363E-1,-9.533798695E-1,7.574506104E-2
2.782648139E0,2.626643181E-1,-8.690829277E-1,8.185353130E-2
2.785105535E0,2.455606014E-1,-7.884510756E-1,8.429691941E-2
2.787562774E0,2.345653474E-1,-7.163711190E-1,8.307522535E-2
2.790019024E0,2.382304370E-1,-6.418477297E-1,7.818844914E-2
2.792475795E0,2.602209449E-1,-5.673243999E-1,6.597150117E-2
2.794932618E0,3.029802442E-1,-4.928010404E-1,5.008947477E-2
2.797389597E0,3.567348123E-1,-4.292729199E-1,3.176405653E-2
2.799846577E0,4.178195298E-1,-3.742966652E-1,1.099525020E-2
2.802303556E0,4.947862923E-1,-3.180987239E-1,-1.221694518E-2
2.804760274E0,5.741963983E-1,-2.655658424E-1,-3.420744836E-2
2.807219858E0,6.511631608E-1,-2.057028115E-1,-5.741964281E-2
2.809676472E0,7.293516397E-1,-1.446180940E-1,-7.696675509E-2
2.812182566E0,7.892146707E-1,-9.086353332E-2,-8.918370306E-2
2.814687983E0,7.537854910E-1,-8.964183182E-2,-6.108472496E-2
2.817193504E0,6.169557571E-1,-1.556133330E-1,-6.108472589E-3
2.819699181E0,4.361449480E-1,-2.020377368E-1,5.253286287E-2
2.822204910E0,2.675510943E-1,-2.008160353E-1,1.001789495E-1
2.824664077E0,1.294996142E-1,-1.592784226E-1,1.380514801E-1
2.827170483E0,2.687728032E-2,-1.226275861E-1,1.624853760E-1
2.829723035E0,-4.886778072E-2,-1.091889441E-1,1.808107942E-1
2.832228764E0,-1.038440317E-1,-1.262926757E-1,1.930277348E-1
2.834735118E0,-1.331647038E-1,-1.568350345E-1,1.954711229E-1
2.837240795E0,-1.429382563E-1,-1.983726472E-1,1.942494214E-1
2.839747670E0,-1.417165697E-1,-2.472404242E-1,1.869192570E-1
2.842252879E0,-1.356080920E-1,-2.985515893E-1,1.795890927E-1
2.844759441E0,-1.270562261E-1,-3.510844707E-1,1.783674061E-1
2.847265379E0,-1.099525094E-1,-4.060607255E-1,1.759240031E-1
2.849770743E0,-9.040539712E-2,-4.598152637E-1,1.747023165E-1
2.852276941E0,-6.597150117E-2,-5.086830258E-1,1.747023165E-1
2.854783347E0,-4.642439261E-2,-5.599942207E-1,1.759240031E-1
2.857288556E0,-2.321219631E-2,-5.954233408E-1,1.759240031E-1
2.859795847E0,-7.330167107E-3,-6.235223413E-1,1.722589284E-1
2.862301629E0,2.443389036E-3,-6.357392669E-1,1.673721522E-1
2.864806993E0,8.551862091E-3,-6.174138784E-1,1.575985998E-1
2.867312722E0,9.773556143E-3,-5.770979524E-1,1.429382563E-1
2.869818712E0,1.466033421E-2,-5.099047422E-1,1.307213157E-1
2.872324962E0,9.773556143E-3,-4.219427407E-1,1.246128380E-1
2.874831264E0,7.330167107E-3,-3.156553209E-1,1.172826737E-1
2.877337618E0,3.665083554E-3,-2.057028115E-1,1.111742035E-1
2.879842879E0,-8.551862091E-3,-1.067455560E-1,1.087308154E-1
2.882348868E0,-2.687728032E-2,-1.634016447E-2,1.172826737E-1
2.884854910E0,-4.275930673E-2,7.406523079E-2,1.258345395E-1
2.887360691E0,-5.497625470E-2,1.559187621E-1,1.294996142E-1
2.889866993E0,-6.108472496E-2,2.206685692E-1,1.270562261E-1
2.892372722E0,-6.230641901E-2,2.829749882E-1,1.282779276E-1
2.894878816E0,-5.864133686E-2,3.306210935E-1,1.331647038E-1
2.897411160E0,-5.375456065E-2,3.672719002E-1,1.404948682E-1
2.899890743E0,-4.886778072E-2,3.917058110E-1,1.514901221E-1
2.902397045E0,-5.864133686E-2,4.051444530E-1,1.661504507E-1
2.904902879E0,-7.452336699E-2,4.088095427E-1,1.808107942E-1
2.907408712E0,-9.407047927E-2,4.222481549E-1,1.930277348E-1
2.909914910E0,-1.123958975E-1,4.356867969E-1,2.089097649E-1
2.912421056E0,-1.221694499E-1,4.588989913E-1,2.272351831E-1
2.914927045E0,-1.356080920E-1,4.808894992E-1,2.492256761E-1
2.917432983E0,-1.539335102E-1,4.967715442E-1,2.699944973E-1
2.919939910E0,-1.612636745E-1,5.102101564E-1,2.883199155E-1
2.922445483E0,-1.600419879E-1,5.102101564E-1,3.029802442E-1
2.924950691E0,-1.612636745E-1,4.894413650E-1,3.103103936E-1
2.927456733E0,-1.722589284E-1,4.491254389E-1,3.042019308E-1
2.929962931E0,-1.918060333E-1,4.027010500E-1,2.919849753E-1
2.932469493E0,-2.125748396E-1,3.550549746E-1,2.773246467E-1
2.934974910E0,-2.260134816E-1,3.025220931E-1,2.614426315E-1
2.937432149E0,-2.272351831E-1,2.499892414E-1,2.455606014E-1
2.939888816E0,-2.162399292E-1,1.876828223E-1,2.345653474E-1
2.942345743E0,-1.954711229E-1,1.302631795E-1,2.296785712E-1
2.944802618E0,-1.710372269E-1,7.650861889E-2,2.309002578E-1
2.947260222E0,-1.356080920E-1,1.420219894E-2,2.370087355E-1
2.949716733E0,-8.063183725E-2,-6.032116711E-2,2.516690791E-1
2.952174181E0,-3.665083647E-2,-2.509055138E-1,2.675510943E-1
2.954630066E0,-2.687728032E-2,-4.769189954E-1,2.736595869E-1
2.957086993E0,-1.221694518E-2,-4.866925478E-1,2.822114229E-1
2.959543608E0,-9.773556143E-3,-3.645231128E-1,2.944283783E-1
2.962020118E0,-2.687728032E-2,-2.289150059E-1,3.103103936E-1
2.964458035E0,-6.719319522E-2,-1.165191159E-1,3.408527672E-1
2.966915274E0,-1.026223376E-1,-2.977880463E-2,3.738385141E-1
2.969372202E0,-1.551551968E-1,-2.122694254E-2,3.994941115E-1
2.971828347E0,-2.125748396E-1,8.093725890E-3,4.092676640E-1
2.974285483E0,-2.528907657E-1,1.168245375E-1,4.080459774E-1
2.976742983E0,-2.968717813E-1,2.316638231E-1,3.958290219E-1
2.979198816E0,-3.384093940E-1,3.281776905E-1,3.823903799E-1
2.981656577E0,-3.457395434E-1,4.259132445E-1,3.701734245E-1
2.984112931E0,-3.530697227E-1,4.796678126E-1,3.640649617E-1
2.986587879E0,-3.750602305E-1,4.979932308E-1,3.530697227E-1
2.989027670E0,-4.056025743E-1,5.028799772E-1,3.420744538E-1
2.991483660E0,-4.459185004E-1,4.906630516E-1,3.323009014E-1
2.993940379E0,-4.911212027E-1,4.857762754E-1,3.298575282E-1
2.996397149E0,-5.228852630E-1,5.041016936E-1,3.384093940E-1
2.998877670E0,-5.192201734E-1,5.554128885E-1,3.481829464E-1
3.001311993E0,-5.057815313E-1,5.932853818E-1,3.457395434E-1
3.003768452E0,-5.118899941E-1,5.957288146E-1,3.286358118E-1
3.006224858E0,-5.485408306E-1,5.615213513E-1,3.090887070E-1
3.008681524E0,-6.084038615E-1,5.285356045E-1,2.919849753E-1
3.011139441E0,-6.670452356E-1,5.212054253E-1,2.736595869E-1
3.013595483E0,-7.171346545E-1,5.383091569E-1,2.516690791E-1
3.016052254E0,-7.611156702E-1,5.737382770E-1,2.284568697E-1
3.018508972E0,-7.989882231E-1,6.299362183E-1,2.040229887E-1
3.020966837E0,-8.283088803E-1,6.971294284E-1,1.832541823E-1
3.023377670E0,-8.502993584E-1,7.679877281E-1,1.600419879E-1
3.025833920E0,-8.686248064E-1,8.473978639E-1,1.343863904E-1
3.028336316E0,-8.881719112E-1,9.206995368E-1,1.099525094E-1
3.030793920E0,-8.942803741E-1,1.007439852E0,8.551861346E-2
3.033250379E0,-8.869501948E-1,1.103953719E0,5.864133686E-2
3.035707514E0,-8.674030900E-1,1.201689243E0,3.542914242E-2
3.038164493E0,-8.429692388E-1,1.298203111E0,2.199050039E-2
3.040621264E0,-8.173136115E-1,1.376391530E0,6.108472589E-3
3.043077931E0,-7.989882231E-1,1.446028233E0,-7.330167107E-3
3.045535587E0,-7.831062078E-1,1.515664816E0,-2.076880634E-2
3.047991889E0,-7.708892226E-1,1.590188146E0,-3.420744836E-2
3.050448556E0,-7.562289238E-1,1.667154908E0,-4.886778072E-2
3.052905483E0,-7.427902818E-1,1.733126402E0,-6.230641901E-2
3.055362462E0,-7.342383862E-1,1.786880970E0,-7.941014320E-2
3.057819337E0,-7.220214605E-1,1.796654463E0,-1.136175916E-1
3.060276889E0,-7.183563709E-1,1.764890432E0,-1.869192570E-1
3.062733243E0,-7.232431769E-1,1.803984642E0,-2.394521236E-1
3.065189910E0,-7.330167294E-1,1.814979911E0,-2.834331393E-1
3.067647410E0,-7.513421178E-1,1.818645000E0,-3.151971996E-1
3.070103504E0,-7.721109390E-1,1.846743941E0,-3.237490356E-1
3.072561160E0,-7.806627750E-1,1.805206418E0,-3.506263196E-1
3.075017827E0,-7.794411182E-1,1.768555522E0,-3.909422457E-1
3.077474545E0,-7.647807598E-1,1.712357521E0,-4.251496792E-1
3.079931837E0,-7.379034758E-1,1.617065430E0,-4.361449480E-1
3.082388608E0,-7.098045349E-1,1.499782681E0,-4.312581718E-1
3.084845170E0,-6.755970716E-1,1.393495321E0,-4.153761268E-1
3.087302149E0,-6.426113248E-1,1.294538021E0,-3.970507085E-1
3.089758816E0,-6.145123243E-1,1.202911019E0,-3.823903799E-1
3.092216264E0,-5.839699507E-1,1.105175376E0,-3.713951409E-1
3.094672618E0,-5.558710098E-1,1.008661509E0,-3.603998721E-1
3.097130170E0,-5.302154422E-1,9.170344472E-1,-3.506263196E-1
3.099586108E0,-5.033381581E-1,8.376243114E-1,-3.359659910E-1
3.102043243E0,-4.789042473E-1,7.789829373E-1,-3.176405728E-1
3.104500118E0,-4.569137394E-1,7.240067124E-1,-3.066453338E-1
3.106957983E0,-4.385883212E-1,6.531484127E-1,-3.261924386E-1
3.109414858E0,-4.288147688E-1,6.775823236E-1,-3.261924386E-1
3.111870639E0,-4.324798584E-1,7.032378912E-1,-2.956500649E-1
3.114327566E0,-4.422534108E-1,7.447755337E-1,-2.480039895E-1
3.116784754E0,-4.544703662E-1,8.021951914E-1,-2.076880634E-1
3.119241524E0,-4.520269632E-1,8.241856694E-1,-2.003578991E-1
3.121698608E0,-4.422534108E-1,8.608365059E-1,-2.003578991E-1
3.124155639E0,-4.214846194E-1,8.645015955E-1,-1.954711229E-1
3.126612097E0,-3.970507085E-1,8.522846103E-1,-1.832541823E-1
3.129068920E0,-3.689517379E-1,8.449544907E-1,-1.698155403E-1
3.131525847E0,-3.420744538E-1,8.571714163E-1,-1.600419879E-1
3.133982722E0,-3.237490356E-1,8.816053271E-1,-1.575985998E-1
3.136440743E0,-3.078670204E-1,9.121476412E-1,-1.612636745E-1
3.138897202E0,-2.980934680E-1,9.439117312E-1,-1.685938388E-1
3.141353399E0,-2.919849753E-1,9.817842841E-1,-1.795890927E-1
3.143810222E0,-2.883199155E-1,1.024543524E0,-1.930277348E-1
3.146266993E0,-2.883199155E-1,1.072189689E0,-2.052446753E-1
3.148724181E0,-2.907632887E-1,1.119835734E0,-2.199050188E-1
3.151180899E0,-3.005368412E-1,1.177255392E0,-2.370087355E-1
3.153637827E0,-3.115321100E-1,1.240783453E0,-2.553341687E-1
3.156095222E0,-3.298575282E-1,1.314085126E0,-2.736595869E-1
3.158552254E0,-3.518480062E-1,1.397160411E0,-2.895416021E-1
3.161009233E0,-3.823903799E-1,1.490009189E0,-3.066453338E-1
3.163465222E0,-4.190412164E-1,1.579192877E0,-3.213056624E-1
3.165922202E0,-4.605788291E-1,1.661046386E0,-3.359659910E-1
3.168379181E0,-5.033381581E-1,1.730682969E0,-3.530697227E-1
3.170836785E0,-5.424323678E-1,1.784437537E0,-3.689517379E-1
3.173293608E0,-5.693096519E-1,1.821088433E0,-3.836120665E-1
3.175750379E0,-5.949652195E-1,1.854226828E0,-3.970507085E-1
3.178206993E0,-6.193991303E-1,1.878660798E0,-4.080459774E-1
3.180664702E0,-6.316160560E-1,1.899429560E0,-4.129327536E-1
3.183121160E0,-6.340594292E-1,1.910424829E0,-4.141544402E-1
3.185577358E0,-6.242858768E-1,1.905538082E0,-4.043808877E-1
3.188034181E0,-6.047387719E-1,1.890877724E0,-3.872771561E-1
3.190491629E0,-5.717530251E-1,1.862778664E0,-3.677300513E-1
3.192948035E0,-5.314370990E-1,1.822310090E0,-3.420744538E-1
3.195404962E0,-4.886777997E-1,1.777107358E0,-3.176405728E-1
3.197861837E0,-4.544703662E-1,1.720909476E0,-2.932066917E-1
3.200318556E0,-4.190412164E-1,1.656159639E0,-2.736595869E-1
3.202775639E0,-3.860554695E-1,1.588966489E0,-2.614426315E-1
3.205232566E0,-3.542914093E-1,1.524216652E0,-2.504473627E-1
3.207689389E0,-3.200839758E-1,1.472905397E0,-2.431172132E-1
3.210146681E0,-2.858765125E-1,1.439919710E0,-2.418955117E-1
3.212602983E0,-2.565558553E-1,1.427702785E0,-2.443388999E-1
3.215060639E0,-2.370087355E-1,1.414264083E0,-2.492256761E-1
3.217517410E0,-2.137965411E-1,1.419150949E0,-2.589992285E-1
3.219973868E0,-1.918060333E-1,1.424037695E0,-2.675510943E-1
3.222384649E0,-1.685938388E-1,1.437476277E0,-2.822114229E-1
3.224843139E0,-1.478250325E-1,1.450914979E0,-3.054236174E-1
3.227344389E0,-1.221694499E-1,1.492452621E0,-3.298575282E-1
3.229801316E0,-9.529217333E-2,1.533990145E0,-3.323009014E-1
3.232258295E0,-8.551861346E-2,1.547428846E0,-3.481829464E-1
3.234715535E0,-7.941014320E-2,1.544985414E0,-3.652866483E-1
3.237171785E0,-7.207997888E-2,1.546207070E0,-3.689517379E-1
3.239628608E0,-5.375456065E-2,1.524216652E0,-3.420744538E-1
3.242085483E0,-3.665083647E-2,1.474127173E0,-3.237490356E-1
3.244543035E0,-1.466033421E-2,1.424037695E0,-3.103103936E-1
3.246999910E0,7.330167107E-3,1.392273664E0,-3.054236174E-1
3.249481108E0,3.787253052E-2,1.389830232E0,-2.748812735E-1
3.251913035E0,6.230641901E-2,1.371504784E0,-2.577775419E-1
3.254370431E0,7.696675509E-2,1.345849276E0,-2.467822880E-1
3.256826941E0,8.551861346E-2,1.315306902E0,-2.418955117E-1
3.259285014E0,7.941014320E-2,1.290872931E0,-2.467822880E-1
3.261740743E0,6.597150117E-2,1.261552334E0,-2.247917950E-1
3.264197670E0,3.420744836E-2,1.253000498E0,-2.101314515E-1
3.266654441E0,1.221694518E-3,1.246891975E0,-2.076880634E-1
3.269111577E0,-3.054236248E-2,1.260330558E0,-2.137965411E-1
3.271568243E0,-5.497625470E-2,1.270104170E0,-2.223484069E-1
3.274025379E0,-7.330167294E-2,1.298203111E0,-2.309002578E-1
3.276482045E0,-8.063183725E-2,1.315306902E0,-2.370087355E-1
3.278938920E0,-7.696675509E-2,1.345849276E0,-2.480039895E-1
3.281395952E0,-6.597150117E-2,1.351957679E0,-2.602209449E-1
3.283853139E0,-4.886778072E-2,1.342184186E0,-2.699944973E-1
3.286309702E0,-1.343864016E-2,1.327523828E0,-2.724378705E-1
3.288766524E0,5.497625470E-2,1.323858738E0,-2.724378705E-1
3.291223452E0,1.918060333E-1,1.345849276E0,-2.822114229E-1
3.293649233E0,5.558710098E-1,1.656159639E0,-3.200839758E-1
3.296137670E0,1.225359559E0,2.049697876E0,-3.225273490E-1
3.298595431E0,1.414874911E0,1.533990145E0,-2.467822880E-1
3.301050795E0,1.150836229E0,9.439117312E-1,-2.577775419E-1
3.303507722E0,7.928797603E-1,6.543701291E-1,-3.200839758E-1
3.305964910E0,4.666872919E-1,6.116108298E-1,-3.713951409E-1
3.308421629E0,2.284568697E-1,7.007945180E-1,-3.799470067E-1
3.310878347E0,7.941014320E-2,8.180772066E-1,-3.506263196E-1
3.313360795E0,-2.443389036E-2,9.023740888E-1,-2.870981991E-1
3.315792358E0,-1.148392856E-1,9.561286569E-1,-2.113531530E-1
3.318248920E0,-1.954711229E-1,1.007439852E0,-1.380514801E-1
3.320706160E0,-2.589992285E-1,1.044090629E0,-8.551861346E-2
3.323163035E0,-3.188622594E-1,1.063637733E0,-4.764608666E-2
3.325619389E0,-3.640649617E-1,1.072189689E0,-2.809897438E-2
3.328076681E0,-3.921639323E-1,1.091736794E0,-1.954711229E-2
3.330533764E0,-4.007157981E-1,1.105175376E0,-1.343864016E-2
3.332990899E0,-3.970507085E-1,1.102732062E0,-2.443389036E-3
3.335447983E0,-3.848337829E-1,1.086849928E0,9.773556143E-3
3.337904129E0,-3.750602305E-1,1.069746256E0,1.954711229E-2
3.340360795E0,-3.616215885E-1,1.040425539E0,3.054236248E-2
3.342818712E0,-3.494046330E-1,1.011104941E0,4.153761268E-2
3.345275483E0,-3.310792148E-1,9.732323885E-1,5.008947477E-2
3.347731733E0,-3.090887070E-1,9.280297160E-1,5.864133686E-2
3.350188556E0,-2.907632887E-1,8.718317747E-1,6.108472496E-2
3.352669649E0,-2.699944973E-1,8.083036542E-1,5.253286287E-2
3.355123868E0,-2.516690791E-1,7.447755337E-1,4.398100078E-2
3.357587566E0,-2.333436459E-1,6.800256968E-1,3.420744836E-2
3.360040014E0,-2.076880634E-1,6.213843822E-1,2.443389036E-2
3.362502774E0,-1.856975704E-1,5.566345453E-1,2.076880634E-2
3.364952514E0,-1.710372269E-1,5.041016936E-1,2.076880634E-2
3.367388191E0,-1.624853760E-1,4.637857676E-1,2.565558441E-2
3.369866524E0,-1.600419879E-1,4.320217371E-1,3.298575059E-2
3.372300483E0,-1.624853760E-1,3.978142738E-1,3.787253052E-2
3.374780222E0,-1.649287641E-1,3.721587062E-1,3.909422457E-2
3.377237983E0,-1.661504507E-1,3.440597057E-1,3.909422457E-2
3.379692722E0,-1.637070626E-1,3.110739589E-1,3.787253052E-2
3.382158295E0,-1.527118087E-1,2.609844804E-1,3.054236248E-2
3.384608295E0,-1.331647038E-1,2.011214644E-1,1.954711229E-2
3.387069285E0,-1.111742035E-1,1.327065676E-1,1.099525020E-2
3.389521420E0,-8.796200156E-2,6.306997687E-2,6.108472589E-3
3.391955587E0,-6.474980712E-2,-1.389677543E-2,1.221694518E-3
3.394435222E0,-3.909422457E-2,-8.597674966E-2,-1.221694518E-3
3.396872254E0,-2.076880634E-2,-1.519482583E-1,0.000000000E0
3.399354493E0,-9.773556143E-3,-2.118112892E-1,6.108472589E-3
3.401829806E0,-6.108472589E-3,-2.619007528E-1,1.343864016E-2
3.404267358E0,-9.773556143E-3,-3.058817685E-1,2.321219631E-2
3.406700222E0,-2.076880634E-2,-3.376458287E-1,3.420744836E-2
3.409182670E0,-3.420744836E-2,-3.694098890E-1,4.398100078E-2
3.411614910E0,-5.864133686E-2,-3.975088596E-1,6.108472496E-2
3.414088972E0,-8.429691941E-2,-4.194993675E-1,7.452336699E-2
3.416595379E0,-1.466033459E-1,-4.488200247E-1,9.040539712E-2
3.419098868E0,-1.808107942E-1,-4.585935771E-1,8.918370306E-2
3.421582879E0,-2.162399292E-1,-4.928010404E-1,7.207997888E-2
3.424111108E0,-2.528907657E-1,-5.599942207E-1,1.588202827E-2
3.426619441E0,-2.797680497E-1,-5.489989519E-1,-3.665083647E-2
3.429122514E0,-3.054236174E-1,-5.257867575E-1,-7.330167294E-2
3.431606004E0,-3.286358118E-1,-5.172349215E-1,-9.407047927E-2
3.434135691E0,-3.542914093E-1,-5.135698318E-1,-9.407047927E-2
3.436642097E0,-3.921639323E-1,-4.928010404E-1,-6.841489673E-2
3.439147254E0,-4.324798584E-1,-4.622586668E-1,-3.787253052E-2
3.441631212E0,-4.446968138E-1,-5.037962794E-1,7.330167107E-3
3.444160222E0,-4.544703662E-1,-5.221216679E-1,4.642439261E-2
3.446642618E0,-4.581354558E-1,-5.294518471E-1,8.063183725E-2
3.449171577E0,-4.532486796E-1,-5.392253995E-1,1.123958975E-1
3.451679389E0,-4.532486796E-1,-5.722111464E-1,1.478250325E-1
3.454182827E0,-4.630222321E-1,-6.223006248E-1,1.930277348E-1
3.456697618E0,-4.813476503E-1,-6.821636558E-1,2.382304370E-1
3.459172462E0,-5.118899941E-1,-7.444701195E-1,2.870981991E-1
3.461678347E0,-5.338805318E-1,-7.860077024E-1,3.249707520E-1
3.464185327E0,-5.338805318E-1,-8.067765236E-1,3.481829464E-1
3.466690327E0,-5.314370990E-1,-8.385405540E-1,3.677300513E-1
3.469196420E0,-5.424323678E-1,-8.825215697E-1,3.884988427E-1
3.471702566E0,-5.570927262E-1,-9.240592122E-1,4.165978432E-1
3.474208295E0,-5.717530251E-1,-9.655967951E-1,4.556920528E-1
3.476714233E0,-5.778614879E-1,-9.949174523E-1,4.911212027E-1
3.479220639E0,-5.729747415E-1,-1.009577751E0,5.302154422E-1
3.481726837E0,-5.680879354E-1,-1.018129706E0,5.570927262E-1
3.484232514E0,-5.583143830E-1,-1.031568289E0,5.693096519E-1
3.486737931E0,-5.460974574E-1,-1.003469348E0,5.827482939E-1
3.489244181E0,-5.228852630E-1,-9.814788103E-1,5.888567567E-1
3.491751472E0,-5.057815313E-1,-9.741486907E-1,6.047387719E-1
3.494256368E0,-5.070032477E-1,-9.582666159E-1,6.230642200E-1
3.496762774E0,-5.082249045E-1,-9.203941226E-1,6.316160560E-1
3.499268452E0,-5.057815313E-1,-8.874083757E-1,6.181774139E-1
3.501774754E0,-5.021164417E-1,-8.641961813E-1,6.022953987E-1
3.504280952E0,-4.911212027E-1,-8.238802552E-1,5.851916671E-1
3.506786785E0,-4.740174711E-1,-7.835643291E-1,5.595360994E-1
3.509292514E0,-4.569137394E-1,-7.481352091E-1,5.302154422E-1
3.511798452E0,-4.446968138E-1,-7.224795818E-1,5.033381581E-1
3.514333452E0,-4.300364852E-1,-6.784985662E-1,4.654656053E-1
3.516811837E0,-4.141544402E-1,-6.406260729E-1,4.239279926E-1
3.519317931E0,-3.921639323E-1,-6.210789680E-1,3.836120665E-1
3.521823712E0,-3.738385141E-1,-6.161921620E-1,3.506263196E-1
3.524330118E0,-3.628432751E-1,-6.149705052E-1,3.225273490E-1
3.526836316E0,-3.518480062E-1,-6.161921620E-1,2.993151546E-1
3.529341889E0,-3.481829464E-1,-6.332958937E-1,2.773246467E-1
3.531849024E0,-3.432961702E-1,-6.577298045E-1,2.589992285E-1
3.534355952E0,-3.371876776E-1,-6.858287454E-1,2.504473627E-1
3.536861160E0,-3.384093940E-1,-7.200362086E-1,2.480039895E-1
3.539366785E0,-3.469612300E-1,-7.627955079E-1,2.577775419E-1
3.541827983E0,-3.494046330E-1,-8.067765236E-1,2.724378705E-1
3.544285431E0,-3.567348123E-1,-8.629744649E-1,2.883199155E-1
3.546741733E0,-3.640649617E-1,-9.203941226E-1,3.029802442E-1
3.549198660E0,-3.836120665E-1,-9.680401683E-1,3.188622594E-1
3.551656472E0,-4.104893506E-1,-1.015686274E0,3.371876776E-1
3.554112931E0,-4.483618736E-1,-1.066997409E0,3.518480062E-1
3.556570952E0,-4.874561131E-1,-1.110978484E0,3.640649617E-1
3.559026420E0,-5.265503526E-1,-1.164733052E0,3.787252903E-1
3.561483608E0,-5.668662786E-1,-1.208714008E0,3.946073353E-1
3.563942618E0,-6.071822047E-1,-1.245364904E0,4.056025743E-1
3.566396316E0,-6.438329816E-1,-1.280794024E0,4.214846194E-1
3.568852202E0,-6.694886088E-1,-1.313779712E0,4.373666346E-1
3.571308608E0,-6.988092661E-1,-1.356539011E0,4.630222321E-1
3.573765170E0,-7.281299233E-1,-1.404185176E0,4.984513521E-1
3.576223504E0,-7.525638342E-1,-1.439614296E0,5.375455618E-1
3.578681629E0,-7.757760286E-1,-1.456717968E0,5.705313683E-1
3.581138504E0,-8.063184023E-1,-1.473821759E0,6.010736823E-1
3.583593399E0,-8.380824327E-1,-1.479930162E0,6.352811456E-1
3.586050639E0,-8.674030900E-1,-1.472599983E0,6.658235192E-1
3.588506524E0,-8.930587173E-1,-1.473821759E0,6.927008033E-1
3.590963504E0,-9.211576581E-1,-1.472599983E0,7.232431769E-1
3.593420170E0,-9.455915689E-1,-1.472599983E0,7.537854910E-1
3.595876785E0,-9.675820470E-1,-1.476265073E0,7.818844914E-1
3.598333868E0,-9.834640622E-1,-1.470156670E0,8.075400591E-1
3.600790847E0,-9.883508682E-1,-1.457939744E0,8.258655071E-1
3.603247879E0,-9.895725846E-1,-1.444501042E0,8.393041492E-1
3.605706004E0,-9.810206890E-1,-1.434727550E0,8.380824327E-1
3.608163556E0,-9.688037634E-1,-1.438392639E0,8.380824327E-1
3.610644649E0,-9.517000318E-1,-1.443279386E0,8.441908956E-1
3.613076837E0,-9.309312105E-1,-1.451831222E0,8.478559852E-1
3.615486629E0,-9.052756429E-1,-1.473821759E0,8.515210748E-1
3.617943347E0,-8.808417320E-1,-1.511694312E0,8.600729704E-1
3.620447774E0,-8.490777016E-1,-1.554453611E0,8.674030900E-1
3.622904806E0,-8.099834919E-1,-1.599656224E0,8.637380004E-1
3.625361160E0,-7.757760286E-1,-1.659519315E0,8.600729704E-1
3.627818191E0,-7.452336550E-1,-1.725490808E0,8.698465228E-1
3.630274806E0,-7.098045349E-1,-1.775580287E0,8.759549856E-1
3.632732462E0,-6.780404449E-1,-1.830556512E0,8.820634484E-1
3.635188712E0,-6.413896084E-1,-1.887976170E0,8.857285380E-1
3.637645952E0,-6.047387719E-1,-1.941730738E0,8.918370008E-1
3.640103347E0,-5.693096519E-1,-1.983268380E0,8.930587173E-1
3.642560952E0,-5.277720094E-1,-2.010145664E0,8.906152844E-1
3.645016785E0,-4.996730685E-1,-2.040688038E0,8.869501948E-1
3.647473972E0,-4.654656053E-1,-2.059013367E0,8.796200752E-1
3.649930014E0,-4.300364852E-1,-2.068786860E0,8.698465228E-1
3.652387202E0,-3.921639323E-1,-2.063900232E0,8.490777016E-1
3.654843868E0,-3.616215885E-1,-2.050461531E0,8.197570443E-1
3.657304024E0,-3.335226178E-1,-2.024806023E0,7.831062078E-1
3.659758868E0,-3.078670204E-1,-1.995485306E0,7.366818190E-1
3.662221681E0,-2.773246467E-1,-1.967386365E0,6.914790869E-1
3.664672722E0,-2.443388999E-1,-1.928292036E0,6.340594292E-1
3.667131993E0,-2.113531530E-1,-1.892862916E0,5.680879354E-1
3.669586733E0,-1.820324808E-1,-1.857433796E0,4.972296655E-1
3.672040535E0,-1.514901221E-1,-1.835443258E0,4.324798584E-1
3.674497410E0,-1.246128380E-1,-1.808565974E0,3.762819171E-1
3.676954389E0,-1.014006436E-1,-1.789018869E0,3.323009014E-1
3.679411316E0,-7.818844914E-2,-1.771915197E0,3.005368412E-1
3.681868556E0,-5.253286287E-2,-1.764585018E0,2.834331393E-1
3.684324858E0,-2.809897438E-2,-1.765806675E0,2.822114229E-1
3.686781837E0,-7.330167107E-3,-1.770693541E0,3.005368412E-1
3.689239285E0,1.954711229E-2,-1.785353780E0,3.286358118E-1
3.691695795E0,4.520269856E-2,-1.815896153E0,3.665083647E-1
3.694154233E0,7.207997888E-2,-1.850103617E0,4.141544402E-1
3.696610952E0,9.773556143E-2,-1.885532737E0,4.691306949E-1
3.699068035E0,1.209477559E-1,-1.925848722E0,5.302154422E-1
3.701524493E0,1.111742035E-1,-2.011367321E0,6.108472347E-1
3.703980639E0,1.014006436E-1,-2.015032291E0,7.269082665E-1
3.706437149E0,2.162399292E-1,-1.999150395E0,8.380824327E-1
3.708893920E0,2.663294077E-1,-2.084668875E0,9.529217482E-1
3.711375639E0,2.809897363E-1,-2.153083801E0,1.056765795E0
3.713807670E0,3.017585576E-1,-2.181182861E0,1.112963676E0
3.716264389E0,3.078670204E-1,-2.201951742E0,1.145949483E0
3.718722254E0,2.968717813E-1,-2.195843220E0,1.160609841E0
3.721178816E0,2.822114229E-1,-2.168965816E0,1.161831498E0
3.723635587E0,2.626643181E-1,-2.145753622E0,1.156944752E0
3.726092827E0,2.418955117E-1,-2.105437756E0,1.139840961E0
3.728549181E0,2.199050188E-1,-2.062678576E0,1.122737288E0
3.731005899E0,1.942494214E-1,-2.002815485E0,1.103190184E0
3.733462774E0,1.710372269E-1,-1.936843991E0,1.083643079E0
3.735919545E0,1.404948682E-1,-1.865985632E0,1.062874198E0
3.738376733E0,1.123958975E-1,-1.791462302E0,1.042105436E0
3.740833452E0,7.696675509E-2,-1.715717196E0,1.023779988E0
3.743290691E0,4.886778072E-2,-1.636307120E0,1.004232883E0
3.745746941E0,2.443389036E-2,-1.558118701E0,9.859074950E-1
3.748204024E0,-3.665083554E-3,-1.498255610E0,9.761339426E-1
3.750661056E0,-2.565558441E-2,-1.446944475E0,9.773555994E-1
3.753117722E0,-3.909422457E-2,-1.404185176E0,9.822424054E-1
3.755575431E0,-5.008947477E-2,-1.393189907E0,1.001789451E0
3.758031524E0,-5.619794875E-2,-1.422510505E0,1.037218690E0
3.760488608E0,-5.741964281E-2,-1.478708506E0,1.090973258E0
3.762945483E0,-5.864133686E-2,-1.545901656E0,1.158166409E0
3.765402670E0,-5.619794875E-2,-1.597212911E0,1.230246425E0
3.767859129E0,-5.253286287E-2,-1.639972210E0,1.303548098E0
3.770315899E0,-5.375456065E-2,-1.676622987E0,1.375780702E0
3.772772879E0,-5.619794875E-2,-1.687618256E0,1.433200359E0
3.775230014E0,-6.719319522E-2,-1.687618256E0,1.489398360E0
3.777687149E0,-8.674030751E-2,-1.675401330E0,1.534600973E0
3.780143764E0,-1.099525094E-1,-1.619203329E0,1.567586780E0
3.782600327E0,-1.368297935E-1,-1.549566746E0,1.585912228E0
3.785057306E0,-1.734806150E-1,-1.471378326E0,1.592020631E0
3.787514389E0,-2.150182426E-1,-1.400520086E0,1.594464064E0
3.789971056E0,-2.675510943E-1,-1.361425877E0,1.603015900E0
3.792428191E0,-3.274141252E-1,-1.332105160E0,1.609124422E0
3.794885431E0,-3.897205591E-1,-1.324774981E0,1.617676258E0
3.797342149E0,-4.532486796E-1,-1.332105160E0,1.618897915E0
3.799798920E0,-5.179984570E-1,-1.361425877E0,1.620119691E0
3.802255587E0,-5.803049207E-1,-1.401741743E0,1.638445020E0
3.804712410E0,-6.438329816E-1,-1.453052878E0,1.660435557E0
3.807188191E0,-7.049177289E-1,-1.508029222E0,1.686091185E0
3.809626472E0,-7.647807598E-1,-1.549566746E0,1.719076872E0
3.812037202E0,-8.283088803E-1,-1.576444030E0,1.749619246E0
3.814494285E0,-8.930587173E-1,-1.604543090E0,1.787491798E0
3.816952827E0,-9.602518678E-1,-1.622868419E0,1.829029441E0
3.819453504E0,-1.033553600E0,-1.637528777E0,1.868123651E0
3.821910483E0,-1.109298587E0,-1.627755284E0,1.907217860E0
3.824367618E0,-1.177713513E0,-1.578887463E0,1.929208398E0
3.826824233E0,-1.238798261E0,-1.492147088E0,1.926764965E0
3.829280952E0,-1.282779217E0,-1.369977713E0,1.908439517E0
3.831738087E0,-1.318208337E0,-1.214822531E0,1.868123651E0
3.834195379E0,-1.346307397E0,-1.059667230E0,1.809482336E0
3.836652566E0,-1.362189412E0,-9.106205702E-1,1.730072141E0
3.839108712E0,-1.369519591E0,-7.676823139E-1,1.633558273E0
3.841566108E0,-1.360967636E0,-6.418477297E-1,1.543152928E0
3.844022566E0,-1.342642307E0,-5.050179958E-1,1.456412554E0
3.846479389E0,-1.310878277E0,-3.498627543E-1,1.367228866E0
3.848937722E0,-1.266897202E0,-1.898207814E-1,1.279114127E0
3.851393347E0,-1.219251156E0,-2.611372061E-2,1.197260618E0
3.853850222E0,-1.172826767E0,1.021642014E-1,1.125180602E0
3.856306993E0,-1.144727707E0,1.669140160E-1,1.061652541E0
3.858764024E0,-1.136175871E0,1.779092699E-1,1.014006495E0
3.861221004E0,-1.137397647E0,1.449235082E-1,9.712471366E-1
3.863678608E0,-1.148392797E0,1.082726792E-1,9.382613897E-1
3.866135379E0,-1.163053155E0,7.528692484E-2,9.052756429E-1
3.868591368E0,-1.174048424E0,6.062658876E-2,8.735115528E-1
3.871048347E0,-1.186265349E0,4.963133857E-2,8.515210748E-1
3.873505535E0,-1.193595529E0,5.207473040E-2,8.258655071E-1
3.875962462E0,-1.200925708E0,6.551336497E-2,8.050966859E-1
3.878419129E0,-1.208255887E0,9.727742523E-2,7.879929543E-1
3.880876681E0,-1.209477544E0,1.363716573E-1,7.696675658E-1
3.883333452E0,-1.214364409E0,1.803526580E-1,7.476770282E-1
3.885790691E0,-1.220472813E0,2.170034945E-1,7.269082665E-1
3.888246420E0,-1.230246425E0,2.585411072E-1,7.000309825E-1
3.890703608E0,-1.242463350E0,3.013004065E-1,6.731536984E-1
3.893160379E0,-1.255901933E0,3.440597057E-1,6.401679516E-1
3.895617879E0,-1.270562291E0,3.807105422E-1,6.084038615E-1
3.898074389E0,-1.287665963E0,4.185830951E-1,5.851916671E-1
3.900530691E0,-1.299883008E0,4.540122151E-1,5.668662786E-1
3.902987879E0,-1.304769754E0,4.821111858E-1,5.522059202E-1
3.905444754E0,-1.303548098E0,4.943281412E-1,5.460974574E-1
3.907901733E0,-1.301104665E0,4.894413650E-1,5.412106514E-1
3.910358764E0,-1.288887739E0,4.796678126E-1,5.363239050E-1
3.912815327E0,-1.270562291E0,4.735593498E-1,5.289937258E-1
3.915296941E0,-1.248571754E0,4.637857676E-1,5.228852630E-1
3.917729702E0,-1.216807723E0,4.515688419E-1,5.167768002E-1
3.920185795E0,-1.187487125E0,4.454603493E-1,5.106683373E-1
3.922644285E0,-1.154501319E0,4.405735731E-1,5.033381581E-1
3.925100118E0,-1.120293856E0,4.356867969E-1,4.960079789E-1
3.927556993E0,-1.084864736E0,4.246915579E-1,4.874561131E-1
3.930013972E0,-1.044548869E0,3.978142738E-1,4.752391577E-1
3.932470483E0,-1.006676316E0,3.721587062E-1,4.691306949E-1
3.934927670E0,-9.688037634E-1,3.538332880E-1,4.618005157E-1
3.937384389E0,-9.321529269E-1,3.379512429E-1,4.605788291E-1
3.939841681E0,-8.893936276E-1,3.269560039E-1,4.666872919E-1
3.942298295E0,-8.405258060E-1,3.184041381E-1,4.837910235E-1
3.944755587E0,-7.892146707E-1,3.086305857E-1,5.045598149E-1
3.947212097E0,-7.317950130E-1,2.988570333E-1,5.241069198E-1
3.949669129E0,-6.707102656E-1,3.013004065E-1,5.460974574E-1
3.952126108E0,-6.096255779E-1,2.976353168E-1,5.705313683E-1
3.954582410E0,-5.485408306E-1,2.890834510E-1,5.900784731E-1
3.957039493E0,-4.886777997E-1,2.841966748E-1,6.108472347E-1
3.959496160E0,-4.324798584E-1,2.841966748E-1,6.328377724E-1
3.961984597E0,-3.799470067E-1,2.817533016E-1,6.523848772E-1
3.964410222E0,-3.323009014E-1,2.854183912E-1,6.707102656E-1
3.966867514E0,-2.870981991E-1,2.915268540E-1,6.853706241E-1
3.969323764E0,-2.565558553E-1,3.061871827E-1,6.963658929E-1
3.971780899E0,-2.309002578E-1,3.269560039E-1,7.036960125E-1
3.974237358E0,-2.150182426E-1,3.599417508E-1,7.085828185E-1
3.976694962E0,-2.101314515E-1,3.892624080E-1,7.146912813E-1
3.979151472E0,-2.113531530E-1,4.198047817E-1,7.195780873E-1
3.981608347E0,-2.162399292E-1,4.259132445E-1,7.195780873E-1
3.984065118E0,-2.199050188E-1,4.198047817E-1,7.183563709E-1
3.986521993E0,-2.211267054E-1,4.051444530E-1,7.134696245E-1
3.988979181E0,-2.247917950E-1,3.843756318E-1,7.098045349E-1
3.991436733E0,-2.235700935E-1,3.574983478E-1,7.061394453E-1
3.993892618E0,-2.223484069E-1,3.306210935E-1,7.000309825E-1
3.996349702E0,-2.125748396E-1,3.037438095E-1,6.963658929E-1
3.998806577E0,-1.991362125E-1,2.732014358E-1,6.951441765E-1
4.001263608E0,-1.869192570E-1,2.451024652E-1,6.975875497E-1
4.003720118E0,-1.649287641E-1,2.206685692E-1,7.024743557E-1
4.006176941E0,-1.404948682E-1,1.998997629E-1,7.110261917E-1
4.008589702E0,-1.123958975E-1,1.827960461E-1,7.244648337E-1
4.011044962E0,-7.696675509E-2,1.693574041E-1,7.366818190E-1
4.013548243E0,-4.398100078E-2,1.620272398E-1,7.550072074E-1
4.016028399E0,-1.099525020E-2,1.571404636E-1,7.721109390E-1
4.018462045E0,2.076880634E-2,1.510319859E-1,7.867712975E-1
4.020919024E0,4.886778072E-2,1.461452097E-1,8.014315963E-1
4.023375535E0,7.452336699E-2,1.498102844E-1,8.136485219E-1
4.025832410E0,1.001789495E-1,1.473668963E-1,8.160919547E-1
4.028288764E0,1.282779276E-1,1.437018216E-1,8.148702383E-1
4.030745899E0,1.551551968E-1,1.314848661E-1,8.112051487E-1
4.033203243E0,1.856975704E-1,1.107160673E-1,8.063184023E-1
4.035659597E0,2.235700935E-1,8.750387281E-2,8.026533127E-1
4.038116681E0,2.638860047E-1,6.429167092E-2,8.026533127E-1
4.040573295E0,3.054236174E-1,4.107947648E-2,8.026533127E-1
4.043030639E0,3.445178568E-1,2.275406010E-2,8.038749695E-1
4.045487462E0,3.860554695E-1,-5.344913341E-3,8.050966859E-1
4.047944129E0,4.275930822E-1,-1.756185852E-2,8.087617755E-1
4.050401264E0,4.679090083E-1,-4.199574888E-2,8.063184023E-1
4.052857983E0,5.070032477E-1,-4.199574888E-2,8.038749695E-1
4.055315379E0,5.399889946E-1,-5.543438718E-2,7.989882231E-1
4.057771785E0,5.705313683E-1,-5.054761097E-2,7.928797603E-1
4.060228972E0,6.022953987E-1,-5.665608495E-2,7.855495811E-1
4.062709597E0,6.279509664E-1,-5.299099907E-2,7.818844914E-1
4.065142358E0,6.474980712E-1,-4.932591692E-2,7.806627750E-1
4.067599389E0,6.646018028E-1,-4.321744293E-2,7.818844914E-1
4.070056368E0,6.768187881E-1,-4.077405483E-2,7.879929543E-1
4.072513035E0,6.817055345E-1,-3.222219273E-2,7.953231335E-1
4.074970483E0,6.804838181E-1,-2.244863659E-2,8.050966859E-1
4.077426785E0,6.755970716E-1,-6.566607859E-3,8.173136115E-1
4.079884181E0,6.694886088E-1,5.650337320E-3,8.319739699E-1
4.082341004E0,6.609367132E-1,1.420219894E-2,8.490777016E-1
4.084797410E0,6.560499668E-1,2.275406010E-2,8.698465228E-1
4.087254649E0,6.536065936E-1,3.130592033E-2,8.967237473E-1
4.089711524E0,6.511631608E-1,3.985778242E-2,9.272661209E-1
4.092168243E0,6.511631608E-1,5.207473040E-2,9.590302110E-1
4.094625795E0,6.487197876E-1,8.628217876E-2,9.944593310E-1
4.097083087E0,6.316160560E-1,1.644706279E-1,1.034775257E0
4.099539077E0,5.986303091E-1,2.573194206E-1,1.067761064E0
4.101997254E0,5.583143830E-1,3.306210935E-1,1.104411840E0
4.104452566E0,5.241069198E-1,3.782671690E-1,1.142284393E0
4.106910274E0,4.898995161E-1,4.259132445E-1,1.187487125E0
4.109367202E0,4.618005157E-1,4.637857676E-1,1.238798261E0
4.111823660E0,4.385883212E-1,4.992149174E-1,1.303548098E0
4.114280847E0,4.141544402E-1,5.395308137E-1,1.364785433E0
4.116761212E0,3.933856487E-1,5.920637250E-1,1.431978703E0
4.119193972E0,3.677300513E-1,6.531484127E-1,1.497950196E0
4.121650899E0,3.445178568E-1,6.922426820E-1,1.560256600E0
4.124107774E0,3.164188862E-1,7.313368917E-1,1.620119691E0
4.126564597E0,2.858765125E-1,7.679877281E-1,1.676317573E0
4.129022410E0,2.492256761E-1,7.936432958E-1,1.726407051E0
4.131479024E0,2.028012872E-1,8.058602214E-1,1.770388126E0
4.133935535E0,1.490467340E-1,8.156337738E-1,1.815590739E0
4.136392410E0,8.674030751E-2,8.192988634E-1,1.858350039E0
4.138849285E0,2.443389036E-2,8.021951914E-1,1.902331114E0
4.141306264E0,-4.153761268E-2,7.716528177E-1,1.949977160E0
4.143762879E0,-1.087308154E-1,7.435538173E-1,1.997623205E0
4.146219910E0,-1.722589284E-1,7.117897868E-1,2.050156116E0
4.148677045E0,-2.296785712E-1,7.154548764E-1,2.099023819E0
4.151133608E0,-2.736595869E-1,7.472189069E-1,2.144226551E0
4.153590431E0,-2.980934680E-1,7.973083854E-1,2.179655790E0
4.156047410E0,-3.090887070E-1,8.510629535E-1,2.201646328E0
4.158504910E0,-3.066453338E-1,8.950439692E-1,2.207754612E0
4.160961316E0,-2.907632887E-1,9.255862832E-1,2.201646328E0
4.163442149E0,-2.785463631E-1,9.475768209E-1,2.189429283E0
4.165874545E0,-2.565558553E-1,9.426900148E-1,2.179655790E0
4.168331941E0,-2.321219593E-1,9.231429100E-1,2.172325611E0
4.170788972E0,-2.137965411E-1,8.889354467E-1,2.168660402E0
4.173245743E0,-1.966928244E-1,8.400676847E-1,2.167438745E0
4.175702254E0,-1.795890927E-1,7.740961909E-1,2.163773775E0
4.178159181E0,-1.637070626E-1,7.020162344E-1,2.157665253E0
4.180616733E0,-1.502684206E-1,6.226060390E-1,2.145448208E0
4.183072983E0,-1.392731816E-1,5.309789777E-1,2.118571043E0
4.185530118E0,-1.294996142E-1,4.393518865E-1,2.081920147E0
4.187986785E0,-1.185043678E-1,3.807105422E-1,2.042825937E0
4.190443712E0,-1.062874198E-1,3.245126009E-1,2.007396698E0
4.192900483E0,-9.407047927E-2,2.646495700E-1,1.974411011E0
4.195357670E0,-8.674030751E-2,2.096733153E-1,1.941425323E0
4.197814649E0,-7.452336699E-2,1.449235082E-1,1.902331114E0
4.200271941E0,-5.741964281E-2,4.963133857E-2,1.866901994E0
4.202728087E0,-3.787253052E-2,-6.765133142E-2,1.831472754E0
4.205185118E0,-1.221694518E-2,-2.240282297E-1,1.785048366E0
4.207596004E0,1.221694518E-2,-3.828485310E-1,1.739845753E0
4.210052983E0,2.687728032E-2,-4.940227270E-1,1.701973200E0
4.212555483E0,2.932066843E-2,-5.734328628E-1,1.662878990E0
4.215012566E0,2.565558441E-2,-6.332958937E-1,1.622563004E0
4.217493920E0,1.588202827E-2,-6.907155514E-1,1.579803705E0
4.219928764E0,-2.443389036E-3,-7.322531343E-1,1.530935884E0
4.222383504E0,-2.565558441E-2,-7.579087615E-1,1.479624748E0
4.224841108E0,-4.886778072E-2,-7.786775231E-1,1.423426867E0
4.227251889E0,-7.085828483E-2,-7.957812548E-1,1.368450522E0
4.229754285E0,-9.284878522E-2,-8.226585388E-1,1.315765023E0
4.232211577E0,-1.136175916E-1,-8.324320912E-1,1.268118858E0
4.234667410E0,-1.331647038E-1,-8.385405540E-1,1.216807723E0
4.237124545E0,-1.551551968E-1,-8.165500760E-1,1.167939901E0
4.239581420E0,-1.856975704E-1,-7.750124335E-1,1.116628766E0
4.242038191E0,-2.150182426E-1,-7.530219555E-1,1.059209108E0
4.244495587E0,-2.309002578E-1,-7.664605975E-1,9.993461370E-1
4.246952514E0,-2.382304370E-1,-7.896727920E-1,9.333745837E-1
4.249408920E0,-2.382304370E-1,-8.018897176E-1,8.710681796E-1
4.251866577E0,-2.321219593E-1,-7.884510756E-1,8.112051487E-1
4.254323399E0,-2.199050188E-1,-7.725690603E-1,7.513421178E-1
4.256780170E0,-1.966928244E-1,-7.481352091E-1,6.890357137E-1
4.259236941E0,-1.722589284E-1,-7.224795818E-1,6.303943992E-1
4.261693399E0,-1.417165697E-1,-6.956022978E-1,5.729747415E-1
4.264173347E0,-1.111742035E-1,-6.601731777E-1,5.179984570E-1
4.266607774E0,-8.063183725E-2,-6.210789680E-1,4.654656053E-1
4.269064389E0,-4.886778072E-2,-5.856497884E-1,4.178195298E-1
4.271521785E0,-2.687728032E-2,-5.563291311E-1,3.689517379E-1
4.273977722E0,-8.551862091E-3,-5.355603099E-1,3.213056624E-1
4.276434649E0,-1.221694518E-3,-5.172349215E-1,2.809897363E-1
4.278891629E0,0.000000000E0,-5.147915483E-1,2.480039895E-1
4.281349389E0,-7.330167107E-3,-5.233433843E-1,2.076880634E-1
4.283806160E0,-1.588202827E-2,-5.453338623E-1,1.673721522E-1
4.286262983E0,-2.932066843E-2,-5.624375939E-1,1.209477559E-1
4.288719181E0,-4.031591862E-2,-5.526640415E-1,6.963659078E-2
4.291176056E0,-4.520269856E-2,-5.062396526E-1,2.809897438E-2
4.293633243E0,-4.520269856E-2,-4.304946065E-1,-6.108472589E-3
4.296090274E0,-4.275930673E-2,-3.498627543E-1,-3.665083647E-2
4.298547306E0,-4.398100078E-2,-2.728960216E-1,-6.230641901E-2
4.301003712E0,-5.131116882E-2,-2.069245130E-1,-8.185353130E-2
4.303460535E0,-6.841489673E-2,-1.543916464E-1,-9.651386738E-2
4.305917879E0,-9.651386738E-2,-1.189625040E-1,-1.062874198E-1
4.308374702E0,-1.294996142E-1,-8.719844371E-2,-1.221694499E-1
4.310831472E0,-1.624853760E-1,-6.642963737E-2,-1.368297935E-1
4.313288816E0,-1.930277348E-1,-4.321744293E-2,-1.502684206E-1
4.315745014E0,-2.247917950E-1,-1.511846948E-2,-1.649287641E-1
4.318229962E0,-2.504473627E-1,2.275406010E-2,-1.747023165E-1
4.320658556E0,-2.699944973E-1,6.306997687E-2,-1.856975704E-1
4.323115743E0,-2.932066917E-1,1.033858955E-1,-1.991362125E-1
4.325572722E0,-3.151971996E-1,1.437018216E-1,-2.162399292E-1
4.328029493E0,-3.347443044E-1,1.754658818E-1,-2.345653474E-1
4.330486472E0,-3.567348123E-1,2.011214644E-1,-2.504473627E-1
4.332943556E0,-3.750602305E-1,2.145601064E-1,-2.675510943E-1
4.335400639E0,-3.909422457E-1,2.145601064E-1,-2.809897363E-1
4.337857670E0,-4.031592011E-1,1.937913001E-1,-2.932066917E-1
4.340314129E0,-4.129327536E-1,1.656923145E-1,-3.029802442E-1
4.342771108E0,-4.202629030E-1,1.351499557E-1,-3.139754832E-1
4.345228712E0,-4.275930822E-1,1.070509851E-1,-3.274141252E-1
4.347684754E0,-4.324798584E-1,7.650861889E-2,-3.420744538E-1
4.350141577E0,-4.349232614E-1,4.474456236E-2,-3.616215885E-1
4.352599024E0,-4.373666346E-1,2.031067200E-2,-3.823903799E-1
4.355055795E0,-4.349232614E-1,-1.679830020E-3,-4.031592011E-1
4.357512306E0,-4.312581718E-1,-2.244863659E-2,-4.129327536E-1
4.359973452E0,-4.300364852E-1,-4.199574888E-2,-4.104893506E-1
4.362443816E0,-4.263713956E-1,-5.543438718E-2,-3.946073353E-1
4.364906004E0,-4.214846194E-1,-7.009471953E-2,-3.726168275E-1
4.367339754E0,-4.202629030E-1,-8.231166750E-2,-3.518480062E-1
4.369796733E0,-4.202629030E-1,-9.819369763E-2,-3.249707520E-1
4.372253399E0,-4.214846194E-1,-1.055238619E-1,-2.870981991E-1
4.374710535E0,-4.214846194E-1,-1.043021679E-1,-2.394521236E-1
4.377167514E0,-4.239279926E-1,-1.018587798E-1,-1.930277348E-1
4.379624337E0,-4.263713956E-1,-8.719844371E-2,-1.514901221E-1
4.382081420E0,-4.312581718E-1,-6.520794332E-2,-1.233911440E-1
4.384537931E0,-4.349232614E-1,-4.566083103E-2,-1.111742035E-1
4.386995535E0,-4.410317242E-1,-2.122694254E-2,-1.014006436E-1
4.389451577E0,-4.398100376E-1,-2.611372061E-2,-8.796200156E-2
4.391909441E0,-4.312581718E-1,-4.077405483E-2,-7.330167294E-2
4.394365639E0,-4.202629030E-1,-3.100049868E-2,-6.474980712E-2
4.396822358E0,-4.104893506E-1,-1.634016447E-2,-6.230641901E-2
4.399279441E0,-4.043808877E-1,-1.023169141E-2,-6.474980712E-2
4.401736212E0,-3.946073353E-1,8.093725890E-3,-7.452336699E-2
4.404193139E0,-3.897205591E-1,2.519745007E-2,-8.429691941E-2
4.406649754E0,-3.946073353E-1,4.352286831E-2,-9.040539712E-2
4.409107149E0,-3.946073353E-1,7.040014863E-2,-8.918370306E-2
4.411563972E0,-3.933856487E-1,7.895200700E-2,-9.162709117E-2
4.414020639E0,-3.811686933E-1,6.917845458E-2,-1.001789495E-1
4.416478139E0,-3.567348123E-1,3.497100621E-2,-1.111742035E-1
4.418961212E0,-3.213056624E-1,8.093725890E-3,-1.331647038E-1
4.421391733E0,-2.883199155E-1,1.985253533E-3,-1.551551968E-1
4.423848452E0,-2.626643181E-1,1.175880991E-2,-1.759240031E-1
4.426304962E0,-2.455606014E-1,4.963133857E-2,-1.905843467E-1
4.428761941E0,-2.296785712E-1,1.033858955E-1,-2.028012872E-1
4.431219493E0,-2.137965411E-1,1.461452097E-1,-2.113531530E-1
4.433676941E0,-2.040229887E-1,1.754658818E-1,-2.174616307E-1
4.436133295E0,-2.052446753E-1,1.876828223E-1,-2.211267054E-1
4.438590014E0,-2.137965411E-1,1.876828223E-1,-2.211267054E-1
4.441046212E0,-2.321219593E-1,1.693574041E-1,-2.125748396E-1
4.443503712E0,-2.504473627E-1,1.449235082E-1,-1.979145110E-1
4.445960743E0,-2.626643181E-1,1.058292910E-1,-1.808107942E-1
4.448417358E0,-2.748812735E-1,6.306997687E-2,-1.612636745E-1
4.450873920E0,-2.870981991E-1,1.175880991E-2,-1.478250325E-1
4.453331785E0,-2.932066917E-1,-5.054761097E-2,-1.441599578E-1
4.455787618E0,-2.968717813E-1,-1.152974218E-1,-1.417165697E-1
4.458245222E0,-2.883199155E-1,-1.788255423E-1,-1.356080920E-1
4.460701629E0,-2.712161839E-1,-2.289150059E-1,-1.246128380E-1
4.463158452E0,-2.553341687E-1,-2.447970361E-1,-1.062874198E-1
4.465641212E0,-2.418955117E-1,-2.423536479E-1,-9.284878522E-2
4.468095327E0,-2.247917950E-1,-2.289150059E-1,-7.696675509E-2
4.470528972E0,-2.040229887E-1,-2.105895877E-1,-6.108472496E-2
4.473007931E0,-1.808107942E-1,-1.885990947E-1,-4.398100078E-2
4.475467358E0,-1.612636745E-1,-1.824906170E-1,-2.199050039E-2
4.477922514E0,-1.404948682E-1,-1.714953631E-1,3.665083554E-3
4.480385587E0,-1.123958975E-1,-1.776038408E-1,2.076880634E-2
4.482835795E0,-8.551861346E-2,-2.179197669E-1,2.932066843E-2
4.485271212E0,-6.597150117E-2,-2.716743052E-1,3.420744836E-2
4.487749754E0,-5.741964281E-2,-2.973299026E-1,3.542914242E-2
4.490208243E0,-5.253286287E-2,-2.863346636E-1,3.787253052E-2
4.492663712E0,-4.886778072E-2,-2.521272004E-1,4.398100078E-2
4.495125118E0,-3.909422457E-2,-2.276933193E-1,5.619794875E-2
4.497576212E0,-2.565558441E-2,-2.154763639E-1,6.352811307E-2
4.500039129E0,-1.466033421E-2,-2.057028115E-1,6.352811307E-2
4.502491212E0,-3.665083554E-3,-2.044811249E-1,5.619794875E-2
4.504954077E0,1.221694518E-3,-1.885990947E-1,4.398100078E-2
4.507405066E0,3.665083554E-3,-1.714953631E-1,2.687728032E-2
4.509839337E0,6.108472589E-3,-1.690519750E-1,1.221694518E-2
4.512318139E0,9.773556143E-3,-1.727170646E-1,-2.443389036E-3
4.514776889E0,1.099525020E-2,-1.788255423E-1,-1.343864016E-2
4.517232149E0,1.099525020E-2,-1.934858710E-1,-1.954711229E-2
4.519707566E0,9.773556143E-3,-2.020377368E-1,-2.321219631E-2
4.522145535E0,4.886778072E-3,-2.044811249E-1,-2.809897438E-2
4.524606316E0,2.443389036E-3,-1.861557066E-1,-3.176405653E-2
4.527060743E0,-1.221694518E-3,-1.727170646E-1,-3.665083647E-2
4.529494858E0,1.221694518E-3,-1.580567211E-1,-4.398100078E-2
4.531973972E0,4.886778072E-3,-1.433963925E-1,-5.008947477E-2
4.534408504E0,1.343864016E-2,-1.238492802E-1,-6.108472496E-2
4.536887254E0,2.443389036E-2,-1.091889441E-1,-6.963659078E-2
4.539345118E0,3.909422457E-2,-9.330692142E-2,-7.696675509E-2
4.541801004E0,5.619794875E-2,-7.498150319E-2,-8.796200156E-2
4.544264806E0,7.818844914E-2,-6.154286116E-2,-1.001789495E-1
4.546714181E0,9.895725548E-2,-4.932591692E-2,-1.111742035E-1
4.549177931E0,1.172826737E-1,-4.199574888E-2,-1.197260618E-1
4.551628399E0,1.404948682E-1,-3.344388679E-2,-1.233911440E-1
4.554062983E0,1.624853760E-1,-3.222219273E-2,-1.246128380E-1
4.556542514E0,1.869192570E-1,-3.100049868E-2,-1.246128380E-1
4.558977410E0,2.040229887E-1,-3.710897267E-2,-1.246128380E-1
4.561455847E0,2.223484069E-1,-4.443913698E-2,-1.197260618E-1
4.563914858E0,2.394521236E-1,-6.398624927E-2,-1.087308154E-1
4.566370587E0,2.516690791E-1,-8.964183182E-2,-9.284878522E-2
4.568833920E0,2.577775419E-1,-1.214058921E-1,-7.574506104E-2
4.571262097E0,2.553341687E-1,-1.629435122E-1,-5.864133686E-2
4.573746681E0,2.443388999E-1,-2.081461996E-1,-4.398100078E-2
4.576197618E0,2.223484069E-1,-2.386885732E-1,-2.932066843E-2
4.578659649E0,1.979145110E-1,-2.594573796E-1,-1.588202827E-2
4.581089806E0,1.722589284E-1,-2.606790662E-1,-7.330167107E-3
4.583547045E0,1.453816444E-1,-2.521272004E-1,0.000000000E0
4.586002931E0,1.197260618E-1,-2.362451702E-1,3.665083554E-3
4.588459649E0,9.284878522E-2,-2.240282297E-1,4.886778072E-3
4.590916629E0,7.207997888E-2,-2.130329758E-1,3.665083554E-3
4.593373712E0,4.886778072E-2,-2.032594234E-1,-3.665083554E-3
4.595830795E0,2.565558441E-2,-1.959292591E-1,-1.343864016E-2
4.598287358E0,6.108472589E-3,-1.885990947E-1,-2.443389036E-2
4.600698816E0,-1.343864016E-2,-1.800472289E-1,-3.542914242E-2
4.603155587E0,-4.153761268E-2,-1.800472289E-1,-4.520269856E-2
4.605657931E0,-6.352811307E-2,-1.702736765E-1,-5.253286287E-2
4.608114806E0,-8.674030751E-2,-1.605001241E-1,-5.864133686E-2
4.610575668E0,-1.148392856E-1,-1.519482583E-1,-6.230641901E-2
4.613032959E0,-1.380514801E-1,-1.409530044E-1,-6.597150117E-2
4.615489678E0,-1.600419879E-1,-1.311794519E-1,-6.719319522E-2
4.617946501E0,-1.820324808E-1,-1.214058921E-1,-6.597150117E-2
4.620403428E0,-1.979145110E-1,-1.116323397E-1,-6.719319522E-2
4.622860251E0,-2.137965411E-1,-1.006370857E-1,-6.841489673E-2
4.625317074E0,-2.272351831E-1,-8.597674966E-2,-7.330167294E-2
4.627774053E0,-2.418955117E-1,-7.986827940E-2,-8.063183725E-2
4.630231553E0,-2.516690791E-1,-6.642963737E-2,-9.162709117E-2
4.632688116E0,-2.577775419E-1,-5.421269313E-2,-1.014006436E-1
4.635145303E0,-2.602209449E-1,-3.833066672E-2,-1.087308154E-1
4.637601397E0,-2.602209449E-1,-2.733541466E-2,-1.209477559E-1
4.640058584E0,-2.602209449E-1,-2.000524849E-2,-1.319430023E-1
4.642515407E0,-2.577775419E-1,-1.511846948E-2,-1.417165697E-1
4.644972438E0,-2.528907657E-1,-1.511846948E-2,-1.527118087E-1
4.647429209E0,-2.480039895E-1,-1.756185852E-2,-1.600419879E-1
4.649886032E0,-2.492256761E-1,-2.733541466E-2,-1.661504507E-1
4.652343428E0,-2.516690791E-1,-4.077405483E-2,-1.649287641E-1
4.654799886E0,-2.528907657E-1,-5.787777901E-2,-1.612636745E-1
4.657256813E0,-2.577775419E-1,-7.375980914E-2,-1.600419879E-1
4.659713532E0,-2.602209449E-1,-9.575030953E-2,-1.539335102E-1
4.662170303E0,-2.675510943E-1,-1.177408099E-1,-1.453816444E-1
4.664627334E0,-2.773246467E-1,-1.421747059E-1,-1.392731816E-1
4.667084730E0,-2.858765125E-1,-1.666085869E-1,-1.356080920E-1
4.669541501E0,-2.919849753E-1,-1.885990947E-1,-1.331647038E-1
4.671998897E0,-3.017585576E-1,-2.081461996E-1,-1.331647038E-1
4.674454886E0,-3.054236174E-1,-2.264716178E-1,-1.343863904E-1
4.676912074E0,-3.066453338E-1,-2.313583940E-1,-1.356080920E-1
4.679392959E0,-3.042019308E-1,-2.325800955E-1,-1.429382563E-1
4.681826553E0,-2.956500649E-1,-2.154763639E-1,-1.551551968E-1
4.684282386E0,-2.822114229E-1,-1.849340051E-1,-1.661504507E-1
4.686739418E0,-2.663294077E-1,-1.556133330E-1,-1.795890927E-1
4.689196813E0,-2.492256761E-1,-1.250709742E-1,-1.966928244E-1
4.691653688E0,-2.223484069E-1,-9.208522737E-2,-2.211267054E-1
4.694110511E0,-1.930277348E-1,-5.421269313E-2,-2.492256761E-1
4.696566813E0,-1.673721522E-1,-2.901524538E-3,-2.773246467E-1
4.699023845E0,-1.441599578E-1,3.863608837E-2,-2.980934680E-1
4.701480824E0,-1.123958975E-1,5.451811850E-2,-3.139754832E-1
4.703937647E0,-7.574506104E-2,3.497100621E-2,-3.249707520E-1
4.706394730E0,-3.542914242E-2,-4.123218823E-3,-3.261924386E-1
4.708851345E0,9.773556143E-3,-7.375980914E-2,-3.188622594E-1
4.711308324E0,5.986303091E-2,-1.678302884E-1,-2.993151546E-1
4.713765147E0,1.099525094E-1,-2.765611112E-1,-2.797680497E-1
4.716222543E0,1.637070626E-1,-3.840702176E-1,-2.663294077E-1
4.718679678E0,2.150182426E-1,-4.732539058E-1,-2.467822880E-1
4.721135928E0,2.577775419E-1,-5.441122055E-1,-2.186833173E-1
4.723594313E0,2.944283783E-1,-5.966450572E-1,-1.869192570E-1
4.726052438E0,3.164188862E-1,-6.345176101E-1,-1.551551968E-1
4.728509418E0,3.286358118E-1,-6.613948941E-1,-1.270562261E-1
4.730965928E0,3.310792148E-1,-6.638382673E-1,-1.099525094E-1
4.733424730E0,3.237490356E-1,-6.650599241E-1,-9.651386738E-2
4.735879730E0,3.249707520E-1,-6.528429985E-1,-8.551861346E-2
4.738337074E0,3.188622594E-1,-6.491779089E-1,-7.085828483E-2
4.740793845E0,3.017585576E-1,-6.442911625E-1,-5.253286287E-2
4.743250251E0,2.858765125E-1,-6.455128193E-1,-3.420744836E-2
4.745706397E0,2.602209449E-1,-6.308525205E-1,-1.954711229E-2
4.748163688E0,2.394521236E-1,-6.088619828E-1,-1.099525020E-2
4.750618584E0,2.211267054E-1,-5.734328628E-1,-1.221694518E-2
4.753075511E0,1.991362125E-1,-5.367820263E-1,-2.076880634E-2
4.755533324E0,1.820324808E-1,-4.940227270E-1,-3.298575059E-2
4.757989261E0,1.673721522E-1,-4.573718905E-1,-4.642439261E-2
4.760447647E0,1.502684206E-1,-4.133908749E-1,-5.986303091E-2
4.762904834E0,1.331647038E-1,-3.816268146E-1,-6.719319522E-2
4.765361449E0,1.111742035E-1,-3.461976945E-1,-7.085828483E-2
4.767818480E0,8.796200156E-2,-3.107685447E-1,-7.696675509E-2
4.770273272E0,7.207997888E-2,-2.716743052E-1,-8.307522535E-2
4.772731241E0,4.764608666E-2,-2.374668717E-1,-9.162709117E-2
4.775187543E0,2.565558441E-2,-1.983726472E-1,-1.001789495E-1
4.777644470E0,-3.665083554E-3,-1.605001241E-1,-1.075091213E-1
4.780100876E0,-2.687728032E-2,-1.201841980E-1,-1.221694499E-1
4.782558220E0,-4.642439261E-2,-8.964183182E-2,-1.331647038E-1
4.785015772E0,-6.841489673E-2,-5.909947306E-2,-1.404948682E-1
4.787472022E0,-8.185353130E-2,-3.710897267E-2,-1.453816444E-1
4.789928793E0,-9.162709117E-2,-2.244863659E-2,-1.466033459E-1
4.792386866E0,-1.038440317E-1,-1.267508045E-2,-1.478250325E-1
4.794844261E0,-1.233911440E-1,-6.566607859E-3,-1.429382563E-1
4.797253688E0,-1.258345395E-1,4.428642802E-3,-1.343863904E-1
4.799710511E0,-1.294996142E-1,2.031067200E-2,-1.282779276E-1
4.802168480E0,-1.319430023E-1,3.130592033E-2,-1.209477559E-1
4.804672907E0,-1.282779276E-1,4.352286831E-2,-1.172826737E-1
4.807130199E0,-1.319430023E-1,3.985778242E-2,-1.001789495E-1
4.809586501E0,-1.185043678E-1,2.031067200E-2,-7.941014320E-2
4.812044470E0,-1.075091213E-1,-7.788302377E-3,-6.474980712E-2
4.814499001E0,-1.050657257E-1,-3.710897267E-2,-5.131116882E-2
4.816955511E0,-9.407047927E-2,-5.665608495E-2,-5.008947477E-2
4.819411241E0,-9.651386738E-2,-7.498150319E-2,-5.741964281E-2
4.821868532E0,-9.773556143E-2,-8.108997345E-2,-7.330167294E-2
4.824325303E0,-9.529217333E-2,-8.475505561E-2,-8.674030751E-2
4.826782282E0,-1.062874198E-1,-1.152974218E-1,-9.162709117E-2
4.829239522E0,-1.160609797E-1,-1.348445266E-1,-9.773556143E-2
4.831697543E0,-1.221694499E-1,-1.507265568E-1,-1.014006436E-1
4.834154470E0,-1.307213157E-1,-1.653869003E-1,-1.099525094E-1
4.836611397E0,-1.368297935E-1,-1.739387512E-1,-1.209477559E-1
4.839068220E0,-1.478250325E-1,-1.788255423E-1,-1.319430023E-1
4.841526813E0,-1.649287641E-1,-1.885990947E-1,-1.478250325E-1
4.843983584E0,-1.783674061E-1,-1.947075576E-1,-1.624853760E-1
4.846440928E0,-1.844758689E-1,-2.008160353E-1,-1.759240031E-1
4.848897126E0,-2.040229887E-1,-2.093679011E-1,-1.869192570E-1
4.851353949E0,-2.199050188E-1,-2.191414535E-1,-1.966928244E-1
4.853811032E0,-2.284568697E-1,-2.276933193E-1,-2.028012872E-1
4.856267438E0,-2.418955117E-1,-2.313583940E-1,-2.052446753E-1
4.858724574E0,-2.663294077E-1,-2.325800955E-1,-2.101314515E-1
4.861181761E0,-2.834331393E-1,-2.435753495E-1,-2.186833173E-1
4.863639991E0,-2.919849753E-1,-2.545706034E-1,-2.211267054E-1
4.866050720E0,-2.907632887E-1,-2.619007528E-1,-2.174616307E-1
4.868551032E0,-2.956500649E-1,-2.728960216E-1,-2.174616307E-1
4.871006136E0,-2.883199155E-1,-2.875563502E-1,-2.211267054E-1
4.873463063E0,-2.724378705E-1,-3.034383655E-1,-2.296785712E-1
4.875920668E0,-2.614426315E-1,-3.278722763E-1,-2.467822880E-1
4.878377438E0,-2.480039895E-1,-3.559712470E-1,-2.663294077E-1
4.880838376E0,-2.345653474E-1,-3.865135908E-1,-2.846548259E-1
4.883293376E0,-2.211267054E-1,-4.109475017E-1,-2.968717813E-1
4.885750563E0,-1.942494214E-1,-4.329380095E-1,-3.005368412E-1
4.888208220E0,-1.600419879E-1,-4.488200247E-1,-3.103103936E-1
4.890664105E0,-1.343863904E-1,-4.732539058E-1,-3.225273490E-1
4.893121709E0,-9.651386738E-2,-5.025745630E-1,-3.286358118E-1
4.895582126E0,-6.108472496E-2,-5.233433843E-1,-3.335226178E-1
4.898033793E0,-1.710372418E-2,-5.367820263E-1,-3.371876776E-1
4.900490407E0,2.809897438E-2,-5.477772951E-1,-3.420744538E-1
4.902945980E0,7.330167294E-2,-5.453338623E-1,-3.432961702E-1
4.905402751E0,1.160609797E-1,-5.404471159E-1,-3.457395434E-1
4.907859626E0,1.539335102E-1,-5.257867575E-1,-3.445178568E-1
4.910318116E0,1.905843467E-1,-5.099047422E-1,-3.408527672E-1
4.912774782E0,2.247917950E-1,-4.928010404E-1,-3.371876776E-1
4.915232178E0,2.602209449E-1,-4.805840850E-1,-3.359659910E-1
4.917688688E0,2.834331393E-1,-4.683671296E-1,-3.359659910E-1
4.920164157E0,3.127537966E-1,-4.500417113E-1,-3.286358118E-1
4.922602543E0,3.359659910E-1,-4.329380095E-1,-3.151971996E-1
4.925060199E0,3.603998721E-1,-4.194993675E-1,-3.078670204E-1
4.927517386E0,3.860554695E-1,-4.133908749E-1,-3.078670204E-1
4.929997386E0,4.068242610E-1,-4.085040987E-1,-3.103103936E-1
4.932430563E0,4.239279926E-1,-4.023956358E-1,-3.090887070E-1
4.934887595E0,4.361449480E-1,-4.036173224E-1,-3.078670204E-1
4.937343688E0,4.471401870E-1,-4.048390090E-1,-2.932066917E-1
4.939800876E0,4.556920528E-1,-4.109475017E-1,-2.638860047E-1
4.942256449E0,4.593571424E-1,-4.182776511E-1,-2.455606014E-1
