"Time (s)","Acceleration x (m/s^2)","Acceleration y (m/s^2)","Acceleration z (m/s^2)"
2.435814100E-2,3.487964869E-1,3.904659033E0,8.648437500E0
2.691782900E-2,3.631610870E-1,3.914235353E0,8.763355255E0
2.948616200E-2,3.966784477E-1,3.875929594E0,8.892636299E0
3.205423500E-2,4.206194282E-1,3.823259354E0,8.988399506E0
3.461949500E-2,4.254076481E-1,3.732283592E0,9.079376221E0
3.718834900E-2,4.589250088E-1,3.650884390E0,9.155986786E0
3.975397400E-2,5.020187497E-1,3.588637590E0,9.179927826E0
4.232017200E-2,5.211715698E-1,3.555120468E0,9.213445663E0
4.489595400E-2,5.786299109E-1,3.459356546E0,9.270903587E0
4.745590200E-2,5.929945111E-1,3.406686068E0,9.318785667E0
5.002282900E-2,6.217236519E-1,3.339651346E0,9.385821342E0
5.259236000E-2,5.882063508E-1,3.301345825E0,9.486372948E0
5.515918300E-2,5.690535307E-1,3.296557665E0,9.500738144E0
5.772782900E-2,5.738417506E-1,3.258252144E0,9.539042473E0
6.029475600E-2,6.121472716E-1,3.224734783E0,9.596502304E0
6.286637000E-2,5.929945111E-1,3.181640863E0,9.673112869E0
6.543079700E-2,6.552411318E-1,3.148123741E0,9.687477112E0
6.797558900E-2,6.935466528E-1,3.124182701E0,9.677901268E0
7.056756800E-2,7.366403937E-1,3.076300621E0,9.644382477E0
7.313350600E-2,7.845224142E-1,3.047571421E0,9.582137108E0
7.570147400E-2,8.132516146E-1,2.985324860E0,9.486372948E0
7.827095400E-2,8.276161551E-1,2.942231178E0,9.495948792E0
8.083861000E-2,8.036751747E-1,2.913501978E0,9.486372948E0
8.340553700E-2,7.270640731E-1,2.860831738E0,9.577348709E0
8.597371400E-2,6.696056724E-1,2.841678858E0,9.697053909E0
8.854147400E-2,6.217236519E-1,2.846467257E0,9.740146637E0
9.110553700E-2,5.690535307E-1,2.832102776E0,9.744935989E0
9.360204700E-2,4.828659892E-1,2.846467257E0,9.711418152E0
9.614121400E-2,4.158312082E-1,2.884772778E0,9.658747673E0
9.866199500E-2,3.009144664E-1,2.903925657E0,9.644382477E0
1.011780370E-1,1.812095344E-1,2.927866459E0,9.653960228E0
1.036980370E-1,7.586919516E-2,2.975748539E0,9.644382477E0
1.061948600E-1,-3.425934911E-2,2.985324860E0,9.620443344E0
1.087285060E-1,-1.491760761E-1,2.975748539E0,9.625230789E0
1.112486620E-1,-2.162108570E-1,3.004477739E0,9.582137108E0
1.137649640E-1,-2.449400276E-1,3.009265900E0,9.553407669E0
1.162842870E-1,-2.209990770E-1,2.947019339E0,9.486372948E0
1.187997560E-1,-1.970580667E-1,2.899137497E0,9.428915024E0
1.213159540E-1,-1.683288813E-1,2.860831738E0,9.361880302E0
1.238350680E-1,-1.395996958E-1,2.779432535E0,9.290057182E0
1.263510060E-1,-8.692951500E-2,2.736338615E0,9.189504623E0
1.288681410E-1,8.834432811E-3,2.745914936E0,9.108104706E0
1.313652240E-1,1.841082424E-2,2.683668375E0,9.055435181E0
1.339074640E-1,-3.407040238E-1,2.520869732E0,9.017129898E0
1.364029330E-1,-1.102027297E0,2.176119328E0,9.141622543E0
1.389391310E-1,-5.705374479E-1,2.286248207E0,9.299633026E0
1.414573080E-1,-4.364679456E-1,2.396376610E0,9.065011978E0
1.439772040E-1,-1.204469055E-1,2.458623171E0,8.916577339E0
1.464929850E-1,8.544559032E-2,2.540022373E0,8.830389977E0
1.489916830E-1,1.333275586E-1,2.535234451E0,8.830389977E0
1.515002240E-1,-2.545164227E-1,2.200060368E0,8.935729980E0
1.540212140E-1,-1.183426738E0,1.582383156E0,9.223021507E0
1.565390270E-1,-1.465930343E0,1.410008073E0,9.596502304E0
1.590571520E-1,-1.360589981E0,1.558442116E0,9.634806633E0
1.615742870E-1,-1.173850298E0,1.726029038E0,9.347515106E0
1.640916310E-1,-8.051591516E-1,1.874463201E0,9.055435181E0
1.666091310E-1,-4.268915057E-1,1.965438962E0,8.935729980E0
1.691284540E-1,-1.060823202E-1,1.989380002E0,8.854331017E0
1.716480370E-1,1.955741346E-1,1.912768722E0,8.744201660E0
1.741613180E-1,4.972305894E-1,1.764334679E0,8.624496460E0
1.766798080E-1,7.605814338E-1,1.625476956E0,8.461698532E0
1.791972040E-1,1.095755339E0,1.467466474E0,8.308475494E0
1.816758490E-1,1.378258944E0,1.285514951E0,8.212712288E0
1.842314740E-1,1.679915428E0,1.074834347E0,8.145677567E0
1.867492350E-1,1.876231551E0,8.689416647E-1,8.126524925E0
1.892664220E-1,1.904960632E0,6.055908203E-1,8.198348045E0
1.917842870E-1,1.746950150E0,3.470281363E-1,8.409029007E0
1.943024640E-1,1.584151387E0,8.367731422E-2,8.681956291E0
1.968192870E-1,1.421352744E0,-1.030623987E-1,8.935729980E0
1.993372040E-1,1.301647782E0,-2.754375041E-1,9.122469902E0
2.018546520E-1,1.196307421E0,-3.759896755E-1,9.328361511E0
2.043714220E-1,1.191519260E0,-4.238716364E-1,9.505525589E0
2.068904330E-1,1.143637300E0,-4.286598265E-1,9.759300232E0
2.094084020E-1,1.071814299E0,-4.526008368E-1,1.013278008E1
2.119245990E-1,9.952031374E-1,-4.669654071E-1,1.056850624E1
2.144422040E-1,8.707099557E-1,-4.526008368E-1,1.085100842E1
2.169630890E-1,7.797342539E-1,-4.238716364E-1,1.101380825E1
2.194775680E-1,7.079112530E-1,-3.999306262E-1,1.109041882E1
2.219947040E-1,6.360883117E-1,-3.568368852E-1,1.120054817E1
2.245131930E-1,5.690535307E-1,-3.137430847E-1,1.129152298E1
2.270297040E-1,4.876542091E-1,-2.658611238E-1,1.136813450E1
2.295475680E-1,4.397721887E-1,-1.748853624E-1,1.144953346E1
2.320645470E-1,4.445604086E-1,-1.413679719E-1,1.145432186E1
2.345819430E-1,4.206194282E-1,-5.518042669E-2,1.139207554E1
2.371002770E-1,4.685013890E-1,3.579533845E-2,1.134419346E1
2.395702240E-1,4.589250088E-1,8.367731422E-2,1.116703033E1
2.420883490E-1,4.972305894E-1,1.219828799E-1,1.099465466E1
2.446520990E-1,4.972305894E-1,1.459238827E-1,1.088452721E1
2.471706410E-1,5.786299109E-1,2.464760244E-1,1.081749153E1
2.496870990E-1,6.600292921E-1,2.847815752E-1,1.073609257E1
2.522052770E-1,5.690535307E-1,2.847815752E-1,1.055892849E1
2.547234540E-1,5.115951300E-1,2.560524046E-1,1.034346008E1
2.572399640E-1,5.690535307E-1,2.321114242E-1,1.020460320E1
2.597579330E-1,6.408764720E-1,2.129586041E-1,1.006574440E1
2.622748080E-1,7.653695941E-1,1.890176535E-1,9.917310715E0
2.647924640E-1,9.042273760E-1,2.608406246E-1,9.859851837E0
2.673101720E-1,8.515571952E-1,9.120355248E-1,9.984345436E0
2.698284540E-1,8.707099557E-1,1.132292509E0,1.003701591E1
2.723448600E-1,9.042273760E-1,1.012587667E0,9.998709679E0
2.748623600E-1,9.999912977E-1,9.264000058E-1,9.965192795E0
2.773798080E-1,1.143637300E0,8.354243040E-1,9.917310715E0
2.798976720E-1,1.335165143E0,7.779659033E-1,9.907733917E0
2.824161100E-1,1.497963905E0,7.971187234E-1,9.969981194E0
2.849334020E-1,1.655974388E0,8.019069433E-1,1.002265072E1
2.874497560E-1,1.785255790E0,8.162714839E-1,1.007532120E1
2.899674640E-1,1.943266273E0,8.066951036E-1,1.018544960E1
2.924850680E-1,2.086912155E0,7.827541232E-1,1.031473064E1
2.950028290E-1,2.134793997E0,7.875422835E-1,1.043443584E1
2.975454330E-1,2.211405277E0,7.444485426E-1,1.054935265E1
3.000378290E-1,2.264075518E0,7.205075622E-1,1.073130417E1
3.025551200E-1,2.268863678E0,6.774138212E-1,1.086058617E1
3.050723080E-1,2.268863678E0,6.678373814E-1,1.101859570E1
3.075918910E-1,2.254498959E0,5.912262201E-1,1.115266609E1
3.101086100E-1,2.168311357E0,5.577088594E-1,1.122927666E1
3.126254850E-1,2.082123995E0,5.672852397E-1,1.129152298E1
3.151430890E-1,1.967207313E0,4.954622984E-1,1.130588818E1
3.176613180E-1,1.823561311E0,5.050386786E-1,1.127715874E1
3.201775160E-1,1.679915428E0,4.906741381E-1,1.115745354E1
3.226954850E-1,1.507540345E0,4.715213180E-1,1.098986721E1
3.252138180E-1,1.316012383E0,4.523684978E-1,1.075045681E1
3.277304850E-1,1.129272699E0,4.523684978E-1,1.045358849E1
3.302489740E-1,9.808384776E-1,4.763094783E-1,1.016629696E1
3.327657450E-1,7.701578140E-1,5.146150589E-1,9.879004478E0
3.352829850E-1,5.929945111E-1,5.002505183E-1,9.639595032E0
3.378005370E-1,4.158312082E-1,5.289796591E-1,9.395397186E0
3.403189740E-1,2.147269249E-1,5.289796591E-1,9.246962547E0
3.428360060E-1,5.671640486E-2,6.008026004E-1,9.093740463E0
3.453541310E-1,-1.300233006E-1,5.624970794E-1,9.050646782E0
3.478950680E-1,-3.167629838E-1,6.343199611E-1,9.041070938E0
3.503876200E-1,-5.513846874E-1,7.013548017E-1,9.036281586E0
3.529058490E-1,-7.189715505E-1,8.114833236E-1,9.050646782E0
3.554234020E-1,-9.104995131E-1,8.641535044E-1,9.088953018E0
3.579410580E-1,-1.092450976E0,9.024590254E-1,9.074587822E0
3.604583490E-1,-1.240885139E0,1.046105027E0,9.084163666E0
3.629759540E-1,-1.379742861E0,1.184962749E0,9.041070938E0
3.654935060E-1,-1.547329664E0,1.323820591E0,9.060222626E0
3.680122560E-1,-1.676611066E0,1.462678194E0,9.079376221E0
3.705289740E-1,-1.805892348E0,1.639841557E0,9.065011978E0
3.730461100E-1,-1.906444550E0,1.836157680E0,9.084163666E0
3.755642870E-1,-1.968690991E0,2.018108845E0,9.136835098E0
3.780806410E-1,-1.973479390E0,2.209636927E0,9.179927826E0
3.805994430E-1,-1.954326510E0,2.425105810E0,9.246962547E0
3.831162140E-1,-1.925597310E0,2.616633654E0,9.203868866E0
3.856344950E-1,-2.011785030E0,2.731550455E0,8.897424698E0
3.881517870E-1,-2.045302391E0,2.865619898E0,8.696319580E0
3.906688180E-1,-1.810680628E0,2.951807499E0,8.859118462E0
3.931862660E-1,-1.556906104E0,3.047571421E0,9.021918297E0
3.957044430E-1,-1.283978820E0,3.148123741E0,9.175139427E0
3.982461620E-1,-9.775342345E-1,3.148123741E0,9.275691986E0
4.007566830E-1,-7.141833901E-1,3.081089020E0,9.352302551E0
4.032563700E-1,-4.173151851E-1,3.066724062E0,9.400184631E0
4.057741830E-1,-1.587524861E-1,2.980536699E0,9.438490868E0
4.082915270E-1,8.544559032E-2,2.856043577E0,9.452856064E0
4.108096520E-1,3.535846472E-1,2.731550455E0,9.452856064E0
4.133264740E-1,5.403243303E-1,2.635786533E0,9.448066711E0
4.158440270E-1,7.940987945E-1,2.453835011E0,9.443279266E0
4.183629330E-1,9.616857171E-1,2.310189247E0,9.404973984E0
4.208791830E-1,1.134060860E0,2.161754847E0,9.395397186E0
4.233964740E-1,1.258554101E0,1.975015521E0,9.361880302E0
4.259142870E-1,1.402199864E0,1.831369400E0,9.361880302E0
4.284315790E-1,1.545845866E0,1.687723517E0,9.337939262E0
4.309500680E-1,1.632033467E0,1.491407394E0,9.318785667E0
4.334669430E-1,1.684703588E0,1.352549672E0,9.328361511E0
4.359848600E-1,1.727797389E0,1.194539189E0,9.313998222E0
4.385016310E-1,1.727797389E0,1.041316748E0,9.294844627E0
4.410201200E-1,1.679915428E0,9.694938064E-1,9.290057182E0
4.435368910E-1,1.608092427E0,8.354243040E-1,9.280479431E0
4.460714740E-1,1.497963905E0,7.588131428E-1,9.275691986E0
4.485972560E-1,1.392623544E0,6.630491614E-1,9.237386703E0
4.510892350E-1,1.210672021E0,5.960144401E-1,9.199080467E0
4.536043910E-1,9.664739370E-1,5.337678790E-1,9.170351982E0
4.561254330E-1,7.510050535E-1,4.810976982E-1,9.141622543E0
4.586429850E-1,5.020187497E-1,4.284275174E-1,9.117681503E0
4.611596520E-1,3.344318867E-1,4.332157373E-1,9.079376221E0
4.636781930E-1,1.955741346E-1,4.619449377E-1,9.021918297E0
4.661955890E-1,-2.468295395E-2,4.810976982E-1,9.007553101E0
4.687122560E-1,-2.114226669E-1,5.289796591E-1,8.997977257E0
4.712297040E-1,-3.790095448E-1,6.247436404E-1,9.002764702E0
4.737478290E-1,-5.370200872E-1,7.013548017E-1,8.983612061E0
4.762648080E-1,-6.615132093E-1,8.210597634E-1,8.978823662E0
4.787821520E-1,-8.482529521E-1,9.551292062E-1,9.069799423E0
4.812997560E-1,-9.823225141E-1,1.093987107E0,9.165563583E0
4.838176200E-1,-1.092450976E0,1.199327469E0,9.294844627E0
4.863348600E-1,-1.169062138E0,1.347761512E0,9.500738144E0
4.888523080E-1,-1.207367659E0,1.515348434E0,9.706629753E0
4.913698600E-1,-1.183426738E0,1.620688796E0,9.946040154E0
4.938882450E-1,-1.216944098E0,1.687723517E0,1.017587280E1
4.964048080E-1,-1.197791338E0,1.802640319E0,1.035303688E1
4.989234020E-1,-1.169062138E0,1.845734000E0,1.048710632E1
5.014673080E-1,-1.154697418E0,1.879251480E0,1.057329369E1
5.039574640E-1,-1.164273977E0,1.826581240E0,1.056850624E1
5.064750160E-1,-1.135544658E0,1.793063879E0,1.053977585E1
5.089924640E-1,-1.125968337E0,1.721240878E0,1.047274208E1
5.115101720E-1,-1.073298216E0,1.596747756E0,1.038655376E1
5.140279330E-1,-9.918988347E-1,1.486619115E0,1.030036640E1
5.165451200E-1,-9.104995131E-1,1.371702433E0,1.022375488E1
5.190634540E-1,-8.626174927E-1,1.242421150E0,1.015193176E1
5.215805890E-1,-7.764299512E-1,1.098775148E0,1.011841488E1
5.240977240E-1,-7.093952298E-1,9.694938064E-1,1.008968544E1
5.266152240E-1,-6.088430882E-1,9.024590254E-1,1.006574440E1
5.291335580E-1,-5.849021077E-1,7.971187234E-1,1.000828648E1
5.316507450E-1,-5.561729074E-1,7.157193422E-1,1.001307487E1
5.341689740E-1,-5.370200872E-1,6.199554205E-1,1.001307487E1
5.366854330E-1,-4.891381264E-1,5.433442593E-1,9.941251755E0
5.392028810E-1,-3.694331646E-1,4.715213180E-1,9.955615997E0
5.417203810E-1,-2.947115153E-2,3.087225854E-1,1.008489799E1
5.442391310E-1,-2.401518375E-1,2.752051950E-1,1.025727272E1
5.467564740E-1,-4.268915057E-1,2.799933851E-1,1.010883904E1
5.492918910E-1,-5.274437070E-1,3.278753757E-1,9.826334953E0
5.517904850E-1,-5.657492876E-1,3.757573366E-1,9.548620224E0
5.543080890E-1,-6.232076287E-1,4.427921176E-1,9.385821342E0
5.568261100E-1,-7.381243706E-1,5.481324196E-1,9.232599258E0
5.593436100E-1,-8.769821525E-1,6.726256013E-1,9.141622543E0
5.618605890E-1,-1.025416255E0,7.827541232E-1,9.103317261E0
5.643782970E-1,-1.145121098E0,9.264000058E-1,9.103317261E0
5.668957450E-1,-1.236096859E0,1.060469627E0,9.088953018E0
5.694145990E-1,-1.351013541E0,1.170598149E0,9.127258301E0
5.719309540E-1,-1.461142182E0,1.256785750E0,9.223021507E0
5.744484540E-1,-1.580847025E0,1.342973351E0,9.347515106E0
5.769656930E-1,-1.633517265E0,1.414796352E0,9.481584549E0
5.794834540E-1,-1.743645787E0,1.472254634E0,9.567771912E0
5.820021520E-1,-1.781951308E0,1.539289474E0,9.687477112E0
5.845184020E-1,-1.810680628E0,1.563230395E0,9.749723434E0
5.870356930E-1,-1.767586827E0,1.591959596E0,9.821546555E0
5.895544430E-1,-1.805892348E0,1.582383156E0,9.869428635E0
5.920710580E-1,-1.796315908E0,1.563230395E0,9.936464310E0
5.945895990E-1,-1.753222227E0,1.505771995E0,9.984345436E0
5.971062140E-1,-1.743645787E0,1.462678194E0,1.002265072E1
5.996240270E-1,-1.719704866E0,1.414796352E0,1.003701591E1
6.021664220E-1,-1.729281187E0,1.362125993E0,1.006095695E1
6.046597040E-1,-1.719704866E0,1.275938511E0,1.007053280E1
6.071770470E-1,-1.772374988E0,1.189750910E0,1.008010864E1
6.096938700E-1,-1.839409709E0,1.084410667E0,1.011362648E1
6.122112660E-1,-1.868138909E0,9.838584065E-1,1.010883904E1
6.147287140E-1,-1.882503629E0,9.024590254E-1,1.008968544E1
6.172463700E-1,-1.939962029E0,8.689416647E-1,1.007053280E1
6.197642870E-1,-1.987843871E0,8.545771241E-1,9.993922234E0
6.222823600E-1,-1.992632031E0,8.593652844E-1,9.907733917E0
6.247990790E-1,-2.026149511E0,8.737298846E-1,9.788028717E0
6.273164740E-1,-2.011785030E0,8.880944848E-1,9.697053909E0
6.298347560E-1,-1.949538350E0,9.024590254E-1,9.596502304E0
6.323516310E-1,-1.896868110E0,9.168236852E-1,9.534255028E0
6.348691310E-1,-1.844197989E0,8.976708651E-1,9.510313988E0
6.373872560E-1,-1.781951308E0,8.497889042E-1,9.562983513E0
6.399053290E-1,-1.662246466E0,6.965665221E-1,9.510313988E0
6.424218390E-1,-1.547329664E0,5.289796591E-1,9.472007751E0
6.449393390E-1,-1.556906104E0,4.188511372E-1,9.486372948E0
6.474566830E-1,-1.571270704E0,4.044865072E-1,9.553407669E0
6.499743390E-1,-1.542541504E0,4.427921176E-1,9.548620224E0
6.524919950E-1,-1.561694384E0,4.667330980E-1,9.519889832E0
6.550094430E-1,-1.556906104E0,4.475802779E-1,9.476797104E0
6.575272040E-1,-1.528176904E0,4.619449377E-1,9.448066711E0
6.600445990E-1,-1.489871383E0,4.763094783E-1,9.457643509E0
6.625620470E-1,-1.552117944E0,5.146150589E-1,9.443279266E0
6.650793910E-1,-1.676611066E0,5.098268390E-1,9.524679184E0
6.675972560E-1,-1.729281187E0,5.146150589E-1,9.596502304E0
6.701148080E-1,-1.887291670E0,5.577088594E-1,9.697053909E0
6.726322560E-1,-2.045302391E0,6.008026004E-1,9.768877029E0
6.751493390E-1,-2.212889433E0,6.055908203E-1,9.831122398E0
6.776673600E-1,-2.433146238E0,6.726256013E-1,9.869428635E0
6.801845470E-1,-2.619886160E0,6.965665221E-1,9.855063438E0
6.827033490E-1,-2.797049284E0,7.492367625E-1,9.821546555E0
6.852199120E-1,-2.931118727E0,7.540249228E-1,9.754511833E0
6.877373080E-1,-3.031671047E0,7.540249228E-1,9.639595032E0
6.902545990E-1,-3.108282328E0,6.965665221E-1,9.500738144E0
6.927720470E-1,-3.127434969E0,6.917783618E-1,9.366667747E0
6.952898600E-1,-3.194469929E0,6.965665221E-1,9.242175102E0
6.978331930E-1,-3.247139931E0,6.247436404E-1,9.108104706E0
7.003248080E-1,-3.266292810E0,5.577088594E-1,9.007553101E0
7.028671520E-1,-3.261504650E0,4.284275174E-1,8.950095177E0
7.053597560E-1,-3.160952330E0,2.847815752E-1,8.916577339E0
7.078772560E-1,-3.041247368E0,9.804189950E-2,8.935729980E0
7.103949640E-1,-2.940695286E0,-7.433321327E-2,8.930941582E0
7.129124640E-1,-2.816202164E0,-2.850139141E-1,8.930941582E0
7.154308490E-1,-2.696497440E0,-4.956946075E-1,8.930941582E0
7.179475680E-1,-2.557639599E0,-6.345523000E-1,8.921365738E0
7.204660580E-1,-2.461875677E0,-7.829864621E-1,8.878272057E0
7.229825680E-1,-2.332594395E0,-8.835385442E-1,8.782507896E0
7.255000160E-1,-2.236830235E0,-1.113371968E0,8.547885895E0
7.280184020E-1,-1.949538350E0,-1.218712330E0,8.174407005E0
7.305351200E-1,-1.437201262E0,-1.266594291E0,7.681222439E0
7.330535580E-1,-9.679579139E-1,-1.237865210E0,7.178462029E0
7.355238180E-1,-7.093952298E-1,-1.113371968E0,6.752311707E0
7.380877240E-1,-7.429125905E-1,-9.888789654E-1,6.527266979E0
7.406059540E-1,-7.716417909E-1,-7.925628424E-1,6.431502819E0
7.431229330E-1,-7.668535709E-1,-6.106113791E-1,6.359679699E0
7.456402240E-1,-6.184194684E-1,-4.382362366E-1,6.388408661E0
7.481580890E-1,-4.987145066E-1,-2.036145329E-1,6.642183304E0
7.506754330E-1,-3.933741450E-1,1.185434312E-2,7.015662670E0
7.531939220E-1,-3.790095448E-1,2.321114242E-1,7.465753555E0
7.557111620E-1,-3.790095448E-1,4.619449377E-1,7.853597164E0
7.582279850E-1,-3.550685644E-1,6.917783618E-1,8.188771248E0
7.607465270E-1,-3.502804041E-1,8.210597634E-1,8.514369011E0
7.632631410E-1,-3.119748235E-1,8.689416647E-1,8.772932053E0
7.657813700E-1,-2.928220034E-1,8.162714839E-1,8.969247818E0
7.682985060E-1,-2.736692429E-1,6.869902015E-1,9.117681503E0
7.708169430E-1,-2.305754274E-1,4.810976982E-1,9.232599258E0
7.733334020E-1,-1.874816865E-1,2.177468240E-1,9.251750946E0
7.758508490E-1,-1.826934665E-1,-5.996862054E-2,9.256539345E0
7.783683490E-1,-1.587524861E-1,-3.759896755E-1,9.223021507E0
7.808863700E-1,-1.539642811E-1,-6.728578806E-1,9.141622543E0
7.834039740E-1,-2.497282177E-1,-9.457851648E-1,9.088953018E0
7.859213700E-1,-3.215512037E-1,-1.185194969E0,9.026705742E0
7.884385580E-1,-4.221033454E-1,-1.386299372E0,8.907000542E0
7.909557970E-1,-4.843499660E-1,-1.577827215E0,8.844755173E0
7.934734540E-1,-5.035027266E-1,-1.692743897E0,8.787296295E0
7.959913180E-1,-5.370200872E-1,-1.750202298E0,8.715473175E0
7.985088180E-1,-5.130791664E-1,-1.788507819E0,8.667591095E0
8.010261620E-1,-4.651971459E-1,-1.783719659E0,8.610133171E0
8.035679330E-1,-4.125269651E-1,-1.783719659E0,8.552674294E0
8.060612140E-1,-3.167629838E-1,-1.783719659E0,8.543097496E0
8.085789220E-1,-1.731170863E-1,-1.874695420E0,8.576615334E0
8.110964220E-1,9.023378789E-2,-2.047070742E0,8.653226852E0
8.136144950E-1,3.152790666E-1,-2.161987543E0,8.710684776E0
8.161311620E-1,4.828659892E-1,-2.305633307E0,8.748991013E0
8.186496520E-1,6.121472716E-1,-2.463643789E0,8.715473175E0
8.211663180E-1,7.270640731E-1,-2.698265553E0,8.677167892E0
8.236838700E-1,7.845224142E-1,-2.928099155E0,8.624496460E0
8.262010580E-1,1.023932338E0,-3.148355961E0,8.552674294E0
8.287188700E-1,1.397411823E0,-3.292001963E0,8.567038536E0
8.312367870E-1,1.766102910E0,-3.325519323E0,8.614920616E0
8.337539740E-1,1.995936394E0,-3.248908281E0,8.581403732E0
8.362718910E-1,2.024665594E0,-3.004709959E0,8.552674294E0
8.387889740E-1,1.957630873E0,-2.741359234E0,8.432970047E0
8.413063180E-1,1.833137631E0,-2.463643789E0,8.279747009E0
8.438250160E-1,1.723009109E0,-2.157199144E0,8.131313324E0
8.463417870E-1,1.627245188E0,-1.841178060E0,7.925420761E0
8.488593910E-1,1.545845866E0,-1.611344576E0,7.848809242E0
8.513776200E-1,1.521904945E0,-1.496427774E0,7.762621880E0
8.538938700E-1,1.445293665E0,-1.429393053E0,7.604611397E0
8.564118910E-1,1.349529743E0,-1.415028453E0,7.480117798E0
8.589291310E-1,1.196307421E0,-1.458122253E0,7.346048355E0
8.614475680E-1,1.009567738E0,-1.558674335E0,7.216767311E0
8.639650680E-1,7.270640731E-1,-1.764566779E0,6.804982185E0
8.664823080E-1,4.685013890E-1,-1.951306581E0,6.527266979E0
8.690004330E-1,3.918902278E-1,-2.080588102E0,6.651760101E0
8.715170990E-1,3.344318867E-1,-2.219445705E0,6.752311707E0
8.740348600E-1,2.243033051E-1,-2.372668028E0,6.852864265E0
8.765519430E-1,-5.530156195E-3,-2.478008270E0,7.020451546E0
8.790702770E-1,-2.066344768E-1,-2.559407711E0,7.154520988E0
8.815869950E-1,-4.795616865E-1,-2.712630033E0,7.231132030E0
8.841054850E-1,-6.232076287E-1,-2.832334995E0,7.250284195E0
8.866232970E-1,-7.093952298E-1,-3.071744919E0,7.207190990E0
8.891394430E-1,-6.854541898E-1,-3.363825083E0,7.015662670E0
8.916577240E-1,-5.801138878E-1,-3.718151569E0,6.661336422E0
8.941747560E-1,-3.263394237E-1,-4.067689896E0,6.110693455E0
8.966923080E-1,-3.071866035E-1,-4.173029900E0,5.852130890E0
8.992097040E-1,-1.922698766E-1,-4.326252460E0,5.349370480E0
9.017279330E-1,-3.359158039E-1,-4.283158779E0,5.311064720E0
9.042710060E-1,-5.035027266E-1,-4.072477818E0,5.368522644E0
9.067625160E-1,-5.992666483E-1,-3.852221012E0,5.373311520E0
9.092801720E-1,-7.189715505E-1,-3.655905008E0,5.378099442E0
9.117972560E-1,-8.003709316E-1,-3.483529806E0,5.430769444E0
9.143149640E-1,-8.721939325E-1,-3.354248524E0,5.421193600E0
9.168330370E-1,-8.913466930E-1,-3.301578283E0,5.435557842E0
9.193499640E-1,-9.009230733E-1,-3.229755402E0,5.478651524E0
9.218676200E-1,-9.104995131E-1,-3.263272762E0,5.488227844E0
9.243851200E-1,-8.626174927E-1,-3.354248524E0,5.459498882E0
9.269025680E-1,-7.907945514E-1,-3.450012684E0,5.445134163E0
9.294208490E-1,-7.620654106E-1,-3.531411886E0,5.459498882E0
9.319376720E-1,-7.333362103E-1,-3.622387648E0,5.488227844E0
9.344553810E-1,-6.279958487E-1,-3.756457090E0,5.521745205E0
9.369729330E-1,-6.040548682E-1,-3.876162052E0,5.464286804E0
9.394904330E-1,-5.705374479E-1,-3.971925974E0,5.406828403E0
9.420078290E-1,-5.609610677E-1,-4.096418858E0,5.344582081E0
9.445250680E-1,-5.418082476E-1,-4.187394619E0,5.306276321E0
9.470430370E-1,-5.609610677E-1,-4.235276699E0,5.291912079E0
9.495800160E-1,-4.604089260E-1,-4.340616703E0,5.291912079E0
9.520779850E-1,-3.981623650E-1,-4.407651901E0,5.354158401E0
9.545954330E-1,-3.598567843E-1,-4.527356625E0,5.416404724E0
9.571129850E-1,-3.694331646E-1,-4.632696629E0,5.540897846E0
9.596303290E-1,-5.082908869E-1,-4.718884945E0,5.641450405E0
9.621481410E-1,-6.088430882E-1,-4.675790787E0,5.746790409E0
9.646656930E-1,-6.519368291E-1,-4.896048069E0,5.780307770E0
9.671841310E-1,-6.567249894E-1,-5.097152233E0,5.847342968E0
9.697003290E-1,-6.950306296E-1,-5.245586395E0,5.871284008E0
9.722366310E-1,-8.674057126E-1,-5.408384800E0,5.947895050E0
9.747356410E-1,-1.135544658E0,-5.513725281E0,6.005353451E0
9.772531410E-1,-1.480294943E0,-5.547242641E0,6.134634495E0
9.797706410E-1,-1.882503629E0,-5.556819439E0,6.340527058E0
9.822880890E-1,-2.346958876E0,-5.566395283E0,6.714006424E0
9.848059540E-1,-2.758743763E0,-5.609489441E0,7.149732590E0
9.873239740E-1,-3.184893370E0,-5.695676804E0,7.628552437E0
9.898411100E-1,-3.591890097E0,-5.753135204E0,8.126524925E0
9.923581930E-1,-3.974946260E0,-5.805805206E0,8.528733253E0
9.948762140E-1,-4.314908028E0,-5.858475685E0,8.902213097E0
9.973934020E-1,-4.654870033E0,-5.901569366E0,9.189504623E0
9.999114740E-1,-4.927796841E0,-6.021274567E0,9.357091904E0
1.002429183E0,-5.095383644E0,-6.140979290E0,9.395397186E0
1.004965537E0,-5.124113560E0,-6.289413452E0,9.246962547E0
1.007463714E0,-5.109748363E0,-6.480941296E0,8.997977257E0
1.009981162E0,-5.004408360E0,-6.753868103E0,8.710684776E0
1.012498662E0,-4.865550518E0,-7.084254265E0,8.394663811E0
1.015017881E0,-4.779362679E0,-7.405063152E0,8.102583885E0
1.017533714E0,-4.812880516E0,-7.716296196E0,7.853597164E0
1.020051058E0,-4.884703159E0,-8.013164520E0,7.575881958E0
1.022568766E0,-4.994832039E0,-8.310032845E0,7.365201473E0
1.025086422E0,-5.200724125E0,-8.482407570E0,7.140155792E0
1.027605016E0,-5.454498768E0,-8.568595886E0,6.929475307E0
1.030121266E0,-5.698696613E0,-8.578171730E0,6.718794823E0
1.032639704E0,-6.024294376E0,-8.520713806E0,6.546419144E0
1.035110693E0,-6.330739021E0,-8.396220207E0,6.397985458E0
1.037674131E0,-6.613242149E0,-8.266939163E0,6.287857056E0
1.040192568E0,-6.943628311E0,-8.137658119E0,6.192092896E0
1.042709599E0,-7.278801918E0,-7.850365639E0,5.909589291E0
1.045226370E0,-7.633128643E0,-7.587014675E0,5.765943527E0
1.047770016E0,-8.078431129E0,-7.261417389E0,5.674967766E0
1.050281683E0,-8.528521538E0,-7.031583786E0,5.674967766E0
1.052779756E0,-9.079163551E0,-6.911879063E0,5.679755688E0
1.055296110E0,-9.562771797E0,-6.825691223E0,5.770731449E0
1.057814495E0,-1.007510853E1,-6.835268021E0,5.976624012E0
1.060332464E0,-1.052519989E1,-6.878361702E0,6.254339218E0
1.062849235E0,-1.085079670E1,-7.041160107E0,6.690065384E0
1.065367464E0,-1.114287758E1,-7.165653229E0,7.255073071E0
1.067884912E0,-1.134398174E1,-7.266205788E0,7.867961884E0
1.070401683E0,-1.139186382E1,-7.328452110E0,8.514369011E0
1.072920172E0,-1.138707542E1,-7.429004192E0,9.060222626E0
1.075436787E0,-1.139186382E1,-7.500827312E0,9.524679184E0
1.077954964E0,-1.136313438E1,-7.582226753E0,9.831122398E0
1.080472985E0,-1.133440495E1,-7.577438354E0,1.004659176E1
1.082989391E0,-1.119554806E1,-7.524768353E0,1.013756752E1
1.085506787E0,-1.099444294E1,-7.357181549E0,1.007532120E1
1.088025016E0,-1.075024509E1,-7.146501064E0,9.874217033E0
1.090542204E0,-1.038634205E1,-6.868785381E0,9.610865593E0
1.093059808E0,-9.869216919E0,-6.466577053E0,9.170351982E0
1.095577516E0,-9.404762268E0,-6.078732967E0,8.662802696E0
1.098094652E0,-9.184504509E0,-5.686100483E0,8.064278603E0
1.100612099E0,-9.280268669E0,-5.417961121E0,7.437024593E0
1.103129860E0,-9.979346275E0,-5.226433277E0,6.862440586E0
1.105672881E0,-1.095613766E1,-5.159399033E0,6.742735863E0
1.108165068E0,-1.137271118E1,-5.188127995E0,6.929475307E0
1.110682464E0,-1.097529125E1,-5.303044796E0,7.039603710E0
1.113199808E0,-1.037676620E1,-5.590336323E0,7.030027390E0
1.115716943E0,-1.009904957E1,-5.954239368E0,7.001298428E0
1.118235277E0,-9.988922119E0,-6.265472412E0,6.862440586E0
1.120752360E0,-1.016608524E1,-6.586281776E0,6.690065384E0
1.123270016E0,-1.030973053E1,-6.902302742E0,6.460231781E0
1.125787777E0,-1.018523788E1,-7.199171066E0,6.177728176E0
1.128304443E0,-9.883582115E0,-7.529556274E0,5.914377213E0
1.130822620E0,-9.557983398E0,-7.816848278E0,5.727637768E0
1.133339860E0,-9.332939148E0,-8.089776039E0,5.622297287E0
1.135858193E0,-9.218021393E0,-8.262150764E0,5.540897846E0
1.138375797E0,-9.208445549E0,-8.338762283E0,5.478651524E0
1.140892412E0,-9.256327629E0,-8.401008606E0,5.478651524E0
1.143409964E0,-9.299421310E0,-8.429738045E0,5.536109924E0
1.145928402E0,-9.471796989E0,-8.410584450E0,5.617509365E0
1.148446266E0,-9.658535957E0,-8.286091805E0,5.708484650E0
1.150987047E0,-9.960192680E0,-8.132869720E0,5.765943527E0
1.153480277E0,-1.025227261E1,-7.898247719E0,5.756366730E0
1.156020537E0,-1.057786942E1,-7.620532513E0,5.746790409E0
1.158515224E0,-1.086516190E1,-7.309299469E0,5.737214565E0
1.161054912E0,-1.109978390E1,-6.978913784E0,5.756366730E0
1.163572777E0,-1.128652287E1,-6.658104897E0,5.809037209E0
1.166092620E0,-1.148283958E1,-6.361236095E0,5.909589291E0
1.168608974E0,-1.170309639E1,-6.073944569E0,5.967047691E0
1.171125537E0,-1.197602367E1,-5.719617844E0,6.101117611E0
1.173621735E0,-1.225852776E1,-5.394020557E0,6.230398178E0
1.176160172E0,-1.247878456E1,-5.025329113E0,6.268704414E0
1.178680172E0,-1.261285400E1,-4.723672867E0,6.292644978E0
1.181195537E0,-1.270382977E1,-4.407651901E0,6.230398178E0
1.183712724E0,-1.270382977E1,-4.129936218E0,6.129846573E0
1.186233714E0,-1.271340561E1,-3.866585732E0,6.034082413E0
1.188725745E0,-1.264158249E1,-3.703787088E0,5.919166088E0
1.191266162E0,-1.263200665E1,-3.569717646E0,5.847342968E0
1.193784547E0,-1.259848976E1,-3.526623487E0,5.794672489E0
1.196300849E0,-1.256975937E1,-3.617599249E0,5.698908806E0
1.198818506E0,-1.250751400E1,-3.775609732E0,5.560050964E0
1.201337360E0,-1.241653824E1,-3.967137814E0,5.402040482E0
1.203853714E0,-1.225852776E1,-4.173029900E0,5.272758961E0
1.206382829E0,-1.206699944E1,-4.369346142E0,5.076442719E0
1.208890120E0,-1.180364895E1,-4.560874462E0,4.841821194E0
1.211406110E0,-1.152114487E1,-4.809860229E0,4.583258152E0
1.213925172E0,-1.124343014E1,-5.077999115E0,4.363001347E0
1.216441318E0,-1.089389038E1,-5.374867916E0,4.032615662E0
1.218958714E0,-1.050604725E1,-5.686100483E0,3.620831013E0
1.221477724E0,-1.008468628E1,-5.949451447E0,3.065400362E0
1.223995224E0,-9.763876915E0,-6.260684490E0,2.452510834E0
1.226511266E0,-9.711205482E0,-6.619798660E0,2.562639713E0
1.229030068E0,-9.830910683E0,-7.017219543E0,2.902601719E0
1.231548297E0,-9.950615883E0,-7.395486832E0,3.132435083E0
1.234065120E0,-9.993709564E0,-7.711507797E0,3.338327646E0
1.236558870E0,-1.001765060E1,-8.008376122E0,3.443667889E0
1.239100016E0,-1.004159164E1,-8.209481239E0,3.481973410E0
1.241618245E0,-1.005595684E1,-8.410584450E0,3.438879728E0
1.244134495E0,-1.005595684E1,-8.506348610E0,3.381421328E0
1.246651579E0,-1.003680420E1,-8.544654846E0,3.228198767E0
1.249146735E0,-1.005595684E1,-8.530289650E0,3.027094603E0
1.251686631E0,-1.009426212E1,-8.491983414E0,2.859507799E0
1.254206214E0,-1.018523788E1,-8.429738045E0,2.701497316E0
1.256699131E0,-1.039591885E1,-8.319609642E0,2.586580515E0
1.259216527E0,-1.067842197E1,-8.219057083E0,2.529122114E0
1.261734235E0,-1.088910294E1,-8.156810760E0,2.495604753E0
1.264251891E0,-1.113808918E1,-8.041893959E0,2.476451874E0
1.266769391E0,-1.134877014E1,-7.979647160E0,2.505181074E0
1.269286891E0,-1.152593327E1,-7.917400360E0,2.562639713E0
1.271805641E0,-1.166479111E1,-7.869518280E0,2.600944996E0
1.274322308E0,-1.175097847E1,-7.831212997E0,2.581792355E0
1.276840381E0,-1.189462471E1,-7.783330917E0,2.634462357E0
1.279356891E0,-1.199038792E1,-7.764178276E0,2.653615475E0
1.281874652E0,-1.212445831E1,-7.706719875E0,2.667979956E0
1.284392204E0,-1.222979736E1,-7.692355156E0,2.687132597E0
1.286909599E0,-1.229204464E1,-7.644473553E0,2.682344437E0
1.289427516E0,-1.224895096E1,-7.658837795E0,2.715861797E0
1.291944652E0,-1.220585728E1,-7.687566757E0,2.715861797E0
1.294461943E0,-1.206699944E1,-7.687566757E0,2.701497316E0
1.296979756E0,-1.194250679E1,-7.773754597E0,2.773320198E0
1.299497516E0,-1.183237743E1,-7.821636677E0,2.825990438E0
1.302015745E0,-1.181801319E1,-7.926976681E0,2.840354919E0
1.304533297E0,-1.180843639E1,-8.008376122E0,2.811625957E0
1.307082308E0,-1.178449631E1,-8.118504524E0,2.715861797E0
1.309568193E0,-1.169351959E1,-8.238209724E0,2.553063154E0
1.312084964E0,-1.152114487E1,-8.319609642E0,2.342382431E0
1.314621631E0,-1.126258183E1,-8.482407570E0,2.160430908E0
1.317120745E0,-1.097050190E1,-8.654783249E0,2.064666748E0
1.319637933E0,-1.064490509E1,-8.788852692E0,1.959326386E0
1.322155068E0,-1.038155365E1,-8.927709579E0,1.801316023E0
1.324672568E0,-1.013735580E1,-8.999532700E0,1.604999900E0
1.327190016E0,-9.917098999E0,-9.095296860E0,1.375166416E0
1.329707516E0,-9.744724274E0,-9.248519897E0,1.107027411E0
1.332225849E0,-9.591502190E0,-9.396953583E0,9.202877283E-1
1.334742881E0,-9.438279152E0,-9.554964066E0,7.479125261E-1
1.337261735E0,-9.294632912E0,-9.794373512E0,5.803256035E-1
1.339777620E0,-9.265903473E0,-1.004335976E1,4.462561011E-1
1.342295381E0,-9.251540184E0,-1.024925327E1,2.738809884E-1
1.344813922E0,-9.323361397E0,-1.037374592E1,8.714129776E-2
1.347330745E0,-9.395184517E0,-1.044078064E1,-1.043866053E-1
1.349867568E0,-9.490948677E0,-1.034501648E1,-3.150672913E-1
1.352365641E0,-9.548407555E0,-1.024446487E1,-4.826542139E-1
1.354883037E0,-9.663325310E0,-1.005772495E1,-6.263001561E-1
1.357400902E0,-9.706418037E0,-9.885350227E0,-7.460050583E-1
1.359919079E0,-9.754300117E0,-9.708187103E0,-7.412168980E-1
1.362435954E0,-9.735146523E0,-9.516658783E0,-6.933348775E-1
1.364953454E0,-9.735146523E0,-9.334707260E0,-6.263001561E-1
1.367470589E0,-9.754300117E0,-9.133603096E0,-5.353243947E-1
1.369989391E0,-9.730359077E0,-8.860675812E0,-5.113834143E-1
1.372506266E0,-9.725570679E0,-8.616477966E0,-5.640535355E-1
1.375023974E0,-9.706418037E0,-8.357914925E0,-7.029113173E-1
1.377541162E0,-9.711205482E0,-8.166386604E0,-8.657100201E-1
1.380058245E0,-9.706418037E0,-7.926976681E0,-8.465572000E-1
1.382575954E0,-9.701629639E0,-7.677990913E0,-7.747342587E-1
1.385093245E0,-9.596289635E0,-7.491250992E0,-7.843106389E-1
1.387611527E0,-9.495738029E0,-7.251841545E0,-8.369808197E-1
1.390128349E0,-9.337726593E0,-7.103406906E0,-6.646056771E-1
1.392646058E0,-9.088741302E0,-6.954972744E0,-4.299840331E-1
1.395163506E0,-8.782296181E0,-6.758656979E0,-1.426921785E-1
1.397682152E0,-8.375298500E0,-6.399541855E0,1.384742856E0
1.400198870E0,-8.054490089E0,-5.877628326E0,4.252872944E0
1.402716266E0,-7.704951286E0,-5.346138477E0,6.474596977E0
1.405258818E0,-7.408083439E0,-5.221645355E0,5.531322002E0
1.407779235E0,-7.226131916E0,-5.255162716E0,4.315119267E0
1.410268558E0,-7.015451431E0,-5.212069035E0,3.539431810E0
1.412787099E0,-6.843075752E0,-5.188127995E0,2.916966200E0
1.415256943E0,-6.694642067E0,-5.202492237E0,2.232253790E0
1.417774339E0,-6.531843185E0,-5.221645355E0,1.638517261E0
1.420339287E0,-6.436079502E0,-5.240798473E0,1.087874651E0
1.422857152E0,-6.302010059E0,-5.293468475E0,4.941380620E-1
1.425374495E0,-6.153575420E0,-5.408384800E0,-2.298725396E-2
1.427891579E0,-6.005141258E0,-5.494572639E0,-4.251958430E-1
1.430409079E0,-5.861495495E0,-5.662159443E0,-7.986752391E-1
1.432926422E0,-5.765731335E0,-5.834534645E0,-1.028508782E0
1.435443766E0,-5.660391331E0,-6.011697769E0,-1.153001904E0
1.437962568E0,-5.660391331E0,-6.265472412E0,-1.267918587E0
1.440480693E0,-5.650815010E0,-6.480941296E0,-1.358894348E0
1.442996787E0,-5.626873970E0,-6.753868103E0,-1.440293789E0
1.445514183E0,-5.550262928E0,-7.036372185E0,-1.550422311E0
1.448032620E0,-5.449710369E0,-7.371545792E0,-1.694068074E0
1.450548818E0,-5.339581966E0,-7.721084118E0,-1.856866837E0
1.453066891E0,-5.215088844E0,-8.065834999E0,-2.048394680E0
1.455610277E0,-5.162418842E0,-8.367491722E0,-2.302169085E0
1.458101839E0,-5.119324684E0,-8.669147491E0,-2.436238527E0
1.460620120E0,-5.057078362E0,-8.903768539E0,-2.627766609E0
1.463138193E0,-4.985255241E0,-9.147966385E0,-2.737895250E0
1.465653714E0,-4.769786358E0,-9.334707260E0,-2.747471333E0
1.468172047E0,-4.592623234E0,-9.531023026E0,-2.733106852E0
1.470689704E0,-4.587834835E0,-9.617210388E0,-3.039551735E0
1.473208089E0,-4.626140118E0,-9.727338791E0,-3.915791750E0
1.475724599E0,-4.611775875E0,-9.923654556E0,-5.936410904E0
1.478242256E0,-4.554317951E0,-9.971536636E0,-8.426274300E0
1.480759443E0,-4.726692677E0,-9.387376785E0,-7.698468208E0
1.483277204E0,-4.942162037E0,-9.080932617E0,-5.222969532E0
1.485794652E0,-5.090595722E0,-9.258095741E0,-3.652440786E0
1.488313402E0,-5.152842522E0,-9.315553665E0,-2.441026926E0
1.490830016E0,-5.143265724E0,-9.138390541E0,-1.770679355E0
1.493348141E0,-4.932585239E0,-8.889405251E0,-1.469022870E0
1.495865329E0,-4.626140118E0,-8.626053810E0,-1.579151392E0
1.498382829E0,-4.243084908E0,-8.458466530E0,-1.770679355E0
1.500900068E0,-3.869605541E0,-8.290880203E0,-1.775467515E0
1.503417360E0,-3.572737217E0,-8.084987640E0,-1.564786911E0
1.505959131E0,-3.347692013E0,-7.946129799E0,-1.454658270E0
1.508480641E0,-3.275869131E0,-7.764178276E0,-1.445081830E0
1.510969756E0,-3.223199129E0,-7.601379395E0,-1.512116671E0
1.513487881E0,-3.213622570E0,-7.457733154E0,-1.454658270E0
1.516005329E0,-3.204046011E0,-7.261417389E0,-1.382835388E0
1.518522933E0,-3.218410730E0,-7.074677944E0,-1.277495027E0
1.521041214E0,-3.175317049E0,-6.978913784E0,-1.220036626E0
1.523558714E0,-3.170528889E0,-6.830479622E0,-1.334953427E0
1.526075433E0,-3.141799688E0,-6.725139141E0,-1.334953427E0
1.528593610E0,-3.160952330E0,-6.710774899E0,-1.416352749E0
1.531110641E0,-3.189681530E0,-6.792174339E0,-1.497752190E0
1.533628037E0,-3.160952330E0,-6.844844341E0,-1.521693110E0
1.536146318E0,-3.108282328E0,-6.993278503E0,-1.636609793E0
1.538664027E0,-3.141799688E0,-7.180018425E0,-1.765891075E0
1.541181891E0,-3.156164169E0,-7.328452110E0,-1.904748917E0
1.543698297E0,-3.113070250E0,-7.510403633E0,-2.177675962E0
1.546215537E0,-3.132223129E0,-7.692355156E0,-2.330898285E0
1.548734235E0,-2.979000807E0,-7.836001396E0,-2.350051165E0
1.551251266E0,-2.892813444E0,-7.864730358E0,-2.364415646E0
1.553768506E0,-2.873660564E0,-7.874306679E0,-2.488909006E0
1.556286370E0,-2.868872404E0,-7.888671398E0,-2.656495571E0
1.558803662E0,-2.878448725E0,-7.926976681E0,-2.943787575E0
1.561321006E0,-2.854507923E0,-8.022741318E0,-3.269385099E0
1.563838870E0,-2.873660564E0,-8.195116043E0,-3.614135027E0
1.566356266E0,-2.935907125E0,-8.314821243E0,-3.911003351E0
1.568874391E0,-3.046035528E0,-8.453679085E0,-4.145625591E0
1.571392412E0,-3.084341288E0,-8.621265411E0,-4.303636074E0
1.573908402E0,-3.117858648E0,-8.798428535E0,-4.380247116E0
1.576427204E0,-3.141799688E0,-8.980381012E0,-4.476011276E0
1.578944860E0,-3.175317049E0,-9.262884140E0,-4.586139679E0
1.581462047E0,-3.160952330E0,-9.554964066E0,-4.624444962E0
1.583980068E0,-3.137011290E0,-9.789586067E0,-4.614868641E0
1.586496891E0,-3.089129210E0,-9.971536636E0,-4.614868641E0
1.589014079E0,-3.031671047E0,-1.012475967E1,-4.600503922E0
1.591532464E0,-3.055612087E0,-1.025882912E1,-4.619657040E0
1.594049183E0,-3.098705769E0,-1.039768696E1,-4.801608562E0
1.596566787E0,-3.280657291E0,-1.045514488E1,-4.873431683E0
1.599083974E0,-3.429091215E0,-1.056048584E1,-5.007501125E0
1.601602308E0,-3.611042738E0,-1.060357952E1,-5.103265285E0
1.604119339E0,-3.711595058E0,-1.057485008E1,-5.261275768E0
1.606637620E0,-3.697230577E0,-1.053654480E1,-5.634754658E0
1.609181474E0,-3.668501377E0,-1.047429752E1,-6.013022423E0
1.611750537E0,-3.486549854E0,-1.040247440E1,-6.597182751E0
1.614292256E0,-3.510490894E0,-1.031628799E1,-6.530147552E0
1.616860433E0,-3.409938574E0,-1.036895752E1,-7.056849480E0
1.619428089E0,-3.271080732E0,-1.040726280E1,-7.799020290E0
1.621995693E0,-3.156164169E0,-1.041683960E1,-8.340086937E0
1.624563870E0,-3.165740490E0,-1.023009968E1,-7.851690292E0
1.627131162E0,-3.328539371E0,-1.012475967E1,-6.812651634E0
1.629698766E0,-3.649348497E0,-1.069455528E1,-5.926835060E0
1.632267099E0,-3.951005220E0,-1.124998569E1,-5.615602016E0
1.634834808E0,-4.008462906E0,-1.098184681E1,-6.262008667E0
1.637402829E0,-3.836088419E0,-1.026840591E1,-6.276372910E0
1.639970954E0,-3.740324259E0,-9.741703987E0,-5.878952980E0
1.642539704E0,-3.634983778E0,-9.248519897E0,-5.385768414E0
1.645106214E0,-3.567949057E0,-8.750546455E0,-5.079324245E0
1.647674131E0,-3.625407696E0,-8.161599159E0,-4.978771687E0
1.650243349E0,-3.725959539E0,-7.519980431E0,-4.906948566E0
1.652810433E0,-3.855241060E0,-6.911879063E0,-4.825549603E0
1.655377881E0,-3.946216822E0,-6.174496651E0,-4.586139679E0
1.657946266E0,-3.984522104E0,-5.384443760E0,-3.824815989E0
1.660513349E0,-4.022827625E0,-4.407651901E0,-2.115429401E0
1.663081683E0,-4.008462906E0,-3.579293728E0,-1.057237864E0
1.665649599E0,-3.912699223E0,-2.803605795E0,-9.375330210E-1
1.668216683E0,-3.869605541E0,-2.133258104E0,-1.205672026E0
1.670785120E0,-3.860029221E0,-1.577827215E0,-1.334953427E0
1.673353610E0,-3.812147379E0,-1.266594291E0,-1.296647787E0
1.675921422E0,-3.788206339E0,-1.103795648E0,-1.569574952E0
1.678488714E0,-3.725959539E0,-8.931149840E-1,-1.550422311E0
1.681057933E0,-3.668501377E0,-7.303162813E-1,-1.502540231E0
1.683626318E0,-3.563161135E0,-6.920107007E-1,-1.550422311E0
1.686192516E0,-3.515279055E0,-6.297641397E-1,-1.449870110E0
1.688759964E0,-3.448244333E0,-6.249759197E-1,-1.536057591E0
1.691328037E0,-3.347692013E0,-6.680697203E-1,-1.559998631E0
1.693895172E0,-3.275869131E0,-7.015870810E-1,-1.540845871E0
1.696463766E0,-3.204046011E0,-9.314205647E-1,-1.588727832E0
1.699031631E0,-3.137011290E0,-1.228288651E0,-1.698856354E0
1.701599287E0,-3.079553127E0,-1.692743897E0,-1.842502236E0
1.704167360E0,-2.940695286E0,-2.104529142E0,-2.014877319E0
1.706734808E0,-2.662979841E0,-2.698265553E0,-3.130527496E0
1.709302829E0,-2.777896643E0,-3.507470846E0,-3.255020380E0
1.711870745E0,-2.495392799E0,-4.163453579E0,-2.958152056E0
1.714438245E0,-2.533698559E0,-4.809860229E0,-3.006034136E0
1.717006474E0,-2.442722797E0,-5.326985836E0,-3.120950937E0
1.719574235E0,-2.390052557E0,-5.791440964E0,-3.403454542E0
1.722143297E0,-2.725226402E0,-6.131402969E0,-3.738628387E0
1.724709860E0,-3.108282328E0,-6.437847137E0,-4.116896152E0
1.727277933E0,-3.266292810E0,-6.753868103E0,-4.442493439E0
1.729845745E0,-3.376421213E0,-6.988490105E0,-4.681903839E0
1.732414547E0,-3.443456173E0,-7.141712189E0,-4.830337524E0
1.734981370E0,-3.486549854E0,-7.256629467E0,-4.916525364E0
1.737548506E0,-3.563161135E0,-7.309299469E0,-4.906948566E0
1.740066735E0,-3.572737217E0,-7.309299469E0,-4.911736965E0
1.742583766E0,-3.529643536E0,-7.247052670E0,-4.859066486E0
1.745101891E0,-3.438667774E0,-7.141712189E0,-4.825549603E0
1.747620329E0,-3.371633053E0,-7.017219543E0,-4.734573841E0
1.750154599E0,-3.261504650E0,-6.820903301E0,-4.691480160E0
1.752654079E0,-3.093917608E0,-6.591069698E0,-4.653173923E0
1.755171683E0,-2.950271606E0,-6.294201851E0,-4.543045521E0
1.757689027E0,-2.897601604E0,-5.982968807E0,-4.452070236E0
1.760207152E0,-2.873660564E0,-5.657371521E0,-4.341941833E0
1.762723922E0,-2.873660564E0,-5.374867916E0,-4.222236633E0
1.765241579E0,-2.864084005E0,-5.092363834E0,-4.159990311E0
1.767759079E0,-2.840142965E0,-4.785919189E0,-3.958885431E0
1.770276474E0,-2.835355043E0,-4.436380863E0,-3.757781029E0
1.772794287E0,-2.792261124E0,-3.991078854E0,-3.475277662E0
1.775312047E0,-2.730014563E0,-3.426071644E0,-3.187985659E0
1.777829235E0,-2.691709042E0,-2.971192837E0,-2.910270214E0
1.780346579E0,-2.619886160E0,-2.726994514E0,-2.670860291E0
1.782864756E0,-2.562427521E0,-2.492372990E0,-2.488909006E0
1.785382047E0,-2.538486719E0,-2.497161388E0,-2.441026926E0
1.787898922E0,-2.485816479E0,-2.492372990E0,-2.393144846E0
1.790416631E0,-2.390052557E0,-2.497161388E0,-2.278228045E0
1.792935016E0,-2.313441277E0,-2.669536352E0,-2.378780365E0
1.795451422E0,-2.284712315E0,-2.928099155E0,-2.397933245E0
1.797970224E0,-2.131489754E0,-3.114838600E0,-2.302169085E0
1.800487256E0,-2.069243431E0,-3.292001963E0,-2.297380924E0
1.803004964E0,-2.030937910E0,-3.488317966E0,-2.441026926E0
1.805547620E0,-1.992632031E0,-3.670269489E0,-2.498485088E0
1.808040381E0,-1.992632031E0,-3.847432852E0,-2.522426128E0
1.810557047E0,-2.021361351E0,-4.101207256E0,-2.493697166E0
1.813074704E0,-1.992632031E0,-4.383710861E0,-2.589460850E0
1.815591579E0,-2.045302391E0,-4.757190228E0,-2.603825569E0
1.818109756E0,-2.064455032E0,-5.025329113E0,-2.790565491E0
1.820627308E0,-2.011785030E0,-5.221645355E0,-2.929423094E0
1.823144495E0,-1.935173631E0,-5.504148960E0,-2.991669655E0
1.825662620E0,-1.882503629E0,-5.858475685E0,-3.044339657E0
1.828180224E0,-1.901656389E0,-6.203225613E0,-2.996457815E0
1.830696995E0,-1.887291670E0,-6.457000256E0,-3.087433577E0
1.833214964E0,-1.944750190E0,-6.710774899E0,-2.948575974E0
1.835732152E0,-2.093184233E0,-7.055524826E0,-2.943787575E0
1.838249495E0,-2.260771275E0,-7.208747387E0,-2.881541252E0
1.840768349E0,-2.433146238E0,-7.170441628E0,-2.838447094E0
1.843284756E0,-2.471451759E0,-6.998066902E0,-2.560731888E0
1.845802308E0,-2.514545918E0,-6.696410179E0,-2.302169085E0
1.848319756E0,-2.610309601E0,-6.442636013E0,-2.086700439E0
1.850837724E0,-2.734802723E0,-6.126615047E0,-2.048394680E0
1.853354912E0,-2.892813444E0,-5.973392487E0,-2.077123880E0
1.855897256E0,-3.189681530E0,-6.222378731E0,-2.752259731E0
1.858389756E0,-3.414726734E0,-6.236743450E0,-3.288537979E0
1.860907724E0,-3.649348497E0,-6.366024494E0,-2.838447094E0
1.863425329E0,-3.812147379E0,-6.734715939E0,-2.196828842E0
1.865942672E0,-3.797782660E0,-7.084254265E0,-1.895172477E0
1.868460120E0,-3.903123140E0,-7.472098351E0,-2.077123880E0
1.870977777E0,-3.783418179E0,-7.792907238E0,-1.962207317E0
1.873495537E0,-3.860029221E0,-7.994011879E0,-2.010089159E0
1.876012881E0,-3.634983778E0,-8.209481239E0,-2.259075403E0
1.878530537E0,-3.725959539E0,-8.568595886E0,-2.752259731E0
1.881047724E0,-4.123379707E0,-8.755334854E0,-3.120950937E0
1.883565120E0,-4.410671711E0,-8.736182213E0,-3.278961420E0
1.886083141E0,-4.674022198E0,-8.602112770E0,-3.044339657E0
1.888600589E0,-5.157630444E0,-8.195116043E0,-2.804929972E0
1.891117777E0,-5.416193485E0,-8.525502205E0,-2.862388134E0
1.893635693E0,-5.497592449E0,-9.085721016E0,-3.097009897E0
1.896153506E0,-5.492804527E0,-9.550175667E0,-3.312478781E0
1.898670954E0,-5.483227730E0,-9.928443909E0,-3.427395582E0
1.901188193E0,-5.430557728E0,-1.030671120E1,-3.494430304E0
1.903705641E0,-5.420981407E0,-1.068019104E1,-3.666805506E0
1.906223193E0,-5.344370365E0,-1.127392673E1,-3.657229185E0
1.908740693E0,-5.272547245E0,-1.186287498E1,-3.743416548E0
1.911258454E0,-5.229453564E0,-1.233690643E1,-3.633288145E0
1.913776579E0,-5.306064606E0,-1.274390411E1,-3.278961420E0
1.916293766E0,-5.473651409E0,-1.296894836E1,-3.073068857E0
1.918810954E0,-5.713061333E0,-1.303598404E1,-2.953363895E0
1.921328454E0,-5.938107014E0,-1.309344196E1,-2.747471333E0
1.923846318E0,-6.254127979E0,-1.302640724E1,-2.622978449E0
1.926363506E0,-6.335526943E0,-1.302161884E1,-2.670860291E0
1.928880849E0,-6.474384785E0,-1.286360836E1,-2.771412373E0
1.931351006E0,-6.464808464E0,-1.275347996E1,-2.709165812E0
1.933869547E0,-6.503113747E0,-1.246140003E1,-2.824082613E0
1.936434964E0,-6.680277348E0,-1.206398010E1,-2.670860291E0
1.938951370E0,-6.876593113E0,-1.179584122E1,-2.436238527E0
1.941469547E0,-7.096850395E0,-1.149418354E1,-2.364415646E0
1.943985954E0,-7.087274551E0,-1.123562145E1,-2.235134363E0
1.946504547E0,-7.173461914E0,-1.093396473E1,-2.168099642E0
1.949021787E0,-7.173461914E0,-1.064667320E1,-2.259075403E0
1.951540485E0,-7.082485676E0,-1.043120384E1,-1.981359959E0
1.954056839E0,-7.010663033E0,-1.016306496E1,-1.507328510E0
1.956573714E0,-6.713794708E0,-9.971536636E0,-1.133849025E0
1.959091266E0,-6.570148945E0,-9.947595596E0,-6.741821170E-1
1.961609287E0,-6.967569351E0,-9.626787186E0,-1.618449688E-1
1.964126422E0,-7.230919838E0,-9.334707260E0,-1.666331738E-1
1.966644443E0,-7.216555119E0,-9.100085258E0,-1.819904894E-2
1.969162620E0,-7.427236557E0,-8.884616852E0,1.637524664E-1
1.971679131E0,-7.704951286E0,-8.654783249E0,3.696449399E-1
1.974197620E0,-7.690587044E0,-8.525502205E0,5.085026622E-1
1.976714287E0,-7.331472397E0,-8.372279167E0,3.169747591E-1
1.979232204E0,-7.120791435E0,-8.199904442E0,5.085026622E-1
1.981749599E0,-6.460020542E0,-8.214268684E0,3.073983788E-1
1.984267204E0,-6.053023338E0,-8.247786522E0,1.685406566E-1
1.986784704E0,-5.526321888E0,-8.305244446E0,3.217629492E-1
1.989302256E0,-5.186359882E0,-8.319609642E0,3.265511394E-1
1.991819287E0,-4.808091640E0,-8.491983414E0,1.972698271E-1
1.994337568E0,-4.286178112E0,-8.889405251E0,1.829052567E-1
1.996854495E0,-3.539220095E0,-9.353859901E0,3.265511394E-1
1.999372568E0,-3.113070250E0,-9.832679749E0,2.834573984E-1
2.001842152E0,-2.782684803E0,-1.031628799E1,5.741938949E-3
2.004360172E0,-1.930385470E0,-1.087650681E1,-4.730778337E-1
2.006924808E0,-1.437201262E0,-1.143193817E1,-5.640535355E-1
2.009441995E0,-9.104995131E-1,-1.185329914E1,-7.460050583E-1
2.011960172E0,-4.412561655E-1,-1.221720219E1,-8.082516193E-1
2.014476943E0,8.065739274E-2,-1.252843475E1,-8.609218001E-1
2.016994547E0,4.685013890E-1,-1.286360836E1,-7.938870788E-1
2.019512256E0,6.073591113E-1,-1.280136204E1,-7.843106389E-1
2.022029599E0,7.366403937E-1,-1.267686844E1,-9.471094012E-1
2.024547568E0,1.033508658E0,-1.240394211E1,-7.795224190E-1
2.027064599E0,9.904149175E-1,-1.183893394E1,-7.220640779E-1
2.029582047E0,9.521092772E-1,-1.167134762E1,-4.922305942E-1
2.032100537E0,1.225036621E0,-1.168571186E1,-3.725256920E-1
2.034617256E0,1.550634027E0,-1.161867714E1,-1.714213789E-1
2.037134652E0,1.742161870E0,-1.146066666E1,-8.523381501E-2
2.039652672E0,1.766102910E0,-1.124998569E1,-9.959840775E-2
2.042170224E0,1.746950150E0,-1.099142265E1,-1.187511981E-1
2.044687568E0,1.579363346E0,-1.067061424E1,-8.523381501E-2
2.047205745E0,1.330376983E0,-1.032586384E1,-5.171643570E-2
2.049722829E0,1.038296938E0,-9.923654556E0,-1.341085136E-2
2.052240485E0,7.079112530E-1,-9.531023026E0,1.053012908E-2
2.054757933E0,3.966784477E-1,-9.234154701E0,-1.819904894E-2
2.057275329E0,9.023378789E-2,-8.961227417E0,-7.086922228E-2
2.059792829E0,-1.443878859E-1,-8.664360046E0,-4.692823440E-2
2.062311110E0,-3.359158039E-1,-8.434525490E0,-6.608102471E-2
2.064828245E0,-5.609610677E-1,-8.180751801E0,1.531834155E-2
2.067345120E0,-7.429125905E-1,-7.941341400E0,1.062940732E-1
2.069863662E0,-9.392287135E-1,-7.706719875E0,2.068462074E-1
2.072380172E0,-1.226520419E0,-7.486463070E0,2.786691785E-1
2.074897933E0,-1.561694384E0,-7.371545792E0,4.366796613E-1
2.077415381E0,-1.930385470E0,-7.141712189E0,4.749853015E-1
2.079932985E0,-2.366111517E0,-6.370812893E0,3.217629492E-1
2.082450797E0,-2.950271606E0,-5.595124722E0,1.589642465E-1
2.084967933E0,-3.385997534E0,-6.026062489E0,3.361275494E-1
2.087485693E0,-3.903123140E0,-6.447423935E0,3.600685596E-1
2.090003193E0,-4.516011715E0,-6.873573303E0,1.637524664E-1
2.092520797E0,-4.477706432E0,-7.567862511E0,2.930337787E-1
2.095038402E0,-4.381942272E0,-8.147233963E0,4.941380620E-1
2.097556162E0,-4.439400673E0,-8.755334854E0,4.414679408E-1
2.100073297E0,-4.439400673E0,-9.286825180E0,3.121865690E-1
2.102591370E0,-4.377154350E0,-9.641151428E0,2.355754077E-1
2.105108558E0,-4.286178112E0,-9.976325989E0,1.876934171E-1
2.107627047E0,-4.319695950E0,-1.016785336E1,7.277669758E-2
2.110143193E0,-4.415459633E0,-1.028277016E1,3.447113186E-2
2.112662047E0,-4.453765392E0,-1.040247440E1,-2.777544409E-2
2.115178558E0,-4.697963238E0,-1.065146065E1,-1.570567787E-1
2.117696787E0,-4.640505314E0,-1.103451729E1,-2.767617106E-1
2.120213714E0,-4.611775875E0,-1.141278458E1,-3.342200816E-1
2.122731110E0,-4.640505314E0,-1.165219498E1,-4.012548625E-1
2.125249495E0,-4.717116356E0,-1.181978226E1,-4.874424040E-1
2.127765849E0,-4.750633717E0,-1.209270859E1,-4.778659940E-1
2.130283922E0,-4.841609478E0,-1.241830540E1,-3.677374721E-1
2.132801422E0,-4.899067879E0,-1.269123363E1,-2.911263108E-1
2.135318766E0,-4.640505314E0,-1.226029587E1,-2.815499008E-1
2.137836370E0,-3.989310503E0,-1.023009968E1,-3.916784823E-1
2.140354495E0,-3.898334742E0,-1.003378391E1,-3.533728719E-1
2.142871579E0,-3.931852102E0,-1.027319336E1,-2.623971403E-1
2.145389808E0,-3.855241060E0,-1.031628799E1,-1.331157833E-1
2.147906735E0,-3.807358980E0,-1.031149864E1,9.537413716E-4
2.150443141E0,-3.721171618E0,-1.033065224E1,1.589642465E-1
2.152941683E0,-3.673289537E0,-1.035459328E1,3.073983788E-1
2.155483714E0,-3.730747938E0,-1.049345112E1,4.127387404E-1
2.157976735E0,-3.769053459E0,-1.055090904E1,5.324437022E-1
2.160494235E0,-3.702018738E0,-1.057006168E1,5.899020433E-1
2.163012204E0,-3.606254816E0,-1.050781536E1,6.856659651E-1
2.165529860E0,-3.467396975E0,-1.039289856E1,7.670652866E-1
2.168046995E0,-3.299810171E0,-1.028755760E1,7.383361459E-1
2.170564599E0,-3.127434969E0,-1.008645344E1,7.479125261E-1
2.173081683E0,-2.892813444E0,-9.674669266E0,7.622771263E-1
2.175599391E0,-2.720438242E0,-8.841523170E0,7.527007461E-1
2.178116787E0,-2.662979841E0,-7.840789318E0,7.143951654E-1
2.180635485E0,-2.907177925E0,-7.630108833E0,4.797735214E-1
2.183152099E0,-2.945483685E0,-7.567862511E0,3.504921496E-1
2.185670693E0,-2.854507923E0,-7.361969948E0,1.493878663E-1
2.188187204E0,-2.768320084E0,-7.074677944E0,5.362390727E-2
2.190704652E0,-2.686920881E0,-6.801750183E0,5.362390727E-2
2.193221891E0,-2.600733280E0,-6.519247055E0,3.447113186E-2
2.195740954E0,-2.471451759E0,-6.222378731E0,-2.777544409E-2
2.198209912E0,-2.461875677E0,-5.939874649E0,-1.043866053E-1
2.200728714E0,-2.385264397E0,-5.710041523E0,-2.288797498E-1
2.203256787E0,-2.332594395E0,-5.384443760E0,-3.198555112E-1
2.205825016E0,-2.313441277E0,-5.154610634E0,-3.964666724E-1
2.208327516E0,-2.188948393E0,-4.900836468E0,-5.209597945E-1
2.210863037E0,-2.093184233E0,-4.718884945E0,-5.975709558E-1
2.213362568E0,-1.930385470E0,-4.570450306E0,-5.927827358E-1
2.215879964E0,-1.848986149E0,-4.508203983E0,-5.736299753E-1
2.218398297E0,-1.863350749E0,-4.479475021E0,-5.688417554E-1
2.220915277E0,-1.848986149E0,-4.450745106E0,-5.640535355E-1
2.223433402E0,-1.820256948E0,-4.431592941E0,-5.784181356E-1
2.225949808E0,-1.724492908E0,-4.354981899E0,-4.922305942E-1
2.228467672E0,-1.681399226E0,-4.393287182E0,-4.347722232E-1
2.230985693E0,-1.667034745E0,-4.479475021E0,-2.959145010E-1
2.233503141E0,-1.556906104E0,-4.479475021E0,-2.097269595E-1
2.236020433E0,-1.331860781E0,-4.455533981E0,-1.666331738E-1
2.238538714E0,-1.159485698E0,-4.436380863E0,-1.809977591E-1
2.241055277E0,-9.966869950E-1,-4.517780304E0,-1.426921785E-1
2.243572933E0,-8.865585327E-1,-4.714096546E0,-1.043866053E-1
2.246090693E0,-9.009230733E-1,-4.967870712E0,-2.384561300E-1
2.248608558E0,-7.764299512E-1,-4.939141750E0,-4.922305942E-1
2.251126474E0,-7.524890304E-1,-4.809860229E0,-5.784181356E-1
2.253643662E0,-7.907945514E-1,-5.039693832E0,-2.288797498E-1
2.256185381E0,-1.030204296E0,-5.690888882E0,-1.426921785E-1
2.258702256E0,-1.106815577E0,-5.705253124E0,-2.193033397E-1
2.261220120E0,-9.104995131E-1,-5.686100483E0,-2.480325401E-1
2.263736162E0,-8.099473119E-1,-5.671735764E0,-2.576089203E-1
2.266253662E0,-7.812181711E-1,-5.575971603E0,1.685406566E-1
2.268772204E0,-6.327840686E-1,-5.528090000E0,1.637524664E-1
2.271289287E0,-4.699853063E-1,-5.743558884E0,2.307872176E-1
2.273807516E0,-5.035027266E-1,-6.073944569E0,2.068462074E-1
2.276323662E0,-4.508325458E-1,-6.217590332E0,3.313393593E-1
2.278842568E0,-1.922698766E-1,-6.203225613E0,4.127387404E-1
2.281359704E0,-7.735313475E-2,-6.284625530E0,4.654088616E-1
2.283877360E0,8.544559032E-2,-6.567128658E0,3.983741403E-1
2.286395902E0,4.714000970E-2,-6.715562820E0,2.547281981E-1
2.288911474E0,-1.779052615E-1,-6.868785381E0,1.445996761E-1
2.291430277E0,-2.880338430E-1,-7.180018425E0,-4.156194329E-1
2.293946631E0,-5.609610677E-1,-7.462522030E0,-7.268522382E-1
2.296463818E0,-8.099473119E-1,-7.692355156E0,-7.890988588E-1
2.298983870E0,-8.530411720E-1,-7.960494518E0,-1.100331664E0
2.301477464E0,-9.009230733E-1,-8.137658119E0,-1.392411709E0
2.304017829E0,-1.044569016E0,-8.468043327E0,-1.588727832E0
2.306533922E0,-1.250461459E0,-8.760123253E0,-1.674915433E0
2.309051631E0,-1.446777582E0,-9.056991577E0,-1.531269550E0
2.311603766E0,-1.633517265E0,-9.282036781E0,-1.430717230E0
2.314087568E0,-1.820256948E0,-9.583692551E0,-1.425929189E0
2.316581214E0,-1.963902831E0,-9.914078712E0,-1.746738434E0
2.319122985E0,-2.327805996E0,-1.074722481E1,-3.341207981E0
2.321639652E0,-2.959848166E0,-1.158037186E1,-3.906215429E0
2.324157985E0,-3.515279055E0,-1.255237579E1,-4.887795925E0
2.326675329E0,-2.782684803E0,-1.197779179E1,-1.885596156E0
2.329194495E0,-2.107548714E0,-1.147024250E1,-6.885467172E-1
2.331710745E0,-2.150642872E0,-1.172401810E1,-2.432443500E-1
2.334227620E0,-2.193736553E0,-1.185808659E1,6.521486044E-1
2.336746110E0,-2.088396072E0,-1.199694443E1,9.346522093E-1
2.339262620E0,-1.939962029E0,-1.214537907E1,7.622771263E-1
2.341781058E0,-1.978267550E0,-1.234648323E1,6.808778048E-1
2.344297881E0,-2.035726070E0,-1.262898636E1,6.282076240E-1
2.346814131E0,-2.107548714E0,-1.288276196E1,6.856659651E-1
2.349340954E0,-2.059667110E0,-1.300246620E1,7.574889064E-1
2.351850485E0,-2.074031591E0,-1.323229980E1,9.442286491E-1
2.354368454E0,-2.102760792E0,-1.341903973E1,9.633814096E-1
2.356885641E0,-2.160219193E0,-1.358183765E1,8.580410480E-1
2.359403662E0,-2.193736553E0,-1.372069550E1,7.431243658E-1
2.361920277E0,-2.222465515E0,-1.392179966E1,4.654088616E-1
2.364437047E0,-2.165007353E0,-1.414205647E1,1.972698271E-1
2.366956318E0,-2.279924154E0,-1.423782063E1,6.798849255E-2
2.369472985E0,-2.356535435E0,-1.425218582E1,3.447113186E-2
2.371991579E0,-2.610309601E0,-1.486507511E1,3.925930709E-2
2.374484599E0,-2.753955603E0,-1.536783600E1,-5.065951943E-1
2.377002777E0,-2.816202164E0,-1.580356216E1,-6.215119362E-1
2.379519964E0,-2.945483685E0,-1.633026505E1,-6.454529166E-1
2.382038297E0,-3.103494167E0,-1.696709442E1,-5.736299753E-1
2.384555589E0,-3.060400248E0,-1.777151299E1,-1.618449688E-1
2.387073037E0,-3.084341288E0,-1.857592964E1,2.968292683E-2
2.389590224E0,-3.036459446E0,-1.956229973E1,1.733288467E-1
2.392107516E0,-2.998153687E0,-2.082159233E1,3.552803397E-1
2.394578349E0,-3.036459446E0,-2.217186546E1,4.701971412E-1
2.397095641E0,-3.031671047E0,-2.381421661E1,5.132908821E-1
2.399613193E0,-3.103494167E0,-2.517406464E1,3.744331598E-1
2.402177985E0,-3.247139931E0,-2.617958641E1,2.451518178E-1
2.404696110E0,-3.438667774E0,-2.662967682E1,1.302350760E-1
2.407212620E0,-3.611042738E0,-2.619873810E1,-8.044561744E-2
2.409730641E0,-3.682865858E0,-2.327315140E1,-3.198555112E-1
2.412276266E0,-2.749167442E0,-1.868605614E1,-4.012548625E-1
2.414765641E0,-1.791527867E0,-1.467354679E1,-4.970188141E-1
2.417282881E0,-1.384530902E0,-1.178626347E1,-5.784181356E-1
2.419801110E0,-1.475506663E0,-9.823102951E0,-7.412168980E-1
2.422342256E0,-1.796315908E0,-8.635629654E0,-9.231683612E-1
2.424835589E0,-2.117125273E0,-8.022741318E0,-1.095543504E0
2.427354027E0,-2.394840717E0,-7.792907238E0,-1.200883865E0
2.429871318E0,-2.495392799E0,-7.816848278E0,-1.296647787E0
2.432389339E0,-2.509757519E0,-7.941341400E0,-1.296647787E0
2.434906735E0,-2.447510958E0,-8.142445564E0,-1.181730986E0
2.437423402E0,-2.313441277E0,-8.338762283E0,-1.047661424E0
2.439941318E0,-2.255983114E0,-8.535078049E0,-9.231683612E-1
2.442459443E0,-2.236830235E0,-8.726605415E0,-7.651578784E-1
2.444975954E0,-2.212889433E0,-8.894192696E0,-6.933348775E-1
2.447493662E0,-2.232042074E0,-8.985168457E0,-6.263001561E-1
2.450011735E0,-2.188948393E0,-9.104873657E0,-6.598175168E-1
2.452528870E0,-2.212889433E0,-9.147966385E0,-6.693939567E-1
2.455046110E0,-2.198524475E0,-9.152755737E0,-7.220640779E-1
2.457564599E0,-2.217677593E0,-9.143178940E0,-7.843106389E-1
2.460081422E0,-2.241618633E0,-9.143178940E0,-8.417689800E-1
2.462599027E0,-2.284712315E0,-9.162331581E0,-8.896510005E-1
2.465116891E0,-2.284712315E0,-9.162331581E0,-9.135919809E-1
2.467633662E0,-2.337382317E0,-9.205426216E0,-8.896510005E-1
2.470151579E0,-2.375688076E0,-9.253308296E0,-9.183802009E-1
2.472693818E0,-2.380475998E0,-9.282036781E0,-9.135919809E-1
2.475186422E0,-2.433146238E0,-9.358648300E0,-9.327447414E-1
2.477704079E0,-2.447510958E0,-9.373012543E0,-9.423211813E-1
2.480221995E0,-2.437934637E0,-9.459199905E0,-9.518975616E-1
2.482739339E0,-2.481028318E0,-9.492717743E0,-9.614739418E-1
2.485257464E0,-2.495392799E0,-9.554964066E0,-9.949913025E-1
2.487774287E0,-2.509757519E0,-9.621998787E0,-9.949913025E-1
2.490291995E0,-2.504969358E0,-9.655515671E0,-1.009355903E0
2.492809391E0,-2.528910398E0,-9.717762947E0,-1.009355903E0
2.495326995E0,-2.524122000E0,-9.722550392E0,-1.038085103E0
2.497844860E0,-2.595945120E0,-9.736915588E0,-1.009355903E0
2.500363141E0,-2.557639599E0,-9.775220871E0,-9.902031422E-1
2.502879912E0,-2.567215919E0,-9.765645027E0,-9.614739418E-1
2.505397464E0,-2.528910398E0,-9.765645027E0,-9.614739418E-1
2.507914547E0,-2.533698559E0,-9.760856628E0,-9.135919809E-1
2.510432099E0,-2.538486719E0,-9.751279831E0,-8.704981804E-1
2.512968402E0,-2.514545918E0,-9.760856628E0,-8.561336398E-1
2.515467152E0,-2.500180960E0,-9.741703987E0,-8.178280592E-1
2.517984860E0,-2.514545918E0,-9.717762947E0,-8.034634590E-1
2.520502568E0,-2.457087278E0,-9.684246063E0,-7.555814385E-1
2.523020172E0,-2.466663837E0,-9.650728226E0,-7.029113173E-1
2.525538037E0,-2.481028318E0,-9.641151428E0,-6.837584972E-1
2.528055120E0,-2.461875677E0,-9.617210388E0,-6.837584972E-1
2.530572412E0,-2.428358078E0,-9.641151428E0,-6.263001561E-1
2.533090016E0,-2.413993597E0,-9.617210388E0,-5.784181356E-1
2.535607620E0,-2.413993597E0,-9.617210388E0,-5.688417554E-1
2.538125589E0,-2.366111517E0,-9.641151428E0,-5.975709558E-1
2.540642777E0,-2.370899916E0,-9.621998787E0,-5.305361748E-1
2.543160172E0,-2.385264397E0,-9.650728226E0,-5.161715746E-1
2.545677464E0,-2.399629116E0,-9.631574631E0,-5.161715746E-1
2.548195849E0,-2.423570156E0,-9.665092468E0,-4.970188141E-1
2.550712881E0,-2.413993597E0,-9.712974548E0,-5.065951943E-1
2.553230849E0,-2.404417038E0,-9.684246063E0,-5.018069744E-1
2.555749495E0,-2.356535435E0,-9.703397751E0,-4.826542139E-1
2.558265224E0,-2.332594395E0,-9.631574631E0,-5.113834143E-1
2.560783922E0,-2.323017836E0,-9.598057747E0,-4.826542139E-1
2.563300485E0,-2.318229675E0,-9.660305023E0,-4.778659940E-1
2.565819183E0,-2.289500237E0,-9.703397751E0,-5.065951943E-1
2.568335693E0,-2.265559673E0,-9.684246063E0,-5.113834143E-1
2.570853922E0,-2.299076796E0,-9.722550392E0,-5.401125550E-1
2.573370745E0,-2.337382317E0,-9.693821907E0,-5.784181356E-1
2.575887985E0,-2.366111517E0,-9.660305023E0,-6.023591757E-1
2.578405902E0,-2.370899916E0,-9.650728226E0,-6.215119362E-1
2.580924495E0,-2.370899916E0,-9.626787186E0,-6.215119362E-1
2.583440537E0,-2.366111517E0,-9.492717743E0,-6.215119362E-1
2.585958818E0,-2.342170477E0,-9.459199905E0,-6.167237759E-1
2.588475797E0,-2.327805996E0,-9.483140945E0,-5.832063556E-1
2.590946110E0,-2.318229675E0,-9.554964066E0,-6.167237759E-1
2.593464756E0,-2.308653355E0,-9.621998787E0,-6.215119362E-1
2.596029495E0,-2.279924154E0,-9.693821907E0,-5.975709558E-1
2.598546891E0,-2.289500237E0,-9.650728226E0,-5.736299753E-1
2.601064183E0,-2.275135756E0,-9.559751511E0,-6.071473360E-1
2.603581214E0,-2.251194715E0,-9.521447182E0,-6.502411366E-1
2.606099860E0,-2.279924154E0,-9.550175667E0,-7.316405177E-1
2.608616943E0,-2.337382317E0,-9.526234627E0,-7.795224190E-1
2.611133714E0,-2.313441277E0,-9.531023026E0,-9.040155411E-1
2.613669964E0,-2.366111517E0,-9.535810471E0,-9.423211813E-1
2.616169131E0,-2.380475998E0,-9.492717743E0,-1.023720503E0
2.618686266E0,-2.423570156E0,-9.473565102E0,-1.085967064E0
2.621204027E0,-2.433146238E0,-9.511869431E0,-1.119484544E0
2.623722047E0,-2.457087278E0,-9.463988304E0,-1.176942825E0
2.626238662E0,-2.466663837E0,-9.473565102E0,-1.215248346E0
2.628756474E0,-2.476240158E0,-9.502293587E0,-1.191307425E0
2.631274756E0,-2.437934637E0,-9.540599823E0,-1.172154665E0
2.633791370E0,-2.447510958E0,-9.511869431E0,-1.172154665E0
2.636309704E0,-2.457087278E0,-9.444835663E0,-1.138637304E0
2.638827099E0,-2.457087278E0,-8.946863174E0,-1.109907985E0
2.641344183E0,-2.576792240E0,-7.572650433E0,-1.033296943E0
2.643862099E0,-2.854507923E0,-4.685367107E0,-9.279565811E-1
2.646379183E0,-3.385997534E0,-1.544309855E0,-8.992273808E-1
2.648897047E0,-4.037192345E0,7.013548017E-1,-1.014144063E0
2.651414443E0,-4.611775875E0,2.635786533E0,-1.095543504E0
2.653932308E0,-4.817668438E0,4.244621277E0,-1.133849025E0
2.656450172E0,-4.908644199E0,4.168010235E0,-1.325376987E0
2.658967152E0,-4.334060192E0,1.400431633E0,-1.315800667E0
2.661485537E0,-3.649348497E0,-2.181140184E0,-1.282283306E0
2.664002099E0,-3.046035528E0,-5.935086727E0,-1.191307425E0
2.666519339E0,-2.739591122E0,-8.697876930E0,-1.052449703E0
2.669037464E0,-2.835355043E0,-1.001463127E1,-9.327447414E-1
2.671554495E0,-2.897601604E0,-1.060357952E1,-8.130398393E-1
2.674072933E0,-3.050823927E0,-1.061315536E1,-8.178280592E-1
2.676590068E0,-3.251928091E0,-1.053175640E1,-8.561336398E-1
2.679108506E0,-3.381209612E0,-1.065146065E1,-8.465572000E-1
2.681624652E0,-3.318962812E0,-1.103930473E1,-8.704981804E-1
2.684142360E0,-3.227987051E0,-1.149418354E1,-8.944392204E-1
2.686660381E0,-3.031671047E0,-1.201130962E1,-9.566857815E-1
2.689177464E0,-2.825778484E0,-1.240394211E1,-9.806267619E-1
2.691695224E0,-2.624674320E0,-1.260504627E1,-1.004567742E0
2.694212620E0,-2.490604877E0,-1.274869156E1,-1.038085103E0
2.696729599E0,-2.270347595E0,-1.309822941E1,-9.949913025E-1
2.699247985E0,-2.069243431E0,-1.348607349E1,-1.047661424E0
2.701765172E0,-1.882503629E0,-1.370633125E1,-9.135919809E-1
2.704282881E0,-1.609576344E0,-1.384040070E1,-6.454529166E-1
2.706800224E0,-1.499447703E0,-1.378773117E1,-5.544771552E-1
2.709318037E0,-1.432412982E0,-1.357705021E1,-4.539250433E-1
2.711835797E0,-1.327072620E0,-1.315090084E1,-3.533728719E-1
2.714378193E0,-1.312708139E0,-1.252364731E1,-2.671853006E-1
2.716870745E0,-1.236096859E0,-1.177190018E1,-2.911263108E-1
2.719388297E0,-1.231308699E0,-1.099142265E1,-2.288797498E-1
2.721905485E0,-1.164273977E0,-1.036417007E1,-2.288797498E-1
2.724423193E0,-1.030204296E0,-1.009124184E1,-1.570567787E-1
2.726940589E0,-9.392287135E-1,-9.890137672E0,-2.777544409E-2
2.729458089E0,-9.057113528E-1,-9.938019753E0,5.841211230E-2
2.731975902E0,-8.291001320E-1,-1.016306496E1,8.235309273E-2
2.734493349E0,-7.524890304E-1,-1.051260376E1,1.206586733E-1
2.737010954E0,-6.279958487E-1,-1.089087105E1,1.398114562E-1
2.739528610E0,-5.896902680E-1,-1.131702042E1,1.685406566E-1
2.742046266E0,-4.747735262E-1,-1.169528866E1,1.062940732E-1
2.744563037E0,-4.221033454E-1,-1.224114323E1,5.741938949E-3
2.747081422E0,-5.992666483E-1,-1.250928211E1,-5.650462955E-2
2.749598766E0,-7.860063910E-1,-1.269123363E1,-1.618449688E-1
2.752117256E0,-1.025416255E0,-1.281093884E1,-2.719735205E-1
2.754634808E0,-1.240885139E0,-1.275347996E1,-4.060430825E-1
2.757151110E0,-1.547329664E0,-1.245182419E1,-5.401125550E-1
2.759668297E0,-1.834621549E0,-1.207355595E1,-6.263001561E-1
2.762186006E0,-2.016573191E0,-1.161388874E1,-7.651578784E-1
2.764703870E0,-2.136278152E0,-1.114943409E1,-8.082516193E-1
2.767221579E0,-2.212889433E0,-1.071849537E1,-8.704981804E-1
2.769739027E0,-2.289500237E0,-1.031628799E1,-9.231683612E-1
2.772280797E0,-2.337382317E0,-1.004335976E1,-9.949913025E-1
2.774774235E0,-2.390052557E0,-9.842255592E0,-1.105119824E0
2.777291058E0,-2.466663837E0,-9.736915588E0,-1.129060864E0
2.779808974E0,-2.533698559E0,-9.559751511E0,-1.181730986E0
2.782326266E0,-2.643826962E0,-9.344284058E0,-1.234401226E0
2.784844131E0,-2.739591122E0,-9.224578857E0,-1.263130426E0
2.787314027E0,-2.792261124E0,-9.171907425E0,-1.301436067E0
2.789832464E0,-2.955059767E0,-9.200637817E0,-1.378047109E0
2.792397985E0,-3.089129210E0,-9.200637817E0,-1.401988149E0
2.794915120E0,-3.280657291E0,-9.128814697E0,-1.449870110E0
2.797432308E0,-3.390785933E0,-8.985168457E0,-1.411564469E0
2.799949391E0,-3.472185373E0,-8.808004379E0,-1.416352749E0
2.802467360E0,-3.500914335E0,-8.630842209E0,-1.397199869E0
2.804984443E0,-3.481761694E0,-8.563806534E0,-1.330165148E0
2.807501839E0,-3.457820654E0,-8.530289650E0,-1.320588708E0
2.810019547E0,-3.453032255E0,-8.568595886E0,-1.296647787E0
2.812537152E0,-3.462608814E0,-8.602112770E0,-1.229613066E0
2.815072985E0,-3.443456173E0,-8.635629654E0,-1.181730986E0
2.817572256E0,-3.395574093E0,-8.788852692E0,-1.157790065E0
2.820090172E0,-3.362056494E0,-8.927709579E0,-1.100331664E0
2.822631474E0,-3.232775211E0,-9.090508461E0,-1.057237864E0
2.825124547E0,-3.089129210E0,-9.286825180E0,-9.327447414E-1
2.827642568E0,-3.002941847E0,-9.502293587E0,-8.752864003E-1
2.830159599E0,-2.849719524E0,-9.583692551E0,-8.369808197E-1
2.832676891E0,-2.753955603E0,-9.708187103E0,-7.460050583E-1
2.835194860E0,-2.619886160E0,-9.813527107E0,-6.598175168E-1
2.837713766E0,-2.562427521E0,-9.756069183E0,-6.167237759E-1
2.840229652E0,-2.485816479E0,-9.808738708E0,-5.640535355E-1
2.842747672E0,-2.423570156E0,-9.928443909E0,-5.161715746E-1
2.845264860E0,-2.327805996E0,-1.003857136E1,-4.395604432E-1
2.847782360E0,-2.289500237E0,-1.002420807E1,-3.821020722E-1
2.850299860E0,-2.208101034E0,-1.009603119E1,-3.054909110E-1
2.852817672E0,-2.088396072E0,-1.016785336E1,-2.432443500E-1
2.855335381E0,-2.006996870E0,-1.016306496E1,-1.426921785E-1
2.857852672E0,-1.925597310E0,-1.004335976E1,-5.171643570E-2
2.860370433E0,-1.911232710E0,-9.732128143E0,-3.834463656E-3
2.862887672E0,-1.916020989E0,-9.641151428E0,2.968292683E-2
2.865405277E0,-1.901656389E0,-9.751279831E0,6.320031732E-2
2.867922777E0,-1.896868110E0,-1.002420807E1,4.404751211E-2
2.870440745E0,-1.892079949E0,-1.040726280E1,5.841211230E-2
2.872981891E0,-1.963902831E0,-1.045514488E1,3.447113186E-2
2.875476318E0,-2.030937910E0,-1.024446487E1,4.883571714E-2
2.877992672E0,-2.064455032E0,-1.028755760E1,2.968292683E-2
2.880510329E0,-2.045302391E0,-1.042641544E1,1.531834155E-2
2.883028766E0,-2.006996870E0,-1.061315536E1,-3.735184669E-2
2.885545693E0,-1.978267550E0,-1.063709641E1,-8.044561744E-2
2.888063662E0,-1.939962029E0,-1.071370792E1,-1.139630005E-1
2.890580485E0,-1.825045228E0,-1.082862473E1,-1.426921785E-1
2.893098297E0,-1.753222227E0,-1.098663521E1,-1.666331738E-1
2.895615902E0,-1.614364505E0,-1.133617401E1,-2.384561300E-1
2.898133974E0,-1.437201262E0,-1.185329914E1,-2.815499008E-1
2.900652464E0,-1.255249739E0,-1.241830540E1,-2.815499008E-1
2.903168297E0,-1.193003058E0,-1.296894836E1,-3.246437013E-1
2.905686943E0,-1.173850298E0,-1.339509869E1,-3.246437013E-1
2.908203662E0,-1.193003058E0,-1.363929653E1,-3.198555112E-1
2.910721735E0,-1.236096859E0,-1.370154285E1,-3.390082717E-1
2.913238974E0,-1.317496181E0,-1.370633125E1,-3.007026911E-1
2.915780797E0,-1.408471942E0,-1.361056805E1,-3.533728719E-1
2.918273870E0,-1.403683782E0,-1.338552189E1,-3.916784823E-1
2.920791214E0,-1.494659543E0,-1.305034828E1,-4.443486333E-1
2.923308714E0,-1.537753344E0,-1.264813995E1,-5.018069744E-1
2.925826579E0,-1.614364505E0,-1.222677803E1,-5.784181356E-1
2.928344756E0,-1.710128427E0,-1.184372330E1,-6.646056771E-1
2.930861943E0,-1.858562589E0,-1.130744457E1,-7.172758579E-1
2.933379079E0,-1.968690991E0,-1.076159000E1,-8.082516193E-1
2.935896891E0,-2.097972631E0,-1.007209015E1,-8.657100201E-1
2.938414027E0,-2.294288635E0,-9.286825180E0,-9.518975616E-1
2.940931266E0,-2.361323357E0,-8.099351883E0,-8.992273808E-1
2.943449391E0,-2.327805996E0,-6.045215130E0,-7.651578784E-1
2.945967047E0,-2.351747036E0,-5.025329113E0,-8.465572000E-1
2.948484756E0,-2.375688076E0,-4.407651901E0,-9.088038206E-1
2.951002099E0,-2.342170477E0,-4.072477818E0,-1.009355903E0
2.953519495E0,-2.346958876E0,-3.823491812E0,-1.076390624E0
2.956037516E0,-2.394840717E0,-3.694210529E0,-1.133849025E0
2.958554756E0,-2.485816479E0,-3.646328688E0,-1.095543504E0
2.961071995E0,-2.710861921E0,-3.742092609E0,-1.066814303E0
2.963590016E0,-2.955059767E0,-4.005443096E0,-9.758385420E-1
2.966107360E0,-3.223199129E0,-4.450745106E0,-8.992273808E-1
2.968624547E0,-3.524855375E0,-5.231221676E0,-8.417689800E-1
2.971142308E0,-3.754688740E0,-6.136190891E0,-8.513454199E-1
2.973659756E0,-3.845664501E0,-7.031583786E0,-8.896510005E-1
2.976177620E0,-3.797782660E0,-7.658837795E0,-9.662621617E-1
2.978696266E0,-3.587102175E0,-8.075410843E0,-1.071602464E0
2.981212516E0,-3.299810171E0,-8.377067566E0,-1.148213744E0
2.983682933E0,-3.055612087E0,-8.568595886E0,-1.196095586E0
2.986200589E0,-2.892813444E0,-8.779275894E0,-1.263130426E0
2.988765329E0,-2.773108244E0,-8.922922134E0,-1.301436067E0
2.991282412E0,-2.763532162E0,-8.999532700E0,-1.349318027E0
2.993799964E0,-2.773108244E0,-9.305977821E0,-1.378047109E0
2.996318349E0,-2.734802723E0,-9.689033508E0,-1.411564469E0
2.998834912E0,-2.605521679E0,-9.746491432E0,-1.368470788E0
3.001352985E0,-2.442722797E0,-9.535810471E0,-1.339741468E0
3.003870329E0,-2.346958876E0,-9.267671585E0,-1.296647787E0
3.006389652E0,-2.299076796E0,-8.946863174E0,-1.234401226E0
3.008905954E0,-2.251194715E0,-8.851099014E0,-1.143425465E0
3.011423193E0,-2.227253914E0,-9.009109497E0,-1.062026143E0
3.013940172E0,-2.136278152E0,-9.200637817E0,-9.614739418E-1
3.016476318E0,-2.035726070E0,-9.435258865E0,-8.465572000E-1
3.018975641E0,-1.973479390E0,-9.621998787E0,-7.364286780E-1
3.021493610E0,-1.916020989E0,-9.808738708E0,-6.693939567E-1
3.023965172E0,-1.916020989E0,-9.914078712E0,-5.784181356E-1
3.026528766E0,-1.892079949E0,-9.933232307E0,-4.826542139E-1
3.029044912E0,-1.848986149E0,-9.928443909E0,-4.347722232E-1
3.031563818E0,-1.844197989E0,-9.952384949E0,-4.156194329E-1
3.034080485E0,-1.810680628E0,-9.938019753E0,-3.916784823E-1
3.036598089E0,-1.767586827E0,-9.904502869E0,-3.868902624E-1
3.039115797E0,-1.748433948E0,-9.842255592E0,-3.629492521E-1
3.041633922E0,-1.700552106E0,-9.756069183E0,-3.390082717E-1
3.044150745E0,-1.681399226E0,-9.693821907E0,-2.959145010E-1
3.046668297E0,-1.662246466E0,-9.655515671E0,-2.767617106E-1
3.049185954E0,-1.643093705E0,-9.655515671E0,-2.623971403E-1
3.051704183E0,-1.647881866E0,-9.645939827E0,-2.767617106E-1
3.054221214E0,-1.628729105E0,-9.631574631E0,-2.480325401E-1
3.056738558E0,-1.652670026E0,-9.626787186E0,-3.150672913E-1
3.059255849E0,-1.643093705E0,-9.593270302E0,-3.150672913E-1
3.061774443E0,-1.633517265E0,-9.507081985E0,-3.773138821E-1
3.064291266E0,-1.662246466E0,-9.478352547E0,-3.916784823E-1
3.066809027E0,-1.652670026E0,-9.416107178E0,-4.251958430E-1
3.069326266E0,-1.681399226E0,-9.396953583E0,-4.635014236E-1
3.071843558E0,-1.705340266E0,-9.339494705E0,-4.970188141E-1
3.074361683E0,-1.724492908E0,-9.310766220E0,-5.257480145E-1
3.076879287E0,-1.772374988E0,-9.272460938E0,-5.449007750E-1
3.079396058E0,-1.839409709E0,-9.267671585E0,-5.975709558E-1
3.081913870E0,-1.906444550E0,-9.272460938E0,-6.215119362E-1
3.084431318E0,-1.983055711E0,-9.253308296E0,-6.358765364E-1
3.086948714E0,-2.054878712E0,-9.262884140E0,-6.837584972E-1
3.089466579E0,-2.121913671E0,-9.291612625E0,-7.124876976E-1
3.091984704E0,-2.188948393E0,-9.310766220E0,-7.364286780E-1
3.094501683E0,-2.294288635E0,-9.315553665E0,-7.938870788E-1
3.097021058E0,-2.361323357E0,-9.310766220E0,-8.226162791E-1
3.099537777E0,-2.433146238E0,-9.329918861E0,-8.657100201E-1
3.102054547E0,-2.528910398E0,-9.310766220E0,-8.944392204E-1
3.104572099E0,-2.639038801E0,-9.329918861E0,-9.279565811E-1
3.107089443E0,-2.701285362E0,-9.339494705E0,-9.518975616E-1
3.109606735E0,-2.768320084E0,-9.334707260E0,-9.902031422E-1
3.112124235E0,-2.864084005E0,-9.334707260E0,-9.902031422E-1
3.114642568E0,-2.916754246E0,-9.320343018E0,-1.018932343E0
3.117178506E0,-2.993365526E0,-9.315553665E0,-1.038085103E0
3.119677099E0,-3.093917608E0,-9.325130463E0,-1.062026143E0
3.122218922E0,-3.156164169E0,-9.286825180E0,-1.062026143E0
3.124712256E0,-3.237563610E0,-9.305977821E0,-1.047661424E0
3.127230224E0,-3.299810171E0,-9.310766220E0,-1.081178904E0
3.129747308E0,-3.366844893E0,-9.339494705E0,-1.109907985E0
3.132264756E0,-3.453032255E0,-9.305977821E0,-1.124272704E0
3.134782047E0,-3.510490894E0,-9.296401978E0,-1.114696264E0
3.137300537E0,-3.544008017E0,-9.301189423E0,-1.143425465E0
3.139817881E0,-3.572737217E0,-9.325130463E0,-1.138637304E0
3.142334808E0,-3.601466656E0,-9.320343018E0,-1.129060864E0
3.144852724E0,-3.620619297E0,-9.358648300E0,-1.148213744E0
3.147370120E0,-3.615831137E0,-9.377800941E0,-1.119484544E0
3.149906214E0,-3.615831137E0,-9.396953583E0,-1.105119824E0
3.152405277E0,-3.615831137E0,-9.392166138E0,-1.081178904E0
3.154922620E0,-3.596678257E0,-9.430470467E0,-1.047661424E0
3.157440224E0,-3.620619297E0,-9.444835663E0,-1.047661424E0
3.159957829E0,-3.591890097E0,-9.487928391E0,-1.038085103E0
3.162475485E0,-3.596678257E0,-9.497506142E0,-1.018932343E0
3.164993141E0,-3.572737217E0,-9.511869431E0,-9.758385420E-1
3.167510485E0,-3.524855375E0,-9.526234627E0,-9.902031422E-1
3.170027985E0,-3.520066977E0,-9.540599823E0,-9.566857815E-1
3.172571110E0,-3.515279055E0,-9.526234627E0,-9.758385420E-1
3.175063974E0,-3.486549854E0,-9.545388222E0,-9.471094012E-1
3.177580693E0,-3.496126413E0,-9.564540863E0,-9.662621617E-1
3.180053089E0,-3.462608814E0,-9.564540863E0,-9.662621617E-1
3.182568454E0,-3.443456173E0,-9.598057747E0,-9.710503817E-1
3.185087047E0,-3.414726734E0,-9.598057747E0,-9.902031422E-1
3.187650849E0,-3.419515133E0,-9.574116707E0,-9.662621617E-1
3.190169443E0,-3.400362253E0,-9.574116707E0,-9.949913025E-1
3.192685954E0,-3.390785933E0,-9.574116707E0,-1.018932343E0
3.195203870E0,-3.352480412E0,-9.626787186E0,-1.033296943E0
3.197721318E0,-3.342903852E0,-9.636363983E0,-1.062026143E0
3.200239027E0,-3.328539371E0,-9.684246063E0,-1.066814303E0
3.202756631E0,-3.323750973E0,-9.669880867E0,-1.081178904E0
3.205274131E0,-3.304598331E0,-9.689033508E0,-1.076390624E0
3.207791787E0,-3.280657291E0,-9.679456711E0,-1.090755343E0
3.210308714E0,-3.251928091E0,-9.703397751E0,-1.081178904E0
3.212826162E0,-3.227987051E0,-9.703397751E0,-1.133849025E0
3.215344339E0,-3.242351770E0,-9.684246063E0,-1.129060864E0
3.217880224E0,-3.237563610E0,-9.684246063E0,-1.143425465E0
3.220379131E0,-3.204046011E0,-9.712974548E0,-1.109907985E0
3.222920381E0,-3.184893370E0,-9.693821907E0,-1.129060864E0
3.225414495E0,-3.218410730E0,-9.631574631E0,-1.129060864E0
3.227931214E0,-3.237563610E0,-9.631574631E0,-1.124272704E0
3.230449131E0,-3.204046011E0,-9.626787186E0,-1.143425465E0
3.232967152E0,-3.213622570E0,-9.617210388E0,-1.153001904E0
3.235483922E0,-3.251928091E0,-9.569329262E0,-1.167366505E0
3.238001631E0,-3.218410730E0,-9.554964066E0,-1.157790065E0
3.240519443E0,-3.247139931E0,-9.564540863E0,-1.153001904E0
3.243036527E0,-3.256716251E0,-9.540599823E0,-1.143425465E0
3.245554391E0,-3.314174891E0,-9.540599823E0,-1.162578225E0
3.248072047E0,-3.304598331E0,-9.511869431E0,-1.186519265E0
3.250589756E0,-3.342903852E0,-9.526234627E0,-1.200883865E0
3.253106995E0,-3.409938574E0,-9.516658783E0,-1.243977666E0
3.255624391E0,-3.405150652E0,-9.478352547E0,-1.243977666E0
3.258141891E0,-3.424303293E0,-9.483140945E0,-1.282283306E0
3.260659495E0,-3.429091215E0,-9.473565102E0,-1.301436067E0
3.263177829E0,-3.462608814E0,-9.430470467E0,-1.330165148E0
3.265694599E0,-3.476973295E0,-9.420894623E0,-1.334953427E0
3.268212204E0,-3.520066977E0,-9.387376785E0,-1.397199869E0
3.270729339E0,-3.505702496E0,-9.382588387E0,-1.430717230E0
3.273246839E0,-3.548796415E0,-9.358648300E0,-1.421140909E0
3.275766006E0,-3.558372736E0,-9.339494705E0,-1.483387470E0
3.278283141E0,-3.548796415E0,-9.320343018E0,-1.512116671E0
3.280799704E0,-3.563161135E0,-9.301189423E0,-1.545634031E0
3.283317516E0,-3.587102175E0,-9.286825180E0,-1.564786911E0
3.285834704E0,-3.563161135E0,-9.282036781E0,-1.564786911E0
3.288352360E0,-3.582313776E0,-9.248519897E0,-1.579151392E0
3.290870433E0,-3.611042738E0,-9.234154701E0,-1.593515992E0
3.293388297E0,-3.558372736E0,-9.191061020E0,-1.612668872E0
3.295905485E0,-3.572737217E0,-9.186272621E0,-1.646186233E0
3.298423245E0,-3.582313776E0,-9.210213661E0,-1.603092432E0
3.300940068E0,-3.591890097E0,-9.195848465E0,-1.612668872E0
3.303457933E0,-3.572737217E0,-9.186272621E0,-1.612668872E0
3.305975172E0,-3.544008017E0,-9.162331581E0,-1.607880592E0
3.308492985E0,-3.534431934E0,-9.143178940E0,-1.607880592E0
3.311010381E0,-3.515279055E0,-9.147966385E0,-1.617457032E0
3.313528193E0,-3.505702496E0,-9.133603096E0,-1.588727832E0
3.316045641E0,-3.481761694E0,-9.124026299E0,-1.574363232E0
3.318587829E0,-3.443456173E0,-9.152755737E0,-1.545634031E0
3.321080797E0,-3.419515133E0,-9.147966385E0,-1.545634031E0
3.323598454E0,-3.385997534E0,-9.124026299E0,-1.516904831E0
3.326115849E0,-3.366844893E0,-9.095296860E0,-1.478599310E0
3.328633297E0,-3.338115692E0,-9.095296860E0,-1.488175631E0
3.331151006E0,-3.318962812E0,-9.071355820E0,-1.473811150E0
3.333668141E0,-3.285445690E0,-9.090508461E0,-1.430717230E0
3.336185797E0,-3.242351770E0,-9.085721016E0,-1.421140909E0
3.338703922E0,-3.227987051E0,-9.076144218E0,-1.416352749E0
3.341221110E0,-3.194469929E0,-9.061779976E0,-1.358894348E0
3.343738454E0,-3.180104971E0,-9.066567421E0,-1.334953427E0
3.346256110E0,-3.146587849E0,-9.071355820E0,-1.311012387E0
3.348773714E0,-3.141799688E0,-9.100085258E0,-1.311012387E0
3.351291422E0,-3.074764729E0,-9.104873657E0,-1.287071347E0
3.353808454E0,-3.060400248E0,-9.090508461E0,-1.248765707E0
3.356327099E0,-3.007730007E0,-9.109662056E0,-1.272706747E0
3.358843870E0,-2.998153687E0,-9.109662056E0,-1.215248346E0
3.361361735E0,-2.979000807E0,-9.124026299E0,-1.215248346E0
3.363878766E0,-2.979000807E0,-9.119237900E0,-1.210460305E0
3.366396370E0,-2.940695286E0,-9.138390541E0,-1.196095586E0
3.368914235E0,-2.940695286E0,-9.171907425E0,-1.186519265E0
3.371431474E0,-2.888025045E0,-9.205426216E0,-1.172154665E0
3.373972985E0,-2.849719524E0,-9.229367256E0,-1.176942825E0
3.376490589E0,-2.825778484E0,-9.258095741E0,-1.157790065E0
3.379006370E0,-2.801837683E0,-9.282036781E0,-1.138637304E0
3.381525329E0,-2.777896643E0,-9.301189423E0,-1.167366505E0
3.384042516E0,-2.777896643E0,-9.334707260E0,-1.148213744E0
3.386560849E0,-2.753955603E0,-9.339494705E0,-1.143425465E0
3.389077777E0,-2.734802723E0,-9.368225098E0,-1.153001904E0
3.391594495E0,-2.744379282E0,-9.382588387E0,-1.148213744E0
3.394112985E0,-2.763532162E0,-9.425683022E0,-1.124272704E0
3.396607256E0,-2.749167442E0,-9.454411507E0,-1.129060864E0
3.399148349E0,-2.739591122E0,-9.483140945E0,-1.148213744E0
3.401664443E0,-2.730014563E0,-9.511869431E0,-1.124272704E0
3.404183662E0,-2.768320084E0,-9.521447182E0,-1.172154665E0
3.406702568E0,-2.806625843E0,-9.574116707E0,-1.181730986E0
3.409218610E0,-2.868872404E0,-9.593270302E0,-1.172154665E0
3.411736474E0,-2.830566883E0,-9.593270302E0,-1.200883865E0
3.414252360E0,-2.820990324E0,-9.645939827E0,-1.234401226E0
3.416770902E0,-2.811414003E0,-9.679456711E0,-1.239189386E0
3.419292256E0,-2.864084005E0,-9.684246063E0,-1.258342266E0
3.421806370E0,-2.888025045E0,-9.679456711E0,-1.267918587E0
3.424328089E0,-2.916754246E0,-9.712974548E0,-1.263130426E0
3.426839599E0,-2.935907125E0,-9.717762947E0,-1.277495027E0
3.429357516E0,-2.964636326E0,-9.722550392E0,-1.277495027E0
3.431876839E0,-2.955059767E0,-9.746491432E0,-1.258342266E0
3.434393974E0,-2.979000807E0,-9.751279831E0,-1.272706747E0
3.436909964E0,-3.007730007E0,-9.746491432E0,-1.277495027E0
3.439430745E0,-2.974212646E0,-9.770432472E0,-1.277495027E0
3.441945641E0,-3.022094488E0,-9.732128143E0,-1.291859627E0
3.444464443E0,-3.046035528E0,-9.717762947E0,-1.263130426E0
3.446980954E0,-3.022094488E0,-9.727338791E0,-1.253553987E0
3.449500016E0,-3.050823927E0,-9.722550392E0,-1.248765707E0
3.452015849E0,-3.060400248E0,-9.712974548E0,-1.243977666E0
3.454533454E0,-3.041247368E0,-9.698610306E0,-1.239189386E0
3.457052724E0,-3.036459446E0,-9.665092468E0,-1.224824905E0
3.459569079E0,-3.022094488E0,-9.641151428E0,-1.196095586E0
3.462087516E0,-2.983788967E0,-9.617210388E0,-1.186519265E0
3.464603974E0,-2.998153687E0,-9.607633591E0,-1.167366505E0
3.467122412E0,-2.974212646E0,-9.583692551E0,-1.148213744E0
3.469640485E0,-2.979000807E0,-9.564540863E0,-1.109907985E0
3.472156891E0,-2.950271606E0,-9.540599823E0,-1.105119824E0
3.474674860E0,-2.950271606E0,-9.516658783E0,-1.100331664E0
3.477192047E0,-2.940695286E0,-9.478352547E0,-1.090755343E0
3.479709391E0,-2.921542645E0,-9.473565102E0,-1.081178904E0
3.482227412E0,-2.897601604E0,-9.459199905E0,-1.071602464E0
3.484743766E0,-2.911966085E0,-9.425683022E0,-1.071602464E0
3.487263037E0,-2.902389765E0,-9.411317825E0,-1.062026143E0
3.489756474E0,-2.849719524E0,-9.401741982E0,-1.057237864E0
3.492273974E0,-2.849719524E0,-9.387376785E0,-1.081178904E0
3.494791318E0,-2.840142965E0,-9.411317825E0,-1.071602464E0
3.497309287E0,-2.835355043E0,-9.377800941E0,-1.062026143E0
3.499826474E0,-2.797049284E0,-9.363435745E0,-1.062026143E0
3.502344756E0,-2.773108244E0,-9.368225098E0,-1.090755343E0
3.504862099E0,-2.753955603E0,-9.363435745E0,-1.071602464E0
3.507379183E0,-2.725226402E0,-9.334707260E0,-1.085967064E0
3.509896735E0,-2.730014563E0,-9.349071503E0,-1.085967064E0
3.512414912E0,-2.744379282E0,-9.310766220E0,-1.105119824E0
3.514932204E0,-2.691709042E0,-9.296401978E0,-1.129060864E0
3.517449391E0,-2.682132483E0,-9.325130463E0,-1.119484544E0
3.519994235E0,-2.682132483E0,-9.320343018E0,-1.138637304E0
3.522484756E0,-2.658191681E0,-9.325130463E0,-1.153001904E0
3.525002099E0,-2.643826962E0,-9.291612625E0,-1.148213744E0
3.527519443E0,-2.662979841E0,-9.277248383E0,-1.181730986E0
3.530037777E0,-2.648615360E0,-9.329918861E0,-1.176942825E0
3.532554599E0,-2.667768002E0,-9.334707260E0,-1.181730986E0
3.535072516E0,-2.662979841E0,-9.325130463E0,-1.210460305E0
3.537613974E0,-2.682132483E0,-9.349071503E0,-1.210460305E0
3.540107412E0,-2.639038801E0,-9.329918861E0,-1.220036626E0
3.542624808E0,-2.643826962E0,-9.329918861E0,-1.234401226E0
3.545143089E0,-2.643826962E0,-9.320343018E0,-1.243977666E0
3.547660068E0,-2.634250641E0,-9.339494705E0,-1.248765707E0
3.550177777E0,-2.643826962E0,-9.344284058E0,-1.248765707E0
3.552695224E0,-2.643826962E0,-9.353859901E0,-1.253553987E0
3.555213506E0,-2.629462481E0,-9.377800941E0,-1.277495027E0
3.557731110E0,-2.624674320E0,-9.349071503E0,-1.263130426E0
3.560247881E0,-2.653403282E0,-9.353859901E0,-1.287071347E0
3.562765589E0,-2.648615360E0,-9.344284058E0,-1.306224108E0
3.565282360E0,-2.639038801E0,-9.368225098E0,-1.315800667E0
3.567800745E0,-2.686920881E0,-9.358648300E0,-1.344529748E0
3.570318506E0,-2.686920881E0,-9.334707260E0,-1.368470788E0
3.572835277E0,-2.706073523E0,-9.353859901E0,-1.358894348E0
3.575352881E0,-2.696497440E0,-9.363435745E0,-1.373258948E0
3.577870485E0,-2.725226402E0,-9.377800941E0,-1.387623549E0
3.580388558E0,-2.701285362E0,-9.396953583E0,-1.387623549E0
3.582905485E0,-2.739591122E0,-9.396953583E0,-1.397199869E0
3.585423558E0,-2.763532162E0,-9.387376785E0,-1.392411709E0
3.587965277E0,-2.749167442E0,-9.416107178E0,-1.416352749E0
3.590458141E0,-2.782684803E0,-9.416107178E0,-1.401988149E0
3.592975745E0,-2.744379282E0,-9.449624062E0,-1.430717230E0
3.595493141E0,-2.753955603E0,-9.440048218E0,-1.445081830E0
3.598011839E0,-2.749167442E0,-9.425683022E0,-1.445081830E0
3.600528922E0,-2.768320084E0,-9.416107178E0,-1.425929189E0
3.603046110E0,-2.801837683E0,-9.401741982E0,-1.425929189E0
3.605563193E0,-2.806625843E0,-9.416107178E0,-1.406776428E0
3.608080849E0,-2.777896643E0,-9.396953583E0,-1.416352749E0
3.610598870E0,-2.797049284E0,-9.401741982E0,-1.401988149E0
3.613117360E0,-2.782684803E0,-9.401741982E0,-1.406776428E0
3.615633974E0,-2.811414003E0,-9.387376785E0,-1.368470788E0
3.618151474E0,-2.811414003E0,-9.401741982E0,-1.373258948E0
3.620694704E0,-2.792261124E0,-9.392166138E0,-1.363682508E0
3.623187099E0,-2.825778484E0,-9.377800941E0,-1.368470788E0
3.625704079E0,-2.816202164E0,-9.377800941E0,-1.339741468E0
3.628222256E0,-2.806625843E0,-9.373012543E0,-1.320588708E0
3.630738974E0,-2.806625843E0,-9.392166138E0,-1.330165148E0
3.633256370E0,-2.801837683E0,-9.396953583E0,-1.306224108E0
3.635774339E0,-2.816202164E0,-9.420894623E0,-1.296647787E0
3.638291891E0,-2.840142965E0,-9.396953583E0,-1.263130426E0
3.640809495E0,-2.811414003E0,-9.435258865E0,-1.267918587E0
3.643326839E0,-2.806625843E0,-9.401741982E0,-1.277495027E0
3.645844391E0,-2.801837683E0,-9.430470467E0,-1.239189386E0
3.648362516E0,-2.825778484E0,-9.449624062E0,-1.234401226E0
3.650879547E0,-2.816202164E0,-9.454411507E0,-1.234401226E0
3.653398297E0,-2.792261124E0,-9.468776703E0,-1.234401226E0
3.655914860E0,-2.801837683E0,-9.468776703E0,-1.234401226E0
3.658432464E0,-2.782684803E0,-9.463988304E0,-1.224824905E0
3.660949808E0,-2.792261124E0,-9.440048218E0,-1.224824905E0
3.663467308E0,-2.816202164E0,-9.435258865E0,-1.248765707E0
3.665984964E0,-2.816202164E0,-9.463988304E0,-1.220036626E0
3.668502360E0,-2.787472963E0,-9.483140945E0,-1.224824905E0
3.671020381E0,-2.816202164E0,-9.454411507E0,-1.243977666E0
3.673537464E0,-2.820990324E0,-9.430470467E0,-1.234401226E0
3.676055068E0,-2.811414003E0,-9.454411507E0,-1.248765707E0
3.678572204E0,-2.792261124E0,-9.459199905E0,-1.234401226E0
3.681090537E0,-2.797049284E0,-9.420894623E0,-1.243977666E0
3.683607620E0,-2.830566883E0,-9.401741982E0,-1.248765707E0
3.686125381E0,-2.825778484E0,-9.396953583E0,-1.272706747E0
3.688643610E0,-2.816202164E0,-9.425683022E0,-1.258342266E0
3.691160277E0,-2.825778484E0,-9.396953583E0,-1.272706747E0
3.693678297E0,-2.859295845E0,-9.396953583E0,-1.263130426E0
3.696196162E0,-2.830566883E0,-9.411317825E0,-1.253553987E0
3.698714183E0,-2.825778484E0,-9.416107178E0,-1.248765707E0
3.701230745E0,-2.825778484E0,-9.420894623E0,-1.253553987E0
3.703748818E0,-2.854507923E0,-9.396953583E0,-1.272706747E0
3.706266943E0,-2.830566883E0,-9.396953583E0,-1.263130426E0
3.708783662E0,-2.835355043E0,-9.396953583E0,-1.258342266E0
3.711300641E0,-2.864084005E0,-9.416107178E0,-1.243977666E0
3.713818610E0,-2.840142965E0,-9.411317825E0,-1.277495027E0
3.716335224E0,-2.801837683E0,-9.363435745E0,-1.267918587E0
3.718853818E0,-2.816202164E0,-9.382588387E0,-1.253553987E0
3.721398506E0,-2.835355043E0,-9.373012543E0,-1.258342266E0
3.723888141E0,-2.830566883E0,-9.401741982E0,-1.239189386E0
3.726406006E0,-2.811414003E0,-9.396953583E0,-1.253553987E0
3.728923454E0,-2.787472963E0,-9.373012543E0,-1.258342266E0
3.731441527E0,-2.801837683E0,-9.373012543E0,-1.258342266E0
3.733958610E0,-2.811414003E0,-9.368225098E0,-1.267918587E0
3.736476683E0,-2.773108244E0,-9.377800941E0,-1.253553987E0
3.738993454E0,-2.753955603E0,-9.363435745E0,-1.243977666E0
3.741511214E0,-2.734802723E0,-9.315553665E0,-1.234401226E0
3.744029391E0,-2.739591122E0,-9.334707260E0,-1.253553987E0
3.746546214E0,-2.720438242E0,-9.329918861E0,-1.253553987E0
3.749082829E0,-2.730014563E0,-9.363435745E0,-1.229613066E0
3.751581579E0,-2.734802723E0,-9.344284058E0,-1.224824905E0
3.754098818E0,-2.744379282E0,-9.329918861E0,-1.229613066E0
3.756616527E0,-2.720438242E0,-9.325130463E0,-1.234401226E0
3.759134027E0,-2.725226402E0,-9.363435745E0,-1.220036626E0
3.761651735E0,-2.739591122E0,-9.344284058E0,-1.220036626E0
3.764169131E0,-2.749167442E0,-9.373012543E0,-1.248765707E0
3.766686995E0,-2.744379282E0,-9.373012543E0,-1.229613066E0
3.769204547E0,-2.725226402E0,-9.377800941E0,-1.243977666E0
3.771721579E0,-2.734802723E0,-9.353859901E0,-1.224824905E0
3.774240120E0,-2.763532162E0,-9.396953583E0,-1.239189386E0
3.776756839E0,-2.739591122E0,-9.382588387E0,-1.258342266E0
3.779274756E0,-2.749167442E0,-9.377800941E0,-1.239189386E0
3.781792985E0,-2.720438242E0,-9.358648300E0,-1.239189386E0
3.784310016E0,-2.720438242E0,-9.382588387E0,-1.243977666E0
3.786827360E0,-2.706073523E0,-9.368225098E0,-1.272706747E0
3.789345589E0,-2.715650082E0,-9.387376785E0,-1.253553987E0
3.791862568E0,-2.691709042E0,-9.349071503E0,-1.291859627E0
3.794380068E0,-2.715650082E0,-9.325130463E0,-1.267918587E0
3.796897672E0,-2.701285362E0,-9.349071503E0,-1.291859627E0
3.799415120E0,-2.667768002E0,-9.329918861E0,-1.263130426E0
3.801932516E0,-2.667768002E0,-9.334707260E0,-1.287071347E0
3.804450016E0,-2.658191681E0,-9.329918861E0,-1.277495027E0
3.806967829E0,-2.653403282E0,-9.305977821E0,-1.296647787E0
3.809485329E0,-2.658191681E0,-9.310766220E0,-1.287071347E0
3.812002985E0,-2.667768002E0,-9.305977821E0,-1.306224108E0
3.814521006E0,-2.653403282E0,-9.305977821E0,-1.301436067E0
3.817037516E0,-2.658191681E0,-9.320343018E0,-1.311012387E0
3.819555589E0,-2.658191681E0,-9.305977821E0,-1.311012387E0
3.822097412E0,-2.667768002E0,-9.296401978E0,-1.306224108E0
3.824590797E0,-2.691709042E0,-9.320343018E0,-1.315800667E0
3.827108506E0,-2.682132483E0,-9.291612625E0,-1.311012387E0
3.829625902E0,-2.686920881E0,-9.325130463E0,-1.315800667E0
3.832143349E0,-2.677344322E0,-9.339494705E0,-1.282283306E0
3.834661214E0,-2.667768002E0,-9.305977821E0,-1.301436067E0
3.837178922E0,-2.672556400E0,-9.334707260E0,-1.306224108E0
3.839696579E0,-2.682132483E0,-9.277248383E0,-1.296647787E0
3.842213558E0,-2.667768002E0,-9.315553665E0,-1.291859627E0
3.844730849E0,-2.706073523E0,-9.301189423E0,-1.296647787E0
3.847248402E0,-2.696497440E0,-9.325130463E0,-1.287071347E0
3.849766631E0,-2.686920881E0,-9.301189423E0,-1.272706747E0
3.852284027E0,-2.677344322E0,-9.325130463E0,-1.272706747E0
3.854802256E0,-2.710861921E0,-9.325130463E0,-1.282283306E0
3.857320016E0,-2.710861921E0,-9.334707260E0,-1.287071347E0
3.859836318E0,-2.744379282E0,-9.344284058E0,-1.277495027E0
3.862354912E0,-2.734802723E0,-9.344284058E0,-1.253553987E0
3.864871579E0,-2.753955603E0,-9.373012543E0,-1.267918587E0
3.867389027E0,-2.730014563E0,-9.363435745E0,-1.267918587E0
3.869906787E0,-2.749167442E0,-9.377800941E0,-1.253553987E0
3.872424339E0,-2.782684803E0,-9.377800941E0,-1.253553987E0
3.874941943E0,-2.763532162E0,-9.373012543E0,-1.263130426E0
3.877459183E0,-2.763532162E0,-9.392166138E0,-1.248765707E0
3.879976839E0,-2.739591122E0,-9.430470467E0,-1.248765707E0
3.882494756E0,-2.768320084E0,-9.430470467E0,-1.277495027E0
3.885011683E0,-2.773108244E0,-9.420894623E0,-1.253553987E0
3.887555277E0,-2.753955603E0,-9.444835663E0,-1.248765707E0
3.890046839E0,-2.782684803E0,-9.463988304E0,-1.253553987E0
3.892565016E0,-2.768320084E0,-9.473565102E0,-1.234401226E0
3.895081839E0,-2.777896643E0,-9.444835663E0,-1.239189386E0
3.897599547E0,-2.787472963E0,-9.435258865E0,-1.258342266E0
3.900117308E0,-2.797049284E0,-9.430470467E0,-1.263130426E0
3.902634912E0,-2.787472963E0,-9.454411507E0,-1.263130426E0
3.905152204E0,-2.773108244E0,-9.440048218E0,-1.253553987E0
3.907669808E0,-2.801837683E0,-9.430470467E0,-1.263130426E0
3.910187099E0,-2.787472963E0,-9.444835663E0,-1.263130426E0
3.912704964E0,-2.758743763E0,-9.435258865E0,-1.267918587E0
3.915222256E0,-2.773108244E0,-9.430470467E0,-1.277495027E0
3.917739912E0,-2.782684803E0,-9.406529427E0,-1.277495027E0
3.920257516E0,-2.777896643E0,-9.416107178E0,-1.277495027E0
3.922799183E0,-2.797049284E0,-9.406529427E0,-1.277495027E0
3.925292933E0,-2.797049284E0,-9.382588387E0,-1.291859627E0
3.927810120E0,-2.777896643E0,-9.363435745E0,-1.296647787E0
3.930327568E0,-2.739591122E0,-9.392166138E0,-1.291859627E0
3.932864079E0,-2.763532162E0,-9.373012543E0,-1.296647787E0
3.935432672E0,-2.749167442E0,-9.349071503E0,-1.301436067E0
3.937972568E0,-2.777896643E0,-9.358648300E0,-1.301436067E0
3.940539443E0,-2.773108244E0,-9.401741982E0,-1.320588708E0
3.943107412E0,-2.787472963E0,-9.377800941E0,-1.344529748E0
3.945675589E0,-2.787472963E0,-9.377800941E0,-1.349318027E0
3.948243766E0,-2.797049284E0,-9.377800941E0,-1.344529748E0
3.950811214E0,-2.801837683E0,-9.425683022E0,-1.344529748E0
3.953380329E0,-2.782684803E0,-9.416107178E0,-1.344529748E0
3.955946943E0,-2.797049284E0,-9.411317825E0,-1.344529748E0
3.958515016E0,-2.801837683E0,-9.449624062E0,-1.349318027E0
3.961083037E0,-2.811414003E0,-9.444835663E0,-1.363682508E0
3.963650433E0,-2.777896643E0,-9.435258865E0,-1.339741468E0
3.966218454E0,-2.801837683E0,-9.454411507E0,-1.349318027E0
3.968785902E0,-2.820990324E0,-9.425683022E0,-1.334953427E0
3.971354339E0,-2.801837683E0,-9.435258865E0,-1.325376987E0
3.973921943E0,-2.797049284E0,-9.440048218E0,-1.358894348E0
3.976489808E0,-2.797049284E0,-9.463988304E0,-1.363682508E0
3.979057777E0,-2.797049284E0,-9.459199905E0,-1.306224108E0
3.981626006E0,-2.797049284E0,-9.454411507E0,-1.311012387E0
3.984193402E0,-2.806625843E0,-9.473565102E0,-1.311012387E0
3.986785277E0,-2.820990324E0,-9.463988304E0,-1.306224108E0
3.989329235E0,-2.753955603E0,-9.430470467E0,-1.306224108E0
3.991897152E0,-2.758743763E0,-9.411317825E0,-1.306224108E0
3.994464912E0,-2.773108244E0,-9.420894623E0,-1.291859627E0
3.997033245E0,-2.730014563E0,-9.406529427E0,-1.296647787E0
3.999601683E0,-2.768320084E0,-9.368225098E0,-1.277495027E0
4.002168610E0,-2.744379282E0,-9.368225098E0,-1.291859627E0
4.004736370E0,-2.753955603E0,-9.353859901E0,-1.267918587E0
4.007304860E0,-2.739591122E0,-9.353859901E0,-1.258342266E0
4.009872464E0,-2.730014563E0,-9.344284058E0,-1.248765707E0
4.012439860E0,-2.701285362E0,-9.339494705E0,-1.248765707E0
4.015008506E0,-2.686920881E0,-9.320343018E0,-1.224824905E0
4.017575433E0,-2.677344322E0,-9.310766220E0,-1.210460305E0
4.020143558E0,-2.677344322E0,-9.301189423E0,-1.196095586E0
4.022664183E0,-2.682132483E0,-9.325130463E0,-1.210460305E0
4.025279235E0,-2.634250641E0,-9.296401978E0,-1.224824905E0
4.027847308E0,-2.624674320E0,-9.301189423E0,-1.215248346E0
4.030414808E0,-2.634250641E0,-9.267671585E0,-1.191307425E0
4.032983766E0,-2.634250641E0,-9.310766220E0,-1.200883865E0
4.035550797E0,-2.586368561E0,-9.277248383E0,-1.186519265E0
4.038118714E0,-2.552851439E0,-9.262884140E0,-1.186519265E0
4.040686995E0,-2.610309601E0,-9.248519897E0,-1.191307425E0
4.043254287E0,-2.595945120E0,-9.267671585E0,-1.200883865E0
4.045774599E0,-2.572004080E0,-9.258095741E0,-1.196095586E0
4.048390902E0,-2.533698559E0,-9.234154701E0,-1.200883865E0
4.050958922E0,-2.490604877E0,-9.267671585E0,-1.172154665E0
4.053526579E0,-2.500180960E0,-9.219789505E0,-1.167366505E0
4.056094599E0,-2.485816479E0,-9.234154701E0,-1.172154665E0
4.058661631E0,-2.452299118E0,-9.234154701E0,-1.181730986E0
4.061229652E0,-2.485816479E0,-9.243730545E0,-1.162578225E0
4.063759079E0,-2.452299118E0,-9.224578857E0,-1.153001904E0
4.066250797E0,-2.509757519E0,-9.262884140E0,-1.176942825E0
4.068792985E0,-2.466663837E0,-9.267671585E0,-1.172154665E0
4.071311422E0,-2.466663837E0,-9.258095741E0,-1.162578225E0
4.073828454E0,-2.485816479E0,-9.258095741E0,-1.148213744E0
4.076345485E0,-2.481028318E0,-9.305977821E0,-1.153001904E0
4.078864339E0,-2.457087278E0,-9.349071503E0,-1.172154665E0
4.081380849E0,-2.481028318E0,-9.329918861E0,-1.157790065E0
4.083898297E0,-2.461875677E0,-9.382588387E0,-1.176942825E0
4.086416058E0,-2.471451759E0,-9.406529427E0,-1.157790065E0
4.088933870E0,-2.495392799E0,-9.425683022E0,-1.167366505E0
4.091451006E0,-2.466663837E0,-9.454411507E0,-1.172154665E0
4.093968922E0,-2.471451759E0,-9.473565102E0,-1.167366505E0
4.096486266E0,-2.466663837E0,-9.511869431E0,-1.181730986E0
4.099003714E0,-2.452299118E0,-9.521447182E0,-1.167366505E0
4.101521527E0,-2.452299118E0,-9.545388222E0,-1.167366505E0
4.104038974E0,-2.457087278E0,-9.569329262E0,-1.162578225E0
4.106556006E0,-2.442722797E0,-9.598057747E0,-1.186519265E0
4.109073714E0,-2.423570156E0,-9.626787186E0,-1.210460305E0
4.111592308E0,-2.399629116E0,-9.612422943E0,-1.200883865E0
4.114110016E0,-2.413993597E0,-9.641151428E0,-1.196095586E0
4.116636683E0,-2.404417038E0,-9.645939827E0,-1.200883865E0
4.119144860E0,-2.390052557E0,-9.612422943E0,-1.229613066E0
4.121662047E0,-2.375688076E0,-9.645939827E0,-1.210460305E0
4.124202933E0,-2.375688076E0,-9.626787186E0,-1.248765707E0
4.126696943E0,-2.370899916E0,-9.602846146E0,-1.234401226E0
4.129215068E0,-2.404417038E0,-9.607633591E0,-1.229613066E0
4.131732099E0,-2.356535435E0,-9.588481903E0,-1.210460305E0
4.134249235E0,-2.318229675E0,-9.550175667E0,-1.196095586E0
4.136767152E0,-2.308653355E0,-9.540599823E0,-1.186519265E0
4.139285745E0,-2.323017836E0,-9.511869431E0,-1.186519265E0
4.141802099E0,-2.361323357E0,-9.516658783E0,-1.191307425E0
4.144320381E0,-2.356535435E0,-9.478352547E0,-1.162578225E0
4.146837568E0,-2.380475998E0,-9.507081985E0,-1.143425465E0
4.149373662E0,-2.409205437E0,-9.492717743E0,-1.172154665E0
4.151872672E0,-2.399629116E0,-9.492717743E0,-1.181730986E0
4.154390172E0,-2.442722797E0,-9.478352547E0,-1.167366505E0
4.156907204E0,-2.437934637E0,-9.497506142E0,-1.153001904E0
4.159425329E0,-2.428358078E0,-9.502293587E0,-1.153001904E0
4.161942620E0,-2.437934637E0,-9.497506142E0,-1.148213744E0
4.164460172E0,-2.452299118E0,-9.487928391E0,-1.148213744E0
4.166977464E0,-2.490604877E0,-9.497506142E0,-1.133849025E0
4.169495172E0,-2.476240158E0,-9.545388222E0,-1.167366505E0
4.172013349E0,-2.466663837E0,-9.554964066E0,-1.148213744E0
4.174530224E0,-2.476240158E0,-9.535810471E0,-1.143425465E0
4.177047881E0,-2.485816479E0,-9.583692551E0,-1.172154665E0
4.179565797E0,-2.485816479E0,-9.564540863E0,-1.153001904E0
4.182084339E0,-2.476240158E0,-9.593270302E0,-1.133849025E0
4.184600902E0,-2.485816479E0,-9.574116707E0,-1.124272704E0
4.187118506E0,-2.471451759E0,-9.588481903E0,-1.143425465E0
4.189635433E0,-2.471451759E0,-9.588481903E0,-1.114696264E0
4.192153454E0,-2.447510958E0,-9.588481903E0,-1.138637304E0
4.194670745E0,-2.423570156E0,-9.574116707E0,-1.124272704E0
4.197188193E0,-2.437934637E0,-9.569329262E0,-1.143425465E0
4.199705797E0,-2.428358078E0,-9.550175667E0,-1.119484544E0
4.202224131E0,-2.452299118E0,-9.535810471E0,-1.109907985E0
4.204741162E0,-2.433146238E0,-9.559751511E0,-1.119484544E0
4.207258506E0,-2.447510958E0,-9.540599823E0,-1.114696264E0
4.209776683E0,-2.428358078E0,-9.497506142E0,-1.100331664E0
4.212293662E0,-2.447510958E0,-9.478352547E0,-1.100331664E0
4.214811787E0,-2.452299118E0,-9.459199905E0,-1.148213744E0
4.217329339E0,-2.471451759E0,-9.468776703E0,-1.148213744E0
4.219846995E0,-2.442722797E0,-9.449624062E0,-1.153001904E0
4.222364235E0,-2.413993597E0,-9.449624062E0,-1.148213744E0
4.224881214E0,-2.380475998E0,-9.449624062E0,-1.157790065E0
4.227399079E0,-2.409205437E0,-9.444835663E0,-1.157790065E0
4.229918037E0,-2.433146238E0,-9.463988304E0,-1.196095586E0
4.232435172E0,-2.442722797E0,-9.449624062E0,-1.191307425E0
4.234951995E0,-2.452299118E0,-9.497506142E0,-1.205672026E0
4.237494391E0,-2.423570156E0,-9.468776703E0,-1.229613066E0
4.239987047E0,-2.466663837E0,-9.473565102E0,-1.234401226E0
4.242504495E0,-2.457087278E0,-9.459199905E0,-1.267918587E0
4.245021995E0,-2.500180960E0,-9.468776703E0,-1.315800667E0
4.247539599E0,-2.509757519E0,-9.497506142E0,-1.334953427E0
4.250058402E0,-2.509757519E0,-9.531023026E0,-1.354106188E0
4.252574756E0,-2.524122000E0,-9.497506142E0,-1.354106188E0
4.255092256E0,-2.533698559E0,-9.516658783E0,-1.392411709E0
4.257609652E0,-2.548063040E0,-9.502293587E0,-1.416352749E0
4.260127308E0,-2.557639599E0,-9.521447182E0,-1.401988149E0
4.262644860E0,-2.576792240E0,-9.473565102E0,-1.449870110E0
4.265162516E0,-2.567215919E0,-9.497506142E0,-1.464234710E0
4.267680589E0,-2.615097761E0,-9.526234627E0,-1.473811150E0
4.270198349E0,-2.619886160E0,-9.521447182E0,-1.502540231E0
4.272715120E0,-2.639038801E0,-9.521447182E0,-1.492963910E0
4.275233558E0,-2.624674320E0,-9.535810471E0,-1.483387470E0
4.277750120E0,-2.643826962E0,-9.511869431E0,-1.483387470E0
4.280268245E0,-2.653403282E0,-9.531023026E0,-1.445081830E0
4.282785381E0,-2.643826962E0,-9.516658783E0,-1.440293789E0
4.285303766E0,-2.691709042E0,-9.526234627E0,-1.430717230E0
4.287846943E0,-2.696497440E0,-9.526234627E0,-1.449870110E0
4.290339495E0,-2.706073523E0,-9.526234627E0,-1.440293789E0
4.292856110E0,-2.691709042E0,-9.521447182E0,-1.425929189E0
4.295373141E0,-2.706073523E0,-9.531023026E0,-1.416352749E0
4.297890954E0,-2.701285362E0,-9.507081985E0,-1.397199869E0
4.300408558E0,-2.710861921E0,-9.511869431E0,-1.373258948E0
4.302926891E0,-2.730014563E0,-9.487928391E0,-1.363682508E0
4.305443714E0,-2.710861921E0,-9.497506142E0,-1.358894348E0
4.307961579E0,-2.691709042E0,-9.507081985E0,-1.358894348E0
4.310478349E0,-2.658191681E0,-9.516658783E0,-1.301436067E0
4.312997099E0,-2.691709042E0,-9.473565102E0,-1.320588708E0
4.315514391E0,-2.653403282E0,-9.440048218E0,-1.277495027E0
4.318031318E0,-2.672556400E0,-9.425683022E0,-1.296647787E0
4.320548766E0,-2.639038801E0,-9.420894623E0,-1.272706747E0
4.323066995E0,-2.600733280E0,-9.449624062E0,-1.267918587E0
4.325583922E0,-2.572004080E0,-9.420894623E0,-1.277495027E0
4.328101266E0,-2.591156721E0,-9.382588387E0,-1.243977666E0
4.330619287E0,-2.543274879E0,-9.387376785E0,-1.282283306E0
4.333136683E0,-2.495392799E0,-9.411317825E0,-1.277495027E0
4.335654547E0,-2.533698559E0,-9.353859901E0,-1.258342266E0
4.338171891E0,-2.548063040E0,-9.305977821E0,-1.243977666E0
4.340689339E0,-2.543274879E0,-9.301189423E0,-1.239189386E0
4.343206735E0,-2.500180960E0,-9.272460938E0,-1.248765707E0
4.345725745E0,-2.481028318E0,-9.301189423E0,-1.272706747E0
4.348242047E0,-2.447510958E0,-9.267671585E0,-1.277495027E0
4.350759860E0,-2.437934637E0,-9.277248383E0,-1.291859627E0
4.353276995E0,-2.409205437E0,-9.272460938E0,-1.287071347E0
4.355795485E0,-2.404417038E0,-9.262884140E0,-1.301436067E0
4.358312152E0,-2.399629116E0,-9.238943100E0,-1.311012387E0
4.360829652E0,-2.409205437E0,-9.219789505E0,-1.320588708E0
4.363347672E0,-2.399629116E0,-9.272460938E0,-1.311012387E0
4.365864912E0,-2.394840717E0,-9.272460938E0,-1.315800667E0
4.368382308E0,-2.385264397E0,-9.291612625E0,-1.344529748E0
4.370899808E0,-2.356535435E0,-9.320343018E0,-1.339741468E0
4.373418766E0,-2.375688076E0,-9.363435745E0,-1.339741468E0
4.375936058E0,-2.385264397E0,-9.296401978E0,-1.344529748E0
4.378452620E0,-2.351747036E0,-9.353859901E0,-1.330165148E0
4.380970329E0,-2.346958876E0,-9.392166138E0,-1.301436067E0
4.383486995E0,-2.337382317E0,-9.387376785E0,-1.315800667E0
4.386005329E0,-2.366111517E0,-9.416107178E0,-1.320588708E0
4.388522724E0,-2.342170477E0,-9.487928391E0,-1.344529748E0
4.391040433E0,-2.313441277E0,-9.516658783E0,-1.354106188E0
4.393558818E0,-2.313441277E0,-9.521447182E0,-1.315800667E0
4.396076631E0,-2.308653355E0,-9.545388222E0,-1.315800667E0
4.398592933E0,-2.294288635E0,-9.578905106E0,-1.301436067E0
4.401110797E0,-2.275135756E0,-9.626787186E0,-1.287071347E0
4.403628089E0,-2.279924154E0,-9.669880867E0,-1.306224108E0
4.406146058E0,-2.289500237E0,-9.684246063E0,-1.311012387E0
4.408663766E0,-2.265559673E0,-9.693821907E0,-1.306224108E0
4.411181058E0,-2.294288635E0,-9.732128143E0,-1.301436067E0
4.413699027E0,-2.279924154E0,-9.732128143E0,-1.291859627E0
4.416216058E0,-2.313441277E0,-9.751279831E0,-1.287071347E0
4.418734391E0,-2.294288635E0,-9.741703987E0,-1.287071347E0
4.421251058E0,-2.308653355E0,-9.736915588E0,-1.277495027E0
4.423769443E0,-2.299076796E0,-9.746491432E0,-1.248765707E0
4.426286110E0,-2.327805996E0,-9.756069183E0,-1.272706747E0
4.428803662E0,-2.299076796E0,-9.751279831E0,-1.267918587E0
4.431321266E0,-2.327805996E0,-9.732128143E0,-1.243977666E0
4.433838610E0,-2.308653355E0,-9.712974548E0,-1.243977666E0
4.436356318E0,-2.299076796E0,-9.736915588E0,-1.253553987E0
4.438873922E0,-2.327805996E0,-9.717762947E0,-1.234401226E0
4.441392308E0,-2.289500237E0,-9.712974548E0,-1.258342266E0
4.443909391E0,-2.299076796E0,-9.717762947E0,-1.258342266E0
4.446426631E0,-2.327805996E0,-9.698610306E0,-1.220036626E0
4.448944495E0,-2.342170477E0,-9.650728226E0,-1.215248346E0
4.451462047E0,-2.332594395E0,-9.641151428E0,-1.205672026E0
4.453979287E0,-2.346958876E0,-9.636363983E0,-1.224824905E0
4.456497829E0,-2.337382317E0,-9.650728226E0,-1.224824905E0
4.459014495E0,-2.366111517E0,-9.626787186E0,-1.215248346E0
4.461531995E0,-2.390052557E0,-9.636363983E0,-1.215248346E0
4.464049495E0,-2.399629116E0,-9.636363983E0,-1.215248346E0
4.466567464E0,-2.366111517E0,-9.621998787E0,-1.220036626E0
4.469085641E0,-2.370899916E0,-9.602846146E0,-1.220036626E0
4.471602308E0,-2.361323357E0,-9.650728226E0,-1.224824905E0
4.474119756E0,-2.370899916E0,-9.636363983E0,-1.248765707E0
4.476637464E0,-2.356535435E0,-9.645939827E0,-1.234401226E0
4.479154912E0,-2.351747036E0,-9.621998787E0,-1.239189386E0
4.481673297E0,-2.380475998E0,-9.607633591E0,-1.229613066E0
4.484189756E0,-2.375688076E0,-9.612422943E0,-1.248765707E0
4.486707777E0,-2.394840717E0,-9.607633591E0,-1.224824905E0
4.489249183E0,-2.346958876E0,-9.564540863E0,-1.224824905E0
4.491764756E0,-2.351747036E0,-9.578905106E0,-1.215248346E0
4.494283245E0,-2.361323357E0,-9.593270302E0,-1.229613066E0
4.496801891E0,-2.356535435E0,-9.564540863E0,-1.215248346E0
4.499318037E0,-2.337382317E0,-9.564540863E0,-1.215248346E0
4.501813870E0,-2.356535435E0,-9.574116707E0,-1.210460305E0
4.504357099E0,-2.356535435E0,-9.559751511E0,-1.191307425E0
4.506848297E0,-2.327805996E0,-9.521447182E0,-1.210460305E0
4.509387672E0,-2.327805996E0,-9.540599823E0,-1.191307425E0
4.511906995E0,-2.323017836E0,-9.516658783E0,-1.239189386E0
4.514423245E0,-2.308653355E0,-9.521447182E0,-1.205672026E0
4.516943870E0,-2.294288635E0,-9.554964066E0,-1.243977666E0
4.519435849E0,-2.294288635E0,-9.535810471E0,-1.263130426E0
4.521976943E0,-2.318229675E0,-9.535810471E0,-1.248765707E0
4.524494756E0,-2.318229675E0,-9.554964066E0,-1.267918587E0
4.527011631E0,-2.323017836E0,-9.559751511E0,-1.248765707E0
4.529530172E0,-2.303865194E0,-9.545388222E0,-1.277495027E0
4.532035485E0,-2.303865194E0,-9.559751511E0,-1.296647787E0
4.534566162E0,-2.318229675E0,-9.593270302E0,-1.282283306E0
4.537081683E0,-2.313441277E0,-9.602846146E0,-1.320588708E0
4.539599287E0,-2.318229675E0,-9.621998787E0,-1.301436067E0
4.542116839E0,-2.332594395E0,-9.598057747E0,-1.349318027E0
4.544634443E0,-2.361323357E0,-9.641151428E0,-1.358894348E0
4.547151631E0,-2.332594395E0,-9.636363983E0,-1.354106188E0
4.549665641E0,-2.342170477E0,-9.645939827E0,-1.339741468E0
4.552164443E0,-2.370899916E0,-9.679456711E0,-1.382835388E0
4.554705745E0,-2.337382317E0,-9.693821907E0,-1.368470788E0
4.557224027E0,-2.346958876E0,-9.722550392E0,-1.378047109E0
4.559739183E0,-2.346958876E0,-9.665092468E0,-1.387623549E0
4.562258610E0,-2.346958876E0,-9.674669266E0,-1.387623549E0
4.564774391E0,-2.313441277E0,-9.703397751E0,-1.382835388E0
4.567292099E0,-2.294288635E0,-9.712974548E0,-1.368470788E0
4.569811214E0,-2.251194715E0,-9.708187103E0,-1.397199869E0
4.572328141E0,-2.323017836E0,-9.660305023E0,-1.387623549E0
4.574846058E0,-2.342170477E0,-9.631574631E0,-1.363682508E0
4.577339860E0,-2.342170477E0,-9.617210388E0,-1.325376987E0
4.579881735E0,-2.332594395E0,-9.617210388E0,-1.311012387E0
4.582397412E0,-2.313441277E0,-9.583692551E0,-1.306224108E0
4.584917620E0,-2.299076796E0,-9.593270302E0,-1.320588708E0
4.587433662E0,-2.284712315E0,-9.540599823E0,-1.330165148E0
4.589950641E0,-2.289500237E0,-9.502293587E0,-1.311012387E0
4.592468974E0,-2.289500237E0,-9.468776703E0,-1.287071347E0
4.594962881E0,-2.279924154E0,-9.449624062E0,-1.267918587E0
4.597504079E0,-2.251194715E0,-9.430470467E0,-1.243977666E0
4.600021631E0,-2.294288635E0,-9.401741982E0,-1.234401226E0
4.602540068E0,-2.255983114E0,-9.344284058E0,-1.205672026E0
4.605033506E0,-2.275135756E0,-9.339494705E0,-1.191307425E0
4.607550797E0,-2.265559673E0,-9.334707260E0,-1.176942825E0
4.610068558E0,-2.255983114E0,-9.349071503E0,-1.167366505E0
4.612586110E0,-2.241618633E0,-9.305977821E0,-1.138637304E0
4.615104547E0,-2.246406555E0,-9.315553665E0,-1.153001904E0
4.617620745E0,-2.227253914E0,-9.301189423E0,-1.124272704E0
4.620139756E0,-2.217677593E0,-9.301189423E0,-1.109907985E0
4.622656214E0,-2.251194715E0,-9.310766220E0,-1.100331664E0
4.625198245E0,-2.232042074E0,-9.291612625E0,-1.109907985E0
4.627691527E0,-2.203312874E0,-9.334707260E0,-1.085967064E0
4.630210224E0,-2.160219193E0,-9.339494705E0,-1.105119824E0
4.632729704E0,-2.165007353E0,-9.320343018E0,-1.076390624E0
4.635243714E0,-2.121913671E0,-9.344284058E0,-1.085967064E0
4.637761318E0,-2.121913671E0,-9.358648300E0,-1.081178904E0
4.640279808E0,-2.117125273E0,-9.377800941E0,-1.066814303E0
4.642796579E0,-2.088396072E0,-9.334707260E0,-1.062026143E0
4.645314027E0,-2.054878712E0,-9.358648300E0,-1.033296943E0
4.647832360E0,-2.016573191E0,-9.363435745E0,-1.042873263E0
4.650349183E0,-2.021361351E0,-9.387376785E0,-1.038085103E0
4.652890381E0,-1.992632031E0,-9.392166138E0,-1.071602464E0
4.655384599E0,-1.992632031E0,-9.411317825E0,-1.066814303E0
4.657901943E0,-1.939962029E0,-9.435258865E0,-1.062026143E0
4.660419391E0,-1.906444550E0,-9.444835663E0,-1.038085103E0
4.662937933E0,-1.911232710E0,-9.463988304E0,-1.033296943E0
4.665455381E0,-1.882503629E0,-9.507081985E0,-1.066814303E0
4.667972047E0,-1.863350749E0,-9.511869431E0,-1.066814303E0
4.670489599E0,-1.829833388E0,-9.516658783E0,-1.081178904E0
4.673007204E0,-1.877715349E0,-9.554964066E0,-1.100331664E0
4.675524652E0,-1.829833388E0,-9.574116707E0,-1.090755343E0
4.678042620E0,-1.810680628E0,-9.593270302E0,-1.114696264E0
4.680559808E0,-1.815468788E0,-9.626787186E0,-1.090755343E0
4.683077256E0,-1.810680628E0,-9.645939827E0,-1.119484544E0
4.685594964E0,-1.810680628E0,-9.665092468E0,-1.129060864E0
4.688112360E0,-1.796315908E0,-9.674669266E0,-1.138637304E0
4.690631110E0,-1.815468788E0,-9.679456711E0,-1.138637304E0
4.693148662E0,-1.777163267E0,-9.727338791E0,-1.157790065E0
4.695665277E0,-1.829833388E0,-9.732128143E0,-1.133849025E0
4.698182985E0,-1.791527867E0,-9.803951263E0,-1.143425465E0
4.700700329E0,-1.834621549E0,-9.808738708E0,-1.124272704E0
4.703243558E0,-1.844197989E0,-9.870985031E0,-1.133849025E0
4.705736527E0,-1.906444550E0,-9.880561829E0,-1.124272704E0
4.708254339E0,-1.978267550E0,-9.918867111E0,-1.129060864E0
4.710770641E0,-2.026149511E0,-9.966749191E0,-1.138637304E0
4.713288349E0,-2.021361351E0,-1.002420807E1,-1.133849025E0
4.715805693E0,-2.059667110E0,-1.007209015E1,-1.119484544E0
4.718323402E0,-2.069243431E0,-1.011039448E1,-1.119484544E0
4.720841787E0,-2.050090551E0,-1.011039448E1,-1.124272704E0
4.723358297E0,-2.083607912E0,-1.019658279E1,-1.114696264E0
4.725900120E0,-2.078819752E0,-1.028755760E1,-1.085967064E0
4.728393610E0,-2.040513992E0,-1.033543968E1,-1.081178904E0
4.730911735E0,-1.978267550E0,-1.039768696E1,-1.038085103E0
4.733428974E0,-1.906444550E0,-1.037853336E1,-1.018932343E0
4.735946787E0,-1.853774309E0,-1.033543968E1,-1.033296943E0
4.738463766E0,-1.791527867E0,-1.028277016E1,-1.014144063E0
4.740982152E0,-1.738857627E0,-1.022052383E1,-9.758385420E-1
4.743498766E0,-1.767586827E0,-1.010081863E1,-9.471094012E-1
4.746016787E0,-1.805892348E0,-1.000505447E1,-9.375330210E-1
4.748533974E0,-1.815468788E0,-9.904502869E0,-9.327447414E-1
4.751052464E0,-1.834621549E0,-9.784797668E0,-9.231683612E-1
4.753569756E0,-1.882503629E0,-9.751279831E0,-9.088038206E-1
4.756086787E0,-1.911232710E0,-9.693821907E0,-9.518975616E-1
4.758604860E0,-1.978267550E0,-9.727338791E0,-9.662621617E-1
4.761122568E0,-1.944750190E0,-9.803951263E0,-9.902031422E-1
4.763639443E0,-1.920809031E0,-9.880561829E0,-9.902031422E-1
4.766156995E0,-1.949538350E0,-9.976325989E0,-9.423211813E-1
4.768674547E0,-1.997420430E0,-1.006251240E1,-8.992273808E-1
4.771192516E0,-1.963902831E0,-1.014391327E1,-8.944392204E-1
4.773710381E0,-1.882503629E0,-1.019658279E1,-8.752864003E-1
4.776227204E0,-1.825045228E0,-1.016785336E1,-8.752864003E-1
4.778745745E0,-1.762798548E0,-1.008645344E1,-8.992273808E-1
4.781262620E0,-1.743645787E0,-1.000505447E1,-8.944392204E-1
4.783780381E0,-1.777163267E0,-9.885350227E0,-9.088038206E-1
4.786298141E0,-1.815468788E0,-9.765645027E0,-9.375330210E-1
4.788815381E0,-1.882503629E0,-9.665092468E0,-1.038085103E0
4.791332881E0,-1.896868110E0,-9.564540863E0,-1.100331664E0
4.793849964E0,-1.987843871E0,-9.545388222E0,-1.119484544E0
4.796367881E0,-2.021361351E0,-9.521447182E0,-1.210460305E0
4.798885224E0,-2.040513992E0,-9.507081985E0,-1.301436067E0
4.801401943E0,-2.069243431E0,-9.444835663E0,-1.325376987E0
4.803920797E0,-2.097972631E0,-9.420894623E0,-1.325376987E0
4.806438089E0,-2.112337112E0,-9.392166138E0,-1.373258948E0
4.808956110E0,-2.131489754E0,-9.401741982E0,-1.401988149E0
4.811473766E0,-2.145854473E0,-9.425683022E0,-1.464234710E0
4.813990797E0,-2.150642872E0,-9.358648300E0,-1.483387470E0
4.816508974E0,-2.160219193E0,-9.353859901E0,-1.483387470E0
4.819025693E0,-2.193736553E0,-9.353859901E0,-1.464234710E0
4.821543506E0,-2.184159994E0,-9.363435745E0,-1.469022870E0
4.824060902E0,-2.131489754E0,-9.282036781E0,-1.425929189E0
4.826603089E0,-2.141066313E0,-9.243730545E0,-1.382835388E0
4.829097256E0,-2.179371834E0,-9.224578857E0,-1.354106188E0
4.831613610E0,-2.155430794E0,-9.229367256E0,-1.339741468E0
4.834131318E0,-2.188948393E0,-9.219789505E0,-1.287071347E0
4.836648766E0,-2.188948393E0,-9.258095741E0,-1.243977666E0
4.839166943E0,-2.198524475E0,-9.258095741E0,-1.229613066E0
4.841683922E0,-2.246406555E0,-9.277248383E0,-1.200883865E0
4.844201474E0,-2.313441277E0,-9.315553665E0,-1.186519265E0
4.846719339E0,-2.327805996E0,-9.377800941E0,-1.181730986E0
4.849236422E0,-2.370899916E0,-9.401741982E0,-1.181730986E0
4.851754652E0,-2.327805996E0,-9.392166138E0,-1.196095586E0
4.854271839E0,-2.370899916E0,-9.449624062E0,-1.191307425E0
4.856789443E0,-2.342170477E0,-9.473565102E0,-1.148213744E0
4.859307152E0,-2.327805996E0,-9.497506142E0,-1.143425465E0
4.861825433E0,-2.323017836E0,-9.473565102E0,-1.133849025E0
4.864342152E0,-2.342170477E0,-9.511869431E0,-1.114696264E0
4.866861266E0,-2.346958876E0,-9.511869431E0,-1.095543504E0
4.869377204E0,-2.323017836E0,-9.516658783E0,-1.114696264E0
4.871895641E0,-2.313441277E0,-9.516658783E0,-1.124272704E0
4.874412829E0,-2.332594395E0,-9.559751511E0,-1.148213744E0
4.876929756E0,-2.332594395E0,-9.569329262E0,-1.114696264E0
4.879448870E0,-2.318229675E0,-9.583692551E0,-1.114696264E0
4.881965120E0,-2.270347595E0,-9.598057747E0,-1.100331664E0
4.884482724E0,-2.260771275E0,-9.598057747E0,-1.105119824E0
4.887000641E0,-2.270347595E0,-9.598057747E0,-1.124272704E0
4.889518245E0,-2.251194715E0,-9.602846146E0,-1.138637304E0
4.892035277E0,-2.284712315E0,-9.617210388E0,-1.162578225E0
4.894553402E0,-2.284712315E0,-9.588481903E0,-1.153001904E0
4.897070902E0,-2.222465515E0,-9.588481903E0,-1.153001904E0
4.899587777E0,-2.208101034E0,-9.612422943E0,-1.167366505E0
4.902105433E0,-2.188948393E0,-9.593270302E0,-1.153001904E0
4.904623141E0,-2.169795513E0,-9.612422943E0,-1.162578225E0
4.907141579E0,-2.188948393E0,-9.636363983E0,-1.143425465E0
4.909658245E0,-2.169795513E0,-9.626787186E0,-1.129060864E0
4.912175745E0,-2.165007353E0,-9.588481903E0,-1.138637304E0
4.914692985E0,-2.121913671E0,-9.574116707E0,-1.133849025E0
4.917211318E0,-2.150642872E0,-9.578905106E0,-1.153001904E0
4.919728349E0,-2.136278152E0,-9.593270302E0,-1.138637304E0
4.922246006E0,-2.102760792E0,-9.583692551E0,-1.133849025E0
4.924764495E0,-2.054878712E0,-9.574116707E0,-1.114696264E0
4.927309704E0,-2.021361351E0,-9.569329262E0,-1.119484544E0
4.929798558E0,-2.011785030E0,-9.545388222E0,-1.119484544E0
4.932316162E0,-1.944750190E0,-9.545388222E0,-1.129060864E0
4.934833818E0,-1.877715349E0,-9.497506142E0,-1.148213744E0
4.937351110E0,-1.786739588E0,-9.473565102E0,-1.143425465E0
4.939868714E0,-1.719704866E0,-9.444835663E0,-1.153001904E0
4.942387308E0,-1.647881866E0,-9.396953583E0,-1.167366505E0
4.944904027E0,-1.547329664E0,-9.353859901E0,-1.157790065E0
4.947421995E0,-1.461142182E0,-9.329918861E0,-1.167366505E0
4.949958349E0,-1.413260221E0,-9.258095741E0,-1.172154665E0
4.952456839E0,-1.408471942E0,-9.272460938E0,-1.176942825E0
4.954974391E0,-1.379742861E0,-9.267671585E0,-1.138637304E0
4.957491839E0,-1.394107342E0,-9.320343018E0,-1.148213744E0
4.960010329E0,-1.403683782E0,-9.353859901E0,-1.167366505E0
4.962527412E0,-1.403683782E0,-9.420894623E0,-1.176942825E0
4.965044756E0,-1.394107342E0,-9.483140945E0,-1.215248346E0
4.967562152E0,-1.408471942E0,-9.535810471E0,-1.234401226E0
4.970080224E0,-1.379742861E0,-9.607633591E0,-1.243977666E0
4.972550589E0,-1.384530902E0,-9.636363983E0,-1.287071347E0
4.975114756E0,-1.379742861E0,-9.689033508E0,-1.287071347E0
4.977632516E0,-1.355801821E0,-9.727338791E0,-1.282283306E0
4.980150172E0,-1.341437221E0,-9.727338791E0,-1.306224108E0
4.982668193E0,-1.336649060E0,-9.712974548E0,-1.320588708E0
4.985186006E0,-1.288767099E0,-9.712974548E0,-1.315800667E0
4.987702620E0,-1.279190660E0,-9.689033508E0,-1.354106188E0
4.990220849E0,-1.250461459E0,-9.669880867E0,-1.358894348E0
4.992737777E0,-1.255249739E0,-9.650728226E0,-1.325376987E0
4.995255277E0,-1.250461459E0,-9.602846146E0,-1.315800667E0
4.997772829E0,-1.202579498E0,-9.598057747E0,-1.325376987E0
5.000290797E0,-1.183426738E0,-9.583692551E0,-1.306224108E0
5.002833454E0,-1.183426738E0,-9.531023026E0,-1.325376987E0
5.005325797E0,-1.183426738E0,-9.483140945E0,-1.325376987E0
5.007843974E0,-1.154697418E0,-9.459199905E0,-1.315800667E0
5.010361214E0,-1.169062138E0,-9.468776703E0,-1.301436067E0
5.012878558E0,-1.121180058E0,-9.401741982E0,-1.306224108E0
5.015396735E0,-1.116392016E0,-9.368225098E0,-1.330165148E0
5.017913714E0,-1.078086376E0,-9.339494705E0,-1.334953427E0
5.020431162E0,-1.044569016E0,-9.320343018E0,-1.311012387E0
5.022968454E0,-1.006263375E0,-9.320343018E0,-1.320588708E0
5.025467308E0,-9.631697536E-1,-9.325130463E0,-1.334953427E0
5.028009756E0,-9.679579139E-1,-9.392166138E0,-1.330165148E0
5.030501318E0,-9.679579139E-1,-9.416107178E0,-1.320588708E0
5.033020120E0,-9.248640537E-1,-9.473565102E0,-1.334953427E0
5.035536422E0,-9.009230733E-1,-9.511869431E0,-1.344529748E0
5.038055068E0,-9.104995131E-1,-9.569329262E0,-1.373258948E0
5.040571474E0,-9.871106744E-1,-9.612422943E0,-1.363682508E0
5.043088974E0,-1.020627975E0,-9.655515671E0,-1.358894348E0
5.045607099E0,-1.058933616E0,-9.674669266E0,-1.368470788E0
5.048124339E0,-1.092450976E0,-9.736915588E0,-1.397199869E0
5.050642256E0,-1.154697418E0,-9.803951263E0,-1.387623549E0
5.053185016E0,-1.212155819E0,-9.861409187E0,-1.363682508E0
5.055676735E0,-1.250461459E0,-9.938019753E0,-1.368470788E0
5.058194652E0,-1.283978820E0,-9.952384949E0,-1.416352749E0
5.060712099E0,-1.327072620E0,-9.942808151E0,-1.406776428E0
5.063229860E0,-1.336649060E0,-9.928443909E0,-1.382835388E0
5.065747516E0,-1.269614220E0,-9.875772476E0,-1.363682508E0
5.068264652E0,-1.336649060E0,-9.938019753E0,-1.311012387E0
5.070783714E0,-1.556906104E0,-1.005293655E1,-1.306224108E0
5.073300016E0,-1.604788065E0,-1.011997223E1,-1.296647787E0
5.075818402E0,-1.595211744E0,-1.010081863E1,-1.301436067E0
5.078335902E0,-1.556906104E0,-1.001463127E1,-1.311012387E0
5.080852620E0,-1.576058984E0,-9.971536636E0,-1.301436067E0
5.083371839E0,-1.614364505E0,-9.909291267E0,-1.306224108E0
5.085888558E0,-1.671822786E0,-9.842255592E0,-1.296647787E0
5.088405693E0,-1.705340266E0,-9.784797668E0,-1.282283306E0
5.090922777E0,-1.748433948E0,-9.789586067E0,-1.301436067E0
5.093441318E0,-1.762798548E0,-9.784797668E0,-1.315800667E0
5.095958193E0,-1.762798548E0,-9.784797668E0,-1.315800667E0
5.098475797E0,-1.796315908E0,-9.780010223E0,-1.306224108E0
5.100993349E0,-1.796315908E0,-9.732128143E0,-1.311012387E0
5.103535485E0,-1.796315908E0,-9.703397751E0,-1.301436067E0
5.106028402E0,-1.781951308E0,-9.698610306E0,-1.272706747E0
5.108559339E0,-1.791527867E0,-9.660305023E0,-1.239189386E0
5.111063610E0,-1.786739588E0,-9.722550392E0,-1.215248346E0
5.113581162E0,-1.815468788E0,-9.727338791E0,-1.210460305E0
5.116099027E0,-1.786739588E0,-9.717762947E0,-1.210460305E0
5.118616006E0,-1.758010507E0,-9.689033508E0,-1.210460305E0
5.121133714E0,-1.729281187E0,-9.612422943E0,-1.186519265E0
5.123651110E0,-1.714916587E0,-9.574116707E0,-1.157790065E0
5.126168714E0,-1.743645787E0,-9.545388222E0,-1.167366505E0
5.128711787E0,-1.758010507E0,-9.511869431E0,-1.172154665E0
5.131203870E0,-1.796315908E0,-9.535810471E0,-1.148213744E0
5.133721579E0,-1.791527867E0,-9.559751511E0,-1.162578225E0
5.136240381E0,-1.714916587E0,-9.574116707E0,-1.124272704E0
