"Time (s)","Acceleration x (m/s^2)","Acceleration y (m/s^2)","Acceleration z (m/s^2)"
1.018590000E-2,-3.807578981E-1,4.206283092E0,6.847062111E0
1.262975400E-2,-3.640081584E-1,4.237689018E0,6.815955162E0
1.507037900E-2,-3.640081584E-1,4.254438877E0,6.775277138E0
1.750991000E-2,-3.735794425E-1,4.230510235E0,6.658029079E0
1.992537900E-2,-3.281157911E-1,4.196712017E0,6.533602238E0
2.230496200E-2,-3.281157911E-1,4.196712017E0,6.533602238E0
2.470845200E-2,-2.081755698E-1,4.256831646E0,6.612565517E0
2.714782700E-2,-2.081755698E-1,4.256831646E0,6.612565517E0
2.958720200E-2,-2.536391914E-1,4.359723091E0,6.887740135E0
3.200267000E-2,-3.664009571E-1,4.474578381E0,7.225427151E0
3.441813900E-2,-6.320042610E-1,4.718646049E0,7.780860901E0
3.685751400E-2,-6.320042610E-1,4.718646049E0,7.780860901E0
3.929688900E-2,-7.037889361E-1,4.764110088E0,7.969893932E0
4.174168100E-2,-7.037889361E-1,4.778766155E0,8.125427246E0
4.419043100E-2,-6.822535396E-1,4.756931305E0,8.295617104E0
4.664683700E-2,-6.080760360E-1,4.730610371E0,8.398508072E0
4.911074300E-2,-5.003990531E-1,4.704289436E0,8.484649658E0
5.157183700E-2,-3.664009571E-1,4.701896667E0,8.604290962E0
5.403074300E-2,-2.416750938E-1,4.668396950E0,8.680861473E0
5.648793100E-2,-1.651047617E-1,4.663611412E0,8.793622971E0
5.894386800E-2,-1.220339537E-1,4.646861553E0,8.908478737E0
6.139871200E-2,-1.172483116E-1,4.637290478E0,9.023334503E0
6.385261800E-2,-1.698904037E-1,4.615755081E0,9.142974854E0
6.630428500E-2,-2.560320199E-1,4.630111694E0,9.188439369E0
6.872720200E-2,-3.448655605E-1,4.627718925E0,9.231510162E0
7.112277500E-2,-4.238287210E-1,4.608576298E0,9.217152596E0
7.351761800E-2,-5.147559643E-1,4.594219685E0,9.183652878E0
7.591246200E-2,-6.200401783E-1,4.603790760E0,9.176474571E0
7.830808700E-2,-7.205387354E-1,4.601397991E0,9.176474571E0
8.070376400E-2,-8.401798606E-1,4.622933388E0,9.150154114E0
8.309860800E-2,-9.266205430E-1,4.651647091E0,9.097511292E0
8.549345200E-2,-1.012762189E0,4.642076015E0,9.066405296E0
8.788907700E-2,-1.077368379E0,4.654039860E0,9.020941734E0
9.028470200E-2,-1.122832060E0,4.627718925E0,8.920442581E0
9.267954500E-2,-1.163509965E0,4.603790760E0,8.891729355E0
9.507438900E-2,-1.187438250E0,4.589433670E0,8.798408508E0
9.747001400E-2,-1.199402332E0,4.551148891E0,8.726624489E0
9.986569100E-2,-1.197009563E0,4.548755646E0,8.666504860E0
1.022605350E-1,-1.208973646E0,4.500899315E0,8.592327118E0
1.046553790E-1,-1.199402332E0,4.491328239E0,8.525327682E0
1.070510040E-1,-1.201795220E0,4.479363918E0,8.439186096E0
1.094466290E-1,-1.187438250E0,4.467400074E0,8.374580383E0
1.118414730E-1,-1.163509965E0,4.438685894E0,8.329116821E0
1.142363160E-1,-1.137188911E0,4.443471432E0,8.262117386E0
1.166319410E-1,-1.120439172E0,4.460221291E0,8.242975235E0
1.190276180E-1,-1.065404296E0,4.453042984E0,8.166404724E0
1.214224620E-1,-1.027119160E0,4.474578381E0,8.120641708E0
1.238173060E-1,-1.000798106E0,4.493721008E0,8.056035995E0
1.262129310E-1,-9.433703423E-1,4.524827480E0,7.974679470E0
1.286085560E-1,-8.715856671E-1,4.539184570E0,7.948358536E0
1.310034000E-1,-8.330013752E-1,4.536791801E0,7.888537884E0
1.333982430E-1,-8.138588071E-1,4.536791801E0,7.859824181E0
1.357938680E-1,-7.947162390E-1,4.543970108E0,7.840681553E0
1.381894930E-1,-8.210372925E-1,4.548755646E0,7.855038643E0
1.405843370E-1,-8.500502706E-1,4.539184570E0,7.867002487E0
1.429792330E-1,-9.050851464E-1,4.541577339E0,7.900502205E0
1.453748580E-1,-9.385846853E-1,4.541577339E0,7.941180229E0
1.477704830E-1,-9.960124493E-1,4.548755646E0,7.977072716E0
1.501653270E-1,-1.015154958E0,4.548755646E0,8.036892891E0
1.525601700E-1,-1.091725349E0,4.563112736E0,8.118248940E0
1.549557950E-1,-1.163509965E0,4.594219685E0,8.254939079E0
1.573514200E-1,-1.242473125E0,4.608576298E0,8.376973152E0
1.597462640E-1,-1.297508121E0,4.613361835E0,8.439186096E0
1.621411600E-1,-1.352542996E0,4.630111694E0,8.475078583E0
1.645367850E-1,-1.395613790E0,4.620540619E0,8.479864120E0
1.669324100E-1,-1.422233939E0,4.625326157E0,8.534899712E0
1.693272540E-1,-1.446162224E0,4.608576298E0,8.546863556E0
1.717220980E-1,-1.474876046E0,4.610969067E0,8.582756042E0
1.741177230E-1,-1.520339727E0,4.615755081E0,8.618648529E0
1.765134000E-1,-1.546660781E0,4.589433670E0,8.635397911E0
1.789082430E-1,-1.549053550E0,4.570291042E0,8.647361755E0
1.813030870E-1,-1.568196177E0,4.563112736E0,8.633005142E0
1.836987120E-1,-1.572981834E0,4.551148891E0,8.635397911E0
1.860943370E-1,-1.570588946E0,4.517649174E0,8.616254807E0
1.884891810E-1,-1.572981834E0,4.524827480E0,8.611469269E0
1.908840250E-1,-1.587338686E0,4.510470867E0,8.592327118E0
1.932796500E-1,-1.568196177E0,4.508078098E0,8.551649094E0
1.956752750E-1,-1.527518153E0,4.484149456E0,8.518149376E0
1.980701180E-1,-1.527518153E0,4.462614059E0,8.489435196E0
2.004650140E-1,-1.508375525E0,4.431507587E0,8.489435196E0
2.028606390E-1,-1.491625786E0,4.402793884E0,8.506185532E0
2.052562640E-1,-1.486840129E0,4.352544308E0,8.518149376E0
2.076511080E-1,-1.494018674E0,4.304687977E0,8.520542145E0
2.100459520E-1,-1.503589988E0,4.264009953E0,8.549256325E0
2.124416290E-1,-1.496411443E0,4.211368084E0,8.575576782E0
2.148372540E-1,-1.489233017E0,4.170390606E0,8.566005707E0
2.172320450E-1,-1.505982757E0,4.151247978E0,8.546863556E0
2.196269410E-1,-1.491625786E0,4.136891365E0,8.501399994E0
2.220225660E-1,-1.470090389E0,4.122534275E0,8.460721970E0
2.244181910E-1,-1.465304732E0,4.146462440E0,8.420043945E0
2.268130350E-1,-1.465304732E0,4.163212299E0,8.355437279E0
2.292078790E-1,-1.450947881E0,4.182354927E0,8.345866203E0
2.316035560E-1,-1.427019596E0,4.223331928E0,8.293224335E0
2.339991810E-1,-1.438983679E0,4.247260094E0,8.226224899E0
2.363939730E-1,-1.448554993E0,4.273581028E0,8.164011955E0
2.387888680E-1,-1.455733418E0,4.321437836E0,8.096714020E0
2.411844930E-1,-1.470090389E0,4.359723091E0,8.044071198E0
2.435801180E-1,-1.515554070E0,4.398007870E0,7.984251022E0
2.459749620E-1,-1.541875124E0,4.443471432E0,7.929215908E0
2.483698060E-1,-1.556231976E0,4.481756687E0,7.890930653E0
2.507654830E-1,-1.534696579E0,4.503292084E0,7.862216949E0
2.531611080E-1,-1.556231976E0,4.515256405E0,7.869395256E0
2.555559000E-1,-1.553839207E0,4.520041943E0,7.881359577E0
2.579507950E-1,-1.572981834E0,4.541577339E0,7.871788502E0
2.603464200E-1,-1.544267893E0,4.536791801E0,7.893323898E0
2.627420450E-1,-1.515554070E0,4.520041943E0,7.926823139E0
2.651368890E-1,-1.498804331E0,4.493721008E0,7.953144073E0
2.675317330E-1,-1.486840129E0,4.496113777E0,8.010572433E0
2.699274100E-1,-1.462911963E0,4.467400074E0,8.067999840E0
2.723230350E-1,-1.410269856E0,4.462614059E0,8.096714020E0
2.747178270E-1,-1.350150228E0,4.441078663E0,8.147261620E0
2.771127230E-1,-1.280758262E0,4.409972191E0,8.166404724E0
2.795083480E-1,-1.228116274E0,4.383651257E0,8.211868286E0
2.819039730E-1,-1.206580877E0,4.374079704E0,8.288438797E0
2.842988160E-1,-1.218544960E0,4.345366001E0,8.355437279E0
2.866936600E-1,-1.247258782E0,4.326223373E0,8.417651176E0
2.890893370E-1,-1.264008522E0,4.304687977E0,8.477471352E0
2.914849620E-1,-1.292722464E0,4.295116425E0,8.491828918E0
2.938798060E-1,-1.328614831E0,4.302295208E0,8.527720451E0
2.962746500E-1,-1.369292736E0,4.321437836E0,8.525327682E0
2.986702750E-1,-1.383649707E0,4.340580463E0,8.532505989E0
3.010659000E-1,-1.429412484E0,4.366901398E0,8.515756607E0
3.034607430E-1,-1.448554993E0,4.381258488E0,8.506185532E0
3.058555870E-1,-1.482054472E0,4.402793884E0,8.484649658E0
3.082512640E-1,-1.496411443E0,4.412364960E0,8.475078583E0
3.106468890E-1,-1.568196177E0,4.405186653E0,8.455936432E0
3.130417330E-1,-1.618445396E0,4.402793884E0,8.479864120E0
3.154365770E-1,-1.647159338E0,4.376472473E0,8.499007225E0
3.178322540E-1,-1.666301847E0,4.331008911E0,8.522934914E0
3.202278790E-1,-1.647159338E0,4.295116425E0,8.532505989E0
3.226226700E-1,-1.649552107E0,4.264009953E0,8.518149376E0
3.250175660E-1,-1.625623941E0,4.247260094E0,8.494221687E0
3.274131910E-1,-1.551446438E0,4.203890324E0,8.487042427E0
3.298088160E-1,-1.491625786E0,4.141676903E0,8.458329201E0
3.322036600E-1,-1.400399446E0,4.112963200E0,8.417651176E0
3.345985040E-1,-1.333400369E0,4.077070713E0,8.405686378E0
3.369941810E-1,-1.278365493E0,4.036392689E0,8.376973152E0
3.393898060E-1,-1.216152072E0,4.053142548E0,8.365009308E0
3.417845980E-1,-1.127617717E0,4.074677944E0,8.369794846E0
3.441794930E-1,-1.067797065E0,4.089034557E0,8.353044510E0
3.465751180E-1,-9.888339639E-1,4.108177185E0,8.321938515E0
3.489707430E-1,-9.337990284E-1,4.120141506E0,8.314759254E0
3.513655870E-1,-8.979067206E-1,4.124927044E0,8.283653259E0
3.537604310E-1,-8.476574421E-1,4.151247978E0,8.257331848E0
3.561561080E-1,-8.066803217E-1,4.167997837E0,8.266902924E0
3.585517330E-1,-7.851449251E-1,4.167997837E0,8.240582466E0
3.609465250E-1,-7.851449251E-1,4.165605068E0,8.223832130E0
3.633414200E-1,-7.492526174E-1,4.148855209E0,8.214261055E0
3.657370450E-1,-7.707880139E-1,4.170390606E0,8.190332413E0
3.681326700E-1,-7.564310431E-1,4.167997837E0,8.209475517E0
3.705275140E-1,-7.253243923E-1,4.189533234E0,8.195118904E0
3.729223580E-1,-7.085745931E-1,4.196712017E0,8.209475517E0
3.753180350E-1,-6.822535396E-1,4.232903481E0,8.219046593E0
3.777136600E-1,-6.367899179E-1,4.254438877E0,8.211868286E0
3.801085040E-1,-6.080760360E-1,4.278367043E0,8.115856171E0
3.825033480E-1,-5.889334679E-1,4.314259052E0,8.142476082E0
3.848989730E-1,-5.961119533E-1,4.321437836E0,8.207082748E0
3.872945980E-1,-6.080760360E-1,4.304687977E0,8.281260490E0
3.896894410E-1,-6.487540603E-1,4.287938118E0,8.365009308E0
3.920842850E-1,-7.181459069E-1,4.230510235E0,8.460721970E0
3.944799620E-1,-8.186444640E-1,4.199104786E0,8.515756607E0
3.968755870E-1,-9.074779749E-1,4.158426762E0,8.554041862E0
3.992704310E-1,-9.984052777E-1,4.144069672E0,8.606683731E0
4.016652750E-1,-1.074975610E0,4.115355968E0,8.659325600E0
4.040609000E-1,-1.122832060E0,4.096213341E0,8.652147293E0
4.064565250E-1,-1.173081279E0,4.079463482E0,8.666504860E0
4.088513680E-1,-1.213759303E0,4.065106392E0,8.666504860E0
4.112462640E-1,-1.240080357E0,4.103391647E0,8.635397911E0
4.136418890E-1,-1.268794179E0,4.096213341E0,8.575576782E0
4.160375140E-1,-1.240080357E0,4.089034557E0,8.544470787E0
4.184323580E-1,-1.259222865E0,4.050749779E0,8.484649658E0
4.208272020E-1,-1.273579836E0,4.045963764E0,8.391329765E0
4.232228790E-1,-1.271187067E0,4.024428368E0,8.288438797E0
4.256185040E-1,-1.273579836E0,3.998107433E0,8.199904442E0
4.280132950E-1,-1.242473125E0,3.957429647E0,8.115856171E0
4.304081910E-1,-1.242473125E0,3.950251102E0,7.996214867E0
4.328038160E-1,-1.158724308E0,3.895216227E0,7.855038643E0
4.351994410E-1,-1.101296663E0,3.837788343E0,7.752147198E0
4.375942850E-1,-1.048654556E0,3.787539244E0,7.613363266E0
4.399891290E-1,-9.337990284E-1,3.715754509E0,7.428816795E0
4.423848060E-1,-8.306085467E-1,3.612564087E0,7.304390430E0
4.447804310E-1,-7.468597889E-1,3.543172121E0,7.160820961E0
4.471752230E-1,-6.343970895E-1,3.459423304E0,7.000202656E0
4.495701180E-1,-5.985047817E-1,3.428316593E0,6.818347931E0
4.519657430E-1,-5.410770178E-1,3.368496180E0,6.602993965E0
4.543613680E-1,-4.501497746E-1,3.325425386E0,6.425626278E0
4.567562120E-1,-3.544368446E-1,3.267997503E0,6.270092487E0
4.591510560E-1,-2.536391914E-1,3.227319479E0,6.133701801E0
4.615467330E-1,-1.651047617E-1,3.205784082E0,5.961418629E0
4.639423580E-1,-6.939185411E-2,3.181855917E0,5.829514027E0
4.663372020E-1,5.982056633E-2,3.172284603E0,5.717051506E0
4.687320450E-1,2.081755698E-1,3.143570662E0,5.606981754E0
4.711276700E-1,2.850449979E-1,3.205784082E0,5.551946640E0
4.735232950E-1,4.645066857E-1,3.236890793E0,5.475376606E0
4.759181390E-1,6.248258352E-1,3.236890793E0,5.441876888E0
4.783129830E-1,7.683951855E-1,3.229712248E0,5.417948723E0
4.807086600E-1,9.074779749E-1,3.236890793E0,5.396413326E0
4.831042850E-1,1.022333503E0,3.217748165E0,5.401198864E0
4.854991290E-1,1.096511006E0,3.186641455E0,5.434698582E0
4.878939730E-1,1.106082320E0,3.181855917E0,5.338985443E0
4.902896500E-1,9.816554785E-1,3.215355396E0,5.278865814E0
4.926852750E-1,9.242277741E-1,3.177070379E0,5.183153152E0
4.950800660E-1,8.258228898E-1,3.107678413E0,5.199902534E0
4.974749620E-1,7.157530785E-1,3.035594702E0,5.214259624E0
4.998705870E-1,6.008976102E-1,2.970988512E0,5.235795021E0
5.022662120E-1,4.836492836E-1,2.896811008E0,5.262115955E0
5.046610560E-1,2.608176768E-1,2.853740215E0,5.266901970E0
5.070559000E-1,1.124626622E-1,2.772384167E0,5.254937649E0
5.094515770E-1,2.632104978E-2,2.655135870E0,5.262115955E0
5.118472020E-1,-1.268195957E-1,2.564208508E0,5.298008442E0
5.142420450E-1,-2.679961324E-1,2.484946251E0,5.300401211E0
5.166368890E-1,-4.764707983E-1,2.422732830E0,5.262115955E0
5.190325660E-1,-6.750751138E-1,2.336591244E0,5.214259624E0
5.214281910E-1,-8.715856671E-1,2.295913219E0,5.199902534E0
5.238229830E-1,-1.065404296E0,2.221735716E0,5.149653435E0
5.262178790E-1,-1.307079315E0,2.231307030E0,5.027619362E0
5.286135040E-1,-1.422233939E0,2.164308071E0,4.951049328E0
5.310091290E-1,-1.565803289E0,2.133201361E0,4.903192520E0
5.334039730E-1,-1.663909078E0,2.090130568E0,4.843372345E0
5.357988160E-1,-1.764407635E0,2.027917147E0,4.747360229E0
5.381944930E-1,-1.829013824E0,1.965703845E0,4.668396950E0
5.405901180E-1,-1.891227245E0,1.869691849E0,4.608576298E0
5.429849100E-1,-1.963011861E0,1.759621978E0,4.548755646E0
5.453798060E-1,-2.032702923E0,1.599302888E0,4.524827480E0
5.477754310E-1,-2.061416626E0,1.436590910E0,4.457828522E0
5.501710560E-1,-2.082952023E0,1.275972724E0,4.405186653E0
5.525659000E-1,-2.073380709E0,1.118046403E0,4.426722050E0
5.549607430E-1,-2.013560295E0,9.098708034E-1,4.433900356E0
5.573564200E-1,-1.943869352E0,6.966105103E-1,4.421936035E0
5.597520450E-1,-1.862513304E0,4.956133962E-1,4.426722050E0
5.621468890E-1,-1.836192250E0,2.922234535E-1,4.426722050E0
5.645417330E-1,-1.826620936E0,9.092725813E-2,4.390829563E0
5.669373580E-1,-1.819442511E0,-1.124626622E-1,4.364508629E0
5.693329830E-1,-1.814656854E0,-3.185445070E-1,4.328616142E0
5.717278270E-1,-1.802692771E0,-5.171487927E-1,4.314259052E0
5.741227230E-1,-1.773978829E0,-6.990033388E-1,4.340580463E0
5.765183480E-1,-1.728515267E0,-8.859425783E-1,4.352544308E0
5.789139730E-1,-1.704586983E0,-1.010369420E0,4.366901398E0
5.813088160E-1,-1.683051586E0,-1.101296663E0,4.326223373E0
5.837036600E-1,-1.666301847E0,-1.194616675E0,4.287938118E0
5.860993370E-1,-1.635195136E0,-1.297508121E0,4.283152580E0
5.884949620E-1,-1.628016710E0,-1.378864050E0,4.402793884E0
5.908897540E-1,-1.613659739E0,-1.448554993E0,4.496113777E0
5.932846500E-1,-1.654337764E0,-1.541875124E0,4.543970108E0
5.956802750E-1,-1.759621978E0,-1.584945917E0,4.453042984E0
5.980759000E-1,-1.814656854E0,-1.639980793E0,4.223331928E0
6.004707430E-1,-1.896012783E0,-1.747657895E0,4.278367043E0
6.028655870E-1,-2.099701881E0,-1.922333837E0,4.515256405E0
6.052612640E-1,-2.310270309E0,-2.135594130E0,4.687539577E0
6.076568890E-1,-2.484946251E0,-2.331805706E0,4.781158924E0
6.100517330E-1,-2.635993242E0,-2.525923491E0,4.749752998E0
6.124465770E-1,-2.659921408E0,-2.592922449E0,4.378865242E0
6.148422540E-1,-2.717349291E0,-2.796312332E0,4.331008911E0
6.172378790E-1,-2.877668381E0,-3.030808926E0,4.613361835E0
6.196326700E-1,-3.028416157E0,-3.258426189E0,4.756931305E0
6.220275660E-1,-3.138785124E0,-3.442673683E0,4.599005222E0
6.244231910E-1,-3.169891834E0,-3.579064369E0,4.400400639E0
6.268188160E-1,-3.294318676E0,-3.749253988E0,4.431507587E0
6.292136600E-1,-3.471387386E0,-4.000500202E0,4.536791801E0
6.316085040E-1,-3.658326626E0,-4.218546391E0,4.560719967E0
6.340041810E-1,-3.811467409E0,-4.374079704E0,4.508078098E0
6.363998060E-1,-3.885644913E0,-4.476971149E0,4.476971149E0
6.387945980E-1,-3.943072557E0,-4.555934429E0,4.323830605E0
6.411894930E-1,-4.012464523E0,-4.498506546E0,4.108177185E0
6.435851180E-1,-4.122534275E0,-4.620540619E0,4.108177185E0
6.459807430E-1,-4.297509670E0,-4.768895626E0,4.553541660E0
6.483755870E-1,-4.450650215E0,-4.896014214E0,4.939085007E0
6.507704310E-1,-4.534399033E0,-4.931906700E0,5.156831741E0
6.531661080E-1,-4.608576298E0,-4.876871586E0,5.247759342E0
6.555617330E-1,-4.689932346E0,-4.754538536E0,5.235795021E0
6.579565770E-1,-4.723432064E0,-4.565505505E0,4.982155800E0
6.603514200E-1,-4.788337231E0,-4.311866283E0,4.788337231E0
6.627470980E-1,-4.766502857E0,-4.242474556E0,4.879264355E0
6.651427230E-1,-4.735395908E0,-4.407579422E0,4.979763031E0
6.675375140E-1,-4.689932346E0,-4.646861553E0,5.343770981E0
6.699324100E-1,-4.572684288E0,-4.829015255E0,5.604588985E0
6.723280350E-1,-4.543970108E0,-4.809872627E0,5.673980713E0
6.747236600E-1,-4.438685894E0,-4.996512890E0,5.398806095E0
6.771185040E-1,-4.156033993E0,-5.209474087E0,5.494519234E0
6.795133480E-1,-3.990929127E0,-5.413163185E0,5.604588985E0
6.819090250E-1,-3.923929930E0,-5.518447399E0,5.769693375E0
6.843046500E-1,-4.151247978E0,-5.528018475E0,5.405984402E0
6.866994930E-1,-4.160819530E0,-5.822335720E0,4.649254322E0
6.890943370E-1,-4.033999920E0,-6.095416546E0,4.510470867E0
6.914900140E-1,-3.926322937E0,-6.186343670E0,4.424329281E0
6.938856390E-1,-3.900001764E0,-6.274878502E0,4.199104786E0
6.962804310E-1,-3.689433336E0,-6.543173313E0,4.314259052E0
6.986753270E-1,-3.732504129E0,-6.641279221E0,4.520041943E0
7.010709520E-1,-3.861716747E0,-6.777669907E0,4.484149456E0
7.034665770E-1,-4.062713623E0,-6.890132904E0,4.548755646E0
7.058614200E-1,-4.417150497E0,-6.835097790E0,4.438685894E0
7.082562640E-1,-4.670789719E0,-7.045965195E0,4.012464523E0
7.106519410E-1,-4.886443138E0,-7.234998226E0,3.734897137E0
7.130475660E-1,-5.223830700E0,-7.299604416E0,3.485744476E0
7.154424100E-1,-5.477769375E0,-7.524529934E0,3.155534744E0
7.178372540E-1,-5.690730572E0,-7.694719315E0,3.232105255E0
7.202329310E-1,-5.906383514E0,-7.852645874E0,3.200998545E0
7.226285560E-1,-6.152844429E0,-7.972286701E0,3.026023388E0
7.250233480E-1,-6.365805626E0,-8.099106789E0,2.753241539E0
7.274182430E-1,-6.547959328E0,-8.238189697E0,2.451446772E0
7.298138680E-1,-6.722635269E0,-8.367402077E0,2.224128723E0
7.322094930E-1,-6.923632145E0,-8.522934914E0,2.006381750E0
7.346043370E-1,-7.105785847E0,-8.671290398E0,1.740479350E0
7.369991810E-1,-7.349853992E0,-8.846264839E0,1.455733418E0
7.393948580E-1,-7.601399422E0,-9.023334503E0,1.252044439E0
7.417904830E-1,-7.876574039E0,-9.202795982E0,9.912267923E-1
7.441853270E-1,-8.111070633E0,-9.399306297E0,7.277171612E-1
7.465801700E-1,-8.367402077E0,-9.559625626E0,4.860421121E-1
7.489758480E-1,-8.637790680E0,-9.667302132E0,2.632105052E-1
7.513714730E-1,-8.922835350E0,-9.739087105E0,4.307080805E-2
7.537662640E-1,-9.178867340E0,-9.753444672E0,-1.507478207E-1
7.561611600E-1,-9.485447884E0,-9.719944954E0,-2.946162820E-1
7.585567850E-1,-9.916455269E0,-9.581160545E0,-4.357928336E-1
7.609524100E-1,-1.033041382E1,-9.404091835E0,-5.745765567E-1
7.633472540E-1,-1.072792149E1,-9.248259544E0,-7.372884750E-1
7.657420980E-1,-1.106560802E1,-9.097511292E0,-9.266205430E-1
7.681377750E-1,-1.141256714E1,-9.004191399E0,-1.067797065E0
7.705334000E-1,-1.169761276E1,-8.982656479E0,-1.134796143E0
7.729282430E-1,-1.193689442E1,-9.006584167E0,-1.187438250E0
7.753230870E-1,-1.215254784E1,-9.075976372E0,-1.211366415E0
7.777187640E-1,-1.233440208E1,-9.171689034E0,-1.261615753E0
7.801143890E-1,-1.247797203E1,-9.282057762E0,-1.307079315E0
7.825091810E-1,-1.256650639E1,-9.413662910E0,-1.345364571E0
7.849040770E-1,-1.262154102E1,-9.538089752E0,-1.374078393E0
7.872997020E-1,-1.266730404E1,-9.636196136E0,-1.424626827E0
7.896953270E-1,-1.264337540E1,-9.741479874E0,-1.546660781E0
7.920901700E-1,-1.261675549E1,-9.774979591E0,-1.651944876E0
7.944850140E-1,-1.277258778E1,-9.617053032E0,-1.857727647E0
7.968806910E-1,-1.251386452E1,-9.722337723E0,-2.145165443E0
7.992763160E-1,-1.213819122E1,-9.899705887E0,-2.161915302E0
8.016711600E-1,-1.187707424E1,-1.007438183E1,-2.042274237E0
8.040660040E-1,-1.178136158E1,-1.027298546E1,-2.078166485E0
8.064616810E-1,-1.168804169E1,-1.038574791E1,-2.185843468E0
8.088573060E-1,-1.164497089E1,-1.045513916E1,-2.324627161E0
8.112520980E-1,-1.167846966E1,-1.046471119E1,-2.417947292E0
8.136469930E-1,-1.175025463E1,-1.046231747E1,-2.489732027E0
8.160426180E-1,-1.185553932E1,-1.043838978E1,-2.506481647E0
8.184382430E-1,-1.196560860E1,-1.039053345E1,-2.441875458E0
8.208330870E-1,-1.210947704E1,-1.024666500E1,-2.298306227E0
8.232279310E-1,-1.231286716E1,-1.004806042E1,-2.111665964E0
8.256236080E-1,-1.257129192E1,-9.794121742E0,-1.931905150E0
8.280192330E-1,-1.287069416E1,-9.480662346E0,-1.759621978E0
8.304140770E-1,-1.322273827E1,-9.188439369E0,-1.594517231E0
8.328089200E-1,-1.356969738E1,-8.922835350E0,-1.460519075E0
8.352045980E-1,-1.392652702E1,-8.721838951E0,-1.378864050E0
8.376002230E-1,-1.423280811E1,-8.561220169E0,-1.316650629E0
8.399950140E-1,-1.446042538E1,-8.484649658E0,-1.266401410E0
8.423899100E-1,-1.462553024E1,-8.420043945E0,-1.247258782E0
8.447855350E-1,-1.475474262E1,-8.376973152E0,-1.261615753E0
8.471811600E-1,-1.481217003E1,-8.314759254E0,-1.390828133E0
8.495760040E-1,-1.482413483E1,-8.278866768E0,-1.575374603E0
8.519708480E-1,-1.483849144E1,-8.238189697E0,-1.711765528E0
8.543665250E-1,-1.489143276E1,-8.175975800E0,-1.946262121E0
8.567621500E-1,-1.499432373E1,-8.103892326E0,-2.252842426E0
8.591569930E-1,-1.490100384E1,-8.269295692E0,-2.451446772E0
8.615518370E-1,-1.487468243E1,-8.376973152E0,-2.533101797E0
8.639475140E-1,-1.488664722E1,-8.420043945E0,-2.698206663E0
8.663431390E-1,-1.488664722E1,-8.412865639E0,-2.973381281E0
8.687379310E-1,-1.491536045E1,-8.341080666E0,-3.263211966E0
8.711328270E-1,-1.486959839E1,-8.321938515E0,-3.840181351E0
8.735285040E-1,-1.475952816E1,-8.388936996E0,-4.050749779E0
8.759241290E-1,-1.470449352E1,-8.417651176E0,-4.283152580E0
8.783189200E-1,-1.476192093E1,-8.408080101E0,-4.577469826E0
8.807138160E-1,-1.484806252E1,-8.388936996E0,-4.929513931E0
8.831094410E-1,-1.488664722E1,-8.386544228E0,-5.216652393E0
8.855050660E-1,-1.491296768E1,-8.331509590E0,-5.506483078E0
8.878999100E-1,-1.493211079E1,-8.278866768E0,-5.807978630E0
8.902947540E-1,-1.493689632E1,-8.173583031E0,-6.095416546E0
8.926904310E-1,-1.498235989E1,-8.103892326E0,-6.363412857E0
8.950860560E-1,-1.500868130E1,-8.010572433E0,-6.634100914E0
8.974809000E-1,-1.508764362E1,-7.948358536E0,-6.859025955E0
8.998757430E-1,-1.518335724E1,-7.859824181E0,-7.098607540E0
9.022714200E-1,-1.531256962E1,-7.800003529E0,-7.361817837E0
9.046670450E-1,-1.548036575E1,-7.788039684E0,-7.574779034E0
9.070618370E-1,-1.564547062E1,-7.776075363E0,-7.749754429E0
9.094567330E-1,-1.580339718E1,-7.795217991E0,-7.862216949E0
9.118523580E-1,-1.592543125E1,-7.828717709E0,-7.953144073E0
9.142479830E-1,-1.604537201E1,-7.819146156E0,-8.010572433E0
9.166428270E-1,-1.617697716E1,-7.744968891E0,-8.020143509E0
9.190376700E-1,-1.633011818E1,-7.649255753E0,-8.065607071E0
9.214333480E-1,-1.646650887E1,-7.524529934E0,-8.111070633E0
9.238289730E-1,-1.659362602E1,-7.392924786E0,-8.149654388E0
9.262238160E-1,-1.673958969E1,-7.256533623E0,-8.197511673E0
9.286186600E-1,-1.687598038E1,-7.170392036E0,-8.214261055E0
9.310143370E-1,-1.702194214E1,-7.041179657E0,-8.187939644E0
9.334099620E-1,-1.715145302E1,-6.911668301E0,-8.202297211E0
9.358048060E-1,-1.726870155E1,-6.753741741E0,-8.211868286E0
9.381996500E-1,-1.735005760E1,-6.617351055E0,-8.223832130E0
9.405952750E-1,-1.740987778E1,-6.451947212E0,-8.247760773E0
9.429909000E-1,-1.749841309E1,-6.334698677E0,-8.314759254E0
9.453857430E-1,-1.758934021E1,-6.234200478E0,-8.357830048E0
9.477806390E-1,-1.769492340E1,-6.131309032E0,-8.398508072E0
9.501762640E-1,-1.785763550E1,-6.026024818E0,-8.441578865E0
9.525718890E-1,-1.799402618E1,-5.920740604E0,-8.482256889E0
9.549667330E-1,-1.797966957E1,-5.796014786E0,-8.558827400E0
9.573615770E-1,-1.788874245E1,-5.683551788E0,-8.621041298E0
9.597572540E-1,-1.773081589E1,-5.578267574E0,-8.652147293E0
9.621528790E-1,-1.752952003E1,-5.508875847E0,-8.644968987E0
9.645477230E-1,-1.734288025E1,-5.425127029E0,-8.623434067E0
9.669425660E-1,-1.718495369E1,-5.377270699E0,-8.587541580E0
9.693382430E-1,-1.709372711E1,-5.259723186E0,-8.566005707E0
9.717338680E-1,-1.703151321E1,-5.123332500E0,-8.537292480E0
9.741286600E-1,-1.705544090E1,-4.941477776E0,-8.463114738E0
9.765235560E-1,-1.713709641E1,-4.788337231E0,-8.403293610E0
9.789191810E-1,-1.707219124E1,-4.785944462E0,-8.137690544E0
9.813148060E-1,-1.715623856E1,-4.615755081E0,-7.759325504E0
9.837096500E-1,-1.729980850E1,-4.342973232E0,-7.495816231E0
9.861045450E-1,-1.743859291E1,-3.986143351E0,-7.278069019E0
9.885001700E-1,-1.757498360E1,-3.658326626E0,-6.993024349E0
9.908957950E-1,-1.765873146E1,-3.337389469E0,-6.753741741E0
9.932906390E-1,-1.766830254E1,-3.078665495E0,-6.524031162E0
9.956854830E-1,-1.791984940E1,-2.932703257E0,-6.600601196E0
9.980811600E-1,-1.783849335E1,-2.535494804E0,-6.763313293E0
1.000476785E0,-1.757258987E1,-2.248056889E0,-6.401698112E0
1.002871629E0,-1.734527206E1,-2.109273195E0,-5.738586903E0
1.005266473E0,-1.731416512E1,-1.987239242E0,-5.288437366E0
1.007662150E0,-1.726870155E1,-1.833799481E0,-5.154438972E0
1.010057775E0,-1.717298889E1,-1.668694735E0,-5.080261707E0
1.012452566E0,-1.693340683E1,-1.534696579E0,-4.912764072E0
1.014847462E0,-1.660798454E1,-1.503589988E0,-4.649254322E0
1.017243087E0,-1.623440361E1,-1.498804331E0,-4.395615101E0
1.019638712E0,-1.587039661E1,-1.517946839E0,-4.237689018E0
1.022033556E0,-1.563829231E1,-1.534696579E0,-4.517649174E0
1.024428452E0,-1.523599911E1,-1.393221021E0,-4.699503899E0
1.026824077E0,-1.492493248E1,-1.175474167E0,-3.928715706E0
1.029219702E0,-1.486002636E1,-1.017547846E0,-3.275176048E0
1.031614545E0,-1.453699589E1,-1.024726272E0,-3.095714331E0
1.034009389E0,-1.438385487E1,-8.500502706E-1,-2.533101797E0
1.036405066E0,-1.430459309E1,-6.367899179E-1,-2.188236237E0
1.038800691E0,-1.411316681E1,-4.166502357E-1,-1.864906192E0
1.041195535E0,-1.399591827E1,-1.914258152E-1,-1.230509043E0
1.043590379E0,-1.378295708E1,0.000000000E0,-1.134796143E0
1.045986056E0,-1.346201992E1,1.316052526E-1,-1.438983679E0
1.048381681E0,-1.312672615E1,1.962114573E-1,-2.118844509E0
1.050776473E0,-1.283480167E1,2.560320199E-1,-2.817847729E0
1.053171368E0,-1.257368469E1,2.440679073E-1,-3.303889751E0
1.055566993E0,-1.232961655E1,1.411765367E-1,-3.679862022E0
1.057962618E0,-1.211665535E1,-3.349951655E-2,-3.840181351E0
1.060357462E0,-1.184836006E1,-1.938186288E-1,-4.429114819E0
1.062752358E0,-1.162104225E1,-3.113660514E-1,-4.898406982E0
1.065147983E0,-1.131924725E1,-3.281157911E-1,-4.179962158E0
1.067543608E0,-1.107039356E1,-2.970091105E-1,-3.550350666E0
1.069938452E0,-1.093131161E1,-1.746760458E-1,-2.640778780E0
1.072333295E0,-1.088584709E1,-5.742774159E-2,-1.520339727E0
1.074728973E0,-1.086909771E1,2.321037948E-1,-2.057827413E-1
1.077124598E0,-1.081884861E1,5.027918816E-1,1.407876968E0
1.079519441E0,-1.082841969E1,8.476574421E-1,2.681456804E0
1.081914285E0,-1.084038353E1,1.194616675E0,3.675076485E0
1.084309962E0,-1.088824081E1,1.465304732E0,4.567898273E0
1.086705587E0,-1.084516907E1,1.745265007E0,5.781657696E0
1.089100431E0,-1.067049313E1,2.037488461E0,6.193522453E0
1.091495275E0,-1.041446114E1,2.219342947E0,6.437590122E0
1.093890952E0,-1.005284595E1,2.322234392E0,6.104988098E0
1.096286577E0,-9.645767212E0,2.269592285E0,5.437091351E0
1.098681368E0,-9.128618240E0,2.114058733E0,4.869693279E0
1.101076264E0,-8.604290962E0,1.927119493E0,4.223331928E0
1.103471889E0,-8.106285095E0,1.709372640E0,3.361317635E0
1.105867514E0,-7.471887589E0,1.362114310E0,2.710170746E0
1.108262358E0,-6.935596466E0,1.034297585E0,2.116451740E0
1.110657202E0,-6.519245148E0,7.971090674E-1,1.503589988E0
1.113052879E0,-6.143272877E0,5.745765567E-1,8.835497499E-1
1.115448504E0,-5.781657696E0,2.898306549E-1,3.041875660E-1
1.117843348E0,-5.386841774E0,-3.110669367E-2,-2.775674164E-1
1.120238191E0,-5.037190914E0,-4.142574072E-1,-8.835497499E-1
1.122633868E0,-4.689932346E0,-8.859425783E-1,-1.460519075E0
1.125029493E0,-4.261617184E0,-1.489233017E0,-1.992024899E0
1.127424337E0,-4.012464523E0,-2.059023857E0,-2.489732027E0
1.129819181E0,-3.957429647E0,-2.542673111E0,-2.877668381E0
1.132214858E0,-3.988536358E0,-3.014059305E0,-3.160320520E0
1.134610483E0,-4.139284134E0,-3.411566973E0,-3.303889751E0
1.137005275E0,-4.381258488E0,-3.770789385E0,-3.339782238E0
1.139400170E0,-4.697110653E0,-4.053142548E0,-3.251247883E0
1.141795848E0,-5.020441055E0,-4.261617184E0,-3.105285645E0
1.144191473E0,-5.283651352E0,-4.400400639E0,-2.954238653E0
1.146586264E0,-5.413163185E0,-4.508078098E0,-2.836990356E0
1.148981160E0,-5.453841209E0,-4.558327198E0,-2.774776936E0
1.151376785E0,-5.453841209E0,-4.620540619E0,-2.712563515E0
1.153772410E0,-5.391627789E0,-4.649254322E0,-2.698206663E0
1.156167254E0,-5.286044121E0,-4.668396950E0,-2.710170746E0
1.158562150E0,-5.221437931E0,-4.639683247E0,-2.643171787E0
1.160957775E0,-5.111368179E0,-4.634897232E0,-2.609672308E0
1.163353400E0,-5.001298428E0,-4.618147850E0,-2.545065880E0
1.165748243E0,-4.915156841E0,-4.589433670E0,-2.408375978E0
1.168143087E0,-4.838586330E0,-4.510470867E0,-2.408375978E0
1.170538764E0,-4.766502857E0,-4.462614059E0,-2.379662037E0
1.172934389E0,-4.728217602E0,-4.479363918E0,-2.276770830E0
1.175329233E0,-4.749752998E0,-4.524827480E0,-2.193022013E0
1.177724077E0,-4.759324074E0,-4.615755081E0,-2.343769789E0
1.180119754E0,-4.749752998E0,-4.699503899E0,-2.545065880E0
1.182515379E0,-4.781158924E0,-4.824229717E0,-2.600100994E0
1.184910223E0,-4.855336189E0,-4.907978535E0,-2.458625317E0
1.187305066E0,-4.848157883E0,-4.951049328E0,-2.370090723E0
1.189700743E0,-4.783551693E0,-5.068297386E0,-2.142772675E0
1.192096368E0,-4.802694321E0,-5.085047245E0,-2.482553482E0
1.194491160E0,-4.637290478E0,-4.943870544E0,-3.229712248E0
1.196886056E0,-4.572684288E0,-5.199902534E0,-3.299104214E0
1.199281681E0,-4.735395908E0,-5.422734261E0,-3.186641455E0
1.201677306E0,-4.809872627E0,-5.429912567E0,-3.459423304E0
1.204072150E0,-4.807479858E0,-5.918347836E0,-3.516851187E0
1.206467045E0,-4.855336189E0,-6.258128643E0,-3.588635683E0
1.208862670E0,-4.896014214E0,-6.614958286E0,-3.737289906E0
1.211258295E0,-4.934299469E0,-6.837490559E0,-3.749253988E0
1.213653139E0,-5.020441055E0,-7.000202656E0,-3.746861219E0
1.216048035E0,-5.123332500E0,-6.964310169E0,-4.120141506E0
1.218443660E0,-5.077868938E0,-7.038786888E0,-4.268795490E0
1.220839285E0,-5.175974369E0,-7.268497944E0,-4.112963200E0
1.223234129E0,-5.307579517E0,-7.337889671E0,-4.050749779E0
1.225628973E0,-5.413163185E0,-7.306783199E0,-4.091427803E0
1.228024650E0,-5.432305813E0,-7.261319637E0,-5.113760948E0
1.230420275E0,-5.468197823E0,-7.299604416E0,-5.010869503E0
1.232815118E0,-5.444269657E0,-7.371389389E0,-5.030012131E0
1.235209962E0,-5.420341492E0,-7.467102051E0,-4.910371304E0
1.237605639E0,-5.362913609E0,-7.589435101E0,-4.656432629E0
1.240001264E0,-5.250152111E0,-7.881359577E0,-4.124927044E0
1.242396108E0,-5.111368179E0,-7.522137165E0,-5.441876888E0
1.244790952E0,-4.805087090E0,-7.558029652E0,-4.472185612E0
1.247186629E0,-4.936692238E0,-7.313961506E0,-5.350949764E0
1.249582254E0,-4.907978535E0,-7.079464912E0,-5.319543839E0
1.251977045E0,-4.915156841E0,-7.057929516E0,-5.001298428E0
1.254371941E0,-5.056333542E0,-7.129714012E0,-4.855336189E0
1.256767566E0,-5.240580559E0,-7.254140854E0,-4.491328239E0
1.259163191E0,-5.355735302E0,-7.479066372E0,-4.266402721E0
1.261558035E0,-5.580660820E0,-7.560422421E0,-4.441078663E0
1.263952931E0,-5.683551788E0,-7.416852951E0,-4.943870544E0
1.266348556E0,-5.915955067E0,-7.476673603E0,-4.725824833E0
1.268744181E0,-6.215057850E0,-7.601399422E0,-4.709074974E0
1.271139025E0,-6.502495766E0,-7.718647480E0,-4.697110653E0
1.273533868E0,-6.715456963E0,-7.874181271E0,-4.704289436E0
1.275929545E0,-6.873383045E0,-8.024929047E0,-4.788337231E0
1.278325170E0,-7.091429234E0,-8.175975800E0,-4.833800793E0
1.280720014E0,-7.352246761E0,-8.317152023E0,-4.836193562E0
1.283114858E0,-7.536494255E0,-8.398508072E0,-4.642076015E0
1.285510535E0,-7.682755470E0,-8.415258408E0,-4.606183529E0
1.287906160E0,-7.800003529E0,-8.467900276E0,-4.450650215E0
1.290301004E0,-7.792825222E0,-8.398508072E0,-4.383651257E0
1.292695848E0,-7.828717709E0,-8.314759254E0,-4.402793884E0
1.295091525E0,-7.811967850E0,-8.231010437E0,-4.295116425E0
1.297487150E0,-7.735397339E0,-8.137690544E0,-4.235296249E0
1.299881993E0,-7.584649563E0,-8.084749222E0,-4.261617184E0
1.302276837E0,-7.400103092E0,-7.945965767E0,-4.216153622E0
1.304672514E0,-7.333104134E0,-7.847859859E0,-4.096213341E0
1.307068139E0,-7.239784241E0,-7.663612843E0,-4.007678986E0
1.309462931E0,-7.158428192E0,-7.457530975E0,-3.993321896E0
1.311857827E0,-7.096214771E0,-7.273283482E0,-3.921537161E0
1.314253504E0,-7.045965195E0,-7.191927433E0,-3.799503326E0
1.316649129E0,-6.906882763E0,-7.067500591E0,-3.720540047E0
1.319043920E0,-6.808776855E0,-6.959524632E0,-3.682255030E0
1.321438816E0,-6.835097790E0,-6.902096748E0,-3.612564087E0
1.323834441E0,-6.796812534E0,-6.832705021E0,-3.435495138E0
1.326230066E0,-6.677171707E0,-6.701099873E0,-3.538386583E0
1.328624910E0,-6.538387775E0,-6.677171707E0,-3.595814228E0
1.331019806E0,-6.320342064E0,-6.641279221E0,-3.715754509E0
1.333415431E0,-6.145665646E0,-6.574280262E0,-3.734897137E0
1.335811056E0,-5.956633091E0,-6.492924213E0,-3.777967930E0
1.338205900E0,-5.705087185E0,-6.346662998E0,-3.780360699E0
1.340600795E0,-5.475376606E0,-6.193522453E0,-3.816252947E0
1.342996420E0,-5.374877930E0,-6.002096653E0,-4.120141506E0
1.345392045E0,-4.958227634E0,-5.731408596E0,-3.746861219E0
1.347786889E0,-4.836193562E0,-5.685945034E0,-3.303889751E0
1.350181733E0,-4.785944462E0,-5.513661385E0,-3.258426189E0
1.352577410E0,-4.756931305E0,-5.326722145E0,-3.457030535E0
1.354973035E0,-4.771587372E0,-5.228616714E0,-3.519243956E0
1.357367879E0,-4.733003139E0,-5.190331459E0,-3.488137245E0
1.359762723E0,-4.718646049E0,-5.190331459E0,-3.428316593E0
1.362158400E0,-4.551148891E0,-5.137689114E0,-3.373281717E0
1.364554025E0,-4.582255363E0,-5.106582642E0,-3.296711445E0
1.366948868E0,-4.560719967E0,-5.065904617E0,-3.325425386E0
1.369343712E0,-4.668396950E0,-5.113760948E0,-3.370888948E0
1.371739389E0,-4.829015255E0,-5.252544880E0,-3.480958700E0
1.374135014E0,-5.159224510E0,-5.516054630E0,-3.540779352E0
1.376529858E0,-5.537590027E0,-5.858228207E0,-3.646063566E0
1.378924702E0,-6.030810356E0,-6.224628925E0,-4.005286217E0
1.381320379E0,-6.607779503E0,-6.557530403E0,-4.295116425E0
1.383716004E0,-7.282855034E0,-6.909275532E0,-4.510470867E0
1.386110795E0,-7.811967850E0,-7.232605457E0,-4.788337231E0
1.388505691E0,-8.420043945E0,-7.622934818E0,-5.207081318E0
1.390901368E0,-9.102297783E0,-8.034500122E0,-5.523232937E0
1.393296993E0,-9.719944954E0,-8.420043945E0,-5.858228207E0
1.395691785E0,-1.023709393E1,-8.824729919E0,-6.212665081E0
1.398086681E0,-1.078295612E1,-9.219545364E0,-6.571887493E0
1.400482358E0,-1.117807102E1,-9.569196701E0,-6.770491600E0
1.402877983E0,-1.139342499E1,-9.930811882E0,-6.985845566E0
1.405272775E0,-1.164497089E1,-1.028495026E1,-7.239784241E0
1.407667670E0,-1.172871971E1,-1.062742233E1,-7.409674644E0
1.410063348E0,-1.170239830E1,-1.099143124E1,-7.567600727E0
1.412458973E0,-1.149870968E1,-1.127856922E1,-7.627720356E0
1.414853764E0,-1.117089272E1,-1.152293682E1,-7.630113125E0
1.417248660E0,-1.075663471E1,-1.171196938E1,-7.584649563E0
1.419644285E0,-1.026102161E1,-1.176221848E1,-7.409674644E0
1.422039910E0,-9.741479874E0,-1.166172028E1,-7.136892796E0
1.424434754E0,-9.282057762E0,-1.142692471E1,-6.799205780E0
1.426829650E0,-9.006584167E0,-1.104885864E1,-6.346662998E0
1.429225275E0,-8.831908226E0,-1.062981510E1,-5.892026424E0
1.431620900E0,-8.671290398E0,-1.031605625E1,-5.417948723E0
1.434015743E0,-8.642576218E0,-1.013898754E1,-5.001298428E0
1.436410639E0,-8.800801277E0,-1.011505985E1,-4.625326157E0
1.438806264E0,-9.075976372E0,-1.011505985E1,-4.433900356E0
1.441201889E0,-9.490233421E0,-1.014138031E1,-4.354937077E0
1.443596733E0,-9.882955551E0,-1.022034359E1,-4.352544308E0
1.445991629E0,-1.021077251E1,-1.031844902E1,-4.455435753E0
1.448387254E0,-1.067527866E1,-1.043599701E1,-4.596612453E0
1.450782879E0,-1.112303638E1,-1.064177990E1,-4.831408024E0
1.453177723E0,-1.132403278E1,-1.084516907E1,-5.125725269E0
1.455572566E0,-1.150110245E1,-1.106800079E1,-5.391627789E0
1.457968243E0,-1.153968620E1,-1.124746323E1,-5.683551788E0
1.460363868E0,-1.156122208E1,-1.137189007E1,-5.899205208E0
1.462758712E0,-1.134796143E1,-1.145324516E1,-6.026024818E0
1.465153556E0,-1.101057339E1,-1.142453194E1,-6.112166405E0
1.467549233E0,-1.077577782E1,-1.134796143E1,-6.186343670E0
1.469944858E0,-1.031366348E1,-1.123789120E1,-6.270092487E0
1.472339702E0,-1.029691410E1,-1.098185921E1,-6.492924213E0
1.474734545E0,-9.873384476E0,-1.080688477E1,-6.375376701E0
1.477130223E0,-9.265308380E0,-1.062263680E1,-6.183950901E0
1.479525848E0,-8.745766640E0,-1.040010452E1,-5.987739563E0
1.481920691E0,-8.659325600E0,-1.025145054E1,-5.959025860E0
1.484315535E0,-8.568398476E0,-1.008156013E1,-5.913562298E0
1.486711212E0,-9.059226990E0,-9.870991707E0,-6.478567123E0
1.489106837E0,-9.361021042E0,-9.664909363E0,-6.372983932E0
1.491501681E0,-9.583553314E0,-9.473484039E0,-6.176772594E0
1.493896525E0,-1.055803108E1,-9.183652878E0,-6.643671989E0
1.496292202E0,-1.136231804E1,-8.944371223E0,-7.096214771E0
1.498687827E0,-1.146281719E1,-8.800801277E0,-7.175177574E0
1.501082670E0,-1.191296673E1,-8.580363274E0,-7.414460182E0
1.503477514E0,-1.137428284E1,-8.242975235E0,-7.242177010E0
1.505873191E0,-1.205175018E1,-6.746563435E0,-7.357032299E0
1.508268816E0,-1.142692471E1,-6.634100914E0,-7.024429798E0
1.510663660E0,-1.042642593E1,-7.132106781E0,-7.218248844E0
1.513058504E0,-9.001798630E0,-7.656434059E0,-7.455138206E0
1.515454181E0,-7.380960464E0,-8.137690544E0,-7.239784241E0
1.517849806E0,-6.107380867E0,-8.094321251E0,-6.842276573E0
1.520244598E0,-5.721837044E0,-7.167999268E0,-6.636493683E0
1.522639493E0,-5.528018475E0,-6.476174355E0,-7.069893837E0
1.525035170E0,-4.974977493E0,-6.169594288E0,-7.093822002E0
1.527430795E0,-4.055535316E0,-6.200700760E0,-6.586244106E0
1.529825587E0,-3.085843801E0,-5.985346794E0,-5.982954025E0
1.532220483E0,-2.731706142E0,-5.571089268E0,-5.346164227E0
1.534616160E0,-2.511267424E0,-5.082654476E0,-4.548755646E0
1.537011785E0,-2.441875458E0,-4.728217602E0,-4.213760853E0
1.539406577E0,-2.557030201E0,-4.541577339E0,-4.132105827E0
1.541801473E0,-1.754836321E0,-4.144069672E0,-3.445066452E0
1.544197150E0,-1.259222865E0,-3.744468451E0,-2.303091764E0
1.546592775E0,-1.690230131E0,-3.576671600E0,-3.413959742E0
1.548987566E0,-9.625129104E-1,-3.708575964E0,-3.789932013E0
1.551382462E0,-6.152545214E-1,-3.675076485E0,-3.998107433E0
1.553778087E0,-6.726822853E-1,-3.440280676E0,-3.986143351E0
1.556173712E0,-1.124626622E-1,-3.229712248E0,-3.361317635E0
1.558568556E0,-2.201396823E-1,-2.844168901E0,-2.425125837E0
1.560963452E0,-5.742774159E-2,-2.465803623E0,-9.696913958E-1
1.563359077E0,-2.560320199E-1,-2.195414782E0,-9.792626500E-1
1.565754702E0,3.999004960E-1,-1.795514345E0,1.866401732E-1
1.568149545E0,3.640081584E-1,-1.465304732E0,-1.139581800E0
1.570544441E0,7.564310431E-1,-1.256830096E0,-1.405484200E0
1.572940066E0,1.398006678E0,-9.984052777E-1,-2.039881229E0
1.575335691E0,2.133201361E0,-8.042874932E-1,-1.963011861E0
1.577730535E0,2.990130901E0,-7.037889361E-1,-8.066803217E-1
1.580125431E0,3.330210924E0,-4.501497746E-1,-2.826521695E-1
1.582521056E0,3.306282759E0,-1.651047617E-1,-2.560320199E-1
1.584916681E0,3.162713289E0,6.939185411E-2,-1.100698411E-1
1.587311525E0,3.033201694E0,2.440679073E-1,5.742774159E-2
1.589706420E0,3.061915636E0,4.166502357E-1,5.817549825E-1
1.592102045E0,2.913560629E0,6.702894568E-1,1.137188911E0
1.594497670E0,2.604886532E0,9.170492887E-1,1.381256819E0
1.596892514E0,2.030309916E0,1.120439172E0,1.314257860E0
1.599287410E0,1.137188911E0,1.268794179E0,9.720842242E-1
1.601683035E0,-2.392822690E-2,1.261615753E0,3.568296731E-1
1.604078660E0,-1.039083242E0,9.122636318E-1,-8.234301209E-1
1.606473504E0,-1.742872238E0,3.400799036E-1,-1.953440547E0
1.608868400E0,-2.255235434E0,-1.890329868E-1,-2.786741018E0
1.611264025E0,-2.643171787E0,-6.248258352E-1,-3.227319479E0
1.613659650E0,-3.002095222E0,-9.026923180E-1,-3.411566973E0
1.616054493E0,-3.354139090E0,-1.086939692E0,-3.468994617E0
1.618449389E0,-3.638885021E0,-1.230509043E0,-3.480958700E0
1.620845014E0,-3.792324781E0,-1.352542996E0,-3.545564890E0
1.623240639E0,-3.864109516E0,-1.455733418E0,-3.593421459E0
1.625635483E0,-3.904787540E0,-1.546660781E0,-3.595814228E0
1.628030379E0,-3.885644913E0,-1.625623941E0,-3.442673683E0
1.630426004E0,-3.821038723E0,-1.730908036E0,-3.184248686E0
1.632821629E0,-3.722932816E0,-1.740479350E0,-2.947060108E0
1.635216473E0,-3.586242914E0,-1.773978829E0,-2.781955481E0
1.637611316E0,-3.435495138E0,-1.762014747E0,-2.676671267E0
1.640006993E0,-3.330210924E0,-1.766800404E0,-2.535494804E0
1.642402618E0,-3.217748165E0,-1.766800404E0,-2.453839540E0
1.644797462E0,-3.129213810E0,-1.771586061E0,-2.360519648E0
1.647192358E0,-2.987738132E0,-1.776371717E0,-2.257628202E0
1.649587983E0,-2.880061150E0,-1.716551185E0,-2.097309113E0
1.651983608E0,-2.681456804E0,-1.642373681E0,-1.927119493E0
1.654378452E0,-2.449054003E0,-1.501197100E0,-1.673480392E0
1.656773348E0,-2.489732027E0,-1.508375525E0,-1.275972724E0
1.659168973E0,-1.589731574E0,-1.228116274E0,-5.315057039E-1
1.661564598E0,2.273181528E-1,-3.735794425E-1,-6.990033388E-1
1.663959441E0,1.750050664E0,3.828516230E-2,-1.395613790E0
1.666354285E0,1.704586983E0,-5.650052428E-1,-2.291127682E0
1.668749962E0,-2.632104978E-2,-1.927119493E0,-2.384447813E0
1.671145587E0,-2.545065880E0,-3.497708559E0,-2.190629244E0
1.673540431E0,-5.367699623E0,-4.977370262E0,-2.372483730E0
1.675935327E0,-7.766504288E0,-5.973382473E0,-2.808276415E0
1.678330952E0,-8.793622971E0,-6.081059456E0,-3.244069338E0
1.680726577E0,-9.138189316E0,-5.755336761E0,-4.457828522E0
1.683121420E0,-8.192725182E0,-5.472983360E0,-5.712265968E0
1.685516264E0,-7.742575645E0,-5.762515068E0,-7.132106781E0
1.687911941E0,-7.981858253E0,-6.933203697E0,-6.835097790E0
1.690307566E0,-8.240582466E0,-8.022536278E0,-6.746563435E0
1.692702410E0,-8.458329201E0,-8.561220169E0,-7.096214771E0
1.695097306E0,-8.731410027E0,-9.085547447E0,-6.729813576E0
1.697492931E0,-8.357830048E0,-9.145368576E0,-6.835097790E0
1.699888556E0,-8.180761337E0,-9.181260109E0,-6.282056808E0
1.702283400E0,-7.867002487E0,-9.133403778E0,-5.252544880E0
1.704678243E0,-7.945965767E0,-8.510971069E0,-6.104988098E0
1.707073920E0,-7.821538925E0,-7.998608112E0,-5.968596935E0
1.709469545E0,-7.711469173E0,-7.725826263E0,-5.750551224E0
1.711864389E0,-7.340282440E0,-7.709076405E0,-5.681159019E0
1.714259233E0,-7.043572426E0,-8.123034477E0,-5.254937649E0
1.716654910E0,-6.796812534E0,-8.173583031E0,-5.980561256E0
1.719050535E0,-6.926024914E0,-7.991429329E0,-6.262914181E0
1.721445379E0,-7.050751209E0,-7.888537884E0,-5.978168488E0
1.723840223E0,-7.309175968E0,-7.663612843E0,-5.128118038E0
1.726235900E0,-7.670791149E0,-7.606184959E0,-4.876871586E0
1.728631525E0,-7.761718273E0,-7.835896015E0,-4.555934429E0
1.731026368E0,-8.022536278E0,-8.202297211E0,-4.007678986E0
1.733421212E0,-8.106285095E0,-7.689933777E0,-5.144867897E0
1.735816889E0,-7.845467091E0,-7.323532581E0,-4.321437836E0
1.738212514E0,-7.938787460E0,-7.122535706E0,-3.730111361E0
1.740607358E0,-7.706683636E0,-7.096214771E0,-2.963809967E0
1.743002254E0,-7.263712406E0,-6.966702938E0,-2.552244425E0
1.745397879E0,-6.729813576E0,-6.842276573E0,-2.702992201E0
1.747793504E0,-5.920740604E0,-7.203891754E0,-1.194616675E0
1.750188348E0,-5.645267010E0,-6.744170666E0,-3.212962627E0
1.752583243E0,-5.429912567E0,-6.380162239E0,-3.337389469E0
1.754978868E0,-5.422734261E0,-6.377769470E0,-2.944667339E0
1.757374493E0,-5.736194134E0,-6.581458569E0,-2.652743101E0
1.759769337E0,-5.700301647E0,-6.933203697E0,-2.853740215E0
1.762164233E0,-5.475376606E0,-7.380960464E0,-3.514458179E0
1.764559858E0,-5.070690155E0,-7.675576687E0,-3.943072557E0
1.766955483E0,-4.948656559E0,-7.847859859E0,-4.283152580E0
1.769350327E0,-5.085047245E0,-8.166404724E0,-4.424329281E0
1.771745223E0,-4.898406982E0,-8.453543663E0,-4.500899315E0
1.774140848E0,-4.953442097E0,-8.719446182E0,-4.948656559E0
1.776536473E0,-5.164010525E0,-9.035298347E0,-5.305186749E0
1.778931316E0,-5.456233978E0,-9.370592117E0,-5.425127029E0
1.781326212E0,-5.884549141E0,-9.619445801E0,-5.575874805E0
1.783721837E0,-6.289235115E0,-9.801301003E0,-5.824728489E0
1.786117462E0,-6.473781586E0,-9.911669731E0,-5.992525101E0
1.788512306E0,-6.758527756E0,-9.926026344E0,-6.107380867E0
1.790907202E0,-7.079464912E0,-9.906884193E0,-6.069095612E0
1.793302827E0,-7.323532581E0,-9.885348320E0,-5.930311680E0
1.795698452E0,-7.239784241E0,-9.861420631E0,-5.846263885E0
1.798093295E0,-7.258926392E0,-9.751050949E0,-5.640480995E0
1.800488191E0,-7.158428192E0,-9.674481392E0,-5.530411243E0
1.802883816E0,-6.646064758E0,-9.547661781E0,-5.389235020E0
1.805279441E0,-6.198307991E0,-9.315557480E0,-5.417948723E0
1.807674285E0,-5.923133373E0,-9.121439934E0,-5.175974369E0
1.810069181E0,-5.568696499E0,-8.865407944E0,-4.943870544E0
1.812464806E0,-4.982155800E0,-8.527720451E0,-4.577469826E0
1.814860431E0,-4.721039295E0,-8.125427246E0,-4.287938118E0
1.817255275E0,-4.503292084E0,-7.709076405E0,-4.041178226E0
1.819650170E0,-3.926322937E0,-7.452745438E0,-3.653541088E0
1.822045795E0,-3.100499868E0,-7.199106216E0,-3.212962627E0
1.824441420E0,-2.276770830E0,-6.870990276E0,-2.961417198E0
1.826836264E0,-1.232901812E0,-6.571887493E0,-2.643171787E0
1.829231160E0,-5.099703074E-1,-6.356234074E0,-2.415554523E0
1.831626785E0,-1.435693540E-2,-6.258128643E0,-2.643171787E0
1.834022410E0,2.297109663E-1,-6.344270229E0,-2.231307030E0
1.836417254E0,1.818545163E-1,-6.464210510E0,-2.145165443E0
1.838812150E0,3.589234129E-2,-6.528816700E0,-2.257628202E0
1.841207775E0,-1.363908947E-1,-6.588637352E0,-2.444268227E0
1.843603400E0,-4.214358926E-1,-6.734599113E0,-2.274377823E0
1.845998243E0,-8.330013752E-1,-6.906882763E0,-2.233700037E0
1.848393139E0,-1.390828133E0,-7.007380962E0,-2.023131609E0
1.850788764E0,-2.257628202E0,-7.127321243E0,-2.011167526E0
1.853184389E0,-2.786741018E0,-7.275676250E0,-2.178664923E0
1.855579233E0,-3.418745279E0,-7.419245720E0,-2.243271112E0
1.857974129E0,-3.983750582E0,-7.491030216E0,-2.233700037E0
1.860369754E0,-4.433900356E0,-7.514958382E0,-2.367697954E0
1.862765379E0,-4.508078098E0,-7.522137165E0,-2.384447813E0
1.865160223E0,-4.788337231E0,-7.495816231E0,-2.224128723E0
1.867555118E0,-4.867300510E0,-7.371389389E0,-2.097309113E0
1.869950743E0,-5.087440014E0,-7.244569778E0,-1.912762642E0
1.872346368E0,-5.199902534E0,-7.179963589E0,-2.114058733E0
1.874741212E0,-5.439484119E0,-7.251748085E0,-2.336591244E0
1.877136108E0,-5.892026424E0,-7.361817837E0,-2.398804665E0
1.879531733E0,-6.298806667E0,-7.514958382E0,-2.729313374E0
1.881927358E0,-6.488138676E0,-7.766504288E0,-3.232105255E0
1.884322202E0,-6.351448536E0,-8.087141991E0,-3.880859137E0
1.886717098E0,-6.332305908E0,-8.381758690E0,-4.433900356E0
1.889112723E0,-6.356234074E0,-8.585148811E0,-4.814658165E0
1.891508348E0,-6.313163280E0,-8.692825317E0,-5.142475128E0
1.893903191E0,-6.310770512E0,-8.774480820E0,-5.437091351E0
1.896298087E0,-6.382555485E0,-8.680861473E0,-5.721837044E0
1.898693712E0,-6.543173313E0,-8.494221687E0,-5.805585861E0
1.901089337E0,-6.717849731E0,-8.231010437E0,-5.602196217E0
1.903484181E0,-6.806384087E0,-8.001000404E0,-5.338985443E0
1.905879077E0,-6.863811970E0,-7.807182312E0,-5.113760948E0
1.908274754E0,-6.995417118E0,-7.744968891E0,-4.869693279E0
1.910670379E0,-7.232605457E0,-7.766504288E0,-4.532006264E0
1.913065170E0,-7.469494820E0,-7.826324463E0,-4.302295208E0
1.915460066E0,-7.716254711E0,-7.948358536E0,-4.268795490E0
1.917855691E0,-8.204689980E0,-8.156833649E0,-4.352544308E0
1.920251316E0,-8.613862038E0,-8.365009308E0,-4.618147850E0
1.922646160E0,-9.181260109E0,-8.558827400E0,-4.919942379E0
1.925041056E0,-9.894919395E0,-8.738588333E0,-5.238187790E0
1.927436733E0,-1.060828018E1,-8.863015175E0,-5.449055195E0
1.929832358E0,-1.131446171E1,-8.997013092E0,-5.647659779E0
1.932227150E0,-1.195125198E1,-9.064012527E0,-5.736194134E0
1.934622045E0,-1.241336536E1,-9.121439934E0,-5.762515068E0
1.937017723E0,-1.289701462E1,-9.174081802E0,-5.731408596E0
1.939413348E0,-1.330648708E1,-9.279664993E0,-5.633302689E0
1.941808139E0,-1.372283745E1,-9.418449402E0,-5.544768333E0
1.944203035E0,-1.400549030E1,-9.523733139E0,-5.410770416E0
1.946598712E0,-1.417777348E1,-9.676874161E0,-5.353342533E0
1.948994337E0,-1.427109337E1,-9.835099220E0,-5.427519798E0
1.951389129E0,-1.433839130E1,-1.002891827E1,-5.472983360E0
1.953784025E0,-1.449392509E1,-1.034477043E1,-5.451447964E0
1.956179702E0,-1.455135250E1,-1.065374374E1,-5.520840168E0
1.958575327E0,-1.436949825E1,-1.090020466E1,-5.662016392E0
1.960970118E0,-1.386192036E1,-1.107757282E1,-5.815157413E0
1.963365014E0,-1.307408428E1,-1.121635628E1,-5.982954025E0
1.965760691E0,-1.208076286E1,-1.134317589E1,-6.133701801E0
1.968156316E0,-1.095553875E1,-1.145324516E1,-6.143272877E0
1.970551108E0,-9.949954987E0,-1.160668564E1,-6.133701801E0
1.972946004E0,-9.123832703E0,-1.182921791E1,-5.997310638E0
1.975341681E0,-8.525327682E0,-1.211186981E1,-5.786443233E0
1.977737306E0,-8.166404724E0,-1.241097260E1,-5.618945599E0
1.980132150E0,-8.027321815E0,-1.263858986E1,-5.465805054E0
1.982526993E0,-8.051250458E0,-1.287787247E1,-5.365306377E0
1.984922670E0,-8.276473999E0,-1.303340626E1,-5.288437366E0
1.987318295E0,-8.700303078E0,-1.308365536E1,-5.161617756E0
1.989713139E0,-9.221938133E0,-1.312672615E1,-4.960620403E0
1.992107983E0,-9.633803368E0,-1.325384426E1,-4.788337231E0
1.994503660E0,-9.961918831E0,-1.348355579E1,-4.620540619E0
1.996899285E0,-1.038335514E1,-1.370369530E1,-4.441078663E0
1.999294129E0,-1.082602692E1,-1.395524120E1,-4.307080746E0
2.001688973E0,-1.128335476E1,-1.420648670E1,-4.182354927E0
2.004084650E0,-1.168086243E1,-1.447956848E1,-4.191926003E0
2.006480275E0,-1.198475170E1,-1.471885014E1,-4.196712017E0
2.008875118E0,-1.203739357E1,-1.499432373E1,-4.160819530E0
2.011269962E0,-1.199671555E1,-1.519771385E1,-4.010071754E0
2.013665639E0,-1.197757244E1,-1.539871120E1,-3.842574120E0
2.016061264E0,-1.172393322E1,-1.546840191E1,-3.500101328E0
2.018456108E0,-1.121635628E1,-1.539871120E1,-2.836990356E0
2.020850952E0,-1.068485069E1,-1.526710606E1,-2.571387053E0
2.023246629E0,-1.028973579E1,-1.512353611E1,-2.820240498E0
2.025642254E0,-9.947562218E0,-1.498714542E1,-3.042773008E0
2.028037098E0,-9.425627708E0,-1.491057491E1,-3.370888948E0
2.030431941E0,-8.654540062E0,-1.485524082E1,-3.406781197E0
2.032827618E0,-8.147261620E0,-1.469252968E1,-3.655933857E0
2.035223243E0,-7.711469173E0,-1.464706516E1,-4.127319813E0
2.037618087E0,-6.995417118E0,-1.486242008E1,-4.479363918E0
2.040012931E0,-6.545566559E0,-1.503021622E1,-4.876871586E0
2.042408608E0,-6.054738522E0,-1.512353611E1,-5.346164227E0
2.044804233E0,-5.551946640E0,-1.521446323E1,-5.563910961E0
2.047199077E0,-4.996512890E0,-1.517378616E1,-5.252544880E0
2.049593920E0,-4.467400074E0,-1.511396503E1,-4.742574692E0
2.051989598E0,-4.268795490E0,-1.492253971E1,-5.370092392E0
2.054385223E0,-4.134498596E0,-1.481456280E1,-5.889334679E0
2.056780066E0,-4.110570431E0,-1.463988686E1,-5.896812439E0
2.059174910E0,-4.050749779E0,-1.429502201E1,-5.975775242E0
2.061570587E0,-3.986143351E0,-1.378056431E1,-5.638088226E0
2.063966212E0,-3.945465326E0,-1.352423382E1,-5.846263885E0
2.066361056E0,-3.569493294E0,-1.346201992E1,-5.700301647E0
2.068755952E0,-3.246462107E0,-1.350269794E1,-5.556732178E0
2.071151577E0,-2.889632463E0,-1.352423382E1,-5.353342533E0
2.073547202E0,-2.580958366E0,-1.340937805E1,-5.034798145E0
2.075942045E0,-2.260020971E0,-1.328495121E1,-5.259723186E0
2.078336889E0,-2.087737799E0,-1.305733395E1,-5.451447964E0
2.080732566E0,-1.951047778E0,-1.289462185E1,-5.633302689E0
2.083128191E0,-1.927119493E0,-1.279651642E1,-5.824728489E0
2.085523035E0,-1.824228168E0,-1.244925785E1,-5.693123341E0
2.087917931E0,-2.099701881E0,-1.181246853E1,-5.599802971E0
2.090313556E0,-2.331805706E0,-1.135753250E1,-5.982954025E0
2.092709181E0,-2.417947292E0,-1.079731274E1,-6.097809315E0
2.095104025E0,-2.389233351E0,-1.015334511E1,-5.573482037E0
2.097498920E0,-1.769193292E0,-9.468698502E0,-4.292723656E0
2.099894545E0,-1.553839207E0,-9.255437851E0,-4.005286217E0
2.102290170E0,-1.663909078E0,-9.411270142E0,-4.522434711E0
2.104685014E0,-2.164308071E0,-9.810872078E0,-5.494519234E0
2.107079910E0,-2.530709028E0,-9.734301567E0,-6.059524059E0
2.109475535E0,-2.894418001E0,-9.016156197E0,-5.585446358E0
2.111871160E0,-3.299104214E0,-8.338687897E0,-5.482554913E0
2.114266004E0,-3.160320520E0,-7.737790108E0,-4.814658165E0
2.116660900E0,-2.932703257E0,-7.242177010E0,-5.266901970E0
2.119056525E0,-2.683849812E0,-6.811169624E0,-5.604588985E0
2.121452150E0,-2.499303341E0,-6.545566559E0,-5.281258583E0
2.123846993E0,-2.624029160E0,-6.200700760E0,-4.694717884E0
2.126241889E0,-2.741277456E0,-5.566303730E0,-5.178367138E0
2.128637514E0,-2.018345833E0,-4.922335148E0,-4.139284134E0
2.131033139E0,-2.047059774E0,-4.429114819E0,-3.923929930E0
2.133427983E0,-3.265604734E0,-4.369294167E0,-6.488138676E0
2.135822879E0,-3.239283562E0,-4.429114819E0,-7.642077446E0
2.138218504E0,-2.269592285E0,-4.398007870E0,-7.627720356E0
2.140614129E0,-3.768396616E0,-4.311866283E0,-9.430413246E0
2.143008973E0,-4.158426762E0,-4.465006828E0,-9.859027863E0
2.145403868E0,-3.844966888E0,-4.620540619E0,-7.809575081E0
2.147799493E0,-2.956631422E0,-3.986143351E0,-6.653243542E0
2.150195118E0,-2.176272154E0,-3.409173965E0,-2.918346405E0
2.152589962E0,-2.118844509E0,-3.153141975E0,-2.214557409E0
2.154984858E0,-2.468196630E0,-2.779562712E0,-3.864109516E0
2.157380535E0,-1.845763564E0,-2.190629244E0,-4.553541660E0
2.159776160E0,-1.836192250E0,-2.183450699E0,-5.312365532E0
2.162170952E0,-2.228914261E0,-2.760420084E0,-8.640183449E0
2.164565848E0,-2.662314177E0,-3.401995659E0,-1.369173145E1
2.166961525E0,-2.808276415E0,-4.067499161E0,-1.854228210E1
2.169357150E0,-1.668694735E0,-3.900001764E0,-1.520967770E1
2.171751941E0,-9.098708034E-1,-3.777967930E0,-1.017009449E1
2.174146837E0,1.794617027E-1,-3.263211966E0,-4.936692238E0
2.176542514E0,2.344966233E-1,-2.513660192E0,-1.568196177E0
2.178938139E0,4.525425732E-1,-1.194616675E0,2.775674164E-1
2.181332931E0,-3.520440459E-1,-9.571290575E-3,2.225325108E-1
2.183727827E0,-1.323829174E0,6.607181430E-1,8.138588071E-1
2.186123452E0,-7.178468257E-2,1.333400369E0,1.038814068E1
2.188519077E0,1.747657895E0,3.346960783E0,1.662712669E1
2.190913920E0,2.631207705E0,4.666004181E0,1.368455315E1
2.193308816E0,2.279163599E0,4.840979099E0,7.752147198E0
2.195704493E0,1.683051586E0,3.833002806E0,2.145165443E0
2.198100118E0,9.170492887E-1,2.370090723E0,-3.346960783E0
2.200494910E0,1.962114573E-1,9.744769931E-1,-6.827919483E0
2.202889806E0,-8.066803217E-1,-2.946162820E-1,-8.994620323E0
2.205285483E0,-1.907976985E0,-1.120439172E0,-9.056833267E0
2.207681108E0,-2.477767944E0,-1.577767372E0,-7.819146156E0
2.210075952E0,-2.959024191E0,-1.845763564E0,-7.086643219E0
2.212470795E0,-3.890430450E0,-2.240878344E0,-7.974679470E0
2.214866473E0,-4.117748737E0,-2.805883646E0,-8.647361755E0
2.217262098E0,-3.837788343E0,-3.361317635E0,-8.546863556E0
2.219656941E0,-2.700599432E0,-3.667897940E0,-7.194320202E0
2.222051785E0,-1.345364571E0,-3.473780155E0,-4.632504463E0
2.224447462E0,7.564310431E-1,-2.712563515E0,3.855435550E-1
2.226843087E0,1.477268934E0,-1.989632010E0,1.785943031E0
2.229237879E0,2.042274237E0,-1.580160260E0,3.452244759E0
2.231632775E0,2.542673111E0,-1.292722464E0,3.998107433E0
2.234028452E0,2.264806747E0,-1.144367456E0,3.236890793E0
2.236424077E0,1.833799481E0,-1.046261668E0,2.609672308E0
2.238818868E0,1.795514345E0,-1.019940615E0,2.039881229E0
2.241213764E0,2.047059774E0,-1.051047325E0,1.525125384E0
2.243609441E0,1.723729610E0,-1.122832060E0,2.105683982E-1
2.246005066E0,5.171487927E-1,-1.268794179E0,-1.735693693E0
2.248399858E0,-5.506483316E-1,-1.714158297E0,-3.124428272E0
2.250794754E0,-1.299900889E0,-2.159522533E0,-3.773182154E0
2.253190431E0,-1.759621978E0,-2.535494804E0,-3.888037682E0
2.255586056E0,-1.886441588E0,-2.767598391E0,-3.526422262E0
2.257980900E0,-1.843370795E0,-2.860918522E0,-2.997309446E0
2.260375743E0,-1.771586061E0,-2.901596546E0,-2.468196630E0
2.262771420E0,-1.685444474E0,-2.944667339E0,-2.070987940E0
2.265167045E0,-1.613659739E0,-3.026023388E0,-1.809871197E0
2.267561889E0,-1.575374603E0,-3.057130098E0,-1.797907114E0
2.269956733E0,-1.551446438E0,-3.131606579E0,-1.888834357E0
2.272352410E0,-1.570588946E0,-3.239283562E0,-1.984846354E0
2.274748035E0,-1.620838284E0,-3.311068296E0,-2.056631088E0
2.277142879E0,-1.661516190E0,-3.390031576E0,-2.123630047E0
2.279537723E0,-1.733300924E0,-3.437887907E0,-2.142772675E0
2.281933400E0,-1.726122379E0,-3.418745279E0,-2.092523336E0
2.284329025E0,-1.797907114E0,-3.342175007E0,-2.099701881E0
2.286723868E0,-1.898405671E0,-3.267997503E0,-2.161915302E0
2.289118712E0,-2.018345833E0,-3.267997503E0,-2.197807550E0
2.291514389E0,-2.157129526E0,-3.282354355E0,-2.200200319E0
2.293910014E0,-2.343769789E0,-3.327818155E0,-2.315055847E0
2.296304858E0,-2.494517565E0,-3.452244759E0,-2.492124796E0
2.298699702E0,-2.484946251E0,-3.557528973E0,-2.559422970E0
2.301095379E0,-2.451446772E0,-3.706183195E0,-2.679064035E0
2.303491004E0,-2.305484533E0,-3.852145433E0,-2.743670225E0
2.305885848E0,-2.231307030E0,-3.888037682E0,-2.722134829E0
2.308280691E0,-2.193022013E0,-3.689433336E0,-2.985345364E0
2.310676368E0,-2.250449657E0,-3.612564087E0,-3.911965847E0
2.313071993E0,-2.090130568E0,-4.077070713E0,-4.728217602E0
2.315466837E0,-2.271985054E0,-5.108975410E0,-5.360520840E0
2.317861681E0,-2.317448616E0,-6.152844429E0,-5.202295303E0
2.320257358E0,-1.668694735E0,-6.457031727E0,-5.097011566E0
2.322652983E0,-1.718943954E0,-6.744170666E0,-5.848656654E0
2.325047827E0,-2.552244425E0,-7.278069019E0,-6.672386169E0
2.327442723E0,-3.078665495E0,-7.783253670E0,-6.461817741E0
2.329838348E0,-2.513660192E0,-7.773682594E0,-5.156831741E0
2.332233973E0,-5.985047817E-1,-6.839883327E0,-3.749253988E0
2.334628816E0,2.391626120E0,-5.123332500E0,-2.545065880E0
2.337023660E0,6.128916264E0,-3.114856958E0,-2.358126640E0
2.339419337E0,8.558827400E0,-2.269592285E0,-3.919144392E0
2.341814962E0,6.713063717E0,-4.400400639E0,-4.038785458E0
2.344209806E0,3.742075443E0,-7.292426109E0,-3.232105255E0
2.346604702E0,4.884349108E-1,-9.282057762E0,-2.858525753E0
2.349000327E0,-2.865704298E0,-1.023470020E1,-2.657528639E0
2.351395952E0,-4.191926003E0,-9.463912964E0,-4.575077057E0
2.353790795E0,-6.265306950E0,-8.664112091E0,-5.207081318E0
2.356185691E0,-8.369794846E0,-8.238189697E0,-5.144867897E0
2.358581316E0,-8.044071198E0,-7.500601768E0,-6.844669342E0
2.360976941E0,-7.548458099E0,-7.038786888E0,-7.886145115E0
2.363371785E0,-7.459923744E0,-7.096214771E0,-7.366603374E0
2.365766681E0,-7.404888630E0,-7.244569778E0,-6.617351055E0
2.368162306E0,-6.765706062E0,-7.065107822E0,-6.193522453E0
2.370557931E0,-6.076273918E0,-6.624529362E0,-5.930311680E0
2.372952775E0,-5.525625706E0,-6.291627884E0,-5.843871117E0
2.375347670E0,-5.030012131E0,-5.872584820E0,-6.171987057E0
2.377743295E0,-5.120939732E0,-5.973382473E0,-5.776872158E0
2.380138920E0,-5.056333542E0,-6.069095612E0,-5.563910961E0
2.382533764E0,-4.915156841E0,-6.356234074E0,-5.805585861E0
2.384928660E0,-4.718646049E0,-6.638886452E0,-5.805585861E0
2.387324285E0,-4.756931305E0,-7.072286606E0,-5.982954025E0
2.389719910E0,-4.453042984E0,-7.368996620E0,-6.021239281E0
2.392114754E0,-4.625326157E0,-7.637291908E0,-6.349055767E0
2.394509650E0,-4.826622486E0,-7.752147198E0,-6.586244106E0
2.396905275E0,-4.989334106E0,-7.905287743E0,-6.727420807E0
2.399300900E0,-5.449055195E0,-7.936394691E0,-6.588637352E0
2.401695743E0,-5.755336761E0,-7.876574039E0,-6.696314335E0
2.404090639E0,-6.329913139E0,-7.936394691E0,-6.935596466E0
2.406486316E0,-6.789634228E0,-8.010572433E0,-6.954739094E0
2.408881941E0,-7.311568737E0,-8.017750740E0,-6.801598549E0
2.411276733E0,-8.029714584E0,-8.036892891E0,-6.827919483E0
2.413671629E0,-8.879764557E0,-8.137690544E0,-6.830312252E0
2.416067306E0,-9.909276962E0,-8.372187614E0,-7.835896015E0
2.418462931E0,-1.067288589E1,-8.443971634E0,-8.120641708E0
2.420857723E0,-1.077099228E1,-8.357830048E0,-7.936394691E0
2.423252618E0,-1.068724346E1,-8.348258972E0,-8.060821533E0
2.425648295E0,-1.040489006E1,-8.329116821E0,-8.164011955E0
2.428043920E0,-1.047188950E1,-8.264510155E0,-7.807182312E0
2.430438712E0,-1.038814068E1,-8.022536278E0,-7.323532581E0
2.432833608E0,-1.033759212E1,-7.936394691E0,-6.911668301E0
2.435229233E0,-9.981060982E0,-7.780860901E0,-6.356234074E0
2.437624858E0,-9.705587387E0,-7.649255753E0,-6.083452702E0
2.440019702E0,-9.207581520E0,-7.385746002E0,-5.372485161E0
2.442414598E0,-8.592327118E0,-6.803991318E0,-4.644468784E0
2.444810275E0,-8.561220169E0,-6.550352097E0,-4.768895626E0
2.447205900E0,-8.197511673E0,-6.825526714E0,-4.429114819E0
2.449600691E0,-7.694719315E0,-6.997809887E0,-4.091427803E0
2.451995587E0,-7.335496902E0,-6.909275532E0,-4.007678986E0
2.454391264E0,-7.474280834E0,-6.949953556E0,-4.065106392E0
2.456786889E0,-7.538887024E0,-7.081857681E0,-4.407579422E0
2.459181681E0,-7.517351627E0,-7.392924786E0,-4.570291042E0
2.461576577E0,-7.675576687E0,-7.661220074E0,-4.793122768E0
2.463972254E0,-7.917252064E0,-7.929215908E0,-5.118546963E0
2.466367879E0,-8.317152023E0,-8.307580948E0,-5.235795021E0
2.468762670E0,-8.453543663E0,-8.649754524E0,-5.312365532E0
2.471157566E0,-8.350651741E0,-8.889336586E0,-5.262115955E0
2.473553243E0,-8.367402077E0,-9.152546883E0,-5.087440014E0
2.475948868E0,-8.288438797E0,-9.296415329E0,-5.070690155E0
2.478343660E0,-8.111070633E0,-9.418449402E0,-4.963013172E0
2.480738556E0,-7.931608677E0,-9.473484039E0,-4.977370262E0
2.483134233E0,-7.666005611E0,-9.523733139E0,-4.994120121E0
2.485529858E0,-7.330711365E0,-9.573982239E0,-4.970191956E0
2.487924650E0,-7.041179657E0,-9.710372925E0,-4.893621445E0
2.490319545E0,-6.727420807E0,-9.784550667E0,-4.896014214E0
2.492715223E0,-6.586244106E0,-9.782157898E0,-4.896014214E0
2.495110848E0,-6.313163280E0,-9.648159981E0,-4.807479858E0
2.497505639E0,-6.317949295E0,-9.583553314E0,-4.725824833E0
2.499900535E0,-6.227021694E0,-9.492626190E0,-4.587040901E0
2.502296212E0,-5.980561256E0,-9.289237022E0,-4.378865242E0
2.504691837E0,-5.858228207E0,-9.135796547E0,-4.247260094E0
2.507086681E0,-5.865406513E0,-9.044869423E0,-3.935894251E0
2.509481525E0,-5.437091351E0,-8.757730484E0,-3.694219112E0
2.511877202E0,-5.207081318E0,-8.554041862E0,-3.457030535E0
2.514272827E0,-4.963013172E0,-8.357830048E0,-3.186641455E0
2.516667670E0,-4.716253281E0,-8.295617104E0,-3.018844843E0
2.519062514E0,-4.402793884E0,-8.209475517E0,-2.892025232E0
2.521458191E0,-4.536791801E0,-8.369794846E0,-2.758027315E0
2.523853816E0,-5.125725269E0,-8.841479301E0,-2.612065077E0
2.526248660E0,-4.666004181E0,-8.721838951E0,-2.463410854E0
2.528643504E0,-4.065106392E0,-8.125427246E0,-1.996810555E0
2.531039181E0,-3.861716747E0,-7.380960464E0,-1.680658817E0
2.533434806E0,-3.818645954E0,-6.720242500E0,-1.695015788E0
2.535829650E0,-3.868895054E0,-6.394519329E0,-1.553839207E0
2.538224493E0,-3.873680830E0,-6.320342064E0,-1.417448282E0
2.540620170E0,-3.818645954E0,-6.435197353E0,-1.206580877E0
2.543015795E0,-3.641277790E0,-6.468996048E0,-1.141974568E0
2.545410639E0,-3.679862022E0,-6.528816700E0,-1.273579836E0
2.547805483E0,-3.761218071E0,-6.557530403E0,-1.371685624E0
2.550201160E0,-4.915156841E0,-7.333104134E0,-1.893620014E0
2.552596785E0,-5.242973328E0,-7.862216949E0,-2.305484533E0
2.554991629E0,-4.840979099E0,-7.960322857E0,-2.231307030E0
2.557386473E0,-4.579862595E0,-7.618149281E0,-2.353341103E0
2.559782150E0,-4.393222332E0,-7.127321243E0,-2.710170746E0
2.562177775E0,-4.364508629E0,-6.885347366E0,-3.148356438E0
2.564572618E0,-4.096213341E0,-6.753741741E0,-3.483351469E0
2.566967462E0,-4.225724697E0,-6.969096184E0,-3.641277790E0
2.569363139E0,-4.555934429E0,-7.740182877E0,-3.926322937E0
2.571758764E0,-4.685146809E0,-8.678468704E0,-3.928715706E0
2.574153608E0,-4.560719967E0,-9.243474007E0,-3.978965044E0
2.576548452E0,-4.548755646E0,-9.573982239E0,-4.191926003E0
2.578944129E0,-4.737788677E0,-9.823135376E0,-4.374079704E0
2.581339754E0,-4.905585289E0,-9.964311600E0,-4.632504463E0
2.583734598E0,-5.111368179E0,-1.003370380E1,-4.742574692E0
2.586129441E0,-5.314758301E0,-1.001934624E1,-4.764110088E0
2.588525118E0,-5.561518192E0,-1.009113121E1,-4.721039295E0
2.590920743E0,-5.544768333E0,-1.009113121E1,-4.601397991E0
2.593315587E0,-5.302793980E0,-9.985847473E0,-4.524827480E0
2.595710431E0,-5.238187790E0,-9.717552185E0,-4.254438877E0
2.598106108E0,-4.955834866E0,-9.337093353E0,-3.761218071E0
2.600501733E0,-4.771587372E0,-8.961120605E0,-3.562314749E0
2.602896577E0,-4.886443138E0,-8.836693764E0,-3.725325823E0
2.605291420E0,-4.963013172E0,-8.970691681E0,-3.909573078E0
2.607687098E0,-5.135296345E0,-9.181260109E0,-3.928715706E0
2.610082723E0,-4.824229717E0,-9.166903496E0,-3.770789385E0
2.612477566E0,-4.577469826E0,-9.080761909E0,-3.746861219E0
2.614872410E0,-4.271188259E0,-8.851051331E0,-3.550350666E0
2.617268087E0,-4.177569389E0,-8.673683167E0,-3.253640652E0
2.619663712E0,-4.077070713E0,-8.592327118E0,-3.445066452E0
2.622058556E0,-3.888037682E0,-8.534899712E0,-3.557528973E0
2.624453400E0,-3.713361740E0,-8.355437279E0,-3.303889751E0
2.626849077E0,-3.801896095E0,-8.195118904E0,-3.177070379E0
2.629244702E0,-3.754039526E0,-8.036892891E0,-3.107678413E0
2.631639545E0,-3.677469254E0,-7.919644833E0,-3.105285645E0
2.634034389E0,-3.588635683E0,-7.809575081E0,-3.071486950E0
2.636430066E0,-3.495315790E0,-7.615756035E0,-2.959024191E0
2.638825691E0,-3.730111361E0,-7.526922703E0,-2.841775894E0
2.641220535E0,-4.084249020E0,-7.538887024E0,-2.738884687E0
2.643615379E0,-4.369294167E0,-7.550850868E0,-2.408375978E0
2.646011056E0,-4.278367043E0,-7.452745438E0,-2.417947292E0
2.648406681E0,-4.261617184E0,-7.572386265E0,-2.676671267E0
2.650801525E0,-4.302295208E0,-7.759325504E0,-2.712563515E0
2.653196420E0,-4.323830605E0,-7.955537319E0,-2.724527597E0
2.655592045E0,-4.357329845E0,-8.022536278E0,-2.762812853E0
2.657987670E0,-4.512863636E0,-8.029714584E0,-2.793919563E0
2.660382514E0,-4.747360229E0,-7.960322857E0,-2.801098108E0
2.662777358E0,-4.706682205E0,-8.262117386E0,-2.616850615E0
2.665173035E0,-4.608576298E0,-8.570791245E0,-2.432304144E0
2.667568660E0,-4.524827480E0,-8.652147293E0,-2.355733871E0
2.669963504E0,-4.414757729E0,-8.702695847E0,-2.420340061E0
2.672358400E0,-4.433900356E0,-8.824729919E0,-2.348555326E0
2.674754025E0,-4.323830605E0,-8.975478172E0,-2.343769789E0
2.677149650E0,-4.228117466E0,-9.200403214E0,-2.415554523E0
2.679544493E0,-4.036392689E0,-9.442377090E0,-2.446661234E0
2.681939389E0,-3.976572037E0,-9.679266930E0,-2.382055044E0
2.684335014E0,-3.914358854E0,-9.882955551E0,-2.315055847E0
2.686730639E0,-3.665505171E0,-9.861420631E0,-2.202593327E0
2.689125483E0,-3.516851187E0,-9.885348320E0,-2.295913219E0
2.691520327E0,-3.447459221E0,-9.911669731E0,-2.422732830E0
2.693916004E0,-3.409173965E0,-9.837491989E0,-2.410768747E0
2.696311629E0,-3.445066452E0,-9.880562782E0,-2.315055847E0
2.698706473E0,-3.370888948E0,-1.000259686E1,-2.307877541E0
2.701101368E0,-3.294318676E0,-1.004088211E1,-2.236092806E0
2.703496993E0,-3.380460262E0,-1.020120144E1,-2.204986095E0
2.705892618E0,-3.337389469E0,-1.017966557E1,-2.185843468E0
2.708287462E0,-3.351746321E0,-1.012463093E1,-2.197807550E0
2.710682358E0,-3.394817114E0,-9.928419113E0,-2.209771633E0
2.713077983E0,-3.430709362E0,-9.652945518E0,-2.291127682E0
2.715473608E0,-3.334996462E0,-9.511769295E0,-2.200200319E0
2.717868452E0,-3.330210924E0,-9.562018394E0,-2.020738840E0
2.720263348E0,-3.222533941E0,-9.588339806E0,-2.013560295E0
2.722658973E0,-3.311068296E0,-9.530911446E0,-2.212164640E0
2.725054598E0,-2.990130901E0,-9.576375008E0,-2.178664923E0
2.727449441E0,-3.107678413E0,-9.437591553E0,-2.039881229E0
2.729844337E0,-3.150749207E0,-9.176474571E0,-1.831406593E0
2.732239962E0,-3.069094181E0,-9.075976372E0,-1.984846354E0
2.734635587E0,-3.014059305E0,-9.035298347E0,-1.975275040E0
2.737030431E0,-3.026023388E0,-9.102297783E0,-2.090130568E0
2.739425327E0,-2.944667339E0,-9.205188751E0,-1.881655931E0
2.741820952E0,-2.947060108E0,-9.289237022E0,-1.972882271E0
2.744216577E0,-3.004487991E0,-9.334700584E0,-2.049452543E0
2.746611420E0,-2.923131943E0,-9.277272224E0,-2.066202402E0
2.749006316E0,-2.889632463E0,-9.190832138E0,-2.161915302E0
2.751401941E0,-2.997309446E0,-9.262915611E0,-2.327019930E0
2.753797566E0,-3.143570662E0,-9.351449966E0,-2.362912416E0
2.756192410E0,-3.275176048E0,-9.506983757E0,-2.362912416E0
2.758587306E0,-3.217748165E0,-9.648159981E0,-2.374876499E0
2.760982931E0,-3.191427231E0,-9.770194054E0,-2.533101797E0
2.763378556E0,-3.390031576E0,-9.926026344E0,-2.722134829E0
2.765773400E0,-3.631706476E0,-1.028495026E1,-2.738884687E0
2.768168295E0,-3.840181351E0,-1.052453136E1,-2.860918522E0
2.770563920E0,-3.725325823E0,-1.034955597E1,-2.882453918E0
2.772959545E0,-3.849752426E0,-1.041685390E1,-2.736491680E0
2.775354389E0,-4.084249020E0,-1.060349464E1,-2.600100994E0
2.777749285E0,-4.139284134E0,-1.073031425E1,-2.609672308E0
2.780144910E0,-4.194318771E0,-1.080209827E1,-2.643171787E0
2.782540535E0,-4.237689018E0,-1.081406307E1,-2.810669184E0
2.784935379E0,-4.170390606E0,-1.100339508E1,-2.925524712E0
2.787330275E0,-3.911965847E0,-1.132642555E1,-3.085843801E0
2.789725900E0,-3.825824261E0,-1.123549843E1,-2.889632463E0
2.792121525E0,-3.897608995E0,-1.092173958E1,-2.561815739E0
2.794516368E0,-3.947858334E0,-1.063938713E1,-2.200200319E0
2.796911264E0,-3.947858334E0,-1.042642593E1,-2.027917147E0
2.799306889E0,-3.883252144E0,-1.030887794E1,-1.884048700E0
2.801702514E0,-3.785146236E0,-1.015813065E1,-1.747657895E0
2.804097358E0,-3.699004650E0,-9.990633011E0,-1.642373681E0
2.806492254E0,-3.665505171E0,-9.892526627E0,-1.580160260E0
2.808887879E0,-3.602992773E0,-9.842277527E0,-1.553839207E0
2.811283504E0,-3.538386583E0,-9.751050949E0,-1.546660781E0
2.813678348E0,-3.485744476E0,-9.753444672E0,-1.532303810E0
2.816073243E0,-3.413959742E0,-9.703194618E0,-1.604088426E0
2.818468868E0,-3.366103172E0,-9.640981674E0,-1.534696579E0
2.820864493E0,-3.244069338E0,-9.636196136E0,-1.450947881E0
2.823259337E0,-3.203391314E0,-9.681659698E0,-1.489233017E0
2.825654233E0,-3.143570662E0,-9.696016312E0,-1.575374603E0
2.828049858E0,-3.131606579E0,-9.684052467E0,-1.486840129E0
2.830445483E0,-3.117249727E0,-9.657731056E0,-1.472483277E0
2.832840327E0,-3.105285645E0,-9.688838005E0,-1.486840129E0
2.835235223E0,-3.049951553E0,-9.727123260E0,-1.503589988E0
2.837630848E0,-3.011666298E0,-9.789336205E0,-1.388435364E0
2.840026473E0,-2.987738132E0,-9.835099220E0,-1.352542996E0
2.842421316E0,-2.937488794E0,-9.878170013E0,-1.472483277E0
2.844816212E0,-2.925524712E0,-9.906884193E0,-1.647159338E0
2.847211837E0,-2.920739174E0,-9.835099220E0,-1.714158297E0
2.849607462E0,-2.796312332E0,-9.856635094E0,-1.790728688E0
2.852002306E0,-2.758027315E0,-9.926026344E0,-1.845763564E0
2.854397202E0,-2.851347208E0,-9.861420631E0,-1.869691849E0
2.856792827E0,-3.021237612E0,-9.894919395E0,-2.044667006E0
2.859188452E0,-3.085843801E0,-9.959526062E0,-2.006381750E0
2.861583295E0,-3.037987471E0,-9.949954987E0,-1.730908036E0
2.863978191E0,-2.935096025E0,-9.837491989E0,-9.625129104E-1
2.866373816E0,-2.825026274E0,-9.904491425E0,-6.942176819E-1
2.868769441E0,-2.872882605E0,-1.008634567E1,-9.816554785E-1
2.871164285E0,-3.366103172E0,-1.026580715E1,-8.835497499E-1
2.873559181E0,-3.890430450E0,-1.132164001E1,2.344966233E-1
2.875954806E0,-2.801098108E0,-1.209751320E1,1.654337764E0
2.878350431E0,-1.745265007E0,-1.216451168E1,3.014059305E0
2.880745275E0,-1.163509965E0,-1.165693474E1,2.920739174E0
2.883140170E0,-1.352542996E0,-1.083559799E1,2.173879385E0
2.885535795E0,-1.968096614E0,-1.007677460E1,1.249651670E0
2.887931420E0,-2.671885490E0,-9.437591553E0,3.329014480E-1
2.890326264E0,-3.323032379E0,-9.042476654E0,-6.702894568E-1
2.892721160E0,-3.797110319E0,-8.748159409E0,-1.726122379E0
2.895116785E0,-4.031607151E0,-8.427222252E0,-2.331805706E0
2.897512410E0,-3.859323740E0,-8.130212784E0,-2.612065077E0
2.899907254E0,-3.631706476E0,-7.819146156E0,-2.884846687E0
2.902302150E0,-3.528815269E0,-7.596613884E0,-3.009273529E0
2.904697775E0,-3.634099483E0,-7.500601768E0,-3.018844843E0
2.907093400E0,-3.830610037E0,-7.479066372E0,-2.990130901E0
2.909488243E0,-4.098606110E0,-7.462316513E0,-2.923131943E0
2.911883139E0,-4.275974274E0,-7.507780075E0,-2.772384167E0
2.914278764E0,-4.378865242E0,-7.572386265E0,-2.635993242E0
2.916674389E0,-4.520041943E0,-7.668398380E0,-2.446661234E0
2.919069233E0,-4.613361835E0,-7.797610760E0,-2.257628202E0
2.921464129E0,-4.713860512E0,-7.950751305E0,-2.094916344E0
2.923859754E0,-4.687539577E0,-8.077570915E0,-1.953440547E0
2.926255379E0,-4.589433670E0,-8.250153542E0,-1.900798440E0
2.928650223E0,-4.606183529E0,-8.362615585E0,-1.893620014E0
2.931045118E0,-4.716253281E0,-8.357830048E0,-1.742872238E0
2.933440743E0,-4.781158924E0,-8.338687897E0,-1.534696579E0
2.935836368E0,-4.776372910E0,-8.252546310E0,-1.321436286E0
2.938231212E0,-4.584648132E0,-8.118248940E0,-1.082154036E0
2.940626108E0,-4.371686935E0,-8.036892891E0,-8.258228898E-1
2.943021733E0,-4.476971149E0,-7.912466049E0,-6.918248534E-1
2.945417358E0,-4.503292084E0,-7.840681553E0,-5.673980713E-1
2.947812202E0,-4.469792843E0,-7.776075363E0,-5.458626747E-1
2.950207098E0,-4.433900356E0,-7.761718273E0,-5.123631358E-1
2.952602723E0,-4.486542225E0,-7.627720356E0,-5.027918816E-1
2.954998348E0,-4.512863636E0,-6.708278179E0,3.951148391E-1
2.957393191E0,-4.141676903E0,-6.483353138E0,8.377870321E-1
2.959788087E0,-4.124927044E0,-6.626922131E0,4.980062246E-1
2.962183712E0,-4.228117466E0,-6.885347366E0,1.100698411E-1
2.964579337E0,-4.280759811E0,-7.148856640E0,-1.938186288E-1
2.966974181E0,-4.297509670E0,-7.431210041E0,-4.094717801E-1
2.969369077E0,-4.249652863E0,-7.637291908E0,-4.980062246E-1
2.971764702E0,-4.096213341E0,-7.780860901E0,-4.692923427E-1
2.974160327E0,-3.921537161E0,-7.833503246E0,-5.291129351E-1
2.976555170E0,-3.785146236E0,-7.967501163E0,-5.482555032E-1
2.978950066E0,-3.361317635E0,-7.878966808E0,-5.578267574E-1
2.981345691E0,-3.131606579E0,-7.893323898E0,-7.492526174E-1
2.983741316E0,-3.061915636E0,-7.993822098E0,-8.763712645E-1
2.986136160E0,-3.037987471E0,-8.082356453E0,-9.672985673E-1
2.988531056E0,-2.997309446E0,-8.190332413E0,-9.744769931E-1
2.990926681E0,-2.863311291E0,-8.137690544E0,-9.457631707E-1
2.993322306E0,-2.741277456E0,-8.103892326E0,-9.026923180E-1
2.995717150E0,-2.671885490E0,-8.144868851E0,-9.792626500E-1
2.998112045E0,-2.607279301E0,-8.302795410E0,-1.144367456E0
3.000507670E0,-2.504088879E0,-8.458329201E0,-1.170688510E0
3.002903295E0,-2.379662037E0,-8.575576782E0,-1.302293777E0
3.005298139E0,-2.425125837E0,-8.513363838E0,-1.436590910E0
3.007693035E0,-2.319841623E0,-8.525327682E0,-1.415055513E0
3.010088660E0,-2.200200319E0,-8.546863556E0,-1.419841170E0
3.012484285E0,-2.126022816E0,-8.525327682E0,-1.479661703E0
3.014879129E0,-2.104487419E0,-8.527720451E0,-1.474876046E0
3.017274025E0,-2.118844509E0,-8.566005707E0,-1.450947881E0
3.019669650E0,-2.044667006E0,-8.635397911E0,-1.412662625E0
3.022065275E0,-2.111665964E0,-8.755337715E0,-1.494018674E0
3.024460118E0,-2.126022816E0,-8.726624489E0,-1.584945917E0
3.026854962E0,-2.188236237E0,-8.577970505E0,-1.635195136E0
3.029250639E0,-2.147558212E0,-8.518149376E0,-1.795514345E0
3.031646264E0,-2.169093609E0,-8.475078583E0,-1.850549221E0
3.034041108E0,-2.238485575E0,-8.470293045E0,-1.996810555E0
3.036435952E0,-2.367697954E0,-8.549256325E0,-2.066202402E0
3.038831629E0,-2.324627161E0,-8.874979019E0,-2.281556368E0
3.041227254E0,-2.267199516E0,-9.466305733E0,-2.417947292E0
3.043622098E0,-2.240878344E0,-9.978668213E0,-2.341377020E0
3.046016941E0,-2.193022013E0,-1.027059269E1,-2.027917147E0
3.048412618E0,-2.176272154E0,-1.049103165E1,-1.673480392E0
3.050808243E0,-2.173879385E0,-1.070399284E1,-1.335793257E0
3.053203087E0,-2.243271112E0,-1.089302635E1,-1.197009563E0
3.055597931E0,-2.408375978E0,-1.089063358E1,-1.058225870E0
3.057993608E0,-2.496910334E0,-1.087627602E1,-8.859425783E-1
3.060389233E0,-2.624029160E0,-1.078056335E1,-8.282157183E-1
3.062784077E0,-2.686242580E0,-1.073509979E1,-8.306085467E-1
3.065178920E0,-2.772384167E0,-1.072074318E1,-7.947162390E-1
3.067574598E0,-2.712563515E0,-1.083799076E1,-8.835497499E-1
3.069970223E0,-2.801098108E0,-1.080927753E1,-9.864411354E-1
3.072365066E0,-2.947060108E0,-1.053888798E1,-8.979067206E-1
3.074759910E0,-2.951845884E0,-1.032084274E1,-8.644071817E-1
3.077155587E0,-2.935096025E0,-1.018923664E1,-8.524430394E-1
3.079551212E0,-2.915953398E0,-1.011505985E1,-1.019940615E0
3.081946056E0,-2.951845884E0,-1.009591675E1,-1.177866936E0
3.084340900E0,-2.961417198E0,-1.010070229E1,-1.448554993E0
3.086736577E0,-2.987738132E0,-1.004566765E1,-1.663909078E0
3.089132202E0,-2.997309446E0,-9.966704369E0,-1.800299883E0
3.091527045E0,-3.006880760E0,-9.854242325E0,-1.975275040E0
3.093921889E0,-3.069094181E0,-9.652945518E0,-2.209771633E0
3.096317566E0,-3.174677372E0,-9.396913528E0,-2.181057930E0
3.098713191E0,-3.234498024E0,-9.253045082E0,-2.145165443E0
3.101108035E0,-3.244069338E0,-9.229117393E0,-2.147558212E0
3.103502879E0,-3.267997503E0,-9.245866776E0,-2.116451740E0
3.105898556E0,-3.256033421E0,-9.279664993E0,-2.066202402E0
3.108294181E0,-3.258426189E0,-9.327521324E0,-2.030309916E0
3.110689025E0,-3.241676569E0,-9.365806580E0,-1.912762642E0
3.113083868E0,-3.191427231E0,-9.399306297E0,-1.757229090E0
3.115479545E0,-3.184248686E0,-9.365806580E0,-1.692622900E0
3.117875170E0,-3.138785124E0,-9.356235504E0,-1.687837243E0
3.120270014E0,-3.061915636E0,-9.353842735E0,-1.728515267E0
3.122664858E0,-2.970988512E0,-9.372985840E0,-1.639980793E0
3.125060535E0,-2.901596546E0,-9.432806015E0,-1.505982757E0
3.127456160E0,-2.822633505E0,-9.478269577E0,-1.448554993E0
3.129851004E0,-2.760420084E0,-9.506983757E0,-1.477268934E0
3.132245848E0,-2.731706142E0,-9.526125908E0,-1.443769336E0
3.134641525E0,-2.705385208E0,-9.593125343E0,-1.381256819E0
3.137037150E0,-2.719742060E0,-9.664909363E0,-1.347757339E0
3.139431993E0,-2.813062191E0,-9.758230209E0,-1.354935765E0
3.141826837E0,-2.894418001E0,-9.832706451E0,-1.400399446E0
3.144222514E0,-2.913560629E0,-9.837491989E0,-1.465304732E0
3.146618139E0,-2.856132984E0,-9.820742607E0,-1.520339727E0
3.149012983E0,-2.746062994E0,-9.779765129E0,-1.563410521E0
3.151407827E0,-2.621636391E0,-9.758230209E0,-1.505982757E0
3.153803504E0,-2.508874655E0,-9.803693771E0,-1.407876968E0
3.156199129E0,-2.427518606E0,-9.854242325E0,-1.309472203E0
3.158593973E0,-2.401197433E0,-9.894919395E0,-1.254437327E0
3.160988816E0,-2.348555326E0,-9.916455269E0,-1.158724308E0
3.163384493E0,-2.300698996E0,-9.964311600E0,-1.051047325E0
3.165780118E0,-2.221735716E0,-1.002413273E1,-9.170492887E-1
3.168174962E0,-2.185843468E0,-1.007916737E1,-7.779664397E-1
3.170569806E0,-2.176272154E0,-1.014616585E1,-6.822535396E-1
3.172965483E0,-2.207378864E0,-1.023230743E1,-5.913262963E-1
3.175361108E0,-2.236092806E0,-1.030887794E1,-4.932205677E-1
3.177755952E0,-2.286342144E0,-1.039292622E1,-4.286143482E-1
3.180150795E0,-2.327019930E0,-1.044796085E1,-3.520440459E-1
3.182546473E0,-2.379662037E0,-1.054367352E1,-2.874378264E-1
3.184942098E0,-2.427518606E0,-1.065135098E1,-2.081755698E-1
3.187336941E0,-2.496910334E0,-1.075663471E1,-1.986042857E-1
3.189731785E0,-2.549851656E0,-1.083559799E1,-1.914258152E-1
3.192127462E0,-2.583351135E0,-1.089781189E1,-1.363908947E-1
3.194523087E0,-2.628814697E0,-1.089541912E1,-1.028913707E-1
3.196917931E0,-2.659921408E0,-1.085952663E1,-7.417750359E-2
3.199312775E0,-2.707777977E0,-1.079731274E1,-6.939185411E-2
3.201708452E0,-2.767598391E0,-1.071834946E1,-7.417750359E-2
3.204104077E0,-2.825026274E0,-1.064417267E1,-1.435693651E-1
3.206498920E0,-2.868097067E0,-1.058913708E1,-2.273181528E-1
3.208893764E0,-2.937488794E0,-1.051974583E1,-3.209373355E-1
3.211289441E0,-2.982952595E0,-1.039771175E1,-4.525425732E-1
3.213685066E0,-2.980559587E0,-1.020359421E1,-5.338985324E-1
3.216079858E0,-3.023630619E0,-9.985847473E0,-6.343970895E-1
3.218474754E0,-3.016452074E0,-9.777372360E0,-7.612167001E-1
3.220870431E0,-3.042773008E0,-9.564411163E0,-9.337990284E-1
3.223266056E0,-3.066701412E0,-9.425627708E0,-1.082154036E0
3.225660900E0,-3.119642496E0,-9.308379173E0,-1.218544960E0
3.228055743E0,-3.179463148E0,-9.226723671E0,-1.340578914E0
3.230451420E0,-3.217748165E0,-9.140582085E0,-1.474876046E0
3.232847045E0,-3.186641455E0,-9.083154678E0,-1.596910000E0
3.235241837E0,-3.133999348E0,-9.049654961E0,-1.697408557E0
3.237636733E0,-3.052344322E0,-9.001798630E0,-1.757229090E0
3.240032410E0,-2.987738132E0,-8.989834785E0,-1.819442511E0
3.242428035E0,-2.911167860E0,-8.989834785E0,-1.896012783E0
3.244822827E0,-2.875275612E0,-8.961120605E0,-1.884048700E0
3.247217723E0,-2.829811811E0,-8.989834785E0,-1.881655931E0
3.249613400E0,-2.796312332E0,-9.047262192E0,-1.879263043E0
3.252009025E0,-2.774776936E0,-9.111868858E0,-1.927119493E0
3.254403816E0,-2.724527597E0,-9.169296265E0,-1.893620014E0
3.256798712E0,-2.686242580E0,-9.231510162E0,-1.951047778E0
3.259194389E0,-2.647957325E0,-9.305986404E0,-1.951047778E0
3.261590014E0,-2.566601276E0,-9.406484604E0,-1.934298038E0
3.263984806E0,-2.547458887E0,-9.487840652E0,-1.917548299E0
3.266379702E0,-2.499303341E0,-9.593125343E0,-1.857727647E0
3.268775379E0,-2.484946251E0,-9.724730492E0,-1.809871197E0
3.271171004E0,-2.470589399E0,-9.887741089E0,-1.711765528E0
3.273565795E0,-2.458625317E0,-9.997811317E0,-1.620838284E0
3.275960691E0,-2.405983210E0,-1.011745262E1,-1.532303810E0
3.278356368E0,-2.334198475E0,-1.020598698E1,-1.443769336E0
3.280751993E0,-2.274377823E0,-1.025623608E1,-1.410269856E0
3.283146785E0,-2.152343988E0,-1.028495026E1,-1.362114310E0
3.285541681E0,-2.049452543E0,-1.027537823E1,-1.340578914E0
3.287937358E0,-1.953440547E0,-1.025623608E1,-1.335793257E0
3.290332983E0,-1.884048700E0,-1.022034359E1,-1.302293777E0
3.292727775E0,-1.773978829E0,-1.017009449E1,-1.302293777E0
3.295122670E0,-1.692622900E0,-1.012702370E1,-1.304686546E0
3.297518295E0,-1.551446438E0,-1.008634567E1,-1.264008522E0
3.299913920E0,-1.455733418E0,-1.002891827E1,-1.259222865E0
3.302308764E0,-1.323829174E0,-1.000259686E1,-1.280758262E0
3.304703660E0,-1.225723386E0,-9.959526062E0,-1.319043517E0
3.307099285E0,-1.146760225E0,-9.909276962E0,-1.347757339E0
3.309494910E0,-1.063011408E0,-9.823135376E0,-1.407876968E0
3.311889754E0,-1.043868899E0,-9.758230209E0,-1.400399446E0
3.314284650E0,-1.043868899E0,-9.681659698E0,-1.429412484E0
3.316680327E0,-1.055832982E0,-9.626625061E0,-1.450947881E0
3.319075952E0,-1.043868899E0,-9.540482521E0,-1.436590910E0
3.321470743E0,-1.063011408E0,-9.490233421E0,-1.424626827E0
3.323865639E0,-1.058225870E0,-9.454340935E0,-1.388435364E0
3.326261316E0,-1.086939692E0,-9.396913528E0,-1.342971683E0
3.328656941E0,-1.115653515E0,-9.372985840E0,-1.297508121E0
3.331051733E0,-1.153938770E0,-9.349057198E0,-1.230509043E0
3.333446629E0,-1.199402332E0,-9.327521324E0,-1.163509965E0
3.335842254E0,-1.244866014E0,-9.315557480E0,-1.122832060E0
3.338237879E0,-1.264008522E0,-9.334700584E0,-1.079761267E0
3.340632723E0,-1.271187067E0,-9.332307816E0,-1.022333503E0
3.343027618E0,-1.278365493E0,-9.327521324E0,-9.960124493E-1
3.345423243E0,-1.297508121E0,-9.315557480E0,-9.577272534E-1
3.347818868E0,-1.309472203E0,-9.337093353E0,-9.385846853E-1
3.350213712E0,-1.331007600E0,-9.358628273E0,-9.170492887E-1
3.352608608E0,-1.323829174E0,-9.361021042E0,-8.979067206E-1
3.355004233E0,-1.333400369E0,-9.351449966E0,-8.739784956E-1
3.357399858E0,-1.366899967E0,-9.363413811E0,-8.739784956E-1
3.359794702E0,-1.388435364E0,-9.396913528E0,-8.859425783E-1
3.362189598E0,-1.422233939E0,-9.408877373E0,-8.620143533E-1
3.364585223E0,-1.438983679E0,-9.377771378E0,-8.452646136E-1
3.366980848E0,-1.448554993E0,-9.401699066E0,-8.377870321E-1
3.369375691E0,-1.503589988E0,-9.411270142E0,-8.330013752E-1
3.371770587E0,-1.525125384E0,-9.423234940E0,-8.258228898E-1
3.374166212E0,-1.549053550E0,-9.432806015E0,-8.306085467E-1
3.376561837E0,-1.575374603E0,-9.456734657E0,-8.210372925E-1
3.378956681E0,-1.592124343E0,-9.442377090E0,-8.210372925E-1
3.381351525E0,-1.608874083E0,-9.475876808E0,-8.258228898E-1
3.383747202E0,-1.630409479E0,-9.499805450E0,-8.042874932E-1
3.386142827E0,-1.644766450E0,-9.538089752E0,-7.971090674E-1
3.388537670E0,-1.680658817E0,-9.554840088E0,-7.947162390E-1
3.390932566E0,-1.687837243E0,-9.569196701E0,-7.636095285E-1
3.393328191E0,-1.711765528E0,-9.588339806E0,-7.660023570E-1
3.395723816E0,-1.730908036E0,-9.605089188E0,-7.372884750E-1
3.398118660E0,-1.757229090E0,-9.629017830E0,-7.372884750E-1
3.400513556E0,-1.752443433E0,-9.648159981E0,-6.918248534E-1
3.402909181E0,-1.788335800E0,-9.686445236E0,-6.726822853E-1
3.405304806E0,-1.788335800E0,-9.696016312E0,-6.535396576E-1
3.407699650E0,-1.800299883E0,-9.712766647E0,-6.248258352E-1
3.410094493E0,-1.840977907E0,-9.722337723E0,-6.080760360E-1
3.412490170E0,-1.874477386E0,-9.748658180E0,-5.841478109E-1
3.414885795E0,-1.898405671E0,-9.763015747E0,-5.530411601E-1
3.417280639E0,-1.891227245E0,-9.770194054E0,-5.291129351E-1
3.419675483E0,-1.898405671E0,-9.753444672E0,-5.195416212E-1
3.422071160E0,-1.881655931E0,-9.734301567E0,-4.525425732E-1
3.424466785E0,-1.910369754E0,-9.727123260E0,-4.381856322E-1
3.426861629E0,-1.907976985E0,-9.722337723E0,-4.070789516E-1
3.429256473E0,-1.931905150E0,-9.739087105E0,-4.621138871E-1
3.431652150E0,-1.927119493E0,-9.731908798E0,-4.621138871E-1
3.434047775E0,-1.927119493E0,-9.715159416E0,-4.549354017E-1
3.436442618E0,-1.924726725E0,-9.676874161E0,-4.429712892E-1
3.438837462E0,-1.948654890E0,-9.686445236E0,-4.286143482E-1
3.441233139E0,-1.948654890E0,-9.712766647E0,-5.003990531E-1
3.443628764E0,-1.970489502E0,-9.707980156E0,-5.602195859E-1
3.446023608E0,-1.972882271E0,-9.734301567E0,-5.650052428E-1
3.448418452E0,-1.955833435E0,-9.729516029E0,-6.008976102E-1
3.450814129E0,-1.951047778E0,-9.731908798E0,-6.367899179E-1
3.453209754E0,-1.934298038E0,-9.739087105E0,-6.487540603E-1
3.455604598E0,-1.929512382E0,-9.719944954E0,-6.559324861E-1
3.457999441E0,-1.927119493E0,-9.731908798E0,-6.655037999E-1
3.460395118E0,-1.936690807E0,-9.700801849E0,-6.942176819E-1
3.462790743E0,-1.912762642E0,-9.719944954E0,-6.870391965E-1
3.465185587E0,-1.912762642E0,-9.693623543E0,-6.535396576E-1
3.467580431E0,-1.898405671E0,-9.698409081E0,-6.343970895E-1
3.469976108E0,-1.907976985E0,-9.693623543E0,-6.487540603E-1
3.472371733E0,-1.912762642E0,-9.681659698E0,-6.535396576E-1
3.474766577E0,-1.917548299E0,-9.696016312E0,-6.726822853E-1
3.477161420E0,-1.917548299E0,-9.698409081E0,-7.157530785E-1
3.479557098E0,-1.931905150E0,-9.712766647E0,-6.942176819E-1
3.481952723E0,-1.955833435E0,-9.703194618E0,-6.822535396E-1
3.484347566E0,-1.946262121E0,-9.698409081E0,-6.870391965E-1
3.486742410E0,-1.948654890E0,-9.700801849E0,-6.822535396E-1
3.489138087E0,-1.955833435E0,-9.691230774E0,-6.487540603E-1
3.491533712E0,-1.960619092E0,-9.676874161E0,-6.391827464E-1
3.493928556E0,-1.965703845E0,-9.693623543E0,-6.080760360E-1
3.496323400E0,-1.980060697E0,-9.693623543E0,-6.248258352E-1
3.498719077E0,-1.992024899E0,-9.710372925E0,-6.391827464E-1
3.501114702E0,-2.015953064E0,-9.719944954E0,-6.272186637E-1
3.503509545E0,-2.023131609E0,-9.707980156E0,-6.128616929E-1
3.505904389E0,-2.037488461E0,-9.717552185E0,-6.056832075E-1
3.508300066E0,-2.049452543E0,-9.703194618E0,-6.655037999E-1
3.510695691E0,-2.070987940E0,-9.705587387E0,-6.918248534E-1
3.513090535E0,-2.092523336E0,-9.681659698E0,-7.037889361E-1
3.515485379E0,-2.114058733E0,-9.691230774E0,-7.348956466E-1
3.517881056E0,-2.140379906E0,-9.688838005E0,-7.588238716E-1
3.520276681E0,-2.111665964E0,-9.696016312E0,-7.707880139E-1
3.522671525E0,-2.080559254E0,-9.676874161E0,-8.042874932E-1
3.525066368E0,-2.085345030E0,-9.664909363E0,-8.596215248E-1
3.527462045E0,-2.080559254E0,-9.648159981E0,-8.596215248E-1
3.529857670E0,-2.061416626E0,-9.621838570E0,-8.979067206E-1
3.532252462E0,-2.039881229E0,-9.607481956E0,-9.385846853E-1
3.534647358E0,-2.025524378E0,-9.595518112E0,-9.888339639E-1
3.537043035E0,-2.001596212E0,-9.557232857E0,-1.005583763E0
3.539438660E0,-1.963011861E0,-9.552447319E0,-1.019940615E0
3.541833452E0,-1.939083695E0,-9.550054550E0,-1.063011408E0
3.544228348E0,-1.879263043E0,-9.552447319E0,-1.096511006E0
3.546624025E0,-1.876870275E0,-9.552447319E0,-1.146760225E0
3.549019650E0,-1.833799481E0,-9.552447319E0,-1.125224829E0
3.551414441E0,-1.802692771E0,-9.554840088E0,-1.144367456E0
3.553809337E0,-1.776371717E0,-9.559625626E0,-1.153938770E0
3.556205014E0,-1.747657895E0,-9.530911446E0,-1.185045362E0
3.558600639E0,-1.738086581E0,-9.506983757E0,-1.134796143E0
3.560995431E0,-1.726122379E0,-9.506983757E0,-1.115653515E0
3.563390327E0,-1.706979871E0,-9.483055115E0,-1.077368379E0
3.565786004E0,-1.697408557E0,-9.485447884E0,-1.058225870E0
3.568181629E0,-1.666301847E0,-9.471091270E0,-1.031904817E0
3.570576420E0,-1.659123421E0,-9.454340935E0,-1.048654556E0
3.572971316E0,-1.659123421E0,-9.461520195E0,-1.027119160E0
3.575366993E0,-1.673480392E0,-9.466305733E0,-1.007976532E0
3.577762618E0,-1.699801445E0,-9.456734657E0,-9.864411354E-1
3.580157410E0,-1.721336842E0,-9.456734657E0,-9.266205430E-1
3.582552306E0,-1.752443433E0,-9.471091270E0,-9.050851464E-1
3.584947931E0,-1.776371717E0,-9.480662346E0,-9.026923180E-1
3.587343556E0,-1.809871197E0,-9.463912964E0,-8.883354068E-1
3.589738400E0,-1.850549221E0,-9.447162628E0,-8.907282352E-1
3.592133295E0,-1.896012783E0,-9.444769859E0,-8.572286963E-1
3.594528920E0,-1.922333837E0,-9.432806015E0,-8.476574421E-1
3.596924545E0,-1.958226204E0,-9.447162628E0,-8.476574421E-1
3.599319389E0,-1.982453585E0,-9.439984322E0,-8.476574421E-1
3.601714285E0,-2.039881229E0,-9.447162628E0,-8.353942037E-1
3.604109910E0,-2.061416626E0,-9.444769859E0,-8.500502706E-1
3.606505535E0,-2.104487419E0,-9.456734657E0,-8.691928387E-1
3.608900379E0,-2.140379906E0,-9.483055115E0,-8.572286963E-1
3.611295275E0,-2.178664923E0,-9.483055115E0,-8.428717852E-1
3.613690900E0,-2.185843468E0,-9.497411728E0,-8.476574421E-1
3.616086525E0,-2.209771633E0,-9.504590988E0,-8.572286963E-1
3.618481368E0,-2.209771633E0,-9.526125908E0,-8.524430394E-1
3.620876264E0,-2.216950178E0,-9.552447319E0,-8.572286963E-1
3.623271889E0,-2.228914261E0,-9.590732574E0,-8.500502706E-1
3.625667514E0,-2.200200319E0,-9.619445801E0,-8.644071817E-1
3.628062358E0,-2.204986095E0,-9.652945518E0,-8.739784956E-1
3.630457254E0,-2.183450699E0,-9.660123825E0,-9.194421172E-1
3.632852879E0,-2.159522533E0,-9.669695854E0,-9.026923180E-1
3.635248504E0,-2.145165443E0,-9.700801849E0,-8.691928387E-1
3.637643348E0,-2.123630047E0,-9.705587387E0,-8.691928387E-1
3.640038191E0,-2.114058733E0,-9.729516029E0,-8.500502706E-1
3.642433868E0,-2.080559254E0,-9.774979591E0,-8.428717852E-1
3.644829493E0,-2.025524378E0,-9.772586823E0,-8.330013752E-1
3.647224337E0,-2.011167526E0,-9.779765129E0,-8.572286963E-1
3.649619233E0,-1.992024899E0,-9.801301003E0,-8.428717852E-1
3.652014858E0,-1.948654890E0,-9.810872078E0,-8.548358679E-1
3.654410483E0,-1.939083695E0,-9.832706451E0,-8.859425783E-1
3.656805327E0,-1.888834357E0,-9.870991707E0,-8.620143533E-1
3.659200170E0,-1.855334878E0,-9.897313118E0,-8.739784956E-1
3.661595848E0,-1.829013824E0,-9.930811882E0,-8.715856671E-1
3.663991473E0,-1.819442511E0,-9.947562218E0,-8.931210637E-1
3.666386316E0,-1.776371717E0,-9.961918831E0,-9.337990284E-1
3.668781160E0,-1.752443433E0,-9.976275444E0,-9.385846853E-1
3.671176837E0,-1.730908036E0,-9.983454704E0,-9.361918569E-1
3.673572462E0,-1.692622900E0,-9.995418549E0,-9.385846853E-1
3.675967306E0,-1.695015788E0,-1.000020409E1,-9.409775138E-1
3.678362150E0,-1.685444474E0,-1.003848934E1,-9.337990284E-1
3.680757827E0,-1.671087503E0,-1.003848934E1,-9.625129104E-1
3.683153452E0,-1.671087503E0,-1.002173901E1,-9.744769931E-1
3.685548295E0,-1.632802367E0,-1.002173901E1,-9.696913958E-1
3.687943139E0,-1.642373681E0,-1.003131104E1,-9.696913958E-1
3.690338816E0,-1.625623941E0,-1.003609657E1,-9.792626500E-1
3.692734441E0,-1.620838284E0,-1.004088211E1,-1.005583763E0
3.695129285E0,-1.604088426E0,-1.005284595E1,-1.043868899E0
3.697524129E0,-1.606481314E0,-1.006959629E1,-1.063011408E0
3.699919806E0,-1.565803289E0,-1.006959629E1,-1.067797065E0
3.702315431E0,-1.553839207E0,-1.006720352E1,-1.077368379E0
3.704710275E0,-1.561017632E0,-1.006241703E1,-1.063011408E0
3.707105118E0,-1.572981834E0,-1.010070229E1,-1.055832982E0
3.709500795E0,-1.565803289E0,-1.009352398E1,-1.063011408E0
3.711896420E0,-1.570588946E0,-1.006959629E1,-1.055832982E0
3.714291264E0,-1.563410521E0,-1.007677460E1,-1.043868899E0
3.716686108E0,-1.589731574E0,-1.005045319E1,-1.058225870E0
3.719081785E0,-1.604088426E0,-1.007198906E1,-1.065404296E0
3.721477410E0,-1.613659739E0,-1.007677460E1,-1.055832982E0
3.723872254E0,-1.654337764E0,-1.003609657E1,-1.039083242E0
3.726267098E0,-1.666301847E0,-1.001456070E1,-1.029511929E0
3.728662775E0,-1.673480392E0,-1.000020409E1,-1.007976532E0
3.731058400E0,-1.704586983E0,-9.961918831E0,-9.960124493E-1
3.733453243E0,-1.733300924E0,-9.969097137E0,-9.888339639E-1
3.735848087E0,-1.738086581E0,-9.959526062E0,-9.864411354E-1
3.738243764E0,-1.728515267E0,-9.964311600E0,-9.768698215E-1
3.740639389E0,-1.723729610E0,-9.928419113E0,-9.505487680E-1
3.743034233E0,-1.718943954E0,-9.918848038E0,-9.649057388E-1
3.745429077E0,-1.711765528E0,-9.906884193E0,-9.314061999E-1
3.747824754E0,-1.697408557E0,-9.914062500E0,-9.314061999E-1
3.750220379E0,-1.702194214E0,-9.921240807E0,-9.242277741E-1
3.752615170E0,-1.680658817E0,-9.916455269E0,-9.170492887E-1
3.755010066E0,-1.647159338E0,-9.923633575E0,-9.266205430E-1
3.757405743E0,-1.642373681E0,-9.942776680E0,-9.481559992E-1
3.759801368E0,-1.613659739E0,-9.937990189E0,-9.314061999E-1
3.762196160E0,-1.601695657E0,-9.940383911E0,-9.266205430E-1
3.764591056E0,-1.570588946E0,-9.921240807E0,-9.337990284E-1
3.766986733E0,-1.561017632E0,-9.906884193E0,-9.266205430E-1
3.769382358E0,-1.541875124E0,-9.909276962E0,-9.361918569E-1
3.771777150E0,-1.508375525E0,-9.890133858E0,-9.505487680E-1
3.774172045E0,-1.501197100E0,-9.861420631E0,-9.433703423E-1
3.776567723E0,-1.482054472E0,-9.854242325E0,-9.409775138E-1
3.778963348E0,-1.486840129E0,-9.830313683E0,-9.266205430E-1
3.781358139E0,-1.455733418E0,-9.830313683E0,-9.266205430E-1
3.783753035E0,-1.453340650E0,-9.820742607E0,-9.290133715E-1
3.786148660E0,-1.446162224E0,-9.786943436E0,-9.242277741E-1
3.788544285E0,-1.438983679E0,-9.758230209E0,-9.122636318E-1
3.790939129E0,-1.462911963E0,-9.734301567E0,-9.002995491E-1
3.793334025E0,-1.458126307E0,-9.722337723E0,-9.002995491E-1
3.795729650E0,-1.472483277E0,-9.674481392E0,-8.763712645E-1
3.798125275E0,-1.482054472E0,-9.662516594E0,-8.931210637E-1
3.800520118E0,-1.484447360E0,-9.643374443E0,-9.314061999E-1
3.802915014E0,-1.501197100E0,-9.626625061E0,-9.337990284E-1
3.805310639E0,-1.489233017E0,-9.631410599E0,-9.337990284E-1
3.807706264E0,-1.513161182E0,-9.581160545E0,-9.960124493E-1
3.810101108E0,-1.537089467E0,-9.571589470E0,-1.017547846E0
3.812496004E0,-1.582553029E0,-9.545269012E0,-1.010369420E0
3.814891629E0,-1.601695657E0,-9.526125908E0,-1.024726272E0
3.817287254E0,-1.618445396E0,-9.495018959E0,-1.024726272E0
3.819682098E0,-1.637588024E0,-9.528518677E0,-1.065404296E0
3.822076993E0,-1.661516190E0,-9.509376526E0,-1.106082320E0
3.824472618E0,-1.678265929E0,-9.509376526E0,-1.153938770E0
3.826868243E0,-1.714158297E0,-9.516554832E0,-1.168295622E0
3.829263087E0,-1.711765528E0,-9.490233421E0,-1.192223907E0
3.831657983E0,-1.738086581E0,-9.463912964E0,-1.216152072E0
3.834053608E0,-1.776371717E0,-9.454340935E0,-1.206580877E0
3.836449233E0,-1.809871197E0,-9.423234940E0,-1.197009563E0
3.838844077E0,-1.852941990E0,-9.435198784E0,-1.201795220E0
3.841238973E0,-1.886441588E0,-9.435198784E0,-1.185045362E0
3.843634598E0,-1.893620014E0,-9.428020477E0,-1.151545882E0
3.846030223E0,-1.917548299E0,-9.430413246E0,-1.113260746E0
3.848425066E0,-1.955833435E0,-9.425627708E0,-1.120439172E0
3.850819962E0,-1.951047778E0,-9.435198784E0,-1.094118118E0
3.853215587E0,-1.968096614E0,-9.444769859E0,-1.060618639E0
3.855611212E0,-1.965703845E0,-9.430413246E0,-1.055832982E0
3.858006056E0,-1.936690807E0,-9.418449402E0,-1.012762189E0
3.860400900E0,-1.936690807E0,-9.418449402E0,-9.625129104E-1
3.862796577E0,-1.891227245E0,-9.401699066E0,-9.361918569E-1
3.865192202E0,-1.876870275E0,-9.399306297E0,-9.050851464E-1
3.867587045E0,-1.843370795E0,-9.394520760E0,-8.763712645E-1
3.869981889E0,-1.819442511E0,-9.396913528E0,-8.210372925E-1
3.872377566E0,-1.790728688E0,-9.404091835E0,-7.636095285E-1
3.874773191E0,-1.776371717E0,-9.392127991E0,-7.468597889E-1
3.877168035E0,-1.762014747E0,-9.394520760E0,-7.181459069E-1
3.879562879E0,-1.742872238E0,-9.396913528E0,-7.013961077E-1
3.881958556E0,-1.730908036E0,-9.406484604E0,-6.774678826E-1
3.884354181E0,-1.730908036E0,-9.408877373E0,-6.631109715E-1
3.886749025E0,-1.711765528E0,-9.423234940E0,-6.559324861E-1
3.889143868E0,-1.690230131E0,-9.437591553E0,-6.942176819E-1
3.891539545E0,-1.697408557E0,-9.485447884E0,-7.229315639E-1
3.893935170E0,-1.704586983E0,-9.502198219E0,-7.588238716E-1
3.896330014E0,-1.666301847E0,-9.530911446E0,-7.899305820E-1
3.898724858E0,-1.699801445E0,-9.559625626E0,-8.428717852E-1
3.901120535E0,-1.685444474E0,-9.597910881E0,-9.074779749E-1
3.903516160E0,-1.690230131E0,-9.631410599E0,-9.672985673E-1
3.905911004E0,-1.687837243E0,-9.684052467E0,-1.041476011E0
3.908305848E0,-1.695015788E0,-9.734301567E0,-1.098903775E0
3.910701525E0,-1.692622900E0,-9.794121742E0,-1.156331539E0
3.913097150E0,-1.702194214E0,-9.823135376E0,-1.220937729E0
3.915491993E0,-1.692622900E0,-9.847063065E0,-1.264008522E0
3.917886837E0,-1.706979871E0,-9.875777245E0,-1.311864972E0
3.920282514E0,-1.711765528E0,-9.897313118E0,-1.359721422E0
3.922678139E0,-1.745265007E0,-9.890133858E0,-1.388435364E0
3.925072931E0,-1.776371717E0,-9.878170013E0,-1.400399446E0
3.927467827E0,-1.807478428E0,-9.887741089E0,-1.415055513E0
3.929863504E0,-1.850549221E0,-9.875777245E0,-1.441376567E0
3.932259129E0,-1.912762642E0,-9.863813400E0,-1.412662625E0
3.934653920E0,-1.951047778E0,-9.839884758E0,-1.381256819E0
3.937048816E0,-1.982453585E0,-9.806086540E0,-1.345364571E0
3.939444493E0,-2.037488461E0,-9.772586823E0,-1.273579836E0
3.941840118E0,-2.068595171E0,-9.739087105E0,-1.216152072E0
3.944234910E0,-2.090130568E0,-9.751050949E0,-1.125224829E0
3.946629806E0,-2.082952023E0,-9.763015747E0,-1.036690354E0
3.949025483E0,-2.080559254E0,-9.758230209E0,-9.433703423E-1
3.951421108E0,-2.082952023E0,-9.774979591E0,-8.596215248E-1
3.953815900E0,-2.099701881E0,-9.743872643E0,-8.090731502E-1
3.956210795E0,-2.080559254E0,-9.748658180E0,-7.564310431E-1
3.958606473E0,-2.097309113E0,-9.755837440E0,-7.133602500E-1
3.961002098E0,-2.106880426E0,-9.772586823E0,-6.894320250E-1
3.963396889E0,-2.109273195E0,-9.763015747E0,-6.726822853E-1
3.965791785E0,-2.109273195E0,-9.748658180E0,-6.559324861E-1
3.968187410E0,-2.099701881E0,-9.789336205E0,-6.559324861E-1
3.970583035E0,-2.075773716E0,-9.827920914E0,-6.655037999E-1
3.972977879E0,-2.047059774E0,-9.830313683E0,-7.085745931E-1
3.975372775E0,-2.042274237E0,-9.866206169E0,-7.372884750E-1
3.977768400E0,-2.027917147E0,-9.887741089E0,-7.779664397E-1
3.980164025E0,-1.994417667E0,-9.942776680E0,-7.899305820E-1
3.982558868E0,-1.975275040E0,-9.923633575E0,-8.258228898E-1
3.984953764E0,-1.948654890E0,-9.928419113E0,-8.644071817E-1
3.987349389E0,-1.917548299E0,-9.959526062E0,-8.883354068E-1
3.989745014E0,-1.936690807E0,-9.995418549E0,-9.122636318E-1
3.992139858E0,-1.946262121E0,-9.993025780E0,-9.290133715E-1
3.994534754E0,-1.968096614E0,-1.000498962E1,-9.672985673E-1
3.996930379E0,-1.943869352E0,-1.002891827E1,-9.888339639E-1
3.999326004E0,-1.903191328E0,-1.002173901E1,-1.019940615E0
4.001720848E0,-1.876870275E0,-1.006480980E1,-1.036690354E0
4.004115743E0,-1.829013824E0,-1.007438183E1,-1.027119160E0
4.006511368E0,-1.776371717E0,-1.009591675E1,-1.007976532E0
4.008906993E0,-1.699801445E0,-1.013420200E1,-9.864411354E-1
4.011301837E0,-1.673480392E0,-1.017009449E1,-9.840483069E-1
4.013696733E0,-1.673480392E0,-1.020120144E1,-1.007976532E0
4.016092358E0,-1.635195136E0,-1.027059269E1,-1.024726272E0
4.018487983E0,-1.608874083E0,-1.032562828E1,-1.070189953E0
4.020882827E0,-1.601695657E0,-1.038066292E1,-1.082154036E0
4.023277670E0,-1.589731574E0,-1.045035362E1,-1.096511006E0
4.025673348E0,-1.592124343E0,-1.050299549E1,-1.118046403E0
4.028068973E0,-1.601695657E0,-1.055563831E1,-1.084546804E0
4.030463816E0,-1.592124343E0,-1.059153080E1,-1.065404296E0
4.032858660E0,-1.563410521E0,-1.058435154E1,-1.053440213E0
4.035254337E0,-1.558624864E0,-1.058195877E1,-1.055832982E0
4.037649962E0,-1.527518153E0,-1.059153080E1,-1.036690354E0
4.040044806E0,-1.482054472E0,-1.058674431E1,-9.936196208E-1
4.042439650E0,-1.415055513E0,-1.057717323E1,-9.074779749E-1
4.044835327E0,-1.371685624E0,-1.056760216E1,-8.787640929E-1
4.047230952E0,-1.359721422E0,-1.056281662E1,-8.596215248E-1
4.049625795E0,-1.335793257E0,-1.057717323E1,-8.596215248E-1
4.052020639E0,-1.333400369E0,-1.060588741E1,-9.074779749E-1
4.054416316E0,-1.376471281E0,-1.059631634E1,-9.266205430E-1
4.056811941E0,-1.429412484E0,-1.061067295E1,-9.768698215E-1
4.059206785E0,-1.460519075E0,-1.055085278E1,-1.055832982E0
4.061601629E0,-1.470090389E0,-1.041685390E1,-1.165902853E0
4.063997306E0,-1.388435364E0,-1.022034359E1,-1.216152072E0
4.066392931E0,-1.220937729E0,-1.010070229E1,-1.256830096E0
4.068787775E0,-1.091725349E0,-1.005284595E1,-1.369292736E0
4.071182618E0,-1.110867858E0,-9.995418549E0,-1.405484200E0
4.073578295E0,-1.153938770E0,-9.921240807E0,-1.331007600E0
4.075973920E0,-1.242473125E0,-9.878170013E0,-1.156331539E0
4.078368764E0,-1.352542996E0,-9.813264847E0,-1.055832982E0
4.080763608E0,-1.460519075E0,-9.710372925E0,-1.017547846E0
4.083159285E0,-1.474876046E0,-9.640981674E0,-1.089332461E0
4.085554910E0,-1.515554070E0,-9.590732574E0,-1.168295622E0
4.087949754E0,-1.678265929E0,-9.581160545E0,-1.146760225E0
4.090344598E0,-1.919941068E0,-9.521340370E0,-1.118046403E0
4.092740275E0,-2.114058733E0,-9.483055115E0,-1.113260746E0
4.095135900E0,-2.116451740E0,-9.485447884E0,-1.244866014E0
4.097530691E0,-2.047059774E0,-9.506983757E0,-1.434198022E0
4.099925587E0,-2.018345833E0,-9.590732574E0,-1.539482236E0
4.102321264E0,-2.059023857E0,-9.638588905E0,-1.522732496E0
4.104716889E0,-2.080559254E0,-9.655338287E0,-1.427019596E0
4.107111733E0,-2.106880426E0,-9.734301567E0,-1.259222865E0
4.109506577E0,-2.152343988E0,-9.779765129E0,-1.144367456E0
4.111902254E0,-2.147558212E0,-9.801301003E0,-1.089332461E0
4.114297879E0,-2.212164640E0,-9.808479309E0,-1.060618639E0
4.116692670E0,-2.200200319E0,-9.806086540E0,-1.017547846E0
4.119087566E0,-2.094916344E0,-9.842277527E0,-9.888339639E-1
4.121483243E0,-2.030309916E0,-9.825528145E0,-9.696913958E-1
4.123878868E0,-2.003988981E0,-9.798908234E0,-9.672985673E-1
4.126273660E0,-2.039881229E0,-9.791728973E0,-9.720842242E-1
4.128668556E0,-2.066202402E0,-9.767801285E0,-9.337990284E-1
4.131064233E0,-2.082952023E0,-9.758230209E0,-8.715856671E-1
4.133459858E0,-2.128415823E0,-9.746265411E0,-7.899305820E-1
4.135854650E0,-2.142772675E0,-9.753444672E0,-7.540382147E-1
4.138249545E0,-2.193022013E0,-9.729516029E0,-7.468597889E-1
4.140645170E0,-2.190629244E0,-9.710372925E0,-7.468597889E-1
4.143040795E0,-2.169093609E0,-9.681659698E0,-7.803592682E-1
4.145435639E0,-2.128415823E0,-9.655338287E0,-8.282157183E-1
4.147830535E0,-2.059023857E0,-9.652945518E0,-8.715856671E-1
4.150226160E0,-2.047059774E0,-9.631410599E0,-8.763712645E-1
4.152621785E0,-2.030309916E0,-9.640981674E0,-8.883354068E-1
4.155016629E0,-2.027917147E0,-9.621838570E0,-8.979067206E-1
4.157411525E0,-2.008774519E0,-9.607481956E0,-8.979067206E-1
4.159807150E0,-2.035095692E0,-9.614660263E0,-9.146564603E-1
4.162202775E0,-2.056631088E0,-9.597910881E0,-9.481559992E-1
4.164597618E0,-2.082952023E0,-9.559625626E0,-9.529415965E-1
4.166992514E0,-2.111665964E0,-9.550054550E0,-9.601200819E-1
4.169388139E0,-2.135594130E0,-9.535696983E0,-9.481559992E-1
4.171783764E0,-2.166700840E0,-9.473484039E0,-9.601200819E-1
4.174178608E0,-2.195414782E0,-9.454340935E0,-9.672985673E-1
4.176573504E0,-2.233700037E0,-9.461520195E0,-9.577272534E-1
4.178969129E0,-2.338984251E0,-9.411270142E0,-9.625129104E-1
4.181364754E0,-2.410768747E0,-9.353842735E0,-8.811569214E-1
4.183759598E0,-2.329412937E0,-9.420842171E0,-9.433703423E-1
4.186154493E0,-2.240878344E0,-9.483055115E0,-1.041476011E0
4.188550118E0,-2.228914261E0,-9.478269577E0,-1.041476011E0
4.190945743E0,-2.283949137E0,-9.439984322E0,-9.864411354E-1
4.193340587E0,-2.377269268E0,-9.399306297E0,-9.481559992E-1
4.195735431E0,-2.386840582E0,-9.392127991E0,-9.577272534E-1
4.198131108E0,-2.379662037E0,-9.351449966E0,-9.792626500E-1
4.200526733E0,-2.233700037E0,-9.284450531E0,-9.672985673E-1
4.202921577E0,-2.248056889E0,-9.277272224E0,-9.912267923E-1
4.205316420E0,-2.262413740E0,-9.305986404E0,-1.005583763E0
4.207712098E0,-2.283949137E0,-9.370592117E0,-9.912267923E-1
4.210107723E0,-2.303091764E0,-9.413662910E0,-9.768698215E-1
4.212502566E0,-2.298306227E0,-9.468698502E0,-9.720842242E-1
4.214897410E0,-2.238485575E0,-9.509376526E0,-9.577272534E-1
4.217293087E0,-2.147558212E0,-9.557232857E0,-9.457631707E-1
4.219688712E0,-2.075773716E0,-9.559625626E0,-9.505487680E-1
4.222083556E0,-2.035095692E0,-9.559625626E0,-9.050851464E-1
4.224478400E0,-2.008774519E0,-9.605089188E0,-9.146564603E-1
4.226874077E0,-1.968096614E0,-9.590732574E0,-8.931210637E-1
4.229269702E0,-1.929512382E0,-9.578767776E0,-9.146564603E-1
4.231664545E0,-1.936690807E0,-9.571589470E0,-9.098708034E-1
4.234059389E0,-1.936690807E0,-9.595518112E0,-8.955138922E-1
4.236455066E0,-1.919941068E0,-9.617053032E0,-8.883354068E-1
4.238850691E0,-1.927119493E0,-9.629017830E0,-9.314061999E-1
4.241245535E0,-1.927119493E0,-9.633803368E0,-9.337990284E-1
4.243640379E0,-1.919941068E0,-9.674481392E0,-9.529415965E-1
4.246036056E0,-1.886441588E0,-9.693623543E0,-9.529415965E-1
4.248431681E0,-1.850549221E0,-9.707980156E0,-9.720842242E-1
4.250826525E0,-1.840977907E0,-9.746265411E0,-1.000798106E0
4.253221368E0,-1.809871197E0,-9.772586823E0,-1.024726272E0
4.255617045E0,-1.785943031E0,-9.791728973E0,-1.027119160E0
4.258012670E0,-1.745265007E0,-9.753444672E0,-9.960124493E-1
4.260407514E0,-1.618445396E0,-9.588339806E0,-9.481559992E-1
4.262802358E0,-1.613659739E0,-9.633803368E0,-9.984052777E-1
4.265198035E0,-1.728515267E0,-9.719944954E0,-1.048654556E0
4.267593660E0,-1.793121457E0,-9.825528145E0,-1.120439172E0
4.269988504E0,-1.845763564E0,-9.892526627E0,-1.192223907E0
4.272383348E0,-1.857727647E0,-9.942776680E0,-1.175474167E0
4.274779025E0,-1.790728688E0,-9.983454704E0,-1.192223907E0
4.277174650E0,-1.754836321E0,-1.000020409E1,-1.187438250E0
4.279569441E0,-1.680658817E0,-1.000738239E1,-1.187438250E0
4.281964337E0,-1.625623941E0,-1.000259686E1,-1.127617717E0
4.284360014E0,-1.587338686E0,-1.000977516E1,-1.070189953E0
4.286755639E0,-1.551446438E0,-9.973882675E0,-1.005583763E0
4.289150431E0,-1.537089467E0,-9.945169449E0,-9.433703423E-1
4.291545327E0,-1.522732496E0,-9.892526627E0,-9.002995491E-1
4.293941004E0,-1.520339727E0,-9.866206169E0,-8.739784956E-1
4.296336629E0,-1.496411443E0,-9.813264847E0,-8.715856671E-1
4.298731420E0,-1.491625786E0,-9.767801285E0,-8.859425783E-1
4.301126316E0,-1.494018674E0,-9.731908798E0,-9.002995491E-1
4.303521941E0,-1.467697620E0,-9.731908798E0,-9.290133715E-1
4.305917566E0,-1.458126307E0,-9.707980156E0,-9.361918569E-1
4.308312410E0,-1.462911963E0,-9.698409081E0,-9.433703423E-1
4.310707306E0,-1.582553029E0,-9.490233421E0,-1.034297585E0
4.313102931E0,-1.436590910E0,-9.597910881E0,-9.768698215E-1
4.315498556E0,-1.415055513E0,-9.629017830E0,-1.041476011E0
4.317893400E0,-1.311864972E0,-9.652945518E0,-1.000798106E0
4.320288295E0,-1.287936807E0,-9.585947037E0,-1.041476011E0
4.322683920E0,-1.378864050E0,-9.483055115E0,-1.086939692E0
4.325079545E0,-1.453340650E0,-9.480662346E0,-1.137188911E0
4.327474389E0,-1.470090389E0,-9.578767776E0,-1.201795220E0
4.329869285E0,-1.462911963E0,-9.636196136E0,-1.242473125E0
4.332264910E0,-1.419841170E0,-9.693623543E0,-1.275972724E0
4.334660535E0,-1.388435364E0,-9.739087105E0,-1.273579836E0
4.337055379E0,-1.357328653E0,-9.719944954E0,-1.242473125E0
4.339450275E0,-1.364507079E0,-9.703194618E0,-1.249651670E0
4.341845900E0,-1.393221021E0,-9.731908798E0,-1.264008522E0
4.344241525E0,-1.436590910E0,-9.729516029E0,-1.290329576E0
4.346636368E0,-1.494018674E0,-9.717552185E0,-1.321436286E0
4.349031264E0,-1.527518153E0,-9.686445236E0,-1.338186026E0
4.351426889E0,-1.513161182E0,-9.686445236E0,-1.378864050E0
4.353822514E0,-1.539482236E0,-9.693623543E0,-1.417448282E0
4.356217358E0,-1.592124343E0,-9.684052467E0,-1.395613790E0
4.358612202E0,-1.654337764E0,-9.667302132E0,-1.374078393E0
4.361007879E0,-1.678265929E0,-9.667302132E0,-1.328614831E0
4.363403504E0,-1.714158297E0,-9.672088623E0,-1.302293777E0
4.365798348E0,-1.738086581E0,-9.650552750E0,-1.292722464E0
4.368193191E0,-1.773978829E0,-9.655338287E0,-1.292722464E0
4.370588868E0,-1.778764486E0,-9.631410599E0,-1.266401410E0
4.372984493E0,-1.778764486E0,-9.607481956E0,-1.242473125E0
4.375379337E0,-1.773978829E0,-9.607481956E0,-1.220937729E0
4.377774181E0,-1.797907114E0,-9.576375008E0,-1.161117196E0
4.380169858E0,-1.831406593E0,-9.590732574E0,-1.132403374E0
4.382565483E0,-1.840977907E0,-9.585947037E0,-1.132403374E0
4.384960327E0,-1.872084618E0,-9.590732574E0,-1.115653515E0
4.387355170E0,-1.915155411E0,-9.571589470E0,-1.132403374E0
4.389750848E0,-1.919941068E0,-9.562018394E0,-1.103689432E0
4.392146473E0,-1.917548299E0,-9.545269012E0,-1.082154036E0
4.394541316E0,-1.915155411E0,-9.552447319E0,-1.067797065E0
4.396936160E0,-1.915155411E0,-9.530911446E0,-1.051047325E0
4.399331837E0,-1.922333837E0,-9.495018959E0,-9.696913958E-1
4.401727462E0,-1.924726725E0,-9.514162064E0,-9.481559992E-1
4.404122306E0,-1.963011861E0,-9.504590988E0,-9.194421172E-1
4.406517150E0,-2.042274237E0,-9.499805450E0,-8.596215248E-1
4.408912827E0,-2.106880426E0,-9.487840652E0,-8.620143533E-1
4.411308452E0,-2.123630047E0,-9.463912964E0,-8.763712645E-1
4.413703295E0,-2.082952023E0,-9.449555397E0,-8.090731502E-1
4.416098139E0,-2.173879385E0,-9.468698502E0,-8.401798606E-1
4.418493816E0,-2.204986095E0,-9.480662346E0,-8.548358679E-1
4.420889441E0,-2.176272154E0,-9.523733139E0,-8.620143533E-1
4.423284285E0,-2.159522533E0,-9.559625626E0,-8.452646136E-1
4.425679129E0,-2.111665964E0,-9.597910881E0,-8.282157183E-1
4.428074806E0,-2.070987940E0,-9.650552750E0,-8.258228898E-1
4.430470431E0,-1.972882271E0,-9.645767212E0,-8.018946648E-1
4.432865223E0,-1.919941068E0,-9.609874725E0,-7.133602500E-1
4.435260118E0,-1.989632010E0,-9.518947601E0,-7.037889361E-1
4.437655795E0,-1.989632010E0,-9.554840088E0,-7.348956466E-1
4.440051420E0,-2.023131609E0,-9.638588905E0,-8.186444640E-1
4.442446212E0,-2.039881229E0,-9.748658180E0,-8.859425783E-1
4.444841108E0,-2.008774519E0,-9.842277527E0,-8.763712645E-1
4.447236785E0,-1.980060697E0,-9.945169449E0,-8.739784956E-1
4.449632410E0,-1.955833435E0,-1.000738239E1,-8.548358679E-1
4.452027202E0,-1.960619092E0,-1.006720352E1,-8.258228898E-1
4.454422098E0,-1.900798440E0,-1.011266708E1,-8.282157183E-1
4.456817775E0,-1.843370795E0,-1.017009449E1,-8.090731502E-1
4.459213400E0,-1.790728688E0,-1.019162941E1,-7.899305820E-1
4.461608191E0,-1.757229090E0,-1.019162941E1,-8.306085467E-1
4.464003087E0,-1.714158297E0,-1.016291618E1,-8.258228898E-1
4.466398712E0,-1.687837243E0,-1.010548782E1,-8.524430394E-1
4.468794337E0,-1.678265929E0,-1.004566765E1,-8.883354068E-1
4.471189181E0,-1.695015788E0,-1.000738239E1,-9.337990284E-1
4.473584077E0,-1.754836321E0,-9.954740524E0,-1.000798106E0
4.475979702E0,-1.790728688E0,-9.914062500E0,-1.072582722E0
4.478375327E0,-1.840977907E0,-9.861420631E0,-1.115653515E0
4.480770170E0,-1.848156333E0,-9.818050385E0,-1.170688510E0
4.483165066E0,-1.843370795E0,-9.791728973E0,-1.204187989E0
4.485560691E0,-1.852941990E0,-9.736694336E0,-1.206580877E0
4.487956316E0,-1.881655931E0,-9.722337723E0,-1.225723386E0
4.490351160E0,-1.903191328E0,-9.698409081E0,-1.223330617E0
4.492746056E0,-1.931905150E0,-9.698409081E0,-1.223330617E0
4.495141681E0,-1.931905150E0,-9.664909363E0,-1.211366415E0
4.497537306E0,-1.934298038E0,-9.626625061E0,-1.197009563E0
4.499932150E0,-1.929512382E0,-9.617053032E0,-1.180259824E0
4.502326993E0,-1.912762642E0,-9.600303650E0,-1.185045362E0
4.504722670E0,-1.922333837E0,-9.585947037E0,-1.141974568E0
4.507118295E0,-1.886441588E0,-9.617053032E0,-1.113260746E0
4.509513139E0,-1.829013824E0,-9.588339806E0,-1.098903775E0
4.511907983E0,-1.809871197E0,-9.578767776E0,-1.098903775E0
4.514303660E0,-1.778764486E0,-9.585947037E0,-1.074975610E0
4.516699285E0,-1.776371717E0,-9.573982239E0,-1.096511006E0
4.519094129E0,-1.766800404E0,-9.569196701E0,-1.055832982E0
4.521488973E0,-1.733300924E0,-9.545269012E0,-1.022333503E0
4.523884650E0,-1.692622900E0,-9.533304214E0,-1.017547846E0
4.526280275E0,-1.673480392E0,-9.518947601E0,-1.046261668E0
4.528675118E0,-1.651944876E0,-9.509376526E0,-1.058225870E0
4.531069962E0,-1.623231053E0,-9.511769295E0,-1.053440213E0
4.533465639E0,-1.632802367E0,-9.504590988E0,-1.048654556E0
4.535861264E0,-1.596910000E0,-9.511769295E0,-1.027119160E0
4.538256108E0,-1.556231976E0,-9.528518677E0,-1.043868899E0
4.540650952E0,-1.549053550E0,-9.516554832E0,-1.048654556E0
4.543046629E0,-1.549053550E0,-9.528518677E0,-1.029511929E0
4.545442254E0,-1.553839207E0,-9.542876244E0,-1.072582722E0
4.547837098E0,-1.587338686E0,-9.562018394E0,-1.082154036E0
4.550231941E0,-1.599302888E0,-9.595518112E0,-1.101296663E0
4.552627618E0,-1.601695657E0,-9.624231339E0,-1.106082320E0
4.555023243E0,-1.592124343E0,-9.629017830E0,-1.149153113E0
4.557418087E0,-1.611266971E0,-9.643374443E0,-1.177866936E0
4.559812931E0,-1.642373681E0,-9.664909363E0,-1.197009563E0
4.562208608E0,-1.680658817E0,-9.672088623E0,-1.228116274E0
4.564604233E0,-1.733300924E0,-9.717552185E0,-1.278365493E0
4.566999077E0,-1.728515267E0,-9.727123260E0,-1.275972724E0
4.569393920E0,-1.757229090E0,-9.727123260E0,-1.292722464E0
4.571789598E0,-1.752443433E0,-9.729516029E0,-1.297508121E0
4.574185223E0,-1.764407635E0,-9.729516029E0,-1.290329576E0
4.576580014E0,-1.800299883E0,-9.760622978E0,-1.280758262E0
4.578974910E0,-1.838585138E0,-9.767801285E0,-1.268794179E0
4.581370587E0,-1.857727647E0,-9.753444672E0,-1.235294700E0
4.583766212E0,-1.881655931E0,-9.772586823E0,-1.208973646E0
4.586161004E0,-1.893620014E0,-9.746265411E0,-1.199402332E0
4.588555900E0,-1.910369754E0,-9.727123260E0,-1.206580877E0
4.590951577E0,-1.907976985E0,-9.707980156E0,-1.194616675E0
4.593347202E0,-1.915155411E0,-9.686445236E0,-1.163509965E0
4.595741993E0,-1.912762642E0,-9.667302132E0,-1.125224829E0
4.598136889E0,-1.915155411E0,-9.686445236E0,-1.098903775E0
4.600532566E0,-1.948654890E0,-9.676874161E0,-1.086939692E0
4.602928191E0,-1.994417667E0,-9.681659698E0,-1.084546804E0
4.605322983E0,-2.032702923E0,-9.662516594E0,-1.084546804E0
4.607717879E0,-2.032702923E0,-9.669695854E0,-1.063011408E0
4.610113504E0,-2.037488461E0,-9.655338287E0,-1.022333503E0
4.612509129E0,-2.042274237E0,-9.700801849E0,-1.012762189E0
4.614903973E0,-2.051845312E0,-9.672088623E0,-9.696913958E-1
4.617298868E0,-2.054238319E0,-9.691230774E0,-9.290133715E-1
4.619694493E0,-2.061416626E0,-9.700801849E0,-9.290133715E-1
4.622090118E0,-2.066202402E0,-9.734301567E0,-9.170492887E-1
4.624484962E0,-2.039881229E0,-9.765408516E0,-9.074779749E-1
4.626879858E0,-2.035095692E0,-9.772586823E0,-9.026923180E-1
4.629275483E0,-2.027917147E0,-9.791728973E0,-9.050851464E-1
4.631671108E0,-2.018345833E0,-9.798908234E0,-9.314061999E-1
4.634065952E0,-1.996810555E0,-9.801301003E0,-9.218349457E-1
4.636460848E0,-1.965703845E0,-9.806086540E0,-9.361918569E-1
4.638856473E0,-1.936690807E0,-9.786943436E0,-9.026923180E-1
4.641252098E0,-1.929512382E0,-9.806086540E0,-9.026923180E-1
4.643646941E0,-1.898405671E0,-9.791728973E0,-9.050851464E-1
4.646041785E0,-1.874477386E0,-9.777372360E0,-8.931210637E-1
4.648437462E0,-1.876870275E0,-9.753444672E0,-9.074779749E-1
4.650833087E0,-1.850549221E0,-9.729516029E0,-9.242277741E-1
4.653227931E0,-1.826620936E0,-9.734301567E0,-8.979067206E-1
4.655622775E0,-1.788335800E0,-9.719944954E0,-9.361918569E-1
4.658018452E0,-1.759621978E0,-9.691230774E0,-9.146564603E-1
4.660414077E0,-1.750050664E0,-9.662516594E0,-9.266205430E-1
4.662808920E0,-1.733300924E0,-9.674481392E0,-9.361918569E-1
4.665203764E0,-1.692622900E0,-9.669695854E0,-9.649057388E-1
4.667599441E0,-1.683051586E0,-9.655338287E0,-1.003190875E0
4.669995066E0,-1.714158297E0,-9.657731056E0,-1.015154958E0
4.672389910E0,-1.726122379E0,-9.660123825E0,-1.041476011E0
4.674784754E0,-1.745265007E0,-9.648159981E0,-1.051047325E0
4.677180431E0,-1.754836321E0,-9.640981674E0,-1.031904817E0
4.679576056E0,-1.757229090E0,-9.643374443E0,-1.046261668E0
4.681970900E0,-1.769193292E0,-9.612267494E0,-1.079761267E0
4.684365743E0,-1.764407635E0,-9.571589470E0,-1.098903775E0
4.686761420E0,-1.769193292E0,-9.588339806E0,-1.103689432E0
4.689157045E0,-1.809871197E0,-9.583553314E0,-1.127617717E0
4.691551889E0,-1.797907114E0,-9.590732574E0,-1.182652593E0
4.693946733E0,-1.805085540E0,-9.593125343E0,-1.206580877E0
4.696342410E0,-1.793121457E0,-9.588339806E0,-1.254437327E0
4.698738035E0,-1.812264085E0,-9.571589470E0,-1.283151150E0
4.701132879E0,-1.809871197E0,-9.573982239E0,-1.280758262E0
4.703527723E0,-1.793121457E0,-9.612267494E0,-1.287936807E0
4.705923400E0,-1.783550143E0,-9.643374443E0,-1.323829174E0
4.708319025E0,-1.802692771E0,-9.672088623E0,-1.350150228E0
4.710713868E0,-1.797907114E0,-9.657731056E0,-1.371685624E0
4.713108712E0,-1.807478428E0,-9.662516594E0,-1.383649707E0
4.715504389E0,-1.845763564E0,-9.621838570E0,-1.328614831E0
4.717900014E0,-1.805085540E0,-9.518947601E0,-1.146760225E0
4.720294806E0,-1.740479350E0,-9.523733139E0,-1.163509965E0
4.722689702E0,-1.735693693E0,-9.590732574E0,-1.189831018E0
4.725085379E0,-1.769193292E0,-9.662516594E0,-1.206580877E0
4.727481004E0,-1.826620936E0,-9.707980156E0,-1.218544960E0
4.729875795E0,-1.864906192E0,-9.734301567E0,-1.156331539E0
4.732270691E0,-1.876870275E0,-9.772586823E0,-1.082154036E0
4.734666368E0,-1.845763564E0,-9.794121742E0,-1.003190875E0
4.737061993E0,-1.845763564E0,-9.837491989E0,-9.481559992E-1
4.739456785E0,-1.869691849E0,-9.825528145E0,-9.170492887E-1
4.741851681E0,-1.881655931E0,-9.818050385E0,-9.601200819E-1
4.744247358E0,-1.891227245E0,-9.803693771E0,-9.433703423E-1
4.746642983E0,-1.912762642E0,-9.810872078E0,-9.266205430E-1
4.749037775E0,-1.917548299E0,-9.808479309E0,-9.098708034E-1
4.751432670E0,-1.953440547E0,-9.815657616E0,-9.074779749E-1
4.753828295E0,-1.963011861E0,-9.823135376E0,-8.859425783E-1
4.756223920E0,-1.984846354E0,-9.818050385E0,-9.242277741E-1
4.758618764E0,-1.987239242E0,-9.791728973E0,-9.218349457E-1
4.761013660E0,-2.003988981E0,-9.760622978E0,-9.218349457E-1
4.763409285E0,-1.996810555E0,-9.739087105E0,-9.074779749E-1
4.765804910E0,-1.953440547E0,-9.746265411E0,-8.787640929E-1
4.768199754E0,-1.929512382E0,-9.751050949E0,-8.787640929E-1
4.770594650E0,-1.910369754E0,-9.751050949E0,-8.691928387E-1
4.772990275E0,-1.876870275E0,-9.755837440E0,-8.691928387E-1
4.775385900E0,-1.862513304E0,-9.755837440E0,-9.242277741E-1
4.777780743E0,-1.852941990E0,-9.765408516E0,-9.457631707E-1
4.780175639E0,-1.745265007E0,-9.693623543E0,-1.010369420E0
4.782571264E0,-1.400399446E0,-9.545269012E0,-1.015154958E0
4.784966889E0,-1.525125384E0,-9.516554832E0,-9.290133715E-1
4.787361733E0,-1.697408557E0,-9.439984322E0,-1.158724308E0
4.789756577E0,-1.936690807E0,-9.157332420E0,-1.208973646E0
4.792152254E0,-1.893620014E0,-9.142974854E0,-1.141974568E0
4.794547879E0,-1.941476464E0,-9.174081802E0,-1.175474167E0
4.796942723E0,-1.934298038E0,-9.291629791E0,-1.163509965E0
4.799337566E0,-1.903191328E0,-9.401699066E0,-1.247258782E0
4.801733243E0,-1.898405671E0,-9.449555397E0,-1.297508121E0
4.804128868E0,-1.917548299E0,-9.483055115E0,-1.338186026E0
4.806523712E0,-1.867298961E0,-9.540482521E0,-1.376471281E0
4.808918556E0,-1.831406593E0,-9.617053032E0,-1.415055513E0
4.811314233E0,-1.826620936E0,-9.667302132E0,-1.415055513E0
4.813709858E0,-1.867298961E0,-9.707980156E0,-1.383649707E0
4.816104702E0,-1.898405671E0,-9.731908798E0,-1.354935765E0
4.818499545E0,-1.929512382E0,-9.746265411E0,-1.381256819E0
4.820895223E0,-1.915155411E0,-9.763015747E0,-1.390828133E0
4.823290848E0,-1.915155411E0,-9.751050949E0,-1.386042476E0
4.825685691E0,-1.886441588E0,-9.774979591E0,-1.412662625E0
4.828080535E0,-1.886441588E0,-9.801301003E0,-1.398006678E0
4.830476212E0,-1.910369754E0,-9.815657616E0,-1.366899967E0
4.832871837E0,-1.975275040E0,-9.839884758E0,-1.321436286E0
4.835266681E0,-2.003988981E0,-9.847063065E0,-1.290329576E0
4.837661525E0,-1.996810555E0,-9.849455833E0,-1.240080357E0
4.840057202E0,-1.924726725E0,-9.854242325E0,-1.247258782E0
4.842452827E0,-1.879263043E0,-9.875777245E0,-1.194616675E0
4.844847670E0,-1.860120535E0,-9.875777245E0,-1.156331539E0
4.847242514E0,-1.831406593E0,-9.894919395E0,-1.125224829E0
4.849638191E0,-1.831406593E0,-9.880562782E0,-1.098903775E0
4.852033816E0,-1.843370795E0,-9.866206169E0,-1.065404296E0
4.854428660E0,-1.850549221E0,-9.887741089E0,-1.005583763E0
4.856823504E0,-1.850549221E0,-9.894919395E0,-9.840483069E-1
4.859219181E0,-1.831406593E0,-9.923633575E0,-9.385846853E-1
4.861614806E0,-1.807478428E0,-9.911669731E0,-9.146564603E-1
