"Time (s)","Gyroscope x (rad/s)","Gyroscope y (rad/s)","Gyroscope z (rad/s)"
5.061340000E-3,2.221076339E-1,1.885518134E-1,7.403588295E-2
7.044983000E-3,2.221076339E-1,1.885518134E-1,7.403588295E-2
9.028625000E-3,2.221076339E-1,1.885518134E-1,7.403588295E-2
1.104278500E-2,2.221076339E-1,1.885518134E-1,7.403588295E-2
1.305694600E-2,2.221076339E-1,1.885518134E-1,7.403588295E-2
1.501007100E-2,2.221076339E-1,1.885518134E-1,7.403588295E-2
1.699371300E-2,2.221076339E-1,1.885518134E-1,7.403588295E-2
1.900787300E-2,2.221076339E-1,1.885518134E-1,7.403588295E-2
2.105255100E-2,2.221076339E-1,1.885518134E-1,7.403588295E-2
2.303619400E-2,2.221076339E-1,1.885518134E-1,7.403588295E-2
2.501983600E-2,2.221076339E-1,1.885518134E-1,7.403588295E-2
2.700347900E-2,2.221076339E-1,1.885518134E-1,7.403588295E-2
2.898712100E-2,2.221076339E-1,1.885518134E-1,7.403588295E-2
3.100128100E-2,2.221076339E-1,1.885518134E-1,7.403588295E-2
3.301544200E-2,2.221076339E-1,1.885518134E-1,7.403588295E-2
3.496856700E-2,2.221076339E-1,1.885518134E-1,7.403588295E-2
3.695220900E-2,-9.427590668E-2,2.013349831E-1,-7.297061384E-2
3.896636900E-2,-8.948221803E-2,2.087918371E-1,-7.510114461E-2
4.098053000E-2,-8.042746782E-2,2.093244642E-1,-8.948221803E-2
4.299469000E-2,-7.403588295E-2,2.077265680E-1,-8.628641814E-2
4.494781500E-2,-6.444849819E-2,2.071939409E-1,-9.747169912E-2
4.696197500E-2,-5.539375171E-2,2.050634027E-1,-1.070590764E-1
4.894561700E-2,-4.740426689E-2,2.034655064E-1,-1.118527651E-1
5.092926000E-2,-3.568635881E-2,1.986718178E-1,-1.155811921E-1
5.294342000E-2,-2.929477207E-2,1.954760253E-1,-1.209075153E-1
5.495758000E-2,-1.757686399E-2,1.922802329E-1,-1.219727769E-1
5.697174000E-2,-1.065264456E-2,1.880191714E-1,-1.257012039E-1
5.892486500E-2,-5.326322280E-3,1.837581247E-1,-1.267664731E-1
6.090850800E-2,0.000000000E0,1.805623323E-1,-1.283643693E-1
6.292266800E-2,8.522115648E-3,1.794970632E-1,-1.304948926E-1
6.490631100E-2,1.438106969E-2,1.752360016E-1,-1.310275346E-1
6.692047100E-2,2.130528912E-2,1.725728363E-1,-1.278317273E-1
6.890411400E-2,2.609897964E-2,1.672465205E-1,-1.304948926E-1
7.088775600E-2,3.249056637E-2,1.619201899E-1,-1.288969964E-1
7.287139900E-2,3.728425503E-2,1.581917703E-1,-1.299622655E-1
7.488555900E-2,4.154531285E-2,1.539307088E-1,-1.283643693E-1
7.686920100E-2,4.367584363E-2,1.491370201E-1,-1.278317273E-1
7.885284400E-2,4.953479767E-2,1.448759735E-1,-1.272991002E-1
8.083648700E-2,5.060006306E-2,1.432780623E-1,-1.304948926E-1
8.282012900E-2,5.645901710E-2,1.400822699E-1,-1.320927888E-1
8.480377200E-2,5.858954415E-2,1.358212233E-1,-1.304948926E-1
8.681793200E-2,5.912217870E-2,1.331580579E-1,-1.294296384E-1
8.883209200E-2,6.444849819E-2,1.336906850E-1,-1.320927888E-1
9.081573500E-2,6.657902896E-2,1.310275346E-1,-1.320927888E-1
9.279937700E-2,6.604639441E-2,1.342233270E-1,-1.352885813E-1
9.481353700E-2,6.498113275E-2,1.331580579E-1,-1.384843737E-1
9.682769700E-2,6.604639441E-2,1.326254308E-1,-1.379517466E-1
9.881134000E-2,6.604639441E-2,1.342233270E-1,-1.411475390E-1
1.007949830E-1,6.018744037E-2,1.326254308E-1,-1.406149119E-1
1.028396600E-1,5.858954415E-2,1.363538504E-1,-1.438107044E-1
1.047622680E-1,5.486112088E-2,1.363538504E-1,-1.438107044E-1
1.067764280E-1,5.060006306E-2,1.406149119E-1,-1.416801661E-1
1.087905880E-1,4.261057824E-2,1.416801661E-1,-1.448759735E-1
1.107437130E-1,3.568635881E-2,1.443433315E-1,-1.454086006E-1
1.127273560E-1,3.089267015E-2,1.491370201E-1,-1.475391239E-1
1.147415160E-1,2.343581803E-2,1.518001854E-1,-1.464738697E-1
1.167556760E-1,1.864212751E-2,1.565938741E-1,-1.502022892E-1
1.187088010E-1,8.522115648E-3,1.624528319E-1,-1.475391239E-1
1.206924440E-1,-5.326322280E-4,1.672465205E-1,-1.475391239E-1
1.227066040E-1,-9.587380104E-3,1.736381054E-1,-1.496696621E-1
1.246597290E-1,-1.651159860E-2,1.784317940E-1,-1.518001854E-1
1.266433710E-1,-2.450108156E-2,1.869539171E-1,-1.518001854E-1
1.286575310E-1,-3.302319720E-2,1.938781291E-1,-1.533980817E-1
1.306716920E-1,-3.941478580E-2,2.039981484E-1,-1.576591432E-1
1.326858520E-1,-5.113269389E-2,2.077265680E-1,-1.571265012E-1
1.346389770E-1,-5.645901710E-2,2.141181529E-1,-1.597896665E-1
1.366226190E-1,-6.764429063E-2,2.205097377E-1,-1.603222936E-1
1.386367800E-1,-7.776430249E-2,2.306297570E-1,-1.635181010E-1
1.406509400E-1,-8.788431436E-2,2.391518652E-1,-1.661812514E-1
1.426651000E-1,-9.321063757E-2,2.471413612E-1,-1.693770438E-1
1.446487420E-1,-1.033306494E-1,2.588592768E-1,-1.731054783E-1
1.466629030E-1,-1.145159304E-1,2.647182047E-1,-1.741707325E-1
1.486465450E-1,-1.230380461E-1,2.748382390E-1,-1.768338978E-1
1.506301880E-1,-1.342233270E-1,2.854908705E-1,-1.800296903E-1
1.526443480E-1,-1.427454352E-1,2.966761589E-1,-1.810949594E-1
1.546585080E-1,-1.533980817E-1,3.057309091E-1,-1.826928556E-1
1.566726680E-1,-1.645833552E-1,3.158509135E-1,-1.869539171E-1
1.586257930E-1,-1.768338978E-1,3.291667104E-1,-1.928128600E-1
1.606094360E-1,-1.858886480E-1,3.414172530E-1,-1.944107562E-1
1.626235960E-1,-1.981391907E-1,3.510046303E-1,-1.960086524E-1
1.645767210E-1,-2.066612989E-1,3.621899188E-1,-1.986718178E-1
1.665603640E-1,-2.215750068E-1,3.728425503E-1,-2.008023560E-1
1.685745240E-1,-2.295644879E-1,3.845604658E-1,-1.997370869E-1
1.705886840E-1,-2.418150306E-1,3.978762627E-1,-2.045307755E-1
1.725723260E-1,-2.535329461E-1,4.095941782E-1,-2.055960447E-1
1.745559690E-1,-2.663161159E-1,4.234426320E-1,-2.082591951E-1
1.765396120E-1,-2.684466541E-1,4.314320982E-1,-2.087918371E-1
1.785537720E-1,-2.790992856E-1,4.447479248E-1,-2.103897333E-1
1.805374140E-1,-2.892192900E-1,4.591289759E-1,-2.119876295E-1
1.825515740E-1,-2.988066673E-1,4.740426838E-1,-2.157160491E-1
1.845352170E-1,-3.099919558E-1,4.857605994E-1,-2.183792144E-1
1.865188600E-1,-3.201119602E-1,4.969458580E-1,-2.199771106E-1
1.885025020E-1,-3.296993375E-1,5.097290277E-1,-2.237055302E-1
1.905166620E-1,-3.382214606E-1,5.193164349E-1,-2.263686955E-1
1.925308220E-1,-3.478088379E-1,5.273059011E-1,-2.279665917E-1
1.945144650E-1,-3.568635881E-1,5.390238166E-1,-2.311623842E-1
1.964981080E-1,-3.664509654E-1,5.432848930E-1,-2.348908186E-1
1.985122680E-1,-3.739078343E-1,5.560680628E-1,-2.380866110E-1
2.005264280E-1,-3.834952116E-1,5.592638254E-1,-2.412824035E-1
2.025405880E-1,-3.893541694E-1,5.645901561E-1,-2.455434501E-1
2.044937130E-1,-3.968110085E-1,5.699164867E-1,-2.487392575E-1
2.065078730E-1,-4.106594622E-1,5.725796223E-1,-2.514024079E-1
2.085220330E-1,-4.122573435E-1,5.741775632E-1,-2.535329461E-1
2.105056760E-1,-4.191815555E-1,5.805691481E-1,-2.572613657E-1
2.124893190E-1,-4.218447208E-1,5.826996565E-1,-2.615224123E-1
2.145034790E-1,-4.287689328E-1,5.874933600E-1,-2.641855776E-1
2.165176390E-1,-4.314320982E-1,5.880259871E-1,-2.679139972E-1
2.185012810E-1,-4.362258017E-1,5.885586143E-1,-2.727077007E-1
2.204849240E-1,-4.378236830E-1,5.880259871E-1,-2.780340314E-1
2.225296020E-1,-4.442152679E-1,5.864281058E-1,-2.812298238E-1
2.244827270E-1,-4.500742257E-1,5.837649107E-1,-2.833603323E-1
2.264663690E-1,-4.575310946E-1,5.811017752E-1,-2.849582434E-1
2.284805300E-1,-4.623247683E-1,5.768406987E-1,-2.844256163E-1
2.304946900E-1,-4.676510990E-1,5.747101903E-1,-2.870887816E-1
2.324478150E-1,-4.687163532E-1,5.725796223E-1,-2.881540358E-1
2.344314570E-1,-4.751079381E-1,5.661880374E-1,-2.918824553E-1
2.364456170E-1,-4.804342687E-1,5.566006899E-1,-2.902845740E-1
2.384292600E-1,-4.910869002E-1,5.512743592E-1,-2.961435318E-1
2.404129030E-1,-4.996090233E-1,5.411543250E-1,-2.934803665E-1
2.424270630E-1,-5.033374429E-1,5.358279943E-1,-2.961435318E-1
2.444107050E-1,-5.134574771E-1,5.299690962E-1,-2.977414131E-1
2.463943480E-1,-5.203816891E-1,5.273059011E-1,-2.988066673E-1
2.483779900E-1,-5.262406468E-1,5.214469433E-1,-3.025351167E-1
2.503921510E-1,-5.347627401E-1,5.145227313E-1,-3.004045784E-1
2.524063110E-1,-5.443501472E-1,5.091964006E-1,-3.036003709E-1
2.543899530E-1,-5.507417321E-1,5.033374429E-1,-3.004045784E-1
2.563735960E-1,-5.613943934E-1,4.990763962E-1,-3.020024598E-1
2.583877560E-1,-5.704491138E-1,4.953479767E-1,-3.014698327E-1
2.604019160E-1,-5.747101903E-1,4.942827225E-1,-3.046656251E-1
2.623855590E-1,-5.800365210E-1,4.894890189E-1,-3.078614175E-1
2.643692010E-1,-5.869607329E-1,4.830974340E-1,-3.099919558E-1
2.663223260E-1,-5.933523178E-1,4.777711034E-1,-3.094593287E-1
2.683059690E-1,-5.970807076E-1,4.756405652E-1,-3.153182864E-1
2.703201290E-1,-6.050702333E-1,4.676510990E-1,-3.179814517E-1
2.723037720E-1,-6.103965044E-1,4.676510990E-1,-3.201119602E-1
2.742874140E-1,-6.135923266E-1,4.687163532E-1,-3.270362020E-1
2.763015740E-1,-6.146575809E-1,4.708468914E-1,-3.339604139E-1
2.783157350E-1,-6.242449880E-1,4.681837261E-1,-3.376888335E-1
2.802993770E-1,-6.285060048E-1,4.703142643E-1,-3.408846259E-1
2.823135370E-1,-6.348975897E-1,4.713795185E-1,-3.430151641E-1
2.842666620E-1,-6.396912932E-1,4.777711034E-1,-3.488741219E-1
2.862808220E-1,-6.471481323E-1,4.825648069E-1,-3.568635881E-1
2.882644650E-1,-6.535397172E-1,4.820321798E-1,-3.563309610E-1
2.902481080E-1,-6.615292430E-1,4.868258536E-1,-3.616572917E-1
2.922622680E-1,-6.711165905E-1,4.910869002E-1,-3.621899188E-1
2.942764280E-1,-6.807039976E-1,4.990763962E-1,-3.621899188E-1
2.962600710E-1,-6.881608367E-1,5.070658922E-1,-3.675162494E-1
2.982437130E-1,-6.972155571E-1,5.102616549E-1,-3.664509654E-1
3.002273560E-1,-7.089334726E-1,5.145227313E-1,-3.643204570E-1
3.022415160E-1,-7.222493291E-1,5.225121975E-1,-3.675162494E-1
3.041946410E-1,-7.334345579E-1,5.267732739E-1,-3.696467578E-1
3.062088010E-1,-7.424893379E-1,5.390238166E-1,-3.733751774E-1
3.082229610E-1,-7.579356432E-1,5.443501472E-1,-3.760383427E-1
3.102066040E-1,-7.733820081E-1,5.502091050E-1,-3.707120419E-1
3.121902460E-1,-7.819041014E-1,5.566006899E-1,-3.728425503E-1
3.142044060E-1,-7.957525253E-1,5.587311983E-1,-3.717772961E-1
3.162185670E-1,-8.090683818E-1,5.725796223E-1,-3.739078343E-1
3.182022090E-1,-8.218515515E-1,5.858954787E-1,-3.760383427E-1
3.201858520E-1,-8.341020942E-1,5.928196907E-1,-3.813646734E-1
3.222000120E-1,-8.500810266E-1,5.949501991E-1,-3.840278387E-1
3.241836550E-1,-8.612663150E-1,6.098638773E-1,-3.872236311E-1
3.261367800E-1,-8.772453070E-1,6.125270724E-1,-3.930825889E-1
3.281204220E-1,-8.937568665E-1,6.162554622E-1,-3.920173049E-1
3.301345820E-1,-9.086706042E-1,6.226470470E-1,-3.946804702E-1
3.321487420E-1,-9.171926975E-1,6.343649626E-1,-4.000068009E-1
3.341018670E-1,-9.310411215E-1,6.402239203E-1,-4.042678475E-1
3.360855100E-1,-9.400959015E-1,6.487460732E-1,-4.026699662E-1
3.380996700E-1,-9.539443254E-1,6.535397172E-1,-4.058657587E-1
3.401138300E-1,-9.688580036E-1,6.609966159E-1,-4.111920893E-1
3.420974730E-1,-9.789780378E-1,6.668555737E-1,-4.154531360E-1
3.440811150E-1,-9.928264618E-1,6.796387434E-1,-4.165183902E-1
3.460342400E-1,-1.005077004E0,6.870955825E-1,-4.186489284E-1
3.480178830E-1,-1.017860174E0,7.036072016E-1,-4.202468395E-1
3.500320430E-1,-1.031708598E0,7.174556255E-1,-4.234426320E-1
3.520156860E-1,-1.049818158E0,7.259777188E-1,-4.213120937E-1
3.539993280E-1,-1.060470819E0,7.344998717E-1,-4.213120937E-1
3.560134890E-1,-1.067927599E0,7.376956344E-1,-4.213120937E-1
3.580276490E-1,-1.080178142E0,7.462177277E-1,-4.239752591E-1
3.600112910E-1,-1.093493938E0,7.563377619E-1,-4.213120937E-1
3.620254510E-1,-1.104679227E0,7.701861858E-1,-4.229099751E-1
3.640090940E-1,-1.117995024E0,7.803062201E-1,-4.266384244E-1
3.660232540E-1,-1.131310821E0,7.925567627E-1,-4.250405133E-1
3.680068970E-1,-1.148355126E0,8.042746782E-1,-4.266384244E-1
3.699905390E-1,-1.168062449E0,8.202536106E-1,-4.298342168E-1
3.720046990E-1,-1.187237263E0,8.362326026E-1,-4.319647253E-1
3.740188600E-1,-1.204814076E0,8.564726114E-1,-4.346278906E-1
3.760025020E-1,-1.226652026E0,8.761799932E-1,-4.378236830E-1
3.779861450E-1,-1.248489976E0,8.980179429E-1,-4.426173866E-1
3.800003050E-1,-1.274056315E0,9.305084944E-1,-4.490089715E-1
3.820144650E-1,-1.299622655E0,9.619337916E-1,-4.559331834E-1
3.839675900E-1,-1.327852130E0,9.986854196E-1,-4.623247683E-1
3.859817500E-1,-1.363005877E0,1.040230751E0,-4.660531878E-1
3.879959100E-1,-1.396561742E0,1.086037159E0,-4.703142643E-1
3.899795530E-1,-1.434378624E0,1.136104584E0,-4.761732221E-1
3.919631960E-1,-1.472728133E0,1.188835144E0,-4.777711034E-1
3.939773560E-1,-1.514806032E0,1.244761467E0,-4.841626883E-1
3.959915160E-1,-1.555286050E0,1.304416299E0,-4.852279723E-1
3.979751580E-1,-1.600559831E0,1.365669012E0,-4.889563918E-1
3.999588010E-1,-1.645833611E0,1.424791217E0,-4.926848114E-1
4.019729610E-1,-1.691107273E0,1.483380795E0,-4.974785149E-1
4.039566040E-1,-1.739576817E0,1.535046101E0,-5.022721887E-1
4.059097290E-1,-1.784850597E0,1.587244034E0,-5.033374429E-1
4.078933710E-1,-1.831722260E0,1.633583069E0,-5.086637735E-1
4.099075310E-1,-1.879126549E0,1.671932578E0,-5.145227313E-1
4.119216920E-1,-1.923867583E0,1.714543104E0,-5.209143162E-1
4.138748170E-1,-1.969673991E0,1.754490614E0,-5.257080197E-1
4.158584590E-1,-2.010154009E0,1.793905377E0,-5.310343504E-1
4.178726190E-1,-2.049036264E0,1.828526497E0,-5.368933082E-1
4.199172970E-1,-2.086853027E0,1.862082243E0,-5.411543250E-1
4.218704220E-1,-2.120409012E0,1.888713837E0,-5.459480286E-1
4.238540650E-1,-2.149171114E0,1.910551786E0,-5.448827744E-1
4.258377070E-1,-2.175270081E0,1.927596092E0,-5.475459099E-1
4.278213500E-1,-2.198705912E0,1.936118126E0,-5.438175201E-1
4.298355100E-1,-2.217347860E0,1.935585499E0,-5.416869521E-1
4.318191530E-1,-2.228000641E0,1.925465465E0,-5.390238166E-1
4.338027950E-1,-2.223206997E0,1.875930667E0,-5.368933082E-1
4.358169550E-1,-2.201369047E0,1.773665309E0,-5.289037824E-1
4.378311150E-1,-2.177933216E0,1.690574646E0,-5.187838078E-1
4.398147580E-1,-2.159823656E0,1.621332526E0,-5.086637735E-1
4.418289180E-1,-2.145442724E0,1.555286050E0,-4.996090233E-1
4.438125610E-1,-2.128931046E0,1.480184913E0,-4.910869002E-1
4.458267210E-1,-2.110821486E0,1.397094369E0,-4.878911078E-1
4.478103640E-1,-2.091114044E0,1.310807943E0,-4.862932265E-1
4.497940060E-1,-2.063949823E0,1.227184653E0,-4.921521842E-1
4.518081660E-1,-2.038383484E0,1.146224499E0,-4.996090233E-1
4.538223260E-1,-2.008023500E0,1.066329718E0,-5.070658922E-1
4.558059690E-1,-1.971804500E0,9.827064872E-1,-5.161206126E-1
4.577896120E-1,-1.935585499E0,9.044095278E-1,-5.251753926E-1
4.598037720E-1,-1.897768617E0,8.250473142E-1,-5.379585624E-1
4.618179320E-1,-1.860484362E0,7.478156686E-1,-5.502091050E-1
4.637710570E-1,-1.814145327E0,6.721818447E-1,-5.672533512E-1
4.657852170E-1,-1.768871665E0,5.890912414E-1,-5.741775632E-1
4.677993770E-1,-1.725728393E0,5.070658922E-1,-5.864281058E-1
4.697830200E-1,-1.685781002E0,4.138552547E-1,-6.045376062E-1
4.717666620E-1,-1.649562001E0,2.966761589E-1,-6.221144199E-1
4.737808220E-1,-1.611745119E0,1.656486243E-1,-6.450176239E-1
4.757949830E-1,-1.559547186E0,3.941478580E-2,-6.631271243E-1
4.777786250E-1,-1.493500710E0,-6.072007492E-2,-6.785734296E-1
4.797622680E-1,-1.424258590E0,-1.310275346E-1,-6.828345060E-1
4.817764280E-1,-1.351287961E0,-1.731054783E-1,-6.881608367E-1
4.837600710E-1,-1.273523688E0,-2.055960447E-1,-6.918892860E-1
4.857437130E-1,-1.188835144E0,-2.332929224E-1,-6.860303283E-1
4.877273560E-1,-1.103613973E0,-2.577939928E-1,-6.833671331E-1
4.897415160E-1,-1.018392801E0,-2.737729549E-1,-6.764429212E-1
4.917556760E-1,-9.353021979E-1,-2.897519469E-1,-6.695187092E-1
4.937393190E-1,-8.511462808E-1,-3.259709179E-1,-6.615292430E-1
4.957229610E-1,-7.760451436E-1,-3.802994192E-1,-6.583334208E-1
4.977371210E-1,-7.004113793E-1,-4.420847595E-1,-6.604639888E-1
4.997512810E-1,-6.317018270E-1,-5.070658922E-1,-6.620618701E-1
5.017654420E-1,-5.661880374E-1,-5.752428174E-1,-6.641923785E-1
5.037490840E-1,-5.044026971E-1,-6.375607848E-1,-6.721818447E-1
5.057632440E-1,-4.495415986E-1,-7.020092607E-1,-6.785734296E-1
5.077163690E-1,-3.952131271E-1,-7.632619739E-1,-6.924219131E-1
5.097305300E-1,-3.430151641E-1,-8.133293986E-1,-7.014766335E-1
5.117141720E-1,-2.918824553E-1,-8.532768488E-1,-7.099987864E-1
5.136978150E-1,-2.418150306E-1,-8.783105612E-1,-7.217166424E-1
5.156814570E-1,-1.906823367E-1,-8.900284767E-1,-7.281082273E-1
5.176956170E-1,-1.411475390E-1,-8.831042051E-1,-7.302387953E-1
5.196792600E-1,-8.522115648E-2,-8.799084425E-1,-7.265103459E-1
5.216934200E-1,-4.900216311E-2,-8.910937309E-1,-7.254450917E-1
5.236770630E-1,-1.384843793E-2,-9.230516553E-1,-7.265103459E-1
5.256912230E-1,2.876213938E-2,-9.464874864E-1,-7.233145833E-1
5.276748650E-1,6.604639441E-2,-9.619337916E-1,-7.238472104E-1
5.296585080E-1,1.033306494E-1,-9.550095797E-1,-7.179882526E-1
5.316726680E-1,1.432780623E-1,-9.342369437E-1,-7.068029642E-1
5.336868280E-1,1.864212751E-1,-8.910937309E-1,-6.870955825E-1
5.356704710E-1,2.290318608E-1,-8.356999755E-1,-6.615292430E-1
5.376541140E-1,2.737729549E-1,-7.803062201E-1,-6.290386319E-1
5.396682740E-1,3.142530024E-1,-7.259777188E-1,-5.954828262E-1
5.416824340E-1,3.504720032E-1,-6.854977012E-1,-5.587311983E-1
5.436355590E-1,3.818973005E-1,-6.524744630E-1,-5.294364095E-1
5.456497190E-1,4.074636400E-1,-6.295713186E-1,-5.044026971E-1
5.476638790E-1,4.287689328E-1,-6.157228351E-1,-4.761732221E-1
5.496475220E-1,4.458131790E-1,-6.056028605E-1,-4.554005563E-1
5.516311640E-1,4.516721368E-1,-6.194512844E-1,-4.362258017E-1
5.536453240E-1,4.538026452E-1,-6.471481323E-1,-4.213120937E-1
5.556594850E-1,4.559331834E-1,-6.854977012E-1,-4.154531360E-1
5.576736450E-1,4.585963488E-1,-7.195861340E-1,-4.122573435E-1
5.596267700E-1,4.575310946E-1,-7.398261428E-1,-4.111920893E-1
5.616409300E-1,4.591289759E-1,-7.403587699E-1,-4.133225977E-1
5.636245720E-1,4.617921412E-1,-7.302387953E-1,-4.143878818E-1
5.656387330E-1,4.687163532E-1,-7.147924304E-1,-4.085289240E-1
5.675918580E-1,4.772384763E-1,-6.918892860E-1,-4.058657587E-1
5.695755000E-1,4.846953154E-1,-6.647250056E-1,-3.994741738E-1
5.715896600E-1,4.964132309E-1,-6.311691999E-1,-3.904194236E-1
5.735733030E-1,5.038700700E-1,-6.050702333E-1,-3.808320463E-1
5.755569460E-1,5.123922229E-1,-5.869607329E-1,-3.744404614E-1
5.775405880E-1,5.123922229E-1,-5.832322836E-1,-3.696467578E-1
5.795547480E-1,5.166532397E-1,-5.763080716E-1,-3.685815036E-1
5.815689080E-1,5.134574771E-1,-5.933523178E-1,-3.707120419E-1
5.835525510E-1,5.118595958E-1,-6.040049195E-1,-3.707120419E-1
5.855667110E-1,5.038700700E-1,-6.311691999E-1,-3.760383427E-1
5.875503540E-1,4.926848114E-1,-6.652576327E-1,-3.840278387E-1
5.895339960E-1,4.777711034E-1,-7.153250575E-1,-3.962783813E-1
5.915481560E-1,4.623247683E-1,-7.595335841E-1,-4.095941782E-1
5.935317990E-1,4.468784332E-1,-8.021441102E-1,-4.266384244E-1
5.955154420E-1,4.319647253E-1,-8.378304839E-1,-4.458131790E-1
5.975296020E-1,4.213120937E-1,-8.575378656E-1,-4.623247683E-1
5.995437620E-1,4.101268053E-1,-8.665926456E-1,-4.756405652E-1
6.015884400E-1,4.048005044E-1,-8.841695189E-1,-4.761732221E-1
6.035415650E-1,3.957457542E-1,-9.017463326E-1,-4.735100567E-1
6.055252070E-1,3.861583769E-1,-9.198558331E-1,-4.612595141E-1
6.075393670E-1,3.792341352E-1,-9.406285286E-1,-4.511395097E-1
6.095230100E-1,3.659183383E-1,-9.603359103E-1,-4.420847595E-1
6.115066530E-1,3.520699143E-1,-9.859022498E-1,-4.314320982E-1
6.135208130E-1,3.350256681E-1,-1.018392801E0,-4.202468395E-1
6.155349730E-1,3.158509135E-1,-1.055677056E0,-4.074636400E-1
6.175186150E-1,2.940129936E-1,-1.092961311E0,-4.037352204E-1
6.195022580E-1,2.716424465E-1,-1.123854041E0,-4.010720551E-1
6.215164180E-1,2.508697808E-1,-1.144626617E0,-3.962783813E-1
6.234695430E-1,2.322276533E-1,-1.160073042E0,-3.936152160E-1
6.254531860E-1,2.125202566E-1,-1.165931940E0,-3.888215125E-1
6.274673460E-1,1.938781291E-1,-1.164334059E0,-3.840278387E-1
6.294815060E-1,1.757686287E-1,-1.161138296E0,-3.787015080E-1
6.314651490E-1,1.533980817E-1,-1.161138296E0,-3.675162494E-1
6.334487910E-1,1.336906850E-1,-1.164334059E0,-3.605920076E-1
6.354629510E-1,1.118527651E-1,-1.170725584E0,-3.542004228E-1
6.374771120E-1,9.321063757E-2,-1.166464567E0,-3.478088379E-1
6.394607540E-1,7.190535218E-2,-1.157942414E0,-3.419498801E-1
6.414749140E-1,5.432848632E-2,-1.140365601E0,-3.302319944E-1
6.434280390E-1,3.355583176E-2,-1.121723413E0,-3.185140789E-1
6.454421990E-1,2.024002373E-2,-1.104679227E0,-3.078614175E-1
6.474258420E-1,2.130528912E-3,-1.088700294E0,-2.972087860E-1
6.494094850E-1,-1.171790902E-2,-1.071123362E0,-2.881540358E-1
6.514236450E-1,-2.396845073E-2,-1.049818158E0,-2.817624509E-1
6.534378050E-1,-3.515372798E-2,-1.026914954E0,-2.748382390E-1
6.554214470E-1,-4.580637068E-2,-1.006674886E0,-2.695119083E-1
6.574050900E-1,-5.645901710E-2,-9.875001311E-1,-2.689792812E-1
6.594192500E-1,-6.391586363E-2,-9.677927494E-1,-2.705771625E-1
6.614334100E-1,-6.977482140E-2,-9.454222322E-1,-2.721750736E-1
6.633865350E-1,-7.510114461E-2,-9.251821637E-1,-2.727077007E-1
6.654006960E-1,-8.149272949E-2,-9.033442736E-1,-2.806971967E-1
6.673843380E-1,-8.255799860E-2,-8.772453070E-1,-2.865561247E-1
6.693679810E-1,-8.894958347E-2,-8.506136537E-1,-3.004045784E-1
6.713821410E-1,-9.108011425E-2,-8.229168057E-1,-3.115898669E-1
6.733963010E-1,-9.321063757E-2,-7.904262543E-1,-3.201119602E-1
6.753799440E-1,-9.321063757E-2,-7.590008974E-1,-3.376888335E-1
6.773635860E-1,-9.214537591E-2,-7.344998717E-1,-3.584614992E-1
6.793777460E-1,-9.161274135E-2,-7.020092607E-1,-3.792341352E-1
6.814224240E-1,-8.948221803E-2,-6.753776670E-1,-4.010720551E-1
6.833755490E-1,-8.522115648E-2,-6.418218613E-1,-4.287689328E-1
6.853591920E-1,-7.829693705E-2,-6.013417840E-1,-4.617921412E-1
6.873733520E-1,-7.776430249E-2,-5.645901561E-1,-4.985437691E-1
6.893875120E-1,-7.137271762E-2,-5.390238166E-1,-5.358279943E-1
6.913711550E-1,-6.551376730E-2,-5.193164349E-1,-5.651227832E-1
6.933547970E-1,-6.018744037E-2,-5.049353242E-1,-5.981460214E-1
6.953689570E-1,-5.432848632E-2,-4.942827225E-1,-6.253102422E-1
6.973831170E-1,-4.740426689E-2,-4.889563918E-1,-6.487460732E-1
6.993667600E-1,-3.675162420E-2,-4.889563918E-1,-6.673882008E-1
7.013809200E-1,-2.343581803E-2,-4.932174385E-1,-6.769755483E-1
7.033645630E-1,-1.704423130E-2,-4.980111420E-1,-6.860303283E-1
7.053482050E-1,-3.728425596E-3,-5.086637735E-1,-6.870955825E-1
7.073318480E-1,6.924218964E-3,-5.134574771E-1,-6.886934638E-1
7.093460080E-1,1.757686399E-2,-5.241101384E-1,-6.876282096E-1
7.113601680E-1,3.195793182E-2,-5.230448246E-1,-6.886934638E-1
7.133438110E-1,4.846953228E-2,-5.235774517E-1,-6.870955825E-1
7.153274530E-1,6.285060197E-2,-5.214469433E-1,-6.870955825E-1
7.173110960E-1,7.989483327E-2,-5.139901042E-1,-6.838997602E-1
7.193252560E-1,9.800432622E-2,-5.102616549E-1,-6.812366247E-1
7.213699340E-1,1.129180342E-1,-5.022721887E-1,-6.743124127E-1
7.233230590E-1,1.320927888E-1,-4.905542731E-1,-6.764429212E-1
7.253067010E-1,1.528654546E-1,-4.767058492E-1,-6.705839634E-1
7.273208620E-1,1.763012707E-1,-4.633900523E-1,-6.737797856E-1
7.293350220E-1,2.013349831E-1,-4.506068528E-1,-6.780408025E-1
7.312881470E-1,2.119876295E-1,-4.495415986E-1,-6.769755483E-1
7.332717890E-1,2.375539690E-1,-4.372910559E-1,-6.775081754E-1
7.352859490E-1,2.609897852E-1,-4.308994710E-1,-6.705839634E-1
7.373001100E-1,2.860234976E-1,-4.266384244E-1,-6.647250056E-1
7.392532350E-1,3.083940744E-1,-4.277036786E-1,-6.583334208E-1
7.412673950E-1,3.339604139E-1,-4.218447208E-1,-6.482134461E-1
7.432205200E-1,3.568635881E-1,-4.186489284E-1,-6.370281577E-1
7.452041620E-1,3.771036267E-1,-4.165183902E-1,-6.215817928E-1
7.472183220E-1,3.994741738E-1,-4.117247164E-1,-6.072007418E-1
7.491714470E-1,4.191815555E-1,-4.122573435E-1,-5.928196907E-1
7.511550900E-1,4.388889670E-1,-4.143878818E-1,-5.811017752E-1
7.531692500E-1,4.543353021E-1,-4.127899706E-1,-5.688512325E-1
7.551834100E-1,4.687163532E-1,-4.154531360E-1,-5.550028086E-1
7.571365350E-1,4.804342687E-1,-4.229099751E-1,-5.422195792E-1
7.591201780E-1,4.932174385E-1,-4.314320982E-1,-5.283711553E-1
7.611343380E-1,5.038700700E-1,-4.410194755E-1,-5.129248500E-1
7.630874630E-1,5.102616549E-1,-4.495415986E-1,-4.980111420E-1
7.650711060E-1,5.203816891E-1,-4.564658105E-1,-4.889563918E-1
7.670852660E-1,5.267732739E-1,-4.655205607E-1,-4.814995229E-1
7.690994260E-1,5.320996046E-1,-4.761732221E-1,-4.751079381E-1
7.710830690E-1,5.363606811E-1,-4.846953154E-1,-4.692489803E-1
7.730667110E-1,5.411543250E-1,-4.953479767E-1,-4.628573954E-1
7.750808710E-1,5.448827744E-1,-5.044026971E-1,-4.580637217E-1
7.770950310E-1,5.454154015E-1,-5.155879855E-1,-4.506068528E-1
7.791091920E-1,5.443501472E-1,-5.193164349E-1,-4.479437172E-1
7.810928340E-1,5.427522659E-1,-5.262406468E-1,-4.410194755E-1
7.830764770E-1,5.374259353E-1,-5.273059011E-1,-4.362258017E-1
7.850601190E-1,5.379585624E-1,-5.251753926E-1,-4.277036786E-1
7.870437620E-1,5.331648588E-1,-5.241101384E-1,-4.223773479E-1
7.890579220E-1,5.257080197E-1,-5.198490620E-1,-4.197141826E-1
7.910720820E-1,5.193164349E-1,-5.097290277E-1,-4.133225977E-1
7.930862420E-1,5.118595958E-1,-5.012069345E-1,-4.079962969E-1
7.950393670E-1,5.017395616E-1,-4.910869002E-1,-4.000068009E-1
7.970230100E-1,4.937500656E-1,-4.777711034E-1,-3.936152160E-1
7.990371700E-1,4.862932265E-1,-4.644553065E-1,-3.904194236E-1
8.010818480E-1,4.751079381E-1,-4.479437172E-1,-3.861583769E-1
8.030349730E-1,4.649879336E-1,-4.335626364E-1,-3.802994192E-1
8.050186150E-1,4.575310946E-1,-4.170510471E-1,-3.797667921E-1
8.070327760E-1,4.447479248E-1,-4.005394280E-1,-3.712446690E-1
8.090469360E-1,4.340952635E-1,-3.824299276E-1,-3.701793849E-1
8.110000610E-1,4.213120937E-1,-3.675162494E-1,-3.605920076E-1
8.129837030E-1,4.074636400E-1,-3.510046303E-1,-3.563309610E-1
8.149978640E-1,3.893541694E-1,-3.350256681E-1,-3.515372574E-1
8.170120240E-1,3.765709996E-1,-3.217098713E-1,-3.536677957E-1
8.190261840E-1,3.627225459E-1,-3.078614175E-1,-3.494067490E-1
8.210098260E-1,3.435477912E-1,-2.982740402E-1,-3.478088379E-1
8.229629510E-1,3.254382908E-1,-2.860234976E-1,-3.488741219E-1
8.249465940E-1,3.073287904E-1,-2.753708661E-1,-3.483414650E-1
8.269607540E-1,2.881540358E-1,-2.705771625E-1,-3.446130455E-1
8.289749140E-1,2.689792812E-1,-2.620550692E-1,-3.419498801E-1
8.309280390E-1,2.492718846E-1,-2.514024079E-1,-3.387540877E-1
8.329116820E-1,2.269013226E-1,-2.476739883E-1,-3.360909224E-1
8.349258420E-1,2.050634027E-1,-2.370213419E-1,-3.350256681E-1
8.369400020E-1,1.816275865E-1,-2.322276533E-1,-3.275688291E-1
8.388931270E-1,1.635181010E-1,-2.258360684E-1,-3.217098713E-1
8.409072870E-1,1.411475390E-1,-2.146507949E-1,-3.179814517E-1
8.428909300E-1,1.225054115E-1,-2.087918371E-1,-3.121224940E-1
8.448745720E-1,1.017327532E-1,-2.008023560E-1,-3.062635362E-1
8.468582150E-1,9.214537591E-2,-1.949433982E-1,-3.009372056E-1
8.488418580E-1,7.297061384E-2,-1.858886480E-1,-2.934803665E-1
8.508560180E-1,5.219795927E-2,-1.794970632E-1,-2.886866629E-1
8.528396600E-1,3.888215125E-2,-1.693770438E-1,-2.817624509E-1
8.548233030E-1,1.864212751E-2,-1.581917703E-1,-2.748382390E-1
8.568374630E-1,3.195793368E-3,-1.486043930E-1,-2.711097896E-1
8.588516230E-1,-1.278317347E-2,-1.368864775E-1,-2.663161159E-1
8.608657830E-1,-2.609897964E-2,-1.299622655E-1,-2.519350350E-1
8.628189080E-1,-3.888215125E-2,-1.161138266E-1,-2.434129268E-1
8.648330690E-1,-5.379585549E-2,-9.800432622E-2,-2.412824035E-1
8.668167110E-1,-6.498113275E-2,-8.362326026E-2,-2.412824035E-1
8.688003540E-1,-7.563377917E-2,-7.030745596E-2,-2.455434501E-1
8.708145140E-1,-8.362326026E-2,-5.645901710E-2,-2.503371537E-1
8.728286740E-1,-9.480853379E-2,-4.740426689E-2,-2.551308274E-1
8.748123170E-1,-1.049285457E-1,-3.994741663E-2,-2.577939928E-1
8.767959590E-1,-1.129180342E-1,-3.089267015E-2,-2.615224123E-1
8.787796020E-1,-1.214401498E-1,-2.769687586E-2,-2.652508616E-1
8.807937620E-1,-1.304948926E-1,-2.556634694E-2,-2.705771625E-1
8.827468870E-1,-1.390170157E-1,-2.183792181E-2,-2.732403278E-1
8.847305300E-1,-1.448759735E-1,-1.171790902E-2,-2.775014043E-1
8.867446900E-1,-1.539307088E-1,-4.261057824E-3,-2.796319127E-1
8.887588500E-1,-1.645833552E-1,-2.663161140E-3,-2.822950780E-1
8.907730100E-1,-1.672465205E-1,1.597896684E-3,-2.838929892E-1
8.927261350E-1,-1.757686287E-1,7.989482954E-3,-2.854908705E-1
8.947097780E-1,-1.821602285E-1,1.225054078E-2,-2.865561247E-1
8.967239380E-1,-1.896170676E-1,1.118527725E-2,-2.796319127E-1
8.987380980E-1,-1.976065636E-1,1.384843793E-2,-2.695119083E-1
9.007217400E-1,-2.018676102E-1,1.757686399E-2,-2.588592768E-1
9.027053830E-1,-2.050634027E-1,2.876213938E-2,-2.609897852E-1
9.046585080E-1,-2.055960447E-1,4.101268202E-2,-2.657834888E-1
9.066726680E-1,-2.018676102E-1,4.633900523E-2,-2.721750736E-1
9.086868280E-1,-1.992044598E-1,5.273059011E-2,-2.737729549E-1
9.106704710E-1,-1.938781291E-1,5.273059011E-2,-2.790992856E-1
9.126541140E-1,-1.885518134E-1,4.953479767E-2,-2.812298238E-1
9.146682740E-1,-1.821602285E-1,4.474110901E-2,-2.817624509E-1
9.166824340E-1,-1.725728363E-1,3.781688958E-2,-2.806971967E-1
9.186660760E-1,-1.672465205E-1,3.462109342E-2,-2.769687474E-1
9.206802370E-1,-1.587243974E-1,3.089267015E-2,-2.727077007E-1
9.226638790E-1,-1.544633508E-1,2.822950855E-2,-2.700445354E-1
9.246780390E-1,-1.459412277E-1,2.556634694E-2,-2.636529505E-1
9.266616820E-1,-1.379517466E-1,2.450108156E-2,-2.545982003E-1
9.286453240E-1,-1.288969964E-1,1.970739290E-2,-2.466087192E-1
9.306594850E-1,-1.235706806E-1,1.810949668E-2,-2.364887148E-1
9.326736450E-1,-1.177117229E-1,1.438106969E-2,-2.295644879E-1
9.346572870E-1,-1.086569726E-1,1.012001187E-2,-2.210423797E-1
9.366409300E-1,-1.006674916E-1,9.054748341E-3,-2.119876295E-1
9.386245720E-1,-9.693906456E-2,4.793690052E-3,-2.013349831E-1
9.406387330E-1,-8.948221803E-2,5.326322280E-4,-1.960086524E-1
9.425918580E-1,-8.202536404E-2,-1.597896684E-3,-1.890844405E-1
9.446060180E-1,-7.776430249E-2,-6.391586736E-3,-1.794970632E-1
9.466201780E-1,-7.297061384E-2,-1.171790902E-2,-1.699096859E-1
9.486038210E-1,-7.563377917E-2,-2.130528912E-2,-1.560612470E-1
9.505874630E-1,-7.030745596E-2,-2.237055451E-2,-1.416801661E-1
9.526016230E-1,-6.711166352E-2,-1.864212751E-2,-1.358212233E-1
9.546157830E-1,-6.231797114E-2,-1.065264456E-2,-1.331580579E-1
9.565994260E-1,-5.645901710E-2,-5.326322280E-3,-1.352885813E-1
9.585830690E-1,-5.219795927E-2,-5.858954508E-3,-1.390170157E-1
9.605972290E-1,-4.527373984E-2,-6.924218964E-3,-1.411475390E-1
9.625808710E-1,-4.527373984E-2,-1.118527725E-2,-1.416801661E-1
9.645645140E-1,-3.941478580E-2,-1.597896591E-2,-1.438107044E-1
9.665481560E-1,-3.621899337E-2,-1.757686399E-2,-1.443433315E-1
9.685623170E-1,-3.515372798E-2,-2.024002373E-2,-1.464738697E-1
9.705764770E-1,-3.462109342E-2,-2.130528912E-2,-1.480717659E-1
9.725601190E-1,-2.929477207E-2,-2.183792181E-2,-1.459412277E-1
9.745437620E-1,-2.876213938E-2,-1.544633508E-2,-1.470064968E-1
9.765274050E-1,-2.822950855E-2,-1.704423130E-2,-1.438107044E-1
9.785415650E-1,-2.769687586E-2,-1.331580617E-2,-1.422128081E-1
9.805557250E-1,-3.142530099E-2,-8.522115648E-3,-1.464738697E-1
9.825393670E-1,-3.249056637E-2,-5.858954508E-3,-1.448759735E-1
9.845535280E-1,-3.515372798E-2,-3.195793368E-3,-1.459412277E-1
9.865371700E-1,-3.941478580E-2,-2.663161140E-3,-1.438107044E-1
9.885208130E-1,-4.580637068E-2,5.326322280E-4,-1.432780623E-1
9.905349730E-1,-4.793690145E-2,2.663161140E-3,-1.411475390E-1
9.925491330E-1,-5.752427876E-2,2.130528912E-3,-1.422128081E-1
9.945022580E-1,-6.018744037E-2,6.391586736E-3,-1.416801661E-1
9.964859010E-1,-6.817692518E-2,7.989482954E-3,-1.411475390E-1
9.985000610E-1,-7.297061384E-2,9.054748341E-3,-1.363538504E-1
1.000544739E0,-7.936219871E-2,1.012001187E-2,-1.384843737E-1
1.002497864E0,-8.628641814E-2,1.065264456E-2,-1.358212233E-1
1.004481506E0,-9.267801046E-2,1.491370238E-2,-1.368864775E-1
1.006495666E0,-9.747169912E-2,1.651159860E-2,-1.331580579E-1
1.008509826E0,-1.012001261E-1,1.651159860E-2,-1.315601617E-1
1.010493469E0,-1.049285457E-1,1.597896591E-2,-1.294296384E-1
1.012477112E0,-1.081243455E-1,1.864212751E-2,-1.272991002E-1
1.014460754E0,-1.118527651E-1,1.810949668E-2,-1.257012039E-1
1.016474914E0,-1.161138266E-1,1.651159860E-2,-1.214401498E-1
1.018489074E0,-1.219727769E-1,1.544633508E-2,-1.214401498E-1
1.020503235E0,-1.241033077E-1,1.331580617E-2,-1.209075153E-1
1.022486877E0,-1.262338310E-1,1.384843793E-2,-1.177117229E-1
1.024501037E0,-1.278317273E-1,1.225054078E-2,-1.187769845E-1
1.026484680E0,-1.310275346E-1,1.171790902E-2,-1.150485575E-1
1.028468322E0,-1.331580579E-1,7.989482954E-3,-1.118527651E-1
1.030482483E0,-1.331580579E-1,5.326322280E-3,-1.091896072E-1
1.032496643E0,-1.347559541E-1,3.728425596E-3,-1.065264493E-1
1.034480285E0,-1.358212233E-1,1.597896684E-3,-1.065264493E-1
1.036463928E0,-1.352885813E-1,5.326322280E-4,-1.065264493E-1
1.038447571E0,-1.363538504E-1,-1.597896684E-3,-1.027980223E-1
1.040461731E0,-1.379517466E-1,-4.261057824E-3,-1.006674916E-1
1.042414856E0,-1.395496428E-1,-9.587380104E-3,-9.800432622E-2
1.044398498E0,-1.395496428E-1,-1.225054078E-2,-9.640643001E-2
1.046412658E0,-1.379517466E-1,-1.491370238E-2,-9.640643001E-2
1.048426819E0,-1.416801661E-1,-1.597896591E-2,-9.374327213E-2
1.050410461E0,-1.432780623E-1,-1.810949668E-2,-9.001484513E-2
1.052394104E0,-1.427454352E-1,-2.450108156E-2,-8.788431436E-2
1.054408264E0,-1.422128081E-1,-2.556634694E-2,-8.362326026E-2
1.056422424E0,-1.411475390E-1,-3.036003746E-2,-7.669904083E-2
1.058406067E0,-1.427454352E-1,-3.408846259E-2,-7.616640627E-2
1.060420227E0,-1.427454352E-1,-3.675162420E-2,-6.977482140E-2
1.062373352E0,-1.411475390E-1,-3.994741663E-2,-6.231797114E-2
1.064356994E0,-1.379517466E-1,-4.527373984E-2,-6.125270575E-2
1.066371155E0,-1.384843737E-1,-4.580637068E-2,-5.273059011E-2
1.068385315E0,-1.342233270E-1,-4.846953228E-2,-4.420847446E-2
1.070338440E0,-1.331580579E-1,-4.900216311E-2,-3.994741663E-2
1.072322082E0,-1.294296384E-1,-5.113269389E-2,-3.462109342E-2
1.074336242E0,-1.299622655E-1,-4.633900523E-2,-3.036003746E-2
1.076350403E0,-1.267664731E-1,-4.420847446E-2,-2.450108156E-2
1.078303528E0,-1.257012039E-1,-4.314320907E-2,-2.130528912E-2
1.080317688E0,-1.251685768E-1,-4.261057824E-2,-1.491370238E-2
1.082301330E0,-1.214401498E-1,-4.261057824E-2,-9.054748341E-3
1.084284973E0,-1.225054115E-1,-4.740426689E-2,-2.663161140E-3
1.086268615E0,-1.209075153E-1,-5.219795927E-2,3.195793368E-3
1.088282776E0,-1.187769845E-1,-5.645901710E-2,6.924218964E-3
1.090296936E0,-1.177117229E-1,-6.125270575E-2,1.331580617E-2
1.092311096E0,-1.150485575E-1,-7.030745596E-2,1.704423130E-2
1.094264221E0,-1.129180342E-1,-7.563377917E-2,1.704423130E-2
1.096247864E0,-1.086569726E-1,-8.042746782E-2,1.810949668E-2
1.098262024E0,-1.059938148E-1,-8.575379103E-2,1.917476021E-2
1.100276184E0,-1.006674916E-1,-8.894958347E-2,1.970739290E-2
1.102229309E0,-9.960222989E-2,-8.948221803E-2,1.970739290E-2
1.104243469E0,-1.012001261E-1,-9.267801046E-2,1.917476021E-2
1.106227112E0,-9.640643001E-2,-9.374327213E-2,1.491370238E-2
1.108210754E0,-9.534116834E-2,-9.427590668E-2,1.651159860E-2
1.110194397E0,-9.480853379E-2,-9.640643001E-2,1.065264456E-2
1.112208557E0,-9.480853379E-2,-9.693906456E-2,1.012001187E-2
1.114192199E0,-9.587380290E-2,-1.012001261E-1,1.012001187E-2
1.116175842E0,-9.214537591E-2,-1.012001261E-1,5.326322280E-3
1.118159485E0,-9.267801046E-2,-1.033306494E-1,6.924218964E-3
1.120173645E0,-9.001484513E-2,-1.027980223E-1,3.728425596E-3
1.122126770E0,-9.214537591E-2,-9.960222989E-2,5.858954508E-3
1.124110412E0,-9.267801046E-2,-8.415589482E-2,4.261057824E-3
1.126124572E0,-9.747169912E-2,-7.829693705E-2,3.728425596E-3
1.128138733E0,-1.027980223E-1,-6.657902896E-2,2.663161140E-3
1.130122375E0,-1.065264493E-1,-6.338323653E-2,2.663161140E-3
1.132106018E0,-1.107875034E-1,-6.231797114E-2,3.728425596E-3
1.134089660E0,-1.177117229E-1,-6.125270575E-2,1.065264456E-3
1.136103821E0,-1.198422536E-1,-6.391586363E-2,6.391586736E-3
1.138117981E0,-1.235706806E-1,-6.285060197E-2,3.195793368E-3
1.140132141E0,-1.267664731E-1,-6.498113275E-2,3.195793368E-3
1.142115783E0,-1.299622655E-1,-6.551376730E-2,5.326322280E-4
1.144099426E0,-1.299622655E-1,-6.338323653E-2,2.663161140E-3
1.146083069E0,-1.294296384E-1,-6.551376730E-2,0.000000000E0
1.148097229E0,-1.304948926E-1,-6.231797114E-2,5.326322280E-4
1.150111389E0,-1.267664731E-1,-6.072007492E-2,-3.195793368E-3
1.152064514E0,-1.246359423E-1,-5.326322466E-2,-2.663161140E-3
1.154048156E0,-1.246359423E-1,-5.273059011E-2,-3.728425596E-3
1.156062317E0,-1.203748807E-1,-4.687163606E-2,-3.728425596E-3
1.158076477E0,-1.193096191E-1,-4.207794741E-2,-4.261057824E-3
1.160060119E0,-1.150485575E-1,-3.781688958E-2,-3.195793368E-3
1.162013244E0,-1.145159304E-1,-3.142530099E-2,-5.858954508E-3
1.164027405E0,-1.145159304E-1,-2.876213938E-2,-4.793690052E-3
1.166011047E0,-1.134506613E-1,-2.556634694E-2,-1.065264456E-3
1.167994690E0,-1.123853996E-1,-1.970739290E-2,-3.728425596E-3
1.169978332E0,-1.097222418E-1,-1.810949668E-2,0.000000000E0
1.171992492E0,-1.118527651E-1,-1.438106969E-2,-2.130528912E-3
1.174006653E0,-1.123853996E-1,-1.491370238E-2,1.065264456E-3
1.175959778E0,-1.091896072E-1,-1.171790902E-2,-1.065264456E-3
1.177943420E0,-1.086569726E-1,-1.118527725E-2,-5.326322280E-4
1.179957580E0,-1.054611802E-1,-1.012001187E-2,-1.065264456E-3
1.181910705E0,-1.033306494E-1,-1.012001187E-2,-1.065264456E-3
1.183924865E0,-1.033306494E-1,-9.587380104E-3,-1.065264456E-3
1.185939026E0,-1.012001261E-1,-1.118527725E-2,-1.065264456E-3
1.187892151E0,-9.906959534E-2,-1.118527725E-2,-3.195793368E-3
1.189875793E0,-9.480853379E-2,-1.278317347E-2,-7.456851192E-3
1.191889953E0,-9.480853379E-2,-1.278317347E-2,-5.858954508E-3
1.193904114E0,-9.161274135E-2,-1.384843793E-2,-9.054748341E-3
1.195857239E0,-9.108011425E-2,-1.225054078E-2,-8.522115648E-3
1.197840881E0,-9.108011425E-2,-1.171790902E-2,-1.118527725E-2
1.199855041E0,-9.108011425E-2,-1.384843793E-2,-1.704423130E-2
1.201808166E0,-8.894958347E-2,-1.225054078E-2,-1.651159860E-2
1.203822326E0,-8.735168725E-2,-1.331580617E-2,-1.757686399E-2
1.205836487E0,-8.628641814E-2,-1.118527725E-2,-2.183792181E-2
1.207820129E0,-8.735168725E-2,-1.384843793E-2,-2.609897964E-2
1.209803772E0,-8.522115648E-2,-8.522115648E-3,-2.609897964E-2
1.211817932E0,-8.681905270E-2,-6.924218964E-3,-2.982740477E-2
1.213832092E0,-8.468852192E-2,-7.456851192E-3,-2.769687586E-2
1.215846252E0,-8.309062570E-2,-2.663161140E-3,-3.408846259E-2
1.217829895E0,-8.096009493E-2,-2.130528912E-3,-3.621899337E-2
1.219813537E0,-7.989483327E-2,-3.195793368E-3,-3.994741663E-2
1.221766662E0,-7.936219871E-2,5.326322280E-4,-3.941478580E-2
1.223750305E0,-7.723167539E-2,-1.065264456E-3,-4.101268202E-2
1.225764465E0,-7.723167539E-2,3.195793368E-3,-4.367584363E-2
1.227748108E0,-7.456851006E-2,2.130528912E-3,-4.420847446E-2
1.229731750E0,-7.137271762E-2,2.663161140E-3,-4.900216311E-2
1.231715393E0,-6.977482140E-2,3.728425596E-3,-5.060006306E-2
1.233729553E0,-6.604639441E-2,5.326322280E-3,-4.953479767E-2
1.235743713E0,-6.657902896E-2,6.391586736E-3,-5.060006306E-2
1.237696838E0,-6.285060197E-2,8.522115648E-3,-5.113269389E-2
1.239710998E0,-6.125270575E-2,9.054748341E-3,-5.273059011E-2
1.241694641E0,-5.858954415E-2,1.225054078E-2,-5.273059011E-2
1.243678283E0,-5.379585549E-2,1.171790902E-2,-5.539375171E-2
1.245661926E0,-5.486112088E-2,1.491370238E-2,-5.379585549E-2
1.247645569E0,-5.060006306E-2,1.544633508E-2,-5.432848632E-2
1.249659729E0,-5.113269389E-2,1.651159860E-2,-5.326322466E-2
1.251673889E0,-4.846953228E-2,1.704423130E-2,-5.699164793E-2
1.253627014E0,-4.900216311E-2,1.544633508E-2,-5.699164793E-2
1.255610656E0,-4.953479767E-2,1.651159860E-2,-5.912217870E-2
1.257624817E0,-4.580637068E-2,1.704423130E-2,-5.699164793E-2
1.259638977E0,-4.527373984E-2,2.077265643E-2,-5.858954415E-2
1.261592102E0,-4.367584363E-2,1.970739290E-2,-5.752427876E-2
1.263606262E0,-4.101268202E-2,2.183792181E-2,-5.645901710E-2
1.265620422E0,-3.941478580E-2,2.396845073E-2,-5.752427876E-2
1.267573547E0,-3.834952042E-2,2.503371425E-2,-5.592638254E-2
1.269557190E0,-3.515372798E-2,2.769687586E-2,-5.645901710E-2
1.271571350E0,-3.302319720E-2,3.089267015E-2,-5.699164793E-2
1.273585510E0,-2.982740477E-2,3.408846259E-2,-5.539375171E-2
1.275538635E0,-3.036003746E-2,4.207794741E-2,-5.592638254E-2
1.277522278E0,-2.716424316E-2,3.994741663E-2,-5.912217870E-2
1.279536438E0,-2.663161233E-2,4.633900523E-2,-5.805691332E-2
1.281489563E0,-2.450108156E-2,4.527373984E-2,-5.592638254E-2
1.283473205E0,-2.183792181E-2,4.953479767E-2,-5.912217870E-2
1.285487365E0,-2.130528912E-2,5.060006306E-2,-5.912217870E-2
1.287501526E0,-2.077265643E-2,4.900216311E-2,-5.805691332E-2
1.289515686E0,-2.077265643E-2,5.060006306E-2,-5.912217870E-2
1.291468811E0,-2.237055451E-2,4.793690145E-2,-5.858954415E-2
1.293452453E0,-2.343581803E-2,4.846953228E-2,-5.805691332E-2
1.295466614E0,-2.183792181E-2,4.740426689E-2,-5.912217870E-2
1.297480774E0,-1.810949668E-2,4.793690145E-2,-5.858954415E-2
1.299464416E0,-2.130528912E-2,4.846953228E-2,-5.699164793E-2
1.301448059E0,-2.130528912E-2,4.474110901E-2,-5.486112088E-2
1.303401184E0,-2.130528912E-2,4.580637068E-2,-5.912217870E-2
1.305415344E0,-2.024002373E-2,4.367584363E-2,-5.858954415E-2
1.307429504E0,-2.237055451E-2,4.527373984E-2,-5.645901710E-2
1.309413147E0,-2.290318534E-2,4.207794741E-2,-5.752427876E-2
1.311396789E0,-1.917476021E-2,4.261057824E-2,-6.125270575E-2
1.313410949E0,-2.183792181E-2,3.834952042E-2,-5.752427876E-2
1.315425110E0,-2.024002373E-2,4.048004746E-2,-5.805691332E-2
1.317439270E0,-2.024002373E-2,4.048004746E-2,-5.699164793E-2
1.319422912E0,-1.917476021E-2,3.888215125E-2,-6.018744037E-2
1.321376037E0,-1.917476021E-2,3.888215125E-2,-5.965480953E-2
1.323390197E0,-1.917476021E-2,3.781688958E-2,-5.592638254E-2
1.325404358E0,-1.864212751E-2,3.675162420E-2,-5.699164793E-2
1.327357483E0,-2.077265643E-2,3.462109342E-2,-6.072007492E-2
1.329341125E0,-1.864212751E-2,3.462109342E-2,-5.752427876E-2
1.331355285E0,-1.917476021E-2,3.355583176E-2,-5.699164793E-2
1.333369446E0,-1.864212751E-2,3.302319720E-2,-5.592638254E-2
1.335322571E0,-1.970739290E-2,3.249056637E-2,-5.219795927E-2
1.337306213E0,-1.864212751E-2,3.036003746E-2,-5.432848632E-2
1.339350891E0,-1.810949668E-2,3.408846259E-2,-5.326322466E-2
1.341273498E0,-1.704423130E-2,3.249056637E-2,-5.166532472E-2
1.343287658E0,-1.597896591E-2,3.408846259E-2,-5.219795927E-2
1.345301819E0,-1.544633508E-2,3.355583176E-2,-4.846953228E-2
1.347315979E0,-1.491370238E-2,3.462109342E-2,-4.793690145E-2
1.349269104E0,-1.438106969E-2,3.302319720E-2,-4.367584363E-2
1.351252746E0,-1.438106969E-2,3.355583176E-2,-4.633900523E-2
1.353266906E0,-1.065264456E-2,3.142530099E-2,-4.048004746E-2
1.355281067E0,-9.587380104E-3,3.249056637E-2,-3.888215125E-2
1.357234192E0,-9.587380104E-3,3.302319720E-2,-3.888215125E-2
1.359248352E0,-9.054748341E-3,2.982740477E-2,-3.888215125E-2
1.361231994E0,-9.587380104E-3,2.396845073E-2,-3.568635881E-2
1.363215637E0,-6.924218964E-3,2.183792181E-2,-3.408846259E-2
1.365199280E0,-5.858954508E-3,1.864212751E-2,-3.249056637E-2
1.367213440E0,-6.924218964E-3,1.331580617E-2,-3.036003746E-2
1.369227600E0,-4.261057824E-3,1.278317347E-2,-3.142530099E-2
1.371211242E0,-6.924218964E-3,1.331580617E-2,-2.822950855E-2
1.373194885E0,-1.171790902E-2,1.597896591E-2,-2.503371425E-2
1.375178528E0,-1.384843793E-2,1.491370238E-2,-2.556634694E-2
1.377192688E0,-1.651159860E-2,1.491370238E-2,-2.396845073E-2
1.379206848E0,-2.024002373E-2,1.278317347E-2,-1.970739290E-2
1.381190490E0,-2.237055451E-2,1.012001187E-2,-2.024002373E-2
1.383204651E0,-2.556634694E-2,5.326322280E-3,-1.704423130E-2
1.385188293E0,-2.769687586E-2,5.326322280E-4,-1.597896591E-2
1.387171936E0,-3.036003746E-2,-3.195793368E-3,-1.704423130E-2
1.389186096E0,-3.142530099E-2,-6.924218964E-3,-1.651159860E-2
1.391200256E0,-3.249056637E-2,-9.054748341E-3,-1.864212751E-2
1.393153381E0,-2.929477207E-2,-1.118527725E-2,-1.917476021E-2
1.395137024E0,-2.450108156E-2,-9.587380104E-3,-1.810949668E-2
1.397151184E0,-2.450108156E-2,-5.326322280E-3,-2.183792181E-2
1.399195862E0,-2.237055451E-2,-1.065264456E-3,-2.450108156E-2
1.401148987E0,-1.917476021E-2,2.663161140E-3,-2.130528912E-2
1.403132629E0,-1.970739290E-2,3.195793368E-3,-2.290318534E-2
1.405146789E0,-1.864212751E-2,8.522115648E-3,-2.503371425E-2
1.407160949E0,-2.024002373E-2,1.331580617E-2,-2.556634694E-2
1.409144592E0,-1.810949668E-2,1.651159860E-2,-2.503371425E-2
1.411128235E0,-2.237055451E-2,1.757686399E-2,-2.343581803E-2
1.413142395E0,-2.556634694E-2,1.810949668E-2,-2.237055451E-2
1.415156555E0,-2.663161233E-2,1.917476021E-2,-2.343581803E-2
1.417140197E0,-2.929477207E-2,2.130528912E-2,-2.237055451E-2
1.419154358E0,-3.195793182E-2,2.183792181E-2,-2.396845073E-2
1.421138000E0,-3.195793182E-2,2.237055451E-2,-2.396845073E-2
1.423121643E0,-3.568635881E-2,2.609897964E-2,-2.343581803E-2
1.425105285E0,-3.462109342E-2,2.450108156E-2,-2.769687586E-2
1.427119446E0,-3.781688958E-2,2.556634694E-2,-2.556634694E-2
1.429133606E0,-3.728425503E-2,2.609897964E-2,-2.450108156E-2
1.431117248E0,-3.834952042E-2,2.822950855E-2,-2.822950855E-2
1.433100891E0,-4.048004746E-2,2.716424316E-2,-2.556634694E-2
1.435115051E0,-3.941478580E-2,2.609897964E-2,-2.609897964E-2
1.437129211E0,-4.101268202E-2,2.716424316E-2,-2.556634694E-2
1.439173889E0,-4.474110901E-2,2.556634694E-2,-2.929477207E-2
1.441127014E0,-4.474110901E-2,2.343581803E-2,-2.876213938E-2
1.443110656E0,-4.474110901E-2,2.343581803E-2,-3.089267015E-2
1.445124817E0,-4.633900523E-2,2.450108156E-2,-3.142530099E-2
1.447138977E0,-4.740426689E-2,2.290318534E-2,-3.036003746E-2
1.449092102E0,-4.793690145E-2,2.130528912E-2,-3.089267015E-2
1.451075744E0,-4.953479767E-2,2.077265643E-2,-2.982740477E-2
1.453089905E0,-5.166532472E-2,1.704423130E-2,-2.982740477E-2
1.455104065E0,-4.900216311E-2,1.704423130E-2,-2.929477207E-2
1.457057190E0,-5.273059011E-2,1.491370238E-2,-3.355583176E-2
1.459071350E0,-5.273059011E-2,1.225054078E-2,-3.302319720E-2
1.461024475E0,-5.006742850E-2,1.704423130E-2,-3.249056637E-2
1.463008117E0,-5.166532472E-2,1.331580617E-2,-3.355583176E-2
1.465022278E0,-5.273059011E-2,9.587380104E-3,-3.195793182E-2
1.467005920E0,-5.432848632E-2,9.054748341E-3,-3.195793182E-2
1.468989563E0,-5.486112088E-2,1.012001187E-2,-3.142530099E-2
1.471003723E0,-5.326322466E-2,9.587380104E-3,-3.089267015E-2
1.473017883E0,-5.379585549E-2,7.456851192E-3,-3.195793182E-2
1.475001526E0,-5.432848632E-2,9.587380104E-3,-3.408846259E-2
1.476985168E0,-5.592638254E-2,8.522115648E-3,-3.089267015E-2
1.478999328E0,-5.752427876E-2,6.924218964E-3,-3.036003746E-2
1.480982971E0,-5.965480953E-2,1.118527725E-2,-3.089267015E-2
1.482936096E0,-5.699164793E-2,1.331580617E-2,-3.302319720E-2
1.484919739E0,-5.912217870E-2,1.597896591E-2,-3.408846259E-2
1.486933899E0,-5.965480953E-2,1.544633508E-2,-3.195793182E-2
1.488948059E0,-6.125270575E-2,1.651159860E-2,-3.249056637E-2
1.490901184E0,-6.018744037E-2,1.864212751E-2,-2.929477207E-2
1.492884826E0,-6.178534031E-2,1.757686399E-2,-3.408846259E-2
1.494898987E0,-6.231797114E-2,2.077265643E-2,-3.302319720E-2
1.496913147E0,-5.912217870E-2,2.130528912E-2,-2.982740477E-2
1.498896789E0,-6.125270575E-2,2.237055451E-2,-3.355583176E-2
1.500880432E0,-5.805691332E-2,2.343581803E-2,-3.195793182E-2
1.502864074E0,-5.539375171E-2,2.609897964E-2,-3.462109342E-2
1.504847717E0,-5.273059011E-2,2.503371425E-2,-3.142530099E-2
1.506861877E0,-5.060006306E-2,2.822950855E-2,-3.195793182E-2
1.508876037E0,-4.687163606E-2,2.982740477E-2,-3.089267015E-2
1.510859680E0,-4.367584363E-2,3.249056637E-2,-3.249056637E-2
1.512843322E0,-3.941478580E-2,3.302319720E-2,-3.036003746E-2
1.514857483E0,-3.675162420E-2,3.462109342E-2,-3.089267015E-2
1.516871643E0,-2.929477207E-2,3.728425503E-2,-3.302319720E-2
1.518885803E0,-2.556634694E-2,3.781688958E-2,-2.982740477E-2
1.520838928E0,-2.183792181E-2,4.101268202E-2,-2.876213938E-2
1.522853088E0,-1.704423130E-2,4.261057824E-2,-3.408846259E-2
1.524867248E0,-1.384843793E-2,4.261057824E-2,-3.355583176E-2
1.526881408E0,-7.456851192E-3,4.207794741E-2,-3.142530099E-2
1.528834533E0,-2.663161140E-3,4.101268202E-2,-3.355583176E-2
1.530818176E0,5.326322280E-4,4.154531285E-2,-3.462109342E-2
1.532832336E0,4.261057824E-3,4.154531285E-2,-3.355583176E-2
1.534815979E0,7.989482954E-3,3.728425503E-2,-3.621899337E-2
1.536799621E0,1.225054078E-2,3.728425503E-2,-3.675162420E-2
1.538844299E0,1.331580617E-2,3.515372798E-2,-3.941478580E-2
1.540797424E0,1.597896591E-2,3.515372798E-2,-3.941478580E-2
1.542781067E0,1.864212751E-2,3.355583176E-2,-4.154531285E-2
1.544795227E0,2.396845073E-2,3.675162420E-2,-4.154531285E-2
1.546778869E0,2.237055451E-2,3.568635881E-2,-4.367584363E-2
1.548762512E0,2.503371425E-2,3.355583176E-2,-4.687163606E-2
1.550776672E0,2.556634694E-2,3.355583176E-2,-4.846953228E-2
1.552790832E0,2.077265643E-2,3.355583176E-2,-4.633900523E-2
1.554774475E0,2.183792181E-2,3.142530099E-2,-5.273059011E-2
1.556758117E0,2.130528912E-2,3.142530099E-2,-5.060006306E-2
1.558772278E0,1.970739290E-2,2.982740477E-2,-5.166532472E-2
1.560755920E0,1.810949668E-2,2.876213938E-2,-5.219795927E-2
1.562739563E0,1.704423130E-2,2.982740477E-2,-5.326322466E-2
1.564723205E0,1.384843793E-2,2.769687586E-2,-5.592638254E-2
1.566737365E0,1.118527725E-2,2.769687586E-2,-5.592638254E-2
1.568751526E0,1.065264456E-2,3.195793182E-2,-5.379585549E-2
1.570765686E0,6.924218964E-3,3.089267015E-2,-5.432848632E-2
1.572718811E0,4.261057824E-3,3.195793182E-2,-5.219795927E-2
1.574702453E0,1.065264456E-3,3.355583176E-2,-5.805691332E-2
1.576716614E0,5.326322280E-4,3.355583176E-2,-5.486112088E-2
1.578730774E0,-1.597896684E-3,3.249056637E-2,-5.645901710E-2
1.580683899E0,-3.728425596E-3,3.302319720E-2,-5.912217870E-2
1.582698059E0,-3.728425596E-3,3.834952042E-2,-5.699164793E-2
1.584712219E0,-4.793690052E-3,4.048004746E-2,-6.231797114E-2
1.586665344E0,-5.326322280E-3,3.728425503E-2,-6.072007492E-2
1.588648987E0,-7.456851192E-3,3.888215125E-2,-6.338323653E-2
1.590663147E0,-8.522115648E-3,4.207794741E-2,-6.764429063E-2
1.592646789E0,-7.989482954E-3,4.261057824E-2,-6.551376730E-2
1.594630432E0,-9.054748341E-3,4.207794741E-2,-7.137271762E-2
1.596644592E0,-9.587380104E-3,4.314320907E-2,-7.243798673E-2
1.598658752E0,-1.544633508E-2,4.154531285E-2,-7.669904083E-2
1.600611877E0,-1.012001187E-2,4.367584363E-2,-7.989483327E-2
1.602595520E0,-1.012001187E-2,4.154531285E-2,-8.096009493E-2
1.604609680E0,-1.118527725E-2,3.941478580E-2,-8.255799860E-2
1.606623840E0,-1.118527725E-2,3.888215125E-2,-8.841694891E-2
1.608638000E0,-1.171790902E-2,4.048004746E-2,-9.108011425E-2
1.610591125E0,-1.225054078E-2,3.728425503E-2,-9.108011425E-2
1.612574768E0,-1.065264456E-2,3.728425503E-2,-9.374327213E-2
1.614588928E0,-1.278317347E-2,3.568635881E-2,-9.693906456E-2
1.616633606E0,-1.278317347E-2,3.728425503E-2,-9.640643001E-2
1.618586731E0,-1.225054078E-2,3.621899337E-2,-9.800432622E-2
1.620570373E0,-1.331580617E-2,3.568635881E-2,-9.800432622E-2
1.622554016E0,-1.225054078E-2,3.249056637E-2,-9.800432622E-2
1.624537658E0,-1.065264456E-2,3.142530099E-2,-9.747169912E-2
1.626551819E0,-1.065264456E-2,3.249056637E-2,-9.800432622E-2
1.628565979E0,-6.924218964E-3,3.302319720E-2,-9.321063757E-2
1.630519104E0,-5.858954508E-3,3.302319720E-2,-9.480853379E-2
1.632502746E0,-6.391586736E-3,3.462109342E-2,-9.427590668E-2
1.634516906E0,-5.858954508E-3,3.515372798E-2,-9.161274135E-2
1.636531067E0,-3.728425596E-3,3.249056637E-2,-8.894958347E-2
1.638514709E0,1.065264456E-3,3.355583176E-2,-8.788431436E-2
1.640467834E0,-1.597896684E-3,3.249056637E-2,-8.575379103E-2
1.642481994E0,-5.326322280E-4,3.249056637E-2,-8.628641814E-2
1.644465637E0,1.065264456E-3,2.929477207E-2,-8.522115648E-2
1.646449280E0,3.195793368E-3,3.142530099E-2,-8.415589482E-2
1.648463440E0,5.858954508E-3,2.982740477E-2,-8.575379103E-2
1.650477600E0,6.391586736E-3,2.609897964E-2,-8.415589482E-2
1.652461242E0,9.054748341E-3,2.343581803E-2,-8.522115648E-2
1.654444885E0,7.989482954E-3,2.450108156E-2,-8.788431436E-2
1.656459045E0,8.522115648E-3,1.864212751E-2,-9.001484513E-2
1.658473205E0,9.587380104E-3,1.597896591E-2,-9.161274135E-2
1.660426330E0,6.391586736E-3,1.597896591E-2,-9.534116834E-2
1.662440490E0,7.456851192E-3,1.278317347E-2,-9.640643001E-2
1.664454651E0,6.391586736E-3,1.012001187E-2,-1.001348570E-1
1.666468811E0,7.456851192E-3,1.012001187E-2,-1.022653878E-1
1.668421936E0,6.924218964E-3,9.587380104E-3,-1.059938148E-1
1.670405578E0,7.989482954E-3,6.924218964E-3,-1.097222418E-1
1.672419739E0,1.118527725E-2,7.456851192E-3,-1.118527651E-1
1.674433899E0,1.278317347E-2,8.522115648E-3,-1.171790883E-1
1.676417541E0,1.118527725E-2,7.456851192E-3,-1.182443574E-1
1.678431701E0,1.491370238E-2,7.989482954E-3,-1.225054115E-1
1.680415344E0,1.597896591E-2,6.924218964E-3,-1.230380461E-1
1.682429504E0,1.651159860E-2,1.065264456E-2,-1.278317273E-1
1.684413147E0,1.597896591E-2,1.012001187E-2,-1.283643693E-1
1.686396789E0,2.183792181E-2,5.858954508E-3,-1.304948926E-1
1.688410949E0,2.237055451E-2,4.261057824E-3,-1.315601617E-1
1.690425110E0,2.077265643E-2,5.326322280E-3,-1.310275346E-1
1.692408752E0,2.130528912E-2,3.728425596E-3,-1.315601617E-1
1.694392395E0,1.970739290E-2,2.663161140E-3,-1.320927888E-1
1.696406555E0,2.077265643E-2,2.130528912E-3,-1.336906850E-1
1.698420715E0,1.970739290E-2,1.597896684E-3,-1.299622655E-1
1.700373840E0,1.917476021E-2,5.326322280E-4,-1.294296384E-1
1.702388000E0,1.757686399E-2,-1.597896684E-3,-1.288969964E-1
1.704371643E0,1.491370238E-2,-4.793690052E-3,-1.278317273E-1
1.706355285E0,1.171790902E-2,-6.391586736E-3,-1.267664731E-1
1.708369446E0,1.171790902E-2,-7.456851192E-3,-1.272991002E-1
1.710383606E0,9.054748341E-3,-7.989482954E-3,-1.262338310E-1
1.712367248E0,5.858954508E-3,-1.118527725E-2,-1.257012039E-1
1.714350891E0,5.326322280E-3,-1.118527725E-2,-1.235706806E-1
1.716365051E0,-1.065264456E-3,-1.225054078E-2,-1.262338310E-1
1.718409729E0,-5.326322280E-4,-1.438106969E-2,-1.214401498E-1
1.720362854E0,-5.326322280E-3,-1.597896591E-2,-1.219727769E-1
1.722346496E0,-7.989482954E-3,-1.278317347E-2,-1.193096191E-1
1.724360656E0,-9.054748341E-3,-1.491370238E-2,-1.182443574E-1
1.726374817E0,-1.171790902E-2,-1.810949668E-2,-1.161138266E-1
1.728388977E0,-1.704423130E-2,-1.917476021E-2,-1.118527651E-1
1.730342102E0,-1.757686399E-2,-2.183792181E-2,-1.086569726E-1
1.732325744E0,-2.290318534E-2,-2.450108156E-2,-1.134506613E-1
1.734339905E0,-2.822950855E-2,-2.609897964E-2,-1.107875034E-1
1.736354065E0,-3.408846259E-2,-2.876213938E-2,-1.107875034E-1
1.738337707E0,-3.568635881E-2,-3.142530099E-2,-1.129180342E-1
1.740321350E0,-3.781688958E-2,-3.515372798E-2,-1.102548689E-1
1.742304992E0,-4.527373984E-2,-3.834952042E-2,-1.107875034E-1
1.744288635E0,-4.633900523E-2,-3.781688958E-2,-1.102548689E-1
1.746272278E0,-4.900216311E-2,-3.834952042E-2,-1.123853996E-1
1.748286438E0,-5.432848632E-2,-3.888215125E-2,-1.139832959E-1
1.750270080E0,-5.486112088E-2,-4.207794741E-2,-1.134506613E-1
1.752253723E0,-6.072007492E-2,-3.994741663E-2,-1.134506613E-1
1.754237365E0,-6.072007492E-2,-3.728425503E-2,-1.139832959E-1
1.756251526E0,-6.231797114E-2,-3.195793182E-2,-1.134506613E-1
1.758265686E0,-6.072007492E-2,-2.982740477E-2,-1.129180342E-1
1.760218811E0,-6.125270575E-2,-3.249056637E-2,-1.102548689E-1
1.762232971E0,-5.965480953E-2,-2.663161233E-2,-1.107875034E-1
1.764247131E0,-5.965480953E-2,-2.343581803E-2,-1.091896072E-1
1.766230774E0,-5.699164793E-2,-2.290318534E-2,-1.081243455E-1
1.768214416E0,-5.539375171E-2,-1.704423130E-2,-1.033306494E-1
1.770228576E0,-5.219795927E-2,-1.597896591E-2,-1.043959185E-1
1.772242737E0,-5.006742850E-2,-1.065264456E-2,-1.027980223E-1
1.774226379E0,-4.687163606E-2,-8.522115648E-3,-1.022653878E-1
1.776210022E0,-3.941478580E-2,-6.924218964E-3,-9.906959534E-2
1.778254699E0,-4.154531285E-2,-3.728425596E-3,-1.001348570E-1
1.780207824E0,-3.568635881E-2,-1.065264456E-3,-9.534116834E-2
1.782191467E0,-3.249056637E-2,5.326322280E-4,-9.640643001E-2
1.784205627E0,-2.663161233E-2,1.597896684E-3,-9.214537591E-2
1.786189270E0,-2.663161233E-2,1.597896684E-3,-9.534116834E-2
1.788172912E0,-2.343581803E-2,5.326322280E-4,-9.321063757E-2
1.790187072E0,-1.704423130E-2,-5.326322280E-4,-9.108011425E-2
1.792201233E0,-1.438106969E-2,1.065264456E-3,-9.214537591E-2
1.794215393E0,-1.597896591E-2,-4.793690052E-3,-9.374327213E-2
1.796168518E0,-1.171790902E-2,-7.456851192E-3,-8.948221803E-2
1.798182678E0,-9.587380104E-3,-7.989482954E-3,-9.108011425E-2
1.800166321E0,-7.989482954E-3,-1.012001187E-2,-9.267801046E-2
1.802180481E0,-7.989482954E-3,-1.171790902E-2,-9.267801046E-2
1.804133606E0,-2.663161140E-3,-1.438106969E-2,-9.534116834E-2
1.806117248E0,-1.065264456E-3,-1.491370238E-2,-9.587380290E-2
1.808131408E0,-5.326322280E-4,-1.704423130E-2,-9.427590668E-2
1.810115051E0,3.728425596E-3,-1.651159860E-2,-9.853696078E-2
1.812098694E0,6.391586736E-3,-1.757686399E-2,-1.012001261E-1
1.814082336E0,5.326322280E-3,-2.024002373E-2,-9.906959534E-2
1.816096496E0,9.587380104E-3,-2.183792181E-2,-9.960222989E-2
1.818110656E0,8.522115648E-3,-2.077265643E-2,-1.012001261E-1
1.820063781E0,9.587380104E-3,-2.024002373E-2,-1.012001261E-1
1.822077942E0,6.924218964E-3,-2.237055451E-2,-1.033306494E-1
1.824061584E0,8.522115648E-3,-2.290318534E-2,-1.022653878E-1
1.826045227E0,8.522115648E-3,-2.183792181E-2,-1.027980223E-1
1.828059387E0,4.261057824E-3,-2.556634694E-2,-1.017327532E-1
1.830073547E0,3.195793368E-3,-2.609897964E-2,-1.033306494E-1
1.832057190E0,1.597896684E-3,-2.822950855E-2,-1.033306494E-1
1.834040832E0,-2.663161140E-3,-3.036003746E-2,-1.049285457E-1
1.836054992E0,-4.793690052E-3,-3.195793182E-2,-1.043959185E-1
1.838069153E0,-1.065264456E-2,-3.089267015E-2,-1.033306494E-1
1.840022278E0,-1.331580617E-2,-3.355583176E-2,-1.043959185E-1
1.842005920E0,-2.024002373E-2,-3.302319720E-2,-1.027980223E-1
1.844020080E0,-2.450108156E-2,-3.249056637E-2,-1.038632840E-1
1.846034240E0,-2.929477207E-2,-3.089267015E-2,-1.012001261E-1
1.848017883E0,-3.355583176E-2,-3.249056637E-2,-1.012001261E-1
1.850001526E0,-3.834952042E-2,-3.302319720E-2,-1.001348570E-1
1.851985168E0,-4.367584363E-2,-2.929477207E-2,-9.906959534E-2
1.853999328E0,-4.900216311E-2,-2.822950855E-2,-1.001348570E-1
1.856013489E0,-5.379585549E-2,-2.769687586E-2,-9.693906456E-2
1.857997131E0,-5.858954415E-2,-2.450108156E-2,-1.006674916E-1
1.859950256E0,-6.018744037E-2,-2.237055451E-2,-9.906959534E-2
1.861933899E0,-6.764429063E-2,-2.130528912E-2,-9.800432622E-2
1.863948059E0,-7.030745596E-2,-1.917476021E-2,-9.853696078E-2
1.865962219E0,-7.297061384E-2,-1.544633508E-2,-9.640643001E-2
1.867945862E0,-7.616640627E-2,-1.491370238E-2,-9.747169912E-2
1.869929504E0,-7.616640627E-2,-1.278317347E-2,-1.001348570E-1
1.871943664E0,-8.149272949E-2,-1.012001187E-2,-9.800432622E-2
1.873957824E0,-8.149272949E-2,-7.989482954E-3,-1.001348570E-1
1.875941467E0,-8.468852192E-2,-5.858954508E-3,-9.800432622E-2
1.877955627E0,-8.894958347E-2,-6.391586736E-3,-1.012001261E-1
1.879908752E0,-8.894958347E-2,-2.130528912E-3,-1.006674916E-1
1.881922912E0,-9.001484513E-2,-3.728425596E-3,-1.001348570E-1
1.883906555E0,-9.214537591E-2,-5.326322280E-4,-1.033306494E-1
1.885890197E0,-9.321063757E-2,-1.597896684E-3,-1.033306494E-1
1.887904358E0,-9.267801046E-2,-2.130528912E-3,-1.006674916E-1
1.889918518E0,-9.693906456E-2,0.000000000E0,-1.027980223E-1
1.891902160E0,-9.587380290E-2,-1.597896684E-3,-1.012001261E-1
1.893885803E0,-9.640643001E-2,-1.597896684E-3,-1.059938148E-1
1.895899963E0,-9.374327213E-2,-3.195793368E-3,-1.038632840E-1
1.897914123E0,-9.321063757E-2,-1.065264456E-3,-1.022653878E-1
1.899867248E0,-9.321063757E-2,-1.597896684E-3,-9.906959534E-2
1.901881408E0,-8.735168725E-2,1.065264456E-3,-9.853696078E-2
1.903895569E0,-8.255799860E-2,1.597896684E-3,-1.006674916E-1
1.905879211E0,-8.255799860E-2,1.597896684E-3,-9.960222989E-2
1.907862854E0,-7.936219871E-2,3.728425596E-3,-1.001348570E-1
1.909877014E0,-7.403588295E-2,5.326322280E-3,-9.747169912E-2
1.911891174E0,-6.977482140E-2,4.793690052E-3,-9.853696078E-2
1.913874817E0,-6.764429063E-2,6.924218964E-3,-9.587380290E-2
1.915858459E0,-6.178534031E-2,7.989482954E-3,-9.534116834E-2
1.917872619E0,-5.432848632E-2,8.522115648E-3,-9.054747969E-2
1.919856262E0,-4.687163606E-2,9.054748341E-3,-9.427590668E-2
1.921839905E0,-4.154531285E-2,9.587380104E-3,-9.214537591E-2
1.923823547E0,-3.888215125E-2,7.989482954E-3,-9.054747969E-2
1.925837707E0,-3.302319720E-2,7.989482954E-3,-9.161274135E-2
1.927851867E0,-2.609897964E-2,4.793690052E-3,-9.054747969E-2
1.929835510E0,-2.343581803E-2,4.261057824E-3,-8.948221803E-2
1.931819153E0,-1.970739290E-2,1.597896684E-3,-8.628641814E-2
1.933833313E0,-1.491370238E-2,-2.663161140E-3,-8.628641814E-2
1.935847473E0,-1.331580617E-2,-6.391586736E-3,-8.841694891E-2
1.937861633E0,-1.012001187E-2,-1.118527725E-2,-8.628641814E-2
1.939845276E0,-9.054748341E-3,-1.491370238E-2,-8.788431436E-2
1.941859436E0,-5.326322280E-3,-2.130528912E-2,-9.054747969E-2
1.943843078E0,-3.195793368E-3,-2.450108156E-2,-8.841694891E-2
1.945857239E0,-5.326322280E-4,-2.876213938E-2,-8.735168725E-2
1.947871399E0,-5.326322280E-4,-3.408846259E-2,-8.735168725E-2
1.949885559E0,-3.195793368E-3,-3.675162420E-2,-8.841694891E-2
1.951838684E0,-5.326322280E-4,-3.781688958E-2,-8.628641814E-2
1.953822326E0,0.000000000E0,-3.994741663E-2,-8.735168725E-2
1.955836487E0,-3.195793368E-3,-4.420847446E-2,-8.575379103E-2
1.957881164E0,-1.065264456E-3,-4.474110901E-2,-8.309062570E-2
1.959834289E0,-3.728425596E-3,-4.367584363E-2,-8.575379103E-2
1.961817932E0,-2.663161140E-3,-4.740426689E-2,-8.309062570E-2
1.963832092E0,-6.391586736E-3,-4.953479767E-2,-8.042746782E-2
1.965846252E0,-8.522115648E-3,-4.953479767E-2,-7.936219871E-2
1.967799377E0,-7.989482954E-3,-4.953479767E-2,-7.563377917E-2
1.969783020E0,-9.587380104E-3,-5.113269389E-2,-7.510114461E-2
1.971797180E0,-1.384843793E-2,-4.900216311E-2,-7.243798673E-2
1.973811340E0,-1.651159860E-2,-4.633900523E-2,-7.190535218E-2
1.975764465E0,-1.757686399E-2,-4.793690145E-2,-6.764429063E-2
1.977778625E0,-2.183792181E-2,-4.580637068E-2,-6.764429063E-2
1.979731750E0,-2.450108156E-2,-4.261057824E-2,-6.604639441E-2
1.981715393E0,-2.716424316E-2,-3.994741663E-2,-6.072007492E-2
1.983729553E0,-2.716424316E-2,-3.888215125E-2,-6.018744037E-2
1.985743713E0,-2.876213938E-2,-3.728425503E-2,-5.965480953E-2
1.987727356E0,-3.142530099E-2,-3.515372798E-2,-5.858954415E-2
1.989710998E0,-3.195793182E-2,-3.408846259E-2,-5.379585549E-2
1.991694641E0,-3.408846259E-2,-3.568635881E-2,-5.166532472E-2
1.993708801E0,-3.462109342E-2,-3.408846259E-2,-5.486112088E-2
1.995722961E0,-3.462109342E-2,-3.302319720E-2,-5.432848632E-2
1.997706604E0,-3.515372798E-2,-3.515372798E-2,-5.006742850E-2
1.999659729E0,-4.154531285E-2,-3.728425503E-2,-4.900216311E-2
2.001673889E0,-4.207794741E-2,-4.101268202E-2,-4.900216311E-2
2.003688049E0,-4.740426689E-2,-4.261057824E-2,-5.166532472E-2
2.005641174E0,-4.527373984E-2,-4.420847446E-2,-5.006742850E-2
2.007624817E0,-4.687163606E-2,-4.580637068E-2,-5.113269389E-2
2.009638977E0,-5.219795927E-2,-5.060006306E-2,-5.219795927E-2
2.011622619E0,-5.379585549E-2,-5.166532472E-2,-5.379585549E-2
2.013606262E0,-5.592638254E-2,-5.219795927E-2,-5.113269389E-2
2.015650940E0,-5.592638254E-2,-5.379585549E-2,-5.113269389E-2
2.017634582E0,-5.592638254E-2,-5.539375171E-2,-4.900216311E-2
2.019587707E0,-5.752427876E-2,-5.432848632E-2,-5.006742850E-2
2.021601867E0,-5.539375171E-2,-5.166532472E-2,-4.953479767E-2
2.023585510E0,-5.645901710E-2,-5.326322466E-2,-4.953479767E-2
2.025569153E0,-5.539375171E-2,-5.166532472E-2,-4.633900523E-2
2.027583313E0,-5.645901710E-2,-4.953479767E-2,-4.633900523E-2
2.029597473E0,-5.486112088E-2,-4.687163606E-2,-4.420847446E-2
2.031611633E0,-5.326322466E-2,-4.314320907E-2,-4.207794741E-2
2.033564758E0,-5.379585549E-2,-4.101268202E-2,-4.207794741E-2
2.035548401E0,-5.219795927E-2,-3.621899337E-2,-4.048004746E-2
2.037562561E0,-4.900216311E-2,-3.355583176E-2,-3.888215125E-2
2.039515686E0,-4.527373984E-2,-2.929477207E-2,-3.941478580E-2
2.041499328E0,-4.474110901E-2,-2.716424316E-2,-3.462109342E-2
2.043513489E0,-4.207794741E-2,-2.130528912E-2,-3.355583176E-2
2.045527649E0,-3.888215125E-2,-2.130528912E-2,-3.302319720E-2
2.047541809E0,-3.621899337E-2,-1.704423130E-2,-2.929477207E-2
2.049494934E0,-3.142530099E-2,-1.225054078E-2,-2.609897964E-2
2.051478576E0,-3.089267015E-2,-1.331580617E-2,-2.609897964E-2
2.053492737E0,-2.396845073E-2,-9.587380104E-3,-2.450108156E-2
2.055506897E0,-2.450108156E-2,-1.065264456E-2,-2.237055451E-2
2.057490539E0,-2.343581803E-2,-7.456851192E-3,-2.503371425E-2
2.059474182E0,-2.183792181E-2,-8.522115648E-3,-2.077265643E-2
2.061457824E0,-1.810949668E-2,-5.858954508E-3,-1.917476021E-2
2.063441467E0,-1.864212751E-2,-7.989482954E-3,-1.970739290E-2
2.065455627E0,-1.544633508E-2,-6.924218964E-3,-2.183792181E-2
2.067469787E0,-1.491370238E-2,-6.924218964E-3,-1.651159860E-2
2.069453430E0,-1.544633508E-2,-7.456851192E-3,-2.130528912E-2
2.071437072E0,-1.012001187E-2,-1.012001187E-2,-1.864212751E-2
2.073451233E0,-1.012001187E-2,-9.054748341E-3,-1.864212751E-2
2.075465393E0,-9.054748341E-3,-1.331580617E-2,-2.130528912E-2
2.077510071E0,-5.858954508E-3,-7.989482954E-3,-2.130528912E-2
2.079463196E0,-5.858954508E-3,-1.225054078E-2,-1.864212751E-2
2.081446838E0,-3.195793368E-3,-1.171790902E-2,-2.130528912E-2
2.083460998E0,-1.065264456E-3,-1.118527725E-2,-1.491370238E-2
2.085475158E0,5.326322280E-4,-1.331580617E-2,-1.597896591E-2
2.087458801E0,1.065264456E-3,-1.331580617E-2,-1.757686399E-2
2.089442444E0,1.597896684E-3,-1.278317347E-2,-1.651159860E-2
2.091456604E0,2.130528912E-3,-1.438106969E-2,-1.491370238E-2
2.093470764E0,4.793690052E-3,-1.544633508E-2,-1.704423130E-2
2.095454406E0,4.793690052E-3,-1.651159860E-2,-1.118527725E-2
2.097468567E0,4.793690052E-3,-1.651159860E-2,-1.171790902E-2
2.099452209E0,4.793690052E-3,-1.491370238E-2,-1.544633508E-2
2.101405334E0,4.793690052E-3,-1.757686399E-2,-1.331580617E-2
2.103419494E0,3.728425596E-3,-1.704423130E-2,-1.225054078E-2
2.105433655E0,4.261057824E-3,-1.917476021E-2,-1.278317347E-2
2.107417297E0,4.261057824E-3,-1.651159860E-2,-1.491370238E-2
2.109400940E0,3.728425596E-3,-1.651159860E-2,-1.544633508E-2
2.111415100E0,2.130528912E-3,-1.864212751E-2,-1.278317347E-2
2.113429260E0,2.663161140E-3,-1.704423130E-2,-1.384843793E-2
2.115443420E0,3.195793368E-3,-1.384843793E-2,-1.012001187E-2
2.117427063E0,1.065264456E-3,-1.384843793E-2,-1.544633508E-2
2.119380188E0,1.065264456E-3,-1.438106969E-2,-1.171790902E-2
2.121394348E0,5.326322280E-4,-1.597896591E-2,-1.171790902E-2
2.123377990E0,1.597896684E-3,-1.225054078E-2,-1.171790902E-2
2.125361633E0,0.000000000E0,-1.384843793E-2,-1.118527725E-2
2.127375793E0,-2.130528912E-3,-9.587380104E-3,-1.065264456E-2
2.129389953E0,-1.597896684E-3,-1.065264456E-2,-8.522115648E-3
2.131404114E0,-4.261057824E-3,-6.924218964E-3,-1.065264456E-2
2.133357239E0,-5.326322280E-4,-6.924218964E-3,-7.456851192E-3
2.135340881E0,-4.261057824E-3,-2.130528912E-3,-9.587380104E-3
2.137355041E0,-4.261057824E-3,-3.195793368E-3,-8.522115648E-3
2.139308166E0,-2.663161140E-3,-5.326322280E-4,-5.326322280E-3
2.141322326E0,-3.195793368E-3,-2.663161140E-3,-3.728425596E-3
2.143336487E0,-2.663161140E-3,3.728425596E-3,0.000000000E0
2.145320129E0,-3.195793368E-3,3.728425596E-3,1.597896684E-3
2.147303772E0,-1.597896684E-3,6.391586736E-3,-5.326322280E-4
2.149287414E0,5.326322280E-4,8.522115648E-3,1.597896684E-3
2.151301574E0,5.326322280E-4,9.054748341E-3,3.728425596E-3
2.153285217E0,5.326322280E-4,7.989482954E-3,3.728425596E-3
2.155268860E0,5.326322280E-4,1.171790902E-2,4.261057824E-3
2.157283020E0,2.663161140E-3,1.012001187E-2,3.195793368E-3
2.159266662E0,2.130528912E-3,1.225054078E-2,3.195793368E-3
2.161250305E0,4.793690052E-3,1.438106969E-2,3.195793368E-3
2.163233947E0,2.663161140E-3,1.225054078E-2,3.195793368E-3
2.165248108E0,6.924218964E-3,1.225054078E-2,2.130528912E-3
2.167262268E0,8.522115648E-3,1.491370238E-2,2.130528912E-3
2.169245910E0,4.793690052E-3,1.278317347E-2,5.326322280E-4
2.171229553E0,7.989482954E-3,1.331580617E-2,-1.065264456E-3
2.173243713E0,7.456851192E-3,1.331580617E-2,-2.130528912E-3
2.175257873E0,7.456851192E-3,1.864212751E-2,-3.195793368E-3
2.177272033E0,6.391586736E-3,1.384843793E-2,-2.663161140E-3
2.179225158E0,6.924218964E-3,1.544633508E-2,-4.261057824E-3
2.181239319E0,7.989482954E-3,1.651159860E-2,-4.261057824E-3
2.183222961E0,1.065264456E-2,1.864212751E-2,-2.663161140E-3
2.185206604E0,1.012001187E-2,1.970739290E-2,-4.261057824E-3
2.187220764E0,1.438106969E-2,2.077265643E-2,-4.261057824E-3
2.189234924E0,1.544633508E-2,2.183792181E-2,-1.597896684E-3
2.191188049E0,1.331580617E-2,2.237055451E-2,-3.195793368E-3
2.193171692E0,1.864212751E-2,2.183792181E-2,-2.663161140E-3
2.195185852E0,1.757686399E-2,2.130528912E-2,5.326322280E-4
2.197230530E0,1.970739290E-2,2.130528912E-2,-2.130528912E-3
2.199183655E0,1.970739290E-2,2.077265643E-2,-1.065264456E-3
2.201167297E0,2.024002373E-2,2.343581803E-2,3.728425596E-3
2.203181457E0,2.183792181E-2,2.183792181E-2,1.597896684E-3
2.205195617E0,2.290318534E-2,2.237055451E-2,4.793690052E-3
2.207148742E0,2.183792181E-2,2.183792181E-2,4.261057824E-3
2.209132385E0,2.716424316E-2,2.396845073E-2,8.522115648E-3
2.211146545E0,2.769687586E-2,2.237055451E-2,7.989482954E-3
2.213160705E0,2.876213938E-2,2.343581803E-2,1.225054078E-2
2.215113830E0,2.929477207E-2,2.130528912E-2,1.331580617E-2
2.217127990E0,3.142530099E-2,2.396845073E-2,1.225054078E-2
2.219081115E0,3.249056637E-2,2.290318534E-2,1.384843793E-2
2.221064758E0,3.568635881E-2,2.183792181E-2,1.544633508E-2
2.223078918E0,3.568635881E-2,2.183792181E-2,1.651159860E-2
2.225093078E0,3.515372798E-2,1.917476021E-2,1.597896591E-2
2.227107239E0,3.568635881E-2,2.183792181E-2,1.704423130E-2
2.229060364E0,3.036003746E-2,1.970739290E-2,1.970739290E-2
2.231044006E0,3.408846259E-2,1.917476021E-2,1.917476021E-2
2.233058166E0,3.302319720E-2,2.077265643E-2,1.970739290E-2
2.235041809E0,3.249056637E-2,1.491370238E-2,1.704423130E-2
2.237055969E0,3.249056637E-2,1.438106969E-2,2.024002373E-2
2.239009094E0,2.929477207E-2,1.278317347E-2,1.864212751E-2
2.241023254E0,3.142530099E-2,1.384843793E-2,1.810949668E-2
2.243006897E0,2.822950855E-2,1.118527725E-2,1.597896591E-2
2.244990539E0,2.556634694E-2,1.065264456E-2,1.491370238E-2
2.247004699E0,2.663161233E-2,1.012001187E-2,1.704423130E-2
2.249018860E0,2.769687586E-2,6.924218964E-3,1.651159860E-2
2.251033020E0,2.450108156E-2,6.924218964E-3,1.384843793E-2
2.252986145E0,2.290318534E-2,8.522115648E-3,1.491370238E-2
2.254969787E0,2.237055451E-2,8.522115648E-3,1.704423130E-2
2.256983947E0,2.024002373E-2,7.989482954E-3,1.651159860E-2
2.258937072E0,1.757686399E-2,5.858954508E-3,1.757686399E-2
2.260951233E0,1.651159860E-2,5.858954508E-3,1.704423130E-2
2.262934875E0,1.810949668E-2,8.522115648E-3,1.491370238E-2
2.264918518E0,1.331580617E-2,5.326322280E-3,1.597896591E-2
2.266932678E0,1.065264456E-2,4.793690052E-3,1.544633508E-2
2.268946838E0,8.522115648E-3,4.261057824E-3,1.544633508E-2
2.270930481E0,9.054748341E-3,3.195793368E-3,1.704423130E-2
2.272914123E0,5.326322280E-3,3.728425596E-3,1.544633508E-2
2.274928283E0,5.858954508E-3,5.858954508E-3,1.544633508E-2
2.276942444E0,2.663161140E-3,7.989482954E-3,1.651159860E-2
2.278895569E0,1.065264456E-3,5.858954508E-3,1.704423130E-2
2.280879211E0,4.261057824E-3,8.522115648E-3,1.651159860E-2
2.282893371E0,5.326322280E-3,7.989482954E-3,1.917476021E-2
2.284907531E0,5.326322280E-3,1.065264456E-2,2.077265643E-2
2.286891174E0,5.326322280E-3,1.225054078E-2,2.130528912E-2
2.288874817E0,6.924218964E-3,1.491370238E-2,2.396845073E-2
2.290858459E0,7.989482954E-3,1.704423130E-2,2.716424316E-2
2.292872619E0,1.171790902E-2,1.651159860E-2,2.769687586E-2
2.294856262E0,1.171790902E-2,2.024002373E-2,3.195793182E-2
2.296870422E0,1.278317347E-2,2.183792181E-2,3.515372798E-2
2.298854065E0,1.438106969E-2,1.917476021E-2,3.728425503E-2
2.300837707E0,1.544633508E-2,2.396845073E-2,3.994741663E-2
2.302821350E0,1.917476021E-2,2.450108156E-2,4.261057824E-2
2.304835510E0,1.970739290E-2,2.609897964E-2,4.154531285E-2
2.306849670E0,2.343581803E-2,2.556634694E-2,4.314320907E-2
2.308833313E0,2.237055451E-2,2.609897964E-2,4.207794741E-2
2.310816955E0,2.769687586E-2,2.769687586E-2,4.420847446E-2
2.312831115E0,2.663161233E-2,2.876213938E-2,4.420847446E-2
2.314845276E0,3.195793182E-2,2.822950855E-2,4.261057824E-2
2.316889953E0,3.089267015E-2,2.716424316E-2,4.367584363E-2
2.318843078E0,3.355583176E-2,3.089267015E-2,4.154531285E-2
2.320826721E0,3.675162420E-2,2.929477207E-2,4.101268202E-2
2.322840881E0,3.834952042E-2,2.929477207E-2,3.994741663E-2
2.324855041E0,4.101268202E-2,2.929477207E-2,3.834952042E-2
2.326808166E0,4.101268202E-2,2.769687586E-2,3.728425503E-2
2.328791809E0,4.367584363E-2,2.663161233E-2,3.728425503E-2
2.330805969E0,4.314320907E-2,2.130528912E-2,3.675162420E-2
2.332820129E0,4.740426689E-2,1.864212751E-2,3.142530099E-2
2.334773254E0,4.420847446E-2,1.438106969E-2,3.142530099E-2
2.336817932E0,4.527373984E-2,1.544633508E-2,3.036003746E-2
2.338771057E0,4.420847446E-2,1.012001187E-2,2.982740477E-2
2.340754699E0,4.633900523E-2,9.054748341E-3,2.929477207E-2
2.342768860E0,4.314320907E-2,7.456851192E-3,2.556634694E-2
2.344752502E0,4.527373984E-2,2.663161140E-3,2.663161233E-2
2.346736145E0,4.420847446E-2,0.000000000E0,2.822950855E-2
2.348750305E0,4.420847446E-2,-1.597896684E-3,2.663161233E-2
2.350764465E0,4.261057824E-2,-1.597896684E-3,2.929477207E-2
2.352748108E0,4.367584363E-2,-3.728425596E-3,2.822950855E-2
2.354731750E0,4.261057824E-2,-2.130528912E-3,3.036003746E-2
2.356745910E0,4.101268202E-2,-5.326322280E-4,3.355583176E-2
2.358729553E0,3.941478580E-2,-2.130528912E-3,3.462109342E-2
2.360713196E0,3.781688958E-2,1.065264456E-3,3.941478580E-2
2.362696838E0,3.675162420E-2,4.261057824E-3,3.781688958E-2
2.364680481E0,3.568635881E-2,7.989482954E-3,3.675162420E-2
2.366694641E0,3.621899337E-2,9.587380104E-3,3.994741663E-2
2.368678283E0,3.408846259E-2,1.331580617E-2,3.994741663E-2
2.370661926E0,3.195793182E-2,1.810949668E-2,4.154531285E-2
2.372645569E0,3.142530099E-2,2.716424316E-2,4.207794741E-2
2.374659729E0,3.249056637E-2,3.089267015E-2,4.207794741E-2
2.376673889E0,2.929477207E-2,3.462109342E-2,4.207794741E-2
2.378627014E0,2.929477207E-2,4.101268202E-2,4.527373984E-2
2.380641174E0,2.876213938E-2,4.527373984E-2,4.314320907E-2
2.382624817E0,2.822950855E-2,4.900216311E-2,4.154531285E-2
2.384608459E0,2.822950855E-2,5.699164793E-2,4.314320907E-2
2.386622619E0,2.396845073E-2,6.178534031E-2,4.048004746E-2
2.388636780E0,2.769687586E-2,6.711166352E-2,3.994741663E-2
2.390620422E0,2.822950855E-2,7.350324839E-2,3.888215125E-2
2.392604065E0,2.769687586E-2,8.255799860E-2,3.781688958E-2
2.394618225E0,2.769687586E-2,8.681905270E-2,3.621899337E-2
2.396632385E0,3.036003746E-2,9.374327213E-2,3.621899337E-2
2.398585510E0,3.195793182E-2,9.906959534E-2,3.462109342E-2
2.400569153E0,3.355583176E-2,1.049285457E-1,3.302319720E-2
2.402583313E0,3.728425503E-2,1.091896072E-1,3.142530099E-2
2.404597473E0,4.048004746E-2,1.155811921E-1,3.142530099E-2
2.406581115E0,4.154531285E-2,1.203748807E-1,2.929477207E-2
2.408564758E0,4.474110901E-2,1.267664731E-1,3.036003746E-2
2.410578918E0,4.740426689E-2,1.299622655E-1,2.822950855E-2
2.412593078E0,5.166532472E-2,1.336906850E-1,2.822950855E-2
2.414637756E0,5.379585549E-2,1.358212233E-1,3.036003746E-2
2.416590881E0,5.645901710E-2,1.400822699E-1,2.929477207E-2
2.418574524E0,6.178534031E-2,1.438107044E-1,2.876213938E-2
2.420558166E0,6.711166352E-2,1.470064968E-1,2.769687586E-2
2.422541809E0,7.084008306E-2,1.470064968E-1,2.982740477E-2
2.424555969E0,7.297061384E-2,1.523328125E-1,2.822950855E-2
2.426539612E0,7.563377917E-2,1.496696621E-1,3.036003746E-2
2.428523254E0,7.989483327E-2,1.512675583E-1,3.036003746E-2
2.430537414E0,8.415589482E-2,1.533980817E-1,3.036003746E-2
2.432551574E0,8.575379103E-2,1.528654546E-1,3.462109342E-2
2.434535217E0,8.948221803E-2,1.528654546E-1,3.036003746E-2
2.436549377E0,9.054747969E-2,1.528654546E-1,3.302319720E-2
2.438502502E0,9.321063757E-2,1.549959779E-1,3.355583176E-2
2.440516662E0,9.214537591E-2,1.549959779E-1,2.982740477E-2
2.442500305E0,9.587380290E-2,1.533980817E-1,3.036003746E-2
2.444483947E0,9.853696078E-2,1.539307088E-1,3.089267015E-2
2.446467590E0,9.960222989E-2,1.565938741E-1,3.195793182E-2
2.448481750E0,1.022653878E-1,1.576591432E-1,2.982740477E-2
2.450465393E0,1.038632840E-1,1.592570394E-1,3.089267015E-2
2.452449035E0,1.017327532E-1,1.560612470E-1,3.142530099E-2
2.454432678E0,1.001348570E-1,1.571265012E-1,3.462109342E-2
2.456446838E0,1.012001261E-1,1.576591432E-1,3.355583176E-2
2.458399963E0,1.012001261E-1,1.581917703E-1,2.982740477E-2
2.460414123E0,9.534116834E-2,1.592570394E-1,3.195793182E-2
2.462428283E0,9.534116834E-2,1.571265012E-1,3.355583176E-2
2.464411926E0,9.267801046E-2,1.571265012E-1,3.462109342E-2
2.466395569E0,9.001484513E-2,1.571265012E-1,3.568635881E-2
2.468409729E0,8.415589482E-2,1.539307088E-1,3.621899337E-2
2.470423889E0,8.202536404E-2,1.576591432E-1,3.781688958E-2
2.472407531E0,7.989483327E-2,1.560612470E-1,4.154531285E-2
2.474391174E0,7.137271762E-2,1.560612470E-1,4.101268202E-2
2.476405334E0,6.924218684E-2,1.581917703E-1,3.994741663E-2
2.478388977E0,6.870955974E-2,1.571265012E-1,4.367584363E-2
2.480372619E0,6.498113275E-2,1.576591432E-1,4.261057824E-2
2.482356262E0,5.858954415E-2,1.560612470E-1,4.314320907E-2
2.484370422E0,5.486112088E-2,1.571265012E-1,4.367584363E-2
2.486384582E0,5.379585549E-2,1.549959779E-1,4.101268202E-2
2.488368225E0,4.900216311E-2,1.549959779E-1,3.941478580E-2
2.490351867E0,4.527373984E-2,1.496696621E-1,3.941478580E-2
2.492366028E0,4.207794741E-2,1.496696621E-1,3.888215125E-2
2.494380188E0,3.781688958E-2,1.406149119E-1,3.781688958E-2
2.496394348E0,3.515372798E-2,1.363538504E-1,3.941478580E-2
2.498377990E0,3.195793182E-2,1.278317273E-1,3.728425503E-2
2.500361633E0,2.503371425E-2,1.235706806E-1,3.408846259E-2
2.502345276E0,2.024002373E-2,1.198422536E-1,3.462109342E-2
2.504359436E0,1.757686399E-2,1.134506613E-1,3.195793182E-2
2.506373596E0,1.225054078E-2,1.065264493E-1,3.195793182E-2
2.508357239E0,8.522115648E-3,1.027980223E-1,2.609897964E-2
2.510340881E0,6.924218964E-3,9.321063757E-2,2.556634694E-2
2.512355041E0,1.597896684E-3,9.054747969E-2,2.556634694E-2
2.514369201E0,-1.065264456E-3,8.309062570E-2,2.130528912E-2
2.516413879E0,-4.793690052E-3,7.829693705E-2,2.024002373E-2
2.518367004E0,-7.456851192E-3,7.456851006E-2,2.024002373E-2
2.520350647E0,-1.065264456E-2,7.084008306E-2,2.077265643E-2
2.522364807E0,-1.544633508E-2,6.924218684E-2,1.704423130E-2
2.524378967E0,-1.757686399E-2,6.657902896E-2,1.491370238E-2
2.526332092E0,-1.757686399E-2,6.711166352E-2,1.864212751E-2
2.528315735E0,-2.183792181E-2,6.817692518E-2,1.704423130E-2
2.530329895E0,-2.503371425E-2,6.604639441E-2,1.757686399E-2
2.532313537E0,-3.195793182E-2,6.444849819E-2,2.237055451E-2
2.534297180E0,-2.982740477E-2,6.551376730E-2,2.237055451E-2
2.536311340E0,-3.302319720E-2,6.657902896E-2,2.237055451E-2
2.538264465E0,-3.515372798E-2,6.924218684E-2,2.450108156E-2
2.540248108E0,-3.568635881E-2,7.030745596E-2,2.396845073E-2
2.542262268E0,-3.728425503E-2,7.297061384E-2,2.503371425E-2
2.544276428E0,-4.101268202E-2,7.403588295E-2,2.982740477E-2
2.546260071E0,-4.154531285E-2,7.829693705E-2,2.876213938E-2
2.548243713E0,-4.207794741E-2,7.882957160E-2,3.142530099E-2
2.550257873E0,-4.474110901E-2,7.882957160E-2,2.929477207E-2
2.552272033E0,-4.367584363E-2,8.255799860E-2,3.142530099E-2
2.554255676E0,-4.261057824E-2,7.989483327E-2,3.302319720E-2
2.556269836E0,-4.474110901E-2,8.255799860E-2,2.929477207E-2
2.558222961E0,-4.474110901E-2,8.255799860E-2,3.195793182E-2
2.560237121E0,-4.314320907E-2,8.202536404E-2,3.462109342E-2
2.562220764E0,-4.261057824E-2,8.202536404E-2,3.728425503E-2
2.564204406E0,-4.420847446E-2,8.202536404E-2,3.728425503E-2
2.566218567E0,-4.367584363E-2,7.989483327E-2,3.834952042E-2
2.568232727E0,-3.941478580E-2,8.149272949E-2,4.207794741E-2
2.570216369E0,-4.420847446E-2,8.096009493E-2,4.580637068E-2
2.572200012E0,-4.420847446E-2,7.776430249E-2,5.006742850E-2
2.574183655E0,-4.420847446E-2,8.309062570E-2,5.486112088E-2
2.576197815E0,-4.953479767E-2,9.267801046E-2,5.060006306E-2
2.578150940E0,-5.219795927E-2,1.033306494E-1,4.846953228E-2
2.580165100E0,-5.539375171E-2,1.081243455E-1,5.060006306E-2
2.582148742E0,-5.699164793E-2,1.081243455E-1,5.060006306E-2
2.584132385E0,-6.285060197E-2,1.065264493E-1,5.486112088E-2
2.586146545E0,-6.711166352E-2,1.038632840E-1,5.752427876E-2
2.588160705E0,-7.403588295E-2,9.906959534E-2,6.178534031E-2
2.590113830E0,-8.149272949E-2,9.374327213E-2,6.551376730E-2
2.592097473E0,-8.522115648E-2,8.788431436E-2,6.924218684E-2
2.594111633E0,-8.894958347E-2,8.202536404E-2,7.403588295E-2
2.596156311E0,-8.681905270E-2,6.817692518E-2,7.829693705E-2
2.598109436E0,-8.735168725E-2,5.805691332E-2,8.309062570E-2
2.600093078E0,-8.628641814E-2,4.633900523E-2,8.681905270E-2
2.602107239E0,-8.362326026E-2,3.888215125E-2,9.054747969E-2
2.604090881E0,-8.042746782E-2,2.876213938E-2,9.587380290E-2
2.606074524E0,-8.042746782E-2,2.450108156E-2,9.960222989E-2
2.608088684E0,-7.723167539E-2,1.810949668E-2,1.075917110E-1
2.610102844E0,-7.243798673E-2,1.118527725E-2,1.150485575E-1
2.612117004E0,-7.137271762E-2,5.858954508E-3,1.177117229E-1
2.614070129E0,-6.604639441E-2,4.261057824E-3,1.118527651E-1
2.616084289E0,-5.432848632E-2,3.195793368E-3,1.070590764E-1
2.618037414E0,-4.580637068E-2,3.728425596E-3,1.017327532E-1
2.620021057E0,-3.888215125E-2,5.326322280E-4,9.480853379E-2
2.622035217E0,-3.249056637E-2,5.326322280E-4,9.108011425E-2
2.624049377E0,-3.408846259E-2,-1.065264456E-2,8.362326026E-2
2.626033020E0,-3.195793182E-2,-2.450108156E-2,8.362326026E-2
2.628016662E0,-3.515372798E-2,-3.568635881E-2,8.255799860E-2
2.630030822E0,-3.568635881E-2,-4.261057824E-2,8.149272949E-2
2.632044983E0,-4.154531285E-2,-5.113269389E-2,8.042746782E-2
2.634028625E0,-4.261057824E-2,-4.793690145E-2,8.681905270E-2
2.636042785E0,-4.793690145E-2,-4.367584363E-2,9.161274135E-2
2.637995910E0,-5.273059011E-2,-4.207794741E-2,9.693906456E-2
2.640010071E0,-6.125270575E-2,-3.621899337E-2,9.587380290E-2
2.641993713E0,-6.338323653E-2,-3.355583176E-2,9.693906456E-2
2.643977356E0,-6.870955974E-2,-2.503371425E-2,9.640643001E-2
2.645991516E0,-7.190535218E-2,-9.054748341E-3,9.374327213E-2
2.648005676E0,-7.510114461E-2,2.663161140E-3,9.321063757E-2
2.649989319E0,-7.403588295E-2,1.384843793E-2,9.480853379E-2
2.651972961E0,-7.616640627E-2,2.450108156E-2,9.374327213E-2
2.653956604E0,-7.297061384E-2,3.781688958E-2,9.640643001E-2
2.655970764E0,-7.723167539E-2,4.367584363E-2,9.374327213E-2
2.657923889E0,-7.882957160E-2,5.006742850E-2,9.214537591E-2
2.659938049E0,-7.936219871E-2,5.326322466E-2,9.321063757E-2
2.661921692E0,-8.042746782E-2,5.912217870E-2,9.214537591E-2
2.663905334E0,-8.042746782E-2,5.752427876E-2,9.001484513E-2
2.665919494E0,-8.149272949E-2,5.645901710E-2,9.161274135E-2
2.667933655E0,-8.202536404E-2,5.592638254E-2,9.534116834E-2
2.669917297E0,-7.776430249E-2,5.592638254E-2,9.587380290E-2
2.671900940E0,-7.563377917E-2,5.379585549E-2,1.001348570E-1
2.673915100E0,-6.924218684E-2,5.592638254E-2,1.017327532E-1
2.675929260E0,-6.072007492E-2,5.858954415E-2,1.049285457E-1
2.677882385E0,-5.166532472E-2,6.072007492E-2,1.086569726E-1
2.679866028E0,-4.154531285E-2,6.764429063E-2,1.059938148E-1
2.681880188E0,-2.343581803E-2,7.723167539E-2,1.012001261E-1
2.683894348E0,-6.924218964E-3,8.522115648E-2,9.534116834E-2
2.685877990E0,5.326322280E-3,9.427590668E-2,8.735168725E-2
2.687861633E0,2.130528912E-2,9.587380290E-2,7.723167539E-2
2.689875793E0,3.249056637E-2,9.800432622E-2,7.989483327E-2
2.691889953E0,4.527373984E-2,9.374327213E-2,8.575379103E-2
2.693873596E0,5.326322466E-2,9.161274135E-2,9.427590668E-2
2.695887756E0,6.444849819E-2,8.202536404E-2,1.086569726E-1
2.697871399E0,7.403588295E-2,7.030745596E-2,1.241033077E-1
2.699855041E0,8.468852192E-2,6.018744037E-2,1.390170157E-1
2.701838684E0,9.693906456E-2,4.846953228E-2,1.454086006E-1
2.703852844E0,1.097222418E-1,3.781688958E-2,1.533980817E-1
2.705867004E0,1.225054115E-1,2.077265643E-2,1.587243974E-1
2.707850647E0,1.384843737E-1,6.924218964E-3,1.619201899E-1
2.709834289E0,1.523328125E-1,-6.391586736E-3,1.640507281E-1
2.711848449E0,1.640507281E-1,-2.130528912E-2,1.688444167E-1
2.713862610E0,1.778991669E-1,-3.568635881E-2,1.763012707E-1
2.715907287E0,1.906823367E-1,-4.474110901E-2,1.816275865E-1
2.717829895E0,2.002697140E-1,-5.752427876E-2,1.837581247E-1
2.719844055E0,2.098570913E-1,-7.030745596E-2,1.853560209E-1
2.721858215E0,2.221076339E-1,-8.362326026E-2,1.826928556E-1
2.723872375E0,2.338255495E-1,-9.108011425E-2,1.816275865E-1
2.725825500E0,2.471413612E-1,-1.017327532E-1,1.778991669E-1
2.727809143E0,2.609897852E-1,-1.134506613E-1,1.715075821E-1
2.729823303E0,2.764361203E-1,-1.214401498E-1,1.597896665E-1
2.731806946E0,2.897519469E-1,-1.352885813E-1,1.533980817E-1
2.733790588E0,3.110572100E-1,-1.581917703E-1,1.470064968E-1
2.735804748E0,3.243730366E-1,-1.757686287E-1,1.384843737E-1
2.737788391E0,3.408846259E-1,-1.944107562E-1,1.379517466E-1
2.739772033E0,3.488741219E-1,-2.114549875E-1,1.363538504E-1
2.741786194E0,3.552657068E-1,-2.258360684E-1,1.416801661E-1
2.743739319E0,3.552657068E-1,-2.306297570E-1,1.486043930E-1
2.745722961E0,3.595267534E-1,-2.364887148E-1,1.533980817E-1
2.747737121E0,3.648530841E-1,-2.375539690E-1,1.592570394E-1
2.749720764E0,3.739078343E-1,-2.370213419E-1,1.757686287E-1
2.751704406E0,3.781688809E-1,-2.338255495E-1,1.874865443E-1
2.753688049E0,3.824299276E-1,-2.359560728E-1,2.045307755E-1
2.755702209E0,3.914846778E-1,-2.428802997E-1,2.151834220E-1
2.757655334E0,3.968110085E-1,-2.471413612E-1,2.284992188E-1
2.759638977E0,4.016047120E-1,-2.556634545E-1,2.396845073E-1
2.761653137E0,4.085289240E-1,-2.657834888E-1,2.487392575E-1
2.763667297E0,4.133225977E-1,-2.764361203E-1,2.545982003E-1
2.765650940E0,4.197141826E-1,-2.796319127E-1,2.652508616E-1
2.767634582E0,4.282363057E-1,-2.860234976E-1,2.711097896E-1
2.769648742E0,4.319647253E-1,-2.929477394E-1,2.806971967E-1
2.771662903E0,4.367584288E-1,-2.956108749E-1,2.886866629E-1
2.773646545E0,4.399542212E-1,-3.014698327E-1,2.934803665E-1
2.775660705E0,4.431500137E-1,-3.057309091E-1,3.020024598E-1
2.777644348E0,4.442152679E-1,-3.099919558E-1,3.089267015E-1
2.779627990E0,4.500742257E-1,-3.179814517E-1,3.158509135E-1
2.781611633E0,4.516721368E-1,-3.201119602E-1,3.238403797E-1
2.783625793E0,4.516721368E-1,-3.249056637E-1,3.291667104E-1
2.785639953E0,4.575310946E-1,-3.275688291E-1,3.360909224E-1
2.787623596E0,4.548679292E-1,-3.371562064E-1,3.392867148E-1
2.789607239E0,4.554005563E-1,-3.478088379E-1,3.408846259E-1
2.791590881E0,4.564658105E-1,-3.520699143E-1,3.392867148E-1
2.793605041E0,4.559331834E-1,-3.579288721E-1,3.414172530E-1
2.795649719E0,4.548679292E-1,-3.712446690E-1,3.398193717E-1
2.797602844E0,4.527373910E-1,-3.755057156E-1,3.392867148E-1
2.799586487E0,4.511395097E-1,-3.829625845E-1,3.414172530E-1
2.801600647E0,4.490089715E-1,-3.850930929E-1,3.355582952E-1
2.803584289E0,4.436826408E-1,-3.840278387E-1,3.339604139E-1
2.805567932E0,4.404868484E-1,-3.776362538E-1,3.318298757E-1
2.807551574E0,4.388889670E-1,-3.648530841E-1,3.243730366E-1
2.809565735E0,4.298342168E-1,-3.510046303E-1,3.211772442E-1
2.811579895E0,4.213120937E-1,-3.360909224E-1,3.174487948E-1
2.813563537E0,4.181163013E-1,-3.062635362E-1,3.115898669E-1
2.815547180E0,4.159857631E-1,-2.833603323E-1,3.078614175E-1
2.817500305E0,4.085289240E-1,-2.711097896E-1,3.062635362E-1
2.819483947E0,3.941478431E-1,-2.641855776E-1,3.105245829E-1
2.821498108E0,3.696467578E-1,-2.487392575E-1,3.169161677E-1
2.823481750E0,3.430151641E-1,-2.205097377E-1,3.259709179E-1
2.825465393E0,3.163835406E-1,-1.848233789E-1,3.398193717E-1
2.827479553E0,2.934803665E-1,-1.475391239E-1,3.536677957E-1
2.829493713E0,2.775014043E-1,-1.086569726E-1,3.680488765E-1
2.831507873E0,2.689792812E-1,-8.202536404E-2,3.787015080E-1
2.833460998E0,2.679139972E-1,-6.018744037E-2,3.861583769E-1
2.835475158E0,2.769687474E-1,-5.006742850E-2,3.962783813E-1
2.837458801E0,3.094593287E-1,-7.989483327E-2,4.181163013E-1
2.839442444E0,3.185140789E-1,-5.858954415E-2,4.404868484E-1
2.841426086E0,3.169161677E-1,-2.077265643E-2,4.569984376E-1
2.843409729E0,3.179814517E-1,1.597896591E-2,4.655205607E-1
2.845423889E0,3.099919558E-1,3.462109342E-2,4.644553065E-1
2.847438049E0,3.083940744E-1,4.953479767E-2,4.591289759E-1
2.849391174E0,3.062635362E-1,7.563377917E-2,4.585963488E-1
2.851374817E0,3.041329980E-1,9.906959534E-2,4.628573954E-1
2.853388977E0,3.025351167E-1,1.219727769E-1,4.612595141E-1
2.855403137E0,3.041329980E-1,1.459412277E-1,4.538026452E-1
2.857356262E0,3.062635362E-1,1.645833552E-1,4.522047639E-1
2.859370422E0,3.153182864E-1,1.821602285E-1,4.479437172E-1
2.861384582E0,3.270362020E-1,1.954760253E-1,4.468784332E-1
2.863337707E0,3.403519988E-1,2.098570913E-1,4.420847595E-1
2.865321350E0,3.563309610E-1,2.167813182E-1,4.394215941E-1
2.867335510E0,3.707120419E-1,2.258360684E-1,4.356931746E-1
2.869319153E0,3.872236311E-1,2.284992188E-1,4.367584288E-1
2.871302795E0,3.978762627E-1,2.332929224E-1,4.372910559E-1
2.873286438E0,4.111920893E-1,2.343581766E-1,4.383563101E-1
2.875300598E0,4.202468395E-1,2.338255495E-1,4.426173866E-1
2.877253723E0,4.319647253E-1,2.354234457E-1,4.490089715E-1
2.879237365E0,4.447479248E-1,2.343581766E-1,4.660531878E-1
2.881251526E0,4.633900523E-1,2.434129268E-1,4.916195571E-1
2.883265686E0,4.873584807E-1,2.407497615E-1,5.214469433E-1
2.885249328E0,5.075985193E-1,2.306297570E-1,5.491438508E-1
2.887232971E0,5.294364095E-1,2.183792144E-1,5.869607329E-1
2.889247131E0,5.507417321E-1,2.050634027E-1,6.178534031E-1
2.891261291E0,5.699164867E-1,1.837581247E-1,6.519418359E-1
2.893244934E0,5.896238685E-1,1.656486243E-1,6.844323874E-1
2.895259094E0,6.040049195E-1,1.427454352E-1,7.169229984E-1
2.897212219E0,6.183860302E-1,1.187769845E-1,7.504788041E-1
2.899195862E0,6.322344542E-1,9.321063757E-2,7.760451436E-1
2.901210022E0,6.423544884E-1,6.125270575E-2,8.053399324E-1
2.903193664E0,6.535397172E-1,2.663161233E-2,8.271778226E-1
2.905177307E0,6.652576327E-1,-6.391586736E-3,8.474178910E-1
2.907160949E0,6.700513363E-1,-2.822950855E-2,8.575378656E-1
2.909175110E0,6.844323874E-1,-6.072007492E-2,8.724516034E-1
2.911158752E0,6.956176758E-1,-9.054747969E-2,8.926916122E-1
2.913142395E0,7.073355913E-1,-1.193096191E-1,9.086706042E-1
2.915156555E0,7.190535069E-1,-1.645833552E-1,9.422264099E-1
2.917140197E0,7.275756001E-1,-1.954760253E-1,9.811085463E-1
2.919123840E0,7.302387953E-1,-2.098570913E-1,1.009870648E0
2.921107483E0,7.313040495E-1,-2.290318608E-1,1.034371734E0
2.923121643E0,7.302387953E-1,-2.593919039E-1,1.051416039E0
2.925135803E0,7.254450917E-1,-2.945456207E-1,1.063133955E0
2.927149963E0,7.222493291E-1,-3.286340833E-1,1.066862345E0
2.929103088E0,7.169229984E-1,-3.520699143E-1,1.078047633E0
2.931086731E0,7.153250575E-1,-3.685815036E-1,1.084439158E0
2.933100891E0,7.126619220E-1,-3.696467578E-1,1.099885583E0
2.935115051E0,7.084008455E-1,-3.621899188E-1,1.116929770E0
2.937068176E0,7.084008455E-1,-3.584614992E-1,1.132376075E0
2.939082336E0,7.078682184E-1,-3.648530841E-1,1.152616143E0
2.941065979E0,7.052050829E-1,-3.723099232E-1,1.170725584E0
2.943049621E0,6.988134980E-1,-3.834952116E-1,1.190965652E0
2.945063781E0,6.918892860E-1,-3.808320463E-1,1.205879331E0
2.947077942E0,6.854977012E-1,-3.856257200E-1,1.221325755E0
2.949061584E0,6.764429212E-1,-3.893541694E-1,1.236772060E0
2.951045227E0,6.695187092E-1,-3.936152160E-1,1.253816247E0
2.953059387E0,6.578007936E-1,-3.925499618E-1,1.278849959E0
2.955073547E0,6.498113275E-1,-3.856257200E-1,1.302818418E0
2.957026672E0,6.434197426E-1,-3.787015080E-1,1.329450011E0
2.959010315E0,6.348975897E-1,-3.669835925E-1,1.358744860E0
2.961024475E0,6.290386319E-1,-3.685815036E-1,1.390702724E0
2.963038635E0,6.199839115E-1,-3.717772961E-1,1.425856471E0
2.965052795E0,6.125270724E-1,-3.531351686E-1,1.463673353E0
2.967005920E0,6.066681147E-1,-3.201119602E-1,1.498827100E0
2.968989563E0,5.965480804E-1,-2.881540358E-1,1.542502880E0
2.971003723E0,5.864281058E-1,-2.545982003E-1,1.588309288E0
2.973017883E0,5.672533512E-1,-2.258360684E-1,1.638376713E0
2.975001526E0,5.464806557E-1,-2.077265680E-1,1.689509392E0
2.976954651E0,5.299690962E-1,-2.039981484E-1,1.727326274E0
2.978938293E0,5.113269091E-1,-2.162486911E-1,1.761414766E0
2.980952453E0,4.905542731E-1,-2.284992188E-1,1.786981106E0
2.982966614E0,4.729774296E-1,-2.455434501E-1,1.808286428E0
2.984950256E0,4.569984376E-1,-2.577939928E-1,1.824797988E0
2.986933899E0,4.415521026E-1,-2.716424465E-1,1.838646412E0
2.988948059E0,4.293015897E-1,-2.844256163E-1,1.848233819E0
2.990962219E0,4.213120937E-1,-2.950782478E-1,1.862614870E0
2.992945862E0,4.149205089E-1,-3.025351167E-1,1.864745378E0
2.994960022E0,4.037352204E-1,-3.089267015E-1,1.865810752E0
2.996943664E0,4.026699662E-1,-3.057309091E-1,1.865278006E0
2.998957824E0,3.989415467E-1,-2.988066673E-1,1.865810752E0
3.000941467E0,3.957457542E-1,-2.849582434E-1,1.857288599E0
3.002925110E0,3.957457542E-1,-2.716424465E-1,1.850896955E0
3.004939270E0,3.898867965E-1,-2.577939928E-1,1.841309667E0
3.006953430E0,3.914846778E-1,-2.412824035E-1,1.832787514E0
3.008937072E0,3.909520507E-1,-2.300971150E-1,1.820004344E0
3.010920715E0,3.909520507E-1,-2.221076339E-1,1.816275954E0
3.012934875E0,3.962783813E-1,-2.210423797E-1,1.807753801E0
3.014949035E0,3.989415467E-1,-2.194444835E-1,1.801362157E0
3.016902160E0,4.010720551E-1,-2.162486911E-1,1.798166394E0
3.018916321E0,4.021373391E-1,-1.880191714E-1,1.789644241E0
3.020930481E0,3.989415467E-1,-1.731054783E-1,1.776328444E0
3.022914123E0,3.989415467E-1,-1.624528319E-1,1.767806411E0
3.024897766E0,3.957457542E-1,-1.635181010E-1,1.764610529E0
3.026911926E0,3.973436356E-1,-1.667138934E-1,1.763012648E0
3.028926086E0,4.005394280E-1,-1.794970632E-1,1.762480021E0
3.030940246E0,3.978762627E-1,-1.901497096E-1,1.771002173E0
3.032893371E0,4.000068009E-1,-2.034655064E-1,1.780056953E0
3.034907531E0,4.063983858E-1,-2.279665917E-1,1.789644241E0
3.036891174E0,4.101268053E-1,-2.625876963E-1,1.797101140E0
3.038874817E0,4.191815555E-1,-2.998719513E-1,1.805623293E0
3.040858459E0,4.282363057E-1,-3.376888335E-1,1.817873836E0
3.042872619E0,4.378236830E-1,-3.717772961E-1,1.824797988E0
3.044886780E0,4.490089715E-1,-4.069310129E-1,1.833852768E0
3.046870422E0,4.591289759E-1,-4.442152679E-1,1.844505429E0
3.048854065E0,4.644553065E-1,-4.554005563E-1,1.848233819E0
3.050837707E0,4.788363874E-1,-4.841626883E-1,1.856223345E0
3.052851867E0,4.926848114E-1,-5.267732739E-1,1.864745378E0
3.054866028E0,5.091964006E-1,-5.704491138E-1,1.873267531E0
3.056849670E0,5.262406468E-1,-6.173207760E-1,1.882854939E0
3.058863830E0,5.416869521E-1,-6.562029123E-1,1.894040227E0
3.060816955E0,5.534048676E-1,-6.737797856E-1,1.905758142E0
3.062831115E0,5.640575290E-1,-6.753776670E-1,1.911617041E0
3.064845276E0,5.752428174E-1,-6.817692518E-1,1.921737075E0
3.066828918E0,5.826996565E-1,-6.918892860E-1,1.927063346E0
3.068812561E0,5.938849449E-1,-7.036072016E-1,1.941977143E0
3.070826721E0,6.087986231E-1,-7.105314136E-1,1.951031804E0
3.072840881E0,6.215817928E-1,-7.227819562E-1,1.962217093E0
3.074885559E0,6.301039457E-1,-7.275756001E-1,1.977130890E0
3.076838684E0,6.418218613E-1,-7.313040495E-1,1.988848686E0
3.078822326E0,6.524744630E-1,-7.281082273E-1,2.005360365E0
3.080836487E0,6.657902598E-1,-7.227819562E-1,2.025067806E0
3.082850647E0,6.759102941E-1,-7.110640407E-1,2.043709755E0
3.084834289E0,6.833671331E-1,-7.004113793E-1,2.065547705E0
3.086817932E0,6.897587180E-1,-6.860303283E-1,2.093244553E0
3.088832092E0,6.945524216E-1,-6.652576327E-1,2.115082502E0
3.090846252E0,6.961503029E-1,-6.434197426E-1,2.138518333E0
3.092860412E0,6.966829300E-1,-6.199839115E-1,2.158758402E0
3.094844055E0,6.940197945E-1,-5.986786485E-1,2.181128979E0
3.096827697E0,6.918892860E-1,-5.709817410E-1,2.200303793E0
3.098811340E0,6.865629554E-1,-5.491438508E-1,2.217347860E0
3.100794983E0,6.817692518E-1,-5.257080197E-1,2.237055302E0
3.102778625E0,6.748450398E-1,-5.086637735E-1,2.250371218E0
3.104792785E0,6.673882008E-1,-4.974785149E-1,2.261556387E0
3.106806946E0,6.609966159E-1,-4.932174385E-1,2.271676540E0
3.108760071E0,6.551376581E-1,-4.969458580E-1,2.282861710E0
3.110743713E0,6.455502510E-1,-4.996090233E-1,2.290318489E0
3.112757873E0,6.359629035E-1,-5.054680109E-1,2.297242880E0
3.114802551E0,6.263754964E-1,-5.161206126E-1,2.301503897E0
3.116755676E0,6.199839115E-1,-5.331648588E-1,2.305232286E0
3.118739319E0,6.098638773E-1,-5.550028086E-1,2.314286947E0
3.120753479E0,6.040049195E-1,-5.731122494E-1,2.320146084E0
3.122767639E0,5.960154533E-1,-5.976133347E-1,2.326537609E0
3.124751281E0,5.842975378E-1,-6.194512844E-1,2.336124897E0
3.126734924E0,5.715143681E-1,-6.423544884E-1,2.345179796E0
3.128718567E0,5.624596477E-1,-6.615292430E-1,2.357962847E0
3.130732727E0,5.560680628E-1,-6.759102941E-1,2.364354372E0
3.132716369E0,5.432848930E-1,-6.972155571E-1,2.376072407E0
3.134730530E0,5.305017233E-1,-7.179882526E-1,2.388322830E0
3.136683655E0,5.225121975E-1,-7.355651259E-1,2.398442984E0
3.138667297E0,5.091964006E-1,-7.590008974E-1,2.405367136E0
3.140681457E0,4.953479767E-1,-7.776430249E-1,2.409095526E0
3.142695617E0,4.841626883E-1,-7.994809747E-1,2.408562899E0
3.144648742E0,4.681837261E-1,-8.159925938E-1,2.409095526E0
3.146632385E0,4.532700181E-1,-8.287757635E-1,2.411226034E0
3.148646545E0,4.415521026E-1,-8.404936790E-1,2.408562899E0
3.150660705E0,4.293015897E-1,-8.564726114E-1,2.410693407E0
3.152613830E0,4.175836742E-1,-8.660600185E-1,2.411226034E0
3.154627990E0,4.079962969E-1,-8.681905270E-1,2.413356543E0
3.156611633E0,3.994741738E-1,-8.660600185E-1,2.416552305E0
3.158625793E0,3.952131271E-1,-8.612663150E-1,2.419748306E0
3.160578918E0,3.882888854E-1,-8.522115946E-1,2.427205086E0
3.162562561E0,3.856257200E-1,-8.309062719E-1,2.430400848E0
3.164576721E0,3.818973005E-1,-7.968178391E-1,2.435727119E0
3.166590881E0,3.866910040E-1,-7.462177277E-1,2.448510408E0
3.168574524E0,3.962783813E-1,-6.721818447E-1,2.459695578E0
3.170558166E0,4.048005044E-1,-6.029396653E-1,2.471413612E0
3.172572326E0,4.127899706E-1,-5.443501472E-1,2.483131409E0
3.174586487E0,4.154531360E-1,-5.038700700E-1,2.499643087E0
3.176570129E0,4.138552547E-1,-4.735100567E-1,2.508697748E0
3.178584289E0,4.058657587E-1,-4.548679292E-1,2.517752647E0
3.180537414E0,4.000068009E-1,-4.447479248E-1,2.524676800E0
3.182521057E0,3.984089196E-1,-4.404868484E-1,2.524144173E0
3.184535217E0,3.909520507E-1,-4.346278906E-1,2.523611546E0
3.186549377E0,3.829625845E-1,-4.319647253E-1,2.524144173E0
3.188533020E0,3.755057156E-1,-4.303668439E-1,2.517220020E0
3.190516662E0,3.712446690E-1,-4.367584288E-1,2.504969358E0
3.192530822E0,3.685815036E-1,-4.436826408E-1,2.496447325E0
3.194544983E0,3.637878001E-1,-4.538026452E-1,2.487392426E0
3.196498108E0,3.595267534E-1,-4.676510990E-1,2.474076748E0
3.198481750E0,3.584614992E-1,-4.793690145E-1,2.460228205E0
3.200495910E0,3.542004228E-1,-4.964132309E-1,2.450640917E0
3.202510071E0,3.504720032E-1,-5.123922229E-1,2.439455509E0
3.204493713E0,3.478088379E-1,-5.283711553E-1,2.427737713E0
3.206477356E0,3.446130455E-1,-5.432848930E-1,2.412291288E0
3.208460998E0,3.414172530E-1,-5.555354357E-1,2.402704000E0
3.210475158E0,3.403519988E-1,-5.672533512E-1,2.388855457E0
3.212519836E0,3.430151641E-1,-5.826996565E-1,2.374474525E0
3.214472961E0,3.414172530E-1,-5.960154533E-1,2.361691236E0
3.216456604E0,3.414172530E-1,-6.040049195E-1,2.341451168E0
3.218440246E0,3.414172530E-1,-6.114618182E-1,2.328135490E0
3.220423889E0,3.387540877E-1,-6.061354876E-1,2.310558558E0
3.222438049E0,3.339604139E-1,-6.018744111E-1,2.292981625E0
3.224452209E0,3.307646215E-1,-6.008091569E-1,2.283394337E0
3.226405334E0,3.254382908E-1,-5.965480804E-1,2.266882658E0
3.228388977E0,3.169161677E-1,-5.992112756E-1,2.253566980E0
3.230403137E0,3.099919558E-1,-5.981460214E-1,2.243446827E0
3.232386780E0,2.988066673E-1,-6.045376062E-1,2.229598522E0
3.234400940E0,2.828277051E-1,-6.135923266E-1,2.219478607E0
3.236354065E0,2.663161159E-1,-6.274407506E-1,2.209891081E0
3.238368225E0,2.482066154E-1,-6.327670813E-1,2.201901674E0
3.240351867E0,2.263686955E-1,-6.375607848E-1,2.195510149E0
3.242335510E0,2.082591951E-1,-6.375607848E-1,2.192846775E0
3.244349670E0,1.880191714E-1,-6.370281577E-1,2.189651012E0
3.246363830E0,1.613875628E-1,-6.375607848E-1,2.184324741E0
3.248347473E0,1.320927888E-1,-6.460828781E-1,2.182726860E0
3.250331115E0,1.033306494E-1,-6.556702852E-1,2.183792114E0
3.252345276E0,6.604639441E-2,-6.593986750E-1,2.184857368E0
3.254359436E0,3.036003746E-2,-6.599313021E-1,2.185922623E0
3.256312561E0,-2.663161140E-3,-6.679208279E-1,2.192314148E0
3.258326721E0,-4.101268202E-2,-6.796387434E-1,2.197108030E0
3.260340881E0,-7.829693705E-2,-6.972155571E-1,2.208293200E0
3.262324524E0,-1.102548689E-1,-7.227819562E-1,2.217880487E0
3.264308166E0,-1.459412277E-1,-7.430219650E-1,2.227468014E0
3.266322326E0,-1.810949594E-1,-7.611314654E-1,2.239718437E0
3.268336487E0,-2.077265680E-1,-7.526093125E-1,2.254099607E0
3.270320129E0,-2.359560728E-1,-7.329019308E-1,2.271676540E0
3.272303772E0,-2.625876963E-1,-7.099987864E-1,2.290851116E0
3.274317932E0,-2.865561247E-1,-6.796387434E-1,2.317482710E0
3.276301574E0,-3.062635362E-1,-6.434197426E-1,2.343581915E0
3.278285217E0,-3.259709179E-1,-5.976133347E-1,2.373941898E0
3.280268860E0,-3.504720032E-1,-5.390238166E-1,2.400040865E0
3.282252502E0,-3.717772961E-1,-4.692489803E-1,2.429335594E0
3.284266662E0,-3.984089196E-1,-4.000068009E-1,2.458097696E0
3.286250305E0,-4.245078862E-1,-3.206445873E-1,2.483131409E0
3.288233947E0,-4.527373910E-1,-2.364887148E-1,2.510828257E0
3.290217590E0,-4.820321798E-1,-1.491370201E-1,2.532666206E0
3.292231750E0,-5.113269091E-1,-6.231797114E-2,2.556102037E0
3.294245910E0,-5.384911895E-1,1.757686399E-2,2.572081089E0
3.296229553E0,-5.672533512E-1,8.788431436E-2,2.583798885E0
3.298243713E0,-5.944175720E-1,1.496696621E-1,2.593386412E0
3.300227356E0,-6.215817928E-1,2.024002522E-1,2.602973700E0
3.302241516E0,-6.476807594E-1,2.471413612E-1,2.604571581E0
3.304255676E0,-6.833671331E-1,2.833603323E-1,2.600843191E0
3.306239319E0,-7.169229984E-1,3.057309091E-1,2.598712683E0
3.308222961E0,-7.478156686E-1,3.179814517E-1,2.590723038E0
3.310206604E0,-7.819041014E-1,3.190467060E-1,2.584331512E0
3.312220764E0,-8.138620257E-1,3.110572100E-1,2.571548462E0
3.314234924E0,-8.458199501E-1,3.020024598E-1,2.564091444E0
3.316188049E0,-8.617989421E-1,2.940129936E-1,2.557167292E0
3.318202209E0,-8.948221207E-1,2.812298238E-1,2.542253733E0
3.320216369E0,-9.315737486E-1,2.647182047E-1,2.530535698E0
3.322200012E0,-9.667274952E-1,2.545982003E-1,2.513491392E0
3.324183655E0,-9.992180467E-1,2.535329461E-1,2.497512579E0
3.326197815E0,-1.030110717E0,2.503371537E-1,2.479403019E0
3.328211975E0,-1.070590734E0,2.466087192E-1,2.460228205E0
3.330195617E0,-1.105211854E0,2.492718846E-1,2.445314646E0
3.332179260E0,-1.143028736E0,2.604571581E-1,2.427737713E0
3.334193420E0,-1.174986720E0,2.822950780E-1,2.414954424E0
3.336146545E0,-1.205879331E0,3.254382908E-1,2.396312475E0
3.338130188E0,-1.232510924E0,3.707120419E-1,2.382463932E0
3.340144348E0,-1.260207891E0,4.063983858E-1,2.370213509E0
3.342158508E0,-1.291100502E0,4.367584288E-1,2.355299711E0
3.344142151E0,-1.318264723E0,4.697816372E-1,2.338788033E0
3.346125793E0,-1.343298435E0,4.985437691E-1,2.320678711E0
3.348139953E0,-1.363538504E0,5.305017233E-1,2.305764914E0
3.350154114E0,-1.379517436E0,5.677859783E-1,2.292448997E0
3.352137756E0,-1.381115317E0,6.072007418E-1,2.282329082E0
3.354151916E0,-1.386974335E0,6.466155052E-1,2.272209167E0
3.356105041E0,-1.386441708E0,6.764429212E-1,2.264752150E0
3.358119201E0,-1.384843826E0,6.993461251E-1,2.252501726E0
3.360102844E0,-1.379517436E0,7.147924304E-1,2.239185810E0
3.362086487E0,-1.377919555E0,7.259777188E-1,2.230131149E0
3.364100647E0,-1.370462775E0,7.387608886E-1,2.218413115E0
3.366114807E0,-1.356614232E0,7.536746264E-1,2.210956335E0
3.368098449E0,-1.343298435E0,7.749798894E-1,2.201369047E0
3.370082092E0,-1.317732096E0,8.042746782E-1,2.204032183E0
3.372096252E0,-1.295894265E0,8.266451955E-1,2.208825827E0
3.374110412E0,-1.266599417E0,8.351673484E-1,2.211488962E0
3.376063537E0,-1.238369942E0,8.463526368E-1,2.216282606E0
3.378077697E0,-1.218662500E0,8.543421030E-1,2.223739624E0
3.380061340E0,-1.198422551E0,8.463526368E-1,2.231729031E0
3.382044983E0,-1.172323585E0,8.303736448E-1,2.233326912E0
3.384059143E0,-1.140898228E0,8.101336360E-1,2.235990047E0
3.386073303E0,-1.104679227E0,7.989483476E-1,2.245577574E0
3.388056946E0,-1.077515006E0,7.866978049E-1,2.250903845E0
3.390040588E0,-1.053013921E0,7.605988383E-1,2.255164862E0
3.392054748E0,-1.027447581E0,7.435545921E-1,2.256230116E0
3.394099426E0,-1.008272767E0,7.355651259E-1,2.255164862E0
3.396052551E0,-9.917612076E-1,7.238472104E-1,2.253566980E0
3.398036194E0,-9.720538259E-1,7.142598033E-1,2.252501726E0
3.400050354E0,-9.523464441E-1,7.030745149E-1,2.243979692E0
3.402064514E0,-9.406285286E-1,6.876282096E-1,2.232261658E0
3.404048156E0,-9.294432402E-1,6.945524216E-1,2.224272251E0
3.406031799E0,-9.214537740E-1,7.009440064E-1,2.217347860E0
3.408045959E0,-9.102684855E-1,7.233145833E-1,2.205630064E0
3.410060119E0,-9.001484513E-1,7.515440583E-1,2.199238539E0
3.412043762E0,-8.926916122E-1,7.866978049E-1,2.191781521E0
3.414057922E0,-8.841695189E-1,8.303736448E-1,2.184857368E0
3.416041565E0,-8.809736967E-1,8.708537221E-1,2.175270081E0
3.418055725E0,-8.708537221E-1,9.102684855E-1,2.170476437E0
3.420008850E0,-8.607336879E-1,9.331716895E-1,2.166215181E0
3.421992492E0,-8.436894417E-1,9.667274952E-1,2.159291029E0
3.424006653E0,-8.319715261E-1,9.965549111E-1,2.161421537E0
3.426020813E0,-8.127967715E-1,1.025317073E0,2.160888910E0
3.427973938E0,-7.962851524E-1,1.051416039E0,2.166215181E0
3.429957580E0,-7.771103978E-1,1.072721362E0,2.171009064E0
3.431971740E0,-7.579356432E-1,1.091363430E0,2.174737453E0
3.434016418E0,-7.275756001E-1,1.110538244E0,2.174737453E0
3.435969543E0,-7.084008455E-1,1.113201380E0,2.178465843E0
3.437953186E0,-6.727145314E-1,1.140898228E0,2.183259487E0
3.439967346E0,-6.450176239E-1,1.165931940E0,2.188053131E0
3.441981506E0,-6.087986231E-1,1.196292043E0,2.191781521E0
3.443965149E0,-5.736449361E-1,1.230913043E0,2.198173285E0
3.445948791E0,-5.342301130E-1,1.262338400E0,2.200836420E0
3.447962951E0,-5.022721887E-1,1.271925807E0,2.206162691E0
3.449977112E0,-4.522047639E-1,1.303883672E0,2.210956335E0
3.451991272E0,-4.133225977E-1,1.303883672E0,2.206695318E0
3.453974914E0,-3.760383427E-1,1.287904739E0,2.200303793E0
3.455958557E0,-3.376888335E-1,1.276186824E0,2.191248894E0
3.457911682E0,-3.030677438E-1,1.250087857E0,2.172606945E0
3.459925842E0,-2.886866629E-1,1.215999365E0,2.161421537E0
3.461909485E0,-2.476739883E-1,1.173388839E0,2.137453079E0
3.463893127E0,-2.162486911E-1,1.103081346E0,2.109756231E0
3.465907287E0,-1.954760253E-1,9.859022498E-1,2.069808722E0
3.467921447E0,-1.821602285E-1,8.889631629E-1,2.023469925E0
3.469935608E0,-1.709749401E-1,7.941546440E-1,1.982989788E0
3.471888733E0,-1.544633508E-1,6.934871674E-1,1.938781261E0
3.473902893E0,-1.432780623E-1,6.231797338E-1,1.899366498E0
3.475886535E0,-1.320927888E-1,5.651227832E-1,1.867941260E0
3.477900696E0,-1.075917110E-1,5.193164349E-1,1.843972802E0
3.479853821E0,-8.575379103E-2,5.161206126E-1,1.822667480E0
3.481837463E0,-7.723167539E-2,5.102616549E-1,1.806155920E0
3.483851623E0,-6.817692518E-2,4.996090233E-1,1.792840123E0
3.485865783E0,-6.391586363E-2,4.974785149E-1,1.768871665E0
3.487849426E0,-5.965480953E-2,4.937500656E-1,1.749696851E0
3.489833069E0,-5.912217870E-2,4.830974340E-1,1.733185291E0
3.491847229E0,-5.805691332E-2,4.633900523E-1,1.715075731E0
3.493861389E0,-5.432848632E-2,4.490089715E-1,1.695368409E0
3.495814514E0,-5.113269389E-2,4.266384244E-1,1.682585239E0
3.497828674E0,-4.900216311E-2,4.000068009E-1,1.670334697E0
3.499842834E0,-4.687163606E-2,3.637878001E-1,1.653823018E0
3.501856994E0,-4.633900523E-2,3.131877482E-1,1.643703103E0
3.503810119E0,-4.367584363E-2,2.556634545E-1,1.635713577E0
3.505793762E0,-4.314320907E-2,2.141181529E-1,1.626126170E0
3.507807922E0,-3.728425503E-2,1.805623323E-1,1.625060916E0
3.509822082E0,-2.929477207E-2,1.592570394E-1,1.618669391E0
3.511775207E0,-2.609897964E-2,1.459412277E-1,1.617604017E0
3.513789367E0,-2.077265643E-2,1.432780623E-1,1.617604017E0
3.515773010E0,-1.384843793E-2,1.486043930E-1,1.618669391E0
3.517756653E0,-1.012001187E-2,1.565938741E-1,1.621332526E0
3.519740295E0,-1.597896684E-3,1.747033745E-1,1.618669391E0
3.521723938E0,3.195793368E-3,1.986718178E-1,1.620267272E0
3.523738098E0,1.118527725E-2,2.295644879E-1,1.623995662E0
3.525752258E0,2.077265643E-2,2.716424465E-1,1.629321933E0
3.527705383E0,3.142530099E-2,3.131877482E-1,1.633050442E0
3.529689026E0,4.474110901E-2,3.659183383E-1,1.645300984E0
3.531703186E0,5.645901710E-2,4.277036786E-1,1.656486273E0
3.533717346E0,6.817692518E-2,4.900216460E-1,1.669802070E0
3.535700989E0,8.096009493E-2,5.539374948E-1,1.687911510E0
3.537715149E0,9.534116834E-2,6.146575809E-1,1.709749460E0
3.539698791E0,1.102548689E-1,6.865629554E-1,1.733185291E0
3.541682434E0,1.225054115E-1,7.424893379E-1,1.759816885E0
3.543696594E0,1.272991002E-1,7.893609405E-1,1.783785343E0
3.545710754E0,1.384843737E-1,8.367652297E-1,1.809884310E0
3.547663879E0,1.480717659E-1,8.884305358E-1,1.837048531E0
3.549647522E0,1.667138934E-1,9.374327064E-1,1.868473887E0
3.551661682E0,1.901497096E-1,9.954896569E-1,1.902562261E0
3.553706360E0,2.167813182E-1,1.064731836E0,1.943575025E0
3.555659485E0,2.455434501E-1,1.120658159E0,1.982457161E0
3.557643127E0,2.769687474E-1,1.163801432E0,2.023469925E0
3.559657287E0,3.073287904E-1,1.190433025E0,2.063949823E0
3.561671447E0,3.376888335E-1,1.199487805E0,2.107625723E0
3.563624572E0,3.717772961E-1,1.205879331E0,2.152899504E0
3.565608215E0,4.000068009E-1,1.245294094E0,2.200303793E0
3.567622375E0,4.399542212E-1,1.270860553E0,2.242914200E0
3.569606018E0,4.761732221E-1,1.292165756E0,2.279665947E0
3.571589660E0,5.086637735E-1,1.308677435E0,2.315352201E0
3.573603821E0,5.363606811E-1,1.300155282E0,2.353701830E0
3.575556946E0,5.635249019E-1,1.284708977E0,2.387790203E0
3.577540588E0,5.826996565E-1,1.257012010E0,2.420813560E0
3.579554748E0,6.034722924E-1,1.228782535E0,2.448510408E0
3.581568908E0,6.157228351E-1,1.199487805E0,2.471413612E0
3.583552551E0,6.215817928E-1,1.170192957E0,2.483664036E0
3.585536194E0,6.242449880E-1,1.155279279E0,2.485261917E0
3.587550354E0,6.263754964E-1,1.124919295E0,2.487392426E0
3.589564514E0,6.237123609E-1,1.102016091E0,2.482066154E0
3.591578674E0,6.253102422E-1,1.092428684E0,2.473544121E0
3.593562317E0,6.210491657E-1,1.082308650E0,2.452238798E0
3.595515442E0,6.183860302E-1,1.070058107E0,2.429335594E0
3.597529602E0,6.061354876E-1,1.055144429E0,2.399508238E0
3.599543762E0,5.965480804E-1,1.037567616E0,2.367017508E0
3.601496887E0,5.832322836E-1,1.025317073E0,2.325472355E0
3.603480530E0,5.677859783E-1,1.005609632E0,2.284992218E0
3.605494690E0,5.539374948E-1,9.832391143E-1,2.234392166E0
3.607508850E0,5.390238166E-1,9.598032832E-1,2.185389996E0
3.609492492E0,5.203816891E-1,9.353021979E-1,2.126800537E0
3.611506653E0,4.990763962E-1,9.209211469E-1,2.070874214E0
3.613490295E0,4.793690145E-1,9.161274433E-1,2.009088755E0
3.615443420E0,4.649879336E-1,8.974853158E-1,1.937716007E0
3.617427063E0,4.479437172E-1,8.713863492E-1,1.866343379E0
3.619441223E0,4.324973822E-1,8.378304839E-1,1.789644241E0
3.621424865E0,4.218447208E-1,8.021441102E-1,1.714010477E0
3.623408508E0,4.170510471E-1,7.653924823E-1,1.636778831E0
3.625392151E0,4.127899706E-1,7.313040495E-1,1.563275576E0
3.627406311E0,4.154531360E-1,6.988134980E-1,1.486043930E0
3.629389953E0,4.229099751E-1,6.737797856E-1,1.411475420E0
3.631373596E0,4.356931746E-1,6.487460732E-1,1.343298435E0
3.633387756E0,4.532700181E-1,6.332997084E-1,1.278317332E0
3.635371399E0,4.820321798E-1,6.370281577E-1,1.220260382E0
3.637385559E0,5.081311464E-1,6.599313021E-1,1.171790957E0
3.639338684E0,5.480785370E-1,6.753776670E-1,1.130778193E0
3.641322326E0,5.992112756E-1,7.014766335E-1,1.097755075E0
3.643336487E0,6.551376581E-1,7.323693037E-1,1.078047633E0
3.645350647E0,7.190535069E-1,7.691209316E-1,1.067394972E0
3.647334289E0,7.888283134E-1,8.133293986E-1,1.063133955E0
3.649317932E0,8.644620776E-1,8.607336879E-1,1.076449752E0
3.651332092E0,9.464874864E-1,9.166600704E-1,1.091896057E0
3.653376770E0,1.031708598E0,9.741843343E-1,1.117995024E0
3.655329895E0,1.119592905E0,1.026382327E0,1.148355126E0
3.657313537E0,1.209075212E0,1.079112887E0,1.182976127E0
3.659327697E0,1.303883672E0,1.128647685E0,1.224521518E0
3.661341858E0,1.392300606E0,1.174986720E0,1.271925807E0
3.663294983E0,1.482315540E0,1.210673094E0,1.323591113E0
3.665278625E0,1.560079813E0,1.242630959E0,1.378984809E0
3.667292785E0,1.631452560E0,1.265534163E0,1.438107014E0
3.669306946E0,1.696966290E0,1.282578349E0,1.496163964E0
3.671290588E0,1.745435834E0,1.282045722E0,1.549959779E0
3.673304748E0,1.778458953E0,1.258610010E0,1.594168305E0
3.675257873E0,1.800296903E0,1.205346704E0,1.636778831E0
3.677272033E0,1.810949564E0,1.133441329E0,1.665008307E0
3.679255676E0,1.810949564E0,1.035969734E0,1.683117867E0
3.681239319E0,1.807221174E0,9.225190282E-1,1.696433663E0
3.683253479E0,1.793905377E0,8.000136018E-1,1.692705274E0
3.685267639E0,1.777926326E0,6.689860821E-1,1.682585239E0
3.687281799E0,1.758751631E0,5.203816891E-1,1.670334697E0
3.689234924E0,1.736913681E0,3.707120419E-1,1.643703103E0
3.691218567E0,1.713477850E0,2.316950262E-1,1.610147238E0
3.693232727E0,1.680454731E0,9.534116834E-2,1.566471338E0
3.695185852E0,1.650627255E0,-3.142530099E-2,1.512675524E0
3.697200012E0,1.615473509E0,-1.523328125E-1,1.450890183E0
3.699183655E0,1.579254508E0,-2.700445354E-1,1.383245945E0
3.701197815E0,1.547296643E0,-3.765709996E-1,1.310275316E0
3.703150940E0,1.512142897E0,-4.692489803E-1,1.229847789E0
3.705134582E0,1.499359727E0,-5.139901042E-1,1.190433025E0
3.707148742E0,1.467401743E0,-5.874933600E-1,1.104679227E0
3.709162903E0,1.438639641E0,-6.476807594E-1,1.022121191E0
3.711146545E0,1.411475420E0,-6.940197945E-1,9.400959015E-1
3.713160705E0,1.387506962E0,-7.270429730E-1,8.570052385E-1
3.715144348E0,1.364603758E0,-7.456851006E-1,7.733820081E-1
3.717158508E0,1.350755334E0,-7.467503548E-1,6.982808709E-1
3.719142151E0,1.338504791E0,-7.275756001E-1,6.274407506E-1
3.721125793E0,1.333711147E0,-7.020092607E-1,5.661880374E-1
3.723109436E0,1.324656367E0,-6.636597514E-1,5.177185535E-1
3.725123596E0,1.332113147E0,-5.922870636E-1,4.777711034E-1
3.727107239E0,1.326254249E0,-5.081311464E-1,4.548679292E-1
3.729090881E0,1.339037418E0,-4.452805519E-1,4.378236830E-1
3.731074524E0,1.357146859E0,-3.733751774E-1,4.314320982E-1
3.733088684E0,1.380582690E0,-2.982740402E-1,4.324973822E-1
3.735041809E0,1.409344912E0,-2.247707993E-1,4.447479248E-1
3.737055969E0,1.441302776E0,-1.491370201E-1,4.617921412E-1
3.739070129E0,1.482315540E0,-7.563377917E-2,4.926848114E-1
3.741053772E0,1.521730304E0,-3.728425596E-3,5.390238166E-1
3.743037414E0,1.565938711E0,6.444849819E-2,5.885586143E-1
3.745051574E0,1.609614611E0,1.251685768E-1,6.391586661E-1
3.747065735E0,1.653290391E0,1.741707325E-1,6.918892860E-1
3.749049377E0,1.699629426E0,2.013349831E-1,7.472830415E-1
3.751033020E0,1.745968461E0,2.050634027E-1,8.080030680E-1
3.753047180E0,1.790709496E0,1.912149638E-1,8.660600185E-1
3.755030822E0,1.835450649E0,1.459412277E-1,9.321063757E-1
3.757014465E0,1.879126549E0,8.468852192E-2,1.000283360E0
3.758998108E0,1.921204448E0,6.924218964E-3,1.068460226E0
3.761012268E0,1.962749720E0,-9.534116834E-2,1.135571957E0
3.763026428E0,1.997370839E0,-2.130528986E-1,1.195759296E0
3.765040588E0,2.029861450E0,-3.398193717E-1,1.252750993E0
3.766993713E0,2.058623552E0,-4.729774296E-1,1.303883672E0
3.768977356E0,2.083124638E0,-6.157228351E-1,1.341167927E0
3.770991516E0,2.105495214E0,-7.685883045E-1,1.373658538E0
3.773005676E0,2.117745638E0,-9.241169095E-1,1.396029115E0
3.774989319E0,2.127865791E0,-1.071123362E0,1.407747030E0
3.777003479E0,2.124137402E0,-1.213868856E0,1.402953267E0
3.778987121E0,2.117745638E0,-1.349157453E0,1.390170097E0
3.780970764E0,2.104962587E0,-1.475923896E0,1.373125911E0
3.782984924E0,2.088450909E0,-1.597364068E0,1.343831062E0
3.784968567E0,2.069276094E0,-1.711347342E0,1.311340570E0
3.786952209E0,2.044242382E0,-1.819471717E0,1.272991061E0
3.788966369E0,2.019741297E0,-1.925465465E0,1.230913043E0
3.790980530E0,1.998968720E0,-2.027730942E0,1.190433025E0
3.793025207E0,1.972869754E0,-2.123604774E0,1.148355126E0
3.794978332E0,1.950499177E0,-2.220011234E0,1.105211854E0
3.796961975E0,1.921737075E0,-2.312689066E0,1.065797091E0
3.798976135E0,1.901497006E0,-2.404834509E0,1.028512836E0
3.800990295E0,1.875930667E0,-2.484196663E0,9.869675040E-1
3.802943420E0,1.854092836E0,-2.563026190E0,9.454222322E-1
3.804927063E0,1.834385395E0,-2.621615887E0,9.038769007E-1
3.806941223E0,1.799764276E0,-2.630137920E0,8.671252728E-1
3.808955383E0,1.783785343E0,-2.640257835E0,8.261125684E-1
3.810908508E0,1.776861072E0,-2.648780107E0,7.904262543E-1
3.812922668E0,1.770469546E0,-2.643453836E0,7.531419992E-1
3.814875793E0,1.766208410E0,-2.624811649E0,7.281082273E-1
3.816859436E0,1.766208410E0,-2.602973700E0,7.046724558E-1
3.818873596E0,1.767806411E0,-2.576874733E0,6.854977012E-1
3.820887756E0,1.774730563E0,-2.554504156E0,6.727145314E-1
3.822871399E0,1.784317970E0,-2.525742054E0,6.641923785E-1
3.824855041E0,1.793372750E0,-2.496447325E0,6.609966159E-1
3.826838684E0,1.804025412E0,-2.471413612E0,6.615292430E-1
3.828852844E0,1.816275954E0,-2.447445154E0,6.673882008E-1
3.830867004E0,1.833320141E0,-2.414421797E0,6.785734296E-1
3.832850647E0,1.853560209E0,-2.376072407E0,6.977482438E-1
3.834803772E0,1.869539142E0,-2.349440813E0,7.195861340E-1
3.836817932E0,1.882322311E0,-2.332396507E0,7.360977530E-1
3.838801574E0,1.894572854E0,-2.308428049E0,7.659251690E-1
3.840785217E0,1.909486532E0,-2.278600693E0,7.994809747E-1
3.842768860E0,1.922269702E0,-2.251969099E0,8.367652297E-1
3.844783020E0,1.937716007E0,-2.230131149E0,8.788431883E-1
3.846766662E0,1.951564431E0,-2.209891081E0,9.235842824E-1
3.848750305E0,1.963814974E0,-2.193912029E0,9.709885716E-1
3.850764465E0,1.974467635E0,-2.186455250E0,1.025317073E0
3.852778625E0,1.986185551E0,-2.184324741E0,1.087102413E0
3.854731750E0,1.996305585E0,-2.197108030E0,1.148887753E0
3.856745910E0,2.003762484E0,-2.220543861E0,1.219195127E0
3.858729553E0,2.003229856E0,-2.257827997E0,1.292698383E0
3.860713196E0,2.001631975E0,-2.314286947E0,1.367799520E0
3.862727356E0,1.992577195E0,-2.388322830E0,1.438639641E0
3.864741516E0,1.975000262E0,-2.478337765E0,1.514806032E0
3.866725158E0,1.956358194E0,-2.583266258E0,1.586178780E0
3.868708801E0,1.927063346E0,-2.697782278E0,1.655421019E0
3.870722961E0,1.894040227E0,-2.822950840E0,1.723597884E0
3.872737121E0,1.855690718E0,-2.959304571E0,1.788046360E0
3.874690246E0,1.806688547E0,-3.104713202E0,1.849299073E0
3.876673889E0,1.753957868E0,-3.272492409E0,1.902029634E0
3.878688049E0,1.692172647E0,-3.442934752E0,1.951564431E0
3.880702209E0,1.627191424E0,-3.614442348E0,1.994175076E0
3.882685852E0,1.548894525E0,-3.786482573E0,2.034122467E0
3.884669494E0,1.465803862E0,-3.950000525E0,2.066612959E0
3.886683655E0,1.372593284E0,-4.107127190E0,2.095907927E0
3.888697815E0,1.273523688E0,-4.247209549E0,2.118810892E0
3.890711975E0,1.169127703E0,-4.366518974E0,2.135855198E0
3.892695617E0,1.059405446E0,-4.468251705E0,2.149703741E0
3.894679260E0,9.448895454E-1,-4.545483589E0,2.160888910E0
3.896662903E0,8.277105093E-1,-4.598746777E0,2.167813063E0
3.898646545E0,7.062703371E-1,-4.634432793E0,2.173672199E0
3.900660705E0,5.853627920E-1,-4.652542591E0,2.183259487E0
3.902674865E0,4.660531878E-1,-4.652542591E0,2.196042776E0
3.904689026E0,3.430151641E-1,-4.640824795E0,2.213086843E0
3.906642151E0,2.263686955E-1,-4.620051861E0,2.234392166E0
3.908625793E0,1.118527651E-1,-4.597148895E0,2.264752150E0
3.910639953E0,3.195793368E-3,-4.569984436E0,2.298308134E0
3.912684631E0,-1.017327532E-1,-4.536428452E0,2.332396507E0
3.914637756E0,-2.087918371E-1,-4.490622520E0,2.363289118E0
3.916621399E0,-3.099919558E-1,-4.437891960E0,2.391518593E0
3.918635559E0,-4.058657587E-1,-4.372910500E0,2.413356543E0
3.920649719E0,-4.985437691E-1,-4.297276974E0,2.432531357E0
3.922633362E0,-5.912217498E-1,-4.211523056E0,2.444782019E0
3.924617004E0,-6.828345060E-1,-4.116181850E0,2.451173544E0
3.926600647E0,-7.691209316E-1,-4.009122849E0,2.453836679E0
3.928614807E0,-8.548747301E-1,-3.895139456E0,2.447445154E0
3.930598449E0,-9.347695708E-1,-3.774764538E0,2.432531357E0
3.932612610E0,-1.017327547E0,-3.645334959E0,2.419215679E0
3.934596252E0,-1.089765549E0,-3.511644363E0,2.397910357E0
3.936549377E0,-1.163268805E0,-3.376355648E0,2.372876644E0
3.938563537E0,-1.230380416E0,-3.241067171E0,2.339320660E0
3.940577697E0,-1.300155282E0,-3.105778456E0,2.305232286E0
3.942561340E0,-1.361407995E0,-2.969424725E0,2.264752150E0
3.944544983E0,-1.425856471E0,-2.830940247E0,2.216815233E0
3.946559143E0,-1.488707066E0,-2.692456007E0,2.171541691E0
3.948573303E0,-1.549427152E0,-2.550243139E0,2.122539520E0
3.950556946E0,-1.608016729E0,-2.406432390E0,2.079928875E0
3.952571106E0,-1.669802070E0,-2.265817404E0,2.042644501E0
3.954554748E0,-1.727858901E0,-2.129996300E0,2.008023500E0
3.956568908E0,-1.792840123E0,-1.995772958E0,1.982457161E0
3.958552551E0,-1.854625463E0,-1.860484362E0,1.960619211E0
3.960536194E0,-1.918541312E0,-1.730522156E0,1.947303414E0
3.962550354E0,-1.980859280E0,-1.603755593E0,1.936118126E0
3.964564514E0,-2.047971010E0,-1.479119658E0,1.931324482E0
3.966578674E0,-2.111354113E0,-1.363538504E0,1.932389736E0
3.968531799E0,-2.180596352E0,-1.253816247E0,1.937183380E0
3.970515442E0,-2.249305964E0,-1.142496109E0,1.947303414E0
