"Time (s)","Gyroscope x (rad/s)","Gyroscope y (rad/s)","Gyroscope z (rad/s)"
3.469699100E-2,1.414111406E-1,2.748812735E-1,2.657185495E-2
3.710230400E-2,1.536280811E-1,2.602209449E-1,3.268032894E-2
3.950761600E-2,1.682884246E-1,2.394521236E-1,3.878879920E-2
4.191292900E-2,1.841704547E-1,2.162399292E-1,4.367557913E-2
4.431824100E-2,2.012741715E-1,1.954711229E-1,4.856235534E-2
4.672355400E-2,2.171562016E-1,1.759240031E-1,4.978405312E-2
4.912886600E-2,2.354816198E-1,1.551551968E-1,5.344913527E-2
5.153417900E-2,2.452551723E-1,1.392731816E-1,5.711421743E-2
5.393943900E-2,2.562504113E-1,1.197260618E-1,5.467082933E-2
5.634475200E-2,2.611372173E-1,1.062874198E-1,5.467082933E-2
5.875006400E-2,2.660239935E-1,9.407047927E-2,5.344913527E-2
6.115537700E-2,2.660239935E-1,8.551861346E-2,5.100574717E-2
6.356068900E-2,2.648022771E-1,8.063183725E-2,4.734066129E-2
6.596600200E-2,2.611372173E-1,8.307522535E-2,4.367557913E-2
6.837131400E-2,2.562504113E-1,9.040539712E-2,4.001049697E-2
7.077662700E-2,2.440334857E-1,1.038440317E-1,4.001049697E-2
7.318193900E-2,2.354816198E-1,1.197260618E-1,3.634541109E-2
7.558725200E-2,2.220429778E-1,1.356080920E-1,3.145863488E-2
7.799251200E-2,2.073826492E-1,1.527118087E-1,2.657185495E-2
8.039782500E-2,1.866138428E-1,1.661504507E-1,2.046338283E-2
8.280313700E-2,1.597365588E-1,1.795890927E-1,1.191152167E-2
8.520845000E-2,1.316375881E-1,1.893626451E-1,3.359660041E-3
8.761376200E-2,9.254335612E-2,1.856975704E-1,-3.970507067E-3
9.001907500E-2,5.100574717E-2,1.808107942E-1,-7.635590620E-3
9.242438700E-2,8.246437646E-3,1.905843467E-1,-1.252236869E-2
9.482970000E-2,-3.329117596E-2,2.052446753E-1,-1.863084175E-2
9.723501200E-2,-7.482878864E-2,2.260134816E-1,-1.985253580E-2
9.964027300E-2,-1.139230132E-1,2.516690791E-1,-2.473931387E-2
1.020455850E-1,-1.469087601E-1,2.773246467E-1,-2.962609194E-2
1.044508980E-1,-1.750077456E-1,2.968717813E-1,-3.451287001E-2
1.068562100E-1,-2.006633282E-1,3.103103936E-1,-4.184303805E-2
1.092615230E-1,-2.202104330E-1,3.127537966E-1,-5.161659420E-2
1.116668350E-1,-2.360924631E-1,3.054236174E-1,-6.139015034E-2
1.140721480E-1,-2.495311052E-1,2.919849753E-1,-7.116370648E-2
1.164774600E-1,-2.544178963E-1,2.724378705E-1,-8.460234851E-2
1.188827730E-1,-2.531961799E-1,2.504473627E-1,-1.029277667E-1
1.212880330E-1,-2.458660156E-1,2.223484069E-1,-1.151447073E-1
1.236933460E-1,-2.324273884E-1,1.930277348E-1,-1.346918195E-1
1.260986580E-1,-2.141019702E-1,1.612636745E-1,-1.554606259E-1
1.285039710E-1,-1.908897758E-1,1.221694499E-1,-1.786728203E-1
1.309092830E-1,-1.640124917E-1,8.307522535E-2,-2.006633282E-1
1.333145960E-1,-1.359135211E-1,4.153761268E-2,-2.226538211E-1
1.357199080E-1,-1.078145429E-1,-2.443389036E-3,-2.422009408E-1
1.381252210E-1,-7.849387079E-2,-4.520269856E-2,-2.641914487E-1
1.405304810E-1,-4.795150831E-2,-8.918370306E-2,-2.812951505E-1
1.429357940E-1,-1.985253580E-2,-1.282779276E-1,-2.983988822E-1
1.453411060E-1,9.468132630E-3,-1.661504507E-1,-3.142809272E-1
1.477464190E-1,3.390202299E-2,-1.991362125E-1,-3.277195692E-1
1.501517310E-1,5.711421743E-2,-2.247917950E-1,-3.362714052E-1
1.525570440E-1,7.910472155E-2,-2.467822880E-1,-3.460449576E-1
1.549623560E-1,9.987352788E-2,-2.663294077E-1,-3.521534503E-1
1.573676690E-1,1.181989461E-1,-2.809897363E-1,-3.558185399E-1
1.597729290E-1,1.353026628E-1,-2.907632887E-1,-3.594835997E-1
1.621782410E-1,1.499630064E-1,-2.968717813E-1,-3.619270027E-1
1.645835540E-1,1.597365588E-1,-2.968717813E-1,-3.668137789E-1
1.669888660E-1,1.731752008E-1,-2.944283783E-1,-3.668137789E-1
1.693941790E-1,1.792836636E-1,-2.895416021E-1,-3.680354655E-1
1.717994910E-1,1.841704547E-1,-2.822114229E-1,-3.692571819E-1
1.742048040E-1,1.915006191E-1,-2.663294077E-1,-3.680354655E-1
1.766101160E-1,1.927223057E-1,-2.528907657E-1,-3.643703759E-1
1.790154290E-1,1.915006191E-1,-2.284568697E-1,-3.631486893E-1
1.814206890E-1,1.939440072E-1,-2.040229887E-1,-3.570402265E-1
1.838260020E-1,1.902789176E-1,-1.795890927E-1,-3.545968235E-1
1.862313140E-1,1.841704547E-1,-1.563768983E-1,-3.509317636E-1
1.886366270E-1,1.817270666E-1,-1.343863904E-1,-3.460449576E-1
1.910419390E-1,1.768402755E-1,-1.160609797E-1,-3.436015844E-1
1.934472520E-1,1.682884246E-1,-9.895725548E-2,-3.411581814E-1
1.958525640E-1,1.646233350E-1,-8.796200156E-2,-3.448232710E-1
1.982578250E-1,1.536280811E-1,-7.941014320E-2,-3.460449576E-1
2.006631370E-1,1.450762302E-1,-7.207997888E-2,-3.497100472E-1
2.030684500E-1,1.365243644E-1,-7.207997888E-2,-3.619270027E-1
2.054737620E-1,1.255291104E-1,-7.452336699E-2,-3.704788685E-1
2.078790750E-1,1.145338640E-1,-7.818844914E-2,-3.826957941E-1
2.102843870E-1,1.010952219E-1,-8.429691941E-2,-3.924693763E-1
2.126897000E-1,8.399149776E-2,-9.407047927E-2,-4.059080184E-1
2.150950120E-1,6.810946763E-2,-1.026223376E-1,-4.205683470E-1
2.175002730E-1,4.978405312E-2,-1.099525094E-1,-4.327852726E-1
2.199055850E-1,3.268032894E-2,-1.172826737E-1,-4.437805414E-1
2.223108980E-1,1.313321572E-2,-1.233911440E-1,-4.547757804E-1
2.247162100E-1,-6.413896102E-3,-1.282779276E-1,-4.645493329E-1
2.271215230E-1,-2.351761982E-2,-1.270562261E-1,-4.755446017E-1
2.295268350E-1,-4.184303805E-2,-1.282779276E-1,-4.828747511E-1
2.319321480E-1,-6.383354217E-2,-1.294996142E-1,-4.889832437E-1
2.343374080E-1,-8.093725890E-2,-1.294996142E-1,-4.950917065E-1
2.367427210E-1,-9.681928903E-2,-1.307213157E-1,-4.950917065E-1
2.391480330E-1,-1.163664013E-1,-1.270562261E-1,-4.987567961E-1
2.415533460E-1,-1.322484314E-1,-1.258345395E-1,-4.963133931E-1
2.439586580E-1,-1.505738497E-1,-1.209477559E-1,-4.926483035E-1
2.463639710E-1,-1.615691036E-1,-1.197260618E-1,-4.914266169E-1
2.487692830E-1,-1.786728203E-1,-1.148392856E-1,-4.914266169E-1
2.511745440E-1,-1.896680743E-1,-1.123958975E-1,-4.889832437E-1
2.535798560E-1,-1.994416267E-1,-1.087308154E-1,-4.840964675E-1
2.559851690E-1,-2.092151791E-1,-1.062874198E-1,-4.840964675E-1
2.583904810E-1,-2.177670449E-1,-1.026223376E-1,-4.853181541E-1
2.607957940E-1,-2.250972092E-1,-9.773556143E-2,-4.889832437E-1
2.632011060E-1,-2.324273884E-1,-9.040539712E-2,-4.938700199E-1
2.656064190E-1,-2.348707765E-1,-8.307522535E-2,-5.036435723E-1
2.680116790E-1,-2.422009408E-1,-7.574506104E-2,-5.183038712E-1
2.704169910E-1,-2.458660156E-1,-6.108472496E-2,-5.329642296E-1
2.728223040E-1,-2.470877171E-1,-4.398100078E-2,-5.525113344E-1
2.752276160E-1,-2.348707765E-1,-6.108472589E-3,-5.830537081E-1
2.776329290E-1,-2.104368806E-1,3.787253052E-2,-6.123743653E-1
2.800382410E-1,-1.884463727E-1,5.986303091E-2,-6.404733658E-1
2.824435540E-1,-1.688992679E-1,6.841489673E-2,-6.661289334E-1
2.848488140E-1,-1.493521482E-1,6.963659078E-2,-6.881194115E-1
2.872541270E-1,-1.310267299E-1,6.474980712E-2,-7.101099491E-1
2.896594390E-1,-1.114796251E-1,6.597150117E-2,-7.308787704E-1
2.920647520E-1,-8.826743066E-2,9.040539712E-2,-7.540909648E-1
2.944700640E-1,-6.505523622E-2,1.062874198E-1,-7.748597264E-1
2.968753770E-1,-4.550812021E-2,1.123958975E-1,-7.956285477E-1
2.992806890E-1,-2.596100792E-2,1.099525094E-1,-8.127322793E-1
3.016859500E-1,-1.130067464E-2,1.050657257E-1,-8.273926377E-1
3.040912620E-1,3.359660041E-3,9.040539712E-2,-8.420529366E-1
3.064965750E-1,1.679829881E-2,6.963659078E-2,-8.554915786E-1
3.089018870E-1,2.657185495E-2,4.031591862E-2,-8.689302206E-1
3.113072000E-1,3.878879920E-2,1.221694518E-2,-8.835905790E-1
3.137125120E-1,4.734066129E-2,-1.832541823E-2,-8.958075047E-1
3.161177730E-1,5.222744122E-2,-4.886778072E-2,-9.116895199E-1
3.185230850E-1,5.711421743E-2,-7.330167294E-2,-9.275715351E-1
3.209283980E-1,5.955760926E-2,-9.529217333E-2,-9.460496902E-1
3.233337100E-1,5.833591148E-2,-1.136175916E-1,-9.668185115E-1
3.257390230E-1,5.833591148E-2,-1.233911440E-1,-9.863656163E-1
3.281443350E-1,5.467082933E-2,-1.368297935E-1,-1.005912781E0
3.305496480E-1,5.344913527E-2,-1.429382563E-1,-1.025459886E0
3.329549080E-1,4.978405312E-2,-1.514901221E-1,-1.041341901E0
3.353602210E-1,4.734066129E-2,-1.563768983E-1,-1.056002140E0
3.377655330E-1,4.611896724E-2,-1.551551968E-1,-1.069440842E0
3.401708460E-1,4.001049697E-2,-1.282779276E-1,-1.084101200E0
3.425761580E-1,3.512371704E-2,-9.162709117E-2,-1.101204872E0
3.449814710E-1,3.390202299E-2,-7.085828483E-2,-1.114643574E0
3.473867830E-1,3.512371704E-2,-5.864133686E-2,-1.129303813E0
3.497920440E-1,3.512371704E-2,-5.986303091E-2,-1.140299082E0
3.521973560E-1,4.123219103E-2,-6.963659078E-2,-1.148851037E0
3.546026690E-1,4.734066129E-2,-8.796200156E-2,-1.154959440E0
3.570079810E-1,5.833591148E-2,-1.148392856E-1,-1.156181097E0
3.594132940E-1,6.810946763E-2,-1.527118087E-1,-1.153737783E0
3.618185540E-1,7.910472155E-2,-1.942494214E-1,-1.145185947E0
3.642238660E-1,9.254335612E-2,-2.382304370E-1,-1.128082156E0
3.666291790E-1,1.084253863E-1,-2.822114229E-1,-1.104869962E0
3.690344910E-1,1.230857223E-1,-3.200839758E-1,-1.076771021E0
3.714398040E-1,1.414111406E-1,-3.518480062E-1,-1.045006990E0
3.738451160E-1,1.621799469E-1,-3.750602305E-1,-1.008356094E0
3.762504290E-1,1.805053651E-1,-3.884988427E-1,-9.704836011E-1
3.786556890E-1,1.988307834E-1,-3.958290219E-1,-9.300149679E-1
3.810610020E-1,2.195995897E-1,-3.921639323E-1,-8.909206986E-1
3.834663140E-1,2.391466945E-1,-3.799470067E-1,-8.518264890E-1
3.858716270E-1,2.574721277E-1,-3.603998721E-1,-8.115105629E-1
3.882769390E-1,2.721324563E-1,-3.347443044E-1,-7.736380696E-1
3.906822520E-1,2.867927849E-1,-3.029802442E-1,-7.394306064E-1
3.930875120E-1,2.990097404E-1,-2.712161839E-1,-7.088882327E-1
3.954928250E-1,3.063398898E-1,-2.382304370E-1,-6.832326651E-1
3.978981370E-1,3.100049794E-1,-2.028012872E-1,-6.587987542E-1
4.003034500E-1,3.148917556E-1,-1.673721522E-1,-6.380299330E-1
4.027087620E-1,3.161134422E-1,-1.319430023E-1,-6.233696342E-1
4.051140750E-1,3.148917556E-1,-9.651386738E-2,-6.123743653E-1
4.075193350E-1,3.124483824E-1,-6.108472496E-2,-6.050441861E-1
4.099246480E-1,3.124483824E-1,-2.932066843E-2,-6.013791561E-1
4.123299600E-1,3.087832928E-1,-1.221694518E-3,-5.989357233E-1
4.147352730E-1,3.051182032E-1,2.687728032E-2,-5.977140665E-1
4.171405850E-1,2.990097404E-1,5.131116882E-2,-6.026008129E-1
4.195458980E-1,2.904578745E-1,7.207997888E-2,-6.074876189E-1
4.219511580E-1,2.819060087E-1,8.918370306E-2,-6.135960817E-1
4.243564710E-1,2.709107697E-1,1.050657257E-1,-6.172611713E-1
4.267617830E-1,2.562504113E-1,1.160609797E-1,-6.258130074E-1
4.291670960E-1,2.415900975E-1,1.270562261E-1,-6.331431866E-1
4.315724080E-1,2.257080674E-1,1.368297935E-1,-6.404733658E-1
4.339777210E-1,2.098260373E-1,1.453816444E-1,-6.490252018E-1
4.363829810E-1,1.951656938E-1,1.514901221E-1,-6.539120078E-1
4.387882940E-1,1.792836636E-1,1.575985998E-1,-6.600204706E-1
4.411936060E-1,1.658450365E-1,1.637070626E-1,-6.636855602E-1
4.435989190E-1,1.524063945E-1,1.698155403E-1,-6.636855602E-1
4.460042310E-1,1.414111406E-1,1.710372269E-1,-6.636855602E-1
4.484095440E-1,1.316375881E-1,1.698155403E-1,-6.600204706E-1
4.508148040E-1,1.243074164E-1,1.637070626E-1,-6.551336646E-1
4.532201160E-1,1.169772521E-1,1.551551968E-1,-6.526902914E-1
4.556254290E-1,1.145338640E-1,1.380514801E-1,-6.441384554E-1
4.580307410E-1,1.169772521E-1,1.172826737E-1,-6.368082762E-1
4.604360540E-1,1.243074164E-1,8.918370306E-2,-6.319214702E-1
4.628413660E-1,1.353026628E-1,5.741964281E-2,-6.258130074E-1
4.652466270E-1,1.487413049E-1,1.954711229E-2,-6.209262609E-1
4.676519390E-1,1.634016484E-1,-2.321219631E-2,-6.123743653E-1
4.700572520E-1,1.817270666E-1,-6.841489673E-2,-6.062659025E-1
4.724625640E-1,2.012741715E-1,-1.209477559E-1,-5.977140665E-1
4.748678770E-1,2.171562016E-1,-1.881409585E-1,-5.891621709E-1
4.772731890E-1,2.354816198E-1,-2.785463631E-1,-5.745018721E-1
4.796784500E-1,2.513636351E-1,-3.860554695E-1,-5.549547076E-1
4.820837620E-1,2.648022771E-1,-5.021164417E-1,-5.341859460E-1
4.844890750E-1,2.745758295E-1,-6.242858768E-1,-5.121954083E-1
4.868943870E-1,2.770192325E-1,-7.440119386E-1,-4.926483035E-1
4.892997000E-1,2.770192325E-1,-8.576295376E-1,-4.731011987E-1
4.917049600E-1,2.721324563E-1,-9.651386738E-1,-4.559974670E-1
4.941102730E-1,2.611372173E-1,-1.062874198E0,-4.364503622E-1
4.965155850E-1,2.489202619E-1,-1.154501319E0,-4.120164812E-1
4.989208980E-1,2.342599183E-1,-1.242463350E0,-3.888042867E-1
5.013262100E-1,2.147128135E-1,-1.315765023E0,-3.668137789E-1
5.037314710E-1,1.927223057E-1,-1.367076159E0,-3.399364948E-1
5.061367830E-1,1.707318127E-1,-1.406170368E0,-3.167243004E-1
5.085420960E-1,1.475196183E-1,-1.425717473E0,-2.947337925E-1
5.109474080E-1,1.230857223E-1,-1.429382563E0,-2.727433145E-1
5.133527210E-1,9.865183383E-2,-1.415943980E0,-2.519744933E-1
5.157580330E-1,7.543963939E-2,-1.385401607E0,-2.312056869E-1
5.181632940E-1,5.467082933E-2,-1.340198874E0,-2.116585821E-1
5.205686060E-1,3.390202299E-2,-1.286444306E0,-1.921114624E-1
5.229739190E-1,1.313321572E-2,-1.218029380E0,-1.737860441E-1
5.253792310E-1,-5.192201585E-3,-1.136175871E0,-1.530172378E-1
5.277845440E-1,-2.107422985E-2,-1.050657272E0,-1.359135211E-1
5.301898040E-1,-3.817795217E-2,-9.651386738E-1,-1.212531775E-1
5.325951160E-1,-5.528167635E-2,-8.857285380E-1,-1.114796251E-1
5.350004290E-1,-6.994201243E-2,-8.173136115E-1,-1.090362370E-1
5.374057410E-1,-8.704573661E-2,-7.586722970E-1,-1.114796251E-1
5.398110540E-1,-1.029277667E-1,-7.134696245E-1,-1.175880954E-1
5.422163660E-1,-1.212531775E-1,-6.768187881E-1,-1.285833418E-1
5.446216270E-1,-1.432436854E-1,-6.450546980E-1,-1.420219839E-1
5.470269390E-1,-1.627907902E-1,-6.218425035E-1,-1.554606259E-1
5.494322520E-1,-1.823379099E-1,-5.986303091E-1,-1.676775664E-1
5.518375640E-1,-2.006633282E-1,-5.790832043E-1,-1.823379099E-1
5.542428770E-1,-2.165453583E-1,-5.546492934E-1,-1.908897758E-1
5.566481370E-1,-2.324273884E-1,-5.314370990E-1,-1.982199401E-1
5.590534500E-1,-2.434226274E-1,-5.070032477E-1,-2.006633282E-1
5.614587620E-1,-2.483094037E-1,-4.740174711E-1,-2.006633282E-1
5.638640750E-1,-2.519744933E-1,-4.361449480E-1,-2.018850148E-1
5.662693870E-1,-2.531961799E-1,-3.946073353E-1,-1.982199401E-1
5.686746480E-1,-2.519744933E-1,-3.506263196E-1,-1.933331639E-1
5.710799600E-1,-2.495311052E-1,-3.090887070E-1,-1.908897758E-1
5.734852730E-1,-2.470877171E-1,-2.663294077E-1,-1.884463727E-1
5.758905850E-1,-2.458660156E-1,-2.247917950E-1,-1.860029846E-1
5.782958980E-1,-2.434226274E-1,-1.869192570E-1,-1.860029846E-1
5.807012100E-1,-2.409792393E-1,-1.527118087E-1,-1.884463727E-1
5.831064710E-1,-2.409792393E-1,-1.197260618E-1,-1.908897758E-1
5.855117830E-1,-2.397575527E-1,-9.407047927E-2,-1.921114624E-1
5.879170960E-1,-2.434226274E-1,-7.207997888E-2,-1.969982386E-1
5.903224080E-1,-2.458660156E-1,-5.864133686E-2,-1.994416267E-1
5.927277210E-1,-2.458660156E-1,-5.008947477E-2,-2.043284029E-1
5.951329810E-1,-2.458660156E-1,-4.642439261E-2,-2.079934925E-1
5.975382940E-1,-2.483094037E-1,-4.764608666E-2,-2.092151791E-1
5.999436060E-1,-2.495311052E-1,-5.008947477E-2,-2.141019702E-1
6.023489190E-1,-2.519744933E-1,-5.131116882E-2,-2.128802687E-1
6.047542310E-1,-2.544178963E-1,-4.764608666E-2,-2.116585821E-1
6.071594910E-1,-2.556395829E-1,-2.809897438E-2,-2.079934925E-1
6.095648040E-1,-2.373141646E-1,4.031591862E-2,-2.067717910E-1
6.119701160E-1,-2.018850148E-1,1.417165697E-1,-2.067717910E-1
6.143754290E-1,-1.554606259E-1,2.699944973E-1,-2.104368806E-1
6.167807410E-1,-1.004843712E-1,4.190412164E-1,-2.116585821E-1
6.191860540E-1,-4.062134400E-2,5.754181147E-1,-2.128802687E-1
6.215913140E-1,1.557660475E-2,7.256865501E-1,-2.067717910E-1
6.239966270E-1,6.810946763E-2,8.600729704E-1,-1.994416267E-1
6.264019390E-1,1.108687744E-1,9.785773158E-1,-1.884463727E-1
6.288072520E-1,1.487413049E-1,1.079977989E0,-1.750077456E-1
6.312125640E-1,1.805053651E-1,1.163053155E0,-1.615691036E-1
6.336178250E-1,1.976090819E-1,1.230246425E0,-1.554606259E-1
6.360231370E-1,2.037175596E-1,1.274227381E0,-1.554606259E-1
6.384284500E-1,2.037175596E-1,1.298661232E0,-1.554606259E-1
6.408337620E-1,1.951656938E-1,1.301104665E0,-1.566823274E-1
6.432390750E-1,1.866138428E-1,1.292552829E0,-1.566823274E-1
6.456443350E-1,1.695101112E-1,1.286444306E0,-1.530172378E-1
6.480496480E-1,1.511846930E-1,1.279114127E0,-1.469087601E-1
6.504549600E-1,1.279724985E-1,1.271783948E0,-1.383569092E-1
6.528602730E-1,1.023169160E-1,1.268118858E0,-1.285833418E-1
6.552655850E-1,7.910472155E-2,1.271783948E0,-1.212531775E-1
6.576708460E-1,5.222744122E-2,1.277892470E0,-1.127013192E-1
6.600761580E-1,2.535016090E-2,1.284000993E0,-1.090362370E-1
6.624814710E-1,3.359660041E-3,1.291331053E0,-1.053711548E-1
6.648867830E-1,-1.618745178E-2,1.304769754E0,-1.114796251E-1
6.672920960E-1,-3.329117596E-2,1.335312128E0,-1.273616552E-1
6.696973560E-1,-3.939964995E-2,1.378071427E0,-1.420219839E-1
6.721026690E-1,-4.306473210E-2,1.420830727E0,-1.493521482E-1
6.745079810E-1,-4.428642616E-2,1.448929667E0,-1.517955512E-1
6.769132940E-1,-4.795150831E-2,1.472141862E0,-1.517955512E-1
6.793186060E-1,-4.672981426E-2,1.501462579E0,-1.517955512E-1
6.817238660E-1,-5.039490014E-2,1.539335132E0,-1.505738497E-1
6.841291790E-1,-5.405998230E-2,1.583316088E0,-1.493521482E-1
6.865344910E-1,-5.772506446E-2,1.629740477E0,-1.444653720E-1
6.889398040E-1,-6.261184067E-2,1.672499776E0,-1.395785958E-1
6.913451160E-1,-6.383354217E-2,1.707928896E0,-1.346918195E-1
6.937503770E-1,-6.749862432E-2,1.733584523E0,-1.298050433E-1
6.961556890E-1,-7.238540053E-2,1.751909971E0,-1.298050433E-1
6.985610020E-1,-7.849387079E-2,1.771457076E0,-1.334701329E-1
7.009663140E-1,-8.338065445E-2,1.784895658E0,-1.346918195E-1
7.033716270E-1,-8.460234851E-2,1.792225838E0,-1.395785958E-1
7.057768870E-1,-8.093725890E-2,1.793447495E0,-1.420219839E-1
7.081822000E-1,-7.360709459E-2,1.788560748E0,-1.481304616E-1
7.105875120E-1,-6.505523622E-2,1.769013643E0,-1.603474021E-1
7.129928250E-1,-6.261184067E-2,1.751909971E0,-1.737860441E-1
7.153980850E-1,-5.405998230E-2,1.736027956E0,-1.921114624E-1
7.178033980E-1,-4.428642616E-2,1.714037418E0,-2.153236568E-1
7.202087100E-1,-3.329117596E-2,1.695711970E0,-2.531961799E-1
7.226140230E-1,-1.740914769E-2,1.678608298E0,-2.837385535E-1
7.250193350E-1,-1.527118147E-3,1.651731014E0,-3.045073450E-1
7.274245960E-1,2.137965523E-3,1.624853730E0,-3.289412558E-1
7.298299080E-1,-2.748812549E-3,1.602863193E0,-3.570402265E-1
7.322352210E-1,-3.970507067E-3,1.594311357E0,-3.814741075E-1
7.346405330E-1,1.068982668E-2,1.594311357E0,-3.973561525E-1
7.370458460E-1,3.145863488E-2,1.596754789E0,-4.071297050E-1
7.394511060E-1,5.100574717E-2,1.585759521E0,-4.169032574E-1
7.418564190E-1,7.421794534E-2,1.568655729E0,-4.193466306E-1
7.442617310E-1,1.010952219E-1,1.546665311E0,-4.217900336E-1
7.466670440E-1,1.243074164E-1,1.543000221E0,-4.217900336E-1
7.490723040E-1,1.450762302E-1,1.568655729E0,-4.181249440E-1
7.514776160E-1,1.621799469E-1,1.604084849E0,-4.120164812E-1
7.538829290E-1,1.853921413E-1,1.641957402E0,-4.010212123E-1
7.562882410E-1,2.171562016E-1,1.677386522E0,-3.924693763E-1
7.586935540E-1,2.501419485E-1,1.710372329E0,-3.851391971E-1
7.610988660E-1,2.880144715E-1,1.747023106E0,-3.839175105E-1
7.635041270E-1,3.210002482E-1,1.809329629E0,-3.851391971E-1
7.659094390E-1,3.503209054E-1,1.905843496E0,-3.851391971E-1
7.683147520E-1,3.735330999E-1,2.010909081E0,-3.863608837E-1
7.707200640E-1,3.906368315E-1,2.115974903E0,-3.888042867E-1
7.731253250E-1,4.101839364E-1,2.221193314E0,-3.924693763E-1
7.755306370E-1,4.236225784E-1,2.314042091E0,-3.949127495E-1
7.779359500E-1,4.333961308E-1,2.392230511E0,-3.973561525E-1
7.803412620E-1,4.395045936E-1,2.456980467E0,-3.936910629E-1
7.827465750E-1,4.407263100E-1,2.507069826E0,-3.912476599E-1
7.851518870E-1,4.346178174E-1,2.548607588E0,-3.863608837E-1
7.875571480E-1,4.211791754E-1,2.579149723E0,-3.851391971E-1
7.899624600E-1,4.040754735E-1,2.604805470E0,-3.924693763E-1
7.923677730E-1,3.808632791E-1,2.623130798E0,-4.083513916E-1
7.947730850E-1,3.576510847E-1,2.647564650E0,-4.266768098E-1
7.971783980E-1,3.368822634E-1,2.686658859E0,-4.450022280E-1
7.995836580E-1,3.234436214E-1,2.734305143E0,-4.669927359E-1
8.019889710E-1,3.173351586E-1,2.791724682E0,-4.902049303E-1
8.043942830E-1,3.148917556E-1,2.860139608E0,-5.060869455E-1
8.067995960E-1,3.197785318E-1,2.934663057E0,-5.231906772E-1
8.092048560E-1,3.283303976E-1,3.010407925E0,-5.415160656E-1
8.116101690E-1,3.393256664E-1,3.080044508E0,-5.610632300E-1
8.140154810E-1,3.454341292E-1,3.143572807E0,-5.781669021E-1
8.164207940E-1,3.417690396E-1,3.181445122E0,-5.964923501E-1
8.188261060E-1,3.295520842E-1,3.205879211E0,-6.099309921E-1
8.212313660E-1,3.100049794E-1,3.221761227E0,-6.197045445E-1
8.236366790E-1,2.831276953E-1,3.235199690E0,-6.258130074E-1
8.260419910E-1,2.489202619E-1,3.249860048E0,-6.282563806E-1
8.284473040E-1,2.073826492E-1,3.254746914E0,-6.270347238E-1
8.308525640E-1,1.634016484E-1,3.252303600E0,-6.258130074E-1
8.332578770E-1,1.169772521E-1,3.238864899E0,-6.209262609E-1
8.356631890E-1,7.177454978E-2,3.209544182E0,-6.123743653E-1
8.380685020E-1,3.512371704E-2,3.164341450E0,-6.026008129E-1
8.404738140E-1,9.162708884E-4,3.110586882E0,-5.916055441E-1
8.428791270E-1,-2.107422985E-2,3.047058821E0,-5.745018721E-1
8.452843870E-1,-3.329117596E-2,2.982309103E0,-5.561764240E-1
8.476897000E-1,-4.550812021E-2,2.938328028E0,-5.402944088E-1
8.500950120E-1,-5.650337040E-2,2.917559147E0,-5.231906772E-1
8.525003250E-1,-6.749862432E-2,2.912672520E0,-5.060869455E-1
8.549055850E-1,-8.338065445E-2,2.921224356E0,-4.865398407E-1
8.573108980E-1,-9.804098308E-2,2.938328028E0,-4.596625566E-1
8.597162100E-1,-1.163664013E-1,2.962761879E0,-4.340069890E-1
8.621215230E-1,-1.334701329E-1,3.001856089E0,-4.034646153E-1
8.645268350E-1,-1.554606259E-1,3.048280478E0,-3.717005551E-1
8.669320960E-1,-1.835595965E-1,3.104478598E0,-3.399364948E-1
8.693374080E-1,-2.202104330E-1,3.179001808E0,-3.057290614E-1
8.717427210E-1,-2.678565085E-1,3.271850586E0,-2.641914487E-1
8.741480330E-1,-3.240544796E-1,3.368364573E0,-2.202104330E-1
8.765532940E-1,-3.839175105E-1,3.446552992E0,-1.786728203E-1
8.789586060E-1,-4.474456310E-1,3.496642351E0,-1.408002973E-1
8.813639190E-1,-5.146388412E-1,3.511302710E0,-1.078145429E-1
8.837692310E-1,-5.806103349E-1,3.513746262E0,-8.093725890E-2
8.861745440E-1,-6.478035450E-1,3.481981993E0,-5.528167635E-2
8.885798040E-1,-7.137750387E-1,3.375694752E0,-2.962609194E-2
8.909851160E-1,-7.821899056E-1,3.205879211E0,-5.192201585E-3
8.933904290E-1,-8.347227573E-1,2.995747566E0,1.924168877E-2
8.957957410E-1,-8.628217578E-1,2.784394503E0,4.978405312E-2
8.982010540E-1,-8.664868474E-1,2.598696947E0,9.498675168E-2
9.006063140E-1,-8.457180262E-1,2.443541765E0,1.426328421E-1
9.030116270E-1,-8.078454733E-1,2.322593927E0,1.939440072E-1
9.054169390E-1,-7.650861740E-1,2.234632015E0,2.415900975E-1
9.078222520E-1,-7.101099491E-1,2.166217089E0,2.806843221E-1
9.102275120E-1,-6.478035450E-1,2.108644724E0,3.075616062E-1
9.126328250E-1,-5.769452453E-1,2.059777021E0,3.271087110E-1
9.150381370E-1,-4.987567961E-1,2.014574289E0,3.381039500E-1
9.174434500E-1,-4.205683470E-1,1.970593214E0,3.442124426E-1
9.198487620E-1,-3.350497186E-1,1.926612258E0,3.466558158E-1
9.222540230E-1,-2.495311052E-1,1.886296391E0,3.454341292E-1
9.246593350E-1,-1.688992679E-1,1.855754018E0,3.393256664E-1
9.270646480E-1,-8.704573661E-2,1.832541823E0,3.283303976E-1
9.294699600E-1,-1.130067464E-2,1.821546555E0,3.148917556E-1
9.318752730E-1,5.955760926E-2,1.812994719E0,3.014531136E-1
9.342805330E-1,1.316375881E-1,1.797112584E0,2.843494117E-1
9.366858460E-1,2.012741715E-1,1.782452345E0,2.623589039E-1
9.390911580E-1,2.635805905E-1,1.772678733E0,2.415900975E-1
9.414964710E-1,3.124483824E-1,1.759240150E0,2.195995897E-1
9.439017830E-1,3.539859951E-1,1.737249613E0,1.963873953E-1
9.463070440E-1,3.869717419E-1,1.707928896E0,1.768402755E-1
9.487123560E-1,4.138490260E-1,1.676164865E0,1.572931707E-1
9.511176690E-1,4.346178174E-1,1.649287581E0,1.377460510E-1
9.535229810E-1,4.504998624E-1,1.621188641E0,1.218640283E-1
9.559282410E-1,4.651601911E-1,1.589424610E0,1.059819981E-1
9.583335540E-1,4.761554301E-1,1.563768983E0,9.132166207E-2
9.607388660E-1,4.834856093E-1,1.544221878E0,6.933116168E-2
9.631441790E-1,4.895940721E-1,1.523453116E0,4.856235534E-2
9.655494910E-1,5.005893111E-1,1.512457848E0,2.901524492E-2
9.679547520E-1,5.140279531E-1,1.521009684E0,7.024743594E-3
9.703600640E-1,5.274665952E-1,1.543000221E0,-1.863084175E-2
9.727653770E-1,5.470137000E-1,1.575985909E0,-4.306473210E-2
9.751706890E-1,5.653391480E-1,1.613858461E0,-6.994201243E-2
9.775759500E-1,5.799994469E-1,1.651731014E0,-9.559759498E-2
9.799812620E-1,5.909947157E-1,1.684716702E0,-1.236965731E-1
9.823865750E-1,6.019899845E-1,1.703042150E0,-1.493521482E-1
9.847918870E-1,6.068767309E-1,1.707928896E0,-1.725643575E-1
9.871972000E-1,6.093201637E-1,1.694490314E0,-1.957765520E-1
9.896024600E-1,6.105418205E-1,1.663947940E0,-2.116585821E-1
9.920077730E-1,6.117635369E-1,1.615080118E0,-2.202104330E-1
9.944130850E-1,6.105418205E-1,1.556438804E0,-2.226538211E-1
9.968183980E-1,6.105418205E-1,1.494132400E0,-2.153236568E-1
9.992237100E-1,6.080984473E-1,1.428160906E0,-2.018850148E-1
1.001628971E0,6.068767309E-1,1.362189412E0,-1.860029846E-1
1.004034283E0,6.007682681E-1,1.301104665E0,-1.676775664E-1
1.006439596E0,5.922164321E-1,1.247350097E0,-1.493521482E-1
1.008844908E0,5.836645365E-1,1.209477544E0,-1.285833418E-1
1.011250169E0,5.714476109E-1,1.186265349E0,-1.065928489E-1
1.013655481E0,5.567872524E-1,1.181378603E0,-8.704573661E-2
1.016060794E0,5.384618640E-1,1.189930439E0,-7.482878864E-2
1.018466106E0,5.176930428E-1,1.203369141E0,-6.627693027E-2
1.020871419E0,4.957025647E-1,1.220472813E0,-6.016845629E-2
1.023276679E0,4.724903405E-1,1.243685007E0,-5.894676223E-2
1.025681991E0,4.492781460E-1,1.273005724E0,-6.016845629E-2
1.028087304E0,4.248442650E-1,1.307213187E0,-6.016845629E-2
1.030492616E0,4.065188468E-1,1.347529054E0,-6.261184067E-2
1.032897929E0,3.881934285E-1,1.387844920E0,-6.505523622E-2
1.035303189E0,3.686463237E-1,1.423274159E0,-6.749862432E-2
1.037708502E0,3.527642787E-1,1.450151443E0,-7.238540053E-2
1.040113814E0,3.368822634E-1,1.469698548E0,-7.360709459E-2
1.042519127E0,3.234436214E-1,1.478250384E0,-7.727217674E-2
1.044924387E0,3.148917556E-1,1.485580564E0,-7.727217674E-2
1.047329700E0,3.051182032E-1,1.496575832E0,-7.482878864E-2
1.049735012E0,2.941229641E-1,1.494132400E0,-7.116370648E-2
1.052140325E0,2.843494117E-1,1.473363638E0,-6.383354217E-2
1.054545637E0,2.782409191E-1,1.453816533E0,-5.405998230E-2
1.056950898E0,2.745758295E-1,1.447708011E0,-3.939964995E-2
1.059356210E0,2.696890533E-1,1.442821264E0,-2.351761982E-2
1.061761523E0,2.672456801E-1,1.428160906E0,-1.007897966E-2
1.064166835E0,2.709107697E-1,1.414722204E0,8.246437646E-3
1.066572148E0,2.745758295E-1,1.403727055E0,2.412846684E-2
1.068977408E0,2.831276953E-1,1.397618532E0,4.245388508E-2
1.071382721E0,2.855710983E-1,1.401283622E0,6.077930331E-2
1.073788033E0,2.892361879E-1,1.413500547E0,8.154810965E-2
1.076193346E0,2.941229641E-1,1.418387294E0,9.865183383E-2
1.078598606E0,3.051182032E-1,1.419609070E0,1.157555580E-1
1.081003919E0,3.148917556E-1,1.415943980E0,1.328592747E-1
1.083409231E0,3.210002482E-1,1.417165637E0,1.499630064E-1
1.085814544E0,3.234436214E-1,1.433047652E0,1.646233350E-1
1.088219856E0,3.271087110E-1,1.441599488E0,1.768402755E-1
1.090625116E0,3.307738006E-1,1.435491085E0,1.853921413E-1
1.093030429E0,3.356605768E-1,1.420830727E0,1.927223057E-1
1.095435741E0,3.381039500E-1,1.406170368E0,1.963873953E-1
1.097841054E0,3.356605768E-1,1.402505279E0,1.988307834E-1
1.100246366E0,3.319954872E-1,1.400061965E0,1.988307834E-1
1.102651627E0,3.356605768E-1,1.381736517E0,2.000524700E-1
1.105056939E0,3.393256664E-1,1.356080890E0,1.988307834E-1
1.107462252E0,3.381039500E-1,1.327981949E0,2.000524700E-1
1.109867564E0,3.356605768E-1,1.310878277E0,1.988307834E-1
1.112272825E0,3.258870244E-1,1.310878277E0,2.000524700E-1
1.114678137E0,3.210002482E-1,1.299883008E0,2.024958730E-1
1.117083450E0,3.234436214E-1,1.276670814E0,2.049392611E-1
1.119488762E0,3.271087110E-1,1.253458619E0,2.086043358E-1
1.121894075E0,3.307738006E-1,1.240019917E0,2.086043358E-1
1.124299335E0,3.332171738E-1,1.243685007E0,2.110477239E-1
1.126704648E0,3.405473530E-1,1.249793530E0,2.073826492E-1
1.129109960E0,3.539859951E-1,1.243685007E0,2.049392611E-1
1.131515273E0,3.674246371E-1,1.227802992E0,1.988307834E-1
1.133920585E0,3.833066523E-1,1.224137902E0,1.902789176E-1
1.136325846E0,3.991886973E-1,1.225359559E0,1.829487532E-1
1.138731158E0,4.114056230E-1,1.229024649E0,1.743968874E-1
1.141136471E0,4.224008918E-1,1.242463350E0,1.682884246E-1
1.143541783E0,4.321744442E-1,1.251015186E0,1.634016484E-1
1.145947096E0,4.456130862E-1,1.247350097E0,1.646233350E-1
1.148352356E0,4.651601911E-1,1.232689738E0,1.695101112E-1
1.150757669E0,4.785988331E-1,1.196038961E0,1.756185889E-1
1.153162981E0,4.932591617E-1,1.153279662E0,1.743968874E-1
1.155568294E0,5.103628635E-1,1.119072199E0,1.780619770E-1
1.157973606E0,5.286883116E-1,1.089751482E0,1.805053651E-1
1.160378866E0,5.457920432E-1,1.062874198E0,1.890572309E-1
1.162784179E0,5.604523420E-1,1.042105436E0,2.024958730E-1
1.165189491E0,5.751127005E-1,1.029888511E0,2.147128135E-1
1.167594804E0,5.885513425E-1,1.029888511E0,2.269297540E-1
1.170000116E0,5.995466113E-1,1.039662004E0,2.354816198E-1
1.172405377E0,6.117635369E-1,1.059209108E0,2.428117841E-1
1.174810689E0,6.252021790E-1,1.087308168E0,2.489202619E-1
1.177216002E0,6.349757314E-1,1.119072199E0,2.513636351E-1
1.179621314E0,6.447492838E-1,1.155722976E0,2.489202619E-1
1.182026575E0,6.484143734E-1,1.187487125E0,2.464768738E-1
1.184431887E0,6.557445526E-1,1.222916245E0,2.391466945E-1
1.186837200E0,6.655181050E-1,1.268118858E0,2.305948436E-1
1.189242512E0,6.752916574E-1,1.318208337E0,2.195995897E-1
1.191647825E0,6.887302995E-1,1.360967636E0,2.049392611E-1
1.194053085E0,7.046123147E-1,1.398840189E0,1.866138428E-1
1.196458398E0,7.204943299E-1,1.423274159E0,1.670667231E-1
1.198863710E0,7.339329720E-1,1.434269309E0,1.426328421E-1
1.201269023E0,7.449282408E-1,1.429382563E0,1.145338640E-1
1.203674335E0,7.583668828E-1,1.415943980E0,8.887827396E-2
1.206079596E0,7.718055248E-1,1.402505279E0,6.810946763E-2
1.208484908E0,7.852441669E-1,1.380514860E0,4.856235534E-2
1.210890221E0,7.925743461E-1,1.352415800E0,3.145863488E-2
1.213295533E0,7.962393761E-1,1.319430113E0,1.435491070E-2
1.215700846E0,7.901309133E-1,1.284000993E0,-1.527118147E-3
1.218106106E0,7.779139876E-1,1.251015186E0,-1.496575773E-2
1.220511419E0,7.620319724E-1,1.225359559E0,-2.473931387E-2
1.222916731E0,7.363763452E-1,1.202147365E0,-3.206948191E-2
1.225322044E0,7.119424939E-1,1.177713513E0,-4.184303805E-2
1.227727356E0,6.838434935E-1,1.163053155E0,-4.672981426E-2
1.230132616E0,6.508577466E-1,1.165496588E0,-5.039490014E-2
1.232537929E0,6.142069101E-1,1.170383334E0,-5.772506446E-2
1.234943241E0,5.787777901E-1,1.178935170E0,-6.627693027E-2
1.237348554E0,5.457920432E-1,1.185043693E0,-7.849387079E-2
1.239753866E0,5.189147592E-1,1.186265349E0,-9.559759498E-2
1.242159127E0,4.957025647E-1,1.189930439E0,-1.090362370E-1
1.244564439E0,4.712686539E-1,1.191152096E0,-1.273616552E-1
1.246969752E0,4.468347728E-1,1.188708782E0,-1.469087601E-1
1.249375064E0,4.236225784E-1,1.185043693E0,-1.713426560E-1
1.251780377E0,3.991886973E-1,1.178935170E0,-1.969982386E-1
1.254185637E0,3.723114133E-1,1.177713513E0,-2.250972092E-1
1.256590950E0,3.539859951E-1,1.167939901E0,-2.495311052E-1
1.258996262E0,3.368822634E-1,1.141062737E0,-2.776300907E-1
1.261401575E0,3.210002482E-1,1.112963676E0,-3.032856584E-1
1.263806887E0,3.075616062E-1,1.087308168E0,-3.277195692E-1
1.266212148E0,2.904578745E-1,1.068982720E0,-3.472666740E-1
1.268617460E0,2.757975459E-1,1.054322362E0,-3.655920923E-1
1.271022773E0,2.635805905E-1,1.042105436E0,-3.814741075E-1
1.273428085E0,2.538070381E-1,1.016449809E0,-3.912476599E-1
1.275833398E0,2.501419485E-1,9.822424054E-1,-3.973561525E-1
1.278238658E0,2.476985604E-1,9.468132257E-1,-3.985778391E-1
1.280643971E0,2.476985604E-1,9.089407325E-1,-3.961344361E-1
1.283049283E0,2.489202619E-1,8.637380004E-1,-3.949127495E-1
1.285454596E0,2.440334857E-1,8.173136115E-1,-3.912476599E-1
1.287859856E0,2.379250079E-1,7.696675658E-1,-3.814741075E-1
1.290265169E0,2.379250079E-1,7.024743557E-1,-3.655920923E-1
1.292670481E0,2.403683960E-1,6.157340407E-1,-3.619270027E-1
1.295075794E0,2.391466945E-1,5.448757410E-1,-3.582619131E-1
1.297481106E0,2.208212912E-1,4.960079789E-1,-3.545968235E-1
1.299886366E0,1.927223057E-1,4.703523815E-1,-3.509317636E-1
1.302291679E0,1.585148573E-1,4.556920528E-1,-3.411581814E-1
1.304696991E0,1.255291104E-1,4.385883212E-1,-3.228327632E-1
1.307102304E0,9.987352788E-2,4.141544402E-1,-3.008422852E-1
1.309507616E0,7.910472155E-2,3.884988427E-1,-2.751866877E-1
1.311912929E0,6.077930331E-2,3.640649617E-1,-2.531961799E-1
1.314318189E0,4.001049697E-2,3.432961702E-1,-2.385358512E-1
1.316723502E0,1.313321572E-2,3.286358118E-1,-2.324273884E-1
1.319128814E0,-1.496575773E-2,3.078670204E-1,-2.324273884E-1
1.321534127E0,-4.428642616E-2,2.809897363E-1,-2.373141646E-1
1.323939439E0,-7.482878864E-2,2.504473627E-1,-2.458660156E-1
1.326344700E0,-9.926267713E-2,2.223484069E-1,-2.556395829E-1
1.328750012E0,-1.175880954E-1,2.137965411E-1,-2.666348219E-1
1.331155325E0,-1.285833418E-1,2.235700935E-1,-2.739650011E-1
1.333560637E0,-1.334701329E-1,2.394521236E-1,-2.776300907E-1
1.335965898E0,-1.408002973E-1,2.528907657E-1,-2.788517773E-1
1.338371210E0,-1.432436854E-1,2.761029601E-1,-2.764083743E-1
1.340776523E0,-1.346918195E-1,3.054236174E-1,-2.739650011E-1
1.343181835E0,-1.212531775E-1,3.335226178E-1,-2.678565085E-1
1.345587148E0,-1.053711548E-1,3.530697227E-1,-2.654131353E-1
1.347992460E0,-8.460234851E-2,3.701734245E-1,-2.629697323E-1
1.350397721E0,-6.139015034E-2,3.811686933E-1,-2.629697323E-1
1.352803033E0,-4.184303805E-2,3.848337829E-1,-2.654131353E-1
1.355208346E0,-2.473931387E-2,3.884988427E-1,-2.690782249E-1
1.357613658E0,-1.985253580E-2,3.823903799E-1,-2.727433145E-1
1.360018971E0,-2.718270384E-2,3.616215885E-1,-2.800734639E-1
1.362424231E0,-4.428642616E-2,3.347443044E-1,-2.898470163E-1
1.364829544E0,-6.749862432E-2,2.980934680E-1,-3.020639718E-1
1.367234856E0,-9.559759498E-2,2.638860047E-1,-3.106158376E-1
1.369640169E0,-1.298050433E-1,2.211267054E-1,-3.240544796E-1
1.372045481E0,-1.676775664E-1,1.808107942E-1,-3.240544796E-1
1.374450741E0,-2.006633282E-1,1.478250325E-1,-3.216110766E-1
1.376856054E0,-2.373141646E-1,1.270562261E-1,-3.216110766E-1
1.379261366E0,-2.764083743E-1,1.099525094E-1,-3.179459870E-1
1.381666679E0,-3.203893900E-1,1.050657257E-1,-3.045073450E-1
1.384071991E0,-3.655920923E-1,1.075091213E-1,-2.849602401E-1
1.386477252E0,-4.120164812E-1,1.123958975E-1,-2.629697323E-1
1.388882564E0,-4.511106908E-1,1.111742035E-1,-2.446443290E-1
1.391287877E0,-4.865398407E-1,1.136175916E-1,-2.275405973E-1
1.393693189E0,-5.183038712E-1,1.209477559E-1,-2.104368806E-1
1.396098502E0,-5.512896776E-1,1.331647038E-1,-1.860029846E-1
1.398503814E0,-5.781669021E-1,1.319430023E-1,-1.615691036E-1
1.400909075E0,-6.050441861E-1,1.185043678E-1,-1.371352077E-1
1.403314387E0,-6.270347238E-1,1.062874198E-1,-1.102579311E-1
1.405719700E0,-6.416950226E-1,9.529217333E-2,-8.704573661E-2
1.408125012E0,-6.526902914E-1,9.773556143E-2,-5.894676223E-2
1.410530273E0,-6.649072170E-1,1.087308154E-1,-2.473931387E-2
1.412935585E0,-6.722373962E-1,1.282779276E-1,8.246437646E-3
1.415340898E0,-6.783458591E-1,1.527118087E-1,4.001049697E-2
1.417746210E0,-6.795675755E-1,1.832541823E-1,7.421794534E-2
1.420151523E0,-6.832326651E-1,2.199050188E-1,1.108687744E-1
1.422556835E0,-6.783458591E-1,2.614426315E-1,1.487413049E-1
1.424962096E0,-6.734591126E-1,3.127537966E-1,1.792836636E-1
1.427367408E0,-6.734591126E-1,3.713951409E-1,2.110477239E-1
1.429772721E0,-6.697940230E-1,4.410317242E-1,2.403683960E-1
1.432178033E0,-6.697940230E-1,5.094466209E-1,2.635805905E-1
1.434583346E0,-6.734591126E-1,5.729747415E-1,2.880144715E-1
1.436988606E0,-6.722373962E-1,6.230642200E-1,3.026748300E-1
1.439393919E0,-6.710157394E-1,6.902574301E-1,3.124483824E-1
1.441799231E0,-6.710157394E-1,8.099834919E-1,3.100049794E-1
1.444204544E0,-6.734591126E-1,9.333745837E-1,3.002314270E-1
1.446609856E0,-6.771242023E-1,1.028666735E0,2.880144715E-1
1.449015116E0,-6.771242023E-1,1.088529825E0,2.709107697E-1
1.451420429E0,-6.759024858E-1,1.131289124E0,2.525853515E-1
1.453825741E0,-6.710157394E-1,1.189930439E0,2.367033064E-1
1.456231054E0,-6.514685750E-1,1.286444306E0,2.061609477E-1
1.458636366E0,-6.233696342E-1,1.403727055E0,1.719534993E-1
1.461041627E0,-5.879405141E-1,1.532004952E0,1.401894391E-1
1.463446939E0,-5.439594984E-1,1.663947940E0,1.108687744E-1
1.465852252E0,-4.950917065E-1,1.772678733E0,8.643488586E-2
1.468257564E0,-4.388937652E-1,1.855754018E0,6.566607952E-2
1.470662877E0,-3.790307343E-1,1.929055691E0,4.734066129E-2
1.473068189E0,-3.191677034E-1,2.015795946E0,3.878879920E-2
1.475473450E0,-2.605263591E-1,2.098871231E0,3.634541109E-2
1.477878762E0,-2.189887464E-1,2.157665253E0,4.123219103E-2
1.480284075E0,-1.896680743E-1,2.164995432E0,4.856235534E-2
1.482689387E0,-1.640124917E-1,2.185764313E0,5.711421743E-2
1.485094700E0,-1.432436854E-1,2.212641478E0,6.200099736E-2
1.487499960E0,-1.273616552E-1,2.222414970E0,6.444438547E-2
1.489905273E0,-1.102579311E-1,2.205311298E0,6.200099736E-2
1.492310585E0,-1.017060652E-1,2.160108566E0,6.200099736E-2
1.494715898E0,-1.017060652E-1,2.090319395E0,6.200099736E-2
1.497121210E0,-1.041494608E-1,2.013352633E0,5.711421743E-2
1.499526523E0,-1.090362370E-1,1.962041378E0,4.489727318E-2
1.501931783E0,-1.163664013E-1,1.916838646E0,3.145863488E-2
1.504337096E0,-1.212531775E-1,1.860640764E0,1.924168877E-2
1.506742408E0,-1.200314835E-1,1.823989868E0,1.313321572E-2
1.509147721E0,-1.139230132E-1,1.804442763E0,1.068982668E-2
1.511553033E0,-1.053711548E-1,1.762905240E0,1.557660475E-2
1.513958294E0,-9.437590092E-2,1.729919434E0,2.535016090E-2
1.516363606E0,-8.460234851E-2,1.723810911E0,4.245388508E-2
1.518768919E0,-7.360709459E-2,1.728697777E0,6.566607952E-2
1.521174231E0,-6.261184067E-2,1.721367598E0,9.865183383E-2
1.523579544E0,-5.405998230E-2,1.710372329E0,1.377460510E-1
1.525984804E0,-4.917320609E-2,1.707928896E0,1.780619770E-1
1.528390116E0,-4.184303805E-2,1.715259075E0,2.171562016E-1
1.530795429E0,-3.573456407E-2,1.700598717E0,2.562504113E-1
1.533200741E0,-3.573456407E-2,1.670056462E0,2.941229641E-1
1.535606054E0,-3.695625812E-2,1.646844268E0,3.283303976E-1
1.538011366E0,-3.573456407E-2,1.638292313E0,3.564293683E-1
1.540416627E0,-3.451287001E-2,1.624853730E0,3.784198761E-1
1.542821939E0,-3.573456407E-2,1.607749939E0,3.967452943E-1
1.545227252E0,-3.573456407E-2,1.600419760E0,4.052971601E-1
1.547632564E0,-3.939964995E-2,1.604084849E0,4.077405334E-1
1.550037877E0,-4.062134400E-2,1.600419760E0,4.052971601E-1
1.552443137E0,-4.550812021E-2,1.595533013E0,3.979669809E-1
1.554848450E0,-5.161659420E-2,1.607749939E0,3.796415627E-1
1.557253762E0,-5.650337040E-2,1.616301894E0,3.515425920E-1
1.559659075E0,-6.383354217E-2,1.608971715E0,3.356605768E-1
1.562064387E0,-6.383354217E-2,1.599198103E0,3.234436214E-1
1.564469700E0,-6.139015034E-2,1.583316088E0,3.100049794E-1
1.566874960E0,-5.894676223E-2,1.569877505E0,2.953446507E-1
1.569280273E0,-5.405998230E-2,1.577207565E0,2.794626355E-1
1.571685585E0,-4.917320609E-2,1.602863193E0,2.611372173E-1
1.574090898E0,-4.184303805E-2,1.628518820E0,2.354816198E-1
1.576496210E0,-3.695625812E-2,1.640735745E0,2.049392611E-1
1.578901471E0,-3.329117596E-2,1.622410297E0,1.792836636E-1
1.581306783E0,-2.718270384E-2,1.578429341E0,1.585148573E-1
1.583712096E0,-1.618745178E-2,1.521009684E0,1.438545287E-1
1.586117408E0,-3.970507067E-3,1.459924936E0,1.438545287E-1
1.588522721E0,1.068982668E-2,1.404948711E0,1.572931707E-1
1.590928033E0,2.168507688E-2,1.354859233E0,1.780619770E-1
1.593333294E0,3.878879920E-2,1.301104665E0,2.024958730E-1
1.595738606E0,5.467082933E-2,1.249793530E0,2.305948436E-1
1.598143919E0,7.666133344E-2,1.194817185E0,2.623589039E-1
1.600549231E0,1.059819981E-1,1.130067468E0,3.100049794E-1
1.602954544E0,1.365243644E-1,1.067761064E0,3.600944579E-1
1.605359856E0,1.792836636E-1,1.006676316E0,4.065188468E-1
1.607765116E0,2.305948436E-1,9.468132257E-1,4.517215490E-1
1.610170429E0,2.855710983E-1,8.918370008E-1,4.920374751E-1
1.612575741E0,3.429907262E-1,8.466343284E-1,5.286883116E-1
1.614981054E0,3.991886973E-1,8.050966859E-1,5.616740584E-1
1.617386366E0,4.553866386E-1,7.745543122E-1,5.922164321E-1
1.619791627E0,5.091412067E-1,7.513421178E-1,6.190937161E-1
1.622196939E0,5.628957748E-1,7.366818190E-1,6.435275674E-1
1.624602252E0,6.154286265E-1,7.379034758E-1,6.667397618E-1
1.627007564E0,6.618530154E-1,7.415685654E-1,6.911736727E-1
1.629412877E0,7.058340311E-1,7.525638342E-1,7.168292403E-1
1.631818189E0,7.400414348E-1,7.769976854E-1,7.461498976E-1
1.634223450E0,7.644753456E-1,8.026533127E-1,7.791357040E-1
1.636628762E0,7.803573608E-1,8.295305967E-1,8.145648241E-1
1.639034075E0,7.852441669E-1,8.588512540E-1,8.524373770E-1
1.641439387E0,7.766922712E-1,8.918370008E-1,8.951966763E-1
1.643844700E0,7.510367036E-1,9.333745837E-1,9.342908859E-1
1.646249960E0,7.107207775E-1,9.736905098E-1,9.770501852E-1
1.648655273E0,6.606312990E-1,1.011563063E0,1.016144395E0
1.651060585E0,5.983248949E-1,1.046992183E0,1.051573515E0
1.653465898E0,5.274665952E-1,1.077534556E0,1.088224411E0
1.655871210E0,4.517215490E-1,1.100746751E0,1.119988441E0
1.658276523E0,3.710896969E-1,1.109298587E0,1.148087382E0
1.660681783E0,2.904578745E-1,1.105633497E0,1.172521353E0
1.663087096E0,2.098260373E-1,1.089751482E0,1.192068458E0
1.665492408E0,1.328592747E-1,1.067761064E0,1.210393786E0
1.667897721E0,5.833591148E-2,1.045770526E0,1.218945742E0
1.670303033E0,-1.130067464E-2,1.021336675E0,1.215280652E0
1.672708294E0,-7.116370648E-2,9.736905098E-1,1.210393786E0
1.675113606E0,-1.236965731E-1,9.321529269E-1,1.212837219E0
1.677518919E0,-1.664558798E-1,9.016105533E-1,1.226275921E0
1.679924231E0,-1.994416267E-1,8.661814332E-1,1.240936160E0
1.682329544E0,-2.226538211E-1,8.002098799E-1,1.256818295E0
1.684734856E0,-2.434226274E-1,7.171346545E-1,1.267813444E0
1.687140169E0,-2.434226274E-1,6.621584296E-1,1.283695459E0
1.689545429E0,-2.348707765E-1,5.900784731E-1,1.299577594E0
1.691950741E0,-2.519744933E-1,4.422534108E-1,1.313016176E0
1.694356054E0,-2.837385535E-1,3.066453338E-1,1.320346355E0
1.696761366E0,-2.983988822E-1,2.516690791E-1,1.320346355E0
1.699166679E0,-2.971771955E-1,2.076880634E-1,1.326454878E0
1.701571991E0,-2.947337925E-1,1.343863904E-1,1.335006714E0
1.703977252E0,-2.849602401E-1,6.841489673E-2,1.341115117E0
1.706382564E0,-2.678565085E-1,2.321219631E-2,1.348445296E0
1.708787877E0,-2.422009408E-1,-1.343864016E-2,1.352110386E0
1.711193189E0,-2.055501044E-1,-5.253286287E-2,1.350888729E0
1.713598502E0,-1.566823274E-1,-1.014006436E-1,1.343558550E0
1.716003762E0,-9.681928903E-2,-1.502684206E-1,1.333784938E0
1.718409075E0,-2.840439789E-2,-1.918060333E-1,1.327676535E0
1.720814387E0,4.734066129E-2,-2.162399292E-1,1.317902923E0
1.723219700E0,1.340809762E-1,-2.370087355E-1,1.305685997E0
1.725625012E0,2.318165302E-1,-2.614426315E-1,1.286138892E0
1.728030325E0,3.393256664E-1,-2.834331393E-1,1.262926698E0
1.730435585E0,4.431696832E-1,-2.993151546E-1,1.233605981E0
1.732840898E0,5.421269536E-1,-3.029802442E-1,1.200620294E0
1.735246210E0,6.288672686E-1,-2.858765125E-1,1.172521353E0
1.737651523E0,7.021689415E-1,-2.443388999E-1,1.145644069E0
1.740056835E0,7.583668828E-1,-1.832541823E-1,1.126096964E0
1.742462148E0,7.986828089E-1,-1.136175916E-1,1.107771516E0
1.744867408E0,8.218950033E-1,-4.398100078E-2,1.094332814E0
1.747272721E0,8.353336453E-1,2.076880634E-2,1.080894232E0
1.749678033E0,8.365553021E-1,7.574506104E-2,1.068677306E0
1.752083346E0,8.292251825E-1,1.197260618E-1,1.054016948E0
1.754488658E0,8.133431077E-1,1.490467340E-1,1.041800022E0
1.756893971E0,7.962393761E-1,1.661504507E-1,1.027139664E0
1.759299231E0,7.718055248E-1,1.747023165E-1,1.012479305E0
1.761704544E0,7.437065244E-1,1.710372269E-1,9.990406632E-1
1.764109856E0,7.156075835E-1,1.600419879E-1,9.904888272E-1
1.766515169E0,6.814001203E-1,1.453816444E-1,9.843803644E-1
1.768920481E0,6.520794630E-1,1.380514801E-1,9.831586480E-1
1.771325741E0,6.264238358E-1,1.429382563E-1,9.843803644E-1
1.773731054E0,6.056550741E-1,1.356080920E-1,9.892671108E-1
1.776136366E0,5.799994469E-1,1.014006436E-1,1.000262380E0
1.778541679E0,5.482354164E-1,6.963659078E-2,1.016144395E0
1.780946991E0,5.140279531E-1,5.741964281E-2,1.036913276E0
1.783352304E0,4.810422063E-1,5.741964281E-2,1.062568784E0
1.785757616E0,4.468347728E-1,6.108472496E-2,1.094332814E0
1.788162877E0,4.114056230E-1,6.597150117E-2,1.128540277E0
1.790568189E0,3.771981895E-1,7.818844914E-2,1.168856263E0
1.792973502E0,3.442124426E-1,9.040539712E-2,1.205507040E0
1.795378814E0,3.161134422E-1,9.407047927E-2,1.244601250E0
1.797784127E0,2.929012477E-1,9.040539712E-2,1.281252146E0
1.800189439E0,2.733541429E-1,8.307522535E-2,1.313016176E0
1.802594700E0,2.574721277E-1,6.841489673E-2,1.344780207E0
1.805000012E0,2.476985604E-1,4.764608666E-2,1.371657491E0
1.807405325E0,2.403683960E-1,2.687728032E-2,1.397313118E0
1.809810637E0,2.342599183E-1,4.886778072E-3,1.421746969E0
1.812215950E0,2.330382317E-1,-1.099525020E-2,1.442515850E0
1.814621262E0,2.354816198E-1,-1.954711229E-2,1.464506269E0
1.817026523E0,2.489202619E-1,-1.588202827E-2,1.479166627E0
1.819431835E0,2.684673667E-1,-1.710372418E-2,1.496270418E0
1.821837148E0,2.867927849E-1,-4.398100078E-2,1.510930657E0
1.824242460E0,3.051182032E-1,-7.696675509E-2,1.523147583E0
1.826647773E0,3.246653080E-1,-9.773556143E-2,1.539029717E0
1.829053085E0,3.442124426E-1,-1.099525094E-1,1.553689957E0
1.831458346E0,3.662029207E-1,-1.209477559E-1,1.570793748E0
1.833863658E0,3.808632791E-1,-1.294996142E-1,1.587897420E0
1.836268971E0,3.955236077E-1,-1.331647038E-1,1.605001211E0
1.838674283E0,4.114056230E-1,-1.270562261E-1,1.622104883E0
1.841079596E0,4.236225784E-1,-1.185043678E-1,1.634321809E0
1.843484908E0,4.358395338E-1,-1.148392856E-1,1.642873645E0
1.845890169E0,4.492781460E-1,-1.099525094E-1,1.651425600E0
1.848295481E0,4.553866386E-1,-1.026223376E-1,1.657534003E0
1.850700794E0,4.651601911E-1,-9.162709117E-2,1.659977436E0
1.853106106E0,4.724903405E-1,-7.818844914E-2,1.662420869E0
1.855511419E0,4.761554301E-1,-6.352811307E-2,1.661199093E0
1.857916731E0,4.773771465E-1,-4.886778072E-2,1.657534003E0
1.860321991E0,4.749337435E-1,-2.809897438E-2,1.651425600E0
1.862727304E0,4.700469673E-1,-3.665083554E-3,1.647760510E0
1.865132616E0,4.663818777E-1,2.443389036E-2,1.641651988E0
1.867537929E0,4.578300118E-1,4.642439261E-2,1.634321809E0
1.869943241E0,4.517215490E-1,6.230641901E-2,1.625769973E0
1.872348554E0,4.456130862E-1,8.674030751E-2,1.614774704E0
1.874753814E0,4.492781460E-1,1.221694499E-1,1.603779435E0
1.877159127E0,4.553866386E-1,1.160609797E-1,1.587897420E0
1.879564439E0,4.541649222E-1,8.429691941E-2,1.575680494E0
1.881969752E0,4.541649222E-1,5.253286287E-2,1.561020136E0
1.884375064E0,4.553866386E-1,3.420744836E-2,1.547581553E0
1.886780377E0,4.553866386E-1,3.176405653E-2,1.536586285E0
1.889185637E0,4.553866386E-1,4.275930673E-2,1.524369359E0
1.891590950E0,4.566083252E-1,5.864133686E-2,1.514595747E0
1.893996262E0,4.566083252E-1,7.085828483E-2,1.503600478E0
1.896401575E0,4.602734149E-1,7.941014320E-2,1.492605329E0
1.898806887E0,4.651601911E-1,8.429691941E-2,1.477944970E0
1.901212200E0,4.688252807E-1,8.674030751E-2,1.465728045E0
1.903617512E0,4.749337435E-1,9.284878522E-2,1.449845910E0
1.906022773E0,4.798205197E-1,9.529217333E-2,1.433963895E0
1.908428085E0,4.847072959E-1,9.651386738E-2,1.420525312E0
1.910833398E0,4.920374751E-1,9.773556143E-2,1.405864954E0
1.913238710E0,4.981459379E-1,9.895725548E-2,1.389982939E0
1.915644023E0,5.054761171E-1,1.026223376E-1,1.376544356E0
1.918049335E0,5.128062963E-1,1.062874198E-1,1.361883998E0
1.920454596E0,5.189147592E-1,1.148392856E-1,1.349667072E0
1.922859908E0,5.262449384E-1,1.209477559E-1,1.336228371E0
1.925265221E0,5.311316848E-1,1.307213157E-1,1.320346355E0
1.927670533E0,5.396835804E-1,1.392731816E-1,1.306907654E0
1.930075846E0,5.470137000E-1,1.490467340E-1,1.293469071E0
1.932481158E0,5.519005060E-1,1.588202864E-1,1.278808713E0
1.934886419E0,5.604523420E-1,1.710372269E-1,1.262926698E0
1.937291731E0,5.665608048E-1,1.869192570E-1,1.248266339E0
1.939697044E0,5.751127005E-1,2.040229887E-1,1.233605981E0
1.942102356E0,5.824428797E-1,2.211267054E-1,1.217723966E0
1.944507669E0,5.909947157E-1,2.394521236E-1,1.198176861E0
1.946912981E0,5.971031785E-1,2.577775419E-1,1.177408099E0
1.949318294E0,6.044333577E-1,2.858765125E-1,1.157860994E0
1.951723554E0,6.129852533E-1,3.151971996E-1,1.130983710E0
1.954128866E0,6.227588058E-1,3.445178568E-1,1.101662993E0
1.956534179E0,6.337540150E-1,3.775036037E-1,1.069898963E0
1.958939491E0,6.447492838E-1,4.056025743E-1,1.036913276E0
1.961344804E0,6.581879258E-1,4.324798584E-1,1.000262380E0
1.963750116E0,6.704048514E-1,4.593571424E-1,9.636115432E-1
1.966155377E0,6.838434935E-1,4.850127101E-1,9.281824231E-1
1.968560689E0,6.972821355E-1,5.094466209E-1,8.939749599E-1
1.970966002E0,7.094991207E-1,5.265503526E-1,8.622109294E-1
1.973371314E0,7.241594195E-1,5.448757410E-1,8.328902125E-1
1.975776627E0,7.351546884E-1,5.595360994E-1,8.072346449E-1
1.978181887E0,7.473716140E-1,5.754181147E-1,7.913526297E-1
1.980587200E0,7.571451664E-1,5.913001299E-1,7.779139876E-1
1.982992512E0,7.632536292E-1,6.022953987E-1,7.718055248E-1
1.985397825E0,7.681404352E-1,6.010736823E-1,7.718055248E-1
1.987803137E0,7.718055248E-1,5.839699507E-1,7.730271816E-1
1.990208450E0,7.705838084E-1,5.607577562E-1,7.791357040E-1
1.992613762E0,7.669187188E-1,5.424323678E-1,7.925743461E-1
1.995019023E0,7.644753456E-1,5.314370990E-1,8.084563613E-1
1.997424335E0,7.583668828E-1,5.289937258E-1,8.341119289E-1
1.999829648E0,7.522584200E-1,5.302154422E-1,8.609892130E-1
2.002234960E0,7.473716140E-1,5.338805318E-1,8.878664970E-1
2.004640273E0,7.375980616E-1,5.314370990E-1,9.196305275E-1
2.007045585E0,7.302678823E-1,5.253286362E-1,9.477295280E-1
2.009450898E0,7.192726731E-1,5.228852630E-1,9.758284688E-1
2.011856158E0,7.082774043E-1,5.131117105E-1,1.001484036E0
2.014261471E0,6.960604787E-1,5.045598149E-1,1.023474574E0
2.016666783E0,6.862868667E-1,4.923428893E-1,1.038134933E0
2.019072096E0,6.740699410E-1,4.789042473E-1,1.052795291E0
2.021477408E0,6.606312990E-1,4.569137394E-1,1.065012217E0
2.023882721E0,6.471926570E-1,4.288147688E-1,1.073564053E0
2.026287981E0,6.300889254E-1,3.982724249E-1,1.080894232E0
2.028693294E0,6.154286265E-1,3.738385141E-1,1.089446068E0
2.031098606E0,6.019899845E-1,3.652866483E-1,1.097997904E0
2.033503919E0,5.909947157E-1,3.726168275E-1,1.106549859E0
2.035909231E0,5.787777901E-1,3.872771561E-1,1.116323352E0
2.038314544E0,5.726693273E-1,4.031592011E-1,1.118766785E0
2.040719856E0,5.677825212E-1,4.300364852E-1,1.117545009E0
2.043125116E0,5.616740584E-1,4.679090083E-1,1.110214949E0
2.045530429E0,5.519005060E-1,5.131117105E-1,1.091889501E0
2.047935741E0,5.384618640E-1,5.485408306E-1,1.066233873E0
2.050341054E0,5.238015056E-1,5.595360994E-1,1.038134933E0
2.052746366E0,5.030327439E-1,5.509842038E-1,1.007592559E0
2.055151679E0,4.785988331E-1,5.277720094E-1,9.770501852E-1
2.057556991E0,4.468347728E-1,4.850127101E-1,9.403993487E-1
2.059962252E0,4.126273096E-1,4.446968138E-1,9.037485123E-1
2.062367564E0,3.796415627E-1,4.275930822E-1,8.658760190E-1
2.064772877E0,3.442124426E-1,4.300364852E-1,8.292251825E-1
2.067178189E0,3.124483824E-1,4.508052766E-1,7.889092565E-1
2.069583502E0,2.794626355E-1,4.727957845E-1,7.510367036E-1
2.071988814E0,2.452551723E-1,4.911212027E-1,7.131641507E-1
2.074394075E0,2.122694254E-1,5.021164417E-1,6.752916574E-1
2.076799387E0,1.780619770E-1,5.082249045E-1,6.386408210E-1
2.079204700E0,1.462979168E-1,5.216635466E-1,5.995466113E-1
2.081610012E0,1.450762302E-1,5.766398311E-1,5.445703268E-1
2.084015325E0,1.572931707E-1,6.169557571E-1,4.895940721E-1
2.086420637E0,1.670667231E-1,6.035171151E-1,4.382829070E-1
2.088825950E0,1.658450365E-1,5.509842038E-1,3.991886973E-1
2.091231210E0,1.524063945E-1,4.996730685E-1,3.625378609E-1
2.093636523E0,1.414111406E-1,4.679090083E-1,3.307738006E-1
2.096041835E0,1.340809762E-1,4.459185004E-1,3.038965166E-1
2.098447148E0,1.316375881E-1,4.251496792E-1,2.782409191E-1
2.100852460E0,1.340809762E-1,4.092676640E-1,2.562504113E-1
2.103257773E0,1.389677525E-1,3.848337829E-1,2.342599183E-1
2.105663085E0,1.462979168E-1,3.555130959E-1,2.159345001E-1
2.108068346E0,1.499630064E-1,3.371876776E-1,2.037175596E-1
2.110473658E0,1.585148573E-1,3.323009014E-1,1.951656938E-1
2.112878971E0,1.658450365E-1,3.323009014E-1,1.902789176E-1
2.115284283E0,1.719534993E-1,3.323009014E-1,1.902789176E-1
2.117689596E0,1.768402755E-1,3.310792148E-1,1.902789176E-1
2.120094908E0,1.841704547E-1,3.359659910E-1,1.939440072E-1
2.122500169E0,1.939440072E-1,3.494046330E-1,1.939440072E-1
2.124905481E0,2.073826492E-1,3.665083647E-1,1.951656938E-1
2.127310794E0,2.220429778E-1,3.897205591E-1,1.976090819E-1
2.129716106E0,2.342599183E-1,4.117110670E-1,2.024958730E-1
2.132121419E0,2.501419485E-1,4.324798584E-1,2.049392611E-1
2.134526731E0,2.635805905E-1,4.434750974E-1,2.061609477E-1
2.136932044E0,2.757975459E-1,4.520269632E-1,2.110477239E-1
2.139337356E0,2.880144715E-1,4.544703662E-1,2.134911120E-1
2.141742616E0,2.990097404E-1,4.581354558E-1,2.171562016E-1
2.144147929E0,3.112266660E-1,4.703523815E-1,2.220429778E-1
2.146553241E0,3.258870244E-1,4.801259339E-1,2.281514555E-1
2.148958554E0,3.381039500E-1,4.898995161E-1,2.354816198E-1
2.151363866E0,3.503209054E-1,4.923428893E-1,2.415900975E-1
2.153769179E0,3.588727713E-1,4.886777997E-1,2.464768738E-1
2.156174439E0,3.723114133E-1,4.911212027E-1,2.525853515E-1
2.158579752E0,3.845283389E-1,4.886777997E-1,2.574721277E-1
2.160985064E0,3.955236077E-1,4.850127101E-1,2.648022771E-1
2.163390377E0,4.114056230E-1,4.825693369E-1,2.733541429E-1
2.165795689E0,4.272876680E-1,4.862344265E-1,2.843494117E-1
2.168201002E0,4.468347728E-1,4.886777997E-1,2.929012477E-1
2.170606314E0,4.700469673E-1,4.923428893E-1,3.026748300E-1
2.173011575E0,4.957025647E-1,4.972296655E-1,3.124483824E-1
2.175416887E0,5.238015056E-1,4.911212027E-1,3.222219348E-1
2.177822200E0,5.506787896E-1,4.752391577E-1,3.295520842E-1
2.180227512E0,5.751127005E-1,4.630222321E-1,3.368822634E-1
2.182632825E0,6.044333577E-1,4.508052766E-1,3.393256664E-1
2.185038137E0,6.325323582E-1,4.349232614E-1,3.393256664E-1
2.187443450E0,6.569662094E-1,4.214846194E-1,3.405473530E-1
2.189848710E0,6.826218367E-1,4.068242610E-1,3.356605768E-1
2.192254023E0,7.070556879E-1,3.909422457E-1,3.344388604E-1
2.194659335E0,7.302678823E-1,3.762819171E-1,3.344388604E-1
2.197064648E0,7.510367036E-1,3.616215885E-1,3.319954872E-1
2.199469960E0,7.718055248E-1,3.530697227E-1,3.332171738E-1
2.201875273E0,7.889092565E-1,3.457395434E-1,3.368822634E-1
2.204280585E0,8.108997345E-1,3.347443044E-1,3.393256664E-1
2.206685846E0,8.292251825E-1,3.213056624E-1,3.442124426E-1
2.209091158E0,8.463288546E-1,3.054236174E-1,3.442124426E-1
2.211496471E0,8.622109294E-1,2.980934680E-1,3.454341292E-1
2.213901783E0,8.780929446E-1,2.993151546E-1,3.466558158E-1
2.216307096E0,8.988617659E-1,3.127537966E-1,3.466558158E-1
2.218712408E0,9.171871543E-1,3.286358118E-1,3.466558158E-1
2.221117721E0,9.355126023E-1,3.420744538E-1,3.417690396E-1
2.223522981E0,9.513946176E-1,3.555130959E-1,3.319954872E-1
2.225928294E0,9.684983492E-1,3.713951409E-1,3.246653080E-1
2.228333606E0,9.868237376E-1,3.872771561E-1,3.100049794E-1
2.230738919E0,1.002705812E0,3.933856487E-1,2.941229641E-1
2.233144231E0,1.017366052E0,3.946073353E-1,2.733541429E-1
2.235549544E0,1.034469843E0,3.933856487E-1,2.525853515E-1
2.237954856E0,1.046686769E0,3.921639323E-1,2.318165302E-1
2.240360116E0,1.058903694E0,3.884988427E-1,2.073826492E-1
2.242765429E0,1.070051670E0,3.872771561E-1,1.890572309E-1
2.245170741E0,1.081046939E0,3.921639323E-1,1.707318127E-1
2.247576054E0,1.088377118E0,3.958290219E-1,1.572931707E-1
2.249981366E0,1.094485521E0,3.970507085E-1,1.450762302E-1
2.252386679E0,1.100594044E0,3.946073353E-1,1.353026628E-1
2.254791939E0,1.105480790E0,3.909422457E-1,1.316375881E-1
2.257197252E0,1.112810969E0,3.775036037E-1,1.279724985E-1
2.259602564E0,1.117697716E0,3.616215885E-1,1.304158866E-1
2.262007877E0,1.123806238E0,3.432961702E-1,1.377460510E-1
2.264413189E0,1.128692985E0,3.261924386E-1,1.475196183E-1
2.266818502E0,1.132358074E0,3.139754832E-1,1.621799469E-1
2.269223814E0,1.132358074E0,3.017585576E-1,1.829487532E-1
2.271629127E0,1.126249671E0,2.724378705E-1,1.927223057E-1
2.274034387E0,1.105480790E0,2.284568697E-1,1.866138428E-1
2.276439700E0,1.092042208E0,2.260134816E-1,1.768402755E-1
2.278845012E0,1.078603506E0,2.321219593E-1,1.719534993E-1
2.281250325E0,1.056460381E0,2.076880634E-1,1.719534993E-1
2.283655637E0,1.030804753E0,1.832541823E-1,1.768402755E-1
2.286060950E0,1.001484036E0,1.747023165E-1,1.915006191E-1
2.288466262E0,9.733850956E-1,1.893626451E-1,2.183778882E-1
2.290871523E0,9.452861547E-1,2.199050188E-1,2.586938143E-1
2.293276835E0,9.147437811E-1,2.504473627E-1,3.026748300E-1
2.295682148E0,8.817580342E-1,2.797680497E-1,3.466558158E-1
2.298087460E0,8.475505710E-1,3.127537966E-1,3.857500553E-1
2.300492773E0,8.108997345E-1,3.396310806E-1,4.211791754E-1
2.302898085E0,7.754706144E-1,3.567348123E-1,4.443913698E-1
2.305303398E0,7.351546884E-1,3.677300513E-1,4.627167881E-1
2.307708658E0,6.960604787E-1,3.823903799E-1,4.712686539E-1
2.310113971E0,6.545228362E-1,4.007157981E-1,4.737120569E-1
2.312519283E0,6.117635369E-1,4.239279926E-1,4.749337435E-1
2.314924596E0,5.677825212E-1,4.508052766E-1,4.712686539E-1
2.317329908E0,5.238015056E-1,4.776825607E-1,4.602734149E-1
2.319735221E0,4.798205197E-1,5.008947253E-1,4.456130862E-1
2.322140533E0,4.333961308E-1,5.057815313E-1,4.309527278E-1
2.324545846E0,3.894151151E-1,5.155550838E-1,4.224008918E-1
2.326951106E0,3.454341292E-1,5.338805318E-1,4.138490260E-1
2.329356419E0,3.002314270E-1,5.619794726E-1,4.101839364E-1
2.331761731E0,2.538070381E-1,6.047387719E-1,4.126273096E-1
2.334167044E0,2.024958730E-1,6.584933400E-1,4.211791754E-1
2.336572356E0,1.499630064E-1,7.159129977E-1,4.297310412E-1
2.338977669E0,9.254335612E-2,7.635591030E-1,4.395045936E-1
2.341382981E0,3.390202299E-2,8.075400591E-1,4.504998624E-1
2.343788241E0,-2.351761982E-2,8.527427912E-1,4.700469673E-1
2.346193554E0,-8.093725890E-2,8.979454637E-1,4.908157587E-1
2.348598866E0,-1.322484314E-1,9.321529269E-1,5.201364160E-1
2.351004179E0,-1.823379099E-1,9.565867782E-1,5.543438792E-1
2.353409491E0,-2.263189107E-1,9.871291518E-1,6.007682681E-1
2.355814804E0,-2.641914487E-1,1.015228152E0,6.557445526E-1
2.358220116E0,-2.996205688E-1,1.012784719E0,7.058340311E-1
2.360625377E0,-3.313846290E-1,9.785773158E-1,7.571451664E-1
2.363030689E0,-3.521534503E-1,9.345963001E-1,8.072346449E-1
2.365436002E0,-3.668137789E-1,8.906152844E-1,8.548807502E-1
2.367841314E0,-3.741439581E-1,8.441908956E-1,9.025267959E-1
2.370246627E0,-3.717005551E-1,8.050966859E-1,9.513946176E-1
2.372651939E0,-3.680354655E-1,7.635591030E-1,1.001484036E0
2.375057252E0,-3.582619131E-1,7.098045349E-1,1.041800022E0
2.377462512E0,-3.399364948E-1,6.413896084E-1,1.077229142E0
2.379867825E0,-3.167243004E-1,5.729747415E-1,1.106549859E0
2.382273137E0,-2.874036431E-1,5.204418898E-1,1.134648800E0
2.384678450E0,-2.483094037E-1,4.813476503E-1,1.159082651E0
2.387083762E0,-2.116585821E-1,4.556920528E-1,1.178629756E0
2.389489075E0,-1.737860441E-1,4.337015450E-1,1.196955204E0
2.391894387E0,-1.408002973E-1,4.068242610E-1,1.201841950E0
2.394299700E0,-1.065928489E-1,3.652866483E-1,1.195733547E0
2.396704960E0,-7.605048269E-2,3.286358118E-1,1.181073189E0
2.399110273E0,-4.795150831E-2,3.139754832E-1,1.162747741E0
2.401515585E0,-2.229592577E-2,3.213056624E-1,1.143200636E0
2.403920898E0,-1.527118147E-3,3.420744538E-1,1.121210098E0
2.406326210E0,9.468132630E-3,3.665083647E-1,1.093111157E0
2.408731523E0,2.535016090E-2,3.811686933E-1,1.057682037E0
2.411136835E0,3.634541109E-2,4.019374847E-1,1.017366052E0
2.413542096E0,5.344913527E-2,4.459185004E-1,9.709417224E-1
2.415947408E0,7.299624383E-2,4.813476503E-1,9.220739603E-1
2.418352721E0,9.009996802E-2,5.094466209E-1,8.756495714E-1
2.420758033E0,1.072036922E-1,5.351021886E-1,8.255600929E-1
2.423163346E0,1.255291104E-1,5.693096519E-1,7.840224504E-1
2.425568658E0,1.414111406E-1,6.230642200E-1,7.437065244E-1
2.427973971E0,1.609582454E-1,6.621584296E-1,7.033905983E-1
2.430379231E0,1.792836636E-1,6.609367132E-1,6.618530154E-1
2.432784544E0,2.024958730E-1,6.377245188E-1,6.215370893E-1
2.435189856E0,2.281514555E-1,6.181774139E-1,5.836645365E-1
2.437595169E0,2.525853515E-1,6.022953987E-1,5.470137000E-1
2.440000481E0,2.733541429E-1,5.888567567E-1,5.140279531E-1
2.442405794E0,2.916795611E-1,5.900784731E-1,4.895940721E-1
2.444811106E0,3.075616062E-1,5.998520255E-1,4.688252807E-1
2.447216419E0,3.246653080E-1,6.255075932E-1,4.443913698E-1
2.449621679E0,3.490992188E-1,6.597150564E-1,4.065188468E-1
2.452026991E0,3.723114133E-1,6.682668924E-1,3.710896969E-1
2.454432304E0,3.979669809E-1,6.401679516E-1,3.393256664E-1
2.456837616E0,4.236225784E-1,6.084038615E-1,3.112266660E-1
2.459242929E0,4.456130862E-1,5.803049207E-1,2.904578745E-1
2.461648241E0,4.651601911E-1,5.632011890E-1,2.757975459E-1
2.464053554E0,4.798205197E-1,5.326588154E-1,2.660239935E-1
2.466458866E0,4.834856093E-1,4.703523815E-1,2.452551723E-1
2.468864127E0,4.834856093E-1,4.288147688E-1,2.244863659E-1
2.471269439E0,4.895940721E-1,4.141544402E-1,2.061609477E-1
2.473674752E0,4.944808483E-1,4.007157981E-1,1.976090819E-1
2.476080064E0,4.969242513E-1,3.884988427E-1,1.951656938E-1
2.478485377E0,4.993676245E-1,3.872771561E-1,1.963873953E-1
2.480890689E0,4.993676245E-1,3.823903799E-1,1.976090819E-1
2.483296002E0,5.005893111E-1,3.775036037E-1,1.976090819E-1
2.485701314E0,5.042544007E-1,3.823903799E-1,1.988307834E-1
2.488106575E0,5.115845799E-1,3.982724249E-1,1.963873953E-1
2.490511887E0,5.164713860E-1,4.202629030E-1,1.915006191E-1
2.492917200E0,5.225798488E-1,4.385883212E-1,1.756185889E-1
2.495322512E0,5.335750580E-1,4.789042473E-1,1.450762302E-1
2.497727825E0,5.457920432E-1,5.131117105E-1,1.023169160E-1
2.500133137E0,5.592306852E-1,5.167768002E-1,6.077930331E-2
2.502538450E0,5.714476109E-1,5.155550838E-1,2.046338283E-2
2.504943710E0,5.836645365E-1,5.131117105E-1,-1.863084175E-2
2.507349023E0,5.922164321E-1,5.021164417E-1,-5.650337040E-2
2.509754335E0,5.983248949E-1,4.862344265E-1,-9.071081877E-2
2.512159648E0,6.056550741E-1,4.789042473E-1,-1.200314835E-1
2.514564960E0,6.142069101E-1,4.935645759E-1,-1.469087601E-1
2.516970273E0,6.227588058E-1,5.070032477E-1,-1.713426560E-1
2.519375585E0,6.288672686E-1,5.179984570E-1,-1.957765520E-1
2.521780898E0,6.325323582E-1,5.241069198E-1,-2.177670449E-1
2.524186158E0,6.374191046E-1,5.265503526E-1,-2.397575527E-1
2.526591471E0,6.435275674E-1,5.375455618E-1,-2.629697323E-1
2.528996783E0,6.484143734E-1,5.583143830E-1,-2.861819267E-1
2.531402096E0,6.508577466E-1,5.913001299E-1,-3.057290614E-1
2.533807408E0,6.496360302E-1,6.267293096E-1,-3.264978528E-1
2.536212721E0,6.435275674E-1,6.548282504E-1,-3.484883606E-1
2.538618033E0,6.398624778E-1,6.792621613E-1,-3.680354655E-1
2.541023346E0,6.300889254E-1,6.951441765E-1,-3.936910629E-1
2.543428606E0,6.178719997E-1,7.012526393E-1,-4.169032574E-1
2.545833919E0,6.032116413E-1,7.171346545E-1,-4.401154518E-1
2.548239231E0,5.836645365E-1,7.281299233E-1,-4.645493329E-1
2.550644544E0,5.641174316E-1,7.342383862E-1,-4.865398407E-1
2.553049856E0,5.396835804E-1,7.427902818E-1,-5.036435723E-1
2.555455169E0,5.164713860E-1,7.611156702E-1,-5.183038712E-1
2.557860481E0,4.944808483E-1,7.904363275E-1,-5.280774832E-1
2.560265794E0,4.700469673E-1,8.026533127E-1,-5.378510356E-1
2.562671054E0,4.456130862E-1,8.099834919E-1,-5.451811552E-1
2.565076366E0,4.211791754E-1,8.185353279E-1,-5.451811552E-1
2.567481679E0,3.991886973E-1,8.283088803E-1,-5.427377820E-1
2.569886991E0,3.771981895E-1,8.295305967E-1,-5.378510356E-1
2.572292304E0,3.552076817E-1,8.209787011E-1,-5.268557668E-1
2.574697616E0,3.332171738E-1,8.014315963E-1,-5.170822144E-1
2.577102929E0,3.173351586E-1,7.831062078E-1,-4.987567961E-1
2.579508189E0,3.002314270E-1,7.647807598E-1,-4.779879749E-1
2.581913502E0,2.843494117E-1,7.488987446E-1,-4.559974670E-1
2.584318814E0,2.733541429E-1,7.256865501E-1,-4.303418994E-1
2.586724127E0,2.635805905E-1,6.927008033E-1,-4.083513916E-1
2.589129439E0,2.550287247E-1,6.560499668E-1,-3.826957941E-1
2.591534752E0,2.525853515E-1,6.071822047E-1,-3.558185399E-1
2.593940064E0,2.538070381E-1,5.534276366E-1,-3.313846290E-1
2.596345325E0,2.562504113E-1,4.960079789E-1,-3.081724346E-1
2.598750637E0,2.635805905E-1,4.459185004E-1,-2.874036431E-1
2.601155950E0,2.733541429E-1,4.080459774E-1,-2.654131353E-1
2.603561262E0,2.880144715E-1,3.787252903E-1,-2.446443290E-1
2.605966575E0,3.075616062E-1,3.567348123E-1,-2.250972092E-1
2.608371887E0,3.258870244E-1,3.359659910E-1,-2.104368806E-1
2.610777200E0,3.454341292E-1,3.054236174E-1,-1.957765520E-1
2.613182512E0,3.625378609E-1,2.822114229E-1,-1.811162084E-1
2.615587825E0,3.735330999E-1,2.565558553E-1,-1.688992679E-1
2.617993085E0,3.833066523E-1,2.443388999E-1,-1.591257155E-1
2.620398398E0,3.930802047E-1,2.357870489E-1,-1.530172378E-1
2.622803710E0,3.955236077E-1,2.333436459E-1,-1.505738497E-1
2.625209023E0,3.930802047E-1,2.235700935E-1,-1.469087601E-1
2.627614335E0,3.820849657E-1,2.150182426E-1,-1.493521482E-1
2.630019648E0,3.649812341E-1,2.089097649E-1,-1.542389393E-1
2.632424960E0,3.417690396E-1,2.174616307E-1,-1.627907902E-1
2.634830273E0,3.112266660E-1,2.345653474E-1,-1.713426560E-1
2.637235533E0,2.794626355E-1,2.467822880E-1,-1.872246861E-1
2.639640846E0,2.440334857E-1,2.589992285E-1,-2.055501044E-1
2.642046158E0,2.049392611E-1,2.675510943E-1,-2.238755226E-1
2.644451471E0,1.597365588E-1,2.699944973E-1,-2.434226274E-1
2.646856783E0,1.157555580E-1,2.663294077E-1,-2.654131353E-1
2.649262096E0,6.933116168E-2,2.651077211E-1,-2.849602401E-1
2.651667408E0,2.412846684E-2,2.651077211E-1,-3.045073450E-1
2.654072721E0,-2.107422985E-2,2.663294077E-1,-3.228327632E-1
2.656477981E0,-6.749862432E-2,2.651077211E-1,-3.350497186E-1
2.658883294E0,-1.102579311E-1,2.638860047E-1,-3.460449576E-1
2.661288606E0,-1.517955512E-1,2.663294077E-1,-3.497100472E-1
2.663693919E0,-1.921114624E-1,2.761029601E-1,-3.533751369E-1
2.666099231E0,-2.299840003E-1,2.834331393E-1,-3.509317636E-1
2.668504544E0,-2.641914487E-1,2.919849753E-1,-3.448232710E-1
2.670909856E0,-2.959555089E-1,2.968717813E-1,-3.374931216E-1
2.673315169E0,-3.179459870E-1,3.017585576E-1,-3.289412558E-1
2.675720429E0,-3.338280320E-1,3.078670204E-1,-3.167243004E-1
2.678125741E0,-3.448232710E-1,3.164188862E-1,-3.057290614E-1
2.680531054E0,-3.497100472E-1,3.213056624E-1,-2.922904193E-1
2.682936366E0,-3.484883606E-1,3.188622594E-1,-2.788517773E-1
2.685341679E0,-3.472666740E-1,3.103103936E-1,-2.593046725E-1
2.687746991E0,-3.448232710E-1,2.980934680E-1,-2.373141646E-1
2.690152304E0,-3.387148082E-1,2.858765125E-1,-2.128802687E-1
2.692557616E0,-3.313846290E-1,2.724378705E-1,-1.884463727E-1
2.694962929E0,-3.228327632E-1,2.614426315E-1,-1.603474021E-1
2.697368189E0,-3.142809272E-1,2.431172132E-1,-1.334701329E-1
2.699773502E0,-3.069507480E-1,2.260134816E-1,-1.029277667E-1
2.702178814E0,-2.983988822E-1,2.052446753E-1,-6.994201243E-2
2.704584127E0,-2.910687327E-1,1.856975704E-1,-3.573456407E-2
2.706989439E0,-2.825168669E-1,1.722589284E-1,-3.970507067E-3
2.709394752E0,-2.739650011E-1,1.612636745E-1,2.535016090E-2
2.711800064E0,-2.678565085E-1,1.453816444E-1,4.489727318E-2
2.714205325E0,-2.617480457E-1,1.307213157E-1,6.200099736E-2
2.716610637E0,-2.580829561E-1,1.123958975E-1,7.055285573E-2
2.719015950E0,-2.556395829E-1,9.773556143E-2,7.666133344E-2
2.721421262E0,-2.531961799E-1,7.941014320E-2,7.666133344E-2
2.723826575E0,-2.519744933E-1,6.352811307E-2,7.299624383E-2
2.726231887E0,-2.519744933E-1,4.275930673E-2,7.055285573E-2
2.728637200E0,-2.495311052E-1,2.443389036E-2,6.688777357E-2
2.731042512E0,-2.470877171E-1,8.551862091E-3,6.933116168E-2
2.733447825E0,-2.446443290E-1,-4.886778072E-3,7.055285573E-2
2.735853085E0,-2.409792393E-1,-2.199050039E-2,7.055285573E-2
2.738258398E0,-2.385358512E-1,-4.031591862E-2,7.666133344E-2
2.740663710E0,-2.385358512E-1,-5.986303091E-2,8.276980370E-2
2.743069023E0,-2.385358512E-1,-7.574506104E-2,9.132166207E-2
2.745474335E0,-2.385358512E-1,-8.307522535E-2,1.010952219E-1
2.747879648E0,-2.373141646E-1,-9.040539712E-2,1.108687744E-1
2.750284960E0,-2.348707765E-1,-9.529217333E-2,1.218640283E-1
2.752690273E0,-2.312056869E-1,-1.026223376E-1,1.316375881E-1
2.755095533E0,-2.275405973E-1,-1.075091213E-1,1.414111406E-1
2.757500846E0,-2.226538211E-1,-1.123958975E-1,1.487413049E-1
2.759906158E0,-2.153236568E-1,-1.185043678E-1,1.548497826E-1
2.762311471E0,-2.067717910E-1,-1.221694499E-1,1.634016484E-1
2.764716783E0,-1.957765520E-1,-1.209477559E-1,1.719534993E-1
2.767122096E0,-1.835595965E-1,-1.160609797E-1,1.817270666E-1
2.769527408E0,-1.701209545E-1,-1.148392856E-1,1.927223057E-1
2.771932721E0,-1.554606259E-1,-1.160609797E-1,2.037175596E-1
2.774338033E0,-1.383569092E-1,-1.148392856E-1,2.134911120E-1
2.776743294E0,-1.212531775E-1,-1.136175916E-1,2.195995897E-1
2.779148606E0,-1.029277667E-1,-1.111742035E-1,2.281514555E-1
2.781553919E0,-8.826743066E-2,-1.050657257E-1,2.293731421E-1
2.783959231E0,-7.238540053E-2,-1.001789495E-1,2.293731421E-1
2.786364544E0,-5.650337040E-2,-9.162709117E-2,2.232646793E-1
2.788769856E0,-4.184303805E-2,-8.307522535E-2,2.159345001E-1
2.791175169E0,-2.718270384E-2,-8.063183725E-2,2.024958730E-1
2.793580481E0,-1.618745178E-2,-9.773556143E-2,1.768402755E-1
2.795985794E0,-3.970507067E-3,-1.123958975E-1,1.524063945E-1
2.798391054E0,1.068982668E-2,-1.136175916E-1,1.181989461E-1
2.800796366E0,2.901524492E-2,-1.075091213E-1,8.643488586E-2
2.803201679E0,4.978405312E-2,-1.062874198E-1,5.589252338E-2
2.805606991E0,7.543963939E-2,-1.160609797E-1,2.535016090E-2
2.808012304E0,1.059819981E-1,-1.270562261E-1,-1.527118147E-3
2.810417616E0,1.377460510E-1,-1.392731816E-1,-2.596100792E-2
2.812822929E0,1.743968874E-1,-1.514901221E-1,-4.917320609E-2
2.815228241E0,2.122694254E-1,-1.588202864E-1,-6.872031838E-2
2.817633502E0,2.538070381E-1,-1.624853760E-1,-8.582404256E-2
2.820038814E0,2.953446507E-1,-1.734806150E-1,-1.053711548E-1
2.822444127E0,3.356605768E-1,-1.856975704E-1,-1.249182671E-1
2.824849439E0,3.771981895E-1,-2.089097649E-1,-1.469087601E-1
2.827254752E0,4.150707126E-1,-2.345653474E-1,-1.713426560E-1
2.829660064E0,4.517215490E-1,-2.638860047E-1,-1.969982386E-1
2.832065377E0,4.883723855E-1,-2.907632887E-1,-2.202104330E-1
2.834470637E0,5.238015056E-1,-3.176405728E-1,-2.470877171E-1
2.836875950E0,5.580089688E-1,-3.396310806E-1,-2.739650011E-1
2.839281262E0,5.934380889E-1,-3.603998721E-1,-3.045073450E-1
2.841686575E0,6.252021790E-1,-3.836120665E-1,-3.362714052E-1
2.844091887E0,6.557445526E-1,-4.068242610E-1,-3.717005551E-1
2.846497200E0,6.862868667E-1,-4.324798584E-1,-4.120164812E-1
2.848902512E0,7.107207775E-1,-4.581354558E-1,-4.535540938E-1
2.851307825E0,7.327113152E-1,-4.813476503E-1,-4.963133931E-1
2.853713137E0,7.559235096E-1,-5.008947253E-1,-5.390726924E-1
2.856118450E0,7.742488980E-1,-5.094466209E-1,-5.806103349E-1
2.858523710E0,7.925743461E-1,-5.155550838E-1,-6.197045445E-1
2.860929023E0,8.121214509E-1,-5.106683373E-1,-6.575770974E-1
2.863334335E0,8.304468393E-1,-4.996730685E-1,-6.893411279E-1
2.865739648E0,8.512156606E-1,-4.874561131E-1,-7.149966955E-1
2.868144960E0,8.695410490E-1,-4.801259339E-1,-7.369872332E-1
2.870550273E0,8.866447806E-1,-4.776825607E-1,-7.565343380E-1
2.872955585E0,9.037485123E-1,-4.825693369E-1,-7.736380696E-1
2.875360898E0,9.196305275E-1,-4.935645759E-1,-7.846332788E-1
2.877766158E0,9.367342591E-1,-5.094466209E-1,-7.956285477E-1
2.880171471E0,9.513946176E-1,-5.228852630E-1,-8.029587269E-1
2.882576783E0,9.672766328E-1,-5.326588154E-1,-8.090671897E-1
2.884982096E0,9.819369912E-1,-5.375455618E-1,-8.115105629E-1
2.887387408E0,9.941539168E-1,-5.436540842E-1,-8.139539957E-1
2.889792721E0,1.007592559E0,-5.509842038E-1,-8.127322793E-1
2.892198033E0,1.021031141E0,-5.570927262E-1,-8.066238165E-1
2.894603346E0,1.034469843E0,-5.607577562E-1,-7.980719209E-1
2.897008658E0,1.046686769E0,-5.644228458E-1,-7.858549953E-1
2.899413971E0,1.055238605E0,-5.619794726E-1,-7.724163532E-1
2.901819231E0,1.061347127E0,-5.595360994E-1,-7.565343380E-1
2.904224544E0,1.067608237E0,-5.632011890E-1,-7.418739796E-1
2.906629856E0,1.068677306E0,-5.619794726E-1,-7.259919643E-1
2.909035169E0,1.084712029E0,-5.167768002E-1,-7.113316059E-1
2.911440481E0,1.110367656E0,-4.691306949E-1,-6.917845011E-1
2.913845794E0,1.123806238E0,-4.715740979E-1,-6.661289334E-1
2.916251106E0,1.132358074E0,-4.984513521E-1,-6.355865598E-1
2.918656419E0,1.133579850E0,-5.216635466E-1,-6.038225293E-1
2.921061679E0,1.133579850E0,-5.351021886E-1,-5.696150661E-1
2.923466991E0,1.128692985E0,-5.387672782E-1,-5.305208564E-1
2.925872304E0,1.117697716E0,-5.399889946E-1,-4.889832437E-1
2.928277616E0,1.090820551E0,-5.607577562E-1,-4.450022280E-1
2.930682929E0,1.043021679E0,-5.827482939E-1,-4.010212123E-1
2.933088241E0,9.770501852E-1,-6.059604883E-1,-3.607053161E-1
2.935493554E0,8.976400495E-1,-6.181774139E-1,-3.240544796E-1
2.937898866E0,8.084563613E-1,-6.035171151E-1,-2.959555089E-1
2.940304179E0,7.229377031E-1,-5.668662786E-1,-2.702999115E-1
2.942709439E0,6.349757314E-1,-5.143333673E-1,-2.495311052E-1
2.945114752E0,5.494571328E-1,-4.654656053E-1,-2.385358512E-1
2.947520064E0,4.663818777E-1,-4.251496792E-1,-2.312056869E-1
2.949925377E0,3.833066523E-1,-3.848337829E-1,-2.312056869E-1
2.952330689E0,3.038965166E-1,-3.469612300E-1,-2.336490750E-1
2.954736002E0,2.257080674E-1,-3.127537966E-1,-2.348707765E-1
2.957141314E0,1.499630064E-1,-2.809897363E-1,-2.336490750E-1
2.959546627E0,7.910472155E-2,-2.541124523E-1,-2.324273884E-1
2.961951939E0,1.313321572E-2,-2.345653474E-1,-2.287622988E-1
2.964357200E0,-4.062134400E-2,-2.125748396E-1,-2.177670449E-1
2.966762512E0,-7.727217674E-2,-1.930277348E-1,-2.006633282E-1
2.969167825E0,-1.065928489E-1,-1.820324808E-1,-1.762294322E-1
2.971573137E0,-1.236965731E-1,-1.734806150E-1,-1.469087601E-1
2.973978450E0,-1.334701329E-1,-1.685938388E-1,-1.188097894E-1
2.976383762E0,-1.408002973E-1,-1.673721522E-1,-9.559759498E-2
2.978789075E0,-1.371352077E-1,-1.673721522E-1,-7.727217674E-2
2.981194387E0,-1.322484314E-1,-1.661504507E-1,-6.383354217E-2
2.983599700E0,-1.175880954E-1,-1.624853760E-1,-5.772506446E-2
2.986004960E0,-9.681928903E-2,-1.600419879E-1,-5.772506446E-2
2.988410273E0,-7.116370648E-2,-1.539335102E-1,-6.016845629E-2
2.990815585E0,-4.184303805E-2,-1.478250325E-1,-7.116370648E-2
2.993220898E0,-1.252236869E-2,-1.392731816E-1,-9.071081877E-2
2.995626210E0,2.046338283E-2,-1.294996142E-1,-1.139230132E-1
2.998031523E0,5.100574717E-2,-1.221694499E-1,-1.408002973E-1
3.000436835E0,7.910472155E-2,-1.172826737E-1,-1.750077456E-1
3.002842148E0,1.059819981E-1,-1.075091213E-1,-2.104368806E-1
3.005247460E0,1.316375881E-1,-9.651386738E-2,-2.446443290E-1
3.007652721E0,1.536280811E-1,-8.674030751E-2,-2.776300907E-1
3.010058033E0,1.707318127E-1,-7.574506104E-2,-3.106158376E-1
3.012463346E0,1.866138428E-1,-5.986303091E-2,-3.423798978E-1
3.014868658E0,1.878355294E-1,-5.619794875E-2,-3.631486893E-1
3.017273971E0,1.707318127E-1,-5.986303091E-2,-3.692571819E-1
3.019679283E0,1.426328421E-1,-5.619794875E-2,-3.643703759E-1
3.022084596E0,1.072036922E-1,-4.520269856E-2,-3.619270027E-1
3.024489908E0,7.055285573E-2,-3.665083647E-2,-3.619270027E-1
3.026895221E0,3.145863488E-2,-4.275930673E-2,-3.692571819E-1
3.029300481E0,-1.863084175E-2,-8.796200156E-2,-3.814741075E-1
3.031705794E0,-5.528167635E-2,-1.062874198E-1,-3.851391971E-1
3.034111106E0,-8.826743066E-2,-1.050657257E-1,-3.668137789E-1
3.036516419E0,-1.163664013E-1,-8.674030751E-2,-3.399364948E-1
3.038921731E0,-1.383569092E-1,-5.986303091E-2,-3.142809272E-1
3.041327044E0,-1.640124917E-1,-5.008947477E-2,-2.886253297E-1
3.043732356E0,-1.835595965E-1,-5.375456065E-2,-2.568612695E-1
3.046137669E0,-2.031067163E-1,-7.330167294E-2,-2.214321345E-1
3.048542981E0,-2.153236568E-1,-1.001789495E-1,-1.786728203E-1
3.050948294E0,-2.202104330E-1,-1.331647038E-1,-1.285833418E-1
3.053353554E0,-2.214321345E-1,-1.710372269E-1,-7.727217674E-2
3.055758866E0,-2.128802687E-1,-2.040229887E-1,-1.985253580E-2
3.058164179E0,-1.994416267E-1,-2.357870489E-1,3.756710514E-2
3.060569491E0,-1.811162084E-1,-2.651077211E-1,9.376505762E-2
3.062974804E0,-1.627907902E-1,-2.944283783E-1,1.475196183E-1
3.065380116E0,-1.395785958E-1,-3.176405728E-1,1.939440072E-1
3.067785429E0,-1.163664013E-1,-3.396310806E-1,2.342599183E-1
3.070190741E0,-9.681928903E-2,-3.603998721E-1,2.696890533E-1
3.072596002E0,-8.093725890E-2,-3.762819171E-1,2.977880239E-1
3.075001314E0,-6.872031838E-2,-3.897205591E-1,3.246653080E-1
3.077406627E0,-6.139015034E-2,-4.019374847E-1,3.466558158E-1
3.079811939E0,-6.016845629E-2,-4.178195298E-1,3.674246371E-1
3.082217252E0,-6.505523622E-2,-4.324798584E-1,3.820849657E-1
3.084622564E0,-7.971556485E-2,-4.459185004E-1,4.016320705E-1
3.087027877E0,-9.559759498E-2,-4.679090083E-1,4.236225784E-1
3.089433189E0,-1.224748790E-1,-4.874561131E-1,4.529432356E-1
3.091838502E0,-1.554606259E-1,-5.131117105E-1,4.871506989E-1
3.094243814E0,-1.933331639E-1,-5.375455618E-1,5.286883116E-1
3.096649075E0,-2.409792393E-1,-5.607577562E-1,5.738909841E-1
3.099054387E0,-2.922904193E-1,-5.851916671E-1,6.276455522E-1
3.101459700E0,-3.472666740E-1,-6.145123243E-1,6.850652099E-1
3.103865012E0,-4.034646153E-1,-6.377245188E-1,7.473716140E-1
3.106270325E0,-4.584408700E-1,-6.633801460E-1,8.157865405E-1
3.108675637E0,-5.134171247E-1,-6.865923405E-1,8.878664970E-1
3.111080950E0,-5.659499764E-1,-7.098045349E-1,9.599464536E-1
3.113486262E0,-6.184828281E-1,-7.354601026E-1,1.030804753E0
3.115891575E0,-6.673506498E-1,-7.647807598E-1,1.093111157E0
3.118296835E0,-7.162184119E-1,-8.014315963E-1,1.145644069E0
3.120702148E0,-7.663078904E-1,-8.405258060E-1,1.192068458E0
3.123107460E0,-8.151756525E-1,-8.686248064E-1,1.231162667E0
3.125512773E0,-8.579349518E-1,-8.881719112E-1,1.262926698E0
3.127918085E0,-8.994725943E-1,-9.089407325E-1,1.288582325E0
3.130323398E0,-9.397885203E-1,-9.272661209E-1,1.310572743E0
3.132728710E0,-9.764393568E-1,-9.370396733E-1,1.320346355E0
3.135134023E0,-1.014311910E0,-9.468132257E-1,1.325233102E0
3.137539335E0,-1.052184463E0,-9.565867782E-1,1.317902923E0
3.139944648E0,-1.087613583E0,-9.639169574E-1,1.304464340E0
3.142349960E0,-1.121821046E0,-9.651386738E-1,1.289803982E0
3.144755221E0,-1.147476554E0,-9.590302110E-1,1.273921967E0
3.147160533E0,-1.171910524E0,-9.455915689E-1,1.260483265E0
3.149565846E0,-1.191457629E0,-9.370396733E-1,1.243379593E0
3.151971158E0,-1.202452779E0,-9.431481957E-1,1.223832488E0
3.154376471E0,-1.218334913E0,-9.614735842E-1,1.205507040E0
3.156781783E0,-1.234216928E0,-9.724688530E-1,1.177408099E0
3.159187096E0,-1.251320601E0,-9.797990322E-1,1.151752472E0
3.161592408E0,-1.256207347E0,-9.822424054E-1,1.128540277E0
3.163997669E0,-1.256207347E0,-9.883508682E-1,1.110214949E0
3.166402981E0,-1.231773496E0,-9.712471366E-1,1.063790560E0
3.168808294E0,-1.168245435E0,-9.663603902E-1,9.575030804E-1
3.171213606E0,-1.105938911E0,-9.920159578E-1,8.218950033E-1
3.173618919E0,-1.049741030E0,-9.920159578E-1,6.862868667E-1
3.176024231E0,-1.000873208E0,-9.407047629E-1,5.555655956E-1
3.178429544E0,-9.581139088E-1,-8.539644480E-1,4.456130862E-1
3.180834856E0,-9.141329527E-1,-7.611156702E-1,3.515425920E-1
3.183240169E0,-8.652651310E-1,-6.878139973E-1,2.782409191E-1
3.185645481E0,-8.102889061E-1,-6.413896084E-1,2.159345001E-1
3.188050741E0,-7.467607856E-1,-6.218425035E-1,1.634016484E-1
3.190456054E0,-6.807892919E-1,-6.157340407E-1,1.206423342E-1
3.192861366E0,-6.111527085E-1,-6.108472347E-1,8.521319181E-2
3.195266679E0,-5.415160656E-1,-6.010736823E-1,5.467082933E-2
3.197671991E0,-4.669927359E-1,-5.851916671E-1,3.268032894E-2
3.200077304E0,-3.900259733E-1,-5.656445622E-1,1.313321572E-2
3.202482616E0,-3.155026138E-1,-5.412106514E-1,-2.748812549E-3
3.204887929E0,-2.409792393E-1,-5.192201734E-1,-1.740914769E-2
3.207293241E0,-1.725643575E-1,-5.045598149E-1,-3.084778599E-2
3.209698554E0,-1.127013192E-1,-4.923428893E-1,-3.939964995E-2
3.212103814E0,-6.261184067E-2,-4.752391577E-1,-4.672981426E-2
3.214509127E0,-2.229592577E-2,-4.605788291E-1,-4.672981426E-2
3.216914439E0,9.468132630E-3,-4.410317242E-1,-4.428642616E-2
3.219319752E0,3.023693897E-2,-4.165978432E-1,-4.062134400E-2
3.221725064E0,3.878879920E-2,-3.860554695E-1,-2.962609194E-2
3.224130377E0,2.657185495E-2,-3.481829464E-1,-1.007897966E-2
3.226535689E0,9.162708884E-4,-3.188622594E-1,1.191152167E-2
3.228941002E0,-3.084778599E-2,-2.932066917E-1,3.634541109E-2
3.231346314E0,-6.139015034E-2,-2.773246467E-1,5.833591148E-2
3.233751575E0,-9.315420687E-2,-2.724378705E-1,7.788302749E-2
3.236156887E0,-1.212531775E-1,-2.724378705E-1,9.743013978E-2
3.238562200E0,-1.481304616E-1,-2.675510943E-1,1.169772521E-1
3.240967512E0,-1.737860441E-1,-2.577775419E-1,1.340809762E-1
3.243372825E0,-1.933331639E-1,-2.492256761E-1,1.450762302E-1
3.245778137E0,-2.104368806E-1,-2.357870489E-1,1.585148573E-1
3.248183450E0,-2.189887464E-1,-2.260134816E-1,1.658450365E-1
3.250588762E0,-2.250972092E-1,-2.199050188E-1,1.719534993E-1
3.252994075E0,-2.299840003E-1,-2.125748396E-1,1.768402755E-1
3.255399335E0,-2.336490750E-1,-2.101314515E-1,1.780619770E-1
3.257804648E0,-2.348707765E-1,-2.064663768E-1,1.817270666E-1
3.260209960E0,-2.348707765E-1,-2.064663768E-1,1.817270666E-1
3.262615273E0,-2.360924631E-1,-2.028012872E-1,1.829487532E-1
3.265020585E0,-2.360924631E-1,-2.064663768E-1,1.805053651E-1
3.267425898E0,-2.373141646E-1,-2.064663768E-1,1.780619770E-1
3.269831210E0,-2.385358512E-1,-2.064663768E-1,1.756185889E-1
3.272236523E0,-2.409792393E-1,-2.028012872E-1,1.707318127E-1
3.274641835E0,-2.446443290E-1,-1.966928244E-1,1.646233350E-1
3.277047148E0,-2.495311052E-1,-1.905843467E-1,1.572931707E-1
3.279452408E0,-2.544178963E-1,-1.820324808E-1,1.499630064E-1
3.281857721E0,-2.605263591E-1,-1.747023165E-1,1.438545287E-1
3.284263033E0,-2.690782249E-1,-1.661504507E-1,1.365243644E-1
3.286668346E0,-2.788517773E-1,-1.539335102E-1,1.328592747E-1
3.289073658E0,-2.922904193E-1,-1.380514801E-1,1.316375881E-1
3.291478971E0,-3.045073450E-1,-1.185043678E-1,1.340809762E-1
3.293884283E0,-3.142809272E-1,-1.026223376E-1,1.353026628E-1
3.296289596E0,-3.240544796E-1,-8.674030751E-2,1.401894391E-1
3.298694908E0,-3.326063454E-1,-6.841489673E-2,1.487413049E-1
3.301100221E0,-3.374931216E-1,-5.253286287E-2,1.548497826E-1
3.303505533E0,-3.436015844E-1,-3.420744836E-2,1.621799469E-1
3.305910794E0,-3.460449576E-1,-1.832541823E-2,1.695101112E-1
3.308316106E0,-3.509317636E-1,-2.443389036E-3,1.731752008E-1
3.310721419E0,-3.558185399E-1,1.466033421E-2,1.768402755E-1
3.313126731E0,-3.619270027E-1,2.687728032E-2,1.780619770E-1
3.315532044E0,-3.741439581E-1,3.298575059E-2,1.768402755E-1
3.317937356E0,-3.875826001E-1,3.176405653E-2,1.756185889E-1
3.320342669E0,-4.046863019E-1,2.809897438E-2,1.682884246E-1
3.322747981E0,-4.230117202E-1,2.565558441E-2,1.621799469E-1
3.325153294E0,-4.364503622E-1,2.321219631E-2,1.499630064E-1
3.327558606E0,-4.486673176E-1,2.443389036E-2,1.389677525E-1
3.329963866E0,-4.608842432E-1,2.443389036E-2,1.279724985E-1
3.332369179E0,-4.718795121E-1,1.954711229E-2,1.157555580E-1
3.334774491E0,-4.840964675E-1,2.443389036E-3,1.059819981E-1
3.337179804E0,-4.877615273E-1,2.443389036E-2,1.010952219E-1
3.339585116E0,-4.902049303E-1,5.497625470E-2,9.620844573E-2
3.341990429E0,-4.926483035E-1,7.574506104E-2,9.132166207E-2
3.344395741E0,-4.999784827E-1,9.284878522E-2,8.643488586E-2
3.346801054E0,-5.097520351E-1,1.172826737E-1,8.521319181E-2
3.349206366E0,-5.207473040E-1,1.551551968E-1,8.643488586E-2
3.351611679E0,-5.280774832E-1,1.918060333E-1,8.765657991E-2
3.354016939E0,-5.390726924E-1,2.284568697E-1,9.376505762E-2
3.356422252E0,-5.500679612E-1,2.602209449E-1,9.987352788E-2
3.358827564E0,-5.610632300E-1,2.834331393E-1,1.072036922E-1
3.361232877E0,-5.757235289E-1,2.968717813E-1,1.120904684E-1
3.363638189E0,-5.916055441E-1,2.980934680E-1,1.194206402E-1
3.366043502E0,-6.087092757E-1,3.005368412E-1,1.267508119E-1
3.368448814E0,-6.270347238E-1,3.103103936E-1,1.340809762E-1
3.370854127E0,-6.380299330E-1,3.213056624E-1,1.401894391E-1
3.373259439E0,-6.453601122E-1,3.310792148E-1,1.462979168E-1
3.375664752E0,-6.465818286E-1,3.371876776E-1,1.560714692E-1
3.378070012E0,-6.429167390E-1,3.445178568E-1,1.621799469E-1
3.380475325E0,-6.343649030E-1,3.469612300E-1,1.658450365E-1
3.382880637E0,-6.209262609E-1,3.494046330E-1,1.670667231E-1
3.385285950E0,-6.074876189E-1,3.445178568E-1,1.646233350E-1
3.387691262E0,-5.916055441E-1,3.335226178E-1,1.621799469E-1
3.390096575E0,-5.745018721E-1,3.225273490E-1,1.548497826E-1
3.392501887E0,-5.537330508E-1,3.115321100E-1,1.487413049E-1
3.394907200E0,-5.305208564E-1,3.029802442E-1,1.377460510E-1
3.397312512E0,-5.036435723E-1,2.993151546E-1,1.230857223E-1
3.399717773E0,-4.731011987E-1,3.029802442E-1,1.096470803E-1
3.402123085E0,-4.352286756E-1,3.115321100E-1,9.254335612E-2
3.404528398E0,-3.973561525E-1,3.213056624E-1,7.788302749E-2
3.406933710E0,-3.594835997E-1,3.274141252E-1,6.444438547E-2
3.409339023E0,-3.240544796E-1,3.310792148E-1,4.734066129E-2
3.411744335E0,-2.935121059E-1,3.335226178E-1,3.634541109E-2
3.414149648E0,-2.605263591E-1,3.310792148E-1,2.168507688E-2
3.416554960E0,-2.299840003E-1,3.310792148E-1,8.246437646E-3
3.418960273E0,-1.994416267E-1,3.237490356E-1,-1.007897966E-2
3.421365585E0,-1.701209545E-1,3.188622594E-1,-2.718270384E-2
3.423770898E0,-1.383569092E-1,3.090887070E-1,-4.428642616E-2
3.426176210E0,-1.029277667E-1,3.164188862E-1,-6.016845629E-2
3.428581471E0,-6.627693027E-2,3.371876776E-1,-8.215895295E-2
3.430986783E0,-2.351761982E-2,3.628432751E-1,-1.127013192E-1
3.433392096E0,2.168507688E-2,3.921639323E-1,-1.444653720E-1
3.435797408E0,6.688777357E-2,4.153761268E-1,-1.774511337E-1
3.438202721E0,1.108687744E-1,4.324798584E-1,-2.128802687E-1
3.440608033E0,1.572931707E-1,4.422534108E-1,-2.483094037E-1
3.443013346E0,1.988307834E-1,4.459185004E-1,-2.800734639E-1
3.445418658E0,2.379250079E-1,4.483618736E-1,-3.093941510E-1
3.447823971E0,2.745758295E-1,4.532486796E-1,-3.326063454E-1
3.450229231E0,3.051182032E-1,4.618005157E-1,-3.582619131E-1
3.452634544E0,3.356605768E-1,4.727957845E-1,-3.851391971E-1
3.455039856E0,3.662029207E-1,4.850127101E-1,-4.083513916E-1
3.457445169E0,3.943018913E-1,4.911212027E-1,-4.450022280E-1
3.459850481E0,4.297310412E-1,4.850127101E-1,-5.048652887E-1
3.462255794E0,4.688252807E-1,4.752391577E-1,-5.659499764E-1
3.464661106E0,5.042544007E-1,4.679090083E-1,-6.258130074E-1
3.467066419E0,5.396835804E-1,4.581354558E-1,-6.783458591E-1
3.469471731E0,5.677825212E-1,4.434750974E-1,-7.259919643E-1
3.471877044E0,5.897729993E-1,4.214846194E-1,-7.724163532E-1
3.474282356E0,6.117635369E-1,3.933856487E-1,-8.127322793E-1
3.476687616E0,6.276455522E-1,3.652866483E-1,-8.506048322E-1
3.479092929E0,6.423059106E-1,3.359659910E-1,-8.811471462E-1
3.481498241E0,6.594096422E-1,3.078670204E-1,-9.080244303E-1
3.483903554E0,6.728482842E-1,2.748812735E-1,-9.287932515E-1
3.486308866E0,6.789567471E-1,2.345653474E-1,-9.436063170E-1
3.488714179E0,6.936170459E-1,2.211267054E-1,-9.533798695E-1
3.491119491E0,7.094991207E-1,2.137965411E-1,-9.558232427E-1
3.493524804E0,7.204943299E-1,1.991362125E-1,-9.546015263E-1
3.495930116E0,7.278245091E-1,1.832541823E-1,-9.558232427E-1
3.498335377E0,7.375980616E-1,1.673721522E-1,-9.509364963E-1
3.500740689E0,7.437065244E-1,1.527118087E-1,-9.423846006E-1
3.503146002E0,7.437065244E-1,1.319430023E-1,-9.300149679E-1
3.505551314E0,7.424848676E-1,1.172826737E-1,-9.214630723E-1
3.507956627E0,7.424848676E-1,9.651386738E-2,-9.116895199E-1
3.510361939E0,7.375980616E-1,7.941014320E-2,-8.994725943E-1
3.512767252E0,7.327113152E-1,6.841489673E-2,-8.958075047E-1
3.515172564E0,7.278245091E-1,5.741964281E-2,-8.945857882E-1
3.517577877E0,7.253811359E-1,5.008947477E-2,-9.043593407E-1
3.519983189E0,7.229377031E-1,4.153761268E-2,-9.214630723E-1
3.522388502E0,7.241594195E-1,4.275930673E-2,-9.423846006E-1
3.524793814E0,7.290462255E-1,4.886778072E-2,-9.668185115E-1
3.527199075E0,7.375980616E-1,5.619794875E-2,-9.924740791E-1
3.529604387E0,7.473716140E-1,6.352811307E-2,-1.016907930E0
3.532009700E0,7.583668828E-1,6.352811307E-2,-1.041341901E0
3.534415012E0,7.693621516E-1,6.108472496E-2,-1.062110662E0
3.536820325E0,7.828007340E-1,5.375456065E-2,-1.081657767E0
3.539225637E0,7.925743461E-1,4.520269856E-2,-1.097539783E0
3.541630950E0,8.047912717E-1,3.298575059E-2,-1.110978484E0
3.544036262E0,8.108997345E-1,2.321219631E-2,-1.126860499E0
3.546441575E0,8.121214509E-1,1.466033421E-2,-1.139077425E0
3.548846835E0,8.157865405E-1,7.330167107E-3,-1.154959440E0
3.551252148E0,8.121214509E-1,1.221694518E-3,-1.168398142E0
3.553657460E0,8.084563613E-1,-7.330167107E-3,-1.185501814E0
3.556062773E0,8.035695553E-1,-1.221694518E-2,-1.203827262E0
3.558468085E0,7.986828089E-1,-2.199050039E-2,-1.223374367E0
3.560873398E0,7.986828089E-1,-3.298575059E-2,-1.242921472E0
3.563278710E0,7.962393761E-1,-4.275930673E-2,-1.264912009E0
3.565684023E0,7.925743461E-1,-5.864133686E-2,-1.285680771E0
3.568089335E0,7.901309133E-1,-7.818844914E-2,-1.310114622E0
3.570494648E0,7.876875401E-1,-1.001789495E-1,-1.335770249E0
3.572899908E0,7.864658237E-1,-1.246128380E-1,-1.361425877E0
3.575305221E0,7.889092565E-1,-1.429382563E-1,-1.395633221E0
3.577710533E0,7.925743461E-1,-1.527118087E-1,-1.426175594E0
3.580115846E0,7.999044657E-1,-1.612636745E-1,-1.454274654E0
3.582521158E0,8.072346449E-1,-1.734806150E-1,-1.482373595E0
3.584926471E0,8.133431077E-1,-1.893626451E-1,-1.511694312E0
3.587331783E0,8.194515705E-1,-2.040229887E-1,-1.542236567E0
3.589737096E0,8.206732869E-1,-2.174616307E-1,-1.567892194E0
3.592142408E0,8.182299137E-1,-2.345653474E-1,-1.604543090E0
3.594547721E0,8.157865405E-1,-2.467822880E-1,-1.638750434E0
3.596953033E0,8.084563613E-1,-2.516690791E-1,-1.672957897E0
3.599358346E0,7.986828089E-1,-2.541124523E-1,-1.716938972E0
3.601763606E0,7.950177193E-1,-2.528907657E-1,-1.770693541E0
3.604168919E0,7.925743461E-1,-2.504473627E-1,-1.812231064E0
3.606574231E0,7.828007340E-1,-2.382304370E-1,-1.831778169E0
3.608979544E0,7.656970620E-1,-2.113531530E-1,-1.835443258E0
3.611384856E0,7.437065244E-1,-1.966928244E-1,-1.839108348E0
3.613790169E0,7.156075835E-1,-1.991362125E-1,-1.850103617E0
3.616195481E0,6.923953891E-1,-2.137965411E-1,-1.862320542E0
3.618600794E0,6.838434935E-1,-2.101314515E-1,-1.876980901E0
3.621006106E0,6.911736727E-1,-1.844758689E-1,-1.887976170E0
3.623411419E0,6.997255087E-1,-1.502684206E-1,-1.900193095E0
3.625816679E0,7.009472251E-1,-1.270562261E-1,-1.923405290E0
3.628221991E0,7.009472251E-1,-7.574506104E-2,-1.933178902E0
3.630627304E0,7.009472251E-1,-1.832541823E-2,-1.913631797E0
3.633032616E0,6.972821355E-1,1.954711229E-2,-1.884311080E0
3.635437929E0,6.972821355E-1,4.398100078E-2,-1.847660303E0
3.637843241E0,6.985038519E-1,5.497625470E-2,-1.812231064E0
3.640248554E0,6.960604787E-1,6.230641901E-2,-1.774358630E0
3.642653866E0,6.911736727E-1,7.941014320E-2,-1.731599212E0
3.645059179E0,6.826218367E-1,1.014006436E-1,-1.686396599E0
3.647464491E0,6.679614782E-1,1.185043678E-1,-1.642415524E0
3.649869752E0,6.520794630E-1,1.429382563E-1,-1.599656224E0
3.652275064E0,6.374191046E-1,1.698155403E-1,-1.553231835E0
3.654680377E0,6.215370893E-1,1.918060333E-1,-1.508029222E0
3.657085689E0,6.056550741E-1,2.015796006E-1,-1.471378326E0
3.659491002E0,5.922164321E-1,2.101314515E-1,-1.435949206E0
3.661896314E0,5.812211633E-1,2.113531530E-1,-1.400520086E0
3.664301627E0,5.714476109E-1,2.162399292E-1,-1.367534280E0
3.666706939E0,5.641174316E-1,2.223484069E-1,-1.332105160E0
3.669112252E0,5.592306852E-1,2.247917950E-1,-1.299119353E0
3.671517564E0,5.616740584E-1,2.309002578E-1,-1.267355323E0
3.673922877E0,5.665608048E-1,2.382304370E-1,-1.235591292E0
3.676328137E0,5.775560737E-1,2.406738251E-1,-1.207492352E0
3.678733450E0,5.909947157E-1,2.370087355E-1,-1.181836724E0
3.681138762E0,6.056550741E-1,2.284568697E-1,-1.161067963E0
3.683544075E0,6.252021790E-1,2.162399292E-1,-1.142742515E0
3.685949387E0,6.410841942E-1,2.052446753E-1,-1.124417067E0
3.688354700E0,6.557445526E-1,2.015796006E-1,-1.102426648E0
3.690760012E0,6.679614782E-1,1.991362125E-1,-1.079214454E0
3.693165325E0,6.752916574E-1,2.015796006E-1,-1.056002140E0
3.695570637E0,6.789567471E-1,2.076880634E-1,-1.029124975E0
3.697975950E0,6.814001203E-1,2.162399292E-1,-1.001025915E0
3.700381210E0,6.777350307E-1,2.272351831E-1,-9.668185115E-1
3.702786523E0,6.704048514E-1,2.394521236E-1,-9.300149679E-1
3.705191835E0,6.606312990E-1,2.553341687E-1,-8.835905790E-1
3.707597148E0,6.496360302E-1,2.687727809E-1,-8.396095634E-1
3.710002460E0,6.361974478E-1,2.858765125E-1,-7.907418013E-1
3.712407773E0,6.239804626E-1,3.029802442E-1,-7.430956960E-1
3.714813085E0,6.142069101E-1,3.139754832E-1,-6.954495907E-1
3.717218398E0,6.056550741E-1,3.237490356E-1,-6.441384554E-1
3.719623710E0,5.958815217E-1,3.310792148E-1,-5.952706337E-1
3.722029023E0,5.873296261E-1,3.298575282E-1,-5.451811552E-1
3.724434283E0,5.738909841E-1,3.347443044E-1,-4.889832437E-1
3.726839596E0,5.580089688E-1,3.359659910E-1,-4.352286756E-1
3.729244908E0,5.421269536E-1,3.347443044E-1,-3.814741075E-1
3.731650221E0,5.225798488E-1,3.310792148E-1,-3.277195692E-1
3.734054322E0,5.030327439E-1,3.249707520E-1,-2.666348219E-1
3.736459635E0,4.822639227E-1,3.176405728E-1,-2.092151791E-1
3.738864947E0,4.663818777E-1,3.151971996E-1,-1.664558798E-1
3.741270260E0,4.590517282E-1,3.066453338E-1,-1.383569092E-1
3.743675572E0,4.566083252E-1,3.042019308E-1,-1.114796251E-1
3.746080885E0,4.578300118E-1,3.200839758E-1,-7.971556485E-2
3.748486197E0,4.504998624E-1,3.384093940E-1,-5.161659420E-2
3.750891458E0,4.382829070E-1,3.579564989E-1,-2.718270384E-2
3.753296770E0,4.272876680E-1,3.701734245E-1,-1.527118147E-3
3.755702083E0,4.150707126E-1,3.738385141E-1,2.046338283E-2
3.758107395E0,4.040754735E-1,3.689517379E-1,4.367557913E-2
3.760512708E0,3.918585181E-1,3.640649617E-1,6.810946763E-2
3.762918020E0,3.796415627E-1,3.579564989E-1,8.521319181E-2
3.765323333E0,3.674246371E-1,3.530697227E-1,1.023169160E-1
3.767728645E0,3.600944579E-1,3.591781855E-1,1.243074164E-1
3.770133958E0,3.539859951E-1,3.652866483E-1,1.450762302E-1
3.772539270E0,3.466558158E-1,3.591781855E-1,1.572931707E-1
3.774944583E0,3.405473530E-1,3.591781855E-1,1.634016484E-1
3.777349843E0,3.271087110E-1,3.640649617E-1,1.731752008E-1
3.779755155E0,3.136700690E-1,3.665083647E-1,1.768402755E-1
3.782160468E0,2.990097404E-1,3.628432751E-1,1.780619770E-1
3.784565780E0,2.831276953E-1,3.506263196E-1,1.756185889E-1
3.786971093E0,2.709107697E-1,3.494046330E-1,1.780619770E-1
3.789376405E0,2.586938143E-1,3.494046330E-1,1.817270666E-1
3.791781718E0,2.440334857E-1,3.420744538E-1,1.707318127E-1
3.794187030E0,2.330382317E-1,3.371876776E-1,1.572931707E-1
3.796592343E0,2.232646793E-1,3.286358118E-1,1.414111406E-1
3.798997655E0,2.195995897E-1,3.139754832E-1,1.218640283E-1
3.801402968E0,2.159345001E-1,3.005368412E-1,1.010952219E-1
3.803808852E0,2.122694254E-1,2.870981991E-1,8.032641560E-2
3.806214113E0,2.159345001E-1,2.773246467E-1,6.077930331E-2
3.808619425E0,2.171562016E-1,2.687727809E-1,4.123219103E-2
3.811024738E0,2.208212912E-1,2.589992285E-1,1.801999472E-2
3.813430050E0,2.269297540E-1,2.431172132E-1,-2.748812549E-3
3.815835363E0,2.318165302E-1,2.394521236E-1,-1.618745178E-2
3.818240675E0,2.342599183E-1,2.357870489E-1,-2.107422985E-2
3.820645988E0,2.342599183E-1,2.296785712E-1,-2.962609194E-2
3.823051300E0,2.305948436E-1,2.211267054E-1,-3.817795217E-2
3.825456613E0,2.220429778E-1,2.137965411E-1,-5.039490014E-2
3.827861925E0,2.110477239E-1,2.003578991E-1,-6.383354217E-2
3.830267186E0,2.037175596E-1,1.881409585E-1,-7.971556485E-2
3.832672498E0,1.976090819E-1,1.808107942E-1,-8.704573661E-2
3.835077811E0,1.878355294E-1,1.722589284E-1,-8.582404256E-2
3.837483123E0,1.756185889E-1,1.624853760E-1,-9.193251282E-2
3.839888436E0,1.634016484E-1,1.539335102E-1,-1.029277667E-1
3.842293748E0,1.548497826E-1,1.514901221E-1,-1.139230132E-1
3.844699061E0,1.487413049E-1,1.502684206E-1,-1.200314835E-1
3.847104373E0,1.438545287E-1,1.441599578E-1,-1.163664013E-1
3.849509686E0,1.340809762E-1,1.368297935E-1,-1.041494608E-1
3.851914998E0,1.218640283E-1,1.233911440E-1,-1.004843712E-1
3.854320259E0,1.072036922E-1,1.123958975E-1,-9.437590092E-2
3.856725571E0,9.376505762E-2,1.001789495E-1,-8.093725890E-2
3.859130884E0,7.910472155E-2,9.651386738E-2,-6.872031838E-2
3.861536196E0,6.322269142E-2,8.918370306E-2,-4.672981426E-2
3.863941509E0,4.734066129E-2,8.551861346E-2,-1.130067464E-2
3.866346821E0,2.657185495E-2,8.307522535E-2,1.435491070E-2
3.868752134E0,3.359660041E-3,7.818844914E-2,3.023693897E-2
3.871157446E0,-1.863084175E-2,7.818844914E-2,4.001049697E-2
3.873562759E0,-3.939964995E-2,8.063183725E-2,5.589252338E-2
3.875968071E0,-6.016845629E-2,9.040539712E-2,7.666133344E-2
3.878373384E0,-8.215895295E-2,1.001789495E-1,9.865183383E-2
3.880778696E0,-1.065928489E-1,1.038440317E-1,1.218640283E-1
3.883183957E0,-1.346918195E-1,1.050657257E-1,1.475196183E-1
3.885589269E0,-1.615691036E-1,1.050657257E-1,1.780619770E-1
3.887994582E0,-1.896680743E-1,1.111742035E-1,2.159345001E-1
3.890399894E0,-2.177670449E-1,1.221694499E-1,2.562504113E-1
3.892805207E0,-2.470877171E-1,1.294996142E-1,2.990097404E-1
3.895210519E0,-2.751866877E-1,1.307213157E-1,3.393256664E-1
3.897615832E0,-2.996205688E-1,1.343863904E-1,3.833066523E-1
3.900021144E0,-3.228327632E-1,1.356080920E-1,4.321744442E-1
3.902426457E0,-3.484883606E-1,1.368297935E-1,4.785988331E-1
3.904831769E0,-3.729222417E-1,1.368297935E-1,5.299099684E-1
3.907237030E0,-3.997995257E-1,1.380514801E-1,5.824428797E-1
3.909642342E0,-4.254551232E-1,1.356080920E-1,6.288672686E-1
3.912047655E0,-4.498890042E-1,1.246128380E-1,6.728482842E-1
3.914452967E0,-4.694361091E-1,1.062874198E-1,7.180509567E-1
3.916858280E0,-4.926483035E-1,8.429691941E-2,7.669187188E-1
3.919263592E0,-5.109737515E-1,6.474980712E-2,8.121214509E-1
3.921668905E0,-5.329642296E-1,3.665083647E-2,8.609892130E-1
3.924074217E0,-5.573981404E-1,1.099525020E-2,9.110786915E-1
3.926479530E0,-5.757235289E-1,-1.710372418E-2,9.684983492E-1
3.928884842E0,-5.879405141E-1,-3.665083647E-2,1.019809484E0
3.931290155E0,-5.977140665E-1,-5.497625470E-2,1.066233873E0
3.933695415E0,-6.050441861E-1,-6.597150117E-2,1.110214949E0
3.936100727E0,-6.111527085E-1,-6.474980712E-2,1.149309158E0
3.938506040E0,-6.148177385E-1,-4.886778072E-2,1.176186442E0
3.940911352E0,-6.209262609E-1,-2.443389036E-2,1.195733547E0
3.943316665E0,-6.319214702E-1,9.773556143E-3,1.211615562E0
3.945721977E0,-6.551336646E-1,4.520269856E-2,1.223832488E0
3.948127290E0,-6.954495907E-1,7.574506104E-2,1.229941010E0
3.950532602E0,-7.418739796E-1,8.674030751E-2,1.232384324E0
3.952937915E0,-7.931851745E-1,8.185353130E-2,1.237271070E0
3.955343227E0,-8.432746530E-1,6.719319522E-2,1.251931429E0
3.957748540E0,-8.823688626E-1,5.008947477E-2,1.276365399E0
3.960153852E0,-9.153546095E-1,3.298575059E-2,1.308129430E0
3.962559113E0,-9.385668039E-1,1.710372418E-2,1.346001983E0
3.964964425E0,-9.458969831E-1,-1.221694518E-2,1.385096192E0
3.967369738E0,-9.446752667E-1,-5.619794875E-2,1.415638566E0
3.969775050E0,-9.373451471E-1,-1.050657257E-1,1.438850760E0
3.972180363E0,-9.275715351E-1,-1.490467340E-1,1.460841179E0
3.974585675E0,-9.104678631E-1,-1.979145110E-1,1.477944970E0
3.976990988E0,-8.933641315E-1,-2.480039895E-1,1.488940239E0
3.979396300E0,-8.774821162E-1,-2.907632887E-1,1.493826985E0
3.981801613E0,-8.530482054E-1,-3.237490356E-1,1.495048642E0
3.984206925E0,-8.310576677E-1,-3.518480062E-1,1.496270418E0
3.986612238E0,-8.115105629E-1,-3.823903799E-1,1.486496806E0
3.989017498E0,-7.931851745E-1,-4.141544402E-1,1.468171358E0
3.991422811E0,-7.748597264E-1,-4.459185004E-1,1.438850760E0
3.993828123E0,-7.540909648E-1,-4.740174711E-1,1.397313118E0
3.996233436E0,-7.333221436E-1,-5.070032477E-1,1.350888729E0
3.998638748E0,-7.125533223E-1,-5.351021886E-1,1.298355818E0
4.001044061E0,-6.868977547E-1,-5.632011890E-1,1.238492846E0
4.003449373E0,-6.600204706E-1,-5.888567567E-1,1.172521353E0
4.005854686E0,-6.319214702E-1,-6.108472347E-1,1.111436605E0
4.008259998E0,-6.013791561E-1,-6.316160560E-1,1.057682037E0
4.010665311E0,-5.708367825E-1,-6.499415040E-1,1.012479305E0
4.013070623E0,-5.439594984E-1,-6.694886088E-1,9.770501852E-1
4.015475884E0,-5.195255876E-1,-6.878139973E-1,9.526162744E-1
4.017881196E0,-4.963133931E-1,-7.036960125E-1,9.330691695E-1
4.020286509E0,-4.718795121E-1,-7.232431769E-1,9.208522439E-1
4.022691821E0,-4.486673176E-1,-7.427902818E-1,9.135220647E-1
4.025097134E0,-4.303418994E-1,-7.623373866E-1,9.123004079E-1
4.027502446E0,-4.156815708E-1,-7.806627750E-1,9.086353183E-1
4.029907759E0,-3.973561525E-1,-8.014315963E-1,9.098569751E-1
4.032313071E0,-3.839175105E-1,-8.197570443E-1,9.135220647E-1
4.034718384E0,-3.704788685E-1,-8.380824327E-1,9.245173335E-1
4.037123696E0,-3.607053161E-1,-8.551861644E-1,9.342908859E-1
4.039529009E0,-3.521534503E-1,-8.710681796E-1,9.465078115E-1
4.041934321E0,-3.436015844E-1,-8.759549856E-1,9.575030804E-1
4.044339634E0,-3.362714052E-1,-8.783983588E-1,9.709417224E-1
4.046744894E0,-3.264978528E-1,-8.796200752E-1,9.856020808E-1
4.049150207E0,-3.179459870E-1,-8.735115528E-1,1.003927469E0
4.051555519E0,-3.155026138E-1,-8.637380004E-1,1.017366052E0
4.053960832E0,-3.118375242E-1,-8.478559852E-1,1.028361320E0
4.056366144E0,-3.081724346E-1,-8.307522535E-1,1.032026410E0
4.058771457E0,-3.020639718E-1,-8.197570443E-1,1.029583097E0
4.061176769E0,-2.959555089E-1,-8.099834919E-1,1.024696231E0
4.063582082E0,-2.935121059E-1,-7.953231335E-1,1.012479305E0
4.065987394E0,-2.922904193E-1,-7.745543122E-1,9.953756332E-1
4.068392707E0,-2.959555089E-1,-7.513421178E-1,9.794935584E-1
4.070798019E0,-3.057290614E-1,-7.342383862E-1,9.648332596E-1
4.073203280E0,-3.155026138E-1,-7.269082665E-1,9.513946176E-1
4.075608592E0,-3.326063454E-1,-7.269082665E-1,9.391776323E-1
4.078013905E0,-3.570402265E-1,-7.281299233E-1,9.330691695E-1
4.080419217E0,-3.851391971E-1,-7.171346545E-1,9.355126023E-1
4.082824530E0,-4.205683470E-1,-7.000309825E-1,9.477295280E-1
4.085229842E0,-4.669927359E-1,-6.731536984E-1,9.697200060E-1
4.087635155E0,-5.256340504E-1,-6.560499668E-1,9.990406632E-1
4.090040467E0,-5.818319917E-1,-6.450546980E-1,1.023474574E0
4.092445780E0,-6.355865598E-1,-6.328377724E-1,1.046686769E0
4.094851092E0,-6.844543815E-1,-6.181774139E-1,1.073564053E0
4.097256405E0,-7.333221436E-1,-5.937435627E-1,1.111436605E0
4.099661717E0,-7.907418013E-1,-5.888567567E-1,1.145644069E0
4.102066977E0,-8.432746530E-1,-5.937435627E-1,1.170077920E0
4.104472290E0,-8.884773254E-1,-5.961869359E-1,1.194511771E0
4.106877602E0,-9.263498783E-1,-5.888567567E-1,1.223832488E0
4.109282915E0,-9.605573416E-1,-5.595360994E-1,1.259261608E0
4.111688227E0,-9.972081780E-1,-5.558710098E-1,1.291025639E0
4.114093540E0,-1.032637239E0,-5.668662786E-1,1.313016176E0
4.116498852E0,-1.063179612E0,-5.729747415E-1,1.360662222E0
4.118904165E0,-1.113269091E0,-5.754181147E-1,1.540251374E0
4.121309477E0,-1.268424392E0,-7.207997441E-1,1.846896648E0
4.123714790E0,-1.439461589E0,-8.441908956E-1,2.090013981E0
4.126120102E0,-1.600725293E0,-9.138274789E-1,2.201188087E0
4.128525363E0,-1.659366608E0,-9.443698525E-1,2.192636251E0
4.130930675E0,-1.606833696E0,-9.565867782E-1,2.121778011E0
4.133335988E0,-1.551857471E0,-9.138274789E-1,2.006938696E0
4.135741300E0,-1.510319829E0,-7.708892226E-1,1.877439022E0
4.138146613E0,-1.482220888E0,-5.961869359E-1,1.743052602E0
4.140551925E0,-1.456565261E0,-4.471401870E-1,1.612331390E0
4.142957238E0,-1.426022887E0,-3.542914093E-1,1.497492075E0
4.145362550E0,-1.395480514E0,-3.127537966E-1,1.403421521E0
4.147767863E0,-1.368603230E0,-2.834331393E-1,1.344780207E0
4.150173175E0,-1.356386304E0,-2.565558553E-1,1.311794519E0
4.152578488E0,-1.356386304E0,-2.528907657E-1,1.283695459E0
4.154983748E0,-1.374711752E0,-2.602209449E-1,1.264148355E0
4.157389061E0,-1.400367379E0,-2.687727809E-1,1.243379593E0
4.159794373E0,-1.424801230E0,-2.919849753E-1,1.215280652E0
4.162199686E0,-1.444348335E0,-2.968717813E-1,1.189625025E0
4.164604998E0,-1.459008694E0,-2.858765125E-1,1.159082651E0
4.167010311E0,-1.471225619E0,-2.858765125E-1,1.117545009E0
4.169415623E0,-1.476112366E0,-2.638860047E-1,1.076007485E0
4.171820936E0,-1.470003963E0,-2.125748396E-1,1.052795291E0
4.174226248E0,-1.460230350E0,-1.905843467E-1,1.039356589E0
4.176631561E0,-1.452900171E0,-1.783674061E-1,1.018587828E0
4.179036873E0,-1.454121947E0,-1.539335102E-1,9.843803644E-1
4.181442186E0,-1.455343604E0,-1.294996142E-1,9.465078115E-1
4.183847498E0,-1.455343604E0,-1.136175916E-1,9.147437811E-1
4.186252759E0,-1.454121947E0,-1.026223376E-1,8.878664970E-1
4.188658071E0,-1.457787037E0,-9.407047927E-2,8.622109294E-1
4.191063384E0,-1.463895440E0,-9.162709117E-2,8.365553021E-1
4.193468696E0,-1.470003963E0,-9.284878522E-2,8.108997345E-1
4.195874009E0,-1.478555799E0,-1.014006436E-1,7.815790772E-1
4.198279321E0,-1.483442545E0,-1.233911440E-1,7.449282408E-1
4.200684634E0,-1.485885978E0,-1.502684206E-1,7.021689415E-1
4.203089946E0,-1.483442545E0,-1.747023165E-1,6.642963886E-1
4.205495259E0,-1.476112366E0,-2.003578991E-1,6.276455522E-1
4.207900571E0,-1.467560530E0,-2.309002578E-1,5.897729993E-1
4.210305884E0,-1.455343604E0,-2.528907657E-1,5.580089688E-1
4.212711196E0,-1.439461589E0,-2.748812735E-1,5.201364160E-1
4.215116457E0,-1.418692708E0,-3.164188862E-1,4.676035643E-1
4.217521769E0,-1.412584305E0,-4.019374847E-1,3.784198761E-1
4.219927082E0,-1.401589036E0,-4.117110670E-1,3.295520842E-1
4.222332394E0,-1.368603230E0,-3.762819171E-1,3.161134422E-1
4.224737707E0,-1.333174109E0,-4.080459774E-1,2.770192325E-1
4.227143019E0,-1.319735527E0,-4.886777997E-1,2.024958730E-1
4.229548332E0,-1.298966646E0,-4.911212027E-1,1.548497826E-1
4.231953644E0,-1.270867705E0,-4.825693369E-1,1.218640283E-1
4.234358957E0,-1.243990421E0,-4.898995161E-1,9.009996802E-2
4.236764269E0,-1.218334913E0,-4.911212027E-1,7.177454978E-2
4.239169582E0,-1.190235853E0,-4.862344265E-1,6.322269142E-2
4.241574894E0,-1.165802002E0,-4.898995161E-1,5.711421743E-2
4.243980155E0,-1.146254897E0,-4.947862923E-1,5.222744122E-2
4.246385467E0,-1.129151106E0,-4.911212027E-1,5.467082933E-2
4.248790780E0,-1.110825777E0,-4.874561131E-1,4.856235534E-2
4.251196092E0,-1.109604001E0,-5.155550838E-1,1.924168877E-2
4.253601405E0,-1.103495598E0,-4.654656053E-1,3.023693897E-2
4.256006717E0,-1.075396657E0,-3.933856487E-1,5.711421743E-2
4.258412030E0,-1.055849433E0,-3.823903799E-1,6.566607952E-2
4.260817342E0,-1.049741030E0,-3.799470067E-1,6.444438547E-2
4.263222655E0,-1.048519373E0,-3.579564989E-1,6.322269142E-2
4.265627967E0,-1.047297597E0,-3.359659910E-1,6.688777357E-2
4.268033280E0,-1.046075940E0,-3.298575282E-1,7.055285573E-2
4.270438592E0,-1.044854283E0,-3.310792148E-1,7.666133344E-2
4.272843852E0,-1.043632507E0,-3.310792148E-1,8.032641560E-2
4.275249165E0,-1.039967418E0,-3.359659910E-1,8.399149776E-2
4.277654477E0,-1.035080671E0,-3.384093940E-1,8.887827396E-2
4.280059790E0,-1.032637239E0,-3.384093940E-1,9.498675168E-2
4.282465102E0,-1.020420313E0,-3.530697227E-1,9.132166207E-2
4.284870415E0,-1.005759954E0,-3.640649617E-1,8.887827396E-2
4.287275727E0,-9.898779988E-1,-3.823903799E-1,7.299624383E-2
4.289681040E0,-9.972081780E-1,-4.666872919E-1,1.435491070E-2
4.292086352E0,-9.910996556E-1,-4.703523815E-1,-3.054236295E-4
4.294491665E0,-9.605573416E-1,-4.104893506E-1,2.168507688E-2
4.296896977E0,-9.336800575E-1,-3.750602305E-1,5.467082933E-2
4.299302238E0,-9.019159675E-1,-3.799470067E-1,6.933116168E-2
4.301707550E0,-8.677085042E-1,-3.884988427E-1,7.788302749E-2
4.304112863E0,-8.322793841E-1,-3.787252903E-1,9.376505762E-2
4.306518175E0,-7.956285477E-1,-3.616215885E-1,1.279724985E-1
4.308923488E0,-7.601994276E-1,-3.347443044E-1,1.805053651E-1
4.311328800E0,-7.149966955E-1,-3.481829464E-1,2.098260373E-1
4.313734113E0,-6.685723066E-1,-3.603998721E-1,2.281514555E-1
4.316139425E0,-6.221479177E-1,-3.506263196E-1,2.452551723E-1
4.318544738E0,-5.757235289E-1,-3.359659910E-1,2.586938143E-1
4.320950050E0,-5.354076028E-1,-3.237490356E-1,2.721324563E-1
4.323355363E0,-5.012001991E-1,-3.139754832E-1,2.892361879E-1
4.325760675E0,-4.743228853E-1,-3.090887070E-1,3.075616062E-1
4.328165936E0,-4.413371384E-1,-3.298575282E-1,3.148917556E-1
4.330571248E0,-4.095730782E-1,-3.384093940E-1,3.185568452E-1
4.332976561E0,-3.802524209E-1,-3.298575282E-1,3.234436214E-1
4.335381873E0,-3.533751369E-1,-3.176405728E-1,3.222219348E-1
4.337787186E0,-3.240544796E-1,-3.054236174E-1,3.173351586E-1
4.340192498E0,-2.947337925E-1,-2.883199155E-1,3.063398898E-1
4.342597811E0,-2.702999115E-1,-2.614426315E-1,2.977880239E-1
4.345003123E0,-2.507528067E-1,-2.345653474E-1,2.904578745E-1
4.347408436E0,-2.177670449E-1,-2.504473627E-1,2.648022771E-1
4.349813748E0,-1.908897758E-1,-2.516690791E-1,2.367033064E-1
4.352219061E0,-1.688992679E-1,-2.480039895E-1,2.183778882E-1
4.354624373E0,-1.469087601E-1,-2.455606014E-1,2.024958730E-1
4.357029634E0,-1.212531775E-1,-2.541124523E-1,1.853921413E-1
4.359434946E0,-9.315420687E-2,-2.638860047E-1,1.707318127E-1
4.361840259E0,-6.139015034E-2,-2.687727809E-1,1.536280811E-1
4.364245571E0,-2.962609194E-2,-2.822114229E-1,1.255291104E-1
4.366650884E0,-2.840439789E-2,-3.811686933E-1,5.955760926E-2
4.369056196E0,-2.748812549E-3,-3.286358118E-1,6.810946763E-2
4.371461509E0,5.833591148E-2,-2.235700935E-1,9.743013978E-2
4.373866821E0,9.743013978E-2,-2.296785712E-1,8.399149776E-2
4.376272134E0,1.120904684E-1,-2.480039895E-1,5.711421743E-2
4.378677446E0,1.157555580E-1,-2.272351831E-1,4.001049697E-2
4.381082759E0,1.218640283E-1,-2.101314515E-1,3.268032894E-2
4.383488071E0,1.255291104E-1,-2.101314515E-1,1.924168877E-2
4.385893384E0,1.304158866E-1,-2.174616307E-1,4.581354558E-3
4.388298644E0,1.353026628E-1,-2.321219593E-1,-1.007897966E-2
4.390703957E0,1.462979168E-1,-2.418955117E-1,-2.351761982E-2
4.393109269E0,1.597365588E-1,-2.541124523E-1,-3.329117596E-2
4.395514582E0,1.768402755E-1,-2.614426315E-1,-4.184303805E-2
4.397919894E0,1.976090819E-1,-2.687727809E-1,-5.405998230E-2
4.400325207E0,2.195995897E-1,-2.785463631E-1,-6.627693027E-2
4.402730519E0,2.501419485E-1,-2.785463631E-1,-7.971556485E-2
4.405135832E0,2.831276953E-1,-2.785463631E-1,-9.437590092E-2
4.407541144E0,3.112266660E-1,-2.895416021E-1,-1.090362370E-1
4.409946457E0,3.381039500E-1,-3.029802442E-1,-1.200314835E-1
4.412351769E0,3.649812341E-1,-3.115321100E-1,-1.298050433E-1
4.414757030E0,3.918585181E-1,-3.213056624E-1,-1.408002973E-1
4.417162342E0,4.175141156E-1,-3.274141252E-1,-1.505738497E-1
4.419567655E0,4.419479966E-1,-3.396310806E-1,-1.579040140E-1
4.421972967E0,4.651601911E-1,-3.555130959E-1,-1.664558798E-1
4.424378280E0,4.871506989E-1,-3.750602305E-1,-1.762294322E-1
4.426783592E0,5.066977739E-1,-3.933856487E-1,-1.847812980E-1
4.429188905E0,5.274665952E-1,-4.068242610E-1,-1.957765520E-1
4.431594217E0,5.519005060E-1,-4.141544402E-1,-2.043284029E-1
4.433999530E0,5.763344169E-1,-4.251496792E-1,-2.031067163E-1
4.436404842E0,6.032116413E-1,-4.385883212E-1,-2.006633282E-1
4.438810155E0,6.288672686E-1,-4.459185004E-1,-1.969982386E-1
4.441215415E0,6.471926570E-1,-4.434750974E-1,-1.982199401E-1
4.443620727E0,6.801784039E-1,-4.691306949E-1,-1.847812980E-1
4.446026040E0,7.033905983E-1,-4.581354558E-1,-1.798945218E-1
4.448431352E0,7.314895988E-1,-4.654656053E-1,-1.640124917E-1
4.450836665E0,7.449282408E-1,-4.520269632E-1,-1.615691036E-1
4.453241977E0,7.656970620E-1,-4.630222321E-1,-1.481304616E-1
4.455647290E0,7.669187188E-1,-4.422534108E-1,-1.469087601E-1
4.458052602E0,7.791357040E-1,-4.605788291E-1,-1.285833418E-1
4.460457915E0,7.742488980E-1,-4.520269632E-1,-1.212531775E-1
4.462863227E0,7.803573608E-1,-4.776825607E-1,-1.029277667E-1
4.465268540E0,7.656970620E-1,-4.679090083E-1,-9.681928903E-2
4.467673852E0,7.681404352E-1,-4.837910235E-1,-8.215895295E-2
4.470079165E0,7.485933304E-1,-4.703523815E-1,-7.971556485E-2
4.472484425E0,7.424848676E-1,-4.789042473E-1,-7.238540053E-2
4.474889738E0,7.082774043E-1,-4.459185004E-1,-8.093725890E-2
4.477295050E0,6.801784039E-1,-4.446968138E-1,-7.360709459E-2
4.479700363E0,6.801784039E-1,-4.727957845E-1,-5.894676223E-2
4.482105675E0,6.447492838E-1,-4.508052766E-1,-6.261184067E-2
4.484510988E0,6.117635369E-1,-4.508052766E-1,-5.894676223E-2
4.486916300E0,6.080984473E-1,-4.752391577E-1,-4.428642616E-2
4.489321613E0,5.690042377E-1,-4.361449480E-1,-4.672981426E-2
4.491726925E0,5.274665952E-1,-4.056025743E-1,-4.795150831E-2
4.494132238E0,5.103628635E-1,-4.153761268E-1,-3.695625812E-2
4.496537498E0,4.993676245E-1,-4.239279926E-1,-2.718270384E-2
4.498942811E0,4.517215490E-1,-3.897205591E-1,-3.084778599E-2
4.501348123E0,4.077405334E-1,-3.775036037E-1,-3.084778599E-2
4.503753436E0,4.040754735E-1,-4.129327536E-1,-2.473931387E-2
4.506158748E0,3.662029207E-1,-3.860554695E-1,-2.473931387E-2
4.508564061E0,3.173351586E-1,-3.689517379E-1,-2.596100792E-2
4.510969373E0,2.855710983E-1,-3.628432751E-1,-2.351761982E-2
4.513374686E0,2.794626355E-1,-3.958290219E-1,-2.229592577E-2
4.515779998E0,2.770192325E-1,-4.080459774E-1,-2.351761982E-2
4.518185311E0,2.440334857E-1,-3.518480062E-1,-3.695625812E-2
4.520590623E0,2.122694254E-1,-3.213056624E-1,-4.184303805E-2
4.522995936E0,1.817270666E-1,-3.103103936E-1,-4.306473210E-2
4.525401248E0,1.511846930E-1,-3.090887070E-1,-3.695625812E-2
4.527806509E0,1.230857223E-1,-3.176405728E-1,-3.329117596E-2
4.530211821E0,9.743013978E-2,-3.213056624E-1,-2.596100792E-2
4.532617134E0,6.566607952E-2,-3.090887070E-1,-8.857285604E-3
4.535022446E0,2.779355086E-2,-2.895416021E-1,1.068982668E-2
4.537427759E0,-1.007897966E-2,-2.736595869E-1,3.512371704E-2
4.539833071E0,-4.306473210E-2,-2.626643181E-1,4.245388508E-2
4.542238384E0,-6.627693027E-2,-2.406738251E-1,3.512371704E-2
4.544643696E0,-8.948912472E-2,-1.979145110E-1,2.535016090E-2
4.547049009E0,-1.212531775E-1,-1.453816444E-1,2.412846684E-2
4.549454321E0,-1.591257155E-1,-1.136175916E-1,3.023693897E-2
4.551859634E0,-1.994416267E-1,-1.038440317E-1,3.512371704E-2
4.554264946E0,-2.422009408E-1,-1.136175916E-1,4.245388508E-2
4.556670259E0,-2.788517773E-1,-1.270562261E-1,4.856235534E-2
4.559075519E0,-3.130592108E-1,-1.356080920E-1,5.711421743E-2
4.561480832E0,-3.362714052E-1,-1.466033459E-1,6.444438547E-2
4.563886144E0,-3.497100472E-1,-1.588202864E-1,5.955760926E-2
4.566291457E0,-3.582619131E-1,-1.600419879E-1,5.589252338E-2
4.568696769E0,-3.594835997E-1,-1.588202864E-1,4.856235534E-2
4.571102082E0,-3.570402265E-1,-1.551551968E-1,4.367557913E-2
4.573507394E0,-3.558185399E-1,-1.563768983E-1,3.878879920E-2
4.575912707E0,-3.521534503E-1,-1.563768983E-1,2.901524492E-2
4.578318019E0,-3.509317636E-1,-1.563768983E-1,2.168507688E-2
4.580723332E0,-3.521534503E-1,-1.539335102E-1,1.679829881E-2
4.583128644E0,-3.545968235E-1,-1.563768983E-1,8.246437646E-3
4.585533905E0,-3.582619131E-1,-1.551551968E-1,4.581354558E-3
4.587939217E0,-3.655920923E-1,-1.502684206E-1,-1.527118147E-3
4.590344530E0,-3.741439581E-1,-1.404948682E-1,-6.413896102E-3
4.592749842E0,-3.839175105E-1,-1.294996142E-1,-1.130067464E-2
4.595155155E0,-3.912476599E-1,-1.123958975E-1,-1.374406368E-2
4.597560467E0,-4.010212123E-1,-1.050657257E-1,-1.618745178E-2
4.599965780E0,-4.107947946E-1,-9.529217333E-2,-2.107422985E-2
4.602371092E0,-4.156815708E-1,-8.674030751E-2,-3.817795217E-2
4.604776405E0,-4.169032574E-1,-6.963659078E-2,-5.039490014E-2
4.607181717E0,-4.254551232E-1,-3.787253052E-2,-4.672981426E-2
4.609587030E0,-4.340069890E-1,-2.565558441E-2,-4.550812021E-2
4.611992342E0,-4.327852726E-1,-3.420744836E-2,-6.016845629E-2
4.614397655E0,-4.327852726E-1,-3.298575059E-2,-6.261184067E-2
4.616802915E0,-4.340069890E-1,-2.076880634E-2,-6.016845629E-2
4.619208227E0,-4.303418994E-1,-1.710372418E-2,-6.872031838E-2
4.621613540E0,-4.242334068E-1,-8.551862091E-3,-7.360709459E-2
4.624018852E0,-4.230117202E-1,1.099525020E-2,-7.116370648E-2
4.626424165E0,-4.083513916E-1,1.221694518E-2,-8.948912472E-2
4.628829477E0,-3.949127495E-1,2.443389036E-2,-9.315420687E-2
4.631234790E0,-3.949127495E-1,4.764608666E-2,-7.727217674E-2
4.633640102E0,-3.912476599E-1,4.275930673E-2,-6.505523622E-2
4.636045415E0,-3.851391971E-1,2.932066843E-2,-5.650337040E-2
4.638450727E0,-3.765873313E-1,2.321219631E-2,-5.161659420E-2
4.640856040E0,-3.668137789E-1,2.443389036E-2,-3.817795217E-2
4.643261352E0,-3.631486893E-1,2.199050039E-2,-1.007897966E-2
4.645666665E0,-3.521534503E-1,3.665083554E-3,5.803049076E-3
4.648071925E0,-3.448232710E-1,-4.886778072E-3,2.290677279E-2
4.650477238E0,-3.362714052E-1,-7.330167107E-3,4.123219103E-2
4.652882550E0,-3.252761662E-1,-1.710372418E-2,5.589252338E-2
4.655287863E0,-3.130592108E-1,-2.687728032E-2,6.444438547E-2
4.657693175E0,-2.910687327E-1,-3.665083647E-2,6.200099736E-2
4.660098488E0,-2.739650011E-1,-3.176405653E-2,6.810946763E-2
4.662503800E0,-2.556395829E-1,-2.809897438E-2,8.032641560E-2
4.664909113E0,-2.336490750E-1,-4.153761268E-2,8.154810965E-2
4.667314425E0,-2.104368806E-1,-5.375456065E-2,8.765657991E-2
4.669719738E0,-1.884463727E-1,-6.108472496E-2,9.498675168E-2
4.672125050E0,-1.664558798E-1,-5.986303091E-2,9.743013978E-2
4.674530363E0,-1.481304616E-1,-6.963659078E-2,9.620844573E-2
4.676935623E0,-1.298050433E-1,-7.941014320E-2,1.023169160E-1
4.679340936E0,-1.139230132E-1,-9.040539712E-2,1.145338640E-1
4.681746248E0,-1.053711548E-1,-1.038440317E-1,1.304158866E-1
4.684151561E0,-9.559759498E-2,-1.185043678E-1,1.414111406E-1
4.686556873E0,-8.338065445E-2,-1.258345395E-1,1.438545287E-1
4.688962186E0,-7.605048269E-2,-1.282779276E-1,1.426328421E-1
4.691367498E0,-6.505523622E-2,-1.246128380E-1,1.365243644E-1
4.693772811E0,-5.528167635E-2,-1.123958975E-1,1.267508119E-1
4.696178123E0,-4.306473210E-2,-1.001789495E-1,1.145338640E-1
4.698583436E0,-3.206948191E-2,-8.429691941E-2,9.987352788E-2
4.700988748E0,-2.351761982E-2,-7.452336699E-2,8.276980370E-2
4.703394009E0,-1.252236869E-2,-6.963659078E-2,6.444438547E-2
4.705799321E0,2.137965523E-3,-6.352811307E-2,4.489727318E-2
4.708204634E0,1.557660475E-2,-5.619794875E-2,2.779355086E-2
4.710609946E0,3.756710514E-2,-4.153761268E-2,1.435491070E-2
4.713015259E0,5.711421743E-2,-2.687728032E-2,-5.192201585E-3
4.715420571E0,7.421794534E-2,-1.466033421E-2,-1.985253580E-2
4.717825884E0,9.376505762E-2,-2.443389036E-3,-3.451287001E-2
4.720231196E0,1.133121699E-1,2.443389036E-3,-4.672981426E-2
4.722636509E0,1.328592747E-1,6.108472589E-3,-5.528167635E-2
4.725041821E0,1.597365588E-1,7.330167107E-3,-5.772506446E-2
4.727447134E0,1.731752008E-1,2.565558441E-2,-6.872031838E-2
4.729852446E0,1.878355294E-1,3.665083647E-2,-7.971556485E-2
4.732257759E0,1.976090819E-1,4.275930673E-2,-8.826743066E-2
4.734663019E0,2.073826492E-1,4.275930673E-2,-9.315420687E-2
4.737068332E0,2.171562016E-1,3.176405653E-2,-9.071081877E-2
4.739473644E0,2.257080674E-1,1.954711229E-2,-8.948912472E-2
4.741878957E0,2.232646793E-1,1.221694518E-2,-1.004843712E-1
4.744284269E0,2.183778882E-1,3.665083554E-3,-1.102579311E-1
4.746689582E0,2.134911120E-1,-2.443389036E-3,-1.127013192E-1
4.749094894E0,2.195995897E-1,-3.420744836E-2,-8.948912472E-2
4.751500207E0,2.195995897E-1,-6.841489673E-2,-7.482878864E-2
4.753905519E0,2.195995897E-1,-1.001789495E-1,-8.093725890E-2
4.756310832E0,2.122694254E-1,-1.050657257E-1,-1.041494608E-1
4.758716144E0,2.171562016E-1,-1.062874198E-1,-9.559759498E-2
4.761121457E0,2.220429778E-1,-9.773556143E-2,-9.071081877E-2
4.763526717E0,2.134911120E-1,-8.429691941E-2,-9.681928903E-2
4.765932030E0,2.000524700E-1,-6.963659078E-2,-9.804098308E-2
4.768337342E0,1.866138428E-1,-5.375456065E-2,-7.605048269E-2
4.770742655E0,1.658450365E-1,-4.642439261E-2,-5.894676223E-2
4.773147967E0,1.353026628E-1,-3.909422457E-2,-5.161659420E-2
4.775553280E0,1.059819981E-1,-2.321219631E-2,-4.306473210E-2
4.777958592E0,6.933116168E-2,-8.551862091E-3,-4.306473210E-2
4.780363905E0,3.145863488E-2,2.443389036E-3,-4.672981426E-2
4.782769217E0,-3.054236295E-4,2.321219631E-2,-4.550812021E-2
4.785174530E0,-3.817795217E-2,4.642439261E-2,-5.039490014E-2
4.787579842E0,-6.872031838E-2,6.352811307E-2,-4.917320609E-2
4.789985155E0,-9.437590092E-2,7.818844914E-2,-4.672981426E-2
4.792390415E0,-1.175880954E-1,7.574506104E-2,-5.650337040E-2
4.794795727E0,-1.310267299E-1,7.207997888E-2,-5.039490014E-2
4.797201040E0,-1.395785958E-1,6.108472496E-2,-4.917320609E-2
4.799606352E0,-1.420219839E-1,4.886778072E-2,-5.405998230E-2
4.802011665E0,-1.371352077E-1,3.665083647E-2,-5.528167635E-2
4.804416977E0,-1.273616552E-1,2.687728032E-2,-5.528167635E-2
4.806822290E0,-1.139230132E-1,1.710372418E-2,-4.795150831E-2
4.809227602E0,-1.004843712E-1,-1.221694518E-3,-3.817795217E-2
4.811632915E0,-8.093725890E-2,-2.199050039E-2,-2.107422985E-2
4.814038227E0,-6.261184067E-2,-4.886778072E-2,1.068982668E-2
4.816443540E0,-4.795150831E-2,-8.307522535E-2,5.222744122E-2
4.818848852E0,-3.573456407E-2,-1.197260618E-1,8.032641560E-2
4.821254165E0,-2.962609194E-2,-1.441599578E-1,1.035386100E-1
4.823659425E0,-2.840439789E-2,-1.478250325E-1,1.316375881E-1
4.826064738E0,-3.084778599E-2,-1.539335102E-1,1.756185889E-1
4.828470050E0,-4.672981426E-2,-1.685938388E-1,2.489202619E-1
4.830875363E0,-7.605048269E-2,-1.869192570E-1,3.307738006E-1
