"Time (s)","Acceleration x (m/s^2)","Acceleration y (m/s^2)","Acceleration z (m/s^2)"
2.378912000E-3,-2.356919289E0,5.090388775E0,8.511473656E0
6.350787000E-3,-2.347945690E0,5.065173149E0,8.553256989E0
1.032110000E-2,-2.334997892E0,5.041575909E0,8.593824387E0
1.429141200E-2,-2.320134878E0,5.032976151E0,8.637073517E0
1.826172500E-2,-2.298290014E0,5.029422760E0,8.693460464E0
2.223672500E-2,-2.281674385E0,5.043107986E0,8.711321831E0
2.620235000E-2,-2.253719568E0,5.076876163E0,8.712336540E0
3.017266200E-2,-2.233196497E0,5.110854626E0,8.677113533E0
3.414453700E-2,-2.205538511E0,5.153796673E0,8.650729179E0
3.811328700E-2,-2.184459925E0,5.165279388E0,8.619375229E0
4.208516200E-2,-2.175917387E0,5.179338455E0,8.551169395E0
4.605547500E-2,-2.180859089E0,5.187468529E0,8.494560242E0
5.002578700E-2,-2.170478106E0,5.188857555E0,8.445958138E0
5.399610000E-2,-2.172891378E0,5.195188046E0,8.408790588E0
5.796641200E-2,-2.185609341E0,5.214848995E0,8.376229286E0
6.193672500E-2,-2.186777592E0,5.247706890E0,8.375003815E0
6.590860000E-2,-2.168629646E0,5.305905342E0,8.392308235E0
6.987891200E-2,-2.177095413E0,5.376639843E0,8.355035782E0
7.384922500E-2,-2.169951200E0,5.457458496E0,8.319161415E0
7.781953700E-2,-2.111676216E0,5.506913185E0,8.318471909E0
8.178985000E-2,-2.107089043E0,5.525444031E0,8.358072281E0
8.576016200E-2,-2.102712393E0,5.526248455E0,8.381678581E0
8.973047500E-2,-2.114166260E0,5.500208855E0,8.398332596E0
9.370078700E-2,-2.139228821E0,5.460513115E0,8.384082794E0
9.767266200E-2,-2.154628515E0,5.415205479E0,8.383661270E0
1.016429750E-1,-2.121233940E0,5.345965385E0,8.375577927E0
1.056132870E-1,-2.116167784E0,5.292315960E0,8.339358330E0
1.095836000E-1,-2.075744152E0,5.237498283E0,8.274361610E0
1.135539120E-1,-2.047099829E0,5.210002899E0,8.232519150E0
1.175242250E-1,-2.018503428E0,5.193607807E0,8.203444481E0
1.214961000E-1,-1.993057966E0,5.194718838E0,8.200944901E0
1.254664120E-1,-2.003420115E0,5.173362255E0,8.171841621E0
1.294367250E-1,-1.997252703E0,5.158020020E0,8.154918671E0
1.334070370E-1,-2.010909081E0,5.152810574E0,8.164352417E0
1.373773500E-1,-2.010219574E0,5.139891624E0,8.170012474E0
1.413476620E-1,-2.035875797E0,5.145235538E0,8.154851913E0
1.453179750E-1,-2.033807278E0,5.125909328E0,8.123870850E0
1.492882870E-1,-2.042809486E0,5.137506962E0,8.100340843E0
1.532586000E-1,-2.007471085E0,5.111697197E0,8.066477776E0
1.572304750E-1,-1.995710850E0,5.110796928E0,8.053864479E0
1.612007870E-1,-1.962373853E0,5.113785267E0,8.008949280E0
1.651711000E-1,-1.954817772E0,5.130237579E0,7.989287853E0
1.691414120E-1,-1.976758242E0,5.157110214E0,7.997198582E0
1.731117250E-1,-2.035856724E0,5.188426971E0,7.934815407E0
1.770820370E-1,-2.071128130E0,5.204841137E0,7.901325226E0
1.810539120E-1,-2.072756052E0,5.222022057E0,7.905003071E0
1.850242250E-1,-2.081317902E0,5.231340408E0,7.952369690E0
1.889945370E-1,-2.109473705E0,5.231666088E0,7.999669552E0
1.929648500E-1,-2.109148026E0,5.223793983E0,8.082537651E0
1.969351620E-1,-2.143107414E0,5.231608391E0,8.105828285E0
2.009054750E-1,-2.187237263E0,5.244470119E0,8.123191833E0
2.048773500E-1,-2.202588797E0,5.239049911E0,8.125412941E0
2.088476620E-1,-2.237515688E0,5.227317810E0,8.114428520E0
2.128164120E-1,-2.236452579E0,5.191366673E0,8.140036583E0
2.167882870E-1,-2.265317202E0,5.208672047E0,8.136397362E0
2.207586000E-1,-2.283800364E0,5.277404785E0,8.059735298E0
2.247289120E-1,-2.305118084E0,5.302390575E0,7.979213238E0
2.286992250E-1,-2.282488346E0,5.318364620E0,7.962511539E0
2.326695370E-1,-2.251995564E0,5.287460327E0,7.989384174E0
2.366398500E-1,-2.252282858E0,5.280172348E0,8.041855812E0
2.406117250E-1,-2.272911310E0,5.266880035E0,8.110884666E0
2.445820370E-1,-2.275018215E0,5.227701187E0,8.189041138E0
2.485523500E-1,-2.268477201E0,5.170058250E0,8.248906136E0
2.525226620E-1,-2.228484631E0,5.097370148E0,8.317590714E0
2.564929750E-1,-2.233589172E0,5.097715378E0,8.293409348E0
2.604648500E-1,-2.256362677E0,5.104255676E0,8.229589462E0
2.644351620E-1,-2.248816252E0,5.117740154E0,8.222052574E0
2.684054750E-1,-2.223284483E0,5.124817371E0,8.200532913E0
2.723757870E-1,-2.199562788E0,5.128561974E0,8.186522484E0
2.763461000E-1,-2.158143044E0,5.100138187E0,8.143503189E0
2.803164120E-1,-2.103852034E0,5.077900887E0,8.125920296E0
2.842867250E-1,-2.050595522E0,5.039334774E0,8.092928886E0
2.882570370E-1,-2.020677567E0,5.002761364E0,8.069733620E0
2.922273500E-1,-1.995844841E0,4.993864059E0,8.071227074E0
2.961992250E-1,-2.041028261E0,5.020209789E0,8.042200089E0
3.001695370E-1,-2.052319288E0,5.026779652E0,8.033255577E0
3.041398500E-1,-2.076519728E0,5.055012226E0,8.001163483E0
3.081226620E-1,-2.129556179E0,5.091403961E0,7.982162952E0
3.120804750E-1,-2.132898331E0,5.099237919E0,7.910193443E0
3.160507870E-1,-2.122593880E0,5.101449966E0,7.932287216E0
3.200226620E-1,-2.177478552E0,5.128188610E0,7.961592197E0
3.239929750E-1,-2.216207266E0,5.145187378E0,8.046959877E0
3.279617250E-1,-2.224366665E0,5.152542591E0,8.097438812E0
3.319336000E-1,-2.216513634E0,5.163210869E0,8.194079399E0
3.359039120E-1,-2.214195967E0,5.162951946E0,8.266325951E0
3.398742250E-1,-2.201353550E0,5.179635048E0,8.344607353E0
3.438461000E-1,-2.180351496E0,5.205416203E0,8.436735153E0
3.478148500E-1,-2.183195829E0,5.221648216E0,8.460946083E0
3.517851620E-1,-2.166963100E0,5.218832970E0,8.480665207E0
3.557570370E-1,-2.149035454E0,5.217377663E0,8.520437241E0
3.597273500E-1,-2.179087400E0,5.230258465E0,8.545508385E0
3.636976620E-1,-2.211897612E0,5.238408089E0,8.571405411E0
3.676679750E-1,-2.246862650E0,5.270959377E0,8.573751450E0
3.716382870E-1,-2.272767782E0,5.316018581E0,8.546562195E0
3.756086000E-1,-2.272997618E0,5.309889317E0,8.523425102E0
3.795804750E-1,-2.267328024E0,5.311890602E0,8.477725029E0
3.835507870E-1,-2.232114315E0,5.348359585E0,8.408972740E0
3.875195370E-1,-2.226511717E0,5.347966671E0,8.347795486E0
3.914914120E-1,-2.214560032E0,5.332356453E0,8.263596535E0
3.954617250E-1,-2.179250240E0,5.296750069E0,8.155321121E0
3.994320370E-1,-2.151937246E0,5.288705349E0,8.135315895E0
4.034023500E-1,-2.112777472E0,5.254286289E0,8.114744186E0
4.073726620E-1,-2.073828936E0,5.221820831E0,8.109936714E0
4.113429750E-1,-2.059032679E0,5.200244427E0,8.126619339E0
4.153148500E-1,-2.049283504E0,5.209533691E0,8.120375633E0
4.192851620E-1,-1.990184903E0,5.234787941E0,8.238706589E0
4.232554750E-1,-1.966664314E0,5.282442093E0,8.373854637E0
4.272257870E-1,-2.035626888E0,5.314179897E0,8.349348068E0
4.311961000E-1,-2.126769304E0,5.344183445E0,8.253377914E0
4.351679750E-1,-2.203154087E0,5.359363079E0,8.185325623E0
4.391382870E-1,-2.232028008E0,5.390516758E0,8.166075706E0
4.431070370E-1,-2.278102160E0,5.447527409E0,8.301913261E0
4.470789120E-1,-2.331741810E0,5.536131859E0,8.526317596E0
4.510492250E-1,-2.409045696E0,5.588612556E0,8.669500351E0
4.550195370E-1,-2.456173182E0,5.606971264E0,8.763171196E0
4.589898500E-1,-2.476677179E0,5.579638958E0,8.782563210E0
4.629601620E-1,-2.491329670E0,5.513147354E0,8.790436745E0
4.669304750E-1,-2.478889465E0,5.392422199E0,8.772039413E0
4.709023500E-1,-2.465395689E0,5.335603237E0,8.773418427E0
4.748726620E-1,-2.425268888E0,5.285037518E0,8.797579765E0
4.788429750E-1,-2.393981457E0,5.277835369E0,8.780083656E0
4.828132870E-1,-2.328131437E0,5.343312263E0,8.733272552E0
4.867836000E-1,-2.284863234E0,5.409832954E0,8.612738609E0
4.907539120E-1,-2.361755371E0,5.458693981E0,8.756955147E0
4.947257870E-1,-2.522645712E0,5.499625206E0,9.037948608E0
4.986992250E-1,-2.621698618E0,5.500161171E0,9.155551910E0
5.026664120E-1,-2.625385761E0,5.470990181E0,9.155780792E0
5.066398500E-1,-2.545084238E0,5.362648010E0,9.079742432E0
5.106070370E-1,-2.486723185E0,5.277481556E0,8.982566833E0
5.145773500E-1,-2.398300648E0,5.207608700E0,8.906046867E0
5.185476620E-1,-2.355788946E0,5.184011936E0,8.861247063E0
5.225195370E-1,-2.274175644E0,5.179989338E0,8.839028358E0
5.264882870E-1,-2.159531832E0,5.228917599E0,8.796747208E0
5.304601620E-1,-2.079306602E0,5.299890995E0,8.658726692E0
5.344304750E-1,-1.978654385E0,5.317167282E0,8.559999466E0
5.384007870E-1,-1.873922467E0,5.256747723E0,8.490595818E0
5.423711000E-1,-1.701243162E0,5.166112900E0,8.444626808E0
5.463414120E-1,-1.541434884E0,5.079519272E0,8.461166382E0
5.503117250E-1,-1.469886541E0,5.016647339E0,8.485126495E0
5.542836000E-1,-1.399937630E0,4.988223553E0,8.547769547E0
5.582539120E-1,-1.353700757E0,5.013333797E0,8.625829697E0
5.622242250E-1,-1.346154332E0,5.062128067E0,8.702654839E0
5.661945370E-1,-1.350923419E0,5.139077187E0,8.842917442E0
5.701648500E-1,-1.368860841E0,5.186338902E0,9.002897263E0
5.741351620E-1,-1.368774652E0,5.227748871E0,9.162226677E0
5.781054750E-1,-1.368745923E0,5.266104221E0,9.273815155E0
5.820757870E-1,-1.402331829E0,5.331944942E0,9.291887283E0
5.860476620E-1,-1.427672029E0,5.439434528E0,9.213548660E0
5.900179750E-1,-1.445877552E0,5.528748035E0,9.141684532E0
5.939882870E-1,-1.419819117E0,5.633499146E0,9.074494362E0
5.979586000E-1,-1.386951447E0,5.652920723E0,9.096759796E0
6.019289120E-1,-1.332296610E0,5.676374435E0,9.150773048E0
6.059039120E-1,-1.254015923E0,5.671308517E0,9.174819946E0
6.098711000E-1,-1.152319670E0,5.656598568E0,9.099183083E0
6.138414120E-1,-9.971179962E-1,5.647203445E0,8.929481506E0
6.178382870E-1,-8.245343566E-1,5.639589787E0,8.686594963E0
6.217820370E-1,-6.618626714E-1,5.629505157E0,8.441429138E0
6.257523500E-1,-4.714853466E-1,5.600238800E0,8.184693336E0
6.297226620E-1,-3.567073345E-1,5.561816692E0,7.980056286E0
6.336929750E-1,-2.855899632E-1,5.525578022E0,7.696831703E0
6.376648500E-1,-3.163602352E-1,5.507870674E0,7.275615215E0
6.416336000E-1,-3.408098221E-1,5.553102016E0,6.865670204E0
6.456054750E-1,-3.627311289E-1,5.636065960E0,6.353914738E0
6.495757870E-1,-3.143203855E-1,5.764893055E0,5.935082436E0
6.535461000E-1,-1.844109893E-1,5.926453590E0,5.546982288E0
6.575164120E-1,1.800439670E-3,6.122682571E0,5.241529942E0
6.614867250E-1,1.950316727E-1,6.287815571E0,5.051047325E0
6.654570370E-1,4.553867579E-1,6.437912464E0,4.859961510E0
6.694273500E-1,6.685951948E-1,6.505036831E0,4.752193451E0
6.733992250E-1,9.296014905E-1,6.503839493E0,4.724525928E0
6.773695370E-1,1.148508191E0,6.421948433E0,4.837225914E0
6.813398500E-1,1.274577260E0,6.355944633E0,5.050549507E0
6.853101620E-1,1.364675760E0,6.273018837E0,5.407199383E0
6.892804750E-1,1.386645079E0,6.213949203E0,5.842379093E0
6.932523500E-1,1.352446318E0,6.141433716E0,6.222357750E0
6.972226620E-1,1.283694386E0,6.075449944E0,6.690012932E0
7.011914120E-1,1.199926019E0,5.995052338E0,7.127778053E0
7.051632870E-1,1.087274075E0,5.918868542E0,7.657567024E0
7.091336000E-1,9.608697295E-1,5.835866928E0,8.208243370E0
7.131039120E-1,8.826751113E-1,5.771137238E0,8.672248840E0
7.170742250E-1,7.986291051E-1,5.729535103E0,9.126783371E0
7.210445370E-1,7.786710262E-1,5.670733929E0,9.431267738E0
7.250148500E-1,7.620264888E-1,5.662248611E0,9.640186310E0
7.289867250E-1,7.042113543E-1,5.674880505E0,9.773467064E0
7.329570370E-1,6.608283520E-1,5.720839977E0,9.791203499E0
7.369273500E-1,6.416460276E-1,5.831557274E0,9.657146454E0
7.408976620E-1,5.956295133E-1,5.886623383E0,9.351933479E0
7.448679750E-1,5.736028552E-1,5.911915779E0,8.890226364E0
7.488382870E-1,5.768206716E-1,5.930198193E0,8.360676765E0
7.528101620E-1,6.008967161E-1,5.953517437E0,7.914722919E0
7.567789120E-1,5.912337899E-1,6.010298729E0,7.318672180E0
7.607507870E-1,5.796266198E-1,6.089010239E0,7.056028366E0
7.647211000E-1,5.964148045E-1,6.203845501E0,6.901928425E0
7.686914120E-1,6.579266191E-1,6.295122623E0,6.674986362E0
7.726617250E-1,6.560878754E-1,6.346271992E0,6.324810505E0
7.766320370E-1,6.212187409E-1,6.360579967E0,5.925543785E0
7.806023500E-1,5.764471292E-1,6.400036335E0,5.704290867E0
7.845742250E-1,5.615360737E-1,6.424524307E0,5.555112839E0
7.885445370E-1,5.389156342E-1,6.478891373E0,5.524677753E0
7.925148500E-1,5.671097636E-1,6.566413879E0,5.623347759E0
7.964851620E-1,5.803832412E-1,6.765937328E0,5.638565540E0
8.004554750E-1,5.243397355E-1,6.898538113E0,5.435699940E0
8.044257870E-1,4.226723611E-1,7.025679588E0,5.252916813E0
8.083961000E-1,3.097618222E-1,7.106460094E0,5.355752468E0
8.123679750E-1,2.005575001E-1,7.168776512E0,5.614805222E0
8.163382870E-1,7.169197500E-2,7.237097263E0,5.925946236E0
8.203086000E-1,-2.616383508E-2,7.236781120E0,6.161458969E0
8.242789120E-1,-1.168753505E-1,7.199393272E0,6.399806499E0
8.282492250E-1,-1.402810663E-1,7.118076801E0,6.627399445E0
8.322195370E-1,-1.384423226E-1,7.008278370E0,6.827698231E0
8.361898500E-1,-1.038413197E-1,6.872163296E0,7.098875046E0
8.401601620E-1,-6.932650506E-2,6.781270027E0,7.353981972E0
8.441320370E-1,-8.751286566E-2,6.713791370E0,7.519411564E0
8.481023500E-1,-1.518115401E-1,6.668809414E0,7.630847454E0
8.520726620E-1,-2.079699337E-1,6.666625977E0,7.625761986E0
8.560429750E-1,-3.060268462E-1,6.706025124E0,7.551436424E0
8.600132870E-1,-4.053670764E-1,6.781365871E0,7.415340900E0
8.639836000E-1,-5.186702609E-1,6.873178482E0,7.250839710E0
8.679554750E-1,-6.038367748E-1,6.989326000E0,7.020460129E0
8.719257870E-1,-6.442605257E-1,7.067032337E0,6.867451668E0
8.758961000E-1,-6.627629399E-1,7.185440063E0,6.700882435E0
8.798664120E-1,-7.070460916E-1,7.285862446E0,6.459039211E0
8.838367250E-1,-7.073333859E-1,7.335067749E0,6.236522198E0
8.878070370E-1,-6.658945084E-1,7.378651619E0,5.972891808E0
8.917773500E-1,-5.881978869E-1,7.424218178E0,5.816990852E0
8.957492250E-1,-4.677982926E-1,7.407621384E0,5.690433025E0
8.997179750E-1,-2.878309190E-1,7.357659817E0,5.633882523E0
9.036898500E-1,-1.121635586E-1,7.258606434E0,5.576000214E0
9.076601620E-1,1.034678221E-1,7.123276711E0,5.540307045E0
9.116304750E-1,3.073005676E-1,6.987113953E0,5.502067089E0
9.156007870E-1,5.036634207E-1,6.898643017E0,5.501549721E0
9.195711000E-1,7.111257911E-1,6.772900105E0,5.523116589E0
9.235429750E-1,8.863525987E-1,6.678376675E0,5.540632725E0
9.275132870E-1,1.061359167E0,6.586592197E0,5.656416416E0
9.314836000E-1,1.171233892E0,6.532071590E0,5.782351494E0
9.354539120E-1,1.277938724E0,6.471920013E0,5.967269897E0
9.394242250E-1,1.381732106E0,6.432530403E0,6.243350029E0
9.433945370E-1,1.593963742E0,6.368547916E0,6.668847561E0
9.473648500E-1,1.808704495E0,6.318192959E0,7.136808395E0
9.513351620E-1,1.983787656E0,6.330470085E0,7.594206333E0
9.553070370E-1,2.147426605E0,6.363730431E0,7.878561020E0
9.592773500E-1,2.232200384E0,6.373939514E0,7.941078663E0
9.632476620E-1,2.219271660E0,6.393255711E0,7.857894421E0
9.672179750E-1,2.187064886E0,6.401118755E0,7.695155621E0
9.711882870E-1,2.146210194E0,6.449376106E0,7.532742500E0
9.751586000E-1,2.082831144E0,6.533862591E0,7.386964321E0
9.791289120E-1,2.000585318E0,6.630138397E0,7.252936840E0
9.831007870E-1,1.862056851E0,6.750920773E0,7.083360672E0
9.870711000E-1,1.655140400E0,6.897455692E0,6.797263145E0
9.910414120E-1,1.355424523E0,7.020642281E0,6.459996700E0
9.950117250E-1,1.094830036E0,7.109237194E0,6.142525196E0
9.989820370E-1,8.355764151E-1,7.177184582E0,5.833922386E0
1.002952350E0,6.843681931E-1,7.182423115E0,5.625109673E0
1.006924225E0,6.333429813E-1,7.160655499E0,5.448762894E0
1.010892975E0,6.304986477E-1,7.138724327E0,5.370711327E0
1.014863287E0,6.428814530E-1,7.161507130E0,5.354699135E0
1.018835162E0,6.477752328E-1,7.224283218E0,5.368527889E0
1.022805475E0,6.025822759E-1,7.315818310E0,5.307485580E0
1.026775787E0,4.674152136E-1,7.438641071E0,5.136242867E0
1.030746100E0,3.237343729E-1,7.592923164E0,4.973245144E0
1.034716412E0,2.248921543E-1,7.710497856E0,4.874067783E0
1.038686725E0,1.146631092E-1,7.844764709E0,4.782063484E0
1.042658600E0,-1.552400365E-2,7.932737350E0,4.743545532E0
1.046628912E0,-1.895154268E-1,8.043244362E0,4.772879601E0
1.050599225E0,-3.694253266E-1,8.114581108E0,5.021100521E0
1.054569537E0,-5.046306849E-1,8.110415459E0,5.435393333E0
1.058539850E0,-6.199929118E-1,8.032690048E0,6.048280239E0
1.062510162E0,-6.745806932E-1,7.870018482E0,6.505122662E0
1.066482037E0,-6.867240667E-1,7.641544819E0,6.780676365E0
1.070452350E0,-6.353445649E-1,7.349576473E0,6.791248798E0
1.074421100E0,-5.655295849E-1,7.069684982E0,6.762442112E0
1.078392975E0,-4.264264703E-1,6.748191357E0,6.630914211E0
1.082363287E0,-3.320470452E-1,6.507143497E0,6.465465069E0
1.086333600E0,-2.293740958E-1,6.250034809E0,6.189308167E0
1.090303912E0,-1.013992280E-1,6.074817181E0,5.790855408E0
1.094274225E0,3.566402942E-2,5.985149860E0,5.403837681E0
1.098246100E0,1.617331058E-1,6.032459259E0,4.852970123E0
1.102227350E0,2.465644628E-1,6.232719898E0,4.314811230E0
1.106186725E0,2.986239791E-1,6.488813400E0,3.983683586E0
1.110157037E0,3.390381038E-1,6.851640224E0,3.707804441E0
1.114127350E0,3.926107883E-1,7.177347660E0,3.449604034E0
1.118097662E0,4.033559561E-1,7.527303219E0,3.147944450E0
1.122067975E0,4.211113453E-1,7.848011017E0,2.777273893E0
1.126038287E0,4.134498835E-1,8.070039749E0,2.480345011E0
1.130008600E0,3.688603044E-1,8.257850647E0,2.272892237E0
1.133980475E0,2.757928669E-1,8.337739944E0,2.279299021E0
1.137950787E0,1.465538740E-1,8.358387947E0,2.507026196E0
1.141921100E0,1.915361360E-2,8.277790070E0,2.981441975E0
1.145891412E0,-7.933426648E-2,8.128812790E0,3.454267979E0
1.149861725E0,-1.306755245E-1,7.820065975E0,3.942905426E0
1.153832037E0,-1.513135582E-1,7.550124645E0,4.250809669E0
1.157803912E0,-1.455483139E-1,7.302765369E0,4.513175964E0
1.161774225E0,-8.656475693E-2,7.162991524E0,4.681832314E0
1.165744537E0,1.202846877E-2,7.148636341E0,4.820437908E0
1.169714850E0,1.540429443E-1,7.302382469E0,4.926864624E0
1.173685162E0,2.590622008E-1,7.569948673E0,4.922747135E0
1.177655475E0,4.045243263E-1,8.006249428E0,4.751724243E0
1.181627350E0,4.793957770E-1,8.448802948E0,4.438409328E0
1.185597662E0,5.493351817E-1,8.758363724E0,4.135552406E0
1.189567975E0,6.750308275E-1,8.946508408E0,3.921290636E0
1.193538287E0,8.688845038E-1,8.971169472E0,3.983348370E0
1.197508600E0,1.155499101E0,8.888138771E0,4.252619267E0
1.201482037E0,1.514686942E0,8.726922989E0,4.615695477E0
1.205449225E0,1.831928253E0,8.531172752E0,4.987400055E0
1.209419537E0,2.185159206E0,8.214228630E0,5.481764317E0
1.213405475E0,2.494911432E0,7.910078526E0,6.110874176E0
1.217361725E0,2.740020275E0,7.604271889E0,6.801553726E0
1.221332037E0,2.977668762E0,7.183945656E0,7.599541187E0
1.225302350E0,3.135034561E0,6.803421021E0,8.125327110E0
1.229272662E0,3.282996416E0,6.400639534E0,8.661952972E0
1.233242975E0,3.385094643E0,6.147840977E0,8.940427780E0
1.237213287E0,3.488237143E0,5.927028179E0,9.125432968E0
1.241183600E0,3.562907219E0,5.853229523E0,9.191751480E0
1.245155475E0,3.540737152E0,5.937093258E0,9.057888031E0
1.249125787E0,3.383610249E0,6.194029808E0,8.577400208E0
1.253096100E0,3.085417271E0,6.606445312E0,7.856773853E0
1.257066412E0,2.776335478E0,7.009839535E0,7.210415840E0
1.261036725E0,2.457264900E0,7.487329483E0,6.563560486E0
1.265007037E0,2.288607836E0,7.887314320E0,6.175057888E0
1.268977350E0,2.084899664E0,8.277195930E0,5.881989002E0
1.272949225E0,1.879381299E0,8.584171295E0,5.693517208E0
1.276919537E0,1.691225886E0,8.765152931E0,5.605908394E0
1.280889850E0,1.517531276E0,8.887114525E0,5.698515892E0
1.284860162E0,1.396901727E0,8.870920181E0,5.856983185E0
1.288830475E0,1.271378517E0,8.803748131E0,6.056516171E0
1.292802350E0,1.170525312E0,8.708162308E0,6.267043591E0
1.296771100E0,1.111158609E0,8.686834335E0,6.454365730E0
1.300747662E0,1.005603075E0,8.722719193E0,6.581009388E0
1.304713287E0,9.276190996E-1,8.790187836E0,6.601484299E0
1.308683600E0,8.441092968E-1,8.954400063E0,6.457679272E0
1.312653912E0,8.055626750E-1,9.164133072E0,6.246989250E0
1.316624225E0,8.095466495E-1,9.424229622E0,5.984977722E0
1.320594537E0,8.524315953E-1,9.713065147E0,5.635337830E0
1.324564850E0,8.813534975E-1,9.955770493E0,5.225814342E0
1.328535162E0,9.012349844E-1,1.008475113E1,4.833261013E0
1.332524225E0,9.512833953E-1,1.018460846E1,4.527473450E0
1.336477350E0,1.012000322E0,1.022881508E1,4.426639557E0
1.340447662E0,1.127180576E0,1.020044804E1,4.466335297E0
1.344417975E0,1.252981544E0,1.013130379E1,4.561854362E0
1.348388287E0,1.392649651E0,9.998645782E0,4.634685993E0
1.352358600E0,1.503836393E0,9.812396049E0,4.674429893E0
1.356330475E0,1.622789860E0,9.592551231E0,4.769067764E0
1.360300787E0,1.711231709E0,9.410869598E0,4.941814423E0
1.364271100E0,1.745574117E0,9.245832443E0,5.138933659E0
1.368241412E0,1.796379209E0,9.071266174E0,5.375461578E0
1.372211725E0,1.781611681E0,8.897715569E0,5.492078781E0
1.376182037E0,1.756194830E0,8.771627426E0,5.501042366E0
1.380152350E0,1.693725348E0,8.696985245E0,5.481965542E0
1.384124225E0,1.566985846E0,8.635033607E0,5.606530666E0
1.388092975E0,1.426800489E0,8.562191963E0,5.649703026E0
1.392064850E0,1.303029895E0,8.526068687E0,5.714251041E0
1.396035162E0,1.226970911E0,8.468214989E0,5.822679043E0
1.400005475E0,1.201870084E0,8.358541489E0,6.137871265E0
1.403975787E0,1.210508466E0,8.188361168E0,6.526325703E0
1.407946100E0,1.242590666E0,8.091280937E0,6.838347435E0
1.411916412E0,1.338004351E0,8.043742180E0,7.219983578E0
1.415888287E0,1.452284455E0,8.074934006E0,7.453465939E0
1.419858600E0,1.563653111E0,8.120145798E0,7.648928642E0
1.423828912E0,1.703464985E0,8.229887009E0,7.732725620E0
1.427799225E0,1.804921627E0,8.366106033E0,7.738261223E0
1.431769537E0,1.873462915E0,8.529544830E0,7.529601574E0
1.435739850E0,1.884533525E0,8.632591248E0,7.293150425E0
1.439710162E0,1.875473976E0,8.729240417E0,7.180296898E0
1.443680475E0,1.851857543E0,8.817643166E0,7.150695324E0
1.447652350E0,1.811136961E0,8.829394341E0,7.143158436E0
1.451622662E0,1.796570659E0,8.821034431E0,7.097496033E0
1.455594537E0,1.731975079E0,8.840781212E0,6.935705662E0
1.459563287E0,1.695822597E0,8.848844528E0,6.701964378E0
1.463533600E0,1.668270111E0,8.807856560E0,6.420693398E0
1.467503912E0,1.628325343E0,8.727305412E0,6.133561611E0
1.471475787E0,1.582730055E0,8.656188011E0,5.723549843E0
1.475446100E0,1.527787924E0,8.623943329E0,5.388381004E0
1.479416412E0,1.441606283E0,8.657213211E0,5.115633488E0
1.483386725E0,1.309628248E0,8.741852760E0,5.079097748E0
1.487357037E0,1.237955570E0,8.773686409E0,5.113612652E0
1.491327350E0,1.257176161E0,8.695079803E0,5.088675022E0
1.495297662E0,1.354648948E0,8.522649765E0,4.993700981E0
1.499267975E0,1.602831841E0,8.245593071E0,4.878549576E0
1.503238287E0,1.940682530E0,7.975899696E0,4.958181381E0
1.507210162E0,2.239210606E0,7.741019249E0,5.230401993E0
1.511180475E0,2.540880203E0,7.439215660E0,5.785119057E0
1.515150787E0,2.771058559E0,7.095025539E0,6.446895599E0
1.519121100E0,2.969681740E0,6.773225307E0,7.076120377E0
1.523092975E0,3.244220018E0,6.406902790E0,7.908277988E0
1.527061725E0,3.461354733E0,6.126857758E0,8.572352409E0
1.531033600E0,3.666806221E0,5.908755779E0,9.205466270E0
1.535003912E0,3.738469124E0,5.846333981E0,9.620553970E0
1.538974225E0,3.641820431E0,5.836211205E0,9.746862411E0
1.542944537E0,3.464582205E0,5.918888092E0,9.742245674E0
1.546914850E0,3.242601395E0,6.073831081E0,9.617298126E0
1.550885162E0,3.008764744E0,6.243110657E0,9.405631065E0
1.554857037E0,2.742309093E0,6.400525093E0,9.114304543E0
1.558825787E0,2.525260210E0,6.514996052E0,8.802618027E0
1.562796100E0,2.275353432E0,6.643689632E0,8.322848320E0
1.566767975E0,2.025504351E0,6.789439201E0,7.924778938E0
1.570738287E0,1.716901302E0,6.961821079E0,7.494359016E0
1.574708600E0,1.359083056E0,7.140648842E0,7.155301571E0
1.578678912E0,1.060880423E0,7.312983990E0,6.837265491E0
1.582649225E0,7.115759254E-1,7.505908489E0,6.278276920E0
1.586621100E0,3.581342697E-1,7.648507118E0,5.578317165E0
1.590591412E0,5.296931788E-2,7.862127304E0,5.194795609E0
1.594561725E0,-1.016194969E-1,8.152792931E0,5.187258244E0
1.598532037E0,-2.477998883E-1,8.412937164E0,4.940693855E0
1.602502350E0,-4.648677707E-1,8.637475967E0,4.367550850E0
1.606472662E0,-6.243311763E-1,8.733770370E0,3.836823225E0
1.610444537E0,-7.471824884E-1,8.773093224E0,3.390093803E0
1.614414850E0,-7.670160532E-1,8.775008202E0,3.167145729E0
1.618383600E0,-7.145447135E-1,8.746498108E0,3.093155384E0
1.622355475E0,-5.643995404E-1,8.709503174E0,3.199658871E0
1.626325787E0,-4.229596853E-1,8.626394272E0,3.203336477E0
1.630296100E0,-2.517072260E-1,8.402096748E0,3.198366165E0
1.634266412E0,-3.636313602E-2,8.114706039E0,3.387249470E0
1.638236725E0,1.703905463E-1,7.860873222E0,3.637625456E0
1.642207037E0,4.073590338E-1,7.612747669E0,3.963438034E0
1.646178912E0,5.882840753E-1,7.450688362E0,4.269637108E0
1.650149225E0,6.728855968E-1,7.332079887E0,4.485651970E0
1.654119537E0,7.261613607E-1,7.211077213E0,4.817574024E0
1.658089850E0,7.635492682E-1,7.138130188E0,5.102589607E0
1.662060162E0,7.907474041E-1,7.073343277E0,5.382768631E0
1.666030475E0,8.074588776E-1,7.055118561E0,5.604816437E0
1.670002350E0,7.844841480E-1,7.075641632E0,5.691257000E0
1.673972662E0,7.520378828E-1,7.150647640E0,5.792819023E0
1.677941412E0,7.011946440E-1,7.242450714E0,5.906495571E0
1.681913287E0,6.171485782E-1,7.357429504E0,6.020038128E0
1.685883600E0,5.443552732E-1,7.523980141E0,6.016178608E0
1.689853912E0,5.068621039E-1,7.665017605E0,5.936557293E0
1.693825787E0,4.653466046E-1,7.871369362E0,5.781815052E0
1.697794537E0,4.368077517E-1,8.083083153E0,5.576699257E0
1.701764850E0,4.794053733E-1,8.283823013E0,5.285152435E0
1.705736725E0,5.519784093E-1,8.427245140E0,4.976587772E0
1.709707037E0,6.603399515E-1,8.537291527E0,4.799627304E0
1.713677350E0,7.841393352E-1,8.624383926E0,4.725071907E0
1.717647662E0,8.692101240E-1,8.677142143E0,4.768416405E0
1.721617975E0,9.645472169E-1,8.662767410E0,4.927113533E0
1.725588287E0,1.068781257E0,8.582006454E0,5.081347942E0
1.729560162E0,1.177985549E0,8.499387741E0,5.211669445E0
1.733530475E0,1.306946754E0,8.429984093E0,5.388610840E0
1.737499225E0,1.456823826E0,8.369774818E0,5.652327061E0
1.741471100E0,1.623738050E0,8.297852516E0,5.891431332E0
1.745441412E0,1.791801333E0,8.175289154E0,6.156153202E0
1.749411725E0,1.943699121E0,8.053606033E0,6.336954117E0
1.753382037E0,2.134402037E0,7.931712627E0,6.567745686E0
1.757352350E0,2.279940844E0,7.827986240E0,6.780245304E0
1.761324225E0,2.400340319E0,7.701869011E0,7.019636631E0
1.765294537E0,2.466602325E0,7.611809254E0,7.233170509E0
1.769264850E0,2.546195269E0,7.535328388E0,7.436179638E0
1.773235162E0,2.566833258E0,7.479658604E0,7.560256958E0
1.777205475E0,2.561010599E0,7.460772991E0,7.641784191E0
1.781175787E0,2.509065866E0,7.469363213E0,7.642349243E0
1.785146100E0,2.418488503E0,7.481056690E0,7.731672287E0
1.789117975E0,2.230668306E0,7.575742722E0,7.747694492E0
1.793088287E0,1.933547735E0,7.778972149E0,7.543449879E0
1.797061725E0,1.642384052E0,7.960864067E0,7.277453423E0
1.801028912E0,1.429817319E0,8.117119789E0,7.032526970E0
1.804999225E0,1.244688034E0,8.291675568E0,6.737599373E0
1.808992975E0,1.081240654E0,8.398955345E0,6.412773609E0
1.812941412E0,9.857790470E-1,8.446015358E0,6.089269161E0
1.816910162E0,8.946461082E-1,8.505956650E0,5.720360756E0
1.820882037E0,8.355476856E-1,8.586086273E0,5.485211849E0
1.824852350E0,7.933043838E-1,8.680800438E0,5.313911438E0
1.828822662E0,7.419248223E-1,8.784421921E0,5.219676018E0
1.832792975E0,6.526785493E-1,8.892936707E0,5.231359482E0
1.836763287E0,5.920478106E-1,8.929836273E0,5.290812492E0
1.840733600E0,5.855738521E-1,8.899917603E0,5.417953968E0
1.844705475E0,6.452469230E-1,8.797283173E0,5.589819431E0
1.848675787E0,7.453341484E-1,8.691038132E0,5.787551880E0
1.852646100E0,8.748317361E-1,8.534639359E0,6.013612270E0
1.856616412E0,9.932585359E-1,8.393458366E0,6.269839764E0
1.860586725E0,1.097099900E0,8.245802879E0,6.495325565E0
1.864557037E0,1.230045080E0,8.058959007E0,6.761340141E0
1.868528912E0,1.333388448E0,7.870487690E0,6.959857941E0
1.872497662E0,1.432364702E0,7.657892704E0,7.184395790E0
1.876467975E0,1.503031969E0,7.514336109E0,7.312543392E0
1.880439850E0,1.552620649E0,7.426966667E0,7.407276630E0
1.884410162E0,1.587585568E0,7.382166386E0,7.414622784E0
1.888380475E0,1.594835162E0,7.354843616E0,7.346081257E0
1.896321100E0,1.648043990E0,7.361787319E0,6.958450317E0
1.900291412E0,1.654096484E0,7.416336536E0,6.663178444E0
1.904263287E0,1.620797992E0,7.507794857E0,6.220385075E0
1.908233600E0,1.565080047E0,7.626461506E0,5.751791954E0
1.912203912E0,1.485908628E0,7.746860981E0,5.356375217E0
1.916174225E0,1.376570225E0,7.881386280E0,4.907155991E0
1.920144537E0,1.317529202E0,7.969694138E0,4.586840153E0
1.924114850E0,1.226961255E0,8.139701843E0,4.245532513E0
1.928085162E0,1.139486790E0,8.246693611E0,3.972564697E0
1.932055475E0,1.116588593E0,8.294951439E0,3.875072956E0
1.936027350E0,1.094035268E0,8.291647911E0,3.860018015E0
1.939997662E0,1.098574758E0,8.244184494E0,3.929105282E0
1.943967975E0,1.083912611E0,8.181695938E0,4.053105831E0
1.947938287E0,1.085483193E0,8.127587318E0,4.191174984E0
1.951908600E0,1.079555154E0,8.088169098E0,4.380536556E0
1.955878912E0,1.112125874E0,8.062646866E0,4.696178913E0
1.959850787E0,1.142656684E0,8.056891441E0,4.864950657E0
1.963821100E0,1.139256954E0,8.058031082E0,4.819317341E0
1.967791412E0,1.140492320E0,8.017635345E0,4.772247791E0
1.971761725E0,1.214501977E0,7.985965252E0,4.758935452E0
1.975732037E0,1.318343282E0,7.932536125E0,4.875849247E0
1.979702350E0,1.448444128E0,7.899840832E0,4.970132828E0
1.983672662E0,1.549345374E0,7.866972923E0,4.940530777E0
1.987644537E0,1.666201591E0,7.850309372E0,4.855105877E0
1.991613287E0,1.733919144E0,7.827085972E0,4.777390003E0
1.995585162E0,1.813090682E0,7.808640957E0,4.693420410E0
1.999555475E0,1.873568058E0,7.817384720E0,4.654356956E0
2.003525787E0,1.933059335E0,7.852234364E0,4.620905399E0
2.007496100E0,1.942463756E0,7.872930050E0,4.615752697E0
2.011466412E0,1.940261126E0,7.882631302E0,4.667294979E0
2.015436725E0,1.924717903E0,7.874529362E0,4.742003918E0
2.019408600E0,1.951245546E0,7.844343185E0,4.806666374E0
2.023378912E0,1.964911699E0,7.784498215E0,4.871730804E0
2.027349225E0,1.967344284E0,7.767125607E0,4.980524063E0
2.031319537E0,1.933394551E0,7.737849236E0,5.120871544E0
2.035289850E0,1.893928409E0,7.695491314E0,5.368480206E0
2.039260162E0,1.849204779E0,7.646821976E0,5.556779385E0
2.043232037E0,1.780931711E0,7.579209328E0,5.765199184E0
2.047200787E0,1.736725211E0,7.509490013E0,5.925016880E0
2.051171100E0,1.746876597E0,7.476718426E0,6.001142979E0
2.055142975E0,1.729006171E0,7.445000172E0,6.061084270E0
2.059113287E0,1.748830318E0,7.474774361E0,6.122347355E0
2.063083600E0,1.749002695E0,7.499884605E0,6.128084183E0
2.067053912E0,1.752028942E0,7.561932564E0,6.135745049E0
2.071024225E0,1.745545387E0,7.608600616E0,6.133896828E0
2.074994537E0,1.753216386E0,7.631489277E0,6.101488590E0
2.078966412E0,1.805362225E0,7.633586407E0,6.109236717E0
2.082936725E0,1.879860163E0,7.615697384E0,6.103758812E0
2.086907037E0,1.974000096E0,7.594168663E0,6.064981937E0
2.090877350E0,2.094179392E0,7.579084873E0,5.993835926E0
2.094847662E0,2.226061821E0,7.619345665E0,5.942935467E0
2.098819537E0,2.341558218E0,7.684084892E0,5.839410305E0
2.102789850E0,2.413623571E0,7.761369705E0,5.704127789E0
2.106760162E0,2.490582705E0,7.838319302E0,5.523356438E0
2.110730475E0,2.542287827E0,7.878159046E0,5.405916214E0
2.114700787E0,2.640967369E0,7.888971329E0,5.296606541E0
2.118671100E0,2.707784653E0,7.933465004E0,5.323248863E0
2.122641412E0,2.702996254E0,7.981339455E0,5.424303055E0
2.126611725E0,2.625950813E0,8.060884476E0,5.606195927E0
2.130582037E0,2.518738508E0,8.109113693E0,5.759396076E0
2.134553912E0,2.399392366E0,8.142268181E0,5.874576092E0
2.138524225E0,2.309399128E0,8.172818184E0,5.874384880E0
2.142494537E0,2.231012821E0,8.172808647E0,5.849705219E0
2.146464850E0,2.156764030E0,8.220472336E0,5.785214901E0
2.150435162E0,2.096621513E0,8.224772453E0,5.764270306E0
2.154405475E0,2.052884340E0,8.213883400E0,5.828693867E0
2.158375787E0,2.030321360E0,8.157629013E0,5.973973751E0
2.162347662E0,2.018398285E0,8.072932243E0,6.155703068E0
2.166324225E0,2.043259621E0,7.981693745E0,6.305072784E0
2.170288287E0,2.068379641E0,7.902263641E0,6.389358521E0
2.174258600E0,2.101639986E0,7.842839718E0,6.413271427E0
2.178228912E0,2.138395548E0,7.829144955E0,6.408760548E0
2.182199225E0,2.146344423E0,7.877009869E0,6.338112831E0
2.186169537E0,2.155404091E0,7.903844357E0,6.191175938E0
2.190139850E0,2.117451191E0,7.964934349E0,6.043654919E0
2.194111725E0,2.056877851E0,7.983063698E0,5.926894188E0
2.198082037E0,1.994954228E0,7.989700317E0,5.789227486E0
2.202052350E0,1.910122752E0,8.020461082E0,5.686047077E0
2.206022662E0,1.828030467E0,8.072434425E0,5.651876926E0
2.209992975E0,1.715886116E0,8.110358238E0,5.681239605E0
2.213963287E0,1.617618442E0,8.147640228E0,5.700364113E0
2.217935162E0,1.500369668E0,8.166420937E0,5.627628326E0
2.221905475E0,1.424530864E0,8.179033279E0,5.508167267E0
2.225874225E0,1.370508075E0,8.178267479E0,5.366401672E0
2.229846100E0,1.329318285E0,8.167636871E0,5.287441254E0
2.233816412E0,1.331358194E0,8.155915260E0,5.267081261E0
2.237786725E0,1.314541221E0,8.157945633E0,5.237297058E0
2.241757037E0,1.279327273E0,8.202219009E0,5.213106155E0
2.245727350E0,1.226894259E0,8.260331154E0,5.198683739E0
2.249699225E0,1.122133613E0,8.323940277E0,5.092591286E0
2.253669537E0,1.087791085E0,8.376210213E0,4.980006218E0
2.257639850E0,1.085253239E0,8.412122726E0,4.838326931E0
2.261610162E0,1.103937626E0,8.443880081E0,4.727015972E0
2.265580475E0,1.163016915E0,8.466874123E0,4.693813324E0
2.269550787E0,1.226137638E0,8.457842827E0,4.664594173E0
2.273522662E0,1.254609585E0,8.419104576E0,4.665945053E0
2.277492975E0,1.311016917E0,8.311203003E0,4.705621719E0
2.281463287E0,1.372806549E0,8.252564430E0,4.782351017E0
2.285441412E0,1.434557796E0,8.200218201E0,4.925323009E0
2.289403912E0,1.477959871E0,8.164179802E0,5.082439899E0
2.293374225E0,1.498674393E0,8.172588348E0,5.187794209E0
2.297344537E0,1.497170925E0,8.165348053E0,5.276140690E0
2.301314850E0,1.480804205E0,8.195515633E0,5.348148346E0
2.305285162E0,1.483322859E0,8.185871124E0,5.437729836E0
2.309257037E0,1.490783215E0,8.194183350E0,5.548696518E0
2.313227350E0,1.537364721E0,8.204105377E0,5.616289616E0
2.317197662E0,1.572310567E0,8.211949348E0,5.664892197E0
2.321167975E0,1.608271480E0,8.230652809E0,5.660122395E0
2.325138287E0,1.647680044E0,8.223173141E0,5.615944862E0
2.329108600E0,1.676707268E0,8.229723930E0,5.496704102E0
2.333080475E0,1.687768579E0,8.223834038E0,5.370510101E0
2.337050787E0,1.686916232E0,8.239673615E0,5.213172913E0
2.341021100E0,1.693256140E0,8.264756203E0,5.028963566E0
2.344991412E0,1.684435844E0,8.305246353E0,4.917115688E0
2.348961725E0,1.630777001E0,8.350889206E0,4.685098171E0
2.352932037E0,1.587920785E0,8.463369370E0,4.463845253E0
2.356902350E0,1.480986118E0,8.508264542E0,4.148385048E0
2.360872662E0,1.441385984E0,8.558869362E0,3.813771725E0
2.364842975E0,1.502160430E0,8.614539146E0,3.740221977E0
2.368814850E0,1.612111807E0,8.686767578E0,3.854703188E0
2.372785162E0,1.683794141E0,8.692992210E0,4.016168118E0
2.376755475E0,1.691321492E0,8.683472633E0,4.124721050E0
2.380725787E0,1.714305878E0,8.653526306E0,4.237267494E0
2.384696100E0,1.736169696E0,8.639131546E0,4.329291344E0
2.388666412E0,1.803772449E0,8.653028488E0,4.425471306E0
2.392638287E0,1.877829790E0,8.655632973E0,4.487298965E0
2.396608600E0,1.967190981E0,8.643020630E0,4.524361134E0
2.400577350E0,2.062643051E0,8.590634346E0,4.595114708E0
2.404549225E0,2.180907011E0,8.521394730E0,4.767650604E0
2.408519537E0,2.261543751E0,8.479554176E0,5.004245758E0
2.412489850E0,2.321666956E0,8.416049957E0,5.205569267E0
2.416461725E0,2.374300957E0,8.353341103E0,5.411556721E0
2.420430475E0,2.416247606E0,8.266776085E0,5.536993504E0
2.424402350E0,2.458127022E0,8.230441093E0,5.586831570E0
2.428372662E0,2.502553701E0,8.172962189E0,5.560839653E0
2.432342975E0,2.551845551E0,8.157438278E0,5.510906219E0
2.436313287E0,2.607620955E0,8.098587990E0,5.422023773E0
2.440283600E0,2.641925097E0,8.098435402E0,5.309620857E0
2.444253912E0,2.667159796E0,8.096261024E0,5.216448307E0
2.448225787E0,2.671172619E0,8.091559410E0,5.208863258E0
2.452196100E0,2.729380369E0,8.111459732E0,5.271295071E0
2.456166412E0,2.735500097E0,8.101442337E0,5.360732555E0
2.460136725E0,2.772897482E0,8.042353630E0,5.463079929E0
2.464107037E0,2.777465582E0,8.007349968E0,5.489377975E0
2.468077350E0,2.768645287E0,7.994105339E0,5.502402306E0
2.472047662E0,2.767687559E0,8.004601479E0,5.565197468E0
2.476017975E0,2.853898048E0,8.094785690E0,5.704271793E0
2.479989850E0,2.711941004E0,8.070240974E0,5.659605503E0
2.483960162E0,2.458940983E0,7.997323036E0,5.564488888E0
2.487930475E0,2.221579790E0,8.001565933E0,5.599051476E0
2.491900787E0,2.177698612E0,8.111995697E0,5.564306736E0
2.495871100E0,2.167710304E0,8.210502625E0,5.383410454E0
2.499841412E0,2.127669573E0,8.323623657E0,5.017203331E0
2.503811725E0,2.082265854E0,8.390996933E0,4.662181377E0
2.507783600E0,2.019020796E0,8.486008644E0,4.289930820E0
2.511753912E0,1.995567083E0,8.585761070E0,3.933711767E0
2.515724225E0,2.006436825E0,8.631873131E0,3.819623232E0
2.519694537E0,2.001859188E0,8.618514061E0,3.878108740E0
2.523664850E0,2.004569292E0,8.583921432E0,3.906417608E0
2.527635162E0,2.026203394E0,8.583117485E0,3.859299898E0
2.531605475E0,2.069950104E0,8.597511292E0,3.819623232E0
2.535575787E0,2.104378939E0,8.621337891E0,3.870140791E0
2.539547662E0,2.178685188E0,8.599110603E0,4.010517597E0
2.543517975E0,2.295809507E0,8.524124146E0,4.241337776E0
2.547488287E0,2.392085314E0,8.397346497E0,4.526592731E0
2.551458600E0,2.465156317E0,8.258693695E0,4.928990841E0
2.555428912E0,2.548752308E0,8.129358292E0,5.343465328E0
2.559399225E0,2.641321421E0,7.957684517E0,5.796697140E0
2.563369537E0,2.746886730E0,7.816062927E0,6.181282520E0
2.567341412E0,2.796667099E0,7.734104633E0,6.442298889E0
2.571311725E0,2.805832148E0,7.683596611E0,6.634399891E0
2.575282037E0,2.776996374E0,7.689812183E0,6.697989941E0
2.579252350E0,2.666623592E0,7.714845657E0,6.689945221E0
2.583222662E0,2.575318336E0,7.732543468E0,6.568808556E0
2.587192975E0,2.519744158E0,7.784650803E0,6.369888783E0
2.591164850E0,2.458730221E0,7.884134769E0,6.064512730E0
2.595135162E0,2.401058674E0,7.977049351E0,5.767095566E0
2.599105475E0,2.379501104E0,8.050196648E0,5.427444458E0
2.603075787E0,2.328064203E0,8.088379860E0,4.921444416E0
2.607046100E0,2.271790981E0,8.144834518E0,4.551549911E0
2.611016412E0,2.274290562E0,8.216670036E0,4.197524071E0
2.614988287E0,2.300540447E0,8.292586327E0,3.943614006E0
2.618957037E0,2.385199547E0,8.375970840E0,3.607525587E0
2.622928912E0,2.438714504E0,8.420043945E0,3.360060930E0
2.626899225E0,2.466142654E0,8.462976456E0,3.246317148E0
2.630869537E0,2.488590717E0,8.478758812E0,3.181549311E0
2.634839850E0,2.484491825E0,8.508351326E0,3.147628069E0
2.638810162E0,2.595994711E0,8.536151886E0,3.191049576E0
2.642780475E0,2.732866287E0,8.523894310E0,3.209321976E0
2.646750787E0,2.814623594E0,8.492396355E0,3.217050552E0
2.650721100E0,2.902912140E0,8.412746429E0,3.369369745E0
2.654691412E0,3.006245852E0,8.330902100E0,3.539434671E0
2.658663287E0,3.147618771E0,8.218231201E0,3.590747118E0
2.662633600E0,3.277537584E0,8.051863670E0,3.181961298E0
2.666603912E0,3.382355690E0,7.834277630E0,2.694425106E0
2.670574225E0,3.503205538E0,7.508043766E0,2.104359627E0
2.674544537E0,3.608492851E0,7.325826168E0,2.010076046E0
2.678514850E0,3.548925400E0,7.406960964E0,3.019538641E0
2.682486725E0,3.516048193E0,7.376162052E0,4.014626026E0
2.686457037E0,3.527348518E0,7.179980755E0,4.293904781E0
2.690427350E0,3.733633041E0,6.826462746E0,4.070707798E0
2.694397662E0,4.091757774E0,6.576632977E0,3.945040941E0
2.698367975E0,4.505523205E0,6.489359379E0,4.179050446E0
2.702338287E0,4.610131264E0,6.655363560E0,4.625290871E0
2.706310162E0,4.353175640E0,6.946594238E0,5.020487785E0
2.710278912E0,3.736084700E0,7.323297977E0,5.447144032E0
2.714260162E0,3.063582182E0,7.707720757E0,5.999793053E0
2.718221100E0,2.575471401E0,7.986577988E0,6.551234722E0
2.722191412E0,2.144314051E0,8.250811577E0,7.081196308E0
2.726161725E0,1.820761681E0,8.457546234E0,7.393266201E0
2.730132037E0,1.504516363E0,8.715976715E0,7.505333900E0
2.734102350E0,1.228752255E0,8.998587608E0,7.483077526E0
2.738072662E0,1.043871999E0,9.238994598E0,7.439847469E0
2.742044537E0,9.477878213E-1,9.441294670E0,7.304508209E0
2.746014850E0,1.005679607E0,9.596640587E0,7.079041481E0
2.749985162E0,1.134602666E0,9.782957077E0,6.805996895E0
2.753955475E0,1.263841629E0,9.976016045E0,6.633346558E0
2.757925787E0,1.436348677E0,1.011804962E1,6.490057945E0
2.761897662E0,1.658434868E0,1.019250011E1,6.430298805E0
2.765867975E0,1.797499657E0,1.024510574E1,6.461098194E0
2.769838287E0,1.926039577E0,1.027494621E1,6.433124065E0
2.773808600E0,2.042014599E0,1.033939838E1,6.278152466E0
2.777778912E0,2.097617626E0,1.042046547E1,6.147228241E0
2.781749225E0,2.154599667E0,1.052968979E1,6.113728046E0
2.785719537E0,2.127631426E0,1.068010235E1,6.113708973E0
2.789689850E0,2.042282820E0,1.085431480E1,6.068669319E0
2.793660162E0,1.905037642E0,1.103077602E1,6.006037235E0
2.797632037E0,1.801857114E0,1.113140011E1,5.939698219E0
2.801602350E0,1.756405473E0,1.124467468E1,5.781173229E0
2.805572662E0,1.700812101E0,1.138775158E1,5.634054661E0
2.809542975E0,1.678373694E0,1.154235077E1,5.569190979E0
2.813513287E0,1.681055188E0,1.154277229E1,5.607028961E0
2.817483600E0,1.592067480E0,1.150692558E1,5.739092827E0
2.821453912E0,1.423065543E0,1.158880806E1,5.847339630E0
2.825425787E0,1.276664972E0,1.170437145E1,6.029854298E0
2.829396100E0,1.241613865E0,1.185541630E1,6.251825809E0
2.833366412E0,1.400675058E0,1.187507725E1,6.358702660E0
2.837336725E0,1.544528246E0,1.178133011E1,6.292785645E0
2.841307037E0,1.716001034E0,1.161795998E1,6.094172478E0
2.845277350E0,1.903850079E0,1.145132351E1,5.921875954E0
2.849247662E0,2.262913227E0,1.128927422E1,5.777773857E0
2.853217975E0,2.606261015E0,1.114665604E1,5.571728706E0
2.857189850E0,2.688535452E0,1.096000385E1,5.373067379E0
2.861160162E0,2.589884520E0,1.081786537E1,5.216707230E0
2.865130475E0,2.378582001E0,1.083109093E1,5.210635185E0
2.869100787E0,2.176013470E0,1.089842510E1,5.071790695E0
2.873071100E0,2.035962105E0,1.091651535E1,4.650554657E0
2.877041412E0,2.014969826E0,1.082348633E1,4.144899368E0
2.881013287E0,1.882436275E0,1.085760975E1,3.785290241E0
2.884983600E0,1.606097579E0,1.095202637E1,3.811980963E0
2.888953912E0,1.245693564E0,1.108285522E1,4.035474777E0
2.892924225E0,8.943014145E-1,1.122207355E1,4.397956848E0
2.896894537E0,6.640462279E-1,1.140419579E1,4.587664127E0
2.900864850E0,4.318756759E-1,1.187518215E1,4.746361256E0
2.904836725E0,1.771709323E-2,1.256499958E1,4.778366566E0
2.908805475E0,2.396308631E-1,1.259041691E1,4.857566833E0
2.912777350E0,7.518367767E-1,1.250118065E1,4.884430408E0
2.916747662E0,2.559832573E0,1.282587337E1,3.893613577E0
2.920717975E0,5.036002159E0,1.456678295E1,3.060393095E0
2.924688287E0,5.646466255E0,1.414890862E1,3.232919216E0
2.928658600E0,5.374283791E0,1.440999126E1,4.079863071E0
2.932628912E0,4.945204735E0,1.449651718E1,4.475098133E0
2.936600787E0,5.212426186E0,1.337750626E1,4.719354630E0
2.940571100E0,5.310482979E0,1.213756847E1,5.139872074E0
2.944541412E0,5.106947422E0,1.107736778E1,5.287249565E0
2.948511725E0,4.759730339E0,1.040236664E1,5.117261410E0
2.952482037E0,4.327558041E0,9.813076019E0,4.706914425E0
2.956452350E0,3.976328373E0,9.385308266E0,4.324167252E0
2.960422662E0,3.651195765E0,8.933015823E0,3.972785234E0
2.964394537E0,3.375671148E0,8.507556915E0,3.854137897E0
2.968363287E0,3.182909250E0,8.225547791E0,3.887733459E0
2.972335162E0,3.019413948E0,7.951900482E0,4.047014713E0
2.976305475E0,2.903074980E0,7.725504875E0,4.174396038E0
2.980275787E0,2.904367685E0,7.529582500E0,4.204629898E0
2.984246100E0,3.014232874E0,7.259727001E0,3.969758749E0
2.988216412E0,3.211754560E0,6.988693714E0,3.579082489E0
2.992186725E0,3.395303726E0,6.694034576E0,3.165201664E0
2.996158600E0,3.529474497E0,6.413003445E0,2.837990999E0
3.000128912E0,3.671853065E0,6.084643364E0,2.639262676E0
3.004099225E0,3.891755581E0,5.559164047E0,2.428582430E0
3.008069537E0,4.134307384E0,4.877879620E0,2.221809626E0
3.012039850E0,4.347487450E0,4.230889797E0,2.143481016E0
3.016010162E0,4.552803993E0,3.431839228E0,2.174663067E0
3.019982037E0,4.701225758E0,2.784868479E0,2.235312939E0
3.023952350E0,4.866971493E0,2.044188499E0,2.282181978E0
3.027921100E0,4.972977161E0,1.377968431E0,2.223188639E0
3.031892975E0,5.045895100E0,6.612114906E-1,1.977285028E0
3.035863287E0,5.108986855E0,-3.273352608E-2,1.575356007E0
3.039833600E0,5.205416203E0,-7.122079730E-1,1.001839399E0
3.043803912E0,5.264112473E0,-1.298222423E0,5.108076930E-1
3.047774225E0,5.343925476E0,-1.898324251E0,-1.342668384E-2
3.051744537E0,5.428516865E0,-2.585431337E0,-6.600047946E-1
3.055716412E0,5.440191269E0,-3.259370327E0,-1.189247966E0
3.059686725E0,5.319897175E0,-3.763512611E0,-1.581025481E0
3.063657037E0,4.906773090E0,-4.167817116E0,-1.721162796E0
3.067627350E0,4.203777790E0,-4.136596203E0,-1.149551988E0
3.071597662E0,3.021023035E0,-3.454114676E0,-1.128913984E-1
3.075567975E0,1.740718722E0,-2.354773998E0,9.197373390E-1
3.079539850E0,8.437741995E-1,-1.324970365E0,1.659651041E0
3.083510162E0,3.420835361E-2,-1.752268374E-1,2.250664473E0
3.087480475E0,-5.205377936E-1,7.196491957E-1,2.618385315E0
3.091450787E0,-9.953558445E-1,1.617110848E0,3.057117939E0
3.095421100E0,-1.288396597E0,2.314398289E0,3.563472509E0
3.099391412E0,-1.423937082E0,2.747183561E0,4.068150997E0
3.103361725E0,-1.364905596E0,3.002261877E0,4.684772968E0
3.107332037E0,-1.223082781E0,3.016215324E0,5.142860413E0
3.111303912E0,-9.412373304E-1,2.830588102E0,5.441570282E0
3.115274225E0,-6.616998911E-1,2.560330629E0,5.595737934E0
3.119244537E0,-4.782370031E-1,2.213190317E0,5.603753567E0
3.123214850E0,-3.968532979E-1,1.924622178E0,5.415243626E0
3.127185162E0,-3.478200436E-1,1.514935970E0,5.148778915E0
3.131155475E0,-2.211476266E-1,1.064423800E0,4.886671066E0
3.135125787E0,9.604579210E-2,3.458663523E-1,4.488429070E0
3.139097662E0,4.721653163E-1,-4.067844450E-1,4.289518833E0
3.143066412E0,9.367936254E-1,-1.329337358E0,4.250119686E0
3.147038287E0,1.145778656E0,-2.163994312E0,4.317712784E0
3.151008600E0,1.016530156E0,-2.618174553E0,4.415606976E0
3.154978912E0,5.381016135E-1,-2.710111856E0,4.587865353E0
3.158949225E0,6.629065424E-2,-2.411985874E0,4.719517708E0
3.162919537E0,-4.842895567E-1,-1.761299372E0,4.686506271E0
3.166889850E0,-1.059520364E0,-9.086474180E-1,4.525491238E0
3.170861725E0,-1.528697729E0,-1.401086897E-1,4.386340141E0
3.174832037E0,-1.904233098E0,6.306710243E-1,4.348425865E0
3.178802350E0,-2.034994841E0,1.102893829E0,4.408625603E0
3.182772662E0,-2.007662535E0,1.396001577E0,4.765112877E0
3.186742975E0,-1.945556998E0,1.512637496E0,5.428220272E0
3.190713287E0,-1.924871087E0,1.567254066E0,5.986538410E0
3.194685162E0,-2.017765999E0,1.619150758E0,6.520091534E0
3.198655475E0,-2.290801048E0,1.670434594E0,7.017549038E0
3.202625787E0,-2.711797476E0,1.775405884E0,7.307343006E0
3.206596100E0,-3.275038004E0,1.956455469E0,7.372752666E0
3.210566412E0,-3.727082491E0,2.072890043E0,7.267532349E0
3.214536725E0,-4.229280949E0,2.117556334E0,7.221946716E0
3.218508600E0,-4.580462456E0,2.046075106E0,7.166401386E0
3.222478912E0,-4.838326931E0,1.849137664E0,6.953470230E0
3.226447662E0,-5.099802971E0,1.666852832E0,6.727898598E0
3.230419537E0,-5.617208958E0,1.661394000E0,6.769059658E0
3.234389850E0,-6.072978973E0,1.765149117E0,7.102495193E0
3.238358600E0,-6.340133190E0,1.947826743E0,7.653583050E0
3.242330475E0,-6.315329552E0,2.097713470E0,8.023583412E0
3.246300787E0,-6.178495884E0,2.199064732E0,8.307497025E0
3.250272662E0,-5.954399109E0,2.217940569E0,8.492233276E0
3.254242975E0,-5.661683559E0,2.142283678E0,8.588212013E0
3.258213287E0,-5.492768288E0,2.005708933E0,8.666913986E0
3.262183600E0,-5.556654930E0,1.907221079E0,8.750500679E0
3.266153912E0,-5.817287445E0,1.851273298E0,8.892649651E0
3.270124225E0,-6.157982349E0,1.885529637E0,9.048952103E0
3.274094537E0,-6.671548367E0,2.025619030E0,9.137241364E0
3.278064850E0,-7.355188847E0,2.327623844E0,9.078017235E0
3.282035162E0,-8.069924355E0,2.644702196E0,8.940523148E0
3.286007037E0,-8.986837387E0,3.052712440E0,8.751947403E0
3.289977350E0,-9.727918625E0,3.382384539E0,8.655786514E0
3.293947662E0,-1.035267162E1,3.710007191E0,8.556446075E0
3.297917975E0,-1.060953140E1,3.931317329E0,8.213471413E0
3.301888287E0,-1.064173794E1,4.040656090E0,7.684554100E0
3.305858600E0,-1.053985023E1,4.083598614E0,6.902895451E0
3.309828912E0,-1.037343502E1,4.135925770E0,6.249498367E0
3.313800787E0,-1.012706184E1,4.219665527E0,5.612861156E0
3.317771100E0,-9.767212868E0,4.239805698E0,5.128581047E0
3.321741412E0,-9.318434715E0,4.063563824E0,4.825790882E0
3.325711725E0,-8.815546989E0,3.814547539E0,4.693544865E0
3.329682037E0,-8.507365227E0,3.597268820E0,4.786056995E0
3.333653912E0,-8.332569122E0,3.356488705E0,4.984450340E0
3.337622662E0,-8.380787849E0,3.223926783E0,5.283036232E0
3.341594537E0,-8.653794289E0,3.231386900E0,5.646437645E0
3.345564850E0,-9.127243042E0,3.389528751E0,6.208174706E0
3.349535162E0,-9.623215675E0,3.626430273E0,6.791220188E0
3.353505475E0,-1.023326874E1,3.963715792E0,7.519823551E0
3.357475787E0,-1.067948055E1,4.133627415E0,8.190180779E0
3.361446100E0,-1.095392323E1,4.150789261E0,8.608390808E0
3.365416412E0,-1.115282345E1,4.110835075E0,8.846000671E0
3.369388287E0,-1.127137470E1,4.133627415E0,8.871849060E0
3.373358600E0,-1.171188831E1,4.147552013E0,8.963278770E0
3.377328912E0,-1.225704861E1,4.216955662E0,9.003357887E0
3.381299225E0,-1.276996326E1,4.357840061E0,8.531824112E0
3.385269537E0,-1.345818138E1,4.522503376E0,7.785359859E0
3.389239850E0,-1.433808899E1,4.663033009E0,7.048520088E0
3.393211725E0,-1.508235073E1,4.799225330E0,6.393093109E0
3.397180475E0,-1.576711178E1,4.954225540E0,5.694714069E0
3.401150787E0,-1.625977135E1,5.022852898E0,5.364888668E0
3.405122662E0,-1.662464714E1,4.997580051E0,5.339807034E0
3.409092975E0,-1.669186783E1,4.901237488E0,5.434818745E0
3.413063287E0,-1.654781342E1,4.800431728E0,5.505610466E0
3.417033600E0,-1.621224213E1,4.704443455E0,5.617448330E0
3.421003912E0,-1.572546196E1,4.594310284E0,5.749282837E0
3.424975787E0,-1.524363327E1,4.485556126E0,5.901189804E0
3.428946100E0,-1.464232445E1,4.354957104E0,6.134021282E0
3.432916412E0,-1.409738445E1,4.218679428E0,6.320213795E0
3.436886725E0,-1.341951942E1,4.087946415E0,6.697549343E0
3.440857037E0,-1.282727051E1,4.007960796E0,7.272425652E0
3.444827350E0,-1.209300804E1,3.933117867E0,8.061439514E0
3.448797662E0,-1.129545116E1,3.907653332E0,8.847417831E0
3.452769537E0,-1.056777668E1,3.874584436E0,9.485951424E0
3.456738287E0,-9.719817162E0,3.760658741E0,1.022863293E1
3.460710162E0,-9.082231522E0,3.658704042E0,1.076033688E1
3.464680475E0,-8.492654800E0,3.506203175E0,1.121910477E1
3.468650787E0,-8.034921646E0,3.279002905E0,1.148965931E1
3.472621100E0,-7.834383488E0,3.021013260E0,1.157715225E1
3.476602350E0,-7.762203217E0,2.696732998E0,1.157750702E1
3.480561725E0,-7.826425076E0,2.439567089E0,1.146480751E1
3.484544537E0,-8.026676178E0,2.249275923E0,1.088401127E1
3.488503912E0,-8.309210777E0,2.106045246E0,1.046580315E1
3.492474225E0,-8.620687485E0,1.905123830E0,1.011538792E1
3.496444537E0,-9.035353661E0,1.666900635E0,9.711447716E0
3.500414850E0,-9.424057007E0,1.518192053E0,9.368032455E0
3.504385162E0,-9.909897804E0,1.472357392E0,8.893117905E0
3.508355475E0,-1.047803211E1,1.475517869E0,8.616587639E0
3.512327350E0,-1.083186626E1,1.506058216E0,8.576413155E0
3.516296100E0,-1.091075134E1,1.517100215E0,8.492884636E0
3.520267975E0,-1.079767799E1,1.477155447E0,8.177807808E0
3.524238287E0,-1.066410923E1,1.348625064E0,7.893367290E0
3.528208600E0,-1.043275261E1,1.220544934E0,7.620562077E0
3.532178912E0,-1.025645447E1,1.224950194E0,7.536123753E0
3.536149225E0,-1.000819397E1,1.248212337E0,7.521307945E0
3.540119537E0,-9.637274742E0,1.229949355E0,7.538077354E0
3.544091412E0,-9.365226746E0,1.169739842E0,7.446455479E0
3.548061725E0,-9.192709923E0,1.013082504E0,7.184213638E0
3.552032037E0,-9.186867714E0,7.992132306E-1,6.990350723E0
3.556002350E0,-9.407412529E0,6.474400163E-1,6.742292404E0
3.559972662E0,-9.674758911E0,5.088253021E-1,6.458358765E0
3.563942975E0,-9.884404182E0,3.554623425E-1,6.090619087E0
3.567914850E0,-1.002839184E1,1.056034490E-1,5.624314785E0
3.571885162E0,-1.006515694E1,-1.735700518E-1,5.209390163E0
3.575855475E0,-9.985784531E0,-5.542864203E-1,4.752116680E0
3.579825787E0,-9.711457253E0,-1.043996453E0,4.367876530E0
3.583796100E0,-9.406559944E0,-1.538245797E0,4.061657906E0
3.587766412E0,-9.021207809E0,-2.101046085E0,3.797213316E0
3.591736725E0,-8.773591042E0,-2.486723185E0,3.622139931E0
3.595716412E0,-8.538939476E0,-2.815648079E0,3.476716042E0
3.599678912E0,-8.329925537E0,-3.109656334E0,3.290858984E0
3.603649225E0,-8.139223099E0,-3.278466463E0,3.240350723E0
3.607619537E0,-8.009505272E0,-3.390639544E0,3.281531334E0
3.611589850E0,-7.972844601E0,-3.494768381E0,3.335927486E0
3.615560162E0,-7.981119156E0,-3.577837706E0,3.337967396E0
3.619530475E0,-8.023851395E0,-3.518997669E0,3.225104570E0
3.623500787E0,-8.082748413E0,-3.521114111E0,3.024029970E0
3.627472662E0,-8.344233513E0,-3.446558475E0,2.815102339E0
3.631442975E0,-8.758727074E0,-3.365787745E0,3.064760208E0
3.635413287E0,-9.321949005E0,-3.209264755E0,3.552755833E0
3.639383600E0,-9.622708321E0,-2.820111036E0,3.343761206E0
3.643353912E0,-9.650605202E0,-2.375632286E0,2.931288004E0
3.647324225E0,-9.566300392E0,-2.027036428E0,2.666087151E0
3.651294537E0,-9.489006996E0,-1.670654774E0,2.471256495E0
3.655264850E0,-9.305745125E0,-1.623680592E0,2.705514908E0
3.659236725E0,-9.076897621E0,-1.683430314E0,2.903476954E0
3.663207037E0,-9.024014473E0,-1.705926180E0,3.355396986E0
3.667177350E0,-9.096051216E0,-1.692566514E0,3.627512455E0
3.671147662E0,-9.253934860E0,-1.510980725E0,3.434089661E0
3.675117975E0,-9.369602203E0,-1.476954341E0,3.065679550E0
3.679088287E0,-9.435491562E0,-1.628832936E0,2.632903576E0
3.683060162E0,-9.557394981E0,-1.923396230E0,2.183272362E0
3.687030475E0,-9.678071976E0,-2.411823034E0,1.689923286E0
3.691000787E0,-9.710039139E0,-2.855095148E0,1.380563736E0
3.694971100E0,-9.643251419E0,-3.074988365E0,1.277948260E0
3.698941412E0,-9.472410202E0,-3.180467129E0,1.145079613E0
3.702911725E0,-9.289206505E0,-3.261534691E0,9.887574315E-1
3.706886725E0,-9.158721924E0,-3.261506081E0,9.069810510E-1
3.710852350E0,-9.047927856E0,-3.140072107E0,9.943119287E-1
3.714822662E0,-8.997027397E0,-2.909012556E0,1.116588593E0
3.718794537E0,-9.081446648E0,-2.571592808E0,1.340274215E0
3.722764850E0,-9.168010712E0,-2.252033949E0,1.646751046E0
3.726735162E0,-9.215043068E0,-1.733986259E0,2.186566830E0
3.730705475E0,-9.298877716E0,-1.174681544E0,2.509152174E0
3.734675787E0,-9.320953369E0,-7.863228917E-1,2.580231190E0
3.738646100E0,-9.122003555E0,-4.865592420E-1,2.628076792E0
3.742617975E0,-8.903960228E0,-3.369982541E-1,2.647737980E0
3.746588287E0,-8.602951050E0,-2.708799839E-1,2.640316248E0
3.750558600E0,-8.331477165E0,-1.498961747E-1,2.809059381E0
3.754528912E0,-8.332962036E0,-1.133606657E-1,2.872429132E0
3.758499225E0,-8.723177910E0,-1.385859698E-1,2.822658539E0
3.762469537E0,-9.316901207E0,-5.197333172E-2,2.811664343E0
3.766439850E0,-1.011780071E1,1.527500711E-2,2.554431200E0
3.770410162E0,-1.093621540E1,-3.297294676E-2,2.067354918E0
3.774382037E0,-1.150223351E1,-5.652231351E-2,1.623948693E0
3.778352350E0,-1.197580624E1,-2.367386669E-1,1.152070642E0
3.782322662E0,-1.226369572E1,-4.489319623E-1,6.284300685E-1
3.786292975E0,-1.240931034E1,-5.856217742E-1,1.159751266E-1
3.790263287E0,-1.245792198E1,-7.437252402E-1,-3.783988059E-1
3.794233600E0,-1.239970493E1,-8.885456920E-1,-6.033867002E-1
3.798205475E0,-1.229646683E1,-9.255504608E-1,-7.359488606E-1
3.802175787E0,-1.196616268E1,-9.740857482E-1,-6.922116280E-1
3.806146100E0,-1.177252960E1,-7.923083305E-1,-4.441435635E-1
3.810116412E0,-1.162012386E1,-4.921137989E-1,1.930492669E-1
3.814086725E0,-1.155715656E1,-3.032112718E-1,4.897674918E-1
3.818057037E0,-1.159277248E1,2.563040853E-1,1.047693133E0
3.822027350E0,-1.171152496E1,8.954793215E-1,1.518508077E0
3.825997662E0,-1.164211273E1,1.263975739E0,1.871346354E0
3.829967975E0,-1.154392052E1,1.778719425E0,2.471994162E0
3.833939850E0,-1.148653698E1,2.070132017E0,2.803131342E0
3.837910162E0,-1.124325752E1,2.089257002E0,3.093749046E0
3.841880475E0,-1.110035229E1,2.118992805E0,3.161792278E0
3.845850787E0,-1.101620960E1,2.159272909E0,3.133991003E0
3.849821100E0,-1.088068962E1,2.047722340E0,2.835730791E0
3.853791412E0,-1.059228325E1,1.743170381E0,2.382738352E0
3.857763287E0,-1.020944118E1,1.195338726E0,1.882216096E0
3.861733600E0,-9.899420738E0,4.338389337E-1,1.338397145E0
3.865703912E0,-9.829136848E0,-1.122689024E-1,7.173698545E-1
3.869674225E0,-9.849889755E0,-6.886586547E-1,-3.317310214E-1
3.873644537E0,-1.001176643E1,-1.084391356E0,-9.868229032E-1
3.877614850E0,-1.010574341E1,-1.328887343E0,-1.499210835E0
3.881586725E0,-1.029255867E1,-1.415806413E0,-1.752000213E0
3.885555475E0,-1.027169991E1,-1.446452141E0,-1.901388764E0
3.889525787E0,-1.019240475E1,-1.274414420E0,-2.100672722E0
3.893497662E0,-9.949420929E0,-1.439738750E0,-2.507179260E0
3.897467975E0,-9.303675652E0,-2.141105890E0,-2.440764189E0
3.901438287E0,-8.238879204E0,-2.773270845E0,-2.211275101E0
3.905424225E0,-7.143225193E0,-3.114607334E0,-2.080398321E0
3.909378912E0,-5.768235207E0,-3.292104006E0,-1.784283519E0
3.913350787E0,-4.995329380E0,-3.101352930E0,-1.277593851E0
3.917321100E0,-4.753065109E0,-2.884179831E0,-4.816559255E-1
3.921291412E0,-4.798018456E0,-2.591445446E0,7.709329575E-2
3.925261725E0,-4.923551083E0,-2.177076340E0,7.667478919E-1
3.929232037E0,-5.965594292E0,-1.489825606E0,2.021778822E0
3.933202350E0,-7.263931274E0,-8.394070864E-1,2.449287653E0
3.937172662E0,-7.915221214E0,-5.742636919E-1,2.439806461E0
3.941142975E0,-8.318816185E0,-3.073484600E-1,2.306257725E0
3.945113287E0,-8.323078156E0,-3.886938393E-1,2.167796373E0
3.949085162E0,-8.104257584E0,-6.535404921E-1,2.336328983E0
3.953055475E0,-7.757433414E0,-7.877019644E-1,2.308565855E0
3.957025787E0,-7.104151726E0,-8.919167519E-1,2.081499815E0
3.960996100E0,-6.250044346E0,-1.135780573E0,1.596051455E0
3.964966412E0,-5.527483940E0,-1.579157948E0,1.124987602E0
3.968936725E0,-4.738891125E0,-2.258000135E0,5.126177073E-1
3.972908600E0,-3.832408190E0,-3.065986156E0,-2.741744220E-1
3.976878912E0,-3.509152651E0,-3.787559986E0,-1.292955041E0
3.980849225E0,-3.067116022E0,-4.758657932E0,-1.642336130E0
3.984819537E0,-2.648648024E0,-5.604079247E0,-1.497209191E0
3.988789850E0,-2.989199162E0,-6.521345615E0,-1.285839558E0
3.992760162E0,-4.423766613E0,-6.914033413E0,-1.264310956E0
3.996732037E0,-5.953278542E0,-7.030448914E0,-9.628521800E-1
4.000700787E0,-8.090256691E0,-7.511865139E0,-8.024597764E-1
4.004694537E0,-9.792390823E0,-8.077960014E0,-8.983045220E-1
4.008642975E0,-1.078882790E1,-8.128429413E0,-1.027083755E0
4.012613287E0,-1.171628380E1,-7.672266960E0,-6.616232991E-1
4.016583600E0,-1.287903309E1,-6.868801594E0,-7.802607417E-1
4.020553912E0,-1.398476219E1,-5.923590183E0,-1.334432244E0
4.024524225E0,-1.415819836E1,-4.996832848E0,-1.330888748E0
4.028494537E0,-1.445691776E1,-4.200167179E0,-1.240244389E0
4.032466412E0,-1.412938118E1,-3.544088840E0,-1.038939953E0
4.036436725E0,-1.336887836E1,-3.291117430E0,-9.596534967E-1
4.040407037E0,-1.210402012E1,-3.149648905E0,-7.358626723E-1
4.044377350E0,-1.113877487E1,-3.022765875E0,-3.978492618E-1
4.048347662E0,-1.029076767E1,-3.211783171E0,-1.275151819E-1
4.052317975E0,-1.010334015E1,-3.556730270E0,5.652231351E-2
4.056289850E0,-1.015021801E1,-4.175957203E0,2.008831054E-1
4.060260162E0,-1.054397869E1,-5.040915012E0,4.577713609E-1
4.064228912E0,-1.138968658E1,-6.038320541E0,6.834009290E-1
4.068200787E0,-1.204362011E1,-6.688001633E0,4.775570333E-1
4.072171100E0,-1.257971001E1,-7.204258442E0,1.944091767E-1
4.076141412E0,-1.265825939E1,-7.471594810E0,5.675215647E-2
4.080111725E0,-1.239855576E1,-7.635683537E0,-2.437297255E-2
4.084082037E0,-1.205572414E1,-7.413138390E0,1.373026669E-1
4.088053912E0,-1.159774303E1,-6.587521553E0,3.144640326E-1
4.092024225E0,-1.111910343E1,-5.138339996E0,8.201577067E-1
4.095994537E0,-1.058789730E1,-4.398789883E0,1.239008904E0
4.099964850E0,-9.846077919E0,-3.970754862E0,1.531245232E0
4.103935162E0,-8.881262779E0,-3.730597258E0,1.389604211E0
4.107905475E0,-8.194107056E0,-3.562246561E0,1.297513723E0
4.111877350E0,-7.682236671E0,-3.441875696E0,1.356363177E0
4.115847662E0,-7.138838768E0,-3.424618244E0,1.525058627E0
4.119817975E0,-6.864741325E0,-3.605514765E0,1.603032947E0
4.123788287E0,-7.019559860E0,-3.785204172E0,1.517981291E0
4.127758600E0,-7.221812725E0,-3.854885101E0,1.409763455E0
4.131728912E0,-7.609759331E0,-3.960708857E0,1.531800628E0
4.135699225E0,-7.627620220E0,-4.214522839E0,1.693840265E0
4.139669537E0,-7.638939857E0,-4.688641548E0,1.257856131E0
4.143639850E0,-7.440183163E0,-5.138943195E0,1.795938611E-1
4.147611725E0,-6.993501663E0,-5.529341698E0,-1.274299383E0
4.151582037E0,-6.895933151E0,-5.566193581E0,-3.869939804E0
4.155552350E0,-6.985495090E0,-5.683231354E0,-5.226427078E0
4.159522662E0,-7.390498638E0,-6.166390896E0,-5.573529243E0
4.163492975E0,-7.642550468E0,-6.118564606E0,-4.098471165E0
4.167463287E0,-8.106680870E0,-5.667420387E0,-2.142140150E0
4.171435162E0,-8.262879372E0,-4.987936020E0,6.218220666E-2
4.175405475E0,-8.186408043E0,-4.761291504E0,1.104780436E0
4.179374225E0,-7.808324814E0,-4.840529919E0,1.633678675E0
4.183346100E0,-7.251778126E0,-5.237028599E0,1.640487790E0
4.187316412E0,-6.848527908E0,-5.614632607E0,1.215517044E0
4.191294537E0,-6.696342945E0,-5.961648464E0,1.050403357E0
4.195257037E0,-6.300724506E0,-6.416833878E0,7.196395993E-1
4.199227350E0,-6.406500340E0,-6.744638443E0,1.062546730E0
4.203197662E0,-6.597146034E0,-7.014321327E0,1.775099516E0
4.207169537E0,-6.536908150E0,-7.283860683E0,1.730806708E0
4.211139850E0,-6.732696056E0,-7.243896484E0,1.606183767E0
4.215110162E0,-6.798364162E0,-7.383392811E0,1.271847725E0
4.219080475E0,-6.928944111E0,-7.404423237E0,1.075705171E0
4.223050787E0,-7.231015682E0,-7.343524456E0,9.548842907E-1
4.227021100E0,-7.522716045E0,-7.344932079E0,6.131646037E-1
4.230992975E0,-7.655508041E0,-7.293657780E0,3.506356180E-1
4.234961725E0,-7.726922035E0,-7.190783501E0,1.434318423E-1
4.238933600E0,-7.757644653E0,-7.082652092E0,1.622311026E-2
4.242903912E0,-7.913621902E0,-6.924778461E0,2.657276690E-1
4.246874225E0,-7.941184044E0,-6.794792652E0,2.460951954E-1
4.250844537E0,-7.697770596E0,-6.814836502E0,3.485861719E-1
4.254816412E0,-7.933474541E0,-6.576393127E0,3.347859979E-1
4.258785162E0,-8.020049095E0,-6.352468491E0,4.255645871E-1
4.262757037E0,-7.970785618E0,-6.280508518E0,3.098096848E-1
4.266727350E0,-8.097755432E0,-6.299125671E0,1.432594657E-1
4.270697662E0,-8.035639763E0,-6.404949188E0,-9.442731738E-3
4.274667975E0,-8.036703110E0,-6.520272732E0,-2.194908261E-1
4.278650787E0,-8.348457336E0,-6.552432060E0,-1.143786788E0
4.282608600E0,-8.696975708E0,-6.691697598E0,-2.049360037E0
4.286578912E0,-8.478605270E0,-7.067702770E0,-1.819832802E0
4.290550787E0,-7.762059689E0,-7.870765686E0,-7.533020377E-1
4.294521100E0,-6.944736481E0,-8.683635712E0,6.989632845E-1
4.298491412E0,-6.441532612E0,-9.023391724E0,1.421131134E0
4.302461725E0,-6.294614792E0,-9.018200874E0,1.165076017E0
4.306432037E0,-6.480874062E0,-8.755346298E0,4.371716678E-1
4.310402350E0,-6.718819141E0,-8.115386009E0,-3.838096857E-1
4.314374225E0,-6.796630859E0,-7.626116753E0,-9.094423056E-1
4.318342975E0,-6.681010246E0,-7.223095894E0,-1.089218140E0
4.322314850E0,-6.474246979E0,-6.922681332E0,-8.537914753E-1
4.326285162E0,-6.276237011E0,-6.807855129E0,-2.679782212E-1
4.330255475E0,-5.968295097E0,-6.888587475E0,1.119432971E-1
4.334225787E0,-5.416967869E0,-7.111411095E0,3.183043301E-1
4.338196100E0,-5.133924961E0,-7.331505299E0,3.867210448E-1
4.342166412E0,-5.001008511E0,-7.590778351E0,8.240842223E-1
4.346138287E0,-5.130888939E0,-7.783568859E0,1.238692880E0
4.350108600E0,-5.340458393E0,-7.826261997E0,1.467731833E0
4.354078912E0,-5.076502323E0,-7.882248402E0,1.838775635E0
4.358049225E0,-4.579830170E0,-8.123794556E0,1.813263059E0
4.362019537E0,-4.651234627E0,-8.010586739E0,1.384681821E0
4.365989850E0,-4.877391338E0,-8.087115288E0,6.293302774E-1
4.369960162E0,-5.218248844E0,-8.011343956E0,1.691934466E-1
4.373930475E0,-5.552498341E0,-7.947609901E0,-1.269118488E-1
4.377900787E0,-5.826883793E0,-7.731844902E0,-9.351369143E-1
4.381872662E0,-6.500314713E0,-7.377254009E0,-1.662140965E0
4.385842975E0,-7.203492165E0,-6.861801147E0,-2.470107317E0
4.389813287E0,-7.695088863E0,-6.609165192E0,-3.311966419E0
4.393783600E0,-8.109467506E0,-6.201365471E0,-3.836765528E0
4.397753912E0,-7.952283859E0,-5.457975388E0,-4.308509827E0
4.401724225E0,-7.658218384E0,-4.916991234E0,-3.467464924E0
4.405696100E0,-6.215443134E0,-5.411757946E0,-2.001399517E0
4.409666412E0,-4.805086613E0,-6.133178711E0,-1.185742855E0
4.413636725E0,-4.217874527E0,-6.698430538E0,-5.776729584E-1
4.417607037E0,-4.495037079E0,-7.072778225E0,1.049426496E-1
4.421577350E0,-4.677542686E0,-6.741420746E0,1.494068027E0
4.425549225E0,-4.666959763E0,-5.919673443E0,2.259436846E0
4.429519537E0,-5.003565311E0,-4.881518364E0,1.030904889E0
4.433489850E0,-5.591064453E0,-4.197820663E0,-1.923597455E-1
4.437460162E0,-5.638497829E0,-4.530433178E0,-7.849725485E-1
4.441430475E0,-4.931863785E0,-5.786220551E0,-1.641799927E0
4.445400787E0,-3.818148375E0,-7.750844955E0,-1.404591918E0
4.449371100E0,-3.515253067E0,-8.679784775E0,-1.206351995E0
4.453341412E0,-3.757182360E0,-9.303619385E0,-1.612695932E0
4.457311725E0,-3.722006798E0,-1.022786713E1,-1.575049520E0
4.461283600E0,-3.696570873E0,-1.096518517E1,-1.238645077E0
4.465253912E0,-3.797108173E0,-1.142622280E1,-1.138213038E0
4.469224225E0,-4.183896065E0,-1.161934853E1,-1.313018560E0
4.473194537E0,-4.546311378E0,-1.182931042E1,-8.814014196E-1
4.477164850E0,-5.115278721E0,-1.171141052E1,-3.741179407E-1
4.481135162E0,-5.698669434E0,-1.139822960E1,-4.154323041E-1
4.485105475E0,-5.971789837E0,-1.125774670E1,-9.185115248E-2
4.489077350E0,-6.214887619E0,-1.079654694E1,-6.239289418E-2
4.493046100E0,-5.936806202E0,-1.066228008E1,-2.738296390E-1
4.497017975E0,-6.060902119E0,-1.003831387E1,-6.117663980E-1
4.500989850E0,-6.308223724E0,-9.272570610E0,-4.387997091E-1
4.504958600E0,-6.609088421E0,-8.581230164E0,-4.691007435E-1
4.508928912E0,-6.231283188E0,-8.474391937E0,-5.134029984E-1
4.512899225E0,-5.318776131E0,-8.810757637E0,-8.082920313E-1
4.516869537E0,-4.976347923E0,-8.656427383E0,-1.162394524E0
4.520841412E0,-5.365415573E0,-8.247354507E0,-1.785183787E0
4.524811725E0,-5.415166855E0,-8.446360588E0,-1.822131157E0
4.528780475E0,-4.974739075E0,-8.819195747E0,-1.588964581E0
4.532752350E0,-4.919548512E0,-8.737112045E0,-5.728079677E-1
4.536722662E0,-4.796878815E0,-8.892314911E0,-5.026961565E-1
4.540692975E0,-4.730837345E0,-9.181562424E0,-8.042219281E-1
4.544664850E0,-5.063468456E0,-9.307191849E0,-1.067248940E0
4.548633600E0,-5.497183323E0,-9.478203773E0,-1.023779750E0
4.552605475E0,-5.695825100E0,-9.726348877E0,-1.072889686E0
4.556575787E0,-5.718742371E0,-9.872404099E0,-8.710201383E-1
4.560546100E0,-5.622313499E0,-9.466241837E0,-5.357169509E-1
4.564516412E0,-5.324388504E0,-8.999823570E0,-3.451576829E-1
4.568486725E0,-5.079988480E0,-8.841097832E0,-2.165220231E-1
4.572457037E0,-4.880129814E0,-8.955884933E0,3.711970150E-2
4.576428912E0,-4.806015015E0,-8.962128639E0,1.927428097E-1
4.580399225E0,-4.858381271E0,-8.882508278E0,2.669726610E-1
4.584369537E0,-4.528134346E0,-8.763784409E0,3.464314044E-1
4.588339850E0,-4.175842285E0,-8.525005341E0,2.928587794E-1
4.592310162E0,-4.410454750E0,-8.428739548E0,1.237993836E-1
4.596280475E0,-4.207924366E0,-8.408771515E0,1.439872831E-1
4.600250787E0,-4.112012863E0,-8.515859604E0,7.404786348E-2
4.604222662E0,-2.588572502E0,-9.031790733E0,-9.067416191E-1
4.608191412E0,-3.977937460E0,-7.815248966E0,-3.296528459E-1
4.612163287E0,-4.238378525E0,-7.299451828E0,-1.489959508E-1
4.616133600E0,-4.594463348E0,-6.616979599E0,-8.480454087E-1
4.620103912E0,-4.782542706E0,-6.312016010E0,-4.211592376E-1
4.624074225E0,-4.785472870E0,-5.972566128E0,2.325727493E-1
4.628044537E0,-5.011590958E0,-5.608494282E0,9.915346503E-1
4.632014850E0,-4.914817333E0,-5.266170979E0,1.521476984E0
4.635986725E0,-4.444021702E0,-5.060154915E0,1.551978946E0
4.639957037E0,-4.257810116E0,-4.816674232E0,1.566248417E0
4.643927350E0,-3.796150446E0,-4.584465504E0,1.462723136E0
4.647897662E0,-3.537624598E0,-4.566374302E0,1.581236243E0
4.651867975E0,-3.425403595E0,-4.723414898E0,1.315240383E0
4.655838287E0,-3.557151556E0,-4.992083073E0,4.392402470E-1
4.659810162E0,-3.711213827E0,-5.373076916E0,-9.872442484E-1
4.663780475E0,-3.848047018E0,-5.765994072E0,-2.744061470E0
4.667749225E0,-4.525759220E0,-6.042764187E0,-4.672466755E0
4.671721100E0,-4.839907169E0,-6.245064259E0,-5.765409946E0
4.675691412E0,-5.203050137E0,-6.557737827E0,-6.385862827E0
4.679661725E0,-5.456376076E0,-6.951190948E0,-6.176523209E0
4.683632037E0,-5.459536552E0,-7.424572945E0,-5.459354401E0
4.687603912E0,-5.450830936E0,-7.927124977E0,-4.448436737E0
4.691572662E0,-5.282882690E0,-8.320491791E0,-3.090924025E0
4.695544537E0,-4.963333607E0,-8.792304039E0,-1.763999820E0
4.699514850E0,-4.582741737E0,-9.283478737E0,-6.025247574E-1
4.703485162E0,-4.315979481E0,-9.772958755E0,3.614382744E-1
4.707455475E0,-4.208451271E0,-1.017538548E1,4.529925287E-1
4.711425787E0,-4.108392715E0,-1.030949974E1,-1.232918054E-1
4.715396100E0,-4.220460415E0,-1.019174290E1,-6.985897422E-1
4.719367975E0,-4.565101147E0,-9.806640625E0,-9.425014853E-1
4.723338287E0,-4.824287415E0,-9.526691437E0,-5.801342130E-1
4.727307037E0,-4.348339558E0,-9.392931938E0,1.952423602E-1
4.731278912E0,-3.467120171E0,-9.823504448E0,2.891046405E-1
4.735249225E0,-2.893287420E0,-1.012029076E1,-5.620052814E-1
4.739219537E0,-2.888997078E0,-9.957341194E0,-1.017880440E0
4.743191412E0,-2.978281498E0,-9.757051468E0,-1.092014551E0
4.747160162E0,-2.887282610E0,-9.370780945E0,-8.688653708E-1
4.751132037E0,-2.585325956E0,-8.926934242E0,-7.335067987E-1
4.755102350E0,-2.054291964E0,-8.129684448E0,-1.939207613E-1
4.759072662E0,-1.538197994E0,-7.128113270E0,9.350602627E-1
4.763042975E0,-1.021960258E0,-6.440345287E0,2.223878145E0
4.767013287E0,-2.113888562E-1,-6.353301525E0,3.896908045E0
4.770983600E0,2.227756828E-1,-6.810325623E0,4.554394245E0
4.774955475E0,2.740020156E-1,-7.379944801E0,4.290811539E0
4.778925787E0,-1.739722788E-1,-7.689208508E0,4.132181644E0
4.782896100E0,-7.766023874E-1,-7.740473270E0,4.090244770E0
4.786874225E0,-1.841514707E0,-7.684822083E0,3.815409422E0
4.790836725E0,-2.685940027E0,-7.236034393E0,3.127516747E0
4.794807037E0,-3.332566023E0,-6.700278759E0,3.208642006E0
4.798777350E0,-3.413356066E0,-6.396789551E0,2.742002726E0
4.802749225E0,-3.600726128E0,-6.164427757E0,1.537230730E0
4.806717975E0,-3.355167150E0,-6.008115292E0,1.214051843E-1
4.810689850E0,-3.252446175E0,-6.002464771E0,-9.987460375E-1
4.814660162E0,-3.489673615E0,-5.772468090E0,-2.376398325E0
4.818630475E0,-3.446989775E0,-5.646964550E0,-3.821912050E0
4.822600787E0,-3.493906498E0,-5.601646423E0,-4.637779236E0
4.826571100E0,-3.158536196E0,-5.601598740E0,-4.743191242E0
4.830541412E0,-2.936047792E0,-5.602412701E0,-4.209284306E0
4.834513287E0,-2.912546396E0,-5.823541641E0,-3.458635092E0
4.838483600E0,-2.920044899E0,-6.361547470E0,-3.297792435E0
4.842453912E0,-2.900067806E0,-7.215204716E0,-3.911800146E0
4.846424225E0,-2.414294004E0,-7.884690285E0,-3.875791311E0
4.850394537E0,-1.982217073E0,-8.206192970E0,-2.907039881E0
4.854364850E0,-1.473841786E0,-8.024052620E0,-9.783665538E-1
4.858336725E0,-1.380314708E0,-8.692618370E0,1.217059016E0
4.862307037E0,-1.805438757E0,-1.039553738E1,2.084526062E0
4.866275787E0,-2.308891535E0,-1.289245033E1,3.234911442E0
4.870247662E0,-2.875924587E0,-1.517958355E1,3.711280823E0
4.874217975E0,-3.368287325E0,-1.694619751E1,3.298127651E0
4.878188287E0,-3.446032047E0,-1.872274399E1,2.840701103E0
4.882158600E0,-3.183301687E0,-2.005995369E1,1.520653367E0
4.886128912E0,-2.532691956E0,-2.126369095E1,6.023811176E-2
4.890099225E0,-1.254370093E0,-2.284391212E1,-1.615942478E0
4.894071100E0,-1.128981113E0,-2.268580818E1,-1.406947851E0
4.898039850E0,-2.017162800E0,-2.054877090E1,5.578968525E-1
4.902011725E0,-2.747911453E0,-1.822607040E1,2.232784748E0
4.905997662E0,-3.160825253E0,-1.584372520E1,3.009961605E0
4.909952350E0,-3.484032631E0,-1.363317871E1,1.822782397E0
4.913922662E0,-3.485890627E0,-1.203848648E1,3.584981859E-1
4.917894537E0,-3.262454033E0,-1.049380589E1,-1.378226995E0
4.921864850E0,-3.116666555E0,-9.461674690E0,-2.499336004E0
4.925835162E0,-3.287191153E0,-8.519738197E0,-3.152608156E0
4.929805475E0,-3.667830706E0,-8.082384109E0,-3.072095871E0
4.933775787E0,-3.761022806E0,-8.571702003E0,-2.653828859E0
4.937746100E0,-2.921874285E0,-1.064352894E1,-1.921260595E0
4.941716412E0,-1.586848140E0,-1.337840652E1,-1.397935987E0
4.945686725E0,-1.141114831E0,-1.430364037E1,-1.542229891E0
4.949657037E0,-1.225706816E0,-1.321863651E1,-1.936909199E0
4.953628912E0,-8.928744793E-1,-1.227569389E1,-1.979075789E0
4.957599225E0,-5.155769587E-1,-1.126681614E1,-1.828451753E0
4.961569537E0,-4.767813385E-1,-1.034661961E1,-1.459629893E0
4.965539850E0,-6.487424970E-1,-9.307717323E0,-8.735579848E-1
4.969510162E0,-1.033251166E0,-8.281850815E0,-4.054723978E-1
4.973480475E0,-1.212222695E0,-7.795980453E0,-3.300837874E-1
4.977452350E0,-1.563375354E0,-7.538575172E0,-6.399700642E-1
4.981422662E0,-1.985013485E0,-7.512325287E0,-1.059989691E0
4.985392975E0,-2.447075129E0,-7.556933403E0,-1.492823124E0
4.989363287E0,-2.862287283E0,-7.674757481E0,-1.735250354E0
4.993333600E0,-3.191097498E0,-7.843299389E0,-1.767658353E0
4.997305475E0,-3.483831644E0,-8.104555130E0,-1.754700780E0
5.001274225E0,-3.585106373E0,-8.284875870E0,-1.630211949E0
5.005244537E0,-3.622513533E0,-8.340882301E0,-1.476178646E0
5.009216412E0,-3.617303371E0,-8.320511818E0,-1.143604875E0
5.013186725E0,-3.508616447E0,-8.321583748E0,-6.766301394E-1
5.017157037E0,-3.380114794E0,-8.360332489E0,1.231768876E-1
5.021127350E0,-3.117547512E0,-8.551944733E0,9.894469380E-1
5.025097662E0,-2.839820147E0,-8.727526665E0,1.958983779E0
5.029067975E0,-2.910573483E0,-8.564710617E0,2.834131479E0
5.033039850E0,-3.037169456E0,-8.356261253E0,3.680242538E0
5.037010162E0,-3.114645720E0,-8.273528099E0,4.339193821E0
5.040980475E0,-2.930311203E0,-8.567449570E0,4.635988235E0
5.044950787E0,-2.593178988E0,-9.109210014E0,4.798191071E0
5.048921100E0,-2.357896090E0,-9.756390572E0,4.807987690E0
5.052891412E0,-2.419168472E0,-1.018493366E1,4.620818615E0
5.056861725E0,-2.726459503E0,-1.047867393E1,4.210079193E0
5.060832037E0,-3.249812841E0,-1.035602379E1,3.624859571E0
5.064802350E0,-3.677397966E0,-9.973210335E0,2.872975111E0
5.068774225E0,-4.125018120E0,-9.254106522E0,1.796714306E0
5.072755475E0,-4.281991005E0,-8.618139267E0,7.206739187E-1
5.076714850E0,-4.229376316E0,-8.215866089E0,-1.939303428E-2
5.080685162E0,-4.092878342E0,-7.918448925E0,-7.348188162E-1
5.084655475E0,-4.012011528E0,-7.832066059E0,-1.230600476E0
5.088627350E0,-3.908783197E0,-7.865900993E0,-1.644701719E0
5.092597662E0,-3.830023766E0,-8.033446312E0,-2.020696640E0
5.096567975E0,-3.704778194E0,-8.293677330E0,-2.331674814E0
5.100538287E0,-3.598398924E0,-8.545480728E0,-2.508979797E0
5.104508600E0,-3.430881262E0,-8.729527473E0,-2.662639618E0
5.108478912E0,-3.276972771E0,-8.824883461E0,-2.783182859E0
5.112449225E0,-3.010354280E0,-8.975641251E0,-2.823194742E0
5.116419537E0,-2.684580088E0,-9.110281944E0,-2.686600924E0
5.120389850E0,-2.373889446E0,-9.251866341E0,-2.406096220E0
5.124361725E0,-2.155614853E0,-9.378192902E0,-2.014893055E0
5.128332037E0,-2.001571894E0,-9.486986160E0,-1.435553670E0
5.132302350E0,-1.862305880E0,-9.657874107E0,-8.342356682E-1
5.136272662E0,-1.738104224E0,-9.855903625E0,-4.343369007E-1
5.140242975E0,-1.490907669E0,-1.042629814E1,-5.453033745E-2
5.144213287E0,-1.627195239E0,-1.218961811E1,6.411480904E-1
5.148183600E0,-1.842596769E0,-1.254838467E1,7.237671614E-1
5.152155475E0,-1.577539563E0,-1.091409302E1,7.794179916E-1
5.156125787E0,-1.604268312E0,-1.026952648E1,8.847245574E-1
5.160096100E0,-1.937636971E0,-9.718916893E0,8.023353219E-1
5.164066412E0,-2.184785604E0,-9.404539108E0,8.188936114E-1
5.168036725E0,-2.219635725E0,-9.381248474E0,1.069442034E0
5.172007037E0,-2.170439720E0,-9.718648911E0,1.248250604E0
5.175977350E0,-2.212883949E0,-1.009043980E1,1.411726713E0
5.179947662E0,-2.194438934E0,-1.039877415E1,1.669936538E0
5.183919537E0,-2.098757267E0,-1.046811008E1,1.851560712E0
5.187889850E0,-2.064539194E0,-1.035206795E1,1.846877575E0
5.191860162E0,-2.079814196E0,-1.021928596E1,1.407647014E0
5.195830475E0,-2.016875505E0,-1.015110874E1,1.040922284E0
5.199800787E0,-2.247762680E0,-9.923985481E0,9.964188933E-1
5.203771100E0,-2.592269182E0,-9.712950706E0,1.091822982E0
5.207742975E0,-2.819277763E0,-9.581882477E0,1.127515793E0
5.211713287E0,-2.994236469E0,-9.482790947E0,9.700251818E-1
5.215682037E0,-3.176645994E0,-9.430511475E0,7.295611501E-1
5.219653912E0,-3.401356220E0,-9.330375671E0,4.501673877E-1
5.223624225E0,-3.540191174E0,-9.263827324E0,2.062652558E-1
5.227594537E0,-3.588295460E0,-9.223863602E0,3.250367939E-2
5.231564850E0,-3.605552673E0,-9.133027077E0,-1.547995061E-1
5.235535162E0,-3.646302223E0,-8.975680351E0,-2.624236345E-1
5.239507037E0,-3.555629015E0,-9.109180450E0,-2.225841433E-1
5.243477350E0,-3.453128338E0,-9.199633598E0,-1.753034443E-1
5.247447662E0,-3.383715630E0,-9.238869667E0,-2.071559131E-1
5.251417975E0,-3.485143661E0,-9.092000008E0,-3.980791271E-1
5.255388287E0,-3.583028078E0,-8.955338478E0,-5.410608649E-1
5.259358600E0,-3.692002773E0,-8.802800179E0,-5.874125957E-1
5.263330475E0,-3.724429607E0,-8.831683159E0,-5.785061717E-1
5.267300787E0,-3.657085657E0,-8.975661278E0,-6.464727521E-1
5.271271100E0,-3.762171984E0,-8.841126442E0,-3.902931809E-1
5.275241412E0,-3.871845484E0,-8.681117058E0,-3.226809502E-1
5.279211725E0,-3.839993238E0,-8.744821548E0,-2.007873356E-1
5.283182037E0,-3.973819256E0,-8.683510780E0,-5.684792250E-2
5.287152350E0,-4.058459282E0,-8.666665077E0,-3.973417357E-2
5.291122662E0,-4.069893837E0,-8.694610596E0,-1.567914784E-1
5.295092975E0,-4.030313015E0,-8.762011528E0,-2.143576592E-1
5.299064850E0,-4.051467896E0,-8.784048080E0,-2.244516164E-1
5.303035162E0,-4.071876049E0,-8.814206123E0,-1.921203136E-1
5.307005475E0,-4.062768936E0,-8.849918365E0,-1.319971383E-1
5.310975787E0,-4.004627705E0,-8.921734810E0,-7.832870632E-2
5.314946100E0,-3.928348541E0,-9.083514214E0,-1.089840606E-1
5.318916412E0,-3.863523245E0,-9.163031578E0,-7.746678591E-2
5.322886725E0,-3.752920628E0,-9.232721329E0,-3.189076670E-3
5.326858600E0,-3.662783861E0,-9.300688744E0,2.127966471E-2
5.330828912E0,-3.584483862E0,-9.361481667E0,1.720952243E-2
5.334799225E0,-3.495160818E0,-9.388670921E0,5.401318893E-3
5.338769537E0,-3.386636734E0,-9.395288467E0,-3.245579824E-2
5.342739850E0,-3.263813972E0,-9.444905281E0,-6.604165584E-2
5.346711725E0,-3.176119089E0,-9.444809914E0,-9.083601087E-2
5.350680475E0,-3.051793098E0,-9.449501991E0,-4.309562966E-2
5.354650787E0,-2.948095560E0,-9.478921890E0,-6.540958770E-3
5.358622662E0,-2.854396105E0,-9.509156227E0,3.021482378E-2
5.362592975E0,-2.805544615E0,-9.497653961E0,2.938164398E-2
5.366563287E0,-2.775415897E0,-9.421595573E0,7.142382860E-2
5.370533600E0,-2.735155344E0,-9.352240562E0,1.643858999E-1
5.374503912E0,-2.681563377E0,-9.349712372E0,2.027793080E-1
5.378474225E0,-2.682683945E0,-9.339205742E0,1.426178068E-1
5.382446100E0,-2.675357580E0,-9.211508751E0,2.719717324E-1
5.386416412E0,-2.696435928E0,-9.093695641E0,3.616776764E-1
5.390386725E0,-2.737300396E0,-9.123517990E0,2.586982846E-1
5.394357037E0,-2.681438923E0,-9.447136879E0,8.737878501E-2
5.398327350E0,-2.687960625E0,-9.584210396E0,-2.731305361E-1
5.402297662E0,-2.743295431E0,-9.200169563E0,2.940941453E-1
5.406269537E0,-2.850297213E0,-9.121659279E0,9.067704082E-1
5.410238287E0,-2.900987148E0,-9.233535767E0,6.186138391E-1
5.414210162E0,-2.974010229E0,-9.250830650E0,2.144630104E-1
5.418180475E0,-3.021233559E0,-9.288219452E0,1.885960549E-1
5.422150787E0,-3.026079416E0,-9.323940277E0,2.765494287E-1
5.426121100E0,-3.055212259E0,-9.384236336E0,2.822763622E-1
5.430092975E0,-3.134623051E0,-9.490318298E0,2.616287768E-1
5.434061725E0,-3.311372519E0,-9.367783546E0,2.651913464E-1
5.438033600E0,-3.377854824E0,-9.260944366E0,2.740499079E-1
5.442003912E0,-3.380584002E0,-9.277646065E0,2.761280835E-1
5.445974225E0,-3.397046566E0,-9.387252808E0,1.841715723E-1
5.449944537E0,-3.395025969E0,-9.508993149E0,1.142991856E-1
5.453914850E0,-3.467397690E0,-9.512134552E0,3.095319867E-1
5.457885162E0,-3.583870888E0,-9.500901222E0,4.940195978E-1
5.461855475E0,-3.712956905E0,-9.402576447E0,7.214974761E-1
5.465827350E0,-3.813359976E0,-9.315072060E0,7.429207563E-1
5.469796100E0,-3.897942305E0,-9.306759834E0,6.253176332E-1
5.473767975E0,-4.014108658E0,-9.284551620E0,6.175029278E-1
5.477738287E0,-4.131932735E0,-9.261039734E0,6.068726778E-1
5.481708600E0,-4.178149700E0,-9.165645599E0,6.405734420E-1
5.485678912E0,-4.249602318E0,-9.133008003E0,6.486083865E-1
5.489649225E0,-4.306450844E0,-9.180614471E0,6.748487949E-1
5.493619537E0,-4.393207073E0,-9.229848862E0,7.060309649E-1
5.497591412E0,-4.408491611E0,-9.241120338E0,7.134816647E-1
5.501569537E0,-4.406604767E0,-9.270885468E0,6.075717807E-1
5.505532037E0,-4.483305454E0,-9.097718239E0,5.219838023E-1
5.509502350E0,-4.527014256E0,-9.134415627E0,5.138627291E-1
5.513472662E0,-4.526324749E0,-9.165876389E0,6.058479548E-1
5.517442975E0,-4.424293041E0,-9.228096008E0,5.721854568E-1
5.521414850E0,-4.394748688E0,-9.560287476E0,1.474828124E-1
5.525385162E0,-4.578077793E0,-9.283967018E0,5.940493345E-1
5.529353912E0,-4.580768585E0,-9.116526604E0,9.293524623E-1
5.533325787E0,-4.520722389E0,-8.953499794E0,1.154953361E0
5.537296100E0,-4.686803341E0,-8.703631401E0,1.185694814E0
5.541266412E0,-4.729975224E0,-8.778407097E0,1.413776159E0
5.545236725E0,-4.759452820E0,-8.866313934E0,1.576639295E0
5.549207037E0,-4.766932011E0,-8.908977509E0,1.652918577E0
5.553177350E0,-4.785559177E0,-9.035344124E0,1.650035858E0
5.557149225E0,-4.811522007E0,-9.152630806E0,1.587710142E0
5.561119537E0,-4.795250893E0,-9.231850624E0,1.553329349E0
5.565089850E0,-4.765189648E0,-9.321949005E0,1.509908080E0
5.569060162E0,-4.665149689E0,-9.372227669E0,1.708598137E0
5.573030475E0,-4.487308502E0,-9.495347023E0,2.034717083E0
5.577002350E0,-4.419437885E0,-9.534688950E0,2.103574514E0
5.580972662E0,-4.300848007E0,-9.643240929E0,2.048450232E0
5.584942975E0,-4.287124634E0,-9.820085526E0,2.002874374E0
5.588913287E0,-4.252284050E0,-9.921782494E0,1.953697324E0
5.592883600E0,-4.194162369E0,-1.006222630E1,1.917295933E0
5.596853912E0,-4.106352806E0,-1.015217209E1,1.927657962E0
5.600824225E0,-4.033856392E0,-1.020282364E1,2.104828835E0
5.604794537E0,-4.073695660E0,-1.020835972E1,2.213918209E0
5.608764850E0,-4.079154968E0,-1.016845226E1,2.250789165E0
5.612736725E0,-4.078024864E0,-1.005779171E1,2.281386852E0
5.616707037E0,-4.025189400E0,-9.921897888E0,2.267174959E0
5.620677350E0,-3.931413412E0,-9.760853767E0,2.297025919E0
5.624647662E0,-3.820810795E0,-9.614443779E0,2.240331173E0
5.628617975E0,-3.737597942E0,-9.485366821E0,2.068226337E0
5.632588287E0,-3.574696302E0,-9.387827873E0,1.748504639E0
5.636558600E0,-3.497287035E0,-9.349769592E0,1.449976444E0
5.640530475E0,-3.465501785E0,-9.286380768E0,1.154752254E0
5.644500787E0,-3.390419483E0,-9.224150658E0,8.848012090E-1
5.648471100E0,-3.323764801E0,-9.220271111E0,7.826549411E-1
5.652441412E0,-3.250483036E0,-9.291628838E0,8.140094280E-1
5.656411725E0,-3.146622658E0,-9.363042831E0,9.467822909E-1
5.660382037E0,-3.063783169E0,-9.333824158E0,1.014049768E0
5.664352350E0,-2.822629690E0,-9.374707222E0,9.443880320E-1
5.668322662E0,-2.591799974E0,-9.441026688E0,8.678214550E-1
5.672294537E0,-2.320910454E0,-9.534870148E0,5.809291005E-1
5.676264850E0,-1.854586959E0,-9.647905350E0,5.314553380E-1
5.680235162E0,-1.735374928E0,-9.635283470E0,5.252590775E-1
5.684205475E0,-1.562341094E0,-9.656734467E0,3.854952157E-1
5.688175787E0,-1.451853514E0,-9.688520432E0,1.503654420E-1
5.692146100E0,-1.489231825E0,-9.727219582E0,-1.633899063E-1
5.696117975E0,-1.749606013E0,-9.646391869E0,-3.432231843E-1
5.700088287E0,-2.056456566E0,-9.513015747E0,-3.343167305E-1
5.704058600E0,-2.373190165E0,-9.371039391E0,-2.812229395E-1
5.708028912E0,-2.699337959E0,-9.233440399E0,-1.858666688E-1
5.711999225E0,-3.017354965E0,-9.079368591E0,-2.892195620E-2
5.715969537E0,-3.235437870E0,-8.953001976E0,1.287793219E-1
5.719941412E0,-3.337373495E0,-8.783453941E0,1.813943088E-1
5.723910162E0,-3.308556795E0,-8.613542557E0,2.309830040E-1
5.727880475E0,-3.337325573E0,-8.561320305E0,2.815198004E-1
5.731852350E0,-3.328361750E0,-8.574344635E0,3.966042995E-1
5.735822662E0,-3.209350824E0,-8.635511398E0,5.263317227E-1
5.739794537E0,-3.037427902E0,-8.697751999E0,6.715640426E-1
5.743763287E0,-2.857479811E0,-8.769473076E0,7.640184760E-1
5.747733600E0,-2.788632154E0,-8.800787926E0,8.472888470E-1
5.751705475E0,-2.831258535E0,-8.775496483E0,9.188275933E-1
5.755675787E0,-2.728719473E0,-8.733980179E0,9.314689040E-1
5.759646100E0,-2.785634518E0,-8.698565483E0,8.700337410E-1
5.763616412E0,-2.853677750E0,-8.615208626E0,7.540681958E-1
5.767586725E0,-2.791284800E0,-8.540318489E0,6.487041712E-1
5.771557037E0,-2.767611027E0,-8.427254677E0,5.601282716E-1
5.775527350E0,-2.769497633E0,-8.270856857E0,4.622820318E-1
5.779499225E0,-2.772255659E0,-8.198819160E0,3.869317174E-1
5.783469537E0,-2.781449556E0,-8.117971420E0,3.485000134E-1
5.787439850E0,-2.841428995E0,-8.034376144E0,3.143203855E-1
5.791410162E0,-2.862249136E0,-8.052542686E0,2.946496308E-1
5.795380475E0,-2.906656742E0,-8.104420662E0,2.994188666E-1
5.799350787E0,-2.943364620E0,-8.162187576E0,3.272586465E-1
5.803321100E0,-2.953324556E0,-8.224265099E0,3.710916638E-1
5.807291412E0,-2.951648474E0,-8.288630486E0,5.034910440E-1
5.811263287E0,-2.921883821E0,-8.313328743E0,5.925170183E-1
5.815233600E0,-2.856455088E0,-8.165856361E0,8.550939560E-1
5.819202350E0,-2.916712046E0,-8.291934967E0,7.454395294E-1
5.823174225E0,-2.918684959E0,-8.614826202E0,6.182978153E-1
5.827144537E0,-2.828615189E0,-8.713074684E0,7.524400949E-1
5.831114850E0,-2.738037825E0,-8.775094032E0,7.740166783E-1
5.835086725E0,-2.619792938E0,-8.841920853E0,9.269869924E-1
5.839057037E0,-2.574427843E0,-8.839411736E0,1.061119795E0
5.843025787E0,-2.469858408E0,-8.849448204E0,1.268208623E0
5.846997662E0,-2.373946667E0,-8.862990379E0,1.386846066E0
5.850967975E0,-2.302867651E0,-8.941385269E0,1.428696752E0
5.854938287E0,-2.168495655E0,-9.031801224E0,1.483466506E0
5.858908600E0,-2.067211151E0,-9.047850609E0,1.535698533E0
5.862878912E0,-2.042732954E0,-9.145707130E0,1.517655730E0
5.866861725E0,-2.057806969E0,-9.233833313E0,1.558634877E0
5.870821100E0,-1.986737251E0,-9.215320587E0,1.655322313E0
5.874791412E0,-1.898056030E0,-9.189271927E0,1.712342620E0
5.878761725E0,-1.855784059E0,-9.214735985E0,1.733622313E0
5.882732037E0,-1.872993588E0,-9.219409943E0,1.714650631E0
5.886702350E0,-1.887224674E0,-9.259834290E0,1.743256569E0
5.890672662E0,-1.936181426E0,-9.242681503E0,1.755102992E0
5.894644537E0,-1.977782965E0,-9.245449066E0,1.746761680E0
5.898613287E0,-2.008696795E0,-9.288305283E0,1.738506436E0
5.902583600E0,-1.989734888E0,-9.348371506E0,1.728039026E0
5.906555475E0,-1.996974826E0,-9.394176483E0,1.689262629E0
5.910525787E0,-2.017507553E0,-9.421030045E0,1.668854356E0
5.914496100E0,-2.018982410E0,-9.444598198E0,1.672541380E0
5.918466412E0,-1.985798836E0,-9.404529572E0,1.730222583E0
5.922436725E0,-1.991123557E0,-9.386544228E0,1.766298294E0
5.926408600E0,-1.972515702E0,-9.298341751E0,1.838584065E0
5.930378912E0,-1.931029081E0,-9.183947563E0,1.767476320E0
5.934349225E0,-1.864249945E0,-9.175079346E0,1.759182692E0
5.938319537E0,-1.767227292E0,-9.409519196E0,1.878710985E0
5.942289850E0,-1.765465260E0,-9.517468452E0,1.926949382E0
5.946260162E0,-1.757478118E0,-9.567364693E0,1.925656319E0
5.950232037E0,-1.722838879E0,-9.462546349E0,1.901225924E0
5.954202350E0,-1.753542066E0,-9.318731308E0,1.952911973E0
5.958172662E0,-2.003707409E0,-9.149662018E0,2.083951473E0
5.962142975E0,-2.033031702E0,-9.144873619E0,2.013466120E0
5.966113287E0,-2.044245958E0,-8.995082855E0,2.016300917E0
5.970083600E0,-2.085282803E0,-8.918899536E0,1.986153126E0
5.974053912E0,-2.173772335E0,-8.812960625E0,1.959692359E0
5.978024225E0,-2.245129108E0,-8.756994247E0,1.929630876E0
5.981994537E0,-2.342793465E0,-8.709923744E0,1.851321340E0
5.985966412E0,-2.477347612E0,-8.694457054E0,1.741331697E0
5.989936725E0,-2.620808125E0,-8.734210968E0,1.684138894E0
5.993907037E0,-2.753226519E0,-8.775160789E0,1.727043033E0
5.997877350E0,-2.737616539E0,-8.874357224E0,1.841399670E0
6.001847662E0,-2.756808281E0,-9.013278008E0,1.872869015E0
6.005817975E0,-2.881345272E0,-9.094873428E0,1.773117065E0
6.009789850E0,-3.000949860E0,-9.139749527E0,1.733085990E0
6.013760162E0,-3.140914679E0,-9.007828712E0,1.808417082E0
6.017728912E0,-3.217021704E0,-8.942458153E0,1.892099261E0
6.021700787E0,-3.246250153E0,-8.907301903E0,1.912746906E0
6.025671100E0,-3.259408712E0,-8.773466110E0,2.034008503E0
6.029641412E0,-3.261927605E0,-8.703900337E0,2.071942091E0
6.033611725E0,-3.211218357E0,-8.597520828E0,2.073062658E0
6.037582037E0,-3.175496817E0,-8.485415459E0,2.012977839E0
6.041552350E0,-3.067163706E0,-8.561492920E0,2.010353804E0
6.045524225E0,-3.144850969E0,-8.641871452E0,2.071597338E0
6.049494537E0,-3.248462439E0,-8.778963089E0,2.182209492E0
6.053464850E0,-3.304687977E0,-8.999402046E0,2.245043039E0
6.057435162E0,-3.347658873E0,-9.166957855E0,2.387909651E0
6.061405475E0,-3.417387724E0,-9.324668884E0,2.507619858E0
6.065375787E0,-3.499987841E0,-9.600135803E0,2.450599670E0
6.069347662E0,-3.666106939E0,-9.669089317E0,2.492660999E0
6.073317975E0,-3.871807098E0,-9.516568184E0,2.430919170E0
6.077288287E0,-3.827447414E0,-9.016285896E0,2.451653004E0
6.081258600E0,-3.843210936E0,-9.025307655E0,2.523536444E0
6.085228912E0,-3.714584827E0,-9.505545616E0,2.447362661E0
6.089199225E0,-3.659422398E0,-9.838244438E0,2.255472183E0
6.093169537E0,-3.626985788E0,-1.000971699E1,2.040578127E0
6.097139850E0,-3.684915781E0,-1.013809395E1,1.889331579E0
6.101111725E0,-3.767314672E0,-1.019071865E1,1.863752007E0
6.105082037E0,-3.686745167E0,-1.033674526E1,1.843544960E0
6.109052350E0,-3.441703320E0,-1.046376228E1,1.836333513E0
6.113022662E0,-3.271973372E0,-1.047142410E1,1.880291104E0
6.116992975E0,-3.089985371E0,-1.039580536E1,1.992923975E0
6.120963287E0,-2.768396139E0,-1.029676247E1,2.002357006E0
6.124933600E0,-2.624696255E0,-1.017072201E1,2.012403250E0
6.128905475E0,-2.305309772E0,-1.006806850E1,1.888977289E0
6.132875787E0,-2.077879906E0,-9.969369888E0,1.810150504E0
6.136846100E0,-1.866902709E0,-9.798317909E0,1.734627843E0
6.140816412E0,-1.708588481E0,-9.673973083E0,1.719802976E0
6.144786725E0,-1.408901453E0,-9.601456642E0,1.731659055E0
6.148757037E0,-1.175984025E0,-9.623828888E0,1.750218868E0
6.152727350E0,-1.186738729E0,-9.566205025E0,1.814306855E0
6.156697662E0,-1.145788312E0,-9.524632454E0,1.891132116E0
6.160669537E0,-1.059309840E0,-9.539926529E0,1.885050774E0
6.164639850E0,-9.956910610E-1,-9.447261810E0,1.968656301E0
6.168610162E0,-1.052740097E0,-9.316729546E0,2.052367210E0
6.172580475E0,-1.146334171E0,-9.208272934E0,2.032629490E0
6.176550787E0,-1.292878509E0,-8.988484383E0,2.019078016E0
6.180521100E0,-1.440926433E0,-8.982632637E0,1.953563213E0
6.184492975E0,-1.431004763E0,-9.294022560E0,1.800477982E0
6.188463287E0,-2.177373409E0,-8.776913643E0,1.630135417E0
6.192433600E0,-2.677771091E0,-8.438449860E0,1.526380301E0
6.196403912E0,-3.054771423E0,-8.181906700E0,1.337927699E0
6.200374225E0,-3.361612320E0,-8.029329300E0,1.148153782E0
6.204344537E0,-3.614238977E0,-7.950636387E0,9.226774573E-1
6.208316412E0,-3.855047941E0,-7.993779659E0,7.021427751E-1
6.212285162E0,-4.048154354E0,-8.082499504E0,5.463663936E-1
6.216255475E0,-4.272271156E0,-8.232539177E0,4.990091026E-1
6.220227350E0,-4.377989292E0,-8.418827057E0,5.462514758E-1
6.224197662E0,-4.418403149E0,-8.613591194E0,6.395008564E-1
6.228167975E0,-4.233226776E0,-8.903786659E0,9.652176499E-1
6.232138287E0,-4.396175861E0,-9.012972832E0,1.071855307E0
6.236108600E0,-4.582693577E0,-9.086474419E0,1.151065230E0
6.240080475E0,-4.643410683E0,-9.095496178E0,1.369933486E0
6.244050787E0,-4.672974110E0,-9.079061508E0,1.479003787E0
6.248021100E0,-4.554757595E0,-9.173594475E0,1.493129492E0
6.251991412E0,-4.487854481E0,-9.284713745E0,1.508643866E0
6.255961725E0,-4.449346066E0,-9.307076454E0,1.400856972E0
6.259932037E0,-4.255425453E0,-9.274084091E0,1.227535844E0
6.263902350E0,-4.148136139E0,-9.214927673E0,1.120812058E0
6.267874225E0,-4.074261189E0,-9.123182297E0,1.012843132E0
6.271844537E0,-4.107339382E0,-8.965921402E0,9.199193120E-1
6.275814850E0,-4.056658745E0,-8.760709763E0,7.699081898E-1
6.279785162E0,-4.023887157E0,-8.606073380E0,5.485307574E-1
6.283755475E0,-3.889198780E0,-8.487272263E0,2.718376517E-1
6.287725787E0,-3.792089939E0,-8.378279686E0,-3.779965639E-2
6.291696100E0,-3.769038677E0,-8.336590767E0,-2.154302746E-1
6.295666412E0,-3.815294504E0,-8.219064713E0,-3.161782920E-1
6.299636725E0,-3.836861610E0,-8.139031410E0,-3.667438030E-1
6.303608600E0,-3.798659563E0,-8.112120628E0,-4.531936646E-1
6.307578912E0,-3.858409166E0,-8.068018913E0,-5.991920829E-1
6.311549225E0,-3.882657766E0,-8.009380341E0,-7.968860865E-1
6.315519537E0,-3.851408720E0,-8.000215530E0,-8.884978294E-1
6.319489850E0,-3.891037464E0,-8.034270287E0,-8.447318077E-1
6.323461725E0,-3.951352358E0,-8.090093613E0,-7.396263480E-1
6.327432037E0,-4.064770222E0,-8.168498993E0,-5.263125896E-1
6.331402350E0,-4.217951298E0,-8.328862190E0,-2.639272213E-1
6.335372662E0,-4.379358768E0,-8.555412292E0,9.851660579E-2
6.339342975E0,-4.382222176E0,-8.741575241E0,3.813580275E-1
6.343313287E0,-4.410061836E0,-9.004650116E0,7.348092198E-1
6.347283600E0,-4.471899509E0,-9.182184219E0,9.077759385E-1
6.351253912E0,-4.613185883E0,-9.203637123E0,8.114427924E-1
6.355224225E0,-4.893901348E0,-9.212591171E0,6.357850432E-1
6.359196100E0,-5.034000397E0,-9.199739456E0,2.973215282E-1
6.363166412E0,-5.122336864E0,-9.033658028E0,-4.397669435E-2
6.367136725E0,-5.100865841E0,-8.960500717E0,-8.967721462E-2
6.371107037E0,-4.997302055E0,-9.123900414E0,2.506633401E-1
6.375077350E0,-5.097197533E0,-9.183650017E0,3.553282917E-1
6.379047662E0,-5.190121651E0,-9.162217140E0,2.246144265E-1
6.383019537E0,-5.231254101E0,-8.943003654E0,-2.507016361E-1
6.386989850E0,-5.280239105E0,-8.692359924E0,-6.877583861E-1
6.390958600E0,-5.361307144E0,-8.737303734E0,-8.886127472E-1
6.394930475E0,-5.475137234E0,-8.785571098E0,-1.186710000E0
6.398900787E0,-5.662583828E0,-8.963450432E0,-1.407934189E0
6.402871100E0,-6.115595818E0,-8.878590584E0,-9.577381611E-1
6.406841412E0,-5.994937420E0,-8.716981888E0,-8.270626068E-1
6.410811725E0,-5.727869034E0,-8.538776398E0,-9.804925919E-1
6.414783600E0,-5.407955647E0,-8.444301605E0,-1.215392590E0
6.418753912E0,-4.993222713E0,-8.399118423E0,-1.152252674E0
6.422724225E0,-4.801140785E0,-8.354777336E0,-8.799361587E-1
6.426694537E0,-4.700239182E0,-8.279129982E0,-6.813419461E-1
6.430664850E0,-4.566259861E0,-8.234196663E0,-7.375578284E-1
6.434635162E0,-4.473795891E0,-8.283334732E0,-6.968467236E-1
6.438605475E0,-4.385976791E0,-8.343333244E0,-4.364821315E-1
6.442577350E0,-4.377127647E0,-8.448122978E0,-2.293262184E-1
6.446546100E0,-4.539540291E0,-8.546658516E0,-1.243644133E-1
6.450517975E0,-4.552986145E0,-8.593076706E0,-3.447650373E-2
6.454488287E0,-4.489147663E0,-8.678358078E0,-3.413173929E-2
6.458458600E0,-4.399680614E0,-8.694179535E0,2.221819246E-3
6.462428912E0,-4.294115543E0,-8.784881592E0,1.361821890E-1
6.466399225E0,-4.349210739E0,-8.836663246E0,3.172700107E-1
6.470369537E0,-4.357916355E0,-8.814234734E0,3.698179722E-1
6.474341412E0,-4.361766338E0,-8.732649803E0,2.405981123E-1
6.478311725E0,-4.304094791E0,-8.629114151E0,3.964798059E-3
6.482282037E0,-4.256593704E0,-8.528654099E0,-2.308585048E-1
6.486252350E0,-4.244833469E0,-8.475081444E0,-4.413375556E-1
6.490222662E0,-4.245225906E0,-8.410917282E0,-7.333440185E-1
6.494192975E0,-4.199477673E0,-8.415772438E0,-9.547118545E-1
6.498164850E0,-4.212866306E0,-8.399827003E0,-1.001389265E0
6.502135162E0,-4.314293861E0,-8.268681526E0,-8.705891967E-1
6.506105475E0,-4.337077141E0,-8.175739288E0,-6.518166661E-1
6.510075787E0,-4.359975815E0,-8.147171021E0,-4.485297501E-1
6.514046100E0,-4.386253834E0,-8.118048668E0,-2.956264317E-1
6.518016412E0,-4.383218288E0,-8.159420013E0,-1.842673272E-1
6.521986725E0,-4.451443195E0,-8.145428658E0,-1.043297350E-1
6.525957037E0,-4.461699963E0,-8.172406197E0,-5.827486888E-2
6.529927350E0,-4.492365360E0,-8.204249382E0,-4.660074413E-2
6.533899225E0,-4.563329220E0,-8.208243370E0,-6.680780649E-2
6.537869537E0,-4.619669437E0,-8.203435898E0,-1.203996092E-1
6.541839850E0,-4.694426060E0,-8.202572823E0,-1.526447237E-1
6.545810162E0,-4.782092094E0,-8.160426140E0,-1.640028208E-1
6.549780475E0,-4.816760063E0,-8.243178368E0,-1.671631634E-1
6.553750787E0,-4.915928364E0,-8.264104843E0,-2.455397546E-1
6.557722662E0,-5.110796928E0,-8.174101830E0,-3.371897936E-1
6.561692975E0,-5.130851269E0,-8.158376694E0,-3.861464262E-1
6.565663287E0,-4.882188797E0,-8.192364693E0,-7.809789777E-1
6.569633600E0,-4.659269333E0,-8.258319855E0,-1.113313317E0
6.573603912E0,-4.456270218E0,-8.266852379E0,-1.403097987E0
6.577574225E0,-4.249209881E0,-8.324323654E0,-1.431866646E0
6.581544537E0,-4.078905582E0,-8.300611496E0,-1.378121734E0
6.585514850E0,-4.091393948E0,-8.271746635E0,-1.256046176E0
6.589486725E0,-4.141729355E0,-8.264842033E0,-1.146592736E0
6.593457037E0,-4.143280983E0,-8.342624664E0,-1.060736656E0
6.597427350E0,-4.202532768E0,-8.404605865E0,-1.071012616E0
6.601397662E0,-4.226407528E0,-8.553352356E0,-1.094562054E0
6.605367975E0,-4.284644127E0,-8.610478401E0,-1.066635966E0
6.609338287E0,-4.352505207E0,-8.670419693E0,-1.066109300E0
6.613308600E0,-4.455925465E0,-8.704771042E0,-1.003955841E0
6.617280475E0,-4.515723228E0,-8.685857773E0,-9.949631691E-1
6.621249225E0,-4.617840290E0,-8.701936722E0,-9.097391963E-1
6.625221100E0,-4.787196636E0,-8.714406013E0,-7.558590770E-1
6.629191412E0,-4.981452465E0,-8.579468727E0,-2.467464358E-1
6.633161725E0,-5.011744022E0,-8.454481125E0,-4.806695282E-1
6.637132037E0,-4.671049118E0,-8.757462502E0,-9.708104730E-1
6.641102350E0,-4.238963127E0,-9.153770447E0,-1.120831132E0
6.645074225E0,-4.109924793E0,-9.306664467E0,-9.678608179E-1
6.649044537E0,-4.109158516E0,-9.307536125E0,-7.983226180E-1
6.653014850E0,-4.083473682E0,-9.277464867E0,-6.711139083E-1
6.656985162E0,-4.058162212E0,-9.292749405E0,-6.197055578E-1
6.660961725E0,-4.127527237E0,-9.315139771E0,-6.200982928E-1
6.664925787E0,-4.198462486E0,-9.350688934E0,-4.850748181E-1
6.668896100E0,-4.251278877E0,-9.364919662E0,-5.006754398E-1
6.672867975E0,-4.261583328E0,-9.385797501E0,-6.114216447E-1
6.676838287E0,-4.301920891E0,-9.411635399E0,-8.150340915E-1
6.680808600E0,-4.333016396E0,-9.285835266E0,-8.693920970E-1
6.684778912E0,-4.308873653E0,-9.228574753E0,-6.594493389E-1
6.688749225E0,-4.279683590E0,-9.120739937E0,-5.152609348E-1
6.692719537E0,-4.202466011E0,-8.984088898E0,-3.369024992E-1
6.696691412E0,-4.205635548E0,-8.884480476E0,-1.631887853E-1
6.700660162E0,-4.297697067E0,-8.729891777E0,-1.714056879E-1
6.704630475E0,-4.364083767E0,-8.616358757E0,-1.763185859E-1
6.708602350E0,-4.506270409E0,-8.534994125E0,-1.688678265E-1
6.712572662E0,-4.679438591E0,-8.439638138E0,-1.476647854E-1
6.716542975E0,-4.808821201E0,-8.388343811E0,-2.103928626E-1
6.720513287E0,-4.877534866E0,-8.337596893E0,-2.382805347E-1
6.724483600E0,-5.068917274E0,-8.283727646E0,-2.722015679E-1
6.728453912E0,-5.251652718E0,-8.185430527E0,-2.667715549E-1
6.732425787E0,-5.395668983E0,-8.084509850E0,-2.164645642E-1
6.736396100E0,-5.532243729E0,-8.031656265E0,-1.457972974E-1
6.740366412E0,-5.748458862E0,-7.979290009E0,3.213976324E-2
6.744336725E0,-5.825006485E0,-7.959475517E0,7.061937451E-2
6.748307037E0,-5.947197437E0,-8.020786285E0,2.106897533E-3
6.752277350E0,-5.867738247E0,-8.226918221E0,-2.650285661E-1
6.756249225E0,-5.691620827E0,-8.435519218E0,-3.650008142E-1
6.760217975E0,-5.542873859E0,-8.508072853E0,-3.008170724E-1
6.764189850E0,-5.411460876E0,-8.591018677E0,-2.986048348E-2
6.768160162E0,-5.320366383E0,-8.639438629E0,2.911923826E-1
6.772130475E0,-5.272568226E0,-8.671396255E0,5.607890487E-1
6.776100787E0,-5.277040958E0,-8.681451797E0,8.127931356E-1
6.780071100E0,-5.303252220E0,-8.613945007E0,9.945992231E-1
6.784041412E0,-5.289700985E0,-8.592838287E0,1.033347011E0
6.788013287E0,-5.247218609E0,-8.619327545E0,1.125945210E0
6.791983600E0,-4.788470268E0,-8.690492630E0,7.521528602E-1
6.795953912E0,-4.360952377E0,-8.841269493E0,6.487041712E-1
6.799924225E0,-3.935243845E0,-8.888359070E0,3.070132732E-1
6.803894537E0,-3.880895615E0,-8.831912994E0,1.288750917E-1
6.807864850E0,-4.117758751E0,-8.736394882E0,1.741063595E-1
6.811835162E0,-4.581247330E0,-8.570159912E0,2.837224603E-1
6.815807037E0,-4.994860172E0,-8.563609123E0,3.556730449E-1
6.819775787E0,-5.449001789E0,-8.692599297E0,2.189641148E-1
6.823747662E0,-6.110663414E0,-8.991261482E0,-1.430200338E-1
6.827717975E0,-6.629295349E0,-9.344789505E0,-8.474803567E-1
6.831688287E0,-7.091328621E0,-9.765297890E0,-6.853833795E-1
6.835658600E0,-7.314410686E0,-1.012299156E1,-5.558283329E-1
6.839628912E0,-7.468894005E0,-1.037584782E1,-6.184510589E-1
6.843599225E0,-7.857674122E0,-1.047208500E1,-8.614529371E-1
6.847571100E0,-8.169811249E0,-1.053648949E1,-1.062058330E0
6.851541412E0,-8.237509727E0,-1.065460968E1,-1.346862912E0
6.855511725E0,-7.887802601E0,-1.096794319E1,-1.578947306E0
6.859482037E0,-7.564059258E0,-1.127643204E1,-1.600916505E0
6.863452350E0,-7.232892990E0,-1.166074944E1,-1.460702538E0
6.867422662E0,-6.717143536E0,-1.203010750E1,-1.345828652E0
6.871394537E0,-5.898144722E0,-1.249975395E1,-1.127649903E0
6.875364850E0,-5.067701340E0,-1.287071133E1,-6.309870481E-1
6.879335162E0,-4.244239807E0,-1.315847492E1,-9.959879518E-2
6.883305475E0,-3.192897797E0,-1.325166702E1,5.361192226E-1
6.887275787E0,-2.400235176E0,-1.316873169E1,8.770918846E-1
6.891246100E0,-1.726506710E0,-1.281996346E1,9.616167545E-1
6.895217975E0,-1.300760269E0,-1.244422722E1,1.059913039E0
6.899188287E0,-1.052232504E0,-1.215692329E1,1.146784306E0
6.903158600E0,-7.205014825E-1,-1.188985443E1,1.111445904E0
6.907128912E0,-6.795510650E-1,-1.165532780E1,1.134114146E0
6.911099225E0,-7.171591520E-1,-1.146840858E1,1.253316641E0
6.915069537E0,-8.587714434E-1,-1.137421131E1,1.444833755E0
6.919039850E0,-9.777536392E-1,-1.137942982E1,1.697958231E0
6.923010162E0,-1.279921055E0,-1.136246967E1,1.915054917E0
6.926980475E0,-1.475489020E0,-1.133100033E1,1.859902143E0
6.930957037E0,-1.709527135E0,-1.122884464E1,1.599920511E0
6.934922662E0,-1.774678111E0,-1.102052975E1,1.092234850E0
6.938892975E0,-2.351546526E0,-1.071738529E1,7.277989984E-1
6.942863287E0,-3.205701828E0,-1.026271725E1,3.665522635E-1
6.946833600E0,-3.604499340E0,-9.843443871E0,-6.606081128E-2
6.950803912E0,-3.564190626E0,-9.567211151E0,-4.584130347E-1
6.954774225E0,-3.384395838E0,-9.308732033E0,-8.048827648E-1
6.958744537E0,-3.452573061E0,-9.066152573E0,-9.863536358E-1
6.962716412E0,-3.775234699E0,-8.850271225E0,-9.483816028E-1
6.966686725E0,-4.211008072E0,-8.793088913E0,-8.521921635E-1
6.970657037E0,-4.538984776E0,-8.928887367E0,-6.574478149E-1
6.974627350E0,-4.703936100E0,-9.128746033E0,-3.891727030E-1
6.978597662E0,-4.696073055E0,-9.371058464E0,-2.037082464E-1
6.982567975E0,-4.897952557E0,-9.588366508E0,-3.366247565E-2
6.986539850E0,-4.918226719E0,-9.742245674E0,-2.417185903E-2
6.990510162E0,-4.544855595E0,-9.926820755E0,-1.551442742E-1
6.994480475E0,-3.963179350E0,-1.005801296E1,-3.013342321E-1
6.998450787E0,-3.420940638E0,-1.019079494E1,-3.622235656E-1
7.002421100E0,-2.914212704E0,-1.029687691E1,-2.920926213E-1
7.006391412E0,-2.455215693E0,-1.028067398E1,-6.216305122E-2
7.010363287E0,-2.244793892E0,-1.022355747E1,2.303222120E-1
7.014332037E0,-2.224931717E0,-1.023487663E1,4.383112788E-1
7.018302350E0,-2.370843649E0,-1.027818394E1,6.297229528E-1
7.022274225E0,-2.334068775E0,-1.033415031E1,7.609634995E-1
7.026244537E0,-2.113716125E0,-1.030727768E1,6.380355954E-1
7.030214850E0,-2.151065588E0,-1.023533726E1,5.654721260E-1
7.034185162E0,-2.395571232E0,-1.006610584E1,5.616413951E-1
7.038155475E0,-2.519973993E0,-9.858911514E0,4.864347577E-1
7.042125787E0,-2.790202618E0,-9.610019684E0,3.634493947E-1
7.046097662E0,-3.177977085E0,-9.560497284E0,5.666404963E-1
7.050067975E0,-3.219904184E0,-9.531987190E0,6.314180493E-1
7.054038287E0,-3.200760365E0,-9.359230995E0,4.234097898E-1
7.058008600E0,-3.301000834E0,-8.990983963E0,3.131807148E-1
7.061978912E0,-3.260500431E0,-8.616617203E0,2.220478356E-1
7.065949225E0,-3.141872644E0,-8.312007904E0,1.730433255E-1
7.069921100E0,-3.108133554E0,-8.089299202E0,1.678622812E-1
7.073891412E0,-2.857001066E0,-8.038866997E0,1.191642061E-1
7.077861725E0,-2.700994730E0,-8.023572922E0,7.837658376E-2
7.081832037E0,-2.593475819E0,-7.783041954E0,2.389413305E-2
7.085802350E0,-2.657181025E0,-7.387529850E0,-1.261265483E-2
7.089772662E0,-2.755764484E0,-7.138015747E0,1.303211749E-1
7.093742975E0,-2.698380232E0,-6.968955994E0,1.932408214E-1
7.097713287E0,-2.710705519E0,-6.880524158E0,3.608923852E-1
7.101685162E0,-2.962403297E0,-6.845079899E0,6.134614944E-1
7.105655475E0,-3.314609289E0,-6.869270802E0,6.965020299E-1
7.109625787E0,-3.416075706E0,-6.887936592E0,6.349806190E-1
7.113596100E0,-3.481150150E0,-6.983532429E0,7.124378085E-1
7.117566412E0,-3.469428301E0,-7.101738930E0,9.214803576E-1
7.121536725E0,-3.391425133E0,-7.213088036E0,1.035693407E0
7.125507037E0,-3.606357098E0,-7.221956253E0,1.170946479E0
7.129478912E0,-3.594261646E0,-7.345640659E0,1.271052957E0
7.133447662E0,-3.615081787E0,-7.493439674E0,1.262596726E0
7.137419537E0,-3.687913418E0,-7.618876457E0,1.264387488E0
7.141389850E0,-3.874249220E0,-7.641640663E0,1.322001576E0
7.145360162E0,-4.036461353E0,-7.710852146E0,1.330467463E0
7.149330475E0,-4.077134132E0,-7.857540131E0,1.147962332E0
7.153300787E0,-4.152599335E0,-7.969244003E0,1.046448112E0
7.157271100E0,-4.277538300E0,-7.985160828E0,9.954707623E-1
7.161242975E0,-4.318038464E0,-8.040266037E0,8.349921703E-1
7.165213287E0,-3.632252932E0,-8.129866600E0,2.131893039E-1
7.169182037E0,-3.688085794E0,-8.320290565E0,7.374045253E-1
7.173153912E0,-4.168075085E0,-8.202841759E0,9.651505947E-1
7.177124225E0,-4.266371727E0,-8.216220856E0,6.650709510E-1
7.181094537E0,-4.193223953E0,-8.348121643E0,4.486159384E-1
7.185066412E0,-4.101813316E0,-8.602318764E0,6.054074168E-1
7.189035162E0,-4.030600548E0,-8.733550072E0,8.292269707E-1
7.193005475E0,-4.053919792E0,-8.701927185E0,1.196104884E0
7.196977350E0,-3.904310703E0,-8.650911331E0,1.296431541E0
7.200947662E0,-3.635307789E0,-8.688155174E0,1.346154332E0
7.204917975E0,-3.488169909E0,-8.487224579E0,1.437478781E0
7.208888287E0,-3.314542532E0,-8.404835701E0,1.591914296E0
7.212858600E0,-3.350962877E0,-8.236436844E0,1.785825491E0
7.216828912E0,-3.265490055E0,-8.159123421E0,1.763578534E0
7.220800787E0,-3.250215054E0,-8.076341629E0,1.608108640E0
7.224771100E0,-3.298999310E0,-7.933110714E0,1.489145637E0
7.228741412E0,-3.431197405E0,-7.743949890E0,1.534415126E0
7.232711725E0,-3.249372244E0,-7.688519001E0,1.533773422E0
7.236682037E0,-3.349919081E0,-7.505180836E0,1.513355732E0
7.240652350E0,-3.583449364E0,-7.352794647E0,1.576112509E0
7.244624225E0,-3.876911640E0,-7.234635830E0,1.692623973E0
7.248594537E0,-4.157923698E0,-7.174522400E0,1.801579356E0
7.252564850E0,-4.518797398E0,-7.162053108E0,1.862717628E0
7.256535162E0,-4.907663345E0,-7.185564518E0,1.939360857E0
7.260505475E0,-5.239413738E0,-7.200379848E0,2.004014015E0
7.264475787E0,-5.486725330E0,-7.339482784E0,2.061857700E0
7.268446100E0,-5.643497467E0,-7.496551991E0,2.147081852E0
7.272416412E0,-5.589110851E0,-7.671482086E0,2.296259880E0
7.276388287E0,-5.285487652E0,-7.902398109E0,2.458509922E0
7.280358600E0,-5.025515556E0,-7.973658562E0,2.573910475E0
7.284328912E0,-4.776374817E0,-7.995800495E0,2.634426355E0
7.288299225E0,-4.502612114E0,-8.012320518E0,2.595937252E0
7.292269537E0,-4.185102940E0,-8.028026581E0,2.591876507E0
7.296239850E0,-3.858073950E0,-8.014474869E0,2.540966272E0
7.300210162E0,-3.586322546E0,-7.977221489E0,2.458662987E0
7.304182037E0,-3.252925396E0,-7.940436840E0,2.342487097E0
7.308150787E0,-2.913178444E0,-7.866858482E0,2.161207438E0
7.312122662E0,-2.673633814E0,-7.793068886E0,2.057030916E0
7.316092975E0,-2.430239201E0,-7.727812290E0,2.002692223E0
7.320063287E0,-2.287487268E0,-7.662900925E0,1.960515976E0
7.324033600E0,-2.133597612E0,-7.562871456E0,1.896610022E0
7.328003912E0,-2.061723709E0,-7.437578201E0,1.810887933E0
7.331974225E0,-1.916414738E0,-7.407123566E0,1.690804482E0
7.335946100E0,-1.865868449E0,-7.364325047E0,1.617819548E0
7.339916412E0,-1.918263197E0,-7.214093685E0,1.552486539E0
7.343886725E0,-1.949569702E0,-7.109084129E0,1.534577966E0
7.347857037E0,-1.785748959E0,-7.137910366E0,1.649997711E0
7.351827350E0,-1.804950356E0,-7.062071323E0,1.748715281E0
7.355797662E0,-1.923836827E0,-6.992294788E0,1.791159749E0
7.359769537E0,-2.085828543E0,-6.914349079E0,1.901877165E0
7.363739850E0,-2.198240995E0,-6.897992134E0,2.009223700E0
7.367710162E0,-2.424943447E0,-6.885906219E0,2.118983507E0
7.371680475E0,-2.673652887E0,-6.928311825E0,2.251382828E0
7.375650787E0,-2.930062294E0,-6.974290371E0,2.399842501E0
7.379621100E0,-3.216322660E0,-7.011888981E0,2.535804510E0
7.383591412E0,-3.446213961E0,-7.036865234E0,2.599710464E0
7.387563287E0,-3.634963036E0,-7.138590336E0,2.662112713E0
7.391532037E0,-3.842138290E0,-7.217397690E0,2.730433941E0
7.395503912E0,-4.044506073E0,-7.292853355E0,2.792491436E0
7.399474225E0,-4.225804329E0,-7.397786140E0,2.834160089E0
7.403444537E0,-4.410273075E0,-7.485692024E0,2.871921539E0
7.407416412E0,-4.577483654E0,-7.570456028E0,2.896878719E0
7.411385162E0,-4.694407463E0,-7.622477531E0,2.873080254E0
7.415357037E0,-4.835224628E0,-7.643440723E0,2.897999287E0
7.419327350E0,-4.868187904E0,-7.749781609E0,2.845029831E0
7.423297662E0,-4.950069427E0,-7.806936741E0,2.760667801E0
7.427267975E0,-5.020008564E0,-7.869290829E0,2.694587946E0
7.431238287E0,-5.053163528E0,-7.921905994E0,2.644204378E0
7.435208600E0,-5.029968739E0,-8.022778511E0,2.616718769E0
7.439178912E0,-4.982687950E0,-8.122683525E0,2.659574986E0
7.443149225E0,-5.012874126E0,-8.231992722E0,2.756875515E0
7.447119537E0,-5.055452824E0,-8.306366920E0,2.911186457E0
7.451091412E0,-5.005835533E0,-8.500651360E0,3.033817291E0
7.455074225E0,-5.043730259E0,-8.611416817E0,3.268803358E0
7.459032037E0,-5.084192753E0,-8.742244720E0,3.477338552E0
7.463002350E0,-5.217961311E0,-8.822154045E0,3.725071192E0
7.466972662E0,-5.343551636E0,-8.900167465E0,3.993672132E0
7.470942975E0,-5.420051098E0,-8.964896202E0,4.149850368E0
7.474914850E0,-5.543974876E0,-8.997284889E0,4.358558178E0
7.478885162E0,-5.662459373E0,-9.044201851E0,4.564047337E0
7.482855475E0,-5.764806747E0,-9.090668678E0,4.719584465E0
7.486825787E0,-5.900270462E0,-9.131734848E0,4.880436420E0
7.490796100E0,-6.066820621E0,-9.113824844E0,4.962931156E0
7.494766412E0,-6.255254269E0,-9.012350082E0,5.018486500E0
7.498738287E0,-6.328181744E0,-8.942860603E0,5.055864334E0
7.502707037E0,-6.340938091E0,-8.862175941E0,5.080429077E0
7.506677350E0,-6.295266151E0,-8.731892586E0,5.091106892E0
7.510649225E0,-6.232097626E0,-8.514451027E0,5.042294025E0
7.514619537E0,-6.138445854E0,-8.282941818E0,4.952970982E0
7.518589850E0,-5.989669800E0,-7.994335651E0,4.823397160E0
7.522560162E0,-5.812709808E0,-7.806409836E0,4.674994469E0
7.526536725E0,-5.581803799E0,-7.633682251E0,4.508952141E0
7.530500787E0,-5.441876888E0,-7.397537708E0,4.374254227E0
7.534472662E0,-5.275029659E0,-7.277156830E0,4.090388298E0
7.538442975E0,-5.140092373E0,-7.099603176E0,3.817267418E0
7.542413287E0,-4.879948139E0,-7.129319668E0,3.703552246E0
7.546383600E0,-4.674956322E0,-7.050674915E0,3.499231100E0
7.550353912E0,-4.630577564E0,-6.861714840E0,3.302293777E0
7.554324225E0,-4.545832634E0,-6.770237446E0,3.173705816E0
7.558296100E0,-4.423326015E0,-6.782629967E0,3.054062843E0
7.562264850E0,-4.363710403E0,-6.862768650E0,2.905392647E0
7.566236725E0,-4.343627930E0,-6.945626736E0,2.779687166E0
7.570207037E0,-4.311104774E0,-7.114743710E0,2.509784222E0
7.574177350E0,-4.277337074E0,-7.376276970E0,2.150673151E0
7.578147662E0,-4.287680149E0,-7.623119354E0,1.719592333E0
7.582117975E0,-4.289183617E0,-7.864311218E0,1.374348402E0
7.586088287E0,-4.147150040E0,-8.087909698E0,1.144227266E0
7.590060162E0,-3.899991751E0,-8.504741669E0,1.067670345E0
7.594030475E0,-3.601396561E0,-8.893856049E0,9.962943792E-1
7.598000787E0,-3.229174852E0,-9.400153160E0,9.594140649E-1
7.601971100E0,-2.875781059E0,-9.810796738E0,9.957197309E-1
7.605941412E0,-2.373602152E0,-1.034468460E1,1.117239833E0
7.609911725E0,-2.056255341E0,-1.102464771E1,1.375842452E0
7.613882037E0,-1.791763067E0,-1.210240269E1,1.749558091E0
7.617853912E0,-1.772264719E0,-1.329093170E1,2.167757988E0
7.621824225E0,-2.076548576E0,-1.452668476E1,2.646761179E0
7.625794537E0,-2.673901796E0,-1.600497055E1,3.106476784E0
7.629764850E0,-3.239067554E0,-1.751586533E1,3.270699739E0
7.633735162E0,-3.918053627E0,-1.860493851E1,3.143625259E0
7.637705475E0,-4.858898640E0,-1.965235519E1,2.677876234E0
7.641675787E0,-5.706398010E0,-2.048966408E1,1.667274117E0
7.645646100E0,-6.563110352E0,-2.080655098E1,3.334356546E-1
7.649617975E0,-6.681153774E0,-2.000948334E1,-1.246976852E0
7.653588287E0,-6.243810177E0,-1.801339912E1,-3.001285076E0
7.657558600E0,-5.072547436E0,-1.434484005E1,-4.975428581E0
7.661528912E0,-3.462370157E0,-1.072409821E1,-6.070048332E0
7.665499225E0,-2.103928804E0,-8.845761299E0,-6.283726215E0
7.669469537E0,-8.507460356E-1,-7.631968498E0,-5.534886837E0
7.673441412E0,1.044829655E-2,-7.064628601E0,-4.287344933E0
7.677414850E0,4.467005730E-1,-6.574927807E0,-2.346605062E0
7.681382037E0,6.038367748E-1,-6.296712399E0,-3.844321966E-1
7.685352350E0,8.248503208E-1,-6.186110020E0,1.006503224E0
7.689322662E0,1.336299658E0,-6.253291130E0,2.076854944E0
7.693292975E0,1.987187386E0,-6.481247425E0,2.264024258E0
7.697263287E0,2.452304125E0,-6.626671314E0,1.748945236E0
7.701233600E0,2.533697605E0,-6.500075817E0,8.761724830E-1
7.705203912E0,2.396816254E0,-6.308424950E0,8.264784515E-2
7.709175787E0,1.947845936E0,-6.066447258E0,-8.908824325E-1
7.713146100E0,1.407761812E0,-5.967260361E0,-2.122009754E0
7.717116412E0,7.431314588E-1,-6.057761192E0,-3.734054327E0
7.721086725E0,1.166933924E-1,-6.431074619E0,-5.012769222E0
7.725057037E0,-5.764663219E-1,-7.011984825E0,-5.679735661E0
7.729027350E0,-1.817333102E0,-7.849112511E0,-5.862394333E0
7.732997662E0,-3.200693369E0,-8.580196381E0,-5.547508717E0
7.736967975E0,-4.954761982E0,-9.326612473E0,-4.904282570E0
7.740939850E0,-6.646370888E0,-9.960779190E0,-4.229750156E0
7.744910162E0,-8.062340736E0,-1.037874031E1,-3.632913828E0
7.748880475E0,-9.575322151E0,-1.054934120E1,-2.992761612E0
7.752850787E0,-1.045950127E1,-1.055099773E1,-2.468393326E0
7.756821100E0,-1.105814743E1,-1.057376194E1,-1.695688605E0
7.760791412E0,-1.132939148E1,-1.054168987E1,-6.717555523E-1
7.764761725E0,-1.109508514E1,-1.015898991E1,3.806876540E-1
7.768733600E0,-1.055766296E1,-9.412880898E0,1.039399505E0
7.772703912E0,-9.623857498E0,-8.723819733E0,1.129680157E0
7.776674225E0,-8.639888763E0,-8.403428078E0,7.939364910E-1
7.780644537E0,-7.618962765E0,-8.122616768E0,3.148949742E-1
7.784614850E0,-6.816914558E0,-7.966677189E0,7.115567569E-3
7.788585162E0,-6.062195301E0,-7.852378368E0,-1.827925146E-1
7.792557037E0,-5.206421375E0,-7.862299919E0,-1.027878672E-1
7.796527350E0,-4.745163918E0,-7.740741253E0,2.059396505E-1
7.800497662E0,-4.606941700E0,-7.419764996E0,5.427176356E-1
7.804467975E0,-4.577397346E0,-7.189442635E0,8.140477538E-1
7.808438287E0,-4.677973270E0,-7.192517281E0,1.098105311E0
7.812408600E0,-4.750709057E0,-7.330768108E0,1.168657660E0
7.816378912E0,-4.467206955E0,-7.758219242E0,1.007173657E0
7.820349225E0,-4.517054081E0,-8.169332504E0,9.770641327E-1
7.824321100E0,-4.536791801E0,-8.010529518E0,5.542193651E-1
7.828291412E0,-3.833930969E0,-8.185928345E0,3.546100259E-1
7.832261725E0,-4.050615788E0,-8.176964760E0,4.781124890E-1
7.836232037E0,-4.483123302E0,-8.036684036E0,4.578384161E-1
7.840202350E0,-4.905470371E0,-8.095514297E0,4.524945319E-1
7.844172662E0,-4.857433319E0,-8.104200363E0,4.412896633E-1
7.848144537E0,-4.854425907E0,-8.005434990E0,4.901697040E-1
7.852113287E0,-5.062855244E0,-7.836404324E0,4.230075777E-1
7.856085162E0,-5.224895000E0,-7.679813862E0,3.914136589E-1
7.860055475E0,-5.226082325E0,-7.699838638E0,3.441808522E-1
7.864025787E0,-5.255387783E0,-7.739898205E0,1.992550343E-1
7.867996100E0,-5.299594402E0,-7.851535797E0,2.021663934E-1
7.871966412E0,-5.336570263E0,-8.020030022E0,2.231683284E-1
7.875936725E0,-5.410254478E0,-8.217801094E0,4.703361094E-1
7.879907037E0,-5.250369549E0,-8.529841423E0,7.124761343E-1
7.883878912E0,-4.830014706E0,-8.692312241E0,7.302410603E-1
7.887849225E0,-4.270250320E0,-8.873993874E0,7.418960333E-1
7.891819537E0,-4.077162743E0,-8.969004631E0,1.114309311E0
7.895789850E0,-4.436781406E0,-8.661618233E0,1.135483623E0
7.899760162E0,-4.610830307E0,-8.579047203E0,1.183128238E0
7.903730475E0,-4.753218174E0,-8.713380814E0,1.522281408E0
7.907702350E0,-4.881605148E0,-8.888473511E0,1.806616664E0
7.911672662E0,-5.515235424E0,-8.602835655E0,1.848026872E0
7.915642975E0,-5.936700821E0,-8.289473534E0,1.879285574E0
7.919613287E0,-6.034527779E0,-8.018267632E0,1.827446342E0
7.923583600E0,-5.963602066E0,-7.885878086E0,1.484759450E0
7.927553912E0,-5.975505829E0,-7.759320259E0,1.253699780E0
7.931524225E0,-6.050559521E0,-7.585846424E0,9.926742911E-1
7.935494537E0,-6.067663670E0,-7.454557419E0,7.076781392E-1
7.939466412E0,-6.073917389E0,-7.324073792E0,4.419121742E-1
7.943436725E0,-6.127748489E0,-7.158720493E0,2.172785997E-1
7.947407037E0,-6.161123753E0,-6.961447716E0,1.346403211E-1
7.951377350E0,-5.717727184E0,-7.111670017E0,-1.159847081E-1
7.955347662E0,-4.968791962E0,-7.546275139E0,-4.344326854E-1
7.959317975E0,-4.437653065E0,-7.993013859E0,-3.711012602E-1
7.963289850E0,-4.572935104E0,-8.295286179E0,-7.759128511E-2
7.967260162E0,-4.775618076E0,-8.406157494E0,-1.286644042E-1
7.971228912E0,-4.955825329E0,-8.471221924E0,-8.245630562E-2
7.975200787E0,-5.136797905E0,-8.604377747E0,3.821145976E-3
7.979171100E0,-5.260051727E0,-8.560411453E0,1.507389359E-2
7.983141412E0,-5.301356316E0,-8.412323952E0,-1.284249779E-2
7.987113287E0,-5.360291958E0,-8.286753654E0,5.930916592E-2
7.991082037E0,-5.636094093E0,-8.051834106E0,9.193734266E-3
7.995052350E0,-5.953900814E0,-7.803297043E0,-1.776018888E-1
7.999024225E0,-5.914942265E0,-7.637598991E0,-3.870849609E-1
8.002994537E0,-5.677255154E0,-7.517218590E0,-4.675014019E-1
8.006964850E0,-5.580922127E0,-7.415733337E0,-4.858409762E-1
8.010935162E0,-5.468873978E0,-7.382722378E0,-4.527435303E-1
8.014905475E0,-5.426362514E0,-7.403771877E0,-4.267041981E-1
8.018875787E0,-5.400552750E0,-7.494847298E0,-4.011628628E-1
8.022847662E0,-5.337010860E0,-7.705317020E0,-3.637366891E-1
8.026817975E0,-4.748037338E0,-7.904389858E0,-5.113632083E-1
8.030786725E0,-4.455187798E0,-7.925468445E0,-5.121101737E-1
8.034758600E0,-4.510110855E0,-7.869836807E0,-5.040848255E-1
8.038728912E0,-4.455427170E0,-7.891528130E0,-5.948633552E-1
8.042699225E0,-4.469045639E0,-7.979500771E0,-7.298771739E-1
8.046669537E0,-4.598294258E0,-8.101575851E0,-8.513014913E-1
8.050639850E0,-4.831144333E0,-8.260197639E0,-1.034189820E0
8.054610162E0,-5.052857399E0,-8.317447662E0,-1.268438458E0
8.058582037E0,-5.111707211E0,-8.413818359E0,-1.394296885E0
8.062552350E0,-4.964166641E0,-8.655680656E0,-1.590621471E0
8.066522662E0,-4.944246769E0,-8.784545898E0,-1.753407955E0
8.070492975E0,-4.896678925E0,-8.955951691E0,-1.791571498E0
8.074463287E0,-4.859587669E0,-9.126840591E0,-1.721651196E0
8.078433600E0,-4.844332218E0,-9.302517891E0,-1.575164437E0
8.082405475E0,-4.897675037E0,-9.438249588E0,-1.398730993E0
8.086375787E0,-4.948987484E0,-9.508993149E0,-1.247455716E0
8.090346100E0,-4.909435272E0,-9.559807777E0,-1.112298250E0
8.094316412E0,-4.896726608E0,-9.566501617E0,-9.417065382E-1
8.098286725E0,-4.955853939E0,-9.456809998E0,-7.757022381E-1
8.102257037E0,-4.984277725E0,-9.290508270E0,-6.648506522E-1
8.106228912E0,-5.013362885E0,-9.203196526E0,-5.759874582E-1
8.110197662E0,-5.099276543E0,-9.098301888E0,-5.248855948E-1
8.114169537E0,-5.148137093E0,-9.017224312E0,-5.826146007E-1
8.118139850E0,-5.161870003E0,-8.981397629E0,-6.592769623E-1
8.122110162E0,-5.077364445E0,-8.972242355E0,-7.482072115E-1
8.126080475E0,-5.014253616E0,-8.985563278E0,-7.829135060E-1
8.130050787E0,-4.941258907E0,-9.068517685E0,-8.044900298E-1
8.134021100E0,-4.859683514E0,-9.212332726E0,-8.294089437E-1
8.137992975E0,-4.824957848E0,-9.420302391E0,-8.786720037E-1
8.141963287E0,-4.797108650E0,-9.682928085E0,-1.038547277E0
8.145933600E0,-4.772850513E0,-9.856919289E0,-1.208526015E0
8.149903912E0,-4.810487270E0,-1.004699898E1,-1.281424642E0
8.153874225E0,-4.882840157E0,-1.020171261E1,-1.301602960E0
8.157844537E0,-5.003421783E0,-1.030354309E1,-1.312290668E0
8.161816412E0,-5.161697865E0,-1.042847252E1,-1.315182805E0
8.165786725E0,-5.230478287E0,-1.058091640E1,-1.270238876E0
8.169755475E0,-5.308692455E0,-1.074980259E1,-1.190330029E0
8.173727350E0,-5.556674004E0,-1.082386971E1,-9.400880933E-1
8.177697662E0,-5.748305798E0,-1.105717087E1,-7.952293158E-1
8.181667975E0,-6.043884277E0,-1.130734539E1,-8.509471416E-1
8.185638287E0,-6.380968571E0,-1.160427475E1,-9.775908589E-1
8.189608600E0,-6.802300453E0,-1.172838974E1,-1.207070351E0
8.193578912E0,-7.138944149E0,-1.189052582E1,-1.543311954E0
8.197550787E0,-7.423739910E0,-1.186036682E1,-1.877398968E0
8.201521100E0,-7.611320496E0,-1.186211014E1,-2.129144430E0
8.205491412E0,-7.908689976E0,-1.179766750E1,-2.364465714E0
