"Time (s)","Gyroscope x (rad/s)","Gyroscope y (rad/s)","Gyroscope z (rad/s)"
5.217204400E-2,-1.275512695E0,1.038986206E0,-3.798980713E-1
5.464396700E-2,-1.286178589E0,1.044311523E0,-3.809661865E-1
5.711589100E-2,-1.304275513E0,1.060287476E0,-3.926849365E-1
5.958781500E-2,-1.327713013E0,1.072006226E0,-4.086608887E-1
6.205973900E-2,-1.346893311E0,1.090118408E0,-4.320983887E-1
6.450114500E-2,-1.369262695E0,1.105026245E0,-4.533996582E-1
6.697306900E-2,-1.382049561E0,1.123138428E0,-4.757690430E-1
6.944499300E-2,-1.399093628E0,1.139114380E0,-5.013427734E-1
7.188639900E-2,-1.412933350E0,1.151901245E0,-5.301055908E-1
7.435832300E-2,-1.425720215E0,1.168945312E0,-5.610046387E-1
7.683024700E-2,-1.442764282E0,1.184921265E0,-5.876312256E-1
7.927165300E-2,-1.456619263E0,1.195571899E0,-6.217193604E-1
8.174357700E-2,-1.471527100E0,1.208358765E0,-6.547393799E-1
8.421550100E-2,-1.486450195E0,1.222198486E0,-6.845703125E-1
8.668742500E-2,-1.505615234E0,1.229660034E0,-7.111968994E-1
8.912883100E-2,-1.519470215E0,1.237121582E0,-7.420959473E-1
9.157023700E-2,-1.535446167E0,1.244567871E0,-7.729797363E-1
9.404216100E-2,-1.550354004E0,1.253097534E0,-7.996215820E-1
9.651408500E-2,-1.564208984E0,1.263748169E0,-8.273162842E-1
9.898600900E-2,-1.578048706E0,1.271209717E0,-8.550109863E-1
1.014579320E-1,-1.590835571E0,1.275466919E0,-8.773803711E-1
1.038993390E-1,-1.601486206E0,1.280792236E0,-9.008178711E-1
1.063712620E-1,-1.614273071E0,1.287185669E0,-9.210510254E-1
1.088431860E-1,-1.622802734E0,1.290374756E0,-9.359741211E-1
1.112845920E-1,-1.627059937E0,1.294647217E0,-9.540863037E-1
1.137565160E-1,-1.631317139E0,1.299972534E0,-9.647369385E-1
1.162284400E-1,-1.635574341E0,1.307418823E0,-9.732513428E-1
1.187003640E-1,-1.636642456E0,1.308486938E0,-9.796447754E-1
1.211417700E-1,-1.636642456E0,1.311691284E0,-9.796447754E-1
1.236136940E-1,-1.634521484E0,1.313812256E0,-9.817810059E-1
1.260551000E-1,-1.635574341E0,1.307418823E0,-9.775085449E-1
1.285270240E-1,-1.634521484E0,1.302093506E0,-9.711303711E-1
1.309989480E-1,-1.633453369E0,1.292510986E0,-9.647369385E-1
1.334708720E-1,-1.632385254E0,1.287185669E0,-9.583435059E-1
1.359122780E-1,-1.629180908E0,1.276535034E0,-9.487609863E-1
1.383842020E-1,-1.629180908E0,1.264816284E0,-9.359741211E-1
1.408561260E-1,-1.625991821E0,1.250961304E0,-9.242553711E-1
1.432975320E-1,-1.624923706E0,1.234985352E0,-9.104003906E-1
1.457694560E-1,-1.623855591E0,1.219009399E0,-8.944244385E-1
1.482413800E-1,-1.627059937E0,1.201965332E0,-8.795166016E-1
1.507133030E-1,-1.636642456E0,1.180664062E0,-8.645935059E-1
1.531547100E-1,-1.638778687E0,1.156158447E0,-8.486175537E-1
1.556266340E-1,-1.644104004E0,1.132720947E0,-8.358306885E-1
1.580680400E-1,-1.652618408E0,1.109283447E0,-8.209228516E-1
1.605399640E-1,-1.656890869E0,1.082656860E0,-8.060150146E-1
1.630118870E-1,-1.665405273E0,1.062408447E0,-7.953491211E-1
1.654838110E-1,-1.674987793E0,1.043243408E0,-7.825775146E-1
1.679252170E-1,-1.683517456E0,1.030456543E0,-7.719268799E-1
1.703971410E-1,-1.689910889E0,1.013412476E0,-7.591400146E-1
1.728690650E-1,-1.698425293E0,9.974365234E-1,-7.474212646E-1
1.753104710E-1,-1.700561523E0,9.782562256E-1,-7.410278320E-1
1.777823950E-1,-1.699493408E0,9.622802734E-1,-7.335662842E-1
1.802543190E-1,-1.696304321E0,9.484252930E-1,-7.282409668E-1
1.827262430E-1,-1.689910889E0,9.494934082E-1,-7.218475342E-1
1.851676490E-1,-1.673934937E0,9.548187256E-1,-7.186584473E-1
1.876395730E-1,-1.657943726E0,9.686737061E-1,-7.207946777E-1
1.900809790E-1,-1.640899658E0,9.921112061E-1,-7.207946777E-1
1.925529030E-1,-1.614273071E0,1.021942139E0,-7.229156494E-1
1.950248270E-1,-1.588714600E0,1.059219360E0,-7.271728516E-1
1.974967510E-1,-1.563140869E0,1.099700928E0,-7.293090820E-1
1.999381570E-1,-1.530120850E0,1.152969360E0,-7.346343994E-1
2.024100810E-1,-1.502426147E0,1.203033447E0,-7.410278320E-1
2.048514870E-1,-1.472595215E0,1.248840332E0,-7.527465820E-1
2.073234110E-1,-1.440643311E0,1.298904419E0,-7.612609863E-1
2.097953350E-1,-1.411880493E0,1.345779419E0,-7.729797363E-1
2.122672590E-1,-1.380981445E0,1.384124756E0,-7.793731689E-1
2.147086650E-1,-1.357543945E0,1.423538208E0,-7.868347168E-1
2.171805890E-1,-1.334106445E0,1.466156006E0,-7.942962646E-1
2.196525120E-1,-1.309616089E0,1.511962891E0,-7.996215820E-1
2.220939190E-1,-1.295761108E0,1.550308228E0,-7.996215820E-1
2.245658420E-1,-1.285110474E0,1.583328247E0,-7.932281494E-1
2.270377660E-1,-1.271255493E0,1.621673584E0,-7.900238037E-1
2.294791730E-1,-1.260604858E0,1.655761719E0,-7.804412842E-1
2.319510960E-1,-1.255279541E0,1.685592651E0,-7.708587646E-1
2.344230200E-1,-1.247817993E0,1.710098267E0,-7.580718994E-1
2.368644260E-1,-1.240371704E0,1.730331421E0,-7.399597168E-1
2.393363500E-1,-1.241424561E0,1.745254517E0,-7.239837646E-1
2.418082740E-1,-1.240371704E0,1.754837036E0,-7.069396973E-1
2.442801980E-1,-1.241424561E0,1.754837036E0,-6.866912842E-1
2.467216040E-1,-1.241424561E0,1.755905151E0,-6.685943604E-1
2.491935280E-1,-1.238235474E0,1.746307373E0,-6.462249756E-1
2.516654520E-1,-1.242492676E0,1.732467651E0,-6.217193604E-1
2.541068580E-1,-1.247817993E0,1.707962036E0,-5.972137451E-1
2.565787820E-1,-1.242492676E0,1.665359497E0,-5.705871582E-1
2.590507060E-1,-1.236099243E0,1.584396362E0,-5.375671387E-1
2.614921120E-1,-1.215866089E0,1.451232910E0,-4.800415039E-1
2.639640360E-1,-1.194564819E0,1.280792236E0,-4.012145996E-1
2.664359600E-1,-1.168991089E0,1.119934082E0,-3.149261475E-1
2.688773660E-1,-1.146621704E0,9.985046387E-1,-2.424774170E-1
2.713492900E-1,-1.121063232E0,9.068908691E-1,-1.934814453E-1
2.738212140E-1,-1.104019165E0,8.227233887E-1,-1.519317627E-1
2.762626200E-1,-1.084838867E0,7.407073975E-1,-1.146545410E-1
2.787345440E-1,-1.062469482E0,6.640014648E-1,-8.375549316E-2
2.812064670E-1,-1.039031982E0,5.894317627E-1,-5.712890625E-2
2.836478740E-1,-1.017730713E0,5.180664062E-1,-3.475952148E-2
2.861197980E-1,-9.910888672E-1,4.488220215E-1,-1.878356934E-2
2.885917210E-1,-9.623260498E-1,3.849029541E-1,-1.132202148E-2
2.910331280E-1,-9.314422607E-1,3.231201172E-1,-5.996704102E-3
2.935050510E-1,-9.026794434E-1,2.666625977E-1,-1.132202148E-2
2.959769750E-1,-8.696594238E-1,2.133941650E-1,-1.557922363E-2
2.984488990E-1,-8.398284912E-1,1.643981934E-1,-3.369140625E-2
3.008903050E-1,-8.068084717E-1,1.185913086E-1,-5.819702148E-2
3.033622290E-1,-7.748413086E-1,7.704162598E-2,-8.589172363E-2
3.058341530E-1,-7.396850586E-1,3.443908691E-2,-1.199798584E-1
3.082755590E-1,-7.066650391E-1,-4.974365234E-3,-1.572570801E-1
3.107474830E-1,-6.757812500E-1,-4.333496094E-2,-1.966705322E-1
3.132194070E-1,-6.427459717E-1,-7.954406738E-2,-2.350311279E-1
3.156608130E-1,-6.086578369E-1,-1.168365479E-1,-2.755126953E-1
3.181327370E-1,-5.767059326E-1,-1.509246826E-1,-3.149261475E-1
3.206046610E-1,-5.426177979E-1,-1.786193848E-1,-3.468780518E-1
3.230460670E-1,-5.053405762E-1,-2.063140869E-1,-3.788299561E-1
3.255179910E-1,-4.723052979E-1,-2.318878174E-1,-4.086608887E-1
3.279899150E-1,-4.424896240E-1,-2.574462891E-1,-4.353027344E-1
3.304618390E-1,-4.084014893E-1,-2.840728760E-1,-4.597930908E-1
3.329032450E-1,-3.764343262E-1,-3.171081543E-1,-4.853668213E-1
3.353751690E-1,-3.466033936E-1,-3.586425781E-1,-5.088043213E-1
3.378470920E-1,-3.135833740E-1,-4.055175781E-1,-5.311737061E-1
3.402884990E-1,-2.837524414E-1,-4.577178955E-1,-5.535430908E-1
3.427604230E-1,-2.539367676E-1,-5.088500977E-1,-5.748443604E-1
3.452323460E-1,-2.283630371E-1,-5.674438477E-1,-5.940246582E-1
3.476737530E-1,-2.028045654E-1,-6.334838867E-1,-6.121368408E-1
3.501456760E-1,-1.750946045E-1,-7.016601562E-1,-6.313018799E-1
3.526176000E-1,-1.442108154E-1,-7.709045410E-1,-6.462249756E-1
3.550590070E-1,-1.175842285E-1,-8.444061279E-1,-6.632690430E-1
3.575309300E-1,-9.307861328E-2,-9.200439453E-1,-6.781768799E-1
3.600028540E-1,-6.750488281E-2,-1.002075195E0,-6.866912842E-1
3.624747780E-1,-4.620361328E-2,-1.085159302E0,-6.994781494E-1
3.649161840E-1,-2.490234375E-2,-1.163986206E0,-7.111968994E-1
3.673881080E-1,-9.979248047E-3,-1.241744995E0,-7.175903320E-1
3.698600320E-1,5.996704102E-3,-1.315261841E0,-7.197265625E-1
3.723014380E-1,1.771545410E-2,-1.375976562E0,-7.207946777E-1
3.747733620E-1,2.622985840E-2,-1.428176880E0,-7.175903320E-1
3.772452860E-1,3.582763672E-2,-1.476104736E0,-7.058715820E-1
3.796866920E-1,4.966735840E-2,-1.526184082E0,-6.866912842E-1
3.821586160E-1,5.392456055E-2,-1.577316284E0,-6.685943604E-1
3.846305400E-1,5.712890625E-2,-1.636962891E0,-6.408996582E-1
3.870719460E-1,5.499267578E-2,-1.692352295E0,-6.185150146E-1
3.895438700E-1,4.753112793E-2,-1.742431641E0,-5.940246582E-1
3.920157940E-1,3.262329102E-2,-1.775451660E0,-5.727081299E-1
3.944572000E-1,1.664733887E-2,-1.795684814E0,-5.514068604E-1
3.969291240E-1,-5.722045898E-3,-1.794631958E0,-5.301055908E-1
3.994010480E-1,-2.702331543E-2,-1.772247314E0,-5.130615234E-1
4.018729710E-1,-5.366516113E-2,-1.745620728E0,-4.928131104E-1
4.043143780E-1,-7.496643066E-2,-1.705139160E0,-4.704437256E-1
4.067863010E-1,-9.307861328E-2,-1.654006958E0,-4.470214844E-1
4.092582250E-1,-1.079864502E-1,-1.598617554E0,-4.193115234E-1
4.116996320E-1,-1.250305176E-1,-1.546417236E0,-3.852233887E-1
4.141715550E-1,-1.399536133E-1,-1.495285034E0,-3.468780518E-1
4.166434790E-1,-1.495361328E-1,-1.451614380E0,-3.085327148E-1
4.190848850E-1,-1.601867676E-1,-1.415390015E0,-2.605895996E-1
4.215568090E-1,-1.612548828E-1,-1.400482178E0,-2.094573975E-1
4.240287330E-1,-1.676483154E-1,-1.402603149E0,-1.604614258E-1
4.264701390E-1,-1.687164307E-1,-1.421783447E0,-1.071929932E-1
4.289420630E-1,-1.687164307E-1,-1.455871582E0,-5.712890625E-2
4.314139870E-1,-1.676483154E-1,-1.500610352E0,-3.860473633E-3
4.338553930E-1,-1.644439697E-1,-1.559204102E0,4.939270020E-2
4.363273170E-1,-1.601867676E-1,-1.628448486E0,9.733581543E-2
4.387992410E-1,-1.580505371E-1,-1.704071045E0,1.484680176E-1
4.412406470E-1,-1.506042480E-1,-1.780776978E0,1.921386719E-1
4.437125710E-1,-1.452789307E-1,-1.868133545E0,2.336883545E-1
4.461844950E-1,-1.367492676E-1,-1.956542969E0,2.805633545E-1
4.486564190E-1,-1.303558350E-1,-2.041763306E0,3.274383545E-1
4.510978250E-1,-1.165161133E-1,-2.132308960E0,3.721771240E-1
4.535697490E-1,-1.047973633E-1,-2.218597412E0,4.137268066E-1
4.560416730E-1,-9.521484375E-2,-2.297424316E0,4.510040283E-1
4.584830790E-1,-8.349609375E-2,-2.378387451E0,4.882812500E-1
4.609550030E-1,-7.389831543E-2,-2.449768066E0,5.213165283E-1
4.634269260E-1,-6.645202637E-2,-2.507293701E0,5.511322021E-1
4.658683330E-1,-5.473327637E-2,-2.553085327E0,5.756378174E-1
4.683402570E-1,-4.406738281E-2,-2.588241577E0,6.022644043E-1
4.708121800E-1,-3.341674805E-2,-2.606353760E0,6.257019043E-1
4.732535870E-1,-1.318359375E-2,-2.613815308E0,6.459503174E-1
4.757255100E-1,1.724243164E-3,-2.617004395E0,6.566009521E-1
4.781974340E-1,1.878356934E-2,-2.609558105E0,6.651153564E-1
4.806693580E-1,4.008483887E-2,-2.601028442E0,6.693878174E-1
4.831107640E-1,5.712890625E-2,-2.585052490E0,6.651153564E-1
4.855826880E-1,7.310485840E-2,-2.562683105E0,6.533966064E-1
4.880546120E-1,9.228515625E-2,-2.538177490E0,6.406250000E-1
4.904960180E-1,1.146545410E-1,-2.505157471E0,6.246490479E-1
4.929679420E-1,1.402130127E-1,-2.465744019E0,6.033325195E-1
4.954398660E-1,1.647186279E-1,-2.415679932E0,5.820312500E-1
4.978507550E-1,1.860198975E-1,-2.350692749E0,5.596618652E-1
5.003226780E-1,2.073211670E-1,-2.278259277E0,5.340881348E-1
5.027946020E-1,2.350311279E-1,-2.199432373E0,5.063934326E-1
5.052665260E-1,2.637939453E-1,-2.112075806E0,4.733734131E-1
5.077384500E-1,2.904205322E-1,-2.030044556E0,4.424743652E-1
5.102103740E-1,3.063964844E-1,-1.942703247E0,4.137268066E-1
5.126517800E-1,3.330230713E-1,-1.861740112E0,3.806915283E-1
5.151237040E-1,3.575286865E-1,-1.783966064E0,3.466033936E-1
5.175956280E-1,3.777770996E-1,-1.708343506E0,3.125152588E-1
5.200370340E-1,3.990783691E-1,-1.634841919E0,2.784271240E-1
5.225089580E-1,4.214477539E-1,-1.563461304E0,2.485961914E-1
5.249808820E-1,4.427490234E-1,-1.493148804E0,2.145080566E-1
5.274528050E-1,4.619293213E-1,-1.424972534E0,1.836242676E-1
5.298942120E-1,4.800415039E-1,-1.362121582E0,1.516571045E-1
5.323661350E-1,4.981384277E-1,-1.299270630E0,1.197052002E-1
5.348380590E-1,5.151824951E-1,-1.240692139E0,8.668518066E-2
5.372794660E-1,5.322265625E-1,-1.190612793E0,5.471801758E-2
5.397513890E-1,5.439453125E-1,-1.143753052E0,2.597045898E-2
5.422233130E-1,5.599365234E-1,-1.101135254E0,-5.996704102E-3
5.446647190E-1,5.748443604E-1,-1.071304321E0,-3.688049316E-2
5.471366430E-1,5.908203125E-1,-1.057464600E0,-6.459045410E-2
5.496085670E-1,6.067962646E-1,-1.054260254E0,-7.949829102E-2
5.520499730E-1,6.121215820E-1,-1.064910889E0,-9.335327148E-2
5.545218970E-1,6.259765625E-1,-1.077697754E0,-1.007995605E-1
5.569938210E-1,6.334381104E-1,-1.094741821E0,-1.061248779E-1
5.594352270E-1,6.440887451E-1,-1.114990234E0,-1.061248779E-1
5.619071510E-1,6.526031494E-1,-1.129898071E0,-1.071929932E-1
5.643790750E-1,6.568756104E-1,-1.136291504E0,-1.061248779E-1
5.668509990E-1,6.589965820E-1,-1.134155273E0,-1.071929932E-1
5.692924050E-1,6.579284668E-1,-1.119247437E0,-1.018676758E-1
5.717643290E-1,6.589965820E-1,-1.106460571E0,-9.228515625E-2
5.742362530E-1,6.526031494E-1,-1.080902100E0,-8.801269531E-2
5.766776590E-1,6.419525146E-1,-1.052139282E0,-8.163452148E-2
5.791495830E-1,6.313018799E-1,-1.030822754E0,-7.096862793E-2
5.816215070E-1,6.153259277E-1,-1.016983032E0,-6.564331055E-2
5.840629130E-1,6.025390625E-1,-1.006332397E0,-5.926513672E-2
5.865348370E-1,5.886993408E-1,-9.956817627E-1,-4.647827148E-2
5.890067600E-1,5.705871582E-1,-9.807586670E-1,-4.008483887E-2
5.914481670E-1,5.578002930E-1,-9.615936279E-1,-2.943420410E-2
5.939200910E-1,5.364990234E-1,-9.360198975E-1,-1.664733887E-2
5.963920140E-1,5.173187256E-1,-9.040679932E-1,3.967285156E-4
5.988639380E-1,4.960174561E-1,-8.699798584E-1,1.318359375E-2
6.013053440E-1,4.736480713E-1,-8.326873779E-1,2.809143066E-2
6.037772680E-1,4.533996582E-1,-8.007354736E-1,4.301452637E-2
6.062491920E-1,4.299621582E-1,-7.709045410E-1,5.899047852E-2
6.086905980E-1,4.118652344E-1,-7.453460693E-1,7.603454590E-2
6.111625220E-1,3.937530518E-1,-7.240295410E-1,8.880615234E-2
6.136344460E-1,3.745727539E-1,-7.048645020E-1,1.015930176E-1
6.160758520E-1,3.596649170E-1,-6.899414062E-1,1.133117676E-1
6.185477760E-1,3.458099365E-1,-6.803588867E-1,1.207733154E-1
6.210197000E-1,3.319702148E-1,-6.643829346E-1,1.282348633E-1
6.234611060E-1,3.202514648E-1,-6.537322998E-1,1.303558350E-1
6.259330300E-1,3.127899170E-1,-6.420135498E-1,1.314239502E-1
6.284049540E-1,3.063964844E-1,-6.302947998E-1,1.335601807E-1
6.308463600E-1,2.989349365E-1,-6.217651367E-1,1.335601807E-1
6.333182840E-1,2.946777344E-1,-6.132507324E-1,1.335601807E-1
6.357902080E-1,2.850952148E-1,-6.026000977E-1,1.292877197E-1
6.382621320E-1,2.787017822E-1,-5.983276367E-1,1.292877197E-1
6.407035380E-1,2.744445801E-1,-5.983276367E-1,1.282348633E-1
6.431754620E-1,2.723083496E-1,-6.057891846E-1,1.271667480E-1
6.456473850E-1,2.616577148E-1,-6.068572998E-1,1.229095459E-1
6.480887920E-1,2.552642822E-1,-6.068572998E-1,1.207733154E-1
6.505607160E-1,2.456817627E-1,-6.111145020E-1,1.122436523E-1
6.530326390E-1,2.382202148E-1,-6.089782715E-1,1.037292480E-1
6.554740460E-1,2.307586670E-1,-6.057891846E-1,9.201049805E-2
6.579459690E-1,2.211761475E-1,-6.036529541E-1,7.603454590E-2
6.604178930E-1,2.094573975E-1,-6.036529541E-1,6.111145020E-2
6.628593000E-1,1.924133301E-1,-6.036529541E-1,4.301452637E-2
6.653312230E-1,1.743011475E-1,-6.047210693E-1,2.490234375E-2
6.678031470E-1,1.615142822E-1,-6.036529541E-1,5.722045898E-3
6.702445530E-1,1.380920410E-1,-5.993957520E-1,-1.132202148E-2
6.727164770E-1,1.135864258E-1,-5.993957520E-1,-3.050231934E-2
6.751884010E-1,8.908081055E-2,-6.004638672E-1,-5.073547363E-2
6.776603250E-1,6.031799316E-2,-6.004638672E-1,-6.671142578E-2
6.801017310E-1,3.369140625E-2,-6.111145020E-1,-8.056640625E-2
6.825736550E-1,8.117675781E-3,-6.249694824E-1,-9.654235840E-2
6.850455790E-1,-1.637268066E-2,-6.324157715E-1,-1.125183105E-1
6.874869850E-1,-3.662109375E-2,-6.409454346E-1,-1.284942627E-1
6.899589090E-1,-5.899047852E-2,-6.537322998E-1,-1.455383301E-1
6.924308330E-1,-7.815551758E-2,-6.654510498E-1,-1.562042236E-1
6.948722390E-1,-9.307861328E-2,-6.750335693E-1,-1.657867432E-1
6.973441630E-1,-1.015930176E-1,-6.846160889E-1,-1.764373779E-1
6.998160870E-1,-1.111907959E-1,-6.931457520E-1,-1.806945801E-1
7.022574930E-1,-1.186370850E-1,-7.037963867E-1,-1.806945801E-1
7.047294170E-1,-1.175842285E-1,-7.133789062E-1,-1.806945801E-1
7.072013410E-1,-1.186370850E-1,-7.144470215E-1,-1.806945801E-1
7.096427470E-1,-1.154479980E-1,-7.155151367E-1,-1.711120605E-1
7.121146710E-1,-1.079864502E-1,-7.112579346E-1,-1.615295410E-1
7.145865940E-1,-1.047973633E-1,-7.005920410E-1,-1.498107910E-1
7.170280010E-1,-9.521484375E-2,-6.878204346E-1,-1.274414062E-1
7.194999250E-1,-8.242797852E-2,-6.761016846E-1,-1.029357910E-1
7.219718480E-1,-7.070922852E-2,-6.633148193E-1,-7.736206055E-2
7.244437720E-1,-5.792236328E-2,-6.537322998E-1,-4.327392578E-2
7.268851780E-1,-4.833984375E-2,-6.484069824E-1,-4.928588867E-3
7.293571020E-1,-4.087829590E-2,-6.452026367E-1,3.022766113E-2
7.318290260E-1,-2.597045898E-2,-6.409454346E-1,7.176208496E-2
7.342704320E-1,-1.318359375E-2,-6.409454346E-1,1.165161133E-1
7.367423560E-1,2.792358398E-3,-6.430664062E-1,1.612548828E-1
7.392142800E-1,1.878356934E-2,-6.473388672E-1,2.059936523E-1
7.416556860E-1,4.115295410E-2,-6.473388672E-1,2.549896240E-1
7.441276100E-1,5.499267578E-2,-6.484069824E-1,2.976074219E-1
7.465995340E-1,7.524108887E-2,-6.494598389E-1,3.402099609E-1
7.490714580E-1,8.908081055E-2,-6.484069824E-1,3.817596436E-1
7.515128640E-1,1.061248779E-1,-6.420135498E-1,4.147796631E-1
7.539847880E-1,1.210479736E-1,-6.388092041E-1,4.403533936E-1
7.564261940E-1,1.327667236E-1,-6.345520020E-1,4.691162109E-1
7.588981180E-1,1.455383301E-1,-6.302947998E-1,4.893493652E-1
7.613700420E-1,1.551361084E-1,-6.270904541E-1,5.063934326E-1
7.638419660E-1,1.615142822E-1,-6.239013672E-1,5.245056152E-1
7.662833720E-1,1.711120605E-1,-6.175079346E-1,5.383605957E-1
7.687552960E-1,1.743011475E-1,-6.196441650E-1,5.511322021E-1
7.712272190E-1,1.806945801E-1,-6.239013672E-1,5.681762695E-1
7.736686260E-1,1.838989258E-1,-6.270904541E-1,5.756378174E-1
7.761405500E-1,1.849517822E-1,-6.356201172E-1,5.894927979E-1
7.786124730E-1,1.860198975E-1,-6.441345215E-1,5.990753174E-1
7.810538800E-1,1.838989258E-1,-6.515960693E-1,6.012115479E-1
7.835258030E-1,1.753692627E-1,-6.569213867E-1,6.054687500E-1
7.859977270E-1,1.721801758E-1,-6.643829346E-1,6.044006348E-1
7.884391340E-1,1.679077148E-1,-6.707763672E-1,5.926818848E-1
7.909110570E-1,1.668548584E-1,-6.761016846E-1,5.862884521E-1
7.933829810E-1,1.689758301E-1,-6.835479736E-1,5.724487305E-1
7.958549050E-1,1.604614258E-1,-6.941986084E-1,5.554046631E-1
7.982963110E-1,1.593933105E-1,-6.995391846E-1,5.330352783E-1
8.007682350E-1,1.572570801E-1,-7.069854736E-1,5.117187500E-1
8.032401590E-1,1.561889648E-1,-7.144470215E-1,4.904174805E-1
8.056815650E-1,1.583251953E-1,-7.176361084E-1,4.669799805E-1
8.081534890E-1,1.604614258E-1,-7.250976562E-1,4.414215088E-1
8.106254130E-1,1.657867432E-1,-7.325592041E-1,4.201049805E-1
8.130668190E-1,1.668548584E-1,-7.485351562E-1,4.051971436E-1
8.155387430E-1,1.753692627E-1,-7.698364258E-1,3.902893066E-1
8.180106670E-1,1.806945801E-1,-7.858123779E-1,3.753662109E-1
8.204520730E-1,1.860198975E-1,-7.964782715E-1,3.679199219E-1
8.229239970E-1,1.892242432E-1,-7.964782715E-1,3.668518066E-1
8.253959210E-1,1.881561279E-1,-7.943420410E-1,3.657836914E-1
8.278373270E-1,1.817626953E-1,-7.954101562E-1,3.625793457E-1
8.303092510E-1,1.732330322E-1,-7.858123779E-1,3.636474609E-1
8.327811750E-1,1.657867432E-1,-7.751617432E-1,3.700408936E-1
8.352530980E-1,1.551361084E-1,-7.570495605E-1,3.764343262E-1
8.376945050E-1,1.455383301E-1,-7.432098389E-1,3.817596436E-1
8.401664280E-1,1.370239258E-1,-7.272338867E-1,3.828277588E-1
8.426078350E-1,1.348876953E-1,-7.133789062E-1,3.860168457E-1
8.450797590E-1,1.338195801E-1,-6.974029541E-1,3.902893066E-1
8.475516820E-1,1.370239258E-1,-6.792907715E-1,3.956146240E-1
8.499930890E-1,1.434173584E-1,-6.622467041E-1,3.998718262E-1
8.524650120E-1,1.540679932E-1,-6.569213867E-1,3.966674805E-1
8.549369360E-1,1.657867432E-1,-6.526641846E-1,3.988037109E-1
8.574088600E-1,1.806945801E-1,-6.515960693E-1,4.041290283E-1
8.598502660E-1,1.924133301E-1,-6.452026367E-1,4.094543457E-1
8.623221900E-1,2.041320801E-1,-6.377410889E-1,4.169158936E-1
8.647941140E-1,2.169189453E-1,-6.324157715E-1,4.264984131E-1
8.672660380E-1,2.297058105E-1,-6.206970215E-1,4.350280762E-1
8.697074440E-1,2.339630127E-1,-6.100463867E-1,4.467468262E-1
8.721793680E-1,2.446136475E-1,-5.951385498E-1,4.595184326E-1
8.746512920E-1,2.478027344E-1,-5.748901367E-1,4.691162109E-1
8.770926980E-1,2.552642822E-1,-5.546569824E-1,4.776306152E-1
8.795646220E-1,2.595214844E-1,-5.312194824E-1,4.808349609E-1
8.820365460E-1,2.552642822E-1,-5.067138672E-1,4.850921631E-1
8.844779520E-1,2.563323975E-1,-4.854125977E-1,4.893493652E-1
8.869498760E-1,2.520751953E-1,-4.598541260E-1,4.904174805E-1
8.893912820E-1,2.446136475E-1,-4.385375977E-1,4.872283936E-1
8.918632060E-1,2.414093018E-1,-4.161682129E-1,4.850921631E-1
8.943351300E-1,2.328948975E-1,-4.012603760E-1,4.850921631E-1
8.968070530E-1,2.211761475E-1,-3.842163086E-1,4.808349609E-1
8.992484600E-1,2.147827148E-1,-3.661041260E-1,4.797668457E-1
9.017203840E-1,2.030639648E-1,-3.501281738E-1,4.776306152E-1
9.041923070E-1,1.934814453E-1,-3.352050781E-1,4.744415283E-1
9.066337140E-1,1.881561279E-1,-3.213653564E-1,4.691162109E-1
9.091056370E-1,1.838989258E-1,-3.117828369E-1,4.627227783E-1
9.115775610E-1,1.817626953E-1,-3.011169434E-1,4.584655762E-1
9.140494850E-1,1.775054932E-1,-2.926025391E-1,4.510040283E-1
9.164908910E-1,1.732330322E-1,-2.862091064E-1,4.446105957E-1
9.189628150E-1,1.711120605E-1,-2.830200195E-1,4.371490479E-1
9.214347390E-1,1.721801758E-1,-2.798156738E-1,4.307708740E-1
9.238761450E-1,1.711120605E-1,-2.680969238E-1,4.264984131E-1
9.263480690E-1,1.700439453E-1,-2.680969238E-1,4.190521240E-1
9.288199930E-1,1.689758301E-1,-2.680969238E-1,4.094543457E-1
9.312613990E-1,1.764373779E-1,-2.649078369E-1,4.030609131E-1
9.337333230E-1,1.785583496E-1,-2.691650391E-1,3.945465088E-1
9.362052470E-1,1.753692627E-1,-2.766265869E-1,3.902893066E-1
9.386466530E-1,1.732330322E-1,-2.872772217E-1,3.849639893E-1
9.411185770E-1,1.711120605E-1,-2.915344238E-1,3.785705566E-1
9.435905010E-1,1.668548584E-1,-3.032531738E-1,3.732452393E-1
9.460319070E-1,1.647186279E-1,-3.181610107E-1,3.721771240E-1
9.485038310E-1,1.657867432E-1,-3.298797607E-1,3.700408936E-1
9.509757550E-1,1.636505127E-1,-3.437347412E-1,3.700408936E-1
9.534476780E-1,1.593933105E-1,-3.586425781E-1,3.689727783E-1
9.558890850E-1,1.540679932E-1,-3.746337891E-1,3.679199219E-1
9.583610090E-1,1.561889648E-1,-3.906097412E-1,3.721771240E-1
9.608329320E-1,1.561889648E-1,-4.119110107E-1,3.732452393E-1
9.632743390E-1,1.508636475E-1,-4.321441650E-1,3.721771240E-1
9.657462620E-1,1.508636475E-1,-4.545288086E-1,3.721771240E-1
9.682181860E-1,1.540679932E-1,-4.811553955E-1,3.764343262E-1
9.706595920E-1,1.625823975E-1,-5.003204346E-1,3.817596436E-1
9.731315160E-1,1.647186279E-1,-5.227050781E-1,3.849639893E-1
9.756034400E-1,1.743011475E-1,-5.493316650E-1,3.902893066E-1
9.780448460E-1,1.838989258E-1,-5.727691650E-1,3.945465088E-1
9.805167700E-1,1.966705322E-1,-5.962066650E-1,4.020080566E-1
9.829886940E-1,2.201080322E-1,-6.185760498E-1,4.073333740E-1
9.854606180E-1,2.382202148E-1,-6.420135498E-1,4.147796631E-1
9.879020240E-1,2.552642822E-1,-6.622467041E-1,4.233093262E-1
9.903739480E-1,2.776336670E-1,-6.824951172E-1,4.318237305E-1
9.928458720E-1,2.957458496E-1,-7.037963867E-1,4.382171631E-1
9.952872780E-1,3.159790039E-1,-7.197723389E-1,4.435424805E-1
9.977592020E-1,3.362274170E-1,-7.378845215E-1,4.456787109E-1
1.000231126E0,3.543395996E-1,-7.517242432E-1,4.488677979E-1
1.002672532E0,3.735046387E-1,-7.634429932E-1,4.563293457E-1
1.005144456E0,3.884277344E-1,-7.730407715E-1,4.573974609E-1
1.007616380E0,4.097290039E-1,-7.826232910E-1,4.605865479E-1
1.010057786E0,4.214477539E-1,-7.911376953E-1,4.648590088E-1
1.012529710E0,4.342346191E-1,-7.975311279E-1,4.691162109E-1
1.015001634E0,4.438171387E-1,-8.103179932E-1,4.701843262E-1
1.017443040E0,4.544677734E-1,-8.220367432E-1,4.744415283E-1
1.019914964E0,4.597930908E-1,-8.358917236E-1,4.765625000E-1
1.022386887E0,4.629974365E-1,-8.465423584E-1,4.744415283E-1
1.024858811E0,4.693756104E-1,-8.603820801E-1,4.744415283E-1
1.027300217E0,4.704437256E-1,-8.742370605E-1,4.733734131E-1
1.029772141E0,4.693756104E-1,-8.827514648E-1,4.733734131E-1
1.032244065E0,4.661865234E-1,-8.955383301E-1,4.744415283E-1
1.034685471E0,4.619293213E-1,-9.083251953E-1,4.755096436E-1
1.037157395E0,4.608612061E-1,-9.189758301E-1,4.733734131E-1
1.039629319E0,4.566040039E-1,-9.306945801E-1,4.712371826E-1
1.042070725E0,4.523315430E-1,-9.434814453E-1,4.701843262E-1
1.044542649E0,4.502105713E-1,-9.519958496E-1,4.680480957E-1
1.047014573E0,4.491424561E-1,-9.541320801E-1,4.691162109E-1
1.049455979E0,4.480743408E-1,-9.552001953E-1,4.723052979E-1
1.051927903E0,4.395599365E-1,-9.562683105E-1,4.733734131E-1
1.054399827E0,4.374237061E-1,-9.562683105E-1,4.765625000E-1
1.056841233E0,4.299621582E-1,-9.285583496E-1,4.786987305E-1
1.059313157E0,3.937530518E-1,-8.380126953E-1,4.808349609E-1
1.061785081E0,3.340911865E-1,-7.187042236E-1,4.872283936E-1
1.064226487E0,2.808380127E-1,-6.462707520E-1,4.946746826E-1
1.066698411E0,2.552642822E-1,-6.228332520E-1,5.000000000E-1
1.069170335E0,2.520751953E-1,-5.972595215E-1,5.085296631E-1
1.071642259E0,2.520751953E-1,-5.471954346E-1,5.191802979E-1
1.074083665E0,2.531280518E-1,-4.854125977E-1,5.351562500E-1
1.076555589E0,2.446136475E-1,-4.364166260E-1,5.458068848E-1
1.079027512E0,2.339630127E-1,-4.001922607E-1,5.585937500E-1
1.081468919E0,2.222442627E-1,-3.767547607E-1,5.639190674E-1
1.083940842E0,2.137145996E-1,-3.586425781E-1,5.713806152E-1
1.086412766E0,2.073211670E-1,-3.394775391E-1,5.767059326E-1
1.088854173E0,1.988067627E-1,-3.213653564E-1,5.820312500E-1
1.091326096E0,1.860198975E-1,-3.032531738E-1,5.841674805E-1
1.093798020E0,1.806945801E-1,-2.936706543E-1,5.841674805E-1
1.096239426E0,1.775054932E-1,-2.798156738E-1,5.873565674E-1
1.098711350E0,1.732330322E-1,-2.638397217E-1,5.830993652E-1
1.101183274E0,1.668548584E-1,-2.489318848E-1,5.798950195E-1
1.103624680E0,1.647186279E-1,-2.297515869E-1,5.809631348E-1
1.106096604E0,1.636505127E-1,-2.095184326E-1,5.788421631E-1
1.108568528E0,1.572570801E-1,-1.860809326E-1,5.777740479E-1
1.111040452E0,1.551361084E-1,-1.605072021E-1,5.756378174E-1
1.113481858E0,1.476745605E-1,-1.306762695E-1,5.756378174E-1
1.115953782E0,1.402130127E-1,-9.979248047E-2,5.798950195E-1
1.118425706E0,1.348876953E-1,-6.250000000E-2,5.820312500E-1
1.120867112E0,1.284942627E-1,-2.734375000E-2,5.884246826E-1
1.123339036E0,1.146545410E-1,1.312255859E-2,5.948181152E-1
1.125780442E0,1.071929932E-1,5.255126953E-2,6.139831543E-1
1.128252366E0,9.866333008E-2,9.196472168E-2,6.320953369E-1
1.130724290E0,8.056640625E-2,1.367034912E-1,6.470184326E-1
1.133196214E0,6.352233887E-2,1.484222412E-1,6.725769043E-1
1.135637620E0,5.073547363E-2,1.164550781E-1,7.077331543E-1
1.138109544E0,2.622985840E-2,1.100616455E-1,7.428894043E-1
1.140581467E0,1.239013672E-2,1.143341064E-1,7.769775391E-1
1.143022874E0,-1.211547852E-2,1.313781738E-1,8.046722412E-1
1.145494798E0,-3.448486328E-2,1.643981934E-1,8.291778564E-1
1.147966721E0,-4.833984375E-2,2.144622803E-1,8.472747803E-1
1.150438645E0,-6.217956543E-2,2.773132324E-1,8.589935303E-1
1.152880051E0,-7.603454590E-2,3.423004150E-1,8.653869629E-1
1.155351975E0,-8.668518066E-2,4.158020020E-1,8.717803955E-1
1.157823899E0,-9.414672852E-2,4.829101562E-1,8.749847412E-1
1.160265305E0,-8.987426758E-2,5.361785889E-1,8.867034912E-1
1.162737229E0,-8.987426758E-2,5.798492432E-1,8.962860107E-1
1.165209153E0,-8.561706543E-2,6.032867432E-1,9.069366455E-1
1.167650559E0,-7.603454590E-2,6.032867432E-1,9.175872803E-1
1.170122483E0,-6.111145020E-2,5.766601562E-1,9.218444824E-1
1.172594407E0,-3.768920898E-2,5.382995605E-1,9.271697998E-1
1.175035813E0,-8.926391602E-3,4.903717041E-1,9.314422607E-1
1.177507737E0,1.451110840E-2,4.168701172E-1,9.378356934E-1
1.179979661E0,3.155517578E-2,2.879638672E-1,9.623260498E-1
1.182451585E0,2.304077148E-2,1.047363281E-1,1.023056030E0
1.184892991E0,1.771545410E-2,-7.635498047E-2,1.075241089E0
1.187364915E0,1.557922363E-2,-2.606506348E-1,1.128509521E0
1.189806321E0,1.132202148E-2,-4.577178955E-1,1.183898926E0
1.192278245E0,1.451110840E-2,-6.558532715E-1,1.237167358E0
1.194750169E0,1.664733887E-2,-8.497314453E-1,1.288299561E0
1.197222092E0,2.090454102E-2,-1.038284302E0,1.335174561E0
1.199663499E0,2.622985840E-2,-1.222579956E0,1.379913330E0
1.202135423E0,3.794860840E-2,-1.399414062E0,1.423583984E0
1.204607346E0,5.073547363E-2,-1.576248169E0,1.455551147E0
1.207048753E0,5.924987793E-2,-1.750946045E0,1.483245850E0
1.209520676E0,6.138610840E-2,-1.913940430E0,1.509872437E0
1.211992600E0,7.096862793E-2,-2.071594238E0,1.533309937E0
1.214434007E0,8.161926270E-2,-2.223922729E0,1.549285889E0
1.216905930E0,8.482360840E-2,-2.366668701E0,1.557815552E0
1.219377854E0,8.589172363E-2,-2.505157471E0,1.562072754E0
1.221849778E0,8.695983887E-2,-2.641510010E0,1.559936523E0
1.224291184E0,8.482360840E-2,-2.782119751E0,1.547164917E0
1.226763108E0,7.843017578E-2,-2.923797607E0,1.525848389E0
1.229235032E0,7.310485840E-2,-3.070816040E0,1.498153687E0
1.231676438E0,6.457519531E-2,-3.222076416E0,1.460876465E0
1.234148362E0,5.073547363E-2,-3.381866455E0,1.414001465E0
1.236620286E0,2.516174316E-2,-3.550186157E0,1.360733032E0
1.239061692E0,-3.601074219E-3,-3.736602783E0,1.291503906E0
1.241533616E0,-3.448486328E-2,-3.925155640E0,1.215866089E0
1.244005540E0,-8.349609375E-2,-4.124359131E0,1.131713867E0
1.246446946E0,-1.442108154E-1,-4.316101074E0,1.033706665E0
1.248918870E0,-2.070617676E-1,-4.490814209E0,9.378356934E-1
1.251390794E0,-2.773742676E-1,-4.653793335E0,8.376922607E-1
1.253862717E0,-3.434143066E-1,-4.777359009E0,7.428894043E-1
1.256304124E0,-4.137268066E-1,-4.861526489E0,6.459503174E-1
1.258776048E0,-4.744415283E-1,-4.919052124E0,5.596618652E-1
1.261217454E0,-5.266418457E-1,-4.945678711E0,4.872283936E-1
1.263689378E0,-5.735168457E-1,-4.947799683E0,4.211730957E-1
1.266161301E0,-6.097259521E-1,-4.921173096E0,3.764343262E-1
1.268633225E0,-6.299743652E-1,-4.867919922E0,3.487396240E-1
1.271074632E0,-6.342315674E-1,-4.804000854E0,3.412780762E-1
1.273546555E0,-6.267700195E-1,-4.727294922E0,3.540649414E-1
1.276018479E0,-6.001434326E-1,-4.643142700E0,3.966674805E-1
1.278459885E0,-5.554046631E-1,-4.547271729E0,4.616546631E-1
1.280931809E0,-4.914855957E-1,-4.476959229E0,5.532684326E-1
1.283403733E0,-4.211730957E-1,-4.446060181E0,6.651153564E-1
1.285875657E0,-3.348846436E-1,-4.450332642E0,7.993469238E-1
1.288317063E0,-2.443389893E-1,-4.490814209E0,9.442138672E-1
1.290788987E0,-1.495361328E-1,-4.557922363E0,1.095489502E0
1.293230393E0,-4.940795898E-2,-4.649536133E0,1.248886108E0
1.295702317E0,5.392456055E-2,-4.762451172E0,1.394821167E0
1.298174241E0,1.572570801E-1,-4.876434326E0,1.532241821E0
1.300646165E0,2.744445801E-1,-4.985092163E0,1.662216187E0
1.303087571E0,4.001464844E-1,-5.085220337E0,1.782577515E0
1.305559495E0,5.237121582E-1,-5.168319702E0,1.890182495E0
1.308031419E0,6.483459473E-1,-5.237564087E0,1.991378784E0
1.310472825E0,7.772369385E-1,-5.290817261E0,2.087249756E0
1.312944749E0,9.029388428E-1,-5.323852539E0,2.172470093E0
1.315416673E0,1.023315430E0,-5.338760376E0,2.249176025E0
1.317858079E0,1.143692017E0,-5.337692261E0,2.310958862E0
1.320330003E0,1.261932373E0,-5.321716309E0,2.358886719E0
1.322801926E0,1.368469238E0,-5.289764404E0,2.390853882E0
1.325243333E0,1.474990845E0,-5.238616943E0,2.404693604E0
1.327715257E0,1.571929932E0,-5.173645020E0,2.407897949E0
1.330187180E0,1.652893066E0,-5.090545654E0,2.405761719E0
1.332628587E0,1.722137451E0,-4.997879028E0,2.395111084E0
1.335100510E0,1.780715942E0,-4.883895874E0,2.381256104E0
1.337572434E0,1.829727173E0,-4.758193970E0,2.365280151E0
1.340044358E0,1.867004395E0,-4.613311768E0,2.351440430E0
1.342485764E0,1.889373779E0,-4.450332642E0,2.336517334E0
1.344957688E0,1.905364990E0,-4.285217285E0,2.321609497E0
1.347429612E0,1.905364990E0,-4.097732544E0,2.316284180E0
1.349871018E0,1.897903442E0,-3.882537842E0,2.312026978E0
1.352342942E0,1.885116577E0,-3.662033081E0,2.308822632E0
1.354814866E0,1.867004395E0,-3.438323975E0,2.309890747E0
1.357256272E0,1.840377808E0,-3.211425781E0,2.313079834E0
1.359728196E0,1.805221558E0,-2.994110107E0,2.309890747E0
1.362200120E0,1.765808105E0,-2.782119751E0,2.315216064E0
1.364641526E0,1.720001221E0,-2.572265625E0,2.317352295E0
1.367113450E0,1.672073364E0,-2.365600586E0,2.321609497E0
1.369585374E0,1.615600586E0,-2.169601440E0,2.317352295E0
1.372026780E0,1.552749634E0,-1.978912354E0,2.313079834E0
1.374498704E0,1.490966797E0,-1.801010132E0,2.313079834E0
1.376970628E0,1.424926758E0,-1.628448486E0,2.304565430E0
1.379442551E0,1.357818604E0,-1.460128784E0,2.293914795E0
1.381883958E0,1.286437988E0,-1.312057495E0,2.281127930E0
1.384355882E0,1.215072632E0,-1.169311523E0,2.258758545E0
1.386827805E0,1.143692017E0,-1.039352417E0,2.225738525E0
1.389269212E0,1.072326660E0,-9.232330322E-1,2.192718506E0
1.391741135E0,1.004150391E0,-8.177795410E-1,2.151168823E0
1.394213059E0,9.466247559E-1,-7.208404541E-1,2.106430054E0
1.396654466E0,8.901672363E-1,-6.356201172E-1,2.056350708E0
1.399126389E0,8.400878906E-1,-5.589141846E-1,2.002029419E0
1.401598313E0,8.038787842E-1,-4.864807129E-1,1.938110352E0
1.404039719E0,7.719116211E-1,-4.246978760E-1,1.876327515E0
1.406511643E0,7.474212646E-1,-3.756866455E-1,1.810287476E0
1.408983567E0,7.388916016E-1,-3.330841064E-1,1.742111206E0
1.411455491E0,7.378234863E-1,-2.947387695E-1,1.677124023E0
1.413896897E0,7.420959473E-1,-2.713012695E-1,1.608947754E0
1.416368821E0,7.633972168E-1,-2.499847412E-1,1.543960571E0
1.418840745E0,7.900238037E-1,-2.361450195E-1,1.483245850E0
1.421282151E0,8.177185059E-1,-2.286834717E-1,1.423583984E0
1.423754075E0,8.592681885E-1,-2.265625000E-1,1.363937378E0
1.426225999E0,9.136047363E-1,-2.350769043E-1,1.309600830E0
1.428667405E0,9.604644775E-1,-2.563781738E-1,1.262741089E0
1.431139329E0,1.014801025E0,-2.723541260E-1,1.220123291E0
1.433611253E0,1.075515747E0,-3.011169434E-1,1.180709839E0
1.436052659E0,1.139434814E0,-3.298797607E-1,1.147689819E0
1.438524583E0,1.204421997E0,-3.650360107E-1,1.121047974E0
1.440996507E0,1.273651123E0,-4.033813477E-1,1.094421387E0
1.443437913E0,1.341827393E0,-4.438629150E-1,1.075241089E0
1.445909837E0,1.410018921E0,-4.896697998E-1,1.063537598E0
1.448381760E0,1.483520508E0,-5.312194824E-1,1.048614502E0
1.450823167E0,1.552749634E0,-5.759582520E-1,1.040100098E0
1.453295091E0,1.625198364E0,-6.206970215E-1,1.037963867E0
1.455767014E0,1.698699951E0,-6.633148193E-1,1.035827637E0
1.458238938E0,1.761550903E0,-7.133789062E-1,1.035827637E0
1.460680344E0,1.833984375E0,-7.613220215E-1,1.042221069E0
1.463152268E0,1.903228760E0,-8.060607910E-1,1.048614502E0
1.465624192E0,1.974594116E0,-8.518676758E-1,1.060333252E0
1.468065598E0,2.047042847E0,-8.966064453E-1,1.074188232E0
1.470537522E0,2.115219116E0,-9.392242432E-1,1.095489502E0
1.473009446E0,2.181259155E0,-9.818267822E-1,1.118927002E0
1.475450852E0,2.249435425E0,-1.020172119E0,1.140228271E0
1.477922776E0,2.318679810E0,-1.059585571E0,1.164733887E0
1.480394700E0,2.385787964E0,-1.096878052E0,1.191360474E0
1.482836106E0,2.451843262E0,-1.134155273E0,1.213729858E0
1.485308030E0,2.518951416E0,-1.169311523E0,1.235031128E0
1.487779954E0,2.579666138E0,-1.202331543E0,1.251022339E0
1.490251878E0,2.638259888E0,-1.232162476E0,1.269119263E0
1.492693284E0,2.691528320E0,-1.259857178E0,1.284042358E0
1.495165208E0,2.749053955E0,-1.280105591E0,1.295761108E0
1.497637132E0,2.801254272E0,-1.304595947E0,1.310668945E0
1.500078538E0,2.843856812E0,-1.320587158E0,1.323455811E0
1.502550462E0,2.882202148E0,-1.337631226E0,1.337310791E0
1.505022385E0,2.920562744E0,-1.355728149E0,1.350082397E0
1.507463792E0,2.949325562E0,-1.373840332E0,1.362869263E0
1.509935716E0,2.975952148E0,-1.388763428E0,1.383102417E0
1.512407639E0,2.995132446E0,-1.407928467E0,1.402282715E0
1.514849046E0,3.001510620E0,-1.424972534E0,1.419326782E0
1.517320969E0,3.007904053E0,-1.442016602E0,1.440628052E0
1.519792893E0,3.013229370E0,-1.460128784E0,1.461944580E0
1.522234300E0,3.003646851E0,-1.475051880E0,1.482177734E0
1.524706223E0,2.992996216E0,-1.495285034E0,1.498153687E0
1.527178147E0,2.983413696E0,-1.519790649E0,1.519470215E0
1.529619553E0,2.962097168E0,-1.545349121E0,1.535446167E0
1.532091477E0,2.936538696E0,-1.574111938E0,1.552490234E0
1.534563401E0,2.910964966E0,-1.603942871E0,1.568466187E0
1.537035325E0,2.880081177E0,-1.634841919E0,1.583374023E0
1.539476731E0,2.849182129E0,-1.663589478E0,1.597229004E0
1.541948655E0,2.820419312E0,-1.691299438E0,1.608947754E0
1.544420579E0,2.785263062E0,-1.723251343E0,1.619598389E0
1.546861985E0,2.752243042E0,-1.754150391E0,1.630249023E0
1.549333909E0,2.718154907E0,-1.785034180E0,1.640899658E0
1.551805833E0,2.682998657E0,-1.821258545E0,1.650497437E0
1.554247239E0,2.640396118E0,-1.856414795E0,1.661148071E0
1.556719163E0,2.604171753E0,-1.893692017E0,1.667541504E0
1.559191087E0,2.567947388E0,-1.937362671E0,1.674987793E0
1.561632493E0,2.529602051E0,-1.981048584E0,1.678192139E0
1.564104417E0,2.488052368E0,-2.021530151E0,1.679260254E0
1.566576341E0,2.450775146E0,-2.068389893E0,1.676055908E0
1.569048264E0,2.413497925E0,-2.115264893E0,1.669662476E0
1.571489671E0,2.369812012E0,-2.167465210E0,1.660079956E0
1.573961594E0,2.330398560E0,-2.223922729E0,1.651550293E0
1.576433518E0,2.288848877E0,-2.285705566E0,1.639831543E0
1.578874925E0,2.248367310E0,-2.347503662E0,1.629180908E0
1.581346848E0,2.212158203E0,-2.410354614E0,1.619598389E0
1.583818772E0,2.170608521E0,-2.479583740E0,1.604690552E0
1.586260178E0,2.137588501E0,-2.543502808E0,1.590835571E0
1.588732102E0,2.102432251E0,-2.608489990E0,1.574859619E0
1.591204026E0,2.066207886E0,-2.675598145E0,1.554611206E0
1.593645432E0,2.029998779E0,-2.736312866E0,1.534378052E0
1.596117356E0,1.995910645E0,-2.793838501E0,1.513076782E0
1.598589280E0,1.962890625E0,-2.849243164E0,1.487503052E0
1.601030686E0,1.924530029E0,-2.900375366E0,1.454483032E0
1.603502610E0,1.889373779E0,-2.948303223E0,1.426788330E0
1.605974534E0,1.847839355E0,-2.993041992E0,1.394821167E0
1.608446458E0,1.802032471E0,-3.035659790E0,1.362869263E0
1.610887864E0,1.758346558E0,-3.065490723E0,1.338363647E0
1.613359788E0,1.712539673E0,-3.089981079E0,1.315994263E0
1.615831712E0,1.664611816E0,-3.112350464E0,1.290435791E0
1.618273118E0,1.616668701E0,-3.124069214E0,1.268066406E0
1.620745042E0,1.569793701E0,-3.129394531E0,1.247817993E0
1.623216966E0,1.522933960E0,-3.125137329E0,1.227584839E0
1.625658372E0,1.480316162E0,-3.117675781E0,1.204147339E0
1.628130296E0,1.431320190E0,-3.097442627E0,1.189224243E0
1.630602219E0,1.389770508E0,-3.052703857E0,1.179641724E0
1.633043626E0,1.355682373E0,-3.002639771E0,1.178573608E0
1.635515550E0,1.322662354E0,-2.952560425E0,1.178573608E0
1.637987473E0,1.287506104E0,-2.908889771E0,1.183898926E0
1.640428880E0,1.245956421E0,-2.874801636E0,1.190292358E0
1.642900803E0,1.195892334E0,-2.846038818E0,1.191360474E0
1.645372727E0,1.139434814E0,-2.815155029E0,1.186035156E0
1.647844651E0,1.086166382E0,-2.782119751E0,1.174316406E0
1.650286057E0,1.029708862E0,-2.733123779E0,1.162597656E0
1.652757981E0,9.711151123E-1,-2.683059692E0,1.151947021E0
1.655229905E0,9.189300537E-1,-2.629791260E0,1.140228271E0
1.657671311E0,8.720550537E-1,-2.569076538E0,1.131713867E0
1.660143235E0,8.294372559E-1,-2.503021240E0,1.123184204E0
1.662615159E0,7.836303711E-1,-2.439102173E0,1.119995117E0
1.665056565E0,7.410278320E-1,-2.376251221E0,1.111465454E0
1.667528489E0,7.016143799E-1,-2.313415527E0,1.105072021E0
1.670000413E0,6.643218994E-1,-2.245223999E0,1.095489502E0
1.672441819E0,6.281127930E-1,-2.182373047E0,1.088027954E0
1.674913743E0,5.918884277E-1,-2.117401123E0,1.077377319E0
1.677385667E0,5.546112061E-1,-2.043899536E0,1.064590454E0
1.679827073E0,5.226440430E-1,-1.971450806E0,1.055007935E0
1.682298997E0,4.938812256E-1,-1.902221680E0,1.047546387E0
1.684770921E0,4.651184082E-1,-1.832977295E0,1.042221069E0
1.687242844E0,4.395599365E-1,-1.762664795E0,1.035827637E0
1.689684251E0,4.161224365E-1,-1.697692871E0,1.030502319E0
1.692156175E0,3.948211670E-1,-1.633773804E0,1.024108887E0
1.694628098E0,3.756408691E-1,-1.568786621E0,1.016662598E0
1.697069505E0,3.564605713E-1,-1.505935669E0,1.011337280E0
1.699541428E0,3.415527344E-1,-1.444152832E0,1.004943848E0
1.701982835E0,3.255767822E-1,-1.384490967E0,9.921569824E-1
1.704454759E0,3.159790039E-1,-1.324844360E0,9.857635498E-1
1.706926682E0,3.010711670E-1,-1.265182495E0,9.740447998E-1
1.709398606E0,2.904205322E-1,-1.205535889E0,9.591369629E-1
1.711840012E0,2.797698975E-1,-1.149078369E0,9.452819824E-1
1.714311936E0,2.701721191E-1,-1.097946167E0,9.346313477E-1
1.716783860E0,2.574005127E-1,-1.046813965E0,9.186553955E-1
1.719225266E0,2.467498779E-1,-9.935455322E-1,9.080047607E-1
1.721697190E0,2.350311279E-1,-9.424133301E-1,8.973541260E-1
1.724169114E0,2.243652344E-1,-8.870239258E-1,8.867034912E-1
1.726641038E0,2.094573975E-1,-8.390808105E-1,8.803100586E-1
1.729082444E0,1.892242432E-1,-7.847595215E-1,8.696594238E-1
1.731554368E0,1.828308105E-1,-7.325592041E-1,8.621978760E-1
1.734026292E0,1.657867432E-1,-6.782226562E-1,8.536682129E-1
1.736467698E0,1.487426758E-1,-6.313629150E-1,8.472747803E-1
1.738939622E0,1.274261475E-1,-5.834197998E-1,8.440856934E-1
1.741411546E0,1.071929932E-1,-5.365447998E-1,8.366241455E-1
1.743852952E0,9.121704102E-2,-4.886169434E-1,8.302307129E-1
1.746324876E0,7.096862793E-2,-4.438629150E-1,8.259735107E-1
1.748796800E0,5.287170410E-2,-4.001922607E-1,8.185272217E-1
1.751238206E0,3.155517578E-2,-3.639678955E-1,8.121337891E-1
1.753710130E0,1.025390625E-2,-3.266906738E-1,8.089294434E-1
1.756182053E0,-8.926391602E-3,-2.883453369E-1,8.014831543E-1
1.758623460E0,-2.809143066E-2,-2.585144043E-1,7.929534912E-1
1.761095384E0,-5.259704590E-2,-2.308197021E-1,7.865600586E-1
1.763567307E0,-7.389831543E-2,-2.063140869E-1,7.790985107E-1
1.766039231E0,-9.201049805E-2,-1.850128174E-1,7.737731934E-1
1.768480637E0,-1.090545654E-1,-1.647644043E-1,7.631225586E-1
1.770952561E0,-1.293029785E-1,-1.509246826E-1,7.567291260E-1
1.773424485E0,-1.442108154E-1,-1.402740479E-1,7.492828369E-1
1.775865891E0,-1.559295654E-1,-1.328125000E-1,7.396850586E-1
1.778337815E0,-1.708374023E-1,-1.264190674E-1,7.311706543E-1
1.780809739E0,-1.814880371E-1,-1.242828369E-1,7.173156738E-1
1.783251145E0,-1.868133545E-1,-1.264190674E-1,7.002716064E-1
1.785723069E0,-1.953430176E-1,-1.264190674E-1,6.853637695E-1
1.788194993E0,-2.006683350E-1,-1.285552979E-1,6.715087891E-1
1.790636399E0,-2.017364502E-1,-1.328125000E-1,6.544647217E-1
1.793108323E0,-1.985321045E-1,-1.349487305E-1,6.374206543E-1
1.795580247E0,-1.985321045E-1,-1.328125000E-1,6.171875000E-1
1.798052171E0,-1.889495850E-1,-1.317443848E-1,6.012115479E-1
1.800493577E0,-1.804351807E-1,-1.328125000E-1,5.852203369E-1
1.802965501E0,-1.719055176E-1,-1.264190674E-1,5.692443848E-1
1.805437425E0,-1.612548828E-1,-1.189575195E-1,5.532684326E-1
1.807878831E0,-1.463470459E-1,-1.083068848E-1,5.372924805E-1
1.810350755E0,-1.346282959E-1,-9.446716309E-2,5.266418457E-1
1.812822678E0,-1.229095459E-1,-8.061218262E-2,5.159912109E-1
1.815264085E0,-1.133117676E-1,-6.143188477E-2,5.063934326E-1
1.817736009E0,-1.026611328E-1,-4.226684570E-2,4.978790283E-1
1.820207932E0,-9.201049805E-2,-2.841186523E-2,4.904174805E-1
1.822649339E0,-8.135986328E-2,-9.246826172E-3,4.776306152E-1
1.825121262E0,-7.070922852E-2,1.525878906E-2,4.712371826E-1
1.827593186E0,-6.431579590E-2,3.550720215E-2,4.669799805E-1
1.830065110E0,-5.899047852E-2,5.680847168E-2,4.616546631E-1
1.832506516E0,-4.620361328E-2,7.810974121E-2,4.573974609E-1
1.834978440E0,-4.194641113E-2,1.036834717E-1,4.531402588E-1
1.837419846E0,-3.555297852E-2,1.292419434E-1,4.541931152E-1
1.839891770E0,-3.555297852E-2,1.526794434E-1,4.520721436E-1
1.842363694E0,-3.129577637E-2,1.793060303E-1,4.541931152E-1
1.844835618E0,-2.597045898E-2,2.059478760E-1,4.573974609E-1
1.847277024E0,-1.957702637E-2,2.261810303E-1,4.616546631E-1
1.849748948E0,-1.531982422E-2,2.496185303E-1,4.669799805E-1
1.852220872E0,-1.211547852E-2,2.751770020E-1,4.701843262E-1
1.854662278E0,-6.790161133E-3,2.996826172E-1,4.733734131E-1
1.857134202E0,2.792358398E-3,3.220520020E-1,4.765625000E-1
1.859606126E0,1.025390625E-2,3.465576172E-1,4.786987305E-1
1.862047532E0,1.771545410E-2,3.678588867E-1,4.776306152E-1
1.864519456E0,3.582763672E-2,3.902282715E-1,4.712371826E-1
1.866991380E0,4.647827148E-2,4.072723389E-1,4.680480957E-1
1.869432786E0,6.245422363E-2,4.211273193E-1,4.691162109E-1
1.871904710E0,8.056640625E-2,4.317779541E-1,4.712371826E-1
1.874376634E0,1.007995605E-1,4.445648193E-1,4.733734131E-1
1.876818040E0,1.231689453E-1,4.509582520E-1,4.819030762E-1
1.879289964E0,1.498107910E-1,4.584045410E-1,4.872283936E-1
1.881761887E0,1.764373779E-1,4.616088867E-1,4.989471436E-1
1.884233811E0,2.094573975E-1,4.594726562E-1,5.117187500E-1
1.886675217E0,2.424774170E-1,4.605407715E-1,5.223693848E-1
1.889147141E0,2.818908691E-1,4.541473389E-1,5.351562500E-1
1.891619065E0,3.223724365E-1,4.498901367E-1,5.468750000E-1
1.894060471E0,3.639221191E-1,4.381713867E-1,5.617980957E-1
1.896532395E0,4.107971191E-1,4.232635498E-1,5.735015869E-1
1.899004319E0,4.544677734E-1,4.019470215E-1,5.862884521E-1
1.901445725E0,4.992065430E-1,3.859710693E-1,6.033325195E-1
1.903917649E0,5.460815430E-1,3.614654541E-1,6.171875000E-1
1.906389573E0,5.972137451E-1,3.359069824E-1,6.289062500E-1
1.908830979E0,6.462097168E-1,3.103332520E-1,6.416931152E-1
1.911302903E0,6.920166016E-1,2.847747803E-1,6.587371826E-1
1.913774827E0,7.431488037E-1,2.570800781E-1,6.704406738E-1
1.916216233E0,7.953491211E-1,2.304382324E-1,6.853637695E-1
1.918688157E0,8.432922363E-1,2.006225586E-1,7.002716064E-1
1.921160081E0,8.880310059E-1,1.675872803E-1,7.130584717E-1
1.923601487E0,9.349060059E-1,1.377716064E-1,7.258453369E-1
1.926073411E0,9.839019775E-1,1.100616455E-1,7.450103760E-1
1.928545335E0,1.027587891E0,7.597351074E-2,7.663269043E-1
1.931017259E0,1.067001343E0,5.041503906E-2,7.865600586E-1
1.933458665E0,1.107482910E0,2.911376953E-2,8.025360107E-1
1.935930589E0,1.144760132E0,4.608154297E-3,8.153228760E-1
1.938402512E0,1.180984497E0,-1.457214355E-2,8.323669434E-1
1.940843919E0,1.215072632E0,-3.268432617E-2,8.472747803E-1
1.943315842E0,1.247024536E0,-5.610656738E-2,8.611297607E-1
1.945787766E0,1.275787354E0,-7.635498047E-2,8.717803955E-1
1.948229173E0,1.301361084E0,-9.233093262E-2,8.813629150E-1
1.950701096E0,1.322662354E0,-1.115112305E-1,8.930816650E-1
1.953173020E0,1.340774536E0,-1.285552979E-1,9.026794434E-1
1.955644944E0,1.358871460E0,-1.402740479E-1,9.101257324E-1
1.958086350E0,1.375915527E0,-1.519927979E-1,9.133300781E-1
1.960558274E0,1.388702393E0,-1.669006348E-1,9.207916260E-1
1.963030198E0,1.399353027E0,-1.786193848E-1,9.314422607E-1
1.965471604E0,1.407882690E0,-1.839447021E-1,9.356994629E-1
1.967943528E0,1.419601440E0,-1.914062500E-1,9.367675781E-1
1.970415452E0,1.427062988E0,-1.956634521E-1,9.388885498E-1
1.972856858E0,1.435577393E0,-1.967315674E-1,9.452819824E-1
1.975328782E0,1.444107056E0,-1.956634521E-1,9.452819824E-1
1.977800706E0,1.446228027E0,-1.903381348E-1,9.463500977E-1
1.980242112E0,1.453689575E0,-1.807556152E-1,9.474182129E-1
1.982714036E0,1.459014893E0,-1.658325195E-1,9.527435303E-1
1.985185960E0,1.459014893E0,-1.477203369E-1,9.506072998E-1
1.987627366E0,1.462203979E0,-1.242828369E-1,9.559326172E-1
1.990099290E0,1.457946777E0,-1.019134521E-1,9.527435303E-1
1.992571214E0,1.459014893E0,-7.847595215E-2,9.516754150E-1
1.995043137E0,1.456878662E0,-5.505371094E-2,9.463500977E-1
1.997484544E0,1.448364258E0,-3.054809570E-2,9.399566650E-1
1.999956467E0,1.444107056E0,3.509521484E-4,9.335632324E-1
2.002428391E0,1.435577393E0,2.590942383E-2,9.197235107E-1
2.004869798E0,1.424926758E0,4.934692383E-2,9.111938477E-1
2.007341721E0,1.416397095E0,7.704162598E-2,8.962860107E-1
2.009813645E0,1.407882690E0,1.079406738E-1,8.739166260E-1
2.012255051E0,1.396163940E0,1.377716064E-1,8.536682129E-1
2.014726975E0,1.379119873E0,1.750488281E-1,8.345031738E-1
2.017198899E0,1.368469238E0,2.133941650E-1,8.089294434E-1
2.019640305E0,1.352493286E0,2.506866455E-1,7.833709717E-1
2.022112229E0,1.338638306E0,2.922363281E-1,7.556762695E-1
2.024584153E0,1.318405151E0,3.380279541E-1,7.237091064E-1
2.027025559E0,1.299224854E0,3.870391846E-1,6.938781738E-1
2.029497483E0,1.282180786E0,4.349670410E-1,6.608581543E-1
2.031969407E0,1.255554199E0,4.850463867E-1,6.225128174E-1
2.034441331E0,1.232116699E0,5.351104736E-1,5.916137695E-1
2.036882737E0,1.208679199E0,5.883789062E-1,5.554046631E-1
2.039354661E0,1.186309814E0,6.395111084E-1,5.181121826E-1
2.041826585E0,1.162872314E0,6.874389648E-1,4.882812500E-1
2.044267991E0,1.131973267E0,7.385711670E-1,4.531402588E-1
2.046739915E0,1.105346680E0,7.811889648E-1,4.211730957E-1
2.049211839E0,1.074447632E0,8.259277344E-1,3.945465088E-1
2.051653245E0,1.042495728E0,8.706665039E-1,3.711090088E-1
2.054125169E0,1.011596680E0,9.132843018E-1,3.466033936E-1
2.056597092E0,9.785766602E-1,9.548187256E-1,3.221130371E-1
2.059038499E0,9.412994385E-1,9.942321777E-1,2.976074219E-1
2.061510423E0,9.018859863E-1,1.026199341E0,2.763061523E-1
2.063982346E0,8.709869385E-1,1.062408447E0,2.571258545E-1
2.066423753E0,8.337097168E-1,1.092239380E0,2.390136719E-1
2.068895676E0,7.974853516E-1,1.124206543E0,2.262268066E-1
2.071367600E0,7.612609863E-1,1.152969360E0,2.166442871E-1
2.073839524E0,7.282409668E-1,1.175338745E0,2.102508545E-1
2.076280930E0,6.888275146E-1,1.201965332E0,2.049255371E-1
2.078752854E0,6.494140625E-1,1.224334717E0,2.038574219E-1
2.081224778E0,6.174621582E-1,1.238189697E0,2.081298828E-1
2.083666184E0,5.791015625E-1,1.253097534E0,2.155761719E-1
2.086138108E0,5.460815430E-1,1.256286621E0,2.262268066E-1
2.088610032E0,5.183868408E-1,1.259490967E0,2.379455566E-1
2.091051438E0,4.842987061E-1,1.259490967E0,2.560577393E-1
2.093523362E0,4.533996582E-1,1.256286621E0,2.741699219E-1
2.095995286E0,4.182434082E-1,1.246704102E0,2.965393066E-1
2.098436692E0,3.905487061E-1,1.232864380E0,3.178405762E-1
2.100908616E0,3.553924561E-1,1.215820312E0,3.412780762E-1
2.103380540E0,3.234405518E-1,1.194503784E0,3.647155762E-1
2.105852464E0,2.946777344E-1,1.177459717E0,3.870849609E-1
2.108293870E0,2.627258301E-1,1.159347534E0,4.073333740E-1
2.110765794E0,2.318267822E-1,1.139114380E0,4.222412109E-1
2.113207200E0,2.009429932E-1,1.122070312E0,4.382171631E-1
2.115679124E0,1.668548584E-1,1.100769043E0,4.499359131E-1
2.118151048E0,1.370239258E-1,1.083724976E0,4.605865479E-1
2.120622971E0,1.029357910E-1,1.067733765E0,4.691162109E-1
2.123064378E0,7.096862793E-2,1.049636841E0,4.733734131E-1
2.125536301E0,3.688049316E-2,1.034713745E0,4.765625000E-1
2.128008225E0,6.713867188E-4,1.016601562E0,4.776306152E-1
2.130449632E0,-3.555297852E-2,1.001693726E0,4.755096436E-1
2.132921555E0,-7.603454590E-2,9.835815430E-1,4.765625000E-1
2.135393479E0,-1.165161133E-1,9.654693604E-1,4.755096436E-1
2.137834885E0,-1.537933350E-1,9.430999756E-1,4.744415283E-1
2.140306809E0,-1.996002197E-1,9.250030518E-1,4.765625000E-1
2.142778733E0,-2.507324219E-1,9.058227539E-1,4.733734131E-1
2.145250657E0,-2.912139893E-1,8.866424561E-1,4.765625000E-1
2.147692063E0,-3.412780762E-1,8.653411865E-1,4.808349609E-1
2.150163987E0,-3.934783936E-1,8.440399170E-1,4.829559326E-1
2.152635911E0,-4.414215088E-1,8.248596191E-1,4.872283936E-1
2.155077317E0,-4.882965088E-1,8.110198975E-1,4.914855957E-1
2.157549241E0,-5.394287109E-1,7.918395996E-1,4.978790283E-1
2.160021165E0,-5.894927979E-1,7.737274170E-1,5.021362305E-1
2.162462571E0,-6.395568848E-1,7.524261475E-1,5.117187500E-1
2.164934495E0,-6.896209717E-1,7.332458496E-1,5.191802979E-1
2.167406419E0,-7.375640869E-1,7.119445801E-1,5.277099609E-1
2.169847825E0,-7.876281738E-1,6.927642822E-1,5.372924805E-1
2.172319749E0,-8.376922607E-1,6.746520996E-1,5.468750000E-1
2.174791673E0,-8.845672607E-1,6.501617432E-1,5.511322021E-1
2.177233079E0,-9.261169434E-1,6.277923584E-1,5.585937500E-1
2.179705003E0,-9.676513672E-1,6.064758301E-1,5.649871826E-1
2.182176926E0,-1.012405396E0,5.873107910E-1,5.724487305E-1
2.184618333E0,-1.049682617E0,5.723876953E-1,5.703125000E-1
2.187090257E0,-1.091232300E0,5.564117432E-1,5.692443848E-1
2.189562180E0,-1.128509521E0,5.415039062E-1,5.660552979E-1
2.192034104E0,-1.161529541E0,5.276489258E-1,5.607299805E-1
2.194475510E0,-1.199890137E0,5.191345215E-1,5.532684326E-1
2.196947434E0,-1.237167358E0,5.106048584E-1,5.415496826E-1
2.199388841E0,-1.271255493E0,5.052795410E-1,5.287628174E-1
2.201860764E0,-1.310668945E0,5.074157715E-1,5.202484131E-1
2.204332688E0,-1.344757080E0,5.084838867E-1,5.074615479E-1
2.206804612E0,-1.378845215E0,5.116729736E-1,4.882812500E-1
2.209246018E0,-1.415069580E0,5.169982910E-1,4.733734131E-1
2.211717942E0,-1.453414917E0,5.255279541E-1,4.616546631E-1
2.214189866E0,-1.492828369E0,5.372467041E-1,4.467468262E-1
2.216661790E0,-1.530120850E0,5.521545410E-1,4.254302979E-1
2.219103196E0,-1.572723389E0,5.670623779E-1,4.115905762E-1
2.221575120E0,-1.613204956E0,5.851745605E-1,3.956146240E-1
2.224047044E0,-1.657943726E0,6.032867432E-1,3.806915283E-1
2.226488450E0,-1.699493408E0,6.256561279E-1,3.636474609E-1
2.228960374E0,-1.745300293E0,6.490936279E-1,3.444824219E-1
2.231401780E0,-1.791107178E0,6.703948975E-1,3.306274414E-1
2.233873704E0,-1.839050293E0,6.959686279E-1,3.167877197E-1
2.236345628E0,-1.885910034E0,7.236633301E-1,3.007965088E-1
2.238817551E0,-1.934921265E0,7.534942627E-1,2.880249023E-1
2.241258958E0,-1.979660034E0,7.811889648E-1,2.709808350E-1
2.243730882E0,-2.032928467E0,8.110198975E-1,2.539367676E-1
2.246202805E0,-2.088317871E0,8.419036865E-1,2.443389893E-1
2.248644212E0,-2.136260986E0,8.759918213E-1,2.304992676E-1
2.251116135E0,-2.190582275E0,9.068908691E-1,2.187805176E-1
2.253588059E0,-2.242782593E0,9.409790039E-1,2.134552002E-1
2.256029466E0,-2.288589478E0,9.729309082E-1,2.070617676E-1
2.258501389E0,-2.341842651E0,1.007019043E0,1.964111328E-1
2.260973313E0,-2.391921997E0,1.040039062E0,1.910858154E-1
2.263445237E0,-2.439849854E0,1.066680908E0,1.825561523E-1
2.265886643E0,-2.489929199E0,1.096496582E0,1.772308350E-1
2.268358567E0,-2.533599854E0,1.124206543E0,1.687011719E-1
2.270830491E0,-2.580474854E0,1.149765015E0,1.591186523E-1
2.273271897E0,-2.623077393E0,1.170013428E0,1.527252197E-1
2.275743821E0,-2.667816162E0,1.185989380E0,1.431427002E-1
2.278215745E0,-2.707229614E0,1.196640015E0,1.271667480E-1
2.280657151E0,-2.740264893E0,1.203033447E0,1.090545654E-1
2.283129075E0,-2.774353027E0,1.204101562E0,8.775329590E-2
2.285600999E0,-2.804168701E0,1.210479736E0,6.005859375E-2
2.288042405E0,-2.829742432E0,1.211547852E0,3.555297852E-2
2.290514329E0,-2.848922729E0,1.213684082E0,5.722045898E-3
2.292986253E0,-2.863830566E0,1.214752197E0,-2.197265625E-2
2.295427659E0,-2.875549316E0,1.214752197E0,-5.073547363E-2
2.297899583E0,-2.878738403E0,1.213684082E0,-7.203674316E-2
2.300371507E0,-2.886199951E0,1.209426880E0,-8.908081055E-2
2.302843430E0,-2.886199951E0,1.205154419E0,-1.082611084E-1
2.305284837E0,-2.892593384E0,1.201965332E0,-1.253051758E-1
2.307756760E0,-2.894729614E0,1.199829102E0,-1.412811279E-1
2.310198167E0,-2.905380249E0,1.194503784E0,-1.540679932E-1
2.312670091E0,-2.914962769E0,1.187057495E0,-1.668548584E-1
2.315142014E0,-2.925613403E0,1.178527832E0,-1.849517822E-1
2.317613938E0,-2.937332153E0,1.163619995E0,-2.030639648E-1
2.320055344E0,-2.950119019E0,1.152969360E0,-2.233123779E-1
2.322527268E0,-2.966094971E0,1.133789062E0,-2.424774170E-1
2.324999192E0,-2.984207153E0,1.114608765E0,-2.637939453E-1
2.327440598E0,-3.003372192E0,1.098632812E0,-2.936096191E-1
2.329912522E0,-3.027877808E0,1.084793091E0,-3.223724365E-1
2.332384446E0,-3.054504395E0,1.074127197E0,-3.532714844E-1
2.334856370E0,-3.079010010E0,1.066680908E0,-3.820343018E-1
2.337297776E0,-3.107772827E0,1.064544678E0,-4.171905518E-1
2.339769700E0,-3.137603760E0,1.069869995E0,-4.491424561E-1
2.342211106E0,-3.168502808E0,1.081588745E0,-4.864349365E-1
2.344683030E0,-3.199386597E0,1.102890015E0,-5.290374756E-1
2.347154954E0,-3.236679077E0,1.126327515E0,-5.663299561E-1
2.349596360E0,-3.269699097E0,1.157226562E0,-6.078643799E-1
2.352068284E0,-3.309112549E0,1.192382812E0,-6.515502930E-1
2.354540208E0,-3.347457886E0,1.231796265E0,-6.984100342E-1
2.357012132E0,-3.389007568E0,1.276535034E0,-7.420959473E-1
2.359453538E0,-3.433746338E0,1.321273804E0,-7.868347168E-1
2.361925462E0,-3.484878540E0,1.372406006E0,-8.390350342E-1
2.364397385E0,-3.529617310E0,1.425674438E0,-8.859100342E-1
2.366838792E0,-3.582885742E0,1.475738525E0,-9.327697754E-1
2.369310716E0,-3.635086060E0,1.533264160E0,-9.753875732E-1
2.371782639E0,-3.693664551E0,1.599304199E0,-1.022262573E0
2.374224046E0,-3.752258301E0,1.656829834E0,-1.064865112E0
2.376695969E0,-3.815109253E0,1.716491699E0,-1.106414795E0
2.379167893E0,-3.882217407E0,1.777206421E0,-1.151153564E0
2.381639817E0,-3.949340820E0,1.832595825E0,-1.192703247E0
2.384081223E0,-4.013244629E0,1.891189575E0,-1.231048584E0
2.386553147E0,-4.083557129E0,1.947647095E0,-1.267272949E0
2.389025071E0,-4.158126831E0,1.992385864E0,-1.298156738E0
2.391466477E0,-4.233764648E0,2.037124634E0,-1.320526123E0
2.393938401E0,-4.303009033E0,2.075485229E0,-1.341842651E0
2.396410325E0,-4.373306274E0,2.112762451E0,-1.350357056E0
2.398851731E0,-4.450012207E0,2.143661499E0,-1.356750488E0
2.401323655E0,-4.524581909E0,2.172424316E0,-1.362075806E0
2.403795579E0,-4.594879150E0,2.206512451E0,-1.358886719E0
2.406236985E0,-4.667327881E0,2.249114990E0,-1.356750488E0
2.408708909E0,-4.735504150E0,2.290664673E0,-1.350357056E0
2.411180833E0,-4.797286987E0,2.338607788E0,-1.343963623E0
2.413622239E0,-4.861206055E0,2.387603760E0,-1.338638306E0
2.416094163E0,-4.921920776E0,2.440872192E0,-1.334381104E0
2.418566087E0,-4.980514526E0,2.490936279E0,-1.332244873E0
2.421038010E0,-5.035903931E0,2.534606934E0,-1.332244873E0
2.423479417E0,-5.084899902E0,2.574020386E0,-1.333312988E0
2.425951341E0,-5.142425537E0,2.607055664E0,-1.339706421E0
2.428392747E0,-5.193557739E0,2.633682251E0,-1.347167969E0
2.430864671E0,-5.237243652E0,2.654983521E0,-1.354614258E0
2.433336594E0,-5.277725220E0,2.669891357E0,-1.371658325E0
2.435808518E0,-5.324584961E0,2.679489136E0,-1.386581421E0
2.438249925E0,-5.358673096E0,2.688003540E0,-1.404693604E0
2.440721848E0,-5.390640259E0,2.686950684E0,-1.422790527E0
2.443193772E0,-5.416198730E0,2.680557251E0,-1.444107056E0
2.445635178E0,-5.434310913E0,2.664566040E0,-1.466476440E0
2.448107102E0,-5.439636230E0,2.634750366E0,-1.487777710E0
2.450579026E0,-5.443893433E0,2.593200684E0,-1.510147095E0
2.453020432E0,-5.435379028E0,2.544204712E0,-1.530395508E0
2.455492356E0,-5.417266846E0,2.487731934E0,-1.543167114E0
2.457964280E0,-5.394897461E0,2.416366577E0,-1.555953979E0
2.460436204E0,-5.356552124E0,2.341796875E0,-1.560211182E0
2.462877610E0,-5.301147461E0,2.269363403E0,-1.555953979E0
2.465349534E0,-5.232971191E0,2.194793701E0,-1.553817749E0
2.467821458E0,-5.148818970E0,2.117019653E0,-1.553817749E0
2.470262864E0,-5.048690796E0,2.031799316E0,-1.545303345E0
2.472734788E0,-4.936828613E0,1.929534912E0,-1.529327393E0
2.475176194E0,-4.816452026E0,1.809158325E0,-1.501632690E0
2.477648118E0,-4.691818237E0,1.678131104E0,-1.465408325E0
2.480120042E0,-4.560791016E0,1.538589478E0,-1.419601440E0
2.482591966E0,-4.420181274E0,1.394775391E0,-1.364212036E0
2.485033372E0,-4.266784668E0,1.244567871E0,-1.296035767E0
2.487505296E0,-4.110183716E0,1.089050293E0,-1.215072632E0
2.489977219E0,-3.951461792E0,9.260559082E-1,-1.118133545E0
2.492418626E0,-3.778884888E0,7.694702148E-1,-1.007339478E0
2.494890550E0,-3.611648560E0,6.107482910E-1,-8.816375732E-1
2.497362473E0,-3.435882568E0,4.584045410E-1,-7.452850342E-1
2.499834397E0,-3.253723145E0,3.167266846E-1,-5.982818604E-1
2.502275803E0,-3.076889038E0,1.889038086E-1,-4.438171387E-1
2.504747727E0,-2.897918701E0,6.745910645E-2,-2.850952148E-1
2.507219651E0,-2.715759277E0,-3.906250000E-2,-1.231689453E-1
2.509661057E0,-2.537857056E0,-1.296234131E-1,4.301452637E-2
2.512132981E0,-2.357833862E0,-2.020568848E-1,2.059936523E-1
2.514604905E0,-2.178863525E0,-2.649078369E-1,3.679199219E-1
2.517046311E0,-2.005233765E0,-3.139038086E-1,5.245056152E-1
2.519518235E0,-1.836914062E0,-3.543853760E-1,6.757812500E-1
2.521990159E0,-1.668609619E0,-3.863372803E-1,8.217163086E-1
2.524431565E0,-1.504547119E0,-4.097747803E-1,9.570007324E-1
2.526903489E0,-1.352218628E0,-4.278869629E-1,1.078445435E0
2.529375413E0,-1.210540771E0,-4.374847412E-1,1.192428589E0
2.531847337E0,-1.080581665E0,-4.406738281E-1,1.300018311E0
2.534288743E0,-9.612731934E-1,-4.385375977E-1,1.391632080E0
2.536760667E0,-8.558044434E-1,-4.300231934E-1,1.475784302E0
2.539232591E0,-7.684478760E-1,-4.087219238E-1,1.542892456E0
2.541673997E0,-6.864318848E-1,-3.735656738E-1,1.599365234E0
2.544145921E0,-6.203765869E-1,-3.245544434E-1,1.644104004E0
2.546587327E0,-5.649871826E-1,-2.595825195E-1,1.672866821E0
2.549059251E0,-5.277099609E-1,-1.839447021E-1,1.693099976E0
2.551531175E0,-5.010681152E-1,-1.040496826E-1,1.702682495E0
2.554003098E0,-4.819030762E-1,-1.669311523E-2,1.699493408E0
2.556444505E0,-4.840240479E-1,7.810974121E-2,1.687774658E0
2.558916428E0,-4.968109131E-1,1.718597412E-1,1.667541504E0
2.561388352E0,-5.149230957E-1,2.666625977E-1,1.639831543E0
2.563829759E0,-5.436859131E-1,3.625335693E-1,1.610015869E0
2.566301682E0,-5.830993652E-1,4.189910889E-1,1.580184937E0
2.568773606E0,-6.459503174E-1,3.508148193E-1,1.556747437E0
2.571245530E0,-7.013397217E-1,3.114013672E-1,1.533309937E0
2.573686936E0,-7.524719238E-1,3.731842041E-1,1.502426147E0
2.576158860E0,-8.014831543E-1,4.850463867E-1,1.464065552E0
2.578630784E0,-8.462219238E-1,6.352386475E-1,1.422531128E0
2.581072190E0,-8.952178955E-1,8.067474365E-1,1.372451782E0
2.583544114E0,-9.591369629E-1,9.782562256E-1,1.314926147E0
2.586016038E0,-1.031570435E0,1.142303467E0,1.256347656E0
2.588457444E0,-1.113601685E0,1.296768188E0,1.198822021E0
2.590929368E0,-1.203079224E0,1.446975708E0,1.141296387E0
2.593401292E0,-1.300018311E0,1.593978882E0,1.078445435E0
2.595842698E0,-1.401214600E0,1.710098267E0,1.015594482E0
2.598314622E0,-1.501358032E0,1.797454834E0,9.506072998E-1
2.600786546E0,-1.595092773E0,1.911437988E0,8.867034912E-1
2.603227952E0,-1.688842773E0,2.041397095E0,8.217163086E-1
2.605699876E0,-1.791107178E0,2.177749634E0,7.599334717E-1
2.608171800E0,-1.889114380E0,2.322616577E0,6.917572021E-1
2.610643723E0,-1.991378784E0,2.465362549E0,6.278381348E-1
2.613085130E0,-2.098968506E0,2.612380981E0,5.596618652E-1
2.615557053E0,-2.209762573E0,2.759384155E0,4.936065674E-1
2.618028977E0,-2.323745728E0,2.914916992E0,4.222412109E-1
2.620470384E0,-2.428131104E0,3.073638916E0,3.508758545E-1
2.622942307E0,-2.539993286E0,3.246200562E0,2.784271240E-1
2.625414231E0,-2.649703979E0,3.431564331E0,2.091827393E-1
2.627855637E0,-2.751983643E0,3.623306274E0,1.420745850E-1
2.630327561E0,-2.857437134E0,3.804412842E0,7.710266113E-2
2.632799485E0,-2.958633423E0,3.964202881E0,1.318359375E-2
2.635240891E0,-3.058776855E0,4.098419189E0,-4.647827148E-2
2.637712815E0,-3.152511597E0,4.208145142E0,-9.867858887E-2
2.640184739E0,-3.239868164E0,4.297622681E0,-1.498107910E-1
2.642656663E0,-3.322952271E0,4.375381470E0,-1.945495605E-1
2.645098069E0,-3.396469116E0,4.444625854E0,-2.297058105E-1
2.647569993E0,-3.459304810E0,4.517074585E0,-2.574005127E-1
2.650011399E0,-3.511505127E0,4.588439941E0,-2.840270996E-1
2.652483323E0,-3.562637329E0,4.669403076E0,-3.074645996E-1
2.654955247E0,-3.602050781E0,4.755691528E0,-3.245086670E-1
2.657427171E0,-3.638275146E0,4.841979980E0,-3.426208496E-1
2.659868577E0,-3.674499512E0,4.928253174E0,-3.617858887E-1
2.662340501E0,-3.701126099E0,5.013473511E0,-3.777770996E-1
2.664812425E0,-3.724563599E0,5.097640991E0,-3.969421387E-1
2.667253831E0,-3.746932983E0,5.179656982E0,-4.225158691E-1
2.669725755E0,-3.767181396E0,5.254226685E0,-4.470214844E-1
2.672197678E0,-3.785278320E0,5.338378906E0,-4.736480713E-1
2.674639085E0,-3.798065186E0,5.418273926E0,-4.992065430E-1
2.677111009E0,-3.810852051E0,5.492843628E0,-5.290374756E-1
2.679582932E0,-3.827896118E0,5.563156128E0,-5.631256104E-1
2.682024339E0,-3.834289551E0,5.629196167E0,-5.972137451E-1
2.684496262E0,-3.840682983E0,5.687789917E0,-6.313018799E-1
2.686968186E0,-3.851333618E0,5.735733032E0,-6.664581299E-1
2.689440110E0,-3.850265503E0,5.774078369E0,-7.037506104E-1
2.691881516E0,-3.850265503E0,5.801773071E0,-7.357025146E-1
2.694353440E0,-3.841735840E0,5.816696167E0,-7.676544189E-1
2.696825364E0,-3.830017090E0,5.823074341E0,-8.006896973E-1
2.699266770E0,-3.812973022E0,5.819885254E0,-8.294372559E-1
2.701738694E0,-3.788482666E0,5.804977417E0,-8.571472168E-1
2.704210618E0,-3.757583618E0,5.778335571E0,-8.827056885E-1
2.706652024E0,-3.721374512E0,5.738922119E0,-9.072113037E-1
2.709123948E0,-3.677688599E0,5.685668945E0,-9.349060059E-1
2.711595872E0,-3.626556396E0,5.622817993E0,-9.626007080E-1
2.714037278E0,-3.567962646E0,5.552505493E0,-9.902954102E-1
2.716509202E0,-3.498733521E0,5.469421387E0,-1.016937256E0
2.718981126E0,-3.425216675E0,5.378860474E0,-1.039306641E0
2.721453050E0,-3.343200684E0,5.288314819E0,-1.060607910E0
2.723894456E0,-3.254776001E0,5.192443848E0,-1.085113525E0
2.726366380E0,-3.163162231E0,5.094436646E0,-1.107482910E0
2.728838303E0,-3.059844971E0,4.993240356E0,-1.124526978E0
2.731279710E0,-2.958633423E0,4.894165039E0,-1.150085449E0
2.733751634E0,-2.851043701E0,4.794036865E0,-1.172454834E0
2.736223557E0,-2.732803345E0,4.690704346E0,-1.190567017E0
2.738664964E0,-2.614562988E0,4.590576172E0,-1.209747314E0
2.741136887E0,-2.496307373E0,4.489364624E0,-1.229980469E0
2.743608811E0,-2.373809814E0,4.389236450E0,-1.244903564E0
2.746050217E0,-2.254501343E0,4.297622681E0,-1.260879517E0
2.748522141E0,-2.130920410E0,4.206008911E0,-1.276855469E0
2.750994065E0,-2.007354736E0,4.119720459E0,-1.285369873E0
2.753435471E0,-1.888046265E0,4.036636353E0,-1.291763306E0
2.755907395E0,-1.769805908E0,3.962066650E0,-1.288574219E0
2.758379319E0,-1.653686523E0,3.887496948E0,-1.286437988E0
2.760851243E0,-1.542907715E0,3.816116333E0,-1.287506104E0
2.763292649E0,-1.435302734E0,3.749008179E0,-1.284317017E0
2.765764573E0,-1.331985474E0,3.680831909E0,-1.278991699E0
2.768236497E0,-1.232910156E0,3.613723755E0,-1.272598267E0
2.770677903E0,-1.138107300E0,3.554061890E0,-1.267272949E0
2.773149827E0,-1.049682617E0,3.498672485E0,-1.254486084E0
2.775621751E0,-9.644622803E-1,3.445404053E0,-1.248092651E0
2.778063157E0,-8.856353760E-1,3.391082764E0,-1.245956421E0
2.780535081E0,-8.142547607E-1,3.345275879E0,-1.234237671E0
2.783007005E0,-7.546081543E-1,3.301605225E0,-1.220397949E0
2.785448411E0,-6.970825195E-1,3.262191772E0,-1.211868286E0
2.787920335E0,-6.427459717E-1,3.219573975E0,-1.203353882E0
2.790392259E0,-6.033325195E-1,3.186553955E0,-1.192703247E0
2.792833665E0,-5.649871826E-1,3.163116455E0,-1.182052612E0
2.795305589E0,-5.341033936E-1,3.135421753E0,-1.170333862E0
2.797777512E0,-5.063934326E-1,3.110916138E0,-1.158615112E0
2.800249436E0,-4.882965088E-1,3.086410522E0,-1.149017334E0
2.802690842E0,-4.765777588E-1,3.055526733E0,-1.137298584E0
2.805162766E0,-4.637908936E-1,3.024627686E0,-1.125595093E0
2.807634690E0,-4.584655762E-1,2.991607666E0,-1.117065430E0
2.810076096E0,-4.542083740E-1,2.953262329E0,-1.106414795E0
2.812548020E0,-4.467468262E-1,2.914916992E0,-1.090438843E0
2.814989426E0,-4.435424805E-1,2.873367310E0,-1.079788208E0
2.817461350E0,-4.414215088E-1,2.835021973E0,-1.068069458E0
2.819933274E0,-4.328918457E-1,2.793472290E0,-1.052078247E0
2.822405198E0,-4.243774414E-1,2.761505127E0,-1.036102295E0
2.824846604E0,-4.126586914E-1,2.727416992E0,-1.020126343E0
2.827318528E0,-3.977355957E-1,2.695465088E0,-1.004150391E0
2.829790452E0,-3.806915283E-1,2.663513184E0,-9.913635254E-1
2.832231858E0,-3.625946045E-1,2.631546021E0,-9.807128906E-1
2.834703782E0,-3.380889893E-1,2.601715088E0,-9.700622559E-1
2.837175706E0,-3.071899414E-1,2.577224731E0,-9.562072754E-1
2.839647630E0,-2.741699219E-1,2.552719116E0,-9.476928711E-1
2.842089036E0,-2.432861328E-1,2.529281616E0,-9.402313232E-1
2.844560960E0,-2.070617676E-1,2.504776001E0,-9.327697754E-1
2.847032884E0,-1.708374023E-1,2.478149414E0,-9.231872559E-1
2.849474290E0,-1.356811523E-1,2.448318481E0,-9.210510254E-1
2.851946214E0,-1.015930176E-1,2.406784058E0,-9.178619385E-1
2.854418137E0,-7.070922852E-2,2.357772827E0,-9.157257080E-1
2.856859544E0,-3.981018066E-2,2.299194336E0,-9.199981689E-1
2.859331467E0,-1.850891113E-2,2.216094971E0,-9.263763428E-1
2.861803391E0,-3.967285156E-4,2.096786499E0,-9.317169189E-1
2.864244798E0,1.344299316E-2,1.962570190E0,-9.359741211E-1
2.866716721E0,1.451110840E-2,1.828338623E0,-9.412994385E-1
2.869188645E0,-4.653930664E-3,1.695175171E0,-9.434204102E-1
2.871630051E0,-2.490234375E-2,1.562026978E0,-9.380950928E-1
2.874101975E0,-3.981018066E-2,1.454437256E0,-9.285125732E-1
2.876573899E0,-5.685424805E-2,1.375595093E0,-9.210510254E-1
2.879045823E0,-8.775329590E-2,1.311691284E0,-9.040069580E-1
2.881487229E0,-1.293029785E-1,1.238189697E0,-8.859100342E-1
2.883959153E0,-1.846923828E-1,1.144439697E0,-8.667297363E-1
2.886400559E0,-2.422180176E-1,1.031524658E0,-8.454284668E-1
2.888872483E0,-3.029327393E-1,9.260559082E-1,-8.241119385E-1
2.891344407E0,-3.572692871E-1,8.451080322E-1,-7.985534668E-1
2.893785813E0,-4.041290283E-1,7.897033691E-1,-7.729797363E-1
2.896257737E0,-4.414215088E-1,7.438964844E-1,-7.452850342E-1
2.898729661E0,-4.659118652E-1,7.108764648E-1,-7.186584473E-1
2.901201585E0,-4.850921631E-1,6.831817627E-1,-6.920318604E-1
2.903642991E0,-4.968109131E-1,6.629333496E-1,-6.717834473E-1
2.906114915E0,-5.010681152E-1,6.331176758E-1,-6.558074951E-1
2.908586839E0,-4.989471436E-1,6.022186279E-1,-6.462249756E-1
2.911028245E0,-4.957427979E-1,5.606689453E-1,-6.472778320E-1
2.913500169E0,-4.840240479E-1,5.223236084E-1,-6.536712646E-1
2.915972092E0,-4.659118652E-1,4.860992432E-1,-6.589965820E-1
2.918413499E0,-4.446105957E-1,4.477539062E-1,-6.653900146E-1
2.920885423E0,-4.147796631E-1,4.104766846E-1,-6.781768799E-1
2.923357346E0,-3.849639893E-1,3.785095215E-1,-6.877593994E-1
2.925829270E0,-3.540649414E-1,3.476257324E-1,-6.909637451E-1
2.928301194E0,-3.167877197E-1,3.135375977E-1,-6.984100342E-1
2.930742600E0,-2.805633545E-1,2.773132324E-1,-7.026824951E-1
2.933214524E0,-2.400817871E-1,2.442932129E-1,-7.026824951E-1
2.935655930E0,-2.006683350E-1,2.165985107E-1,-6.984100342E-1
2.938127854E0,-1.655120850E-1,1.793060303E-1,-6.877593994E-1
2.940599778E0,-1.314239502E-1,1.452178955E-1,-6.739196777E-1
2.943041184E0,-1.015930176E-1,1.090087891E-1,-6.526031494E-1
2.945513108E0,-7.389831543E-2,7.385253906E-2,-6.238555908E-1
2.947985032E0,-4.513549805E-2,3.656005859E-2,-5.908203125E-1
2.950426438E0,-1.637268066E-2,2.471923828E-3,-5.503387451E-1
2.952898362E0,1.025390625E-2,-2.629089355E-2,-5.055999756E-1
2.955370286E0,4.008483887E-2,-5.398559570E-2,-4.608612061E-1
2.957842210E0,7.096862793E-2,-7.421875000E-2,-4.171905518E-1
2.960283616E0,1.071929932E-1,-8.274841309E-2,-3.777770996E-1
2.962755540E0,1.434173584E-1,-8.486938477E-2,-3.426208496E-1
2.965227464E0,1.796264648E-1,-8.381652832E-2,-3.053283691E-1
2.967668870E0,2.179870605E-1,-8.168029785E-2,-2.712402344E-1
2.970140794E0,2.531280518E-1,-6.677246094E-2,-2.350311279E-1
2.972612717E0,2.818908691E-1,-4.438781738E-2,-2.041320801E-1
2.975054124E0,3.074645996E-1,-2.308654785E-2,-1.753692627E-1
2.977526048E0,3.234405518E-1,-4.974365234E-3,-1.572570801E-1
2.979997971E0,3.362274170E-1,6.744384766E-3,-1.455383301E-1
2.982439378E0,3.447418213E-1,1.419067383E-2,-1.370239258E-1
2.984911301E0,3.511352539E-1,1.312255859E-2,-1.295623779E-1
2.987383225E0,3.490142822E-1,8.865356445E-3,-1.221160889E-1
2.989855149E0,3.490142822E-1,3.509521484E-4,-1.082611084E-1
2.992296555E0,3.404846191E-1,-1.243591309E-2,-9.654235840E-2
2.994768479E0,3.319702148E-1,-2.415466309E-2,-8.482360840E-2
2.997240403E0,3.255767822E-1,-2.522277832E-2,-8.163452148E-2
2.999681809E0,3.159790039E-1,-2.308654785E-2,-7.203674316E-2
3.002153733E0,3.096008301E-1,-1.564025879E-2,-6.777954102E-2
3.004625657E0,3.032073975E-1,-1.785278320E-3,-6.564331055E-2
3.007067063E0,3.010711670E-1,1.419067383E-2,-5.819702148E-2
3.009538987E0,3.000030518E-1,3.762817383E-2,-5.287170410E-2
3.012010911E0,2.968139648E-1,6.320190430E-2,-4.647827148E-2
3.014452317E0,2.989349365E-1,9.301757812E-2,-4.008483887E-2
3.016924241E0,3.000030518E-1,1.228485107E-1,-3.582763672E-2
3.019396165E0,3.032073975E-1,1.526794434E-1,-3.262329102E-2
3.021837571E0,3.010711670E-1,1.825103760E-1,-3.688049316E-2
3.024309495E0,2.957458496E-1,2.197875977E-1,-4.754638672E-2
3.026781419E0,2.925415039E-1,2.624053955E-1,-6.245422363E-2
3.029253342E0,2.818908691E-1,3.082122803E-1,-8.908081055E-2
3.031694749E0,2.754974365E-1,3.582763672E-1,-1.167755127E-1
3.034166673E0,2.648468018E-1,4.115447998E-1,-1.423492432E-1
3.036638596E0,2.531280518E-1,4.637298584E-1,-1.593933105E-1
3.039080003E0,2.446136475E-1,5.159301758E-1,-1.721801758E-1
3.041551926E0,2.371520996E-1,5.713348389E-1,-1.806945801E-1
3.043993333E0,2.307586670E-1,6.224670410E-1,-1.860198975E-1
3.046465257E0,2.233123779E-1,6.725311279E-1,-1.956176758E-1
3.048937180E0,2.147827148E-1,7.215270996E-1,-2.083892822E-1
3.051409104E0,2.062683105E-1,7.694702148E-1,-2.254333496E-1
3.053850510E0,2.041320801E-1,8.237915039E-1,-2.414245605E-1
3.056322434E0,1.998748779E-1,8.749237061E-1,-2.584686279E-1
3.058794358E0,1.956024170E-1,9.250030518E-1,-2.776336670E-1
3.061235764E0,1.870880127E-1,9.739990234E-1,-2.978820801E-1
3.063707688E0,1.817626953E-1,1.015548706E0,-3.127899170E-1
3.066179612E0,1.689758301E-1,1.048568726E0,-3.266448975E-1
3.068651536E0,1.551361084E-1,1.078399658E0,-3.372955322E-1
3.071092942E0,1.434173584E-1,1.101837158E0,-3.479461670E-1
3.073564866E0,1.274261475E-1,1.123138428E0,-3.554077148E-1
3.076036790E0,1.146545410E-1,1.139114380E0,-3.585968018E-1
3.078478196E0,1.018676758E-1,1.135925293E0,-3.660583496E-1
3.080950120E0,8.268737793E-2,1.123138428E0,-3.703155518E-1
3.083422044E0,6.564331055E-2,1.108215332E0,-3.713836670E-1
3.085863450E0,5.073547363E-2,1.081588745E0,-3.713836670E-1
3.088335374E0,3.688049316E-2,1.054962158E0,-3.660583496E-1
3.090807298E0,2.304077148E-2,1.029388428E0,-3.671264648E-1
3.093248704E0,1.344299316E-2,9.985046387E-1,-3.617858887E-1
3.095720628E0,4.928588867E-3,9.633483887E-1,-3.617858887E-1
3.098192551E0,-1.464843750E-3,9.303283691E-1,-3.639221191E-1
3.100633958E0,-4.653930664E-3,8.994293213E-1,-3.649902344E-1
3.103105882E0,-1.464843750E-3,8.728027344E-1,-3.703155518E-1
3.105577805E0,1.724243164E-3,8.525543213E-1,-3.777770996E-1
3.108049729E0,8.117675781E-3,8.333892822E-1,-3.905487061E-1
3.110491135E0,1.344299316E-2,8.227233887E-1,-4.107971191E-1
3.112963059E0,2.090454102E-2,8.163452148E-1,-4.427490234E-1
3.115434983E0,3.901672363E-2,8.280639648E-1,-4.789733887E-1
3.117876389E0,5.287170410E-2,8.482971191E-1,-5.247802734E-1
3.120348313E0,6.777954102E-2,8.685302734E-1,-5.791015625E-1
3.122820237E0,8.161926270E-2,8.962402344E-1,-6.345062256E-1
3.125261643E0,9.654235840E-2,9.260559082E-1,-6.866912842E-1
3.127733567E0,1.029357910E-1,9.622802734E-1,-7.357025146E-1
3.130205491E0,1.146545410E-1,1.013412476E0,-7.751159668E-1
3.132646897E0,1.231689453E-1,1.081588745E0,-8.081359863E-1
3.135118821E0,1.221008301E-1,1.131652832E0,-8.155975342E-1
3.137590745E0,1.135864258E-1,1.165740967E0,-8.113403320E-1
3.140062669E0,1.018676758E-1,1.197708130E0,-7.974853516E-1
3.142504075E0,8.056640625E-2,1.209426880E0,-7.708587646E-1
3.144975999E0,4.753112793E-2,1.189178467E0,-7.367706299E-1
3.147447923E0,5.996704102E-3,1.140182495E0,-6.909637451E-1
3.149889329E0,-3.341674805E-2,1.092239380E0,-6.387634277E-1
3.152361253E0,-6.645202637E-2,1.054962158E0,-5.844268799E-1
3.154833176E0,-9.733581543E-2,1.015548706E0,-5.279693604E-1
3.157274583E0,-1.175842285E-1,9.782562256E-1,-4.715118408E-1
3.159746507E0,-1.356811523E-1,9.281921387E-1,-4.150543213E-1
3.162187913E0,-1.527252197E-1,8.695983887E-1,-3.596649170E-1
3.164659837E0,-1.548614502E-1,8.024902344E-1,-3.063964844E-1
3.167131760E0,-1.484680176E-1,7.268524170E-1,-2.616577148E-1
3.169603684E0,-1.399536133E-1,6.427001953E-1,-2.233123779E-1
3.172045091E0,-1.207733154E-1,5.510864258E-1,-1.828308105E-1
3.174517014E0,-9.733581543E-2,4.541473389E-1,-1.540679932E-1
3.176988938E0,-6.857299805E-2,3.465576172E-1,-1.284942627E-1
3.179460862E0,-3.341674805E-2,2.336425781E-1,-1.093292236E-1
3.181902268E0,3.860473633E-3,1.154022217E-1,-9.121704102E-2
3.184374192E0,4.753112793E-2,-1.785278320E-3,-7.949829102E-2
3.186846116E0,9.547424316E-2,-1.189575195E-1,-7.096862793E-2
3.189287522E0,1.455383301E-1,-2.340087891E-1,-6.459045410E-2
3.191759446E0,1.977386475E-1,-3.384094238E-1,-5.499267578E-2
3.194200852E0,2.499389648E-1,-4.470672607E-1,-4.966735840E-2
3.196672776E0,3.010711670E-1,-5.503997803E-1,-4.541015625E-2
3.199144700E0,3.415527344E-1,-6.420135498E-1,-4.115295410E-2
3.201616624E0,3.873596191E-1,-7.219085693E-1,-2.729797363E-2
3.204058030E0,4.331665039E-1,-7.900848389E-1,-5.996704102E-3
3.206529954E0,4.800415039E-1,-8.454742432E-1,1.211547852E-2
3.209001878E0,5.151824951E-1,-8.987426758E-1,3.874206543E-2
3.211443284E0,5.450134277E-1,-9.402770996E-1,7.283020020E-2
3.213915208E0,5.769805908E-1,-9.754333496E-1,1.101226807E-1
3.216387132E0,6.036071777E-1,-1.007400513E0,1.484680176E-1
3.218859055E0,6.249084473E-1,-1.026565552E0,1.900177002E-1
3.221300462E0,6.408843994E-1,-1.032958984E0,2.283630371E-1
3.223772385E0,6.643218994E-1,-1.028701782E0,2.741699219E-1
3.226244309E0,6.749725342E-1,-1.016983032E0,3.199768066E-1
3.228685716E0,6.802978516E-1,-1.002075195E0,3.668518066E-1
3.231157639E0,6.930847168E-1,-9.637145996E-1,4.115905762E-1
3.233629563E0,7.048034668E-1,-9.211120605E-1,4.541931152E-1
3.236070969E0,7.122650146E-1,-8.742370605E-1,4.968109131E-1
3.238542893E0,7.154541016E-1,-8.326873779E-1,5.372924805E-1
3.241014817E0,7.144012451E-1,-8.018035889E-1,5.703125000E-1
3.243456223E0,7.133331299E-1,-7.666473389E-1,6.001434326E-1
3.245928147E0,7.069396973E-1,-7.293548584E-1,6.310272217E-1
3.248400071E0,7.037353516E-1,-6.899414062E-1,6.619262695E-1
3.250841477E0,7.005462646E-1,-6.590576172E-1,6.874847412E-1
3.253313401E0,6.909637451E-1,-6.398773193E-1,7.098693848E-1
3.255785325E0,6.845703125E-1,-6.345520020E-1,7.279663086E-1
3.258257249E0,6.760406494E-1,-6.313629150E-1,7.396850586E-1
3.260698655E0,6.781768799E-1,-6.356201172E-1,7.492828369E-1
3.263170579E0,6.749725342E-1,-6.484069824E-1,7.524719238E-1
3.265642503E0,6.664581299E-1,-6.622467041E-1,7.492828369E-1
3.268083909E0,6.632537842E-1,-6.718292236E-1,7.460784912E-1
3.270555833E0,6.600646973E-1,-6.888732910E-1,7.354278564E-1
3.272997239E0,6.494140625E-1,-7.155151367E-1,7.215881348E-1
3.275469163E0,6.462097168E-1,-7.485351562E-1,7.013397217E-1
3.277941087E0,6.440887451E-1,-7.858123779E-1,6.811065674E-1
3.280413010E0,6.334381104E-1,-8.241729736E-1,6.576690674E-1
3.282854417E0,6.259765625E-1,-8.582611084E-1,6.299743652E-1
3.285326341E0,6.217193604E-1,-8.955383301E-1,5.948181152E-1
3.287798264E0,6.174621582E-1,-9.338836670E-1,5.639190674E-1
3.290239671E0,6.089324951E-1,-9.690399170E-1,5.277099609E-1
3.292711594E0,5.993499756E-1,-9.988708496E-1,4.936065674E-1
3.295183518E0,5.886993408E-1,-1.034027100E0,4.669799805E-1
3.297655442E0,5.737762451E-1,-1.068115234E0,4.371490479E-1
3.300096848E0,5.567321777E-1,-1.095809937E0,4.147796631E-1
3.302568772E0,5.439453125E-1,-1.111785889E0,3.934783936E-1
3.305040696E0,5.237121582E-1,-1.102203369E0,3.689727783E-1
3.307482102E0,5.088043213E-1,-1.076629639E0,3.529968262E-1
3.309954026E0,4.970855713E-1,-1.032958984E0,3.391571045E-1
3.312425950E0,4.768371582E-1,-9.860839844E-1,3.316955566E-1
3.314867356E0,4.555358887E-1,-9.296264648E-1,3.274383545E-1
3.317339280E0,4.278411865E-1,-8.721008301E-1,3.274383545E-1
3.319811204E0,3.990783691E-1,-8.124542236E-1,3.348846436E-1
3.322252610E0,3.692474365E-1,-7.527923584E-1,3.423461914E-1
3.324724534E0,3.394165039E-1,-6.984710693E-1,3.508758545E-1
3.327196458E0,3.170471191E-1,-6.388092041E-1,3.625793457E-1
3.329668382E0,2.936096191E-1,-5.844879150E-1,3.711090088E-1
3.332109788E0,2.733764648E-1,-5.386810303E-1,3.828277588E-1
3.334581712E0,2.584533691E-1,-4.886169434E-1,3.902893066E-1
3.337053635E0,2.520751953E-1,-4.449310303E-1,3.988037109E-1
3.339495042E0,2.541961670E-1,-4.129791260E-1,4.062652588E-1
3.341966966E0,2.627258301E-1,-3.842163086E-1,4.073333740E-1
3.344438889E0,2.754974365E-1,-3.575897217E-1,4.094543457E-1
3.346880296E0,2.925415039E-1,-3.469238281E-1,4.062652588E-1
3.349352219E0,3.138580322E-1,-3.373413086E-1,4.020080566E-1
3.351824143E0,3.372955322E-1,-3.320159912E-1,3.945465088E-1
3.354265550E0,3.649902344E-1,-3.330841064E-1,3.870849609E-1
3.356737473E0,3.894805908E-1,-3.437347412E-1,3.721771240E-1
3.359209397E0,4.129180908E-1,-3.469238281E-1,3.583221436E-1
3.361650803E0,4.342346191E-1,-3.352050781E-1,3.423461914E-1
3.364122727E0,4.576721191E-1,-3.288269043E-1,3.253021240E-1
3.366594651E0,4.768371582E-1,-3.160400391E-1,3.114471436E-1
3.369066575E0,4.960174561E-1,-2.904663086E-1,2.965393066E-1
3.371507981E0,5.109252930E-1,-2.574462891E-1,2.826843262E-1
3.373979905E0,5.173187256E-1,-2.222900391E-1,2.731018066E-1
3.376451829E0,5.269012451E-1,-1.914062500E-1,2.709808350E-1
3.378893235E0,5.258483887E-1,-1.637115479E-1,2.645874023E-1
3.381365159E0,5.098571777E-1,-1.509246826E-1,2.613830566E-1
3.383837083E0,4.906921387E-1,-1.551818848E-1,2.571258545E-1
3.386278489E0,4.619293213E-1,-1.637115479E-1,2.422180176E-1
3.388750413E0,4.267730713E-1,-1.775512695E-1,2.230377197E-1
3.391222337E0,3.905487061E-1,-1.924591064E-1,2.049255371E-1
3.393663743E0,3.532714844E-1,-1.956634521E-1,1.846923828E-1
3.396135667E0,3.074645996E-1,-1.988525391E-1,1.569976807E-1
3.398607591E0,2.659149170E-1,-2.020568848E-1,1.356811523E-1
3.401048997E0,2.307586670E-1,-2.084503174E-1,1.154479980E-1
3.403520921E0,1.924133301E-1,-2.105712891E-1,9.519958496E-2
3.405992844E0,1.615142822E-1,-2.020568848E-1,7.603454590E-2
3.408464768E0,1.316986084E-1,-1.977996826E-1,6.005859375E-2
3.410906175E0,1.040039062E-1,-1.924591064E-1,4.833984375E-2
3.413378098E0,8.161926270E-2,-1.882019043E-1,4.194641113E-2
3.415850022E0,6.245422363E-2,-1.796875000E-1,3.234863281E-2
3.418291428E0,4.966735840E-2,-1.711578369E-1,2.702331543E-2
3.420763352E0,4.327392578E-2,-1.562500000E-1,1.957702637E-2
3.423235276E0,4.008483887E-2,-1.392059326E-1,1.744079590E-2
3.425676682E0,4.327392578E-2,-1.115112305E-1,1.530456543E-2
3.428148606E0,5.499267578E-2,-6.996154785E-2,1.530456543E-2
3.430620530E0,6.564331055E-2,-2.415466309E-2,2.276611328E-2
3.433061936E0,8.801269531E-2,2.590942383E-2,3.234863281E-2
3.435533860E0,1.093292236E-1,7.492065430E-2,4.301452637E-2
3.438005784E0,1.338195801E-1,1.228485107E-1,5.152893066E-2
3.440447190E0,1.615142822E-1,1.622619629E-1,6.217956543E-2
3.442919114E0,1.838989258E-1,2.080688477E-1,7.176208496E-2
3.445391038E0,2.137145996E-1,2.432250977E-1,7.176208496E-2
3.447862962E0,2.403564453E-1,2.783813477E-1,7.176208496E-2
3.450304368E0,2.627258301E-1,3.103332520E-1,6.111145020E-2
3.452776292E0,2.840270996E-1,3.412322998E-1,4.406738281E-2
3.455248216E0,3.000030518E-1,3.604125977E-1,2.383422852E-2
3.457689622E0,3.085327148E-1,3.763885498E-1,2.532958984E-3
3.460161546E0,3.149261475E-1,3.859710693E-1,-1.878356934E-2
3.462633469E0,3.085327148E-1,3.934326172E-1,-4.434204102E-2
3.465074876E0,2.946777344E-1,3.912963867E-1,-7.096862793E-2
3.467546800E0,2.733764648E-1,3.849029541E-1,-9.440612793E-2
3.470018723E0,2.488708496E-1,3.774566650E-1,-1.199798584E-1
3.472460130E0,2.137145996E-1,3.667907715E-1,-1.444854736E-1
3.474932053E0,1.668548584E-1,3.508148193E-1,-1.700439453E-1
3.477403977E0,1.189117432E-1,3.359069824E-1,-1.945495605E-1
3.479875901E0,6.352233887E-2,3.252563477E-1,-2.222442627E-1
3.482317307E0,-3.601074219E-3,3.146057129E-1,-2.499389648E-1
3.484789231E0,-7.070922852E-2,3.114013672E-1,-2.755126953E-1
3.487230637E0,-1.420745850E-1,3.082122803E-1,-3.042755127E-1
3.489702561E0,-2.155761719E-1,3.050079346E-1,-3.330383301E-1
3.492174485E0,-2.933502197E-1,3.028869629E-1,-3.575286865E-1
3.494646409E0,-3.657836914E-1,2.996826172E-1,-3.788299561E-1
3.497087815E0,-4.403533936E-1,2.975616455E-1,-3.980102539E-1
3.499559739E0,-5.138549805E-1,2.932891846E-1,-4.161224365E-1
3.502031663E0,-5.841674805E-1,2.858428955E-1,-4.331665039E-1
3.504503587E0,-6.523437500E-1,2.751770020E-1,-4.523468018E-1
3.506944993E0,-7.215881348E-1,2.560119629E-1,-4.725799561E-1
3.509416917E0,-7.769775391E-1,2.378997803E-1,-4.928131104E-1
3.511858323E0,-8.334350586E-1,2.112731934E-1,-5.119934082E-1
3.514330247E0,-8.867034912E-1,1.835784912E-1,-5.354309082E-1
3.516802171E0,-9.399566650E-1,1.590728760E-1,-5.567321777E-1
3.519274094E0,-9.804382324E-1,1.292419434E-1,-5.727081299E-1
3.521715501E0,-1.021987915E0,9.408569336E-2,-5.972137451E-1
3.524187425E0,-1.057144165E0,5.787658691E-2,-6.206512451E-1
3.526659348E0,-1.088027954E0,2.590942383E-2,-6.451568604E-1
3.529100755E0,-1.114669800E0,-9.246826172E-3,-6.696472168E-1
3.531572678E0,-1.142364502E0,-4.759216309E-2,-6.973571777E-1
3.534044602E0,-1.170059204E0,-8.914184570E-2,-7.239837646E-1
3.536486009E0,-1.189239502E0,-1.285552979E-1,-7.623291016E-1
3.538957932E0,-1.204147339E0,-1.658325195E-1,-7.942962646E-1
3.541429856E0,-1.223327637E0,-2.073822021E-1,-8.262481689E-1
3.543871262E0,-1.243560791E0,-2.446594238E-1,-8.624725342E-1
3.546343186E0,-1.263809204E0,-2.723541260E-1,-9.008178711E-1
3.548815110E0,-1.279785156E0,-3.043212891E-1,-9.359741211E-1
3.551256516E0,-1.297897339E0,-3.362731934E-1,-9.689941406E-1
3.553728440E0,-1.312805176E0,-3.629150391E-1,-1.003082275E0
3.556200364E0,-1.327713013E0,-3.820800781E-1,-1.040359497E0
3.558672288E0,-1.341567993E0,-3.820800781E-1,-1.071258545E0
3.561113694E0,-1.343704224E0,-3.245544434E-1,-1.091506958E0
3.563585618E0,-1.337310791E0,-2.254943848E-1,-1.104278564E0
3.566057542E0,-1.338363647E0,-1.573181152E-1,-1.121322632E0
3.568498948E0,-1.342636108E0,-1.349487305E-1,-1.131973267E0
3.570970872E0,-1.337310791E0,-1.274871826E-1,-1.138366699E0
3.573442796E0,-1.337310791E0,-1.040496826E-1,-1.139434814E0
3.575884202E0,-1.336242676E0,-7.102966309E-2,-1.139434814E0
3.578356126E0,-1.328781128E0,-4.652404785E-2,-1.136245728E0
3.580828050E0,-1.320266724E0,-3.906250000E-2,-1.129852295E0
3.583269456E0,-1.310668945E0,-5.398559570E-2,-1.123458862E0
3.585741380E0,-1.302154541E0,-8.381652832E-2,-1.113876343E0
3.588213303E0,-1.288299561E0,-1.360015869E-1,-1.103210449E0
3.590654710E0,-1.271255493E0,-2.084503174E-1,-1.086166382E0
3.593126634E0,-1.248886108E0,-2.819519043E-1,-1.069122314E0
3.595598557E0,-1.224380493E0,-3.618469238E-1,-1.049957275E0
3.598070481E0,-1.193496704E0,-4.385375977E-1,-1.027587891E0
3.600511887E0,-1.153015137E0,-5.184326172E-1,-9.988250732E-1
3.602983811E0,-1.110397339E0,-5.908813477E-1,-9.658050537E-1
3.605455735E0,-1.061401367E0,-6.537322998E-1,-9.317169189E-1
3.607897141E0,-1.011337280E0,-7.112579346E-1,-8.954925537E-1
3.610369065E0,-9.527435303E-1,-7.698364258E-1,-8.539428711E-1
3.612840989E0,-8.952178955E-1,-8.199005127E-1,-8.049468994E-1
3.615282395E0,-8.398284912E-1,-8.742370605E-1,-7.612609863E-1
3.617754319E0,-7.812347412E-1,-9.253692627E-1,-7.133331299E-1
3.620226243E0,-7.215881348E-1,-9.658508301E-1,-6.653900146E-1
3.622667649E0,-6.661834717E-1,-1.003128052E0,-6.174621582E-1
3.625139573E0,-6.044006348E-1,-1.035095215E0,-5.673828125E-1
3.627611497E0,-5.468750000E-1,-1.068115234E0,-5.194549561E-1
3.630052903E0,-4.893493652E-1,-1.103271484E0,-4.779052734E-1
3.632524827E0,-4.360961914E-1,-1.139480591E0,-4.406280518E-1
3.634996751E0,-3.817596436E-1,-1.157592773E0,-4.097290039E-1
3.637468675E0,-3.263702393E-1,-1.149078369E0,-3.831024170E-1
3.639910081E0,-2.752380371E-1,-1.120315552E0,-3.575286865E-1
3.642382005E0,-2.315673828E-1,-1.084091187E0,-3.351593018E-1
3.644853928E0,-1.942749023E-1,-1.042541504E0,-3.159942627E-1
3.647295335E0,-1.665802002E-1,-1.012725830E0,-2.978820801E-1
3.649767259E0,-1.484680176E-1,-9.882202148E-1,-2.829589844E-1
3.652239182E0,-1.388854980E-1,-9.722442627E-1,-2.712402344E-1
3.654680589E0,-1.420745850E-1,-9.615936279E-1,-2.680511475E-1
3.657152512E0,-1.559295654E-1,-9.552001953E-1,-2.701873779E-1
3.659624436E0,-1.719055176E-1,-9.541320801E-1,-2.818908691E-1
3.662065842E0,-1.996002197E-1,-9.402770996E-1,-3.010711670E-1
3.664537766E0,-2.400817871E-1,-9.285583496E-1,-3.276977539E-1
3.667009690E0,-2.880249023E-1,-9.306945801E-1,-3.596649170E-1
3.669451096E0,-3.359527588E-1,-9.221801758E-1,-3.937530518E-1
3.671923020E0,-3.721771240E-1,-8.763732910E-1,-4.182586670E-1
3.674394944E0,-3.892211914E-1,-7.922058105E-1,-4.246368408E-1
3.676866868E0,-3.945465088E-1,-6.771545410E-1,-4.150543213E-1
3.679308274E0,-3.945465088E-1,-5.621185303E-1,-3.852233887E-1
3.681780198E0,-3.945465088E-1,-4.747619629E-1,-3.500823975E-1
3.684221604E0,-4.030761719E-1,-4.257659912E-1,-3.117218018E-1
3.686693528E0,-4.201202393E-1,-4.044494629E-1,-2.797698975E-1
3.689165452E0,-4.435424805E-1,-3.970031738E-1,-2.531433105E-1
3.691637376E0,-4.701843262E-1,-3.863372803E-1,-2.403564453E-1
3.694078782E0,-4.989471436E-1,-3.682403564E-1,-2.371520996E-1
3.696550706E0,-5.298309326E-1,-3.394775391E-1,-2.435455322E-1
3.699022630E0,-5.660552979E-1,-3.021850586E-1,-2.467498779E-1
3.701464036E0,-5.884246826E-1,-2.542572021E-1,-2.488708496E-1
3.703935960E0,-6.076049805E-1,-1.956634521E-1,-2.456817627E-1
3.706407884E0,-6.193237305E-1,-1.285552979E-1,-2.339630127E-1
3.708879807E0,-6.246490479E-1,-5.610656738E-2,-2.201080322E-1
3.711321214E0,-6.246490479E-1,1.632690430E-2,-1.966705322E-1
3.713793137E0,-6.161193848E-1,7.917785645E-2,-1.615295410E-1
3.716265061E0,-6.012115479E-1,1.271057129E-1,-1.253051758E-1
3.718706467E0,-5.820312500E-1,1.643981934E-1,-8.695983887E-2
3.721178391E0,-5.554046631E-1,1.952972412E-1,-4.541015625E-2
3.723650315E0,-5.277099609E-1,2.165985107E-1,3.967285156E-4
3.726091721E0,-4.936218262E-1,2.325744629E-1,4.301452637E-2
3.728563645E0,-4.573974609E-1,2.400360107E-1,8.668518066E-2
3.731035569E0,-4.243774414E-1,2.496185303E-1,1.229095459E-1
3.733476975E0,-3.828277588E-1,2.506866455E-1,1.591186523E-1
3.735948899E0,-3.380889893E-1,2.464294434E-1,1.942749023E-1
3.738420823E0,-2.880249023E-1,2.453613281E-1,2.283630371E-1
3.740862229E0,-2.315673828E-1,2.357635498E-1,2.592620850E-1
3.743334153E0,-1.782989502E-1,2.219238281E-1,2.965393066E-1
3.745806077E0,-1.207733154E-1,2.080688477E-1,3.295593262E-1
3.748278001E0,-6.005859375E-2,1.931610107E-1,3.625793457E-1
3.750719407E0,1.724243164E-3,1.793060303E-1,4.009399414E-1
3.753191331E0,6.138610840E-2,1.622619629E-1,4.328918457E-1
3.755663255E0,1.221008301E-1,1.484222412E-1,4.648590088E-1
3.758104661E0,1.849517822E-1,1.430969238E-1,4.946746826E-1
3.760576585E0,2.456817627E-1,1.398925781E-1,5.223693848E-1
3.763048509E0,3.063964844E-1,1.420288086E-1,5.468750000E-1
3.765489915E0,3.649902344E-1,1.452178955E-1,5.713806152E-1
3.767961839E0,4.171905518E-1,1.516113281E-1,5.894927979E-1
3.770433762E0,4.683227539E-1,1.611938477E-1,6.097259521E-1
3.772875169E0,5.173187256E-1,1.739807129E-1,6.278381348E-1
3.775347092E0,5.631256104E-1,1.835784912E-1,6.438140869E-1
3.777819016E0,6.078643799E-1,1.856994629E-1,6.640625000E-1
3.780260423E0,6.536712646E-1,1.846313477E-1,6.821594238E-1
3.782732346E0,6.973419189E-1,1.835784912E-1,7.002716064E-1
3.785204270E0,7.410278320E-1,1.782379150E-1,7.194519043E-1
3.787645676E0,7.879028320E-1,1.686553955E-1,7.332916260E-1
3.790117600E0,8.347625732E-1,1.548156738E-1,7.471466064E-1
3.792589524E0,8.784484863E-1,1.430969238E-1,7.556762695E-1
3.795061448E0,9.253234863E-1,1.271057129E-1,7.631225586E-1
3.797502854E0,9.721832275E-1,1.132659912E-1,7.684478760E-1
3.799974778E0,1.020126343E0,9.835815430E-2,7.748413086E-1
3.802446702E0,1.067001343E0,8.982849121E-2,7.705841064E-1
3.804888108E0,1.107482910E0,8.876037598E-2,7.716522217E-1
3.807360032E0,1.149017334E0,9.622192383E-2,7.727203369E-1
3.809831956E0,1.189498901E0,1.143341064E-1,7.759094238E-1
3.812273362E0,1.220397949E0,1.345672607E-1,7.780456543E-1
3.814745286E0,1.249160767E0,1.569366455E-1,7.716522217E-1
3.817217210E0,1.268325806E0,1.846313477E-1,7.663269043E-1
3.819658616E0,1.273651123E0,2.187194824E-1,7.577972412E-1
3.822130540E0,1.274719238E0,2.528076172E-1,7.503356934E-1
3.824602464E0,1.265136719E0,2.762451172E-1,7.343597412E-1
3.827074387E0,1.243835449E0,2.943572998E-1,7.162475586E-1
3.829515794E0,1.225723267E0,3.028869629E-1,6.949462891E-1
3.831987717E0,1.199081421E0,3.018188477E-1,6.715087891E-1
3.834459641E0,1.166061401E0,2.922363281E-1,6.502075195E-1
3.836901048E0,1.135177612E0,2.698516846E-1,6.278381348E-1
3.839372971E0,1.102157593E0,2.357635498E-1,6.107940674E-1
3.841844895E0,1.070190430E0,2.070007324E-1,5.937500000E-1
3.844286301E0,1.035034180E0,1.835784912E-1,5.767059326E-1
3.846758225E0,9.956207275E-1,1.569366455E-1,5.596618652E-1
3.849230149E0,9.551391602E-1,1.473541260E-1,5.415496826E-1
3.851671555E0,9.114685059E-1,1.420288086E-1,5.213165283E-1
3.854143479E0,8.635253906E-1,1.313781738E-1,4.978790283E-1
3.856615403E0,8.123931885E-1,1.164550781E-1,4.712371826E-1
3.859056809E0,7.676544189E-1,1.047363281E-1,4.456787109E-1
3.861528733E0,7.101287842E-1,1.036834717E-1,4.211730957E-1
3.864000657E0,6.504821777E-1,1.121978760E-1,3.977355957E-1
3.866472581E0,5.897521973E-1,1.239166260E-1,3.732452393E-1
3.868913987E0,5.247802734E-1,1.388244629E-1,3.487396240E-1
3.871385911E0,4.661865234E-1,1.580047607E-1,3.306274414E-1
3.873827317E0,4.022674561E-1,1.814422607E-1,3.093261719E-1
3.876299241E0,3.394165039E-1,2.048797607E-1,2.880249023E-1
3.878771165E0,2.861633301E-1,2.251129150E-1,2.741699219E-1
3.881243089E0,2.339630127E-1,2.453613281E-1,2.603149414E-1
3.883684495E0,1.806945801E-1,2.709197998E-1,2.507324219E-1
3.886156419E0,1.391448975E-1,2.890319824E-1,2.400817871E-1
3.888628342E0,1.029357910E-1,2.847747803E-1,2.198486328E-1
3.891069749E0,7.096862793E-2,2.794494629E-1,2.081298828E-1
3.893541673E0,4.220581055E-2,3.124694824E-1,2.241058350E-1
3.896013596E0,9.185791016E-3,3.966217041E-1,2.549896240E-1
3.898455003E0,-3.236389160E-2,5.265808105E-1,2.976074219E-1
3.900926926E0,-8.561706543E-2,6.789245605E-1,3.370208740E-1
3.903398850E0,-1.431427002E-1,8.365783691E-1,3.700408936E-1
3.905870774E0,-2.081298828E-1,9.718627930E-1,3.945465088E-1
3.908312180E0,-2.699127197E-1,1.060287476E0,4.062652588E-1
3.910784104E0,-3.178405762E-1,1.101837158E0,4.030609131E-1
3.913256028E0,-3.540649414E-1,1.134857178E0,3.956146240E-1
3.915697434E0,-3.796386719E-1,1.167877197E0,3.860168457E-1
3.918169358E0,-3.913574219E-1,1.184921265E0,3.806915283E-1
3.920641282E0,-4.009399414E-1,1.183853149E0,3.679199219E-1
3.923082688E0,-3.998718262E-1,1.177459717E0,3.551330566E-1
3.925554612E0,-3.956146240E-1,1.163619995E0,3.412780762E-1
3.928026536E0,-3.881530762E-1,1.142303467E0,3.231658936E-1
3.930467942E0,-3.796386719E-1,1.121002197E0,3.071899414E-1
3.932939866E0,-3.657836914E-1,1.102890015E0,2.901458740E-1
3.935411790E0,-3.466033936E-1,1.093307495E0,2.709808350E-1
3.937853196E0,-3.380889893E-1,1.083724976E0,2.549896240E-1
3.940325120E0,-3.253021240E-1,1.074127197E0,2.347564697E-1
3.942797044E0,-3.093261719E-1,1.063476562E0,2.134552002E-1
3.945268967E0,-2.965393066E-1,1.044311523E0,1.942749023E-1
3.947710374E0,-2.869567871E-1,1.018737793E0,1.687011719E-1
3.950182298E0,-2.741699219E-1,9.910430908E-1,1.399536133E-1
3.952654221E0,-2.613830566E-1,9.590911865E-1,1.133117676E-1
3.955095628E0,-2.464752197E-1,9.260559082E-1,8.561706543E-2
3.957567551E0,-2.390136719E-1,8.898468018E-1,5.578613281E-2
3.960039475E0,-2.326202393E-1,8.557586670E-1,3.341674805E-2
3.962480882E0,-2.198486328E-1,8.206024170E-1,1.104736328E-2
3.964952805E0,-2.155761719E-1,7.875823975E-1,-3.860473633E-3
3.967424729E0,-2.070617676E-1,7.662658691E-1,-1.239013672E-2
3.969866135E0,-1.985321045E-1,7.598724365E-1,-1.664733887E-2
3.972338059E0,-1.857604980E-1,7.865142822E-1,-1.664733887E-2
3.974809983E0,-1.687164307E-1,8.536224365E-1,-1.239013672E-2
3.977281907E0,-1.559295654E-1,9.239349365E-1,-1.239013672E-2
3.979723313E0,-1.516723633E-1,9.601440430E-1,-1.771545410E-2
3.982195237E0,-1.516723633E-1,9.697418213E-1,-2.304077148E-2
3.984667161E0,-1.580505371E-1,9.697418213E-1,-2.197265625E-2
3.987108567E0,-1.569976807E-1,9.665374756E-1,-1.664733887E-2
3.989580491E0,-1.548614502E-1,9.590911865E-1,-7.064819336E-3
3.992052415E0,-1.506042480E-1,9.526977539E-1,7.858276367E-3
3.994493821E0,-1.420745850E-1,9.399108887E-1,2.702331543E-2
3.996965745E0,-1.314239502E-1,9.175415039E-1,5.046081543E-2
3.999437669E0,-1.197052002E-1,8.813171387E-1,7.070922852E-2
4.001879075E0,-1.101226807E-1,8.451080322E-1,9.414672852E-2
4.004350999E0,-9.307861328E-2,7.971649170E-1,1.175689697E-1
4.006822923E0,-7.389831543E-2,7.481689453E-1,1.378173828E-1
4.009264329E0,-5.046081543E-2,6.949005127E-1,1.537933350E-1
4.011736253E0,-2.276611328E-2,6.533508301E-1,1.687011719E-1
4.014208176E0,9.185791016E-3,6.277923584E-1,1.825561523E-1
4.016680100E0,4.220581055E-2,6.022186279E-1,1.974639893E-1
4.019121507E0,7.310485840E-2,5.521545410E-1,2.091827393E-1
4.021593430E0,9.973144531E-2,4.924926758E-1,2.177124023E-1
4.024034837E0,1.253051758E-1,4.743957520E-1,2.294311523E-1
4.026506760E0,1.615142822E-1,4.956970215E-1,2.422180176E-1
4.028978684E0,1.998748779E-1,5.287170410E-1,2.581939697E-1
4.031450608E0,2.328948975E-1,5.351104736E-1,2.752380371E-1
4.033892014E0,2.552642822E-1,5.169982910E-1,2.880249023E-1
4.036363938E0,2.776336670E-1,5.202026367E-1,2.965393066E-1
4.038835862E0,2.989349365E-1,5.287170410E-1,3.103942871E-1
4.041277268E0,3.149261475E-1,5.532226562E-1,3.210449219E-1
4.043749192E0,3.383483887E-1,6.022186279E-1,3.370208740E-1
4.046221116E0,3.617858887E-1,6.608123779E-1,3.572540283E-1
4.048662522E0,3.798980713E-1,7.502899170E-1,3.924102783E-1
4.051134446E0,4.054718018E-1,1.007019043E0,4.297027588E-1
4.053606370E0,4.374237061E-1,1.346847534E0,4.637908936E-1
4.056078294E0,4.203796387E-1,1.479995728E0,4.882812500E-1
4.058519700E0,3.820343018E-1,1.542846680E0,4.861602783E-1
4.060991624E0,3.479461670E-1,1.663223267E0,4.744415283E-1
4.063463548E0,3.245086670E-1,1.774017334E0,4.968109131E-1
4.065904954E0,3.096008301E-1,1.837921143E0,5.468750000E-1
4.068376878E0,2.989349365E-1,1.883728027E0,6.076049805E-1
4.070848801E0,3.042602539E-1,1.899719238E0,6.608581543E-1
4.073290208E0,3.149261475E-1,1.901840210E0,7.034759521E-1
4.075762132E0,3.309020996E-1,1.915695190E0,7.375640869E-1
4.078234055E0,3.490142822E-1,1.939132690E0,7.684478760E-1
4.080675462E0,3.724365234E-1,1.980667114E0,7.982788086E-1
4.083147385E0,3.894805908E-1,2.016891479E0,8.291778564E-1
4.085619309E0,4.097290039E-1,2.031799316E0,8.589935303E-1
4.088091233E0,4.267730713E-1,2.026473999E0,8.867034912E-1
4.090532639E0,4.459533691E-1,2.022216797E0,9.133300781E-1
4.093004563E0,4.640502930E-1,2.023284912E0,9.388885498E-1
4.095476487E0,4.800415039E-1,2.005172729E0,9.644622803E-1
4.097917893E0,4.949493408E-1,1.959365845E0,9.942932129E-1
4.100389817E0,5.088043213E-1,1.896514893E0,1.020919800E0
4.102861741E0,5.301055908E-1,1.827270508E0,1.046493530E0
4.105303147E0,5.556640625E-1,1.744186401E0,1.083770752E0
4.107775071E0,5.812377930E-1,1.650436401E0,1.110397339E0
4.110246995E0,6.131896973E-1,1.551376343E0,1.141296387E0
4.112688401E0,6.462097168E-1,1.443786621E0,1.171127319E0
4.115160325E0,6.792449951E-1,1.348968506E0,1.200942993E0
4.117632249E0,7.175903320E-1,1.263748169E0,1.228652954E0
4.120073655E0,7.527465820E-1,1.188110352E0,1.259536743E0
4.122545579E0,7.857666016E-1,1.127395630E0,1.288299561E0
4.125017503E0,8.123931885E-1,1.072006226E0,1.314926147E0
4.127489426E0,8.337097168E-1,1.018737793E0,1.334106445E0
4.129930833E0,8.486175537E-1,9.697418213E-1,1.343688965E0
4.132402757E0,8.645935059E-1,9.186096191E-1,1.354354858E0
4.134874680E0,8.784484863E-1,8.632049561E-1,1.363937378E0
4.137316087E0,8.944244385E-1,8.088836670E-1,1.366058350E0
4.139788010E0,9.040069580E-1,7.481689453E-1,1.374588013E0
4.142259934E0,9.104003906E-1,6.821136475E-1,1.382049561E0
4.144701341E0,9.167938232E-1,6.235198975E-1,1.380981445E0
4.147173264E0,9.199829102E-1,5.691986084E-1,1.379913330E0
4.149645188E0,9.263763428E-1,5.169982910E-1,1.374588013E0
4.152086594E0,9.317016602E-1,4.680023193E-1,1.366058350E0
4.154558518E0,9.295806885E-1,4.168701172E-1,1.360733032E0
4.157030442E0,9.274444580E-1,3.625335693E-1,1.347961426E0
4.159471848E0,9.199829102E-1,3.199310303E-1,1.337310791E0
4.161943772E0,9.072113037E-1,2.858428955E-1,1.327713013E0
4.164415696E0,8.922882080E-1,2.528076172E-1,1.312805176E0
4.166887620E0,8.752441406E-1,2.325744629E-1,1.293624878E0
4.169329026E0,8.582000732E-1,2.165985107E-1,1.270187378E0
4.171800950E0,8.337097168E-1,2.006225586E-1,1.244628906E0
4.174272874E0,8.092041016E-1,1.803741455E-1,1.215866089E0
4.176714280E0,7.740478516E-1,1.590728760E-1,1.182846069E0
4.179186204E0,7.399597168E-1,1.334991455E-1,1.144485474E0
4.181658128E0,6.984100342E-1,1.068725586E-1,1.097625732E0
4.184099534E0,6.579284668E-1,8.236694336E-2,1.046493530E0
4.186571458E0,6.206512451E-1,5.787658691E-2,9.846954346E-1
4.189043382E0,5.780334473E-1,4.083251953E-2,9.218444824E-1
4.191484788E0,5.364990234E-1,2.272033691E-2,8.589935303E-1
4.193956712E0,4.906921387E-1,-6.042480469E-3,8.057403564E-1
4.196428635E0,4.310302734E-1,-3.587341309E-2,7.577972412E-1
4.198870042E0,3.745727539E-1,-5.398559570E-2,7.045440674E-1
4.201341966E0,3.159790039E-1,-6.463623047E-2,6.470184326E-1
4.203813889E0,2.669830322E-1,-6.356811523E-2,5.948181152E-1
4.206285813E0,2.147827148E-1,-6.356811523E-2,5.479431152E-1
4.208727219E0,1.689758301E-1,-7.847595215E-2,5.042724609E-1
4.211199143E0,1.221008301E-1,-1.136322021E-1,4.659118652E-1
4.213671067E0,7.310485840E-2,-1.679687500E-1,4.264984131E-1
4.216112473E0,2.516174316E-2,-2.254943848E-1,3.838958740E-1
4.218584397E0,-2.064514160E-2,-2.713012695E-1,3.402099609E-1
4.221056321E0,-6.645202637E-2,-3.128356934E-1,2.944030762E-1
4.223497727E0,-1.111907959E-1,-3.501281738E-1,2.485961914E-1
4.225969651E0,-1.506042480E-1,-3.874053955E-1,2.049255371E-1
4.228441575E0,-1.868133545E-1,-4.268188477E-1,1.633758545E-1
4.230913499E0,-2.272949219E-1,-4.726257324E-1,1.250305176E-1
4.233354905E0,-2.507324219E-1,-5.099182129E-1,8.668518066E-2
4.235826829E0,-2.603302002E-1,-5.397491455E-1,5.152893066E-2
4.238268235E0,-2.560577393E-1,-5.631713867E-1,2.490234375E-2
4.240740159E0,-2.507324219E-1,-5.802154541E-1,2.532958984E-3
4.243212083E0,-2.283630371E-1,-5.972595215E-1,-4.928588867E-3
4.245684007E0,-2.049255371E-1,-6.185760498E-1,-4.928588867E-3
4.248125413E0,-1.697692871E-1,-6.217651367E-1,4.653930664E-3
4.250597337E0,-1.175842285E-1,-6.175079346E-1,1.957702637E-2
4.253069260E0,-6.324768066E-2,-6.206970215E-1,4.301452637E-2
4.255510667E0,-8.926391602E-3,-6.377410889E-1,6.857299805E-2
4.257982591E0,4.753112793E-2,-6.569213867E-1,9.626770020E-2
4.260454514E0,1.040039062E-1,-6.824951172E-1,1.292877197E-1
4.262895921E0,1.604614258E-1,-7.144470215E-1,1.655120850E-1
4.265367844E0,2.126617432E-1,-7.463989258E-1,2.038574219E-1
4.267839768E0,2.680511475E-1,-7.655792236E-1,2.454071045E-1
4.270281175E0,3.276977539E-1,-7.794342041E-1,2.837524414E-1
4.272753098E0,3.862915039E-1,-7.836914062E-1,3.221130371E-1
4.275225022E0,4.406280518E-1,-7.868804932E-1,3.551330566E-1
4.277696946E0,4.960174561E-1,-7.783660889E-1,3.785705566E-1
4.280138352E0,5.418243408E-1,-7.645111084E-1,3.998718262E-1
4.282610276E0,5.823059082E-1,-7.463989258E-1,4.073333740E-1
4.285082200E0,6.185150146E-1,-7.219085693E-1,4.041290283E-1
4.287523606E0,6.408843994E-1,-6.899414062E-1,3.913421631E-1
4.289995530E0,6.547393799E-1,-6.558532715E-1,3.753662109E-1
4.292467454E0,6.611328125E-1,-6.175079346E-1,3.540649414E-1
4.294908860E0,6.558074951E-1,-5.791625977E-1,3.274383545E-1
4.297380784E0,6.408843994E-1,-5.322875977E-1,3.007965088E-1
4.299852708E0,6.142578125E-1,-4.864807129E-1,2.763061523E-1
4.302294114E0,5.812377930E-1,-4.385375977E-1,2.485961914E-1
4.304766038E0,5.343627930E-1,-3.884735107E-1,2.272949219E-1
4.307237962E0,4.747161865E-1,-3.373413086E-1,2.113189697E-1
4.309679368E0,4.150543213E-1,-2.830200195E-1,1.953430176E-1
4.312151292E0,3.479461670E-1,-2.244262695E-1,1.857452393E-1
4.314623216E0,2.754974365E-1,-1.605072021E-1,1.761627197E-1
4.317095139E0,1.966705322E-1,-1.008605957E-1,1.676483154E-1
4.319536546E0,1.221008301E-1,-4.438781738E-2,1.676483154E-1
4.322008469E0,4.647827148E-2,3.540039062E-3,1.644439697E-1
4.324480393E0,-3.129577637E-2,3.656005859E-2,1.655120850E-1
4.326921800E0,-1.122589111E-1,5.680847168E-2,1.697692871E-1
4.329393723E0,-1.942749023E-1,5.148315430E-2,1.857452393E-1
4.331865647E0,-2.965393066E-1,-1.785278320E-3,2.038574219E-1
4.334307053E0,-4.297027588E-1,-8.486938477E-2,2.315521240E-1
4.336778977E0,-5.660552979E-1,-1.498565674E-1,2.464752197E-1
4.339250901E0,-6.704559326E-1,-1.945953369E-1,2.464752197E-1
4.341692307E0,-7.205200195E-1,-1.945953369E-1,2.528686523E-1
4.344164231E0,-7.088012695E-1,-1.530456543E-1,2.581939697E-1
4.346636155E0,-6.544647217E-1,-1.264190674E-1,2.656402588E-1
4.349077561E0,-5.777740479E-1,-1.541137695E-1,2.677764893E-1
4.351549485E0,-5.063934326E-1,-2.404022217E-1,2.645874023E-1
4.354021409E0,-4.435424805E-1,-3.586425781E-1,2.635192871E-1
4.356493333E0,-3.956146240E-1,-4.811553955E-1,2.645874023E-1
4.358934739E0,-3.348846436E-1,-5.812835693E-1,2.677764893E-1
4.361406663E0,-2.592620850E-1,-6.547851562E-1,2.709808350E-1
4.363878587E0,-1.665802002E-1,-7.080535889E-1,2.752380371E-1
4.366319993E0,-5.259704590E-2,-7.591857910E-1,2.848205566E-1
4.368791917E0,6.457519531E-2,-8.273620605E-1,3.050689697E-1
4.371263841E0,1.711120605E-1,-9.157867432E-1,3.274383545E-1
4.373705247E0,2.478027344E-1,-1.025497437E0,3.625793457E-1
4.376177171E0,2.712402344E-1,-1.182098389E0,4.094543457E-1
4.378649094E0,2.712402344E-1,-1.402603149E0,4.712371826E-1
4.381090501E0,2.669830322E-1,-1.685974121E0,5.713806152E-1
4.383562425E0,2.787017822E-1,-1.808471680E0,7.258453369E-1
4.386034348E0,3.213043213E-1,-1.707275391E0,9.484863281E-1
4.388475755E0,3.841552734E-1,-1.491027832E0,1.238235474E0
4.390947678E0,4.320983887E-1,-1.279037476E0,1.541839600E0
4.393419602E0,4.438171387E-1,-1.161849976E0,1.743164062E0
4.395891526E0,4.139862061E-1,-1.154403687E0,1.796432495E0
4.398332932E0,3.575286865E-1,-1.272644043E0,1.779388428E0
4.400804856E0,2.818908691E-1,-1.507003784E0,1.692031860E0
4.403276780E0,1.998748779E-1,-1.795684814E0,1.538635254E0
4.405718186E0,1.274261475E-1,-2.049224854E0,1.353286743E0
4.408190110E0,8.375549316E-2,-2.230316162E0,1.174316406E0
4.410662034E0,8.268737793E-2,-2.357086182E0,1.047546387E0
4.413103440E0,1.146545410E-1,-2.434844971E0,9.974822998E-1
4.415575364E0,1.721801758E-1,-2.456146240E0,1.012405396E0
4.418047288E0,2.467498779E-1,-2.428451538E0,1.069915771E0
4.420488694E0,3.372955322E-1,-2.358154297E0,1.149810791E0
4.422960618E0,4.363555908E-1,-2.271865845E0,1.224380493E0
4.425432542E0,5.215759277E-1,-2.203689575E0,1.294692993E0
4.427873948E0,5.844268799E-1,-2.172790527E0,1.341567993E0
4.430345872E0,6.291656494E-1,-2.178115845E0,1.343688965E0
4.432817796E0,6.483459473E-1,-2.210083008E0,1.291503906E0
4.435289719E0,6.472778320E-1,-2.256942749E0,1.208404541E0
4.437731126E0,6.302337646E-1,-2.301696777E0,1.108276367E0
4.440203050E0,6.121215820E-1,-2.333648682E0,1.004943848E0
4.442674973E0,5.897521973E-1,-2.337905884E0,9.165191650E-1
4.445116380E0,5.705871582E-1,-2.310211182E0,8.536682129E-1
4.447588303E0,5.524749756E-1,-2.261215210E0,8.174591064E-1
4.450060227E0,5.354309082E-1,-2.196228027E0,8.057403564E-1
4.452501634E0,5.194549561E-1,-2.117401123E0,8.110656738E-1
4.454973557E0,4.917602539E-1,-2.032180786E0,8.227844238E-1
4.457445481E0,4.587249756E-1,-1.950149536E0,8.345031738E-1
4.459886887E0,4.193115234E-1,-1.867065430E0,8.355712891E-1
4.462358811E0,3.735046387E-1,-1.783966064E0,8.238525391E-1
4.464830735E0,3.223724365E-1,-1.706207275E0,8.036041260E-1
4.467272141E0,2.754974365E-1,-1.639099121E0,7.705841064E-1
4.469744065E0,2.318267822E-1,-1.565597534E0,7.290344238E-1
4.472215989E0,1.806945801E-1,-1.491027832E0,6.821594238E-1
4.474687913E0,1.359558105E-1,-1.420715332E0,6.310272217E-1
4.477129319E0,9.866333008E-2,-1.339752197E0,5.852203369E-1
4.479601243E0,6.352233887E-2,-1.259857178E0,5.404815674E-1
4.482073167E0,3.475952148E-2,-1.183166504E0,4.946746826E-1
4.484514573E0,3.860473633E-3,-1.110717773E0,4.531402588E-1
4.486986497E0,-3.022766113E-2,-1.046813965E0,4.147796631E-1
4.489458421E0,-6.645202637E-2,-9.818267822E-1,3.785705566E-1
4.491899827E0,-9.733581543E-2,-9.179077148E-1,3.402099609E-1
4.494371751E0,-1.271667480E-1,-8.539886475E-1,3.040008545E-1
4.496782639E0,-1.548614502E-1,-7.911376953E-1,2.667083740E-1
4.499224046E0,-1.804351807E-1,-7.389526367E-1,2.336883545E-1
4.501695969E0,-2.028045654E-1,-6.920776367E-1,2.081298828E-1
4.504198411E0,-2.272949219E-1,-6.579895020E-1,1.889495850E-1
4.506670335E0,-2.496643066E-1,-6.196441650E-1,1.782989502E-1
4.509142259E0,-2.699127197E-1,-5.940704346E-1,1.708374023E-1
4.511614182E0,-2.826995850E-1,-5.695648193E-1,1.676483154E-1
4.514086106E0,-2.986755371E-1,-5.450744629E-1,1.633758545E-1
4.516527512E0,-3.050689697E-1,-5.216369629E-1,1.527252197E-1
4.518999436E0,-3.050689697E-1,-5.099182129E-1,1.420745850E-1
4.521471360E0,-3.018646240E-1,-5.013885498E-1,1.282348633E-1
4.523912766E0,-2.997436523E-1,-5.120391846E-1,1.175689697E-1
4.526384690E0,-2.922821045E-1,-5.248260498E-1,1.090545654E-1
4.528856614E0,-2.763061523E-1,-5.482635498E-1,1.005249023E-1
4.531298020E0,-2.635192871E-1,-5.738372803E-1,9.519958496E-2
4.533769944E0,-2.475433350E-1,-5.972595215E-1,9.201049805E-2
4.536241868E0,-2.304992676E-1,-6.164398193E-1,8.454895020E-2
4.538713792E0,-2.049255371E-1,-6.302947998E-1,8.242797852E-2
4.541155198E0,-1.761627197E-1,-6.494598389E-1,8.135986328E-2
4.543627122E0,-1.431427002E-1,-6.654510498E-1,7.710266113E-2
4.546099046E0,-1.207733154E-1,-6.824951172E-1,7.389831543E-2
4.548540452E0,-9.521484375E-2,-7.005920410E-1,6.964111328E-2
4.551012376E0,-7.177734375E-2,-7.208404541E-1,6.538391113E-2
4.553484300E0,-4.940795898E-2,-7.410736084E-1,5.685424805E-2
4.555925706E0,-2.915954590E-2,-7.677154541E-1,4.727172852E-2
4.558397630E0,-1.744079590E-2,-7.985992432E-1,4.194641113E-2
4.560869553E0,-1.850891113E-2,-8.369445801E-1,3.555297852E-2
4.563310960E0,-2.597045898E-2,-8.742370605E-1,3.448486328E-2
4.565782884E0,-3.981018066E-2,-9.061889648E-1,3.555297852E-2
4.568254807E0,-5.259704590E-2,-9.381561279E-1,3.874206543E-2
4.570696214E0,-7.603454590E-2,-9.690399170E-1,5.046081543E-2
4.573168137E0,-1.026611328E-1,-1.001007080E0,6.538391113E-2
4.575640061E0,-1.324920654E-1,-1.041488647E0,8.775329590E-2
4.578081467E0,-1.601867676E-1,-1.079833984E0,1.207733154E-1
4.580553391E0,-1.932067871E-1,-1.120315552E0,1.548614502E-1
4.583025315E0,-2.251739502E-1,-1.167190552E0,1.921386719E-1
4.585497239E0,-2.581939697E-1,-1.215118408E0,2.336883545E-1
4.587938645E0,-2.922821045E-1,-1.273712158E0,2.763061523E-1
4.590410569E0,-3.242340088E-1,-1.334426880E0,3.167877197E-1
4.592882493E0,-3.562011719E-1,-1.404739380E0,3.583221436E-1
4.595323899E0,-3.796386719E-1,-1.476104736E0,4.020080566E-1
4.597795823E0,-3.988037109E-1,-1.547485352E0,4.488677979E-1
4.600267747E0,-4.137268066E-1,-1.630569458E0,4.936065674E-1
4.602709153E0,-4.233093262E-1,-1.717926025E0,5.372924805E-1
4.605181077E0,-4.286346436E-1,-1.805282593E0,5.745697021E-1
4.607653001E0,-4.147796631E-1,-1.891571045E0,6.203765869E-1
4.610094407E0,-3.988037109E-1,-1.982116699E0,6.693878174E-1
4.612566331E0,-3.828277588E-1,-2.084381104E0,7.205200195E-1
4.615038255E0,-3.540649414E-1,-2.169601440E0,7.780456543E-1
4.617510178E0,-3.135833740E-1,-2.250564575E0,8.430175781E-1
4.619951585E0,-2.731018066E-1,-2.329391479E0,9.143981934E-1
4.622423509E0,-2.283630371E-1,-2.389038086E0,9.836425781E-1
4.624895432E0,-1.793670654E-1,-2.435913086E0,1.029449463E0
4.627336839E0,-1.239624023E-1,-2.473190308E0,1.053939819E0
4.629808762E0,-6.217956543E-2,-2.511550903E0,1.056076050E0
4.632280686E0,-4.653930664E-3,-2.555221558E0,1.035827637E0
4.634722092E0,5.392456055E-2,-2.606353760E0,1.009201050E0
4.637194016E0,1.125183105E-1,-2.656417847E0,9.793701172E-1
4.639665940E0,1.604614258E-1,-2.702224731E0,9.474182129E-1
4.642107346E0,1.977386475E-1,-2.740585327E0,9.271697998E-1
4.644579270E0,2.254333496E-1,-2.778930664E0,9.154663086E-1
4.647051194E0,2.435455322E-1,-2.816207886E0,9.122619629E-1
4.649492600E0,2.531280518E-1,-2.853500366E0,9.239807129E-1
4.651964524E0,2.446136475E-1,-2.871612549E0,9.484863281E-1
4.654436448E0,2.328948975E-1,-2.870544434E0,9.825744629E-1
4.656908372E0,2.019958496E-1,-2.866287231E0,1.030502319E0
4.659349778E0,1.391448975E-1,-2.857757568E0,1.105072021E0
4.661821702E0,5.073547363E-2,-2.849243164E0,1.196685791E0
4.664263108E0,-4.406738281E-2,-2.847106934E0,1.274459839E0
4.666735032E0,-1.442108154E-1,-2.860946655E0,1.349014282E0
4.669206956E0,-2.336883545E-1,-2.879058838E0,1.435302734E0
4.671678880E0,-3.061370850E-1,-2.886520386E0,1.527984619E0
4.674120286E0,-3.679199219E-1,-2.882263184E0,1.635574341E0
4.676592210E0,-4.094543457E-1,-2.864151001E0,1.737838745E0
4.679064134E0,-4.339599609E-1,-2.832199097E0,1.822006226E0
4.681505540E0,-4.456787109E-1,-2.807693481E0,1.892303467E0
4.683977464E0,-4.531402588E-1,-2.801300049E0,1.956222534E0
4.686449387E0,-4.552612305E-1,-2.821533203E0,2.018005371E0
4.688890794E0,-4.424896240E-1,-2.863082886E0,2.067016602E0
4.691362717E0,-4.169158936E-1,-2.913146973E0,2.109619141E0
4.693834641E0,-3.625946045E-1,-2.960021973E0,2.155426025E0
4.696306565E0,-2.826995850E-1,-2.990921021E0,2.198043823E0
4.698747971E0,-1.910858154E-1,-2.997314453E0,2.249176025E0
4.701219895E0,-1.079864502E-1,-3.000503540E0,2.285385132E0
4.703691819E0,-3.981018066E-2,-3.022872925E0,2.296035767E0
4.706133225E0,-3.967285156E-4,-3.104904175E0,2.291778564E0
4.708605149E0,-7.858276367E-3,-3.438323975E0,2.298171997E0
4.711077073E0,-7.283020020E-2,-3.885742188E0,2.343978882E0
4.713518479E0,-1.452789307E-1,-4.043395996E0,2.413223267E0
4.715990403E0,-1.633911133E-1,-3.964569092E0,2.482467651E0
4.718462327E0,-1.655120850E-1,-3.769622803E0,2.533599854E0
4.720903733E0,-1.825561523E-1,-3.475616455E0,2.567687988E0
4.723375657E0,-2.187805176E-1,-3.121948242E0,2.567687988E0
4.725847581E0,-2.922821045E-1,-2.791717529E0,2.532531738E0
4.728288987E0,-4.307708740E-1,-2.566940308E0,2.471817017E0
4.730760911E0,-6.278381348E-1,-2.458282471E0,2.388717651E0
4.733232835E0,-8.504791260E-1,-2.389038086E0,2.298171997E0
4.735704759E0,-1.047546387E0,-2.276123047E0,2.198043823E0
4.738146165E0,-1.194564819E0,-2.099288940E0,2.100036621E0
4.740618089E0,-1.306411743E0,-1.895828247E0,2.033981323E0
4.743090012E0,-1.394836426E0,-1.656143188E0,1.997772217E0
4.745531419E0,-1.474731445E0,-1.420715332E0,1.987121582E0
4.748003342E0,-1.573791504E0,-1.224700928E0,1.958358765E0
4.750475266E0,-1.694168091E0,-1.084091187E0,1.868865967E0
4.752916673E0,-1.823059082E0,-9.647827148E-1,1.722930908E0
4.755388596E0,-1.959426880E0,-8.369445801E-1,1.564208984E0
4.757860520E0,-2.075531006E0,-7.005920410E-1,1.423583984E0
4.760301926E0,-2.179931641E0,-5.610504150E-1,1.293624878E0
4.762773850E0,-2.271545410E0,-4.065856934E-1,1.181777954E0
4.765245774E0,-2.342910767E0,-2.286834717E-1,1.091232300E0
4.767717698E0,-2.404693604E0,-4.759216309E-2,1.023056030E0
4.770159104E0,-2.452636719E0,1.462860107E-1,9.697875977E-1
4.772631028E0,-2.497375488E0,3.359069824E-1,9.080047607E-1
4.775072434E0,-2.534667969E0,5.276489258E-1,8.494110107E-1
4.777544358E0,-2.569824219E0,7.321777344E-1,7.972106934E-1
4.780016282E0,-2.616683960E0,9.186096191E-1,7.695159912E-1
4.782488206E0,-2.661422729E0,1.087982178E0,7.599334717E-1
4.784929612E0,-2.694458008E0,1.249908447E0,7.471466064E-1
4.787401536E0,-2.723220825E0,1.388381958E0,7.460784912E-1
4.789873460E0,-2.730667114E0,1.498107910E0,7.407531738E-1
4.792314866E0,-2.718948364E0,1.593978882E0,7.205200195E-1
4.794786790E0,-2.676345825E0,1.673873901E0,6.853637695E-1
4.797258714E0,-2.617752075E0,1.712219238E0,6.438140869E-1
4.799700120E0,-2.548507690E0,1.735656738E0,5.980072021E-1
4.802172044E0,-2.463287354E0,1.755905151E0,5.490112305E-1
4.804643967E0,-2.366348267E0,1.752700806E0,5.010681152E-1
4.807115891E0,-2.268341064E0,1.718612671E0,4.573974609E-1
4.809557298E0,-2.161819458E0,1.661087036E0,4.318237305E-1
4.812029221E0,-2.056365967E0,1.583328247E0,4.147796631E-1
4.814501145E0,-1.942382812E0,1.502365112E0,4.030609131E-1
4.816942551E0,-1.827331543E0,1.417144775E0,3.966674805E-1
4.819414475E0,-1.703750610E0,1.323410034E0,3.828277588E-1
4.821886399E0,-1.575927734E0,1.221145630E0,3.625793457E-1
4.824327805E0,-1.445968628E0,1.124206543E0,3.402099609E-1
4.826799729E0,-1.328781128E0,1.044311523E0,3.210449219E-1
4.829271653E0,-1.215866089E0,9.814605713E-1,3.093261719E-1
4.831713059E0,-1.100814819E0,9.036865234E-1,3.093261719E-1
4.834184983E0,-9.996185303E-1,7.960968018E-1,3.199768066E-1
4.836656907E0,-9.080047607E-1,6.789245605E-1,3.338317871E-1
4.839098313E0,-8.238525391E-1,5.628051758E-1,3.487396240E-1
4.841570237E0,-7.492828369E-1,4.658660889E-1,3.583221436E-1
4.844042161E0,-6.832275391E-1,3.955535889E-1,3.551330566E-1
4.846514085E0,-6.257019043E-1,3.476257324E-1,3.338317871E-1
4.848955491E0,-5.724487305E-1,3.071441650E-1,3.103942871E-1
4.851427415E0,-5.330352783E-1,2.815704346E-1,2.858886719E-1
4.853899339E0,-5.032043457E-1,2.719879150E-1,2.667083740E-1
4.856340745E0,-4.914855957E-1,2.730560303E-1,2.528686523E-1
4.858812669E0,-4.936218262E-1,2.890319824E-1,2.368927002E-1
4.861284592E0,-4.978790283E-1,3.167266846E-1,2.230377197E-1
4.863725999E0,-5.085296631E-1,3.582763672E-1,2.113189697E-1
4.866197923E0,-5.341033936E-1,4.104766846E-1,2.028045654E-1
4.868669846E0,-5.649871826E-1,4.647979736E-1,2.049255371E-1
4.871111253E0,-5.926818848E-1,5.276489258E-1,2.134552002E-1
4.873583176E0,-6.225128174E-1,5.851745605E-1,2.262268066E-1
4.876055100E0,-6.502075195E-1,6.352386475E-1,2.347564697E-1
4.878496507E0,-6.715087891E-1,6.789245605E-1,2.411499023E-1
4.880968430E0,-6.864318848E-1,7.183380127E-1,2.454071045E-1
4.883440354E0,-7.066650391E-1,7.471008301E-1,2.443389893E-1
4.885912278E0,-7.215881348E-1,7.630767822E-1,2.411499023E-1
4.888353684E0,-7.364959717E-1,7.566833496E-1,2.315521240E-1
4.890825608E0,-7.439575195E-1,7.513580322E-1,2.219696045E-1
4.893297532E0,-7.577972412E-1,7.417755127E-1,2.198486328E-1
4.895738938E0,-7.716522217E-1,7.076873779E-1,2.155761719E-1
4.898210862E0,-7.897644043E-1,6.469573975E-1,2.155761719E-1
4.900652268E0,-8.163909912E-1,5.606689453E-1,2.209014893E-1
4.903124192E0,-8.526153564E-1,4.530792236E-1,2.347564697E-1
4.905596116E0,-8.909606934E-1,3.540191650E-1,2.432708740E-1
4.908068040E0,-9.229125977E-1,2.677307129E-1,2.518005371E-1
4.910509446E0,-9.516754150E-1,1.367034912E-1,2.603149414E-1
4.912981370E0,-9.985504150E-1,-7.102966309E-2,2.752380371E-1
4.915453294E0,-1.041168213E0,-1.807556152E-1,3.007965088E-1
4.917925217E0,-1.081649780E0,-1.945953369E-1,3.210449219E-1
4.920366624E0,-1.125320435E0,-2.542572021E-1,3.306274414E-1
4.922838548E0,-1.157272339E0,-3.160400391E-1,3.380889893E-1
4.925310471E0,-1.194564819E0,-3.277587891E-1,3.348846436E-1
4.927751878E0,-1.224380493E0,-3.266906738E-1,3.295593262E-1
4.930223801E0,-1.236099243E0,-3.202972412E-1,3.210449219E-1
4.932695725E0,-1.243560791E0,-3.064575195E-1,3.189086914E-1
4.935137132E0,-1.251022339E0,-2.872772217E-1,3.146514893E-1
4.937609055E0,-1.253143311E0,-2.702331543E-1,3.050689697E-1
4.940080979E0,-1.239303589E0,-2.638397217E-1,2.912139893E-1
4.942522385E0,-1.212677002E0,-2.808837891E-1,2.784271240E-1
4.944994309E0,-1.177520752E0,-2.926025391E-1,2.720336914E-1
4.947466233E0,-1.135971069E0,-3.053894043E-1,2.613830566E-1
4.949907639E0,-1.093353271E0,-3.469238281E-1,2.432708740E-1
4.952379563E0,-1.041168213E0,-3.874053955E-1,2.336883545E-1
4.954851487E0,-9.889678955E-1,-4.289550781E-1,2.209014893E-1
4.957323411E0,-9.591369629E-1,-4.939422607E-1,2.091827393E-1
4.959764817E0,-9.356994629E-1,-5.589141846E-1,2.070617676E-1
4.962236741E0,-9.080047607E-1,-6.206970215E-1,1.953430176E-1
4.964708665E0,-8.739166260E-1,-6.952667236E-1,1.729736328E-1
4.967150071E0,-8.376922607E-1,-7.549285889E-1,1.644439697E-1
4.969621995E0,-7.918853760E-1,-7.932739258E-1,1.580505371E-1
4.972093919E0,-7.333068848E-1,-8.486633301E-1,1.367492676E-1
4.974535325E0,-6.800384521E-1,-8.635864258E-1,1.260986328E-1
4.977007249E0,-6.267700195E-1,-9.179077148E-1,1.197052002E-1
4.979479173E0,-5.820312500E-1,-1.058532715E0,1.229095459E-1
4.981920579E0,-5.458068848E-1,-1.055328369E0,1.473999023E-1
4.984392503E0,-5.095977783E-1,-1.022308350E0,1.676483154E-1
4.986864426E0,-4.733734131E-1,-1.006332397E0,1.974639893E-1
4.989305833E0,-4.307708740E-1,-1.002075195E0,2.347564697E-1
4.991777757E0,-3.945465088E-1,-1.042541504E0,2.603149414E-1
4.994249680E0,-3.391571045E-1,-1.093673706E0,2.869567871E-1
4.996721604E0,-2.752380371E-1,-1.135223389E0,3.253021240E-1
4.999163010E0,-2.198486328E-1,-1.177841187E0,3.721771240E-1
5.001634934E0,-1.697692871E-1,-1.206604004E0,4.392852783E-1
