"Time (s)","Acceleration x (m/s^2)","Acceleration y (m/s^2)","Acceleration z (m/s^2)"
2.689661900E-2,2.437688112E0,6.226124287E0,7.569096088E0
2.930188000E-2,2.385046005E0,6.259624004E0,7.540382385E0
3.170714000E-2,2.337189436E0,6.250052929E0,7.593024254E0
3.411240100E-2,2.284547329E0,6.254838467E0,7.607381344E0
3.651771300E-2,2.231905222E0,6.245266914E0,7.602595806E0
3.892297300E-2,2.251047850E0,6.226124287E0,7.616952896E0
4.132823400E-2,2.184048891E0,6.254838467E0,7.631309509E0
4.373349400E-2,2.169692039E0,6.273981094E0,7.636095047E0
4.613875500E-2,2.140978098E0,6.273981094E0,7.626523972E0
4.854401500E-2,2.136192322E0,6.278766632E0,7.545167923E0
5.094927600E-2,2.088335991E0,6.273981094E0,7.535596848E0
5.335453600E-2,2.093121529E0,6.259624004E0,7.578667641E0
5.575979600E-2,2.064407825E0,6.264409542E0,7.607381344E0
5.816505700E-2,2.073979139E0,6.307480335E0,7.597810268E0
6.057036900E-2,2.078764677E0,6.278766632E0,7.497311592E0
6.297563000E-2,2.131406784E0,6.302694798E0,7.616952896E0
6.538089000E-2,2.274976015E0,6.326622963E0,7.688737392E0
6.778615100E-2,2.318047047E0,6.412764549E0,7.703094482E0
7.019141100E-2,2.370688915E0,6.451049805E0,7.583453178E0
7.259667100E-2,2.399402857E0,6.470192432E0,7.482954502E0
7.500193200E-2,2.475973129E0,6.427121639E0,7.382455826E0
7.740719200E-2,2.514258385E0,6.498906136E0,7.310671329E0
7.981245300E-2,2.638685226E0,6.465406895E0,7.243073940E0
8.221771300E-2,2.724826813E0,6.460621357E0,7.214360237E0
8.462297300E-2,2.787040234E0,6.508477688E0,7.166503906E0
8.702828600E-2,2.811566591E0,6.479763508E0,7.123433113E0
8.943354600E-2,2.830709219E0,6.498906136E0,7.089933395E0
9.183880700E-2,2.845066071E0,6.518048763E0,7.070790768E0
9.424406700E-2,2.907279491E0,6.556334019E0,7.051648140E0
9.664932800E-2,2.959921598E0,6.570691109E0,7.070790768E0
9.905458800E-2,3.002992392E0,6.580262184E0,7.089933395E0
1.014598480E-1,3.065205812E0,6.642475605E0,7.161718369E0
1.038651090E-1,3.122633457E0,6.671189308E0,7.223931789E0
1.062703690E-1,3.156133175E0,6.704689026E0,7.295716286E0
1.086756820E-1,3.165704250E0,6.714260101E0,7.372884750E0
1.110809420E-1,3.151347399E0,6.766902447E0,7.459026337E0
1.134862030E-1,3.132204771E0,6.762116909E0,7.526025295E0
1.158914630E-1,3.031706333E0,6.762116909E0,7.588238716E0
1.182967230E-1,3.012563705E0,6.809973240E0,7.645666599E0
1.207019840E-1,2.873780012E0,6.829115868E0,7.683951855E0
1.231072440E-1,2.801397085E0,6.809973240E0,7.731808186E0
1.255125050E-1,2.739183664E0,6.833901405E0,7.803592682E0
1.279177650E-1,2.485544443E0,6.747759819E0,7.865806103E0
1.303230260E-1,2.437688112E0,6.781259537E0,7.923233986E0
1.327282860E-1,2.523829699E0,6.790830612E0,7.975875854E0
1.351335980E-1,2.609971285E0,6.766902447E0,7.961519241E0
1.375388590E-1,2.609971285E0,6.723831654E0,7.990232944E0
1.399441190E-1,2.614757061E0,6.666403770E0,8.052446365E0
1.423493800E-1,2.720041037E0,6.628118515E0,8.143373489E0
1.447546400E-1,2.715255499E0,6.585047722E0,8.148159027E0
1.471599010E-1,2.667398930E0,6.537191391E0,8.109873772E0
1.495651610E-1,2.380260229E0,6.565905571E0,8.009375572E0
1.519704210E-1,2.169692039E0,6.556334019E0,7.932805061E0
1.543756820E-1,2.112264156E0,6.522834301E0,7.908876896E0
1.567809420E-1,2.064407825E0,6.546762943E0,7.865806103E0
1.591862550E-1,2.035693884E0,6.594619274E0,7.832306862E0
1.615915150E-1,1.939980984E0,6.580262184E0,7.789236069E0
1.639967760E-1,1.949552298E0,6.594619274E0,7.703094482E0
1.664020360E-1,1.920838356E0,6.570691109E0,7.712665558E0
1.688072960E-1,1.920838356E0,6.513263226E0,7.722237110E0
1.712125570E-1,1.580459356E0,6.824330330E0,7.506882668E0
1.736178170E-1,1.436890006E0,6.824330330E0,7.329813957E0
1.760230780E-1,1.484746456E0,6.752545357E0,7.204789162E0
1.784283380E-1,1.144965649E0,7.092326164E0,6.802794933E0
1.808335980E-1,9.918249846E-1,7.178467751E0,6.151348591E0
1.832388590E-1,1.135394335E0,7.087540627E0,5.854638577E0
1.856441190E-1,1.710269928E0,6.920042992E0,5.404788017E0
1.880494320E-1,1.623530149E0,6.876972198E0,5.342574596E0
1.904546920E-1,1.408176184E0,6.910471916E0,5.696712494E0
1.928599530E-1,1.197607756E0,6.915257454E0,6.069993019E0
1.952652130E-1,9.774680734E-1,6.929614544E0,6.429514408E0
1.976704730E-1,8.051848412E-1,6.819544315E0,6.702296257E0
2.000757340E-1,7.094719410E-1,6.675975323E0,6.917650223E0
2.024809940E-1,7.812566161E-1,6.556334019E0,7.075576782E0
2.048862550E-1,8.147560954E-1,6.460621357E0,7.238288403E0
2.072915150E-1,8.482556343E-1,6.264409542E0,7.411170006E0
2.096967760E-1,8.578268886E-1,6.139384747E0,7.526025295E0
2.121020360E-1,8.291130662E-1,6.014957905E0,7.631309509E0
2.145072960E-1,7.477570772E-1,5.847460270E0,7.688737392E0
2.169126090E-1,7.477570772E-1,5.713462353E0,7.760521889E0
2.193178690E-1,7.860422134E-1,5.622535229E0,7.851449490E0
2.217231300E-1,8.051848412E-1,5.488536835E0,7.956733704E0
2.241283900E-1,7.477570772E-1,5.407180786E0,8.191229820E0
2.265336510E-1,7.046862841E-1,5.354538918E0,8.373085022E0
2.289389110E-1,6.999006271E-1,5.282754421E0,8.531609535E0
2.313441710E-1,7.190431952E-1,5.277968407E0,8.675178528E0
2.337494320E-1,7.286145091E-1,5.244469166E0,8.790034294E0
2.361546920E-1,8.051848412E-1,5.201398373E0,9.034101486E0
2.385599530E-1,9.200403094E-1,5.134399414E0,9.239884377E0
2.409652130E-1,1.001396298E0,5.096114159E0,9.445667267E0
2.433704730E-1,1.068395257E0,5.023731232E0,9.714262009E0
2.457757860E-1,1.149751306E0,4.966303349E0,9.886545181E0
2.481810460E-1,1.116251707E0,4.966303349E0,9.891330719E0
2.505863070E-1,1.173679471E0,4.923232555E0,9.910472870E0
2.529915670E-1,1.312463164E0,4.880161762E0,9.972686768E0
2.553968280E-1,1.341177106E0,4.904089928E0,1.000139999E1
2.578020880E-1,1.226321578E0,4.861019135E0,9.972686768E0
2.602073480E-1,1.197607756E0,4.832305431E0,9.967901230E0
2.626126090E-1,1.068395257E0,4.746163845E0,1.000139999E1
2.650178690E-1,1.025324464E0,4.698307037E0,1.007318497E1
2.674231300E-1,9.343972206E-1,4.698307037E0,1.013061333E1
2.698283900E-1,8.626125455E-1,4.765306473E0,1.014496994E1
2.722337030E-1,7.956135273E-1,4.813162804E0,1.019282627E1
2.746389630E-1,7.190431952E-1,4.870590687E0,1.016411209E1
2.770442230E-1,6.041877270E-1,4.999803066E0,1.008275604E1
2.794494840E-1,4.743770957E-1,5.139184952E0,9.958329201E0
2.818547440E-1,4.504488707E-1,5.230112076E0,9.790832520E0
2.842600050E-1,3.690928817E-1,5.330610752E0,9.594620705E0
2.866652650E-1,3.116651475E-1,5.445466042E0,9.330811501E0
2.890705260E-1,2.159522474E-1,5.507679462E0,9.053244591E0
2.914757860E-1,1.250249892E-1,5.574678421E0,8.809176445E0
2.938810460E-1,1.495514158E-2,5.675177097E0,8.517251968E0
2.962863070E-1,-1.046859920E-1,5.770890236E0,8.325227737E0
2.986915670E-1,-2.243271172E-1,5.828317642E0,8.200801849E0
3.010968800E-1,-1.573280841E-1,5.837889194E0,8.129016876E0
3.035021400E-1,-6.161518395E-2,5.900102615E0,8.038089752E0
3.059074010E-1,5.383851007E-3,5.914459229E0,7.932805061E0
3.083126610E-1,7.716853172E-2,5.991029739E0,7.794021606E0
3.107179210E-1,7.238288224E-2,6.134599209E0,7.655237675E0
3.131231820E-1,1.250249892E-1,6.317051888E0,7.435098171E0
3.155284420E-1,2.638086975E-1,6.245266914E0,7.152146816E0
3.179337030E-1,5.318048596E-1,6.120242119E0,6.960721016E0
3.203389630E-1,6.664010882E-1,6.072385788E0,6.817151546E0
3.227442230E-1,7.621139884E-1,5.976672649E0,6.702296257E0
3.251494840E-1,8.434699774E-1,6.000600815E0,6.611369133E0
3.275547440E-1,8.626125455E-1,5.981458187E0,6.573083878E0
3.299600050E-1,7.812566161E-1,6.125027657E0,6.625725746E0
3.323653170E-1,3.930211067E-1,6.580262184E0,6.721438885E0
3.347705780E-1,5.365904570E-1,6.532405853E0,6.544369698E0
3.371758380E-1,7.334001660E-1,6.350551128E0,6.558726788E0
3.395810980E-1,8.434699774E-1,6.230910301E0,6.649653912E0
3.419863590E-1,1.001396298E0,6.129813194E0,6.372086525E0
3.443916190E-1,1.863410592E0,5.861817360E0,5.270790100E0
3.467968800E-1,2.231905222E0,5.608178139E0,4.997410297E0
3.492021400E-1,1.930409670E0,5.565107346E0,5.246861935E0
3.516074010E-1,1.350748420E0,5.536393166E0,5.706283569E0
3.540126610E-1,8.243274093E-1,5.498108387E0,6.175875187E0
3.564179210E-1,5.030909777E-1,5.522036552E0,6.592226505E0
3.588231820E-1,4.121637046E-1,5.656034470E0,6.860222340E0
3.612284940E-1,4.169493318E-1,5.833103180E0,6.898507595E0
3.636337550E-1,4.552344978E-1,6.067600250E0,6.740581512E0
3.660390150E-1,4.935196638E-1,6.302694798E0,6.606583118E0
3.684442760E-1,4.313062727E-1,6.494120598E0,6.544369698E0
3.708495360E-1,4.073780477E-1,6.699903488E0,6.601797581E0
3.732547960E-1,3.738785386E-1,6.862615108E0,6.711867332E0
3.756600570E-1,3.116651475E-1,6.967899323E0,6.917650223E0
3.780653170E-1,2.494517565E-1,7.044469833E0,7.104290485E0
3.804705780E-1,-1.375873014E-2,7.144968510E0,7.262216568E0
3.828758380E-1,-2.673979402E-1,7.207181931E0,7.353742123E0
3.852810980E-1,-4.301098585E-1,7.250252724E0,7.353742123E0
3.876863590E-1,-5.497509837E-1,7.202396393E0,7.315456867E0
3.900916190E-1,-5.838487148E-1,7.149754047E0,7.320242882E0
3.924969320E-1,-5.593222976E-1,7.168896675E0,7.348956585E0
3.949021920E-1,-5.306084156E-1,7.025327206E0,7.459026337E0
3.973074530E-1,-5.647061467E-1,6.982256413E0,7.506882668E0
3.997127130E-1,-4.827519655E-1,7.044469833E0,7.545167923E0
4.021179730E-1,-3.678964674E-1,6.987041950E0,7.564310551E0
4.045232340E-1,-2.865405083E-1,6.958328247E0,7.569096088E0
4.069284940E-1,-2.626122832E-1,6.910471916E0,7.612166882E0
4.093337550E-1,-2.913261652E-1,6.829115868E0,7.679165840E0
4.117390150E-1,-2.051845491E-1,6.742974281E0,7.760521889E0
4.141442760E-1,-5.682953820E-2,6.709474564E0,7.894520283E0
4.165495360E-1,-2.338984162E-1,6.465406895E0,8.167302132E0
4.189547960E-1,1.537388563E-1,6.369693756E0,8.363512993E0
4.213600570E-1,5.706881881E-1,6.235695839E0,8.090731621E0
4.237653690E-1,6.472585201E-1,6.178267956E0,7.899305820E0
4.261706300E-1,4.839483798E-1,6.086742401E0,8.047660828E0
4.285758900E-1,2.446661144E-1,6.014957905E0,8.282156944E0
4.309811510E-1,6.233302951E-1,6.053243160E0,8.377870560E0
4.333864110E-1,4.983053207E-1,5.708676815E0,9.014959335E0
4.357916710E-1,3.409772366E-2,5.445466042E0,9.747760773E0
4.381969320E-1,-1.238285750E-1,5.311468124E0,1.001575756E1
4.406021920E-1,8.195417374E-2,5.258825779E0,9.967901230E0
4.430074530E-1,3.020938635E-1,5.254040241E0,9.800403595E0
4.454127130E-1,5.557330847E-1,5.301896572E0,9.709476471E0
4.478179730E-1,6.137589812E-1,5.325825214E0,9.531808853E0
4.502232340E-1,5.659025311E-1,5.349753380E0,9.373882294E0
4.526284940E-1,5.365904570E-1,5.364109993E0,9.282955170E0
4.550338070E-1,4.552344978E-1,5.368896008E0,9.115457535E0
4.574390670E-1,4.408775866E-1,5.435894966E0,8.976674080E0
4.598443280E-1,4.552344978E-1,5.507679462E0,8.847461700E0
4.622495880E-1,5.078766346E-1,5.541179180E0,8.656036377E0
4.646548480E-1,5.461617708E-1,5.603392601E0,8.498109818E0
4.670601090E-1,6.520441771E-1,5.627320766E0,8.330014229E0
4.694653690E-1,6.807580590E-1,5.732604980E0,8.138587952E0
4.718706300E-1,6.903293133E-1,5.746961594E0,7.990232944E0
4.742758900E-1,6.759724021E-1,5.746961594E0,7.856235027E0
4.766811510E-1,6.711867452E-1,5.751747608E0,7.746165276E0
4.790864110E-1,6.664010882E-1,5.799603939E0,7.660023689E0
4.814916710E-1,6.520441771E-1,5.756533146E0,7.645666599E0
4.838969320E-1,7.381857634E-1,5.742176056E0,7.612166882E0
4.863022440E-1,8.243274093E-1,5.646463394E0,7.569096088E0
4.887075050E-1,7.716853023E-1,5.627320766E0,7.593024254E0
4.911127650E-1,7.908278704E-1,5.550750256E0,7.607381344E0
4.935180260E-1,8.051848412E-1,5.545964718E0,7.683951855E0
4.959232860E-1,7.812566161E-1,5.459823132E0,7.755736351E0
4.983285460E-1,7.812566161E-1,5.416752338E0,7.827520847E0
5.007338070E-1,7.621139884E-1,5.435894966E0,7.894520283E0
5.031390670E-1,7.046862841E-1,5.335396290E0,7.923233986E0
5.055443280E-1,6.520441771E-1,5.306682587E0,7.995018482E0
5.079495880E-1,5.706881881E-1,5.263611794E0,8.095517159E0
5.103548480E-1,5.611169338E-1,5.321039200E0,8.258229256E0
5.127601090E-1,5.754738450E-1,5.292325497E0,8.373085022E0
5.151653690E-1,5.946164131E-1,5.311468124E0,8.445467949E0
5.175706820E-1,6.233302951E-1,5.325825214E0,8.531609535E0
5.199759420E-1,5.898307562E-1,5.359324455E0,8.646464348E0
5.223812030E-1,5.754738450E-1,5.421537876E0,8.665607452E0
5.247864630E-1,5.557330847E-1,5.455037594E0,8.684749603E0
5.271917230E-1,5.078766346E-1,5.502893925E0,8.727820396E0
5.295969840E-1,4.504488707E-1,5.522036552E0,8.694320679E0
5.320022440E-1,4.217349887E-1,5.598606586E0,8.665607452E0
5.344075050E-1,4.025924206E-1,5.703890800E0,8.579465866E0
5.368127650E-1,4.408775866E-1,5.727818966E0,8.522037506E0
5.392180260E-1,4.983053207E-1,5.799603939E0,8.502895355E0
5.416232860E-1,5.318048596E-1,5.885745525E0,8.464610100E0
5.440285460E-1,5.078766346E-1,5.943173409E0,8.426324844E0
5.464338070E-1,4.983053207E-1,5.900102615E0,8.382656097E0
5.488390670E-1,4.935196638E-1,5.909673691E0,8.387441635E0
5.512443280E-1,5.318048596E-1,5.880959988E0,8.306085587E0
5.536496400E-1,5.611169338E-1,5.818746567E0,8.277371407E0
5.560549010E-1,5.850451589E-1,5.770890236E0,8.248658180E0
5.584601610E-1,7.190431952E-1,5.746961594E0,8.157731056E0
5.608654210E-1,7.908278704E-1,5.718247890E0,8.143373489E0
5.632706820E-1,9.104689956E-1,5.617749214E0,7.980661869E0
5.656759420E-1,9.966106415E-1,5.632106304E0,7.928019524E0
5.680812030E-1,9.774680734E-1,5.603392601E0,7.961519241E0
5.704864630E-1,9.487541914E-1,5.589035511E0,7.822735310E0
5.728917230E-1,9.248259664E-1,5.598606586E0,7.698308468E0
5.752969840E-1,9.391828775E-1,5.574678421E0,7.660023689E0
5.777022440E-1,1.058824062E0,5.612963676E0,7.583453178E0
5.801075050E-1,1.116251707E0,5.565107346E0,7.597810268E0
5.825127650E-1,1.116251707E0,5.565107346E0,7.636095047E0
5.849180780E-1,1.135394335E0,5.522036552E0,7.626523972E0
5.873233380E-1,1.264606714E0,5.493322372E0,7.621738434E0
5.897285980E-1,1.767697692E0,5.435894966E0,7.387241840E0
5.921338590E-1,3.625126362E0,5.196612358E0,6.903293133E0
5.945391190E-1,2.705684185E0,4.966303349E0,7.990232944E0
5.969443800E-1,1.892124534E0,4.956732273E0,8.205587387E0
5.993496400E-1,1.073180914E0,5.018945694E0,8.291728973E0
6.017549010E-1,9.248259664E-1,5.047659397E0,7.851449490E0
6.041601610E-1,7.956135273E-1,5.124827862E0,7.803592682E0
6.065654210E-1,2.781656384E-1,5.258825779E0,8.052446365E0
6.089706820E-1,-4.636093974E-1,5.622535229E0,8.133802414E0
6.113759420E-1,3.212364316E-1,5.689534187E0,7.473383427E0
6.137812030E-1,1.149751306E0,5.732604980E0,7.243073940E0
6.161864630E-1,1.470389485E0,5.837889194E0,7.415955544E0
6.185917760E-1,1.680957913E0,5.890531063E0,7.406384468E0
6.209970360E-1,1.829911113E0,5.876173973E0,7.171289444E0
6.234022960E-1,1.738983870E0,5.837889194E0,6.970292568E0
6.258075570E-1,1.403390527E0,5.866602898E0,6.893722057E0
6.282128170E-1,1.274178028E0,5.723033428E0,6.405586243E0
6.306180780E-1,1.274178028E0,5.498108387E0,5.959922791E0
6.330233380E-1,9.343972206E-1,5.569892883E0,6.156134605E0
6.354285980E-1,8.626125455E-1,5.569892883E0,6.252445698E0
6.378338590E-1,8.913264275E-1,5.469394207E0,6.170491219E0
6.402391190E-1,9.391828775E-1,5.359324455E0,6.242874146E0
6.426443800E-1,1.039681435E0,5.335396290E0,6.472585201E0
6.450496400E-1,9.631111026E-1,5.411966801E0,6.879364967E0
6.474549010E-1,1.159322619E0,5.340181828E0,6.817151546E0
6.498601610E-1,1.202393413E0,5.263611794E0,7.075576782E0
6.522654210E-1,1.068395257E0,5.301896572E0,7.214360237E0
6.546707340E-1,1.259821177E0,5.139184952E0,7.037291527E0
6.570759940E-1,1.269392371E0,4.995017052E0,6.984649181E0
6.594812550E-1,1.049252748E0,4.975874901E0,7.046862602E0
6.618865150E-1,1.140179992E0,4.947160721E0,6.951149940E0
6.642917760E-1,9.726824164E-1,4.951946259E0,6.932007313E0
6.666970360E-1,9.152546525E-1,4.966303349E0,7.018148899E0
6.691022960E-1,1.034895778E0,4.980660439E0,7.013363361E0
6.715075570E-1,1.010967612E0,5.167898655E0,7.180860519E0
6.739128170E-1,1.278963685E0,5.263611794E0,7.267002583E0
6.763180780E-1,1.599601984E0,5.402395248E0,7.295716286E0
6.787233380E-1,1.508674622E0,5.450251579E0,7.487740040E0
6.811285980E-1,1.288534999E0,5.426323414E0,7.884948730E0
6.835338590E-1,1.039681435E0,5.254040241E0,8.229515076E0
6.859391190E-1,6.424728632E-1,5.187041283E0,8.785248756E0
6.883444320E-1,3.260220885E-1,5.234897614E0,9.225527763E0
6.907496920E-1,1.441675574E-1,5.206183910E0,9.450452805E0
6.931549530E-1,5.982056609E-4,5.196612358E0,9.604191780E0
6.955602130E-1,4.845465720E-2,5.153541565E0,9.838688850E0
6.979654730E-1,2.350948304E-1,5.086542606E0,1.007797050E1
7.003707340E-1,2.078764677E0,4.616951466E0,9.671191216E0
7.027759940E-1,1.288534999E0,4.688735962E0,1.081555843E1
7.051812550E-1,-3.056831062E-1,4.990231514E0,1.070070267E1
7.075865150E-1,-1.153340459E0,5.081757069E0,1.023589706E1
7.099917760E-1,-1.215553880E0,5.225326538E0,9.580264091E0
7.123970360E-1,-9.667003751E-1,5.225326538E0,9.354740143E0
7.148022960E-1,-6.269195080E-1,5.158327579E0,9.235098839E0
7.172075570E-1,-2.913261652E-1,5.263611794E0,9.177671432E0
7.196128170E-1,-1.046859920E-1,5.388038158E0,9.081958771E0
7.220180780E-1,-1.573280841E-1,5.569892883E0,9.024530411E0
7.244233900E-1,-2.051845491E-1,5.703890800E0,8.933603287E0
7.268286510E-1,-3.296113312E-1,5.847460270E0,8.967103004E0
7.292339110E-1,-4.205385745E-1,5.928816319E0,8.943174362E0
7.316391710E-1,-3.391826153E-1,5.981458187E0,8.857032776E0
7.340444320E-1,-3.774677813E-1,6.096313953E0,8.809176445E0
7.364496920E-1,-4.636093974E-1,6.144170284E0,8.766105652E0
7.388549530E-1,-4.971089065E-1,6.226124287E0,8.737391472E0
7.412602130E-1,-5.210371017E-1,6.226124287E0,8.790034294E0
7.436654730E-1,-4.396811724E-1,6.192625046E0,8.876175880E0
7.460707340E-1,-2.291127741E-1,6.139384747E0,8.876175880E0
7.484759940E-1,-1.908276081E-1,6.048457623E0,8.880961418E0
7.508812550E-1,1.159322619E0,5.574678421E0,8.286943436E0
7.532865150E-1,5.802595019E-1,5.526822090E0,9.081958771E0
7.556918280E-1,-1.306481123E0,5.794818401E0,9.402596474E0
7.580970880E-1,-1.339980721E0,5.885745525E0,9.072386742E0
7.605023480E-1,-7.752745152E-1,5.952744484E0,8.474181175E0
7.629076090E-1,-4.492524564E-1,5.947958946E0,8.377870560E0
7.653128690E-1,-2.817548811E-1,5.914459229E0,8.464610100E0
7.677181300E-1,-1.716850251E-1,5.857031822E0,8.703892708E0
7.701233900E-1,-2.333002165E-2,5.828317642E0,8.737391472E0
7.725286510E-1,-1.764706671E-1,5.842674732E0,8.727820396E0
7.749339110E-1,-3.726821244E-1,5.857031822E0,8.689535141E0
7.773391710E-1,-5.162515044E-1,5.799603939E0,8.708678246E0
7.797444320E-1,-6.412764788E-1,5.723033428E0,8.699107170E0
7.821496920E-1,-7.513462901E-1,5.665606022E0,8.603393555E0
7.845549530E-1,3.409772366E-2,5.368896008E0,8.215158463E0
7.869602130E-1,-1.142572835E-1,5.397609711E0,8.809176445E0
7.893655260E-1,-1.771286964E0,5.775675774E0,9.148957253E0
7.917707860E-1,-1.627119422E0,5.823532104E0,8.885746956E0
7.941760460E-1,-1.368694544E0,6.019743443E0,8.445467949E0
7.965813070E-1,-1.019342422E0,6.101099491E0,8.431110382E0
7.989865670E-1,-8.853443861E-1,6.125027657E0,8.550751686E0
8.013918280E-1,-9.044869542E-1,6.144170284E0,8.665607452E0
8.037970880E-1,-9.714859724E-1,6.125027657E0,8.780462265E0
8.062023480E-1,-1.057627559E0,6.053243160E0,8.857032776E0
8.086076090E-1,-1.043270707E0,6.077171326E0,8.766105652E0
8.110128690E-1,-1.081555843E0,6.058028698E0,8.689535141E0
8.134181300E-1,-9.667003751E-1,5.880959988E0,8.612964630E0
8.158233900E-1,-1.429711580E-1,5.598606586E0,8.617751122E0
8.182286510E-1,-1.919641972E0,5.852245808E0,9.048459053E0
8.206339110E-1,-1.641476393E0,5.790032387E0,8.780462265E0
8.230391710E-1,-1.339980721E0,5.852245808E0,8.401798248E0
8.254444840E-1,-1.143769264E0,5.842674732E0,8.440681458E0
8.278497440E-1,-9.619147182E-1,5.761318684E0,8.483752251E0
8.302550050E-1,-9.714859724E-1,5.751747608E0,8.474181175E0
8.326602650E-1,-1.019342422E0,5.723033428E0,8.541180611E0
8.350655260E-1,-1.057627559E0,5.746961594E0,8.531609535E0
8.374707860E-1,-1.172483087E0,5.699105263E0,8.445467949E0
8.398760460E-1,-1.249053478E0,5.641677380E0,8.373085022E0
8.422813070E-1,-1.215553880E0,5.646463394E0,8.382656097E0
8.446865670E-1,-1.205982566E0,5.665606022E0,8.377870560E0
8.470918280E-1,-1.268195987E0,5.656034470E0,8.334799767E0
8.494970880E-1,-1.306481123E0,5.612963676E0,8.267800331E0
8.519023480E-1,-1.296909928E0,5.632106304E0,8.229515076E0
8.543076090E-1,-9.332008362E-1,5.402395248E0,8.133802414E0
8.567128690E-1,-1.028913736E0,5.383252621E0,8.277371407E0
8.591181300E-1,-1.210768223E0,5.426323414E0,8.445467949E0
8.615234420E-1,-1.349551916E0,5.536393166E0,8.565108299E0
8.639287030E-1,-1.316052437E0,5.641677380E0,8.565108299E0
8.663339630E-1,-1.263410330E0,5.766104221E0,8.493324280E0
8.687392230E-1,-1.172483087E0,5.914459229E0,8.382656097E0
8.711444840E-1,-1.138983607E0,6.086742401E0,8.277371407E0
8.735497440E-1,-1.081555843E0,6.235695839E0,8.215158463E0
8.759550050E-1,-1.177268744E0,6.398407936E0,8.124231339E0
8.783602650E-1,-1.201196909E0,6.599404812E0,8.038089752E0
8.807655260E-1,-1.153340459E0,6.690331936E0,7.961519241E0
8.831707860E-1,-1.138983607E0,6.814758778E0,7.995018482E0
8.855760460E-1,-1.201196909E0,6.805187702E0,7.990232944E0
8.879813070E-1,-1.191625714E0,6.709474564E0,7.999804497E0
8.903865670E-1,-1.105484009E0,6.508477688E0,7.990232944E0
8.927918280E-1,-9.332008362E-1,6.221338749E0,7.961519241E0
8.951971400E-1,-7.609176040E-1,5.924030781E0,7.856235027E0
8.976024010E-1,-6.699903607E-1,5.675177097E0,7.865806103E0
9.000076610E-1,-6.077769399E-1,5.426323414E0,7.889734268E0
9.024129210E-1,-6.221339107E-1,5.196612358E0,7.937591076E0
9.048181820E-1,-5.982056856E-1,5.067399979E0,7.894520283E0
9.072234420E-1,-5.694918036E-1,4.980660439E0,7.813164234E0
9.096287030E-1,-5.694918036E-1,5.009374142E0,7.875377655E0
9.120339630E-1,-5.790630579E-1,5.100899696E0,7.928019524E0
9.144392230E-1,-1.860419661E-1,4.803591251E0,7.913662910E0
9.168444840E-1,-3.152543902E-1,4.856233597E0,7.899305820E0
9.192497440E-1,-1.908276081E-1,4.770092010E0,7.870592117E0
9.216550050E-1,7.286145091E-1,4.588237286E0,8.143373489E0
9.240602650E-1,-1.148554921E0,5.191826820E0,8.555537224E0
9.264655260E-1,-1.177268744E0,5.612963676E0,8.081160545E0
9.288708380E-1,-1.153340459E0,5.971887112E0,7.727022648E0
9.312760980E-1,-1.306481123E0,6.125027657E0,7.908876896E0
9.336813590E-1,-1.105484009E0,6.173482418E0,8.176873207E0
9.360866190E-1,-8.997012973E-1,6.178267956E0,8.469395638E0
9.384918800E-1,-6.652047038E-1,6.221338749E0,8.732605934E0
9.408971400E-1,-5.401797295E-1,6.192625046E0,8.770891190E0
9.433024010E-1,-4.540380836E-1,6.168098450E0,8.641678810E0
9.457076610E-1,-5.497509837E-1,6.058028698E0,8.392227173E0
9.481129210E-1,-6.699903607E-1,5.971887112E0,8.349156380E0
9.505181820E-1,-6.987041831E-1,5.866602898E0,8.310871124E0
9.529234420E-1,-6.699903607E-1,5.766104221E0,8.253443718E0
9.553287030E-1,-5.886343718E-1,5.751747608E0,8.219944000E0
9.577339630E-1,-5.258227587E-1,5.737390518E0,8.129016876E0
9.601392230E-1,-4.396811724E-1,5.651248932E0,8.062017441E0
9.625445360E-1,-3.296113312E-1,5.660820007E0,8.196015358E0
9.649497960E-1,-4.492524564E-1,5.751747608E0,8.239086151E0
9.673550570E-1,-4.636093974E-1,5.770890236E0,8.162516594E0
9.697603170E-1,-5.934200287E-1,5.665606022E0,8.315656662E0
9.721655780E-1,3.499503136E-1,5.450251579E0,8.330014229E0
9.745708380E-1,8.626125455E-1,5.335396290E0,8.742177963E0
9.769760980E-1,-1.186840057E0,5.660820007E0,8.660821915E0
9.793813590E-1,-1.833500385E0,5.799603939E0,8.694320679E0
9.817866190E-1,-1.689931035E0,5.962316036E0,8.387441635E0
9.841918800E-1,-1.196411371E0,6.034100533E0,8.670392990E0
9.865971400E-1,-8.087740541E-1,6.139384747E0,9.048459053E0
9.890024010E-1,-7.992027402E-1,6.283552170E0,9.120243073E0
9.914076610E-1,-6.604190469E-1,6.336194515E0,9.163313866E0
9.938129730E-1,-7.513462901E-1,6.393621922E0,9.445667267E0
9.962182340E-1,-7.417750359E-1,6.503692150E0,9.469595909E0
9.986234940E-1,2.542374134E-1,6.293123722E0,9.373882294E0
1.001028755E0,-5.353940725E-1,6.427121639E0,9.551549911E0
1.003434015E0,-1.488335729E0,6.527620316E0,9.220742226E0
1.005839276E0,-1.646261930E0,6.561119556E0,9.168100357E0
1.008244536E0,-1.359123230E0,6.522834301E0,9.086744308E0
1.010649796E0,-1.196411371E0,6.484549522E0,9.010173798E0
1.013055057E0,-7.417750359E-1,6.369693756E0,8.995817184E0
1.015460317E0,-1.095912814E0,6.465406895E0,8.847461700E0
1.017865578E0,-1.220339537E0,6.518048763E0,8.775676727E0
1.020270838E0,-1.119840980E0,6.623332977E0,8.828319550E0
1.022676098E0,-1.196411371E0,6.685546398E0,8.866603851E0
1.025081359E0,-1.296909928E0,6.786045074E0,8.880961418E0
1.027486619E0,-1.402194023E0,6.814758778E0,8.828319550E0
1.029891932E0,-1.416550994E0,6.814758778E0,8.689535141E0
1.032297192E0,-1.435693622E0,6.853044033E0,8.507680893E0
1.034702453E0,-1.335195065E0,6.795616150E0,8.306085587E0
1.037107713E0,-1.229910851E0,6.728617191E0,8.100302696E0
1.039512973E0,-1.153340459E0,6.685546398E0,7.904091358E0
1.041918234E0,-5.353940725E-1,6.407979012E0,7.784450054E0
1.044323494E0,-4.109672904E-1,6.317051888E0,7.526025295E0
1.046728755E0,-6.029912829E-1,6.302694798E0,7.066005230E0
1.049134015E0,-7.944171429E-1,6.288337708E0,6.821937561E0
1.051539276E0,-8.566305041E-1,6.431907177E0,6.630511761E0
1.053944536E0,-7.800601721E-1,6.479763508E0,6.238088608E0
1.056349796E0,-7.178468108E-1,6.565905571E0,5.916851997E0
1.058755057E0,-7.130611539E-1,6.618547440E0,5.672784328E0
1.061160317E0,-8.279166222E-1,6.699903488E0,5.423930645E0
1.063565630E0,-1.024128079E0,6.762116909E0,5.237290382E0
1.065970890E0,-9.762716293E-1,6.843472958E0,4.930410862E0
1.068376151E0,-8.997012973E-1,6.967899323E0,4.695914268E0
1.070781411E0,-7.752745152E-1,7.073183537E0,4.547559261E0
1.073186671E0,-7.752745152E-1,7.154539585E0,4.423132420E0
1.075591932E0,-7.513462901E-1,7.259823799E0,4.313062668E0
1.077997192E0,-7.465606928E-1,7.360920429E0,4.351347923E0
1.080402453E0,-7.944171429E-1,7.451848030E0,4.255635262E0
1.082807713E0,-8.470591903E-1,7.432705402E0,4.284348965E0
1.085212973E0,-8.662018180E-1,7.509275436E0,4.341776848E0
1.087618234E0,-1.028913736E0,7.657630444E0,4.265206337E0
1.090023494E0,-1.263410330E0,7.748558044E0,4.313062668E0
1.092428755E0,-1.574477315E0,7.662416458E0,4.542773724E0
1.094834015E0,-1.728216171E0,7.695915699E0,4.475774765E0
1.097239328E0,-1.843071699E0,7.743772507E0,4.260420799E0
1.099644588E0,-1.943570137E0,7.820342541E0,4.112065792E0
1.102049848E0,-2.201995134E0,7.772486210E0,4.112065792E0
1.104455109E0,-2.431705952E0,7.729415417E0,4.269991875E0
1.106860369E0,-2.522633314E0,7.791628838E0,4.068994999E0
1.109265630E0,-2.565704107E0,7.896913052E0,3.915256023E0
1.111670890E0,-2.608774900E0,8.035696983E0,3.867399693E0
1.114076151E0,-2.685345173E0,8.169694901E0,4.016352654E0
1.116481411E0,-2.771486759E0,8.265407562E0,4.169493675E0
1.118886671E0,-2.819941521E0,8.298907280E0,4.399204254E0
1.121291932E0,-2.810370207E0,8.370692253E0,4.552345276E0
1.123697192E0,-2.804986238E0,8.591429710E0,4.581058979E0
1.126102453E0,-2.714059114E0,8.706285477E0,4.600201607E0
1.128507765E0,-2.670988321E0,8.830712318E0,4.624129772E0
1.130913026E0,-2.666202545E0,9.007781029E0,4.719842434E0
1.133318286E0,-2.637488842E0,9.122636795E0,4.863411903E0
1.135723546E0,-2.623131752E0,9.227920532E0,5.179862976E0
1.138128807E0,-2.670988321E0,9.376275063E0,5.586642742E0
1.140534067E0,-2.699702263E0,9.352347374E0,6.012565136E0
1.142939328E0,-2.742773056E0,9.323633194E0,6.319444656E0
1.145344588E0,-2.728415966E0,9.251849174E0,6.510870457E0
1.147749848E0,-2.608774900E0,9.117850304E0,6.640082836E0
1.150155109E0,-2.599203587E0,9.017352104E0,6.850651264E0
1.152560369E0,-2.666202545E0,9.026923180E0,7.085147858E0
1.154965630E0,-2.790629387E0,9.089137077E0,7.243073940E0
1.157370890E0,-2.906083107E0,9.089137077E0,7.267002583E0
1.159776203E0,-2.939582586E0,9.074779510E0,7.161718369E0
1.162181463E0,-3.006581545E0,9.117850304E0,7.195217609E0
1.164586723E0,-3.116651535E0,9.170493126E0,7.152146816E0
1.166991984E0,-3.236292601E0,9.290133476E0,7.161718369E0
1.169397244E0,-3.375076294E0,9.333204269E0,7.070790768E0
1.171802505E0,-3.475574970E0,9.361918449E0,7.051648140E0
1.174207765E0,-3.628715515E0,9.414560318E0,7.075576782E0
1.176613026E0,-3.805784464E0,9.505488396E0,7.109076023E0
1.179018286E0,-4.002593994E0,9.644869804E0,7.156932354E0
1.181423546E0,-4.179663181E0,9.778867722E0,7.257431030E0
1.183828807E0,-4.318446636E0,9.989436150E0,7.492526054E0
1.186234067E0,-4.395017147E0,1.007079220E1,7.669594765E0
1.188639380E0,-4.418945312E0,1.022871876E1,7.937591076E0
1.191044640E0,-4.509872437E0,1.031964588E1,8.162516594E0
1.193449901E0,-4.562514782E0,1.031964588E1,8.330014229E0
1.195855161E0,-4.600799561E0,1.031964588E1,8.608179092E0
1.198260421E0,-4.706083775E0,1.033400249E1,8.756534576E0
1.200665682E0,-4.734797955E0,1.036271667E1,8.952746391E0
1.203070942E0,-4.753940582E0,1.051585770E1,9.292527199E0
1.205476203E0,-4.734797955E0,1.064028454E1,9.551549911E0
1.207881463E0,-4.710869789E0,1.072702408E1,9.747760773E0
1.210286723E0,-4.529015064E0,1.072702408E1,9.987043381E0
1.212691984E0,-4.328018188E0,1.055414295E1,1.024068260E1
1.215097244E0,-4.347160339E0,1.070309544E1,1.038425159E1
1.217502505E0,-4.371088982E0,1.081316566E1,1.058046341E1
1.219907817E0,-4.457230568E0,1.093759251E1,1.086341476E1
1.222313078E0,-4.471587181E0,1.107637596E1,1.105962658E1
1.224718338E0,-4.529015064E0,1.117208862E1,1.143290615E1
1.227123598E0,-4.567300320E0,1.123908806E1,1.182592773E1
1.229528859E0,-4.447659016E0,1.110509014E1,1.196949673E1
1.231934119E0,-4.356731892E0,1.094716358E1,1.178225899E1
1.234339380E0,-4.304089546E0,1.086580753E1,1.149512005E1
1.236744640E0,-4.280161381E0,1.079880905E1,1.123190975E1
1.239149901E0,-4.284946918E0,1.088016415E1,1.091127110E1
1.241555161E0,-4.251447678E0,1.094716358E1,1.046560764E1
1.243960421E0,-4.170091629E0,1.109551907E1,1.003489971E1
1.246365682E0,-4.069592953E0,1.121037388E1,9.546764374E0
1.248770994E0,-3.915854216E0,1.131565857E1,9.048459053E0
1.251176255E0,-3.681357622E0,1.142572784E1,8.541180611E0
1.253581515E0,-3.422932863E0,1.144487095E1,8.066802979E0
1.255986776E0,-3.145365477E0,1.143529987E1,7.640881062E0
1.258392036E0,-2.977867842E0,1.137308598E1,7.290930748E0
1.260797296E0,-2.920439959E0,1.129651546E1,7.003791809E0
1.263202557E0,-2.982653379E0,1.117687416E1,6.716653347E0
1.265607817E0,-3.135794163E0,1.111466122E1,6.448657036E0
1.268013078E0,-3.293720484E0,1.100459099E1,6.266802311E0
1.270418338E0,-3.528217077E0,1.097109222E1,6.136991978E0
1.272823598E0,-3.690928936E0,1.083230782E1,5.998208046E0
1.275228911E0,-3.853640795E0,1.070309544E1,5.940780640E0
1.277634171E0,-4.002593994E0,1.066481018E1,5.964708805E0
1.280039432E0,-4.155734539E0,1.062114143E1,5.945566177E0
1.282444692E0,-4.246662140E0,1.057807064E1,5.959922791E0
1.284849953E0,-4.246662140E0,1.054935646E1,6.026922226E0
1.287255213E0,-4.256233215E0,1.054935646E1,6.089135647E0
1.289660473E0,-4.284946918E0,1.047757244E1,6.084349632E0
1.292065734E0,-4.308875561E0,1.046800041E1,6.069993019E0
1.294470994E0,-4.256233215E0,1.040100193E1,5.998208046E0
1.296876255E0,-4.337589264E0,1.031007481E1,5.907280922E0
1.299281515E0,-4.380660057E0,1.021914768E1,5.782854080E0
1.301686776E0,-4.557728767E0,1.018564796E1,5.639284611E0
1.304092036E0,-4.739583492E0,1.008514881E1,5.457430363E0
1.306497348E0,-4.902295589E0,1.001815033E1,5.237290382E0
1.308902609E0,-5.108676434E0,9.932008743E0,4.954339504E0
1.311307869E0,-5.319244862E0,9.874580383E0,4.676771641E0
1.313713130E0,-5.544169903E0,9.836296082E0,4.332205296E0
1.316118390E0,-5.764309883E0,9.821938515E0,3.930211306E0
1.318523651E0,-6.022734642E0,9.826724052E0,3.498904943E0
1.320928911E0,-6.219544411E0,9.879366875E0,2.986840963E0
1.323334171E0,-6.415755749E0,9.989436150E0,2.507678032E0
1.325739432E0,-6.621538639E0,1.011386299E1,1.957328916E0
1.328144692E0,-6.894320011E0,1.026221848E1,1.492523074E0
1.330549953E0,-7.128817081E0,1.038664532E1,1.061815023E0
1.332955265E0,-7.402196884E0,1.050628567E1,5.880361795E-1
1.335360526E0,-7.627122402E0,1.061635590E1,2.141576260E-1
1.337765786E0,-7.818548203E0,1.076530933E1,-7.298108935E-2
1.340171046E0,-7.942974567E0,1.088016415E1,-3.122633696E-1
1.342576307E0,-8.086544037E0,1.098066330E1,-4.749752879E-1
1.344981567E0,-8.143971443E0,1.105244732E1,-5.180460811E-1
1.347386828E0,-8.172685623E0,1.103330517E1,-5.563312769E-1
1.349792088E0,-8.244470596E0,1.100459099E1,-6.095715761E-1
1.352197348E0,-8.230113029E0,1.093759251E1,-6.095715761E-1
1.354602609E0,-8.277970314E0,1.080838013E1,-5.904290080E-1
1.357007869E0,-8.282755852E0,1.064985561E1,-5.563312769E-1
1.359413182E0,-8.210970879E0,1.047278690E1,-5.276173949E-1
1.361818442E0,-8.124829292E0,1.031964588E1,-5.084748268E-1
1.364223703E0,-8.014759064E0,1.012821960E1,-5.276173949E-1
1.366628963E0,-7.756334782E0,9.984650612E0,-5.856433511E-1
1.369034223E0,-7.450053215E0,9.821938515E0,-6.813562512E-1
1.371439484E0,-7.143173695E0,9.716654778E0,-8.201399446E-1
1.373844744E0,-6.741179466E0,9.625727654E0,-9.493523836E-1
1.376250005E0,-6.300900459E0,9.606584549E0,-1.135992527E0
1.378655265E0,-5.960521221E0,9.549157143E0,-1.360917926E0
1.381060526E0,-5.620740414E0,9.587442398E0,-1.581057549E0
1.383465786E0,-5.434100151E0,9.678369522E0,-1.849651933E0
1.385871046E0,-5.204389095E0,9.735796928E0,-2.098505497E0
1.388276359E0,-4.978865623E0,9.855438232E0,-2.342573404E0
1.390681619E0,-4.720440865E0,9.951150894E0,-2.577069998E0
1.393086880E0,-4.538586140E0,1.004686451E1,-2.715853691E0
1.395492140E0,-4.332803726E0,1.009950638E1,-2.840878725E0
1.397897401E0,-4.088735580E0,1.021436119E1,-2.927020311E0
1.400302661E0,-3.920639992E0,1.031964588E1,-2.965305567E0
1.402707921E0,-3.820141315E0,1.042971611E1,-2.927020311E0
1.405113182E0,-3.772284985E0,1.057328510E1,-2.869592667E0
1.407518442E0,-3.800998688E0,1.068873882E1,-2.744567633E0
1.409923703E0,-3.887140274E0,1.072702408E1,-2.581855536E0
1.412328963E0,-3.753142357E0,1.046321487E1,-2.428714991E0
1.414734276E0,-3.772284985E0,1.034357452E1,-2.304288149E0
1.417139536E0,-3.949951887E0,1.027657509E1,-2.160718918E0
1.419544796E0,-4.127020836E0,1.018086243E1,-2.041077614E0
1.421950057E0,-4.251447678E0,1.008993530E1,-1.983649969E0
1.424355317E0,-4.452444553E0,1.007079220E1,-1.978864312E0
1.426760578E0,-4.581656933E0,1.005643559E1,-1.983649969E0
1.429165838E0,-4.643870354E0,9.922437668E0,-2.093719721E0
1.431571098E0,-4.830510616E0,9.769296646E0,-2.088934183E0
1.433976359E0,-5.031507969E0,9.750154495E0,-2.069791555E0
1.436381619E0,-5.261816978E0,9.721440315E0,-2.108076811E0
1.438786880E0,-5.400600910E0,9.654440880E0,-2.256431818E0
1.441192192E0,-5.529813290E0,9.544371605E0,-2.452643156E0
1.443597453E0,-5.558526993E0,9.299705505E0,-2.634497643E0
1.446002713E0,-5.587240696E0,9.050851822E0,-2.797209740E0
1.448407973E0,-5.807380676E0,8.868997574E0,-2.883949518E0
1.450813234E0,-6.032305717E0,8.734998703E0,-2.979662418E0
1.453218494E0,-6.156732559E0,8.490931511E0,-3.080160856E0
1.455623755E0,-6.353542328E0,8.322834969E0,-3.132802963E0
1.458029015E0,-6.521039963E0,8.145766258E0,-3.262015581E0
1.460434276E0,-6.645466805E0,8.035696983E0,-3.338585854E0
1.462839536E0,-6.750751019E0,7.916055679E0,-3.400799274E0
1.465244796E0,-6.602396011E0,7.671987534E0,-2.927020311E0
1.467650109E0,-6.449255466E0,7.533204079E0,-2.500499725E0
1.470055369E0,-6.267400742E0,7.475776196E0,-2.246860504E0
1.472460630E0,-6.099305153E0,7.346563816E0,-2.036292076E0
1.474865890E0,-6.027520180E0,7.283751965E0,-1.787438512E0
1.477271151E0,-6.056233883E0,7.351349354E0,-1.600200176E0
1.479676411E0,-6.181259155E0,7.447062492E0,-1.432702541E0
1.482081671E0,-6.401398659E0,7.604988575E0,-1.303490162E0
1.484486932E0,-6.655037880E0,7.796414375E0,-1.198205948E0
1.486892192E0,-6.994818687E0,8.050053596E0,-1.164706469E0
1.489297453E0,-7.354340553E0,8.341978073E0,-1.145563841E0
1.491702713E0,-7.741977692E0,8.691927910E0,-1.150349498E0
1.494108026E0,-8.067401886E0,8.916853905E0,-1.102493048E0
1.496513286E0,-8.273183823E0,9.074779510E0,-1.064207911E0
1.498918546E0,-8.426922798E0,9.141778946E0,-9.397810698E-1
1.501323807E0,-8.493922234E0,9.122636795E0,-8.344969153E-1
1.503729067E0,-8.407182693E0,8.998209953E0,-7.196413875E-1
1.506134328E0,-8.273183823E0,8.792427063E0,-5.952146053E-1
1.508539588E0,-8.043473244E0,8.553144455E0,-4.462614357E-1
1.510944848E0,-7.684549809E0,8.298907280E0,-3.122633696E-1
1.513350109E0,-7.301698208E0,7.978269100E0,-1.974078715E-1
1.515755369E0,-6.841678143E0,7.638488293E0,-7.776673883E-2
1.518160682E0,-6.358327866E0,7.298707485E0,3.230310604E-2
1.520565942E0,-5.922235966E0,7.054041386E0,1.040877849E-1
1.522971203E0,-5.491528034E0,6.786045074E0,1.663011760E-1
1.525376463E0,-5.146961689E0,6.565905571E0,1.998006850E-1
1.527781723E0,-4.892724037E0,6.393621922E0,2.141576260E-1
1.530186984E0,-4.682155609E0,6.288337708E0,1.663011760E-1
1.532592244E0,-4.567300320E0,6.183053493E0,9.451649338E-2
1.534997505E0,-4.485944271E0,6.148955822E0,3.589233849E-3
1.537402765E0,-4.409373760E0,6.096313953E0,-1.256231815E-1
1.539808026E0,-4.347160339E0,6.125027657E0,-2.596212626E-1
1.542213338E0,-4.332803726E0,6.173482418E0,-4.175475538E-1
1.544618598E0,-4.337589264E0,6.178267956E0,-5.904290080E-1
1.547023859E0,-4.351946354E0,6.115456581E0,-7.866404653E-1
1.549429119E0,-4.347160339E0,6.091528416E0,-9.349954724E-1
1.551834380E0,-4.399802685E0,6.077171326E0,-1.135992527E0
1.554239640E0,-4.481158733E0,6.101099491E0,-1.236491084E0
1.556644901E0,-4.533800602E0,6.115456581E0,-1.437488198E0
1.559050161E0,-4.552943230E0,6.129813194E0,-1.619342685E0
1.561455421E0,-4.572085857E0,6.197410583E0,-1.806581140E0
1.563860682E0,-4.548157692E0,6.297909260E0,-1.988435626E0
1.566265994E0,-4.438087940E0,6.307480335E0,-2.208575249E0
1.568671255E0,-4.476373196E0,6.479763508E0,-2.299502611E0
1.571076515E0,-4.174877167E0,6.393621922E0,-2.538784742E0
1.573481776E0,-4.083950043E0,6.398407936E0,-2.720639229E0
1.575887036E0,-3.198007345E0,5.866602898E0,-3.305086374E0
1.578292296E0,-3.183650494E0,5.986244202E0,-3.510869026E0
1.580697557E0,-2.546561480E0,5.790032387E0,-3.520440340E0
1.583102817E0,-2.680559635E0,5.909673691E0,-3.453441381E0
1.585508078E0,-2.766701221E0,5.938387394E0,-3.281157970E0
1.587913338E0,-3.260220766E0,6.168098450E0,-2.989233732E0
1.590318598E0,-3.623929977E0,6.173482418E0,-2.994019270E0
1.592723911E0,-3.686143398E0,6.062814236E0,-3.644867182E0
1.595129171E0,-3.733999729E0,5.995815277E0,-4.085744858E0
1.597534432E0,-3.729214191E0,6.144170284E0,-4.344169617E0
1.599939692E0,-3.619144201E0,6.407979012E0,-4.621737003E0
1.602344953E0,-3.327219963E0,6.527620316E0,-4.722235680E0
1.604750213E0,-3.164507866E0,6.412764549E0,-4.683950424E0
1.607155473E0,-3.355933666E0,6.632904530E0,-4.640879631E0
1.609560734E0,-3.370290756E0,6.848258495E0,-4.803591251E0
1.611966046E0,-3.178864956E0,6.766902447E0,-5.004588604E0
1.614371307E0,-3.035295486E0,6.417550564E0,-5.143970490E0
1.616776567E0,-3.064009428E0,5.967101574E0,-5.100899696E0
1.619181828E0,-2.906083107E0,5.871388435E0,-5.411966801E0
1.621587088E0,-2.584846735E0,5.909673691E0,-5.517251015E0
1.623992348E0,-2.340778828E0,5.794818401E0,-5.474180222E0
1.626397609E0,-2.474776745E0,5.660820007E0,-5.459823132E0
1.628802869E0,-2.781058073E0,5.770890236E0,-5.445466042E0
1.631208130E0,-2.723630428E0,6.067600250E0,-6.058028698E0
1.633613442E0,-2.546561480E0,6.407979012E0,-6.407979012E0
1.636018703E0,-2.589632273E0,6.470192432E0,-6.575476646E0
1.638423963E0,-2.810370207E0,6.364908218E0,-6.632904530E0
1.640829223E0,-3.016152859E0,6.245266914E0,-6.675975323E0
1.643234484E0,-3.207578659E0,6.235695839E0,-6.570691109E0
1.645639744E0,-3.327219963E0,6.403193474E0,-6.642475605E0
1.648045005E0,-3.360719442E0,6.580262184E0,-6.585047722E0
1.650450265E0,-3.437289715E0,6.585047722E0,-6.551548481E0
1.652855526E0,-3.451646566E0,6.508477688E0,-6.474977970E0
1.655260786E0,-3.609572887E0,6.417550564E0,-6.369693756E0
1.657666098E0,-3.820141315E0,6.336194515E0,-6.226124287E0
1.660071359E0,-3.882354736E0,6.403193474E0,-5.981458187E0
1.662476619E0,-3.863212109E0,6.589833736E0,-6.005386829E0
1.664881880E0,-3.724428415E0,6.699903488E0,-5.986244202E0
1.667287140E0,-3.633501291E0,6.580262184E0,-6.019743443E0
1.669692401E0,-3.566502094E0,6.427121639E0,-6.125027657E0
1.672097661E0,-3.504288673E0,6.312266350E0,-6.110671043E0
1.674502921E0,-3.456432343E0,6.105885029E0,-6.010172367E0
1.676908182E0,-3.528217077E0,5.914459229E0,-5.866602898E0
1.679313442E0,-3.547359467E0,5.675177097E0,-5.694319725E0
1.681718755E0,-3.351148129E0,5.321039200E0,-5.450251579E0
1.684124015E0,-2.968296528E0,5.220541000E0,-5.493322372E0
1.686529276E0,-2.603989124E0,5.182255745E0,-5.421537876E0
1.688934536E0,-2.249851465E0,5.042873859E0,-5.426323414E0
1.691339796E0,-1.900499344E0,4.875376225E0,-5.522036552E0
1.693745057E0,-1.607976794E0,4.712664127E0,-5.584249973E0
1.696150317E0,-1.430907965E0,4.535595417E0,-5.579464436E0
1.698555578E0,-1.450050473E0,4.334598064E0,-5.464608669E0
1.700960838E0,-1.392622828E0,4.262813568E0,-5.239683151E0
1.703366151E0,-1.167697430E0,4.482953072E0,-5.488536835E0
1.705771411E0,-8.279166222E-1,4.822733879E0,-5.689534187E0
1.708176671E0,-6.987041831E-1,4.904089928E0,-5.928816319E0
1.710581932E0,-5.934200287E-1,5.004588604E0,-6.183053493E0
1.712987192E0,-5.401797295E-1,5.053043365E0,-6.278766632E0
1.715392453E0,-6.173482537E-1,5.023731232E0,-6.192625046E0
1.717797713E0,-7.082754970E-1,4.899304390E0,-5.794818401E0
1.720202973E0,-6.556333899E-1,5.081757069E0,-5.828317642E0
1.722608234E0,-2.961117923E-1,5.344967365E0,-5.885745525E0
1.725013546E0,-8.554340899E-2,5.311468124E0,-5.947958946E0
1.727418807E0,3.409772366E-2,5.143970490E0,-6.072385788E0
1.729824067E0,1.106680483E-1,4.990231514E0,-6.148955822E0
1.732229328E0,8.195417374E-2,4.846662045E0,-6.163312912E0
1.734634588E0,-1.854437590E-2,4.698307037E0,-6.072385788E0
1.737039848E0,-1.046859920E-1,4.516452789E0,-5.823532104E0
1.739445109E0,-2.769692242E-1,4.191029072E0,-5.416752338E0
1.741850369E0,-4.013960063E-1,4.028316975E0,-5.124827862E0
1.744255682E0,-2.626122832E-1,4.147958279E0,-5.297111034E0
1.746660942E0,-6.161518395E-2,4.186243057E0,-5.431109428E0
1.749066203E0,-8.554340899E-2,4.147958279E0,-5.660820007E0
1.751471463E0,-9.511470050E-2,4.095315933E0,-5.847460270E0
1.753876723E0,-8.075776696E-2,4.066602230E0,-6.005386829E0
1.756281984E0,-6.640082598E-2,4.023531437E0,-6.129813194E0
1.758687244E0,-4.725824669E-2,3.990031719E0,-6.183053493E0
1.761092505E0,-4.247260094E-2,3.917648792E0,-6.115456581E0
1.763497765E0,-6.640082598E-2,3.831507206E0,-6.014957905E0
1.765903078E0,-1.046859920E-1,3.817150354E0,-5.919245243E0
1.768308338E0,-4.247260094E-2,3.740580082E0,-5.924030781E0
1.770713598E0,-9.511470050E-2,3.750151396E0,-6.014957905E0
1.773118859E0,-9.032905847E-2,3.759722471E0,-6.125027657E0
1.775524119E0,-1.333998591E-1,3.644867182E0,-6.043671608E0
1.777929380E0,-2.530409992E-1,3.415156126E0,-5.746961594E0
1.780334640E0,-3.056831062E-1,3.228515863E0,-5.263611794E0
1.782739901E0,-1.860419661E-1,3.338585854E0,-5.493322372E0
1.785145213E0,5.802594870E-2,3.391227961E0,-5.679962635E0
1.787550473E0,1.202393398E-1,3.300300598E0,-6.038886070E0
1.789955734E0,1.489532143E-1,3.223730326E0,-6.321837425E0
1.792360994E0,1.680957973E-1,3.185445070E0,-6.498906136E0
1.794766255E0,1.202393398E-1,3.151945591E0,-6.541976929E0
1.797171515E0,1.824527234E-1,2.979662418E0,-6.623332977E0
1.799576776E0,1.441675574E-1,2.946162939E0,-6.781259537E0
1.801982036E0,7.238288224E-2,2.912663460E0,-6.809973240E0
1.804387296E0,-7.118647546E-2,2.855235577E0,-6.738188744E0
1.806792609E0,-1.764706671E-1,2.941377163E0,-6.915257454E0
1.809197869E0,-2.099701911E-1,3.089732170E0,-7.159325123E0
1.811603130E0,-3.008974493E-1,3.094517946E0,-7.341778278E0
1.814008390E0,-3.918247223E-1,3.132802963E0,-7.490133286E0
1.816413651E0,-4.013960063E-1,3.156731367E0,-7.571488857E0
1.818818911E0,-4.588237405E-1,3.137588739E0,-7.604988575E0
1.821224171E0,-4.731806815E-1,3.156731367E0,-7.480561733E0
1.823629484E0,-5.934200287E-1,3.195016384E0,-7.106683254E0
1.826034744E0,-7.561319470E-1,3.118446112E0,-6.709474564E0
1.828440005E0,-7.417750359E-1,3.338585854E0,-6.747759819E0
1.830845265E0,-6.747759581E-1,3.616153240E0,-6.790830612E0
1.833250526E0,-7.896314859E-1,3.764508247E0,-6.853044033E0
1.835655786E0,-8.709874153E-1,3.855435371E0,-6.867401123E0
1.838061046E0,-8.231309652E-1,3.908077478E0,-6.833901405E0
1.840466307E0,-7.561319470E-1,3.922434568E0,-6.776473522E0
1.842871567E0,-6.987041831E-1,3.946960926E0,-6.647261143E0
1.845276880E0,-7.082754970E-1,3.961317778E0,-6.465406895E0
1.847682140E0,-7.848458290E-1,3.946960926E0,-6.129813194E0
1.850087401E0,-9.667003751E-1,3.893720627E0,-5.833103180E0
1.852492661E0,-9.667003751E-1,3.927220106E0,-5.790032387E0
1.854897921E0,-1.038485050E0,4.023531437E0,-5.813961029E0
1.857303182E0,-1.162911773E0,4.109673023E0,-5.794818401E0
1.859708442E0,-1.325623751E0,4.133601189E0,-5.746961594E0
1.862113755E0,-1.469193101E0,4.042674065E0,-5.656034470E0
1.864519015E0,-1.507478237E0,3.956532240E0,-5.593821049E0
1.866924276E0,-1.536192179E0,3.893720627E0,-5.517251015E0
1.869329536E0,-1.550549030E0,3.812364578E0,-5.531607628E0
1.871734796E0,-1.526620865E0,3.759722471E0,-5.593821049E0
1.874140057E0,-1.507478237E0,3.726222992E0,-5.694319725E0
1.876545317E0,-1.483550072E0,3.750151396E0,-5.880959988E0
1.878950578E0,-1.454836130E0,3.788436413E0,-6.072385788E0
1.881355890E0,-1.493121386E0,3.874577999E0,-6.288337708E0
1.883761151E0,-1.507478237E0,3.951746702E0,-6.541976929E0
1.886166411E0,-1.512263894E0,4.057030678E0,-6.790830612E0
1.888571671E0,-1.502692580E0,4.176671982E0,-6.982256413E0
1.890976932E0,-1.483550072E0,4.286741734E0,-7.106683254E0
1.893382192E0,-1.402194023E0,4.329812527E0,-7.211967468E0
1.895787453E0,-1.397408366E0,4.435096741E0,-7.283751965E0
1.898192713E0,-1.478764415E0,4.482953072E0,-7.360920429E0
1.900598026E0,-1.612762451E0,4.497310162E0,-7.447062492E0
1.903003286E0,-1.660618901E0,4.564309120E0,-7.509275436E0
1.905408546E0,-1.737787485E0,4.573880672E0,-7.537989616E0
1.907813807E0,-1.752144337E0,4.597808838E0,-7.504489899E0
1.910219067E0,-1.814357758E0,4.621737003E0,-7.499704361E0
1.912624328E0,-1.938784599E0,4.727021217E0,-7.461419106E0
1.915029588E0,-1.991426587E0,4.789234638E0,-7.394420147E0
1.917434901E0,-2.077568293E0,4.856233597E0,-7.336992264E0
1.919840161E0,-2.024926186E0,4.837090969E0,-7.235895634E0
1.922245421E0,-2.005783558E0,4.856233597E0,-7.010970116E0
1.924650682E0,-2.044068813E0,4.837090969E0,-6.900900364E0
1.927055942E0,-2.139781713E0,4.899304390E0,-6.699903488E0
1.929461203E0,-2.312064886E0,4.961517811E0,-6.656832695E0
1.931866463E0,-2.412563324E0,4.995017052E0,-6.656832695E0
1.934271723E0,-2.508276224E0,5.014159679E0,-6.704689026E0
1.936677036E0,-2.651845694E0,5.081757069E0,-6.805187702E0
1.939082296E0,-2.877369165E0,5.134399414E0,-6.843472958E0
1.941487557E0,-3.087937593E0,5.268397331E0,-6.896114826E0
1.943892817E0,-3.293720484E0,5.364109993E0,-6.982256413E0
1.946298078E0,-3.446861029E0,5.402395248E0,-7.044469833E0
1.948703338E0,-3.523431301E0,5.368896008E0,-7.116254330E0
1.951108598E0,-3.590430260E0,5.254040241E0,-7.178467751E0
1.953513911E0,-3.580859184E0,5.172684193E0,-7.259823799E0
1.955919171E0,-3.480360508E0,5.076971531E0,-7.341778278E0
1.958324432E0,-3.437289715E0,4.980660439E0,-7.451848030E0
1.960729692E0,-3.384647608E0,4.904089928E0,-7.566703320E0
1.963134953E0,-3.375076294E0,4.880161762E0,-7.695915699E0
1.965540213E0,-3.408575773E0,4.837090969E0,-7.853842258E0
1.967945473E0,-3.351148129E0,4.971088886E0,-8.059624672E0
1.970350786E0,-3.293720484E0,5.244469166E0,-8.438288689E0
1.972756046E0,-3.236292601E0,5.364109993E0,-8.763712883E0
1.975161307E0,-3.202793121E0,5.426323414E0,-9.165707588E0
1.977566567E0,-3.097508907E0,5.560321808E0,-9.524630547E0
1.979971828E0,-2.958725214E0,5.617749214E0,-9.754940033E0
1.982377088E0,-2.925225735E0,5.636891842E0,-9.865009308E0
1.984782348E0,-2.834298372E0,5.517251015E0,-9.860223770E0
1.987187661E0,-2.829512835E0,5.325825214E0,-9.764511108E0
1.989592921E0,-2.867797852E0,5.206183910E0,-9.649655342E0
1.991998182E0,-2.949153900E0,5.105685234E0,-9.457631111E0
1.994403442E0,-3.006581545E0,4.966303349E0,-9.290133476E0
1.996808703E0,-3.121437073E0,4.837090969E0,-9.098708153E0
1.999213963E0,-3.193221807E0,4.789234638E0,-8.816354752E0
2.001619223E0,-3.341576815E0,4.808377266E0,-8.394619942E0
2.004024484E0,-3.547359467E0,4.669593334E0,-8.083553314E0
2.006429796E0,-3.676572084E0,4.760520458E0,-7.935198307E0
2.008835057E0,-3.839283943E0,4.899304390E0,-7.853842258E0
2.011240317E0,-4.021736622E0,5.004588604E0,-7.772486210E0
2.013645578E0,-4.213162422E0,5.143970490E0,-7.652844906E0
2.016050838E0,-4.308875561E0,5.239683151E0,-7.557132244E0
2.018456098E0,-4.418945312E0,5.325825214E0,-7.523632526E0
2.020861359E0,-4.509872437E0,5.440680504E0,-7.523632526E0
2.023266671E0,-4.562514782E0,5.593821049E0,-7.475776196E0
2.025671932E0,-4.572085857E0,5.718247890E0,-7.437490940E0
2.028077192E0,-4.490729809E0,5.871388435E0,-7.437490940E0
2.030482453E0,-4.265804768E0,5.967101574E0,-7.360920429E0
2.032887713E0,-4.040879250E0,6.024528980E0,-7.274180889E0
2.035292973E0,-3.700500250E0,6.010172367E0,-7.192824841E0
2.037698286E0,-3.336791277E0,5.943173409E0,-7.082755089E0
2.040103546E0,-3.035295486E0,5.928816319E0,-7.010970116E0
2.042508807E0,-2.737987280E0,5.952744484E0,-6.987041950E0
2.044914067E0,-2.508276224E0,6.024528980E0,-6.991827965E0
2.047319328E0,-2.321636200E0,6.077171326E0,-7.034898758E0
2.049724588E0,-2.297708035E0,6.211767673E0,-7.101897717E0
2.052129848E0,-2.273779631E0,6.403193474E0,-7.202396393E0
2.054535109E0,-2.292922258E0,6.628118515E0,-7.259823799E0
2.056940421E0,-2.340778828E0,6.843472958E0,-7.327421188E0
2.059345682E0,-2.426920414E0,7.044469833E0,-7.394420147E0
2.061750942E0,-2.527418852E0,7.231110096E0,-7.451848030E0
2.064156203E0,-2.670988321E0,7.442276478E0,-7.470990658E0
2.066561463E0,-2.752344131E0,7.638488293E0,-7.408777237E0
2.068966723E0,-2.872583628E0,7.829914093E0,-7.269395351E0
2.071372036E0,-2.910868645E0,7.911269665E0,-7.168896675E0
2.073777296E0,-2.939582586E0,7.959126472E0,-7.015756130E0
2.076182557E0,-2.992224693E0,7.954340458E0,-6.766902447E0
2.078587817E0,-2.973082066E0,7.920841217E0,-6.594619274E0
2.080993078E0,-2.829512835E0,7.743772507E0,-6.374479294E0
2.083398338E0,-2.882154942E0,7.772486210E0,-6.134599209E0
2.085803598E0,-2.939582586E0,7.791628838E0,-5.986244202E0
2.088208911E0,-2.910868645E0,7.671987534E0,-5.880959988E0
2.090614171E0,-2.953939438E0,7.480561733E0,-5.828317642E0
2.093019432E0,-2.920439959E0,7.365706444E0,-5.842674732E0
2.095424692E0,-2.939582586E0,7.216753006E0,-5.847460270E0
2.097829953E0,-2.963510752E0,7.135396957E0,-5.895316601E0
2.100235213E0,-3.064009428E0,7.097112179E0,-5.933601856E0
2.102640473E0,-3.140579700E0,7.049255371E0,-6.034100533E0
2.105045786E0,-3.135794163E0,6.948757172E0,-6.125027657E0
2.107451046E0,-3.226721287E0,6.982256413E0,-6.187839508E0
2.109856307E0,-3.265006542E0,6.963113785E0,-6.240481377E0
2.112261567E0,-3.308077335E0,6.910471916E0,-6.317051888E0
2.114666828E0,-3.269792080E0,6.843472958E0,-6.317051888E0
2.117072088E0,-3.284149170E0,6.771687984E0,-6.336194515E0
2.119477401E0,-3.183650494E0,6.661618233E0,-6.355337143E0
2.121882661E0,-3.131008387E0,6.503692150E0,-6.321837425E0
2.124287921E0,-3.102294445E0,6.379265308E0,-6.326622963E0
2.126693182E0,-3.054438114E0,6.264409542E0,-6.326622963E0
2.129098442E0,-3.030509949E0,6.144170284E0,-6.245266914E0
2.131503703E0,-3.011367321E0,6.053243160E0,-6.187839508E0
2.133908963E0,-2.958725214E0,6.005386829E0,-6.173482418E0
2.136314276E0,-2.882154942E0,5.991029739E0,-6.144170284E0
2.138719536E0,-2.891726255E0,5.967101574E0,-6.148955822E0
2.141124796E0,-2.958725214E0,5.976672649E0,-6.187839508E0
2.143530057E0,-2.968296528E0,5.967101574E0,-6.259624004E0
2.145935317E0,-2.973082066E0,6.019743443E0,-6.259624004E0
2.148340578E0,-2.977867842E0,6.091528416E0,-6.326622963E0
2.150745890E0,-2.910868645E0,6.129813194E0,-6.403193474E0
2.153151151E0,-2.839084148E0,6.245266914E0,-6.508477688E0
2.155556411E0,-2.800200701E0,6.379265308E0,-6.628118515E0
2.157961671E0,-2.742773056E0,6.532405853E0,-6.762116909E0
2.160366932E0,-2.790629387E0,6.723831654E0,-6.857829571E0
2.162772192E0,-2.858226538E0,6.881757736E0,-6.963113785E0
2.165177453E0,-2.886940479E0,6.987041950E0,-6.996613503E0
2.167582765E0,-2.977867842E0,7.068397999E0,-7.010970116E0
2.169988026E0,-3.102294445E0,7.101897717E0,-7.030112743E0
2.172393286E0,-3.279363394E0,7.063612461E0,-6.991827965E0
2.174798546E0,-3.408575773E0,6.929614544E0,-6.991827965E0
2.177203807E0,-3.518645763E0,6.833901405E0,-6.905686378E0
2.179609119E0,-3.609572887E0,6.699903488E0,-6.771687984E0
2.182014380E0,-3.671786308E0,6.580262184E0,-6.685546398E0
2.184419640E0,-3.743571043E0,6.522834301E0,-6.623332977E0
2.186824901E0,-3.824927092E0,6.446264267E0,-6.532405853E0
2.189230161E0,-3.920639992E0,6.427121639E0,-6.460621357E0
2.191635421E0,-4.074378967E0,6.436692715E0,-6.340980053E0
2.194040734E0,-4.122235298E0,6.431907177E0,-6.235695839E0
2.196445994E0,-4.198805332E0,6.503692150E0,-6.110671043E0
2.198851255E0,-4.318446636E0,6.527620316E0,-6.034100533E0
2.201256515E0,-4.361517429E0,6.546762943E0,-5.947958946E0
2.203661776E0,-4.375874519E0,6.570691109E0,-5.799603939E0
2.206067036E0,-4.438087940E0,6.613761902E0,-5.641677380E0
2.208472296E0,-4.457230568E0,6.580262184E0,-5.550750256E0
2.210877609E0,-4.361517429E0,6.585047722E0,-5.421537876E0
2.213282869E0,-4.203591347E0,6.565905571E0,-5.301896572E0
2.215688130E0,-3.993022680E0,6.541976929E0,-5.234897614E0
2.218093390E0,-3.762713671E0,6.551548481E0,-5.115256786E0
2.220498651E0,-3.461217880E0,6.546762943E0,-5.076971531E0
2.222903911E0,-3.116651535E0,6.589833736E0,-5.053043365E0
2.225309223E0,-2.714059114E0,6.690331936E0,-5.081757069E0
2.227714484E0,-2.446063042E0,6.843472958E0,-5.139184952E0
2.230119744E0,-2.292922258E0,6.982256413E0,-5.249254704E0
2.232525005E0,-2.044068813E0,7.269395351E0,-5.426323414E0
2.234930265E0,-2.005783558E0,7.710272789E0,-5.498108387E0
2.237335526E0,-2.020140409E0,8.207980156E0,-5.517251015E0
2.239740838E0,-2.072782516E0,8.620143890E0,-5.488536835E0
2.242146098E0,-2.058425665E0,8.864211082E0,-5.598606586E0
2.244551359E0,-2.058425665E0,9.012566566E0,-5.727818966E0
2.246956619E0,-1.890928149E0,9.026923180E0,-5.842674732E0
2.249361880E0,-1.804786444E0,8.969495773E0,-5.986244202E0
2.251767140E0,-1.569691658E0,8.797212601E0,-6.144170284E0
2.254172453E0,-1.359123230E0,8.648857117E0,-6.312266350E0
2.256577713E0,-1.119840980E0,8.389834404E0,-6.585047722E0
2.258982973E0,-5.162515044E-1,7.997411251E0,-7.159325123E0
2.261388234E0,-6.939185858E-1,8.198408127E0,-7.514061451E0
2.263793494E0,-1.287338614E0,8.548358917E0,-7.030112743E0
2.266198755E0,-1.517049551E0,8.322834969E0,-6.618547440E0
2.268604067E0,-1.641476393E0,7.939983845E0,-6.221338749E0
2.271009328E0,-1.809572101E0,7.576274872E0,-5.799603939E0
2.273414588E0,-2.158924341E0,7.327421188E0,-5.397609711E0
2.275819848E0,-2.575275421E0,7.360920429E0,-5.038087845E0
2.278225109E0,-2.997010469E0,7.427919865E0,-4.755734921E0
2.280630369E0,-3.480360508E0,7.470990658E0,-4.521238327E0
2.283035682E0,-3.848855257E0,7.447062492E0,-4.368097782E0
2.285440942E0,-4.074378967E0,7.327421188E0,-4.253242016E0
2.287846203E0,-4.304089546E0,7.380063057E0,-4.133601189E0
2.290251463E0,-4.663012981E0,7.571488857E0,-4.080958843E0
2.292656723E0,-4.873581409E0,7.643273830E0,-4.171886444E0
2.295061984E0,-5.012365341E0,7.686344624E0,-4.425525665E0
2.297467296E0,-4.907081127E0,7.600203037E0,-4.664807796E0
2.299872557E0,-4.878366947E0,7.581060410E0,-4.928018093E0
2.302277817E0,-4.835296154E0,7.571488857E0,-5.206183910E0
2.304683078E0,-4.820939541E0,7.590631485E0,-5.445466042E0
2.307088338E0,-4.797011375E0,7.552346706E0,-5.670391560E0
2.309493651E0,-4.801796913E0,7.590631485E0,-5.938387394E0
2.311898911E0,-4.538586140E0,7.389634609E0,-6.144170284E0
2.314304171E0,-4.447659016E0,7.336992264E0,-6.293123722E0
2.316709432E0,-4.409373760E0,7.288537979E0,-6.436692715E0
2.319114692E0,-4.438087940E0,7.399205685E0,-6.470192432E0
2.321519953E0,-4.318446636E0,7.332206726E0,-6.417550564E0
2.323925213E0,-4.567300320E0,7.504489899E0,-6.388836384E0
2.326330526E0,-4.773082733E0,7.805985451E0,-6.331408501E0
2.328735786E0,-5.185246468E0,8.227122307E0,-6.460621357E0
2.331141046E0,-4.127020836E0,7.695915699E0,-6.019743443E0
2.333546307E0,-4.270590305E0,7.877770424E0,-5.464608669E0
2.335951567E0,-4.217947960E0,7.767700672E0,-5.230112076E0
2.338356880E0,-4.155734539E0,7.427919865E0,-5.134399414E0
2.340762140E0,-4.012165546E0,6.943971157E0,-5.072185993E0
2.343167401E0,-4.332803726E0,6.747759819E0,-4.947160721E0
2.345572661E0,-4.706083775E0,6.680760860E0,-4.841876507E0
2.347977921E0,-5.031507969E0,6.699903488E0,-4.612165451E0
2.350383182E0,-5.280959606E0,6.800402164E0,-4.468596458E0
2.352788494E0,-5.395814896E0,6.872186661E0,-4.449453831E0
2.355193755E0,-5.319244862E0,7.077969551E0,-4.396811485E0
2.357599015E0,-5.233103275E0,7.235895634E0,-4.372883320E0
2.360004276E0,-5.051248550E0,7.485347271E0,-4.396811485E0
2.362409536E0,-5.021936417E0,7.853842258E0,-4.492524624E0
2.364814848E0,-5.759523869E0,8.950352669E0,-5.368896008E0
2.367220109E0,-4.127020836E0,8.179265976E0,-5.153541565E0
2.369625369E0,-3.887140274E0,8.720642090E0,-4.473381996E0
2.372030630E0,-3.844069481E0,9.055637360E0,-4.655236244E0
2.374435890E0,-3.274577856E0,8.510073662E0,-5.028516769E0
2.376841151E0,-2.690130949E0,7.624131203E0,-5.565107346E0
2.379246411E0,-2.221137524E0,6.781259537E0,-6.034100533E0
2.381651723E0,-1.723430514E0,6.369693756E0,-5.751747608E0
2.384056984E0,-2.010569334E0,6.642475605E0,-4.875376225E0
2.386462244E0,-2.364706993E0,6.929614544E0,-4.152743816E0
2.388867505E0,-2.527418852E0,7.149754047E0,-3.664009571E0
2.391272817E0,-2.742773056E0,7.313064098E0,-3.410370588E0
2.393678078E0,-2.953939438E0,7.662416458E0,-3.209373474E0
2.396083338E0,-3.207578659E0,8.093124390E0,-3.089732170E0
2.398488598E0,-3.365504980E0,8.462217331E0,-3.070589542E0
2.400893859E0,-3.418147087E0,8.658429146E0,-3.123231649E0
2.403299119E0,-3.336791277E0,8.701499939E0,-3.276372433E0
2.405704432E0,-3.154936552E0,8.720642090E0,-3.448655605E0
2.408109692E0,-3.030509949E0,8.758927345E0,-3.697509289E0
2.410514953E0,-4.198805332E0,9.951150894E0,-4.334598064E0
2.412920213E0,-3.834498405E0,9.869794846E0,-5.182255745E0
2.415325473E0,-2.565704107E0,9.065208435E0,-4.856233597E0
2.417730786E0,-2.556132793E0,9.012566566E0,-4.875376225E0
2.420136046E0,-2.469991207E0,8.979066849E0,-4.770092010E0
2.422541307E0,-1.991426587E0,8.212765694E0,-4.803591251E0
2.424946567E0,-1.368694544E0,7.054041386E0,-4.741377831E0
2.427351828E0,-1.167697430E0,6.738188744E0,-3.990031719E0
2.429757088E0,-2.048854351E0,7.183253765E0,-2.869592667E0
2.432162401E0,-2.863012314E0,7.432705402E0,-2.108076811E0
2.434567661E0,-3.279363394E0,7.671987534E0,-1.887937069E0
2.436972921E0,-3.494717360E0,7.753343582E0,-1.954936147E0
2.439378182E0,-3.743571043E0,7.820342541E0,-2.093719721E0
2.441783442E0,-3.882354736E0,8.011768341E0,-2.270788670E0
2.444188703E0,-3.997808456E0,8.255836487E0,-2.385644197E0
2.446594015E0,-3.920639992E0,8.318049431E0,-2.505285263E0
2.448999276E0,-3.652643681E0,8.270193100E0,-2.586641312E0
2.451404536E0,-3.303291559E0,8.198408127E0,-2.768495798E0
2.453809796E0,-2.992224693E0,8.203194618E0,-2.950948477E0
2.456215057E0,-2.795415163E0,8.198408127E0,-3.032304525E0
2.458620369E0,-2.824727058E0,8.145766258E0,-3.065804005E0
2.461025630E0,-2.804986238E0,7.959126472E0,-3.027518749E0
2.463430890E0,-2.925225735E0,7.935198307E0,-3.084946632E0
2.465836151E0,-3.054438114E0,8.069195747E0,-3.104089260E0
2.468241411E0,-3.284149170E0,8.107481003E0,-3.099303484E0
2.470646723E0,-3.533002615E0,8.059624672E0,-3.089732170E0
2.473051984E0,-3.839283943E0,7.767700672E0,-3.175873756E0
2.475457244E0,-4.232305050E0,7.015756130E0,-4.119244099E0
2.477862505E0,-4.246662140E0,6.881757736E0,-4.214957237E0
2.480267765E0,-4.323232174E0,6.967899323E0,-4.176671982E0
2.482673078E0,-4.093521118E0,7.010970116E0,-4.248456478E0
2.485078338E0,-4.050450325E0,7.097112179E0,-4.262813568E0
2.487483598E0,-4.155734539E0,7.111468792E0,-4.238885403E0
2.489888859E0,-4.241876125E0,7.144968510E0,-4.167100430E0
2.492294119E0,-4.423730850E0,7.116254330E0,-4.090530396E0
2.494699380E0,-4.476373196E0,7.111468792E0,-4.090530396E0
2.497104692E0,-4.481158733E0,7.197610378E0,-4.037888050E0
2.499509953E0,-4.433301926E0,7.259823799E0,-4.033102512E0
2.501915213E0,-4.213162422E0,7.313064098E0,-3.912863255E0
2.504320473E0,-4.079164505E0,7.283751965E0,-3.888935089E0
2.506725734E0,-3.867997885E0,7.303493023E0,-3.821935892E0
2.509131046E0,-3.667000771E0,7.365706444E0,-3.778865099E0
2.511536307E0,-3.576073408E0,7.317849636E0,-3.793222189E0
2.513941567E0,-3.442075491E0,7.259823799E0,-3.855435371E0
2.516346828E0,-3.451646566E0,7.216753006E0,-4.023531437E0
2.518752088E0,-3.451646566E0,7.235895634E0,-4.109673023E0
2.521157401E0,-3.523431301E0,7.341778278E0,-4.258028030E0
2.523562661E0,-3.528217077E0,7.403991699E0,-4.415954113E0
2.525967921E0,-3.623929977E0,7.380063057E0,-4.497310162E0
2.528373182E0,-3.719642878E0,7.341778278E0,-4.707878590E0
2.530778442E0,-3.815355778E0,7.317849636E0,-4.846662045E0
2.533183703E0,-3.887140274E0,7.250252724E0,-5.033302307E0
2.535589015E0,-3.839283943E0,7.351349354E0,-5.053043365E0
2.537994276E0,-3.805784464E0,7.557132244E0,-5.081757069E0
2.540399536E0,-3.767499208E0,7.676773071E0,-4.975874901E0
2.542804796E0,-3.762713671E0,7.810771465E0,-4.798805714E0
2.545210109E0,-3.341576815E0,8.294121742E0,-4.224528313E0
2.547615369E0,-3.092723370E0,8.773283958E0,-3.927818298E0
2.550020630E0,-3.217149973E0,9.060422897E0,-3.783650875E0
2.552425890E0,-3.107080221E0,9.247062683E0,-3.620938778E0
2.554831151E0,-2.815155745E0,9.366703987E0,-3.348157167E0
2.557236463E0,-2.603989124E0,9.457631111E0,-3.180659533E0
2.559641723E0,-2.508276224E0,9.553942680E0,-3.013161898E0
2.562046984E0,-2.393420935E0,9.558728218E0,-2.893520832E0
2.564452244E0,-2.412563324E0,9.452845573E0,-2.855235577E0
2.566857505E0,-2.350350142E0,9.304491043E0,-2.874378204E0
2.569262817E0,-2.436491728E0,9.017352104E0,-2.931805849E0
2.571668078E0,-2.594418049E0,8.983852386E0,-3.123231649E0
2.574073338E0,-2.402992249E0,8.935996056E0,-3.324228764E0
2.576478598E0,-2.225923300E0,8.988637924E0,-3.616153240E0
2.578883859E0,-2.259422779E0,9.046066284E0,-3.932604074E0
2.581289119E0,-2.254637241E0,9.108279228E0,-4.171886444E0
2.583694432E0,-2.412563324E0,8.998209953E0,-4.377668858E0
2.586099692E0,-2.422134638E0,8.959924698E0,-4.459024906E0
2.588504953E0,-2.694916487E0,9.141778946E0,-4.746163845E0
2.590910213E0,-2.839084148E0,9.275776863E0,-5.047659397E0
2.593315526E0,-2.930011272E0,9.304491043E0,-5.206183910E0
2.595720786E0,-3.054438114E0,9.361918449E0,-5.397609711E0
2.598126046E0,-3.202793121E0,9.448060036E0,-5.627320766E0
2.600531307E0,-3.288934708E0,9.654440880E0,-5.746961594E0
2.602936567E0,-3.432504177E0,9.664012909E0,-5.828317642E0
2.605341828E0,-3.571287870E0,9.611370087E0,-5.785246849E0
2.607747140E0,-3.714857101E0,9.538987160E0,-5.718247890E0
2.610152401E0,-3.891926050E0,9.314062119E0,-5.603392601E0
2.612557661E0,-4.127020836E0,9.074779510E0,-5.775675774E0
2.614962921E0,-4.280161381E0,8.969495773E0,-6.105885029E0
2.617368234E0,-4.562514782E0,8.754141808E0,-6.403193474E0
2.619773494E0,-4.787439823E0,8.073982239E0,-6.470192432E0
2.622178755E0,-4.945366383E0,7.901698589E0,-7.006184578E0
2.624584015E0,-4.797011375E0,7.748558044E0,-7.049255371E0
2.626989276E0,-4.744369030E0,7.925626755E0,-7.135396957E0
2.629394588E0,-4.782654285E0,7.920841217E0,-7.470990658E0
2.631799848E0,-4.811367989E0,7.920841217E0,-7.949554920E0
2.634205109E0,-4.907081127E0,7.954340458E0,-8.284550667E0
2.636610369E0,-5.319244862E0,7.676773071E0,-8.389834404E0
2.639015630E0,-5.261816978E0,7.767700672E0,-8.653642654E0
2.641420942E0,-4.892724037E0,7.738986492E0,-8.629714966E0
2.643826203E0,-4.792225361E0,7.786843300E0,-8.581858635E0
2.646231463E0,-4.605585575E0,7.944769382E0,-8.495717049E0
2.648636723E0,-4.696512699E0,7.944769382E0,-8.361120224E0
2.651041984E0,-4.495515347E0,8.045268059E0,-8.251050949E0
2.653447296E0,-3.949951887E0,8.131409645E0,-7.844270706E0
2.655852557E0,-3.614358664E0,8.227122307E0,-7.633702278E0
2.658257817E0,-3.523431301E0,8.332406998E0,-7.351349354E0
2.660663078E0,-3.523431301E0,8.313263893E0,-7.073183537E0
2.663068338E0,-3.949951887E0,8.145766258E0,-6.939185619E0
2.665473651E0,-3.480360508E0,7.978269100E0,-6.719046116E0
2.667878911E0,-3.456432343E0,7.872984886E0,-6.604190350E0
2.670284171E0,-3.274577856E0,7.882555962E0,-6.407979012E0
2.672689432E0,-2.920439959E0,7.930412292E0,-6.336194515E0
2.675094692E0,-2.968296528E0,8.112266541E0,-6.163312912E0
2.677500005E0,-2.776272535E0,8.150551796E0,-6.067600250E0
2.679905265E0,-2.575275421E0,8.136195183E0,-5.943173409E0
2.682310526E0,-2.863012314E0,8.030911446E0,-6.048457623E0
2.684715786E0,-2.761915445E0,7.944769382E0,-6.014957905E0
2.687121046E0,-2.920439959E0,7.825128078E0,-6.187839508E0
2.689526359E0,-2.934797049E0,7.801199913E0,-6.192625046E0
2.691931619E0,-2.757129908E0,7.786843300E0,-6.163312912E0
2.694336880E0,-2.465205431E0,7.935198307E0,-6.058028698E0
2.696742140E0,-2.364706993E0,7.997411251E0,-6.077171326E0
2.699147453E0,-2.273779631E0,8.064410210E0,-6.096313953E0
2.701552713E0,-2.493919373E0,7.992625713E0,-6.230910301E0
2.703957973E0,-2.570489645E0,7.987840176E0,-6.317051888E0
2.706363234E0,-2.690130949E0,8.064410210E0,-6.340980053E0
2.708768494E0,-2.613560438E0,8.083553314E0,-6.302694798E0
2.711173807E0,-2.340778828E0,8.188837051E0,-6.091528416E0
2.713579067E0,-2.134995937E0,8.140980721E0,-5.904888153E0
2.715984328E0,-1.785643935E0,7.925626755E0,-5.656034470E0
2.718389588E0,-1.464407444E0,7.882555962E0,-5.411966801E0
2.720794848E0,-1.316052437E0,7.930412292E0,-5.100899696E0
2.723200161E0,-1.201196909E0,7.882555962E0,-4.870590687E0
2.725605421E0,-1.263410330E0,7.954340458E0,-4.698307037E0
2.728010682E0,-1.363908887E0,7.978269100E0,-4.626522541E0
2.730415942E0,-1.349551916E0,8.045268059E0,-4.593023300E0
2.732821255E0,-1.378265858E0,8.136195183E0,-4.530809879E0
2.735226515E0,-1.373480201E0,8.255836487E0,-4.511667252E0
2.737631776E0,-1.450050473E0,8.346763611E0,-4.439882278E0
2.740037036E0,-1.646261930E0,8.265407562E0,-4.516452789E0
2.742442296E0,-1.871785522E0,8.002197266E0,-4.616951466E0
2.744847609E0,-2.077568293E0,7.896913052E0,-4.688735962E0
2.747252869E0,-2.034497499E0,8.002197266E0,-4.674378872E0
2.749658130E0,-2.106282234E0,8.093124390E0,-4.765306473E0
2.752063390E0,-1.996212244E0,8.121838570E0,-4.832305431E0
2.754468651E0,-2.096710920E0,8.203194618E0,-4.971088886E0
2.756873963E0,-1.843071699E0,8.534002304E0,-4.990231514E0
2.759279223E0,-1.957927108E0,8.835497856E0,-5.086542606E0
2.761684484E0,-2.087139606E0,8.864211082E0,-5.163113117E0
2.764089744E0,-2.245065928E0,8.907281876E0,-5.196612358E0
2.766495057E0,-2.211566210E0,9.046066284E0,-5.057828903E0
2.768900317E0,-1.977069736E0,9.227920532E0,-4.932804108E0
2.771305578E0,-1.723430514E0,9.309276581E0,-4.942375183E0
2.773710838E0,-1.631905079E0,9.347561836E0,-4.832305431E0
2.776116098E0,-1.579262972E0,9.361918449E0,-4.707878590E0
2.778521411E0,-1.584048629E0,9.256634712E0,-4.683950424E0
2.780926671E0,-1.521835208E0,9.141778946E0,-4.593023300E0
2.783331932E0,-1.631905079E0,9.156135559E0,-4.468596458E0
2.785737192E0,-1.785643935E0,9.012566566E0,-4.616951466E0
2.788142453E0,-1.838286042E0,8.830712318E0,-4.650450706E0
2.790547765E0,-1.440479279E0,7.671987534E0,-4.741377831E0
2.792953026E0,-2.243271172E-1,5.301896572E0,-4.980660439E0
2.795358286E0,-5.545366406E-1,5.459823132E0,-5.105685234E0
2.797763546E0,-4.779663086E-1,5.622535229E0,-5.153541565E0
2.800168859E0,-6.891329288E-1,5.880959988E0,-5.201398373E0
2.802574119E0,-7.609176040E-1,6.388836384E0,-5.225326538E0
2.804979380E0,-8.757730722E-1,6.910471916E0,-5.254040241E0
2.807384640E0,-9.427721500E-1,7.609774113E0,-5.067399979E0
2.809789953E0,-8.231309652E-1,8.184051514E0,-4.755734921E0
2.812195213E0,-6.173482537E-1,8.806783676E0,-4.281956196E0
2.814600473E0,-3.008974493E-1,9.323633194E0,-3.731008768E0
2.817005734E0,-1.046859920E-1,9.510273933E0,-3.199802160E0
2.819410994E0,1.974078640E-2,9.529416084E0,-2.739781857E0
2.821816307E0,4.552344978E-1,9.721440315E0,-2.218146563E0
2.824221567E0,7.621139884E-1,9.587442398E0,-1.763510346E0
2.826626828E0,1.264606714E0,9.500701904E0,-1.356132269E0
2.829032088E0,1.978266120E0,9.251849174E0,-9.924231768E-1
2.831437401E0,2.504687071E0,9.184849739E0,-6.813562512E-1
2.833842661E0,3.146561861E0,9.247062683E0,-3.457628787E-1
2.836247921E0,3.826123476E0,9.247062683E0,7.537391037E-2
2.838653182E0,4.649852753E0,8.207980156E0,4.103690982E-1
2.841058442E0,4.295714855E0,7.283751965E0,-3.948157281E-2
2.843463755E0,4.472783566E0,6.747759819E0,6.101697683E-2
2.845869015E0,5.176871777E0,7.365706444E0,5.108676553E-1
2.848274276E0,6.009573936E0,7.442276478E0,8.512466550E-1
2.850679536E0,6.047859192E0,7.423133850E0,8.177471161E-1
2.853084796E0,6.646663189E0,7.413562775E0,8.751748800E-1
2.855490109E0,7.168298244E0,7.264609337E0,8.321040869E-1
2.857895369E0,7.211369038E0,7.485347271E0,8.943174481E-1
2.860300630E0,7.345965385E0,7.767700672E0,9.230313301E-1
2.862705890E0,7.446464062E0,7.475776196E0,6.933203340E-1
2.865111203E0,7.144370079E0,7.130611420E0,4.725824594E-1
2.867516463E0,7.067800045E0,7.030112743E0,5.108676553E-1
2.869921723E0,6.842874527E0,6.321837425E0,6.580262631E-2
2.872326984E0,6.474380016E0,6.474977970E0,-2.931207716E-1
2.874732296E0,4.984847546E0,8.169694901E0,5.156532526E-1
2.877137557E0,4.917848587E0,7.614559650E0,8.321040869E-1
2.879542817E0,3.994219303E0,7.695915699E0,1.171884894E0
2.881948078E0,2.945564747E0,8.706285477E0,2.167897224E0
2.884353338E0,2.050050735E0,1.017129040E1,3.250051260E0
2.886758651E0,7.573283911E-1,1.096630573E1,3.954139471E0
2.889163911E0,-5.838487148E-1,1.085623646E1,4.456632137E0
2.891569171E0,-1.469193101E0,1.157408333E1,5.088935375E0
2.893974432E0,-2.513062000E0,1.189053345E1,5.524429321E0
2.896379744E0,-1.857428551E0,1.012343407E1,5.203791142E0
2.898785005E0,-2.560918331E0,1.006122112E1,5.275575638E0
2.901190265E0,-2.498705149E0,9.644869804E0,5.184648514E0
2.903595526E0,-2.872583628E0,9.606584549E0,4.959125042E0
2.906000786E0,-3.131008387E0,1.007079220E1,4.805984497E0
2.908406098E0,-3.384647608E0,1.102373409E1,4.662415028E0
2.910811359E0,-3.911068678E0,1.086102200E1,4.174279213E0
2.913216619E0,-4.256233215E0,1.129651546E1,3.900899172E0
2.915621880E0,-4.485944271E0,1.136830044E1,3.364906788E0
2.918027192E0,-4.634299278E0,1.141137123E1,2.766103029E0
2.920432453E0,-4.686941147E0,1.150229836E1,2.129612207E0
2.922837713E0,-4.959722996E0,1.163151073E1,1.444666624E0
2.925242973E0,-5.199603558E0,1.166501045E1,8.560323119E-1
2.927648286E0,-5.362315655E0,1.182832050E1,3.577269912E-1
2.930053546E0,-5.467599869E0,1.090409279E1,-3.744767308E-1
2.932458807E0,-5.840879917E0,9.630513191E0,-1.164706469E0
2.934864067E0,-6.123233318E0,9.318847656E0,-1.883151412E0
2.937269328E0,-6.200401783E0,9.337990761E0,-2.486142635E0
2.939674640E0,-6.406184196E0,9.549157143E0,-3.003590584E0
2.942079901E0,-6.329614162E0,9.922437668E0,-3.415156126E0
2.944485161E0,-6.046662807E0,1.015214825E1,-3.707080364E0
2.946890421E0,-6.027520180E0,1.043450165E1,-3.831507206E0
2.949295682E0,-6.027520180E0,1.089452171E1,-3.869792461E0
2.951700994E0,-5.898307800E0,1.144965649E1,-3.644867182E0
2.954106255E0,-5.611168861E0,1.206760311E1,-3.257229805E0
2.956511515E0,-5.295316696E0,1.251266766E1,-2.744567633E0
2.958916828E0,-4.763511658E0,1.329811192E1,-2.103291035E0
2.961322088E0,-3.810570002E0,1.341296768E1,-1.389631748E0
2.963727348E0,-2.987439156E0,1.287159157E1,-5.276173949E-1
2.966132609E0,-2.863012314E0,1.192403316E1,2.524427772E-1
2.968537869E0,-1.804786444E0,1.202453232E1,1.042672515E0
2.970943182E0,-1.215553880E0,1.176550865E1,1.344168067E0
2.973348442E0,-5.838487148E-1,1.175115204E1,1.770688772E0
2.975753703E0,-2.243271172E-1,1.162193966E1,1.981257200E0
2.978158963E0,-4.725824669E-2,1.140658569E1,2.062613010E0
2.980564276E0,-6.029912829E-1,1.059242725E1,1.986042738E0
2.982969536E0,-5.838487148E-1,1.073659515E1,2.105684042E0
2.985374796E0,-2.003988922E-1,1.093280697E1,1.756331801E0
2.987780057E0,-6.161518395E-2,1.098066330E1,1.420738459E0
2.990185369E0,1.633101404E-1,1.075573826E1,1.114457130E0
2.992590630E0,2.685943544E-1,1.053978539E1,8.799605370E-1
2.994995890E0,9.152546525E-2,1.013300610E1,6.119644046E-1
2.997401151E0,-1.854437590E-2,9.884152412E0,3.433700502E-1
2.999806411E0,-1.573280841E-1,9.678369522E0,1.280160099E-1
3.002211723E0,-1.812563092E-1,9.625727654E0,-6.819544733E-2
3.004616984E0,-5.838487148E-1,8.940781593E0,-3.074777126E-1
3.007022244E0,-9.427721500E-1,8.744570732E0,-3.457628787E-1
3.009427505E0,-6.508477330E-1,9.505488396E0,-4.510470629E-1
3.011832817E0,-5.114658475E-1,9.850652695E0,-5.324030519E-1
3.014238078E0,-3.535395563E-1,9.798010826E0,-5.228317380E-1
3.016643338E0,-3.678964674E-1,9.750154495E0,-4.893322289E-1
3.019048598E0,-3.008974493E-1,9.625727654E0,-4.797609448E-1
3.021453859E0,-2.817548811E-1,9.544371605E0,-4.271188378E-1
3.023859171E0,-3.200400174E-1,9.529416084E0,-3.840480447E-1
3.026264432E0,-4.205385745E-1,9.558728218E0,-3.122633696E-1
3.028669692E0,-1.076770186E0,9.041280746E0,-3.505485058E-1
3.031074953E0,-1.000199914E0,9.381061554E0,-3.948157281E-2
3.033480265E0,-5.210371017E-1,1.009950638E1,-5.982056726E-3
3.035885526E0,-1.908276081E-1,1.032443142E1,5.144568533E-2
3.038290786E0,1.968096644E-1,1.028136063E1,1.471585929E-1
3.040696046E0,5.898307562E-1,1.012343407E1,9.451649338E-2
3.043101359E0,8.626125455E-1,1.010429192E1,2.380858511E-1
3.045506619E0,1.049252748E0,1.023350430E1,4.390829504E-1
3.047911880E0,1.221535921E0,1.022393322E1,5.204389095E-1
3.050317140E0,1.432104349E0,8.500502586E0,4.534398913E-1
3.052722453E0,1.039681435E0,9.194420815E0,7.268198729E-1
3.055127713E0,4.121637046E-1,1.106201935E1,5.641079545E-1
3.057532973E0,5.994020700E-1,1.182353497E1,5.204389095E-1
3.059938234E0,1.010967612E0,1.179960632E1,5.587241054E-1
3.062343546E0,1.432104349E0,1.162193966E1,6.502495408E-1
3.064748807E0,1.537388563E0,1.120080280E1,6.071787477E-1
3.067154067E0,1.345962763E0,1.107637596E1,6.406782866E-1
3.069559328E0,1.159322619E0,1.115773201E1,6.789634228E-1
3.071964640E0,9.008977413E-1,1.110509014E1,5.539384484E-1
3.074369901E0,6.807580590E-1,1.108116150E1,4.869394004E-1
3.076775161E0,5.174478889E-1,1.115773201E1,4.295116663E-1
3.079180421E0,4.360919297E-1,1.121037388E1,3.864408433E-1
3.081585682E0,4.743770957E-1,1.133958626E1,4.821537733E-1
3.083990994E0,5.611169338E-1,1.122951698E1,4.677968323E-1
3.086396255E0,4.265206456E-1,1.105244732E1,2.811566591E-1
3.088801515E0,1.537388563E-1,1.092323494E1,1.280160099E-1
3.091206776E0,-2.051845491E-1,1.088016415E1,-9.690931439E-2
3.093612088E0,-5.162515044E-1,1.080838013E1,-3.409772217E-1
3.096017348E0,-7.609176040E-1,1.065942669E1,-5.228317380E-1
3.098422609E0,-1.009771109E0,1.056371403E1,-7.004988194E-1
3.100827869E0,-1.095912814E0,1.043450165E1,-8.344969153E-1
3.103233182E0,-1.272981644E0,1.030050373E1,-9.876375198E-1
3.105638442E0,-1.709073544E0,9.275776863E0,-1.207777262E0
3.108043703E0,-4.971089065E-1,9.812367439E0,-6.526423693E-1
3.110448963E0,-1.229910851E0,1.076052380E1,-9.876375198E-1
3.112854276E0,-1.229910851E0,1.079402256E1,-1.188634634E0
3.115259536E0,-1.100698471E0,1.047757244E1,-1.188634634E0
3.117664796E0,-9.427721500E-1,1.024786091E1,-1.059422255E0
3.120070057E0,-1.000199914E0,1.003729248E1,-1.045065284E0
3.122475369E0,-1.598405480E0,9.750154495E0,-1.336989641E0
3.124880630E0,-1.838286042E0,9.156135559E0,-1.523629785E0
3.127285890E0,-2.249851465E0,7.724629879E0,-2.998805046E0
3.129691151E0,-3.351148129E0,8.394619942E0,-2.538784742E0
3.132096463E0,-2.901297569E0,7.719843864E0,-2.648854733E0
3.134501723E0,-2.661417007E0,9.745368004E0,-1.787438512E0
3.136906984E0,-2.082353830E0,1.094716358E1,-1.427916884E0
3.139312244E0,-1.210768223E0,1.085145092E1,-8.009973764E-1
3.141717557E0,-3.870390654E-1,1.041535854E1,-1.256231815E-1
3.144122817E0,2.638086975E-1,1.015693378E1,5.347958803E-1
3.146528078E0,4.648058116E-1,9.922437668E0,9.948160052E-1
3.148933338E0,-5.742774606E-1,9.170493126E0,1.128814101E0
3.151338598E0,-8.374879360E-1,9.640084267E0,1.597807288E0
3.153743911E0,-3.152543902E-1,1.018564796E1,2.000399828E0
3.156149171E0,1.016949583E-2,1.057807064E1,2.129612207E0
3.158554432E0,1.824527234E-1,1.054935646E1,2.292324066E0
3.160959744E0,4.073780477E-1,1.051107121E1,2.431107759E0
3.163365005E0,5.270192027E-1,1.042014408E1,2.354537487E0
3.165770265E0,4.313062727E-1,1.029571724E1,2.225325108E0
3.168175526E0,1.728814393E-1,1.031007481E1,2.086541414E0
3.170580838E0,4.845465720E-2,1.040578747E1,2.033899307E0
3.172986098E0,1.974078640E-2,1.043450165E1,1.919043779E0
3.175391359E0,-8.075776696E-2,1.038185883E1,1.751546144E0
3.177796619E0,-2.626122832E-1,1.032921696E1,1.502094388E0
3.180201932E0,-3.535395563E-1,1.030050373E1,1.325025558E0
3.182607192E0,-5.545366406E-1,1.033400249E1,1.100100160E0
3.185012453E0,-6.747759581E-1,1.027178955E1,8.943174481E-1
3.187417713E0,-9.762716293E-1,1.018086243E1,6.837490797E-1
3.189822973E0,-1.158126116E0,1.008993530E1,5.108676553E-1
3.192228286E0,-1.277767301E0,9.984650612E0,3.481557071E-1
3.194633546E0,-1.967498422E0,9.879366875E0,9.930214286E-2
3.197038807E0,-2.829512835E0,9.587442398E0,-3.218346536E-1
3.199444067E0,-3.571287870E0,8.021339417E0,-1.864008784E0
3.201849380E0,-5.280959606E0,7.604988575E0,-1.854437590E0
3.204254640E0,-5.515456200E0,6.723831654E0,-2.495713949E0
3.206659901E0,-5.261816978E0,9.227920532E0,-1.849651933E0
3.209065161E0,-4.318446636E0,1.074138069E1,-1.557129383E0
3.211470473E0,-3.001796007E0,1.058285618E1,-1.025922656E0
3.213875734E0,-3.049652576E0,9.433703423E0,-9.732806087E-1
3.216280994E0,-9.906286001E-1,9.702297211E0,-2.021935135E-1
3.218686307E0,2.111666054E-1,9.769296646E0,1.232303679E-1
3.221091567E0,1.211964726E0,9.707083702E0,4.295116663E-1
3.223496828E0,1.892124534E0,9.592227936E0,7.268198729E-1
3.225902088E0,6.089733839E-1,8.423932076E0,5.300102234E-1
3.228307348E0,1.408176184E0,9.385847092E0,1.186241865E0
3.230712661E0,2.322832584E0,9.927223206E0,1.325025558E0
3.233117921E0,2.864208698E0,1.030528927E1,1.506880045E0
3.235523182E0,2.979064226E0,1.027657509E1,1.674377680E0
3.237928442E0,2.998206854E0,1.027178955E1,1.636092424E0
3.240333755E0,2.806781054E0,1.031486034E1,1.694118381E0
3.242739015E0,2.710469961E0,1.025743294E1,1.770688772E0
3.245144276E0,3.543770313E0,9.227920532E0,1.588235974E0
3.247549536E0,1.758126378E0,1.005165005E1,1.238883972E0
3.249954848E0,1.369890928E0,1.011386299E1,1.186241865E0
3.252360109E0,3.786641955E-1,1.068873882E1,1.042672515E0
3.254765369E0,2.931207791E-2,1.086102200E1,1.052243710E0
3.257170630E0,2.542374134E-1,1.086102200E1,1.162313581E0
3.259575942E0,5.461617708E-1,1.082752228E1,1.281954765E0
3.261981203E0,7.860422134E-1,1.070788097E1,1.310668588E0
3.264386463E0,8.434699774E-1,1.069352436E1,1.234098315E0
3.266791723E0,6.903293133E-1,1.071745300E1,1.128814101E0
3.269197036E0,4.456632137E-1,1.071745300E1,9.038887620E-1
3.271602296E0,7.716853172E-2,1.070309544E1,6.741777658E-1
3.274007557E0,-2.051845491E-1,1.063071251E1,4.821537733E-1
3.276412817E0,-4.061816335E-1,1.058764172E1,4.151547253E-1
3.278818130E0,-5.114658475E-1,1.059242725E1,3.290131092E-1
3.281223390E0,-5.258227587E-1,1.052542877E1,2.811566591E-1
3.283628651E0,1.058823988E-1,9.994221687E0,3.290131092E-1
3.286033911E0,6.999006271E-1,9.836296082E0,2.667997181E-1
3.288439223E0,-6.317051649E-1,1.081316566E1,1.423729509E-1
3.290844484E0,-6.891329288E-1,1.094716358E1,1.758724600E-1
3.293249744E0,-4.348955154E-1,1.082752228E1,1.328016520E-1
3.295655057E0,-2.195414752E-1,1.068395329E1,1.136590764E-1
3.298060317E0,-7.118647546E-2,1.056849957E1,9.930214286E-2
3.300465578E0,-3.290131316E-2,1.047757244E1,1.136590764E-1
3.302870838E0,1.495514158E-2,1.045842934E1,1.040877849E-1
3.305276098E0,2.452643216E-2,1.041535854E1,6.580262631E-2
3.307681411E0,9.631111473E-2,1.032443142E1,9.451649338E-2
3.310086671E0,8.913264275E-1,9.903294563E0,1.998006850E-1
3.312491932E0,1.441675574E-1,1.063549805E1,8.374879137E-3
3.314897244E0,-2.817548811E-1,1.077488041E1,7.537391037E-2
3.317302505E0,-2.865405083E-1,1.061635590E1,1.328016520E-1
3.319707765E0,-1.238285750E-1,1.057328510E1,1.950150430E-1
3.322113026E0,5.324030295E-2,1.054935646E1,2.572284341E-1
3.324518338E0,2.159522474E-1,1.051107121E1,3.385843933E-1
3.326923598E0,1.144965649E0,9.979865074E0,5.491527915E-1
3.329328859E0,2.159522474E-1,1.003250694E1,5.880361795E-1
3.331734119E0,6.185446382E-1,9.678369522E0,1.128814101E0
3.334139432E0,1.441675574E-1,1.121037388E1,7.076773047E-1
3.336544692E0,-1.094716340E-1,1.132522964E1,7.986045480E-1
3.338949953E0,2.350948304E-1,1.103330517E1,8.991031051E-1
3.341355213E0,3.403790295E-1,1.090409279E1,6.885347366E-1
3.343760526E0,3.930211067E-1,1.089452171E1,5.252245665E-1
3.346165786E0,3.690928817E-1,1.083709335E1,4.486542344E-1
3.348571046E0,2.159522474E-1,1.079880905E1,4.199403822E-1
3.350976307E0,1.441675574E-1,1.083230782E1,3.816552162E-1
3.353381619E0,1.010967568E-1,1.083709335E1,4.103690982E-1
3.355786880E0,6.759724021E-2,1.087059307E1,4.438686073E-1
3.358192140E0,5.383851007E-3,1.085145092E1,4.582255483E-1
3.360597401E0,1.495514158E-2,1.084666538E1,5.012963414E-1
3.363002713E0,-2.333002165E-2,1.083709335E1,5.928218365E-1
3.365407973E0,-1.854437590E-2,1.081795120E1,6.837490797E-1
3.367813234E0,1.495514158E-2,1.079880905E1,7.890332937E-1
3.370218494E0,7.238288224E-2,1.076530933E1,8.560323119E-1
3.372623807E0,9.152546525E-2,1.076530933E1,9.182456732E-1
3.375029067E0,9.631111473E-2,1.080838013E1,1.013958573E0
3.377434328E0,1.495514158E-2,1.082752228E1,1.071386337E0
3.379839588E0,1.495514158E-2,1.082752228E1,1.042672515E0
3.382244901E0,-4.187439568E-3,1.072223854E1,1.037886858E0
3.384650161E0,5.383851007E-3,1.065942669E1,1.004387259E0
3.387055421E0,-2.811566554E-2,1.060678482E1,1.009172916E0
3.389460682E0,-6.161518395E-2,1.053021431E1,9.756734371E-1
3.391865994E0,-1.094716340E-1,1.044885826E1,9.565308690E-1
3.394271255E0,-9.032905847E-2,1.044407272E1,9.278169870E-1
3.396676515E0,-1.477568001E-1,1.034357452E1,9.038887620E-1
3.399081776E0,-2.673979402E-1,1.023350430E1,9.182456732E-1
3.401487088E0,-1.812563092E-1,1.029093170E1,8.847461939E-1
3.403892348E0,-1.764706671E-1,1.020957565E1,8.368897438E-1
3.406297609E0,-2.626122832E-1,1.011386299E1,7.555337548E-1
3.408702869E0,-2.434697002E-1,1.009472084E1,7.220342159E-1
3.411108182E0,-2.099701911E-1,1.009950638E1,7.172485590E-1
3.413513442E0,-1.477568001E-1,1.012343407E1,6.789634228E-1
3.415918703E0,-8.554340899E-2,1.008036327E1,6.837490797E-1
3.418324015E0,-6.161518395E-2,1.009472084E1,6.358926296E-1
3.420729276E0,-2.811566554E-2,1.032443142E1,7.028916478E-1
3.423134536E0,1.393819153E-1,1.027657509E1,7.028916478E-1
3.425539796E0,2.255235314E-1,1.020479012E1,6.215356588E-1
3.427945057E0,3.308077157E-1,1.012343407E1,5.736792088E-1
3.430350369E0,3.930211067E-1,9.994221687E0,3.960121572E-1
3.432755630E0,4.313062727E-1,9.898509026E0,2.189432681E-1
3.435160890E0,4.217349887E-1,9.774082184E0,-1.555334684E-2
3.437566203E0,2.590230405E-1,9.519845009E0,-3.457628787E-1
3.439971463E0,-5.647061467E-1,8.778069496E0,-6.861419082E-1
3.442376723E0,-7.848458290E-1,8.438288689E0,-1.609771490E0
3.444781984E0,-8.327022791E-1,8.505288124E0,-2.246860504E0
3.447187296E0,-1.339980721E0,8.615358353E0,-2.433500528E0
3.449592557E0,-1.584048629E0,8.696713448E0,-2.246860504E0
3.451997817E0,-1.866999865E0,8.572287560E0,-1.864008784E0
3.454403078E0,-2.010569334E0,8.691927910E0,-1.638485312E0
3.456808390E0,-1.502692580E0,8.428717613E0,-1.322632670E0
3.459213651E0,-1.612762451E0,8.921639442E0,-9.541380405E-1
3.461618911E0,-1.349551916E0,9.079565048E0,-4.701896608E-1
3.464024171E0,-1.306481123E0,9.549157143E0,4.187439755E-2
3.466429484E0,-1.000199914E0,9.640084267E0,4.390829504E-1
3.468834744E0,-5.886343718E-1,9.817152977E0,7.651050687E-1
3.471240005E0,-5.258227587E-1,1.008993530E1,9.804590940E-1
3.473645265E0,-3.966103494E-1,1.019043350E1,1.138385415E0
3.476050578E0,-1.238285750E-1,1.008993530E1,1.138385415E0
3.478455838E0,1.355534077E0,8.945567131E0,3.864408433E-1
3.480861098E0,2.174477577E0,8.433503151E0,-1.112662554E-1
3.483266411E0,2.514258385E0,8.443074226E0,3.589233849E-3
3.485671671E0,2.528615236E0,8.629714966E0,1.423729509E-1
3.488076932E0,2.499901533E0,8.663214684E0,1.902294010E-1
3.490482192E0,3.510270834E0,7.375277519E0,3.912265003E-1
3.492887505E0,2.743969440E0,7.844270706E0,4.151547253E-1
3.495292765E0,1.691127419E0,8.763712883E0,5.012963414E-1
3.497698026E0,8.769695163E-1,9.606584549E0,6.502495408E-1
3.500103286E0,2.829512656E-1,1.026700401E1,7.555337548E-1
3.502508598E0,-1.668993831E-1,1.062592697E1,8.751748800E-1
3.504913859E0,-4.875376225E-1,1.080359459E1,8.943174481E-1
3.507319119E0,-6.077769399E-1,1.084187984E1,9.182456732E-1
3.509724380E0,-6.843472719E-1,1.081795120E1,9.182456732E-1
3.512129692E0,-6.747759581E-1,1.056371403E1,8.560323119E-1
3.514534953E0,-6.125625968E-1,1.034357452E1,7.938188910E-1
3.516940213E0,-5.838487148E-1,1.017129040E1,7.220342159E-1
3.519345473E0,-5.258227587E-1,1.002772141E1,6.263213158E-1
3.521750786E0,-5.694918036E-1,9.912865639E0,5.252245665E-1
3.524156046E0,-5.982056856E-1,9.960722923E0,4.869394004E-1
3.526561307E0,-6.364908218E-1,9.908080101E0,3.625126183E-1
3.528966619E0,-6.508477330E-1,9.731011391E0,3.002992272E-1
3.531371880E0,-8.901300430E-1,9.936794281E0,1.998006850E-1
3.533777140E0,-1.028913736E0,1.018086243E1,7.058826834E-2
3.536182401E0,-9.523434043E-1,1.046800041E1,1.136590764E-1
3.538587661E0,-7.513462901E-1,1.049192905E1,1.375873089E-1
3.540992973E0,-5.497509837E-1,1.042971611E1,1.567298770E-1
3.543398234E0,-4.205385745E-1,1.032921696E1,1.040877849E-1
3.545803494E0,-2.051845491E-1,1.030050373E1,1.088734269E-1
3.548208807E0,-6.161518395E-2,1.026221848E1,3.708875179E-2
3.550614067E0,-1.046859920E-1,1.026221848E1,8.374879137E-3
3.553019328E0,-3.296113312E-1,1.036271667E1,-2.512463741E-2
3.555424588E0,-3.391826153E-1,1.032921696E1,3.589233849E-3
3.557829901E0,-2.386840582E-1,1.026700401E1,8.374879137E-3
3.560235161E0,-1.429711580E-1,1.020957565E1,2.273181453E-2
3.562640421E0,-1.046859920E-1,1.017607689E1,4.666004330E-2
3.565045682E0,-3.768695518E-2,1.008993530E1,1.794617064E-2
3.567450994E0,-5.204389244E-2,1.011386299E1,8.374879137E-3
3.569856255E0,-1.764706671E-1,1.010429192E1,5.144568533E-2
3.572261515E0,-2.673979402E-1,1.012343407E1,2.273181453E-2
3.574666776E0,-3.008974493E-1,1.011386299E1,5.144568533E-2
3.577072088E0,-2.530409992E-1,1.005643559E1,4.666004330E-2
3.579477348E0,-1.573280841E-1,1.004686451E1,6.101697683E-2
3.581882609E0,-1.238285750E-1,1.000857925E1,1.040877849E-1
3.584287869E0,-1.333998591E-1,1.001815033E1,1.567298770E-1
3.586693182E0,-9.511470050E-2,9.975079536E0,2.380858511E-1
3.589098442E0,-9.032905847E-2,9.946365356E0,3.672982752E-1
3.591503703E0,-1.046859920E-1,9.941579819E0,4.534398913E-1
3.593909015E0,-1.716850251E-1,9.951150894E0,5.204389095E-1
3.596314276E0,-3.631108403E-1,1.004207802E1,4.725824594E-1
3.598719536E0,-3.822534084E-1,1.005643559E1,3.864408433E-1
3.601124796E0,-2.811566554E-2,9.912865639E0,5.395814776E-1
3.603530109E0,1.250249892E-1,9.936794281E0,5.300102234E-1
3.605935369E0,1.393819153E-1,9.941579819E0,4.486542344E-1
3.608340630E0,2.063809484E-1,9.932008743E0,5.688936114E-1
3.610745890E0,7.238288224E-2,1.001815033E1,3.385843933E-1
3.613151203E0,-4.187439568E-3,9.999007225E0,3.002992272E-1
3.615556463E0,-7.118647546E-2,1.008514881E1,8.494520187E-2
3.617961723E0,-1.190429255E-1,1.011864853E1,-8.733802289E-2
3.620367036E0,-1.094716340E-1,1.010429192E1,-1.782652885E-1
3.622772296E0,-1.094716340E-1,1.013300610E1,-4.606183469E-1
3.625177557E0,-5.204389244E-2,1.011386299E1,-7.387840152E-1
3.627582817E0,7.716853172E-2,1.010429192E1,-9.972088337E-1
3.629988130E0,1.872383654E-1,1.010907745E1,-1.112064362E0
3.632393390E0,2.733799815E-1,1.010429192E1,-1.150349498E0
3.634798651E0,2.685943544E-1,1.013779163E1,-1.169492126E0
3.637203911E0,1.776670814E-1,1.020000458E1,-1.427916884E0
3.639609223E0,4.845465720E-2,1.010907745E1,-1.542772412E0
3.642014484E0,-8.075776696E-2,1.009472084E1,-1.375274777E0
3.644419744E0,-2.003988922E-1,1.006600666E1,-1.135992527E0
3.646825005E0,-3.583251834E-1,1.009472084E1,-9.302098155E-1
3.649230317E0,-3.774677813E-1,1.018086243E1,-9.397810698E-1
3.651635578E0,-4.492524564E-1,1.023350430E1,-7.579265833E-1
3.654040838E0,-5.647061467E-1,1.019521904E1,-1.734796464E-1
3.656446098E0,-6.891329288E-1,1.012821960E1,6.263213158E-1
3.658851411E0,-7.178468108E-1,1.002293587E1,1.511665702E0
3.661256671E0,-7.513462901E-1,9.908080101E0,2.268395901E0
3.663661932E0,-6.652047038E-1,9.735796928E0,2.833700180E0
3.666067244E0,-3.056831062E-1,9.510273933E0,3.288336515E0
3.668472505E0,-3.343969584E-1,9.664012909E0,3.565903902E0
3.670877765E0,-5.497509837E-1,9.922437668E0,3.613760471E0
3.673283026E0,-5.593222976E-1,1.003729248E1,3.388834953E0
3.675688338E0,-4.348955154E-1,1.002772141E1,3.058625460E0
3.678093598E0,-2.721835673E-1,1.008514881E1,2.646461725E0
3.680498859E0,-1.333998591E-1,1.007557774E1,2.244467735E0
3.682904119E0,-2.811566554E-2,1.006600666E1,1.832902193E0
3.685309432E0,3.888336942E-2,1.006122112E1,1.392024517E0
3.687714692E0,7.716853172E-2,1.008036327E1,1.004387259E0
3.690119953E0,4.845465720E-2,1.006122112E1,8.560323119E-1
3.692525213E0,-3.768695518E-2,1.004686451E1,8.703892231E-1
3.694930526E0,-1.908276081E-1,1.007079220E1,1.186241865E0
3.697335786E0,-8.075776696E-2,9.955936432E0,9.661021233E-1
3.699741046E0,5.557330847E-1,9.452845573E0,7.124629617E-1
3.702146359E0,6.759724021E-1,9.524630547E0,4.582255483E-1
3.704551619E0,1.537388563E-1,9.793225288E0,2.189432681E-1
3.706956880E0,-6.161518395E-2,9.912865639E0,-2.512463741E-2
3.709362140E0,-1.142572835E-1,9.865009308E0,-2.452643216E-1
3.711767453E0,-6.640082598E-2,9.783653259E0,-3.649054468E-1
3.714172713E0,-2.333002165E-2,9.659226418E0,-3.505485058E-1
3.716577973E0,1.495514158E-2,9.568299294E0,-2.500499785E-1
3.718983234E0,9.966106415E-1,8.883354187E0,1.316052489E-2
3.721388546E0,1.149751306E0,9.007781029E0,1.232303679E-1
3.723793807E0,5.706881881E-1,9.519845009E0,1.758724600E-1
3.726199067E0,1.063609719E0,9.184849739E0,4.438686073E-1
3.728604380E0,8.386843204E-1,9.457631111E0,6.263213158E-1
3.731009640E0,6.759724021E-1,9.486345291E0,8.799605370E-1
3.733414901E0,7.573283911E-1,9.563513756E0,1.057029366E0
3.735820161E0,3.068794906E-1,9.625727654E0,1.176670551E0
3.738225473E0,1.106680483E-1,9.716654778E0,1.396810174E0
3.740630734E0,-1.854437590E-2,9.702297211E0,1.392024517E0
3.743035994E0,1.920240223E-1,9.544371605E0,1.320239902E0
3.745441255E0,1.920240223E-1,9.524630547E0,1.305882931E0
3.747846567E0,-1.190429255E-1,9.640084267E0,1.258026481E0
3.750251828E0,-1.956132501E-1,9.759725571E0,1.095314622E0
3.752657088E0,-1.142572835E-1,9.783653259E0,9.900303483E-1
3.755062401E0,3.888336942E-2,9.750154495E0,8.991031051E-1
3.757467661E0,1.441675574E-1,9.692726135E0,7.842476368E-1
3.759872921E0,2.542374134E-1,9.659226418E0,6.885347366E-1
3.762278182E0,-8.075776696E-2,8.959924698E0,7.555337548E-1
3.764683494E0,2.398804724E-1,8.720642090E0,8.177471161E-1
3.767088755E0,1.154536903E-1,9.223134995E0,5.156532526E-1
3.769494015E0,3.882354796E-1,9.659226418E0,3.625126183E-1
3.771899276E0,6.089733839E-1,9.932008743E0,2.572284341E-1
3.774304588E0,7.477570772E-1,9.994221687E0,9.930214286E-2
3.776709848E0,6.903293133E-1,1.007557774E1,-5.862415582E-2
3.779115109E0,6.424728632E-1,1.002293587E1,-1.639083475E-1
3.781520369E0,3.690928817E-1,9.879366875E0,-2.356930375E-1
3.783925682E0,-1.525424421E-1,9.108279228E0,3.230310604E-2
3.786330942E0,-9.990034252E-2,9.318847656E0,-2.991028316E-2
3.788736203E0,5.383851007E-3,9.620942116E0,3.230310604E-2
3.791141515E0,-5.682953820E-2,9.841081619E0,-3.469592705E-2
3.793546776E0,6.281159073E-2,9.778867722E0,-1.016949639E-1
3.795952036E0,-1.477568001E-1,9.538987160E0,-6.819544733E-2
3.798357296E0,-5.018945336E-1,8.859425545E0,1.794617064E-2
3.800762609E0,-4.875376225E-1,9.108279228E0,-1.878365725E-1
3.803167869E0,-4.636093974E-1,9.471988678E0,-1.926222295E-1
3.805573130E0,-4.348955154E-1,9.544371605E0,-2.691925466E-1
3.807978390E0,-8.901300430E-1,8.811569214E0,-2.021935135E-1
3.810383703E0,-6.556333899E-1,8.778069496E0,-3.649054468E-1
3.812788963E0,-5.593222976E-1,9.256634712E0,-4.031906128E-1
3.815194223E0,-4.875376225E-1,9.069993973E0,-2.979064286E-1
3.817599536E0,-5.258227587E-1,8.557929993E0,-2.452643216E-1
3.820004796E0,-5.210371017E-1,9.213563919E0,-4.510470629E-1
3.822410057E0,-5.593222976E-1,9.462417603E0,-4.223332107E-1
3.824815317E0,-6.508477330E-1,8.797212601E0,-2.512463741E-2
3.827220630E0,-3.152543902E-1,9.223134995E0,-1.351944804E-1
3.829625890E0,-5.593222976E-1,9.486345291E0,-9.690931439E-2
3.832031151E0,-4.731806815E-1,8.768498421E0,2.285145670E-1
3.834436411E0,-4.109672904E-1,9.304491043E0,1.316052489E-2
3.836841723E0,-8.327022791E-1,9.050851822E0,2.189432681E-1
3.839246984E0,-6.460621357E-1,9.002995491E0,2.524427772E-1
3.841652244E0,-7.800601721E-1,9.031708717E0,3.768695593E-1
3.844057557E0,-8.087740541E-1,9.084351540E0,3.768695593E-1
3.846462817E0,-1.124626637E0,9.361918449E0,3.290131092E-1
3.848868078E0,-1.406979680E0,9.524630547E0,3.194418252E-1
3.851273338E0,-1.674975872E0,9.798010826E0,2.811566591E-1
3.853678651E0,-1.914856315E0,1.015214825E1,1.758724600E-1
3.856083911E0,-2.058425665E0,1.030528927E1,2.955136001E-1
3.858489171E0,-2.139781713E0,1.002772141E1,5.928218365E-1
3.860894432E0,-2.302493572E0,1.000857925E1,7.842476368E-1
3.863299744E0,-2.369492531E0,9.979865074E0,8.751748800E-1
3.865705005E0,-2.326421738E0,9.793225288E0,1.018744230E0
3.868110265E0,-2.388635159E0,9.592227936E0,1.133599758E0
3.870515578E0,-2.407777786E0,9.357132912E0,1.171884894E0
3.872920838E0,-2.556132793E0,9.270991325E0,1.095314622E0
3.875326098E0,-2.522633314E0,9.122636795E0,1.033101201E0
3.877731359E0,-2.613560438E0,9.180064201E0,8.703892231E-1
3.880136671E0,-2.742773056E0,9.132207870E0,7.507480979E-1
3.882541932E0,-2.934797049E0,9.199206352E0,7.076773047E-1
3.884947192E0,-3.030509949E0,9.156135559E0,5.688936114E-1
3.887352453E0,-3.030509949E0,9.031708717E0,5.156532526E-1
3.889757765E0,-2.920439959E0,8.601000786E0,4.677968323E-1
3.892163026E0,-2.781058073E0,8.026124954E0,4.295116663E-1
3.894568286E0,-2.685345173E0,7.614559650E0,4.630111754E-1
3.896973546E0,-2.661417007E0,7.221538544E0,6.454638839E-1
3.899378859E0,-2.704487801E0,6.953542709E0,9.326026440E-1
3.901784119E0,-2.493919373E0,7.130611420E0,7.603194118E-1
3.904189380E0,-2.302493572E0,7.604988575E0,3.098705411E-1
3.906594692E0,-2.431705952E0,8.164909363E0,3.708875179E-2
3.908999953E0,-2.455634356E0,8.792427063E0,-3.469592705E-2
3.911405213E0,-2.508276224E0,9.294919968E0,6.580262631E-2
3.913810473E0,-2.680559635E0,9.697511673E0,8.015955985E-2
3.916215786E0,-2.920439959E0,1.004686451E1,2.763710022E-1
3.918621046E0,-3.016152859E0,1.035793114E1,5.395814776E-1
3.921026307E0,-3.001796007E0,1.043928719E1,7.986045480E-1
3.923431619E0,-2.925225735E0,1.044885826E1,1.042672515E0
3.925836880E0,-2.642274380E0,1.029093170E1,1.301097274E0
3.928242140E0,-2.398206472E0,1.026700401E1,1.368096352E0
3.930647401E0,-2.182852507E0,1.014736271E1,1.344168067E0
3.933052713E0,-2.020140409E0,9.941579819E0,1.368096352E0
3.935457973E0,-1.852642894E0,9.558728218E0,1.415952802E0
3.937863234E0,-1.627119422E0,9.357132912E0,1.258026481E0
3.940268494E0,-1.560120344E0,9.127422333E0,1.090528965E0
3.942673807E0,-1.512263894E0,9.046066284E0,8.177471161E-1
3.945079067E0,-1.402194023E0,9.074779510E0,7.076773047E-1
3.947484328E0,-1.497906923E0,9.357132912E0,4.821537733E-1
3.949889640E0,-1.378265858E0,9.793225288E0,3.194418252E-1
3.952294901E0,-1.191625714E0,1.007557774E1,2.715853751E-1
3.954700161E0,-1.129412293E0,1.004207802E1,2.811566591E-1
3.957105421E0,-1.095912814E0,9.563513756E0,2.811566591E-1
3.959510734E0,-1.158126116E0,9.089137077E0,1.040877849E-1
3.961915994E0,-1.258624673E0,8.615358353E0,8.015955985E-2
3.964321255E0,-1.411765337E0,8.332406998E0,6.101697683E-2
3.966726515E0,-1.607976794E0,8.193622589E0,2.045863420E-1
3.969131828E0,-1.756929994E0,8.385048866E0,5.443671346E-1
3.971537088E0,-1.771286964E0,8.840283394E0,5.880361795E-1
3.973942348E0,-1.699502230E0,9.381061554E0,7.028916478E-1
3.976347661E0,-1.655833244E0,1.007557774E1,7.172485590E-1
3.978752921E0,-1.359123230E0,1.070309544E1,7.986045480E-1
3.981158182E0,-8.949156404E-1,1.123908806E1,8.991031051E-1
3.983563442E0,-5.306084156E-1,1.197667599E1,8.991031051E-1
3.985968755E0,-1.764706671E-1,1.267537975E1,1.162313581E0
3.988374015E0,1.393819153E-1,1.317847061E1,1.425524116E0
3.990779276E0,3.595215976E-1,1.355653667E1,1.694118381E0
3.993184536E0,3.595215976E-1,1.369053459E1,2.029113531E0
3.995589848E0,1.872383654E-1,1.371446323E1,2.134397745E0
3.997995109E0,-9.032905847E-2,1.351825142E1,2.129612207E0
4.000400369E0,-4.157529473E-1,1.334118271E1,1.952543259E0
4.002805682E0,-7.896314859E-1,1.327896881E1,1.751546144E0
4.005210942E0,-9.906286001E-1,1.327896881E1,1.521237016E0
4.007616203E0,-1.162911773E0,1.304447269E1,1.310668588E0
4.010021463E0,-1.282552958E0,1.281416321E1,1.052243710E0
4.012426776E0,-1.205982566E0,1.255573845E1,8.321040869E-1
4.014832036E0,-1.229910851E0,1.230688477E1,6.311069727E-1
4.017237296E0,-1.258624673E0,1.216331577E1,4.869394004E-1
4.019642609E0,-1.220339537E0,1.198146152E1,4.103690982E-1
4.022047869E0,-1.234696507E0,1.187139130E1,3.912265003E-1
4.024453130E0,-1.272981644E0,1.171765232E1,3.577269912E-1
4.026858390E0,-1.210768223E0,1.167458153E1,3.816552162E-1
4.029263703E0,-1.076770186E0,1.156929779E1,4.821537733E-1
4.031668963E0,-1.043270707E0,1.163151073E1,5.539384484E-1
4.034074223E0,-9.284151793E-1,1.162193966E1,6.023930907E-1
4.036479484E0,-8.374879360E-1,1.152144146E1,6.023930907E-1
4.038884796E0,-6.843472719E-1,1.167458153E1,5.443671346E-1
4.041290057E0,-5.018945336E-1,1.167458153E1,5.300102234E-1
4.043695317E0,-4.109672904E-1,1.149751282E1,5.204389095E-1
4.046100630E0,5.982056609E-4,1.220160103E1,3.625126183E-1
4.048505890E0,7.812566161E-1,1.291047478E1,5.688936114E-1
4.050911151E0,1.729412556E0,1.288594818E1,8.751748800E-1
4.053316411E0,2.107478619E0,1.219202995E1,1.061815023E0
4.055721723E0,1.365105271E0,1.126301575E1,9.661021233E-1
4.058126984E0,2.931207791E-2,1.055414295E1,6.406782866E-1
4.060532244E0,-1.095912814E0,1.018564796E1,4.534398913E-1
4.062937505E0,-1.598405480E0,1.002293587E1,4.247260094E-1
4.065342817E0,-1.512263894E0,9.994221687E0,4.917250574E-1
4.067748078E0,-1.249053478E0,9.979865074E0,4.965106845E-1
4.070153338E0,-1.177268744E0,9.941579819E0,3.912265003E-1
4.072558651E0,-9.379864931E-1,9.984650612E0,2.380858511E-1
4.074963911E0,-6.077769399E-1,1.003729248E1,1.758724600E-1
4.077369171E0,-3.870390654E-1,1.008036327E1,2.285145670E-1
4.079774432E0,-3.296113312E-1,1.006600666E1,3.194418252E-1
4.082179744E0,-3.343969584E-1,1.005643559E1,3.768695593E-1
4.084585005E0,-3.966103494E-1,1.005643559E1,4.486542344E-1
4.086990265E0,-4.779663086E-1,1.004207802E1,5.204389095E-1
4.089395526E0,-5.982056856E-1,1.007557774E1,5.300102234E-1
4.091800838E0,-6.364908218E-1,1.005643559E1,5.347958803E-1
4.094206098E0,-6.556333899E-1,1.007079220E1,5.688936114E-1
4.096611359E0,-6.556333899E-1,1.002293587E1,5.587241054E-1
4.099016671E0,-6.269195080E-1,1.002293587E1,5.347958803E-1
4.101421932E0,-6.699903607E-1,1.005165005E1,5.108676553E-1
4.103827192E0,-6.843472719E-1,1.006600666E1,4.869394004E-1
4.106232453E0,-6.652047038E-1,1.001336479E1,5.252245665E-1
4.108637765E0,-7.130611539E-1,9.984650612E0,5.204389095E-1
4.111043026E0,-7.657032609E-1,9.975079536E0,5.300102234E-1
4.113448286E0,-7.848458290E-1,9.970293999E0,4.965106845E-1
4.115853546E0,-7.944171429E-1,9.979865074E0,5.012963414E-1
4.118258859E0,-8.135597110E-1,9.912865639E0,4.965106845E-1
4.120664119E0,-8.183453679E-1,9.970293999E0,5.012963414E-1
4.123069380E0,-8.949156404E-1,9.941579819E0,5.060819983E-1
4.125474692E0,-9.188438654E-1,9.960722923E0,5.156532526E-1
4.127879953E0,-8.327022791E-1,9.960722923E0,6.358926296E-1
4.130285213E0,-7.322037220E-1,9.989436150E0,6.693921089E-1
4.132690473E0,-8.231309652E-1,9.965508461E0,6.358926296E-1
4.135095786E0,-8.805587292E-1,9.999007225E0,6.167500615E-1
4.137501046E0,-9.140582681E-1,9.922437668E0,6.550351977E-1
4.139906307E0,-9.188438654E-1,9.965508461E0,6.550351977E-1
4.142311619E0,-8.997012973E-1,9.927223206E0,6.598208547E-1
4.144716880E0,-9.044869542E-1,9.941579819E0,6.406782866E-1
4.147122140E0,-8.757730722E-1,9.965508461E0,6.358926296E-1
4.149527401E0,-8.949156404E-1,1.000857925E1,6.311069727E-1
4.151932713E0,-8.757730722E-1,9.979865074E0,6.598208547E-1
4.154337973E0,-9.044869542E-1,9.979865074E0,6.502495408E-1
4.156743234E0,-8.949156404E-1,9.927223206E0,6.454638839E-1
4.159148494E0,-8.853443861E-1,9.951150894E0,6.263213158E-1
4.161553807E0,-9.475577474E-1,9.970293999E0,5.976074338E-1
4.163959067E0,-9.236295223E-1,9.912865639E0,7.220342159E-1
4.166364328E0,-8.374879360E-1,9.893723488E0,7.698906660E-1
4.168769640E0,-8.327022791E-1,9.912865639E0,7.698906660E-1
4.171174901E0,-9.379864931E-1,9.908080101E0,6.981059909E-1
4.173580161E0,-9.858429432E-1,9.917651176E0,6.646065116E-1
4.175985421E0,-9.475577474E-1,9.922437668E0,6.693921089E-1
4.178390734E0,-8.997012973E-1,9.955936432E0,6.071787477E-1
4.180795994E0,-9.379864931E-1,9.951150894E0,6.215356588E-1
4.183201255E0,-8.327022791E-1,9.955936432E0,7.124629617E-1
4.185606515E0,-7.896314859E-1,9.917651176E0,7.028916478E-1
4.188011828E0,-8.279166222E-1,9.932008743E0,7.316055298E-1
4.190417088E0,-9.092726111E-1,9.951150894E0,7.411768436E-1
4.192822348E0,-9.427721500E-1,9.946365356E0,7.316055298E-1
4.195227661E0,-9.619147182E-1,9.960722923E0,7.172485590E-1
4.197632921E0,-9.810572863E-1,9.946365356E0,7.507480979E-1
4.200038182E0,-1.110269666E0,9.965508461E0,7.028916478E-1
4.202443442E0,-9.714859724E-1,9.989436150E0,7.938188910E-1
4.204848755E0,-8.949156404E-1,9.979865074E0,7.603194118E-1
4.207254015E0,-9.188438654E-1,9.984650612E0,6.837490797E-1
4.209659276E0,-9.284151793E-1,9.936794281E0,6.071787477E-1
4.212064588E0,-1.071984529E0,9.932008743E0,6.071787477E-1
4.214469848E0,-1.100698471E0,9.927223206E0,5.976074338E-1
4.216875109E0,-1.239482164E0,9.884152412E0,5.880361795E-1
4.219280369E0,-1.292124271E0,9.865009308E0,6.023930907E-1
4.221685682E0,-1.421336651E0,9.841081619E0,5.832505226E-1
4.224090942E0,-1.636690736E0,9.807581902E0,5.880361795E-1
4.226496203E0,-1.244267821E0,9.702297211E0,6.119644046E-1
4.228901463E0,-2.493919373E0,8.979066849E0,1.950150430E-1
4.231306776E0,-2.800200701E0,9.203991890E0,1.232303679E-1
4.233712036E0,-2.201995134E0,9.208778381E0,8.494520187E-2
4.236117296E0,-1.674975872E0,9.342776299E0,9.451649338E-2
4.238522609E0,-8.853443861E-1,9.917651176E0,3.768695593E-1
4.240927869E0,-9.511470050E-2,1.032921696E1,6.550351977E-1
4.243333130E0,3.738785386E-1,1.044407272E1,9.134600163E-1
4.245738390E0,5.706881881E-1,1.061157036E1,1.042672515E0
4.248143703E0,8.195417523E-1,1.071266651E1,1.224527001E0
4.250548963E0,7.525427341E-1,1.063549805E1,1.315454245E0
4.252954223E0,5.174478889E-1,1.055892849E1,1.320239902E0
4.255359484E0,-2.811566554E-2,1.041057301E1,1.195813060E0
4.257764796E0,-7.226324677E-1,1.026700401E1,1.018744230E0
4.260170057E0,-1.182054400E0,1.008036327E1,9.278169870E-1
4.262575317E0,-1.282552958E0,1.003729248E1,8.895317912E-1
4.264980630E0,-1.205982566E0,1.010429192E1,5.156532526E-1
4.267385890E0,-1.067198873E0,1.017607689E1,2.093719840E-1
4.269791151E0,-1.115055323E0,1.004207802E1,2.476571500E-1
4.272196463E0,-9.475577474E-1,1.009472084E1,2.811566591E-1
4.274601723E0,-7.848458290E-1,1.020957565E1,-7.776673883E-2
4.277006984E0,-6.077769399E-1,1.035793114E1,-4.606183469E-1
4.279412244E0,-2.051845491E-1,1.150708389E1,-8.153542876E-1
4.281817557E0,1.590030670E0,1.292004585E1,-3.726222992E0
4.284222817E0,-1.421336651E0,1.072223854E1,-3.573082447E0
4.286628078E0,-2.469991207E0,9.879366875E0,-8.105686903E-1
4.289033338E0,-1.464407444E0,8.763712883E0,1.439880967E0
4.291438651E0,-4.253242314E-1,8.457431793E0,2.982055187E0
4.293843911E0,-3.583251834E-1,8.581858635E0,3.618546009E0
4.296249171E0,-1.162911773E0,8.801998138E0,3.398406267E0
4.298654484E0,-1.972284079E0,8.505288124E0,2.934198856E0
4.301059744E0,-2.383849621E0,7.987840176E0,3.130410194E0
4.303465005E0,-1.445264935E0,8.332406998E0,2.718246460E0
4.305870265E0,-2.551347256E0,5.962316036E0,9.756734371E-1
4.308275578E0,-2.120639086E0,7.581060410E0,-3.026920557E-1
4.310680838E0,-3.006581545E0,5.852245808E0,-7.148557901E-1
4.313086098E0,-3.059223652E0,5.349753380E0,-1.490130305E0
4.315491411E0,-2.882154942E0,7.705487251E0,-2.251646042E0
4.317896671E0,-2.235494614E0,8.227122307E0,-2.270788670E0
4.320301932E0,-1.397408366E0,9.361918449E0,-2.069791555E0
4.322707192E0,-6.843472719E-1,1.009472084E1,-1.466202021E0
4.325112505E0,-9.990034252E-2,1.075573826E1,-7.004988194E-1
4.327517765E0,2.733799815E-1,1.116730309E1,4.187439755E-2
4.329923026E0,5.659025311E-1,1.142094231E1,7.507480979E-1
4.332328286E0,7.381857634E-1,1.159801102E1,1.502094388E0
4.334733598E0,7.238288522E-1,1.169851017E1,2.038684845E0
4.337138859E0,5.706881881E-1,1.180439186E1,2.407179594E0
4.339544119E0,3.595215976E-1,1.193360519E1,2.445464849E0
4.341949432E0,1.968096644E-1,1.212981606E1,2.273181438E0
4.344354692E0,1.974078640E-2,1.191446209E1,2.019542217E0
4.346759953E0,1.202393398E-1,1.233559895E1,1.602592945E0
4.349165213E0,6.616154313E-1,1.302532959E1,1.454237938E0
4.351570526E0,1.379462242E0,1.264188004E1,1.502094388E0
4.353975786E0,7.668996453E-1,1.153579807E1,1.114457130E0
4.356381046E0,-5.497509837E-1,1.069352436E1,5.641079545E-1
4.358786359E0,-1.325623751E0,1.027178955E1,2.524427772E-1
4.361191619E0,-1.349551916E0,1.007079220E1,2.045863420E-1
4.363596880E0,-1.086341500E0,9.984650612E0,3.194418252E-1
4.366002140E0,-8.805587292E-1,9.994221687E0,2.955136001E-1
4.368407453E0,-7.657032609E-1,1.006122112E1,1.806581169E-1
4.370812713E0,-5.449653864E-1,1.019521904E1,1.280160099E-1
4.373217973E0,-4.013960063E-1,1.027178955E1,1.232303679E-1
4.375623234E0,-3.966103494E-1,1.030050373E1,1.806581169E-1
4.378028546E0,-5.742774606E-1,1.027657509E1,2.572284341E-1
4.380433807E0,-7.178468108E-1,1.028136063E1,3.337987661E-1
4.382839067E0,-7.274180651E-1,1.030050373E1,4.390829504E-1
4.385244380E0,-7.130611539E-1,1.031964588E1,5.012963414E-1
4.387649640E0,-7.226324677E-1,1.033400249E1,4.917250574E-1
4.390054901E0,-7.944171429E-1,1.031007481E1,4.965106845E-1
4.392460161E0,-7.704889178E-1,1.027178955E1,4.342973232E-1
4.394865473E0,-7.896314859E-1,1.018564796E1,3.864408433E-1
4.397270734E0,-6.269195080E-1,1.028136063E1,3.768695593E-1
4.399675994E0,-4.444667995E-1,1.030528927E1,3.912265003E-1
4.402081255E0,-4.061816335E-1,1.029571724E1,4.007977843E-1
4.404486567E0,-5.353940725E-1,1.020957565E1,4.055834413E-1
4.406891828E0,-6.699903607E-1,1.009950638E1,4.007977843E-1
4.409297088E0,-7.322037220E-1,1.006122112E1,3.864408433E-1
4.411702348E0,-7.178468108E-1,9.989436150E0,4.151547253E-1
4.414107661E0,-7.561319470E-1,1.002293587E1,4.677968323E-1
4.416512921E0,-7.369893789E-1,9.922437668E0,4.534398913E-1
4.418918182E0,-7.274180651E-1,9.884152412E0,4.247260094E-1
4.421323494E0,-7.657032609E-1,9.836296082E0,4.486542344E-1
4.423728755E0,-7.944171429E-1,9.845867157E0,4.630111754E-1
4.426134015E0,-7.704889178E-1,9.869794846E0,4.821537733E-1
4.428539276E0,-8.087740541E-1,9.869794846E0,4.821537733E-1
4.430944588E0,-7.944171429E-1,9.879366875E0,5.347958803E-1
4.433349848E0,-7.992027402E-1,9.884152412E0,5.832505226E-1
4.435755109E0,-7.992027402E-1,9.888937950E0,6.406782866E-1
4.438160421E0,-7.657032609E-1,9.831509590E0,7.316055298E-1
4.440565682E0,-8.566305041E-1,9.826724052E0,7.507480979E-1
4.442970942E0,-9.284151793E-1,9.802796364E0,8.225327730E-1
4.445376255E0,-1.311266780E0,9.664012909E0,7.507480979E-1
4.447781515E0,-1.593619823E0,9.568299294E0,6.311069727E-1
4.450186776E0,-2.752344131E0,8.883354187E0,2.955136001E-1
4.452592036E0,-2.340778828E0,8.854640007E0,3.098705411E-1
4.454997348E0,-1.660618901E0,9.357132912E0,3.708875179E-2
4.457402609E0,-4.492524564E-1,1.047757244E1,3.290131092E-1
4.459807869E0,5.030909777E-1,1.066959572E1,6.885347366E-1
4.462213130E0,1.030110121E0,1.088016415E1,9.421738982E-1
4.464618442E0,1.178465128E0,1.073659515E1,1.138385415E0
4.467023703E0,3.643072546E-1,1.029093170E1,1.066600680E0
4.469428963E0,-8.853443861E-1,1.001336479E1,8.991031051E-1
4.471834223E0,-1.253839016E0,9.884152412E0,8.177471161E-1
4.474239536E0,-1.024128079E0,9.817152977E0,8.225327730E-1
4.476644796E0,-8.805587292E-1,9.874580383E0,7.651050687E-1
4.479050057E0,-8.135597110E-1,9.922437668E0,6.598208547E-1
4.481455369E0,-7.944171429E-1,9.965508461E0,5.491527915E-1
4.483860630E0,-8.566305041E-1,9.960722923E0,4.103690982E-1
4.486265890E0,-9.427721500E-1,9.970293999E0,3.002992272E-1
4.488671151E0,-1.024128079E0,1.000857925E1,2.572284341E-1
4.491076463E0,-9.714859724E-1,1.000379372E1,3.672982752E-1
4.493481723E0,-1.158126116E0,9.917651176E0,3.816552162E-1
4.495886984E0,-1.819143414E0,9.419346809E0,2.428714931E-1
4.498292296E0,-2.992224693E0,8.255836487E0,1.316052489E-2
4.500697557E0,-3.092723370E0,8.394619942E0,-4.127618968E-1
4.503102817E0,-2.584846735E0,9.237491608E0,-4.845465720E-1
4.505508078E0,-3.016152859E0,6.245266914E0,-6.143572330E-1
4.507913390E0,-3.652643681E0,5.502893925E0,-4.797609448E-1
4.510318651E0,-3.571287870E0,5.378467083E0,-6.430711150E-1
4.512723911E0,-2.584846735E0,8.083553314E0,-1.016351461E0
4.515129171E0,-1.445264935E0,9.160921097E0,-4.031906128E-1
4.517534484E0,-2.434697002E-1,1.057328510E1,2.237289101E-1
4.519939744E0,4.935196638E-1,1.112901783E1,8.703892231E-1
4.522345005E0,1.010967612E0,1.181874943E1,1.492523074E0
4.524750317E0,1.369890928E0,1.242652607E1,2.029113531E0
4.527155578E0,1.594816327E0,1.286680603E1,2.459821701E0
4.529560838E0,1.767697692E0,1.306361485E1,2.790031195E0
4.531966098E0,1.983051777E0,1.285723400E1,3.068196774E0
4.534371411E0,1.853839397E0,1.234038448E1,3.015554667E0
4.536776671E0,9.774680734E-1,1.129172993E1,2.431107759E0
4.539181932E0,-4.923232496E-1,1.047757244E1,1.655235052E0
4.541587192E0,-1.406979680E0,1.011864853E1,9.900303483E-1
4.543992505E0,-1.871785522E0,9.927223206E0,5.300102234E-1
4.546397765E0,-1.833500385E0,9.821938515E0,2.907279432E-1
4.548803026E0,-2.005783558E0,9.342776299E0,1.088734269E-1
4.551208338E0,-2.723630428E0,8.356334686E0,-5.371887088E-1
4.553613598E0,-2.647060156E0,7.935198307E0,-1.035493970E0
4.556018859E0,-1.843071699E0,9.012566566E0,-1.279561877E0
4.558424119E0,-1.110269666E0,8.787641525E0,-8.153542876E-1
4.560829432E0,-1.953141451E0,7.068397999E0,-8.297112584E-1
4.563234692E0,-1.694716692E0,7.447062492E0,-8.057830334E-1
4.565639953E0,-1.287338614E0,8.706285477E0,-7.004988194E-1
4.568045213E0,-7.369893789E-1,9.563513756E0,-2.883351147E-1
4.570450526E0,-1.268195987E0,8.088338852E0,3.625126183E-1
4.572855786E0,-4.731806815E-1,9.481559753E0,3.625126183E-1
4.575261046E0,3.260220885E-1,1.130608654E1,4.199403822E-1
4.577666359E0,1.235892892E0,1.214895916E1,7.890332937E-1
4.580071619E0,1.767697692E0,1.313539982E1,1.080957651E0
4.582476880E0,2.394617319E0,1.351346588E1,1.650449395E0
4.584882140E0,2.916850805E0,1.344646645E1,2.153540373E0
4.587287453E0,3.141776085E0,1.311625767E1,2.455035925E0
4.589692713E0,2.145763636E0,1.206760311E1,2.282752752E0
4.592097973E0,4.366901144E-2,1.114337540E1,1.549950838E0
4.594503286E0,-1.287338614E0,1.074616623E1,8.703892231E-1
4.596908546E0,-1.517049551E0,1.055892849E1,4.534398913E-1
4.599313807E0,-1.182054400E0,1.048714352E1,1.950150430E-1
4.601719067E0,-7.082754970E-1,1.038664532E1,-2.033899166E-2
4.604124380E0,-2.913261652E-1,1.029571724E1,-2.548356056E-1
4.606529640E0,-8.554340899E-2,1.024307537E1,-4.223332107E-1
4.608934901E0,-1.286142170E-1,1.021436119E1,-5.228317380E-1
4.611340213E0,-1.860419661E-1,1.020000458E1,-4.462614357E-1
4.613745473E0,-2.338984162E-1,1.024786091E1,-2.596212626E-1
4.616150734E0,-2.961117923E-1,1.028136063E1,5.623133108E-2
4.618555994E0,-3.487538993E-1,1.036271667E1,3.098705411E-1
4.620961307E0,-4.061816335E-1,1.049671459E1,4.151547253E-1
4.623366567E0,-3.870390654E-1,1.055892849E1,4.390829504E-1
4.625771828E0,-4.588237405E-1,1.059721375E1,5.880361795E-1
4.628177088E0,-4.013960063E-1,1.056371403E1,7.459624410E-1
4.630582401E0,-3.439682424E-1,1.048235798E1,9.230313301E-1
4.632987661E0,-2.721835673E-1,1.055414295E1,8.751748800E-1
4.635392921E0,-2.386840582E-1,1.062592697E1,7.076773047E-1
4.637798182E0,-2.434697002E-1,1.069830990E1,4.821537733E-1
4.640203494E0,-1.190429255E-1,1.091366386E1,-8.255238086E-2
4.642608755E0,-2.434697002E-1,1.079880905E1,6.101697683E-2
4.645014015E0,-2.051845491E-1,1.058764172E1,4.151547253E-1
4.647419328E0,2.063809484E-1,1.048235798E1,3.912265003E-1
4.649824588E0,-3.008974493E-1,1.076052380E1,4.773681164E-1
4.652229848E0,-3.439682424E-1,1.068395329E1,5.880361795E-1
4.654635109E0,-3.768695518E-2,1.075573826E1,2.237289101E-1
4.657040421E0,-8.554340899E-2,1.068873882E1,3.912265003E-1
4.659445682E0,3.888336942E-2,1.054935646E1,2.859423161E-1
4.661850942E0,7.716853172E-2,1.047278690E1,4.534398913E-1
4.664256255E0,-3.296113312E-1,1.054457092E1,4.677968323E-1
4.666661515E0,-3.966103494E-1,1.050628567E1,5.060819983E-1
4.669066776E0,-3.152543902E-1,1.040100193E1,5.880361795E-1
4.671472036E0,-2.961117923E-1,1.029571724E1,5.641079545E-1
4.673877348E0,-2.243271172E-1,1.032921696E1,3.768695593E-1
4.676282609E0,2.063809484E-1,1.032443142E1,1.794617064E-2
4.678687869E0,-5.934200287E-1,1.013300610E1,5.976074338E-1
4.681093130E0,-6.795616150E-1,1.020000458E1,6.023930907E-1
4.683498442E0,-8.231309652E-1,9.826724052E0,1.104885817E0
4.685903703E0,-7.657032609E-1,9.826724052E0,1.224527001E0
4.688308963E0,-8.039883971E-1,9.616155624E0,1.377667665E0
4.690714276E0,-6.317051649E-1,9.438488960E0,1.368096352E0
4.693119536E0,-7.704889178E-1,9.754940033E0,1.152742267E0
4.695524796E0,-8.374879360E-1,9.793225288E0,9.038887620E-1
4.697930057E0,-7.226324677E-1,9.711869240E0,7.555337548E-1
4.700335369E0,-4.779663086E-1,9.616155624E0,7.746763229E-1
4.702740630E0,-6.604190469E-1,9.831509590E0,7.268198729E-1
4.705145890E0,-6.221339107E-1,9.850652695E0,5.928218365E-1
4.707551203E0,-4.827519655E-1,9.716654778E0,6.789634228E-1
4.709956463E0,-7.369893789E-1,9.841081619E0,8.081758618E-1
4.712361723E0,-5.694918036E-1,9.874580383E0,9.326026440E-1
4.714766984E0,-4.923232496E-1,1.006600666E1,8.560323119E-1
4.717172296E0,-6.221339107E-1,9.965508461E0,8.129615188E-1
4.719577557E0,-6.891329288E-1,9.874580383E0,9.517452121E-1
4.721982817E0,-7.848458290E-1,9.860223770E0,9.900303483E-1
4.724388078E0,-9.571290612E-1,9.433703423E0,8.129615188E-1
4.726793390E0,-8.135597110E-1,9.879366875E0,6.502495408E-1
4.729198651E0,-7.034898400E-1,1.000857925E1,6.502495408E-1
4.731603911E0,-3.248256743E-1,1.001815033E1,6.071787477E-1
4.734009223E0,-1.812563092E-1,9.874580383E0,6.502495408E-1
4.736414484E0,-2.865405083E-1,9.764511108E0,6.981059909E-1
4.738819744E0,-1.908276081E-1,9.821938515E0,6.933203340E-1
4.741225005E0,-1.668993831E-1,9.726225853E0,5.976074338E-1
4.743630317E0,-2.530409992E-1,9.692726135E0,5.443671346E-1
4.746035578E0,-2.243271172E-1,9.764511108E0,4.486542344E-1
4.748440838E0,-3.391826153E-1,9.687940598E0,4.869394004E-1
4.750846098E0,-4.253242314E-1,9.649655342E0,5.108676553E-1
4.753251411E0,-4.540380836E-1,9.860223770E0,5.880361795E-1
4.755656671E0,-4.492524564E-1,9.793225288E0,6.550351977E-1
4.758061932E0,-3.104687333E-1,9.946365356E0,6.167500615E-1
4.760467244E0,-4.301098585E-1,9.817152977E0,5.060819983E-1
4.762872505E0,-3.678964674E-1,9.821938515E0,4.390829504E-1
4.765277765E0,-5.162515044E-1,9.855438232E0,4.965106845E-1
4.767683026E0,-5.306084156E-1,9.927223206E0,4.725824594E-1
4.770088338E0,-6.364908218E-1,9.927223206E0,4.438686073E-1
4.772493598E0,-5.353940725E-1,9.984650612E0,3.433700502E-1
4.774898859E0,-4.636093974E-1,9.754940033E0,-2.500499785E-1
4.777304119E0,-6.604190469E-1,9.213563919E0,-5.419743061E-1
4.779709432E0,1.106680483E-1,9.721440315E0,-4.606183469E-1
4.782114692E0,9.152546525E-2,1.001815033E1,-4.175475538E-1
4.784519953E0,2.638086975E-1,9.975079536E0,-4.558327198E-1
4.786925265E0,6.903293133E-1,9.927223206E0,-6.000002623E-1
4.789330526E0,7.860422134E-1,9.888937950E0,-5.228317380E-1
4.791735786E0,4.025924206E-1,9.917651176E0,-4.175475538E-1
4.794141046E0,8.195417374E-2,1.008036327E1,-3.218346536E-1
4.796546359E0,-6.640082598E-2,1.009472084E1,-7.298108935E-2
4.798951619E0,2.303091735E-1,9.932008743E0,2.273181453E-2
4.801356880E0,-3.768695518E-2,1.017607689E1,1.758724600E-1
4.803762140E0,-3.343969584E-1,1.044407272E1,2.189432681E-1
4.806167453E0,-5.204389244E-2,1.010907745E1,3.481557071E-1
4.808572713E0,-1.621137410E-1,1.002772141E1,6.263213158E-1
4.810977973E0,-6.556333899E-1,1.017607689E1,9.900303483E-1
4.813383286E0,-7.848458290E-1,1.007079220E1,1.147956610E0
4.815788546E0,-1.301695466E0,9.471988678E0,1.229312658E0
4.818193807E0,-7.609176040E-1,1.006600666E1,1.372882009E0
4.820599067E0,-5.114658475E-1,1.015693378E1,1.133599758E0
4.823004380E0,-8.279166222E-1,1.023828983E1,9.996016622E-1
4.825409640E0,-1.225125194E0,1.011864853E1,8.512466550E-1
4.827814901E0,-1.057627559E0,1.020479012E1,1.076171994E0
4.830220213E0,-7.944171429E-1,1.040100193E1,6.885347366E-1
4.832625473E0,-6.556333899E-1,1.037707329E1,5.641079545E-1
4.835030734E0,-4.971089065E-1,1.007557774E1,4.965106845E-1
4.837435994E0,-4.636093974E-1,9.783653259E0,5.204389095E-1
4.839841307E0,-4.923232496E-1,9.687940598E0,5.252245665E-1
4.842246567E0,-4.779663086E-1,9.692726135E0,5.108676553E-1
4.844651828E0,-4.205385745E-1,9.654440880E0,5.300102234E-1
4.847057140E0,-4.779663086E-1,9.754940033E0,5.012963414E-1
4.849462401E0,-5.353940725E-1,9.759725571E0,4.773681164E-1
4.851867661E0,-6.269195080E-1,9.836296082E0,5.012963414E-1
4.854272921E0,-5.647061467E-1,9.860223770E0,5.300102234E-1
4.856678234E0,-5.066801906E-1,9.865009308E0,4.869394004E-1
4.859083494E0,-5.114658475E-1,9.888937950E0,4.773681164E-1
4.861488755E0,-5.258227587E-1,9.932008743E0,4.917250574E-1
4.863894015E0,-5.497509837E-1,9.946365356E0,5.108676553E-1
4.866299328E0,-5.066801906E-1,9.970293999E0,5.300102234E-1
4.868704588E0,-4.923232496E-1,9.960722923E0,5.156532526E-1
4.871109848E0,-4.444667995E-1,9.999007225E0,5.108676553E-1
4.873515161E0,-4.636093974E-1,1.002293587E1,4.917250574E-1
4.875920421E0,-4.636093974E-1,1.002772141E1,4.917250574E-1
4.878325682E0,-4.540380836E-1,1.002293587E1,5.060819983E-1
4.880730942E0,-4.301098585E-1,1.003250694E1,4.869394004E-1
4.883136255E0,-4.013960063E-1,1.003729248E1,4.486542344E-1
4.885541515E0,-4.301098585E-1,1.004686451E1,4.677968323E-1
4.887946776E0,-4.205385745E-1,1.003729248E1,4.725824594E-1
4.890352036E0,-4.157529473E-1,1.004207802E1,4.582255483E-1
4.892757348E0,-4.109672904E-1,1.006122112E1,4.534398913E-1
4.895162609E0,-3.918247223E-1,1.006600666E1,4.438686073E-1
4.897567869E0,-4.253242314E-1,1.007079220E1,4.725824594E-1
4.899973182E0,-4.444667995E-1,1.005165005E1,4.677968323E-1
4.902378442E0,-5.018945336E-1,1.010429192E1,4.773681164E-1
4.904783703E0,-4.779663086E-1,1.010429192E1,4.582255483E-1
4.907188963E0,-5.066801906E-1,1.009950638E1,4.821537733E-1
4.909594276E0,-5.258227587E-1,1.009950638E1,4.869394004E-1
4.911999536E0,-5.210371017E-1,1.013779163E1,4.725824594E-1
4.914404796E0,-5.401797295E-1,1.014257717E1,5.012963414E-1
4.916810057E0,-4.923232496E-1,1.012821960E1,4.917250574E-1
4.919215369E0,-5.114658475E-1,1.011864853E1,4.917250574E-1
4.921620630E0,-5.353940725E-1,1.014736271E1,4.821537733E-1
4.924025890E0,-5.353940725E-1,1.014736271E1,5.012963414E-1
4.926431203E0,-5.593222976E-1,1.015693378E1,5.060819983E-1
4.928836463E0,-5.593222976E-1,1.017129040E1,5.300102234E-1
4.931241723E0,-5.647061467E-1,1.015693378E1,5.252245665E-1
4.933647036E0,-5.306084156E-1,1.013779163E1,5.491527915E-1
4.936052296E0,-5.258227587E-1,1.015693378E1,5.784648657E-1
4.938457557E0,-5.210371017E-1,1.015693378E1,5.688936114E-1
4.940862817E0,-5.114658475E-1,1.013300610E1,5.491527915E-1
4.943268130E0,-5.742774606E-1,1.008993530E1,5.491527915E-1
4.945673390E0,-5.162515044E-1,1.012821960E1,5.491527915E-1
4.948078651E0,-5.401797295E-1,1.009472084E1,5.443671346E-1
4.950483911E0,-5.449653864E-1,1.005643559E1,5.252245665E-1
4.952889223E0,-5.353940725E-1,1.002293587E1,5.108676553E-1
4.955294484E0,-5.258227587E-1,1.004207802E1,5.012963414E-1
4.957699744E0,-5.545366406E-1,9.984650612E0,4.534398913E-1
4.960105005E0,-5.497509837E-1,9.979865074E0,4.821537733E-1
4.962510317E0,-5.934200287E-1,9.989436150E0,4.917250574E-1
4.964915578E0,-5.449653864E-1,9.960722923E0,4.965106845E-1
4.967320838E0,-5.497509837E-1,9.989436150E0,4.869394004E-1
4.969726151E0,-5.838487148E-1,9.989436150E0,5.108676553E-1
4.972131411E0,-5.593222976E-1,9.979865074E0,5.012963414E-1
4.974536671E0,-5.545366406E-1,9.994221687E0,5.156532526E-1
4.976941932E0,-5.790630579E-1,1.001336479E1,5.156532526E-1
4.979347244E0,-5.497509837E-1,1.001336479E1,5.012963414E-1
4.981752505E0,-5.647061467E-1,1.002293587E1,5.060819983E-1
4.984157765E0,-5.401797295E-1,9.984650612E0,4.965106845E-1
