"Time (s)","Acceleration x (m/s^2)","Acceleration y (m/s^2)","Acceleration z (m/s^2)"
0.000000000E0,3.230688095E0,4.665284157E0,6.823647499E0
6.197670000E-4,3.206324577E0,4.640403271E0,6.875257015E0
2.610392000E-3,3.191767931E0,4.602393150E0,6.931712151E0
4.610392000E-3,3.180591583E0,4.580529213E0,6.956908703E0
6.611954000E-3,3.175276279E0,4.570118904E0,6.968898296E0
8.610392000E-3,3.172250271E0,4.564191341E0,6.975736141E0
1.061195400E-2,3.127986431E0,4.521689415E0,7.067137718E0
1.261039200E-2,3.052951813E0,4.463558197E0,7.194709778E0
1.461039200E-2,2.988452196E0,4.419763088E0,7.283611774E0
1.661039200E-2,2.941554546E0,4.410560131E0,7.352574348E0
1.861195400E-2,2.884285212E0,4.396606445E0,7.436409473E0
2.061039200E-2,2.842626333E0,4.391339302E0,7.468530178E0
2.261039200E-2,2.815954685E0,4.390180588E0,7.493391514E0
2.461195400E-2,2.802987814E0,4.389347553E0,7.514183044E0
2.661195400E-2,2.787569046E0,4.375461102E0,7.550287724E0
2.861039200E-2,2.799913645E0,4.363442421E0,7.595538139E0
3.061039200E-2,2.812478304E0,4.352275372E0,7.631929874E0
3.261039200E-2,2.814001083E0,4.325259209E0,7.689869404E0
3.461039200E-2,2.827370405E0,4.301078320E0,7.761178017E0
3.661039200E-2,2.840461731E0,4.287277699E0,7.831002712E0
3.861039200E-2,2.855621815E0,4.277451992E0,7.932296753E0
4.061039200E-2,2.895260334E0,4.218861103E0,8.231275558E0
4.261039200E-2,2.885626078E0,4.193386555E0,8.328977585E0
4.461507900E-2,2.881546259E0,4.191452026E0,8.389435768E0
4.661664200E-2,2.866175652E0,4.186596870E0,8.458790779E0
4.861039200E-2,2.855382442E0,4.182497978E0,8.518503189E0
5.062445400E-2,2.833068371E0,4.182373524E0,8.581259727E0
5.263226700E-2,2.814604282E0,4.171743393E0,8.646487236E0
5.462757900E-2,2.771278858E0,4.161438465E0,8.733922958E0
5.661039200E-2,2.745172501E0,4.153087616E0,8.794323921E0
5.861039200E-2,2.713616848E0,4.106889248E0,8.915548325E0
6.061507900E-2,2.700151920E0,4.073954582E0,8.993244171E0
6.261039200E-2,2.688784122E0,4.038166046E0,9.072999954E0
6.461039200E-2,2.684953690E0,4.003047943E0,9.167896271E0
6.661039200E-2,2.691303015E0,3.972976446E0,9.258961678E0
6.861195400E-2,2.737961292E0,3.895260811E0,9.383288383E0
7.061039200E-2,2.825196266E0,3.814825296E0,9.481364250E0
7.261039200E-2,2.973655939E0,3.727896452E0,9.584095001E0
7.461039200E-2,3.094735622E0,3.695220470E0,9.684076309E0
7.661351700E-2,3.153077364E0,3.729869366E0,9.780026436E0
7.861039200E-2,3.190886736E0,3.789916039E0,9.902552605E0
8.061039200E-2,3.244468927E0,3.822879314E0,9.969408035E0
8.261195400E-2,3.500849724E0,3.721968412E0,1.007741547E1
8.461195400E-2,3.862134695E0,3.609067678E0,1.023496246E1
8.661039200E-2,4.001831532E0,3.652833462E0,1.034957790E1
8.861039200E-2,3.985751867E0,3.828108072E0,1.047192192E1
9.061039200E-2,3.916913986E0,3.953554869E0,1.052482414E1
9.261195400E-2,3.826317310E0,4.084671021E0,1.055185890E1
9.461039200E-2,3.738038301E0,4.199966431E0,1.054537582E1
9.661039200E-2,3.680702209E0,4.284070015E0,1.049800968E1
9.861195400E-2,3.604403496E0,4.362666607E0,1.040144634E1
1.006119540E-1,3.556739807E0,4.415922642E0,1.029891682E1
1.026197670E-1,3.523316860E0,4.466259003E0,1.019315147E1
1.046119540E-1,3.509794474E0,4.482290745E0,1.004162693E1
1.066103920E-1,3.499518633E0,4.516460419E0,9.898098946E0
1.086103920E-1,3.507754326E0,4.533622265E0,9.763180733E0
1.106103920E-1,3.526400566E0,4.548552036E0,9.558707237E0
1.126103920E-1,3.548427343E0,4.575147152E0,9.418866158E0
1.146103920E-1,3.575232744E0,4.619899273E0,9.271488190E0
1.166103920E-1,3.624285221E0,4.661961079E0,9.126179695E0
1.186103920E-1,3.669956684E0,4.709193707E0,9.006641388E0
1.206103920E-1,3.761990070E0,4.775589943E0,8.835447311E0
1.226119540E-1,3.858648777E0,4.825570583E0,8.711340904E0
1.246119540E-1,3.954100847E0,4.861866951E0,8.592924118E0
1.266166420E-1,4.074644089E0,4.907184601E0,8.486650467E0
1.286103920E-1,4.211668968E0,4.953565121E0,8.385470390E0
1.306103920E-1,4.392871380E0,4.996258259E0,8.273499489E0
1.326103920E-1,4.527828217E0,5.016216278E0,8.193130493E0
1.346135170E-1,4.681995392E0,5.040235519E0,8.128535271E0
1.366103920E-1,4.824891090E0,5.054389477E0,8.052495003E0
1.386103920E-1,4.953191280E0,5.072863102E0,8.001441002E0
1.406103920E-1,5.072930336E0,5.085964203E0,7.960413933E0
1.426182040E-1,5.187564850E0,5.108077049E0,7.916532993E0
1.446103920E-1,5.259237289E0,5.128121376E0,7.886414051E0
1.466103920E-1,5.318202019E0,5.135543346E0,7.878369808E0
1.486103920E-1,5.355876923E0,5.152935028E0,7.883981705E0
1.506182040E-1,5.371248245E0,5.167692661E0,7.885782242E0
1.526182040E-1,5.369600773E0,5.184567451E0,7.914062500E0
1.546260170E-1,5.345802307E0,5.219685555E0,7.955549240E0
1.566197670E-1,5.306834698E0,5.244345665E0,7.995561123E0
1.586197670E-1,5.213738441E0,5.265567780E0,8.037909508E0
1.606103920E-1,5.136022568E0,5.280871391E0,8.087029457E0
1.626119540E-1,5.066657543E0,5.301049709E0,8.133457184E0
1.646103920E-1,4.981117725E0,5.314926624E0,8.188169479E0
1.666197670E-1,4.891727448E0,5.321611404E0,8.254718781E0
1.686119540E-1,4.771557808E0,5.317627430E0,8.327646255E0
1.706369540E-1,4.690097809E0,5.315635204E0,8.384742737E0
1.726291420E-1,4.607717991E0,5.307274818E0,8.431640625E0
1.746588290E-1,4.545774937E0,5.299976826E0,8.483068466E0
1.766150790E-1,4.476984978E0,5.293264389E0,8.528251648E0
1.786103920E-1,4.408855438E0,5.288992882E0,8.567755699E0
1.806103920E-1,4.333533764E0,5.292526245E0,8.622573853E0
1.826135170E-1,4.288848400E0,5.293809414E0,8.673340797E0
1.846213290E-1,4.256766319E0,5.300695419E0,8.717959404E0
1.866150790E-1,4.232134819E0,5.312168598E0,8.757989883E0
1.886213290E-1,4.201756954E0,5.319753647E0,8.814043045E0
1.906197670E-1,4.185993671E0,5.329176903E0,8.844037056E0
1.926119540E-1,4.188827991E0,5.349632740E0,8.897160530E0
1.946103920E-1,4.199861050E0,5.366181850E0,8.944746971E0
1.966119540E-1,4.220355034E0,5.371429920E0,8.990313530E0
1.986135170E-1,4.240600586E0,5.390439987E0,9.030468941E0
2.006150790E-1,4.283935547E0,5.402372360E0,9.073746681E0
2.026103920E-1,4.486121178E0,5.425577164E0,9.120299339E0
2.046119540E-1,4.608033657E0,5.425883293E0,9.122282028E0
2.066119540E-1,4.719699383E0,5.421583652E0,9.112120628E0
2.086103920E-1,4.861685276E0,5.402142525E0,9.092047691E0
2.106760170E-1,4.965277195E0,5.395869732E0,9.035688400E0
2.126510170E-1,5.072700500E0,5.397325516E0,8.967788696E0
2.146213290E-1,5.166036129E0,5.377683640E0,8.904830933E0
2.166432040E-1,5.258356571E0,5.360684395E0,8.840091705E0
2.186228920E-1,5.334980488E0,5.343733788E0,8.770124435E0
2.206260170E-1,5.411029816E0,5.334329128E0,8.687714577E0
2.226166420E-1,5.492614746E0,5.319045067E0,8.551993370E0
2.246291420E-1,5.546340942E0,5.325288773E0,8.458876610E0
2.266119540E-1,5.575731754E0,5.337010860E0,8.357219696E0
2.286166420E-1,5.602949142E0,5.338102341E0,8.251415253E0
2.306432040E-1,5.612209797E0,5.337288380E0,8.112532616E0
2.326103920E-1,5.602384090E0,5.337518692E0,7.984672546E0
2.346150790E-1,5.593697548E0,5.338753700E0,7.863554001E0
2.366447670E-1,5.589072227E0,5.335640907E0,7.732553005E0
2.386135170E-1,5.568855286E0,5.341866016E0,7.604693413E0
2.406119540E-1,5.528048992E0,5.348196507E0,7.476412296E0
2.426119540E-1,5.456404686E0,5.352659225E0,7.316201687E0
2.446103920E-1,5.390736580E0,5.366478443E0,7.181111336E0
2.466119540E-1,5.316832542E0,5.370663643E0,7.044631958E0
2.486197670E-1,5.241950989E0,5.367503643E0,6.918926716E0
2.506119540E-1,5.148759365E0,5.378306389E0,6.787408829E0
2.526119540E-1,5.050252438E0,5.390056610E0,6.665447712E0
2.546103920E-1,4.941248894E0,5.416038513E0,6.540547371E0
2.566119540E-1,4.829449654E0,5.447996616E0,6.423767567E0
2.586197670E-1,4.717927933E0,5.482357979E0,6.326160431E0
2.606166420E-1,4.591629028E0,5.509632587E0,6.253166676E0
2.626119540E-1,4.459679604E0,5.524524212E0,6.185745716E0
2.646213290E-1,4.315117836E0,5.537280560E0,6.148769379E0
2.666119540E-1,4.167462349E0,5.548907280E0,6.134797096E0
2.686103920E-1,4.002032757E0,5.542078972E0,6.141845703E0
2.706103920E-1,3.840481520E0,5.529897690E0,6.160912991E0
2.726119540E-1,3.701110125E0,5.499720573E0,6.192238808E0
2.746103920E-1,3.564564228E0,5.458808422E0,6.250092506E0
2.766103920E-1,3.465961218E0,5.423738480E0,6.287096977E0
2.786119540E-1,3.376399040E0,5.387001514E0,6.331428051E0
2.806103920E-1,3.298070431E0,5.348905087E0,6.385383606E0
2.826119540E-1,3.235888243E0,5.304899693E0,6.444539547E0
2.846119540E-1,3.134910107E0,5.229252338E0,6.545373917E0
2.866166420E-1,3.030245304E0,5.167453766E0,6.651743889E0
2.886166420E-1,2.931613684E0,5.084911346E0,6.775274754E0
2.906103920E-1,2.819268227E0,4.991680622E0,6.922987461E0
2.926510170E-1,2.681266546E0,4.887245655E0,7.128898621E0
2.946197670E-1,2.583793640E0,4.814739704E0,7.274255276E0
2.966260170E-1,2.475834370E0,4.746380329E0,7.397709846E0
2.986103920E-1,2.375134230E0,4.685979366E0,7.545671463E0
3.006103920E-1,2.286864758E0,4.618549347E0,7.677927017E0
3.026119540E-1,2.206381321E0,4.562850475E0,7.808870792E0
3.046103920E-1,2.116675615E0,4.452966213E0,7.959044933E0
3.066197670E-1,2.059319735E0,4.379033089E0,8.062838554E0
3.086166420E-1,2.009482145E0,4.307695866E0,8.160952568E0
3.106103920E-1,1.945806026E0,4.205530167E0,8.283171654E0
3.126447670E-1,1.918109894E0,4.159638405E0,8.328652382E0
3.146166420E-1,1.862765551E0,4.071933746E0,8.400918961E0
3.166713290E-1,1.835653543E0,4.018083096E0,8.459835052E0
3.186635170E-1,1.805199385E0,3.983405828E0,8.491620064E0
3.206103920E-1,1.778441787E0,3.934994936E0,8.499855995E0
3.226166420E-1,1.760111690E0,3.899043798E0,8.512306213E0
3.246213290E-1,1.746196628E0,3.853525162E0,8.517525673E0
3.266182040E-1,1.727464318E0,3.827926159E0,8.505181313E0
3.286385170E-1,1.713626027E0,3.799655437E0,8.478145599E0
3.306260170E-1,1.698954225E0,3.766893387E0,8.443612099E0
3.326103920E-1,1.667810440E0,3.726536512E0,8.386094093E0
3.346103920E-1,1.653177142E0,3.697107077E0,8.335451126E0
3.366103920E-1,1.623086810E0,3.664459705E0,8.293514252E0
3.386182040E-1,1.579732537E0,3.648102522E0,8.248589516E0
3.406103920E-1,1.532835007E0,3.636236906E0,8.194911957E0
3.426103920E-1,1.458145499E0,3.607640743E0,8.133850098E0
3.446103920E-1,1.422883630E0,3.608377934E0,8.108654022E0
3.466182040E-1,1.343587637E0,3.581151009E0,8.064639091E0
3.486103920E-1,1.265766621E0,3.534531355E0,8.013545990E0
3.506619540E-1,1.234172702E0,3.520654440E0,8.001020432E0
3.526150790E-1,1.165114284E0,3.493868113E0,7.993339539E0
3.546291420E-1,1.121961236E0,3.474743128E0,7.993904114E0
3.566166420E-1,1.029774904E0,3.446472406E0,7.999468327E0
3.586603920E-1,9.547501802E-1,3.425642967E0,8.004696846E0
3.606119540E-1,8.863047361E-1,3.404592991E0,8.016860008E0
3.626103920E-1,7.899429202E-1,3.368316174E0,8.047592163E0
3.646166420E-1,7.348188162E-1,3.346557617E0,8.063824654E0
3.666119540E-1,6.585777998E-1,3.295197248E0,8.101882935E0
3.686338290E-1,5.989526510E-1,3.261611223E0,8.135248184E0
3.706103920E-1,4.096670449E-1,3.097493649E0,8.331840515E0
3.726103920E-1,3.484233618E-1,3.033060789E0,8.483652115E0
3.746119540E-1,3.190992177E-1,2.985894918E0,8.595787048E0
3.766103920E-1,2.749692798E-1,2.944159508E0,8.729604721E0
3.786103920E-1,2.282057405E-1,2.901044607E0,8.850167274E0
3.806275790E-1,1.836927384E-1,2.867248058E0,8.979578018E0
3.826557040E-1,1.581226438E-1,2.825627089E0,9.098168373E0
3.846166420E-1,1.214051843E-1,2.784399271E0,9.206979752E0
3.866150790E-1,8.374917507E-2,2.750487566E0,9.321220398E0
3.886510170E-1,5.744168907E-2,2.704758406E0,9.423702240E0
3.906244540E-1,3.362416849E-2,2.670004129E0,9.520772934E0
3.926322670E-1,1.493024174E-2,2.640785456E0,9.610392570E0
3.946103920E-1,-8.906430565E-3,2.606845140E0,9.697033882E0
3.966182040E-1,-1.923022792E-2,2.578545570E0,9.776664734E0
3.986119540E-1,-1.293826569E-2,2.540736437E0,9.852561951E0
4.006119540E-1,-4.156333860E-3,2.497506857E0,9.928629875E0
4.026103920E-1,2.100193873E-2,2.471170425E0,9.984874725E0
4.046244540E-1,5.225105584E-2,2.410558939E0,1.003478909E1
4.066150790E-1,8.244673163E-2,2.356928825E0,1.006973457E1
4.086103920E-1,1.235695407E-1,2.289124966E0,1.007757854E1
4.106119540E-1,1.540237814E-1,2.224021673E0,1.005644226E1
4.126119540E-1,1.730050147E-1,2.153383255E0,1.004387665E1
4.146119540E-1,1.856751293E-1,2.099149942E0,1.001615238E1
4.166103920E-1,1.841140985E-1,2.054876328E0,9.992478371E0
4.186119540E-1,1.777934134E-1,2.015285730E0,9.947410583E0
4.206135170E-1,1.708023548E-1,1.973732114E0,9.914734840E0
4.226119540E-1,1.570500433E-1,1.929506302E0,9.878485680E0
4.246291420E-1,1.398213804E-1,1.884907126E0,9.830898285E0
4.266103920E-1,1.162241250E-1,1.847720385E0,9.787199020E0
4.286682040E-1,1.074996591E-1,1.814900637E0,9.739191055E0
4.306275790E-1,9.417831898E-2,1.770990968E0,9.685512543E0
4.326182040E-1,8.532934636E-2,1.735489726E0,9.632572174E0
4.346119540E-1,7.483316958E-2,1.700103521E0,9.582695961E0
4.366119540E-1,6.632896513E-2,1.671593308E0,9.533395767E0
4.386103920E-1,6.026684493E-2,1.629551172E0,9.483624458E0
4.406119540E-1,4.481945559E-2,1.603032947E0,9.457662582E0
4.426103920E-1,1.339795347E-2,1.585449934E0,9.424783707E0
4.446119540E-1,-2.922841534E-2,1.569131136E0,9.404030800E0
4.466150790E-1,-1.016482264E-1,1.578037500E0,9.415638924E0
4.486119540E-1,-1.627003700E-1,1.578612089E0,9.412689209E0
4.506119540E-1,-2.049915493E-1,1.590046763E0,9.420321465E0
4.526119540E-1,-2.496194690E-1,1.597219825E0,9.449387550E0
4.546119540E-1,-2.923416197E-1,1.596214175E0,9.486287117E0
4.566103920E-1,-3.336846828E-1,1.590046763E0,9.530081749E0
4.586103920E-1,-3.801417649E-1,1.582529068E0,9.572066307E0
4.606103920E-1,-4.238215983E-1,1.581140399E0,9.619816780E0
4.626603920E-1,-4.661127627E-1,1.575614452E0,9.679412842E0
4.646260170E-1,-5.061150789E-1,1.557974100E0,9.736011505E0
4.666135170E-1,-5.431486368E-1,1.544451714E0,9.791787148E0
4.686103920E-1,-5.696380734E-1,1.526054621E0,9.834384918E0
4.706307040E-1,-6.092381477E-1,1.506288052E0,9.872078896E0
4.726103920E-1,-6.263136268E-1,1.482039571E0,9.917118073E0
4.746119540E-1,-6.306135654E-1,1.475249648E0,9.952754021E0
4.766119540E-1,-6.278841496E-1,1.455348969E0,9.993206024E0
4.786150790E-1,-6.284779906E-1,1.437813878E0,1.001518536E1
4.806119540E-1,-6.326726079E-1,1.426360011E0,1.003905106E1
4.826119540E-1,-6.173305511E-1,1.400205851E0,1.005884552E1
4.846119540E-1,-6.028216481E-1,1.392898679E0,1.008289337E1
4.866166420E-1,-6.036165953E-1,1.374377131E0,1.008699226E1
4.886213290E-1,-5.999391079E-1,1.365987778E0,1.009378242E1
4.906166420E-1,-5.777208805E-1,1.349870086E0,1.008396626E1
4.926119540E-1,-5.476401448E-1,1.328580856E0,1.006578922E1
4.946197670E-1,-5.302582383E-1,1.308555841E0,1.003333282E1
4.966166420E-1,-5.026099682E-1,1.289162755E0,1.000027466E1
4.986119540E-1,-4.505313039E-1,1.270526290E0,9.933782578E0
5.006244540E-1,-4.173955321E-1,1.249189138E0,9.876896858E0
5.026338290E-1,-3.743382394E-1,1.244802952E0,9.845253944E0
5.046213290E-1,-3.433476985E-1,1.249265790E0,9.784824371E0
5.066103920E-1,-3.273161054E-1,1.264416218E0,9.752531052E0
5.086150790E-1,-3.092925549E-1,1.284307241E0,9.730620384E0
5.106213290E-1,-3.225564361E-1,1.310787082E0,9.688271523E0
5.126103920E-1,-3.259561956E-1,1.350923419E0,9.668829918E0
5.146103920E-1,-3.341347873E-1,1.389077544E0,9.656044960E0
5.166228920E-1,-3.457514644E-1,1.418842316E0,9.639889717E0
5.186166420E-1,-3.654605150E-1,1.437603116E0,9.626672745E0
5.206119540E-1,-3.680366874E-1,1.453644395E0,9.624461174E0
5.226119540E-1,-3.726144135E-1,1.458691239E0,9.621721268E0
5.246103920E-1,-3.643304706E-1,1.462129354E0,9.610603333E0
5.266213290E-1,-3.677397966E-1,1.451183081E0,9.588950157E0
5.286150790E-1,-3.735912442E-1,1.439010978E0,9.564970016E0
5.306103920E-1,-3.864241540E-1,1.436329484E0,9.512498856E0
5.326103920E-1,-4.220019877E-1,1.455396891E0,9.498382568E0
5.346135170E-1,-4.573978484E-1,1.471524239E0,9.485980034E0
5.366103920E-1,-4.901505411E-1,1.488197565E0,9.475378990E0
5.386135170E-1,-5.214380026E-1,1.506766796E0,9.472869873E0
5.406322670E-1,-5.554931164E-1,1.513738751E0,9.478797913E0
5.426182040E-1,-5.887916684E-1,1.530067205E0,9.485635757E0
5.446119540E-1,-6.100330353E-1,1.542239428E0,9.506522179E0
5.466119540E-1,-6.432932615E-1,1.554047585E0,9.560257912E0
5.486197670E-1,-6.697635651E-1,1.570605874E0,9.589591980E0
5.506135170E-1,-6.833052039E-1,1.586704493E0,9.605134964E0
5.526119540E-1,-7.014915347E-1,1.600619674E0,9.627593040E0
5.546135170E-1,-7.237384915E-1,1.624705315E0,9.659224510E0
5.566103920E-1,-7.465408444E-1,1.638811946E0,9.705212593E0
5.586260170E-1,-7.549301386E-1,1.655389428E0,9.743433952E0
5.606260170E-1,-7.640376687E-1,1.671449661E0,9.801134109E0
5.626119540E-1,-7.759416103E-1,1.665061831E0,9.839804649E0
5.646478920E-1,-7.806629539E-1,1.667312503E0,9.881301880E0
5.666182040E-1,-7.969626784E-1,1.671258211E0,9.906459808E0
5.686291420E-1,-8.105139136E-1,1.680001736E0,9.943540573E0
5.706260170E-1,-8.273403049E-1,1.693026304E0,9.952897072E0
5.726525790E-1,-8.406712413E-1,1.696579218E0,9.984136581E0
5.746244540E-1,-8.492808342E-1,1.712304354E0,9.994690895E0
5.766103920E-1,-8.566740751E-1,1.722015262E0,1.000741768E1
5.786166420E-1,-8.633299470E-1,1.725252151E0,1.002483845E1
5.806213290E-1,-8.599493504E-1,1.731381297E0,1.003331470E1
5.826103920E-1,-8.642110825E-1,1.731304646E0,1.003342915E1
5.846103920E-1,-8.444637060E-1,1.725012660E0,1.002255917E1
5.866119540E-1,-8.231936097E-1,1.732157111E0,9.987479210E0
5.886228920E-1,-7.996155024E-1,1.727387786E0,9.954334259E0
5.906103920E-1,-7.805576324E-1,1.724620104E0,9.932125092E0
5.926228920E-1,-7.666234374E-1,1.728498697E0,9.901871681E0
5.946182040E-1,-7.559356689E-1,1.731352568E0,9.860816002E0
5.966275790E-1,-7.475367785E-1,1.731563210E0,9.814713478E0
5.986150790E-1,-7.269658446E-1,1.738793850E0,9.748988152E0
6.006135170E-1,-7.172645330E-1,1.757746220E0,9.692188263E0
6.026119540E-1,-6.857280731E-1,1.783862233E0,9.634871483E0
6.046588290E-1,-6.713341475E-1,1.808876872E0,9.573513031E0
6.066119540E-1,-6.447201967E-1,1.842884064E0,9.523559570E0
6.086135170E-1,-5.968553424E-1,1.874334335E0,9.496084213E0
6.106103920E-1,-5.473911166E-1,1.903495669E0,9.463838577E0
6.126119540E-1,-4.754309952E-1,1.948363066E0,9.445144653E0
6.146119540E-1,-4.018715620E-1,1.986584067E0,9.433949471E0
6.166260170E-1,-3.138894439E-1,2.025303125E0,9.432168007E0
6.186119540E-1,-2.106897384E-1,2.067507982E0,9.442175865E0
6.206103920E-1,-1.186279058E-1,2.095874548E0,9.467257500E0
6.226119540E-1,-3.601837158E-2,2.130331993E0,9.500633240E0
6.246103920E-1,5.333323777E-2,2.152052164E0,9.517583847E0
6.266135170E-1,1.354926676E-1,2.168562412E0,9.536000252E0
6.286619540E-1,1.897356957E-1,2.184689999E0,9.557002068E0
6.306103920E-1,2.715024650E-1,2.189822912E0,9.589917183E0
6.326119540E-1,3.295283616E-1,2.195607424E0,9.614166260E0
6.346150790E-1,3.762919009E-1,2.197733402E0,9.624403000E0
6.366228920E-1,4.150683880E-1,2.192102194E0,9.642876625E0
6.386103920E-1,4.612094462E-1,2.190464497E0,9.673743248E0
6.406322670E-1,4.857930839E-1,2.191594839E0,9.689267159E0
6.426135170E-1,5.178275108E-1,2.192217350E0,9.715680122E0
6.446103920E-1,5.530031323E-1,2.202033520E0,9.739536285E0
6.466150790E-1,5.886096954E-1,2.189190865E0,9.760892868E0
6.486447670E-1,6.274723411E-1,2.192341805E0,9.798768997E0
6.506197670E-1,6.824719906E-1,2.190962553E0,9.835658073E0
6.526103920E-1,7.167378068E-1,2.201305628E0,9.856564522E0
6.546103920E-1,7.448744774E-1,2.219693184E0,9.883848190E0
6.566103920E-1,7.732026577E-1,2.245416403E0,9.883196831E0
6.586213290E-1,8.243236542E-1,2.253135204E0,9.859888077E0
6.606603920E-1,8.493286967E-1,2.259522915E0,9.831061363E0
6.626103920E-1,8.665477633E-1,2.261179924E0,9.807224274E0
6.646182040E-1,8.900588155E-1,2.267634630E0,9.781711578E0
6.666541420E-1,9.097774625E-1,2.270526886E0,9.751660347E0
6.686119540E-1,9.246023893E-1,2.267960310E0,9.680666924E0
6.706103920E-1,9.357019067E-1,2.262712240E0,9.626720428E0
6.726103920E-1,9.581595659E-1,2.278351068E0,9.578587532E0
6.746150790E-1,9.794104695E-1,2.278935194E0,9.529325485E0
6.766650790E-1,1.002318144E0,2.284566402E0,9.469221115E0
6.786103920E-1,1.028654456E0,2.305558920E0,9.405755997E0
6.806103920E-1,1.071060538E0,2.320192099E0,9.356884956E0
6.826119540E-1,1.121262074E0,2.320383787E0,9.309211731E0
6.846603920E-1,1.168418288E0,2.338962555E0,9.268730164E0
6.866119540E-1,1.225237608E0,2.337784767E0,9.235020638E0
6.886103920E-1,1.301995635E0,2.323055744E0,9.180795670E0
6.906150790E-1,1.358441234E0,2.313459635E0,9.148446083E0
6.926213290E-1,1.422194123E0,2.306976080E0,9.130987167E0
6.946103920E-1,1.482346058E0,2.309734344E0,9.108137131E0
6.966119540E-1,1.530048132E0,2.307282686E0,9.099613190E0
6.986213290E-1,1.580613613E0,2.293310165E0,9.084913254E0
7.006103920E-1,1.626227975E0,2.290101767E0,9.083265305E0
7.026103920E-1,1.694003105E0,2.301344872E0,9.072731018E0
7.046213290E-1,1.677415967E0,2.317060471E0,9.068861961E0
7.066119540E-1,1.659919143E0,2.339000940E0,9.068958282E0
7.086119540E-1,1.645716786E0,2.355013371E0,9.053721428E0
7.106635170E-1,1.588140965E0,2.379118204E0,9.055848122E0
7.126135170E-1,1.551011682E0,2.397572756E0,9.057447433E0
7.146182040E-1,1.509209037E0,2.421112537E0,9.062063217E0
7.166119540E-1,1.460893989E0,2.433303595E0,9.061383247E0
7.186197670E-1,1.415518999E0,2.455320835E0,9.072147369E0
7.206197670E-1,1.350770235E0,2.474857569E0,9.090247154E0
7.226103920E-1,1.265259027E0,2.478678703E0,9.104249001E0
7.246260170E-1,1.198250175E0,2.483859777E0,9.115932465E0
7.266103920E-1,1.123953223E0,2.487144470E0,9.113260269E0
7.286182040E-1,1.058438182E0,2.490601778E0,9.105464935E0
7.306103920E-1,9.815844297E-1,2.478592634E0,9.111163139E0
7.326182040E-1,9.155906439E-1,2.476667404E0,9.112782478E0
7.346103920E-1,8.369171619E-1,2.470232010E0,9.121649742E0
7.366182040E-1,7.662211061E-1,2.463882685E0,9.146157265E0
7.386119540E-1,6.926138401E-1,2.461909771E0,9.152257919E0
7.406103920E-1,6.417705417E-1,2.455033779E0,9.153790474E0
7.426119540E-1,5.566327572E-1,2.447860479E0,9.178737640E0
7.446135170E-1,4.969309270E-1,2.444987535E0,9.205168724E0
7.466103920E-1,4.385698438E-1,2.435717106E0,9.256539345E0
7.486369540E-1,3.977152109E-1,2.415538788E0,9.301243782E0
7.506619540E-1,3.784371018E-1,2.401432037E0,9.363760948E0
7.526291420E-1,3.522062302E-1,2.382527590E0,9.439609528E0
7.546135170E-1,3.592643440E-1,2.372347355E0,9.540931702E0
7.566307040E-1,3.781402409E-1,2.365078688E0,9.621616364E0
7.586463290E-1,4.048786759E-1,2.347064734E0,9.700270653E0
7.606244540E-1,4.311478138E-1,2.332239628E0,9.779911995E0
7.626119540E-1,4.563156962E-1,2.322327852E0,9.860452652E0
7.646182040E-1,5.055788159E-1,2.326235056E0,9.957742691E0
7.666119540E-1,5.491149426E-1,2.332144022E0,1.003219318E1
7.686166420E-1,5.917891860E-1,2.330908775E0,1.010925770E1
7.706213290E-1,6.463291049E-1,2.336616516E0,1.016322327E1
7.726260170E-1,7.042879462E-1,2.337162256E0,1.021639347E1
7.746103920E-1,7.308252454E-1,2.342065573E0,1.023883247E1
7.766103920E-1,7.672458291E-1,2.343760729E0,1.026448822E1
7.786103920E-1,7.972021699E-1,2.346432686E0,1.028118038E1
7.806603920E-1,8.249269724E-1,2.347792387E0,1.028814316E1
7.826103920E-1,8.929222822E-1,2.371676922E0,1.027971554E1
7.846103920E-1,9.376651645E-1,2.378361464E0,1.028216743E1
7.866119540E-1,9.834422469E-1,2.396021128E0,1.027323246E1
7.886588290E-1,1.013417721E0,2.416918039E0,1.024372578E1
7.906119540E-1,1.071405292E0,2.427404642E0,1.018829632E1
7.926119540E-1,1.103870630E0,2.445686579E0,1.016310883E1
7.946228920E-1,1.132007360E0,2.465366840E0,1.012265587E1
7.966135170E-1,1.153928638E0,2.471208811E0,1.007830524E1
7.986213290E-1,1.185225606E0,2.508290291E0,1.003978825E1
8.006650790E-1,1.191009998E0,2.519341707E0,1.002379513E1
8.026103920E-1,1.211667061E0,2.524953842E0,9.983399391E0
8.046150790E-1,1.224959850E0,2.534952164E0,9.957532883E0
8.066103920E-1,1.232745767E0,2.529263496E0,9.936100006E0
8.086353920E-1,1.227497697E0,2.525231600E0,9.921495438E0
8.106557040E-1,1.224040389E0,2.516152859E0,9.896394730E0
8.126103920E-1,1.211810827E0,2.517560482E0,9.874502182E0
8.146119540E-1,1.188462496E0,2.504890442E0,9.866390228E0
8.166119540E-1,1.150653362E0,2.509841442E0,9.860854149E0
8.186572670E-1,1.110833049E0,2.521860600E0,9.852283478E0
8.206557040E-1,1.075695634E0,2.529924393E0,9.835515022E0
8.226135170E-1,1.018014550E0,2.546415567E0,9.829519272E0
8.246103920E-1,9.963326454E-1,2.559823036E0,9.820173264E0
8.266416420E-1,9.610804319E-1,2.572847366E0,9.819549561E0
8.286135170E-1,9.359796047E-1,2.593284369E0,9.825995445E0
8.306635170E-1,9.015702009E-1,2.605130911E0,9.837851524E0
8.326119540E-1,8.736920953E-1,2.630327463E0,9.861392021E0
8.346463290E-1,8.659061193E-1,2.660714626E0,9.887334824E0
8.366307040E-1,8.750041127E-1,2.661011457E0,9.908154488E0
8.386150790E-1,8.749945164E-1,2.676727057E0,9.930602074E0
8.406150790E-1,9.000666142E-1,2.677407026E0,9.949918747E0
8.426119540E-1,9.443593025E-1,2.676813126E0,9.984395981E0
8.446619540E-1,9.810672402E-1,2.667552471E0,1.001581764E1
8.466119540E-1,1.039638996E0,2.653608561E0,1.006195831E1
8.486150790E-1,1.091219783E0,2.648044348E0,1.008890724E1
8.506572670E-1,1.141727805E0,2.642403841E0,1.010272694E1
8.526103920E-1,1.207060695E0,2.634167671E0,1.012175560E1
8.546322670E-1,1.231395364E0,2.630978823E0,1.014053631E1
8.566228920E-1,1.266408205E0,2.634838104E0,1.015013218E1
8.586119540E-1,1.268275619E0,2.646809101E0,1.016181564E1
8.606103920E-1,1.272518158E0,2.657602310E0,1.017091370E1
8.626135170E-1,1.268534303E0,2.705294609E0,1.013158226E1
8.646119540E-1,1.276061654E0,2.733067274E0,1.010577202E1
8.666119540E-1,1.277986526E0,2.746819735E0,1.008291245E1
8.686150790E-1,1.265823960E0,2.728662014E0,9.974397659E0
8.706119540E-1,1.246976852E0,2.668998480E0,9.625811577E0
8.726510170E-1,1.193835258E0,2.580892086E0,9.164122581E0
8.746119540E-1,1.088499904E0,2.434165716E0,8.582274437E0
8.766369540E-1,9.203502536E-1,2.277623177E0,7.940370083E0
8.786213290E-1,6.729334593E-1,2.146018744E0,7.294701576E0
8.806260170E-1,4.059129655E-1,2.050729513E0,6.674095631E0
8.826182040E-1,1.933461428E-1,2.015400648E0,6.150752068E0
8.846135170E-1,5.213613436E-2,2.055613756E0,5.830388546E0
8.866119540E-1,-5.510494485E-2,2.168639183E0,5.695978165E0
8.886182040E-1,-1.721431017E-1,2.325526476E0,5.693037987E0
8.906197670E-1,-2.699701786E-1,2.486972094E0,5.806762695E0
8.926119540E-1,-3.486628234E-1,2.632922888E0,6.007933140E0
8.946119540E-1,-4.013735354E-1,2.752546549E0,6.255005360E0
8.966135170E-1,-4.385698438E-1,2.842865467E0,6.544722557E0
8.986103920E-1,-4.216859341E-1,2.901408434E0,6.854398251E0
9.006103920E-1,-3.497354090E-1,2.929516315E0,7.182729721E0
9.026119540E-1,-2.024345398E-1,2.919106483E0,7.627361774E0
9.046135170E-1,-6.565858424E-2,2.886813402E0,7.959686756E0
9.066119540E-1,7.016926259E-2,2.843535900E0,8.291082382E0
9.086244540E-1,2.140895277E-1,2.793525934E0,8.596189499E0
9.106119540E-1,3.551941812E-1,2.725521088E0,8.872261047E0
9.126166420E-1,4.975725710E-1,2.671833277E0,9.131772041E0
9.146119540E-1,6.106650829E-1,2.625395536E0,9.340317726E0
9.166166420E-1,7.038761377E-1,2.574571371E0,9.510363579E0
9.186119540E-1,7.704157829E-1,2.522109509E0,9.644189835E0
9.206275790E-1,8.215176463E-1,2.470040560E0,9.745119095E0
9.226119540E-1,8.338812590E-1,2.412933826E0,9.839642525E0
9.246182040E-1,8.403360844E-1,2.374693871E0,9.906890869E0
9.266119540E-1,8.257410526E-1,2.335639477E0,9.945120811E0
9.286119540E-1,7.761906385E-1,2.296604395E0,1.000769615E1
9.306103920E-1,7.082239985E-1,2.282200813E0,1.004331207E1
9.326135170E-1,6.228946447E-1,2.285552740E0,1.008613968E1
9.346119540E-1,5.166686773E-1,2.288492918E0,1.015944004E1
9.366432040E-1,4.372195303E-1,2.305606604E0,1.021873093E1
9.386103920E-1,3.611892760E-1,2.314513206E0,1.028347969E1
9.406119540E-1,2.526074350E-1,2.323065281E0,1.037916088E1
9.426103920E-1,1.605072767E-1,2.349210024E0,1.050427246E1
9.446103920E-1,6.607996672E-2,2.353155613E0,1.065190887E1
9.466103920E-1,-1.490151137E-2,2.376446247E0,1.081238747E1
9.486197670E-1,-6.874231994E-2,2.398549557E0,1.098524857E1
9.506182040E-1,-1.087159142E-1,2.415988922E0,1.112786579E1
9.526291420E-1,-1.212327927E-1,2.436148167E0,1.127941036E1
9.546182040E-1,-1.019546837E-1,2.428975105E0,1.145000172E1
9.566150790E-1,-6.817728281E-2,2.418220282E0,1.156060410E1
9.586603920E-1,-2.345360070E-2,2.400579929E0,1.164698696E1
9.606275790E-1,4.511633515E-2,2.384644032E0,1.172702026E1
9.626541420E-1,1.274577230E-1,2.363067389E0,1.177772903E1
9.646103920E-1,2.255050689E-1,2.353902578E0,1.180388355E1
9.666103920E-1,2.968331277E-1,2.349161863E0,1.180395985E1
9.686135170E-1,4.077421129E-1,2.339795828E0,1.177850533E1
9.706182040E-1,5.239566565E-1,2.334710598E0,1.176038551E1
9.726103920E-1,6.393859386E-1,2.341452599E0,1.171467590E1
9.746103920E-1,8.050263524E-1,2.371475935E0,1.164634514E1
9.766150790E-1,9.246502519E-1,2.391912937E0,1.155914879E1
9.786213290E-1,1.061397433E0,2.425824165E0,1.147275543E1
9.806135170E-1,1.187437892E0,2.456527472E0,1.137823200E1
9.826197670E-1,1.298662901E0,2.497956753E0,1.127314663E1
9.846119540E-1,1.394114852E0,2.539271355E0,1.116369343E1
9.866150790E-1,1.511124372E0,2.597823620E0,1.100580978E1
9.886103920E-1,1.612475753E0,2.623901367E0,1.088192463E1
9.906150790E-1,1.700582266E0,2.655906916E0,1.076664829E1
9.926197670E-1,1.863752007E0,2.720904827E0,1.064330864E1
9.946150790E-1,2.187151194E0,2.832196951E0,1.047222805E1
9.966103920E-1,2.521104097E0,2.904185772E0,1.037911320E1
9.986103920E-1,2.872898340E0,2.943575144E0,1.030548763E1
1.000622892E0,3.164569616E0,2.951610088E0,1.026163483E1
1.002610392E0,3.365031242E0,2.946381330E0,1.024542046E1
1.004613517E0,3.456058741E0,2.945844889E0,1.026730347E1
1.006610392E0,3.391731501E0,2.980895996E0,1.031998634E1
1.008610392E0,3.235217810E0,3.020907879E0,1.032338619E1
1.010616642E0,3.022593498E0,3.057242393E0,1.028653431E1
1.012622892E0,2.758168221E0,3.084517002E0,1.023760605E1
1.014633829E0,2.489241838E0,3.100462437E0,1.015284157E1
1.016621329E0,2.126367092E0,3.124318361E0,1.000661469E1
1.018611954E0,1.845373988E0,3.132698059E0,9.895503998E0
1.020611954E0,1.586560845E0,3.138616562E0,9.766905785E0
1.022611954E0,1.320938587E0,3.129106760E0,9.653603554E0
1.024654142E0,1.081776977E0,3.125716448E0,9.555354118E0
1.026613517E0,8.042123318E-1,3.102502346E0,9.452164650E0
1.028618204E0,6.333237886E-1,3.093624592E0,9.375789642E0
1.030610392E0,5.441828966E-1,3.113199711E0,9.103032112E0
1.032610392E0,8.819377422E-1,3.158890724E0,8.874951363E0
1.034615079E0,1.223944545E0,3.214723349E0,8.670668602E0
1.036632267E0,1.566870928E0,3.276292801E0,8.492396355E0
1.038619767E0,1.817390680E0,3.331158161E0,8.385940552E0
1.040663517E0,1.889685869E0,3.373123884E0,8.343975067E0
1.042610392E0,1.834140539E0,3.406604290E0,8.358578682E0
1.044618204E0,1.732932687E0,3.415472507E0,8.392970085E0
1.046610392E0,1.651740551E0,3.393301964E0,8.422629356E0
1.048657267E0,1.669419408E0,3.348453760E0,8.425292015E0
1.050619767E0,1.713453531E0,3.306153059E0,8.423596382E0
1.052657267E0,1.742806435E0,3.261304855E0,8.439762115E0
1.054615079E0,1.719620943E0,3.211879253E0,8.474803925E0
1.056611954E0,1.519925356E0,3.148518801E0,8.579459190E0
1.058629142E0,1.040472150E0,3.102071285E0,8.756361008E0
1.060616642E0,2.522243559E-1,3.023149014E0,9.020950317E0
1.062665079E0,-3.614095449E-1,2.902442932E0,9.247067451E0
1.064618204E0,-8.182231784E-1,2.776143789E0,9.386045456E0
1.066632267E0,-1.076069236E0,2.727263927E0,9.480818748E0
1.068624454E0,-1.143767595E0,2.741016150E0,9.582792282E0
1.070611954E0,-1.016846180E0,2.789541721E0,9.709522247E0
1.072611954E0,-7.140754461E-1,2.854846239E0,9.869531631E0
1.074619767E0,-2.574437261E-1,2.919987440E0,1.003255749E1
1.076619767E0,3.634206653E-1,2.999724150E0,1.019333267E1
1.078611954E0,1.092455029E0,3.091077089E0,1.032266808E1
1.080611954E0,1.850488067E0,3.186605930E0,1.042063904E1
1.082610392E0,2.578670263E0,3.297150850E0,1.049133396E1
1.084621329E0,3.227757215E0,3.406431913E0,1.052377129E1
1.086663517E0,3.718386650E0,3.510100842E0,1.053941059E1
1.088618204E0,4.015009403E0,3.595162153E0,1.050464630E1
1.090610392E0,4.179404736E0,3.762871027E0,1.037462234E1
1.092611954E0,4.343225479E0,3.908409595E0,1.015711308E1
1.094638517E0,4.311669827E0,3.946736097E0,9.913220406E0
1.096610392E0,4.058334827E0,3.889562607E0,9.697847366E0
1.098632267E0,3.678815365E0,3.763081789E0,9.493019104E0
1.100652579E0,3.221264362E0,3.593198776E0,9.256433487E0
1.102613517E0,3.022928715E0,3.527856112E0,9.155092239E0
1.104611954E0,2.774180651E0,3.466813803E0,9.002026558E0
1.106611954E0,2.550227165E0,3.441952229E0,8.861879349E0
1.108615079E0,2.376896381E0,3.444825172E0,8.750654221E0
1.110610392E0,2.248270273E0,3.462552071E0,8.676241875E0
1.112626017E0,2.140799284E0,3.511269331E0,8.631154060E0
1.114640079E0,2.057567358E0,3.551807880E0,8.611742020E0
1.116626017E0,2.015870094E0,3.584512711E0,8.602864265E0
1.118610392E0,1.940548301E0,3.617993116E0,8.615592003E0
1.120615079E0,1.889848709E0,3.635834694E0,8.638892174E0
1.122644767E0,1.853772998E0,3.657037735E0,8.674594879E0
1.124615079E0,1.846724391E0,3.668568134E0,8.730600357E0
1.126619767E0,1.861501336E0,3.681679010E0,8.786758423E0
1.128611954E0,1.896839857E0,3.673021555E0,8.860069275E0
1.130611954E0,1.963839054E0,3.668501139E0,8.934930801E0
1.132610392E0,2.063457012E0,3.636792421E0,8.999526024E0
1.134610392E0,2.155154943E0,3.612017155E0,9.077463150E0
1.136611954E0,2.272767782E0,3.618864536E0,9.172865868E0
1.138615079E0,2.440199137E0,3.633229733E0,9.268855095E0
1.140613517E0,2.525403976E0,3.643285513E0,9.330549240E0
1.142611954E0,2.586293221E0,3.640067577E0,9.373740196E0
1.144610392E0,2.611499548E0,3.657957077E0,9.422160149E0
1.146624454E0,2.582548857E0,3.676574469E0,9.470485687E0
1.148629142E0,2.490285873E0,3.709202528E0,9.553467751E0
1.150615079E0,2.401891947E0,3.741773367E0,9.603372574E0
1.152610392E0,2.306985855E0,3.777600050E0,9.664358139E0
1.154610392E0,2.220373154E0,3.820044756E0,9.702129364E0
1.156622892E0,2.139085293E0,3.858390093E0,9.720046997E0
1.158613517E0,2.078741789E0,3.878501415E0,9.730237007E0
1.160629142E0,2.036220789E0,3.878798246E0,9.719482422E0
1.162611954E0,2.016339302E0,3.873894930E0,9.708947182E0
1.164611954E0,2.041698694E0,3.875206947E0,9.678704262E0
1.166615079E0,2.079421520E0,3.873866320E0,9.648403168E0
1.168610392E0,2.143423319E0,3.861090899E0,9.638931274E0
1.170652579E0,2.218428850E0,3.852902651E0,9.639276505E0
1.172643204E0,2.292993784E0,3.851054192E0,9.637265205E0
1.174627579E0,2.349545240E0,3.855411530E0,9.641967773E0
1.176618204E0,2.400857687E0,3.849569798E0,9.662384987E0
1.178613517E0,2.443551064E0,3.851542711E0,9.700893402E0
1.180611954E0,2.447582722E0,3.852261066E0,9.714339256E0
1.182616642E0,2.447602034E0,3.867133856E0,9.745166779E0
1.184622892E0,2.428486586E0,3.871500731E0,9.776646614E0
1.186627579E0,2.392909050E0,3.868158340E0,9.783847809E0
1.188610392E0,2.348903418E0,3.877993822E0,9.798203468E0
1.190616642E0,2.267280340E0,3.910966873E0,9.810672760E0
1.192610392E0,2.289986849E0,3.921089411E0,9.770229340E0
1.194626017E0,2.290906191E0,3.926356792E0,9.735868454E0
1.196611954E0,2.296844006E0,3.921817303E0,9.674107552E0
1.198624454E0,2.284978390E0,3.905718803E0,9.608304977E0
1.200619767E0,2.248011827E0,3.894552231E0,9.533423424E0
1.202619767E0,2.193960190E0,3.886469126E0,9.479286194E0
1.204611954E0,2.132745266E0,3.866559029E0,9.440270424E0
1.206610392E0,2.060392618E0,3.846744537E0,9.418108940E0
1.208610392E0,1.974651337E0,3.828931808E0,9.408130646E0
1.210657267E0,1.909835577E0,3.811645746E0,9.394924164E0
1.212611954E0,1.857814312E0,3.795882225E0,9.404979706E0
1.214615079E0,1.817400098E0,3.783355713E0,9.401972771E0
1.216610392E0,1.783143878E0,3.784007072E0,9.409920692E0
1.218611954E0,1.762199521E0,3.782283306E0,9.400421143E0
1.220632267E0,1.743754506E0,3.776259422E0,9.375473976E0
1.222627579E0,1.752421498E0,3.780569077E0,9.355334282E0
1.224618204E0,1.807038069E0,3.792396307E0,9.333995819E0
1.226610392E0,1.897998691E0,3.841362476E0,9.324515343E0
1.228616642E0,2.028444290E0,3.890874863E0,9.324878693E0
1.230611954E0,2.143222332E0,3.929287195E0,9.289406776E0
1.232610392E0,2.268611670E0,3.961273670E0,9.257122993E0
1.234610392E0,2.373783827E0,3.967728615E0,9.214918137E0
1.236611954E0,2.479751110E0,3.964998960E0,9.202439308E0
1.238630704E0,2.546923161E0,3.970208883E0,9.257162094E0
1.240611954E0,2.598580360E0,3.987035513E0,9.385941505E0
1.242611954E0,2.607256889E0,4.010115623E0,9.491869926E0
1.244661954E0,2.597862005E0,4.071799755E0,9.665659904E0
1.246615079E0,2.584981203E0,4.127258778E0,9.858986855E0
1.248647892E0,2.567245007E0,4.172796726E0,1.002729988E1
1.250641642E0,2.514285326E0,4.197083473E0,1.016580963E1
1.252621329E0,2.401460886E0,4.219694138E0,1.026894188E1
1.254611954E0,2.283522367E0,4.245111465E0,1.033464813E1
1.256611954E0,2.093030214E0,4.274626732E0,1.034657097E1
1.258611954E0,1.920695662E0,4.274722576E0,1.031141472E1
1.260613517E0,1.760743737E0,4.287038803E0,1.024242401E1
1.262611954E0,1.608079910E0,4.299679756E0,1.014727879E1
1.264611954E0,1.485113740E0,4.281167984E0,1.001255131E1
1.266611954E0,1.376512647E0,4.262771130E0,9.866974831E0
1.268610392E0,1.234239697E0,4.255387306E0,9.649370193E0
1.270611954E0,1.176089406E0,4.269225597E0,9.495261192E0
1.272615079E0,1.140770078E0,4.301508904E0,9.369928360E0
1.274611954E0,1.123177528E0,4.340812206E0,9.292643547E0
1.276611954E0,1.114711523E0,4.400580883E0,9.224456787E0
1.278611954E0,1.082428217E0,4.502622128E0,9.172244072E0
1.280621329E0,9.587053657E-1,4.923331261E0,9.131111145E0
1.282610392E0,4.599836171E-1,6.352238178E0,9.294079781E0
1.284613517E0,2.365279645E-1,6.755728722E0,9.221546173E0
1.286661954E0,3.355329931E-1,6.287556648E0,8.989384651E0
1.288626017E0,3.197216988E-1,6.055961132E0,8.696718216E0
1.290610392E0,-4.678270221E-1,6.644388676E0,8.291071892E0
1.292624454E0,-1.771125078E0,7.957436085E0,7.830935478E0
1.294624454E0,-1.970178962E0,8.123296738E0,7.649952888E0
1.296640079E0,-1.554028392E0,7.765937805E0,7.506828308E0
1.298613517E0,-7.232021689E-1,7.521403790E0,7.329829693E0
1.300611954E0,7.544608414E-2,7.223306656E0,7.093521595E0
1.302610392E0,7.954208255E-1,6.461557388E0,6.905653477E0
1.304622892E0,1.296891212E0,5.864568233E0,6.848757744E0
1.306610392E0,2.217940569E0,5.810756207E0,6.731097221E0
1.308638517E0,2.925235510E0,5.691534519E0,6.578988552E0
1.310611954E0,3.196240187E0,5.316899300E0,6.557096004E0
1.312610392E0,3.263622522E0,4.690940380E0,6.694341183E0
1.314619767E0,3.205462694E0,4.228677273E0,6.921205997E0
1.316611954E0,3.107242823E0,3.815792561E0,7.226716042E0
1.318610392E0,2.989716291E0,3.459190369E0,7.560132504E0
1.320636954E0,2.878155947E0,3.170315742E0,7.905107975E0
1.322621329E0,2.784973621E0,2.885693073E0,8.306098938E0
1.324610392E0,2.806234121E0,2.747605085E0,8.609836578E0
1.326611954E0,2.869604111E0,2.657372236E0,8.836768150E0
1.328661954E0,2.984353304E0,2.600016832E0,9.075183868E0
1.330611954E0,3.130131245E0,2.595602036E0,9.245420456E0
1.332611954E0,3.344987154E0,2.623748302E0,9.466587067E0
1.334610392E0,3.496329308E0,2.666135073E0,9.585512161E0
1.336610392E0,3.652699471E0,2.734637976E0,9.688377380E0
1.338610392E0,3.766289949E0,2.799003601E0,9.769349098E0
1.340610392E0,3.885885000E0,2.904339075E0,9.799420357E0
1.342622892E0,3.928042173E0,2.945979118E0,9.786873817E0
1.344618204E0,3.951897860E0,3.046104431E0,9.638931274E0
1.346610392E0,3.933606386E0,3.107798338E0,9.461291313E0
1.348619767E0,3.904320478E0,3.184422255E0,9.222369194E0
1.350663517E0,3.869556665E0,3.265633583E0,9.003778458E0
1.352610392E0,3.829994917E0,3.389279842E0,8.703171730E0
1.354613517E0,3.835357904E0,3.453626394E0,8.567622185E0
1.356611954E0,3.857624054E0,3.620933056E0,8.234760284E0
1.358621329E0,3.908926964E0,3.736151934E0,8.057408333E0
1.360610392E0,4.127469540E0,4.044448376E0,7.626739025E0
1.362610392E0,4.200444698E0,4.134010792E0,7.539436817E0
1.364611954E0,4.228351593E0,4.189527512E0,7.492079735E0
1.366663517E0,4.229347706E0,4.239556789E0,7.519191265E0
1.368630704E0,4.182095528E0,4.259706020E0,7.543851852E0
1.370613517E0,4.121378899E0,4.264676571E0,7.616348267E0
1.372640079E0,4.044783592E0,4.250685215E0,7.688998222E0
1.374616642E0,3.962471008E0,4.233561516E0,7.777535439E0
1.376616642E0,3.876863718E0,4.223544121E0,7.894496918E0
1.378624454E0,3.788326263E0,4.200291634E0,8.002063751E0
1.380613517E0,3.712774754E0,4.169827461E0,8.126648903E0
1.382611954E0,3.649280548E0,4.137295246E0,8.219351768E0
1.384610392E0,3.591043949E0,4.097446442E0,8.319248199E0
1.386610392E0,3.537720203E0,4.062500477E0,8.450938225E0
1.388610392E0,3.478286505E0,4.034076691E0,8.565620422E0
1.390611954E0,3.422252655E0,4.001285553E0,8.686260223E0
1.392611954E0,3.371581793E0,3.964366913E0,8.790741920E0
1.394610392E0,3.336291313E0,3.944322824E0,8.884125710E0
1.396640079E0,3.273965597E0,3.903305531E0,9.002925873E0
1.398611954E0,3.216648102E0,3.873147964E0,9.120816231E0
1.400619767E0,3.179183722E0,3.829946995E0,9.231984138E0
1.402611954E0,3.177641869E0,3.804989815E0,9.319823265E0
1.404621329E0,3.194765329E0,3.756464005E0,9.405420303E0
1.406611954E0,3.242860079E0,3.712439775E0,9.462947845E0
1.408611954E0,3.293166876E0,3.674390793E0,9.519595146E0
1.410611954E0,3.383227348E0,3.645344496E0,9.536948204E0
1.412611954E0,3.482940912E0,3.601549864E0,9.527667999E0
1.414619767E0,3.591149330E0,3.541292429E0,9.514700890E0
1.416611954E0,3.702230692E0,3.471353054E0,9.452107430E0
1.418611954E0,3.818761349E0,3.411076546E0,9.408159256E0
1.420616642E0,3.928942442E0,3.334347248E0,9.333029747E0
1.422611954E0,4.053201199E0,3.242515087E0,9.269218445E0
1.424635392E0,4.170096397E0,3.146182060E0,9.192383766E0
1.426611954E0,4.300877094E0,3.056016684E0,9.091665268E0
1.428633829E0,4.426352024E0,2.953084946E0,8.984740257E0
1.430660392E0,4.546656132E0,2.861214638E0,8.856534958E0
1.432619767E0,4.651503086E0,2.769469023E0,8.756620407E0
1.434610392E0,4.753639698E0,2.687989473E0,8.621031761E0
1.436611954E0,4.859894276E0,2.630557299E0,8.516979218E0
1.438610392E0,4.958707333E0,2.585316420E0,8.382971764E0
1.440611954E0,5.061533928E0,2.558970690E0,8.252745628E0
1.442611954E0,5.165490150E0,2.548436165E0,8.124656677E0
1.444619767E0,5.258557796E0,2.553502083E0,7.994258881E0
1.446610392E0,5.356518745E0,2.569036007E0,7.854782104E0
1.448610392E0,5.476238251E0,2.590880632E0,7.654138088E0
1.450611954E0,5.579744816E0,2.613357306E0,7.528442860E0
1.452611954E0,5.681287766E0,2.628814220E0,7.402976990E0
1.454611954E0,5.775848866E0,2.642241001E0,7.316785812E0
1.456610392E0,5.867067814E0,2.643993616E0,7.248991489E0
1.458611954E0,5.967269897E0,2.648207188E0,7.197966099E0
1.460613517E0,6.070594311E0,2.652172089E0,7.165050983E0
1.462649454E0,6.185439587E0,2.672273874E0,7.148233891E0
1.464610392E0,6.290477753E0,2.690326214E0,7.135295868E0
1.466615079E0,6.376640320E0,2.718730927E0,7.079817295E0
1.468621329E0,6.487501621E0,2.750066280E0,6.983445644E0
1.470611954E0,6.555046558E0,2.762947083E0,6.859215260E0
1.472616642E0,6.611942291E0,2.768319607E0,6.728396416E0
1.474615079E0,6.685204983E0,2.763713121E0,6.560314178E0
1.476624454E0,6.763763905E0,2.745220423E0,6.387893200E0
1.478615079E0,6.837926388E0,2.734829664E0,6.268240452E0
1.480611954E0,6.909215927E0,2.730864763E0,6.171361446E0
1.482610392E0,6.985447407E0,2.720550537E0,6.124751091E0
1.484649454E0,7.077030182E0,2.725779533E0,6.069224834E0
1.486610392E0,7.186033726E0,2.731851101E0,6.054447651E0
1.488622892E0,7.231399059E0,2.728010893E0,6.073141575E0
1.490663517E0,7.278641224E0,2.727187157E0,6.100617886E0
1.492618204E0,7.316431522E0,2.711031199E0,6.107311726E0
1.494649454E0,7.373422623E0,2.692979097E0,6.144009590E0
1.496618204E0,7.418175220E0,2.651836872E0,6.163929462E0
1.498618204E0,7.458943844E0,2.607094049E0,6.181771278E0
1.500647892E0,7.491035461E0,2.530604362E0,6.186847210E0
1.502663517E0,7.534811497E0,2.456671238E0,6.188254833E0
1.504636954E0,7.583662510E0,2.353883266E0,6.184625149E0
1.506610392E0,7.666731834E0,2.218582392E0,6.159055233E0
1.508626017E0,7.737562180E0,2.121205330E0,6.154573441E0
1.510638517E0,7.792762756E0,2.011253834E0,6.148453712E0
1.512655704E0,7.846823692E0,1.921011686E0,6.187613487E0
1.514613517E0,7.884038925E0,1.825540543E0,6.222166538E0
1.516627579E0,7.902186871E0,1.742701054E0,6.269456387E0
1.518610392E0,7.946508884E0,1.643360853E0,6.305858135E0
1.520610392E0,7.939086437E0,1.468737483E0,6.689169884E0
1.522610392E0,7.891547203E0,1.447591782E0,6.947034836E0
1.524618204E0,7.824001789E0,1.473171473E0,7.130842209E0
1.526611954E0,7.755681038E0,1.517789841E0,7.298187733E0
1.528611954E0,7.687417984E0,1.564495802E0,7.460983753E0
1.530615079E0,7.593976974E0,1.595850348E0,7.608772755E0
1.532610392E0,7.503561974E0,1.611843586E0,7.716493130E0
1.534654142E0,7.430117607E0,1.596606970E0,7.791967869E0
1.536611954E0,7.380490780E0,1.575049520E0,7.830275059E0
1.538621329E0,7.323326588E0,1.512522578E0,7.848001480E0
1.540611954E0,7.276716232E0,1.436281562E0,7.826875210E0
1.542610392E0,7.224072933E0,1.323639154E0,7.782381535E0
1.544611954E0,7.180335522E0,1.194831133E0,7.717115402E0
1.546611954E0,7.139384747E0,1.068292856E0,7.628319263E0
1.548621329E0,7.104697704E0,9.245162010E-1,7.540107250E0
1.550616642E0,7.080861092E0,7.598046660E-1,7.431458473E0
1.552611954E0,7.046920776E0,6.510026455E-1,7.360657215E0
1.554613517E0,7.005558491E0,4.741381109E-1,7.243331432E0
1.556611954E0,6.945033073E0,3.057970405E-1,7.133993149E0
1.558626017E0,6.864425182E0,1.378964335E-1,7.044842720E0
1.560610392E0,6.760095596E0,-3.365290165E-2,6.964014530E0
1.562611954E0,6.650058270E0,-1.770751625E-1,6.891211510E0
1.564610392E0,6.484091759E0,-3.150961101E-1,6.818696022E0
1.566611954E0,6.308750153E0,-4.351988137E-1,6.771204472E0
1.568611954E0,6.144690037E0,-5.424399376E-1,6.743872643E0
1.570610392E0,6.002598763E0,-5.928235054E-1,6.734879971E0
1.572615079E0,5.881069183E0,-6.037697792E-1,6.747051716E0
1.574610392E0,5.762345791E0,-6.073994040E-1,6.785656452E0
1.576610392E0,5.660687447E0,-6.026588678E-1,6.828215122E0
1.578655704E0,5.607986450E0,-6.006382108E-1,6.836211681E0
1.580613517E0,5.543084621E0,-5.970085263E-1,6.806667328E0
1.582611954E0,5.501559734E0,-5.935896635E-1,6.708859921E0
1.584611954E0,5.456203461E0,-6.073132157E-1,6.574908733E0
1.586611954E0,5.425251484E0,-6.218412519E-1,6.439837456E0
1.588610392E0,5.392086983E0,-6.509643197E-1,6.262207031E0
1.590610392E0,5.390018463E0,-7.072376013E-1,6.147151470E0
1.592610392E0,5.422751904E0,-7.609347701E-1,6.020928860E0
1.594611954E0,5.478287697E0,-8.082442284E-1,5.892379284E0
1.596611954E0,5.560380459E0,-8.465514183E-1,5.763925552E0
1.598611954E0,5.711157322E0,-8.671128154E-1,5.555601597E0
1.600613517E0,5.847052097E0,-8.643642664E-1,5.379512787E0
1.602611954E0,5.990656853E0,-8.528816700E-1,5.210223675E0
1.604611954E0,6.131837845E0,-8.134252429E-1,5.092945576E0
1.606619767E0,6.269820213E0,-7.471824884E-1,5.029058933E0
1.608611954E0,6.396387577E0,-6.600526571E-1,5.044180870E0
1.610611954E0,6.489876270E0,-5.588067174E-1,5.122289181E0
1.612616642E0,6.585002899E0,-4.165815115E-1,5.260252476E0
1.614610392E0,6.680186749E0,-2.551069856E-1,5.446846962E0
1.616610392E0,6.763926506E0,-7.926722616E-2,5.657757282E0
1.618621329E0,6.879786491E0,1.473487616E-1,5.965785503E0
1.620615079E0,6.979146004E0,2.879937291E-1,6.169388771E0
1.622616642E0,7.090677261E0,3.949762583E-1,6.338121891E0
1.624627579E0,7.226802349E0,4.742242992E-1,6.476784706E0
1.626610392E0,7.347661018E0,5.071398020E-1,6.567458153E0
1.628611954E0,7.490537643E0,5.114972591E-1,6.575904846E0
1.630611954E0,7.592798710E0,4.951783717E-1,6.543812752E0
1.632610392E0,7.647511005E0,4.557123482E-1,6.443275452E0
1.634649454E0,7.662786007E0,4.021875858E-1,6.317273617E0
1.636615079E0,7.645260811E0,3.359735310E-1,6.190438271E0
1.638611954E0,7.556512356E0,2.469666898E-1,6.040034771E0
1.640618204E0,7.424946308E0,1.749012321E-1,5.921234608E0
1.642611954E0,7.273259163E0,1.011119261E-1,5.834066391E0
1.644611954E0,7.110846043E0,4.972278327E-2,5.774603844E0
1.646610392E0,6.948088169E0,2.009214088E-2,5.714058876E0
1.648610392E0,6.731403351E0,1.409705915E-2,5.623826504E0
1.650621329E0,6.592817307E0,3.689943627E-2,5.528594494E0
1.652638517E0,6.475913525E0,7.165367156E-2,5.414544582E0
1.654624454E0,6.377157211E0,1.359906644E-1,5.282614708E0
1.656615079E0,6.297574043E0,2.033922225E-1,5.135409355E0
1.658610392E0,6.248857021E0,3.223457336E-1,4.938385963E0
1.660629142E0,6.233859539E0,3.830147982E-1,4.837110996E0
1.662618204E0,6.218258858E0,5.153279901E-1,4.608330727E0
1.664610392E0,6.229406357E0,6.225977540E-1,4.426802158E0
1.666610392E0,6.251203060E0,7.399423718E-1,4.245111465E0
1.668649454E0,6.278784275E0,8.448371291E-1,4.114177227E0
1.670610392E0,6.301548481E0,9.716532826E-1,3.952319384E0
1.672611954E0,6.328698635E0,1.057317734E0,3.829200029E0
1.674610392E0,6.353090763E0,1.130474925E0,3.725253344E0
1.676616642E0,6.369428635E0,1.201123118E0,3.633957863E0
1.678636954E0,6.411863804E0,1.271924496E0,3.555150032E0
1.680611954E0,6.471488953E0,1.349247575E0,3.451404572E0
1.682610392E0,6.535509586E0,1.408250213E0,3.396692038E0
1.684610392E0,6.615361214E0,1.474818707E0,3.336281776E0
1.686615079E0,6.709146976E0,1.536493301E0,3.283915758E0
1.688610392E0,6.802290916E0,1.599393845E0,3.238282204E0
1.690610392E0,6.939737320E0,1.876575351E0,3.320211887E0
1.692610392E0,6.920028210E0,2.004253387E0,3.442680120E0
1.694611954E0,6.902368546E0,2.102080345E0,3.557496309E0
1.696610392E0,6.863084316E0,2.184565544E0,3.687875032E0
1.698611954E0,6.845779419E0,2.253671646E0,3.810180426E0
1.700616642E0,6.798776150E0,2.334270000E0,3.933060646E0
1.702618204E0,6.748296738E0,2.386348724E0,3.994658470E0
1.704611954E0,6.693162918E0,2.430899858E0,4.026999474E0
1.706611954E0,6.620771885E0,2.465883970E0,4.054197311E0
1.708618204E0,6.547921181E0,2.509018183E0,4.069750309E0
1.710671329E0,6.460513592E0,2.561748028E0,4.044754982E0
1.712624454E0,6.365847111E0,2.615655661E0,4.000155449E0
1.714615079E0,6.272597790E0,2.657506466E0,3.947780132E0
1.716611954E0,6.167894363E0,2.728413105E0,3.861665249E0
1.718624454E0,6.061879158E0,2.804730654E0,3.754635096E0
1.720611954E0,5.992677212E0,2.850775957E0,3.683383465E0
1.722611954E0,5.885512829E0,2.919671535E0,3.576113701E0
1.724610392E0,5.787436485E0,2.992330790E0,3.446041584E0
1.726621329E0,5.692396641E0,3.071033001E0,3.311420441E0
1.728611954E0,5.575636387E0,3.147340775E0,3.176138401E0
1.730652579E0,5.453790665E0,3.253911734E0,3.035512447E0
1.732626017E0,5.259572983E0,3.392823219E0,2.870264530E0
1.734644767E0,5.104658127E0,3.510943651E0,2.749664068E0
1.736611954E0,4.947407246E0,3.619707346E0,2.642853975E0
1.738619767E0,4.777045250E0,3.736209154E0,2.555896521E0
1.740621329E0,4.625463486E0,3.859931946E0,2.488743782E0
1.742610392E0,4.490574360E0,3.991929293E0,2.420624018E0
1.744611954E0,4.347573280E0,4.173160553E0,2.350952864E0
1.746611954E0,4.259255886E0,4.291625500E0,2.318832159E0
1.748622892E0,4.186395645E0,4.407026291E0,2.298739910E0
1.750621329E0,4.133953094E0,4.519869804E0,2.282143593E0
1.752627579E0,4.093136787E0,4.622389793E0,2.297868729E0
1.754611954E0,4.054159164E0,4.706684589E0,2.323093891E0
1.756632267E0,4.015650749E0,4.763139725E0,2.355578423E0
1.758619767E0,3.986594677E0,4.800815105E0,2.381531477E0
1.760621329E0,3.969107628E0,4.829258442E0,2.436282158E0
1.762611954E0,3.964051008E0,4.845433235E0,2.488198042E0
1.764611954E0,3.978732109E0,4.846410275E0,2.543197870E0
1.766621329E0,4.010259151E0,4.841324806E0,2.580298185E0
1.768643204E0,4.083205700E0,4.819489956E0,2.638553858E0
1.770610392E0,4.182660580E0,4.780722618E0,2.696943521E0
1.772610392E0,4.301259995E0,4.746830463E0,2.754184246E0
1.774610392E0,4.389605999E0,4.707986832E0,2.792510748E0
1.776622892E0,4.550123215E0,4.642424107E0,2.840069056E0
1.778610392E0,4.793431282E0,4.536628723E0,2.878328323E0
1.780615079E0,4.926596642E0,4.480958939E0,2.890385628E0
1.782624454E0,5.220643044E0,4.365376472E0,2.904482603E0
1.784626017E0,5.459938526E0,4.296231747E0,2.882130384E0
1.786610392E0,5.673731327E0,4.236549377E0,2.863063097E0
1.788610392E0,5.978513241E0,4.158987045E0,2.833365202E0
1.790611954E0,6.213097095E0,4.106563568E0,2.798429251E0
1.792615079E0,6.447556496E0,4.068236828E0,2.764029264E0
1.794622892E0,6.670839787E0,4.037945747E0,2.702795267E0
1.796611954E0,6.892284393E0,4.012375355E0,2.631936312E0
1.798610392E0,7.091912746E0,3.992762089E0,2.552879810E0
1.800622892E0,7.354317188E0,3.981911898E0,2.474953413E0
1.802611954E0,7.540969372E0,3.968801022E0,2.416285992E0
1.804610392E0,7.710268021E0,3.964683056E0,2.372787952E0
1.806611954E0,7.871579647E0,3.961130142E0,2.330726624E0
1.808610392E0,8.018114090E0,3.961024761E0,2.284480333E0
1.810611954E0,8.195563316E0,3.951534271E0,2.242007017E0
1.812610392E0,8.325549126E0,3.943048954E0,2.207482576E0
1.814610392E0,8.442357063E0,3.929200888E0,2.177488089E0
1.816610392E0,8.549302101E0,3.906686068E0,2.143471479E0
1.818618204E0,8.654377937E0,3.886996031E0,2.110728264E0
1.820619767E0,8.746747017E0,3.873176813E0,2.079306602E0
1.822663517E0,8.841595650E0,3.839035511E0,2.034324408E0
1.824626017E0,8.896307945E0,3.811971426E0,2.004952431E0
1.826618204E0,8.933714867E0,3.801379442E0,1.985674262E0
1.828633829E0,8.959878922E0,3.792463303E0,1.970897198E0
1.830610392E0,8.960577011E0,3.789111614E0,1.980071902E0
1.832613517E0,8.949295998E0,3.779132605E0,2.009702444E0
1.834610392E0,8.902207375E0,3.759346724E0,2.093087673E0
1.836611954E0,8.815939903E0,3.751455545E0,2.195789337E0
1.838611954E0,8.762299538E0,3.746044636E0,2.257042646E0
1.840610392E0,8.687495232E0,3.741763592E0,2.356325388E0
1.842646329E0,8.601917267E0,3.725425720E0,2.472214460E0
1.844610392E0,8.454616547E0,3.675128460E0,2.630930901E0
1.846626017E0,8.338602066E0,3.636773109E0,2.745363951E0
1.848613517E0,8.236906052E0,3.610800982E0,2.853591442E0
1.850621329E0,8.122118950E0,3.546827793E0,2.951389790E0
1.852611954E0,7.755997181E0,3.321725130E0,3.140809536E0
1.854616642E0,7.613819599E0,3.235275030E0,3.108325005E0
1.856610392E0,7.535749912E0,3.216265202E0,3.057070017E0
1.858610392E0,7.467256546E0,3.205089092E0,2.994456768E0
1.860626017E0,7.443602085E0,3.242515087E0,2.934400558E0
1.862610392E0,7.434637547E0,3.290868759E0,2.873827457E0
1.864611954E0,7.476919651E0,3.347553730E0,2.842061043E0
1.866624454E0,7.541533947E0,3.419370174E0,2.830013514E0
1.868611954E0,7.627333164E0,3.500360966E0,2.839456320E0
1.870611954E0,7.726567745E0,3.573039532E0,2.839963913E0
1.872611954E0,7.822986603E0,3.621814251E0,2.845231056E0
1.874626017E0,7.940848827E0,3.644185781E0,2.832426786E0
1.876611954E0,8.041749954E0,3.666662455E0,2.796782017E0
1.878611954E0,8.146089554E0,3.678058863E0,2.716394186E0
1.880611954E0,8.255159378E0,3.694224596E0,2.615397215E0
1.882611954E0,8.393257141E0,3.698850155E0,2.509544611E0
1.884610392E0,8.494311333E0,3.695651293E0,2.459544182E0
1.886618204E0,8.662796021E0,3.712315083E0,2.400187254E0
1.888611954E0,8.836328506E0,3.729610920E0,2.356603384E0
1.890610392E0,9.106355667E0,3.781143665E0,2.328255892E0
1.892611954E0,9.255112648E0,3.807345629E0,2.326033831E0
1.894621329E0,9.471184731E0,3.847367287E0,2.350502729E0
1.896611954E0,9.689401627E0,3.892158031E0,2.363613367E0
1.898615079E0,9.910463333E0,3.946602106E0,2.388963223E0
1.900611954E0,1.014042091E1,3.992254734E0,2.423688650E0
1.902611954E0,1.036990070E1,4.030628681E0,2.446337938E0
1.904610392E0,1.059930325E1,4.054446697E0,2.467770815E0
1.906610392E0,1.081845856E1,4.071291924E0,2.476562262E0
1.908621329E0,1.103058529E1,4.073235989E0,2.494729519E0
1.910633829E0,1.123292351E1,4.068658352E0,2.511259079E0
1.912613517E0,1.143016815E1,4.057271957E0,2.554699421E0
1.914629142E0,1.158672905E1,4.038252354E0,2.600945711E0
1.916674454E0,1.166536427E1,4.032304764E0,2.640928984E0
1.918618204E0,1.177336216E1,4.024375439E0,2.706003428E0
1.920610392E0,1.185452557E1,4.016043663E0,2.773308992E0
1.922610392E0,1.190255356E1,4.001362324E0,2.855267525E0
1.924610392E0,1.194709492E1,3.991689682E0,2.949282885E0
1.926610392E0,1.195271683E1,3.977056503E0,3.049896955E0
1.928622892E0,1.194970036E1,3.962442160E0,3.152857065E0
1.930616642E0,1.194187641E1,3.942924500E0,3.274396420E0
1.932632267E0,1.191036797E1,3.911321163E0,3.375766754E0
1.934611954E0,1.184311008E1,3.875590086E0,3.502075434E0
1.936640079E0,1.176263714E1,3.832685947E0,3.582779408E0
1.938622892E0,1.166995239E1,3.792099476E0,3.634130239E0
1.940610392E0,1.157923985E1,3.743075609E0,3.670512199E0
1.942611954E0,1.148011112E1,3.699530125E0,3.673787594E0
1.944615079E0,1.135661793E1,3.639703512E0,3.656970739E0
1.946627579E0,1.128899574E1,3.600946188E0,3.628058434E0
1.948611954E0,1.122127819E1,3.566919804E0,3.593993664E0
1.950610392E0,1.114982605E1,3.542010784E0,3.538697243E0
1.952613517E0,1.110292912E1,3.525787592E0,3.463528872E0
1.954610392E0,1.106967735E1,3.519495487E0,3.372242689E0
1.956622892E0,1.103584290E1,3.510895729E0,3.267300129E0
1.958611954E0,1.102024174E1,3.511767149E0,3.174385786E0
1.960613517E0,1.101113510E1,3.512456894E0,3.090052605E0
1.962610392E0,1.100520706E1,3.504900694E0,3.010028601E0
1.964613517E0,1.097159195E1,3.330449581E0,2.543216705E0
1.966613517E0,1.106451607E1,2.991047382E0,1.821767211E0
1.968611954E0,1.108706951E1,3.075993538E0,1.945537806E0
1.970611954E0,1.099083233E1,3.185868502E0,2.159474134E0
1.972610392E0,1.089813805E1,3.329558849E0,2.433878422E0
1.974632267E0,1.083591652E1,3.432499886E0,2.550523996E0
1.976643204E0,1.078191376E1,3.500524044E0,2.514879227E0
1.978610392E0,1.074510098E1,3.586801529E0,2.539807320E0
1.980619767E0,1.072319794E1,3.609421968E0,2.530211449E0
1.982611954E0,1.068311882E1,3.632559299E0,2.500322342E0
1.984663517E0,1.065824890E1,3.627541304E0,2.453118086E0
1.986610392E0,1.064969635E1,3.614018917E0,2.366141558E0
1.988624454E0,1.065265560E1,3.617724895E0,2.381100655E0
1.990610392E0,1.067601395E1,3.629485369E0,2.397256613E0
1.992610392E0,1.070827770E1,3.659614086E0,2.431311846E0
1.994610392E0,1.069341469E1,3.750708580E0,2.441453695E0
1.996640079E0,1.058358765E1,3.873157501E0,2.500216961E0
1.998655704E0,1.062110901E1,3.868608713E0,2.642039776E0
2.000616642E0,1.087214661E1,3.787693977E0,2.848860502E0
2.002616642E0,1.098985577E1,3.706588030E0,3.037791729E0
2.004633829E0,1.086689854E1,3.683115482E0,3.211065054E0
2.006618204E0,1.070739651E1,3.747212887E0,3.365778208E0
2.008660392E0,1.078629017E1,3.813235283E0,3.384979725E0
2.010613517E0,1.097802734E1,3.884822130E0,3.342937708E0
2.012657267E0,1.116678619E1,3.956437588E0,3.221130133E0
2.014611954E0,1.136016083E1,4.041182518E0,3.032955647E0
2.016610392E0,1.140705872E1,4.093328476E0,2.854664087E0
2.018610392E0,1.142026520E1,4.155213833E0,2.680050373E0
2.020610392E0,1.145613098E1,4.189517498E0,2.500925541E0
2.022610392E0,1.171595860E1,4.293416500E0,2.166723967E0
2.024611954E0,1.179291821E1,4.292631149E0,2.104388475E0
2.026610392E0,1.181757832E1,4.290543556E0,2.098862648E0
2.028610392E0,1.180902672E1,4.305693626E0,2.127822638E0
2.030636954E0,1.177974033E1,4.296107292E0,2.211830616E0
2.032610392E0,1.175977230E1,4.281072140E0,2.284748316E0
2.034663517E0,1.175701427E1,4.284739971E0,2.350378275E0
2.036627579E0,1.175463009E1,4.282441616E0,2.405761003E0
2.038636954E0,1.173411655E1,4.300503254E0,2.423200130E0
2.040661954E0,1.171419716E1,4.313001156E0,2.406000137E0
2.042613517E0,1.169569397E1,4.323421001E0,2.371150494E0
2.044622892E0,1.168346500E1,4.341128349E0,2.349525928E0
2.046613517E0,1.169046593E1,4.369112015E0,2.316198587E0
2.048636954E0,1.165425587E1,4.360732079E0,2.263784647E0
2.050630704E0,1.160527992E1,4.204409599E0,2.386137962E0
2.052610392E0,1.159783840E1,3.966263294E0,2.593609810E0
2.054611954E0,1.161570930E1,3.662324190E0,2.828260899E0
2.056621329E0,1.157811069E1,3.480020046E0,2.902509689E0
2.058611954E0,1.149792385E1,3.359610796E0,2.915371656E0
2.060610392E0,1.139062500E1,3.303701401E0,2.852997780E0
2.062610392E0,1.125118637E1,3.315480947E0,2.741466284E0
2.064610392E0,1.108334351E1,3.351930141E0,2.549298048E0
2.066610392E0,1.091117191E1,3.417426109E0,2.329749823E0
2.068611954E0,1.077932835E1,3.524427652E0,2.078368187E0
2.070610392E0,1.068649960E1,3.653580666E0,1.828719974E0
2.072618204E0,1.064569378E1,3.799377918E0,1.575892329E0
2.074613517E0,1.064065647E1,3.973388433E0,1.280419111E0
2.076638517E0,1.064554977E1,4.158718586E0,9.771023989E-1
2.078621329E0,1.069612503E1,4.344097137E0,7.448936105E-1
2.080619767E0,1.077364922E1,4.521976471E0,6.921062469E-1
2.082613517E0,1.086145878E1,4.683154106E0,6.454288960E-1
2.084649454E0,1.096229267E1,4.818694592E0,5.415588617E-1
2.086618204E0,1.107619953E1,4.919126987E0,4.677790999E-1
2.088635392E0,1.118501186E1,4.976079941E0,3.580097556E-1
2.090610392E0,1.132227516E1,5.003469944E0,3.298539519E-1
2.092611954E0,1.139585495E1,5.008535862E0,4.345093071E-1
2.094615079E0,1.147080231E1,5.006620407E0,5.168315172E-1
2.096610392E0,1.155649471E1,4.971866131E0,5.090072751E-1
2.098626017E0,1.163032341E1,4.900461197E0,4.218966365E-1
2.100616642E0,1.168959332E1,4.783950329E0,3.235811591E-1
2.102611954E0,1.171729946E1,4.599194527E0,2.511421740E-1
2.104611954E0,1.173106194E1,4.429263592E0,2.496960908E-1
2.106610392E0,1.178658772E1,4.257446289E0,2.967182100E-1
2.108611954E0,1.186054993E1,4.067480564E0,2.868636847E-1
2.110610392E0,1.186536694E1,3.867717981E0,1.499249041E-1
2.112626017E0,1.183766079E1,3.675214529E0,1.072506532E-1
2.114610392E0,1.179705524E1,3.515253067E0,2.196344882E-1
2.116621329E0,1.176480103E1,3.410549879E0,4.080677629E-1
2.118610392E0,1.170172787E1,3.358375549E0,6.216688156E-1
2.120610392E0,1.161306572E1,3.338120699E0,8.774175048E-1
2.122610392E0,1.156098747E1,3.386857033E0,1.150758624E0
2.124610392E0,1.147681618E1,3.454775572E0,1.367299795E0
2.126615079E0,1.135599518E1,3.541493654E0,1.542028666E0
2.128626017E0,1.119314194E1,3.608703613E0,1.678000212E0
2.130616642E0,1.101950455E1,3.684743404E0,1.809767485E0
2.132610392E0,1.091946602E1,3.742683172E0,1.913896084E0
2.134610392E0,1.078675938E1,3.836650848E0,2.105106592E0
2.136611954E0,1.068181705E1,3.950576305E0,2.284260035E0
2.138610392E0,1.049051094E1,4.118716240E0,2.452648878E0
2.140610392E0,1.017533779E1,4.232508183E0,2.494451761E0
2.142611954E0,9.910443306E0,4.374733448E0,2.505129814E0
2.144611954E0,9.727000237E0,4.509296894E0,2.508491278E0
2.146611954E0,9.522937775E0,4.628327370E0,2.493177891E0
2.148610392E0,9.108788490E0,4.659327030E0,2.393473864E0
2.150610392E0,9.148838997E0,4.798142910E0,2.394000530E0
2.152621329E0,9.550393105E0,4.982027531E0,2.440496206E0
2.154610392E0,1.020494080E1,5.209208488E0,2.348165989E0
2.156618204E0,1.032512856E1,5.240572453E0,2.137246370E0
2.158610392E0,1.010773563E1,5.235458374E0,1.837549806E0
2.160610392E0,9.527304649E0,5.103557110E0,1.549661398E0
2.162615079E0,8.990074158E0,4.782532692E0,1.513144970E0
2.164610392E0,8.837821960E0,4.450342178E0,1.645841360E0
2.166611954E0,8.710192680E0,4.109446526E0,1.792222738E0
2.168627579E0,8.242499352E0,3.771001816E0,1.937905192E0
2.170610392E0,8.058978081E0,3.675539970E0,1.984821916E0
2.172616642E0,7.796229362E0,3.621124744E0,2.071654797E0
2.174611954E0,8.318050385E0,3.771576405E0,2.252417088E0
2.176615079E0,9.213855743E0,3.945165634E0,2.556135893E0
2.178610392E0,9.915778160E0,4.043241501E0,2.670530796E0
2.180610392E0,7.865996361E0,2.924795151E0,1.671239018E0
2.182610392E0,7.544321060E0,2.491214752E0,2.136930466E0
2.184627579E0,7.428987980E0,2.360242367E0,2.418306589E0
2.186611954E0,7.397585392E0,2.344363928E0,2.504593611E0
2.188610392E0,7.470952988E0,2.392487526E0,2.577865839E0
2.190611954E0,7.551226139E0,2.376982689E0,2.682502031E0
2.192611954E0,7.563809872E0,2.403357267E0,2.556346655E0
2.194613517E0,7.618550777E0,2.411756039E0,2.424493074E0
2.196610392E0,7.756370544E0,2.390313387E0,2.461402178E0
2.198611954E0,7.945369244E0,2.351077318E0,2.576716661E0
2.200610392E0,8.190362930E0,2.286127329E0,2.608482599E0
2.202610392E0,8.469689369E0,2.210700512E0,2.495371103E0
2.204610392E0,8.719692230E0,2.148537397E0,2.263947487E0
2.206618204E0,8.944057465E0,2.085962534E0,2.027783394E0
2.208610392E0,9.128669739E0,2.002902985E0,1.769286394E0
2.210646329E0,9.304499626E0,1.941984892E0,1.615252972E0
2.212635392E0,9.470944405E0,1.891630054E0,1.639855862E0
2.214638517E0,9.616847992E0,1.861635447E0,1.752402425E0
2.216616642E0,9.727488518E0,1.826373696E0,1.830932260E0
2.218613517E0,9.789211273E0,1.748686671E0,1.539893031E0
2.220655704E0,9.790858269E0,1.662744403E0,1.152769804E0
2.222633829E0,9.743242264E0,1.575509310E0,7.529572845E-1
2.224610392E0,9.615832329E0,1.471801996E0,5.668511987E-2
2.226633829E0,9.549446106E0,1.399937630E0,-4.782561660E-1
2.228610392E0,9.520869255E0,1.365116358E0,-8.451340199E-1
2.230610392E0,9.555278778E0,1.365317464E0,-9.316413403E-1
2.232610392E0,9.674815178E0,1.372528791E0,-7.421450615E-1
2.234615079E0,9.858182907E0,1.364359736E0,-3.668491542E-1
2.236610392E0,9.969350815E0,1.378006697E0,5.669469945E-3
2.238610392E0,1.017215824E1,1.387593150E0,6.943759918E-1
2.240611954E0,1.044143963E1,1.406938195E0,1.577759743E0
2.242618204E0,1.074810696E1,1.449966788E0,2.525193453E0
2.244616642E0,1.105655766E1,1.508165121E0,3.457131624E0
2.246619767E0,1.133670807E1,1.596118569E0,4.250895500E0
2.248610392E0,1.158376122E1,1.687337637E0,4.880551338E0
2.250611954E0,1.173724842E1,1.807986259E0,5.341971874E0
2.252611954E0,1.176453209E1,1.921758652E0,5.626852989E0
2.254611954E0,1.167622471E1,2.059434891E0,5.754463673E0
2.256621329E0,1.160101891E1,2.234747887E0,5.752998352E0
2.258618204E0,1.149144077E1,2.407053709E0,5.568606853E0
2.260611954E0,1.110789871E1,2.547401905E0,5.215289593E0
2.262611954E0,1.069869137E1,2.691456318E0,4.766855240E0
2.264613517E0,1.055140972E1,2.881900549E0,4.301460743E0
2.266629142E0,1.021691132E1,3.151344061E0,3.619056225E0
2.268611954E0,9.767184258E0,3.316400290E0,3.115440607E0
2.270610392E0,9.412976265E0,3.502841473E0,2.599011183E0
2.272613517E0,8.916208267E0,3.663233995E0,2.155758381E0
2.274616642E0,8.437425613E0,3.814250708E0,1.835825920E0
2.276610392E0,8.184492111E0,3.974355698E0,1.592948556E0
2.278621329E0,7.940063477E0,4.126282215E0,1.412435293E0
2.280618204E0,7.567746162E0,4.301968575E0,1.204771876E0
2.282616642E0,7.296348572E0,4.405608654E0,1.088672280E0
2.284613517E0,7.218939304E0,4.516096592E0,9.827527404E-1
2.286611954E0,7.129549980E0,4.614680290E0,9.001144767E-1
2.288615079E0,7.147774220E0,4.704826832E0,8.367543221E-1
2.290610392E0,7.549310684E0,4.826979160E0,8.289109468E-1
2.292638517E0,7.811082840E0,4.892331123E0,7.962348461E-1
2.294610392E0,7.879403591E0,4.923742771E0,6.865804195E-1
2.296610392E0,7.985045910E0,4.924528122E0,5.721950531E-1
2.298615079E0,8.006449699E0,4.858879089E0,4.493916631E-1
2.300622892E0,7.850654125E0,4.762402534E0,2.733316422E-1
2.302638517E0,7.513139248E0,4.617399693E0,7.301357388E-2
2.304611954E0,7.553160667E0,4.518375874E0,-2.124135755E-2
2.306646329E0,7.642330170E0,4.437154770E0,-1.004415527E-1
2.308616642E0,7.629037380E0,4.365558624E0,-1.803504229E-1
2.310682267E0,7.524343967E0,4.277451992E0,-2.196536362E-1
2.312610392E0,7.731806278E0,4.222280502E0,-2.289910316E-1
2.314619767E0,7.947370529E0,4.182814121E0,-2.969576120E-1
2.316627579E0,7.738893032E0,4.078503609E0,-3.624534011E-1
2.318622892E0,7.705670834E0,4.011168957E0,-4.124730825E-1
2.320610392E0,7.823437214E0,3.919796705E0,-4.546397328E-1
2.322618204E0,7.844985008E0,3.878166199E0,-4.634791613E-1
2.324616642E0,7.776127815E0,3.788565636E0,-5.365310311E-1
2.326610392E0,7.698833466E0,3.727522850E0,-5.936662555E-1
2.328646329E0,7.788960457E0,3.667667866E0,-5.805268288E-1
2.330622892E0,7.996978283E0,3.640287876E0,-5.538362861E-1
2.332610392E0,7.887036800E0,3.552746296E0,-5.139009953E-1
2.334610392E0,7.772335529E0,3.524734020E0,-6.080505848E-1
2.336610392E0,7.470158100E0,3.440946817E0,-6.020172238E-1
2.338666642E0,7.457009315E0,3.405962706E0,-4.976587594E-1
2.340643204E0,7.478518963E0,3.400542259E0,-4.462696314E-1
2.342610392E0,7.135554314E0,3.350206614E0,-3.390285373E-1
2.344610392E0,7.240487099E0,3.377366304E0,-1.712907702E-1
2.346610392E0,7.492644310E0,3.454536200E0,1.586876810E-2
2.348640079E0,7.509423256E0,3.486541748E0,1.347552538E-1
2.350610392E0,7.454107285E0,3.515291452E0,2.222297937E-1
2.352610392E0,7.672640800E0,3.754491568E0,3.616010845E-1
2.354622892E0,7.693996906E0,3.874412060E0,2.572138608E-1
2.356624454E0,7.774289131E0,3.952032328E0,2.143289298E-1
2.358610392E0,7.858967304E0,4.061351299E0,1.587834656E-1
2.360611954E0,7.977738857E0,4.163439751E0,9.500192106E-2
2.362611954E0,8.081254005E0,4.265021324E0,3.035847656E-2
2.364610392E0,8.172320366E0,4.357973576E0,-1.052491087E-2
2.366610392E0,8.239462852E0,4.418891907E0,-4.405330867E-2
2.368610392E0,8.296760559E0,4.482587337E0,-5.112099275E-2
2.370611954E0,8.340948105E0,4.532817364E0,-2.897941694E-2
2.372624454E0,8.380184174E0,4.561155319E0,7.173028309E-3
2.374613517E0,8.411146164E0,4.570942879E0,5.115929991E-2
2.376611954E0,8.451522827E0,4.567179203E0,1.032667086E-1
2.378611954E0,8.483412743E0,4.563932419E0,1.591282189E-1
2.380610392E0,8.514049530E0,4.562361717E0,1.898601949E-1
2.382658829E0,8.551686287E0,4.540737629E0,2.297763228E-1
2.384674454E0,8.557729721E0,4.534972191E0,2.505962849E-1
2.386627579E0,8.572850227E0,4.520952225E0,2.857623398E-1
2.388615079E0,8.567353249E0,4.488524914E0,3.426198363E-1
2.390622892E0,8.564872742E0,4.480595112E0,3.890481889E-1
2.392611954E0,8.556139946E0,4.471813679E0,4.217242599E-1
2.394622892E0,8.540549278E0,4.448015213E0,4.806407690E-1
2.396611954E0,8.520848274E0,4.417876720E0,5.293197036E-1
2.398615079E0,8.533394814E0,4.392163277E0,5.980811715E-1
2.400611954E0,8.542243004E0,4.380125046E0,6.807768941E-1
2.402613517E0,8.547405243E0,4.365319252E0,7.560697794E-1
2.404621329E0,8.579525948E0,4.356412411E0,8.194777966E-1
2.406621329E0,8.582025528E0,4.334395409E0,8.716426492E-1
2.408610392E0,8.597157478E0,4.321744442E0,9.270923734E-1
2.410611954E0,8.615304947E0,4.311593056E0,9.687802196E-1
2.412610392E0,8.638930321E0,4.303194523E0,1.009127259E0
2.414616642E0,8.664117813E0,4.285630703E0,1.041065931E0
2.416610392E0,8.684564590E0,4.268814087E0,1.072793961E0
2.418611954E0,8.687236786E0,4.235362053E0,1.111982226E0
2.420610392E0,8.700835228E0,4.206257820E0,1.170764685E0
2.422611954E0,8.713974953E0,4.160088539E0,1.217959166E0
2.424610392E0,8.728397369E0,4.110183716E0,1.248317599E0
2.426613517E0,8.739678383E0,4.078197002E0,1.284240246E0
2.428610392E0,8.750606537E0,4.031653881E0,1.305606127E0
2.430610392E0,8.745597839E0,3.992704868E0,1.332057238E0
2.432621329E0,8.754819870E0,3.944964409E0,1.342352271E0
2.434611954E0,8.785590172E0,3.954675198E0,1.302235007E0
2.436630704E0,8.806468010E0,3.968657494E0,1.250932097E0
2.438610392E0,8.814100266E0,3.975744486E0,1.188567877E0
2.440611954E0,8.827603340E0,3.986920357E0,1.098220348E0
2.442619767E0,8.799275398E0,4.004981995E0,9.910941720E-1
2.444610392E0,8.799773216E0,4.018562317E0,8.815737963E-1
2.446640079E0,8.792618752E0,4.052425861E0,7.738251090E-1
2.448610392E0,8.773455620E0,4.068687439E0,6.492787600E-1
2.450610392E0,8.766129494E0,4.069644928E0,5.711320043E-1
2.452611954E0,8.764856339E0,4.070477962E0,4.926405251E-1
2.454610392E0,8.781184196E0,4.087027073E0,4.003105164E-1
2.456627579E0,8.801161766E0,4.085245609E0,3.536906540E-1
2.458610392E0,8.846220970E0,4.092112064E0,2.925044298E-1
2.460622892E0,8.889882088E0,4.079959393E0,2.201133221E-1
2.462627579E0,8.913719177E0,4.060863018E0,1.663108170E-1
2.464610392E0,8.911390305E0,4.020458698E0,8.405563235E-2
2.466619767E0,8.892792702E0,3.974173784E0,3.817315400E-2
2.468610392E0,8.834413528E0,3.916090250E0,-7.948749699E-4
2.470610392E0,8.769520760E0,3.856043816E0,-2.113601379E-2
2.472621329E0,8.694735527E0,3.796935797E0,-5.753745511E-2
2.474621329E0,8.640128136E0,3.725483179E0,-7.375099510E-2
2.476610392E0,8.586574554E0,3.646484137E0,-9.712797403E-2
2.478622892E0,8.583595276E0,3.602823496E0,-1.071740389E-1
2.480613517E0,8.600911140E0,3.566651821E0,-9.919656068E-2
2.482610392E0,8.637025833E0,3.546042442E0,-1.122784838E-1
2.484622892E0,8.654770851E0,3.528334856E0,-1.303020269E-1
2.486611954E0,8.627965927E0,3.506375551E0,-1.418803930E-1
2.488618204E0,8.580703735E0,3.497210503E0,-1.383273900E-1
2.490626017E0,8.521433830E0,3.505733967E0,-1.229757741E-1
2.492610392E0,8.477465630E0,3.513548374E0,-9.685982764E-2
2.494611954E0,8.416289330E0,3.560848475E0,-4.715619609E-2
2.496641642E0,8.387961388E0,3.585901022E0,-2.470816299E-2
2.498613517E0,8.346417427E0,3.661021709E0,-9.710881859E-3
2.500610392E0,8.294214249E0,3.709585667E0,-2.831861749E-2
2.502610392E0,8.255848885E0,3.752968550E0,-5.118803307E-2
2.504610392E0,8.253483772E0,3.792166471E0,-7.421068102E-2
2.506610392E0,8.253224373E0,3.848257780E0,-1.188577488E-1
2.508611954E0,8.234694481E0,3.945768833E0,-1.847078651E-1
2.510610392E0,8.241004944E0,4.032525063E0,-2.241738886E-1
2.512610392E0,8.441763878E0,4.336655617E0,-4.095233977E-1
2.514610392E0,8.490930557E0,4.482807636E0,-4.767142832E-1
2.516610392E0,8.485327721E0,4.657890797E0,-5.218880773E-1
2.518626017E0,8.494799614E0,4.778692245E0,-5.616509914E-1
2.520651017E0,8.531537056E0,4.864098549E0,-5.900557637E-1
2.522610392E0,8.565247536E0,4.922076702E0,-5.957252979E-1
2.524654142E0,8.593507767E0,5.002080917E0,-6.049381495E-1
2.526622892E0,8.577974319E0,5.145915031E0,-5.840319991E-1
2.528669767E0,8.578779221E0,5.239154816E0,-5.742636919E-1
2.530636954E0,8.626844406E0,5.307600498E0,-5.498906970E-1
2.532632267E0,8.665343285E0,5.359401226E0,-5.484254360E-1
2.534610392E0,8.644427299E0,5.400696754E0,-5.621873140E-1
2.536613517E0,8.591669083E0,5.453685284E0,-5.800384283E-1
2.538610392E0,8.547376633E0,5.477004528E0,-5.834670067E-1
2.540643204E0,8.512009621E0,5.507018089E0,-5.730378628E-1
2.542610392E0,8.498017311E0,5.494099140E0,-5.661137700E-1
2.544610392E0,8.520389557E0,5.461978436E0,-5.159696341E-1
2.546610392E0,8.526738167E0,5.439760208E0,-4.673194289E-1
2.548616642E0,8.475195885E0,5.503762245E0,-4.056639671E-1
2.550627579E0,8.339243889E0,5.761723042E0,-3.315490484E-1
2.552610392E0,8.177511215E0,6.106804371E0,-2.593399286E-1
2.554621329E0,8.052428246E0,6.427435398E0,-2.345647216E-1
2.556611954E0,7.989384174E0,6.663513660E0,-2.289144099E-1
2.558610392E0,8.001249313E0,6.792570114E0,-2.543599904E-1
2.560610392E0,8.081436157E0,6.812787056E0,-2.976854444E-1
2.562626017E0,8.235862732E0,6.744494915E0,-3.713981211E-1
2.564611954E0,8.459767342E0,6.629496574E0,-4.505504370E-1
2.566622892E0,8.742380142E0,6.473950386E0,-5.198003650E-1
2.568610392E0,9.008834839E0,6.282902241E0,-5.916264057E-1
2.570611954E0,9.279130936E0,6.074645042E0,-6.242162585E-1
2.572611954E0,9.482551575E0,5.839860439E0,-6.411001682E-1
2.574626017E0,9.610612869E0,5.677792072E0,-6.135572791E-1
2.576611954E0,9.761839867E0,5.466585159E0,-5.316851735E-1
2.578616642E0,9.867176056E0,5.275202274E0,-3.802566826E-1
2.580610392E0,9.917712212E0,5.093999386E0,-1.792490929E-1
2.582615079E0,9.949516296E0,4.931739330E0,4.872678965E-2
2.584613517E0,9.958106995E0,4.783547878E0,2.864710093E-1
2.586610392E0,9.954917908E0,4.641954899E0,5.117270947E-1
2.588655704E0,9.924234390E0,4.494769096E0,7.093923688E-1
2.590610392E0,9.865299225E0,4.348119259E0,8.684726954E-1
2.592610392E0,9.855070114E0,4.221332073E0,1.021998525E0
2.594610392E0,9.900072098E0,4.137372017E0,1.164673805E0
2.596613517E0,9.926992416E0,4.070746422E0,1.276463866E0
2.598626017E0,9.913537025E0,4.021866322E0,1.326713324E0
2.600611954E0,9.874875069E0,3.987246037E0,1.304552555E0
2.602611954E0,9.845177650E0,3.987973928E0,1.247206688E0
2.604610392E0,9.812549591E0,4.041919708E0,1.126318693E0
2.606610392E0,9.814196587E0,4.130294800E0,1.015409708E0
2.608663517E0,9.827939034E0,4.252887726E0,8.723034859E-1
2.610651017E0,9.811189651E0,4.410263062E0,6.864463687E-1
2.612621329E0,9.815624237E0,4.650181293E0,3.922851682E-1
2.614633829E0,9.854572296E0,4.870476723E0,1.764430851E-1
2.616629142E0,9.877231598E0,5.104456902E0,-3.499365225E-2
2.618630704E0,9.861898422E0,5.350111961E0,-2.566488385E-1
2.620610392E0,9.828849792E0,5.602700233E0,-4.937610030E-1
2.622610392E0,9.809091568E0,5.899293900E0,-7.197065949E-1
2.624611954E0,9.792150497E0,6.180277348E0,-9.029204845E-1
2.626611954E0,9.799506187E0,6.418184757E0,-1.086642027E0
2.628610392E0,9.786970139E0,6.661684036E0,-1.289842606E0
2.630616642E0,9.775602341E0,6.755431652E0,-1.352628231E0
2.632611954E0,9.747762680E0,6.872881413E0,-1.385840535E0
2.634619767E0,9.678905487E0,6.930361748E0,-1.392611384E0
2.636611954E0,9.586804390E0,6.928283215E0,-1.343855858E0
2.638610392E0,9.507910728E0,6.873197556E0,-1.264349222E0
2.640610392E0,9.439503670E0,6.776471615E0,-1.175917029E0
2.642610392E0,9.392702103E0,6.662833691E0,-1.056254745E0
2.644622892E0,9.361310005E0,6.534111977E0,-9.068757296E-1
2.646633829E0,9.359604836E0,6.395803452E0,-7.071801424E-1
2.648611954E0,9.379878998E0,6.156009674E0,-3.332250118E-1
2.650610392E0,9.410457611E0,5.623587132E0,1.241632998E-1
2.652624454E0,9.956613541E0,4.707718849E0,-3.524169028E-1
2.654618204E0,1.004770756E1,4.267750263E0,-3.891056478E-1
2.656621329E0,9.885179520E0,4.069693089E0,-5.660371780E-1
2.658619767E0,9.496141434E0,4.113976002E0,-5.574180484E-1
2.660619767E0,8.993350029E0,4.237487793E0,-3.938366175E-1
2.662611954E0,8.277032852E0,4.502161980E0,-6.111918390E-2
2.664610392E0,7.738213062E0,4.724325180E0,2.715216279E-1
2.666610392E0,7.242928982E0,4.971263409E0,6.032813787E-1
2.668613517E0,6.806198120E0,5.187047482E0,8.885265589E-1
2.670610392E0,6.343571186E0,5.465521812E0,1.132342577E0
2.672610392E0,6.065336227E0,5.662019253E0,1.177736521E0
2.674636954E0,5.860383511E0,5.861589909E0,1.115219116E0
2.676640079E0,5.711368084E0,6.048979282E0,9.528922439E-1
2.678610392E0,5.580970287E0,6.304440498E0,6.057330370E-1
2.680610392E0,5.549041271E0,6.861073017E0,-4.717056155E-1
2.682610392E0,5.725359917E0,7.033676147E0,-9.314115047E-1
2.684613517E0,5.895146847E0,7.105425835E0,-1.137762904E0
2.686657267E0,6.105827332E0,7.161287308E0,-1.291796207E0
2.688632267E0,6.363213539E0,7.215568542E0,-1.354428530E0
2.690613517E0,6.634735584E0,7.260588646E0,-1.366677403E0
2.692619767E0,6.941652775E0,7.292125702E0,-1.334891915E0
2.694613517E0,7.262705803E0,7.322062492E0,-1.256620765E0
2.696616642E0,7.596131802E0,7.360781670E0,-1.161925316E0
2.698647892E0,7.912098885E0,7.388554096E0,-1.063073516E0
2.700622892E0,8.298513412E0,7.434043884E0,-9.297259450E-1
2.702626017E0,8.570399284E0,7.471604347E0,-8.386792541E-1
2.704610392E0,8.823792458E0,7.494272232E0,-7.697933316E-1
2.706610392E0,9.044375420E0,7.492826462E0,-7.279617786E-1
2.708610392E0,9.222502708E0,7.477168560E0,-6.778463721E-1
2.710646329E0,9.369315147E0,7.440556049E0,-6.428144574E-1
2.712613517E0,9.468579292E0,7.384072304E0,-6.088455319E-1
2.714610392E0,9.529027939E0,7.309430599E0,-5.635089278E-1
2.716619767E0,9.552242279E0,7.218287945E0,-4.980418384E-1
2.718610392E0,9.557758331E0,7.140897751E0,-4.434540272E-1
2.720610392E0,9.493124962E0,7.059648514E0,-3.703255355E-1
2.722611954E0,9.438958168E0,7.008728504E0,-3.115335405E-1
2.724613517E0,9.309910774E0,6.933043003E0,-2.325440198E-1
2.726633829E0,9.152688026E0,6.851860523E0,-1.353681684E-1
2.728627579E0,8.966094017E0,6.774432182E0,-5.823656172E-2
2.730611954E0,8.771426201E0,6.703094006E0,7.211335469E-3
2.732626017E0,8.567172050E0,6.652768135E0,3.268564120E-2
2.734618204E0,8.365368843E0,6.583940029E0,3.724420071E-2
2.736616642E0,8.262237549E0,6.540039539E0,3.639186616E-4
2.738654142E0,8.133189201E0,6.471115112E0,-4.203260317E-2
2.740610392E0,7.907301426E0,6.378459930E0,-9.109459072E-2
2.742613517E0,7.546389580E0,6.228372097E0,-1.737711579E-1
2.744616642E0,7.339884758E0,6.098538876E0,-2.190119922E-1
2.746616642E0,7.173296452E0,5.985083103E0,-2.611786723E-1
2.748627579E0,7.039757252E0,5.886183262E0,-2.799971104E-1
2.750621329E0,6.921139240E0,5.793632984E0,-3.217902780E-1
2.752615079E0,6.850050449E0,5.706541538E0,-3.821624815E-1
2.754630704E0,6.824250698E0,5.616615295E0,-4.406097531E-1
2.756611954E0,6.819059849E0,5.561012268E0,-5.043241978E-1
2.758618204E0,6.821368217E0,5.502593517E0,-5.710650086E-1
2.760610392E0,6.852779865E0,5.448887348E0,-6.288993359E-1
2.762611954E0,6.875812054E0,5.397305965E0,-6.772047281E-1
2.764613517E0,6.906017780E0,5.331513882E0,-7.374907136E-1
2.766611954E0,6.920238972E0,5.272520542E0,-7.784699202E-1
2.768611954E0,6.904781818E0,5.222903252E0,-8.220731020E-1
2.770610392E0,6.906429291E0,5.170671463E0,-8.647664785E-1
2.772611954E0,6.919616222E0,5.122767925E0,-9.187126756E-1
2.774611954E0,6.919329166E0,5.088569164E0,-9.494254589E-1
2.776610392E0,6.934891701E0,5.053422451E0,-9.861333370E-1
2.778622892E0,6.949256897E0,5.013487339E0,-1.029114127E0
2.780654142E0,7.005625725E0,4.954062939E0,-1.097837329E0
2.782611954E0,7.133667469E0,4.871740818E0,-1.237467051E0
2.784613517E0,7.255886555E0,4.787378788E0,-1.357406974E0
2.786610392E0,7.405112743E0,4.711836815E0,-1.513508916E0
2.788610392E0,7.576106548E0,4.636678219E0,-1.663778663E0
2.790618204E0,7.782917500E0,4.567821026E0,-1.809097171E0
2.792629142E0,7.982565403E0,4.497163296E0,-1.929305196E0
2.794611954E0,8.217809677E0,4.436876774E0,-2.036594152E0
2.796610392E0,8.385864258E0,4.406126022E0,-2.054320812E0
2.798638517E0,8.515303612E0,4.409468174E0,-2.036536694E0
2.800610392E0,8.612383842E0,4.441177368E0,-1.992512107E0
2.802622892E0,8.612614632E0,4.490334988E0,-1.961387396E0
2.804627579E0,8.604598045E0,4.592059612E0,-1.942808509E0
2.806621329E0,8.612728119E0,4.775532246E0,-1.904415011E0
2.808610392E0,8.645730019E0,5.031108379E0,-1.859519005E0
2.810611954E0,8.634975433E0,5.347124100E0,-1.813904643E0
2.812610392E0,8.537636757E0,5.701771736E0,-1.776037931E0
2.814611954E0,8.290009499E0,6.238475800E0,-1.774314165E0
2.816610392E0,8.024052620E0,6.731058598E0,-1.854405046E0
2.818610392E0,7.462621689E0,7.535692215E0,-2.113878965E0
2.820616642E0,6.798594475E0,8.453887939E0,-2.416774273E0
2.822618204E0,6.298742771E0,9.208501816E0,-2.678690434E0
2.824616642E0,5.860287666E0,9.823122025E0,-2.816107988E0
2.826611954E0,5.700048447E0,9.997429848E0,-2.745488644E0
2.828610392E0,5.720897198E0,9.993474960E0,-2.585469723E0
2.830611954E0,5.893068790E0,9.866361618E0,-2.458519459E0
2.832613517E0,6.127068996E0,9.662758827E0,-2.413757563E0
2.834613517E0,6.514967918E0,9.266374588E0,-2.457350969E0
2.836610392E0,6.791986465E0,8.919378281E0,-2.465060472E0
2.838641642E0,6.951880932E0,8.589351654E0,-2.419254541E0
2.840616642E0,6.319208145E0,8.124005318E0,-1.589702010E0
2.842610392E0,5.419352055E0,8.240143776E0,-9.612815380E-1
2.844627579E0,4.781948566E0,8.359297752E0,-6.220231652E-1
2.846618204E0,4.014587879E0,8.494148254E0,-2.767218351E-1
2.848618204E0,3.534052372E0,8.547204018E0,-1.143853813E-1
2.850626017E0,3.117518902E0,8.511741638E0,1.064940915E-2
2.852618204E0,2.853361845E0,8.388161659E0,1.155441776E-1
2.854611954E0,2.743812561E0,8.175230980E0,2.041775137E-1
2.856629142E0,2.743630648E0,7.904447079E0,3.213114440E-1
2.858624454E0,2.857575417E0,7.628711700E0,4.677599669E-1
2.860643204E0,3.073743105E0,7.363462925E0,6.541438103E-1
2.862616642E0,3.363336086E0,7.132911205E0,8.842361569E-1
2.864618204E0,3.812775850E0,6.909053326E0,1.187725067E0
2.866618204E0,4.166476250E0,6.819931507E0,1.370498538E0
2.868613517E0,4.514765263E0,6.762892246E0,1.496318579E0
2.870626017E0,4.848670483E0,6.742579460E0,1.544087768E0
2.872627579E0,5.186195374E0,6.743604660E0,1.518441081E0
2.874624454E0,5.556807995E0,6.734650135E0,1.410223126E0
2.876611954E0,5.750853539E0,6.710976124E0,1.280802131E0
2.878611954E0,5.908909321E0,6.708237171E0,1.132869244E0
2.880624454E0,6.014445305E0,6.701561928E0,9.546926618E-1
2.882610392E0,6.099899292E0,6.705938339E0,7.615572214E-1
2.884615079E0,6.215318680E0,6.734554291E0,5.121963620E-1
2.886616642E0,6.297823429E0,6.776768684E0,3.028282225E-1
2.888654142E0,6.377559662E0,6.830092430E0,7.581000775E-2
2.890632267E0,6.453570843E0,6.902598858E0,-1.591665298E-1
2.892611954E0,6.508417130E0,6.976014137E0,-3.557400405E-1
2.894613517E0,6.559049606E0,7.072969913E0,-6.371353865E-1
2.896615079E0,6.608025551E0,7.164878368E0,-8.073152304E-1
2.898610392E0,6.652001858E0,7.257629871E0,-9.503544569E-1
2.900621329E0,6.679975986E0,7.323662281E0,-1.097339272E0
2.902627579E0,6.737819672E0,7.367542744E0,-1.247551560E0
2.904616642E0,6.817115784E0,7.413032532E0,-1.345905304E0
2.906613517E0,6.873867989E0,7.447959423E0,-1.365461111E0
2.908611954E0,6.881395340E0,7.468549252E0,-1.350080848E0
2.910611954E0,6.870324612E0,7.499099731E0,-1.350645781E0
2.912610392E0,6.859521866E0,7.506483078E0,-1.390696049E0
2.914610392E0,6.847857475E0,7.526460648E0,-1.456709027E0
2.916610392E0,7.018717289E0,7.743125916E0,-1.516104221E0
2.918616642E0,7.238226891E0,8.039174080E0,-1.581743717E0
2.920611954E0,7.042438984E0,8.054506302E0,-1.556288600E0
2.922611954E0,6.437232494E0,7.960816383E0,-1.388981819E0
2.924610392E0,5.850643635E0,7.884038925E0,-1.233281970E0
2.926610392E0,4.932620525E0,7.812433720E0,-9.637715220E-1
2.928611954E0,4.161859989E0,7.776280880E0,-7.329609394E-1
2.930622892E0,3.672226667E0,7.762547970E0,-4.971511960E-1
2.932611954E0,3.545879602E0,7.774538040E0,-2.646454871E-1
2.934610392E0,3.739666462E0,7.775016785E0,-8.550173044E-2
2.936643204E0,4.128072739E0,7.805116653E0,1.197100803E-2
2.938661954E0,4.581008434E0,7.837467194E0,1.027591340E-2
2.940611954E0,4.988970757E0,7.859312057E0,-5.201163888E-2
2.942621329E0,5.298703671E0,7.884901047E0,-1.437957585E-1
2.944610392E0,5.489913940E0,7.903527737E0,-2.278609574E-1
2.946611954E0,5.626708984E0,7.912300110E0,-3.244526386E-1
2.948611954E0,5.707317352E0,7.941700935E0,-4.147906601E-1
2.950611954E0,5.761799812E0,7.960874081E0,-4.916445315E-1
2.952611954E0,5.782140732E0,7.971839428E0,-5.651752353E-1
2.954610392E0,5.769279480E0,8.003835678E0,-5.813025832E-1
2.956610392E0,5.705756187E0,7.996930599E0,-5.399882793E-1
2.958610392E0,5.642156601E0,7.966045380E0,-4.556740522E-1
2.960621329E0,5.639082432E0,7.995551109E0,-4.534139037E-1
2.962665079E0,5.690222740E0,8.102141380E0,-4.808610678E-1
2.964629142E0,5.773186684E0,8.239004135E0,-5.116505027E-1
2.966622892E0,5.895577908E0,8.399415016E0,-5.773952603E-1
2.968632267E0,6.146308422E0,8.613494873E0,-6.801161170E-1
2.970636954E0,6.358635902E0,8.747666359E0,-7.692090869E-1
2.972663517E0,6.577322483E0,8.854773521E0,-8.540021777E-1
2.974621329E0,6.780532360E0,8.929491043E0,-9.293812513E-1
2.976610392E0,6.961380959E0,8.971150398E0,-9.960070848E-1
2.978651017E0,7.104410648E0,8.990505219E0,-1.035913587E0
2.980616642E0,7.235392570E0,8.974444389E0,-1.031977534E0
2.982624454E0,7.289673805E0,8.964446068E0,-9.780409336E-1
2.984611954E0,7.310867310E0,8.949257851E0,-8.978255987E-1
2.986652579E0,7.290947914E0,8.934241295E0,-8.064150214E-1
2.988618204E0,7.265549660E0,8.924263000E0,-7.055616379E-1
2.990619767E0,7.246817589E0,8.928122520E0,-5.797511339E-1
2.992611954E0,7.236790657E0,8.915384293E0,-4.623107612E-1
2.994611954E0,7.230039120E0,8.903356552E0,-3.770292997E-1
2.996610392E0,7.206853390E0,8.870221138E0,-2.508644462E-1
2.998610392E0,7.135017872E0,8.784220695E0,-6.075526029E-2
3.000610392E0,7.070412636E0,8.694783211E0,7.193139941E-2
3.002610392E0,6.767546177E0,8.328259468E0,5.279406309E-1
3.004610392E0,6.631134510E0,8.185325623E0,6.998347044E-1
3.006621329E0,6.558082581E0,8.076963425E0,8.524124026E-1
3.008644767E0,6.512554169E0,8.022366524E0,9.535435438E-1
3.010627579E0,6.478757858E0,8.005511284E0,1.027629614E0
3.012619767E0,6.446120262E0,8.001087189E0,1.101524234E0
3.014632267E0,6.443046093E0,7.986645222E0,1.147090793E0
3.016611954E0,6.446608543E0,7.956095219E0,1.207865238E0
3.018643204E0,6.468252182E0,7.892198563E0,1.265038729E0
3.020613517E0,6.522801399E0,7.793327808E0,1.333972573E0
3.022610392E0,6.588277817E0,7.657461643E0,1.423305035E0
3.024611954E0,6.619517803E0,7.464393139E0,1.576390266E0
3.026611954E0,6.631785870E0,7.235899925E0,1.745602846E0
3.028611954E0,6.631229877E0,6.966514111E0,1.922294974E0
3.030611954E0,6.603131771E0,6.660956383E0,2.116732836E0
3.032610392E0,6.499357224E0,6.351194859E0,2.314915180E0
3.034618204E0,6.338629723E0,6.045445442E0,2.489260912E0
3.036615079E0,6.156900406E0,5.769690990E0,2.619036436E0
3.038622892E0,5.926463604E0,5.613042831E0,2.685671806E0
3.040610392E0,5.595536709E0,5.632809639E0,2.647364616E0
3.042616642E0,5.168104649E0,5.788432598E0,2.398779392E0
3.044624454E0,4.678634167E0,6.138464928E0,1.884619713E0
3.046611954E0,4.142811298E0,6.709740639E0,1.113581538E0
3.048640079E0,3.650563717E0,7.384158611E0,2.455206066E-1
3.050611954E0,3.258249998E0,8.071265221E0,-5.678950548E-1
3.052619767E0,3.007251501E0,8.712499619E0,-1.234958053E0
3.054611954E0,2.897003174E0,9.301760674E0,-1.710982680E0
3.056611954E0,2.907643080E0,9.804399490E0,-1.992033362E0
3.058618204E0,3.009051800E0,1.020867443E1,-2.056140423E0
3.060610392E0,3.134833813E0,1.049630451E1,-1.962996364E0
3.062611954E0,3.240685940E0,1.064709187E1,-1.767246485E0
3.064632267E0,3.334308863E0,1.068943024E1,-1.524512649E0
3.066615079E0,3.439634800E0,1.063078213E1,-1.321647167E0
3.068613517E0,3.528909683E0,1.053804016E1,-1.207520366E0
3.070611954E0,3.681353331E0,1.034101677E1,-1.066367865E0
3.072611954E0,3.838393688E0,1.010399151E1,-9.395517707E-1
3.074621329E0,3.935330153E0,9.916524887E0,-8.788539767E-1
3.076611954E0,4.121215820E0,9.635120392E0,-8.472026587E-1
3.078622892E0,4.409679413E0,9.271191597E0,-9.331161380E-1
3.080610392E0,4.649147034E0,9.015270233E0,-1.031125188E0
3.082613517E0,4.878722191E0,8.768783569E0,-1.120141625E0
3.084626017E0,5.094497204E0,8.519852638E0,-1.205461383E0
3.086610392E0,5.354411602E0,8.237624168E0,-1.314148545E0
3.088613517E0,5.526286602E0,8.055655479E0,-1.359628797E0
3.090621329E0,5.663684845E0,7.896689892E0,-1.350684047E0
3.092619767E0,5.755517006E0,7.733912945E0,-1.293817043E0
3.094624454E0,5.827142239E0,7.611166954E0,-1.186441898E0
3.096610392E0,5.917336464E0,7.472140789E0,-1.042377949E0
3.098635392E0,5.948614120E0,7.411902428E0,-9.957676530E-1
3.100611954E0,6.022154808E0,7.295027256E0,-9.412468672E-1
3.102616642E0,6.084652901E0,7.222445011E0,-9.276478291E-1
3.104611954E0,6.154285908E0,7.144183159E0,-9.634075761E-1
3.106622892E0,6.269849300E0,7.063230038E0,-1.048459172E0
3.108611954E0,6.462678432E0,6.952665806E0,-1.185733199E0
3.110616642E0,6.629927635E0,6.869855404E0,-1.306094527E0
3.112611954E0,6.814319134E0,6.793949604E0,-1.419072032E0
3.114622892E0,6.986587048E0,6.716080666E0,-1.534893870E0
3.116636954E0,7.160530567E0,6.631086349E0,-1.603339434E0
3.118622892E0,7.344271183E0,6.535308361E0,-1.666134477E0
3.120610392E0,7.463521481E0,6.440478802E0,-1.694223285E0
3.122624454E0,7.557728291E0,6.345496655E0,-1.680241227E0
3.124622892E0,7.607355595E0,6.264112949E0,-1.666421890E0
3.126613517E0,7.637283325E0,6.181445599E0,-1.631361246E0
3.128610392E0,7.564336300E0,6.095484257E0,-1.538552403E0
3.130618204E0,7.448821068E0,6.077901363E0,-1.439010978E0
3.132611954E0,7.307285786E0,6.099698067E0,-1.329672575E0
3.134616642E0,7.151614666E0,6.155387402E0,-1.217010975E0
3.136611954E0,7.028706074E0,6.241807938E0,-1.123819113E0
3.138636954E0,6.958067417E0,6.348560810E0,-1.036794662E0
3.140622892E0,6.898882866E0,6.517955780E0,-9.468205571E-1
3.142622892E0,6.913554192E0,6.625991821E0,-8.747646809E-1
3.144611954E0,6.934278488E0,6.725848675E0,-8.170644641E-1
3.146616642E0,6.961629868E0,6.811120510E0,-7.949036956E-1
3.148613517E0,6.973016739E0,6.854091644E0,-8.202343583E-1
3.150618204E0,6.885934353E0,6.879307747E0,-8.790742755E-1
3.152618204E0,6.794255733E0,6.863850594E0,-9.156480432E-1
3.154611954E0,6.683519363E0,6.833080769E0,-9.416107535E-1
3.156622892E0,6.562717915E0,6.799005985E0,-9.885275960E-1
3.158610392E0,6.395065784E0,6.755834103E0,-1.024306536E0
3.160621329E0,6.282806873E0,6.719020367E0,-1.057700753E0
3.162611954E0,6.200216293E0,6.675809860E0,-1.089620352E0
3.164611954E0,6.131416321E0,6.632408142E0,-1.090683341E0
3.166651017E0,6.075382710E0,6.580453396E0,-1.077994108E0
3.168611954E0,6.019176483E0,6.513262749E0,-1.032427669E0
3.170610392E0,5.972192287E0,6.487539768E0,-1.010037065E0
3.172610392E0,5.710170746E0,6.387174606E0,-8.995686173E-1
3.174610392E0,5.576114655E0,6.381007195E0,-9.412756562E-1
3.176611954E0,5.478641987E0,6.374993324E0,-9.463800788E-1
3.178611954E0,5.445908546E0,6.369677544E0,-9.818046093E-1
3.180611954E0,5.402190208E0,6.335210800E0,-1.091315389E0
3.182621329E0,5.392316818E0,6.301587105E0,-1.198872566E0
3.184611954E0,5.470693588E0,6.561405659E0,-7.033206820E-1
3.186610392E0,5.466613770E0,7.114676952E0,4.918360710E-1
3.188610392E0,5.049390793E0,7.038579464E0,-1.059118152E0
3.190611954E0,4.510580063E0,6.952483654E0,-2.442756176E0
3.192621329E0,4.135542870E0,6.901659489E0,-2.995452881E0
3.194610392E0,4.012883186E0,6.929796219E0,-2.862402201E0
3.196616642E0,3.796571732E0,7.442031384E0,-2.424943447E0
3.198619767E0,3.419638157E0,8.272580147E0,-1.901810169E0
3.200636954E0,3.258556366E0,8.882651329E0,-1.772609472E0
3.202636954E0,3.493906498E0,8.922615051E0,-1.828528404E0
3.204610392E0,3.828050852E0,8.627649307E0,-1.884782553E0
3.206611954E0,4.113966465E0,7.970508099E0,-2.013408661E0
3.208622892E0,4.261027813E0,7.309526443E0,-2.201535463E0
3.210652579E0,4.406796455E0,6.709682941E0,-2.315183401E0
3.212658829E0,4.443523407E0,6.360101223E0,-2.190934181E0
3.214618204E0,4.419447422E0,6.319543362E0,-1.933834910E0
3.216629142E0,4.426064968E0,6.505668640E0,-1.492267609E0
3.218641642E0,4.415971279E0,6.962836266E0,-1.203680158E0
3.220610392E0,4.384482384E0,7.600709438E0,-8.653123975E-1
3.222610392E0,4.431897163E0,8.211212158E0,-7.279139161E-1
3.224616642E0,4.696226597E0,8.671798706E0,-4.966436028E-1
3.226611954E0,4.739915848E0,8.684535980E0,-5.001008511E-1
3.228644767E0,4.576545238E0,8.312323570E0,-1.161886930E0
3.230621329E0,4.189622879E0,8.049822807E0,-1.803676605E0
3.232621329E0,3.637051105E0,7.676519394E0,-2.292486429E0
3.234616642E0,3.330219746E0,7.546035290E0,-2.528784752E0
3.236621329E0,3.270900965E0,7.550661087E0,-2.395053864E0
3.238627579E0,3.339767933E0,7.625656605E0,-2.019987822E0
3.240622892E0,3.444221973E0,7.848854065E0,-1.899368048E0
3.242621329E0,3.597747803E0,8.141339302E0,-1.630508780E0
3.244610392E0,3.782082081E0,8.222789764E0,-1.382680178E0
3.246611954E0,3.854856253E0,8.225577354E0,-1.441855311E0
3.248610392E0,3.838613987E0,8.183582306E0,-1.450215816E0
3.250610392E0,3.818809032E0,8.153013229E0,-1.455291510E0
3.252611954E0,3.776144505E0,8.098243713E0,-1.519226313E0
3.254611954E0,3.786927938E0,8.019483566E0,-1.593293309E0
3.256618204E0,3.830559731E0,7.944707870E0,-1.547717333E0
3.258621329E0,3.928607225E0,7.908067226E0,-1.564198971E0
3.260610392E0,4.050797939E0,7.921599388E0,-1.405856133E0
3.262611954E0,4.167146683E0,7.904667377E0,-1.363133907E0
3.264611954E0,4.329684258E0,7.881012917E0,-1.293721318E0
3.266611954E0,4.423440933E0,7.845473289E0,-1.244285822E0
3.268610392E0,4.471353531E0,7.789104462E0,-1.334279060E0
3.270610392E0,4.509191513E0,7.710181713E0,-1.352599502E0
3.272613517E0,4.558445454E0,7.665621281E0,-1.440811396E0
3.274615079E0,4.562543869E0,7.620897293E0,-1.427624106E0
3.276610392E0,4.528536797E0,7.608572006E0,-1.442765117E0
3.278610392E0,4.516163349E0,7.625523090E0,-1.489126444E0
3.280638517E0,4.514851570E0,7.719921589E0,-1.450503230E0
3.282627579E0,4.481955051E0,7.870286465E0,-1.515443444E0
3.284629142E0,4.498140335E0,8.034663200E0,-1.499718428E0
3.286657267E0,4.531821728E0,8.188562393E0,-1.527376175E0
3.288610392E0,4.533746719E0,8.332760811E0,-1.539366364E0
3.290611954E0,4.561528683E0,8.443285942E0,-1.527960300E0
3.292624454E0,4.639666080E0,8.617852211E0,-1.541751027E0
3.294624454E0,4.706454754E0,8.801554680E0,-1.539318442E0
3.296610392E0,4.806168556E0,8.940131187E0,-1.588629365E0
3.298610392E0,4.886757374E0,9.105119705E0,-1.575336814E0
3.300610392E0,4.970554352E0,9.301358223E0,-1.614036798E0
3.302611954E0,5.035456181E0,9.604206085E0,-1.604699373E0
3.304610392E0,5.059072971E0,9.811907768E0,-1.648561120E0
3.306618204E0,5.051018715E0,1.004450035E1,-1.641330600E0
3.308610392E0,4.980935574E0,1.021070480E1,-1.682740688E0
3.310613517E0,4.851303577E0,1.033363247E1,-1.722120643E0
3.312610392E0,4.482156277E0,1.039650536E1,-1.755361676E0
3.314624454E0,4.177767277E0,1.039572906E1,-1.812123418E0
3.316616642E0,3.861990929E0,1.029644585E1,-1.839934468E0
3.318626017E0,3.501577377E0,1.010983276E1,-1.896102428E0
3.320622892E0,3.137419462E0,9.926647186E0,-1.767169833E0
3.322615079E0,2.640009403E0,9.577601433E0,-1.585344553E0
3.324611954E0,2.297993183E0,9.420906067E0,-1.342208624E0
3.326613517E0,2.047310591E0,9.353849411E0,-1.158774376E0
3.328655704E0,1.831506848E0,9.213682175E0,-9.248609543E-1
3.330610392E0,1.647852421E0,9.161614418E0,-7.772632241E-1
3.332610392E0,1.558941245E0,9.280739784E0,-6.021704674E-1
3.334610392E0,1.885491371E0,9.512909889E0,-5.616605878E-1
3.336610392E0,2.242801905E0,9.839325905E0,-4.471698403E-1
3.338630704E0,2.402562141E0,1.012317276E1,-3.502238095E-1
3.340611954E0,2.439184189E0,1.040051746E1,-2.006341070E-1
3.342611954E0,2.478056192E0,1.063621235E1,9.725247324E-2
3.344611954E0,2.442919016E0,1.082624531E1,4.193204939E-1
3.346616642E0,2.327604532E0,1.096479321E1,6.055032015E-1
3.348618204E0,2.103555202E0,1.104739285E1,6.819452643E-1
3.350618204E0,1.917362928E0,1.100111675E1,8.183860183E-1
3.352618204E0,1.715455055E0,1.093415642E1,7.426526546E-1
3.354610392E0,1.260346055E0,1.081517410E1,3.709671795E-1
3.356611954E0,7.900291085E-1,1.068945026E1,-5.337537527E-1
3.358611954E0,8.123047650E-2,1.048171997E1,-1.808733106E0
3.360611954E0,-4.519103765E-1,1.026957417E1,-2.287583113E0
3.362621329E0,-5.209974647E-1,1.069560719E1,-2.341165304E0
3.364622892E0,-2.575107813E-1,1.145864010E1,-2.449699163E0
3.366616642E0,-8.754158765E-2,1.181862164E1,-2.416352749E0
3.368616642E0,-5.038357899E-2,1.188733578E1,-2.274482012E0
3.370618204E0,-7.655698806E-2,1.182483768E1,-1.988595247E0
3.372641642E0,-1.505952924E-1,1.161651325E1,-1.659220099E0
3.374619767E0,-2.735806406E-1,1.140274048E1,-1.266561389E0
3.376619767E0,-4.193109274E-1,1.131694126E1,-1.010372281E0
3.378610392E0,-5.334759951E-1,1.127841377E1,-7.469238639E-1
3.380610392E0,-6.578978896E-1,1.127750397E1,-4.468346536E-1
3.382610392E0,-7.036846280E-1,1.128771305E1,-1.253125221E-1
3.384611954E0,-6.448543072E-1,1.128963757E1,1.994274259E-1
3.386611954E0,-4.562103450E-1,1.120119667E1,4.994017482E-1
3.388621329E0,-1.740967780E-1,1.110284138E1,8.403264880E-1
3.390610392E0,1.824190170E-1,1.099891472E1,1.123962760E0
3.392611954E0,5.982439518E-1,1.093367767E1,1.441788197E0
3.394611954E0,1.013992310E0,1.085027313E1,1.665339708E0
3.396619767E0,1.429165959E0,1.073396301E1,1.915428400E0
3.398610392E0,1.853294015E0,1.066114998E1,2.090636015E0
3.400610392E0,2.321245670E0,1.065212917E1,2.272327185E0
3.402627579E0,2.809088230E0,1.067818737E1,2.474666119E0
3.404644767E0,3.262588024E0,1.071547985E1,2.633449554E0
3.406624454E0,3.727235794E0,1.071775913E1,2.865610361E0
3.408613517E0,4.214896679E0,1.068991852E1,3.009559393E0
3.410618204E0,4.680491924E0,1.065489674E1,3.202532053E0
3.412630704E0,5.059762001E0,1.061963463E1,3.374646425E0
3.414610392E0,5.350944996E0,1.059378719E1,3.569601536E0
3.416611954E0,5.570981979E0,1.057656860E1,3.723759174E0
3.418618204E0,5.723549843E0,1.054150677E1,3.726593971E0
3.420610392E0,5.837092400E0,1.047920990E1,3.711271286E0
3.422611954E0,5.938472748E0,1.040225124E1,3.600994349E0
3.424611954E0,6.009465218E0,1.030247974E1,3.531246424E0
3.426611954E0,6.018506050E0,1.016029263E1,3.434156656E0
3.428619767E0,5.893835068E0,9.929309845E0,3.359170437E0
3.430619767E0,5.752931595E0,9.758287430E0,3.302676678E0
3.432611954E0,5.592874527E0,9.582782745E0,3.252321720E0
3.434611954E0,5.442144871E0,9.426594734E0,3.198011637E0
3.436622892E0,5.299125195E0,9.276439667E0,3.123983145E0
3.438610392E0,5.174626350E0,9.134665489E0,3.079757214E0
3.440610392E0,5.066475391E0,9.010847092E0,2.980072498E0
3.442610392E0,4.976147175E0,8.905214310E0,2.936938524E0
3.444611954E0,4.890769958E0,8.804485321E0,2.878299713E0
3.446613517E0,4.784553528E0,8.705758095E0,2.843057156E0
3.448610392E0,4.709231853E0,8.662163734E0,2.794627190E0
3.450622892E0,4.655650139E0,8.644677162E0,2.775013924E0
3.452611954E0,4.615139484E0,8.640922546E0,2.758838654E0
3.454618204E0,4.578221321E0,8.644227028E0,2.717198849E0
3.456611954E0,4.552660465E0,8.662997246E0,2.724112988E0
3.458621329E0,4.547977448E0,8.671913147E0,2.686054945E0
3.460611954E0,4.549059868E0,8.679067612E0,2.680864334E0
3.462611954E0,4.513328552E0,8.688625336E0,2.615943193E0
3.464616642E0,4.462399483E0,8.712366104E0,2.597115040E0
3.466611954E0,4.456404209E0,8.791652679E0,2.510128975E0
3.468611954E0,4.415233612E0,8.851239204E0,2.459362268E0
3.470610392E0,4.353836536E0,8.835791588E0,2.381196260E0
3.472610392E0,4.239662170E0,8.816820145E0,2.305089712E0
3.474613517E0,4.126444817E0,8.836403847E0,2.191566229E0
3.476626017E0,4.005231380E0,8.843482018E0,2.039946079E0
3.478611954E0,3.882389545E0,8.855423927E0,1.888756990E0
3.480658829E0,3.859682798E0,8.948070526E0,1.792873979E0
3.482610392E0,3.818751812E0,8.960146904E0,1.712572455E0
3.484615079E0,3.693697691E0,8.918180466E0,1.570596337E0
3.486611954E0,3.498445749E0,8.886338234E0,1.426398277E0
3.488610392E0,3.373382330E0,8.907177925E0,1.301105022E0
3.490622892E0,3.274338961E0,8.942198753E0,1.220219254E0
3.492626017E0,3.174864769E0,8.970833778E0,1.083941340E0
3.494613517E0,3.097129583E0,9.013939857E0,9.620860219E-1
3.496621329E0,3.039889097E0,9.107514381E0,8.552758694E-1
3.498610392E0,2.996324301E0,9.169256210E0,7.995963097E-1
3.500610392E0,2.951485634E0,9.233277321E0,7.493277192E-1
3.502610392E0,3.072680235E0,9.431383133E0,5.768302083E-1
3.504610392E0,3.181128025E0,9.473167419E0,5.466536880E-1
3.506611954E0,3.239000559E0,9.440864563E0,5.010297894E-1
3.508613517E0,3.307714224E0,9.431985855E0,4.638718069E-1
3.510635392E0,3.387938976E0,9.416030884E0,4.276427329E-1
3.512624454E0,3.445572376E0,9.366384506E0,3.988548517E-1
3.514626017E0,3.467723370E0,9.299463272E0,3.138223886E-1
3.516610392E0,3.444183588E0,9.219007492E0,2.309351265E-1
3.518611954E0,3.396222830E0,9.128373146E0,7.037995011E-2
3.520611954E0,3.306651115E0,9.033083916E0,-8.316498995E-2
3.522611954E0,2.945002079E0,8.693672180E0,-1.903102994E-1
3.524611954E0,1.274366617E0,7.493314743E0,-1.057183743E0
3.526622892E0,9.922912717E-1,7.621328354E0,-1.759039164E0
3.528611954E0,1.237965107E0,8.064561844E0,-2.218677998E0
3.530611954E0,1.607246757E0,8.495661736E0,-2.381206036E0
3.532611954E0,2.003190279E0,8.873313904E0,-2.365844727E0
3.534611954E0,2.412646770E0,9.159124374E0,-2.145271778E0
3.536610392E0,2.782483578E0,9.378615379E0,-1.868980885E0
3.538610392E0,3.012058973E0,9.468512535E0,-1.633851051E0
3.540647892E0,3.332316875E0,9.561512947E0,-1.262883902E0
3.542611954E0,3.608579159E0,9.607509613E0,-9.347347021E-1
3.544610392E0,3.813245058E0,9.642609596E0,-5.784103870E-1
3.546611954E0,3.967795610E0,9.678263664E0,-2.634100616E-1
3.548651017E0,4.112625599E0,9.725381851E0,1.078539938E-1
3.550622892E0,4.263345242E0,9.743204117E0,4.358979464E-1
3.552610392E0,4.352505207E0,9.745139122E0,6.127623916E-1
3.554615079E0,4.461422443E0,9.713774681E0,8.916964531E-1
3.556610392E0,4.508138180E0,9.640262604E0,1.094475865E0
3.558611954E0,4.485843182E0,9.548009872E0,1.299553633E0
3.560618204E0,4.421314716E0,9.473655701E0,1.422864556E0
3.562611954E0,4.314677238E0,9.377791405E0,1.569945097E0
3.564621329E0,4.190015793E0,9.308014870E0,1.721364021E0
3.566611954E0,4.055931091E0,9.270904541E0,1.822629094E0
3.568610392E0,3.861789703E0,9.199269295E0,1.999981999E0
3.570610392E0,3.725827932E0,9.166708946E0,2.094686985E0
3.572610392E0,3.569955826E0,9.139386177E0,2.180121899E0
3.574616642E0,3.481916189E0,9.119332314E0,2.211016655E0
3.576611954E0,3.362397671E0,9.105992317E0,2.200051069E0
3.578611954E0,3.234413385E0,9.101261139E0,2.222891808E0
3.580655704E0,3.175956488E0,9.120223045E0,2.165871620E0
3.582658829E0,3.144171000E0,9.126994133E0,2.146018744E0
3.584610392E0,3.110843658E0,9.141866684E0,2.078329802E0
3.586622892E0,3.086825132E0,9.146645546E0,2.037618876E0
3.588610392E0,3.076932430E0,9.143629074E0,1.934831023E0
3.590630704E0,3.093394756E0,9.148685455E0,1.844090819E0
3.592610392E0,3.125055552E0,9.160215378E0,1.729140401E0
3.594618204E0,3.161380529E0,9.183401108E0,1.609200478E0
3.596621329E0,3.171895742E0,9.196377754E0,1.489337206E0
3.598610392E0,3.165891171E0,9.188611031E0,1.372509599E0
3.600610392E0,3.151774883E0,9.149460793E0,1.296412349E0
3.602610392E0,3.154734135E0,9.133831978E0,1.173101306E0
3.604649454E0,3.163114071E0,9.135842323E0,1.057873249E0
3.606613517E0,3.141020298E0,9.137164116E0,9.275999069E-1
3.608610392E0,3.101161718E0,9.127472878E0,8.215176463E-1
3.610610392E0,3.035024166E0,9.102458000E0,7.462343574E-1
3.612611954E0,2.980139494E0,9.070720673E0,7.043645382E-1
3.614622892E0,2.932140589E0,9.064821243E0,6.363213658E-1
3.616611954E0,2.894829273E0,9.072655678E0,5.972192287E-1
3.618621329E0,2.879065990E0,9.087920189E0,5.692836642E-1
3.620618204E0,2.891601801E0,9.103348732E0,5.784583092E-1
3.622611954E0,2.929765463E0,9.109267235E0,5.842905641E-1
3.624610392E0,2.947223902E0,9.118785858E0,5.706244707E-1
3.626622892E0,2.950690746E0,9.129148483E0,5.706052780E-1
3.628610392E0,2.980388403E0,9.158597946E0,5.712469220E-1
3.630611954E0,3.017316580E0,9.200984001E0,5.909751654E-1
3.632610392E0,3.056265593E0,9.231179237E0,6.036069989E-1
3.634611954E0,3.113381624E0,9.275472641E0,6.460705400E-1
3.636610392E0,3.151401520E0,9.315130234E0,6.782773733E-1
3.638621329E0,3.138635635E0,9.316499710E0,7.300687432E-1
3.640610392E0,3.140483856E0,9.307295799E0,7.670830488E-1
3.642610392E0,3.131730795E0,9.287903786E0,8.033695817E-1
3.644613517E0,3.116704941E0,9.267236710E0,8.481411934E-1
3.646630704E0,3.089286327E0,9.244442940E0,8.629947901E-1
3.648610392E0,3.070774317E0,9.229571342E0,9.143934846E-1
3.650610392E0,3.048987150E0,9.228565216E0,9.287395477E-1
3.652618204E0,3.040789366E0,9.221957207E0,9.703891277E-1
3.654611954E0,3.023924589E0,9.207045555E0,1.022534847E0
3.656622892E0,2.998460054E0,9.159257889E0,1.226195216E0
3.658610392E0,3.001131773E0,9.142805099E0,1.392898679E0
3.660610392E0,3.011034250E0,9.188257217E0,1.431665540E0
3.662610392E0,3.000164509E0,9.206547737E0,1.409648538E0
3.664610392E0,2.983529568E0,9.214190483E0,1.414886951E0
3.666663517E0,2.976835489E0,9.212447166E0,1.397754192E0
3.668610392E0,2.955986738E0,9.218328476E0,1.377412915E0
3.670611954E0,2.936584234E0,9.202391624E0,1.331080317E0
3.672610392E0,2.924153566E0,9.187528610E0,1.299993992E0
3.674649454E0,2.904865742E0,9.182903290E0,1.252751708E0
3.676626017E0,2.885510921E0,9.170357704E0,1.213390946E0
3.678610392E0,2.866912842E0,9.152458191E0,1.192465663E0
3.680622892E0,2.850881338E0,9.143140793E0,1.137667179E0
3.682611954E0,2.844388247E0,9.132001877E0,1.098143697E0
3.684611954E0,2.813512802E0,9.112820625E0,1.048832774E0
3.686611954E0,2.791390181E0,9.097496986E0,1.015380979E0
3.688611954E0,2.800229549E0,9.104296684E0,9.749476910E-1
3.690610392E0,2.802710056E0,9.126878738E0,9.349836707E-1
3.692610392E0,2.813972473E0,9.160915375E0,9.005741477E-1
3.694633829E0,2.847318888E0,9.210167885E0,8.626500368E-1
3.696610392E0,2.875637531E0,9.245315552E0,8.309316635E-1
3.698610392E0,2.896878719E0,9.277311325E0,7.979778647E-1
3.700621329E0,2.944580793E0,9.292605400E0,7.793797255E-1
3.702610392E0,2.998565197E0,9.317084312E0,7.710574269E-1
3.704610392E0,3.047339916E0,9.322925568E0,7.781921625E-1
3.706610392E0,3.086729288E0,9.305667877E0,8.054285645E-1
3.708613517E0,3.133550406E0,9.305294991E0,8.349826336E-1
3.710647892E0,3.166599751E0,9.301751137E0,8.815354705E-1
3.712610392E0,3.210729837E0,9.312955856E0,9.116162062E-1
3.714633829E0,3.245455265E0,9.318520546E0,9.556695819E-1
3.716611954E0,3.283810616E0,9.334494591E0,9.819962382E-1
3.718619767E0,3.319263697E0,9.367257118E0,1.013446450E0
3.720610392E0,3.351834536E0,9.387999535E0,1.061732650E0
3.722610392E0,3.189804554E0,9.317514420E0,1.044149637E0
3.724610392E0,2.933931351E0,9.217715263E0,1.010831952E0
3.726610392E0,2.514582157E0,9.054190636E0,9.859897494E-1
3.728647892E0,2.218687534E0,8.924713135E0,9.953845739E-1
3.730627579E0,2.104924679E0,8.852781296E0,1.049598932E0
3.732610392E0,2.189219713E0,8.856487274E0,1.138663173E0
3.734610392E0,2.378639460E0,8.880419731E0,1.264004350E0
3.736610392E0,2.585460186E0,8.914072037E0,1.345263720E0
3.738649454E0,2.738985777E0,8.916648865E0,1.401469827E0
3.740619767E0,2.852423191E0,8.902436256E0,1.379730582E0
3.742616642E0,2.928395987E0,8.870574951E0,1.297848821E0
3.744610392E0,3.031145573E0,8.832889557E0,1.159272432E0
3.746636954E0,3.128752470E0,8.783406258E0,9.687802196E-1
3.748610392E0,3.269368649E0,8.728550911E0,7.454490066E-1
3.750610392E0,3.448129416E0,8.679058075E0,5.045636296E-1
3.752610392E0,3.649165630E0,8.651285172E0,2.725176215E-1
3.754611954E0,3.790538311E0,8.628396034E0,4.681143165E-2
3.756613517E0,3.894513845E0,8.622229576E0,-1.138778105E-1
3.758613517E0,3.946784019E0,8.581202507E0,-1.969949156E-1
3.760643204E0,3.966991186E0,8.549828529E0,-2.244611979E-1
3.762613517E0,3.964108467E0,8.494168282E0,-1.645199656E-1
3.764611954E0,3.915199757E0,8.445144653E0,-7.438305765E-2
3.766618204E0,3.864289284E0,8.394406319E0,2.836650051E-2
3.768616642E0,3.772821188E0,8.340968132E0,1.062834039E-1
3.770626017E0,3.658196449E0,8.308320045E0,1.775348485E-1
3.772610392E0,3.548848629E0,8.284875870E0,2.823817134E-1
3.774622892E0,3.504335403E0,8.257563591E0,6.252313852E-1
3.776621329E0,3.513002634E0,8.234943390E0,7.981981039E-1
3.778610392E0,3.539731503E0,8.182471275E0,8.845425844E-1
3.780621329E0,3.586360931E0,8.125940323E0,8.950579166E-1
3.782619767E0,3.634110928E0,8.055511475E0,8.362275958E-1
3.784655704E0,3.641848803E0,7.938923836E0,6.671299338E-1
3.786622892E0,3.637558699E0,7.873696327E0,5.887342095E-1
3.788610392E0,3.626142979E0,7.859570503E0,5.518443584E-1
3.790644767E0,3.614938021E0,7.858009338E0,5.135083795E-1
3.792610392E0,3.613310099E0,7.839325428E0,5.130295157E-1
3.794615079E0,3.676363707E0,7.773494244E0,5.200110674E-1
3.796610392E0,3.751723528E0,7.671826839E0,5.176360011E-1
3.798657267E0,3.806541204E0,7.614232063E0,4.817804396E-1
3.800618204E0,3.838096857E0,7.536985397E0,4.230745733E-1
3.802610392E0,3.902596712E0,7.364679337E0,3.058831990E-1
3.804635392E0,3.928415775E0,7.202189445E0,1.728709340E-1
3.806616642E0,3.929143667E0,7.089355946E0,1.418516636E-1
3.808647892E0,4.012730122E0,7.154889584E0,5.118612051E-1
3.810610392E0,3.997158051E0,7.184223652E0,9.376268387E-1
3.812611954E0,3.974384308E0,7.163614273E0,1.240234733E0
3.814610392E0,4.014750957E0,7.028284550E0,1.477078915E0
3.816647892E0,3.982285261E0,6.980208874E0,1.482987642E0
3.818611954E0,3.877888441E0,6.910499573E0,1.399612069E0
3.820610392E0,3.746169090E0,6.902473927E0,1.217442036E0
3.822615079E0,3.610647678E0,7.008393764E0,1.110143423E0
3.824619767E0,3.728202820E0,7.309162617E0,1.606691241E0
3.826652579E0,3.881431818E0,7.499865532E0,2.066761017E0
3.828613517E0,3.977764845E0,7.820928097E0,2.351737976E0
3.830610392E0,4.110106945E0,8.002944946E0,2.450245142E0
3.832610392E0,4.120449543E0,8.394894600E0,1.459400058E0
3.834629142E0,4.176464558E0,8.593288422E0,1.564946055E0
3.836610392E0,3.914835691E0,8.770592690E0,1.587336540E0
3.838616642E0,3.690719366E0,8.839392662E0,1.533936262E0
3.840610392E0,3.525644064E0,8.823323250E0,1.406210423E0
3.842615079E0,3.118744612E0,8.649685860E0,9.638193846E-1
3.844610392E0,2.833872795E0,8.579765320E0,5.413289666E-1
3.846610392E0,2.681429148E0,8.679900169E0,4.737167358E-1
3.848632267E0,2.575337410E0,8.586727142E0,5.040081739E-1
3.850611954E0,2.393713474E0,8.493602753E0,5.500056148E-1
3.852652579E0,2.128981590E0,8.292039871E0,5.280459523E-1
3.854610392E0,1.800401330E0,7.960806847E0,2.992847860E-1
3.856611954E0,1.693179488E0,7.732639790E0,1.299285442E-1
3.858611954E0,1.623910427E0,7.446369648E0,2.038998008E-1
3.860615079E0,1.289555311E0,6.795979977E0,2.626343369E-1
3.862610392E0,2.677004635E-1,5.031232834E0,3.532309532E-1
3.864611954E0,-1.654718995E0,1.128492594E0,1.173235416E0
3.866613517E0,-2.192820549E0,-9.476345778E-1,1.397122025E0
3.868610392E0,-1.958610177E0,-2.374980927E0,-1.093192548E-1
3.870635392E0,-1.616105318E0,-2.570232868E0,-6.795032024E-1
3.872616642E0,-1.526025891E0,-2.258756876E0,-6.313414574E-1
3.874610392E0,-1.312233329E0,-1.130656958E0,-2.583822422E-2
3.876610392E0,-1.110057235E0,2.193950713E-1,7.475942969E-1
3.878610392E0,-6.405925751E-1,1.391002417E0,1.827024937E0
3.880610392E0,5.039315671E-2,2.243922472E0,2.650687695E0
3.882610392E0,1.081633329E0,3.071052074E0,3.303825855E0
3.884610392E0,2.201956749E0,3.746782064E0,3.875350475E0
3.886616642E0,3.068102598E0,4.037936211E0,4.470128059E0
3.888641642E0,3.728432894E0,4.137534618E0,5.050117970E0
3.890619767E0,4.457477093E0,4.412704945E0,5.541245461E0
3.892610392E0,5.112137794E0,4.750230312E0,5.937744617E0
3.894610392E0,5.534963608E0,5.097629070E0,6.246069908E0
3.896610392E0,5.762134552E0,5.316411018E0,6.447480202E0
3.898611954E0,5.779603004E0,5.541600227E0,6.520072460E0
3.900616642E0,5.558206081E0,5.696936131E0,6.403914928E0
3.902611954E0,5.241529942E0,5.750814915E0,6.073936462E0
3.904610392E0,4.756953239E0,5.838002205E0,5.557813644E0
3.906619767E0,4.242755413E0,5.914061069E0,4.971799374E0
3.908630704E0,3.660408735E0,6.094727516E0,4.239662170E0
3.910626017E0,3.119980097E0,6.213375092E0,3.446664095E0
3.912632267E0,2.682865620E0,6.377339363E0,2.665800095E0
3.914660392E0,2.012996912E0,6.641553879E0,1.779533625E0
3.916630704E0,1.724639297E0,6.832477093E0,1.213237762E0
3.918658829E0,1.425220370E0,7.119493961E0,7.171304226E-1
3.920610392E0,1.210604072E0,7.437635422E0,2.673270106E-1
3.922611954E0,1.000431538E0,7.780083179E0,-4.613147676E-2
3.924615079E0,9.197852612E-1,8.033916473E0,-2.914126515E-1
3.926611954E0,9.627084732E-1,8.257869720E0,-3.611413836E-1
3.928611954E0,1.024948120E0,8.413397789E0,-3.287526369E-1
3.930616642E0,1.219960690E0,8.615965843E0,-3.118208349E-1
3.932630704E0,1.434222579E0,8.935898781E0,-3.463164866E-1
3.934610392E0,1.831775069E0,9.159113884E0,-2.283589691E-1
3.936654142E0,2.077831745E0,9.467774391E0,5.535394419E-3
3.938611954E0,2.214205503E0,9.808498383E0,8.440040052E-2
3.940615079E0,2.352102041E0,1.008294106E1,2.069547959E-2
3.942610392E0,2.660063505E0,1.027237034E1,-1.121922880E-1
3.944610392E0,3.210385084E0,1.041042995E1,-2.195195556E-1
3.946613517E0,3.403597116E0,1.073208618E1,-3.374004960E-1
3.948610392E0,4.082066059E0,1.084164429E1,-1.727655977E-1
3.950610392E0,4.525855541E0,1.095866299E1,2.023100406E-1
3.952624454E0,4.628729343E0,1.118671608E1,5.997954011E-1
3.954611954E0,5.163105488E0,1.130158997E1,1.182745218E0
3.956654142E0,5.450122356E0,1.130576515E1,1.409562230E0
3.958619767E0,5.976866245E0,1.136781311E1,1.746139169E0
3.960615079E0,6.215031624E0,1.152192307E1,1.984323978E0
3.962611954E0,6.264811993E0,1.171971321E1,2.399181604E0
3.964621329E0,6.160443783E0,1.189466190E1,3.001409769E0
3.966613517E0,6.127557278E0,1.206565666E1,3.467886209E0
3.968610392E0,6.533536911E0,1.241707706E1,3.573068380E0
3.970610392E0,7.760029316E0,1.411829090E1,3.199132442E0
3.972661954E0,9.307401657E0,1.676314735E1,2.743688107E0
3.974610392E0,1.160485840E1,2.155876160E1,2.240091801E0
3.976610392E0,1.260731030E1,2.386532593E1,2.014873981E0
3.978610392E0,1.369915295E1,2.709495163E1,1.307052135E0
3.980641642E0,1.365132618E1,2.788392639E1,7.204344273E-1
3.982610392E0,1.284407806E1,2.740877342E1,3.072909713E-1
3.984611954E0,1.136572552E1,2.595214081E1,7.266880572E-2
3.986611954E0,9.240115166E0,2.266676903E1,3.379846811E-1
3.988624454E0,7.138149261E0,1.985353470E1,1.062680840E0
3.990610392E0,1.249687076E0,1.184766865E1,3.654203176E0
3.992610392E0,9.943407178E-1,9.725275993E0,3.785931826E0
3.994615079E0,1.086488724E0,9.104393005E0,3.743545055E0
3.996616642E0,9.360849857E-1,8.940935135E0,3.744617701E0
3.998611954E0,7.095647454E-1,9.019139290E0,3.674879313E0
4.000616642E0,3.082773983E-1,9.253273010E0,3.509708166E0
4.002610392E0,4.435019195E-2,9.517018318E0,3.259715080E0
4.004613517E0,1.043871976E-3,9.680858612E0,2.949100971E0
4.006635392E0,4.653370380E-2,9.854466438E0,2.668452740E0
4.008610392E0,8.603803068E-2,1.015503502E1,2.442602873E0
4.010610392E0,7.992803305E-2,1.049424648E1,2.341060162E0
4.012610392E0,1.507772505E-1,1.082981777E1,2.282239199E0
4.014610392E0,2.909721136E-1,1.116486168E1,2.218371630E0
4.016610392E0,5.743306875E-1,1.122080994E1,2.178292513E0
4.018611954E0,9.281936884E-1,1.116866398E1,2.165517092E0
4.020611954E0,1.200107932E0,1.107051086E1,2.195042372E0
4.022611954E0,1.573478937E0,1.083912563E1,2.294986010E0
4.024611954E0,1.866519690E0,1.055293274E1,2.452725649E0
4.026629142E0,2.091507673E0,1.026422024E1,2.628373861E0
4.028610392E0,2.335189342E0,1.004675007E1,2.724036694E0
4.030626017E0,2.479013920E0,9.977088928E0,2.770819187E0
4.032610392E0,2.628345013E0,9.977624893E0,2.774534941E0
4.034610392E0,2.580145121E0,1.018694496E1,2.681343079E0
4.036611954E0,2.397170305E0,1.051878166E1,2.491712570E0
4.038610392E0,2.324185610E0,1.068755341E1,2.275545120E0
4.040616642E0,2.438609362E0,1.065675449E1,2.054522038E0
4.042611954E0,2.514381170E0,1.058425808E1,1.938862801E0
4.044611954E0,2.563988924E0,1.041327381E1,1.808484197E0
4.046618204E0,2.547526360E0,1.032308865E1,1.765675902E0
4.048616642E0,2.495773077E0,1.030963421E1,1.707918048E0
4.050616642E0,2.461162806E0,1.032360649E1,1.645314574E0
4.052613517E0,2.455071688E0,1.033529949E1,1.606585979E0
4.054611954E0,2.442995548E0,1.034740448E1,1.557006836E0
4.056611954E0,2.380037546E0,1.034875488E1,1.559132934E0
4.058610392E0,2.283771515E0,1.033367157E1,1.610454917E0
4.060610392E0,2.210116148E0,1.036936378E1,1.637356162E0
4.062621329E0,2.088270426E0,1.044972324E1,1.605321765E0
4.064611954E0,1.984697342E0,1.052031326E1,1.526571751E0
4.066611954E0,1.924670100E0,1.055827618E1,1.410002828E0
4.068613517E0,1.903419018E0,1.056666565E1,1.327393293E0
4.070629142E0,1.893076181E0,1.057721043E1,1.281711936E0
4.072610392E0,1.914997458E0,1.059413147E1,1.249485970E0
4.074665079E0,1.874726892E0,1.062349415E1,1.253517866E0
4.076610392E0,1.810715556E0,1.062293816E1,1.282880306E0
4.078611954E0,1.730347037E0,1.058546448E1,1.342869401E0
4.080661954E0,1.694884181E0,1.053582859E1,1.395053506E0
4.082622892E0,1.680432796E0,1.050196457E1,1.456747174E0
4.084622892E0,1.662418723E0,1.048197746E1,1.507140398E0
4.086611954E0,1.643935561E0,1.049794197E1,1.546654344E0
4.088627579E0,1.632826447E0,1.053335762E1,1.553827286E0
4.090610392E0,1.591291785E0,1.064697647E1,1.529262781E0
4.092619767E0,1.552122712E0,1.074025536E1,1.506651998E0
4.094615079E0,1.517129064E0,1.079853916E1,1.478821754E0
4.096621329E0,1.511526585E0,1.082384109E1,1.427298546E0
4.098610392E0,1.574637651E0,1.084899044E1,1.354438186E0
4.100610392E0,1.583936810E0,1.084624100E1,1.316992879E0
4.102610392E0,1.583295107E0,1.084354115E1,1.318094254E0
4.104613517E0,1.589194417E0,1.082895470E1,1.317797422E0
4.106619767E0,1.602352977E0,1.081696510E1,1.287276149E0
4.108616642E0,1.634042621E0,1.079780197E1,1.295952678E0
4.110610392E0,1.654029369E0,1.075050163E1,1.298337221E0
4.112618204E0,1.673183084E0,1.073289108E1,1.306736112E0
4.114621329E0,1.699461818E0,1.072887802E1,1.318400621E0
4.116618204E0,1.724390268E0,1.071441746E1,1.372049928E0
4.118611954E0,1.744415402E0,1.066424274E1,1.441874504E0
4.120610392E0,1.756070256E0,1.061129379E1,1.500666499E0
4.122622892E0,1.770358920E0,1.054743576E1,1.540898681E0
4.124619767E0,1.782569289E0,1.046954727E1,1.588792205E0
4.126621329E0,1.755035996E0,1.037336731E1,1.649193168E0
4.128621329E0,1.738793850E0,1.024330425E1,1.727828383E0
4.130610392E0,1.720052004E0,1.009906864E1,1.775453687E0
4.132610392E0,1.712993860E0,9.950015068E0,1.822878122E0
4.134615079E0,1.711739302E0,9.803748131E0,1.870446205E0
4.136610392E0,1.707123280E0,9.665621758E0,1.906205893E0
4.138611954E0,1.676534891E0,9.553162575E0,1.920159340E0
4.140613517E0,1.624063611E0,9.495643616E0,1.901053548E0
4.142652579E0,1.559161663E0,9.473396301E0,1.838660717E0
4.144610392E0,1.513231158E0,9.493364334E0,1.789589167E0
4.146630704E0,1.443033218E0,9.532714844E0,1.753532529E0
4.148613517E0,1.389613748E0,9.558065414E0,1.704930186E0
4.150610392E0,1.376273274E0,9.551351547E0,1.701568723E0
4.152610392E0,1.467291236E0,9.509606361E0,1.786648989E0
4.154610392E0,1.529415965E0,9.485549927E0,1.848141670E0
4.156611954E0,1.538408637E0,9.474679947E0,1.883882403E0
4.158610392E0,1.516429901E0,9.479736328E0,1.891543865E0
4.160610392E0,1.520538330E0,9.470877647E0,1.883662105E0
4.162647892E0,1.536866784E0,9.410974503E0,1.855506301E0
4.164619767E0,1.553271890E0,9.307793617E0,1.872074246E0
4.166610392E0,1.594394684E0,9.229130745E0,1.884217501E0
4.168610392E0,1.653952837E0,9.156643867E0,1.897194266E0
4.170610392E0,1.700113058E0,9.086550713E0,1.925761700E0
4.172610392E0,1.721297026E0,9.050561905E0,1.945997596E0
4.174610392E0,1.738535166E0,9.024416924E0,1.958830476E0
4.176610392E0,1.754423141E0,8.986252785E0,1.973655343E0
4.178627579E0,1.836094141E0,8.945628166E0,1.986019015E0
4.180610392E0,1.943565011E0,8.904103279E0,1.986038208E0
4.182610392E0,2.059329510E0,8.858306885E0,1.945825219E0
4.184610392E0,2.176453829E0,8.800424576E0,1.900756717E0
4.186616642E0,2.296872616E0,8.737916946E0,1.877580762E0
4.188610392E0,2.416400671E0,8.611062050E0,1.908255339E0
4.190610392E0,2.500475645E0,8.468004227E0,1.928443193E0
4.192610392E0,2.573345423E0,8.360792160E0,1.941333652E0
4.194610392E0,2.606528997E0,8.294176102E0,1.942511559E0
4.196613517E0,2.591349840E0,8.224206924E0,1.985520959E0
4.198622892E0,2.469130516E0,8.054449081E0,2.164023161E0
4.200611954E0,2.517656326E0,8.019762039E0,2.127162218E0
4.202611954E0,2.546233416E0,8.079559326E0,2.058515310E0
4.204610392E0,2.525624275E0,8.097793579E0,2.100461960E0
4.206610392E0,2.386147738E0,8.097649574E0,2.292582273E0
4.208640079E0,8.893789053E-1,7.883148670E0,5.373230457E0
