"Time (s)","Acceleration x (m/s^2)","Acceleration y (m/s^2)","Acceleration z (m/s^2)"
1.226486600E-2,-1.182652593E0,4.103391647E0,9.746265411E0
1.468533500E-2,-1.015154958E0,4.115355968E0,9.650552750E0
1.708314700E-2,-8.644071817E-1,4.112963200E0,9.533304214E0
1.948069900E-2,-7.037889361E-1,4.117748737E0,9.387342453E0
2.187898100E-2,-5.841478109E-1,4.110570431E0,9.169296265E0
2.427710600E-2,-4.597210586E-1,4.100998878E0,8.932407379E0
2.667512600E-2,-3.113660514E-1,4.067499161E0,8.709874153E0
2.907314700E-2,-1.770688742E-1,4.038785458E0,8.412865639E0
3.147101200E-2,-9.092725813E-2,3.986143351E0,8.156833649E0
3.386934500E-2,-1.435693540E-2,3.957429647E0,7.924430370E0
3.629450100E-2,5.024927482E-2,3.897608995E0,7.606184959E0
3.874694900E-2,6.221338734E-2,3.861716747E0,7.440781116E0
4.119960600E-2,4.785645381E-2,3.825824261E0,7.285247803E0
4.365132400E-2,1.914258115E-2,3.799503326E0,7.203891754E0
4.610715800E-2,-2.153540403E-2,3.754039526E0,7.096214771E0
4.856674100E-2,-9.810572863E-2,3.718147278E0,7.048357964E0
5.102491800E-2,-1.914258152E-1,3.689433336E0,7.026822567E0
5.348184500E-2,-2.536391914E-1,3.672683716E0,7.050751209E0
5.593778300E-2,-3.305086195E-1,3.684647799E0,7.129714012E0
5.839288700E-2,-3.616153300E-1,3.667897940E0,7.213462830E0
6.084726200E-2,-4.118646085E-1,3.684647799E0,7.287640572E0
6.330096000E-2,-4.381856322E-1,3.727718592E0,7.383353233E0
6.575408500E-2,-4.357928336E-1,3.754039526E0,7.505387306E0
6.820674100E-2,-4.405784607E-1,3.763610840E0,7.594220638E0
7.065898100E-2,-4.405784607E-1,3.813860178E0,7.680362701E0
7.311075100E-2,-4.094717801E-1,3.847359657E0,7.778468132E0
7.556215800E-2,-4.286143482E-1,3.931108475E0,7.881359577E0
7.801319900E-2,-3.735794425E-1,3.957429647E0,7.967501163E0
8.046392800E-2,-3.376871049E-1,3.988536358E0,8.072785378E0
8.291429300E-2,-3.185445070E-1,4.024428368E0,8.140083313E0
8.536434500E-2,-2.826521695E-1,4.036392689E0,8.195118904E0
8.781413700E-2,-2.608176768E-1,4.043570995E0,8.286046028E0
9.025387600E-2,-2.512463629E-1,4.065106392E0,8.341080666E0
9.266622000E-2,-2.416750938E-1,4.055535316E0,8.400900841E0
9.506153300E-2,-2.368894368E-1,4.019642830E0,8.463114738E0
9.745767800E-2,-2.536391914E-1,4.012464523E0,8.513363838E0
9.985377200E-2,-2.177468538E-1,3.993321896E0,8.577970505E0
1.022490850E-1,-2.081755698E-1,3.957429647E0,8.642576218E0
1.046443970E-1,-2.057827413E-1,3.892823458E0,8.743373871E0
1.070404910E-1,-1.818545163E-1,3.842574120E0,8.819944382E0
1.094365850E-1,-1.842473447E-1,3.789932013E0,8.879764557E0
1.118319490E-1,-1.890329868E-1,3.732504129E0,8.997013092E0
1.142272620E-1,-1.866401732E-1,3.689433336E0,9.073583603E0
1.166233560E-1,-1.842473447E-1,3.602992773E0,9.133403778E0
1.190194490E-1,-1.698904037E-1,3.538386583E0,9.221938133E0
1.214147620E-1,-1.674975902E-1,3.457030535E0,9.272486687E0
1.238100740E-1,-1.387837082E-1,3.368496180E0,9.356235504E0
1.262061680E-1,-9.092725813E-2,3.277568817E0,9.418449402E0
1.286022620E-1,-3.828516230E-2,3.189034462E0,9.502198219E0
1.309976260E-1,2.392822690E-2,3.124428272E0,9.542876244E0
1.333929390E-1,1.316052526E-1,3.052344322E0,9.593125343E0
1.357890330E-1,2.033899277E-1,2.978166819E0,9.609874725E0
1.381851260E-1,2.679961324E-1,2.935096025E0,9.650552750E0
1.405804390E-1,3.520440459E-1,2.887239695E0,9.640981674E0
1.429757510E-1,4.070789516E-1,2.834597588E0,9.650552750E0
1.453718970E-1,4.645066857E-1,2.836990356E0,9.664909363E0
1.477679910E-1,5.075774789E-1,2.808276415E0,9.648159981E0
1.501633030E-1,5.721837282E-1,2.789133787E0,9.593125343E0
1.525586160E-1,6.032904387E-1,2.758027315E0,9.559625626E0
1.549547100E-1,6.200401783E-1,2.753241539E0,9.502198219E0
1.573508030E-1,6.750751138E-1,2.758027315E0,9.437591553E0
1.597461680E-1,7.277171612E-1,2.755634308E0,9.351449966E0
1.621414810E-1,7.731808424E-1,2.760420084E0,9.286844254E0
1.645375740E-1,8.548358679E-1,2.765205622E0,9.212367058E0
1.669336680E-1,9.026923180E-1,2.810669184E0,9.154939651E0
1.693289810E-1,9.672985673E-1,2.841775894E0,9.066405296E0
1.717242930E-1,1.046261668E0,2.892025232E0,9.006584167E0
1.741204390E-1,1.096511006E0,2.918346405E0,8.963513374E0
1.765165330E-1,1.151545882E0,2.956631422E0,8.918049812E0
1.789118450E-1,1.199402332E0,2.980559587E0,8.886942863E0
1.813071580E-1,1.232901812E0,3.014059305E0,8.803194046E0
1.837032510E-1,1.261615753E0,3.028416157E0,8.769695282E0
1.860993450E-1,1.297508121E0,3.023630619E0,8.748159409E0
1.884947100E-1,1.316650629E0,3.023630619E0,8.733802795E0
1.908900220E-1,1.323829174E0,3.042773008E0,8.731410027E0
1.932861160E-1,1.335793257E0,3.061915636E0,8.769695282E0
1.956822100E-1,1.340578914E0,3.052344322E0,8.764909744E0
1.980775220E-1,1.340578914E0,3.040380239E0,8.791230202E0
2.004728350E-1,1.352542996E0,3.040380239E0,8.843872070E0
2.028689810E-1,1.359721422E0,3.069094181E0,8.851051331E0
2.052650740E-1,1.371685624E0,3.052344322E0,8.855836868E0
2.076603870E-1,1.352542996E0,3.057130098E0,8.839086533E0
2.100556990E-1,1.321436286E0,3.069094181E0,8.831908226E0
2.124517930E-1,1.328614831E0,3.107678413E0,8.829515457E0
2.148478870E-1,1.309472203E0,3.107678413E0,8.819944382E0
2.172432510E-1,1.295115232E0,3.107678413E0,8.815158844E0
2.196385640E-1,1.292722464E0,3.112463951E0,8.829515457E0
2.220346580E-1,1.275972724E0,3.124428272E0,8.827122688E0
2.244308030E-1,1.268794179E0,3.131606579E0,8.824729919E0
2.268260640E-1,1.261615753E0,3.153141975E0,8.798408508E0
2.292213760E-1,1.254437327E0,3.184248686E0,8.767302513E0
2.316175220E-1,1.249651670E0,3.177070379E0,8.736195564E0
2.340136160E-1,1.237687469E0,3.186641455E0,8.717052460E0
2.364089280E-1,1.213759303E0,3.193820000E0,8.680861473E0
2.388042410E-1,1.220937729E0,3.205784082E0,8.668897629E0
2.412003870E-1,1.252044439E0,3.212962627E0,8.592327118E0
2.435964810E-1,1.278365493E0,3.234498024E0,8.566005707E0
2.459917930E-1,1.314257860E0,3.251247883E0,8.527720451E0
2.483871060E-1,1.335793257E0,3.284747362E0,8.499007225E0
2.507831990E-1,1.354935765E0,3.306282759E0,8.448758125E0
2.531793450E-1,1.369292736E0,3.315854073E0,8.415258408E0
2.555746060E-1,1.429412484E0,3.306282759E0,8.357830048E0
2.579699180E-1,1.470090389E0,3.284747362E0,8.264510155E0
2.603660640E-1,1.501197100E0,3.267997503E0,8.185546875E0
2.627621580E-1,1.510768414E0,3.265604734E0,8.115856171E0
2.651574700E-1,1.508375525E0,3.256033421E0,8.017750740E0
2.675527830E-1,1.491625786E0,3.232105255E0,7.917252064E0
2.699489280E-1,1.498804331E0,3.203391314E0,7.809575081E0
2.723450220E-1,1.477268934E0,3.198605776E0,7.692326546E0
2.747403350E-1,1.494018674E0,3.167499065E0,7.577471256E0
2.771356470E-1,1.556231976E0,3.112463951E0,7.479066372E0
2.795317410E-1,1.594517231E0,3.033201694E0,7.390532017E0
2.819278870E-1,1.498804331E0,2.968595505E0,7.287640572E0
2.843231470E-1,1.745265007E0,2.899203777E0,7.211070061E0
2.867184600E-1,2.080559254E0,2.851347208E0,7.165606499E0
2.891146060E-1,2.365305185E0,2.801098108E0,7.089035988E0
2.915106990E-1,2.506481647E0,2.714956284E0,6.983452797E0
2.939060120E-1,2.573779821E0,2.659921408E0,6.923632145E0
2.963013240E-1,2.863311291E0,2.568994284E0,6.911668301E0
2.986974700E-1,3.114856958E0,2.453839540E0,6.933203697E0
3.010935640E-1,3.284747362E0,2.348555326E0,6.945167542E0
3.034888760E-1,3.497708559E0,2.312663078E0,6.916453838E0
3.058841890E-1,3.651148319E0,2.276770830E0,6.921239376E0
3.082802830E-1,3.763610840E0,2.164308071E0,6.947560310E0
3.106764280E-1,3.780360699E0,2.068595171E0,6.988238335E0
3.130717410E-1,3.763610840E0,1.968096614E0,7.041179657E0
3.154670530E-1,3.715754509E0,1.829013824E0,7.105785847E0
3.178631470E-1,3.658326626E0,1.742872238E0,7.134500027E0
3.202592410E-1,3.574278831E0,1.635195136E0,7.184749126E0
3.226545530E-1,3.468994617E0,1.505982757E0,7.206284523E0
3.250498660E-1,3.366103172E0,1.374078393E0,7.234998226E0
3.274460120E-1,3.306282759E0,1.244866014E0,7.249355316E0
3.298421060E-1,3.236890793E0,1.089332461E0,7.232605457E0
3.322374180E-1,3.215355396E0,6.367899179E-1,7.139285564E0
3.346327310E-1,3.244069338E0,3.017947674E-1,7.189534664E0
3.370288760E-1,3.256033421E0,1.004985496E-1,7.383353233E0
3.394249700E-1,3.076272726E0,1.268195957E-1,7.529315472E0
3.418202830E-1,2.870489836E0,2.874378264E-1,7.697112083E0
3.442155950E-1,2.741277456E0,4.501497746E-1,7.900502205E0
3.466116890E-1,2.781955481E0,5.267201066E-1,8.293224335E0
3.490078350E-1,2.980559587E0,5.745765567E-1,8.922835350E0
3.514030950E-1,3.136392355E0,5.626124144E-1,9.423234940E0
3.537984080E-1,3.468994617E0,3.185445070E-1,9.885348320E0
3.561945530E-1,4.307080746E0,-7.301099896E-1,1.041446114E1
3.585906470E-1,5.839085579E0,-2.970988512E0,1.134796143E1
3.609859600E-1,5.935097694E0,-4.050749779E0,1.183400345E1
3.633812720E-1,5.506483078E0,-4.836193562E0,1.193450165E1
3.657774180E-1,5.156831741E0,-4.927121162E0,1.204696465E1
3.681735120E-1,4.354937077E0,-4.340580463E0,1.224108219E1
3.705688240E-1,3.363710403E0,-3.933501244E0,1.180289650E1
3.729641370E-1,2.743670225E0,-3.715754509E0,1.130249786E1
3.753602310E-1,2.343769789E0,-3.378067255E0,1.092413235E1
3.777563760E-1,2.185843468E0,-3.011666298E0,1.063220787E1
3.801516370E-1,1.941476464E0,-2.789133787E0,1.039292622E1
3.825469490E-1,1.470090389E0,-2.683849812E0,1.008156013E1
3.849430950E-1,7.683951855E-1,-2.573779821E0,9.705587387E0
3.873391890E-1,-8.135596663E-2,-2.468196630E0,9.315557480E0
3.897345010E-1,-1.000798106E0,-2.355733871E0,8.932407379E0
3.921298140E-1,-1.965703845E0,-2.188236237E0,8.554041862E0
3.945259600E-1,-2.880061150E0,-1.987239242E0,8.247760773E0
3.969220530E-1,-3.699004650E0,-1.716551185E0,7.998608112E0
3.993173660E-1,-4.354937077E0,-1.424626827E0,7.847859859E0
4.017126780E-1,-4.814658165E0,-1.115653515E0,7.819146156E0
4.041088240E-1,-5.034798145E0,-5.171487927E-1,7.680362701E0
4.065049180E-1,-5.051547527E0,2.608176768E-1,7.292426109E0
4.089002310E-1,-4.829015255E0,1.067797065E0,7.084250450E0
4.112955430E-1,-4.505684853E0,1.728515267E0,7.301997185E0
4.136916370E-1,-4.108177185E0,2.149951220E0,8.216653824E0
4.160877310E-1,-3.490530014E0,2.600100994E0,9.358628273E0
4.184830430E-1,-2.688635349E0,3.148356438E0,1.038335514E1
4.208783560E-1,-1.857727647E0,3.770789385E0,1.128574753E1
4.232745010E-1,-1.046261668E0,4.323830605E0,1.218126202E1
4.256705950E-1,-3.161516786E-1,4.826622486E0,1.305015564E1
4.280659080E-1,2.922234535E-1,5.231009483E0,1.377817154E1
4.304612200E-1,7.779664397E-1,5.566303730E0,1.438385487E1
4.328573660E-1,1.163509965E0,5.798407555E0,1.497039604E1
4.352534600E-1,1.364507079E0,5.987739563E0,1.542981815E1
4.376487720E-1,1.450947881E0,6.071488380E0,1.579382610E1
4.400440850E-1,1.458126307E0,6.085845470E0,1.610040665E1
4.424401780E-1,1.352542996E0,6.021239281E0,1.625354767E1
4.448363240E-1,1.065404296E0,5.872584820E0,1.604297829E1
4.472316370E-1,4.334000051E-1,5.712265968E0,1.493450356E1
4.496269490E-1,-3.400799036E-1,5.470590591E0,1.339023590E1
4.520230430E-1,-6.176473498E-1,5.104189873E0,1.325862980E1
4.544191890E-1,-6.655037999E-1,4.644468784E0,1.395045471E1
4.568144490E-1,-9.170492887E-1,4.328616142E0,1.466620827E1
4.592097620E-1,-1.244866014E0,4.089034557E0,1.512592888E1
4.616059080E-1,-1.642373681E0,3.868895054E0,1.540588951E1
4.640020010E-1,-2.082952023E0,3.687040567E0,1.542742443E1
4.663973140E-1,-2.465803623E0,3.507279873E0,1.553300858E1
4.687926260E-1,-2.815454960E0,3.315854073E0,1.546361637E1
4.711887720E-1,-3.054737091E0,3.136392355E0,1.525274849E1
4.735848660E-1,-3.260818958E0,3.049951553E0,1.491057491E1
4.759801780E-1,-3.361317635E0,3.006880760E0,1.429502201E1
4.783754910E-1,-3.464209080E0,3.009273529E0,1.367976665E1
4.807715850E-1,-3.485744476E0,2.942274570E0,1.315065384E1
4.831677310E-1,-3.535993576E0,3.006880760E0,1.243490124E1
4.855629910E-1,-3.648755312E0,3.131606579E0,1.193210888E1
4.879583030E-1,-3.703790426E0,3.239283562E0,1.120678520E1
4.903544490E-1,-3.670290947E0,3.330210924E0,1.056520939E1
4.927505950E-1,-3.619742393E0,3.545564890E0,9.880562782E0
4.951458560E-1,-3.342175007E0,3.710968733E0,9.341878891E0
4.975411680E-1,-2.880061150E0,3.801896095E0,8.796015739E0
4.999373140E-1,-2.367697954E0,3.871287823E0,8.209475517E0
5.023334080E-1,-1.924726725E0,3.885644913E0,7.778468132E0
5.047287200E-1,-1.482054472E0,4.005286217E0,7.613363266E0
5.071240330E-1,-1.103689432E0,4.177569389E0,7.704290867E0
5.095201780E-1,-8.811569214E-1,4.326223373E0,7.850253105E0
5.119162720E-1,-8.476574421E-1,4.472185612E0,8.008178711E0
5.143115850E-1,-8.859425783E-1,4.639683247E0,8.159226418E0
5.167068970E-1,-9.170492887E-1,4.843372345E0,8.436793327E0
5.191029910E-1,-9.601200819E-1,4.979763031E0,8.772088051E0
5.214991370E-1,-1.012762189E0,5.108975410E0,9.044869423E0
5.238943970E-1,-1.091725349E0,5.228616714E0,9.248259544E0
5.262897100E-1,-1.170688510E0,5.314758301E0,9.461520195E0
5.286858560E-1,-1.216152072E0,5.365306377E0,9.640981674E0
5.310819490E-1,-1.266401410E0,5.394020557E0,9.844670296E0
5.334772620E-1,-1.225723386E0,5.348556995E0,1.006002426E1
5.358725740E-1,-9.314061999E-1,5.106582642E0,1.020359421E1
5.382687200E-1,-5.027918816E-1,4.673182487E0,1.035434151E1
5.406648140E-1,-5.503492057E-2,4.201497555E0,1.035194874E1
5.430601260E-1,3.664009571E-1,3.754039526E0,1.023948669E1
5.454554390E-1,7.253243923E-1,3.346960783E0,1.014138031E1
5.478515850E-1,1.024726272E0,3.052344322E0,1.002891827E1
5.502476780E-1,1.448554993E0,2.899203777E0,9.763015747E0
5.526429910E-1,1.876870275E0,2.865704298E0,9.356235504E0
5.550383030E-1,2.257628202E0,2.956631422E0,9.028120041E0
5.574343970E-1,2.549851656E0,3.136392355E0,8.666504860E0
5.598305430E-1,2.717349291E0,3.342175007E0,8.336295128E0
5.622258030E-1,2.671885490E0,3.473780155E0,7.924430370E0
5.646211160E-1,2.504088879E0,3.524029493E0,7.548458099E0
5.670172620E-1,2.245664120E0,3.569493294E0,7.203891754E0
5.694133560E-1,1.999203324E0,3.581457376E0,7.237390995E0
5.718086680E-1,1.740479350E0,3.586242914E0,7.507780075E0
5.742039810E-1,1.491625786E0,3.545564890E0,7.587042332E0
5.766001260E-1,1.309472203E0,3.490530014E0,7.488637447E0
5.789962200E-1,1.108475089E0,3.471387386E0,7.376174927E0
5.813915330E-1,8.763712645E-1,3.504886866E0,7.268497944E0
5.837868450E-1,5.482555032E-1,3.581457376E0,7.342675209E0
5.861829910E-1,1.603191197E-1,3.660719633E0,7.395317554E0
5.885790850E-1,-1.698904037E-1,3.667897940E0,7.479066372E0
5.909743970E-1,-3.855435550E-1,3.602992773E0,7.699504852E0
5.933697100E-1,-5.075774789E-1,3.524029493E0,7.890930653E0
5.957658560E-1,-6.200401783E-1,3.409173965E0,8.113463402E0
5.981619490E-1,-6.607181430E-1,3.294318676E0,8.278866768E0
6.005572100E-1,-6.080760360E-1,3.174677372E0,8.460721970E0
6.029525220E-1,-5.578267574E-1,3.112463951E0,8.717052460E0
6.053486680E-1,-4.884349108E-1,3.093321562E0,8.867800713E0
6.077448140E-1,-4.573282301E-1,3.037987471E0,9.044869423E0
6.101400740E-1,-4.549354017E-1,2.966202736E0,9.267701149E0
6.125353870E-1,-4.525425732E-1,2.889632463E0,9.413662910E0
6.149315330E-1,-4.477569461E-1,2.791526794E0,9.480662346E0
6.173276260E-1,-4.405784607E-1,2.717349291E0,9.590732574E0
6.197229390E-1,-4.621138871E-1,2.633600473E0,9.662516594E0
6.221182510E-1,-4.118646085E-1,2.588136673E0,9.602696419E0
6.245143970E-1,-3.472583890E-1,2.573779821E0,9.638588905E0
6.269104910E-1,-2.703889608E-1,2.576172590E0,9.686445236E0
6.293058030E-1,-1.172483116E-1,2.559422970E0,9.672088623E0
6.317011160E-1,5.742774159E-2,2.542673111E0,9.648159981E0
6.340972620E-1,2.994019389E-1,2.545065880E0,9.669695854E0
6.364933560E-1,5.769693851E-1,2.554637194E0,9.703194618E0
6.388886680E-1,8.907282352E-1,2.597707987E0,9.755837440E0
6.412839810E-1,1.208973646E0,2.686242580E0,9.880562782E0
6.436800740E-1,1.539482236E0,2.813062191E0,9.966704369E0
6.460762200E-1,1.831406593E0,2.887239695E0,1.001934624E1
6.484714810E-1,2.092523336E0,2.968595505E0,1.011984539E1
6.508667930E-1,2.355733871E0,3.028416157E0,1.027059269E1
6.532629390E-1,2.619243383E0,3.049951553E0,1.057717323E1
6.556590330E-1,2.927917719E0,3.076272726E0,1.093609715E1
6.580543450E-1,2.899203777E0,3.110071182E0,1.084277630E1
6.604496580E-1,3.042773008E0,3.129213810E0,1.115653515E1
6.628458030E-1,2.966202736E0,3.162713289E0,1.128574753E1
6.652418970E-1,2.880061150E0,3.141177893E0,1.130010509E1
6.676372100E-1,2.832204819E0,3.098107100E0,1.127617645E1
6.700325220E-1,2.777169704E0,3.026023388E0,1.125942707E1
6.724286680E-1,2.590529680E0,2.939881802E0,1.110150051E1
6.748247620E-1,2.286342144E0,2.741277456E0,1.091695404E1
6.772200740E-1,1.754836321E0,2.468196630E0,1.076859951E1
6.796153870E-1,1.187438250E0,2.169093609E0,1.046710396E1
6.820114810E-1,7.181459069E-1,1.879263043E0,1.004806042E1
6.844076260E-1,2.536391914E-1,1.687837243E0,9.638588905E0
6.868028870E-1,-3.592225015E-1,1.584945917E0,9.229117393E0
6.891981990E-1,-1.005583763E0,1.544267893E0,9.030512810E0
6.915943450E-1,-1.642373681E0,1.549053550E0,9.059226990E0
6.939904910E-1,-2.099701881E0,1.537089467E0,9.099904060E0
6.963857510E-1,-2.300698996E0,1.608874083E0,9.217152596E0
6.987810640E-1,-2.319841623E0,1.706979871E0,9.416056633E0
7.011772100E-1,-2.080559254E0,1.980060697E0,9.451948166E0
7.035733030E-1,-1.644766450E0,2.329412937E0,9.430413246E0
7.059686160E-1,-1.153938770E0,2.681456804E0,9.349057198E0
7.083639280E-1,-6.966105103E-1,2.942274570E0,9.277272224E0
7.107600740E-1,-2.153540403E-1,3.179463148E0,9.277272224E0
7.131561680E-1,1.674975902E-1,3.380460262E0,9.313164711E0
7.155514810E-1,5.075774789E-1,3.502494097E0,9.384949684E0
7.179467930E-1,8.452646136E-1,3.576671600E0,9.459127426E0
7.203429390E-1,1.153938770E0,3.605385542E0,9.521340370E0
7.227390330E-1,1.503589988E0,3.593421459E0,9.585947037E0
7.251343450E-1,1.840977907E0,3.540779352E0,9.585947037E0
7.275296580E-1,2.169093609E0,3.440280676E0,9.583553314E0
7.299257510E-1,2.494517565E0,3.361317635E0,9.571589470E0
7.323218970E-1,2.731706142E0,3.253640652E0,9.516554832E0
7.347171580E-1,2.963809967E0,3.138785124E0,9.547661781E0
7.371124700E-1,3.172284603E0,3.006880760E0,9.545269012E0
7.395086160E-1,3.308675528E0,2.853740215E0,9.406484604E0
7.419047100E-1,3.351746321E0,2.717349291E0,9.327521324E0
7.443000220E-1,3.323032379E0,2.566601276E0,9.202795982E0
7.466953350E-1,3.275176048E0,2.444268227E0,9.049654961E0
7.490914810E-1,3.205784082E0,2.336591244E0,8.896514893E0
7.514875740E-1,3.241676569E0,2.367697954E0,8.812766075E0
7.538828870E-1,3.370888948E0,2.520838737E0,8.774480820E0
7.562781990E-1,3.564707518E0,2.774776936E0,8.692825317E0
7.586743450E-1,3.833002806E0,3.047558784E0,8.625826836E0
7.610704390E-1,3.935894251E0,3.212962627E0,8.499007225E0
7.634657510E-1,4.053142548E0,3.378067255E0,8.317152023E0
7.658610640E-1,4.129712582E0,3.492922783E0,8.115856171E0
7.682571580E-1,4.213760853E0,3.605385542E0,7.938787460E0
7.706533030E-1,4.297509670E0,3.667897940E0,7.828717709E0
7.730486160E-1,4.517649174E0,3.708575964E0,7.764111042E0
7.754439280E-1,4.785944462E0,3.734897137E0,7.706683636E0
7.778400220E-1,5.128118038E0,3.758825302E0,7.752147198E0
7.802361680E-1,5.403591633E0,3.770789385E0,7.792825222E0
7.826314280E-1,5.717051506E0,3.809074640E0,7.838288784E0
7.850267410E-1,5.918347836E0,3.840181351E0,7.864609718E0
7.874228870E-1,6.081059456E0,3.859323740E0,7.874181271E0
7.898190330E-1,6.140880108E0,3.868895054E0,7.883752346E0
7.922142930E-1,6.181558132E0,3.768396616E0,7.816753387E0
7.946096060E-1,6.203093529E0,3.653541088E0,7.713861942E0
7.970057510E-1,6.162415504E0,3.552743435E0,7.589435101E0
7.994018450E-1,6.004489422E0,3.485744476E0,7.424031258E0
8.017971580E-1,5.769693375E0,3.468994617E0,7.275676250E0
8.041924700E-1,5.444269657E0,3.495315790E0,7.144071102E0
8.065886160E-1,4.974977493E0,3.483351469E0,6.787241459E0
8.089847100E-1,4.295116425E0,3.433102369E0,6.059524059E0
8.113800220E-1,3.346960783E0,3.382853031E0,5.027619362E0
8.137753350E-1,2.401197433E0,3.296711445E0,3.859323740E0
8.161714810E-1,2.501696110E0,2.985345364E0,3.978965044E0
8.185675740E-1,4.002892971E0,2.451446772E0,4.905585289E0
8.209628870E-1,4.742574692E0,2.193022013E0,5.324329376E0
8.233581990E-1,4.742574692E0,1.943869352E0,6.037988663E0
8.257542930E-1,4.486542225E0,1.730908036E0,6.346662998E0
8.281504390E-1,4.323830605E0,1.582553029E0,6.138487339E0
8.305457510E-1,4.268795490E0,1.498804331E0,5.798407555E0
8.329410640E-1,4.319045067E0,1.544267893E0,5.561518192E0
8.353371580E-1,4.469792843E0,1.687837243E0,5.494519234E0
8.377332510E-1,4.522434711E0,1.886441588E0,5.439484119E0
8.401285640E-1,4.421936035E0,1.999203324E0,5.575874805E0
8.425238760E-1,4.182354927E0,2.159522533E0,5.779264927E0
8.449200220E-1,3.904787540E0,2.300698996E0,5.839085579E0
8.473161160E-1,3.598206997E0,2.370090723E0,5.815157413E0
8.497114280E-1,3.229712248E0,2.453839540E0,5.762515068E0
8.521067410E-1,2.803490877E0,2.516052961E0,5.798407555E0
8.545028870E-1,2.398804665E0,2.554637194E0,5.848656654E0
8.568989810E-1,2.006381750E0,2.612065077E0,5.877370834E0
8.592942930E-1,1.589731574E0,2.621636391E0,5.836692810E0
8.616896060E-1,1.292722464E0,2.657528639E0,5.681159019E0
8.640857510E-1,7.588238716E-1,2.508874655E0,5.709873199E0
8.664818450E-1,3.305086195E-1,2.470589399E0,5.630909920E0
8.688771580E-1,-9.092725813E-2,2.525923491E0,5.197509766E0
8.712724700E-1,-3.305086195E-1,2.609672308E0,4.838586330E0
8.736685640E-1,-4.645066857E-1,2.868097067E0,4.390829563E0
8.760647100E-1,-8.377870321E-1,2.963809967E0,4.302295208E0
8.784600220E-1,-1.388435364E0,3.028416157E0,4.563112736E0
8.808553350E-1,-2.111665964E0,3.085843801E0,5.065904617E0
8.832514280E-1,-2.585743904E0,3.236890793E0,5.554339409E0
8.856475740E-1,-2.820240498E0,3.442673683E0,6.006882191E0
8.880428350E-1,-3.093321562E0,3.699004650E0,6.681957245E0
8.904381470E-1,-3.459423304E0,4.117748737E0,7.311568737E0
8.928342930E-1,-3.866502285E0,4.555934429E0,7.807182312E0
8.952303870E-1,-4.328616142E0,5.097011566E0,8.295617104E0
8.976256990E-1,-4.658825874E0,5.484947681E0,8.901300430E0
9.000210120E-1,-4.879264355E0,5.645267010E0,9.416056633E0
9.024171580E-1,-5.089832783E0,5.585446358E0,9.839884758E0
9.048132510E-1,-5.207081318E0,5.350949764E0,1.018923664E1
9.072085640E-1,-4.900799751E0,4.843372345E0,1.025384331E1
9.096038760E-1,-4.129712582E0,4.093820572E0,9.897313118E0
9.120000220E-1,-3.208176851E0,3.311068296E0,9.399306297E0
9.143961160E-1,-2.346162558E0,2.774776936E0,9.035298347E0
9.167914280E-1,-1.644766450E0,2.547458887E0,8.829515457E0
9.191867410E-1,-1.103689432E0,2.602493763E0,8.695218086E0
9.215828350E-1,-7.827520967E-1,2.856132984E0,8.589934349E0
9.239789810E-1,-6.080760360E-1,3.136392355E0,8.489435196E0
9.263742930E-1,-6.008976102E-1,3.351746321E0,8.350651741E0
9.287696060E-1,-6.535396576E-1,3.490530014E0,8.190332413E0
9.311656990E-1,-7.372884750E-1,3.547957659E0,7.984251022E0
9.335618450E-1,-8.715856671E-1,3.531208038E0,7.742575645E0
9.359571060E-1,-1.015154958E0,3.562314749E0,7.522137165E0
9.383524180E-1,-1.192223907E0,3.576671600E0,7.254140854E0
9.407485640E-1,-1.410269856E0,3.591028690E0,6.978667259E0
9.431447100E-1,-1.625623941E0,3.634099483E0,6.732206345E0
9.455399700E-1,-1.857727647E0,3.648755312E0,6.442375660E0
9.479352830E-1,-2.008774519E0,3.598206997E0,6.104988098E0
9.503314280E-1,-1.824228168E0,3.265604734E0,5.616552830E0
9.527275220E-1,-1.637588024E0,2.887239695E0,4.934299469E0
9.551228350E-1,-1.537089467E0,2.734098911E0,4.402793884E0
9.575181470E-1,-1.532303810E0,2.762812853E0,4.091427803E0
9.599142930E-1,-1.584945917E0,2.868097067E0,3.871287823E0
9.623103870E-1,-1.642373681E0,3.047558784E0,3.689433336E0
9.647056990E-1,-1.762014747E0,3.244069338E0,3.576671600E0
9.671010120E-1,-1.958226204E0,3.425923824E0,3.521636724E0
9.694971580E-1,-2.178664923E0,3.559921980E0,3.490530014E0
9.718932510E-1,-2.482553482E0,3.665505171E0,3.507279873E0
9.742885640E-1,-2.827419043E0,3.694219112E0,3.502494097E0
9.766838760E-1,-3.165106058E0,3.675076485E0,3.614956856E0
9.790799700E-1,-3.492922783E0,3.607778311E0,3.787539244E0
9.814761160E-1,-3.816252947E0,3.512065411E0,3.962215185E0
9.838714280E-1,-4.100998878E0,3.382853031E0,4.156033993E0
9.862667410E-1,-4.395615101E0,3.296711445E0,4.378865242E0
9.886628350E-1,-4.649254322E0,3.172284603E0,4.608576298E0
9.910589810E-1,-4.881657124E0,3.071486950E0,4.800301552E0
9.934542410E-1,-5.087440014E0,2.925524712E0,5.085047245E0
9.958495530E-1,-5.192724228E0,2.808276415E0,5.434698582E0
9.982456990E-1,-5.290830135E0,2.679064035E0,5.781657696E0
1.000641793E0,-5.334199905E0,2.511267424E0,6.119344711E0
1.003037106E0,-5.286044121E0,2.329412937E0,6.516852379E0
1.005432418E0,-5.226223946E0,2.135594130E0,6.820741177E0
1.007828564E0,-5.106582642E0,1.924726725E0,7.036394119E0
1.010224658E0,-4.905585289E0,1.642373681E0,7.230212688E0
1.012619970E0,-4.687539577E0,1.307079315E0,7.349853992E0
1.015015283E0,-4.338187218E0,8.548358679E-1,7.517351627E0
1.017411428E0,-3.727718592E0,3.879363835E-1,7.649255753E0
1.019807522E0,-3.066701412E0,-1.028913707E-1,7.718647480E0
1.022202835E0,-2.408375978E0,-5.243272781E-1,7.737790108E0
1.024598147E0,-1.651944876E0,-7.779664397E-1,7.919644833E0
1.026994293E0,-1.146760225E0,-1.113260746E0,8.130212784E0
1.029390387E0,-7.013961077E-1,-1.321436286E0,8.515756607E0
1.031785699E0,-2.679961324E-1,-1.458126307E0,8.922835350E0
1.034181012E0,9.092725813E-2,-1.577767372E0,9.092725754E0
1.036577106E0,5.985047817E-1,-1.620838284E0,9.430413246E0
1.038973251E0,9.050851464E-1,-1.740479350E0,9.837491989E0
1.041368564E0,1.113260746E0,-1.943869352E0,1.014138031E1
1.043763876E0,1.192223907E0,-2.171486616E0,1.043360424E1
1.046159970E0,1.283151150E0,-2.319841623E0,1.069920731E1
1.048556116E0,1.427019596E0,-2.425125837E0,1.102014446E1
1.050951376E0,1.558624864E0,-2.487339020E0,1.122114182E1
1.053346689E0,1.862513304E0,-2.398804665E0,1.122114182E1
1.055742835E0,1.960619092E0,-2.506481647E0,1.117567825E1
1.058138928E0,1.927119493E0,-2.647957325E0,1.087388325E1
1.060534241E0,1.659123421E0,-2.892025232E0,1.043360424E1
1.062929553E0,1.448554993E0,-2.920739174E0,9.892526627E0
1.065325699E0,1.319043517E0,-2.810669184E0,9.325128555E0
1.067721793E0,1.280758262E0,-2.688635349E0,8.714659691E0
1.070117106E0,1.354935765E0,-2.554637194E0,8.029714584E0
1.072512418E0,1.479661703E0,-2.434697151E0,7.290033340E0
1.074908564E0,1.668694735E0,-2.372483730E0,6.495316982E0
1.077304658E0,2.104487419E0,-2.568994284E0,5.831906796E0
1.079699970E0,2.451446772E0,-2.671885490E0,5.164010525E0
1.082095283E0,2.564208508E0,-2.496910334E0,4.599005222E0
1.084491428E0,2.578565598E0,-2.477767944E0,3.926322937E0
1.086887522E0,2.530709028E0,-2.561815739E0,3.344567776E0
1.089282835E0,2.808276415E0,-2.612065077E0,2.865704298E0
1.091678147E0,3.564707518E0,-2.726920605E0,2.595315218E0
1.094074241E0,4.191926003E0,-3.251247883E0,2.614457846E0
1.096470387E0,4.321437836E0,-3.425923824E0,2.743670225E0
1.098865699E0,4.304687977E0,-3.701397419E0,2.722134829E0
1.101261012E0,4.290330887E0,-3.902394533E0,2.714956284E0
1.103657106E0,4.326223373E0,-3.971786499E0,2.714956284E0
1.106053251E0,4.340580463E0,-4.026821613E0,2.870489836E0
1.108448512E0,4.244867325E0,-4.045963764E0,3.296711445E0
1.110843824E0,4.194318771E0,-3.962215185E0,3.998107433E0
1.113239970E0,4.328616142E0,-3.945465326E0,4.888835907E0
1.115636116E0,4.666004181E0,-4.048357010E0,5.666802406E0
1.118031376E0,5.006083965E0,-4.254438877E0,6.384948254E0
1.120426689E0,5.298008442E0,-4.496113777E0,7.055536747E0
1.122822835E0,5.602196217E0,-4.795515537E0,7.642077446E0
1.125218928E0,5.930311680E0,-5.099404335E0,8.132605553E0
1.127614241E0,6.298806667E0,-5.422734261E0,8.477471352E0
1.130009553E0,6.665207386E0,-5.702694416E0,8.772088051E0
1.132405699E0,6.894918442E0,-5.944668770E0,8.740981102E0
1.134801793E0,7.184749126E0,-6.210271835E0,8.721838951E0
1.137197106E0,7.591827869E0,-6.356234074E0,8.798408508E0
1.139592418E0,8.017750740E0,-6.389733791E0,9.109476089E0
1.141988564E0,8.408080101E0,-6.382555485E0,9.310771942E0
1.144384658E0,8.685647011E0,-6.406483650E0,9.198010445E0
1.146779970E0,9.097511292E0,-6.380162239E0,9.317950249E0
1.149175283E0,9.329915047E0,-6.353841305E0,9.511769295E0
1.151571428E0,9.490233421E0,-6.334698677E0,9.437591553E0
1.153967522E0,9.566803932E0,-6.325127602E0,9.272486687E0
1.156362835E0,9.595518112E0,-6.258128643E0,9.025727272E0
1.158758147E0,9.629017830E0,-6.250949860E0,8.750552177E0
1.161154241E0,9.746265411E0,-6.289235115E0,8.534899712E0
1.163550387E0,9.731908798E0,-6.229414463E0,8.202297211E0
1.165945647E0,9.676874161E0,-6.133701801E0,7.713861942E0
1.168340960E0,9.497411728E0,-6.035595894E0,7.144071102E0
1.170737106E0,9.270093918E0,-5.913562298E0,6.610172749E0
1.173133251E0,8.951549530E0,-5.743372440E0,6.028417587E0
1.175528512E0,8.599505424E0,-5.547161102E0,5.386841774E0
1.177923824E0,8.312366486E0,-5.372485161E0,4.759324074E0
1.180319970E0,8.589934349E0,-5.437091351E0,4.050749779E0
1.182716116E0,8.932407379E0,-5.669195175E0,3.093321562E0
1.185111376E0,8.977870941E0,-5.587839127E0,2.451446772E0
1.187506689E0,8.918049812E0,-5.358128071E0,2.054238319E0
1.189902835E0,8.779266357E0,-5.113760948E0,1.766800404E0
1.192298928E0,8.922835350E0,-5.077868938E0,1.848156333E0
1.194694241E0,8.898907661E0,-4.824229717E0,1.606481314E0
1.197089553E0,8.688039780E0,-4.508078098E0,1.307079315E0
1.199485699E0,8.367402077E0,-4.249652863E0,1.077368379E0
1.201881793E0,8.087141991E0,-3.902394533E0,7.803592682E-1
1.204277106E0,7.945965767E0,-3.651148319E0,4.381856322E-1
1.206672418E0,7.816753387E0,-3.497708559E0,1.746760458E-1
1.209068564E0,7.728219032E0,-3.449851990E0,2.392822644E-3
1.211464658E0,7.675576687E0,-3.445066452E0,-9.332008660E-2
1.213859970E0,7.728219032E0,-3.459423304E0,-1.531406492E-1
1.216255283E0,7.979465485E0,-3.404388428E0,-2.249253243E-1
1.218651428E0,8.520542145E0,-3.315854073E0,-3.137588799E-1
1.221047522E0,9.411270142E0,-3.227319479E0,-4.142574072E-1
1.223442835E0,1.037827015E1,-3.184248686E0,-4.908277392E-1
1.225838147E0,1.137906837E1,-3.181855917E0,-5.386841893E-1
1.228234241E0,1.238225937E1,-3.193820000E0,-5.410770178E-1
1.230630387E0,1.336630726E1,-3.165106058E0,-5.075774789E-1
1.233025647E0,1.442214012E1,-3.198605776E0,-4.621138871E-1
1.235420960E0,1.558086491E1,-3.212962627E0,-3.831507266E-1
1.237817106E0,1.676112366E1,-3.215355396E0,-3.089732230E-1
1.240213251E0,1.794856262E1,-3.208176851E0,-1.890329868E-1
1.242608512E0,1.908575249E1,-3.172284603E0,-5.503492057E-2
1.245003824E0,2.015594101E1,-3.105285645E0,1.052841991E-1
1.247399970E0,2.112323952E1,-3.014059305E0,2.632105052E-1
1.249796064E0,2.198495483E1,-2.870489836E0,3.616153300E-1
1.252191376E0,2.271985054E1,-2.688635349E0,4.645066857E-1
1.254586689E0,2.327289200E1,-2.458625317E0,5.913262963E-1
1.256982835E0,2.361057854E1,-2.166700840E0,7.468597889E-1
1.259378928E0,2.376132774E1,-1.879263043E0,9.098708034E-1
1.261774241E0,2.374696922E1,-1.599302888E0,1.089332461E0
1.264169553E0,2.357947159E1,-1.354935765E0,1.290329576E0
1.266565699E0,2.327289200E1,-1.110867858E0,1.494018674E0
1.268961793E0,2.288046837E1,-9.385846853E-1,1.685444474E0
1.271357106E0,2.238485527E1,-8.234301209E-1,1.800299883E0
1.273752418E0,2.178635025E1,-7.253243923E-1,1.929512382E0
1.276148564E0,2.108256149E1,-6.487540603E-1,2.027917147E0
1.278544658E0,2.033779526E1,-5.985047817E-1,2.123630047E0
1.280939970E0,1.962443542E1,-6.367899179E-1,2.190629244E0
1.283335283E0,1.904268074E1,-7.396813035E-1,2.121237278E0
1.285731376E0,1.842981911E1,-7.779664397E-1,2.056631088E0
1.288127522E0,1.778106499E1,-7.683951855E-1,2.051845312E0
1.290522783E0,1.714666748E1,-6.822535396E-1,2.035095692E0
1.292918095E0,1.655025673E1,-6.224330068E-1,2.001596212E0
1.295314241E0,1.593978786E1,-5.745765567E-1,1.924726725E0
1.297710387E0,1.538196087E1,-6.008976102E-1,1.771586061E0
1.300105647E0,1.479781342E1,-6.966105103E-1,1.625623941E0
1.302500960E0,1.421127319E1,-8.282157183E-1,1.496411443E0
1.304897106E0,1.361994648E1,-9.840483069E-1,1.383649707E0
1.307293199E0,1.301904869E1,-1.098903775E0,1.371685624E0
1.309688512E0,1.244925785E1,-1.153938770E0,1.422233939E0
1.312083824E0,1.189143085E1,-1.106082320E0,1.580160260E0
1.314479970E0,1.129292679E1,-9.816554785E-1,1.802692771E0
1.316876064E0,1.073270702E1,-7.660023570E-1,2.044667006E0
1.319271376E0,1.025862885E1,-4.836492836E-1,2.317448616E0
1.321666689E0,9.863813400E0,-1.244267747E-1,2.614457846E0
1.324062835E0,9.547661781E0,2.632105052E-1,2.880061150E0
1.326458928E0,9.361021042E0,6.128616929E-1,3.122035265E0
1.328854241E0,9.255437851E0,9.026923180E-1,3.299104214E0
1.331249553E0,9.214759827E0,1.139581800E0,3.437887907E0
1.333645699E0,9.305986404E0,1.259222865E0,3.504886866E0
1.336041793E0,9.499805450E0,1.331007600E0,3.514458179E0
1.338437106E0,9.835099220E0,1.374078393E0,3.461816072E0
1.340832418E0,1.019641590E1,1.429412484E0,3.382853031E0
1.343228564E0,1.048863888E1,1.589731574E0,3.346960783E0
1.345624658E0,1.072074318E1,1.876870275E0,3.313461065E0
1.348019970E0,1.083799076E1,2.336591244E0,3.299104214E0
1.350415283E0,1.083799076E1,2.865704298E0,3.220141172E0
1.352811376E0,1.082124138E1,3.495315790E0,3.177070379E0
1.355207522E0,1.078534889E1,4.213760853E0,3.157927752E0
1.357602835E0,1.078534889E1,4.998905659E0,3.138785124E0
1.359998147E0,1.084277630E1,5.772086620E0,3.088535786E0
1.362394241E0,1.101296616E1,6.512066841E0,2.992523909E0
1.364790387E0,1.128574753E1,7.167999268E0,2.731706142E0
1.367185647E0,1.167129135E1,7.599006653E0,2.362912416E0
1.369580960E0,1.214058399E1,7.811967850E0,1.886441588E0
1.371977106E0,1.265534019E1,7.890930653E0,1.369292736E0
1.374373199E0,1.322513103E1,7.871788502E0,7.827520967E-1
1.376768512E0,1.379970741E1,7.979465485E0,2.201396823E-1
1.379163824E0,1.418255901E1,8.240582466E0,-2.105683982E-1
1.381559970E0,1.454656696E1,8.178368568E0,-7.492526174E-1
1.383956064E0,1.500868130E1,7.914859295E0,-1.438983679E0
1.386351376E0,1.550190163E1,7.493422985E0,-2.176272154E0
1.388746689E0,1.596371651E1,6.866204739E0,-2.937488794E0
1.391142835E0,1.641865158E1,6.164808273E0,-3.722932816E0
1.393538928E0,1.735005760E1,4.934299469E0,-3.825824261E0
1.395934241E0,1.764198303E1,4.395615101E0,-3.990929127E0
1.398329553E0,1.732134438E1,3.715754509E0,-4.881657124E0
1.400725699E0,1.718016815E1,2.755634308E0,-5.125725269E0
1.403121793E0,1.688555145E1,2.126022816E0,-5.489733219E0
1.405517106E0,1.630140305E1,1.405484200E0,-5.839085579E0
1.407912418E0,1.562393570E1,6.990033388E-1,-6.028417587E0
1.410308564E0,1.475713539E1,1.555334777E-1,-6.401698112E0
1.412704658E0,1.373480225E1,-3.951148391E-1,-6.701099873E0
1.415099970E0,1.260479164E1,-9.577272534E-1,-7.065107822E0
1.417495283E0,1.147478104E1,-1.422233939E0,-7.297211647E0
1.419891376E0,1.029452133E1,-1.778764486E0,-7.548458099E0
1.422287522E0,9.080761909E0,-1.994417667E0,-7.802396297E0
1.424682783E0,7.869395256E0,-2.233700037E0,-7.960322857E0
1.427078095E0,6.476174355E0,-2.276770830E0,-8.142476082E0
1.429474241E0,5.025226593E0,-2.374876499E0,-8.470293045E0
1.431870387E0,3.754039526E0,-2.568994284E0,-8.748159409E0
1.434265647E0,2.545065880E0,-2.552244425E0,-8.956335068E0
1.436660960E0,1.455733418E0,-2.626421928E0,-9.095118523E0
1.439057106E0,5.434698462E-1,-2.583351135E0,-8.896514893E0
1.441453199E0,-5.219344497E-1,-2.624029160E0,-8.786444664E0
1.443848512E0,-1.529910922E0,-2.724527597E0,-8.544470787E0
1.446243824E0,-2.123630047E0,-2.731706142E0,-8.108677864E0
1.448639970E0,-2.472982168E0,-2.669492722E0,-7.654041290E0
1.451036064E0,-2.595315218E0,-2.693420887E0,-7.122535706E0
1.453431376E0,-2.557030201E0,-2.793919563E0,-6.519245148E0
1.455826689E0,-2.255235434E0,-2.992523909E0,-5.841478348E0
1.458222835E0,-1.678265929E0,-3.272783279E0,-5.192724228E0
1.460618928E0,-9.361918569E-1,-3.579064369E0,-4.594219685E0
1.463014241E0,-1.148554832E-1,-3.911965847E0,-4.017250061E0
1.465409553E0,7.947162390E-1,-4.264009953E0,-3.404388428E0
1.467805699E0,1.836192250E0,-4.536791801E0,-2.825026274E0
1.470201793E0,2.963809967E0,-4.785944462E0,-2.224128723E0
1.472597106E0,4.136891365E0,-4.941477776E0,-1.695015788E0
1.474992418E0,5.281258583E0,-5.144867897E0,-1.206580877E0
1.477388564E0,6.464210510E0,-5.192724228E0,-7.516453862E-1
1.479784658E0,7.654041290E0,-5.087440014E0,-2.321037948E-1
1.482179970E0,8.767302513E0,-4.900799751E0,3.161516786E-1
1.484575283E0,9.786943436E0,-4.694717884E0,8.548358679E-1
1.486971376E0,1.086191940E1,-4.426722050E0,1.371685624E0
1.489367522E0,1.199193001E1,-4.005286217E0,1.972882271E0
1.491762835E0,1.313868999E1,-3.586242914E0,2.537887573E0
1.494158147E0,1.418255901E1,-3.368496180E0,3.143570662E0
1.496554241E0,1.522882080E1,-3.162713289E0,3.720540047E0
1.498950387E0,1.613151360E1,-3.114856958E0,4.283152580E0
1.501345647E0,1.689990807E1,-3.126821041E0,4.713860512E0
1.503740960E0,1.754148293E1,-3.122035265E0,5.202295303E0
1.506137106E0,1.801077652E1,-3.198605776E0,5.712265968E0
1.508533251E0,1.824796486E1,-3.421138287E0,6.195915222E0
1.510928512E0,1.835564232E1,-3.593421459E0,6.588637352E0
1.513323824E0,1.837478447E1,-3.679862022E0,7.007380962E0
1.515719970E0,1.821416664E1,-3.787539244E0,7.392924786E0
1.518116064E0,1.796531296E1,-3.830610037E0,7.797610760E0
1.520511376E0,1.760848236E1,-3.840181351E0,8.036892891E0
1.522906689E0,1.717298889E1,-3.880859137E0,8.219046593E0
1.525302835E0,1.681137276E1,-3.933501244E0,8.264510155E0
1.527698928E0,1.639950943E1,-3.715754509E0,8.460721970E0
1.530094241E0,1.587518215E1,-3.500101328E0,8.666504860E0
1.532489553E0,1.530060482E1,-3.349353552E0,8.760123253E0
1.534885699E0,1.468774319E1,-3.323032379E0,8.807980537E0
1.537281793E0,1.407009602E1,-3.440280676E0,8.750552177E0
1.539677106E0,1.349791241E1,-3.579064369E0,8.551649094E0
1.542072418E0,1.301426315E1,-3.792324781E0,8.293224335E0
1.544468564E0,1.256172085E1,-3.955036640E0,7.962715626E0
1.546864658E0,1.214297676E1,-4.112963200E0,7.577471256E0
1.549259970E0,1.165214920E1,-4.278367043E0,6.954739094E0
1.551655283E0,1.112303638E1,-4.304687977E0,6.093023777E0
1.554051376E0,1.060110188E1,-4.316651821E0,5.214259624E0
1.556447522E0,1.021795082E1,-4.323830605E0,4.546362877E0
1.558842835E0,9.993025780E0,-4.359723091E0,4.175176620E0
1.561238147E0,9.866206169E0,-4.378865242E0,4.053142548E0
1.563634241E0,9.722337723E0,-4.405186653E0,3.976572037E0
1.566030387E0,9.600303650E0,-4.414757729E0,4.010071754E0
1.568425647E0,9.406484604E0,-4.436293125E0,4.045963764E0
1.570820960E0,9.267701149E0,-4.436293125E0,4.148855209E0
1.573217106E0,9.080761909E0,-4.421936035E0,4.266402721E0
1.575613251E0,8.874979019E0,-4.433900356E0,4.369294167E0
1.578008512E0,8.882157326E0,-4.261617184E0,4.536791801E0
1.580403824E0,8.415258408E0,-4.419543266E0,4.237689018E0
1.582799970E0,8.228617668E0,-4.462614059E0,4.220939159E0
1.585196064E0,8.331509590E0,-4.362115860E0,4.417150497E0
1.587591376E0,8.211868286E0,-4.421936035E0,4.445864677E0
1.589986689E0,8.140083313E0,-4.395615101E0,4.398007870E0
1.592382835E0,7.969893932E0,-4.376472473E0,4.256831646E0
1.594778928E0,7.768897057E0,-4.395615101E0,4.053142548E0
1.597174241E0,7.599006653E0,-4.426722050E0,3.923929930E0
1.599569553E0,7.447959423E0,-4.438685894E0,3.780360699E0
1.601965699E0,7.371389389E0,-4.402793884E0,3.646063566E0
1.604361793E0,7.266105175E0,-4.450650215E0,3.614956856E0
1.606757106E0,7.234998226E0,-4.448257446E0,3.667897940E0
1.609152418E0,7.208677292E0,-4.479363918E0,3.722932816E0
1.611548564E0,7.213462830E0,-4.498506546E0,3.868895054E0
1.613944658E0,7.342675209E0,-4.453042984E0,4.048357010E0
1.616339970E0,7.476673603E0,-4.297509670E0,4.206283092E0
1.618735283E0,7.309175968E0,-4.429114819E0,4.167997837E0
1.621131428E0,7.244569778E0,-4.567898273E0,4.369294167E0
1.623527522E0,7.450352192E0,-4.587040901E0,4.924727917E0
1.625922835E0,7.534101009E0,-4.658825874E0,5.187938690E0
1.628318147E0,7.730611801E0,-4.685146809E0,5.417948723E0
1.630714241E0,7.934001446E0,-4.728217602E0,5.764907837E0
1.633110387E0,7.998608112E0,-4.788337231E0,6.006882191E0
1.635505699E0,8.003393173E0,-4.764110088E0,6.119344711E0
1.637901012E0,8.175975800E0,-4.742574692E0,6.207879066E0
1.640297106E0,8.391329765E0,-4.711467743E0,6.315556049E0
1.642693251E0,8.556434631E0,-4.706682205E0,6.361020088E0
1.645088512E0,8.851051331E0,-4.709074974E0,6.512066841E0
1.647483824E0,8.932407379E0,-4.668396950E0,6.545566559E0
1.649879970E0,8.997013092E0,-4.575077057E0,6.437590122E0
1.652276116E0,9.054440498E0,-4.510470867E0,6.284449577E0
1.654671376E0,9.382556915E0,-4.443471432E0,6.227021694E0
1.657066689E0,9.753444672E0,-4.364508629E0,5.966204166E0
1.659462835E0,1.017727280E1,-4.323830605E0,5.671587944E0
1.661858928E0,1.043121147E1,-4.321437836E0,5.276473045E0
1.664254241E0,1.059631634E1,-4.254438877E0,4.872086048E0
1.666649553E0,1.074945641E1,-4.146462440E0,4.429114819E0
1.669045699E0,1.094596672E1,-3.804288864E0,4.553541660E0
1.671441793E0,1.107278633E1,-3.682255030E0,4.886443138E0
1.673837106E0,1.084038353E1,-3.689433336E0,5.013262749E0
1.676232418E0,1.056999493E1,-3.583850145E0,4.718646049E0
1.678628564E0,1.071595669E1,-3.296711445E0,3.981357813E0
1.681024658E0,1.057238770E1,-3.282354355E0,3.971786499E0
1.683419970E0,1.004566765E1,-3.497708559E0,3.880859137E0
1.685815283E0,9.959526062E0,-3.279961586E0,3.703790426E0
1.688211428E0,9.466305733E0,-3.244069338E0,2.458625317E0
1.690607522E0,9.643374443E0,-3.320639610E0,1.675873160E0
1.693002835E0,9.382556915E0,-3.401995659E0,1.089332461E0
1.695398147E0,9.147761345E0,-3.543172121E0,7.660023570E-1
1.697794293E0,8.159226418E0,-3.804288864E0,3.209373355E-1
1.700190387E0,7.345067978E0,-3.880859137E0,-3.041875660E-1
1.702585699E0,6.061916828E0,-3.567100286E0,-1.031904817E0
1.704981012E0,5.365306377E0,-3.385245800E0,-1.541875124E0
1.707377106E0,6.241378784E0,-3.433102369E0,-1.879263043E0
1.709773251E0,5.906383514E0,-3.641277790E0,-2.911167860E0
1.712168564E0,7.266105175E0,-4.220939159E0,-2.585743904E0
1.714563876E0,8.420043945E0,-4.366901398E0,-1.917548299E0
1.716959970E0,8.843872070E0,-4.194318771E0,-1.896012783E0
1.719356116E0,8.980263710E0,-4.100998878E0,-1.419841170E0
1.721751376E0,9.061619759E0,-4.084249020E0,-1.024726272E0
1.724146689E0,9.257830620E0,-3.988536358E0,-1.339980662E-1
1.726542835E0,9.363413811E0,-3.938287020E0,4.668995142E-1
1.728938981E0,9.904491425E0,-3.804288864E0,8.572286963E-1
1.731334241E0,1.021077251E1,-3.691826344E0,1.273579836E0
1.733729553E0,1.066810036E1,-3.626920938E0,1.429412484E0
1.736125699E0,1.083559799E1,-3.380460262E0,1.766800404E0
1.738521793E0,1.052453136E1,-3.215355396E0,2.470589399E0
1.740917106E0,1.013659477E1,-2.951845884E0,2.274377823E0
1.743312418E0,9.887741089E0,-2.741277456E0,1.678265929E0
1.745708564E0,9.487840652E0,-2.777169704E0,1.132403374E0
1.748104658E0,1.005523872E1,-2.808276415E0,3.041875660E-1
1.750499970E0,1.043360424E1,-2.777169704E0,2.392822644E-3
1.752895283E0,1.061067295E1,-2.789133787E0,-6.460621208E-2
1.755291428E0,1.052931690E1,-2.956631422E0,-1.052841991E-1
1.757687522E0,1.062263680E1,-3.289532900E0,1.674975827E-2
1.760082835E0,1.028495026E1,-3.524029493E0,9.571290575E-3
1.762478147E0,1.015334511E1,-3.737289906E0,2.871387079E-2
1.764874293E0,1.003131104E1,-3.813860178E0,6.221338734E-2
1.767270387E0,9.712766647E0,-3.842574120E0,3.879363835E-1
1.769665699E0,9.451948166E0,-3.794717550E0,5.123631358E-1
1.772061012E0,9.301200867E0,-3.727718592E0,4.668995142E-1
1.774457158E0,9.279664993E0,-3.564707518E0,2.703889608E-1
1.776853251E0,9.368199348E0,-3.323032379E0,1.722832322E-1
1.779248564E0,9.238688469E0,-3.095714331E0,2.081755698E-1
1.781643876E0,8.994620323E0,-2.860918522E0,3.065803945E-1
1.784039970E0,8.894122124E0,-2.693420887E0,3.376871049E-1
1.786436116E0,8.939585686E0,-2.537887573E0,2.584248483E-1
1.788831428E0,9.023334503E0,-2.425125837E0,3.807578981E-1
1.791226741E0,9.040083885E0,-2.398804665E0,4.214358926E-1
1.793622835E0,9.219545364E0,-2.367697954E0,8.135596663E-2
1.796018981E0,9.475876808E0,-2.350948334E0,-2.656033039E-1
1.798414241E0,9.612267494E0,-2.444268227E0,-4.621138871E-1
1.800809553E0,9.705587387E0,-2.552244425E0,-4.692923427E-1
1.803205699E0,9.715159416E0,-2.700599432E0,-4.262215197E-1
1.805601845E0,9.719944954E0,-2.844168901E0,-4.716851711E-1
1.807997106E0,9.870991707E0,-2.925524712E0,-6.678966284E-1
1.810392418E0,1.024187946E1,-3.076272726E0,-9.266205430E-1
1.812788564E0,1.049820995E1,-3.141177893E0,-1.118046403E0
1.815184710E0,1.054128075E1,-3.272783279E0,-1.175474167E0
1.817579970E0,1.051735306E1,-3.351746321E0,-1.287936807E0
1.819975283E0,1.045992470E1,-3.279961586E0,-1.489233017E0
1.822371428E0,1.014616585E1,-3.172284603E0,-1.553839207E0
1.824767522E0,1.002173901E1,-3.073879719E0,-1.821835399E0
1.827162835E0,1.017966557E1,-2.753241539E0,-2.250449657E0
1.829558147E0,1.054367352E1,-2.484946251E0,-2.612065077E0
1.831954293E0,1.067767239E1,-2.195414782E0,-2.743670225E0
1.834350387E0,1.057478046E1,-1.939083695E0,-2.801098108E0
1.836745699E0,1.006480980E1,-1.891227245E0,-2.592922449E0
1.839141012E0,9.430413246E0,-1.903191328E0,-2.669492722E0
1.841537158E0,9.109476089E0,-2.023131609E0,-2.755634308E0
1.843933251E0,8.554041862E0,-2.130808592E0,-2.750848770E0
1.846328564E0,7.914859295E0,-2.283949137E0,-2.880061150E0
1.848723876E0,7.749754429E0,-2.446661234E0,-3.265604734E0
1.851120022E0,7.862216949E0,-2.327019930E0,-3.198605776E0
1.853516116E0,8.376973152E0,-2.472982168E0,-3.392424345E0
1.855911428E0,8.046463966E0,-2.499303341E0,-3.200998545E0
1.858306741E0,7.780860901E0,-2.588136673E0,-3.294318676E0
1.860702835E0,7.850253105E0,-2.444268227E0,-3.277568817E0
1.863098981E0,7.723433495E0,-2.362912416E0,-3.167499065E0
1.865494293E0,7.383353233E0,-2.382055044E0,-3.011666298E0
1.867889606E0,7.086643219E0,-2.415554523E0,-2.899203777E0
1.870285699E0,5.731408596E0,-2.561815739E0,-2.738884687E0
1.872681845E0,5.235795021E0,-2.664707184E0,-2.693420887E0
1.875077106E0,6.047560215E0,-2.961417198E0,-2.915953398E0
1.877472418E0,6.250949860E0,-2.992523909E0,-2.930310488E0
1.879868564E0,6.052345753E0,-2.970988512E0,-2.915953398E0
1.882264710E0,6.109773636E0,-2.973381281E0,-2.863311291E0
1.884659970E0,6.648457527E0,-2.882453918E0,-2.798705101E0
1.887055283E0,7.110571384E0,-2.724527597E0,-2.470589399E0
1.889451428E0,7.096214771E0,-2.743670225E0,-2.137987137E0
1.891847522E0,6.887740135E0,-2.753241539E0,-1.553839207E0
1.894242835E0,6.557530403E0,-2.817847729E0,-1.271187067E0
1.896638147E0,6.763313293E0,-2.882453918E0,-1.067797065E0
1.899034293E0,6.820741177E0,-2.954238653E0,-9.577272534E-1
1.901430387E0,6.672386169E0,-3.042773008E0,-8.066803217E-1
1.903825699E0,6.662814617E0,-3.200998545E0,-3.735794425E-1
1.906221012E0,6.784848690E0,-3.267997503E0,2.560320199E-1
1.908617158E0,6.722635269E0,-3.337389469E0,3.951148391E-1
1.911013251E0,6.282056808E0,-3.392424345E0,4.357928336E-1
1.913408564E0,5.638088226E0,-3.435495138E0,3.424727321E-1
1.915803876E0,5.882156372E0,-3.296711445E0,4.142574072E-1
1.918200022E0,6.372983932E0,-3.016452074E0,5.745765567E-1
1.920596116E0,6.746563435E0,-2.722134829E0,8.234301209E-1
1.922991428E0,6.935596466E0,-2.530709028E0,1.000798106E0
1.925386741E0,7.026822567E0,-2.386840582E0,1.237687469E0
1.927782887E0,7.034001350E0,-2.403590441E0,1.364507079E0
1.930178981E0,6.981060028E0,-2.504088879E0,1.216152072E0
1.932574293E0,6.885347366E0,-2.588136673E0,1.017547846E0
1.934969606E0,6.832705021E0,-2.681456804E0,8.763712645E-1
1.937365699E0,6.696314335E0,-2.477767944E0,9.888339639E-1
1.939761845E0,7.120142937E0,-2.645564556E0,1.266401410E0
1.942157158E0,7.297211647E0,-3.122035265E0,1.079761267E0
1.944552470E0,7.321139812E0,-3.368496180E0,6.942176819E-1
1.946948564E0,7.397710323E0,-3.349353552E0,4.525425732E-1
1.949344710E0,7.584649563E0,-3.061915636E0,7.899305820E-1
1.951739970E0,8.024929047E0,-3.595814228E0,3.927220106E-1
1.954135283E0,8.161619186E0,-3.919144392E0,-4.307080805E-2
1.956531428E0,8.130212784E0,-4.050749779E0,-2.826521695E-1
1.958927574E0,7.917252064E0,-3.687040567E0,-4.214358926E-1
1.961322835E0,8.192725182E0,-4.110570431E0,-4.357928336E-1
1.963718147E0,8.290831566E0,-4.666004181E0,-9.505487680E-1
1.966114293E0,8.455936432E0,-4.821836948E0,-1.347757339E0
1.968510387E0,8.015357971E0,-4.697110653E0,-1.400399446E0
1.970905699E0,7.869395256E0,-4.620540619E0,-1.410269856E0
1.973301012E0,8.589934349E0,-5.010869503E0,-1.458126307E0
1.975697158E0,8.386544228E0,-5.382056236E0,-1.668694735E0
1.978093251E0,8.214261055E0,-5.621338367E0,-1.888834357E0
1.980488564E0,7.950751305E0,-5.334199905E0,-1.896012783E0
1.982883876E0,8.120641708E0,-4.998905659E0,-1.417448282E0
1.985280022E0,8.439186096E0,-5.434698582E0,-1.422233939E0
1.987676116E0,8.372187614E0,-5.650052547E0,-1.472483277E0
1.990071428E0,8.508578300E0,-5.714658737E0,-1.443769336E0
1.992466741E0,8.683254242E0,-5.642873764E0,-1.187438250E0
1.994862887E0,8.446364403E0,-5.401198864E0,-1.000798106E0
1.997258981E0,8.422436714E0,-5.053940296E0,-6.631109715E-1
1.999654293E0,8.963513374E0,-5.463412285E0,-7.037889361E-1
2.002049606E0,8.999405861E0,-5.578267574E0,-6.726822853E-1
2.004445751E0,9.111868858E0,-5.666802406E0,-9.266205430E-1
2.006841845E0,9.119047165E0,-5.693123341E0,-9.720842242E-1
2.009237158E0,9.037691116E0,-5.535196781E0,-1.074975610E0
2.011632470E0,8.664112091E0,-4.943870544E0,-8.306085467E-1
2.014028564E0,9.265308380E0,-5.183153152E0,-7.540382147E-1
2.016424710E0,9.248259544E0,-5.274080276E0,-1.058225870E0
2.018820022E0,9.315557480E0,-5.334199905E0,-1.273579836E0
2.021215335E0,9.209974289E0,-5.398806095E0,-1.616052628E0
2.023611428E0,9.116654396E0,-5.444269657E0,-1.975275040E0
2.026007574E0,9.032905579E0,-5.384449005E0,-2.133201361E0
2.028402887E0,9.030512810E0,-5.336592674E0,-2.346162558E0
2.030798199E0,9.032905579E0,-5.425127029E0,-2.446661234E0
2.033194293E0,8.961120605E0,-5.472983360E0,-2.492124796E0
2.035590439E0,8.819944382E0,-5.465805054E0,-2.602493763E0
2.037985699E0,8.664112091E0,-5.449055195E0,-2.686242580E0
2.040381012E0,8.587541580E0,-5.360520840E0,-2.714956284E0
2.042777158E0,8.520542145E0,-5.183153152E0,-2.676671267E0
2.045173303E0,8.372187614E0,-4.970191956E0,-2.518445730E0
2.047568564E0,8.269295692E0,-4.826622486E0,-2.303091764E0
2.049963876E0,8.254939079E0,-4.756931305E0,-2.106880426E0
2.052360022E0,8.286046028E0,-4.701896667E0,-1.896012783E0
2.054756116E0,8.317152023E0,-4.577469826E0,-1.565803289E0
2.057151428E0,8.307580948E0,-4.548755646E0,-1.470090389E0
2.059546741E0,8.300402641E0,-4.560719967E0,-1.501197100E0
2.061942887E0,8.649754524E0,-4.543970108E0,-1.292722464E0
2.064338981E0,8.805587769E0,-4.620540619E0,-1.273579836E0
2.066734293E0,9.018548965E0,-4.610969067E0,-1.280758262E0
2.069129606E0,9.119047165E0,-4.613361835E0,-1.331007600E0
2.071525751E0,9.238688469E0,-4.666004181E0,-1.484447360E0
2.073921845E0,9.444769859E0,-4.733003139E0,-1.663909078E0
2.076317158E0,9.502198219E0,-4.802694321E0,-1.785943031E0
2.078712470E0,9.416056633E0,-4.876871586E0,-1.984846354E0
2.081108616E0,9.317950249E0,-4.941477776E0,-2.166700840E0
2.083504710E0,9.193224907E0,-4.936692238E0,-2.322234392E0
2.085900022E0,8.963513374E0,-4.948656559E0,-2.523231506E0
2.088295335E0,8.906085968E0,-4.879264355E0,-2.171486616E0
2.090691428E0,8.570791245E0,-4.840979099E0,-2.111665964E0
2.093087574E0,8.396115303E0,-4.826622486E0,-1.927119493E0
2.095482887E0,8.451150894E0,-4.867300510E0,-1.759621978E0
2.097878199E0,8.446364403E0,-4.941477776E0,-1.836192250E0
2.100274293E0,8.309973717E0,-5.044369221E0,-2.051845312E0
2.102670439E0,8.046463966E0,-4.934299469E0,-2.047059774E0
2.105065751E0,7.931608677E0,-5.013262749E0,-2.293520451E0
2.107461064E0,7.998608112E0,-5.216652393E0,-2.528316259E0
2.109857158E0,8.132605553E0,-5.312365532E0,-2.446661234E0
2.112253303E0,8.053643227E0,-5.429912567E0,-2.714956284E0
2.114648564E0,8.173583031E0,-5.520840168E0,-2.731706142E0
2.117043876E0,8.067999840E0,-5.444269657E0,-2.705385208E0
2.119440022E0,8.087141991E0,-5.331807137E0,-2.463410854E0
2.121836168E0,8.254939079E0,-5.278865814E0,-2.413161755E0
2.124231428E0,8.233403206E0,-5.247759342E0,-2.501696110E0
2.126626741E0,8.238189697E0,-5.326722145E0,-2.738884687E0
2.129022887E0,8.235795975E0,-5.350949764E0,-2.932703257E0
2.131418981E0,7.936394691E0,-4.994120121E0,-2.846561670E0
2.133814293E0,8.314759254E0,-5.173581600E0,-2.487339020E0
2.136209606E0,8.254939079E0,-5.599802971E0,-2.513660192E0
2.138605751E0,8.204689980E0,-5.786443233E0,-2.602493763E0
2.141001845E0,8.199904442E0,-5.884549141E0,-2.738884687E0
2.143397158E0,8.173583031E0,-5.872584820E0,-2.825026274E0
2.145792470E0,8.178368568E0,-5.803193092E0,-2.877668381E0
2.148188616E0,8.271688461E0,-5.681159019E0,-2.793919563E0
2.150584710E0,8.379365921E0,-5.506483078E0,-2.683849812E0
2.152980022E0,8.336295128E0,-5.439484119E0,-2.530709028E0
2.155375335E0,8.266902924E0,-5.309972763E0,-2.391626120E0
2.157771481E0,8.202297211E0,-5.137689114E0,-2.216950178E0
2.160167574E0,8.118248940E0,-4.977370262E0,-2.054238319E0
2.162562887E0,8.036892891E0,-4.869693279E0,-1.869691849E0
2.164958199E0,8.056035995E0,-4.783551693E0,-1.728515267E0
2.167354293E0,8.152048111E0,-4.778766155E0,-1.522732496E0
2.169750439E0,8.309973717E0,-4.776372910E0,-1.331007600E0
2.172145751E0,8.549256325E0,-4.776372910E0,-1.168295622E0
2.174541064E0,8.776873589E0,-4.805087090E0,-1.022333503E0
2.176937158E0,8.958727837E0,-4.862514496E0,-9.792626500E-1
2.179333303E0,9.221938133E0,-4.845765114E0,-6.774678826E-1
2.181728616E0,9.341878891E0,-4.888835907E0,-5.961119533E-1
2.184123928E0,9.313164711E0,-4.919942379E0,-5.913262963E-1
2.186520022E0,9.320343018E0,-4.915156841E0,-6.918248534E-1
2.188916168E0,9.325128555E0,-4.891228676E0,-7.995018363E-1
2.191311428E0,9.327521324E0,-4.917549610E0,-9.218349457E-1
2.193706741E0,9.372985840E0,-4.955834866E0,-9.816554785E-1
2.196102887E0,9.418449402E0,-5.049154758E0,-1.051047325E0
2.198499033E0,9.329915047E0,-4.864907742E0,-6.056832075E-1
2.200894293E0,9.305986404E0,-4.821836948E0,-7.037889361E-1
2.203289606E0,9.451948166E0,-4.864907742E0,-6.702894568E-1
2.205685751E0,9.710372925E0,-5.073082924E0,-5.865406394E-1
2.208081845E0,1.003370380E1,-5.370092392E0,-6.200401783E-1
2.210477158E0,1.025623608E1,-5.642873764E0,-6.678966284E-1
2.212872470E0,1.045035362E1,-5.779264927E0,-5.554339290E-1
2.215268616E0,1.052453136E1,-5.889334679E0,-6.056832075E-1
2.217664710E0,1.046710396E1,-6.037988663E0,-6.487540603E-1
2.220060022E0,1.041446114E1,-6.104988098E0,-6.391827464E-1
2.222455335E0,1.040010452E1,-6.162415504E0,-5.913262963E-1
2.224851481E0,1.029691410E1,-6.231807709E0,-5.793621540E-1
2.227247574E0,1.017727280E1,-6.327520370E0,-6.367899179E-1
2.229642887E0,1.006241703E1,-6.387341022E0,-7.947162390E-1
2.232038199E0,9.923633575E0,-6.497709751E0,-9.984052777E-1
2.234434345E0,9.755837440E0,-6.576673031E0,-1.137188911E0
2.236830439E0,9.540482521E0,-6.569494724E0,-1.185045362E0
2.239225751E0,9.224330902E0,-6.562315941E0,-1.268794179E0
2.241621064E0,8.894122124E0,-6.514459610E0,-1.352542996E0
2.244017158E0,8.609076500E0,-6.423233509E0,-1.458126307E0
2.246413303E0,8.362615585E0,-6.365805626E0,-1.537089467E0
2.248808616E0,8.152048111E0,-6.322734833E0,-1.651944876E0
2.251203928E0,7.989036560E0,-6.284449577E0,-1.752443433E0
2.253600022E0,7.831110477E0,-6.294020653E0,-1.884048700E0
2.255996168E0,7.567600727E0,-6.250949860E0,-1.165902853E0
2.258391481E0,7.194320202E0,-6.200700760E0,-1.254437327E0
2.260786793E0,6.820741177E0,-6.026024818E0,-1.328614831E0
2.263182887E0,6.806384087E0,-6.037988663E0,-1.060618639E0
2.265579033E0,6.713063717E0,-6.219843388E0,-8.644071817E-1
2.267974293E0,6.763313293E0,-6.394519329E0,-7.133602500E-1
2.270369606E0,6.768098831E0,-6.478567123E0,-1.017547846E0
2.272765751E0,6.796812534E0,-6.444768906E0,-2.441875458E0
2.275161897E0,6.703492641E0,-6.315556049E0,-4.802694321E0
2.277557158E0,6.569494724E0,-6.100202084E0,-6.531209469E0
2.279952470E0,6.464210510E0,-6.009274960E0,-7.256533623E0
2.282348616E0,6.634100914E0,-5.697908878E0,-7.553243637E0
2.284744710E0,6.528816700E0,-5.528018475E0,-7.213462830E0
2.287140022E0,6.559923172E0,-5.278865814E0,-6.248557091E0
2.289535335E0,6.543173313E0,-5.027619362E0,-5.149653435E0
2.291931481E0,6.483353138E0,-4.960620403E0,-3.758825302E0
2.294327574E0,6.796812534E0,-4.749752998E0,-2.841775894E0
2.296722887E0,6.985845566E0,-4.742574692E0,-2.257628202E0
2.299118199E0,7.105785847E0,-5.101797104E0,-1.431805253E0
2.301514345E0,7.316354275E0,-5.439484119E0,-3.999004960E-1
2.303910439E0,7.615756035E0,-5.652445316E0,8.377870321E-1
2.306305751E0,7.656434059E0,-5.807978630E0,1.857727647E0
2.308701064E0,7.807182312E0,-5.915955067E0,2.944667339E0
2.311097210E0,8.149654388E0,-5.719444275E0,2.858525753E0
2.313493303E0,8.142476082E0,-5.731408596E0,2.492124796E0
2.315888616E0,8.065607071E0,-5.848656654E0,2.453839540E0
2.318283928E0,8.034500122E0,-5.855835438E0,2.367697954E0
2.320680074E0,7.953144073E0,-5.889334679E0,2.264806747E0
2.323076168E0,7.814360619E0,-5.956633091E0,2.307877541E0
2.325471481E0,7.780860901E0,-5.901597977E0,2.252842426E0
2.327866793E0,7.917252064E0,-5.760122299E0,2.066202402E0
2.330262887E0,7.931608677E0,-5.829514027E0,1.903191328E0
2.332659033E0,7.936394691E0,-6.002096653E0,1.915155411E0
2.335054345E0,8.056035995E0,-5.913562298E0,1.704586983E0
2.337449658E0,8.156833649E0,-5.779264927E0,1.338186026E0
2.339845751E0,8.113463402E0,-5.683551788E0,1.173081279E0
2.342241897E0,8.108677864E0,-5.573482037E0,1.153938770E0
2.344637210E0,8.115856171E0,-5.410770416E0,4.932205677E-1
2.347032522E0,8.051250458E0,-5.219045162E0,-1.818545163E-1
2.349428616E0,8.022536278E0,-5.175974369E0,-2.727817893E-1
2.351824710E0,8.048856735E0,-5.061119080E0,-7.178467698E-3
2.354220022E0,8.012965202E0,-4.833800793E0,2.850449979E-1
2.356615335E0,7.941180229E0,-4.563112736E0,5.530411601E-1
2.359011481E0,7.895716667E0,-4.395615101E0,6.870391965E-1
2.361407574E0,7.919644833E0,-4.488935471E0,1.000798106E0
2.363802887E0,7.819146156E0,-4.577469826E0,9.122636318E-1
2.366198199E0,7.474280834E0,-4.575077057E0,5.697908998E-1
2.368594345E0,7.208677292E0,-4.730610371E0,1.220339537E-1
2.370990439E0,6.870990276E0,-4.953442097E0,-5.985047817E-1
2.373385751E0,6.610172749E0,-5.204688549E0,-1.118046403E0
2.375781064E0,6.401698112E0,-5.437091351E0,-1.415055513E0
2.378177210E0,6.313163280E0,-5.640480995E0,-1.673480392E0
2.380573303E0,5.772086620E0,-5.444269657E0,-1.919941068E0
2.382968616E0,5.640480995E0,-5.207081318E0,-2.018345833E0
2.385363928E0,5.626124382E0,-5.583053589E0,-2.750848770E0
2.387760074E0,5.437091351E0,-5.532804012E0,-3.428316593E0
2.390156168E0,5.290830135E0,-5.484947681E0,-3.864109516E0
2.392551481E0,5.199902534E0,-5.523232937E0,-4.012464523E0
2.394946793E0,5.171188831E0,-5.597410202E0,-4.144069672E0
2.397342939E0,5.506483078E0,-5.645267010E0,-4.208974838E0
2.399739033E0,6.071488380E0,-5.800800323E0,-4.012464523E0
2.402134345E0,6.753741741E0,-6.033203125E0,-3.564707518E0
2.404529658E0,7.380960464E0,-6.310770512E0,-2.889632463E0
2.406925751E0,7.859824181E0,-6.516852379E0,-2.185843468E0
2.409321897E0,8.202297211E0,-6.662814617E0,-1.489233017E0
2.411717210E0,8.424829483E0,-6.725028038E0,-7.325028181E-1
2.414112522E0,8.546863556E0,-6.705885410E0,-8.374879509E-2
2.416508616E0,8.604290962E0,-6.751348972E0,4.214358926E-1
2.418904762E0,8.599505424E0,-6.746563435E0,7.229315639E-1
2.421300022E0,8.544470787E0,-6.744170666E0,8.186444640E-1
2.423695335E0,8.427222252E0,-6.763313293E0,7.827520967E-1
2.426091481E0,8.300402641E0,-6.803991318E0,6.439684033E-1
2.428487626E0,8.142476082E0,-6.770491600E0,4.812564552E-1
2.430882887E0,7.895716667E0,-6.708278179E0,2.584248483E-1
2.433278199E0,7.663612843E0,-6.653243542E0,1.914258115E-2
2.435674345E0,7.450352192E0,-6.564708710E0,-1.890329868E-1
2.438070491E0,7.246962547E0,-6.476174355E0,-3.568296731E-1
2.440465751E0,7.002595425E0,-6.339484692E0,-6.559324861E-1
2.442861064E0,6.878168583E0,-6.277271271E0,-7.779664397E-1
2.445257210E0,6.555137634E0,-6.227021694E0,-5.458626747E-1
2.447653303E0,6.265306950E0,-6.138487339E0,-5.315057039E-1
2.450048616E0,6.088238239E0,-6.045167446E0,-5.386841893E-1
2.452443928E0,5.892026424E0,-5.956633091E0,-5.434698462E-1
2.454840074E0,5.657230854E0,-5.886941910E0,-4.621138871E-1
2.457236168E0,5.405984402E0,-5.855835438E0,-4.860421121E-1
2.459631481E0,5.192724228E0,-5.867799282E0,-5.147559643E-1
2.462026793E0,4.996512890E0,-5.853442192E0,-5.410770178E-1
2.464422939E0,4.817050934E0,-5.839085579E0,-5.650052428E-1
2.466819033E0,4.668396950E0,-5.829514027E0,-5.745765567E-1
2.469214345E0,4.594219685E0,-5.819942951E0,-5.985047817E-1
2.471609658E0,4.603790760E0,-5.848656654E0,-5.578267574E-1
2.474005803E0,4.771587372E0,-5.892026424E0,-5.099703074E-1
2.476401897E0,5.056333542E0,-5.978168488E0,-5.003990531E-1
2.478797210E0,5.446662426E0,-6.054738522E0,-4.764707983E-1
2.481192522E0,5.951847076E0,-6.081059456E0,-4.262215197E-1
2.483588616E0,6.478567123E0,-6.126523495E0,-3.568296731E-1
2.485984762E0,6.882954121E0,-6.241378784E0,-2.850449979E-1
2.488380074E0,7.220641613E0,-6.363412857E0,-1.794617027E-1
2.490775387E0,7.400103092E0,-6.485745907E0,-1.220339537E-1
2.493171481E0,7.450352192E0,-6.595815659E0,-7.178467698E-3
2.495567626E0,7.419245720E0,-6.667600155E0,6.939185411E-2
2.497962939E0,7.366603374E0,-6.691528320E0,1.148554832E-1
2.500358251E0,7.294818878E0,-6.713063717E0,1.651047617E-1
2.502754345E0,7.254140854E0,-6.713063717E0,1.818545163E-1
2.505150491E0,7.268497944E0,-6.677171707E0,1.770688742E-1
2.507545751E0,7.249355316E0,-6.684350014E0,5.503492057E-2
2.509941064E0,7.211070061E0,-6.677171707E0,-5.982056633E-2
2.512337210E0,7.191927433E0,-6.681957245E0,-1.172483116E-1
2.514733356E0,7.218248844E0,-6.591030121E0,-1.651047617E-1
2.517128616E0,7.309175968E0,-6.418447495E0,-2.033899277E-1
2.519523928E0,7.404888630E0,-6.270092487E0,-2.153540403E-1
2.521920074E0,7.514958382E0,-6.121737480E0,-1.914258152E-1
2.524316168E0,7.596613884E0,-6.023632050E0,-1.890329868E-1
2.526711481E0,7.697112083E0,-5.855835438E0,-2.679961324E-1
2.529106793E0,7.697112083E0,-5.640480995E0,-3.376871049E-1
2.531502939E0,7.634898663E0,-5.489733219E0,-3.305086195E-1
2.533899033E0,7.524529934E0,-5.441876888E0,-2.775674164E-1
2.536294345E0,7.287640572E0,-5.539982796E0,-1.387837082E-1
2.538689658E0,6.904489517E0,-5.657230854E0,-8.374879509E-2
2.541085803E0,6.437590122E0,-5.585446358E0,-2.009970993E-1
2.543481897E0,5.966204166E0,-5.346164227E0,-3.640081584E-1
2.545877210E0,5.501697540E0,-5.204688549E0,-5.243272781E-1
2.548272522E0,5.108975410E0,-5.046761990E0,-5.530411601E-1
2.550668668E0,4.594219685E0,-5.032404900E0,-4.549354017E-1
2.553064762E0,4.055535316E0,-5.137689114E0,-3.999004960E-1
2.555460074E0,3.677469254E0,-5.065904617E0,-3.975076675E-1
2.557855387E0,3.363710403E0,-4.649254322E0,-4.668995142E-1
2.560251533E0,3.083451033E0,-4.254438877E0,-4.908277392E-1
2.562647626E0,2.865704298E0,-4.532006264E0,-4.214358926E-1
2.565042939E0,2.535494804E0,-4.915156841E0,-2.994019389E-1
2.567438251E0,2.176272154E0,-4.998905659E0,-2.850449979E-1
2.569834345E0,1.852941990E0,-4.862514496E0,-2.201396823E-1
2.572230491E0,1.730908036E0,-4.874478817E0,-2.273181528E-1
2.574625803E0,1.568196177E0,-5.132903576E0,-1.962114573E-1
2.577021116E0,1.268794179E0,-5.070690155E0,-1.674975827E-2
2.579417210E0,1.096511006E0,-4.845765114E0,1.627119333E-1
2.581813356E0,1.163509965E0,-4.931906700E0,3.329014480E-1
2.584208616E0,1.443769336E0,-5.283651352E0,4.668995142E-1
2.586603801E0,2.178664923E0,-5.638088226E0,8.524430394E-1
2.588999947E0,3.030808926E0,-5.994917870E0,1.311864972E0
2.591396093E0,3.502494097E0,-6.047560215E0,1.929512382E0
2.593791354E0,4.031607151E0,-6.344270229E0,2.367697954E0
2.596186666E0,4.266402721E0,-6.602993965E0,2.408375978E0
2.598582812E0,4.323830605E0,-6.607779503E0,2.525923491E0
2.600978906E0,4.646861553E0,-6.799205780E0,2.726920605E0
2.603374218E0,5.108975410E0,-7.165606499E0,2.470589399E0
2.605769531E0,5.334199905E0,-7.512565613E0,2.403590441E0
2.608165676E0,5.451447964E0,-7.601399422E0,2.066202402E0
2.610561770E0,5.939883232E0,-7.886145115E0,1.613659739E0
2.612957083E0,6.739385128E0,-8.240582466E0,1.302293777E0
2.615352395E0,7.493422985E0,-8.455936432E0,1.051047325E0
2.617748541E0,7.876574039E0,-8.633005142E0,1.060618639E0
2.620144635E0,8.039285660E0,-8.714659691E0,9.290133715E-1
2.622539947E0,8.211868286E0,-8.796015739E0,8.572286963E-1
2.624935260E0,8.082356453E0,-8.678468704E0,8.114659786E-1
2.627331406E0,8.096714020E0,-8.525327682E0,7.827520967E-1
2.629727499E0,8.312366486E0,-8.630612373E0,5.530411601E-1
2.632122812E0,8.489435196E0,-8.807980537E0,2.751746178E-1
2.634518124E0,8.740981102E0,-8.819944382E0,-2.560320199E-1
2.636914270E0,9.049654961E0,-8.846264839E0,-1.722832322E-1
2.639310364E0,9.241081238E0,-8.733802795E0,-2.297109663E-1
2.641705676E0,9.480662346E0,-8.815158844E0,-4.477569461E-1
2.644100989E0,9.420842171E0,-9.042476654E0,-3.687937856E-1
2.646497135E0,9.049654961E0,-9.152546883E0,-3.329014480E-1
2.648893229E0,8.448758125E0,-9.004191399E0,-3.257229924E-1
2.651288541E0,7.910073280E0,-8.786444664E0,-2.177468538E-1
2.653683854E0,7.553243637E0,-8.724231720E0,-4.785645381E-2
2.656079947E0,7.359425068E0,-9.008976936E0,-5.982056633E-2
2.658476093E0,7.067500591E0,-9.420842171E0,3.110669367E-2
2.660871406E0,6.701099873E0,-9.648159981E0,1.531406492E-1
2.663266718E0,6.442375660E0,-9.669695854E0,1.052841991E-1
2.665662812E0,6.243771553E0,-9.569196701E0,-3.209373355E-1
2.668058958E0,5.927918911E0,-9.621838570E0,1.962114573E-1
2.670454218E0,5.731408596E0,-9.851848602E0,4.812564552E-1
2.672849531E0,5.518447399E0,-1.009352398E1,6.176473498E-1
2.675245676E0,5.312365532E0,-1.022512913E1,9.218349457E-1
2.677641822E0,5.097011566E0,-1.011027431E1,1.398006678E0
2.680037083E0,5.025226593E0,-1.000259686E1,1.891227245E0
2.682432395E0,5.178367138E0,-9.918848038E0,2.324627161E0
2.684828541E0,5.343770981E0,-9.947562218E0,2.803490877E0
2.687224635E0,5.544768333E0,-1.005523872E1,3.129213810E0
2.689619947E0,5.886941910E0,-1.029691410E1,3.327818155E0
2.692015260E0,6.198307991E0,-1.051735306E1,3.368496180E0
2.694411406E0,6.238986015E0,-1.070877838E1,3.423531055E0
2.696807499E0,6.521637917E0,-1.044796085E1,3.339782238E0
2.699202812E0,6.519245148E0,-1.036391354E1,3.196212769E0
2.701598124E0,6.605386734E0,-1.014138031E1,3.174677372E0
2.703994270E0,6.179165363E0,-9.751050949E0,3.378067255E0
2.706390364E0,5.657230854E0,-9.650552750E0,3.445066452E0
2.708785676E0,5.334199905E0,-9.545269012E0,3.342175007E0
2.711180989E0,4.862514496E0,-9.518947601E0,3.054737091E0
2.713577135E0,4.721039295E0,-9.334700584E0,2.465803623E0
2.715973229E0,5.046761990E0,-8.774480820E0,1.714158297E0
2.718368541E0,4.666004181E0,-8.757730484E0,1.074975610E0
2.720763854E0,4.189533234E0,-8.968298912E0,5.147559643E-1
2.723159999E0,3.933501244E0,-9.262915611E0,-8.853443712E-2
2.725556093E0,4.295116425E0,-9.260522842E0,-6.990033388E-1
2.727951406E0,4.965405941E0,-9.097511292E0,-1.177866936E0
2.730346718E0,5.743372440E0,-8.688039780E0,-1.659123421E0
2.732742864E0,5.360520840E0,-8.798408508E0,-1.151545882E0
2.735138958E0,5.516054630E0,-8.211868286E0,-5.673980713E-1
2.737534270E0,5.425127029E0,-7.902894974E0,-9.571290761E-2
2.739929583E0,4.800301552E0,-8.144868851E0,6.320042610E-1
2.742325676E0,4.019642830E0,-8.417651176E0,1.429412484E0
2.744721822E0,3.323032379E0,-8.606683731E0,2.252842426E0
2.747117135E0,2.405983210E0,-8.930013657E0,2.645564556E0
2.749512447E0,1.963011861E0,-8.937192917E0,3.284747362E0
2.751908541E0,1.898405671E0,-9.037691116E0,3.468994617E0
2.754304687E0,2.616850615E0,-9.049654961E0,3.318246841E0
2.756699999E0,4.793122768E0,-8.125427246E0,3.004487991E0
2.759095312E0,6.042774677E0,-7.843074322E0,2.398804665E0
2.761491406E0,5.966204166E0,-8.003393173E0,2.039881229E0
2.763887551E0,5.892026424E0,-7.864609718E0,1.757229090E0
2.766282812E0,6.124130249E0,-7.452745438E0,1.314257860E0
2.768678124E0,6.090631008E0,-7.227819920E0,8.401798606E-1
2.771074270E0,5.944668770E0,-6.988238335E0,3.927220106E-1
2.773470416E0,6.212665081E0,-6.744170666E0,-1.244267747E-1
2.775865676E0,6.710670948E0,-6.610172749E0,-5.410770178E-1
2.778260989E0,7.084250450E0,-6.528816700E0,-8.401798606E-1
2.780657135E0,7.371389389E0,-6.485745907E0,-1.003190875E0
2.783053229E0,7.431210041E0,-6.430411816E0,-1.074975610E0
2.785448541E0,7.402495861E0,-6.313163280E0,-1.005583763E0
2.787843854E0,7.352246761E0,-6.222236156E0,-8.787640929E-1
2.790239999E0,7.004988194E0,-6.140880108E0,-6.655037999E-1
2.792636093E0,6.689135551E0,-6.143272877E0,-3.568296731E-1
2.795031406E0,6.416054726E0,-6.160022736E0,-8.374879509E-2
2.797426718E0,6.179165363E0,-6.169594288E0,1.196411327E-1
2.799822864E0,6.162415504E0,-6.246164322E0,3.400799036E-1
2.802218958E0,6.126523495E0,-6.305984974E0,4.501497746E-1
2.804614270E0,6.018846035E0,-6.313163280E0,5.267201066E-1
2.807009583E0,6.234200478E0,-6.315556049E0,4.573282301E-1
2.809405729E0,6.576673031E0,-6.449554443E0,7.109674215E-1
2.811801822E0,5.173581600E0,-6.727420807E0,1.046261668E0
2.814197135E0,4.331008911E0,-6.567101955E0,1.175474167E0
2.816592447E0,2.501696110E0,-5.839085579E0,1.359721422E0
2.818988593E0,2.451446772E0,-5.456233978E0,1.134796143E0
2.821384687E0,4.223331928E0,-5.645267010E0,6.439684033E-1
2.823779999E0,5.257330418E0,-5.733801365E0,5.195416212E-1
2.826175312E0,5.705087185E0,-5.858228207E0,5.243272781E-1
2.828571458E0,5.714658737E0,-5.851049423E0,4.573282301E-1
2.830967551E0,5.559125423E0,-5.793622017E0,5.003990531E-1
2.833362864E0,5.468197823E0,-5.695516109E0,4.525425732E-1
2.835758176E0,5.551946640E0,-5.626124382E0,4.621138871E-1
2.838154322E0,5.729015827E0,-5.537590027E0,5.793621540E-1
2.840550416E0,5.994917870E0,-5.542375565E0,6.774678826E-1
2.842945729E0,6.207879066E0,-5.587839127E0,7.827520967E-1
2.845341041E0,6.464210510E0,-5.939883232E0,9.625129104E-1
2.847737187E0,6.610172749E0,-6.356234074E0,4.764707983E-1
2.850133281E0,6.466603279E0,-6.262914181E0,1.292124242E-1
2.852528593E0,6.085845470E0,-5.882156372E0,3.448655605E-1
2.854923906E0,5.819942951E0,-5.757729530E0,6.678966284E-1
2.857319999E0,5.673980713E0,-6.167201042E0,6.056832075E-1
2.859716145E0,5.518447399E0,-6.722635269E0,4.788636267E-1
2.862111458E0,5.487340450E0,-7.390532017E0,2.153540403E-2
2.864506770E0,5.254937649E0,-8.051250458E0,-2.946162820E-1
2.866902864E0,5.144867897E0,-8.630612373E0,-1.794617027E-1
2.869299010E0,5.274080276E0,-9.387342453E0,-2.632105052E-1
2.871694322E0,5.257330418E0,-1.004088211E1,-2.273181528E-1
2.874089635E0,5.245366573E0,-1.070877838E1,-2.177468538E-1
2.876485729E0,5.082654476E0,-1.125703430E1,-1.220339537E-1
2.878881874E0,4.994120121E0,-1.173589802E1,-2.297109663E-1
2.881277135E0,4.591826439E0,-1.178614712E1,-4.501497746E-1
2.883672447E0,4.304687977E0,-1.158754253E1,-1.292124242E-1
2.886068593E0,4.393222332E0,-1.158993530E1,2.153540403E-1
2.888464739E0,4.405186653E0,-1.187707424E1,9.332008660E-2
2.890859999E0,4.208974838E0,-1.205892849E1,-1.124626622E-1
2.893255312E0,3.933501244E0,-1.213819122E1,1.890329868E-1
2.895651458E0,3.691826344E0,-1.213819122E1,1.196411327E-1
2.898047551E0,3.792324781E0,-1.189143085E1,9.571290761E-2
2.900442864E0,3.955036640E0,-1.127378368E1,-4.262215197E-1
2.902838176E0,4.077070713E0,-1.038814068E1,-5.889334679E-1
2.905234322E0,4.321437836E0,-9.703194618E0,-2.392822653E-1
2.907630416E0,4.610969067E0,-9.614660263E0,3.305086195E-1
2.910025729E0,4.989334106E0,-1.003370380E1,7.325028181E-1
2.912421041E0,5.463412285E0,-1.060349464E1,8.739784956E-1
2.914817187E0,5.329114914E0,-1.114935684E1,4.142574072E-1
2.917213281E0,5.664409637E0,-1.145563793E1,-4.621138871E-1
2.919608593E0,6.669992924E0,-1.116610718E1,-1.048654556E0
2.922003906E0,8.570791245E0,-1.010070229E1,-1.101296663E0
2.924400051E0,1.258564854E1,-6.748956203E0,5.211866856E0
2.926796145E0,1.238465214E1,-5.633302689E0,8.975478172E0
2.929191458E0,1.032802105E1,-7.292426109E0,4.956133962E-1
2.931586770E0,1.008156013E1,-7.869395256E0,4.956133962E-1
2.933982916E0,8.918049812E0,-8.951549530E0,8.644071817E-1
2.936379010E0,6.949953556E0,-1.090499020E1,-1.762014747E0
2.938774322E0,5.999703884E0,-1.251625729E1,-2.508874655E0
2.941169635E0,5.058726311E0,-1.374437332E1,-2.966202736E0
2.943565781E0,4.548755646E0,-1.441735458E1,-2.489732027E0
2.945961874E0,4.572684288E0,-1.457767391E1,-2.008774519E0
2.948357187E0,4.398007870E0,-1.474038601E1,-1.747657895E0
2.950752499E0,4.345366001E0,-1.498953819E1,-1.376471281E0
2.953148645E0,3.931108475E0,-1.532214069E1,-1.010369420E0
2.955544739E0,3.677469254E0,-1.558325768E1,-5.434698462E-1
2.957940051E0,2.870489836E0,-1.512832165E1,4.785645287E-3
2.960335364E0,2.609672308E0,-1.453460312E1,3.855435550E-1
2.962731510E0,2.578565598E0,-1.405813217E1,8.644071817E-1
2.965127604E0,2.489732027E0,-1.349791241E1,9.936196208E-1
2.967522916E0,2.013560295E0,-1.276540947E1,8.596215248E-1
2.969918229E0,1.611266971E0,-1.202782249E1,7.875377536E-1
2.972314374E0,9.553344250E-1,-1.123310566E1,5.243272781E-1
2.974710468E0,6.221338734E-2,-1.055563831E1,2.344966233E-1
2.977105781E0,-1.204187989E0,-1.008873844E1,-1.196411327E-1
2.979501093E0,-2.379662037E0,-1.005045319E1,-7.420741320E-1
2.981897239E0,-1.842473447E-1,-9.638588905E0,-1.125224829E0
2.984293333E0,2.049452543E0,-9.102297783E0,-1.235294700E0
2.986688645E0,3.497708559E0,-8.829515457E0,-1.963011861E0
2.989083958E0,4.510470867E0,-8.597112656E0,-3.064308405E0
2.991480104E0,4.965405941E0,-8.099106789E0,-2.152343988E0
2.993876197E0,4.438685894E0,-7.548458099E0,-1.115653515E0
2.996271510E0,3.849752426E0,-7.115357399E0,-4.932205677E-1
2.998666822E0,3.064308405E0,-6.669992924E0,7.420741320E-1
3.001062968E0,2.334198475E0,-6.317949295E0,1.929512382E0
3.003459062E0,2.013560295E0,-6.100202084E0,2.789133787E0
3.005854374E0,1.989632010E0,-5.970989704E0,3.538386583E0
3.008249687E0,2.959024191E0,-5.925526142E0,4.136891365E0
3.010645781E0,3.122035265E0,-6.128916264E0,4.790730000E0
3.013041926E0,2.626421928E0,-6.550352097E0,5.027619362E0
3.015437239E0,2.315055847E0,-7.007380962E0,4.756931305E0
3.017832551E0,2.374876499E0,-7.349853992E0,4.179962158E0
3.020228697E0,2.717349291E0,-7.565207958E0,3.464209080E0
3.022624791E0,3.059522867E0,-7.699504852E0,2.688635349E0
3.025020104E0,3.301496983E0,-7.833503246E0,1.833799481E0
3.027415416E0,3.449851990E0,-7.924430370E0,9.744769931E-1
3.029811510E0,3.569493294E0,-7.974679470E0,2.249253243E-1
3.032207656E0,3.679862022E0,-7.979465485E0,-3.831507266E-1
3.034602968E0,3.754039526E0,-8.075178146E0,-7.731808424E-1
3.036998281E0,3.830610037E0,-8.130212784E0,-1.053440213E0
3.039394374E0,3.897608995E0,-8.235795975E0,-1.261615753E0
3.041790520E0,3.993321896E0,-8.369794846E0,-1.465304732E0
3.044185833E0,4.228117466E0,-8.585148811E0,-1.616052628E0
3.046581145E0,4.448257446E0,-8.774480820E0,-1.817049742E0
3.048977239E0,4.484149456E0,-8.910871506E0,-1.802692771E0
3.051373385E0,4.402793884E0,-9.073583603E0,-1.668694735E0
3.053768697E0,4.292723656E0,-9.164510727E0,-1.510768414E0
3.056164010E0,4.077070713E0,-9.205188751E0,-1.287936807E0
3.058560104E0,4.089034557E0,-9.135796547E0,-1.029511929E0
3.060956249E0,4.955834866E0,-8.731410027E0,-6.918248534E-1
3.063351562E0,4.520041943E0,-8.561220169E0,-3.017947674E-1
3.065746874E0,3.744468451E0,-8.484649658E0,-1.100698411E-1
3.068142968E0,3.162713289E0,-8.432007790E0,-3.349951655E-2
3.070539114E0,2.877668381E0,-8.463114738E0,-1.076770201E-1
3.072934426E0,2.758027315E0,-8.522934914E0,-1.770688742E-1
3.075329739E0,2.860918522E0,-8.690432549E0,-2.775674164E-1
3.077725833E0,2.896811008E0,-8.851051331E0,-3.927220106E-1
3.080121979E0,2.832204819E0,-9.016156197E0,-4.980062246E-1
3.082517291E0,2.746062994E0,-9.178867340E0,-6.367899179E-1
3.084912604E0,2.576172590E0,-9.310771942E0,-7.396813035E-1
3.087308697E0,2.336591244E0,-9.363413811E0,-7.875377536E-1
3.089704843E0,2.023131609E0,-9.291629791E0,-7.612167001E-1
3.092100156E0,1.726122379E0,-9.174081802E0,-7.181459069E-1
3.094495468E0,1.510768414E0,-9.059226990E0,-6.272186637E-1
3.096891562E0,1.376471281E0,-8.946763992E0,-5.482555032E-1
3.099287708E0,1.304686546E0,-8.874979019E0,-4.477569461E-1
3.101683020E0,1.275972724E0,-8.829515457E0,-3.281157911E-1
3.104078333E0,1.292722464E0,-8.798408508E0,-2.946162820E-1
3.106474426E0,1.342971683E0,-8.796015739E0,-2.009970993E-1
3.108870572E0,1.427019596E0,-8.793622971E0,-1.818545163E-1
3.111265885E0,1.529910922E0,-8.803194046E0,-1.603191197E-1
3.113661197E0,1.561017632E0,-8.803194046E0,-1.435693651E-1
3.116057291E0,1.575374603E0,-8.827122688E0,-8.853443712E-2
3.118453437E0,1.637588024E0,-8.882157326E0,-7.178467698E-3
3.120848697E0,1.697408557E0,-8.944371223E0,8.135596663E-2
3.123244010E0,1.826620936E0,-9.013762474E0,1.028913707E-1
3.125640156E0,1.874477386E0,-9.085547447E0,-1.435693540E-2
3.128036301E0,1.757229090E0,-9.193224907E0,-2.922234535E-1
3.130431562E0,1.656730533E0,-9.406484604E0,-6.367899179E-1
3.132826874E0,1.673480392E0,-9.483055115E0,-8.955138922E-1
3.135223020E0,1.850549221E0,-9.550054550E0,-9.984052777E-1
3.137619166E0,1.943869352E0,-9.573982239E0,-9.553344250E-1
3.140014426E0,1.975275040E0,-9.614660263E0,-8.377870321E-1
3.142409739E0,2.070987940E0,-9.672088623E0,-7.516453862E-1
3.144805885E0,2.121237278E0,-9.727123260E0,-6.990033388E-1
3.147202031E0,2.061416626E0,-9.786943436E0,-6.942176819E-1
3.149597343E0,1.934298038E0,-9.837491989E0,-6.918248534E-1
3.151992656E0,1.797907114E0,-9.866206169E0,-7.516453862E-1
3.154388749E0,1.764407635E0,-9.918848038E0,-6.774678826E-1
3.156784895E0,1.730908036E0,-9.973882675E0,-6.870391965E-1
3.159180156E0,1.714158297E0,-1.001456070E1,-7.109674215E-1
3.161575468E0,1.704586983E0,-1.005763149E1,-8.042874932E-1
3.163971614E0,1.671087503E0,-1.010788059E1,-8.401798606E-1
3.166367760E0,1.644766450E0,-1.014138031E1,-8.979067206E-1
3.168763072E0,1.594517231E0,-1.013898754E1,-9.146564603E-1
3.171158385E0,1.546660781E0,-1.015334511E1,-9.936196208E-1
3.173554479E0,1.491625786E0,-1.010788059E1,-9.984052777E-1
3.175950624E0,1.448554993E0,-1.011984539E1,-9.218349457E-1
3.178345937E0,1.417448282E0,-1.008873844E1,-8.306085467E-1
3.180741249E0,1.369292736E0,-1.010309505E1,-7.085745931E-1
3.183137343E0,1.319043517E0,-1.008873844E1,-5.793621540E-1
3.185533489E0,1.323829174E0,-1.011027431E1,-4.501497746E-1
3.187928749E0,1.872084618E0,-9.693623543E0,-6.032904387E-1
3.190324062E0,2.262413740E0,-9.188439369E0,-8.548358679E-1
3.192720208E0,3.256033421E0,-8.372187614E0,-1.699801445E0
3.195116354E0,3.607778311E0,-7.582256794E0,-3.148356438E0
3.197511666E0,3.208176851E0,-6.870990276E0,-3.313461065E0
3.199906979E0,2.731706142E0,-6.488138676E0,-3.047558784E0
3.202303072E0,2.513660192E0,-6.334698677E0,-2.092523336E0
3.204699218E0,2.456232548E0,-6.569494724E0,-6.678966284E-1
3.207094531E0,2.413161755E0,-6.873383045E0,5.434698462E-1
3.209489843E0,2.312663078E0,-7.146463871E0,1.448554993E0
3.211885937E0,2.137987137E0,-7.223034382E0,2.003988981E0
3.214282083E0,1.987239242E0,-7.117750168E0,1.989632010E0
3.216677395E0,1.893620014E0,-6.904489517E0,1.527518153E0
3.219072708E0,1.697408557E0,-6.643671989E0,8.739784956E-1
3.221468801E0,1.474876046E0,-6.377769470E0,3.065803945E-1
3.223864947E0,1.302293777E0,-6.076273918E0,-2.512463629E-1
3.226260260E0,1.101296663E0,-5.779264927E0,-7.779664397E-1
3.228655572E0,9.816554785E-1,-5.528018475E0,-1.108475089E0
3.231051666E0,9.553344250E-1,-5.314758301E0,-1.307079315E0
3.233447812E0,9.553344250E-1,-5.140082359E0,-1.345364571E0
3.235843124E0,9.266205430E-1,-5.020441055E0,-1.180259824E0
3.238238437E0,9.337990284E-1,-4.989334106E0,-1.007976532E0
3.240634531E0,8.979067206E-1,-4.953442097E0,-6.846463680E-1
3.243030676E0,9.098708034E-1,-4.963013172E0,-2.368894368E-1
3.245425989E0,8.210372925E-1,-5.046761990E0,-2.440679073E-1
3.247821301E0,7.588238716E-1,-5.209474087E0,-6.176473498E-1
3.250217395E0,8.282157183E-1,-5.262115955E0,-4.812564552E-1
3.252613541E0,1.017547846E0,-5.281258583E0,8.853443712E-2
3.255008854E0,1.340578914E0,-5.266901970E0,3.017947674E-1
3.257404166E0,1.644766450E0,-5.245366573E0,2.225325108E-1
3.259800312E0,1.879263043E0,-5.317151070E0,-7.178467698E-3
3.262196406E0,2.066202402E0,-5.554339409E0,-3.616153300E-1
3.264591718E0,2.322234392E0,-5.697908878E0,-5.889334679E-1
3.266987031E0,2.614457846E0,-5.602196217E0,-2.081755698E-1
3.269383124E0,2.820240498E0,-5.403591633E0,8.377870321E-1
3.271779270E0,2.829811811E0,-5.506483078E0,1.082154036E0
3.274174583E0,2.592922449E0,-6.076273918E0,1.316052526E-1
3.276569895E0,2.126022816E0,-7.093822002E0,-7.372884750E-1
3.278966041E0,2.204986095E0,-6.648457527E0,-6.367899179E-1
3.281362135E0,2.063809633E0,-6.878168583E0,-2.584248483E-1
3.283757447E0,1.738086581E0,-7.424031258E0,-5.889334679E-1
3.286152760E0,1.450947881E0,-7.965108395E0,-9.074779749E-1
3.288548906E0,1.132403374E0,-8.487042427E0,-1.132403374E0
3.290944999E0,8.258228898E-1,-8.997013092E0,-1.347757339E0
3.293340312E0,5.841478109E-1,-9.411270142E0,-1.709372640E0
3.295735624E0,3.783650696E-1,-9.782157898E0,-1.829013824E0
3.298131770E0,2.656033039E-1,-1.010548782E1,-1.685444474E0
3.300527864E0,1.579262912E-1,-1.036391354E1,-1.683051586E0
3.302923176E0,8.135596663E-2,-1.069202900E1,-1.862513304E0
3.305318489E0,7.178467698E-3,-1.100100231E1,-2.035095692E0
3.307714635E0,-1.244267747E-1,-1.120917797E1,-2.070987940E0
3.310110729E0,-2.826521695E-1,-1.121874905E1,-2.111665964E0
3.312506041E0,-4.549354017E-1,-1.106560802E1,-2.149951220E0
3.314901354E0,-6.224330068E-1,-1.085234833E1,-2.188236237E0
3.317297499E0,-6.559324861E-1,-1.056999493E1,-2.130808592E0
3.319693593E0,-6.559324861E-1,-1.033998489E1,-2.044667006E0
3.322088906E0,-5.506483316E-1,-9.990633011E0,-1.939083695E0
3.324484218E0,-4.477569461E-1,-9.686445236E0,-1.795514345E0
3.326880364E0,-2.874378264E-1,-9.425627708E0,-1.618445396E0
3.329276458E0,-1.411765367E-1,-9.147761345E0,-1.271187067E0
3.331671770E0,7.178467698E-3,-8.860622406E0,-9.649057388E-1
3.334067083E0,-2.392822644E-3,-8.599505424E0,-5.530411601E-1
3.336463229E0,2.871387079E-2,-8.374580383E0,-2.751746178E-1
3.338859322E0,0.000000000E0,-8.096714020E0,-2.081755698E-1
3.341254635E0,-4.785645287E-3,-7.838288784E0,-5.602195859E-1
3.343649947E0,-1.076770201E-1,-7.735397339E0,-9.457631707E-1
3.346046093E0,-1.986042857E-1,-7.847859859E0,-1.003190875E0
3.348442187E0,-3.903291821E-1,-8.087141991E0,-5.554339290E-1
3.350837499E0,1.651944876E0,-8.774480820E0,-2.177468538E-1
3.353232812E0,2.475374937E0,-9.669695854E0,-3.349951655E-2
3.355628958E0,5.810371399E0,-1.088584709E1,-3.352942765E-1
3.358025104E0,4.453042984E0,-1.055324554E1,2.368894368E-1
3.360420364E0,3.454637766E0,-1.048863888E1,1.004985496E-1
3.362815676E0,2.695813894E0,-1.074227810E1,-9.571290761E-2
3.365211822E0,2.037488461E0,-1.106800079E1,-7.417750359E-2
3.367607916E0,1.778764486E0,-1.144367409E1,-1.866401732E-1
3.370003229E0,1.821835399E0,-1.178136158E1,-2.464607358E-1
3.372398541E0,2.348555326E0,-1.178375435E1,-3.400799036E-1
3.374794687E0,3.526422262E0,-1.159711361E1,-5.434698462E-1
3.377190833E0,3.373281717E0,-1.169521999E1,-2.105683982E-1
3.379586093E0,3.078665495E0,-1.153968620E1,3.349951655E-2
3.381981406E0,2.738884687E0,-1.185553932E1,-6.460621208E-2
3.384377551E0,1.817049742E0,-1.220040417E1,1.004985496E-1
3.386773697E0,1.323829174E0,-1.208315659E1,2.081755698E-1
3.389169010E0,1.161117196E0,-1.176461124E1,-1.028913707E-1
3.391564322E0,1.091725349E0,-1.132881927E1,-2.057827413E-1
3.393960416E0,1.290329576E0,-1.046471119E1,1.076770201E-1
3.396356562E0,1.637588024E0,-9.540482521E0,-1.172483116E-1
3.398751874E0,1.649552107E0,-8.745766640E0,-4.597210586E-1
3.401147187E0,1.704586983E0,-8.099106789E0,-7.947162390E-1
3.403543281E0,1.659123421E0,-7.615756035E0,-7.995018363E-1
3.405939426E0,1.402792215E0,-7.299604416E0,-8.452646136E-1
3.408334739E0,9.457631707E-1,-7.196712971E0,-1.223330617E0
3.410730051E0,1.321436286E0,-6.736992359E0,-1.139581800E0
3.413126145E0,9.672985673E-1,-7.160820961E0,-1.781157374E0
3.415522291E0,1.721336842E0,-6.332305908E0,-1.541875124E0
3.417917604E0,1.759621978E0,-5.846263885E0,-1.242473125E0
3.420312916E0,5.913262963E-1,-6.262914181E0,-1.194616675E0
3.422709062E0,-8.883354068E-1,-6.926024914E0,-6.702894568E-1
3.425105156E0,-1.342971683E0,-7.783253670E0,-1.579262912E-1
3.427500468E0,-1.915155411E0,-8.558827400E0,3.185445070E-1
3.429895781E0,-2.446661234E0,-8.918049812E0,6.511468887E-1
3.432291926E0,-2.360519648E0,-9.198010445E0,7.588238716E-1
3.434688020E0,-2.042274237E0,-9.530911446E0,7.851449251E-1
3.437083333E0,-1.762014747E0,-1.002891827E1,7.707880139E-1
3.439478645E0,-1.098903775E0,-1.059870911E1,9.074779749E-1
3.441874791E0,-6.750751138E-1,-1.124028397E1,1.027119160E0
3.444270885E0,-4.453641176E-1,-1.182682514E1,9.840483069E-1
3.446666197E0,-1.938186288E-1,-1.237508011E1,1.074975610E0
3.449061510E0,2.009970993E-1,-1.307169056E1,9.194421172E-1
3.451457656E0,9.571290761E-2,-1.493450356E1,1.579262912E-1
3.453853749E0,-7.178467698E-3,-1.685923004E1,-6.248258352E-1
3.456249062E0,2.946162820E-1,-1.914317894E1,-1.350150228E0
3.458644374E0,7.205387354E-1,-2.107299042E1,-1.618445396E0
3.461040520E0,1.319043517E0,-2.243510437E1,-1.771586061E0
3.463436614E0,2.030309916E0,-2.308146667E1,-1.958226204E0
3.465831926E0,2.480160713E0,-2.305035973E1,-2.126022816E0
3.468227239E0,3.129213810E0,-2.238246346E1,-2.283949137E0
3.470623385E0,3.516851187E0,-2.149652100E1,-2.432304144E0
3.473019531E0,3.892823458E0,-2.045982933E1,-2.310270309E0
3.475414791E0,4.110570431E0,-1.945933151E1,-1.972882271E0
3.477810104E0,4.103391647E0,-1.845135498E1,-1.616052628E0
3.480206249E0,3.763610840E0,-1.747448540E1,-1.273579836E0
3.482602395E0,3.313461065E0,-1.646890068E1,-1.039083242E0
3.484997656E0,2.676671267E0,-1.536281872E1,-7.372884750E-1
3.487392968E0,1.972882271E0,-1.413948822E1,-4.190430641E-1
3.489789114E0,1.273579836E0,-1.307408428E1,-1.244267747E-1
3.492185260E0,7.085745931E-1,-1.219083309E1,5.024927482E-2
3.494580572E0,1.028913707E-1,-1.162343502E1,2.225325108E-1
3.496975885E0,-2.297109663E-1,-1.128096199E1,8.853443712E-2
3.499371979E0,-5.195416212E-1,-1.120199966E1,-2.344966233E-1
3.501768124E0,-7.253243923E-1,-1.111585712E1,-5.219344497E-1
3.504163437E0,-1.113260746E0,-1.105364418E1,-7.755736113E-1
3.506558749E0,-1.474876046E0,-1.113021469E1,-9.409775138E-1
3.508954843E0,-1.903191328E0,-1.120439243E1,-8.452646136E-1
3.511350989E0,-2.236092806E0,-1.132881927E1,-7.420741320E-1
3.513746301E0,-2.578565598E0,-1.153250790E1,-6.248258352E-1
3.516141614E0,-2.698206663E0,-1.167846966E1,-4.716851711E-1
3.518537760E0,-2.758027315E0,-1.186511040E1,-3.903291821E-1
3.520933854E0,-2.671885490E0,-1.200389385E1,-3.520440459E-1
3.523329166E0,-2.477767944E0,-1.211186981E1,-2.488535494E-1
3.525724479E0,-2.216950178E0,-1.216929817E1,-2.177468538E-1
3.528120624E0,-1.941476464E0,-1.222911835E1,-3.137588799E-1
3.530516718E0,-1.465304732E0,-1.232961655E1,-4.549354017E-1
3.532912031E0,-8.835497499E-1,-1.248036480E1,-5.530411601E-1
3.535307343E0,-4.764707983E-1,-1.263141155E1,-6.702894568E-1
3.537703489E0,-1.627119333E-1,-1.265773296E1,-8.835497499E-1
3.540099583E0,-9.571290575E-3,-1.272233868E1,-1.086939692E0
3.542494895E0,5.742774159E-2,-1.277737427E1,-1.299900889E0
3.544890208E0,1.794617027E-1,-1.274866009E1,-1.467697620E0
3.547286354E0,9.810572863E-2,-1.234158134E1,-1.467697620E0
3.549682499E0,-1.674975902E-1,-1.191775227E1,-1.311864972E0
3.552077760E0,-4.908277392E-1,-1.183400345E1,-8.428717852E-1
3.554473072E0,-7.612167001E-1,-1.194646645E1,-4.214358926E-1
3.556869218E0,-8.739784956E-1,-1.212862015E1,-2.679961324E-1
3.559265364E0,-9.409775138E-1,-1.228893852E1,-2.775674164E-1
3.561660624E0,-9.864411354E-1,-1.234636688E1,-2.922234535E-1
3.564055937E0,-1.019940615E0,-1.231286716E1,-3.927220106E-1
3.566452083E0,-9.984052777E-1,-1.219561863E1,-5.554339290E-1
3.568848229E0,-8.859425783E-1,-1.200867939E1,-6.894320250E-1
3.571243541E0,-1.017547846E0,-1.121874905E1,-1.158724308E0
3.573638854E0,-1.611266971E0,-1.003131104E1,-1.295115232E0
3.576034947E0,-1.321436286E0,-9.075976372E0,-1.453340650E0
3.578431093E0,-8.162516356E-1,-8.355437279E0,-1.611266971E0
3.580826406E0,1.339980662E-1,-8.005785942E0,-1.498804331E0
3.583221718E0,9.744769931E-1,-8.140083313E0,-1.484447360E0
3.585617864E0,1.632802367E0,-8.374580383E0,-1.249651670E0
3.588013958E0,1.919941068E0,-8.527720451E0,-1.074975610E0
3.590409270E0,2.157129526E0,-8.616254807E0,-9.960124493E-1
3.592804583E0,2.508874655E0,-8.384151459E0,-7.133602500E-1
3.595200729E0,2.561815739E0,-8.101499557E0,-5.961119533E-1
3.597596822E0,2.305484533E0,-7.948358536E0,-7.779664397E-1
3.599992135E0,1.958226204E0,-7.941180229E0,-1.084546804E0
3.602387447E0,1.635195136E0,-8.106285095E0,-1.285543919E0
3.604783593E0,1.254437327E0,-8.300402641E0,-1.395613790E0
3.607179739E0,8.330013752E-1,-8.494221687E0,-1.302293777E0
3.609574999E0,4.597210586E-1,-8.680861473E0,-1.156331539E0
3.611970312E0,1.124626622E-1,-8.834300995E0,-9.696913958E-1
3.614366458E0,-2.009970993E-1,-8.973084450E0,-7.325028181E-1
3.616762604E0,-5.362913609E-1,-8.977870941E0,-4.908277392E-1
3.619157864E0,-8.138588071E-1,-8.870193481E0,-3.089732230E-1
3.621553176E0,-9.314061999E-1,-8.786444664E0,-1.890329868E-1
3.623949322E0,-1.127617717E0,-8.719446182E0,-2.225325108E-1
3.626345468E0,-1.271187067E0,-8.949156761E0,-1.383649707E0
3.628740781E0,-6.296114326E-1,-9.119047165E0,-1.596910000E0
3.631136093E0,-1.411765367E-1,-8.300402641E0,-3.110669367E-2
3.633532187E0,-5.530411601E-1,-7.646862984E0,4.764707983E-1
3.635928333E0,-1.273579836E0,-7.797610760E0,-1.196411327E-1
3.638323645E0,-1.747657895E0,-8.173583031E0,-2.512463629E-1
3.640718958E0,-1.915155411E0,-8.214261055E0,-2.898306549E-1
3.643115051E0,-1.984846354E0,-8.067999840E0,-5.506483316E-1
3.645511197E0,-1.975275040E0,-8.321938515E0,-9.984052777E-1
3.647906510E0,-1.907976985E0,-8.671290398E0,-1.278365493E0
3.650301822E0,-1.819442511E0,-9.102297783E0,-1.039083242E0
3.652697968E0,-1.805085540E0,-9.250652313E0,-5.817549825E-1
3.655094062E0,-1.632802367E0,-1.022991467E1,-1.417448282E0
3.657489374E0,-2.075773716E0,-1.115174961E1,-2.420340061E0
3.659884687E0,-2.315055847E0,-1.150349522E1,-1.474876046E0
3.662280833E0,-2.413161755E0,-1.131924725E1,9.810572863E-2
3.664676926E0,-2.238485575E0,-1.081645584E1,1.065404296E0
3.667072239E0,-2.334198475E0,-1.052453136E1,1.776371717E0
3.669467551E0,-2.671885490E0,-1.114217854E1,-3.520440459E-1
3.671863697E0,-1.039083242E0,-1.110389328E1,1.003190875E0
3.674259791E0,-3.616153300E-1,-1.095553875E1,9.026923180E-1
3.676655104E0,8.500502706E-1,-1.012702370E1,8.330013752E-1
3.679050416E0,7.109674215E-1,-9.681659698E0,4.597210586E-1
3.681446562E0,3.113660514E-1,-9.614660263E0,-5.458626747E-1
3.683842708E0,6.221338734E-2,-9.820742607E0,-1.208973646E0
3.686237968E0,1.196411327E-1,-1.007677460E1,-1.948654890E0
3.688633281E0,4.262215197E-1,-1.024187946E1,-2.149951220E0
3.691029426E0,7.277171612E-1,-1.028495026E1,-2.003988981E0
3.693425572E0,9.433703423E-1,-1.026580715E1,-1.838585138E0
3.695820885E0,9.098708034E-1,-1.023470020E1,-1.661516190E0
3.698216197E0,7.683951855E-1,-1.020359421E1,-1.563410521E0
3.700612291E0,6.200401783E-1,-1.019880867E1,-1.534696579E0
3.703008437E0,4.166502357E-1,-1.019162941E1,-1.474876046E0
3.705403749E0,1.483550072E-1,-1.030409241E1,-1.395613790E0
3.707799062E0,-2.898306549E-1,-1.064177990E1,-1.232901812E0
3.710195208E0,-5.195416212E-1,-1.084756279E1,-1.091725349E0
3.712591301E0,-5.889334679E-1,-1.073749256E1,-9.936196208E-1
3.714986614E0,-6.320042610E-1,-1.047906780E1,-9.577272534E-1
3.717381926E0,-8.835497499E-1,-1.040489006E1,-8.931210637E-1
3.719778072E0,-1.012762189E0,-1.016770172E1,-1.000798106E0
3.722174166E0,-7.325028181E-1,-9.617053032E0,-1.082154036E0
3.724569479E0,-1.938186288E-1,-8.695218086E0,-1.007976532E0
3.726964791E0,-5.338985324E-1,-8.633005142E0,-7.995018363E-1
3.729360937E0,-6.200401783E-1,-8.324331284E0,-7.803592682E-1
3.731757083E0,-1.134796143E0,-8.429615021E0,-8.138588071E-1
3.734152343E0,-1.604088426E0,-8.781659126E0,-7.707880139E-1
3.736547656E0,-1.697408557E0,-8.961120605E0,-8.330013752E-1
3.738943801E0,-1.326221943E0,-8.846264839E0,-9.601200819E-1
3.741339947E0,-1.077368379E0,-8.757730484E0,-1.070189953E0
3.743735260E0,-9.696913958E-1,-8.882157326E0,-1.072582722E0
3.746130572E0,-1.007976532E0,-9.332307816E0,-9.792626500E-1
3.748526666E0,-1.199402332E0,-9.914062500E0,-7.899305820E-1
3.750922812E0,-1.261615753E0,-1.030648518E1,-6.152545214E-1
3.753318124E0,-1.067797065E0,-1.035673428E1,-5.362913609E-1
3.755713437E0,-8.066803217E-1,-1.022034359E1,-6.008976102E-1
3.758109583E0,-7.420741320E-1,-1.047667503E1,-6.870391965E-1
3.760505676E0,-6.367899179E-1,-1.049581718E1,-7.372884750E-1
3.762900989E0,-3.089732230E-1,-1.022034359E1,-7.133602500E-1
3.765296301E0,-4.453641176E-1,-1.032084274E1,-6.320042610E-1
3.767692447E0,-4.884349108E-1,-1.042642593E1,-5.721837282E-1
3.770088541E0,-5.243272781E-1,-1.044078255E1,-5.434698462E-1
3.772483854E0,-7.899305820E-1,-1.105842972E1,-5.147559643E-1
3.774879166E0,-1.826620936E0,-1.145324516E1,-3.807578981E-1
3.777275312E0,-3.783650696E-1,-1.033759212E1,-4.549354017E-1
3.779671458E0,2.368894368E-1,-9.684052467E0,-6.104688644E-1
3.782066718E0,7.178467698E-3,-9.399306297E0,-8.428717852E-1
3.784462031E0,-4.214358926E-1,-9.408877373E0,-9.625129104E-1
3.786858176E0,-1.316052526E-1,-8.870193481E0,-9.864411354E-1
3.789254322E0,3.496512175E-1,-8.226224899E0,-1.072582722E0
3.791649583E0,1.411765367E-1,-8.472685814E0,-1.134796143E0
3.794044895E0,-2.105683982E-1,-9.176474571E0,-1.048654556E0
3.796441041E0,-5.458626747E-1,-9.870991707E0,-7.971090674E-1
3.798837187E0,-8.572286963E-1,-1.031605625E1,-5.626124144E-1
3.801232499E0,-9.840483069E-1,-1.036391354E1,-5.267201066E-1
3.803627812E0,-9.050851464E-1,-1.017966557E1,-6.583253145E-1
3.806023906E0,-7.133602500E-1,-1.009352398E1,-8.282157183E-1
3.808420051E0,-6.391827464E-1,-1.054367352E1,-8.452646136E-1
3.810815364E0,-2.190629244E0,-1.283001614E1,-6.846463680E-1
3.813210676E0,-2.322234392E0,-1.313868999E1,-2.344966233E-1
3.815606822E0,-3.233301640E-1,-1.108714390E1,-1.962114573E-1
3.818002916E0,6.726822853E-1,-9.554840088E0,-7.133602500E-1
3.820398229E0,1.196411345E-2,-8.953942299E0,-9.553344250E-1
3.822793541E0,-3.687937856E-1,-8.115856171E0,-9.146564603E-1
3.825189687E0,-2.922234535E-1,-7.675576687E0,-9.577272534E-1
3.827585833E0,-4.334000051E-1,-7.831110477E0,-1.065404296E0
3.829981093E0,-7.588238716E-1,-8.171190262E0,-1.096511006E0
3.832376406E0,-7.660023570E-1,-8.549256325E0,-1.031904817E0
3.834772551E0,-6.822535396E-1,-9.061619759E0,-9.601200819E-1
3.837168697E0,-7.061817646E-1,-9.392127991E0,-8.596215248E-1
3.839563958E0,-7.013961077E-1,-9.645767212E0,-8.066803217E-1
3.841959270E0,-7.875377536E-1,-9.921240807E0,-6.990033388E-1
3.844355416E0,-8.811569214E-1,-1.031605625E1,-5.865406394E-1
3.846751562E0,-8.883354068E-1,-1.051017475E1,-5.267201066E-1
3.849146874E0,-8.931210637E-1,-1.060110188E1,-5.386841893E-1
3.851542187E0,-9.290133715E-1,-1.061067295E1,-5.673980713E-1
3.853938333E0,-8.883354068E-1,-1.061067295E1,-5.817549825E-1
3.856334426E0,-8.234301209E-1,-1.056760216E1,-5.602195859E-1
3.858729739E0,-8.186444640E-1,-1.049581718E1,-5.267201066E-1
3.861125051E0,-9.026923180E-1,-1.041206837E1,-5.003990531E-1
3.863521197E0,-9.290133715E-1,-1.033998489E1,-5.195416212E-1
3.865917291E0,-9.601200819E-1,-1.025623608E1,-5.458626747E-1
3.868312604E0,-9.409775138E-1,-1.016770172E1,-5.554339290E-1
3.870707916E0,-9.385846853E-1,-1.008634567E1,-5.865406394E-1
3.873104062E0,-9.361918569E-1,-1.013659477E1,-5.769693851E-1
3.875500156E0,-1.213759303E0,-1.067527866E1,-5.051847100E-1
3.877895468E0,-1.309472203E0,-1.089302635E1,-4.477569461E-1
3.880290781E0,-9.744769931E-1,-1.040728283E1,-4.238287210E-1
3.882686926E0,-6.726822853E-1,-9.885348320E0,-4.238287210E-1
3.885083072E0,-5.602195859E-1,-9.581160545E0,-4.788636267E-1
3.887478385E0,-5.913262963E-1,-9.554840088E0,-4.812564552E-1
3.889873697E0,-6.655037999E-1,-9.648159981E0,-4.764707983E-1
3.892269791E0,-6.798607111E-1,-9.597910881E0,-5.171487927E-1
3.894665937E0,-6.798607111E-1,-9.487840652E0,-5.410770178E-1
3.897061249E0,-6.391827464E-1,-9.420842171E0,-5.626124144E-1
3.899456562E0,-6.104688644E-1,-9.372985840E0,-5.386841893E-1
3.901852708E0,-5.961119533E-1,-9.315557480E0,-5.027918816E-1
3.904248801E0,-5.027918816E-1,-9.018548965E0,-5.027918816E-1
3.906644114E0,-6.439684033E-1,-9.461520195E0,-4.453641176E-1
3.909039426E0,-7.420741320E-1,-9.700801849E0,-3.951148391E-1
3.911435572E0,-5.602195859E-1,-9.504590988E0,-3.831507266E-1
3.913831666E0,-5.147559643E-1,-9.372985840E0,-3.424727321E-1
3.916226979E0,-3.592225015E-1,-8.865407944E0,-3.472583890E-1
3.918622291E0,-1.555334777E-1,-8.458329201E0,-3.927220106E-1
3.921018437E0,-3.520440459E-1,-8.664112091E0,-4.357928336E-1
3.923414531E0,-6.391827464E-1,-9.236295700E0,-3.975076675E-1
3.925809843E0,-8.258228898E-1,-9.779765129E0,-3.113660514E-1
3.928205156E0,-8.668000102E-1,-1.013898754E1,-1.651047617E-1
3.930601301E0,-8.691928387E-1,-1.027777100E1,-5.982056633E-2
3.932997447E0,-9.361918569E-1,-1.033041382E1,1.196411345E-2
3.935392708E0,-9.936196208E-1,-1.035912704E1,7.417750359E-2
3.937788020E0,-1.053440213E0,-1.037587738E1,1.124626622E-1
3.940184166E0,-1.101296663E0,-1.040967560E1,1.555334777E-1
3.942580312E0,-1.139581800E0,-1.040489006E1,1.268195957E-1
3.944975624E0,-1.218544960E0,-1.040728283E1,9.810572863E-2
3.947370937E0,-1.271187067E0,-1.038066292E1,1.674975827E-2
3.949767083E0,-1.335793257E0,-1.036630630E1,-1.674975827E-2
3.952163176E0,-1.378864050E0,-1.032323551E1,-4.546362907E-2
3.954558489E0,-1.429412484E0,-1.027059269E1,-9.571290761E-2
3.956953801E0,-1.441376567E0,-1.022273636E1,-1.483550072E-1
3.959349947E0,-1.434198022E0,-1.020120144E1,-1.914258152E-1
3.961746041E0,-1.402792215E0,-1.017727280E1,-2.368894368E-1
3.964141354E0,-1.364507079E0,-1.017248726E1,-2.703889608E-1
3.966536666E0,-1.331007600E0,-1.018445110E1,-3.592225015E-1
3.968932812E0,-1.247258782E0,-1.019402313E1,-3.687937856E-1
3.971328958E0,-1.185045362E0,-1.024187946E1,-4.022932947E-1
3.973724218E0,-1.122832060E0,-1.020837975E1,-4.573282301E-1
3.976119531E0,-1.141974568E0,-1.014855862E1,-4.860421121E-1
3.978515676E0,-1.271187067E0,-9.961918831E0,-5.171487927E-1
3.980911822E0,-1.302293777E0,-9.746265411E0,-5.338985324E-1
3.983307135E0,-1.347757339E0,-9.640981674E0,-5.434698462E-1
3.985702447E0,-1.321436286E0,-9.679266930E0,-5.410770178E-1
3.988098541E0,-1.362114310E0,-9.686445236E0,-5.027918816E-1
3.990494687E0,-1.410269856E0,-9.698409081E0,-5.027918816E-1
3.992889999E0,-1.415055513E0,-9.681659698E0,-4.908277392E-1
3.995285312E0,-1.438983679E0,-9.676874161E0,-4.573282301E-1
3.997681458E0,-1.470090389E0,-9.614660263E0,-4.310071766E-1
4.000077551E0,-1.527518153E0,-9.516554832E0,-4.357928336E-1
4.002472864E0,-1.546660781E0,-9.564411163E0,-4.645066857E-1
4.004868176E0,-1.628016710E0,-9.605089188E0,-5.027918816E-1
4.007264322E0,-1.649552107E0,-9.765408516E0,-5.123631358E-1
4.009660416E0,-1.601695657E0,-1.015334511E1,-5.099703074E-1
4.012055729E0,-1.809871197E0,-1.026819992E1,-4.022932947E-1
4.014451041E0,-1.924726725E0,-9.827920914E0,-3.113660514E-1
4.016847187E0,-2.027917147E0,-9.432806015E0,-2.727817893E-1
4.019243333E0,-2.051845312E0,-9.245866776E0,-2.464607358E-1
4.021638593E0,-1.975275040E0,-9.231510162E0,-3.065803945E-1
4.024033906E0,-1.927119493E0,-9.418449402E0,-4.046861231E-1
4.026430051E0,-1.936690807E0,-9.648159981E0,-5.267201066E-1
4.028826197E0,-1.975275040E0,-9.830313683E0,-5.099703074E-1
4.031221458E0,-2.037488461E0,-9.887741089E0,-2.297109663E-1
4.033616770E0,-1.860120535E0,-9.906884193E0,-1.004985496E-1
4.036012916E0,-1.608874083E0,-9.806086540E0,-7.657032460E-2
4.038409062E0,-1.637588024E0,-9.679266930E0,-2.751746178E-1
4.040804374E0,-1.644766450E0,-9.545269012E0,-6.200401783E-1
4.043199687E0,-1.386042476E0,-9.382556915E0,-8.548358679E-1
4.045595833E0,-1.240080357E0,-9.566803932E0,-6.750751138E-1
4.047991926E0,-9.840483069E-1,-9.859027863E0,-4.860421121E-1
4.050387239E0,-8.114659786E-1,-1.011266708E1,-4.597210586E-1
4.052782551E0,-9.553344250E-1,-1.018205833E1,-4.094717801E-1
4.055178697E0,-1.127617717E0,-1.019880867E1,-3.951148391E-1
4.057574791E0,-1.206580877E0,-1.018684387E1,-3.257229924E-1
4.059970104E0,-1.326221943E0,-1.018923664E1,-2.679961324E-1
4.062365416E0,-1.331007600E0,-1.019402313E1,-2.344966233E-1
4.064761562E0,-1.390828133E0,-1.018923664E1,-1.914258152E-1
4.067157708E0,-1.352542996E0,-1.022991467E1,-2.081755698E-1
4.069552968E0,-1.170688510E0,-1.026341438E1,-1.387837082E-1
4.071948281E0,-1.051047325E0,-1.029452133E1,-8.374879509E-2
4.074344426E0,-1.015154958E0,-1.035194874E1,-9.810572863E-2
4.076740572E0,-9.577272534E-1,-1.038814068E1,-1.124626622E-1
4.079135885E0,-9.098708034E-1,-1.043121147E1,-1.651047617E-1
4.081531197E0,-8.428717852E-1,-1.050299549E1,-3.999004960E-1
4.083927291E0,-7.660023570E-1,-1.039771175E1,-4.357928336E-1
4.086323437E0,-6.032904387E-1,-1.034477043E1,-3.544368446E-1
4.088718749E0,-6.678966284E-1,-1.033998489E1,-1.698904037E-1
4.091114062E0,-6.631109715E-1,-1.028973579E1,-1.363908947E-1
4.093510208E0,-4.932205677E-1,-1.025862885E1,-4.190430641E-1
4.095906301E0,-3.711866140E-1,-1.015095139E1,-3.496512175E-1
4.098301614E0,-3.352942765E-1,-1.006241703E1,-2.946162820E-1
4.100696926E0,-4.932205677E-1,-9.942776680E0,-2.129612118E-1
4.103093072E0,-5.769693851E-1,-9.813264847E0,-1.555334777E-1
4.105489166E0,-6.176473498E-1,-9.779765129E0,-1.483550072E-1
4.107884479E0,-5.961119533E-1,-9.753444672E0,-1.794617027E-1
4.110279791E0,-5.123631358E-1,-9.777372360E0,-3.137588799E-1
4.112675937E0,-4.908277392E-1,-9.859027863E0,-3.975076675E-1
4.115072083E0,-5.243272781E-1,-9.952347755E0,-4.860421121E-1
4.117467343E0,-6.152545214E-1,-9.959526062E0,-4.166502357E-1
4.119862656E0,-7.803592682E-1,-9.964311600E0,-3.113660514E-1
4.122258801E0,-8.668000102E-1,-9.875777245E0,-1.363908947E-1
4.124654947E0,-9.672985673E-1,-9.813264847E0,3.349951655E-2
4.127050260E0,-9.409775138E-1,-9.765408516E0,6.460621208E-2
4.129445572E0,-7.971090674E-1,-9.607481956E0,8.374879509E-2
4.131841666E0,-6.463612318E-1,-9.408877373E0,1.770688742E-1
4.134237812E0,-6.391827464E-1,-9.356235504E0,7.178468257E-2
4.136633124E0,-4.310071766E-1,-9.356235504E0,-4.067798331E-2
4.139028437E0,-3.496512175E-1,-9.492626190E0,-2.536391914E-1
4.141424583E0,-3.281157911E-1,-9.597910881E0,-1.962114573E-1
4.143820676E0,-3.592225015E-1,-9.516554832E0,7.896314561E-2
4.146215989E0,-4.022932947E-1,-9.511769295E0,2.751746178E-1
4.148611301E0,-1.914258152E-1,-9.478269577E0,3.209373355E-1
4.151007447E0,-1.914258115E-2,-9.483055115E0,2.201396823E-1
4.153403541E0,2.440679073E-1,-9.468698502E0,8.374879509E-2
4.155798854E0,4.980062246E-1,-9.516554832E0,1.674975827E-2
4.158194166E0,7.013961077E-1,-9.617053032E0,-3.110669367E-2
4.160590312E0,6.846463680E-1,-9.583553314E0,-6.939185411E-2
4.162986458E0,7.707880139E-1,-9.518947601E0,-2.392822690E-2
4.165381770E0,7.875377536E-1,-9.640981674E0,-2.392822690E-2
4.167777083E0,7.779664397E-1,-9.774979591E0,8.135596663E-2
4.170173176E0,5.530411601E-1,-9.786943436E0,2.488535494E-1
4.172569322E0,6.822535396E-1,-9.751050949E0,4.214358926E-1
4.174964635E0,7.851449251E-1,-9.794121742E0,3.951148391E-1
4.177359947E0,5.362913609E-1,-9.810872078E0,4.525425732E-1
4.179756041E0,5.099703074E-1,-9.765408516E0,4.405784607E-1
4.182152187E0,5.362913609E-1,-9.782157898E0,3.879363835E-1
4.184547499E0,5.171487927E-1,-9.842277527E0,3.640081584E-1
4.186942812E0,4.692923427E-1,-9.878170013E0,3.233301640E-1
4.189338958E0,3.424727321E-1,-9.942776680E0,2.850449979E-1
4.191735051E0,1.698904037E-1,-1.000020409E1,3.017947674E-1
4.194130364E0,1.603191197E-1,-9.995418549E0,3.113660514E-1
4.196525676E0,1.579262912E-1,-1.000020409E1,3.568296731E-1
4.198921822E0,1.818545163E-1,-1.001216793E1,3.759722710E-1
4.201317916E0,2.512463629E-1,-1.002652550E1,3.735794425E-1
4.203713229E0,3.544368446E-1,-1.004088211E1,2.799602449E-1
4.206108541E0,4.310071766E-1,-1.004327488E1,1.794617027E-1
4.208504687E0,4.884349108E-1,-1.000498962E1,1.196411327E-1
4.210900833E0,5.602195859E-1,-9.961918831E0,4.785645381E-2
4.213296145E0,6.080760360E-1,-9.914062500E0,1.914258115E-2
4.215691458E0,7.085745931E-1,-9.902098656E0,3.589234129E-2
4.218087551E0,8.715856671E-1,-9.791728973E0,5.024927482E-2
4.220483697E0,1.051047325E0,-9.763015747E0,-2.153540403E-2
4.222879010E0,1.192223907E0,-9.755837440E0,-3.589234129E-2
4.225274322E0,1.287936807E0,-9.789336205E0,-4.546362907E-2
4.227670468E0,1.390828133E0,-9.813264847E0,7.178468257E-2
4.230066562E0,1.467697620E0,-9.875777245E0,2.081755698E-1
4.232461874E0,1.539482236E0,-9.964311600E0,2.970091105E-1
4.234857187E0,1.580160260E0,-1.004327488E1,2.922234535E-1
4.237253333E0,1.639980793E0,-1.009113121E1,2.225325108E-1
4.239649426E0,1.671087503E0,-1.015573788E1,1.459621787E-1
4.242044739E0,1.683051586E0,-1.017966557E1,9.810572863E-2
4.244440051E0,1.687837243E0,-1.017009449E1,1.674975827E-2
4.246836197E0,1.649552107E0,-1.015813065E1,-7.178467698E-3
4.249232291E0,1.556231976E0,-1.021077251E1,-1.196411345E-2
4.251627604E0,1.407876968E0,-1.019880867E1,4.785645381E-2
4.254022916E0,1.244866014E0,-1.014138031E1,1.387837082E-1
4.256419062E0,1.079761267E0,-1.004806042E1,2.249253243E-1
4.258815208E0,8.931210637E-1,-9.969097137E0,2.994019389E-1
4.261210468E0,7.277171612E-1,-9.921240807E0,3.975076675E-1
4.263605781E0,6.320042610E-1,-9.861420631E0,4.286143482E-1
4.266001926E0,5.985047817E-1,-9.832706451E0,4.094717801E-1
4.268398072E0,5.482555032E-1,-9.770194054E0,4.357928336E-1
4.270793385E0,4.716851711E-1,-9.801301003E0,5.123631358E-1
4.273188697E0,4.980062246E-1,-9.798908234E0,4.357928336E-1
4.275584791E0,5.434698462E-1,-9.813264847E0,3.999004960E-1
4.277980937E0,4.621138871E-1,-9.791728973E0,3.616153300E-1
4.280376249E0,4.525425732E-1,-9.839884758E0,3.927220106E-1
4.282771562E0,3.807578981E-1,-9.873384476E0,3.855435550E-1
4.285167708E0,2.512463629E-1,-9.866206169E0,4.645066857E-1
4.287563801E0,3.400799036E-1,-9.902098656E0,2.656033039E-1
4.289959114E0,3.855435550E-1,-9.978668213E0,1.387837082E-1
4.292354426E0,3.855435550E-1,-9.954740524E0,1.148554832E-1
4.294750572E0,2.922234535E-1,-9.969097137E0,1.124626622E-1
4.297146666E0,2.416750938E-1,-1.001934624E1,1.627119333E-1
4.299541979E0,1.698904037E-1,-1.002652550E1,1.698904037E-1
4.301937291E0,9.092725813E-2,-1.003609657E1,1.746760458E-1
4.304333437E0,4.785645381E-2,-1.005045319E1,1.842473447E-1
4.306729583E0,9.571290575E-3,-1.008395290E1,1.722832322E-1
4.309124895E0,-4.546362907E-2,-1.006959629E1,1.507478207E-1
4.311520208E0,-1.435693651E-1,-1.008395290E1,2.536391914E-1
4.313916301E0,-1.866401732E-1,-1.009830952E1,1.914258152E-1
4.316312447E0,-5.742774159E-2,-1.017009449E1,4.307080805E-2
4.318707760E0,-1.914258115E-2,-1.020120144E1,-1.435693540E-2
4.321103072E0,-5.024927482E-2,-1.018445110E1,-4.067798331E-2
4.323499166E0,-1.627119333E-1,-1.011505985E1,-6.699903309E-2
4.325895312E0,-2.368894368E-1,-1.008395290E1,-8.853443712E-2
4.328290624E0,-2.994019389E-1,-1.003609657E1,-7.896314561E-2
4.330685937E0,-2.970091105E-1,-1.000738239E1,-9.571290761E-2
4.333082083E0,-3.568296731E-1,-1.000498962E1,-1.292124242E-1
4.335478176E0,-4.262215197E-1,-1.000738239E1,-1.531406492E-1
4.337873489E0,-4.381856322E-1,-9.978668213E0,-1.866401732E-1
4.340268801E0,-4.357928336E-1,-9.964311600E0,-2.392822653E-1
4.342664947E0,-4.405784607E-1,-9.957133293E0,-2.464607358E-1
4.345061041E0,-4.429712892E-1,-9.952347755E0,-2.512463629E-1
4.347456354E0,-4.621138871E-1,-9.942776680E0,-2.608176768E-1
4.349851666E0,-4.788636267E-1,-9.937990189E0,-2.440679073E-1
4.352247812E0,-4.836492836E-1,-9.918848038E0,-2.440679073E-1
4.354643958E0,-5.099703074E-1,-9.904491425E0,-2.177468538E-1
4.357039270E0,-4.692923427E-1,-9.847063065E0,-1.794617027E-1
4.359434583E0,-4.381856322E-1,-9.808479309E0,-1.483550072E-1
4.361830676E0,-4.022932947E-1,-9.760622978E0,-8.853443712E-2
4.364226822E0,-3.616153300E-1,-9.712766647E0,-8.614161611E-2
4.366622135E0,-3.281157911E-1,-9.650552750E0,-8.614161611E-2
4.369017447E0,-2.512463629E-1,-9.674481392E0,-5.742774159E-2
4.371413541E0,-1.818545163E-1,-9.676874161E0,-3.110669367E-2
4.373809687E0,-2.177468538E-1,-9.662516594E0,1.674975827E-2
4.376204999E0,-1.244267747E-1,-9.707980156E0,7.178467698E-3
4.378600312E0,-8.135596663E-2,-9.712766647E0,-2.392822644E-3
4.380996458E0,-6.699903309E-2,-9.748658180E0,-4.785645287E-3
4.383392551E0,-5.742774159E-2,-9.727123260E0,3.349951655E-2
4.385787864E0,-7.417750359E-2,-9.724730492E0,5.982056633E-2
4.388183176E0,-5.982056633E-2,-9.739087105E0,5.982056633E-2
4.390579322E0,-4.067798331E-2,-9.763015747E0,4.307080805E-2
4.392975416E0,-4.067798331E-2,-9.851848602E0,1.914258115E-2
4.395370729E0,-4.785645381E-2,-9.894919395E0,-9.571290575E-3
4.397766041E0,-5.503492057E-2,-9.937990189E0,1.674975827E-2
4.400162187E0,-3.589234129E-2,-9.983454704E0,-2.871387079E-2
4.402558333E0,1.100698411E-1,-1.010070229E1,-1.387837082E-1
4.404953645E0,-1.172483116E-1,-1.003609657E1,-9.571290761E-2
4.407348958E0,-1.818545163E-1,-1.001216793E1,-1.124626622E-1
4.409745051E0,-1.962114573E-1,-1.001216793E1,-7.896314561E-2
4.412141197E0,-2.321037948E-1,-9.990633011E0,-8.135596663E-2
4.414536510E0,-2.488535494E-1,-9.937990189E0,-1.076770201E-1
4.416931822E0,-3.089732230E-1,-9.906884193E0,-1.579262912E-1
4.419327968E0,-3.185445070E-1,-9.921240807E0,-1.411765367E-1
4.421724062E0,-3.783650696E-1,-9.882955551E0,-2.009970993E-1
4.424119374E0,-4.621138871E-1,-9.796515465E0,-1.986042857E-1
4.426514687E0,-4.070789516E-1,-9.779765129E0,-1.124626622E-1
4.428910833E0,-3.975076675E-1,-9.731908798E0,-1.004985496E-1
4.431306926E0,-4.908277392E-1,-9.700801849E0,-1.411765367E-1
4.433702239E0,-4.716851711E-1,-9.674481392E0,-7.417750359E-2
4.436097551E0,-5.338985324E-1,-9.672088623E0,-1.028913707E-1
4.438493697E0,-5.027918816E-1,-9.662516594E0,-0.000000000E0
4.440889791E0,-3.711866140E-1,-9.760622978E0,9.092725813E-2
4.443285104E0,-4.118646085E-1,-9.774979591E0,6.699903309E-2
4.445680416E0,-4.884349108E-1,-9.741479874E0,1.674975827E-2
4.448076562E0,-3.161516786E-1,-9.818050385E0,7.178467698E-3
4.450472708E0,-2.225325108E-1,-9.885348320E0,1.435693540E-2
4.452868020E0,-1.531406492E-1,-9.940383911E0,-5.024927482E-2
4.455263333E0,-2.703889608E-1,-9.997811317E0,-5.264209956E-2
4.457659426E0,-3.017947674E-1,-9.897313118E0,1.674975827E-2
4.460055572E0,-5.913262963E-1,-1.001456070E1,1.244267747E-1
4.462450885E0,-3.448655605E-1,-9.810872078E0,4.546362907E-2
4.464846197E0,-3.783650696E-1,-9.861420631E0,-1.914258115E-2
4.467242291E0,-4.286143482E-1,-9.887741089E0,-7.417750359E-2
4.469638437E0,-5.386841893E-1,-9.825528145E0,-7.417750359E-2
4.472033749E0,-6.367899179E-1,-9.779765129E0,-5.264209956E-2
4.474429062E0,-7.205387354E-1,-9.813264847E0,2.153540403E-2
4.476825208E0,-8.066803217E-1,-9.794121742E0,3.828516230E-2
4.479221301E0,-9.026923180E-1,-9.798908234E0,3.589234129E-2
4.481616614E0,-9.553344250E-1,-9.784550667E0,4.546362907E-2
4.484011926E0,-1.034297585E0,-9.765408516E0,8.374879509E-2
4.486408072E0,-1.113260746E0,-9.736694336E0,1.076770201E-1
4.488804218E0,-1.156331539E0,-9.746265411E0,1.363908947E-1
4.491199479E0,-1.213759303E0,-9.748658180E0,1.651047617E-1
4.493594791E0,-1.259222865E0,-9.746265411E0,2.033899277E-1
4.495990937E0,-1.314257860E0,-9.719944954E0,2.009970993E-1
4.498387083E0,-1.357328653E0,-9.736694336E0,2.344966233E-1
4.500782395E0,-1.410269856E0,-9.705587387E0,2.225325108E-1
4.503177708E0,-1.431805253E0,-9.684052467E0,2.273181528E-1
4.505573801E0,-1.443769336E0,-9.698409081E0,2.177468538E-1
4.507969947E0,-1.458126307E0,-9.686445236E0,2.368894368E-1
4.510365260E0,-1.431805253E0,-9.660123825E0,1.986042857E-1
4.512760572E0,-1.412662625E0,-9.700801849E0,1.914258152E-1
4.515156718E0,-1.568196177E0,-9.564411163E0,3.831507266E-1
4.517552812E0,-1.541875124E0,-9.650552750E0,4.860421121E-1
4.519948124E0,-1.323829174E0,-9.530911446E0,3.759722710E-1
4.522343437E0,-1.378864050E0,-9.430413246E0,3.759722710E-1
4.524739583E0,-1.477268934E0,-9.387342453E0,4.381856322E-1
4.527135676E0,-1.441376567E0,-9.447162628E0,4.597210586E-1
4.529530989E0,-1.333400369E0,-9.545269012E0,5.362913609E-1
4.531926301E0,-1.419841170E0,-9.540482521E0,5.362913609E-1
4.534322447E0,-1.415055513E0,-9.679266930E0,5.506483316E-1
4.536718541E0,-1.436590910E0,-9.755837440E0,5.745765567E-1
4.539113854E0,-1.771586061E0,-9.849455833E0,6.990033388E-1
4.541509166E0,-1.546660781E0,-9.947562218E0,7.085745931E-1
4.543905312E0,-1.484447360E0,-9.935597420E0,4.692923427E-1
4.546301458E0,-1.532303810E0,-9.969097137E0,4.429712892E-1
4.548696770E0,-1.565803289E0,-9.997811317E0,4.980062246E-1
4.551092083E0,-1.551446438E0,-1.006720352E1,5.673980713E-1
4.553488176E0,-1.544267893E0,-1.010548782E1,6.200401783E-1
4.555884322E0,-1.544267893E0,-1.016052341E1,6.942176819E-1
4.558279635E0,-1.443769336E0,-1.021077251E1,7.827520967E-1
4.560674947E0,-1.489233017E0,-1.025145054E1,7.348956466E-1
4.563071093E0,-1.482054472E0,-1.046710396E1,7.875377536E-1
4.565467187E0,-1.642373681E0,-1.041685390E1,7.851449251E-1
4.567862499E0,-1.651944876E0,-1.024187946E1,4.118646085E-1
4.570257812E0,-1.776371717E0,-1.022273636E1,4.166502357E-1
4.572653958E0,-1.869691849E0,-1.020359421E1,5.434698462E-1
4.575050051E0,-1.831406593E0,-1.022273636E1,5.937191248E-1
4.577445364E0,-1.773978829E0,-1.026580715E1,5.841478109E-1
4.579840676E0,-1.723729610E0,-1.034955597E1,6.128616929E-1
4.582236822E0,-1.668694735E0,-1.040967560E1,6.176473498E-1
4.584632916E0,-1.625623941E0,-1.041446114E1,5.937191248E-1
4.587028229E0,-1.620838284E0,-1.040010452E1,5.410770178E-1
4.589423541E0,-1.575374603E0,-1.038574791E1,5.051847100E-1
4.591819687E0,-1.553839207E0,-1.035434151E1,4.788636267E-1
4.594215833E0,-1.501197100E0,-1.032084274E1,4.932205677E-1
4.596611145E0,-1.455733418E0,-1.030648518E1,4.812564552E-1
4.599006458E0,-1.422233939E0,-1.028016472E1,4.262215197E-1
4.601402551E0,-1.383649707E0,-1.022273636E1,4.118646085E-1
4.603798697E0,-1.350150228E0,-1.018923664E1,3.664009571E-1
4.606194010E0,-1.295115232E0,-1.012463093E1,3.233301640E-1
4.608589322E0,-1.240080357E0,-1.008395290E1,2.946162820E-1
4.610985468E0,-1.187438250E0,-1.003370380E1,2.608176768E-1
4.613381562E0,-1.149153113E0,-9.993025780E0,2.297109663E-1
4.615776874E0,-1.118046403E0,-9.947562218E0,2.201396823E-1
4.618172187E0,-1.074975610E0,-9.892526627E0,2.057827413E-1
4.620568333E0,-9.984052777E-1,-9.868598938E0,1.866401732E-1
4.622964426E0,-9.385846853E-1,-9.801301003E0,1.938186288E-1
4.625359739E0,-9.050851464E-1,-9.808479309E0,1.746760458E-1
4.627755051E0,-8.524430394E-1,-9.770194054E0,2.033899277E-1
4.630151197E0,-8.090731502E-1,-9.765408516E0,1.914258152E-1
4.632547291E0,-7.540382147E-1,-9.784550667E0,1.914258152E-1
4.634942604E0,-7.181459069E-1,-9.794121742E0,2.416750938E-1
4.637337916E0,-6.439684033E-1,-9.801301003E0,2.440679073E-1
4.639734062E0,-5.961119533E-1,-9.806086540E0,2.608176768E-1
4.642130208E0,-5.721837282E-1,-9.827920914E0,2.679961324E-1
4.644525468E0,-5.410770178E-1,-9.854242325E0,2.922234535E-1
4.646920781E0,-5.291129351E-1,-9.859027863E0,3.089732230E-1
4.649316926E0,-5.051847100E-1,-9.882955551E0,3.376871049E-1
4.651713072E0,-5.051847100E-1,-9.882955551E0,3.687937856E-1
4.654108385E0,-5.075774789E-1,-9.870991707E0,4.046861231E-1
4.656503697E0,-5.099703074E-1,-9.894919395E0,4.094717801E-1
4.658899843E0,-5.243272781E-1,-9.882955551E0,4.166502357E-1
4.661295937E0,-5.530411601E-1,-9.890133858E0,4.357928336E-1
4.663691249E0,-5.602195859E-1,-9.906884193E0,4.310071766E-1
4.666086562E0,-5.937191248E-1,-9.918848038E0,4.381856322E-1
4.668482708E0,-6.296114326E-1,-9.914062500E0,4.357928336E-1
4.670878801E0,-7.109674215E-1,-9.897313118E0,4.238287210E-1
4.673274114E0,-7.540382147E-1,-9.866206169E0,4.142574072E-1
4.675669426E0,-7.851449251E-1,-9.868598938E0,4.094717801E-1
4.678065572E0,-8.282157183E-1,-9.854242325E0,4.190430641E-1
4.680461666E0,-8.330013752E-1,-9.825528145E0,4.094717801E-1
4.682856979E0,-8.524430394E-1,-9.796515465E0,4.094717801E-1
4.685252291E0,-9.026923180E-1,-9.810872078E0,4.142574072E-1
4.687648437E0,-9.601200819E-1,-9.851848602E0,4.214358926E-1
4.690044583E0,-1.029511929E0,-9.882955551E0,4.166502357E-1
4.692439843E0,-1.130010486E0,-9.906884193E0,3.831507266E-1
4.694835156E0,-1.228116274E0,-9.849455833E0,3.448655605E-1
4.697231301E0,-1.275972724E0,-9.753444672E0,3.879363835E-1
4.699627447E0,-1.268794179E0,-9.674481392E0,3.807578981E-1
4.702022760E0,-1.311864972E0,-9.669695854E0,3.281157911E-1
4.704418072E0,-1.388435364E0,-9.707980156E0,2.826521695E-1
4.706814218E0,-1.505982757E0,-9.760622978E0,2.536391914E-1
4.709210312E0,-1.611266971E0,-9.736694336E0,2.297109663E-1
4.711605624E0,-1.675873160E0,-9.693623543E0,1.962114573E-1
4.714000937E0,-1.738086581E0,-9.698409081E0,1.459621787E-1
4.716397083E0,-1.742872238E0,-9.657731056E0,1.172483116E-1
4.718793176E0,-1.781157374E0,-9.633803368E0,9.332008660E-2
4.721188489E0,-1.814656854E0,-9.631410599E0,8.374879509E-2
4.723583801E0,-1.833799481E0,-9.636196136E0,5.264209956E-2
4.725979947E0,-1.872084618E0,-9.645767212E0,1.435693540E-2
4.728376041E0,-1.919941068E0,-9.662516594E0,4.785645287E-3
4.730771354E0,-1.929512382E0,-9.676874161E0,1.674975827E-2
4.733166666E0,-1.960619092E0,-9.707980156E0,-1.196411345E-2
4.735562812E0,-1.977667928E0,-9.727123260E0,4.785645287E-3
4.737958958E0,-1.943869352E0,-9.772586823E0,7.178467698E-3
4.740354218E0,-1.917548299E0,-9.830313683E0,2.392822690E-2
4.742749531E0,-1.922333837E0,-9.878170013E0,2.392822690E-2
4.745145676E0,-1.907976985E0,-9.890133858E0,3.110669367E-2
4.747541822E0,-1.905584097E0,-9.882955551E0,7.178467698E-3
4.749937135E0,-1.922333837E0,-9.842277527E0,-1.914258115E-2
4.752332447E0,-1.948654890E0,-9.794121742E0,-4.785645381E-2
4.754728541E0,-1.970489502E0,-9.796515465E0,-7.896314561E-2
4.757124687E0,-2.006381750E0,-9.815657616E0,-9.810572863E-2
4.759519999E0,-2.003988981E0,-9.806086540E0,-1.387837082E-1
4.761915312E0,-2.037488461E0,-9.806086540E0,-1.507478207E-1
4.764311458E0,-2.073380709E0,-9.779765129E0,-1.483550072E-1
4.766707551E0,-2.114058733E0,-9.763015747E0,-1.076770201E-1
4.769102864E0,-2.142772675E0,-9.774979591E0,-1.124626622E-1
4.771498176E0,-2.152343988E0,-9.798908234E0,-1.220339537E-1
4.773894322E0,-2.188236237E0,-9.801301003E0,-1.004985496E-1
4.776290416E0,-2.231307030E0,-9.791728973E0,-1.172483116E-1
4.778685729E0,-2.264806747E0,-9.765408516E0,-1.172483116E-1
4.781081041E0,-2.271985054E0,-9.777372360E0,-1.148554832E-1
4.783477187E0,-2.267199516E0,-9.798908234E0,-1.316052526E-1
4.785873333E0,-2.255235434E0,-9.818050385E0,-1.555334777E-1
4.788268593E0,-2.298306227E0,-9.823135376E0,-1.698904037E-1
4.790663906E0,-2.295913219E0,-9.844670296E0,-1.627119333E-1
4.793060051E0,-2.305484533E0,-9.847063065E0,-1.555334777E-1
4.795456197E0,-2.303091764E0,-9.870991707E0,-1.842473447E-1
4.797851510E0,-2.281556368E0,-9.904491425E0,-1.651047617E-1
4.800246822E0,-2.250449657E0,-9.875777245E0,-1.651047617E-1
4.802642916E0,-2.209771633E0,-9.875777245E0,-1.698904037E-1
4.805039062E0,-2.166700840E0,-9.870991707E0,-1.818545163E-1
4.807434374E0,-2.183450699E0,-9.887741089E0,-1.483550072E-1
4.809829687E0,-2.185843468E0,-9.897313118E0,-1.076770201E-1
4.812225833E0,-2.157129526E0,-9.861420631E0,-5.264209956E-2
4.814621926E0,-2.121237278E0,-9.861420631E0,-4.785645287E-3
4.817017239E0,-2.059023857E0,-9.851848602E0,-2.392822644E-3
4.819412551E0,-2.025524378E0,-9.873384476E0,-3.589234129E-2
4.821808697E0,-2.008774519E0,-9.923633575E0,-5.503492057E-2
4.824204791E0,-1.980060697E0,-9.933204651E0,-7.417750359E-2
4.826600104E0,-2.049452543E0,-9.875777245E0,-8.135596663E-2
4.828995416E0,-2.193022013E0,-9.772586823E0,-1.722832322E-1
4.831391562E0,-2.228914261E0,-9.755837440E0,-1.890329868E-1
4.833787656E0,-2.228914261E0,-9.650552750E0,-1.962114573E-1
4.836182968E0,-2.135594130E0,-9.600303650E0,2.392822644E-3
4.838578281E0,-1.939083695E0,-9.660123825E0,2.775674164E-1
4.840974426E0,-1.769193292E0,-9.760622978E0,3.927220106E-1
4.843370572E0,-1.663909078E0,-9.815657616E0,4.094717801E-1
4.845765833E0,-1.637588024E0,-9.823135376E0,3.568296731E-1
4.848161145E0,-1.568196177E0,-9.849455833E0,3.185445070E-1
4.850557291E0,-1.436590910E0,-9.813264847E0,2.464607358E-1
4.852953437E0,-1.350150228E0,-9.767801285E0,2.249253243E-1
4.855348749E0,-1.254437327E0,-9.748658180E0,2.297109663E-1
4.857744062E0,-1.194616675E0,-9.727123260E0,2.584248483E-1
4.860140156E0,-1.180259824E0,-9.751050949E0,3.089732230E-1
4.862536301E0,-1.118046403E0,-9.796515465E0,3.544368446E-1
4.864931614E0,-1.063011408E0,-9.868598938E0,4.357928336E-1
4.867326926E0,-1.022333503E0,-9.904491425E0,4.716851711E-1
4.869723072E0,-9.553344250E-1,-9.904491425E0,5.650052428E-1
4.872119166E0,-8.401798606E-1,-9.851848602E0,5.913262963E-1
4.874514479E0,-6.200401783E-1,-9.875777245E0,5.434698462E-1
4.876909791E0,-4.764707983E-1,-9.810872078E0,4.621138871E-1
4.879305937E0,-3.903291821E-1,-9.810872078E0,3.855435550E-1
4.881702031E0,-2.464607358E-1,-9.760622978E0,2.656033039E-1
4.884097343E0,-1.387837082E-1,-9.724730492E0,2.033899277E-1
4.886492656E0,1.028913707E-1,-9.748658180E0,1.052841991E-1
4.888888801E0,2.536391914E-1,-9.806086540E0,3.589234129E-2
4.891284895E0,2.679961324E-1,-9.854242325E0,-3.589234129E-2
4.893680208E0,-1.196411345E-2,-9.861420631E0,-5.503492057E-2
4.896075520E0,-5.742774159E-2,-9.880562782E0,-7.657032460E-2
4.898471666E0,-2.392822644E-3,-9.942776680E0,-5.024927482E-2
4.900867812E0,7.178468257E-2,-1.002891827E1,-5.264209956E-2
4.903263124E0,1.028913707E-1,-1.012223816E1,-5.024927482E-2
4.905658437E0,4.785645381E-2,-1.016770172E1,-4.307080805E-2
4.908054531E0,2.871387079E-2,-1.019162941E1,-3.110669367E-2
4.910450676E0,-3.589234129E-2,-1.023470020E1,-7.417750359E-2
4.912845989E0,-4.546362907E-2,-1.028016472E1,-1.124626622E-1
4.915241301E0,-2.392822644E-3,-1.027059269E1,-1.890329868E-1
4.917637447E0,1.435693540E-2,-1.028016472E1,-1.914258152E-1
