"Time (s)","Acceleration x (m/s^2)","Acceleration y (m/s^2)","Acceleration z (m/s^2)"
1.784095900E-2,3.160918713E0,6.422336102E0,6.721438885E0
2.025934500E-2,3.194418192E0,6.479763508E0,6.788437843E0
2.267747000E-2,3.242274761E0,6.460621357E0,6.817151546E0
2.509595900E-2,3.285345554E0,6.465406895E0,6.850651264E0
2.751444900E-2,3.314059258E0,6.479763508E0,6.836294174E0
2.993325100E-2,3.290131092E0,6.522834301E0,6.812366009E0
3.235163600E-2,3.299702406E0,6.489335060E0,6.802794933E0
3.477002200E-2,3.390629768E0,6.470192432E0,6.783652306E0
3.718835500E-2,3.424129248E0,6.427121639E0,6.793223381E0
3.960616800E-2,3.448057413E0,6.407979012E0,6.855436802E0
4.202398000E-2,3.433700562E0,6.427121639E0,6.860222340E0
4.444314700E-2,3.438486099E0,6.465406895E0,6.869793892E0
4.686059500E-2,3.428914785E0,6.484549522E0,6.874579430E0
4.927856300E-2,3.400201082E0,6.498906136E0,6.917650223E0
5.174460500E-2,3.361915827E0,6.474977970E0,6.922435760E0
5.419767800E-2,3.309273720E0,6.446264267E0,6.970292568E0
5.661642800E-2,3.270988464E0,6.403193474E0,6.999006271E0
5.902132400E-2,3.261417150E0,6.436692715E0,7.008577347E0
6.142632400E-2,3.208775282E0,6.412764549E0,6.989434719E0
6.383127200E-2,3.160918713E0,6.407979012E0,6.951149940E0
6.623627200E-2,3.175275564E0,6.460621357E0,6.888936520E0
6.864127200E-2,3.156133175E0,6.513263226E0,6.850651264E0
7.104637600E-2,3.199203968E0,6.541976929E0,6.826723099E0
7.345158400E-2,3.227917671E0,6.484549522E0,6.798008919E0
7.585684500E-2,3.280559778E0,6.446264267E0,6.754938126E0
7.826215700E-2,3.323630571E0,6.369693756E0,6.759724140E0
8.066991800E-2,3.318845034E0,6.283552170E0,6.802794933E0
8.307299000E-2,3.290131092E0,6.144170284E0,7.008577347E0
8.547840700E-2,3.237488985E0,6.010172367E0,7.089933395E0
8.788382400E-2,3.256631613E0,6.010172367E0,7.123433113E0
9.028924000E-2,3.203989506E0,6.053243160E0,7.176074982E0
9.269465700E-2,3.184846878E0,6.187839508E0,6.999006271E0
9.510007400E-2,3.270988464E0,6.331408501E0,6.793223381E0
9.750549000E-2,3.347558975E0,6.455835342E0,6.630511761E0
9.991085500E-2,3.491128206E0,6.628118515E0,6.117849350E0
1.023162720E-1,3.500699520E0,6.786045074E0,6.041278839E0
1.047216880E-1,3.419343472E0,6.795616150E0,6.214160442E0
1.071271050E-1,3.424129248E0,6.757331371E0,6.424728870E0
1.095325220E-1,3.462414265E0,6.594619274E0,6.415157318E0
1.119379380E-1,3.462414265E0,6.479763508E0,6.242874146E0
1.143433550E-1,3.424129248E0,6.632904530E0,6.262016773E0
1.167487720E-1,3.385843992E0,6.647261143E0,6.204588890E0
1.191541880E-1,3.285345554E0,6.580262184E0,6.195017815E0
1.215596050E-1,3.218346357E0,6.618547440E0,6.329015732E0
1.239650220E-1,3.242274761E0,6.752545357E0,6.352943897E0
1.263703860E-1,3.223132133E0,6.857829571E0,6.367300987E0
1.287758030E-1,3.223132133E0,6.939185619E0,6.458228111E0
1.311812200E-1,3.227917671E0,7.044469833E0,6.563512325E0
1.335866360E-1,3.103491068E0,6.977470875E0,6.841079712E0
1.359920530E-1,3.199203968E0,7.015756130E0,7.085147858E0
1.383974700E-1,3.352344513E0,7.159325123E0,7.027719975E0
1.408028860E-1,3.428914785E0,7.202396393E0,6.970292568E0
1.432083030E-1,3.491128206E0,7.168896675E0,6.989434719E0
1.456137200E-1,3.500699520E0,7.049255371E0,6.970292568E0
1.480191360E-1,3.443271875E0,6.896114826E0,6.960721016E0
1.504245530E-1,3.352344513E0,6.747759819E0,6.984649181E0
1.528299700E-1,3.122633457E0,6.585047722E0,7.075576782E0
1.552353340E-1,3.098705292E0,6.618547440E0,7.066005230E0
1.576407510E-1,3.141776085E0,6.704689026E0,6.836294174E0
1.600461680E-1,3.108276606E0,6.786045074E0,6.702296257E0
1.624515840E-1,3.122633457E0,6.829115868E0,6.664011002E0
1.648570010E-1,3.098705292E0,6.757331371E0,6.654439926E0
1.672624180E-1,3.117847919E0,6.690331936E0,6.635297298E0
1.696678340E-1,3.031706333E0,6.690331936E0,6.798008919E0
1.720732510E-1,2.878565550E0,6.671189308E0,6.941578388E0
1.744786680E-1,3.041277647E0,6.819544315E0,6.855436802E0
1.768840840E-1,3.189632654E0,6.953542709E0,6.664011002E0
1.792895010E-1,3.352344513E0,6.958328247E0,6.611369133E0
1.816949180E-1,3.457628727E0,6.972685337E0,6.668796539E0
1.841003340E-1,3.534198999E0,6.934400082E0,6.620940208E0
1.865056990E-1,3.548556089E0,6.872186661E0,6.654439926E0
1.889111150E-1,3.443271875E0,6.733402729E0,6.774080753E0
1.913165320E-1,3.462414265E0,6.647261143E0,6.884150982E0
1.937219490E-1,3.567698479E0,6.728617191E0,6.812366009E0
1.961273650E-1,3.644268990E0,6.853044033E0,6.635297298E0
1.985327820E-1,3.687339783E0,6.915257454E0,6.510870457E0
2.009381990E-1,3.792623997E0,6.948757172E0,6.467799664E0
2.033436150E-1,3.850051641E0,6.972685337E0,6.467799664E0
2.057490320E-1,3.897907972E0,6.982256413E0,6.434299946E0
2.081544490E-1,3.864408493E0,6.972685337E0,6.376872540E0
2.105598650E-1,3.806980848E0,6.958328247E0,6.329015732E0
2.129652820E-1,3.668197155E0,6.881757736E0,6.314659119E0
2.153706990E-1,3.562912941E0,6.733402729E0,6.300302029E0
2.177761150E-1,3.495913982E0,6.699903488E0,6.247660160E0
2.201814800E-1,3.481556892E0,6.666403770E0,6.151348591E0
2.225868970E-1,3.371487141E0,6.642475605E0,6.093921185E0
2.249923130E-1,3.189632654E0,6.695117950E0,6.026922226E0
2.273977300E-1,3.160918713E0,6.766902447E0,5.926423550E0
2.298031470E-1,3.203989506E0,6.805187702E0,5.778068542E0
2.322085630E-1,3.247060299E0,6.809973240E0,5.639284611E0
2.346139800E-1,3.280559778E0,6.728617191E0,5.514857769E0
2.370193970E-1,3.290131092E0,6.570691109E0,5.356931686E0
2.394248130E-1,3.141776085E0,6.441478729E0,5.227719307E0
2.418302300E-1,2.878565550E0,6.575476646E0,5.213362217E0
2.442356470E-1,2.614757061E0,6.709474564E0,5.151148796E0
2.466410630E-1,2.308475733E0,6.833901405E0,5.074578762E0
2.490464800E-1,2.131406784E0,6.920042992E0,5.141577721E0
2.514518970E-1,1.987837434E0,7.030112743E0,5.270790100E0
2.538573130E-1,1.820339799E0,7.173682213E0,5.452644825E0
2.562626780E-1,1.815554142E0,7.125825882E0,5.849853039E0
2.586680950E-1,1.997408748E0,7.077969551E0,6.050850391E0
2.610735110E-1,2.212762833E0,7.001399040E0,6.233303070E0
2.634789280E-1,2.485544443E0,6.934400082E0,6.281159401E0
2.658843450E-1,2.686541557E0,6.948757172E0,6.175875187E0
2.682897610E-1,2.969492912E0,7.030112743E0,5.404788017E0
2.706951780E-1,3.141776085E0,7.030112743E0,5.251647472E0
2.731005950E-1,3.409772158E0,7.044469833E0,5.232504845E0
2.755060110E-1,3.644268990E0,7.025327206E0,5.170291424E0
2.779114280E-1,3.907479286E0,7.082755089E0,5.184648514E0
2.803168450E-1,4.080360889E0,7.044469833E0,5.289932728E0
2.827222610E-1,4.185645103E0,7.015756130E0,5.409573555E0
2.851276780E-1,4.228715897E0,6.972685337E0,5.620141983E0
2.875330950E-1,4.247858524E0,6.948757172E0,5.816353798E0
2.899385110E-1,4.290929317E0,6.967899323E0,6.041278839E0
2.923439280E-1,4.310071945E0,7.097112179E0,6.281159401E0
2.947493450E-1,4.271786690E0,7.250252724E0,6.467799664E0
2.971547090E-1,4.209573269E0,7.423133850E0,6.597012043E0
2.995601260E-1,4.109074593E0,7.600203037E0,6.673582554E0
3.019655430E-1,4.008575916E0,7.609774113E0,6.711867332E0
3.043709590E-1,3.932005882E0,7.643273830E0,6.726224422E0
3.067763760E-1,3.965505362E0,7.561917782E0,6.759724140E0
3.091817930E-1,3.984647989E0,7.494918823E0,6.735795975E0
3.115872090E-1,4.018147469E0,7.423133850E0,6.735795975E0
3.139926260E-1,4.046861172E0,7.356134892E0,6.903293133E0
3.163980430E-1,4.204787731E0,7.298707485E0,7.070790768E0
3.188034590E-1,4.314857483E0,7.216753006E0,7.305885792E0
3.212088760E-1,4.424927235E0,7.188039303E0,7.468597889E0
3.236142930E-1,4.386641979E0,7.149754047E0,7.655237675E0
3.260197090E-1,4.310071945E0,7.159325123E0,7.789236069E0
3.284251260E-1,4.247858524E0,7.188039303E0,7.870592117E0
3.308305430E-1,4.185645103E0,7.188039303E0,7.942376614E0
3.332359070E-1,4.137788773E0,7.259823799E0,7.880163193E0
3.356413760E-1,3.960719585E0,7.288537979E0,7.803592682E0
3.380467400E-1,3.725624800E0,7.274180889E0,7.660023689E0
3.404521570E-1,3.515056372E0,7.322635651E0,7.401598454E0
3.428575740E-1,3.285345554E0,7.327421188E0,7.104290485E0
3.452629900E-1,3.012563705E0,7.346563816E0,6.865008354E0
3.476684070E-1,2.700898647E0,7.356134892E0,6.601797581E0
3.500738240E-1,2.294118643E0,7.375277519E0,6.357729912E0
3.524792400E-1,2.016551256E0,7.365706444E0,6.156134605E0
3.548846570E-1,1.705484390E0,7.389634609E0,6.007779598E0
3.572900740E-1,1.465603828E0,7.413562775E0,5.902495384E0
3.596954900E-1,1.235892892E0,7.346563816E0,5.821139336E0
3.621009070E-1,1.111466169E0,7.418348312E0,5.883352757E0
3.645063240E-1,1.106680512E0,7.552346706E0,6.031707764E0
3.669117400E-1,1.034895778E0,7.566703320E0,6.247660160E0
3.693171570E-1,9.296116233E-1,7.537989616E0,6.415157318E0
3.717225740E-1,8.578268886E-1,7.470990658E0,6.563512325E0
3.741279900E-1,8.243274093E-1,7.442276478E0,6.673582554E0
3.765334070E-1,8.530412912E-1,7.408777237E0,6.740581512E0
3.789388240E-1,9.583254457E-1,7.308278561E0,6.860222340E0
3.813442400E-1,1.178465128E0,7.283751965E0,6.917650223E0
3.837496050E-1,1.336391449E0,7.221538544E0,6.936792850E0
3.861550220E-1,1.513460279E0,7.259823799E0,6.984649181E0
3.885604380E-1,1.676172256E0,7.303493023E0,6.903293133E0
3.909658550E-1,1.882553220E0,7.341778278E0,6.888936520E0
3.933712720E-1,2.059622049E0,7.380063057E0,6.884150982E0
3.957766880E-1,2.294118643E0,7.346563816E0,6.869793892E0
3.981821050E-1,2.547757864E0,7.313064098E0,6.893722057E0
4.005875220E-1,2.782254457E0,7.264609337E0,6.979863644E0
4.029929380E-1,2.940778971E0,7.183253765E0,7.080362320E0
4.053983550E-1,3.079562664E0,7.054041386E0,7.219145775E0
4.078037720E-1,3.175275564E0,7.034898758E0,7.353742123E0
4.102091880E-1,3.290131092E0,6.982256413E0,7.497311592E0
4.126146050E-1,3.333201885E0,6.900900364E0,7.645666599E0
4.150200220E-1,3.371487141E0,6.819544315E0,7.770093441E0
4.174254380E-1,3.381058455E0,6.738188744E0,7.908876896E0
4.198308550E-1,3.376272678E0,6.656832695E0,8.004590034E0
4.222362720E-1,3.385843992E0,6.565905571E0,8.124231339E0
4.246416880E-1,3.357130051E0,6.513263226E0,8.191229820E0
4.270471050E-1,3.333201885E0,6.460621357E0,8.258229256E0
4.294525220E-1,3.357130051E0,6.374479294E0,8.301300049E0
4.318579380E-1,3.294916868E0,6.317051888E0,8.310871124E0
4.342633550E-1,3.318845034E0,6.245266914E0,8.277371407E0
4.366687200E-1,3.270988464E0,6.183053493E0,8.267800331E0
4.390741360E-1,3.347558975E0,6.105885029E0,8.239086151E0
4.414795530E-1,3.433700562E0,6.072385788E0,8.224729538E0
4.438849700E-1,3.275774240E0,6.081956863E0,8.172087669E0
4.462903860E-1,3.151347399E0,6.077171326E0,8.085946083E0
4.486958030E-1,3.074777126E0,6.072385788E0,8.014161110E0
4.511012200E-1,2.816352367E0,6.115456581E0,7.899305820E0
4.535066360E-1,2.662613392E0,6.129813194E0,7.794021606E0
4.559120530E-1,2.461616278E0,6.115456581E0,7.712665558E0
4.583174700E-1,2.184048891E0,6.139384747E0,7.612166882E0
4.607228860E-1,2.073979139E0,6.178267956E0,7.540382385E0
4.631283030E-1,2.016551256E0,6.240481377E0,7.468597889E0
4.655337200E-1,1.637887120E0,6.283552170E0,7.406384468E0
4.679391360E-1,1.566102386E0,6.307480335E0,7.295716286E0
4.703445530E-1,1.734198213E0,6.259624004E0,7.281359196E0
4.727499700E-1,1.590030670E0,6.254838467E0,7.238288403E0
4.751553860E-1,1.307677627E0,6.264409542E0,7.137789726E0
4.775608030E-1,1.221535921E0,6.221338749E0,7.003791809E0
4.799662200E-1,1.326820135E0,6.230910301E0,6.984649181E0
4.823716360E-1,1.748555183E0,6.197410583E0,6.951149940E0
4.847770530E-1,2.466402054E0,6.148955822E0,6.965506554E0
4.871824700E-1,2.471187592E0,6.129813194E0,7.013363361E0
4.895878860E-1,2.456830740E0,6.168098450E0,7.075576782E0
4.919933030E-1,2.605185747E0,6.120242119E0,7.070790768E0
4.943987200E-1,2.715255499E0,6.019743443E0,7.185646534E0
4.968041360E-1,2.743969440E0,5.981458187E0,7.262216568E0
4.992095010E-1,2.806781054E0,5.943173409E0,7.334599495E0
5.016149180E-1,2.825923443E0,5.952744484E0,7.396812916E0
5.040203340E-1,2.864208698E0,5.967101574E0,7.435098171E0
5.064257510E-1,2.883351326E0,6.005386829E0,7.392027378E0
5.088311680E-1,2.801397085E0,6.024528980E0,7.368099213E0
5.112365840E-1,2.806781054E0,6.067600250E0,7.334599495E0
5.136420010E-1,2.724826813E0,6.072385788E0,7.320242882E0
5.160474180E-1,2.600399971E0,6.101099491E0,7.286144733E0
5.184528340E-1,2.538186550E0,6.105885029E0,7.252645493E0
5.208582510E-1,2.485544443E0,6.019743443E0,7.247859955E0
5.232636680E-1,2.332403898E0,5.995815277E0,7.252645493E0
5.256690840E-1,2.217548370E0,5.991029739E0,7.247859955E0
5.280745010E-1,2.164906263E0,5.933601856E0,7.176074982E0
5.304799180E-1,2.045265198E0,5.986244202E0,7.171289444E0
5.328853340E-1,1.906481385E0,6.053243160E0,7.118647575E0
5.352907510E-1,1.810768485E0,6.058028698E0,7.094718933E0
5.376961680E-1,1.680957913E0,6.144170284E0,7.022934437E0
5.401015840E-1,1.542174220E0,6.187839508E0,6.960721016E0
5.425070010E-1,1.379462242E0,6.250052929E0,6.908079147E0
5.449124180E-1,1.341177106E0,6.264409542E0,6.869793892E0
5.473178340E-1,1.489532113E0,6.288337708E0,6.831508636E0
5.497232510E-1,1.710269928E0,6.283552170E0,6.850651264E0
5.521286680E-1,1.825125456E0,6.297909260E0,6.783652306E0
5.545340840E-1,1.973480463E0,6.336194515E0,6.754938126E0
5.569395010E-1,2.016551256E0,6.384050846E0,6.721438885E0
5.593449180E-1,2.112264156E0,6.403193474E0,6.683153629E0
5.617503340E-1,2.155334949E0,6.441478729E0,6.678368092E0
5.641556990E-1,2.265404940E0,6.465406895E0,6.731009960E0
5.665611680E-1,2.327618122E0,6.503692150E0,6.774080753E0
5.689665840E-1,2.432902336E0,6.551548481E0,6.850651264E0
5.713719490E-1,2.447259426E0,6.570691109E0,6.946363926E0
5.737773650E-1,2.509472847E0,6.575476646E0,6.999006271E0
5.761827820E-1,2.542972326E0,6.656832695E0,7.066005230E0
5.785881990E-1,2.586043119E0,6.642475605E0,7.118647575E0
5.809936150E-1,2.552543640E0,6.642475605E0,7.176074982E0
5.833990320E-1,2.504687071E0,6.666403770E0,7.219145775E0
5.858044490E-1,2.471187592E0,6.637690067E0,7.310671329E0
5.882098650E-1,2.380260229E0,6.709474564E0,7.406384468E0
5.906152820E-1,1.973480463E0,6.900900364E0,7.688737392E0
5.930206990E-1,1.283749342E0,7.255038261E0,8.478966713E0
5.954261150E-1,1.432104349E0,7.168896675E0,8.651249886E0
5.978315320E-1,1.494317770E0,6.972685337E0,8.780462265E0
6.002369490E-1,1.647458434E0,6.695117950E0,8.866603851E0
6.026423650E-1,1.786840320E0,6.374479294E0,8.924032211E0
6.050477820E-1,1.925624013E0,6.091528416E0,8.876175880E0
6.074531990E-1,2.026122570E0,5.904888153E0,8.727820396E0
6.098586150E-1,2.193620205E0,5.761318684E0,8.464610100E0
6.122640320E-1,2.519043922E0,5.584249973E0,8.105088234E0
6.146694490E-1,2.916850805E0,5.493322372E0,7.755736351E0
6.170748650E-1,3.079562664E0,5.603392601E0,7.454240799E0
6.194802820E-1,3.270988464E0,5.742176056E0,7.080362320E0
6.218856990E-1,3.414557934E0,5.852245808E0,6.759724140E0
6.242911150E-1,3.701696634E0,5.976672649E0,6.539584160E0
6.266965320E-1,3.739981890E0,6.269195557E0,6.486942291E0
6.291019490E-1,3.658625841E0,6.518048763E0,6.391229153E0
6.315073650E-1,3.625126362E0,6.656832695E0,6.329015732E0
6.339127820E-1,3.577269793E0,6.776473522E0,6.319444656E0
6.363181990E-1,3.548556089E0,6.876972198E0,6.348158360E0
6.387236150E-1,3.558127165E0,6.905686378E0,6.405586243E0
6.411289800E-1,3.481556892E0,6.896114826E0,6.482156754E0
6.435343970E-1,3.443271875E0,6.829115868E0,6.577869415E0
6.459398650E-1,3.409772158E0,6.800402164E0,6.616154671E0
6.483452820E-1,3.385843992E0,6.719046116E0,6.659225464E0
6.507506470E-1,3.371487141E0,6.637690067E0,6.678368092E0
6.531560630E-1,3.448057413E0,6.565905571E0,6.716653347E0
6.555614800E-1,3.476771355E0,6.489335060E0,6.778866768E0
6.579668970E-1,3.515056372E0,6.451049805E0,6.788437843E0
6.603723130E-1,3.591626883E0,6.355337143E0,6.769295216E0
6.627777300E-1,3.701696634E0,6.226124287E0,6.740581512E0
6.651831470E-1,3.730410576E0,6.091528416E0,6.692724705E0
6.675885630E-1,3.773481369E0,6.019743443E0,6.630511761E0
6.699939800E-1,3.787838221E0,5.900102615E0,6.530013084E0
6.723993970E-1,3.850051641E0,5.804389477E0,6.381658077E0
6.748048130E-1,3.897907972E0,5.770890236E0,6.257231236E0
6.772102300E-1,3.921836376E0,5.723033428E0,6.132206440E0
6.796156470E-1,3.951148272E0,5.746961594E0,6.060421467E0
6.820210630E-1,3.830909014E0,5.804389477E0,6.012565136E0
6.844264800E-1,3.672982693E0,5.876173973E0,5.945566177E0
6.868318970E-1,3.491128206E0,6.010172367E0,5.883352757E0
6.892373130E-1,3.261417150E0,6.125027657E0,5.897709846E0
6.916427300E-1,3.237488985E0,6.129813194E0,6.026922226E0
6.940481470E-1,3.323630571E0,6.192625046E0,6.223731518E0
6.964535630E-1,3.448057413E0,6.259624004E0,6.563512325E0
6.988589800E-1,3.644268990E0,6.250052929E0,6.879364967E0
7.012643970E-1,3.701696634E0,6.202196121E0,7.075576782E0
7.036698130E-1,3.572484255E0,6.072385788E0,7.099504948E0
7.060752300E-1,3.299702406E0,5.857031822E0,7.075576782E0
7.084806470E-1,3.055634499E0,5.675177097E0,7.223931789E0
7.108860630E-1,2.767897606E0,5.670391560E0,7.650452137E0
7.132914800E-1,2.380260229E0,5.833103180E0,8.167302132E0
7.156968970E-1,1.815554142E0,6.125027657E0,8.689535141E0
7.181023130E-1,1.235892892E0,6.455835342E0,9.086744308E0
7.205077300E-1,6.376872063E-1,6.690331936E0,9.383454323E0
7.229131470E-1,3.409772366E-2,6.991827965E0,9.541978836E0
7.253185630E-1,-4.636093974E-1,7.192824841E0,9.623334885E0
7.277239800E-1,-9.762716293E-1,7.303493023E0,9.752547264E0
7.301293970E-1,-1.387837172E0,7.375277519E0,9.886545181E0
7.325348130E-1,-1.636690736E0,7.346563816E0,9.963115692E0
7.349402300E-1,-1.737787485E0,7.221538544E0,1.002054310E1
7.373456470E-1,-1.876571178E0,7.111468792E0,9.982257843E0
7.397510110E-1,-2.015354872E0,7.034898758E0,9.876974106E0
7.421564280E-1,-2.115853310E0,6.943971157E0,9.699904442E0
7.445618450E-1,-2.268994093E0,6.876972198E0,9.474381447E0
7.469672610E-1,-2.484348059E0,6.857829571E0,9.158528328E0
7.493726780E-1,-2.603989124E0,6.814758778E0,8.847461700E0
7.517780950E-1,-2.752344131E0,6.843472958E0,8.531609535E0
7.541835110E-1,-2.882154942E0,6.876972198E0,8.157731056E0
7.565889280E-1,-2.973082066E0,6.900900364E0,7.794021606E0
7.589943450E-1,-2.718844652E0,6.618547440E0,7.698308468E0
7.613997610E-1,-2.785843849E0,6.656832695E0,7.473383427E0
7.638051780E-1,-2.958725214E0,6.891329288E0,7.118647575E0
7.662105950E-1,-3.150151014E0,7.202396393E0,6.774080753E0
7.686160110E-1,-3.274577856E0,7.432705402E0,6.520441532E0
7.710214280E-1,-3.442075491E0,7.638488293E0,6.295516491E0
7.734268450E-1,-3.604787350E0,7.815557003E0,6.036493301E0
7.758322610E-1,-3.733999729E0,7.949554920E0,5.849853039E0
7.782376780E-1,-3.911068678E0,8.117053032E0,5.648856163E0
7.806430950E-1,-4.093521118E0,8.298907280E0,5.404788017E0
7.830485110E-1,-4.208376884E0,8.447860718E0,5.318646431E0
7.854539280E-1,-4.323232174E0,8.586644173E0,5.266004562E0
7.878593450E-1,-4.476373196E0,8.754141808E0,5.170291424E0
7.902647610E-1,-4.734797955E0,9.046066284E0,4.987838745E0
7.926701780E-1,-4.907081127E0,9.247062683E0,4.825126648E0
7.950755950E-1,-5.002793789E0,9.261420250E0,4.734199524E0
7.974810110E-1,-5.113461971E0,9.285347939E0,4.691128731E0
7.998864280E-1,-5.209175110E0,9.208778381E0,4.695914268E0
8.022918450E-1,-5.309673309E0,9.136993408E0,4.671986103E0
8.046972610E-1,-5.391029358E0,9.055637360E0,4.671986103E0
8.071026780E-1,-5.453242779E0,9.007781029E0,4.662415028E0
8.095080950E-1,-5.486742496E0,8.940781593E0,4.628915310E0
8.119135110E-1,-5.568098068E0,8.983852386E0,4.566701889E0
8.143189280E-1,-5.625525951E0,8.969495773E0,4.470989227E0
8.167243450E-1,-5.678168297E0,8.955139160E0,4.365705013E0
8.191297610E-1,-5.706882000E0,9.022137642E0,4.246063709E0
8.215351780E-1,-5.687739372E0,9.026923180E0,4.078566074E0
8.239405950E-1,-5.678168297E0,9.026923180E0,3.987638950E0
8.263460110E-1,-5.682953835E0,9.055637360E0,3.905684710E0
8.287514280E-1,-5.649454117E0,9.093922615E0,3.786043644E0
8.311568450E-1,-5.620740414E0,8.983852386E0,3.704687595E0
8.335622610E-1,-5.563312531E0,8.658429146E0,4.279563427E0
8.359676780E-1,-5.716453075E0,8.720642090E0,4.255635262E0
8.383730950E-1,-5.912664890E0,8.778069496E0,4.030709743E0
8.407784590E-1,-6.171089649E0,8.825926781E0,3.766901016E0
8.431839280E-1,-6.454041004E0,8.849854469E0,3.594617844E0
8.455892930E-1,-6.755536556E0,8.821140289E0,3.489333630E0
8.479947610E-1,-7.047461033E0,8.787641525E0,3.340978622E0
8.504001260E-1,-7.296912670E0,8.787641525E0,3.159124136E0
8.528055430E-1,-7.564908981E0,8.715856552E0,2.929413080E0
8.552110110E-1,-7.823333740E0,8.720642090E0,2.746960402E0
8.576163760E-1,-8.115258217E0,8.720642090E0,2.498106956E0
8.600217930E-1,-8.364111900E0,8.744570732E0,2.263610125E0
8.624272610E-1,-8.627920151E0,8.773283958E0,2.053041935E0
8.648326260E-1,-8.766703606E0,8.758927345E0,1.780260086E0
8.672380430E-1,-8.857631683E0,8.672785759E0,1.511665702E0
8.696434590E-1,-8.929415703E0,8.644071579E0,1.310668588E0
8.720488760E-1,-8.948558807E0,8.629714966E0,1.042672515E0
8.744542930E-1,-8.996415138E0,8.624929428E0,8.608179688E-1
8.768597090E-1,-9.025128365E0,8.629714966E0,6.837490797E-1
8.792651260E-1,-9.101698875E0,8.663214684E0,4.677968323E-1
8.816705430E-1,-9.154341698E0,8.668000221E0,2.667997181E-1
8.840759590E-1,-9.269196510E0,8.672785759E0,1.088734269E-1
8.864813760E-1,-9.259625435E0,8.653642654E0,-5.383851007E-2
8.888867930E-1,-9.269196510E0,8.653642654E0,-2.021935135E-1
8.912922090E-1,-9.254839897E0,8.696713448E0,-3.553341627E-1
8.936976260E-1,-9.250054359E0,8.754141808E0,-4.845465720E-1
8.961030430E-1,-9.139984131E0,8.725427628E0,-6.334998012E-1
8.985084590E-1,-8.986844063E0,8.725427628E0,-8.919246197E-1
9.009138760E-1,-8.891130447E0,8.782855988E0,-9.302098155E-1
9.033192930E-1,-8.742775917E0,8.825926781E0,-1.021137118E0
9.057247090E-1,-8.493922234E0,8.849854469E0,-1.097707391E0
9.081301260E-1,-8.273183823E0,8.945567131E0,-1.150349498E0
9.105355430E-1,-8.072187424E0,9.055637360E0,-1.202991605E0
9.129409590E-1,-7.938189030E0,9.180064201E0,-1.217348576E0
9.153463760E-1,-7.689335346E0,9.280562401E0,-1.250848055E0
9.177517930E-1,-7.387839794E0,9.352347374E0,-1.356132269E0
9.201572090E-1,-7.071389198E0,9.438488960E0,-1.279561877E0
9.225626260E-1,-6.846463680E0,9.563513756E0,-1.092921734E0
9.249680430E-1,-6.602396011E0,9.678369522E0,-8.440681696E-1
9.273734590E-1,-6.410970211E0,9.678369522E0,-5.808576941E-1
9.297788760E-1,-6.142375946E0,9.687940598E0,-2.213360965E-1
9.321842930E-1,-5.673382282E0,9.223134995E0,5.395814776E-1
9.345897090E-1,-5.324030399E0,9.127422333E0,1.181456208E0
9.369951260E-1,-5.127819061E0,9.156135559E0,1.684547186E0
9.394005430E-1,-5.108676434E0,9.309276581E0,2.167897224E0
9.418059590E-1,-5.319244862E0,9.471988678E0,2.636890650E0
9.442113760E-1,-5.639883041E0,9.687940598E0,3.135195971E0
9.466167930E-1,-5.922235966E0,9.869794846E0,3.613760471E0
9.490222090E-1,-6.161518097E0,1.000379372E1,4.088137627E0
9.514276260E-1,-6.353542328E0,1.005165005E1,4.528416634E0
9.538330430E-1,-6.449255466E0,9.999007225E0,4.863411903E0
9.562384590E-1,-6.463612080E0,9.946365356E0,5.194219589E0
9.586438760E-1,-6.482754707E0,9.836296082E0,5.467001438E0
9.610492930E-1,-6.430112839E0,9.764511108E0,5.696712494E0
9.634547090E-1,-6.363113403E0,9.692726135E0,5.864210129E0
9.658601260E-1,-6.262615204E0,9.635298729E0,5.955137253E0
9.682655430E-1,-6.142375946E0,9.568299294E0,6.002993584E0
9.706709590E-1,-6.008377552E0,9.524630547E0,5.964708805E0
9.730763760E-1,-5.974878311E0,9.448060036E0,5.868995667E0
9.754817930E-1,-5.950950146E0,9.285347939E0,5.706283569E0
9.778872090E-1,-5.927021503E0,8.725427628E0,6.530013084E0
9.802926260E-1,-5.970092297E0,8.534002304E0,6.687939167E0
9.826980430E-1,-6.022734642E0,8.255836487E0,6.673582554E0
9.851034070E-1,-6.176473618E0,7.992625713E0,6.640082836E0
9.875088760E-1,-6.434898376E0,7.825128078E0,6.630511761E0
9.899142400E-1,-6.879963398E0,7.777271748E0,6.510870457E0
9.923197090E-1,-7.243672371E0,7.753343582E0,6.185446739E0
9.947251260E-1,-7.550551891E0,7.849056244E0,5.720640659E0
9.971304900E-1,-7.823333740E0,7.954340458E0,5.103292465E0
9.995359590E-1,-8.110472679E0,8.251050949E0,4.380061626E0
1.001941324E0,-8.263612747E0,8.605786324E0,3.570689678E0
1.004346740E0,-8.441280365E0,9.022137642E0,2.675175667E0
1.006752209E0,-8.484351158E0,9.462417603E0,1.664806366E0
1.009157574E0,-8.450851440E0,9.802796364E0,6.502495408E-1
1.011562990E0,-8.354539871E0,1.000379372E1,-3.314059377E-1
1.013968407E0,-8.110472679E0,1.008514881E1,-1.174277663E0
1.016373824E0,-7.837690353E0,1.006122112E1,-1.902294040E0
1.018779240E0,-7.574480057E0,9.893723488E0,-2.562713146E0
1.021184657E0,-7.397411346E0,9.745368004E0,-3.037090063E0
1.023590074E0,-7.272386074E0,9.553942680E0,-3.434298754E0
1.025995490E0,-7.152745247E0,9.385847092E0,-3.692723513E0
1.028400907E0,-7.061817646E0,9.203991890E0,-4.147958279E0
1.030806324E0,-7.224529743E0,9.084351540E0,-4.310669899E0
1.033211740E0,-7.454838753E0,9.113064766E0,-4.214957237E0
1.035617157E0,-7.574480057E0,8.983852386E0,-3.937389612E0
1.038022574E0,-7.598408222E0,8.835497856E0,-3.539582968E0
1.040427990E0,-7.555337429E0,8.591429710E0,-3.089732170E0
1.042833407E0,-7.569694519E0,8.399405479E0,-2.581855536E0
1.045238824E0,-7.555337429E0,8.284550667E0,-2.069791555E0
1.047644240E0,-7.579265594E0,8.241478920E0,-1.566700578E0
1.050049657E0,-7.569694519E0,8.227122307E0,-1.126421213E0
1.052455074E0,-7.526623726E0,8.222336769E0,-7.052844763E-1
1.054860490E0,-7.373483181E0,8.212765694E0,-4.031906128E-1
1.057265907E0,-7.195816040E0,8.231907845E0,-1.447657645E-1
1.059671324E0,-6.999604225E0,8.193622589E0,-1.555334684E-2
1.062076740E0,-6.760322094E0,8.188837051E0,4.187439755E-2
1.064482157E0,-6.621538639E0,8.117053032E0,2.273181453E-2
1.066887574E0,-6.516254425E0,8.078767776E0,-1.208375469E-1
1.069292990E0,-6.425326824E0,8.054839134E0,-2.931207716E-1
1.071698407E0,-6.367899418E0,8.040482521E0,-5.084748268E-1
1.074103824E0,-6.358327866E0,8.054839134E0,-8.009973764E-1
1.076509240E0,-6.367899418E0,8.040482521E0,-1.121635556E0
1.078914657E0,-6.348756790E0,8.054839134E0,-1.466202021E0
1.081320074E0,-6.439683914E0,8.050053596E0,-1.801795483E0
1.083725490E0,-6.554539204E0,8.016553879E0,-2.117648125E0
1.086130907E0,-6.812964439E0,7.997411251E0,-2.347358942E0
1.088536324E0,-7.147959232E0,7.892127514E0,-2.385644197E0
1.090941740E0,-7.708477974E0,7.935198307E0,-1.710868239E0
1.093347157E0,-7.856832981E0,7.643273830E0,-1.671984792E0
1.095752574E0,-7.952546120E0,7.303493023E0,-1.792224169E0
1.098157990E0,-8.191828728E0,7.154539585E0,-1.945364833E0
1.100563407E0,-8.536993027E0,7.087540627E0,-2.199003935E0
1.102968824E0,-8.881559372E0,7.125825882E0,-2.505285263E0
1.105374240E0,-9.068199158E0,7.231110096E0,-2.807379246E0
1.107779657E0,-9.087342262E0,7.408777237E0,-3.147160053E0
1.110185074E0,-9.044271469E0,7.609774113E0,-3.463012457E0
1.112590490E0,-9.001200676E0,7.829914093E0,-3.731008768E0
1.114995907E0,-8.852845192E0,7.978269100E0,-4.095315933E0
1.117401324E0,-8.465208054E0,7.939983845E0,-4.683950424E0
1.119806740E0,-8.460422516E0,8.050053596E0,-4.980660439E0
1.122212157E0,-8.474779129E0,8.136195183E0,-5.028516769E0
1.124617574E0,-8.469993591E0,8.050053596E0,-4.904089928E0
1.127022990E0,-8.416753769E0,7.959126472E0,-4.750949383E0
1.129428407E0,-8.392825127E0,7.834699631E0,-4.616951466E0
1.131833824E0,-8.422137260E0,7.537989616E0,-4.430311203E0
1.134239240E0,-8.474779129E0,7.278966427E0,-4.224528313E0
1.136644657E0,-8.690134048E0,7.211967468E0,-4.004388809E0
1.139050074E0,-8.819346428E0,7.178467751E0,-3.764508247E0
1.141455490E0,-8.876773834E0,7.159325123E0,-3.534797192E0
1.143860907E0,-8.910273552E0,7.178467751E0,-3.429512978E0
1.146266324E0,-9.025128365E0,7.216753006E0,-3.415156126E0
1.148671740E0,-9.082556725E0,7.298707485E0,-3.429512978E0
1.151077157E0,-9.063413620E0,7.394420147E0,-3.496512175E0
1.153482574E0,-8.991629601E0,7.384849072E0,-3.620938778E0
1.155887990E0,-8.891130447E0,7.423133850E0,-3.788436413E0
1.158293407E0,-8.670990944E0,7.442276478E0,-3.937389612E0
1.160698824E0,-8.392825127E0,7.408777237E0,-4.066602230E0
1.163104240E0,-8.234899521E0,7.370491982E0,-4.176671982E0
1.165509657E0,-8.024331093E0,7.313064098E0,-4.281956196E0
1.167915074E0,-7.895118237E0,7.278966427E0,-4.363312244E0
1.170320490E0,-7.837690353E0,7.293323517E0,-4.334598064E0
1.172725907E0,-7.986045361E0,7.264609337E0,-3.893720627E0
1.175131324E0,-7.938189030E0,7.130611420E0,-3.745365620E0
1.177536740E0,-7.823333740E0,6.987041950E0,-3.587439299E0
1.179942157E0,-7.804191113E0,6.829115868E0,-3.434298754E0
1.182347574E0,-7.832904816E0,6.776473522E0,-3.309871912E0
1.184752990E0,-7.875975609E0,6.800402164E0,-3.257229805E0
1.187158407E0,-7.942974567E0,6.876972198E0,-3.228515863E0
1.189563824E0,-7.995616913E0,7.058826923E0,-3.195016384E0
1.191969240E0,-7.995616913E0,7.211967468E0,-3.228515863E0
1.194374657E0,-7.904689789E0,7.375277519E0,-3.238087177E0
1.196780074E0,-7.832904816E0,7.523632526E0,-3.195016384E0
1.199185490E0,-7.737192154E0,7.633702278E0,-3.204587698E0
1.201590907E0,-7.694121361E0,7.743772507E0,-3.204587698E0
1.203996324E0,-7.679764271E0,7.815557003E0,-3.238087177E0
1.206401740E0,-7.694121361E0,7.882555962E0,-3.209373474E0
1.208807157E0,-7.674978733E0,7.935198307E0,-3.233301640E0
1.211212574E0,-7.588837147E0,7.930412292E0,-3.214159012E0
1.213617990E0,-7.517052174E0,7.896913052E0,-3.166302681E0
1.216023407E0,-7.402196884E0,7.887341499E0,-3.137588739E0
1.218428824E0,-7.224529743E0,7.911269665E0,-3.046661377E0
1.220834240E0,-7.047461033E0,7.944769382E0,-3.008376360E0
1.223239657E0,-6.803392887E0,8.021339417E0,-2.936591625E0
1.225645074E0,-6.602396011E0,8.093124390E0,-2.879163742E0
1.228050490E0,-6.430112839E0,8.222336769E0,-2.782852650E0
1.230455907E0,-6.229115486E0,8.260622025E0,-2.706282377E0
1.232861324E0,-6.094519138E0,8.279764175E0,-2.591426849E0
1.235266740E0,-5.893522263E0,8.341978073E0,-2.476571321E0
1.237672157E0,-5.759523869E0,8.332406998E0,-2.275574446E0
1.240077574E0,-5.601597786E0,8.370692253E0,-2.112862349E0
1.242482990E0,-5.501099110E0,8.389834404E0,-2.017149448E0
1.244888407E0,-5.472385406E0,8.447860718E0,-1.835294962E0
1.247293824E0,-5.381458282E0,8.471788406E0,-1.566700578E0
1.249699240E0,-5.261816978E0,8.524430275E0,-1.380060434E0
1.252104657E0,-5.180460930E0,8.572287560E0,-1.107278705E0
1.254510074E0,-5.099104881E0,8.629714966E0,-8.679963946E-1
1.256915490E0,-5.041079044E0,8.629714966E0,-7.052844763E-1
1.259320907E0,-5.041079044E0,8.715856552E0,-5.419743061E-1
1.261726324E0,-4.998008251E0,8.768498421E0,-3.984049559E-1
1.264131740E0,-4.921437740E0,8.835497856E0,-2.644068897E-1
1.266537157E0,-4.868795872E0,8.883354187E0,-1.064806059E-1
1.268942574E0,-4.777868748E0,8.931210518E0,6.101697683E-2
1.271347990E0,-4.797011375E0,8.993423462E0,1.519442350E-1
1.273753407E0,-4.868795872E0,9.060422897E0,2.859423161E-1
1.276158824E0,-4.954937458E0,9.060422897E0,3.481557071E-1
1.278564240E0,-5.070391178E0,9.156135559E0,4.247260094E-1
1.280969657E0,-5.099104881E0,9.519845009E0,1.023529887E0
1.283375074E0,-5.280959606E0,9.428917885E0,5.347958803E-1
1.285780490E0,-5.319244862E0,9.424132347E0,1.375873089E-1
1.288185907E0,-5.357530117E0,9.424132347E0,-3.601198196E-1
1.290591324E0,-5.204389095E0,9.419346809E0,-7.339983582E-1
1.292996740E0,-4.978865623E0,9.347561836E0,-1.030708313E0
1.295402157E0,-4.619942188E0,9.318847656E0,-1.016351461E0
1.297807574E0,-4.313661098E0,9.270991325E0,-9.014959335E-1
1.300212990E0,-4.016951084E0,9.122636795E0,-9.780662656E-1
1.302618407E0,-3.949951887E0,9.002995491E0,-1.121635556E0
1.305023824E0,-4.036093712E0,8.859425545E0,-1.236491084E0
1.307429240E0,-4.036093712E0,8.811569214E0,-1.432702541E0
1.309834657E0,-4.045664787E0,8.878568649E0,-1.638485312E0
1.312240074E0,-4.040879250E0,8.935996056E0,-1.777867198E0
1.314645490E0,-4.055236340E0,8.964710236E0,-1.825723648E0
1.317050907E0,-4.141377926E0,8.969495773E0,-1.911865234E0
1.319456324E0,-4.150949001E0,9.084351540E0,-2.041077614E0
1.321861740E0,-4.203591347E0,9.113064766E0,-2.184647083E0
1.324267157E0,-4.299304008E0,9.146564484E0,-2.318645239E0
1.326672574E0,-4.342374802E0,9.041280746E0,-2.423929453E0
1.329077990E0,-4.490729809E0,8.993423462E0,-2.481357098E0
1.331483407E0,-4.543372154E0,9.026923180E0,-2.596212626E0
1.333888824E0,-4.596014023E0,9.007781029E0,-2.658426046E0
1.336294240E0,-4.658227444E0,8.969495773E0,-2.754138947E0
1.338699657E0,-4.768297195E0,8.888139725E0,-2.850450039E0
1.341105074E0,-4.931009293E0,8.715856552E0,-2.754138947E0
1.343510490E0,-4.916652203E0,8.715856552E0,-2.807379246E0
1.345915907E0,-4.811367989E0,8.778069496E0,-2.912663460E0
1.348321324E0,-4.725226402E0,8.763712883E0,-2.960519791E0
1.350726740E0,-4.801796913E0,8.711071014E0,-2.994019270E0
1.353132157E0,-5.026721954E0,8.476573944E0,-2.869592667E0
1.355537574E0,-5.017150879E0,8.433503151E0,-2.893520832E0
1.357942990E0,-5.002793789E0,8.447860718E0,-2.970091105E0
1.360348407E0,-4.892724037E0,8.380263329E0,-3.070589542E0
1.362753824E0,-4.911866665E0,8.236693382E0,-3.137588739E0
1.365159240E0,-5.099104881E0,8.011768341E0,-3.132802963E0
1.367564657E0,-5.266602516E0,7.782057285E0,-2.931805849E0
1.369970074E0,-5.137390137E0,7.877770424E0,-3.108874798E0
1.372375490E0,-4.921437740E0,7.963912010E0,-3.228515863E0
1.374780907E0,-4.777868748E0,7.911269665E0,-3.352942705E0
1.377186324E0,-4.892724037E0,7.547560692E0,-3.199802160E0
1.379591740E0,-4.844867706E0,7.447062492E0,-3.180659533E0
1.381997157E0,-4.500301361E0,7.595417500E0,-3.396013498E0
1.384402574E0,-4.237090588E0,7.671987534E0,-3.510869026E0
1.386807990E0,-4.399802685E0,7.283751965E0,-3.439084291E0
1.389213407E0,-4.141377926E0,7.197610378E0,-3.376870871E0
1.391618824E0,-3.714857101E0,7.442276478E0,-3.630510092E0
1.394024240E0,-3.384647608E0,7.432705402E0,-3.716651678E0
1.396429657E0,-3.485146284E0,7.054041386E0,-3.506083488E0
1.398835074E0,-3.092723370E0,7.168896675E0,-3.649652719E0
1.401240490E0,-2.670988321E0,7.375277519E0,-3.932604074E0
1.403645907E0,-2.489133835E0,7.313064098E0,-4.057030678E0
1.406051324E0,-2.785843849E0,6.891329288E0,-3.740580082E0
1.408456740E0,-2.517847538E0,7.054041386E0,-3.994817495E0
1.410862157E0,-2.335993052E0,7.231110096E0,-4.258028030E0
1.413267574E0,-2.350350142E0,7.178467751E0,-4.439882278E0
1.415672990E0,-2.714059114E0,6.824330330E0,-4.291527271E0
1.418078407E0,-2.627917528E0,6.800402164E0,-4.372883320E0
1.420483824E0,-2.465205431E0,6.987041950E0,-4.631308079E0
1.422889240E0,-2.388635159E0,7.039684296E0,-4.851448059E0
1.425294657E0,-2.556132793E0,6.786045074E0,-4.923232555E0
1.427700074E0,-2.848655462E0,6.470192432E0,-4.655236244E0
1.430105490E0,-2.661417007E0,6.628118515E0,-4.884947300E0
1.432510907E0,-2.436491728E0,6.800402164E0,-5.134399414E0
1.434916324E0,-2.383849621E0,6.675975323E0,-5.287539959E0
1.437321740E0,-2.647060156E0,6.307480335E0,-5.100899696E0
1.439727157E0,-2.469991207E0,6.403193474E0,-5.172684193E0
1.442132574E0,-2.134995937E0,6.647261143E0,-5.416752338E0
1.444537990E0,-2.072782516E0,6.795616150E0,-5.526822090E0
1.446943407E0,-2.359921217E0,6.455835342E0,-5.239683151E0
1.449348824E0,-2.077568293E0,6.637690067E0,-5.474180222E0
1.451754240E0,-1.766501307E0,6.876972198E0,-5.679962635E0
1.454159657E0,-1.670190215E0,6.757331371E0,-5.732604980E0
1.456565074E0,-1.895713687E0,6.360122681E0,-5.330610752E0
1.458970490E0,-1.507478237E0,6.541976929E0,-5.526822090E0
1.461375907E0,-1.071984529E0,6.709474564E0,-5.727818966E0
1.463781324E0,-1.014556766E0,6.484549522E0,-5.689534187E0
1.466186740E0,-1.100698471E0,6.086742401E0,-5.330610752E0
1.468592157E0,-6.795616150E-1,6.293123722E0,-5.579464436E0
1.470997574E0,-3.870390654E-1,6.364908218E0,-5.775675774E0
1.473402990E0,-3.391826153E-1,6.144170284E0,-5.871388435E0
1.475808407E0,-6.125625968E-1,5.699105263E0,-5.550750256E0
1.478213824E0,-3.104687333E-1,5.861817360E0,-5.713462353E0
1.480619240E0,-1.094716340E-1,6.005386829E0,-5.904888153E0
1.483024657E0,-1.525424421E-1,5.885745525E0,-6.014957905E0
1.485430074E0,-5.838487148E-1,5.407180786E0,-5.742176056E0
1.487835490E0,-5.353940725E-1,5.421537876E0,-5.804389477E0
1.490240907E0,-3.008974493E-1,5.517251015E0,-6.091528416E0
1.492646324E0,-9.511470050E-2,5.474180222E0,-6.360122681E0
1.495051740E0,-3.678964674E-1,5.100899696E0,-6.211767673E0
1.497457157E0,-1.764706671E-1,5.191826820E0,-6.355337143E0
1.499862574E0,1.680957973E-1,5.421537876E0,-6.790830612E0
1.502267990E0,3.978067636E-1,5.579464436E0,-7.092326164E0
1.504673407E0,1.495514158E-2,5.359324455E0,-7.006184578E0
1.507078824E0,1.974078640E-2,5.474180222E0,-7.034898758E0
1.509484240E0,1.633101404E-1,5.785246849E0,-7.461419106E0
1.511889657E0,3.020938635E-1,6.043671608E0,-7.729415417E0
1.514295074E0,1.680957973E-1,6.000600815E0,-7.896913052E0
1.516700490E0,-2.434697002E-1,5.785246849E0,-7.638488293E0
1.519105907E0,-1.381855011E-1,5.952744484E0,-7.715058327E0
1.521511324E0,-7.597211748E-2,6.202196121E0,-7.906484127E0
1.523916740E0,-8.075776696E-2,6.307480335E0,-8.102695465E0
1.526322157E0,-1.716850251E-1,6.283552170E0,-8.289336205E0
1.528727574E0,-3.104687333E-1,6.183053493E0,-8.394619942E0
1.531132990E0,-5.886343718E-1,6.105885029E0,-8.270193100E0
1.533538407E0,-8.087740541E-1,6.091528416E0,-8.030911446E0
1.535943824E0,-7.130611539E-1,6.120242119E0,-8.040482521E0
1.538349240E0,-5.306084156E-1,6.216553211E0,-8.251050949E0
1.540754657E0,-4.348955154E-1,6.211767673E0,-8.467002869E0
1.543160074E0,-3.870390654E-1,6.139384747E0,-8.586644173E0
1.545565490E0,-4.971089065E-1,6.072385788E0,-8.639286041E0
1.547970907E0,-5.742774606E-1,5.943173409E0,-8.577073097E0
1.550376376E0,-6.173482537E-1,5.794818401E0,-8.490931511E0
1.552781793E0,-6.652047038E-1,5.665606022E0,-8.380263329E0
1.555187157E0,-6.317051649E-1,5.612963676E0,-8.294121742E0
1.557592626E0,-6.556333899E-1,5.579464436E0,-8.188837051E0
1.559997990E0,-6.795616150E-1,5.612963676E0,-8.150551796E0
1.562403459E0,-7.369893789E-1,5.679962635E0,-8.107481003E0
1.564808824E0,-7.465606928E-1,5.718247890E0,-8.040482521E0
1.567214293E0,-7.274180651E-1,5.780461311E0,-7.973483086E0
1.569619709E0,-7.609176040E-1,5.742176056E0,-7.858627796E0
1.572025126E0,-7.657032609E-1,5.689534187E0,-7.719843864E0
1.574430543E0,-7.130611539E-1,5.617749214E0,-7.566703320E0
1.576835959E0,-6.508477330E-1,5.498108387E0,-7.389634609E0
1.579241376E0,-4.444667995E-1,5.330610752E0,-7.164111137E0
1.581646793E0,-2.147558331E-1,5.167898655E0,-6.948757172E0
1.584052209E0,-4.187439568E-3,5.028516769E0,-6.728617191E0
1.586457626E0,1.537388563E-1,4.928018093E0,-6.570691109E0
1.588863043E0,2.494517565E-1,4.923232555E0,-6.537191391E0
1.591268459E0,3.260220885E-1,4.913661480E0,-6.565905571E0
1.593673876E0,3.116651475E-1,4.985445976E0,-6.613761902E0
1.596079293E0,2.446661144E-1,5.143970490E0,-6.537191391E0
1.598484709E0,1.537388563E-1,5.306682587E0,-6.403193474E0
1.600890126E0,-4.725824669E-2,5.378467083E0,-6.288337708E0
1.603295543E0,-1.812563092E-1,5.455037594E0,-6.158527374E0
1.605700959E0,-3.104687333E-1,5.522036552E0,-6.014957905E0
1.608106376E0,-3.918247223E-1,5.617749214E0,-5.914459229E0
1.610511793E0,-4.061816335E-1,5.679962635E0,-5.775675774E0
1.612917209E0,-3.535395563E-1,5.723033428E0,-5.646463394E0
1.615322626E0,-2.434697002E-1,5.708676815E0,-5.531607628E0
1.617728043E0,-1.094716340E-1,5.708676815E0,-5.359324455E0
1.620133459E0,1.495514158E-2,5.670391560E0,-5.153541565E0
1.622538876E0,1.393819153E-1,5.656034470E0,-4.961517811E0
1.624944293E0,1.680957973E-1,5.679962635E0,-4.774877548E0
1.627349709E0,1.345962733E-1,5.603392601E0,-4.593023300E0
1.629755126E0,7.238288224E-2,5.550750256E0,-4.492524624E0
1.632160543E0,-2.333002165E-2,5.584249973E0,-4.439882278E0
1.634565959E0,-1.142572835E-1,5.603392601E0,-4.454239368E0
1.636971376E0,-1.956132501E-1,5.598606586E0,-4.506881237E0
1.639376793E0,-2.338984162E-1,5.584249973E0,-4.564309120E0
1.641782209E0,-2.817548811E-1,5.512465000E0,-4.535595417E0
1.644187626E0,-2.482553422E-1,5.426323414E0,-4.459024906E0
1.646593043E0,-8.554340899E-2,5.364109993E0,-4.406383038E0
1.648998459E0,9.631111473E-2,5.378467083E0,-4.363312244E0
1.651403876E0,2.111666054E-1,5.316253662E0,-4.320241451E0
1.653809293E0,3.403790295E-1,5.258825779E0,-4.291527271E0
1.656214709E0,2.350948304E-1,5.134399414E0,-4.214957237E0
1.658620126E0,2.446661144E-1,5.182255745E0,-4.272384644E0
1.661025543E0,2.542374134E-1,5.330610752E0,-4.334598064E0
1.663430959E0,2.973082066E-1,5.426323414E0,-4.415954113E0
1.665836376E0,2.446661144E-1,5.388038158E0,-4.549952030E0
1.668241793E0,3.888336942E-2,5.177470207E0,-4.530809879E0
1.670647209E0,-4.725824669E-2,5.273182869E0,-4.540380955E0
1.673052626E0,-5.204389244E-2,5.445466042E0,-4.731806755E0
1.675458043E0,-9.511470050E-2,5.502893925E0,-4.932804108E0
1.677863459E0,-1.094716340E-1,5.459823132E0,-5.115256786E0
1.680268876E0,-4.253242314E-1,5.220541000E0,-4.990231514E0
1.682674293E0,-4.013960063E-1,5.316253662E0,-4.961517811E0
1.685079709E0,-2.721835673E-1,5.507679462E0,-5.100899696E0
1.687485126E0,-8.973085321E-3,5.636891842E0,-5.263611794E0
1.689890543E0,1.633101404E-1,5.565107346E0,-5.474180222E0
1.692295959E0,2.446661144E-1,5.435894966E0,-5.584249973E0
1.694701428E0,4.504488707E-1,5.469394207E0,-5.603392601E0
1.697106793E0,7.668996453E-1,5.560321808E0,-5.751747608E0
1.699512261E0,1.030110121E0,5.555535793E0,-5.976672649E0
1.701917678E0,1.302891970E0,5.550750256E0,-6.221338749E0
1.704323095E0,1.465603828E0,5.555535793E0,-6.427121639E0
1.706728511E0,1.551745534E0,5.507679462E0,-6.484549522E0
1.709133928E0,1.710269928E0,5.565107346E0,-6.546762943E0
1.711539345E0,1.930409670E0,5.689534187E0,-6.666403770E0
1.713944761E0,2.131406784E0,5.770890236E0,-6.733402729E0
1.716350178E0,2.380260229E0,5.775675774E0,-6.857829571E0
1.718755595E0,2.528615236E0,5.746961594E0,-6.924828529E0
1.721161011E0,2.542972326E0,5.790032387E0,-6.977470875E0
1.723566428E0,2.542972326E0,5.737390518E0,-6.991827965E0
1.725971845E0,2.389831543E0,5.751747608E0,-6.948757172E0
1.728377261E0,2.260619164E0,5.746961594E0,-6.896114826E0
1.730782678E0,2.102692842E0,5.670391560E0,-6.829115868E0
1.733188095E0,1.997408748E0,5.689534187E0,-6.728617191E0
1.735593511E0,1.829911113E0,5.646463394E0,-6.613761902E0
1.737998928E0,1.680957913E0,5.675177097E0,-6.465406895E0
1.740404345E0,1.532602906E0,5.675177097E0,-6.326622963E0
1.742809761E0,1.379462242E0,5.646463394E0,-6.148955822E0
1.745215178E0,1.274178028E0,5.584249973E0,-5.962316036E0
1.747620595E0,1.183250785E0,5.541179180E0,-5.761318684E0
1.750026011E0,1.130608678E0,5.522036552E0,-5.522036552E0
1.752431428E0,1.063609719E0,5.526822090E0,-5.311468124E0
1.754836845E0,1.034895778E0,5.565107346E0,-5.134399414E0
1.757242261E0,9.870393276E-1,5.622535229E0,-4.951946259E0
1.759647678E0,1.054038405E0,5.723033428E0,-4.837090969E0
1.762053095E0,1.140179992E0,5.770890236E0,-4.741377831E0
1.764458511E0,1.192822099E0,5.876173973E0,-4.693521500E0
1.766863928E0,1.312463164E0,6.005386829E0,-4.631308079E0
1.769269345E0,1.465603828E0,6.125027657E0,-4.616951466E0
1.771674761E0,1.604387641E0,6.197410583E0,-4.583451748E0
1.774080178E0,1.705484390E0,6.211767673E0,-4.607379913E0
1.776485595E0,1.796411633E0,6.226124287E0,-4.607379913E0
1.778891011E0,1.896910191E0,6.259624004E0,-4.636094093E0
1.781296428E0,1.954337835E0,6.336194515E0,-4.679164886E0
1.783701845E0,1.992623091E0,6.393621922E0,-4.722235680E0
1.786107261E0,2.026122570E0,6.427121639E0,-4.794020176E0
1.788512678E0,2.040479422E0,6.451049805E0,-4.870590687E0
1.790918095E0,2.021337032E0,6.460621357E0,-4.932804108E0
1.793323511E0,1.987837434E0,6.479763508E0,-4.990231514E0
1.795728980E0,1.944766641E0,6.474977970E0,-5.057828903E0
1.798134345E0,1.863410592E0,6.441478729E0,-5.076971531E0
1.800539761E0,1.762912035E0,6.465406895E0,-5.158327579E0
1.802945230E0,1.652244091E0,6.513263226E0,-5.249254704E0
1.805350647E0,1.566102386E0,6.489335060E0,-5.321039200E0
1.807756063E0,1.518245935E0,6.489335060E0,-5.421537876E0
1.810161480E0,1.451246977E0,6.532405853E0,-5.507679462E0
1.812566897E0,1.360319614E0,6.518048763E0,-5.584249973E0
1.814972313E0,1.269392371E0,6.503692150E0,-5.608178139E0
1.817377730E0,1.240678549E0,6.575476646E0,-5.670391560E0
1.819783147E0,1.144965649E0,6.680760860E0,-5.751747608E0
1.822188563E0,1.073180914E0,6.728617191E0,-5.871388435E0
1.824593980E0,1.015753269E0,6.762116909E0,-5.995815277E0
1.826999397E0,1.039681435E0,6.838686943E0,-6.038886070E0
1.829404813E0,9.726824164E-1,6.943971157E0,-6.067600250E0
1.831810230E0,8.434699774E-1,7.054041386E0,-6.048457623E0
1.834215647E0,8.099704385E-1,7.159325123E0,-6.043671608E0
1.836621063E0,8.578268886E-1,7.432705402E0,-6.125027657E0
1.839026480E0,9.248259664E-1,7.648059368E0,-6.206982136E0
1.841431897E0,9.678967595E-1,7.839485168E0,-6.307480335E0
1.843837313E0,1.082752228E0,7.935198307E0,-6.374479294E0
1.846242730E0,1.255035520E0,8.016553879E0,-6.427121639E0
1.848648147E0,1.341177106E0,8.078767776E0,-6.407979012E0
1.851053563E0,1.499103427E0,8.054839134E0,-6.336194515E0
1.853458980E0,1.585245013E0,7.987840176E0,-6.230910301E0
1.855864397E0,1.666600943E0,7.877770424E0,-6.048457623E0
1.858269813E0,1.805982947E0,7.810771465E0,-5.900102615E0
1.860675230E0,1.906481385E0,7.815557003E0,-5.756533146E0
1.863080647E0,1.968694806E0,7.796414375E0,-5.684748173E0
1.865486063E0,2.021337032E0,7.791628838E0,-5.627320766E0
1.867891532E0,1.944766641E0,7.791628838E0,-5.627320766E0
1.870296949E0,1.825125456E0,7.868198872E0,-5.612963676E0
1.872702365E0,1.647458434E0,7.896913052E0,-5.598606586E0
1.875107782E0,1.508674622E0,7.896913052E0,-5.555535793E0
1.877513199E0,1.436890006E0,7.853842258E0,-5.464608669E0
1.879918615E0,1.168893814E0,7.930412292E0,-5.478965759E0
1.882324032E0,9.870393276E-1,7.906484127E0,-5.517251015E0
1.884729449E0,8.099704385E-1,7.858627796E0,-5.593821049E0
1.887134865E0,7.142575383E-1,7.849056244E0,-5.684748173E0
1.889540282E0,6.664010882E-1,7.863413334E0,-5.713462353E0
1.891945699E0,4.935196638E-1,7.772486210E0,-5.435894966E0
1.894351115E0,3.643072546E-1,7.762914658E0,-5.038087845E0
1.896756532E0,4.648058116E-1,7.801199913E0,-4.942375183E0
1.899161949E0,5.706881881E-1,7.743772507E0,-4.951946259E0
1.901567365E0,8.099704385E-1,7.585845947E0,-4.827519894E0
1.903972782E0,7.190431952E-1,7.581060410E0,-4.784449100E0
1.906378199E0,6.185446382E-1,7.585845947E0,-4.822733879E0
1.908783615E0,3.595215976E-1,7.427919865E0,-4.798805714E0
1.911189032E0,5.802594870E-2,7.288537979E0,-4.478167534E0
1.913594449E0,3.116651475E-1,7.514061451E0,-4.588237286E0
1.915999865E0,3.643072546E-1,7.710272789E0,-4.803591251E0
1.918405282E0,5.126622319E-1,7.877770424E0,-5.014159679E0
1.920810699E0,4.600201547E-1,7.954340458E0,-5.220541000E0
1.923216115E0,-2.333002165E-2,7.748558044E0,-5.042873859E0
1.925621532E0,7.716853172E-2,8.117053032E0,-5.158327579E0
1.928026949E0,1.633101404E-1,8.313263893E0,-5.464608669E0
1.930432365E0,2.829512656E-1,8.433503151E0,-5.770890236E0
1.932837782E0,3.020938635E-1,8.341978073E0,-6.014957905E0
1.935243199E0,-1.429711580E-1,7.954340458E0,-5.751747608E0
1.937648668E0,6.759724021E-2,8.131409645E0,-5.799603939E0
1.940054084E0,2.638086975E-1,8.160123825E0,-6.101099491E0
1.942459501E0,5.078766346E-1,8.117053032E0,-6.317051888E0
1.944864918E0,4.408775866E-1,7.786843300E0,-6.431907177E0
1.947270334E0,2.398804724E-1,7.600203037E0,-6.062814236E0
1.949675751E0,6.137589812E-1,7.791628838E0,-6.326622963E0
1.952081168E0,9.056833982E-1,7.834699631E0,-6.589833736E0
1.954486584E0,1.130608678E0,7.734200954E0,-6.867401123E0
1.956892001E0,9.631111026E-1,7.293323517E0,-6.829115868E0
1.959297418E0,1.063609719E0,7.322635651E0,-6.671189308E0
1.961702834E0,1.322034478E0,7.475776196E0,-6.948757172E0
1.964108251E0,1.566102386E0,7.442276478E0,-7.168896675E0
1.966513668E0,1.637887120E0,7.303493023E0,-7.418348312E0
1.968919084E0,1.331605792E0,6.838686943E0,-7.207181931E0
1.971324501E0,1.460818172E0,7.049255371E0,-7.240681171E0
1.973729918E0,1.503889084E0,7.144968510E0,-7.576274872E0
1.976135334E0,1.518245935E0,7.399205685E0,-8.423932076E0
1.978540751E0,1.623530149E0,7.466204643E0,-9.707083702E0
1.980946168E0,1.432104349E0,7.226324558E0,-1.071266651E1
1.983351584E0,1.542174220E0,7.356134892E0,-1.149751282E1
1.985757001E0,1.863410592E0,7.427919865E0,-1.265623760E1
1.988162418E0,2.212762833E0,7.413562775E0,-1.361874962E1
1.990567886E0,2.571686029E0,7.447062492E0,-1.430369568E1
1.992973303E0,2.643470764E0,7.686344624E0,-1.428455257E1
1.995378720E0,2.399402857E0,8.093124390E0,-1.342253876E1
1.997784136E0,2.073979139E0,8.361120224E0,-1.218245792E1
2.000189553E0,1.796411633E0,8.481359482E0,-1.091844940E1
2.002594970E0,1.527817249E0,8.419146538E0,-9.778867722E0
2.005000386E0,1.245464206E0,8.251050949E0,-8.797212601E0
2.007405803E0,9.918249846E-1,7.959126472E0,-8.045268059E0
2.009811220E0,8.865407705E-1,7.604988575E0,-7.427919865E0
2.012216636E0,8.386843204E-1,7.403991699E0,-6.848258495E0
2.014622053E0,9.631111026E-1,7.207181931E0,-6.350551128E0
2.017027470E0,1.097109199E0,7.058826923E0,-5.967101574E0
2.019432886E0,1.269392371E0,6.934400082E0,-5.703890800E0
2.021838303E0,1.350748420E0,6.996613503E0,-5.493322372E0
2.024243720E0,1.484746456E0,7.101897717E0,-5.335396290E0
2.026649136E0,1.633101463E0,7.278966427E0,-5.134399414E0
2.029054553E0,1.772483349E0,7.456633568E0,-4.980660439E0
2.031459970E0,1.882553220E0,7.624131203E0,-4.856233597E0
2.033865386E0,1.978266120E0,7.753343582E0,-4.736592293E0
2.036270803E0,2.088335991E0,7.777271748E0,-4.693521500E0
2.038676220E0,2.126621008E0,7.738986492E0,-4.569094658E0
2.041081688E0,2.140978098E0,7.662416458E0,-4.487739086E0
2.043487105E0,2.231905222E0,7.504489899E0,-4.420739651E0
2.045892522E0,2.303689957E0,7.207181931E0,-4.621737003E0
2.048297938E0,2.442473650E0,6.948757172E0,-4.880161762E0
2.050703355E0,2.590828657E0,6.781259537E0,-5.076971531E0
2.053108772E0,2.821137905E0,6.747759819E0,-5.230112076E0
2.055514188E0,2.983849764E0,6.790830612E0,-5.321039200E0
2.057919605E0,3.113062143E0,6.891329288E0,-5.397609711E0
2.060325022E0,3.189632654E0,6.910471916E0,-5.598606586E0
2.062730438E0,3.314059258E0,6.838686943E0,-5.995815277E0
2.065135855E0,3.318845034E0,6.733402729E0,-6.293123722E0
2.067541272E0,3.318845034E0,6.642475605E0,-6.652047157E0
2.069946688E0,3.290131092E0,6.527620316E0,-6.943971157E0
2.072352105E0,3.304488182E0,6.417550564E0,-7.226324558E0
2.074757522E0,3.256631613E0,6.216553211E0,-7.494918823E0
2.077162938E0,3.227917671E0,5.976672649E0,-7.772486210E0
2.079568355E0,3.203989506E0,5.746961594E0,-7.987840176E0
2.081973824E0,3.127419233E0,5.612963676E0,-8.231907845E0
2.084379188E0,3.002992392E0,5.502893925E0,-8.486145973E0
2.086784605E0,2.845066071E0,5.459823132E0,-8.706285477E0
2.089190074E0,2.633899450E0,5.517251015E0,-8.912068367E0
2.091595490E0,2.389831543E0,5.560321808E0,-9.022137642E0
2.094000907E0,2.107478619E0,5.560321808E0,-9.108279228E0
2.096406324E0,1.758126378E0,5.507679462E0,-9.146564484E0
2.098811740E0,1.479960799E0,5.488536835E0,-9.055637360E0
2.101217157E0,1.211964726E0,5.421537876E0,-8.916853905E0
2.103622574E0,1.034895778E0,5.301896572E0,-8.644071579E0
2.106027990E0,8.769695163E-1,5.072185993E0,-8.313263893E0
2.108433407E0,8.386843204E-1,4.865804672E0,-7.916055679E0
2.110838824E0,8.291130662E-1,4.660022259E0,-7.475776196E0
2.113244240E0,8.913264275E-1,4.492524624E0,-7.025327206E0
2.115649657E0,9.726824164E-1,4.392025948E0,-6.604190350E0
2.118055074E0,1.159322619E0,4.353740692E0,-6.269195557E0
2.120460490E0,1.417747378E0,4.430311203E0,-6.014957905E0
2.122865907E0,1.719841242E0,4.411168575E0,-5.885745525E0
2.125271324E0,2.059622049E0,4.545166492E0,-5.880959988E0
2.127676740E0,2.327618122E0,4.640879631E0,-5.861817360E0
2.130082209E0,2.586043119E0,4.746163845E0,-5.904888153E0
2.132487626E0,2.811566591E0,4.884947300E0,-5.952744484E0
2.134893043E0,2.998206854E0,5.325825214E0,-6.105885029E0
2.137298459E0,3.180061340E0,5.790032387E0,-6.264409542E0
2.139703876E0,3.337987661E0,6.115456581E0,-6.250052929E0
2.142109293E0,3.558127165E0,6.470192432E0,-6.178267956E0
2.144514709E0,3.577269793E0,6.704689026E0,-6.077171326E0
2.146920126E0,3.620340586E0,6.996613503E0,-5.995815277E0
2.149325543E0,3.649054527E0,7.164111137E0,-5.928816319E0
2.151730959E0,3.529413462E0,7.327421188E0,-5.723033428E0
2.154136376E0,3.318845034E0,7.561917782E0,-5.459823132E0
2.156541793E0,2.931207657E0,7.911269665E0,-5.206183910E0
2.158947209E0,2.289333105E0,8.553144455E0,-4.851448059E0
2.161352626E0,1.642672777E0,9.002995491E0,-4.435096741E0
2.163758043E0,1.082752228E0,9.318847656E0,-4.143172264E0
2.166163459E0,5.611169338E-1,9.601799011E0,-4.023531437E0
2.168568876E0,2.590230405E-1,9.640084267E0,-4.071387768E0
2.170974293E0,1.633101404E-1,9.573084831E0,-4.133601189E0
2.173379761E0,2.350948304E-1,9.404989243E0,-4.320241451E0
2.175785178E0,3.020938635E-1,9.275776863E0,-4.420739651E0
2.178190595E0,4.552344978E-1,9.165707588E0,-4.420739651E0
2.180596011E0,6.041877270E-1,9.084351540E0,-4.435096741E0
2.183001428E0,7.525427341E-1,9.002995491E0,-4.473381996E0
2.185406845E0,8.913264275E-1,8.907281876E0,-4.530809879E0
2.187812261E0,9.583254457E-1,8.902496338E0,-4.473381996E0
2.190217678E0,8.147560954E-1,8.959924698E0,-4.301098824E0
2.192623095E0,7.716853023E-1,8.969495773E0,-4.200600147E0
2.195028511E0,6.233302951E-1,9.002995491E0,-4.181457520E0
2.197433928E0,5.318048596E-1,8.959924698E0,-4.157529354E0
2.199839345E0,4.504488707E-1,8.935996056E0,-4.195814610E0
2.202244761E0,4.504488707E-1,8.825926781E0,-4.277170658E0
2.204650178E0,4.648058116E-1,8.653642654E0,-4.502095699E0
2.207055647E0,4.935196638E-1,8.514859200E0,-4.698307037E0
2.209461011E0,6.041877270E-1,8.419146538E0,-4.861019135E0
2.211866480E0,9.104689956E-1,8.691927910E0,-4.995017052E0
2.214271897E0,1.106680512E0,8.754141808E0,-5.105685234E0
2.216677313E0,1.259821177E0,8.806783676E0,-5.110470772E0
2.219082730E0,1.365105271E0,8.773283958E0,-5.134399414E0
2.221488147E0,1.484746456E0,8.696713448E0,-5.254040241E0
2.223893563E0,1.613958836E0,8.514859200E0,-5.431109428E0
2.226298980E0,1.719841242E0,8.284550667E0,-5.569892883E0
2.228704397E0,1.661815286E0,8.150551796E0,-5.684748173E0
2.231109813E0,1.503889084E0,8.112266541E0,-5.742176056E0
2.233515230E0,1.269392371E0,8.073982239E0,-5.770890236E0
2.235920647E0,1.054038405E0,8.073982239E0,-5.809175014E0
2.238326063E0,9.391828775E-1,8.045268059E0,-5.794818401E0
2.240731480E0,7.046862841E-1,8.193622589E0,-5.464608669E0
2.243136897E0,4.743770957E-1,8.467002869E0,-4.971088886E0
2.245542313E0,4.313062727E-1,8.864211082E0,-4.526023865E0
2.247947782E0,6.424728632E-1,1.025743294E1,-3.486940861E0
2.250353199E0,5.413761139E-1,1.163629627E1,-2.328216314E0
2.252758615E0,8.673982322E-2,1.240259838E1,-1.485344648E0
2.255164032E0,-4.061816335E-1,1.269452190E1,-9.206385016E-1
2.257569449E0,-7.704889178E-1,1.262752342E1,-4.701896608E-1
2.259974865E0,-1.100698471E0,1.236431313E1,-2.356930375E-1
2.262380282E0,-1.229910851E0,1.207238865E1,-1.304088384E-1
2.264785699E0,-1.263410330E0,1.175593758E1,-1.160518974E-1
2.267191115E0,-1.095912814E0,1.137308598E1,-4.175475538E-1
2.269596532E0,-9.379864931E-1,1.101894855E1,-9.924231768E-1
2.272001949E0,-6.939185858E-1,1.062592697E1,-1.701296926E0
2.274407365E0,-5.497509837E-1,1.018564796E1,-2.596212626E0
2.276812782E0,-5.018945336E-1,9.759725571E0,-3.587439299E0
2.279218199E0,-4.109672904E-1,9.438488960E0,-4.545166492E0
2.281623615E0,-2.386840582E-1,9.098708153E0,-5.378467083E0
2.284029084E0,1.728814393E-1,9.151350021E0,-6.010172367E0
2.286434501E0,-1.716850251E-1,9.194420815E0,-6.589833736E0
2.288839918E0,-3.966103494E-1,9.227920532E0,-6.924828529E0
2.291245334E0,-4.540380836E-1,9.151350021E0,-7.039684296E0
2.293650751E0,-3.487538993E-1,9.017352104E0,-7.068397999E0
2.296056168E0,-4.444667995E-1,9.031708717E0,-7.006184578E0
2.298461584E0,-5.742774606E-1,9.089137077E0,-6.824330330E0
2.300867001E0,-7.274180651E-1,9.146564484E0,-6.589833736E0
2.303272418E0,-7.848458290E-1,9.069993973E0,-6.364908218E0
2.305677834E0,-6.652047038E-1,8.859425545E0,-6.250052929E0
2.308083251E0,-7.322037220E-1,8.725427628E0,-6.144170284E0
2.310488668E0,-7.896314859E-1,8.658429146E0,-6.029314995E0
2.312894084E0,-8.183453679E-1,8.596215248E0,-5.876173973E0
2.315299501E0,-8.087740541E-1,8.481359482E0,-5.751747608E0
2.317704918E0,-7.513462901E-1,8.404191017E0,-5.656034470E0
2.320110334E0,-7.274180651E-1,8.279764175E0,-5.579464436E0
2.322515803E0,-6.891329288E-1,8.203194618E0,-5.531607628E0
2.324921220E0,-6.077769399E-1,8.069195747E0,-5.478965759E0
2.327326636E0,-4.348955154E-1,8.011768341E0,-5.383252621E0
2.329732053E0,-2.003988922E-1,8.069195747E0,-5.306682587E0
2.332137470E0,1.010967568E-1,8.030911446E0,-5.277968407E0
2.334542886E0,3.978067636E-1,8.011768341E0,-5.268397331E0
2.336948303E0,8.195417523E-1,7.930412292E0,-5.411966801E0
2.339353720E0,1.164108157E0,7.805985451E0,-5.646463394E0
2.341759136E0,1.417747378E0,7.844270706E0,-5.885745525E0
2.344164553E0,1.686341763E0,7.896913052E0,-5.952744484E0
2.346569970E0,2.011765718E0,7.954340458E0,-6.086742401E0
2.348975386E0,2.313261271E0,7.973483086E0,-6.120242119E0
2.351380855E0,2.413759947E0,7.983054638E0,-6.168098450E0
2.353786272E0,2.495115757E0,8.026124954E0,-6.091528416E0
2.356191688E0,2.452044964E0,8.078767776E0,-6.034100533E0
2.358597105E0,2.298904419E0,8.169694901E0,-5.904888153E0
2.361002522E0,1.963909149E0,8.423932076E0,-5.818746567E0
2.363407938E0,1.432104349E0,8.773283958E0,-5.608178139E0
2.365813355E0,8.865407705E-1,9.065208435E0,-5.344967365E0
2.368218772E0,3.595215976E-1,9.323633194E0,-5.096114159E0
2.370624188E0,-8.554340899E-2,9.414560318E0,-4.870590687E0
2.373029605E0,-4.061816335E-1,9.538987160E0,-4.650450706E0
2.375435022E0,-5.790630579E-1,9.524630547E0,-4.497310162E0
2.377840438E0,-6.125625968E-1,9.500701904E0,-4.195814610E0
2.380245855E0,-5.162515044E-1,9.361918449E0,-3.807579041E0
2.382651324E0,-3.200400174E-1,9.141778946E0,-3.530011654E0
2.385056740E0,-1.333998591E-1,8.744570732E0,-3.458226919E0
2.387462157E0,-7.597211748E-2,8.236693382E0,-3.683152199E0
2.389867574E0,-1.854437590E-2,7.480561733E0,-4.167100430E0
2.392272990E0,3.499503136E-1,6.805187702E0,-4.722235680E0
2.394678407E0,6.999006271E-1,6.862615108E0,-4.540380955E0
2.397083824E0,1.001396298E0,6.958328247E0,-4.506881237E0
2.399489240E0,1.345962763E0,7.159325123E0,-4.487739086E0
2.401894657E0,1.633101463E0,7.403991699E0,-4.492524624E0
2.404300074E0,1.815554142E0,7.695915699E0,-4.549952030E0
2.406705490E0,2.011765718E0,7.930412292E0,-4.559523582E0
2.409110907E0,2.097907305E0,8.184051514E0,-4.554738045E0
2.411516324E0,2.222334146E0,8.365905762E0,-4.463810444E0
2.413921740E0,2.303689957E0,8.739784241E0,-4.167100430E0
2.416327157E0,2.385046005E0,9.060422897E0,-3.740580082E0
2.418732626E0,2.466402054E0,9.309276581E0,-3.376870871E0
2.421138043E0,2.442473650E0,9.534201622E0,-3.075375319E0
2.423543459E0,2.361117840E0,9.697511673E0,-2.720639229E0
2.425948876E0,2.174477577E0,9.821938515E0,-2.471785784E0
2.428354293E0,2.102692842E0,9.893723488E0,-2.280359983E0
2.430759709E0,2.002194405E0,9.932008743E0,-2.127219439E0
2.433165126E0,1.872981906E0,9.975079536E0,-1.969292998E0
2.435570543E0,1.753340840E0,1.005643559E1,-1.931007862E0
2.437975959E0,1.599601984E0,1.012821960E1,-1.911865234E0
2.440381376E0,1.298106313E0,1.021914768E1,-1.954936147E0
2.442786793E0,1.044467092E0,1.035314560E1,-2.045863390E0
2.445192209E0,7.190431952E-1,1.044407272E1,-2.136790514E0
2.447597626E0,2.398804724E-1,1.061157036E1,-2.132004976E0
2.450003095E0,-2.626122832E-1,1.075573826E1,-2.093719721E0
2.452408511E0,-6.939185858E-1,1.084187984E1,-2.060220242E0
2.454813928E0,-1.287338614E0,1.093759251E1,-1.993221283E0
2.457219345E0,-1.819143414E0,1.088495064E1,-1.998006940E0
2.459624761E0,-2.402992249E0,1.082752228E1,-2.060220242E0
2.462030178E0,-2.891726255E0,1.055414295E1,-2.136790514E0
2.464435595E0,-3.154936552E0,1.028614616E1,-2.261217356E0
2.466841011E0,-3.332005501E0,9.936794281E0,-2.380858421E0
2.469246428E0,-3.432504177E0,9.678369522E0,-2.553141832E0
2.471651845E0,-3.379862070E0,9.524630547E0,-2.744567633E0
2.474057261E0,-3.322434187E0,9.419346809E0,-2.941377163E0
2.476462678E0,-3.260220766E0,9.404989243E0,-3.233301640E0
2.478868147E0,-3.126222849E0,9.357132912E0,-3.463012457E0
2.481273563E0,-3.442075491E0,9.452845573E0,-3.821935892E0
2.483678980E0,-3.198007345E0,9.409774780E0,-4.133601189E0
2.486084397E0,-2.949153900E0,9.438488960E0,-4.372883320E0
2.488489813E0,-2.704487801E0,9.400203705E0,-4.616951466E0
2.490895230E0,-2.656631231E0,9.448060036E0,-4.784449100E0
2.493300647E0,-2.613560438E0,9.505488396E0,-4.990231514E0
2.495706063E0,-2.546561480E0,9.549157143E0,-5.047659397E0
2.498111480E0,-2.455634356E0,9.558728218E0,-5.042873859E0
2.500516897E0,-2.288136721E0,9.592227936E0,-5.023731232E0
2.502922313E0,-2.259422779E0,9.563513756E0,-4.913661480E0
2.505327730E0,-2.053640127E0,9.491130829E0,-4.837090969E0
2.507733199E0,-1.852642894E0,9.448060036E0,-4.683950424E0
2.510138615E0,-1.531406522E0,9.347561836E0,-4.473381996E0
2.512544032E0,-1.115055323E0,9.165707588E0,-4.200600147E0
2.514949449E0,-7.322037220E-1,9.136993408E0,-3.908077478E0
2.517354865E0,-7.561319470E-1,9.294919968E0,-3.774079561E0
2.519760282E0,-9.236295223E-1,9.457631111E0,-3.821935892E0
2.522165699E0,-8.901300430E-1,9.500701904E0,-3.980460405E0
2.524571115E0,-5.886343718E-1,9.357132912E0,-4.138386726E0
2.526976532E0,-4.779663086E-1,9.203991890E0,-4.224528313E0
2.529381949E0,-5.982056856E-1,9.357132912E0,-4.277170658E0
2.531787365E0,-4.779663086E-1,9.448060036E0,-4.267599106E0
2.534192782E0,-3.774677813E-1,9.534201622E0,-4.157529354E0
2.536598199E0,-3.535395563E-1,9.616155624E0,-4.119244099E0
2.539003668E0,-2.099701911E-1,9.606584549E0,-4.114458561E0
2.541409084E0,-1.668993831E-1,9.443274498E0,-4.114458561E0
2.543814501E0,-2.482553422E-1,9.285347939E0,-4.104887009E0
2.546219918E0,-2.243271172E-1,9.108279228E0,-4.052245140E0
2.548625334E0,-2.482553422E-1,8.988637924E0,-4.018745422E0
2.551030751E0,-3.678964674E-1,8.859425545E0,-3.990031719E0
2.553436168E0,-2.195414752E-1,8.634500504E0,-3.970889091E0
2.555841584E0,-3.104687333E-1,8.711071014E0,-4.033102512E0
2.558247001E0,-3.296113312E-1,8.715856552E0,-4.104887009E0
2.560652418E0,-4.492524564E-1,8.758927345E0,-4.200600147E0
2.563057834E0,-6.699903607E-1,8.835497856E0,-4.329812527E0
2.565463251E0,-7.896314859E-1,8.854640007E0,-4.468596458E0
2.567868720E0,-9.044869542E-1,8.797212601E0,-4.626522541E0
2.570274136E0,-1.004985452E0,8.797212601E0,-4.813162804E0
2.572679553E0,-1.110269666E0,8.778069496E0,-4.995017052E0
2.575084970E0,-1.028913736E0,8.691927910E0,-5.115256786E0
2.577490386E0,-8.997012973E-1,8.687142372E0,-5.158327579E0
2.579895803E0,-7.944171429E-1,8.668000221E0,-5.201398373E0
2.582301220E0,-6.221339107E-1,8.720642090E0,-5.120042324E0
2.584706636E0,-6.077769399E-1,8.888139725E0,-4.975874901E0
2.587112053E0,-5.742774606E-1,9.031708717E0,-4.784449100E0
2.589517470E0,-5.258227587E-1,9.127422333E0,-4.593023300E0
2.591922886E0,-7.992027402E-1,9.223134995E0,-4.454239368E0
2.594328303E0,-7.800601721E-1,9.208778381E0,-4.195814610E0
2.596733772E0,-5.545366406E-1,9.175278664E0,-3.912863255E0
2.599139188E0,-2.195414752E-1,9.117850304E0,-3.558725595E0
2.601544605E0,-6.640082598E-2,9.194420815E0,-3.357728481E0
2.603950022E0,1.058823988E-1,9.285347939E0,-3.137588739E0
2.606355438E0,3.212364316E-1,9.414560318E0,-2.998805046E0
2.608760855E0,4.313062727E-1,9.553942680E0,-2.893520832E0
2.611166272E0,3.834498227E-1,9.711869240E0,-2.979662418E0
2.613571688E0,4.169493318E-1,9.750154495E0,-3.003590584E0
2.615977105E0,5.174478889E-1,9.707083702E0,-3.003590584E0
2.618382522E0,4.983053207E-1,9.731011391E0,-3.075375319E0
2.620787938E0,4.743770957E-1,9.731011391E0,-3.161516905E0
2.623193355E0,6.089733839E-1,9.788438797E0,-3.171088219E0
2.625598824E0,5.898307562E-1,9.836296082E0,-3.147160053E0
2.628004240E0,6.137589812E-1,9.893723488E0,-3.075375319E0
2.630409657E0,6.855437160E-1,9.874580383E0,-3.022733212E0
2.632815074E0,7.381857634E-1,9.821938515E0,-2.874378204E0
2.635220490E0,7.621139884E-1,9.759725571E0,-2.691925526E0
2.637625907E0,6.568298340E-1,9.731011391E0,-2.505285263E0
2.640031324E0,7.190431952E-1,9.664012909E0,-2.380858421E0
2.642436740E0,8.721838593E-1,9.611370087E0,-2.237289190E0
2.644842157E0,8.769695163E-1,9.538987160E0,-2.160718918E0
2.647247574E0,9.487541914E-1,9.529416084E0,-2.218146563E0
2.649652990E0,1.063609719E0,9.467203140E0,-2.313859463E0
2.652058407E0,1.044467092E0,9.390632629E0,-2.572284460E0
2.654463876E0,1.006181955E0,9.352347374E0,-2.893520832E0
2.656869293E0,9.966106415E-1,9.314062119E0,-3.180659533E0
2.659274531E0,9.439685345E-1,9.232706070E0,-3.506083488E0
2.661679948E0,1.068395257E0,9.194420815E0,-3.673580885E0
2.664085365E0,1.044467092E0,9.218349457E0,-3.826721668E0
2.666490781E0,1.164108157E0,9.270991325E0,-3.917648792E0
2.668896198E0,1.264606714E0,9.256634712E0,-3.908077478E0
2.671301615E0,1.345962763E0,9.170493126E0,-3.841078520E0
2.673707031E0,1.422533035E0,9.108279228E0,-3.788436413E0
2.676112448E0,1.365105271E0,9.146564484E0,-3.802793503E0
2.678517917E0,1.226321578E0,9.170493126E0,-3.735794306E0
2.680923281E0,8.769695163E-1,9.007781029E0,-3.850649834E0
2.683328750E0,1.240678549E0,8.706285477E0,-3.893720627E0
2.685734167E0,1.590030670E0,8.567501068E0,-3.985246181E0
2.688139583E0,1.705484390E0,8.687142372E0,-3.893720627E0
2.690545000E0,1.494317770E0,8.940781593E0,-3.750151396E0
2.692950416E0,1.250249863E0,9.223134995E0,-3.687937975E0
2.695355832E0,1.025324464E0,9.395418167E0,-3.654438496E0
2.697761249E0,9.008977413E-1,9.462417603E0,-3.563511133E0
2.700166666E0,8.051848412E-1,9.529416084E0,-3.501297712E0
2.702572082E0,8.769695163E-1,9.457631111E0,-3.357728481E0
2.704977551E0,8.195417523E-1,9.433703423E0,-3.285943747E0
2.707382968E0,7.477570772E-1,9.476774216E0,-3.209373474E0
2.709788384E0,4.791627228E-1,9.495916367E0,-3.180659533E0
2.712193801E0,1.345962733E-1,9.476774216E0,-3.209373474E0
2.714599218E0,2.398804724E-1,9.400203705E0,-3.089732170E0
2.717004634E0,2.015953064E-1,9.409774780E0,-3.046661377E0
2.719410051E0,2.931207791E-2,9.457631111E0,-3.032304525E0
2.721815468E0,-2.147558331E-1,9.495916367E0,-3.022733212E0
2.724220884E0,-5.258227587E-1,9.524630547E0,-3.013161898E0
2.726626301E0,-7.369893789E-1,9.697511673E0,-2.965305567E0
2.729031718E0,-1.057627559E0,9.716654778E0,-2.989233732E0
2.731437134E0,-1.320838094E0,9.774082184E0,-3.080160856E0
2.733842603E0,-1.540977836E0,9.759725571E0,-3.171088219E0
2.736248020E0,-1.728216171E0,9.697511673E0,-3.214159012E0
2.738653436E0,-1.790429592E0,9.592227936E0,-3.309871912E0
2.741058853E0,-1.713859200E0,9.587442398E0,-3.285943747E0
2.743464270E0,-1.564906001E0,9.616155624E0,-3.156731367E0
2.745869686E0,-1.488335729E0,9.616155624E0,-3.070589542E0
2.748275103E0,-1.411765337E0,9.476774216E0,-3.075375319E0
2.750680520E0,-1.234696507E0,9.424132347E0,-3.070589542E0
2.753085936E0,-4.971089065E-1,8.935996056E0,-2.936591625E0
2.755491353E0,6.376872063E-1,8.145766258E0,-3.041875839E0
2.757896770E0,5.270192027E-1,8.265407562E0,-2.931805849E0
2.760302186E0,2.542374134E-1,8.629714966E0,-2.922234535E0
2.762707655E0,-3.583251834E-1,8.974281311E0,-2.763710260E0
2.765113072E0,-3.056831062E-1,9.270991325E0,-2.457428932E0
2.767518489E0,-4.348955154E-1,9.491130829E0,-2.309073925E0
2.769923905E0,-7.034898400E-1,9.764511108E0,-2.031506538E0
2.772329322E0,-2.578266263E-1,1.004207802E1,-1.356132269E0
2.774734739E0,3.308077157E-1,1.024307537E1,-7.962117195E-1
2.777140155E0,8.721838593E-1,1.024786091E1,-4.797609448E-1
2.779545572E0,1.422533035E0,1.002293587E1,-2.165504545E-1
2.781950989E0,2.083550215E0,9.381061554E0,-6.340979785E-2
2.784356405E0,1.398604870E0,9.721440315E0,-4.319044948E-1
2.786761874E0,1.911267042E0,1.013779163E1,-2.117647976E-1
2.789167291E0,1.906481385E0,1.031486034E1,-4.319044948E-1
2.791572707E0,1.149751306E0,1.015693378E1,-7.435696125E-1
2.793978124E0,3.308077157E-1,9.817152977E0,-1.188634634E0
2.796383541E0,-1.525424421E-1,9.630513191E0,-1.576271892E0
2.798788957E0,-2.434697002E-1,9.592227936E0,-1.801795483E0
2.801194374E0,-2.338984162E-1,9.649655342E0,-1.897508383E0
2.803599791E0,-2.386840582E-1,9.635298729E0,-1.887937069E0
2.806005207E0,-4.396811724E-1,9.687940598E0,-1.883151412E0
2.808410624E0,-6.939185858E-1,9.802796364E0,-1.883151412E0
2.810816041E0,-1.191625714E0,9.960722923E0,-2.007578135E0
2.813221509E0,-1.043270707E0,9.951150894E0,-1.840080619E0
2.815626926E0,-1.038485050E0,1.001815033E1,-1.792224169E0
2.818032343E0,-1.095912814E0,1.003250694E1,-1.768295884E0
2.820437759E0,-1.349551916E0,1.008514881E1,-1.744367719E0
2.822843176E0,-1.454836130E0,1.003250694E1,-1.720439434E0
2.825248593E0,-1.612762451E0,1.003729248E1,-1.710868239E0
2.827654009E0,-1.742573142E0,1.004207802E1,-1.725225091E0
2.830059426E0,-1.685145378E0,1.001815033E1,-1.739582062E0
2.832464843E0,-1.569691658E0,9.975079536E0,-1.758724689E0
2.834870259E0,-1.483550072E0,9.898509026E0,-1.816152334E0
2.837275676E0,-1.426122308E0,9.879366875E0,-1.844866276E0
2.839681093E0,-1.249053478E0,9.874580383E0,-1.811366796E0
2.842086561E0,-1.182054400E0,9.965508461E0,-1.859223247E0
2.844491978E0,-8.709874153E-1,9.893723488E0,-1.825723648E0
2.846897395E0,-6.556333899E-1,9.884152412E0,-1.739582062E0
2.849302811E0,-4.923232496E-1,9.908080101E0,-1.749153376E0
2.851708228E0,-4.492524564E-1,9.955936432E0,-1.725225091E0
2.854113645E0,-3.822534084E-1,1.000379372E1,-1.676770449E0
2.856519061E0,-2.817548811E-1,1.008036327E1,-1.638485312E0
2.858924478E0,-1.812563092E-1,1.017129040E1,-1.585843205E0
2.861329895E0,-8.075776696E-2,1.017607689E1,-1.571486235E0
2.863735311E0,-8.973085321E-3,1.014257717E1,-1.547558069E0
2.866140780E0,1.016949583E-2,1.007079220E1,-1.552343726E0
2.868546197E0,-8.973085321E-3,1.003729248E1,-1.557129383E0
2.870951614E0,-8.075776696E-2,1.002772141E1,-1.533201098E0
2.873357030E0,-9.990034252E-2,9.869794846E0,-1.480558991E0
2.875762447E0,-2.147558331E-1,9.721440315E0,-1.485344648E0
2.878167864E0,-3.822534084E-1,9.510273933E0,-1.561915040E0
2.880573280E0,-3.152543902E-1,9.515059471E0,-1.509272933E0
2.882978697E0,-3.439682424E-1,9.553942680E0,-1.537986755E0
2.885384114E0,-5.210371017E-1,9.592227936E0,-1.691725612E0
2.887789530E0,-7.417750359E-1,9.549157143E0,-1.887937069E0
2.890194947E0,-8.805587292E-1,9.428917885E0,-2.002792597E0
2.892600416E0,-8.709874153E-1,9.256634712E0,-1.974078655E0
2.895005832E0,-9.954141974E-1,9.160921097E0,-1.945364833E0
2.897411249E0,-1.526620865E0,9.065208435E0,-2.002792597E0
2.899816666E0,-1.574477315E0,8.897710800E0,-1.844866276E0
2.902222082E0,-1.004985452E0,8.749356270E0,-1.715653777E0
2.904627499E0,-5.162515044E-1,8.907281876E0,-1.461416483E0
2.907032916E0,1.298106313E-1,9.002995491E0,-1.394417405E0
2.909438332E0,8.099704385E-1,9.237491608E0,-1.317847013E0
2.911843749E0,1.168893814E0,9.597013474E0,-1.236491084E0
2.914249166E0,1.283749342E0,9.874580383E0,-1.289133191E0
2.916654634E0,1.302891970E0,9.908080101E0,-1.375274777E0
2.919060051E0,1.111466169E0,1.001815033E1,-1.375274777E0
2.921465468E0,9.918249846E-1,9.955936432E0,-1.561915040E0
2.923870884E0,3.116651475E-1,9.970293999E0,-1.657627940E0
2.926276301E0,4.695914388E-1,9.635298729E0,-1.657627940E0
2.928681718E0,9.678967595E-1,9.433703423E0,-1.624128342E0
2.931087134E0,1.609173179E0,9.385847092E0,-1.533201098E0
2.933492551E0,2.035693884E0,9.534201622E0,-1.514058471E0
2.935897968E0,2.255833626E0,9.673583984E0,-1.456630826E0
2.938303384E0,2.452044964E0,9.678369522E0,-1.408774376E0
2.940708853E0,2.542972326E0,9.630513191E0,-1.375274777E0
2.943114270E0,2.519043922E0,9.668798447E0,-1.332203984E0
2.945519686E0,2.490330219E0,9.764511108E0,-1.126421213E0
2.947925103E0,2.595614433E0,9.731011391E0,-1.164706469E0
2.950330520E0,2.452044964E0,9.616155624E0,-1.293918848E0
2.952735936E0,2.083550215E0,9.538987160E0,-1.442273855E0
2.955141353E0,1.820339799E0,9.573084831E0,-1.557129383E0
2.957546770E0,1.637887120E0,9.606584549E0,-1.744367719E0
2.959952186E0,1.365105271E0,9.625727654E0,-2.055434704E0
2.962357603E0,1.336391449E0,9.616155624E0,-2.395215511E0
2.964763020E0,1.149751306E0,9.558728218E0,-2.725425005E0
2.967168489E0,9.535398483E-1,9.587442398E0,-3.013161898E0
2.969573905E0,6.903293133E-1,9.668798447E0,-3.238087177E0
2.971979322E0,4.552344978E-1,9.716654778E0,-3.463012457E0
2.974384739E0,2.494517565E-1,9.769296646E0,-3.611367464E0
2.976790155E0,8.673982322E-2,9.788438797E0,-3.692723513E0
2.979195572E0,-1.573280841E-1,9.865009308E0,-3.769293785E0
2.981600989E0,-2.147558331E-1,9.893723488E0,-3.778865099E0
2.984006405E0,-3.008974493E-1,1.006122112E1,-3.759722471E0
2.986411822E0,3.409772366E-2,9.692726135E0,-3.649652719E0
2.988817291E0,-4.247260094E-2,9.601799011E0,-3.735794306E0
2.991222707E0,-1.668993831E-1,9.659226418E0,-3.865006685E0
2.993628124E0,-2.051845491E-1,9.716654778E0,-3.956532240E0
2.996033541E0,-6.125625968E-1,9.884152412E0,-4.037888050E0
2.998438957E0,-1.282552958E0,1.019521904E1,-4.004388809E0
3.000844374E0,-1.426122308E0,1.026700401E1,-3.903291941E0
3.003249791E0,-1.234696507E0,1.018086243E1,-3.865006685E0
3.005655207E0,-6.364908218E-1,9.903294563E0,-3.735794306E0
3.008060624E0,-9.511470050E-2,9.673583984E0,-3.692723513E0
3.010466041E0,4.648058116E-1,9.553942680E0,-3.659224033E0
3.012871457E0,1.135394335E0,9.409774780E0,-3.707080364E0
3.015276926E0,1.801197290E0,9.290133476E0,-3.932604074E0
3.017682343E0,2.509472847E0,9.122636795E0,-4.272384644E0
3.020087759E0,3.270988464E0,8.830712318E0,-4.736592293E0
3.022493176E0,2.926422119E0,8.835497856E0,-5.139184952E0
3.024898593E0,2.365903378E0,8.921639442E0,-5.435894966E0
3.027304009E0,1.691127419E0,9.180064201E0,-5.550750256E0
3.029709426E0,1.221535921E0,9.433703423E0,-5.522036552E0
3.032114843E0,1.054038405E0,9.500701904E0,-5.478965759E0
3.034520259E0,7.573283911E-1,9.534201622E0,-5.258825779E0
3.036925676E0,4.935196638E-1,9.577870369E0,-5.033302307E0
3.039331093E0,2.638086975E-1,9.553942680E0,-4.837090969E0
3.041736561E0,9.631111473E-2,9.534201622E0,-4.664807796E0
3.044141978E0,-1.716850251E-1,9.601799011E0,-4.583451748E0
3.046547395E0,1.489532143E-1,9.491130829E0,-4.430311203E0
3.048952811E0,3.403790295E-1,9.381061554E0,-4.468596458E0
3.051358228E0,4.313062727E-1,9.280562401E0,-4.511667252E0
3.053763645E0,4.648058116E-1,9.314062119E0,-4.564309120E0
3.056169061E0,4.695914388E-1,9.328418732E0,-4.607379913E0
3.058574478E0,4.648058116E-1,9.385847092E0,-4.679164886E0
3.060979895E0,3.020938635E-1,9.481559753E0,-4.717449665E0
3.063385311E0,2.303091735E-1,9.582656860E0,-4.794020176E0
3.065790780E0,1.974078640E-2,9.692726135E0,-4.889732838E0
3.068196197E0,-1.525424421E-1,9.778867722E0,-4.999803066E0
3.070601614E0,-3.678964674E-1,9.821938515E0,-5.134399414E0
3.073007030E0,-4.875376225E-1,9.860223770E0,-5.239683151E0
3.075412447E0,-6.795616150E-1,9.903294563E0,-5.378467083E0
3.077817864E0,-7.274180651E-1,9.927223206E0,-5.464608669E0
3.080223280E0,-7.896314859E-1,9.932008743E0,-5.569892883E0
3.082628697E0,-7.130611539E-1,9.821938515E0,-5.718247890E0
3.085034114E0,-7.082754970E-1,9.798010826E0,-5.780461311E0
3.087439582E0,-6.460621357E-1,9.707083702E0,-5.857031822E0
3.089844999E0,-5.934200287E-1,9.558728218E0,-5.914459229E0
3.092250416E0,-5.258227587E-1,9.390632629E0,-5.928816319E0
3.094655832E0,-5.018945336E-1,9.242277145E0,-5.943173409E0
3.097061249E0,-6.029912829E-1,9.122636795E0,-5.847460270E0
3.099466666E0,-5.258227587E-1,8.974281311E0,-5.742176056E0
3.101872082E0,-4.013960063E-1,8.926424980E0,-5.632106304E0
3.104277499E0,-4.588237405E-1,8.878568649E0,-5.493322372E0
3.106682916E0,-5.114658475E-1,8.763712883E0,-5.373681545E0
3.109088332E0,-5.162515044E-1,8.744570732E0,-5.206183910E0
3.111493801E0,-7.944171429E-1,8.835497856E0,-5.053043365E0
3.113899218E0,-2.536990166E0,9.385847092E0,-4.511667252E0
3.116304634E0,-3.748356581E0,9.611370087E0,-4.219742775E0
3.118710051E0,-3.590430260E0,9.060422897E0,-3.726222992E0
3.121115468E0,-4.060021877E0,8.265407562E0,-3.573082447E0
3.123520884E0,-2.968296528E0,7.255038261E0,-3.376870871E0
3.125926301E0,-9.284151793E-1,6.848258495E0,-2.715853691E0
3.128331718E0,4.408775866E-1,7.408777237E0,-2.481357098E0
3.130737134E0,1.503889084E0,8.088338852E0,-2.782852650E0
3.133142551E0,2.547757864E0,8.672785759E0,-3.429512978E0
3.135548020E0,3.208775282E0,9.395418167E0,-4.286741734E0
3.137953436E0,2.825923443E0,1.027657509E1,-5.023731232E0
3.140358853E0,1.657029629E0,1.050628567E1,-5.885745525E0
3.142764270E0,1.039681435E0,1.035793114E1,-6.474977970E0
3.145169686E0,9.056833982E-1,1.025743294E1,-6.489335060E0
3.147575103E0,2.255235314E-1,1.053499985E1,-5.871388435E0
3.149980520E0,1.728814393E-1,1.050150013E1,-5.388038158E0
3.152385936E0,9.391828775E-1,9.573084831E0,-4.904089928E0
3.154791353E0,1.058823988E-1,9.132207870E0,-4.573880672E0
3.157196770E0,-2.051845491E-1,9.270991325E0,-3.917648792E0
3.159602239E0,-8.973085321E-3,9.510273933E0,-3.386442184E0
3.162007655E0,1.633101404E-1,9.616155624E0,-3.113660574E0
3.164413072E0,1.058823988E-1,9.620942116E0,-2.922234535E0
3.166818489E0,-1.286142170E-1,9.683155060E0,-2.816950560E0
3.169223905E0,-1.095912814E0,9.664012909E0,-2.691925526E0
3.171629322E0,-1.325623751E0,8.859425545E0,-3.113660574E0
3.174034739E0,-3.583251834E-1,8.490931511E0,-2.869592667E0
3.176440155E0,-2.817548811E-1,9.093922615E0,-2.577069998E0
3.178845572E0,-2.913261652E-1,9.601799011E0,-2.390429735E0
3.181250989E0,-9.990034252E-2,9.807581902E0,-2.304288149E0
3.183656457E0,-1.238285750E-1,9.917651176E0,-2.266003132E0
3.186061874E0,-1.239482164E0,9.845867157E0,-2.347358942E0
3.188467291E0,-9.762716293E-1,8.806783676E0,-2.682354212E0
3.190872707E0,-5.258227587E-1,8.486145973E0,-2.557927370E0
3.193278124E0,-3.343969584E-1,8.610571861E0,-2.476571321E0
3.195683541E0,-2.811566554E-2,8.845068932E0,-2.313859463E0
3.198088957E0,-1.668993831E-1,9.218349457E0,-2.237289190E0
3.200494374E0,-3.918247223E-1,9.323633194E0,-2.184647083E0
3.202899791E0,-1.790429592E0,9.342776299E0,-2.060220242E0
3.205305259E0,-2.656631231E0,8.615358353E0,-2.352144718E0
3.207710676E0,-2.101496458E0,7.777271748E0,-2.155933142E0
3.210116093E0,-1.747358680E0,7.667201996E0,-2.112862349E0
3.212521509E0,-1.603191137E0,7.839485168E0,-1.892722726E0
3.214926926E0,-1.804786444E0,8.433503151E0,-1.648056626E0
3.217332343E0,-1.742573142E0,8.888139725E0,-1.542772412E0
3.219737759E0,-1.502692580E0,9.050851822E0,-1.226919770E0
3.222143176E0,-1.756929994E0,9.170493126E0,-1.040279627E0
3.224548593E0,-1.756929994E0,9.041280746E0,-7.531409264E-1
3.226954009E0,-2.010569334E0,8.940781593E0,-6.047859192E-1
3.229359478E0,-2.044068813E0,8.849854469E0,-3.984049559E-1
3.231764895E0,-1.780858278E0,8.806783676E0,-2.021935135E-1
3.234170311E0,-1.636690736E0,8.955139160E0,-2.512463741E-2
3.236575728E0,-1.631905079E0,9.136993408E0,1.184447184E-1
3.238981145E0,-1.646261930E0,9.165707588E0,2.285145670E-1
3.241386561E0,-1.536192179E0,9.223134995E0,3.385843933E-1
3.243791978E0,-1.478764415E0,9.189635277E0,4.151547253E-1
3.246197395E0,-1.363908887E0,9.136993408E0,5.252245665E-1
3.248602811E0,-1.124626637E0,9.079565048E0,5.928218365E-1
3.251008280E0,-6.699903607E-1,9.036494255E0,7.124629617E-1
3.253413697E0,-1.860419661E-1,8.955139160E0,7.172485590E-1
3.255819114E0,2.542374134E-1,8.979066849E0,7.411768436E-1
3.258224530E0,7.573283911E-1,9.136993408E0,6.789634228E-1
3.260629947E0,1.168893814E0,9.194420815E0,6.406782866E-1
3.263035364E0,1.379462242E0,9.471988678E0,5.347958803E-1
3.265440780E0,2.097907305E0,9.237491608E0,3.529413342E-1
3.267846197E0,2.686541557E0,9.151350021E0,3.146561682E-1
3.270251666E0,2.969492912E0,9.294919968E0,3.481557071E-1
3.272657082E0,3.294916868E0,9.256634712E0,3.720839322E-1
3.275062499E0,3.562912941E0,9.232706070E0,3.194418252E-1
3.277467916E0,3.759124279E0,9.146564484E0,3.194418252E-1
3.279873332E0,3.917050600E0,9.103493690E0,2.667997181E-1
3.282278749E0,3.955934048E0,9.141778946E0,2.667997181E-1
3.284684166E0,4.070789337E0,9.151350021E0,1.758724600E-1
3.287089582E0,4.104289055E0,9.098708153E0,8.973085135E-2
3.289494999E0,1.015753269E0,1.279502106E1,3.577269912E-1
3.291900416E0,1.513460279E0,1.225902843E1,3.337987661E-1
3.294305884E0,2.696112871E0,1.062114143E1,1.184447184E-1
3.296711301E0,2.327618122E0,1.003250694E1,-3.266202807E-1
3.299116718E0,1.973480463E0,9.481559753E0,-6.813562512E-1
3.301522134E0,2.030908108E0,8.725427628E0,-9.780662656E-1
3.303927551E0,2.227119684E0,7.796414375E0,-1.207777262E0
3.306332968E0,2.408974171E0,6.838686943E0,-1.423131227E0
3.308738384E0,2.504687071E0,6.427121639E0,-1.480558991E0
3.311143801E0,2.552543640E0,6.436692715E0,-1.456630826E0
3.313549218E0,2.825923443E0,6.331408501E0,-1.442273855E0
3.315954686E0,3.309273720E0,6.350551128E0,-1.437488198E0
3.318360103E0,3.687339783E0,6.556334019E0,-1.557129383E0
3.320765520E0,4.027718544E0,6.766902447E0,-1.681556106E0
3.323170936E0,3.994219303E0,6.982256413E0,-1.820937991E0
3.325576353E0,3.567698479E0,7.082755089E0,-2.065006018E0
3.327981770E0,2.796611547E0,7.245467186E0,-2.175075769E0
3.330387186E0,1.753340840E0,7.073183537E0,-2.251646042E0
3.332792603E0,6.711867452E-1,6.537191391E0,-2.519642353E0
3.335198020E0,-9.990034252E-2,6.317051888E0,-2.836092949E0
3.337603489E0,-3.487538993E-1,6.455835342E0,-2.936591625E0
3.340008905E0,-8.709874153E-1,6.522834301E0,-3.037090063E0
3.342414322E0,-1.253839016E0,6.398407936E0,-3.295515060E0
3.344819739E0,-1.430907965E0,6.427121639E0,-3.640081406E0
3.347225155E0,-1.354337573E0,6.412764549E0,-3.893720627E0
3.349630572E0,-1.153340459E0,6.384050846E0,-4.224528313E0
3.352035989E0,-1.115055323E0,6.455835342E0,-4.439882278E0
3.354441405E0,-1.402194023E0,7.403991699E0,-4.583451748E0
3.356846822E0,-1.110269666E0,8.778069496E0,-4.420739651E0
3.359252239E0,-8.183453679E-1,1.006122112E1,-3.990031719E0
3.361657707E0,-5.838487148E-1,1.128694439E1,-3.549154282E0
3.364063124E0,-6.987041831E-1,1.224945736E1,-3.061018467E0
3.366468541E0,-7.704889178E-1,1.271845055E1,-2.490928411E0
3.368873957E0,-8.518448472E-1,1.320239925E1,-1.864008784E0
3.371279374E0,-7.274180651E-1,1.338425350E1,-1.250848055E0
3.373684791E0,-7.322037220E-1,1.364267826E1,-6.143572330E-1
3.376090207E0,-6.652047038E-1,1.376231956E1,2.751746029E-2
3.378495624E0,-4.492524564E-1,1.386760330E1,5.587241054E-1
3.380901093E0,-2.386840582E-1,1.386760330E1,9.756734371E-1
3.383306509E0,8.673982322E-2,1.399681568E1,1.281954765E0
3.385711926E0,3.355933726E-1,1.402074432E1,1.578664780E0
3.388117343E0,1.274178028E0,1.455733490E1,1.966900229E0
3.390522759E0,2.835494757E0,1.559641838E1,2.225325108E0
3.392928176E0,4.051646709E0,1.631486320E1,2.373680115E0
3.395333593E0,4.774279594E0,1.668335724E1,2.694318295E0
3.397739009E0,5.167300701E0,1.668814278E1,3.384049416E0
3.400144426E0,5.066802025E0,1.703749466E1,3.934996843E0
3.402549895E0,5.181657314E0,1.741615868E1,4.360919476E0
3.404955311E0,5.598008633E0,1.708535194E1,4.820341110E0
3.407360728E0,5.602794170E0,1.608455467E1,5.084149837E0
3.409766145E0,4.903491974E0,1.433719540E1,5.074578762E0
3.412171561E0,3.553341627E0,1.244566917E1,4.710271358E0
3.414576978E0,2.059622049E0,1.133001518E1,4.150351048E0
3.416982395E0,8.386843204E-1,1.084187984E1,3.537189960E0
3.419387811E0,-5.682953820E-2,1.050628567E1,2.775674343E0
3.421793280E0,-6.652047038E-1,1.015693378E1,1.895115495E0
3.424198697E0,-6.747759581E-1,9.812367439E0,1.047458172E0
3.426604114E0,-3.439682424E-1,9.687940598E0,1.998006850E-1
3.429009530E0,1.728814393E-1,9.582656860E0,-6.191428304E-1
3.431414947E0,7.812566161E-1,9.495916367E0,-1.279561877E0
3.433820364E0,1.288534999E0,9.457631111E0,-1.840080619E0
3.436225780E0,1.743769526E0,9.486345291E0,-2.246860504E0
3.438631197E0,1.944766641E0,9.500701904E0,-2.562713146E0
3.441036614E0,1.987837434E0,9.505488396E0,-2.677568436E0
3.443442082E0,1.901695848E0,9.582656860E0,-2.754138947E0
3.445847499E0,1.695913076E0,9.597013474E0,-2.749353170E0
3.448252916E0,1.465603828E0,9.640084267E0,-2.682354212E0
3.450658332E0,1.288534999E0,9.668798447E0,-2.620140791E0
3.453063749E0,1.235892892E0,9.687940598E0,-2.500499725E0
3.455469166E0,1.226321578E0,9.740582466E0,-2.376072884E0
3.457874582E0,1.235892892E0,9.754940033E0,-2.237289190E0
3.460279999E0,1.216750264E0,9.798010826E0,-2.132004976E0
3.462685416E0,8.578268886E-1,9.558728218E0,-2.088934183E0
3.465090884E0,7.956135273E-1,9.769296646E0,-1.887937069E0
3.467496301E0,1.130608678E0,1.004686451E1,-1.691725612E0
3.469901718E0,7.142575383E-1,9.218349457E0,-1.978864312E0
3.472307134E0,1.680957973E-1,8.069195747E0,-2.467000246E0
3.474712551E0,-2.817548811E-1,8.744570732E0,-2.605783939E0
3.477117968E0,-1.429711580E-1,9.711869240E0,-2.500499725E0
3.479523384E0,1.633101404E-1,1.025743294E1,-2.333002090E0
3.481928801E0,8.195417374E-2,9.731011391E0,-2.136790514E0
3.484334218E0,8.434699774E-1,7.849056244E0,-2.242074728E0
3.486739686E0,1.111466169E0,8.274978638E0,-2.390429735E0
3.489145103E0,6.759724021E-2,1.053978539E1,-2.328216314E0
3.491550520E0,2.796611547E0,8.778069496E0,-2.017149448E0
3.493955936E0,2.002194405E0,1.001815033E1,-2.151147604E0
3.496361353E0,2.979064226E0,9.467203140E0,-2.553141832E0
3.498766770E0,3.912265062E0,8.878568649E0,-2.342573404E0
3.501172186E0,2.619542599E0,8.500502586E0,-1.959721804E0
3.503577655E0,1.350748420E0,7.269395351E0,-2.108076811E0
3.505983072E0,1.216750264E0,7.863413334E0,-1.322632670E0
3.508388489E0,1.393819213E0,9.448060036E0,-9.397810698E-1
3.510793905E0,1.489532113E0,1.072223854E1,-8.584251404E-1
3.513199322E0,1.408176184E0,1.132522964E1,-7.292127013E-1
3.515604739E0,1.130608678E0,1.130608654E1,8.015955985E-2
3.518010155E0,-5.593222976E-1,9.467203140E0,8.416753411E-1
3.520415572E0,-4.301098585E-1,8.117053032E0,8.464609981E-1
3.522820989E0,1.680957973E-1,8.959924698E0,1.468594909E0
3.525226457E0,1.221535921E0,1.026700401E1,1.052243710E0
3.527631874E0,1.877767563E0,1.077488041E1,1.415952802E0
3.530037291E0,2.078764677E0,1.092802143E1,1.990828395E0
3.532442707E0,1.106680512E0,9.592227936E0,2.340180635E0
3.534848124E0,1.240678549E0,8.188837051E0,1.938186288E0
3.537253541E0,2.064407825E0,8.916853905E0,2.220539331E0
3.539658957E0,2.979064226E0,1.008993530E1,2.043470621E0
3.542064374E0,3.519842148E0,1.092323494E1,1.842473388E0
3.544469843E0,3.744767427E0,1.147358418E1,1.444666624E0
3.546875259E0,2.600399971E0,9.941579819E0,1.631306887E0
3.549280676E0,2.590828657E0,8.677571297E0,1.478166223E0
3.551686093E0,2.729612350E0,9.471988678E0,1.708475351E0
3.554091509E0,2.878565550E0,1.078445148E1,1.679163337E0
3.556496926E0,2.806781054E0,1.154058361E1,1.885544300E0
3.558902343E0,2.370688915E0,1.198146152E1,1.976471543E0
3.561307759E0,1.149751306E0,1.182832050E1,2.158325911E0
3.563713228E0,3.595215976E-1,1.021436119E1,2.057827473E0
3.566118645E0,3.403790295E-1,1.000857925E1,1.875972986E0
3.568524061E0,1.537388563E-1,1.083709335E1,1.828116536E0
3.570929478E0,-1.854437590E-2,1.155015469E1,1.914258122E0
3.573334895E0,-2.530409992E-1,1.196231842E1,1.899901152E0
3.575740311E0,-5.114658475E-1,1.223988628E1,1.866401672E0
3.578145728E0,-8.853443861E-1,1.249831104E1,1.775474429E0
3.580551197E0,-1.115055323E0,1.258445263E1,1.765903115E0
3.582956561E0,-8.662018180E-1,1.196231842E1,1.713261008E0
3.585362030E0,-6.939185858E-1,1.081316566E1,1.406381488E0
3.587767447E0,-2.482553422E-1,1.018086243E1,9.086744189E-1
3.590172864E0,7.381857634E-1,1.010429192E1,6.981059909E-1
3.592578280E0,1.633101463E0,1.014257717E1,4.438686073E-1
3.594983697E0,2.006979942E0,1.025264645E1,5.623133108E-2
3.597389114E0,2.069193363E0,1.033400249E1,-2.644068897E-1
3.599794530E0,1.963909149E0,1.034836006E1,-5.324030519E-1
3.602199999E0,1.719841242E0,1.037707329E1,-8.009973764E-1
3.604605416E0,1.460818172E0,1.036750221E1,-1.021137118E0
3.607010832E0,1.302891970E0,1.041057301E1,-1.250848055E0
3.609416249E0,1.197607756E0,1.040578747E1,-1.351346612E0
3.611821666E0,4.504488707E-1,9.170493126E0,-1.001994491E0
3.614227082E0,2.638685226E0,7.796414375E0,-8.584251404E-1
3.616632499E0,1.949552298E0,7.930412292E0,-1.974078655E0
3.619037916E0,1.360319614E0,7.896913052E0,-2.467000246E0
3.621443384E0,1.082752228E0,9.568299294E0,-2.562713146E0
3.623848801E0,8.099704385E-1,1.076052380E1,-2.725425005E0
3.626254218E0,3.355933726E-1,1.093759251E1,-2.438286304E0
3.628659634E0,5.898307562E-1,1.007557774E1,-2.146361828E0
3.631065051E0,4.839483798E-1,1.064985561E1,-2.428714991E0
3.633470468E0,5.270192027E-1,1.121515942E1,-1.921436548E0
3.635875884E0,3.690928817E-1,1.171286678E1,-1.557129383E0
3.638281301E0,4.169493318E-1,1.166022491E1,-1.169492126E0
3.640686770E0,7.764709592E-1,1.113380337E1,-7.387840152E-1
3.643092186E0,1.188036442E0,1.045364380E1,-5.276173949E-1
3.645497603E0,1.393819213E0,1.009950638E1,-4.845465720E-1
3.647903020E0,1.580459356E0,9.874580383E0,-4.905286431E-2
3.650308436E0,1.647458434E0,9.831509590E0,4.199403822E-1
3.652713853E0,1.623530149E0,9.845867157E0,7.124629617E-1
3.655119270E0,1.479960799E0,9.836296082E0,8.895317912E-1
3.657524686E0,1.389033556E0,9.908080101E0,9.804590940E-1
3.659930155E0,1.326820135E0,9.989436150E0,9.565308690E-1
3.662335572E0,1.240678549E0,9.951150894E0,9.326026440E-1
3.664740989E0,1.192822099E0,9.941579819E0,1.037886858E0
3.667146405E0,1.164108157E0,9.955936432E0,1.095314622E0
3.669551822E0,1.135394335E0,9.994221687E0,1.147956610E0
3.671957239E0,1.092323542E0,1.001815033E1,1.066600680E0
3.674362655E0,1.010967612E0,9.936794281E0,8.847461939E-1
3.676768072E0,8.769695163E-1,9.788438797E0,8.512466550E-1
3.679173541E0,8.051848412E-1,9.640084267E0,7.794619799E-1
3.681578957E0,7.477570772E-1,9.558728218E0,6.837490797E-1
3.683984374E0,7.477570772E-1,9.443274498E0,4.917250574E-1
3.686389791E0,7.334001660E-1,9.357132912E0,4.869394004E-1
3.688795207E0,8.147560954E-1,9.395418167E0,5.641079545E-1
3.691200624E0,9.104689956E-1,9.519845009E0,5.060819983E-1
3.693606041E0,9.343972206E-1,9.515059471E0,4.438686073E-1
3.696011457E0,9.583254457E-1,9.486345291E0,5.928218365E-1
3.698416926E0,9.631111026E-1,9.476774216E0,6.693921089E-1
3.700822343E0,9.918249846E-1,9.568299294E0,5.976074338E-1
3.703227759E0,9.726824164E-1,9.486345291E0,4.630111754E-1
3.705633176E0,7.812566161E-1,9.323633194E0,5.252245665E-1
3.708038593E0,2.494517565E-1,8.988637924E0,3.002992272E-1
3.710444009E0,1.495514158E-2,9.022137642E0,2.189432681E-1
3.712849426E0,-1.046859920E-1,8.327621460E0,-5.467599630E-1
3.715254895E0,-2.865405083E-1,8.811569214E0,-4.893322289E-1
3.717660311E0,-3.290131316E-2,9.352347374E0,-3.170489967E-1
3.720065728E0,2.542374134E-1,9.553942680E0,-1.686939895E-1
3.722471145E0,4.408775866E-1,9.793225288E0,-2.739782035E-1
3.724876561E0,4.983053207E-1,1.009950638E1,-6.717849374E-1
3.727281978E0,6.376872063E-1,1.003250694E1,-4.893322289E-1
3.729687395E0,-4.157529473E-1,8.026124954E0,8.973085135E-2
3.732092811E0,2.931207791E-2,6.857829571E0,-2.512463741E-2
3.734498280E0,-2.195414752E-1,8.782855988E0,-5.324030519E-1
3.736903697E0,4.600201547E-1,9.721440315E0,-3.696911037E-1
3.739309114E0,-6.173482537E-1,9.534201622E0,-1.878365725E-1
3.741714530E0,-3.104687333E-1,8.040482521E0,9.930214286E-2
3.744119947E0,-7.657032609E-1,8.596215248E0,-8.255238086E-2
3.746525364E0,-6.556333899E-1,8.505288124E0,-2.512463741E-2
3.748930780E0,-6.604190469E-1,8.845068932E0,-1.974078715E-1
3.751336197E0,-6.029912829E-1,9.237491608E0,-2.644068897E-1
3.753741666E0,-4.875376225E-1,9.524630547E0,-2.309073806E-1
3.756147082E0,-2.291127741E-1,9.683155060E0,-2.739782035E-1
3.758552499E0,1.010967568E-1,9.788438797E0,-2.835494876E-1
3.760957916E0,4.121637046E-1,9.965508461E0,-2.404786795E-1
3.763363332E0,6.711867452E-1,9.999007225E0,-2.356930375E-1
3.765768749E0,9.200403094E-1,9.970293999E0,-1.782652885E-1
3.768174166E0,1.269392371E0,1.002293587E1,-1.686939895E-1
3.770579582E0,1.585245013E0,1.011864853E1,-4.426721856E-2
3.772985051E0,1.796411633E0,1.016171932E1,2.751746029E-2
3.775390468E0,1.978266120E0,1.020000458E1,8.973085135E-2
3.777795884E0,2.184048891E0,1.025743294E1,1.854437590E-1
3.780201301E0,2.413759947E0,1.045364380E1,3.098705411E-1
3.782606718E0,2.571686029E0,1.053499985E1,3.672982752E-1
3.785012134E0,2.700898647E0,1.065942669E1,3.720839322E-1
3.787417551E0,2.873780012E0,1.084666538E1,4.917250574E-1
3.789823020E0,2.998206854E0,1.086102200E1,5.443671346E-1
3.792228436E0,3.160918713E0,1.086580753E1,6.071787477E-1
3.794633853E0,3.026920557E0,1.107637596E1,6.311069727E-1
3.797039270E0,3.203989506E0,1.151665497E1,6.454638839E-1
3.799444686E0,3.653840065E0,1.173679543E1,6.933203340E-1
3.801850103E0,3.932005882E0,1.160758305E1,7.363911867E-1
3.804255520E0,4.099503517E0,1.143529987E1,7.459624410E-1
3.806660936E0,4.022933006E0,1.109551907E1,7.316055298E-1
3.809066405E0,3.830909014E0,1.094237804E1,6.789634228E-1
3.811471822E0,3.864408493E0,1.067916775E1,6.933203340E-1
3.813877239E0,3.744767427E0,1.038185883E1,6.693921089E-1
3.816282655E0,3.558127165E0,1.024307537E1,5.880361795E-1
3.818688072E0,3.294916868E0,1.009472084E1,5.641079545E-1
3.821093489E0,3.017349243E0,9.994221687E0,6.263213158E-1
3.823498905E0,2.796611547E0,9.750154495E0,6.263213158E-1
3.825904374E0,2.523829699E0,9.592227936E0,5.880361795E-1
3.828309791E0,2.260619164E0,9.630513191E0,5.395814776E-1
3.830715207E0,2.078764677E0,9.754940033E0,4.965106845E-1
3.833120624E0,1.791625977E0,1.001336479E1,3.912265003E-1
3.835526041E0,1.580459356E0,1.031007481E1,3.529413342E-1
3.837931457E0,1.532602906E0,1.044407272E1,3.529413342E-1
3.840336874E0,1.527817249E0,1.032443142E1,2.572284341E-1
3.842742343E0,1.570888042E0,1.032921696E1,1.854437590E-1
3.845147759E0,1.580459356E0,1.043450165E1,1.854437590E-1
3.847553176E0,1.686341763E0,1.049192905E1,1.184447184E-1
3.849958593E0,1.853839397E0,1.047757244E1,1.040877849E-1
3.852364009E0,2.059622049E0,1.037707329E1,5.144568533E-2
3.854769426E0,2.212762833E0,1.031007481E1,-4.426721856E-2
3.857174843E0,2.294118643E0,1.011864853E1,-1.495514214E-1
3.859580259E0,2.274976015E0,1.008514881E1,-1.639083475E-1
3.861985728E0,3.500699520E0,1.016171932E1,5.623133108E-2
3.864391145E0,5.827719688E0,1.015214825E1,8.081758618E-1
3.866796561E0,6.043073654E0,1.021436119E1,1.281954765E0
3.869201978E0,5.008776188E0,1.016650486E1,1.463809252E0
3.871607395E0,3.318845034E0,1.019521904E1,1.310668588E0
3.874012811E0,1.719841242E0,1.032443142E1,1.124028444E0
3.876418228E0,6.807580590E-1,1.052542877E1,8.416753411E-1
3.878823697E0,6.089733839E-1,1.009950638E1,7.363911867E-1
3.881229114E0,5.461617708E-1,9.841081619E0,5.156532526E-1
3.883634530E0,3.595215976E-1,9.841081619E0,1.950150430E-1
3.886039947E0,1.585244983E-1,9.860223770E0,-3.469592705E-2
3.888445364E0,5.802594870E-2,9.936794281E0,-2.213360965E-1
3.890850780E0,-5.682953820E-2,1.007079220E1,-4.366901219E-1
3.893256197E0,-9.990034252E-2,1.017607689E1,-7.148557901E-1
3.895661666E0,4.845465720E-2,1.028614616E1,-9.445667267E-1
3.898067082E0,4.600201547E-1,1.033878803E1,-1.078564763E0
3.900472499E0,1.015753269E0,1.015693378E1,-1.150349498E0
3.902877916E0,1.460818172E0,1.007557774E1,-1.226919770E0
3.905283332E0,1.748555183E0,1.003250694E1,-1.217348576E0
3.907688749E0,1.916052699E0,1.004207802E1,-1.193420291E0
3.910094166E0,2.131406784E0,1.006600666E1,-1.097707391E0
3.912499582E0,2.174477577E0,1.010907745E1,-1.030708313E0
3.914905051E0,2.121835470E0,1.004207802E1,-1.001994491E0
3.917310468E0,2.150549412E0,9.951150894E0,-8.919246197E-1
3.919715884E0,2.222334146E0,9.879366875E0,-6.287141442E-1
3.922121301E0,2.370688915E0,9.941579819E0,-4.366901219E-1
3.924526718E0,2.337189436E0,1.004686451E1,-2.691925466E-1
3.926932134E0,2.265404940E0,1.002772141E1,-2.021935135E-1
3.929337603E0,2.193620205E0,9.994221687E0,-1.830509305E-1
3.931743020E0,2.059622049E0,1.000857925E1,-1.639083475E-1
3.934148436E0,2.126621008E0,1.004207802E1,-1.160518974E-1
3.936553853E0,2.265404940E0,1.002772141E1,-9.212367237E-2
3.938959270E0,2.538186550E0,1.004207802E1,-1.555334684E-2
3.941364686E0,3.213560820E0,9.946365356E0,2.093719840E-1
3.943770103E0,3.050848961E0,9.841081619E0,3.385843933E-1
3.946175572E0,2.399402857E0,9.716654778E0,3.385843933E-1
3.948580989E0,2.160120726E0,9.122636795E0,3.720839322E-1
3.950986405E0,2.552543640E0,8.620143890E0,5.108676553E-1
3.953391822E0,1.130608678E0,1.002772141E1,1.471585929E-1
3.955797239E0,4.504488707E-1,1.044885826E1,-1.208375469E-1
3.958202655E0,-3.678964674E-1,9.103493690E0,2.428714931E-1
3.960608072E0,2.825923443E0,8.567501068E0,8.273184299E-1
3.963013541E0,3.065205812E0,9.702297211E0,6.406782866E-1
3.965418957E0,8.626125455E-1,1.085623646E1,-1.591227055E-1
3.967824374E0,8.673982322E-2,1.082752228E1,-4.749752879E-1
3.970229791E0,4.648058116E-1,1.029093170E1,-3.888336718E-1
3.972635207E0,8.673982024E-1,9.826724052E0,-3.649054468E-1
3.975040624E0,-2.000998020E0,9.390632629E0,-1.236491084E0
3.977446041E0,-2.484348059E0,9.778867722E0,-1.691725612E0
3.979851509E0,-8.422735929E-1,9.927223206E0,-1.490130305E0
3.982256926E0,6.807580590E-1,9.869794846E0,-1.298704505E0
3.984662343E0,1.758126378E0,9.888937950E0,-1.145563841E0
3.987067759E0,2.318047047E0,9.888937950E0,-9.924231768E-1
3.989473176E0,2.605185747E0,9.908080101E0,-8.967102766E-1
3.991878593E0,2.667398930E0,9.932008743E0,-8.153542876E-1
3.994284061E0,2.648256540E0,1.000379372E1,-7.531409264E-1
3.996689478E0,2.523829699E0,1.007079220E1,-7.052844763E-1
3.999094895E0,2.150549412E0,9.932008743E0,-7.292127013E-1
4.001500311E0,1.767697692E0,9.975079536E0,-7.339983582E-1
4.003905728E0,1.853839397E0,1.020957565E1,-5.665007830E-1
4.006311145E0,1.973480463E0,1.026221848E1,-4.558327198E-1
4.008716561E0,2.117049932E0,1.017129040E1,-3.218346536E-1
4.011122030E0,2.260619164E0,1.014736271E1,-1.974078715E-1
4.013527447E0,2.222334146E0,1.017129040E1,1.316052489E-2
4.015932864E0,2.150549412E0,1.017129040E1,1.615155339E-1
4.018338280E0,2.016551256E0,1.016171932E1,2.476571500E-1
4.020743697E0,1.796411633E0,1.010429192E1,2.859423161E-1
4.023149114E0,1.676172256E0,1.010429192E1,2.237289101E-1
4.025554582E0,1.585245013E0,1.007557774E1,1.998006850E-1
4.027959999E0,1.633101463E0,1.000857925E1,2.715853751E-1
4.030365416E0,1.772483349E0,9.984650612E0,3.720839322E-1
4.032770832E0,2.083550215E0,9.917651176E0,4.965106845E-1
4.035176249E0,2.337189436E0,9.879366875E0,5.641079545E-1
4.037581666E0,2.475973129E0,9.884152412E0,6.598208547E-1
4.039987082E0,2.729612350E0,9.821938515E0,7.555337548E-1
4.042392551E0,3.055634499E0,9.812367439E0,8.799605370E-1
4.044797968E0,3.022135019E0,9.759725571E0,9.230313301E-1
4.047203384E0,2.576471806E0,9.764511108E0,9.469595551E-1
4.049608801E0,1.963909149E0,9.750154495E0,8.847461939E-1
4.052014218E0,1.479960799E0,9.754940033E0,8.225327730E-1
4.054419634E0,1.264606714E0,9.654440880E0,7.411768436E-1
4.056825103E0,1.197607756E0,9.654440880E0,6.406782866E-1
4.059230520E0,1.269392371E0,9.654440880E0,4.486542344E-1
4.061635936E0,1.355534077E0,9.668798447E0,3.002992272E-1
4.064041353E0,1.657029629E0,9.438488960E0,9.930214286E-2
4.066446770E0,3.189632654E0,8.117053032E0,1.710868180E-1
4.068852186E0,3.060420275E0,8.591429710E0,-2.021935135E-1
4.071257655E0,2.385046005E0,9.333204269E0,-5.036891699E-1
4.073663072E0,1.858624935E0,9.774082184E0,-7.244270444E-1
4.076068489E0,1.235892892E0,1.014736271E1,-7.722834945E-1
4.078473905E0,1.154536963E0,9.869794846E0,-7.004988194E-1
4.080879322E0,8.673982024E-1,9.994221687E0,-7.339983582E-1
4.083284739E0,3.786641955E-1,1.005643559E1,-8.344969153E-1
4.085690155E0,5.413761139E-1,9.884152412E0,-7.531409264E-1
4.088095624E0,9.248259664E-1,9.989436150E0,-5.036891699E-1
4.090501041E0,1.178465128E0,1.015693378E1,-4.079762697E-1
4.092906457E0,2.672184706E0,8.653642654E0,-1.256231815E-1
4.095311874E0,3.251846075E0,7.624131203E0,-3.409772217E-1
4.097717291E0,2.164906263E0,7.628916740E0,-7.531409264E-1
4.100122707E0,2.274976015E0,7.748558044E0,-6.861419082E-1
4.102528176E0,2.035693884E0,8.198408127E0,-9.541380405E-1
4.104933593E0,1.408176184E0,7.782057285E0,-7.914260626E-1
4.107339009E0,9.966106415E-1,5.469394207E0,-4.797609448E-1
4.109744426E0,2.145763636E0,6.283552170E0,-7.052844763E-1
4.112149843E0,2.241476536E0,8.035696983E0,-7.004988194E-1
4.114555259E0,2.026122570E0,9.117850304E0,-6.813562512E-1
4.116960728E0,1.264606714E0,7.954340458E0,-4.414757788E-1
4.119366145E0,2.270190477E0,8.730213165E0,-6.574280262E-1
4.121771561E0,2.351546526E0,1.000379372E1,-7.004988194E-1
4.124176978E0,1.566102386E0,9.798010826E0,-4.366901219E-1
4.126582395E0,1.715055585E0,8.691927910E0,-3.505485058E-1
4.128987864E0,2.394617319E0,9.659226418E0,-3.888336718E-1
4.131393280E0,2.318047047E0,1.054457092E1,-3.026920557E-1
4.133798697E0,1.082752228E0,9.275776863E0,4.666004330E-2
4.136204114E0,1.810768485E0,9.065208435E0,-1.076770201E-2
4.138609530E0,2.097907305E0,1.015214825E1,5.623133108E-2
4.141014947E0,1.997408748E0,1.028136063E1,3.242274821E-1
4.143420364E0,1.398604870E0,8.778069496E0,6.789634228E-1
4.145825832E0,1.963909149E0,9.582656860E0,4.677968323E-1
4.148231249E0,1.815554142E0,1.067438221E1,3.050848842E-1
4.150636666E0,1.082752228E0,1.021436119E1,4.342973232E-1
4.153042082E0,1.207179070E0,9.089137077E0,4.342973232E-1
4.155447551E0,1.484746456E0,1.024786091E1,1.519442350E-1
4.157852968E0,1.326820135E0,1.124865913E1,9.451649338E-2
4.160258384E0,4.600201547E-1,1.044407272E1,3.529413342E-1
4.162663801E0,1.063609719E0,9.788438797E0,3.242274821E-1
4.165069218E0,1.436890006E0,1.102851963E1,-6.340979785E-2
4.167474634E0,1.221535921E0,1.172243786E1,-1.495514214E-1
4.169880051E0,6.616154313E-1,1.140658569E1,1.316052489E-2
4.172285520E0,4.504488707E-1,9.649655342E0,3.529413342E-1
4.174690936E0,1.479960799E0,1.042492962E1,5.144568533E-2
4.177096353E0,1.436890006E0,1.144008541E1,-5.982056726E-3
4.179501770E0,1.130608678E0,1.190489101E1,-9.690931439E-2
4.181907239E0,9.296116233E-1,1.212981606E1,-4.414757788E-1
4.184312655E0,5.557330847E-1,1.206281757E1,-7.483552694E-1
4.186718072E0,9.631111473E-2,9.582656860E0,-4.223332107E-1
4.189123489E0,1.782054663E0,9.495916367E0,-7.914260626E-1
4.191528905E0,1.805982947E0,1.046321487E1,-1.045065284E0
4.193934322E0,1.671386600E0,1.110030460E1,-1.040279627E0
4.196339791E0,1.389033556E0,1.151186943E1,-1.068993568E0
4.198745207E0,1.326820135E0,1.179003525E1,-1.102493048E0
4.201150624E0,1.183250785E0,1.194796181E1,-9.589236975E-1
4.203556041E0,1.264606714E0,1.184746265E1,-7.962117195E-1
4.205961457E0,6.041877270E-1,1.148794174E1,-6.239284873E-1
4.208366926E0,-8.554340899E-2,9.927223206E0,-4.654040039E-1
4.210772343E0,2.504687071E0,8.988637924E0,5.623133108E-2
4.213177759E0,2.399402857E0,9.500701904E0,8.973085135E-2
4.215583176E0,1.661815286E0,1.012343407E1,1.519442350E-1
4.217988593E0,1.178465128E0,1.076530933E1,-3.948157281E-2
4.220394009E0,8.817551732E-1,1.126780224E1,-8.733802289E-2
4.222799478E0,6.424728632E-1,1.174158096E1,-3.469592705E-2
4.225204895E0,5.509474277E-1,1.198624706E1,7.058826834E-2
4.227610311E0,6.711867452E-1,1.171765232E1,2.572284341E-1
4.230015728E0,7.046862841E-1,1.135394382E1,3.720839322E-1
4.232421145E0,7.094719410E-1,1.088973618E1,4.247260094E-1
4.234826614E0,7.764709592E-1,1.045842934E1,4.295116663E-1
4.237232030E0,8.482556343E-1,1.016650486E1,4.295116663E-1
4.239637447E0,9.152546525E-1,1.003250694E1,3.481557071E-1
4.242042864E0,9.056833982E-1,1.000379372E1,1.567298770E-1
4.244448280E0,8.530412912E-1,9.999007225E0,6.580262631E-2
4.246853749E0,8.482556343E-1,9.965508461E0,-3.948157281E-2
4.249259166E0,6.759724021E-1,9.611370087E0,-2.309073806E-1
4.251664582E0,7.429714203E-1,9.050851822E0,-5.617151260E-1
4.254069999E0,5.270192027E-1,8.821140289E0,-8.153542876E-1
4.256475416E0,7.477570772E-1,9.457631111E0,-7.196413875E-1
4.258880832E0,1.149751306E0,1.013779163E1,-5.760720372E-1
4.261286301E0,1.365105271E0,1.049192905E1,-4.845465720E-1
4.263691718E0,1.436890006E0,1.064507008E1,-4.366901219E-1
4.266097134E0,1.532602906E0,1.077966595E1,-3.601198196E-1
4.268502551E0,1.594816327E0,1.083709335E1,-1.543370634E-1
4.270908020E0,1.666600943E0,1.062114143E1,1.184447184E-1
4.273313436E0,1.628315806E0,1.037707329E1,2.907279432E-1
4.275718853E0,1.546959877E0,1.020000458E1,4.821537733E-1
4.278124270E0,1.398604870E0,1.009950638E1,6.454638839E-1
4.280529686E0,1.269392371E0,9.941579819E0,7.890332937E-1
4.282935155E0,1.125823021E0,9.908080101E0,8.847461939E-1
4.285340572E0,9.248259664E-1,9.721440315E0,8.847461939E-1
4.287745989E0,9.104689956E-1,9.683155060E0,9.708877802E-1
4.290151405E0,1.006181955E0,9.606584549E0,9.517452121E-1
4.292556822E0,1.164108157E0,9.951150894E0,9.852447510E-1
4.294962239E0,1.618744493E0,1.035793114E1,1.013958573E0
4.297367707E0,1.906481385E0,1.042971611E1,1.004387259E0
4.299773124E0,1.963909149E0,1.033878803E1,8.703892231E-1
4.302178541E0,1.896910191E0,1.012343407E1,7.938188910E-1
4.304583957E0,1.657029629E0,1.004207802E1,6.885347366E-1
4.306989374E0,1.436890006E0,1.000857925E1,5.108676553E-1
4.309394843E0,1.345962763E0,1.003250694E1,3.960121572E-1
4.311800259E0,1.436890006E0,1.005643559E1,3.146561682E-1
4.314205676E0,1.580459356E0,1.001815033E1,3.098705411E-1
4.316611093E0,1.719841242E0,1.008993530E1,3.433700502E-1
4.319016509E0,1.772483349E0,1.006122112E1,2.428714931E-1
4.321421978E0,1.786840320E0,1.003250694E1,1.280160099E-1
4.323827395E0,1.829911113E0,9.960722923E0,-2.033899166E-2
4.326232811E0,1.748555183E0,9.941579819E0,-1.399801224E-1
4.328638228E0,1.782054663E0,9.888937950E0,-1.974078715E-1
4.331043697E0,1.777269006E0,9.836296082E0,-2.165504545E-1
4.333449114E0,1.805982947E0,9.841081619E0,-2.500499785E-1
4.335854530E0,1.782054663E0,9.807581902E0,-2.596212626E-1
4.338259947E0,1.753340840E0,9.845867157E0,-1.974078715E-1
4.340665364E0,1.700698733E0,9.850652695E0,-1.256231815E-1
4.343070832E0,1.604387641E0,9.831509590E0,-9.690931439E-2
4.345476249E0,1.604387641E0,9.841081619E0,-2.033899166E-2
4.347881666E0,1.532602906E0,9.884152412E0,1.316052489E-2
4.350287082E0,1.503889084E0,9.860223770E0,1.040877849E-1
4.352692499E0,1.513460279E0,9.941579819E0,1.375873089E-1
4.355097968E0,1.628315806E0,9.908080101E0,1.423729509E-1
4.357503384E0,1.575673699E0,9.946365356E0,2.237289101E-1
4.359908801E0,1.432104349E0,1.000857925E1,2.572284341E-1
4.362314218E0,1.374676585E0,9.994221687E0,3.098705411E-1
4.364719686E0,1.331605792E0,1.002293587E1,3.912265003E-1
4.367125103E0,1.269392371E0,1.004207802E1,4.821537733E-1
4.369530520E0,1.278963685E0,1.001815033E1,5.539384484E-1
4.371935936E0,1.235892892E0,1.004207802E1,6.741777658E-1
4.374341353E0,1.235892892E0,1.004207802E1,7.028916478E-1
4.376746822E0,1.192822099E0,9.984650612E0,7.028916478E-1
4.379152239E0,1.250249863E0,9.903294563E0,6.358926296E-1
4.381557655E0,1.484746456E0,9.807581902E0,5.928218365E-1
4.383963072E0,1.302891970E0,9.850652695E0,6.311069727E-1
4.386368489E0,1.144965649E0,9.798010826E0,6.502495408E-1
4.388773957E0,1.159322619E0,9.745368004E0,6.263213158E-1
4.391179374E0,1.207179070E0,9.721440315E0,6.167500615E-1
4.393584791E0,1.250249863E0,9.745368004E0,7.028916478E-1
4.395990207E0,1.231107235E0,9.754940033E0,6.837490797E-1
4.398395676E0,1.240678549E0,9.711869240E0,6.933203340E-1
4.400801093E0,1.331605792E0,9.750154495E0,6.550351977E-1
4.403206509E0,1.355534077E0,9.769296646E0,5.641079545E-1
4.405611926E0,1.154536903E-1,8.188837051E0,4.630111754E-1
4.408017343E0,-8.075776696E-2,4.497310162E0,7.058826834E-2
4.410422811E0,3.663411379E0,6.909275651E-1,1.184447184E-1
4.412828228E0,3.390629768E0,2.069791555E0,2.715853751E-1
4.415233645E0,8.913264275E-1,2.208575249E0,-1.208375469E-1
4.417639061E0,9.343972206E-1,1.696511269E0,-7.244270444E-1
4.420044530E0,1.465603828E0,2.644068956E0,-8.105686903E-1
4.422449947E0,2.064407825E0,3.458226919E0,-6.717849374E-1
4.424855364E0,2.907279491E0,3.956532240E0,-9.780662656E-1
4.427260780E0,3.390629768E0,4.272384644E0,-1.064207911E0
4.429666197E0,3.529413462E0,4.583451748E0,-7.914260626E-1
4.432071666E0,3.294916868E0,4.937589645E0,-5.036891699E-1
4.434477082E0,2.931207657E0,5.416752338E0,-4.223332107E-1
4.436882499E0,2.528615236E0,6.058028698E0,-4.031906128E-1
4.439287916E0,2.227119684E0,6.599404812E0,-3.266202807E-1
4.441693332E0,2.021337032E0,7.087540627E0,-2.165504545E-1
4.444098801E0,1.920838356E0,7.509275436E0,-1.399801224E-1
4.446504218E0,1.729412556E0,7.892127514E0,-5.982056726E-3
4.448909634E0,1.618744493E0,8.308478355E0,8.494520187E-2
4.451315103E0,1.594816327E0,8.811569214E0,8.494520187E-2
4.453720520E0,1.523031592E0,9.409774780E0,9.930214286E-2
4.456125936E0,1.566102386E0,9.898509026E0,8.973085135E-2
4.458531353E0,1.556531072E0,1.035314560E1,9.930214286E-2
4.460936770E0,1.436890006E0,1.088016415E1,1.088734269E-1
4.463342186E0,1.331605792E0,1.124387360E1,6.101697683E-2
4.465747655E0,1.307677627E0,1.162193966E1,5.144568533E-2
4.468153072E0,1.288534999E0,1.187617683E1,8.015955985E-2
4.470558489E0,1.211964726E0,1.203410339E1,8.973085135E-2
4.472963905E0,1.144965649E0,1.226859951E1,3.708875179E-2
4.475369374E0,1.068395257E0,1.235474110E1,-4.905286431E-2
4.477774791E0,8.482556343E-1,1.239781189E1,-1.256231815E-1
4.480180207E0,8.099704385E-1,1.256052399E1,-2.835494876E-1
4.482585624E0,7.142575383E-1,1.270887947E1,-3.601198196E-1
4.484991093E0,5.659025311E-1,1.281416321E1,-4.271188378E-1
4.487396509E0,4.360919297E-1,1.286680603E1,-5.419743061E-1
4.489801926E0,3.690928817E-1,1.298225880E1,-7.483552694E-1
4.492207343E0,4.552344978E-1,1.309711456E1,-8.009973764E-1
4.494612759E0,5.557330847E-1,1.315454292E1,-8.249256015E-1
4.497018228E0,6.233302951E-1,1.315932846E1,-8.440681696E-1
4.499423645E0,6.855437160E-1,1.318325615E1,-8.392825127E-1
4.501829061E0,7.094719410E-1,1.317368507E1,-7.866404653E-1
4.504234478E0,5.509474277E-1,1.325982666E1,-8.201399446E-1
4.506639947E0,3.260220885E-1,1.334118271E1,-7.770691514E-1
4.509045364E0,2.015953064E-1,1.328854084E1,-7.100701332E-1
4.511450780E0,5.802594870E-2,1.324068451E1,-6.382854581E-1
4.513856197E0,-7.597211748E-2,1.323589802E1,-5.419743061E-1
4.516261666E0,-2.099701911E-1,1.319282722E1,-4.654040039E-1
4.518667082E0,-3.152543902E-1,1.330289745E1,-4.031906128E-1
4.521072499E0,-4.013960063E-1,1.337468243E1,-2.979064286E-1
4.523477916E0,-4.444667995E-1,1.338903904E1,-2.117647976E-1
4.525883332E0,-4.875376225E-1,1.330768299E1,-1.399801224E-1
4.528288801E0,-5.449653864E-1,1.340339565E1,-1.112662554E-1
4.530694218E0,-3.918247223E-1,1.355653667E1,1.232303679E-1
4.533099634E0,-3.104687333E-1,1.381496143E1,3.864408433E-1
4.535505103E0,-1.716850251E-1,1.457169151E1,4.821537733E-1
4.537910520E0,-2.578266263E-1,1.515135288E1,6.311069727E-1
4.540315936E0,3.116651475E-1,1.389631748E1,9.517452121E-1
4.542721353E0,5.270192027E-1,1.161715412E1,9.708877802E-1
4.545126770E0,3.930211067E-1,1.023350430E1,1.004387259E0
4.547532239E0,2.685943544E-1,9.927223206E0,1.234098315E0
4.549937655E0,2.638086975E-1,9.936794281E0,9.469595551E-1
4.552343072E0,4.265206456E-1,9.821938515E0,5.443671346E-1
4.554748489E0,5.706881881E-1,9.735796928E0,2.572284341E-1
4.557153957E0,6.520441771E-1,9.668798447E0,8.973085135E-2
4.559559374E0,4.695914388E-1,9.549157143E0,-7.776673883E-2
4.561964791E0,2.638086975E-1,9.587442398E0,-1.974078715E-1
4.564370207E0,2.494517565E-1,9.553942680E0,-2.596212626E-1
4.566775624E0,-3.768695518E-2,9.381061554E0,-4.127618968E-1
4.569181093E0,1.441675574E-1,9.563513756E0,-3.266202807E-1
4.571586509E0,1.824527234E-1,9.524630547E0,-2.596212626E-1
4.573991926E0,2.733799815E-1,9.563513756E0,-1.591227055E-1
4.576397395E0,4.366901144E-2,9.251849174E0,-4.905286431E-2
4.578802811E0,-1.933998942E0,7.710272789E0,-1.351944804E-1
4.581208228E0,-6.317051649E-1,8.486145973E0,-2.548356056E-1
4.583613645E0,9.248259664E-1,9.395418167E0,6.580262631E-2
4.586019061E0,5.802594870E-2,8.754141808E0,4.151547253E-1
4.588424530E0,5.509474277E-1,9.007781029E0,5.587241054E-1
4.590829947E0,8.051848412E-1,9.261420250E0,6.215356588E-1
4.593235364E0,9.439685345E-1,9.433703423E0,7.124629617E-1
4.595640780E0,1.264606714E0,8.653642654E0,8.943174481E-1
4.598046249E0,9.391828775E-1,8.591429710E0,1.950150430E-1
4.600451666E0,8.338986635E-1,8.725427628E0,-4.426721856E-2
4.602857082E0,8.721838593E-1,8.912068367E0,1.184447184E-1
4.605262499E0,1.068395257E0,9.046066284E0,3.146561682E-1
4.607667968E0,1.240678549E0,9.189635277E0,4.486542344E-1
4.610073384E0,1.408176184E0,9.237491608E0,5.204389095E-1
4.612478801E0,1.652244091E0,9.184849739E0,4.677968323E-1
4.614884218E0,1.839482427E0,9.108279228E0,4.342973232E-1
4.617289686E0,1.810768485E0,9.151350021E0,3.433700502E-1
4.619695103E0,1.710269928E0,9.208778381E0,1.567298770E-1
4.622100520E0,1.647458434E0,9.371489525E0,8.494520187E-2
4.624505936E0,1.695913076E0,9.400203705E0,1.950150430E-1
4.626911405E0,1.772483349E0,9.471988678E0,3.433700502E-1
4.629316822E0,1.825125456E0,9.409774780E0,4.725824594E-1
4.631722239E0,1.786840320E0,9.361918449E0,4.295116663E-1
4.634127655E0,1.801197290E0,9.347561836E0,3.864408433E-1
4.636533124E0,1.825125456E0,9.371489525E0,3.290131092E-1
4.638938541E0,1.834696770E0,9.381061554E0,2.907279432E-1
4.641343957E0,1.849053741E0,9.361918449E0,2.763710022E-1
4.643749374E0,1.844268084E0,9.385847092E0,3.481557071E-1
4.646154843E0,1.767697692E0,9.515059471E0,4.725824594E-1
4.648560259E0,1.666600943E0,9.553942680E0,5.156532526E-1
4.650965676E0,1.633101463E0,9.673583984E0,4.677968323E-1
4.653371093E0,1.566102386E0,9.769296646E0,3.864408433E-1
4.655776561E0,1.551745534E0,9.855438232E0,5.252245665E-1
4.658181978E0,1.580459356E0,9.975079536E0,6.789634228E-1
4.660587395E0,1.546959877E0,1.008036327E1,6.981059909E-1
4.662992811E0,1.475175142E0,1.017607689E1,7.268198729E-1
4.665398280E0,1.417747378E0,1.031007481E1,7.172485590E-1
4.667803697E0,1.369890928E0,1.046800041E1,6.598208547E-1
4.670209114E0,1.379462242E0,1.069352436E1,6.215356588E-1
4.672614530E0,1.317248821E0,1.090409279E1,5.641079545E-1
4.675019999E0,1.322034478E0,1.103809071E1,4.630111754E-1
4.677425416E0,1.412961721E0,1.119601727E1,3.577269912E-1
4.679830832E0,1.427318692E0,1.142094231E1,3.337987661E-1
4.682236249E0,1.446461320E0,1.159322548E1,2.763710022E-1
4.684641718E0,1.470389485E0,1.174158096E1,2.093719840E-1
4.687047134E0,1.518245935E0,1.188574791E1,1.519442350E-1
4.689452551E0,1.537388563E0,1.204367447E1,6.580262631E-2
4.691857968E0,1.494317770E0,1.215853024E1,-2.991028316E-2
4.694263436E0,1.546959877E0,1.229252815E1,-8.733802289E-2
4.696668853E0,1.556531072E0,1.237866974E1,-2.835494876E-1
4.699074270E0,1.661815286E0,1.288116264E1,-4.941178858E-1
4.701479686E0,2.365903378E0,1.335553932E1,-3.361915946E-1
4.703885155E0,2.835494757E0,1.267059422E1,-1.734796464E-1
4.706290572E0,2.423331022E0,1.124865913E1,-3.409772217E-1
4.708695989E0,1.523031592E0,1.021436119E1,-5.563312769E-1
4.711101405E0,1.116251707E0,9.874580383E0,-6.334998012E-1
4.713506874E0,1.250249863E0,9.831509590E0,-7.627122402E-1
4.715912291E0,1.537388563E0,9.649655342E0,-7.531409264E-1
4.718317707E0,1.494317770E0,9.529416084E0,-7.004988194E-1
4.720723124E0,1.336391449E0,9.577870369E0,-7.292127013E-1
4.723128593E0,1.345962763E0,9.616155624E0,-6.765705943E-1
4.725534009E0,1.379462242E0,9.635298729E0,-5.036891699E-1
4.727939426E0,1.216750264E0,9.888937950E0,-4.606183469E-1
4.730344843E0,1.221535921E0,9.778867722E0,-4.366901219E-1
4.732750311E0,1.149751306E0,9.328418732E0,-3.984049559E-1
4.735155728E0,1.824527234E-1,7.547560692E0,-1.035493970E0
4.737561145E0,-8.973085321E-3,8.341978073E0,-9.254241586E-1
4.739966561E0,7.238288522E-1,9.084351540E0,-6.047859192E-1
4.742372030E0,1.130608678E0,9.381061554E0,-2.213360965E-1
4.744777447E0,-3.290131316E-2,7.987840176E0,2.141576260E-1
4.747182864E0,-4.247260094E-2,7.504489899E0,1.277169108E0
4.749588332E0,1.599601984E0,5.828317642E0,3.876971006E0
4.751993749E0,1.001396298E0,5.823532104E0,2.349751949E0
4.754399166E0,8.291130662E-1,6.110671043E0,9.373882413E-1
4.756804582E0,9.966106415E-1,6.451049805E0,2.045863420E-1
4.759210051E0,1.188036442E0,6.905686378E0,1.471585929E-1
4.761615468E0,1.408176184E0,7.332206726E0,3.577269912E-1
4.764020884E0,1.671386600E0,7.810771465E0,5.976074338E-1
4.766426301E0,1.925624013E0,8.203194618E0,5.491527915E-1
4.768831770E0,2.102692842E0,8.634500504E0,5.060819983E-1
4.771237186E0,2.241476536E0,9.041280746E0,7.028916478E-1
4.773642603E0,2.313261271E0,9.424132347E0,1.013958573E0
4.776048020E0,2.399402857E0,9.687940598E0,1.162313581E0
4.778453489E0,2.332403898E0,9.965508461E0,1.104885817E0
4.780858905E0,2.203191519E0,1.021436119E1,9.613165259E-1
4.783264322E0,2.179263115E0,1.043450165E1,8.368897438E-1
4.785669791E0,2.289333105E0,1.064028454E1,7.316055298E-1
4.788075207E0,2.418545485E0,1.068873882E1,6.406782866E-1
4.790480624E0,2.452044964E0,1.081316566E1,5.832505226E-1
4.792886041E0,2.447259426E0,1.078445148E1,5.443671346E-1
4.795291509E0,2.413759947E0,1.073659515E1,4.821537733E-1
4.797696926E0,2.337189436E0,1.077488041E1,3.960121572E-1
4.800102343E0,2.341975212E0,1.077488041E1,3.577269912E-1
4.802507759E0,2.188834429E0,1.073659515E1,3.912265003E-1
4.804913228E0,2.188834429E0,1.073659515E1,3.720839322E-1
4.807318645E0,2.169692039E0,1.071745300E1,3.050848842E-1
4.809724061E0,2.160120726E0,1.079402256E1,1.854437590E-1
4.812129478E0,2.121835470E0,1.077966595E1,1.280160099E-1
4.814534947E0,2.083550215E0,1.069352436E1,4.666004330E-2
4.816940364E0,1.939980984E0,1.078923702E1,-5.862415582E-2
4.819345780E0,1.825125456E0,1.088495064E1,-1.591227055E-1
4.821751197E0,1.767697692E0,1.092323494E1,-1.495514214E-1
4.824156666E0,1.719841242E0,1.092323494E1,-1.591227055E-1
4.826562082E0,1.613958836E0,1.110987568E1,-1.543370634E-1
4.828967499E0,1.537388563E0,1.136351490E1,-1.543370634E-1
4.831372916E0,1.427318692E0,1.160758305E1,-8.255238086E-2
4.833778384E0,1.307677627E0,1.182832050E1,1.316052489E-2
4.836183801E0,1.264606714E0,1.194317627E1,9.451649338E-2
4.838589218E0,1.226321578E0,1.225902843E1,2.045863420E-1
4.840994634E0,1.159322619E0,1.248873997E1,2.333002090E-1
4.843400103E0,1.149751306E0,1.285244846E1,1.758724600E-1
4.845805520E0,1.159322619E0,1.376710510E1,1.088734269E-1
4.848210936E0,5.946164131E-1,1.480618858E1,-1.076770201E-2
4.850616405E0,1.393819153E-1,1.373839092E1,-1.304088384E-1
4.853021822E0,5.754738450E-1,1.135872936E1,-8.733802289E-2
4.855427239E0,1.073180914E0,1.009950638E1,-7.776673883E-2
4.857832655E0,1.192822099E0,9.874580383E0,-1.304088384E-1
4.860238124E0,1.192822099E0,9.860223770E0,-2.548356056E-1
4.862643541E0,1.154536963E0,9.759725571E0,-3.409772217E-1
4.865048957E0,1.168893814E0,9.625727654E0,-3.696911037E-1
4.867454374E0,1.250249863E0,9.606584549E0,-3.505485058E-1
4.869859843E0,1.302891970E0,9.606584549E0,-2.931207716E-1
4.872265259E0,1.374676585E0,9.625727654E0,-3.122633696E-1
4.874670676E0,1.369890928E0,9.687940598E0,-3.266202807E-1
4.877076145E0,1.398604870E0,9.721440315E0,-2.883351147E-1
4.879481561E0,1.379462242E0,9.793225288E0,-1.926222295E-1
4.881886978E0,1.389033556E0,9.821938515E0,-9.690931439E-2
4.884292395E0,1.393819213E0,9.855438232E0,-2.512463741E-2
4.886697864E0,1.475175142E0,9.855438232E0,5.144568533E-2
4.889103280E0,1.523031592E0,9.888937950E0,1.184447184E-1
4.891508697E0,1.542174220E0,9.912865639E0,1.854437590E-1
4.893914166E0,1.570888042E0,9.893723488E0,1.950150430E-1
4.896319582E0,1.570888042E0,9.898509026E0,1.758724600E-1
4.898724999E0,1.355534077E0,9.778867722E0,7.537391037E-2
4.901130416E0,1.192822099E0,9.812367439E0,-2.512463741E-2
4.903535884E0,1.556531072E0,9.989436150E0,3.589233849E-3
4.905941301E0,1.633101463E0,9.922437668E0,-3.469592705E-2
4.908346718E0,1.570888042E0,9.874580383E0,-8.733802289E-2
4.910752134E0,1.384247899E0,9.869794846E0,-6.340979785E-2
4.913157603E0,1.355534077E0,9.869794846E0,-5.862415582E-2
4.915563020E0,1.422533035E0,9.644869804E0,-6.340979785E-2
4.917968436E0,1.173679471E0,9.620942116E0,2.273181453E-2
4.920373905E0,1.250249863E0,9.955936432E0,1.184447184E-1
4.922779322E0,1.849053741E0,1.012343407E1,2.524427772E-1
4.925184739E0,2.121835470E0,1.031486034E1,3.912265003E-1
4.927590155E0,2.270190477E0,1.052064323E1,4.773681164E-1
4.929995624E0,2.351546526E0,1.052064323E1,5.587241054E-1
4.932401041E0,2.035693884E0,1.034357452E1,5.443671346E-1
4.934806457E0,1.637887120E0,1.016650486E1,4.582255483E-1
4.937211926E0,1.551745534E0,1.012821960E1,4.438686073E-1
4.939617343E0,1.580459356E0,1.011386299E1,4.151547253E-1
4.942022759E0,1.642672777E0,1.008993530E1,4.103690982E-1
4.944428176E0,1.715055585E0,9.984650612E0,3.481557071E-1
4.946833645E0,1.613958836E0,9.936794281E0,1.471585929E-1
4.949239061E0,1.599601984E0,1.037707329E1,-3.936193287E-1
4.951644478E0,2.016551256E0,1.026221848E1,-3.505485058E-1
4.954049895E0,1.700698733E0,1.026221848E1,-2.991028316E-2
4.956455364E0,1.518245935E0,1.020479012E1,2.380858511E-1
4.958860780E0,1.642672777E0,9.994221687E0,4.103690982E-1
4.961266197E0,1.810768485E0,9.740582466E0,4.486542344E-1
4.963671666E0,1.786840320E0,9.601799011E0,4.773681164E-1
4.966077082E0,1.623530149E0,9.587442398E0,4.725824594E-1
4.968482499E0,1.542174220E0,9.568299294E0,4.821537733E-1
4.970887916E0,1.451246977E0,9.597013474E0,4.821537733E-1
4.973293384E0,1.508674622E0,9.678369522E0,4.582255483E-1
4.975698801E0,1.523031592E0,9.731011391E0,4.247260094E-1
4.978104218E0,1.422533035E0,9.807581902E0,3.768695593E-1
4.980509686E0,1.427318692E0,9.893723488E0,2.955136001E-1
4.982915103E0,1.451246977E0,9.922437668E0,2.907279432E-1
4.985320520E0,1.417747378E0,9.965508461E0,2.428714931E-1
4.987725936E0,1.317248821E0,9.941579819E0,1.375873089E-1
4.990131405E0,1.135394335E0,9.879366875E0,9.451649338E-2
4.992536822E0,1.077966571E0,9.687940598E0,1.950150430E-1
4.994942239E0,-2.291127741E-1,8.787641525E0,-3.948157281E-2
4.997347707E0,-3.891926050E0,4.947160721E0,-2.787638307E-1
4.999753124E0,-3.590430260E0,5.009374142E0,-2.596212626E-1
5.002158541E0,3.786641955E-1,3.711866140E0,8.225327730E-1
5.004563957E0,1.805982947E0,3.908077478E0,1.042672515E0
5.006969374E0,2.461616278E0,4.554738045E0,1.037886858E0
5.009374843E0,2.748754978E0,5.196612358E0,9.038887620E-1
