"Time (s)","Gyroscope x (rad/s)","Gyroscope y (rad/s)","Gyroscope z (rad/s)"
2.831822350E-1,1.436632965E-2,-4.438241571E-2,1.029735524E-2
2.851822350E-1,1.436632965E-2,-3.644116595E-2,1.029735524E-2
2.871822350E-1,1.253373362E-2,-3.277597576E-2,9.686490521E-3
2.891822350E-1,1.680978946E-2,-2.483472601E-2,6.632164121E-3
2.911822350E-1,1.375546400E-2,-2.178040147E-2,6.632164121E-3
2.931822350E-1,1.375546400E-2,-1.506088302E-2,4.799568094E-3
2.951822350E-1,1.497719344E-2,-1.200655662E-2,6.632164121E-3
2.971822350E-1,1.436632965E-2,-6.508769002E-3,7.853894494E-3
2.991819850E-1,1.253373362E-2,-1.010982087E-3,7.243029308E-3
3.011817620E-1,1.436632965E-2,2.043344313E-3,3.577837721E-3
3.031815620E-1,1.436632965E-2,8.151996881E-3,2.356107347E-3
3.051813800E-1,1.680978946E-2,1.120632235E-2,4.188702907E-3
3.071812130E-1,1.131200232E-2,1.548238005E-2,6.632164121E-3
3.091810590E-1,9.479407221E-3,2.036930062E-2,4.188702907E-3
3.111809160E-1,1.375546400E-2,2.464535832E-2,1.745242043E-3
3.131807820E-1,1.009027194E-2,2.892141603E-2,7.243029308E-3
3.151805320E-1,1.070113759E-2,3.441920131E-2,4.799568094E-3
3.171802960E-1,9.479407221E-3,3.625179827E-2,7.243029308E-3
3.191800730E-1,1.009027194E-2,4.113871977E-2,4.188702907E-3
3.211798620E-1,1.253373362E-2,4.724737257E-2,5.410433281E-3
3.231796620E-1,1.131200232E-2,4.785823822E-2,6.632164121E-3
3.251794710E-1,1.070113759E-2,5.152342841E-2,7.853894494E-3
3.271792890E-1,1.375546400E-2,5.457775667E-2,5.410433281E-3
3.291790280E-1,1.436632965E-2,5.457775667E-2,9.075625800E-3
3.311787780E-1,1.619892567E-2,6.068640947E-2,4.188702907E-3
3.331785380E-1,1.436632965E-2,5.885381252E-2,9.075625800E-3
3.351783070E-1,1.619892567E-2,6.312986463E-2,1.090821996E-2
3.371780840E-1,1.619892567E-2,6.374073774E-2,7.853894494E-3
3.391778690E-1,1.742065512E-2,6.496246159E-2,9.686490521E-3
3.411776620E-1,1.558805909E-2,6.557332724E-2,7.853894494E-3
3.431774620E-1,2.047498152E-2,6.618419290E-2,7.853894494E-3
3.451771950E-1,2.169671282E-2,6.557332724E-2,7.853894494E-3
3.471769280E-1,2.108584531E-2,6.740592420E-2,9.686490521E-3
3.491766610E-1,1.986411586E-2,6.374073774E-2,7.243029308E-3
3.511763940E-1,2.414017357E-2,6.435160339E-2,9.075625800E-3
3.531761270E-1,2.352930792E-2,6.129727140E-2,1.029735524E-2
3.551758600E-1,2.414017357E-2,6.007554382E-2,9.686490521E-3
3.571755930E-1,2.230757661E-2,6.007554382E-2,1.029735524E-2
3.591753930E-1,2.597276866E-2,5.518862233E-2,1.029735524E-2
3.611751260E-1,2.597276866E-2,5.457775667E-2,9.686490521E-3
3.631748590E-1,2.658363432E-2,5.335602537E-2,9.075625800E-3
3.651745920E-1,2.841622941E-2,4.969083518E-2,9.075625800E-3
3.671743250E-1,2.780536376E-2,4.419304803E-2,1.090821996E-2
3.691740580E-1,2.719449811E-2,4.052785411E-2,1.335168164E-2
3.711737910E-1,2.963796072E-2,3.869526088E-2,1.335168164E-2
3.731735240E-1,3.024882451E-2,3.503006697E-2,1.212995127E-2
3.751733240E-1,3.024882451E-2,3.441920131E-2,9.686490521E-3
3.771730570E-1,3.147055581E-2,2.953227982E-2,1.151908562E-2
3.791727900E-1,3.147055581E-2,2.281276323E-2,1.579514146E-2
3.811725230E-1,3.208142146E-2,1.975843683E-2,1.457341202E-2
3.831722560E-1,3.147055581E-2,1.548238005E-2,1.579514146E-2
3.851719890E-1,2.841622941E-2,1.181718800E-2,1.701687276E-2
3.871717220E-1,2.780536376E-2,8.151996881E-3,1.640600711E-2
3.891715220E-1,3.208142146E-2,3.875940107E-3,1.640600711E-2
3.911713220E-1,3.024882451E-2,-1.010982087E-3,1.701687276E-2
3.931710550E-1,3.208142146E-2,-4.001167545E-4,1.884946786E-2
3.951707880E-1,3.024882451E-2,-5.287038628E-3,2.007119916E-2
3.971705210E-1,2.902709320E-2,-6.508769002E-3,2.007119916E-2
3.991702540E-1,2.597276866E-2,-1.383915264E-2,2.129293047E-2
4.011699870E-1,2.719449811E-2,-2.055867016E-2,2.373639122E-2
4.031697200E-1,2.291844226E-2,-2.422386222E-2,2.373639122E-2
4.051695200E-1,2.658363432E-2,-2.788905427E-2,2.556898631E-2
4.071693200E-1,2.230757661E-2,-3.338684142E-2,2.251465991E-2
4.091690530E-1,2.475103736E-2,-3.583030030E-2,2.373639122E-2
4.111687860E-1,2.169671282E-2,-3.949549049E-2,2.740158327E-2
4.131685190E-1,2.291844226E-2,-4.560414329E-2,2.740158327E-2
4.151682520E-1,1.864238456E-2,-4.865847155E-2,2.801244706E-2
4.171679850E-1,2.047498152E-2,-5.415625870E-2,2.801244706E-2
4.191677180E-1,2.169671282E-2,-6.148663908E-2,2.679071575E-2
4.211675180E-1,2.108584531E-2,-6.087577343E-2,2.740158327E-2
4.231672510E-1,1.864238456E-2,-6.698442996E-2,2.801244706E-2
4.251669840E-1,1.986411586E-2,-6.881702691E-2,2.740158327E-2
4.271667170E-1,1.558805909E-2,-7.431481034E-2,2.801244706E-2
4.291664500E-1,1.925325021E-2,-7.675827295E-2,2.923417836E-2
4.311661830E-1,1.803152077E-2,-8.286692947E-2,2.984504402E-2
4.331659160E-1,1.742065512E-2,-8.592125028E-2,2.923417836E-2
4.351656490E-1,1.925325021E-2,-8.897557855E-2,2.923417836E-2
4.371654490E-1,1.619892567E-2,-9.202990681E-2,2.984504402E-2
4.391651820E-1,1.558805909E-2,-9.569509327E-2,3.045590781E-2
4.411649150E-1,1.558805909E-2,-1.005820185E-1,2.801244706E-2
4.431646480E-1,1.558805909E-2,-1.036363468E-1,2.862331271E-2
4.451643810E-1,1.436632965E-2,-1.073015332E-1,2.862331271E-2
4.471641140E-1,1.253373362E-2,-1.103558615E-1,3.045590781E-2
4.491638470E-1,1.253373362E-2,-1.146319211E-1,3.412109986E-2
4.511635800E-1,1.070113759E-2,-1.207405701E-1,3.289936855E-2
4.531634130E-1,1.131200232E-2,-1.225731671E-1,3.228850663E-2
4.551631460E-1,1.131200232E-2,-1.250166297E-1,3.351023421E-2
4.571628790E-1,8.257675916E-3,-1.292926818E-1,3.289936855E-2
4.591626120E-1,9.479407221E-3,-1.335687339E-1,3.106677346E-2
4.611623450E-1,5.203349981E-3,-1.372339278E-1,3.473196551E-2
4.631620780E-1,4.592484795E-3,-1.384556592E-1,3.228850663E-2
4.651618110E-1,6.425080821E-3,-1.408991218E-1,3.045590781E-2
4.671615440E-1,4.592484795E-3,-1.433425844E-1,3.106677346E-2
4.691613440E-1,4.592484795E-3,-1.470077783E-1,3.045590781E-2
4.711610770E-1,4.592484795E-3,-1.482295096E-1,3.106677346E-2
4.731608100E-1,1.538158627E-3,-1.500620991E-1,3.167763725E-2
4.751605430E-1,9.272934403E-4,-1.537272930E-1,3.412109986E-2
4.771602760E-1,2.759889234E-3,-1.537272930E-1,3.106677346E-2
4.791600090E-1,1.538158627E-3,-1.555598974E-1,3.412109986E-2
4.811597420E-1,-2.127032727E-3,-1.561707556E-1,3.351023421E-2
4.831595420E-1,-9.053022950E-4,-1.573924869E-1,3.167763725E-2
4.851593420E-1,2.149024047E-3,-1.549490243E-1,2.923417836E-2
4.871590750E-1,-2.127032727E-3,-1.592250764E-1,3.289936855E-2
4.891588080E-1,-9.053022950E-4,-1.610576808E-1,3.289936855E-2
4.911585410E-1,-2.737898147E-3,-1.592250764E-1,3.228850663E-2
4.931582410E-1,-3.959628753E-3,-1.580033600E-1,3.412109986E-2
4.951579740E-1,-2.737898147E-3,-1.573924869E-1,3.473196551E-2
4.971577070E-1,-4.570493475E-3,-1.549490243E-1,3.717542812E-2
4.991575070E-1,-3.348763334E-3,-1.555598974E-1,3.717542812E-2
5.011572400E-1,-3.959628753E-3,-1.573924869E-1,3.900802135E-2
5.031569730E-1,-7.624819875E-3,-1.567816138E-1,3.961888701E-2
5.051567060E-1,-8.846551180E-3,-1.531164199E-1,4.022975266E-2
5.071564390E-1,-9.457415901E-3,-1.549490243E-1,4.206234589E-2
5.091561720E-1,-6.403089501E-3,-1.537272930E-1,4.389494285E-2
5.111559050E-1,-5.792224314E-3,-1.543381661E-1,4.511667415E-2
5.131556050E-1,-7.624819875E-3,-1.543381661E-1,4.450580850E-2
5.151554050E-1,-7.013954688E-3,-1.525055766E-1,4.450580850E-2
5.171551380E-1,-5.792224314E-3,-1.494512260E-1,4.511667415E-2
5.191548710E-1,-6.403089501E-3,-1.494512260E-1,4.756013304E-2
5.211546040E-1,-5.181358662E-3,-1.494512260E-1,4.939273000E-2
5.231543370E-1,-9.053022950E-4,-1.457860470E-1,5.122532696E-2
5.251540700E-1,9.272934403E-4,-1.463969052E-1,4.878186435E-2
5.271538030E-1,-2.127032727E-3,-1.463969052E-1,5.183619261E-2
5.291535360E-1,3.164281952E-4,-1.427317262E-1,5.366878957E-2
5.311533360E-1,9.272934403E-4,-1.427317262E-1,5.489051715E-2
5.331530690E-1,3.981619608E-3,-1.433425844E-1,5.427965149E-2
5.351528020E-1,5.814215168E-3,-1.415099949E-1,5.550138652E-2
5.371525350E-1,4.592484795E-3,-1.408991218E-1,5.611224845E-2
5.391522680E-1,8.868541569E-3,-1.402882487E-1,5.550138652E-2
5.411520010E-1,6.425080821E-3,-1.384556592E-1,5.794484168E-2
5.431517340E-1,8.868541569E-3,-1.378448009E-1,5.916657671E-2
5.451514670E-1,1.497719344E-2,-1.335687339E-1,5.794484168E-2
5.471512670E-1,8.257675916E-3,-1.378448009E-1,6.405349821E-2
5.491510330E-1,1.497719344E-2,-1.347904652E-1,6.527522951E-2
5.511507990E-1,1.497719344E-2,-1.335687339E-1,6.283176690E-2
5.531505990E-1,1.436632965E-2,-1.335687339E-1,6.344263256E-2
5.551503650E-1,1.925325021E-2,-1.323470175E-1,6.527522951E-2
5.571501310E-1,1.986411586E-2,-1.317361444E-1,6.405349821E-2
5.591498970E-1,1.925325021E-2,-1.292926818E-1,6.466435641E-2
5.611497300E-1,2.169671282E-2,-1.317361444E-1,6.466435641E-2
5.631495630E-1,2.475103736E-2,-1.317361444E-1,6.405349821E-2
5.651493290E-1,2.414017357E-2,-1.341796070E-1,6.527522951E-2
5.671490950E-1,2.536190487E-2,-1.311252713E-1,6.283176690E-2
5.691488610E-1,2.658363432E-2,-1.305144131E-1,6.099917367E-2
5.711486270E-1,2.597276866E-2,-1.274600923E-1,6.161003560E-2
5.731483930E-1,2.352930792E-2,-1.280709505E-1,6.222090125E-2
5.751481590E-1,2.841622941E-2,-1.292926818E-1,6.161003560E-2
5.771479920E-1,2.841622941E-2,-1.262383610E-1,5.794484168E-2
5.791477580E-1,2.475103736E-2,-1.256274879E-1,5.611224845E-2
5.811475240E-1,2.902709320E-2,-1.256274879E-1,5.489051715E-2
5.831472900E-1,2.597276866E-2,-1.231840253E-1,5.427965149E-2
5.851470560E-1,2.352930792E-2,-1.256274879E-1,5.244705454E-2
5.871468220E-1,2.597276866E-2,-1.213514358E-1,5.061446130E-2
5.891465880E-1,2.475103736E-2,-1.219623014E-1,4.878186435E-2
5.911463540E-1,2.414017357E-2,-1.182971150E-1,4.878186435E-2
5.931461870E-1,2.291844226E-2,-1.176862419E-1,4.817100242E-2
5.951459530E-1,1.986411586E-2,-1.152427793E-1,4.572753981E-2
5.971457190E-1,1.680978946E-2,-1.115775928E-1,4.389494285E-2
5.991454850E-1,1.864238456E-2,-1.121884510E-1,4.328408092E-2
6.011452510E-1,1.497719344E-2,-1.121884510E-1,4.084061831E-2
6.031450170E-1,1.253373362E-2,-1.073015332E-1,4.328408092E-2
6.051447830E-1,1.558805909E-2,-1.060798019E-1,3.656455874E-2
6.071445490E-1,8.868541569E-3,-1.060798019E-1,3.839715570E-2
6.091443490E-1,8.257675916E-3,-1.060798019E-1,3.717542812E-2
6.111440820E-1,8.868541569E-3,-1.030254737E-1,3.534283116E-2
6.131438150E-1,6.425080821E-3,-9.997115284E-2,3.412109986E-2
6.151435480E-1,7.646811195E-3,-9.630595893E-2,3.351023421E-2
6.171432810E-1,9.479407221E-3,-9.447336942E-2,3.228850663E-2
6.191430140E-1,7.646811195E-3,-9.264077246E-2,2.984504402E-2
6.211427470E-1,8.257675916E-3,-8.897557855E-2,2.740158327E-2
6.231424800E-1,8.868541569E-3,-8.836471289E-2,2.801244706E-2
6.251422800E-1,1.314459834E-2,-8.286692947E-2,2.617985196E-2
6.271420130E-1,8.257675916E-3,-8.347778767E-2,2.740158327E-2
6.291417460E-1,1.070113759E-2,-7.920173556E-2,2.495812252E-2
6.311414790E-1,8.868541569E-3,-7.859086245E-2,2.679071575E-2
6.331412120E-1,1.070113759E-2,-7.675827295E-2,2.617985196E-2
6.351409450E-1,1.131200232E-2,-7.431481034E-2,2.679071575E-2
6.371406780E-1,1.070113759E-2,-7.492567599E-2,2.434725501E-2
6.391404780E-1,1.314459834E-2,-7.614740729E-2,2.434725501E-2
6.411402780E-1,1.436632965E-2,-7.553654164E-2,2.617985196E-2
6.431400110E-1,1.314459834E-2,-7.798000425E-2,2.312552556E-2
6.451397440E-1,1.314459834E-2,-7.798000425E-2,2.617985196E-2
6.471394770E-1,1.680978946E-2,-7.736913860E-2,2.434725501E-2
6.491392100E-1,1.253373362E-2,-8.103433251E-2,2.679071575E-2
6.511389430E-1,1.619892567E-2,-8.164519817E-2,2.617985196E-2
6.531386760E-1,1.680978946E-2,-8.103433251E-2,2.617985196E-2
6.551384760E-1,1.864238456E-2,-8.164519817E-2,2.495812252E-2
6.571382760E-1,1.742065512E-2,-8.225605637E-2,2.679071575E-2
6.591380090E-1,1.986411586E-2,-8.225605637E-2,2.556898631E-2
6.611377420E-1,1.497719344E-2,-8.225605637E-2,2.740158327E-2
6.631374750E-1,1.619892567E-2,-8.103433251E-2,2.740158327E-2
6.651372080E-1,1.742065512E-2,-8.103433251E-2,2.434725501E-2
6.671369410E-1,1.131200232E-2,-8.653212339E-2,2.801244706E-2
6.691366740E-1,1.314459834E-2,-8.592125028E-2,2.617985196E-2
6.711364740E-1,1.070113759E-2,-8.408865333E-2,2.556898631E-2
6.731362070E-1,1.131200232E-2,-8.653212339E-2,2.617985196E-2
6.751359400E-1,1.070113759E-2,-8.836471289E-2,2.740158327E-2
6.771356730E-1,8.257675916E-3,-8.836471289E-2,2.556898631E-2
6.791354060E-1,7.646811195E-3,-8.958644420E-2,2.617985196E-2
6.811351390E-1,8.257675916E-3,-8.897557855E-2,2.068206482E-2
6.831348720E-1,7.035946008E-3,-9.019730985E-2,2.251465991E-2
6.851346050E-1,7.035946008E-3,-8.836471289E-2,2.068206482E-2
6.871344050E-1,7.035946008E-3,-8.836471289E-2,1.762773842E-2
6.891341380E-1,7.035946008E-3,-8.714298159E-2,1.640600711E-2
6.911338710E-1,4.592484795E-3,-8.653212339E-2,1.579514146E-2
6.931336040E-1,6.425080821E-3,-8.958644420E-2,1.518427767E-2
6.951333370E-1,6.425080821E-3,-8.958644420E-2,1.274081599E-2
6.971330700E-1,3.370754421E-3,-9.202990681E-2,1.151908562E-2
6.991328030E-1,6.425080821E-3,-8.958644420E-2,9.686490521E-3
7.011325360E-1,3.981619608E-3,-9.141903371E-2,9.686490521E-3
7.031323360E-1,5.814215168E-3,-8.897557855E-2,7.853894494E-3
7.051320690E-1,4.592484795E-3,-8.836471289E-2,8.464760147E-3
7.071318020E-1,3.981619608E-3,-8.469952643E-2,7.243029308E-3
7.091315350E-1,7.646811195E-3,-8.164519817E-2,2.966972534E-3
7.111312680E-1,8.868541569E-3,-7.736913860E-2,1.745242043E-3
7.131310010E-1,7.035946008E-3,-7.675827295E-2,-6.982189952E-4
7.151307340E-1,1.009027194E-2,-7.553654164E-2,-3.141680034E-3
7.171304670E-1,1.070113759E-2,-6.942788512E-2,-3.141680034E-3
7.191302670E-1,1.009027194E-2,-6.820616126E-2,-6.982189952E-4
7.211300000E-1,1.375546400E-2,-6.820616126E-2,-3.141680034E-3
7.231297330E-1,1.375546400E-2,-6.454096735E-2,-6.806871388E-3
7.251294660E-1,1.619892567E-2,-6.270837039E-2,-1.047206298E-2
7.271291990E-1,1.009027194E-2,-6.148663908E-2,-6.806871388E-3
7.291289320E-1,1.497719344E-2,-5.354539305E-2,-9.250332601E-3
7.311286650E-1,1.497719344E-2,-5.171279982E-2,-1.230465900E-2
7.331284650E-1,1.558805909E-2,-4.621501267E-2,-1.108292770E-2
7.351282650E-1,1.558805909E-2,-4.254981875E-2,-1.169379335E-2
7.371279980E-1,1.803152077E-2,-3.949549049E-2,-1.474811975E-2
7.391277310E-1,1.803152077E-2,-3.460856900E-2,-1.596985012E-2
7.411274640E-1,1.925325021E-2,-2.972164936E-2,-1.902417652E-2
7.431271970E-1,2.108584531E-2,-2.727818675E-2,-1.902417652E-2
7.451269300E-1,2.169671282E-2,-2.178040147E-2,-1.963504218E-2
7.471266630E-1,2.352930792E-2,-1.383915264E-2,-1.963504218E-2
7.491264630E-1,2.230757661E-2,-1.750434376E-2,-2.146763727E-2
7.511261960E-1,2.352930792E-2,-1.139569096E-2,-2.146763727E-2
7.531259290E-1,2.475103736E-2,-5.897903815E-3,-2.146763727E-2
7.551256620E-1,2.414017357E-2,-1.621847274E-3,-2.207850292E-2
7.571253950E-1,2.597276866E-2,2.654209267E-3,-2.391109802E-2
7.591251280E-1,2.352930792E-2,3.875940107E-3,-2.330023423E-2
7.611248610E-1,2.414017357E-2,8.762862533E-3,-2.391109802E-2
7.631245940E-1,2.414017357E-2,8.151996881E-3,-2.085677162E-2
7.651243940E-1,2.414017357E-2,9.984591976E-3,-2.207850292E-2
7.671241270E-1,2.414017357E-2,1.059545763E-2,-2.268936671E-2
7.691238600E-1,2.291844226E-2,1.181718800E-2,-2.024590597E-2
7.711235930E-1,2.291844226E-2,1.181718800E-2,-2.268936671E-2
7.731233260E-1,2.475103736E-2,1.364978403E-2,-2.268936671E-2
7.751230590E-1,2.597276866E-2,1.487151440E-2,-2.452196367E-2
7.771227920E-1,2.352930792E-2,1.303891838E-2,-1.841331087E-2
7.791225250E-1,2.475103736E-2,9.373727255E-3,-2.146763727E-2
7.811223250E-1,2.291844226E-2,8.762862533E-3,-1.841331087E-2
7.831220580E-1,2.291844226E-2,8.151996881E-3,-1.902417652E-2
7.851217910E-1,2.780536376E-2,9.373727255E-3,-2.146763727E-2
7.871215240E-1,2.414017357E-2,2.654209267E-3,-1.658071578E-2
7.891212570E-1,2.352930792E-2,3.265074687E-3,-1.535898540E-2
7.911209900E-1,2.658363432E-2,-1.010982087E-3,-1.596985012E-2
7.931207230E-1,2.597276866E-2,-1.010982087E-3,-1.474811975E-2
7.951204560E-1,2.780536376E-2,-2.232712461E-3,-1.596985012E-2
7.971202560E-1,2.902709320E-2,-4.676173907E-3,-1.413725503E-2
7.991199890E-1,2.902709320E-2,-8.952230215E-3,-1.169379335E-2
8.011197220E-1,3.147055581E-2,-1.078482624E-2,-1.658071578E-2
8.031194550E-1,3.147055581E-2,-1.322828699E-2,-1.413725503E-2
8.051191880E-1,3.147055581E-2,-1.750434376E-2,-1.352638938E-2
8.071189210E-1,3.208142146E-2,-1.872607507E-2,-1.230465900E-2
8.091186540E-1,2.963796072E-2,-2.116953395E-2,-1.230465900E-2
8.111184540E-1,3.208142146E-2,-1.994780451E-2,-1.352638938E-2
8.131182540E-1,3.269228712E-2,-2.422386222E-2,-1.169379335E-2
8.151179870E-1,3.513574600E-2,-2.544559166E-2,-1.413725503E-2
8.171177200E-1,3.269228712E-2,-2.788905427E-2,-1.474811975E-2
8.191174530E-1,3.269228712E-2,-2.605645731E-2,-1.413725503E-2
8.211171860E-1,3.147055581E-2,-2.727818675E-2,-1.169379335E-2
8.231169190E-1,3.208142146E-2,-2.911078185E-2,-1.474811975E-2
8.251166520E-1,2.841622941E-2,-3.094337881E-2,-1.596985012E-2
8.271164520E-1,2.597276866E-2,-3.094337881E-2,-1.596985012E-2
8.291161850E-1,2.841622941E-2,-3.033251315E-2,-1.902417652E-2
8.311159180E-1,2.780536376E-2,-2.972164936E-2,-1.719157957E-2
8.331156510E-1,2.475103736E-2,-3.155424446E-2,-1.719157957E-2
8.351153840E-1,2.658363432E-2,-3.216510639E-2,-1.902417652E-2
8.371151170E-1,2.047498152E-2,-3.277597576E-2,-1.719157957E-2
8.391148500E-1,1.986411586E-2,-3.094337881E-2,-1.841331087E-2
8.411145830E-1,1.680978946E-2,-3.094337881E-2,-1.780244708E-2
8.431143830E-1,1.742065512E-2,-3.033251315E-2,-2.207850292E-2
8.451141160E-1,1.619892567E-2,-2.911078185E-2,-2.146763727E-2
8.471138490E-1,8.868541569E-3,-3.033251315E-2,-2.024590597E-2
8.491135820E-1,8.868541569E-3,-2.666732296E-2,-2.207850292E-2
8.511133150E-1,4.592484795E-3,-2.727818675E-2,-2.207850292E-2
8.531130480E-1,3.370754421E-3,-2.727818675E-2,-2.268936671E-2
8.551127810E-1,1.538158627E-3,-2.544559166E-2,-2.391109802E-2
8.571125140E-1,3.164281952E-4,-2.544559166E-2,-2.452196367E-2
8.591123140E-1,-2.127032727E-3,-2.544559166E-2,-2.391109802E-2
8.611120470E-1,-5.181358662E-3,-2.483472601E-2,-2.207850292E-2
8.631117800E-1,-5.181358662E-3,-2.422386222E-2,-2.330023423E-2
8.651115130E-1,-7.624819875E-3,-2.361299470E-2,-2.452196367E-2
8.671112460E-1,-1.067914627E-2,-2.422386222E-2,-2.513282932E-2
8.691109790E-1,-1.251174137E-2,-2.544559166E-2,-2.146763727E-2
8.711107120E-1,-1.434433740E-2,-2.605645731E-2,-2.268936671E-2
8.731104450E-1,-1.373347268E-2,-2.422386222E-2,-2.085677162E-2
8.751102450E-1,-1.495520305E-2,-2.422386222E-2,-2.207850292E-2
8.771099780E-1,-1.190087665E-2,-2.300213091E-2,-2.146763727E-2
8.791097110E-1,-1.495520305E-2,-2.605645731E-2,-1.902417652E-2
8.811094440E-1,-1.434433740E-2,-2.422386222E-2,-2.207850292E-2
8.831091770E-1,-1.678779721E-2,-2.727818675E-2,-1.902417652E-2
8.851089100E-1,-1.556606870E-2,-2.727818675E-2,-1.963504218E-2
8.871086430E-1,-1.617693342E-2,-2.666732296E-2,-1.902417652E-2
8.891084430E-1,-1.678779721E-2,-2.605645731E-2,-1.841331087E-2
8.911082430E-1,-1.312260702E-2,-2.239126526E-2,-1.780244708E-2
8.931079760E-1,-1.312260702E-2,-2.483472601E-2,-1.841331087E-2
8.951077090E-1,-1.373347268E-2,-2.605645731E-2,-1.596985012E-2
8.971074420E-1,-1.251174137E-2,-2.544559166E-2,-1.352638938E-2
8.991071750E-1,-1.312260702E-2,-2.422386222E-2,-1.291552372E-2
9.011069080E-1,-1.251174137E-2,-2.422386222E-2,-1.169379335E-2
9.031066410E-1,-8.846551180E-3,-2.666732296E-2,-1.291552372E-2
9.051064410E-1,-7.013954688E-3,-2.239126526E-2,-9.861197323E-3
9.071062410E-1,-8.235685527E-3,-2.605645731E-2,-8.639466949E-3
9.091059740E-1,-5.792224314E-3,-2.300213091E-2,-8.639466949E-3
9.111057070E-1,-7.013954688E-3,-2.239126526E-2,-9.861197323E-3
9.131054400E-1,-5.792224314E-3,-2.116953395E-2,-8.639466949E-3
9.151051730E-1,-6.403089501E-3,-2.055867016E-2,-8.028601296E-3
9.171049060E-1,-2.737898147E-3,-1.994780451E-2,-9.250332601E-3
9.191046390E-1,-9.053022950E-4,-1.872607507E-2,-4.974275362E-3
9.211045720E-1,-2.737898147E-3,-1.750434376E-2,-6.806871388E-3
9.231043050E-1,-3.348763334E-3,-1.628261432E-2,-5.585140549E-3
9.251040380E-1,-3.348763334E-3,-1.261742227E-2,-6.196006201E-3
9.271037710E-1,-3.959628753E-3,-1.139569096E-2,-8.028601296E-3
9.291035040E-1,-2.127032727E-3,-1.200655662E-2,-7.417736575E-3
9.311032370E-1,-3.348763334E-3,-1.078482624E-2,-5.585140549E-3
9.331029700E-1,-7.624819875E-3,-1.017396059E-2,-6.806871388E-3
9.351027030E-1,-4.570493475E-3,-7.730499841E-3,-8.028601296E-3
9.371025030E-1,-5.792224314E-3,-7.119634654E-3,-6.196006201E-3
9.391022360E-1,-7.624819875E-3,-4.065308254E-3,-8.639466949E-3
9.411019690E-1,-7.013954688E-3,-2.843577648E-3,-5.585140549E-3
9.431017020E-1,-7.013954688E-3,-1.621847274E-3,-7.417736575E-3
9.451014350E-1,-1.129001100E-2,2.107485052E-4,-6.806871388E-3
9.471011680E-1,-1.251174137E-2,4.486805294E-3,-6.806871388E-3
9.491009010E-1,-1.251174137E-2,5.097670481E-3,-6.806871388E-3
9.511006340E-1,-1.129001100E-2,7.541131694E-3,-5.585140549E-3
9.531004340E-1,-1.312260702E-2,6.930266507E-3,-8.639466949E-3
9.551002000E-1,-1.434433740E-2,9.373727255E-3,-8.639466949E-3
9.570999660E-1,-1.984212548E-2,1.181718800E-2,-6.196006201E-3
9.590997320E-1,-1.617693342E-2,1.303891838E-2,-6.806871388E-3
9.610994980E-1,-1.739866473E-2,1.609324478E-2,-8.028601296E-3
9.630992640E-1,-2.350731567E-2,1.670410857E-2,-8.639466949E-3
9.650990300E-1,-2.045298927E-2,2.159103192E-2,-1.047206298E-2
9.670987960E-1,-2.289645188E-2,1.853670552E-2,-8.028601296E-3
9.690986290E-1,-2.106385678E-2,2.036930062E-2,-6.806871388E-3
9.710983950E-1,-2.289645188E-2,2.220189758E-2,-8.028601296E-3
9.730981610E-1,-2.411818132E-2,2.220189758E-2,-6.806871388E-3
9.750979270E-1,-2.289645188E-2,2.525622398E-2,-8.639466949E-3
9.770976930E-1,-2.411818132E-2,2.464535832E-2,-8.028601296E-3
9.790974590E-1,-2.228558622E-2,2.708881907E-2,-9.250332601E-3
9.810970920E-1,-1.984212548E-2,2.647795528E-2,-8.639466949E-3
9.830969250E-1,-1.862039417E-2,3.014314547E-2,-9.250332601E-3
9.850967580E-1,-2.045298927E-2,2.892141603E-2,-8.639466949E-3
9.870965240E-1,-1.739866473E-2,3.014314547E-2,-8.028601296E-3
9.890962900E-1,-1.800952852E-2,2.953227982E-2,-9.861197323E-3
9.910960560E-1,-1.862039417E-2,2.831055038E-2,-9.250332601E-3
9.930958560E-1,-1.495520305E-2,2.831055038E-2,-8.639466949E-3
9.950956220E-1,-1.617693342E-2,3.075401112E-2,-5.585140549E-3
9.970953880E-1,-1.434433740E-2,3.075401112E-2,-5.585140549E-3
9.990952210E-1,-1.373347268E-2,2.769968472E-2,-7.417736575E-3
1.001094987E0,-1.312260702E-2,2.647795528E-2,-5.585140549E-3
1.003094753E0,-1.251174137E-2,2.586708777E-2,-5.585140549E-3
1.005094519E0,-1.373347268E-2,2.647795528E-2,-3.141680034E-3
1.007094285E0,-1.556606870E-2,2.525622398E-2,-5.585140549E-3
1.009094051E0,-1.739866473E-2,2.647795528E-2,-3.752545221E-3
1.011093817E0,-1.373347268E-2,2.525622398E-2,-4.974275362E-3
1.013093583E0,-1.495520305E-2,2.647795528E-2,-3.752545221E-3
1.015093383E0,-1.556606870E-2,2.403449267E-2,-2.530814614E-3
1.017093116E0,-1.862039417E-2,2.525622398E-2,-2.530814614E-3
1.019092849E0,-1.800952852E-2,2.281276323E-2,-6.982189952E-4
1.021092582E0,-1.739866473E-2,2.281276323E-2,-3.752545221E-3
1.023092315E0,-1.984212548E-2,2.159103192E-2,-6.982189952E-4
1.025092048E0,-1.678779721E-2,2.586708777E-2,-3.752545221E-3
1.027091781E0,-2.106385678E-2,1.914757118E-2,5.235115532E-4
1.029091514E0,-2.289645188E-2,1.975843683E-2,1.745242043E-3
1.031091314E0,-2.350731567E-2,1.975843683E-2,5.235115532E-4
1.033091047E0,-2.289645188E-2,1.914757118E-2,-8.735372830E-5
1.035090780E0,-2.533991262E-2,1.731497608E-2,5.235115532E-4
1.037090513E0,-2.350731567E-2,1.731497608E-2,1.745242043E-3
1.039090246E0,-2.350731567E-2,1.548238005E-2,2.356107347E-3
1.041089979E0,-2.533991262E-2,1.487151440E-2,4.799568094E-3
1.043089712E0,-2.778337337E-2,1.487151440E-2,2.356107347E-3
1.045089445E0,-2.961596847E-2,1.303891838E-2,2.966972534E-3
1.047089245E0,-2.961596847E-2,1.120632235E-2,2.966972534E-3
1.049088978E0,-2.961596847E-2,1.181718800E-2,3.577837721E-3
1.051088711E0,-3.022683412E-2,9.984591976E-3,2.356107347E-3
1.053088411E0,-3.144856542E-2,9.984591976E-3,4.799568094E-3
1.055088144E0,-3.328115866E-2,9.373727255E-3,3.577837721E-3
1.057087877E0,-3.511375561E-2,6.930266507E-3,6.021298934E-3
1.059087610E0,-3.450288996E-2,7.541131694E-3,1.745242043E-3
1.061087410E0,-3.511375561E-2,6.319400854E-3,4.799568094E-3
1.063087210E0,-3.877894580E-2,4.486805294E-3,2.966972534E-3
1.065086943E0,-3.938981146E-2,3.265074687E-3,4.799568094E-3
1.067086676E0,-3.694634885E-2,5.097670481E-3,4.188702907E-3
1.069086409E0,-3.816808388E-2,4.486805294E-3,2.966972534E-3
1.071086142E0,-3.938981146E-2,8.216137066E-4,4.188702907E-3
1.073085875E0,-4.122240841E-2,1.432479010E-3,5.410433281E-3
1.075085608E0,-4.122240841E-2,2.043344313E-3,1.134376740E-3
1.077085408E0,-4.122240841E-2,2.107485052E-4,1.745242043E-3
1.079085141E0,-4.244413599E-2,-1.621847274E-3,1.134376740E-3
1.081084874E0,-4.427673295E-2,-1.010982087E-3,4.188702907E-3
1.083084607E0,-4.549846798E-2,-1.621847274E-3,2.966972534E-3
1.085084340E0,-4.183327407E-2,-1.621847274E-3,-8.735372830E-5
1.087084073E0,-4.549846798E-2,-5.287038628E-3,-8.735372830E-5
1.089083806E0,-4.488759860E-2,-4.065308254E-3,-1.919949427E-3
1.091083539E0,-4.794192687E-2,-4.676173907E-3,-1.309084124E-3
1.093083339E0,-4.549846798E-2,-5.287038628E-3,-1.919949427E-3
1.095083072E0,-4.855279252E-2,-4.065308254E-3,-3.752545221E-3
1.097082805E0,-4.977452010E-2,-5.897903815E-3,-6.806871388E-3
1.099082538E0,-5.099625513E-2,-5.287038628E-3,-8.028601296E-3
1.101082271E0,-5.405057967E-2,-5.287038628E-3,-9.250332601E-3
1.103082004E0,-5.343971401E-2,-5.287038628E-3,-8.639466949E-3
1.105081737E0,-5.527230725E-2,-7.119634654E-3,-9.861197323E-3
1.107081470E0,-5.771576986E-2,-6.508769002E-3,-8.639466949E-3
1.109081270E0,-5.343971401E-2,-4.676173907E-3,-1.474811975E-2
1.111081003E0,-5.527230725E-2,-6.508769002E-3,-1.230465900E-2
1.113080736E0,-5.771576986E-2,-7.730499841E-3,-1.658071578E-2
1.115080469E0,-5.893750116E-2,-5.897903815E-3,-1.841331087E-2
1.117080202E0,-5.771576986E-2,-5.287038628E-3,-2.024590597E-2
1.119079935E0,-6.138096377E-2,-8.952230215E-3,-1.963504218E-2
1.121079668E0,-6.199182570E-2,-5.287038628E-3,-2.268936671E-2
1.123079401E0,-6.199182570E-2,-5.287038628E-3,-2.268936671E-2
1.125079201E0,-6.260269135E-2,-6.508769002E-3,-2.085677162E-2
1.127078934E0,-6.382442266E-2,-7.730499841E-3,-2.513282932E-2
1.129078667E0,-6.382442266E-2,-6.508769002E-3,-2.452196367E-2
1.131078400E0,-6.687874347E-2,-6.508769002E-3,-2.635455877E-2
1.133078133E0,-6.565701962E-2,-5.287038628E-3,-3.001975082E-2
1.135077866E0,-6.443528831E-2,-4.676173907E-3,-2.879801951E-2
1.137077599E0,-6.382442266E-2,-5.897903815E-3,-2.757629007E-2
1.139077399E0,-6.260269135E-2,-6.508769002E-3,-2.879801951E-2
1.141077199E0,-6.260269135E-2,-4.676173907E-3,-3.001975082E-2
1.143076932E0,-6.321355700E-2,-3.454443067E-3,-3.124148212E-2
1.145076665E0,-5.893750116E-2,-1.621847274E-3,-3.185234591E-2
1.147076398E0,-6.504614651E-2,-4.065308254E-3,-2.940888517E-2
1.149076131E0,-6.565701962E-2,-4.676173907E-3,-3.001975082E-2
1.151075864E0,-6.443528831E-2,-3.454443067E-3,-3.001975082E-2
1.153075597E0,-6.504614651E-2,-4.676173907E-3,-3.001975082E-2
1.155075397E0,-6.871134043E-2,-8.341364563E-3,-2.879801951E-2
1.157075197E0,-6.748961657E-2,-5.287038628E-3,-3.124148212E-2
1.159074963E0,-6.871134043E-2,-7.730499841E-3,-2.879801951E-2
1.161074729E0,-6.932221353E-2,-6.508769002E-3,-2.696542442E-2
1.163074495E0,-6.810048223E-2,-3.454443067E-3,-2.757629007E-2
1.165074261E0,-6.810048223E-2,-7.119634654E-3,-2.574369498E-2
1.167074027E0,-6.810048223E-2,-3.454443067E-3,-2.574369498E-2
1.169073793E0,-7.054393739E-2,-5.897903815E-3,-2.513282932E-2
1.171073626E0,-7.176566869E-2,-7.730499841E-3,-2.452196367E-2
1.173073426E0,-7.481999695E-2,-7.730499841E-3,-2.330023423E-2
1.175073226E0,-7.481999695E-2,-1.017396059E-2,-2.146763727E-2
1.177073026E0,-7.848519087E-2,-9.563094936E-3,-1.963504218E-2
1.179072826E0,-7.726345956E-2,-1.139569096E-2,-2.146763727E-2
1.181072626E0,-8.031778783E-2,-1.200655662E-2,-2.146763727E-2
1.183072426E0,-8.092865348E-2,-1.200655662E-2,-2.207850292E-2
1.185072226E0,-8.215038478E-2,-1.261742227E-2,-1.963504218E-2
1.187072092E0,-8.276124299E-2,-1.322828699E-2,-2.146763727E-2
1.189071958E0,-8.398298174E-2,-1.383915264E-2,-2.330023423E-2
1.191071824E0,-8.581557125E-2,-1.322828699E-2,-2.146763727E-2
1.193071690E0,-8.764816821E-2,-1.567174867E-2,-2.146763727E-2
1.195071556E0,-8.825903386E-2,-1.872607507E-2,-2.207850292E-2
1.197071422E0,-9.192422777E-2,-1.933693886E-2,-2.330023423E-2
1.199071288E0,-9.558941424E-2,-1.811520942E-2,-2.146763727E-2
1.201071154E0,-9.620027989E-2,-1.872607507E-2,-2.268936671E-2
1.203071087E0,-9.803287685E-2,-1.994780451E-2,-2.146763727E-2
1.205070953E0,-9.620027989E-2,-1.933693886E-2,-2.635455877E-2
1.207070819E0,-1.029198021E-1,-2.544559166E-2,-2.330023423E-2
1.209070685E0,-1.047523990E-1,-2.544559166E-2,-2.330023423E-2
1.211070551E0,-1.078067198E-1,-2.544559166E-2,-2.330023423E-2
1.213070417E0,-1.102501824E-1,-2.605645731E-2,-2.513282932E-2
1.215070283E0,-1.114719063E-1,-2.544559166E-2,-2.268936671E-2
1.217070149E0,-1.157479733E-1,-2.727818675E-2,-2.391109802E-2
1.219070049E0,-1.175805628E-1,-2.666732296E-2,-2.452196367E-2
1.221069882E0,-1.181914285E-1,-2.666732296E-2,-2.757629007E-2
1.223069715E0,-1.243000776E-1,-3.338684142E-2,-2.635455877E-2
1.225069548E0,-1.255218089E-1,-3.338684142E-2,-2.757629007E-2
1.227069381E0,-1.285761446E-1,-3.460856900E-2,-2.940888517E-2
1.229069214E0,-1.322413385E-1,-3.888462856E-2,-3.307407722E-2
1.231069047E0,-1.359065175E-1,-4.254981875E-2,-3.185234591E-2
1.233068913E0,-1.377391219E-1,-4.499327764E-2,-3.124148212E-2
1.235068779E0,-1.420151740E-1,-5.049106479E-2,-3.429580852E-2
1.237068579E0,-1.420151740E-1,-5.598885193E-2,-3.490667418E-2
1.239068379E0,-1.426260322E-1,-5.965404585E-2,-3.735013306E-2
1.241068179E0,-1.438477635E-1,-6.759528816E-2,-3.918272629E-2
1.243067945E0,-1.450695097E-1,-7.064961642E-2,-3.918272629E-2
1.245067745E0,-1.462912261E-1,-7.553654164E-2,-4.468051344E-2
1.247067545E0,-1.456803530E-1,-7.981260121E-2,-4.773484543E-2
1.249067345E0,-1.450695097E-1,-8.164519817E-2,-5.078916997E-2
1.251067078E0,-1.438477635E-1,-8.653212339E-2,-5.506522581E-2
1.253066811E0,-1.456803530E-1,-8.958644420E-2,-5.384349450E-2
1.255066544E0,-1.426260322E-1,-9.752769023E-2,-5.506522581E-2
1.257066277E0,-1.371282488E-1,-1.011928767E-1,-5.811955407E-2
1.259066010E0,-1.371282488E-1,-1.073015332E-1,-5.750868469E-2
1.261065743E0,-1.340739280E-1,-1.121884510E-1,-5.995214731E-2
1.263065476E0,-1.267435402E-1,-1.195188388E-1,-5.811955407E-2
1.265065276E0,-1.200240254E-1,-1.207405701E-1,-5.995214731E-2
1.267065009E0,-1.175805628E-1,-1.305144131E-1,-5.873041973E-2
1.269064742E0,-1.078067198E-1,-1.360122114E-1,-6.117387861E-2
1.271064475E0,-1.016980633E-1,-1.360122114E-1,-5.934128165E-2
1.273064208E0,-9.375681728E-2,-1.402882487E-1,-5.934128165E-2
1.275063941E0,-8.276124299E-2,-1.433425844E-1,-5.873041973E-2
1.277063674E0,-7.726345956E-2,-1.427317262E-1,-5.934128165E-2
1.279063407E0,-6.504614651E-2,-1.415099949E-1,-5.995214731E-2
1.281063207E0,-5.710490420E-2,-1.457860470E-1,-5.873041973E-2
1.283062940E0,-5.160711706E-2,-1.457860470E-1,-5.995214731E-2
1.285062673E0,-4.305500537E-2,-1.463969052E-1,-5.995214731E-2
1.287062406E0,-3.328115866E-2,-1.457860470E-1,-5.811955407E-2
1.289062139E0,-2.778337337E-2,-1.445643157E-1,-6.056301296E-2
1.291061872E0,-1.923125982E-2,-1.476186365E-1,-5.995214731E-2
1.293061605E0,-1.251174137E-2,-1.476186365E-1,-5.689782277E-2
1.295061338E0,-6.403089501E-3,-1.433425844E-1,-5.567609146E-2
1.297061138E0,2.149024047E-3,-1.366230547E-1,-5.262176692E-2
1.299060871E0,1.253373362E-2,-1.299035549E-1,-5.017830431E-2
1.301060604E0,1.497719344E-2,-1.262383610E-1,-4.956743866E-2
1.303060370E0,2.414017357E-2,-1.207405701E-1,-4.773484543E-2
1.305060103E0,3.391401842E-2,-1.207405701E-1,-4.590224847E-2
1.307059836E0,3.819007427E-2,-1.201297045E-1,-4.468051344E-2
1.309059569E0,4.307699576E-2,-1.201297045E-1,-4.406965151E-2
1.311059369E0,4.796391726E-2,-1.195188388E-1,-4.406965151E-2
1.313059169E0,5.529430136E-2,-1.195188388E-1,-4.284792021E-2
1.315058902E0,6.262468547E-2,-1.195188388E-1,-4.162618890E-2
1.317058635E0,7.117679715E-2,-1.213514358E-1,-4.284792021E-2
1.319058368E0,7.789631933E-2,-1.201297045E-1,-4.345878586E-2
1.321058101E0,8.828102052E-2,-1.189079732E-1,-4.468051344E-2
1.323057834E0,9.500054270E-2,-1.213514358E-1,-4.406965151E-2
1.325057567E0,1.102721691E-1,-1.164645180E-1,-4.956743866E-2
1.327057367E0,1.157699600E-1,-1.170753762E-1,-4.834570736E-2
1.329057167E0,1.261546761E-1,-1.152427793E-1,-4.956743866E-2
1.331056900E0,1.383719742E-1,-1.134101897E-1,-5.017830431E-2
1.333056633E0,1.524218768E-1,-1.121884510E-1,-5.323263258E-2
1.335056366E0,1.603631228E-1,-1.121884510E-1,-5.262176692E-2
1.337056099E0,1.780782193E-1,-1.127993241E-1,-5.567609146E-2
1.339055832E0,1.902955174E-1,-1.146319211E-1,-5.506522581E-2
1.341055565E0,2.012910992E-1,-1.140210479E-1,-6.056301296E-2
1.343055365E0,2.208387703E-1,-1.152427793E-1,-5.995214731E-2
1.345055098E0,2.385538816E-1,-1.170753762E-1,-6.056301296E-2
1.347054831E0,2.495494485E-1,-1.182971150E-1,-6.178474426E-2
1.349054564E0,2.721514702E-1,-1.170753762E-1,-6.361734122E-2
1.351054297E0,2.965860665E-1,-1.176862419E-1,-6.544993818E-2
1.353054030E0,3.063599169E-1,-1.189079732E-1,-6.667166948E-2
1.355053763E0,3.350705802E-1,-1.158536449E-1,-7.094772160E-2
1.357053496E0,3.478987515E-1,-1.140210479E-1,-7.033686340E-2
1.359053296E0,3.753876984E-1,-1.158536449E-1,-8.377589285E-2
1.361053029E0,4.022657573E-1,-1.109667271E-1,-8.499761671E-2
1.363052762E0,4.175373912E-1,-1.066906676E-1,-8.988454193E-2
1.365052495E0,4.468589127E-1,-9.936027974E-2,-9.721492976E-2
1.367052228E0,4.761804640E-1,-8.714298159E-2,-1.027127132E-1
1.369051961E0,4.914520979E-1,-7.736913860E-2,-1.075996384E-1
1.371051694E0,5.219953656E-1,-6.026491150E-2,-1.143191531E-1
1.373051427E0,5.519277453E-1,-4.132808745E-2,-1.240929961E-1
1.375051227E0,5.629233122E-1,-2.788905427E-2,-1.271473169E-1
1.377050960E0,5.910231471E-1,-4.065308254E-3,-1.405863613E-1
1.379050693E0,6.179012060E-1,1.670410857E-2,-1.546362638E-1
1.381050426E0,6.295076013E-1,2.525622398E-2,-1.589123160E-1
1.383050159E0,6.502770185E-1,4.419304803E-2,-1.772382855E-1
1.385049892E0,6.759334207E-1,6.496246159E-2,-1.937316507E-1
1.387049625E0,6.832637787E-1,6.984938681E-2,-1.998402923E-1
1.389049358E0,7.070875168E-1,9.000794590E-2,-2.175553739E-1
1.391049158E0,7.296895385E-1,1.083339006E-1,-2.346596122E-1
1.393048891E0,7.364090681E-1,1.181077436E-1,-2.389356643E-1
1.395048624E0,7.571784854E-1,1.400988996E-1,-2.566507459E-1
1.397048357E0,7.755044103E-1,1.578139812E-1,-2.670354545E-1
1.399048090E0,7.864999771E-1,1.633117646E-1,-2.725332677E-1
1.401047823E0,8.060476780E-1,1.767508090E-1,-2.792527676E-1
1.403047556E0,8.152107000E-1,1.840811968E-1,-2.853614092E-1
1.405047356E0,8.353692293E-1,1.920224279E-1,-2.884157300E-1
1.407047156E0,8.549169302E-1,1.926333010E-1,-2.963570058E-1
1.409046889E0,8.622472882E-1,1.932441741E-1,-2.981896102E-1
1.411046622E0,8.775188923E-1,1.846920401E-1,-2.969678640E-1
1.413046355E0,8.934014440E-1,1.743073463E-1,-3.012439311E-1
1.415046255E0,9.025644064E-1,1.694204211E-1,-3.042982519E-1
1.417045988E0,9.178360105E-1,1.578139812E-1,-3.189590275E-1
1.419045721E0,9.367728233E-1,1.449858099E-1,-3.275111318E-1
1.421045521E0,9.416598082E-1,1.346011013E-1,-3.293437064E-1
1.423045254E0,9.624292254E-1,1.168860123E-1,-3.305654526E-1
1.425044987E0,9.801442623E-1,1.034469754E-1,-3.293437064E-1
1.427044720E0,9.880855083E-1,9.367313236E-2,-3.275111318E-1
1.429044453E0,1.001524568E0,6.740592420E-2,-3.317871690E-1
1.431044186E0,1.011909246E0,4.113871977E-2,-3.385067284E-1
1.433043919E0,1.020461321E0,2.831055038E-2,-3.415610492E-1
1.435043652E0,1.035732985E0,8.762862533E-3,-3.470588028E-1
1.437043452E0,1.045506835E0,-2.843577648E-3,-3.537783325E-1
1.439043185E0,1.055280805E0,-6.508769002E-3,-3.598870039E-1
1.441042918E0,1.074217558E0,-7.119634654E-3,-3.672173619E-1
1.443042651E0,1.096208572E0,-7.730499841E-3,-3.751586080E-1
1.445042384E0,1.107815027E0,-3.454443067E-3,-3.843216002E-1
1.447042117E0,1.127973676E0,-5.897903815E-3,-3.910411000E-1
1.449041850E0,1.137136579E0,-2.843577648E-3,-3.995932341E-1
1.451041583E0,1.167679906E0,-1.621847274E-3,-4.099779427E-1
1.453041416E0,1.198833942E0,1.059545763E-2,-4.234169722E-1
1.455041149E0,1.221436024E0,1.487151440E-2,-4.325799644E-1
1.457040882E0,1.267251015E0,3.319747001E-2,-4.496841729E-1
1.459040615E0,1.316120148E0,4.602564126E-2,-4.667883813E-1
1.461040348E0,1.343609095E0,5.396688730E-2,-4.777839780E-1
1.463040081E0,1.404695630E0,6.496246159E-2,-4.936664701E-1
1.465039814E0,1.473112583E0,9.061880410E-2,-5.107706785E-1
1.467039547E0,1.509153605E0,1.058904380E-1,-5.193228126E-1
1.469039347E0,1.587344408E0,1.431532204E-1,-5.388704538E-1
1.471039080E0,1.666146040E0,1.791942567E-1,-5.626942515E-1
1.473038813E0,1.697910905E0,1.834703237E-1,-5.730789900E-1
1.475038379E0,1.757164955E0,1.681986898E-1,-6.091200113E-1
1.477038112E0,1.796260238E0,1.193294674E-1,-6.457719207E-1
1.479037845E0,1.813975334E0,9.000794590E-2,-6.689848304E-1
1.481037578E0,1.829857826E0,2.159103192E-2,-7.141888142E-1
1.483037378E0,1.835966468E0,-3.644116595E-2,-7.746644616E-1
1.485037178E0,1.837188244E0,-5.598885193E-2,-8.100946546E-1
1.487036911E0,1.834133863E0,-7.859086245E-2,-8.846202493E-1
1.489036644E0,1.823138356E0,-8.103433251E-2,-9.634218812E-1
1.491036377E0,1.817640543E0,-7.003875822E-2,-1.007404089E0
1.493036143E0,1.812142730E0,-2.849991806E-2,-1.092925310E0
1.495035876E0,1.814586163E0,-4.001167545E-4,-1.136296749E0
1.497035609E0,1.823749185E0,5.946467444E-2,-1.223039508E0
1.499035409E0,1.816418767E0,1.156642735E-1,-1.306117177E0
1.501035142E0,1.808477521E0,1.449858099E-1,-1.343379974E0
1.503034875E0,1.780988693E0,1.828594506E-1,-1.395303607E0
1.505034608E0,1.732730269E0,1.926333010E-1,-1.432566404E0
1.507034341E0,1.696689248E0,1.810268611E-1,-1.444783688E0
1.509034074E0,1.622774482E0,1.535379142E-1,-1.460055351E0
1.511033807E0,1.538475156E0,1.162751466E-1,-1.471050858E0
1.513033507E0,1.498157978E0,9.917092323E-2,-1.475326896E0
1.515033307E0,1.416302085E0,8.328842372E-2,-1.480213881E0
1.517033040E0,1.347885132E0,7.534717768E-2,-1.478381276E0
1.519032773E0,1.316120148E0,7.473630458E-2,-1.475937724E0
1.521032506E0,1.256866217E0,8.023409545E-2,-1.469829082E0
1.523032239E0,1.203720927E0,7.901236415E-2,-1.457000971E0
1.525031972E0,1.175621271E0,7.717977464E-2,-1.447227120E0
1.527031705E0,1.123697639E0,7.412543893E-2,-1.429512143E0
1.529031438E0,1.078493476E0,6.374073774E-2,-1.409964323E0
1.531031238E0,1.056502461E0,5.396688730E-2,-1.398968697E0
1.533030971E0,1.013741851E0,3.869526088E-2,-1.373312354E0
1.535030704E0,9.734247327E-1,2.159103192E-2,-1.344601750E0
1.537030437E0,9.514335990E-1,9.373727255E-3,-1.329330087E0
1.539030170E0,9.178360105E-1,-1.261742227E-2,-1.297565222E0
1.541029903E0,9.043969512E-1,-2.727818675E-2,-1.278017402E0
1.543029636E0,8.909579515E-1,-6.148663908E-2,-1.240754604E0
1.545029369E0,8.885144591E-1,-9.141903371E-2,-1.203491926E0
1.547029169E0,8.866819143E-1,-1.091341302E-1,-1.189442039E0
1.549028902E0,8.958448768E-1,-1.482295096E-1,-1.161952972E0
1.551028635E0,9.123382568E-1,-1.787727624E-1,-1.135074973E0
1.553028335E0,9.227229357E-1,-1.958770007E-1,-1.123468518E0
1.555028068E0,9.434923530E-1,-2.129812092E-1,-1.100255609E0
1.557027801E0,9.679269791E-1,-2.306963205E-1,-1.076431870E0
1.559027534E0,9.764790535E-1,-2.429136187E-1,-1.067268968E0
1.561027334E0,1.008854866E0,-2.667373717E-1,-1.050775647E0
1.563027134E0,1.033289552E0,-2.893393934E-1,-1.040390849E0
1.565026867E0,1.046117663E0,-3.021675348E-1,-1.037336588E0
1.567026600E0,1.055280805E0,-3.351542652E-1,-1.026951790E0
1.569026333E0,1.068719745E0,-3.754713833E-1,-1.022064924E0
1.571026066E0,1.072995901E0,-3.962407708E-1,-1.019621491E0
1.573025799E0,1.069941521E0,-4.469425976E-1,-1.011680126E0
1.575025532E0,1.065665364E0,-5.043639541E-1,-1.000684619E0
1.577025332E0,1.062611103E0,-5.281876922E-1,-9.945759773E-1
1.579025132E0,1.055280805E0,-5.740025640E-1,-9.866347313E-1
1.581024898E0,1.051615477E0,-6.185957789E-1,-9.841912985E-1
1.583024664E0,1.051004648E0,-6.344782710E-1,-9.719739556E-1
1.585024430E0,1.050393820E0,-6.692975760E-1,-9.591457844E-1
1.587024196E0,1.051004648E0,-6.821257472E-1,-9.505937099E-1
1.589023962E0,1.053448081E0,-7.083929181E-1,-9.389872551E-1
1.591023728E0,1.055280805E0,-7.389362454E-1,-9.218829870E-1
1.593023561E0,1.057113290E0,-7.523752451E-1,-9.169961214E-1
1.595023327E0,1.055891633E0,-7.792533040E-1,-9.023353457E-1
1.597023093E0,1.043674350E0,-8.146834970E-1,-8.907288909E-1
1.599022859E0,1.037565708E0,-8.336203098E-1,-8.858419657E-1
1.601022625E0,1.022904873E0,-8.592766523E-1,-8.748463988E-1
1.603022391E0,1.003357172E0,-8.855438828E-1,-8.656834364E-1
1.605022157E0,9.929724932E-1,-8.995937705E-1,-8.614073396E-1
1.607021923E0,9.660943747E-1,-9.160870910E-1,-8.534661531E-1
1.609021756E0,9.373837113E-1,-9.301370382E-1,-8.461357355E-1
1.611021522E0,9.178360105E-1,-9.350239038E-1,-8.473573923E-1
1.613021288E0,8.811841011E-1,-9.472412467E-1,-8.418596983E-1
1.615021054E0,8.469756246E-1,-9.533498883E-1,-8.381944299E-1
1.617020820E0,8.237627745E-1,-9.557933211E-1,-8.302532434E-1
1.619020586E0,7.889434695E-1,-9.447978139E-1,-8.235337138E-1
1.621020352E0,7.461829185E-1,-9.319695830E-1,-8.198685050E-1
1.623020118E0,7.278569341E-1,-9.289152622E-1,-8.186467886E-1
1.625019951E0,6.905941963E-1,-9.075350165E-1,-8.198685050E-1
1.627019717E0,6.649377942E-1,-9.099784493E-1,-8.162032962E-1
1.629019483E0,6.325619221E-1,-8.806568980E-1,-8.155924678E-1
1.631019249E0,5.946882963E-1,-8.604983687E-1,-8.058186173E-1
1.633019015E0,5.726971626E-1,-8.440049887E-1,-7.978773713E-1
1.635018781E0,5.452082753E-1,-8.140726089E-1,-7.899361253E-1
1.637018547E0,5.207736492E-1,-7.780315280E-1,-7.789405584E-1
1.639018313E0,5.103889108E-1,-7.645925283E-1,-7.783296704E-1
1.641018113E0,4.951172769E-1,-7.316058278E-1,-7.697775960E-1
1.643017846E0,4.828999639E-1,-7.059494853E-1,-7.612254620E-1
1.645017579E0,4.749587178E-1,-6.888452768E-1,-7.545059323E-1
1.647017312E0,4.694609344E-1,-6.595237255E-1,-7.441211939E-1
1.649017045E0,4.627414346E-1,-6.326456070E-1,-7.312930226E-1
1.651016778E0,4.615196884E-1,-6.247044206E-1,-7.233518362E-1
1.653016511E0,4.548001587E-1,-6.014915109E-1,-7.172431350E-1
1.655016311E0,4.523567259E-1,-5.831655860E-1,-7.086910605E-1
1.657016111E0,4.468589127E-1,-5.764460564E-1,-7.031932473E-1
1.659015844E0,4.425828457E-1,-5.623961091E-1,-6.952520013E-1
1.661015577E0,4.413611591E-1,-5.532331467E-1,-6.842564344E-1
1.663015310E0,4.383068383E-1,-5.489571095E-1,-6.763151884E-1
1.665015043E0,4.346416295E-1,-5.379615426E-1,-6.567674875E-1
1.667014776E0,4.297547042E-1,-5.275768638E-1,-6.414958239E-1
1.669014509E0,4.242568910E-1,-5.226898789E-1,-6.378306746E-1
1.671014309E0,4.126504958E-1,-5.220790505E-1,-6.274459958E-1
1.673014042E0,4.059309363E-1,-5.257441998E-1,-6.262242198E-1
1.675013775E0,3.918810487E-1,-5.318529010E-1,-6.164503694E-1
1.677013508E0,3.772202730E-1,-5.287985802E-1,-6.085091829E-1
1.679013241E0,3.698898852E-1,-5.281876922E-1,-6.005678773E-1
1.681012974E0,3.533965349E-1,-5.214682221E-1,-5.852962732E-1
1.683012707E0,3.424009681E-1,-5.086399913E-1,-5.681920052E-1
1.685012540E0,3.387357891E-1,-5.037530661E-1,-5.614725351E-1
1.687012340E0,3.234641552E-1,-4.927574992E-1,-5.413139462E-1
1.689012073E0,3.124685585E-1,-4.823727906E-1,-5.229879618E-1
1.691011806E0,3.088033795E-1,-4.738206863E-1,-5.132141709E-1
1.693011539E0,2.959752083E-1,-4.616033733E-1,-4.906121492E-1
1.695011272E0,2.868122160E-1,-4.542729855E-1,-4.649558067E-1
1.697011005E0,2.825361490E-1,-4.444991350E-1,-4.533493519E-1
1.699010738E0,2.684862614E-1,-4.335035682E-1,-4.270821512E-1
1.701010471E0,2.544363737E-1,-4.280057847E-1,-3.977606297E-1
1.703010271E0,2.477168590E-1,-4.267840683E-1,-3.818781376E-1
1.705010004E0,2.397755980E-1,-4.212862849E-1,-3.501131237E-1
1.707009737E0,2.251148373E-1,-4.176211059E-1,-3.183481395E-1
1.709009470E0,2.232822478E-1,-4.163993597E-1,-3.079634309E-1
1.711009203E0,2.128975391E-1,-4.047929049E-1,-2.816962302E-1
1.713008936E0,1.988476217E-1,-3.986842632E-1,-2.511529624E-1
1.715008669E0,1.939607114E-1,-3.895212710E-1,-2.371030748E-1
1.717008402E0,1.835760027E-1,-3.748604953E-1,-2.108358592E-1
1.719008202E0,1.756347567E-1,-3.711953163E-1,-1.961750984E-1
1.721007935E0,1.634174436E-1,-3.559236825E-1,-1.680753082E-1
1.723007668E0,1.432588995E-1,-3.424846530E-1,-1.363103092E-1
1.725007401E0,1.365393847E-1,-3.314890862E-1,-1.198169440E-1
1.727007134E0,1.188242882E-1,-3.113305271E-1,-8.744108677E-2
1.729006867E0,9.561140090E-2,-2.936154604E-1,-5.567609146E-2
1.731006600E0,8.461582661E-2,-2.826198637E-1,-3.979359567E-2
1.733006400E0,5.895949155E-2,-2.587961257E-1,-8.639466949E-3
1.735006200E0,3.513574600E-2,-2.374158353E-1,2.129293047E-2
1.737005933E0,2.352930792E-2,-2.197007388E-1,3.717542812E-2
1.739005666E0,2.759889234E-3,-1.983204484E-1,6.710782647E-2
1.741005399E0,-2.106385678E-2,-1.726641059E-1,9.581848979E-2
1.743005132E0,-3.083769977E-2,-1.647228748E-1,1.110901162E-1
1.745004765E0,-4.733106121E-2,-1.439534426E-1,1.355247349E-1
1.747004498E0,-7.420913130E-2,-1.286818236E-1,1.672897190E-1
1.749004298E0,-8.276124299E-2,-1.189079732E-1,1.782853007E-1
1.751004031E0,-9.986547381E-2,-1.011928767E-1,2.014981806E-1
1.753003764E0,-1.139153764E-1,-8.775384724E-2,2.283762544E-1
1.755003497E0,-1.181914285E-1,-8.225605637E-2,2.393718213E-1
1.757003230E0,-1.261326820E-1,-6.270837039E-2,2.638064325E-1
1.759002963E0,-1.255218089E-1,-4.682587460E-2,2.827432454E-1
1.761002696E0,-1.267435402E-1,-3.399770334E-2,2.949605584E-1
1.763002429E0,-1.218566224E-1,-1.750434376E-2,3.126756549E-1
1.765002229E0,-1.194131598E-1,-8.952230215E-3,3.242821097E-1
1.767001962E0,-1.078067198E-1,1.242805365E-2,3.395537138E-1
1.769001695E0,-9.436768293E-2,3.136487678E-2,3.603231609E-1
1.771001428E0,-8.948076516E-2,4.174958542E-2,3.731513023E-1
1.773001161E0,-7.481999695E-2,5.824294686E-2,3.914772570E-1
1.775000894E0,-6.077009439E-2,7.717977464E-2,4.153010249E-1
1.777000627E0,-5.588317662E-2,8.145582676E-2,4.256857336E-1
1.779000360E0,-4.916365817E-2,9.184053540E-2,4.470660090E-1
1.781000160E0,-4.000068083E-2,1.016143784E-1,4.696680307E-1
1.782999893E0,-3.816808388E-2,1.003926471E-1,4.818853140E-1
1.784999626E0,-3.205942735E-2,1.040578410E-1,5.026547313E-1
1.786999359E0,-3.144856542E-2,9.367313236E-2,5.246458650E-1
1.788999092E0,-3.022683412E-2,9.000794590E-2,5.344197154E-1
1.790998825E0,-2.900510468E-2,8.206668496E-2,5.570217371E-1
1.792998558E0,-2.961596847E-2,6.923852116E-2,5.777911544E-1
1.794998291E0,-3.022683412E-2,6.190813705E-2,5.869541764E-1
1.796998091E0,-3.144856542E-2,5.091256276E-2,6.107779145E-1
1.798997824E0,-3.328115866E-2,3.747352958E-2,6.309364438E-1
1.800997557E0,-3.572462127E-2,3.380833939E-2,6.413211823E-1
1.802997290E0,-4.305500537E-2,2.647795528E-2,6.633123159E-1
1.804997023E0,-4.855279252E-2,2.159103192E-2,6.791948080E-1
1.806996756E0,-5.893750116E-2,1.792583987E-2,6.944664121E-1
1.808996489E0,-6.810048223E-2,1.792583987E-2,7.146250010E-1
1.810996289E0,-7.481999695E-2,1.548238005E-2,7.225662470E-1
1.812996089E0,-8.886989951E-2,1.670410857E-2,7.445573807E-1
1.814995855E0,-1.078067198E-1,1.914757118E-2,7.671594024E-1
1.816995588E0,-1.188022941E-1,2.403449267E-2,7.787657976E-1
1.818995321E0,-1.456803530E-1,4.052785411E-2,8.001461029E-1
1.820995054E0,-1.743910313E-1,6.007554382E-2,8.190829754E-1
1.822994787E0,-1.878300607E-1,7.717977464E-2,8.270241618E-1
1.824994520E0,-2.226493806E-1,1.003926471E-1,8.477935791E-1
1.826994320E0,-2.476948500E-1,1.119990945E-1,8.636760712E-1
1.828994120E0,-2.623556256E-1,1.168860123E-1,8.722282052E-1
1.830993853E0,-2.843467593E-1,1.205511987E-1,8.862781525E-1
1.832993586E0,-2.953423560E-1,1.205511987E-1,8.917759061E-1
1.834993319E0,-2.990075350E-1,1.138316840E-1,8.929976225E-1
1.836993052E0,-2.971749604E-1,9.000794590E-2,8.966628313E-1
1.838992785E0,-2.916771472E-1,5.763208121E-2,8.917759061E-1
1.840992518E0,-2.831250429E-1,4.113871977E-2,8.844454885E-1
1.842992318E0,-2.605230510E-1,-4.001167545E-4,8.728390932E-1
1.844992051E0,-2.275363058E-1,-4.560414329E-2,8.465719223E-1
1.846991784E0,-2.110429555E-1,-6.759528816E-2,8.319111466E-1
1.848991517E0,-1.695041060E-1,-1.115775928E-1,8.019787073E-1
1.850991250E0,-1.212457567E-1,-1.555598974E-1,7.598290443E-1
1.852990983E0,-9.497855604E-2,-1.769401729E-1,7.378379107E-1
1.854990716E0,-4.366587102E-2,-2.282528579E-1,6.859142780E-1
1.856990449E0,-1.556606870E-2,-2.490222752E-1,6.559819579E-1
1.858990249E0,3.880093619E-2,-2.917828262E-1,5.991714597E-1
1.860989982E0,8.217237145E-2,-3.314890862E-1,5.478587747E-1
1.862989715E0,1.017200649E-1,-3.492041528E-1,5.228133202E-1
1.864989448E0,1.402045786E-1,-3.791365623E-1,4.800527394E-1
1.866989181E0,1.585305333E-1,-4.102907181E-1,4.525637925E-1
1.868988914E0,1.744130254E-1,-4.225080013E-1,4.366813004E-1
1.870988647E0,1.896846443E-1,-4.536621273E-1,4.140792787E-1
1.872988380E0,2.098432034E-1,-4.732097983E-1,3.988076448E-1
1.874988146E0,2.190061808E-1,-4.848162532E-1,3.908663988E-1
1.876987879E0,2.489385903E-1,-4.945900738E-1,3.749839067E-1
1.878987612E0,2.825361490E-1,-5.013096333E-1,3.584905267E-1
1.880987345E0,3.020838499E-1,-5.025313497E-1,3.511601686E-1
1.882987078E0,3.338488340E-1,-4.933683872E-1,3.310016096E-1
1.884986811E0,3.564508557E-1,-4.591599107E-1,3.096213341E-1
1.886986544E0,3.643921316E-1,-4.335035682E-1,2.998474836E-1
1.888986277E0,3.576726019E-1,-3.748604953E-1,2.784672081E-1
1.890986077E0,3.246858716E-1,-3.052218556E-1,2.601412237E-1
1.892985810E0,2.990295291E-1,-2.740677595E-1,2.497565299E-1
1.894985543E0,2.263365686E-1,-2.306963205E-1,2.393718213E-1
1.896985276E0,1.365393847E-1,-1.916009337E-1,2.399826795E-1
1.898985009E0,8.400496840E-2,-1.763292998E-1,2.442587465E-1
1.900984742E0,-1.495520305E-2,-1.500620991E-1,2.570869029E-1
1.902984475E0,-6.871134043E-2,-1.366230547E-1,2.680824995E-1
1.904984275E0,-1.585085243E-1,-9.936027974E-2,2.943497002E-1
1.906984075E0,-2.336449623E-1,-6.393010169E-2,3.316124976E-1
1.908983808E0,-2.654099464E-1,-4.804760590E-2,3.566579521E-1
1.910983541E0,-3.155009151E-1,-2.239126526E-2,4.006402493E-1
1.912983274E0,-3.527636826E-1,-2.843577648E-3,4.550072551E-1
1.914983007E0,-3.607049286E-1,2.107485052E-4,4.818853140E-1
1.916982740E0,-3.759765625E-1,8.151996881E-3,5.405283570E-1
1.918982473E0,-3.784200251E-1,5.097670481E-3,6.034474969E-1
1.920982273E0,-3.771983087E-1,5.097670481E-3,6.352125406E-1
1.922982006E0,-3.710896373E-1,-1.010982087E-3,6.993533373E-1
1.924981706E0,-3.600940406E-1,3.265074687E-3,7.634941936E-1
1.926981439E0,-3.594832122E-1,-1.010982087E-3,7.958700657E-1
1.928981172E0,-3.429898322E-1,3.265074687E-3,8.520696163E-1
1.930980905E0,-3.185552359E-1,5.097670481E-3,9.088801146E-1
1.932980638E0,-3.063379228E-1,7.541131694E-3,9.339255691E-1
1.934980371E0,-2.825141847E-1,2.403449267E-2,9.815731049E-1
1.936980171E0,-2.593013048E-1,3.991698846E-2,1.029831409E0
1.938979904E0,-2.446405292E-1,5.579948425E-2,1.051211834E0
1.940979637E0,-2.140972763E-1,8.267755806E-2,1.085420132E0
1.942979370E0,-1.835540235E-1,1.119990945E-1,1.115352511E0
1.944979103E0,-1.664497852E-1,1.309359074E-1,1.126348138E0
1.946978836E0,-1.346847862E-1,1.584248543E-1,1.149561048E0
1.948978569E0,-1.200240254E-1,1.681986898E-1,1.157502294E0
1.950978302E0,-9.558941424E-2,1.810268611E-1,1.166665316E0
1.952978102E0,-8.031778783E-2,1.804160029E-1,1.177049875E0
1.954977835E0,-7.665259391E-2,1.785833985E-1,1.181326032E0
1.956977568E0,-7.848519087E-2,1.559813917E-1,1.180104256E0
1.958977301E0,-1.053632572E-1,1.187186018E-1,1.180104256E0
1.960977034E0,-1.279652715E-1,9.367313236E-2,1.172163129E0
1.962976767E0,-1.798888296E-1,3.441920131E-2,1.159334898E0
1.964976500E0,-2.470840067E-1,-3.705203161E-2,1.137954593E0
1.966976233E0,-2.867902219E-1,-7.126048207E-2,1.123904705E0
1.968976033E0,-3.686461747E-1,-1.396774054E-1,1.095193982E0
1.970975766E0,-4.578325152E-1,-2.013747841E-1,1.064650774E0
1.972975499E0,-4.975387454E-1,-2.251985371E-1,1.048768282E0
1.974975232E0,-5.769512057E-1,-2.587961257E-1,1.020057559E0
1.976974965E0,-6.490333080E-1,-2.795655131E-1,9.876817465E-1
1.978974698E0,-6.844635010E-1,-2.868959010E-1,9.724100828E-1
1.980974431E0,-7.522695065E-1,-2.930045724E-1,9.436994791E-1
1.982974231E0,-8.054148555E-1,-2.923937142E-1,9.210973978E-1
1.984974064E0,-8.286277056E-1,-2.881176472E-1,9.039932489E-1
1.986973830E0,-8.799403906E-1,-2.826198637E-1,8.899433017E-1
1.988973596E0,-9.220901132E-1,-2.667373717E-1,8.728390932E-1
1.990973362E0,-9.404160976E-1,-2.618504465E-1,8.685630560E-1
1.992973128E0,-9.630180597E-1,-2.416918874E-1,8.539022803E-1
1.994972894E0,-9.770680070E-1,-2.355832309E-1,8.484044671E-1
1.996972660E0,-9.905070066E-1,-2.190898806E-1,8.367980123E-1
1.998972493E0,-9.953939319E-1,-2.038182318E-1,8.288568258E-1
2.000972259E0,-1.000280857E0,-2.007639110E-1,8.239698410E-1
2.002972025E0,-9.984482527E-1,-1.824379563E-1,8.044221997E-1
2.004971791E0,-9.850091934E-1,-1.610576808E-1,7.909831405E-1
2.006971557E0,-9.795114398E-1,-1.604468077E-1,7.854853272E-1
2.008971323E0,-9.575202465E-1,-1.506729722E-1,7.757114768E-1
2.010971089E0,-9.184249043E-1,-1.299035549E-1,7.696028352E-1
2.012970855E0,-8.982663751E-1,-1.146319211E-1,7.702137232E-1
2.014970688E0,-8.408450484E-1,-7.981260121E-2,7.763223648E-1
2.016970454E0,-7.870888710E-1,-5.232366174E-2,7.867071033E-1
2.018970220E0,-7.608216405E-1,-3.949549049E-2,7.958700657E-1
2.020969986E0,-7.095089555E-1,-1.506088302E-2,8.074765205E-1
2.022969752E0,-6.624723673E-1,7.541131694E-3,8.221372962E-1
2.024969518E0,-6.404811740E-1,1.792583987E-2,8.258024454E-1
2.026969284E0,-5.983315110E-1,3.930612653E-2,8.380197883E-1
2.028969050E0,-5.592361689E-1,5.641034991E-2,8.514587879E-1
2.030968883E0,-5.433536172E-1,6.007554382E-2,8.600109220E-1
2.032968649E0,-5.042582750E-1,7.290370762E-2,8.728390932E-1
2.034968415E0,-4.669954777E-1,9.000794590E-2,8.850563765E-1
2.036968181E0,-4.559999108E-1,9.550572932E-2,8.911650181E-1
2.038967947E0,-4.211806059E-1,1.199403405E-1,9.003279805E-1
2.040967713E0,-4.077415466E-1,1.291033179E-1,9.052149653E-1
2.042967479E0,-3.802526295E-1,1.547596604E-1,9.039932489E-1
2.044967245E0,-3.515419662E-1,1.859137863E-1,8.966628313E-1
2.046967045E0,-3.436007202E-1,1.987419575E-1,8.948302269E-1
2.048966778E0,-3.167226315E-1,2.360047251E-1,8.783368468E-1
2.050966511E0,-2.959532142E-1,2.854848206E-1,8.563457131E-1
2.052966244E0,-2.837359011E-1,3.105303049E-1,8.422958255E-1
2.054965977E0,-2.690751255E-1,3.416844308E-1,8.166394830E-1
2.056965710E0,-2.391427457E-1,3.887210488E-1,7.983135581E-1
2.058965443E0,-2.250928432E-1,4.149882495E-1,7.946482897E-1
2.060965243E0,-2.000473738E-1,4.473640919E-1,7.812092900E-1
2.062965043E0,-2.085994929E-1,4.259838164E-1,7.610507011E-1
2.064964776E0,-2.183733433E-1,4.101013243E-1,7.488334179E-1
2.066964509E0,-2.391427457E-1,3.905536532E-1,7.250096798E-1
2.068964242E0,-2.617447376E-1,3.899427652E-1,7.036293745E-1
2.070963975E0,-2.721294761E-1,3.917753696E-1,6.938555837E-1
2.072963708E0,-2.727403343E-1,4.241512120E-1,6.840817332E-1
2.074963441E0,-2.666316926E-1,4.681335092E-1,6.773622036E-1
2.076963241E0,-2.611339092E-1,4.962333441E-1,6.743078828E-1
2.078963041E0,-2.421970665E-1,5.591524839E-1,6.743078828E-1
2.080962774E0,-2.232602537E-1,6.245149970E-1,6.736969948E-1
2.082962507E0,-2.128755450E-1,6.581125855E-1,6.749187708E-1
2.084962240E0,-1.933278441E-1,7.277512550E-1,6.749187708E-1
2.086961973E0,-1.872192025E-1,7.607379556E-1,6.761404872E-1
2.088961706E0,-1.701149791E-1,8.273222446E-1,6.724752784E-1
2.090961439E0,-1.597302705E-1,8.823001981E-1,6.675883532E-1
2.092961239E0,-1.603411287E-1,9.055130482E-1,6.651449203E-1
2.094960972E0,-1.646171808E-1,9.311693907E-1,6.620905995E-1
2.096960705E0,-1.798888296E-1,9.464410543E-1,6.517058611E-1
2.098960438E0,-1.902735233E-1,9.452192783E-1,6.492623687E-1
2.100960171E0,-2.110429555E-1,9.452192783E-1,6.400994062E-1
2.102959904E0,-2.275363058E-1,9.378889203E-1,6.297147274E-1
2.104959837E0,-2.360884249E-1,9.354454279E-1,6.284929514E-1
2.106959570E0,-2.586904168E-1,9.256715775E-1,6.297147274E-1
2.108959370E0,-2.745729387E-1,9.275041819E-1,6.291038394E-1
2.110959103E0,-2.794598341E-1,9.287258983E-1,6.284929514E-1
2.112958836E0,-2.861793935E-1,9.275041819E-1,6.266604066E-1
2.114958569E0,-2.947314680E-1,9.336128831E-1,6.309364438E-1
2.116958269E0,-2.947314680E-1,9.342237115E-1,6.339907646E-1
2.118958002E0,-2.990075350E-1,9.378889203E-1,6.370450854E-1
2.120957735E0,-2.990075350E-1,9.403323531E-1,6.388776898E-1
2.122957468E0,-3.032836020E-1,9.354454279E-1,6.443755031E-1
2.124957268E0,-3.026727438E-1,9.336128831E-1,6.425428987E-1
2.126957001E0,-3.069487810E-1,9.311693907E-1,6.449863315E-1
2.128956734E0,-3.081705272E-1,9.299476147E-1,6.468189955E-1
2.130956467E0,-3.130574226E-1,9.330019355E-1,6.486515403E-1
2.132956200E0,-3.148900568E-1,9.299476147E-1,6.517058611E-1
2.134955933E0,-3.228313029E-1,9.281150699E-1,6.486515403E-1
2.136955699E0,-3.289399445E-1,9.293367863E-1,6.437646151E-1
2.138955432E0,-3.301616907E-1,9.311693907E-1,6.468189955E-1
2.140955232E0,-3.362703323E-1,9.287258983E-1,6.407102942E-1
2.142954965E0,-3.399355114E-1,9.275041819E-1,6.382668614E-1
2.144954698E0,-3.442115784E-1,9.244498610E-1,6.321582198E-1
2.146954431E0,-3.490984738E-1,9.177303314E-1,6.199408770E-1
2.148954164E0,-3.552071452E-1,9.116216898E-1,6.065018177E-1
2.150953897E0,-3.576506078E-1,9.000152349E-1,5.997822881E-1
2.152953630E0,-3.637592494E-1,8.920740485E-1,5.869541764E-1
2.154953430E0,-3.704787791E-1,8.786349297E-1,5.747368336E-1
2.156953230E0,-3.735330999E-1,8.737480640E-1,5.674064159E-1
2.158952963E0,-3.784200251E-1,8.596981168E-1,5.521348119E-1
2.160952696E0,-3.857503831E-1,8.456482291E-1,5.411393046E-1
2.162952429E0,-3.869721293E-1,8.364852667E-1,5.325871706E-1
2.164951962E0,-3.857503831E-1,8.267114162E-1,5.179263949E-1
2.166951695E0,-3.943025172E-1,8.028876781E-1,5.179263949E-1
2.168951428E0,-3.930807710E-1,8.004441857E-1,5.124285817E-1
2.170951228E0,-3.924699128E-1,7.870051861E-1,5.026547313E-1
2.172950961E0,-3.955242634E-1,7.766205072E-1,4.953243732E-1
2.174950694E0,-3.930807710E-1,7.741770148E-1,4.873831272E-1
2.176950460E0,-3.949134052E-1,7.625705600E-1,4.794418514E-1
2.178950193E0,-3.918590844E-1,7.582945228E-1,4.739440680E-1
2.180949926E0,-3.918590844E-1,7.448554635E-1,4.702788889E-1
2.182949659E0,-3.906373382E-1,7.363033295E-1,4.592833221E-1
2.184949392E0,-3.918590844E-1,7.344707847E-1,4.537855089E-1
2.186949192E0,-3.967459798E-1,7.277512550E-1,4.403465092E-1
2.188948925E0,-3.973568380E-1,7.295838594E-1,4.207988083E-1
2.190948658E0,-4.028546512E-1,7.369142175E-1,4.140792787E-1
2.192948391E0,-4.089632928E-1,7.448554635E-1,4.043054581E-1
2.194948124E0,-4.083524048E-1,7.540184259E-1,3.859795034E-1
2.196947824E0,-4.144610465E-1,7.552402020E-1,3.798708320E-1
2.198947557E0,-4.169045389E-1,7.662357688E-1,3.713187277E-1
2.200947290E0,-4.211806059E-1,7.729552388E-1,3.529927731E-1
2.202947090E0,-4.242349267E-1,7.802856565E-1,3.468841016E-1
2.204946856E0,-4.254566431E-1,7.894486785E-1,3.340559304E-1
2.206946622E0,-4.327870309E-1,8.004441857E-1,3.255038261E-1
2.208946388E0,-4.340087473E-1,8.022767901E-1,3.200060427E-1
2.210946154E0,-4.327870309E-1,8.102180958E-1,3.065669835E-1
2.212945920E0,-4.346196353E-1,8.193810582E-1,2.955714166E-1
2.214945686E0,-4.333978891E-1,8.303765655E-1,2.882410288E-1
2.216945452E0,-4.285109937E-1,8.511460423E-1,2.735802531E-1
2.218945285E0,-4.205697179E-1,8.664176464E-1,2.558651865E-1
2.220945151E0,-4.144610465E-1,8.743588924E-1,2.485347986E-1
2.222945017E0,-4.046872258E-1,8.847436309E-1,2.320414484E-1
2.224944883E0,-3.961350918E-1,8.896305561E-1,2.204349935E-1
2.226944749E0,-3.906373382E-1,8.841327429E-1,2.137154788E-1
2.228944615E0,-3.863612711E-1,8.792458773E-1,2.045525014E-1
2.230944481E0,-3.881938756E-1,8.731372356E-1,2.008873075E-1
2.232944414E0,-3.906373382E-1,8.639741540E-1,1.953895241E-1
2.234944347E0,-3.918590844E-1,8.572546840E-1,1.886700094E-1
2.236944280E0,-3.900264502E-1,8.572546840E-1,1.837830842E-1
2.238944213E0,-3.936916590E-1,8.596981168E-1,1.758418381E-1
2.240944146E0,-3.924699128E-1,8.560329676E-1,1.624028087E-1
2.242944079E0,-3.949134052E-1,8.535894752E-1,1.532398164E-1
2.244944012E0,-3.979677260E-1,8.596981168E-1,1.373573244E-1
2.246943945E0,-4.034654796E-1,8.609198332E-1,1.208639666E-1
2.248943945E0,-4.077415466E-1,8.633633256E-1,1.190313697E-1
2.250943945E0,-4.156827927E-1,8.700829148E-1,1.092575192E-1
2.252943911E0,-4.156827927E-1,8.823001981E-1,9.459675848E-2
2.254943877E0,-4.156827927E-1,8.896305561E-1,8.482291549E-2
2.256943843E0,-4.114067256E-1,9.036804438E-1,6.955128163E-2
2.258943809E0,-4.083524048E-1,9.158977866E-1,4.939273000E-2
2.260943775E0,-4.083524048E-1,9.213954806E-1,4.267321527E-2
2.262943741E0,-4.077415466E-1,9.220064282E-1,2.434725501E-2
2.264943741E0,-4.034654796E-1,9.238389730E-1,5.410433281E-3
2.266943707E0,-4.028546512E-1,9.250607491E-1,-4.974275362E-3
2.268943673E0,-4.046872258E-1,9.152868390E-1,-1.841331087E-2
2.270943639E0,-4.010220468E-1,9.103999734E-1,-3.063061461E-2
2.272943605E0,-4.022437632E-1,9.000152349E-1,-4.284792021E-2
2.274943571E0,-3.961350918E-1,8.939065933E-1,-5.873041973E-2
2.276943537E0,-3.955242634E-1,8.914631605E-1,-6.728253514E-2
2.278943503E0,-3.906373382E-1,8.884088397E-1,-8.011069894E-2
2.280943436E0,-3.894155920E-1,8.829110265E-1,-9.171713889E-2
2.282943336E0,-3.845286965E-1,8.841327429E-1,-9.904752672E-2
2.284943236E0,-3.729222417E-1,8.902413845E-1,-1.100431010E-1
2.286943136E0,-3.771983087E-1,8.920740485E-1,-1.137082875E-1
2.288943036E0,-3.759765625E-1,8.908522725E-1,-1.179843470E-1
2.290942936E0,-3.833069503E-1,8.829110265E-1,-1.161517501E-1
2.292942836E0,-3.906373382E-1,8.719154596E-1,-1.149300262E-1
2.294942736E0,-3.936916590E-1,8.658068180E-1,-1.149300262E-1
2.296942636E0,-4.101850390E-1,8.542003632E-1,-1.161517501E-1
2.298942536E0,-4.254566431E-1,8.548111916E-1,-1.173734814E-1
2.300942436E0,-4.376739562E-1,8.480917215E-1,-1.155408844E-1
2.302942336E0,-4.596650898E-1,8.425939083E-1,-1.143191531E-1
2.304942236E0,-4.773801863E-1,8.358743787E-1,-1.155408844E-1
2.306942136E0,-4.883757532E-1,8.364852667E-1,-1.106539592E-1
2.308942036E0,-5.079234838E-1,8.328200579E-1,-1.082105041E-1
2.310941936E0,-5.268602967E-1,8.163267374E-1,-9.904752672E-2
2.312941869E0,-5.372449756E-1,8.053311110E-1,-9.354973584E-2
2.314941735E0,-5.543492436E-1,7.827291489E-1,-8.377589285E-2
2.316941601E0,-5.616796017E-1,7.711226940E-1,-8.194329590E-2
2.318941467E0,-5.751186609E-1,7.393576503E-1,-6.972599030E-2
2.320941333E0,-5.885576606E-1,7.075927258E-1,-6.178474426E-2
2.322941199E0,-5.928337574E-1,6.941536665E-1,-5.750868469E-2
2.324941065E0,-6.044402122E-1,6.636103988E-1,-4.895657301E-2
2.326940965E0,-6.123813987E-1,6.281802654E-1,-3.918272629E-2
2.328940865E0,-6.197118163E-1,6.098542213E-1,-3.429580852E-2
2.330940698E0,-6.282638907E-1,5.762566328E-1,-2.635455877E-2
2.332940531E0,-6.374268532E-1,5.463242531E-1,-1.902417652E-2
2.334940364E0,-6.349834204E-1,5.304417610E-1,-1.596985012E-2
2.336940197E0,-6.404811740E-1,4.968442023E-1,-5.585140549E-3
2.338940030E0,-6.447572708E-1,4.681335092E-1,1.745242043E-3
2.340939863E0,-6.472007632E-1,4.546944797E-1,7.243029308E-3
2.342939729E0,-6.490333080E-1,4.265947044E-1,2.068206482E-2
2.344939529E0,-6.447572708E-1,4.070470035E-1,2.862331271E-2
2.346939329E0,-6.508659124E-1,3.917753696E-1,3.412109986E-2
2.348939129E0,-6.508659124E-1,3.777254522E-1,4.572753981E-2
2.350938929E0,-6.410921216E-1,3.618429899E-1,6.038830429E-2
2.352938729E0,-6.368160248E-1,3.496256769E-1,6.710782647E-2
2.354938529E0,-6.325399876E-1,3.294670880E-1,8.604464680E-2
2.356938329E0,-6.215443611E-1,3.196932673E-1,1.025380120E-1
2.358938129E0,-6.160466075E-1,3.154172003E-1,1.086466610E-1
2.360937862E0,-6.074945331E-1,3.050324917E-1,1.233074293E-1
2.362937595E0,-6.038292646E-1,3.068651259E-1,1.281943470E-1
2.364937328E0,-5.928337574E-1,3.031999171E-1,1.373573244E-1
2.366937061E0,-5.842816234E-1,2.946477830E-1,1.446877122E-1
2.368936794E0,-5.818381310E-1,2.928152084E-1,1.465203166E-1
2.370936527E0,-5.745077729E-1,2.799870372E-1,1.587376148E-1
2.372936260E0,-5.647339225E-1,2.732675076E-1,1.648462713E-1
2.374936060E0,-5.635122061E-1,2.671588659E-1,1.709549129E-1
2.376935793E0,-5.567926764E-1,2.567741275E-1,1.825613528E-1
2.378935526E0,-5.494622588E-1,2.470003068E-1,1.892808676E-1
2.380935259E0,-5.445753932E-1,2.396699190E-1,1.929460615E-1
2.382934992E0,-5.421319008E-1,2.298960835E-1,1.953895241E-1
2.384934725E0,-5.384667516E-1,2.262308896E-1,1.984438449E-1
2.386934458E0,-5.341906548E-1,2.219548374E-1,1.984438449E-1
2.388934191E0,-5.286928415E-1,2.207331061E-1,2.014981806E-1
2.390933991E0,-5.262494087E-1,2.170679122E-1,2.045525014E-1
2.392933724E0,-5.238059759E-1,2.140135765E-1,2.063851058E-1
2.394933457E0,-5.219733119E-1,2.054614723E-1,2.100502998E-1
2.396933190E0,-5.238059759E-1,1.993528157E-1,2.131046206E-1
2.398932923E0,-5.238059759E-1,1.944658905E-1,2.155480832E-1
2.400932656E0,-5.268602967E-1,1.889681071E-1,2.198241204E-1
2.402932389E0,-5.286928415E-1,1.853029132E-1,2.222675979E-1
2.404932155E0,-5.262494087E-1,1.773616672E-1,2.216567248E-1
2.406931955E0,-5.335797668E-1,1.627008915E-1,2.247110605E-1
2.408931688E0,-5.360232592E-1,1.590357125E-1,2.228784710E-1
2.410931421E0,-5.427427888E-1,1.578139812E-1,2.241001874E-1
2.412931154E0,-5.537383556E-1,1.492618769E-1,2.277653813E-1
2.414930887E0,-5.580143929E-1,1.443749368E-1,2.277653813E-1
2.416930620E0,-5.671773553E-1,1.382662952E-1,2.259327918E-1
2.418930353E0,-5.793946981E-1,1.315467805E-1,2.173806727E-1
2.420930153E0,-5.806164145E-1,1.309359074E-1,2.143263370E-1
2.422929886E0,-5.897794366E-1,1.297141910E-1,2.045525014E-1
2.424929619E0,-5.989423990E-1,1.278815866E-1,1.898917407E-1
2.426929352E0,-6.013858914E-1,1.315467805E-1,1.825613528E-1
2.428929085E0,-6.105488539E-1,1.388771683E-1,1.672897190E-1
2.430928818E0,-6.129922271E-1,1.425423473E-1,1.410225183E-1
2.432928551E0,-6.099379063E-1,1.498727202E-1,1.281943470E-1
2.434928284E0,-6.087162495E-1,1.517053246E-1,1.019271389E-1
2.436928084E0,-6.044402122E-1,1.608683020E-1,7.260561734E-2
2.438927817E0,-5.983315110E-1,1.681986898E-1,5.611224845E-2
2.440927550E0,-5.891684890E-1,1.822485924E-1,2.373639122E-2
2.442927283E0,-5.732859969E-1,2.017962784E-1,-1.169379335E-2
2.444927016E0,-5.610687137E-1,2.121809870E-1,-2.818715386E-2
2.446926749E0,-5.500732064E-1,2.274526209E-1,-5.628695711E-2
2.448926482E0,-5.409101844E-1,2.384482026E-1,-7.033686340E-2
2.450926215E0,-5.213624835E-1,2.616610825E-1,-9.721492976E-2
2.452926015E0,-5.073125958E-1,2.867065370E-1,-1.167626157E-1
2.454925748E0,-4.993713498E-1,2.989238501E-1,-1.283690482E-1
2.456925481E0,-4.828779995E-1,3.270236552E-1,-1.375320256E-1
2.458925214E0,-4.639411569E-1,3.600103855E-1,-1.442515552E-1
2.460924947E0,-4.517238438E-1,3.807797730E-1,-1.460841596E-1
2.462924680E0,-4.291218221E-1,4.229294956E-1,-1.442515552E-1
2.464924446E0,-4.016329050E-1,4.650791883E-1,-1.411972195E-1
2.466924179E0,-3.979677260E-1,4.821834266E-1,-1.326451153E-1
2.468923979E0,-3.680353165E-1,5.206679106E-1,-1.247038618E-1
2.470923712E0,-3.448224366E-1,5.542654991E-1,-1.100431010E-1
2.472923445E0,-3.295508027E-1,5.725914836E-1,-1.051561758E-1
2.474923178E0,-3.130574226E-1,5.970261097E-1,-8.927368373E-2
2.476922911E0,-2.971749604E-1,6.165738106E-1,-6.606079638E-2
2.478922644E0,-2.898445725E-1,6.257367730E-1,-6.056301296E-2
2.480922377E0,-2.831250429E-1,6.373432279E-1,-4.101532325E-2
2.482922177E0,-2.745729387E-1,6.452844143E-1,-2.207850292E-2
2.484921977E0,-2.702968717E-1,6.477279067E-1,-1.658071578E-2
2.486921710E0,-2.593013048E-1,6.562800407E-1,5.410433281E-3
2.488921443E0,-2.440296561E-1,6.642212272E-1,2.251465991E-2
2.490921176E0,-2.373101562E-1,6.678864956E-1,3.412109986E-2
2.492920909E0,-2.220385224E-1,6.672755480E-1,5.000359565E-2
2.494920642E0,-2.134864032E-1,6.642212272E-1,6.099917367E-2
2.496920375E0,-1.951604486E-1,6.477279067E-1,7.260561734E-2
2.498920175E0,-1.731693000E-1,6.281802654E-1,8.176859468E-2
2.500919975E0,-1.591193974E-1,6.129085422E-1,8.604464680E-2
2.502919708E0,-1.365173757E-1,5.664828420E-1,8.543377370E-2
2.504919441E0,-1.053632572E-1,5.096723437E-1,8.299031854E-2
2.506919174E0,-8.886989951E-2,4.736313224E-1,8.237945288E-2
2.508918907E0,-5.527230725E-2,3.911645114E-1,7.077302039E-2
2.510918640E0,-1.312260702E-2,3.038107753E-1,5.733397976E-2
2.512918373E0,4.592484795E-3,2.524980903E-1,5.000359565E-2
2.514918173E0,5.407257006E-2,1.541487873E-1,3.106677346E-2
2.516917906E0,1.017200649E-1,5.030169711E-2,9.075625800E-3
2.518917639E0,1.279872656E-1,-6.508769002E-3,-4.974275362E-3
2.520917372E0,1.860194653E-1,-1.036363468E-1,-3.551753610E-2
2.522917105E0,2.428299189E-1,-2.025965154E-1,-6.972599030E-2
2.524916838E0,2.733731866E-1,-2.441353500E-1,-9.110628068E-2
2.526916571E0,3.271293342E-1,-3.217152357E-1,-1.302016377E-1
2.528916304E0,3.790528774E-1,-3.913538754E-1,-1.692970246E-1
2.530916104E0,4.010440409E-1,-4.249514639E-1,-1.888447106E-1
2.532915837E0,4.529675543E-1,-4.817619324E-1,-2.291618139E-1
2.534915570E0,4.981715977E-1,-5.287985802E-1,-2.768093050E-1
2.536915303E0,5.183301568E-1,-5.495679975E-1,-2.975787222E-1
2.538915036E0,5.610907078E-1,-5.917176604E-1,-3.488914073E-1
2.540914769E0,5.769731998E-1,-6.051567197E-1,-3.702717125E-1
2.542914502E0,6.117925644E-1,-6.350890994E-1,-4.185300469E-1
2.544914235E0,6.417249441E-1,-6.589128375E-1,-4.606797397E-1
2.546914035E0,6.569966078E-1,-6.644106507E-1,-4.851143360E-1
2.548913768E0,6.912050247E-1,-6.680757999E-1,-5.242097378E-1
2.550913501E0,7.162504792E-1,-6.741845012E-1,-5.633051395E-1
2.552913234E0,7.254134417E-1,-6.772388220E-1,-5.804093480E-1
2.554912967E0,7.467937469E-1,-6.729627848E-1,-6.176721454E-1
2.556912700E0,7.687849402E-1,-6.723518968E-1,-6.512697339E-1
2.558912433E0,7.791696191E-1,-6.699084640E-1,-6.708173752E-1
2.560912166E0,8.078802824E-1,-6.668541431E-1,-7.038041353E-1
2.562911966E0,8.396452665E-1,-6.705192924E-1,-7.306821942E-1
2.564911699E0,8.549169302E-1,-6.760171056E-1,-7.428994775E-1
2.566911432E0,8.915688396E-1,-6.912887096E-1,-7.618362904E-1
2.568911165E0,9.276098609E-1,-7.193884850E-1,-7.697775960E-1
2.570910898E0,9.441031814E-1,-7.383252978E-1,-7.697775960E-1
2.572910631E0,9.795333743E-1,-7.768098116E-1,-7.734427452E-1
2.574910364E0,1.017407060E0,-8.226247430E-1,-7.722210288E-1
2.576910164E0,1.033289552E0,-8.482810855E-1,-7.752753496E-1
2.578909964E0,1.070552349E0,-9.087567329E-1,-7.728319168E-1
2.580909697E0,1.118199825E0,-9.759519100E-1,-7.624471784E-1
2.582909430E0,1.138358355E0,-1.015658140E0,-7.520624995E-1
2.584909163E0,1.195779681E0,-1.100568533E0,-7.404560447E-1
2.586908896E0,1.220214367E0,-1.158600569E0,-7.276278734E-1
2.588908629E0,1.284355283E0,-1.257560849E0,-7.056367397E-1
2.590908362E0,1.339333057E0,-1.360186100E0,-6.793695092E-1
2.592908162E0,1.366211057E0,-1.412109733E0,-6.555457711E-1
2.594907895E0,1.412636876E0,-1.486024380E0,-6.060656905E-1
2.596907628E0,1.442569256E0,-1.540391326E0,-5.468117595E-1
2.598907361E0,1.451121330E0,-1.565436840E0,-5.205445290E-1
2.600907094E0,1.482275486E0,-1.605754018E0,-4.881686568E-1
2.602906827E0,1.523814321E0,-1.638740778E0,-4.741187692E-1
2.604906560E0,1.543972850E0,-1.644849420E0,-4.735079110E-1
2.606906293E0,1.595896482E0,-1.624690771E0,-4.857252240E-1
2.608906093E0,1.670421958E0,-1.552608728E0,-5.144358873E-1
2.610905826E0,1.721734762E0,-1.495187402E0,-5.303183794E-1
2.612905559E0,1.837799072E0,-1.371792555E0,-5.675811768E-1
2.614905292E0,1.956306934E0,-1.258782506E0,-6.072874069E-1
2.616905025E0,2.004565239E0,-1.217854500E0,-6.231698990E-1
2.618904758E0,2.080312490E0,-1.143329024E0,-6.445501447E-1
2.620904491E0,2.129181862E0,-1.095681548E0,-6.634870172E-1
2.622904224E0,2.148118734E0,-1.073079467E0,-6.702065468E-1
2.624904024E0,2.181105375E0,-1.036427617E0,-6.964737773E-1
2.626903757E0,2.209815979E0,-1.002829909E0,-7.251843810E-1
2.628903490E0,2.216535568E0,-9.869475365E-1,-7.367908359E-1
2.630903223E0,2.241580963E0,-9.466303587E-1,-7.661123872E-1
2.632902956E0,2.251965761E0,-9.276935458E-1,-7.856600285E-1
2.634902689E0,2.252576590E0,-8.861547112E-1,-8.265880346E-1
2.636902422E0,2.223865986E0,-8.018553257E-1,-8.803441525E-1
2.638902188E0,2.210427046E0,-7.419905663E-1,-9.096657038E-1
2.640901988E0,2.186603069E0,-5.984371901E-1,-9.603675008E-1
2.642901721E0,2.148729563E0,-5.202464461E-1,-1.005571485E0
2.644901421E0,2.127959967E0,-4.939792454E-1,-1.024508476E0
2.646901154E0,2.083366871E0,-4.530512691E-1,-1.043445230E0
2.648900887E0,2.055267096E0,-3.889104128E-1,-1.051386476E0
2.650900620E0,2.044271469E0,-3.583671451E-1,-1.051997304E0
2.652900353E0,2.015560865E0,-2.954480350E-1,-1.048943043E0
2.654900153E0,1.989904523E0,-2.502439916E-1,-1.038558245E0
2.656899953E0,1.975243807E0,-2.368049622E-1,-1.030617118E0
2.658899719E0,1.944700599E0,-2.245876640E-1,-1.010458469E0
2.660899485E0,1.912935495E0,-2.398592979E-1,-9.811369777E-1
2.662899251E0,1.897663951E0,-2.508548796E-1,-9.664762020E-1
2.664899017E0,1.868342400E0,-2.820090055E-1,-9.432632923E-1
2.666898783E0,1.843907714E0,-3.162174523E-1,-9.310459495E-1
2.668898549E0,1.835966468E0,-3.406520784E-1,-9.273808002E-1
2.670898382E0,1.819473147E0,-3.736388087E-1,-9.353220463E-1
2.672898148E0,1.807866693E0,-3.907430172E-1,-9.512045383E-1
2.674897914E0,1.802979708E0,-4.017385840E-1,-9.542588592E-1
2.676897680E0,1.795038581E0,-4.145667553E-1,-9.622001052E-1
2.678897446E0,1.792595148E0,-4.157884717E-1,-9.676978588E-1
2.680897212E0,1.790762424E0,-4.249514639E-1,-9.805260897E-1
2.682896978E0,1.788318992E0,-4.402230978E-1,-9.939650893E-1
2.684896744E0,1.784042954E0,-4.493860900E-1,-1.003128171E0
2.686896577E0,1.773658156E0,-4.774858654E-1,-1.024508476E0
2.688896343E0,1.747390985E0,-5.214682221E-1,-1.045277834E0
2.690896109E0,1.730286717E0,-5.440701842E-1,-1.056273341E0
2.692895875E0,1.691802263E0,-6.106544733E-1,-1.073377609E0
2.694895641E0,1.653928638E0,-6.796822548E-1,-1.094146967E0
2.696895407E0,1.633159161E0,-7.193884850E-1,-1.100255609E0
2.698895140E0,1.595285535E0,-7.859728336E-1,-1.125911951E0
2.700894906E0,1.565964103E0,-8.440049887E-1,-1.153400898E0
2.702894739E0,1.550692439E0,-8.629418612E-1,-1.166839957E0
2.704894539E0,1.531144738E0,-9.020372033E-1,-1.207767963E0
2.706894305E0,1.510986209E0,-9.454086423E-1,-1.242587328E0
2.708894071E0,1.509153605E0,-9.631237388E-1,-1.265189290E0
2.710893837E0,1.492660284E0,-9.942778945E-1,-1.300619483E0
2.712893603E0,1.477388501E0,-1.021766782E0,-1.329330087E0
2.714893369E0,1.462727785E0,-1.041314483E0,-1.339104056E0
2.716893135E0,1.434017181E0,-1.093237996E0,-1.357429981E0
2.718892935E0,1.390034914E0,-1.151270270E0,-1.363538623E0
2.720892668E0,1.362545848E0,-1.178759098E0,-1.365371227E0
2.722892401E0,1.303292036E0,-1.228239298E0,-1.362316847E0
2.724892134E0,1.272137761E0,-1.256339073E0,-1.359873414E0
2.726891867E0,1.213494778E0,-1.289936662E0,-1.348877788E0
2.728891600E0,1.160960436E0,-1.318647385E0,-1.339714885E0
2.730891333E0,1.135304093E0,-1.328421116E0,-1.331773520E0
2.732891133E0,1.092543483E0,-1.326588631E0,-1.318334579E0
2.734890933E0,1.055280805E0,-1.320479870E0,-1.303062916E0
2.736890666E0,1.038176537E0,-1.319258213E0,-1.295732498E0
2.738890432E0,1.005800605E0,-1.310706019E0,-1.274352312E0
2.740890165E0,9.728139043E-1,-1.304597378E0,-1.257248044E0
2.742889898E0,9.624292254E-1,-1.297877908E0,-1.251139402E0
2.744889631E0,9.355511665E-1,-1.286882281E0,-1.235867739E0
2.746889364E0,9.074512720E-1,-1.280162811E0,-1.214487433E0
2.748889164E0,8.921796679E-1,-1.277719378E0,-1.207157135E0
2.750888964E0,8.671342134E-1,-1.271610737E0,-1.186387658E0
2.752888697E0,8.384235501E-1,-1.265502095E0,-1.164396524E0
2.754888430E0,8.268170953E-1,-1.261836767E0,-1.158287883E0
2.756888163E0,8.029933572E-1,-1.245343447E0,-1.144237876E0
2.758887896E0,7.767261267E-1,-1.226406574E0,-1.133853316E0
2.760887629E0,7.651196718E-1,-1.217243671E0,-1.129577160E0
2.762887362E0,7.425177097E-1,-1.190976381E0,-1.121636033E0
2.764887162E0,7.193048000E-1,-1.160433173E0,-1.114916325E0
2.766886895E0,7.046440244E-1,-1.150048494E0,-1.105753422E0
2.768886628E0,6.814311743E-1,-1.115229249E0,-1.094757795E0
2.770886361E0,6.661595702E-1,-1.098124981E0,-1.088038325E0
2.772886094E0,6.380597353E-1,-1.063916445E0,-1.075210214E0
2.774885827E0,6.142359972E-1,-1.032151461E0,-1.056273341E0
2.776885560E0,6.026296020E-1,-1.015658140E0,-1.051386476E0
2.778885293E0,5.726971626E-1,-9.857257605E-1,-1.029395223E0
2.780885093E0,5.433756113E-1,-9.619020224E-1,-1.008625865E0
2.782884826E0,5.274931788E-1,-9.539607763E-1,-9.970194101E-1
2.784884559E0,4.957281351E-1,-9.331913590E-1,-9.768608809E-1
2.786884292E0,4.590762258E-1,-9.209740758E-1,-9.542588592E-1
2.788884025E0,4.395285249E-1,-9.112001657E-1,-9.444850683E-1
2.790883758E0,4.034874737E-1,-8.983719945E-1,-9.231047630E-1
2.792883491E0,3.637812436E-1,-8.855438828E-1,-8.998918533E-1
2.794883224E0,3.472878635E-1,-8.831003904E-1,-8.895071149E-1
2.796883024E0,3.081924915E-1,-8.727157116E-1,-8.675159812E-1
2.798882724E0,2.709297240E-1,-8.690505028E-1,-8.491900563E-1
2.800882457E0,2.507711649E-1,-8.702722192E-1,-8.394162059E-1
2.802882190E0,2.147301286E-1,-8.666070700E-1,-8.186467886E-1
2.804881923E0,1.811325401E-1,-8.702722192E-1,-7.997099757E-1
2.806881656E0,1.658609211E-1,-8.678287268E-1,-7.887143493E-1
2.808881389E0,1.365393847E-1,-8.611092567E-1,-7.697775960E-1
2.810881122E0,1.133264974E-1,-8.574440479E-1,-7.526733279E-1
2.812880922E0,1.011091918E-1,-8.537788987E-1,-7.422886491E-1
2.814880655E0,7.972890884E-2,-8.452267647E-1,-7.245735526E-1
2.816880388E0,7.117679715E-2,-8.372855186E-1,-7.111344934E-1
2.818880121E0,5.468343198E-2,-8.201812506E-1,-6.934194565E-1
2.820879854E0,3.941180557E-2,-7.994118929E-1,-6.744825840E-1
2.822879587E0,3.696834296E-2,-7.847511172E-1,-6.659305096E-1
2.824879320E0,2.963796072E-2,-7.542078495E-1,-6.482154131E-1
2.826879120E0,1.742065512E-2,-7.206102014E-1,-6.311111450E-1
2.828878920E0,1.558805909E-2,-6.986190677E-1,-6.237807870E-1
2.830878653E0,1.314459834E-2,-6.625780463E-1,-6.072874069E-1
2.832878386E0,1.864238456E-2,-6.204283237E-1,-5.901831388E-1
2.834878119E0,1.925325021E-2,-6.008806825E-1,-5.791876316E-1
2.836877852E0,2.719449811E-2,-5.526223183E-1,-5.633051395E-1
2.838877585E0,4.063353315E-2,-5.074182749E-1,-5.455900431E-1
2.840877318E0,4.918564484E-2,-4.835945070E-1,-5.376487374E-1
2.842877118E0,7.117679715E-2,-4.359470308E-1,-5.144358873E-1
2.844876851E0,9.805487096E-2,-3.950190842E-1,-4.857252240E-1
2.846876584E0,1.176025569E-1,-3.766931295E-1,-4.722861946E-1
2.848876317E0,1.554761976E-1,-3.485932946E-1,-4.362451434E-1
2.850876050E0,1.982367635E-1,-3.284347653E-1,-4.020366967E-1
2.852875783E0,2.183953226E-1,-3.204934895E-1,-3.812672794E-1
2.854875516E0,2.654319406E-1,-3.101087809E-1,-3.403393030E-1
2.856875249E0,3.088033795E-1,-3.088870645E-1,-2.981896102E-1
2.858875049E0,3.320162594E-1,-3.113305271E-1,-2.761984468E-1
2.860874782E0,3.711116314E-1,-3.217152357E-1,-2.316052914E-1
2.862874515E0,3.894375861E-1,-3.259913027E-1,-2.065597922E-1
2.864874248E0,4.126504958E-1,-3.400411904E-1,-1.619666517E-1
2.866873981E0,4.285329580E-1,-3.595888615E-1,-1.143191531E-1
2.868873714E0,4.346416295E-1,-3.663084209E-1,-9.416060150E-2
2.870873447E0,4.291438162E-1,-3.852452040E-1,-4.956743866E-2
2.872873180E0,4.138721824E-1,-4.041820467E-1,-6.196006201E-3
2.874872980E0,4.016548991E-1,-4.145667553E-1,1.457341202E-2
2.876872713E0,3.729442060E-1,-4.359470308E-1,5.611224845E-2
2.878872446E0,3.375140429E-1,-4.603816569E-1,9.581848979E-2
2.880872179E0,3.179663718E-1,-4.762641191E-1,1.171987727E-1
2.882871912E0,2.727623284E-1,-4.994770288E-1,1.569050103E-1
2.884871645E0,2.275582999E-1,-5.129160881E-1,1.966112554E-1
2.886871378E0,1.976259053E-1,-5.300202370E-1,2.167697996E-1
2.888871111E0,1.481458098E-1,-5.379615426E-1,2.534217238E-1
2.890870911E0,9.316794574E-2,-5.483462811E-1,2.906845212E-1
2.892870644E0,6.751160324E-2,-5.520114303E-1,3.083995879E-1
2.894870377E0,1.314459834E-2,-5.550657511E-1,3.432188928E-1
2.896870110E0,-4.061154276E-2,-5.532331467E-1,3.786491156E-1
2.898869843E0,-6.504614651E-2,-5.471245050E-1,3.939207196E-1
2.900869576E0,-1.114719063E-1,-5.379615426E-1,4.293509126E-1
2.902869309E0,-1.578976810E-1,-5.245225430E-1,4.598941505E-1
2.904869109E0,-1.774453521E-1,-5.184138417E-1,4.739440680E-1
2.906868909E0,-2.153190076E-1,-5.013096333E-1,5.014330149E-1
2.908868642E0,-2.324232310E-1,-4.933683872E-1,5.167046785E-1
2.910868375E0,-2.660208046E-1,-4.713772237E-1,5.460261703E-1
2.912868108E0,-3.014509976E-1,-4.469425976E-1,5.735151172E-1
2.914867841E0,-3.161117435E-1,-4.347253144E-1,5.893976092E-1
2.916867574E0,-3.484876454E-1,-4.072363675E-1,6.132213473E-1
2.918867307E0,-3.826960623E-1,-3.815800250E-1,6.376559734E-1
2.920867107E0,-3.967459798E-1,-3.681409955E-1,6.523166895E-1
2.922866840E0,-4.279001057E-1,-3.461498320E-1,6.761404872E-1
2.924866573E0,-4.535564482E-1,-3.266021609E-1,6.999642253E-1
2.926866306E0,-4.621085525E-1,-3.180500567E-1,7.066836953E-1
2.928866039E0,-4.847105742E-1,-3.070544600E-1,7.280640006E-1
2.930865772E0,-5.054799914E-1,-2.960588932E-1,7.482225895E-1
2.932865505E0,-5.085343122E-1,-2.917828262E-1,7.586073279E-1
2.934865238E0,-5.201407671E-1,-2.875067890E-1,7.787657976E-1
2.936865038E0,-5.262494087E-1,-2.826198637E-1,7.995352745E-1
2.938864771E0,-5.305254459E-1,-2.801764011E-1,8.129743338E-1
2.940864504E0,-5.262494087E-1,-2.801764011E-1,8.380197883E-1
2.942864237E0,-5.152538419E-1,-2.813981175E-1,8.691738844E-1
2.944863970E0,-5.036473870E-1,-2.813981175E-1,8.813911676E-1
2.946863703E0,-4.847105742E-1,-2.887285054E-1,9.186539650E-1
2.948863436E0,-4.474477768E-1,-2.960588932E-1,9.498081207E-1
2.950863169E0,-4.254566431E-1,-2.960588932E-1,9.675232172E-1
2.952862969E0,-3.735330999E-1,-3.015566766E-1,1.001120806E0
2.954862702E0,-3.436007202E-1,-3.058327436E-1,1.018225074E0
2.956862435E0,-2.819033265E-1,-3.107196689E-1,1.042048693E0
2.958862168E0,-2.171515971E-1,-3.296564817E-1,1.061596394E0
2.960861901E0,-1.823322773E-1,-3.424846530E-1,1.068315864E0
2.962861634E0,-1.200240254E-1,-3.760822415E-1,1.077478886E0
2.964861367E0,-6.199182570E-2,-4.212862849E-1,1.083587646E0
2.966861100E0,-3.511375561E-2,-4.481643438E-1,1.084198475E0
2.968860900E0,1.009027194E-2,-5.074182749E-1,1.078700662E0
2.970860633E0,3.574661165E-2,-5.709482431E-1,1.079311490E0
2.972860366E0,4.246613011E-2,-6.008806825E-1,1.082365870E0
2.974860099E0,5.223997682E-2,-6.540259123E-1,1.094583154E0
2.976859832E0,4.429872334E-2,-6.986190677E-1,1.115352511E0
2.978859565E0,3.819007427E-2,-7.114472389E-1,1.124515533E0
2.980859298E0,2.230757661E-2,-7.212211490E-1,1.145895839E0
2.982859098E0,5.814215168E-3,-7.132798433E-1,1.162389159E0
2.984858898E0,9.272934403E-4,-7.010625601E-1,1.164221764E0
2.986858631E0,-3.959628753E-3,-6.747953296E-1,1.160556674E0
2.988858364E0,-3.959628753E-3,-6.430303454E-1,1.135511160E0
2.990858097E0,-2.127032727E-3,-6.240935326E-1,1.117185235E0
2.992857830E0,4.592484795E-3,-5.733917356E-1,1.067094207E0
2.994857563E0,-4.570493475E-3,-5.006987453E-1,1.011505485E0
2.996857296E0,-2.045298927E-2,-4.597707689E-1,9.797405005E-1
2.998857096E0,-7.237653434E-2,-3.724170625E-1,9.143779278E-1
3.000856896E0,-1.053632572E-1,-3.284347653E-1,8.807803392E-1
3.002856629E0,-1.841648668E-1,-2.368049622E-1,8.105308414E-1
3.004856362E0,-2.690751255E-1,-1.476186365E-1,7.390595675E-1
3.006856095E0,-3.167226315E-1,-1.109667271E-1,7.066836953E-1
3.008855828E0,-3.900264502E-1,-2.911078185E-2,6.394885778E-1
3.010855561E0,-4.498912692E-1,4.419304803E-2,5.838998556E-1
3.012855294E0,-4.731041193E-1,7.840149850E-2,5.606869459E-1
3.014855094E0,-5.085343122E-1,1.400988996E-1,5.270893574E-1
3.016854827E0,-5.299146175E-1,2.024071515E-1,5.130394101E-1
3.018854560E0,-5.341906548E-1,2.335612774E-1,5.087633729E-1
3.020854293E0,-5.488514304E-1,2.891500294E-1,5.099851489E-1
3.022854026E0,-5.592361689E-1,3.429061472E-1,5.222024322E-1
3.024853759E0,-5.665665269E-1,3.655081689E-1,5.344197154E-1
3.026853492E0,-5.800055265E-1,4.088796079E-1,5.631304383E-1
3.028853225E0,-5.928337574E-1,4.436989129E-1,5.942845345E-1
3.030853025E0,-5.983315110E-1,4.620248675E-1,6.126104593E-1
3.032852758E0,-6.081053615E-1,4.956224561E-1,6.486515403E-1
3.034852491E0,-6.184900403E-1,5.261657238E-1,6.908012033E-1
3.036852224E0,-6.239878535E-1,5.420482159E-1,7.085163593E-1
3.038851957E0,-6.331508160E-1,5.738132596E-1,7.488334179E-1
3.040851690E0,-6.472007632E-1,5.976369381E-1,7.696028352E-1
3.042851423E0,-6.520876288E-1,6.074108481E-1,8.068656325E-1
3.044851156E0,-6.691918969E-1,6.220716238E-1,8.539022803E-1
3.046850956E0,-6.740788221E-1,6.287910938E-1,8.728390932E-1
3.048850722E0,-6.887395382E-1,6.391757727E-1,9.210973978E-1
3.050850488E0,-7.034003139E-1,6.465061903E-1,9.675232172E-1
3.052850254E0,-7.058438063E-1,6.452844143E-1,9.913468957E-1
3.054850020E0,-7.192828655E-1,6.355106235E-1,1.036550999E0
3.056849786E0,-7.302783728E-1,6.245149970E-1,1.083587646E0
3.058849552E0,-7.333326936E-1,6.165738106E-1,1.103135228E0
3.060849318E0,-7.424957156E-1,5.988587141E-1,1.136732936E0
3.062849151E0,-7.522695065E-1,5.774784088E-1,1.167276144E0
3.064848917E0,-7.565456033E-1,5.658719540E-1,1.175217390E0
3.066848683E0,-7.705954909E-1,5.365504026E-1,1.197208524E0
3.068848449E0,-7.828128338E-1,5.115049481E-1,1.211258411E0
3.070848215E0,-7.876997590E-1,4.992876649E-1,1.214923620E0
3.072847981E0,-8.048039675E-1,4.766856432E-1,1.216756225E0
3.074847747E0,-8.176321387E-1,4.632466137E-1,1.213701963E0
3.076847580E0,-8.267951012E-1,4.565271139E-1,1.213701963E0
3.078847413E0,-8.384015560E-1,4.534727335E-1,1.206371427E0
3.080847179E0,-8.500080109E-1,4.553053677E-1,1.196597695E0
3.082846945E0,-8.567275405E-1,4.571379423E-1,1.190489054E0
3.084846711E0,-8.683339357E-1,4.638574719E-1,1.175217390E0
3.086846477E0,-8.732208610E-1,4.711878598E-1,1.167886972E0
3.088846243E0,-8.854381442E-1,4.840160310E-1,1.144063234E0
3.090846009E0,-8.964337707E-1,4.919572771E-1,1.119628668E0
3.092845842E0,-8.994880915E-1,4.968442023E-1,1.106800437E0
3.094845608E0,-9.013206959E-1,5.053963065E-1,1.079922318E0
3.096845374E0,-9.013206959E-1,5.151701570E-1,1.053655148E0
3.098845140E0,-8.976554275E-1,5.200570822E-1,1.041437864E0
3.100844906E0,-8.897142410E-1,5.255548954E-1,1.012727261E0
3.102844672E0,-8.738317490E-1,5.249439478E-1,9.827948213E-1
3.104844438E0,-8.640578985E-1,5.286092162E-1,9.669123292E-1
3.106844204E0,-8.408450484E-1,5.304417610E-1,9.436994791E-1
3.108844004E0,-8.139669299E-1,5.286092162E-1,9.192648530E-1
3.110843737E0,-7.962518334E-1,5.279982686E-1,9.082692862E-1
3.112843470E0,-7.632651329E-1,5.249439478E-1,8.850563765E-1
3.114843203E0,-7.321110368E-1,5.231114030E-1,8.636760712E-1
3.116842936E0,-7.186719179E-1,5.188353062E-1,8.539022803E-1
3.118842669E0,-6.850743890E-1,5.170027614E-1,8.313002586E-1
3.120842402E0,-6.575854421E-1,5.163919330E-1,8.111416698E-1
3.122842135E0,-6.423137784E-1,5.194462538E-1,8.062547445E-1
3.124841935E0,-6.074945331E-1,5.298309326E-1,7.873179317E-1
3.126841668E0,-5.769512057E-1,5.444917083E-1,7.830418944E-1
3.128841401E0,-5.592361689E-1,5.542654991E-1,7.769332528E-1
3.130841134E0,-5.274711251E-1,5.707589388E-1,7.732680440E-1
3.132840867E0,-5.146429539E-1,5.750349760E-1,7.671594024E-1
3.134840600E0,-4.883757532E-1,5.829762220E-1,7.579963803E-1
3.136840333E0,-4.767693281E-1,5.579307079E-1,7.378379107E-1
3.138840066E0,-4.761584699E-1,5.444917083E-1,7.292857766E-1
3.140839866E0,-4.749367237E-1,5.218896270E-1,7.072946429E-1
3.142839599E0,-4.718824029E-1,5.212787986E-1,6.853034496E-1
3.144839332E0,-4.700497985E-1,5.304417610E-1,6.810274124E-1
3.146839065E0,-4.608868361E-1,5.524328947E-1,6.565927863E-1
3.148838798E0,-4.566107690E-1,5.713697672E-1,6.382668614E-1
3.150838531E0,-4.541673362E-1,5.787001252E-1,6.278821230E-1
3.152838264E0,-4.480586648E-1,6.019130349E-1,6.119996309E-1
3.154838064E0,-4.443934560E-1,6.208498478E-1,6.016149521E-1
3.156837864E0,-4.437825978E-1,6.263476014E-1,5.942845345E-1
3.158837597E0,-4.474477768E-1,6.336779594E-1,5.741260052E-1
3.160837330E0,-4.541673362E-1,6.330671310E-1,5.551891327E-1
3.162837063E0,-4.608868361E-1,6.275693178E-1,5.466369987E-1
3.164836796E0,-4.786019325E-1,5.951935053E-1,5.338088870E-1
3.166836529E0,-4.938735664E-1,5.787001252E-1,5.148720741E-1
3.168836262E0,-4.981496036E-1,5.823653340E-1,5.050982237E-1
3.170836062E0,-5.042582750E-1,6.067999005E-1,4.928808808E-1
3.172835795E0,-5.018147826E-1,6.397866607E-1,4.922700226E-1
3.174835528E0,-5.005930662E-1,6.587235332E-1,4.904374480E-1
3.176835261E0,-5.005930662E-1,6.984297633E-1,4.971569479E-1
3.178834994E0,-4.957061410E-1,7.216425538E-1,5.008221269E-1
3.180834727E0,-4.895974994E-1,7.692900896E-1,5.093742609E-1
3.182834460E0,-4.810453653E-1,8.218245506E-1,5.197589993E-1
3.184834193E0,-4.712715447E-1,8.487025499E-1,5.215915442E-1
3.186833993E0,-4.657737315E-1,8.926848769E-1,5.301436782E-1
3.188833726E0,-4.553890526E-1,9.311693907E-1,5.356414914E-1
3.190833459E0,-4.511129856E-1,9.458301663E-1,5.380849242E-1
3.192833192E0,-4.443934560E-1,9.708756208E-1,5.454152822E-1
3.194832925E0,-4.437825978E-1,9.885907173E-1,5.472479463E-1
3.196832658E0,-4.425608814E-1,9.946993589E-1,5.509130955E-1
3.198832391E0,-4.419500232E-1,1.002640605E0,5.551891327E-1
3.200832124E0,-4.474477768E-1,1.003862381E0,5.533565879E-1
3.202831924E0,-4.492803812E-1,1.003862381E0,5.551891327E-1
3.204831657E0,-4.572216570E-1,1.002640605E0,5.564109087E-1
3.206831390E0,-4.688280821E-1,1.002640605E0,5.551891327E-1
3.208831123E0,-4.682172239E-1,1.006916642E0,5.515239835E-1
3.210830856E0,-4.743258655E-1,1.015468836E0,5.496913195E-1
3.212830589E0,-4.792127907E-1,1.016690493E0,5.411393046E-1
3.214830322E0,-4.847105742E-1,1.018523097E0,5.399175286E-1
3.216830055E0,-4.877648950E-1,1.018523097E0,5.307545066E-1
3.218829855E0,-4.926518202E-1,1.014857888E0,5.264785290E-1
3.220829588E0,-4.938735664E-1,1.014247060E0,5.246458650E-1
3.222829321E0,-4.944843948E-1,1.010581851E0,5.185372233E-1
3.224829054E0,-4.932627082E-1,1.013025284E0,5.173155069E-1
3.226828787E0,-4.914300740E-1,1.006916642E0,5.118176937E-1
3.228828520E0,-4.877648950E-1,1.000197172E0,5.105959773E-1
3.230828253E0,-4.840996861E-1,9.959210753E-1,5.075416565E-1
3.232828053E0,-4.792127907E-1,9.910341501E-1,5.032656193E-1
3.234827853E0,-4.712715447E-1,9.849255085E-1,4.922700226E-1
3.236827586E0,-4.663846195E-1,9.763734341E-1,4.886048138E-1
3.238827319E0,-4.621085525E-1,9.549931288E-1,4.794418514E-1
3.240827052E0,-4.541673362E-1,9.305585623E-1,4.672245383E-1
3.242826785E0,-4.529455900E-1,9.122325182E-1,4.635593593E-1
3.244826518E0,-4.474477768E-1,8.859653473E-1,4.482877553E-1
3.246826251E0,-4.559999108E-1,8.493134379E-1,4.452334046E-1
3.248826051E0,-4.566107690E-1,8.352635503E-1,4.385138750E-1
3.250825851E0,-4.614977241E-1,8.059419990E-1,4.262965918E-1
3.252825584E0,-4.700497985E-1,7.815073729E-1,4.116358459E-1
3.254825317E0,-4.737150073E-1,7.723444104E-1,4.024728537E-1
3.256825050E0,-4.810453653E-1,7.552402020E-1,3.859795034E-1
3.258824783E0,-4.889866412E-1,7.381359935E-1,3.725404441E-1
3.260824483E0,-4.963170290E-1,7.301946878E-1,3.664318025E-1
3.262824216E0,-5.097560287E-1,7.149230838E-1,3.548253477E-1
3.264824016E0,-5.189189911E-1,7.002623081E-1,3.432188928E-1
3.266823749E0,-5.262494087E-1,6.941536665E-1,3.395537138E-1
3.268823482E0,-5.396884680E-1,6.856015921E-1,3.273364305E-1
3.270823215E0,-5.439645052E-1,6.794928908E-1,3.236712217E-1
3.272822948E0,-5.543492436E-1,6.782711744E-1,3.108430505E-1
3.274822681E0,-5.598469973E-1,6.758276820E-1,3.047344089E-1
3.276822414E0,-5.647339225E-1,6.764385700E-1,3.010692000E-1
3.278822147E0,-5.714534521E-1,6.764385700E-1,2.882410288E-1
3.280821947E0,-5.781729817E-1,6.794928908E-1,2.760237455E-1
3.282821680E0,-5.793946981E-1,6.831580997E-1,2.693042159E-1
3.284821413E0,-5.836707950E-1,6.898776293E-1,2.564760447E-1
3.286821146E0,-5.885576606E-1,6.978188753E-1,2.424261421E-1
3.288820879E0,-5.897794366E-1,7.045384049E-1,2.338740379E-1
3.290820612E0,-5.928337574E-1,7.179774046E-1,2.222675979E-1
3.292820345E0,-5.995532274E-1,7.277512550E-1,2.137154788E-1
3.294820078E0,-6.038292646E-1,7.338598967E-1,2.082176954E-1
3.296819878E0,-6.068835855E-1,7.399685383E-1,1.972221285E-1
3.298819644E0,-6.111596823E-1,7.485206723E-1,1.905026138E-1
3.300819410E0,-6.142140031E-1,7.509641051E-1,1.843939573E-1
3.302819176E0,-6.117705703E-1,7.479097843E-1,1.758418381E-1
3.304819076E0,-6.099379063E-1,7.485206723E-1,1.672897190E-1
3.306818842E0,-6.117705703E-1,7.497424483E-1,1.642353982E-1
3.308818608E0,-6.044402122E-1,7.631814480E-1,1.556832939E-1
3.310818374E0,-5.995532274E-1,7.699009180E-1,1.471311599E-1
3.312818207E0,-5.946663022E-1,7.772313356E-1,1.422442496E-1
3.314818073E0,-5.897794366E-1,7.802856565E-1,1.330812722E-1
3.316817939E0,-5.897794366E-1,7.815073729E-1,1.275834739E-1
3.318817805E0,-5.873359442E-1,7.802856565E-1,1.251400262E-1
3.320817705E0,-5.916119814E-1,7.735661864E-1,1.153661832E-1
3.322817571E0,-5.922228098E-1,7.705118656E-1,1.110901162E-1
3.324817437E0,-5.964989066E-1,7.619597316E-1,1.049814671E-1
3.326817370E0,-6.013858914E-1,7.570728064E-1,9.459675848E-2
3.328817303E0,-6.013858914E-1,7.601271272E-1,9.215329587E-2
3.330817236E0,-6.019967198E-1,7.619597316E-1,8.299031854E-2
3.332817169E0,-5.983315110E-1,7.766205072E-1,7.382734120E-2
3.334817102E0,-5.940554738E-1,7.906703353E-1,6.955128163E-2
3.336817035E0,-5.879467726E-1,8.132724166E-1,6.466435641E-2
3.338816968E0,-5.848924518E-1,8.315983415E-1,6.832955033E-2
3.340816901E0,-5.855033398E-1,8.328200579E-1,6.955128163E-2
3.342816901E0,-5.891684890E-1,8.468700051E-1,7.138387859E-2
3.344816867E0,-5.946663022E-1,8.548111916E-1,7.138387859E-2
3.346816833E0,-6.001641154E-1,8.596981168E-1,7.260561734E-2
3.348816799E0,-6.093270779E-1,8.651959300E-1,7.565993816E-2
3.350816765E0,-6.166574955E-1,8.737480640E-1,8.237945288E-2
3.352816731E0,-6.191009283E-1,8.737480640E-1,8.726637065E-2
3.354816697E0,-6.282638907E-1,8.676394224E-1,9.581848979E-2
3.356816663E0,-6.429246664E-1,8.621416092E-1,1.092575192E-1
3.358816663E0,-6.484224796E-1,8.590872884E-1,1.123118550E-1
3.360816629E0,-6.655266881E-1,8.438156843E-1,1.251400262E-1
3.362816595E0,-6.698027253E-1,8.364852667E-1,1.275834739E-1
3.364816428E0,-6.777440310E-1,8.303765655E-1,1.349138618E-1
3.366816394E0,-6.954591274E-1,8.047202826E-1,1.514072269E-1
3.368816360E0,-6.954591274E-1,7.973898649E-1,1.544615477E-1
3.370816326E0,-7.009568214E-1,7.796748281E-1,1.685114652E-1
3.372816292E0,-7.076764107E-1,7.668465972E-1,1.819504797E-1
3.374816225E0,-7.058438063E-1,7.595162392E-1,1.831722260E-1
3.376816158E0,-7.046220899E-1,7.509641051E-1,1.905026138E-1
3.378816091E0,-7.095089555E-1,7.253078222E-1,2.014981806E-1
3.380816024E0,-7.052329183E-1,7.143121958E-1,2.039416283E-1
3.382815957E0,-6.997351646E-1,7.014840841E-1,2.100502998E-1
3.384815890E0,-6.893504858E-1,6.837689877E-1,2.186024040E-1
3.386815823E0,-6.862961054E-1,6.715516448E-1,2.222675979E-1
3.388815756E0,-6.765222549E-1,6.458953023E-1,2.283762544E-1
3.390815689E0,-6.698027253E-1,6.214606762E-1,2.338740379E-1
3.392815555E0,-6.649158597E-1,6.104651690E-1,2.369283587E-1
3.394815421E0,-6.478115916E-1,5.945826173E-1,2.405935526E-1
3.396815287E0,-6.307073832E-1,5.848087668E-1,2.369283587E-1
3.398815153E0,-6.215443611E-1,5.713697672E-1,2.381500900E-1
3.400815019E0,-6.001641154E-1,5.628176332E-1,2.369283587E-1
3.402814885E0,-5.855033398E-1,5.402156115E-1,2.375392318E-1
3.404814785E0,-5.726751685E-1,5.316635370E-1,2.350957692E-1
3.406814685E0,-5.580143929E-1,5.133375525E-1,2.283762544E-1
3.408814518E0,-5.451862216E-1,5.078397393E-1,2.253219187E-1
3.410814351E0,-5.256385207E-1,4.925681353E-1,2.173806727E-1
3.412814184E0,-5.067017078E-1,4.846268892E-1,2.100502998E-1
3.414814017E0,-4.999822080E-1,4.772965014E-1,2.063851058E-1
3.416813850E0,-4.871540368E-1,4.559162259E-1,2.002764493E-1
3.418813683E0,-4.743258655E-1,4.388119876E-1,1.966112554E-1
3.420813549E0,-4.712715447E-1,4.314815998E-1,1.947786510E-1
3.422813449E0,-4.639411569E-1,4.198751748E-1,1.856156737E-1
3.424813249E0,-4.505021274E-1,4.192643166E-1,1.740092486E-1
3.426813049E0,-4.523347020E-1,4.101013243E-1,1.697331816E-1
3.428812849E0,-4.437825978E-1,4.162099957E-1,1.532398164E-1
3.430812649E0,-4.456152022E-1,4.168208241E-1,1.410225183E-1
3.432812449E0,-4.419500232E-1,4.229294956E-1,1.324703991E-1
3.434812249E0,-4.413391352E-1,4.320924580E-1,1.135335863E-1
3.436325190E0,-4.407282770E-1,4.327033460E-1,9.398589283E-2
3.438324923E0,-4.443934560E-1,4.369794130E-1,8.482291549E-2
3.440324656E0,-4.388957024E-1,4.320924580E-1,6.405349821E-2
3.442324389E0,-4.413391352E-1,4.369794130E-1,4.817100242E-2
3.444324122E0,-4.431717396E-1,4.394228458E-1,3.656455874E-2
3.446323855E0,-4.462260604E-1,4.406445920E-1,1.884946786E-2
3.448323588E0,-4.535564482E-1,4.424771667E-1,-6.982189952E-4
3.450323321E0,-4.596650898E-1,4.430880547E-1,-8.028601296E-3
3.452323121E0,-4.614977241E-1,4.375902712E-1,-2.330023423E-2
3.454322854E0,-4.694389403E-1,4.302598834E-1,-3.612840176E-2
3.456322587E0,-4.792127907E-1,4.192643166E-1,-5.262176692E-2
3.458322320E0,-4.877648950E-1,3.942188323E-1,-6.850426644E-2
3.460322053E0,-4.859323204E-1,3.832232654E-1,-7.339118421E-2
3.462321786E0,-4.902083874E-1,3.642864525E-1,-9.538233280E-2
3.464321519E0,-4.969278872E-1,3.422952890E-1,-1.192060784E-1
3.466321252E0,-4.999822080E-1,3.325214684E-1,-1.308125108E-1
3.468321052E0,-4.957061410E-1,3.074759543E-1,-1.570797265E-1
3.470320785E0,-4.944843948E-1,2.879282832E-1,-1.882338524E-1
3.472320518E0,-4.920409620E-1,2.799870372E-1,-2.022837549E-1
3.474320251E0,-4.877648950E-1,2.531089485E-1,-2.383247912E-1
3.476319984E0,-4.786019325E-1,2.329504043E-1,-2.719223797E-1
3.478319717E0,-4.749367237E-1,2.207331061E-1,-2.896374762E-1
3.480319450E0,-4.731041193E-1,2.091266662E-1,-3.311763406E-1
3.482319150E0,-4.706606865E-1,2.048505992E-1,-3.739368916E-1
3.484318950E0,-4.639411569E-1,2.060723454E-1,-3.971497416E-1
3.486318683E0,-4.669954777E-1,2.024071515E-1,-4.350233972E-1
3.488318416E0,-4.657737315E-1,2.060723454E-1,-4.673992693E-1
3.490318149E0,-4.639411569E-1,2.115701288E-1,-4.820600152E-1
3.492317882E0,-4.559999108E-1,2.189005166E-1,-5.095489621E-1
3.494317615E0,-4.498912692E-1,2.189005166E-1,-5.315400958E-1
3.496317348E0,-4.462260604E-1,2.213439643E-1,-5.400922298E-1
3.498317148E0,-4.315653145E-1,2.201222330E-1,-5.535312295E-1
3.500316948E0,-4.230131805E-1,2.219548374E-1,-5.633051395E-1
3.502316681E0,-4.071306884E-1,2.164570391E-1,-5.706354976E-1
3.504316414E0,-3.869721293E-1,2.170679122E-1,-5.755224228E-1
3.506316147E0,-3.729222417E-1,2.134027183E-1,-5.743006468E-1
3.508315880E0,-3.460441530E-1,2.005745471E-1,-5.712463260E-1
3.510315613E0,-3.136683106E-1,1.853029132E-1,-5.669702888E-1
3.512315346E0,-3.002292812E-1,1.749182194E-1,-5.620833635E-1
3.514315146E0,-2.641882300E-1,1.492618769E-1,-5.541421771E-1
3.516314879E0,-2.238711268E-1,1.199403405E-1,-5.394814014E-1
3.518314612E0,-2.049342990E-1,1.071121693E-1,-5.284857750E-1
3.520314345E0,-1.670606583E-1,6.557332724E-2,-4.997751117E-1
3.522314078E0,-1.297978610E-1,1.853670552E-2,-4.722861946E-1
3.524313811E0,-1.108610481E-1,-8.952230215E-3,-4.612906277E-1
3.526313544E0,-7.176566869E-2,-6.881702691E-2,-4.356342852E-1
3.528313277E0,-3.205942735E-2,-1.329578757E-1,-4.081453383E-1
3.530313077E0,-1.251174137E-2,-1.659445912E-1,-3.940954208E-1
3.532312810E0,3.635747731E-2,-2.319180518E-1,-3.684390783E-1
3.534312543E0,8.461582661E-2,-3.076653481E-1,-3.427827358E-1
3.536312276E0,1.102721691E-1,-3.437063992E-1,-3.330089152E-1
3.538312009E0,1.664717644E-1,-4.157884717E-1,-3.128503859E-1
3.540311742E0,2.293909043E-1,-4.860379994E-1,-2.969678640E-1
3.542311475E0,2.611558735E-1,-5.153595209E-1,-2.933026850E-1
3.544311308E0,3.314054012E-1,-5.746134520E-1,-2.853614092E-1
3.546311108E0,3.601160645E-1,-6.051567197E-1,-2.774201632E-1
3.548310841E0,4.236460626E-1,-6.631888747E-1,-2.792527676E-1
3.550310574E0,4.896194637E-1,-7.175558805E-1,-2.878048718E-1
3.552310307E0,5.201627612E-1,-7.474882603E-1,-2.933026850E-1
3.554310040E0,5.849145055E-1,-7.994118929E-1,-3.091851771E-1
3.556309773E0,6.521096230E-1,-8.470593095E-1,-3.311763406E-1
3.558309506E0,6.838746071E-1,-8.690505028E-1,-3.446153700E-1
3.560309239E0,7.461829185E-1,-9.197522998E-1,-3.672173619E-1
3.562309039E0,8.127672076E-1,-9.686214924E-1,-3.971497416E-1
3.564308772E0,8.408669829E-1,-9.991648197E-1,-4.130322635E-1
3.566308505E0,8.909579515E-1,-1.059640527E0,-4.441863894E-1
3.568308238E0,9.520444870E-1,-1.123170376E0,-4.771730900E-1
3.570307971E0,9.801442623E-1,-1.145772457E0,-4.954990447E-1
3.572307704E0,1.043063402E0,-1.208691478E0,-5.309292674E-1
3.574307437E0,1.107815027E0,-1.266112924E0,-5.651376843E-1
3.576307237E0,1.138358355E0,-1.299099565E0,-5.816310644E-1
3.578307037E0,1.206164479E0,-1.346136212E0,-6.115635037E-1
3.580306770E0,1.275803089E0,-1.390118480E0,-6.427175999E-1
3.582306503E0,1.314287543E0,-1.402946830E0,-6.586000919E-1
3.584306236E0,1.388813138E0,-1.420050859E0,-6.897541881E-1
3.586305969E0,1.467003942E0,-1.443874598E0,-7.227409482E-1
3.588305702E0,1.498768926E0,-1.456702828E0,-7.343473434E-1
3.590305435E0,1.571461797E0,-1.484191775E0,-7.538951039E-1
3.592305235E0,1.604448557E0,-1.502517700E0,-7.630580664E-1
3.594304968E0,1.665535092E0,-1.531839252E0,-7.740535736E-1
3.596304701E0,1.717458606E0,-1.559939146E0,-7.874926925E-1
3.598304434E0,1.743725777E0,-1.567880392E0,-7.929904461E-1
3.600304167E0,1.785264611E0,-1.584984660E0,-8.015425205E-1
3.602303900E0,1.822527409E0,-1.592314959E0,-8.033751249E-1
3.604303533E0,1.840853453E0,-1.590482354E0,-8.027642965E-1
3.606303266E0,1.870785713E0,-1.570323825E0,-7.881035209E-1
3.608303066E0,1.903161645E0,-1.513513327E0,-7.734427452E-1
3.610302799E0,1.923931003E0,-1.470752835E0,-7.691667080E-1
3.612302532E0,1.978298068E0,-1.357742667E0,-7.667232752E-1
3.614302265E0,2.043049812E0,-1.216632843E0,-7.703884244E-1
3.616301998E0,2.073592901E0,-1.142718196E0,-7.764970660E-1
3.618301731E0,2.142620802E0,-1.011382103E0,-7.972664833E-1
3.620301464E0,2.195155382E0,-9.020372033E-1,-8.198685050E-1
3.622301197E0,2.217146397E0,-8.513354063E-1,-8.333075643E-1
3.624300997E0,2.243413687E0,-7.749772072E-1,-8.632399440E-1
3.626300730E0,2.256852627E0,-7.022842765E-1,-8.937832117E-1
3.628300463E0,2.257463694E0,-6.686866879E-1,-9.090548158E-1
3.630300196E0,2.269680977E0,-5.941611528E-1,-9.426524043E-1
3.632299929E0,2.278843641E0,-5.171921253E-1,-9.786934853E-1
3.634299662E0,2.282509089E0,-4.750424325E-1,-1.000073671E0
3.636299395E0,2.270902634E0,-3.901321292E-1,-1.048943043E0
3.638299128E0,2.258074522E0,-3.443172574E-1,-1.074599385E0
3.640298928E0,2.215313673E0,-2.551309168E-1,-1.126522779E0
3.642298661E0,2.156059742E0,-1.720532477E-1,-1.171726942E0
3.644298394E0,2.118186235E0,-1.354013383E-1,-1.188831210E0
3.646298127E0,2.040606260E0,-6.637356430E-2,-1.212044001E0
3.648297860E0,1.970356822E0,4.486805294E-3,-1.223650336E0
3.650297593E0,1.933094144E0,4.174958542E-2,-1.218763590E0
3.652297326E0,1.865288019E0,1.132208183E-1,-1.201048493E0
3.654297126E0,1.802368879E0,1.749182194E-1,-1.182722449E0
3.656296926E0,1.773658156E0,1.920224279E-1,-1.170505166E0
3.658296659E0,1.707073927E0,2.060723454E-1,-1.142405391E0
3.660296392E0,1.643543959E0,1.962984949E-1,-1.121024966E0
3.662296125E0,1.610557199E0,1.779725403E-1,-1.112473011E0
3.664295858E0,1.545805573E0,1.327685118E-1,-1.094146967E0
3.666295591E0,1.477388501E0,7.412543893E-2,-1.074599385E0
3.668295324E0,1.448678017E0,5.396688730E-2,-1.067879796E0
3.670295124E0,1.406528234E0,1.853670552E-2,-1.054440737E0
3.672294924E0,1.386369586E0,-8.341364563E-3,-1.041612506E0
3.674294657E0,1.378428459E0,-2.849991806E-2,-1.039169192E0
3.676294390E0,1.366211057E0,-7.736913860E-2,-1.040390849E0
3.678294123E0,1.360102415E0,-1.378448009E-1,-1.047110319E0
3.680293856E0,1.360102415E0,-1.732749790E-1,-1.051386476E0
3.682293589E0,1.362545848E0,-2.490222752E-1,-1.061771154E0
3.684293322E0,1.364378572E0,-2.881176472E-1,-1.068490744E0
3.686293122E0,1.366822004E0,-3.754713833E-1,-1.084984064E0
3.688292855E0,1.365600228E0,-4.506077766E-1,-1.105142593E0
3.690292588E0,1.360102415E0,-4.939792454E-1,-1.116749048E0
3.692292321E0,1.357048154E0,-5.605635643E-1,-1.150346518E0
3.694292054E0,1.351550341E0,-6.216500998E-1,-1.188220263E0
3.696291787E0,1.351550341E0,-6.473063827E-1,-1.205935359E0
3.698291520E0,1.353382945E0,-6.906778812E-1,-1.237089515E0
3.700291253E0,1.363767743E0,-7.352709770E-1,-1.275573969E0
3.702291053E0,1.361935019E0,-7.590947151E-1,-1.293289065E0
3.704290786E0,1.364989400E0,-8.091857433E-1,-1.325054049E0
3.706290519E0,1.365600228E0,-8.611092567E-1,-1.358651638E0
3.708290252E0,1.365600228E0,-8.867655396E-1,-1.376366735E0
3.710289985E0,1.358880758E0,-9.276935458E-1,-1.403244853E0
3.712289718E0,1.345441699E0,-9.649563432E-1,-1.425846815E0
3.714289451E0,1.337500453E0,-9.771736264E-1,-1.438064098E0
3.716289184E0,1.318563581E0,-9.997756481E-1,-1.452113986E0
3.718288984E0,1.294129014E0,-1.015047312E0,-1.461887956E0
3.720288717E0,1.281911731E0,-1.018712521E0,-1.466163993E0
3.722288450E0,1.256255388E0,-1.025431991E0,-1.475326896E0
3.724288183E0,1.231209874E0,-1.038260102E0,-1.484489918E0
3.726287916E0,1.215938210E0,-1.052310109E0,-1.485100746E0
3.728287649E0,1.182951570E0,-1.066970825E0,-1.483878970E0
3.730287382E0,1.168290734E0,-1.077966452E0,-1.480213881E0
3.732287115E0,1.127973676E0,-1.090794563E0,-1.458833575E0
3.734286915E0,1.091321826E0,-1.096903205E0,-1.429512143E0
3.736286648E0,1.074217558E0,-1.107898831E0,-1.408742547E0
3.738286381E0,1.024737477E0,-1.137831211E0,-1.368425488E0
3.740286114E0,9.691486955E-1,-1.167763591E0,-1.336660504E0
3.742285847E0,9.416598082E-1,-1.176926613E0,-1.326275706E0
3.744285580E0,8.934014440E-1,-1.183035254E0,-1.309782505E0
3.746285313E0,8.561385870E-1,-1.184256911E0,-1.292067409E0
3.748285113E0,8.414778709E-1,-1.181813478E0,-1.284126043E0
3.750284913E0,8.152107000E-1,-1.184256911E0,-1.264578342E0
3.752284646E0,7.926086187E-1,-1.183646083E0,-1.245030761E0
3.754284379E0,7.816131115E-1,-1.184867740E0,-1.235256791E0
3.756284112E0,7.638980150E-1,-1.177537441E0,-1.216930866E0
3.758283845E0,7.498480678E-1,-1.168374538E0,-1.197994113E0
3.760283578E0,7.412959337E-1,-1.163487554E0,-1.190663695E0
3.762283311E0,7.284677625E-1,-1.149437666E0,-1.176002979E0
3.764283111E0,7.193048000E-1,-1.130500913E0,-1.160120487E0
3.766282877E0,7.162504792E-1,-1.123781204E0,-1.155844331E0
3.768282643E0,7.064766288E-1,-1.107898831E0,-1.140572786E0
3.770282409E0,6.905941963E-1,-1.093848825E0,-1.121024966E0
3.772282175E0,6.844854951E-1,-1.088962078E0,-1.114305496E0
3.774281941E0,6.686030030E-1,-1.070636034E0,-1.098423123E0
3.776281707E0,6.649377942E-1,-1.060251355E0,-1.092925310E0
3.778281473E0,6.466118693E-1,-1.046201468E0,-1.074599385E0
3.780281306E0,6.276750565E-1,-1.039481878E0,-1.053218961E0
3.782281072E0,6.185120940E-1,-1.035205841E0,-1.045277834E0
3.784280838E0,6.014078259E-1,-1.027264595E0,-1.029395223E0
3.786280604E0,5.733080506E-1,-1.026653647E0,-1.011680126E0
3.788280370E0,5.653667450E-1,-1.024210334E0,-1.004960656E0
3.790280136E0,5.397104621E-1,-1.019323349E0,-9.884673357E-1
3.792279902E0,5.103889108E-1,-1.011992931E0,-9.738065600E-1
3.794279668E0,4.969498515E-1,-1.012603879E0,-9.676978588E-1
3.796279501E0,4.688500762E-1,-1.008327723E0,-9.530370831E-1
3.798279267E0,4.340307713E-1,-1.000386477E0,-9.432632923E-1
3.800279033E0,4.175373912E-1,-9.961104989E-1,-9.389872551E-1
3.802278799E0,3.814963400E-1,-9.838932157E-1,-9.359329343E-1
3.804278565E0,3.460661769E-1,-9.704540968E-1,-9.304351211E-1
3.806278331E0,3.314054012E-1,-9.582368135E-1,-9.273808002E-1
3.808278097E0,2.959752083E-1,-9.374673963E-1,-9.212721586E-1
3.810277863E0,2.697080076E-1,-9.075350165E-1,-9.090548158E-1
3.812277696E0,2.587124407E-1,-8.898198605E-1,-9.060004950E-1
3.814277462E0,2.409973294E-1,-8.507245779E-1,-8.956157565E-1
3.816277228E0,2.245039642E-1,-8.104074001E-1,-8.907288909E-1
3.818276994E0,2.153409868E-1,-7.920814753E-1,-8.754572868E-1
3.820276760E0,2.019019574E-1,-7.554295659E-1,-8.528552055E-1
3.822276526E0,1.939607114E-1,-7.328276038E-1,-8.443030715E-1
3.824276292E0,1.841868758E-1,-6.870126128E-1,-8.192576170E-1
3.826276092E0,1.792999357E-1,-6.430303454E-1,-7.990991473E-1
3.828275892E0,1.762456149E-1,-6.216500998E-1,-7.874926925E-1
3.830275625E0,1.750238985E-1,-5.764460564E-1,-7.661123872E-1
3.832275358E0,1.744130254E-1,-5.300202370E-1,-7.416777611E-1
3.834275091E0,1.774673462E-1,-5.049748421E-1,-7.276278734E-1
3.836274824E0,1.835760027E-1,-4.573273361E-1,-7.038041353E-1
3.838274557E0,1.982367635E-1,-4.090689719E-1,-6.708173752E-1
3.840274290E0,2.080105990E-1,-3.852452040E-1,-6.579892039E-1
3.842274090E0,2.238931060E-1,-3.333216906E-1,-6.237807870E-1
3.844273823E0,2.483277172E-1,-2.820090055E-1,-5.901831388E-1
3.846273556E0,2.544363737E-1,-2.642939091E-1,-5.718572140E-1
3.848273289E0,2.807035744E-1,-2.184790075E-1,-5.394814014E-1
3.850273022E0,3.039164543E-1,-1.806053668E-1,-5.040511489E-1
3.852272755E0,3.149120212E-1,-1.641120017E-1,-4.857252240E-1
3.854272488E0,3.430118263E-1,-1.378448009E-1,-4.466298521E-1
3.856272221E0,3.698898852E-1,-1.121884510E-1,-4.093670547E-1
3.858272021E0,3.857724071E-1,-1.024146155E-1,-3.922628462E-1
3.860271754E0,4.138721824E-1,-8.225605637E-2,-3.482805490E-1
3.862271487E0,4.273112416E-1,-7.920173556E-2,-3.311763406E-1
3.864271220E0,4.505241215E-1,-6.576269865E-2,-2.908592224E-1
3.866270953E0,4.737370014E-1,-5.598885193E-2,-2.511529624E-1
3.868270686E0,4.835108221E-1,-5.171279982E-2,-2.309944183E-1
3.870270419E0,4.975607395E-1,-4.926933721E-2,-1.882338524E-1
3.872270152E0,5.055019855E-1,-4.621501267E-2,-1.466950029E-1
3.874269952E0,5.042802691E-1,-4.804760590E-2,-1.222604066E-1
3.876269685E0,5.018367767E-1,-4.988020286E-2,-7.888896763E-2
3.878269418E0,4.926738143E-1,-5.659972131E-2,-3.307407722E-2
3.880269151E0,4.865651429E-1,-5.782144889E-2,-1.230465900E-2
3.882268884E0,4.664066136E-1,-7.064961642E-2,3.045590781E-2
3.884268617E0,4.425828457E-1,-7.920173556E-2,7.199474424E-2
3.886268350E0,4.260894954E-1,-9.019730985E-2,9.276416153E-2
3.888268083E0,3.973788321E-1,-1.042472050E-1,1.336921453E-1
3.890267883E0,3.582834601E-1,-1.170753762E-1,1.703440547E-1
3.892267616E0,3.411792219E-1,-1.262383610E-1,1.850048155E-1
3.894267349E0,2.947534919E-1,-1.457860470E-1,2.186024040E-1
3.896267082E0,2.428299189E-1,-1.561707556E-1,2.491456568E-1
3.898266815E0,2.208387703E-1,-1.641120017E-1,2.656390369E-1
3.900266548E0,1.676935107E-1,-1.744967103E-1,2.912953794E-1
3.902266281E0,1.114939004E-1,-1.836596876E-1,3.242821097E-1
3.904266081E0,8.828102052E-2,-1.854922771E-1,3.364993930E-1
3.906265881E0,3.208142146E-2,-1.922118068E-1,3.670426607E-1
3.908265614E0,3.370754421E-3,-1.903792173E-1,3.829251528E-1
3.910265347E0,-4.977452010E-2,-1.946552545E-1,4.091923535E-1
3.912265080E0,-9.742201120E-2,-1.854922771E-1,4.348486960E-1
3.914264813E0,-1.230783537E-1,-1.879357398E-1,4.488985837E-1
3.916264546E0,-1.713366956E-1,-1.799944937E-1,4.739440680E-1
3.918264279E0,-2.159298658E-1,-1.714423895E-1,4.996004105E-1
3.920264079E0,-2.336449623E-1,-1.671663374E-1,5.124285817E-1
3.922263879E0,-2.764055133E-1,-1.659445912E-1,5.411393046E-1
3.924263612E0,-3.155009151E-1,-1.689989269E-1,5.680173635E-1
3.926263345E0,-3.344377279E-1,-1.708315313E-1,5.771803260E-1
3.928263078E0,-3.723113835E-1,-1.732749790E-1,6.046692729E-1
3.930262811E0,-4.052980840E-1,-1.787727624E-1,6.284929514E-1
3.932262544E0,-4.279001057E-1,-1.830488294E-1,6.443755031E-1
3.934262277E0,-4.566107690E-1,-1.922118068E-1,6.718644500E-1
3.936262077E0,-4.828779995E-1,-1.983204484E-1,6.981316209E-1
3.938261810E0,-4.963170290E-1,-2.025965154E-1,7.115706801E-1
3.940261543E0,-5.134212375E-1,-2.056508362E-1,7.360052466E-1
3.942261276E0,-5.274711251E-1,-2.038182318E-1,7.579963803E-1
3.944261009E0,-5.293037295E-1,-2.080942988E-1,7.689920068E-1
3.946260742E0,-5.262494087E-1,-2.154246867E-1,7.946482897E-1
3.948260475E0,-5.146429539E-1,-2.276419848E-1,8.209155202E-1
3.950260208E0,-5.079234838E-1,-2.319180518E-1,8.392415047E-1
3.952260008E0,-4.786019325E-1,-2.398592979E-1,8.685630560E-1
3.954259741E0,-4.627194107E-1,-2.471896857E-1,8.862781525E-1
3.956259474E0,-4.156827927E-1,-2.618504465E-1,9.192648530E-1
3.958259207E0,-3.680353165E-1,-2.807872593E-1,9.516406655E-1
3.960258940E0,-3.374920785E-1,-2.899502516E-1,9.687449336E-1
3.962258673E0,-2.684642971E-1,-3.094979227E-1,9.992882013E-1
3.964258406E0,-1.884409338E-1,-3.314890862E-1,1.023722768E0
3.966258139E0,-1.609520018E-1,-3.504258990E-1,1.038383603E0
3.968257939E0,-8.276124299E-2,-3.809691668E-1,1.057931304E0
3.970257672E0,-2.045298927E-2,-4.170102179E-1,1.071981192E0
3.972257405E0,6.425080821E-3,-4.371687770E-1,1.078700662E0
3.974257138E0,5.712689459E-2,-4.780967534E-1,1.084809303E0
3.976256871E0,9.438967705E-2,-5.257441998E-1,1.087252855E0
3.978256604E0,1.059961170E-1,-5.501788259E-1,1.087252855E0
3.980256337E0,1.261546761E-1,-5.990480185E-1,1.083587646E0
3.982256070E0,1.322633177E-1,-6.460846663E-1,1.077478886E0
3.984255870E0,1.310416013E-1,-6.637997627E-1,1.075035572E0
3.986255603E0,1.292089969E-1,-6.931212544E-1,1.071981192E0
3.988255336E0,1.279872656E-1,-6.998408437E-1,1.067705035E0
3.990255069E0,1.218786091E-1,-6.943430305E-1,1.066483378E0
3.992254802E0,1.285981238E-1,-6.644106507E-1,1.054266095E0
3.994254535E0,1.347067803E-1,-6.161522865E-1,1.035329223E0
3.996254268E0,1.365393847E-1,-5.880525112E-1,1.021890163E0
3.998254068E0,1.554761976E-1,-5.208572745E-1,9.791296124E-1
4.000253868E0,1.652500480E-1,-4.884814322E-1,9.510298371E-1
4.002253601E0,1.823542714E-1,-4.121232927E-1,8.923867941E-1
4.004253334E0,1.890737861E-1,-3.314890862E-1,8.227481246E-1
4.006253067E0,1.896846443E-1,-2.887285054E-1,7.879288197E-1
4.008252800E0,1.725804359E-1,-2.019856423E-1,7.182901502E-1
4.010252533E0,1.322633177E-1,-1.146319211E-1,6.474298239E-1
4.012252266E0,1.029417887E-1,-7.003875822E-2,6.162756681E-1
4.014252066E0,3.941180557E-2,1.548238005E-2,5.496913195E-1
4.016251799E0,-3.022683412E-2,9.122966975E-2,4.989895523E-1
4.018251532E0,-6.260269135E-2,1.284924448E-1,4.739440680E-1
4.020251265E0,-1.236892194E-1,1.981310844E-1,4.311835170E-1
4.022250998E0,-1.719475687E-1,2.598284781E-1,3.908663988E-1
4.024250731E0,-1.982147843E-1,2.879282832E-1,3.792599440E-1
4.026250464E0,-2.452514023E-1,3.361866474E-1,3.645991981E-1
4.028250197E0,-2.806815803E-1,3.795580864E-1,3.536036313E-1
4.030249997E0,-2.990075350E-1,3.929970860E-1,3.560470939E-1
4.032249730E0,-3.332160115E-1,4.125447869E-1,3.621557355E-1
4.034249463E0,-3.717004955E-1,4.174317122E-1,3.823142946E-1
4.036249196E0,-3.912481964E-1,4.174317122E-1,3.963641822E-1
4.038248929E0,-4.346196353E-1,4.131556451E-1,4.305726290E-1
4.040248662E0,-4.773801863E-1,4.143773913E-1,4.794418514E-1
4.042248395E0,-5.030365586E-1,4.168208241E-1,5.038764477E-1
4.044248128E0,-5.476297140E-1,4.272055626E-1,5.576326251E-1
4.046247928E0,-5.708425641E-1,4.308707714E-1,5.814563632E-1
4.048247661E0,-6.129922271E-1,4.406445920E-1,6.327690482E-1
4.050247394E0,-6.490333080E-1,4.553053677E-1,6.816382408E-1
4.052247127E0,-6.630832553E-1,4.601922929E-1,7.060728669E-1
4.054246860E0,-6.893504858E-1,4.754638970E-1,7.500551939E-1
4.056246593E0,-7.137850523E-1,4.889029562E-1,7.922049165E-1
4.058246326E0,-7.247806191E-1,4.950115979E-1,8.123633862E-1
4.060246059E0,-7.449391484E-1,5.047854185E-1,8.587892056E-1
4.062245859E0,-7.632651329E-1,5.102832317E-1,8.978846073E-1
4.064245592E0,-7.681520581E-1,5.108941197E-1,9.131562114E-1
4.066245325E0,-7.822019458E-1,5.072289109E-1,9.504189491E-1
4.068245058E0,-7.974735498E-1,4.944007397E-1,9.834057093E-1
4.070244791E0,-8.072474599E-1,4.858486354E-1,1.001731634E0
4.072244524E0,-8.206864595E-1,4.595814347E-1,1.032885790E0
4.074244257E0,-8.359580636E-1,4.259838164E-1,1.060985565E0
4.076244057E0,-8.414558768E-1,4.009383619E-1,1.074424505E0
4.078243857E0,-8.512297273E-1,3.557343185E-1,1.097026587E0
4.080243590E0,-8.628361821E-1,3.062542379E-1,1.115352511E0
4.082243323E0,-8.671122193E-1,2.848739624E-1,1.122682929E0
4.084243056E0,-8.707774282E-1,2.433351129E-1,1.134289384E0
4.086242789E0,-8.848273158E-1,1.938550323E-1,1.138565421E0
4.088242522E0,-8.884924650E-1,1.785833985E-1,1.142841578E0
4.090242255E0,-9.019315243E-1,1.462075412E-1,1.141619802E0
4.092242055E0,-9.049858451E-1,1.352119744E-1,1.139787197E0
4.094241788E0,-9.068185091E-1,1.205511987E-1,1.135511160E0
4.096241521E0,-9.080401659E-1,1.119990945E-1,1.126958966E0
4.098241254E0,-9.068185091E-1,1.144425496E-1,1.126348138E0
4.100240987E0,-9.049858451E-1,1.168860123E-1,1.120850325E0
4.102240720E0,-8.976554275E-1,1.199403405E-1,1.103746057E0
4.104240453E0,-8.970445991E-1,1.254381239E-1,1.098248363E0
4.106240186E0,-8.872707486E-1,1.431532204E-1,1.079922318E0
4.108239986E0,-8.756642938E-1,1.602574438E-1,1.057931304E0
4.110239719E0,-8.701665401E-1,1.700312793E-1,1.049379110E0
4.112239452E0,-8.548948765E-1,1.889681071E-1,1.033496618E0
4.114239185E0,-8.402341604E-1,2.024071515E-1,1.017003298E0
4.116238918E0,-8.316820264E-1,2.097375393E-1,1.012727261E0
4.118238651E0,-8.194647431E-1,2.170679122E-1,1.000509858E0
4.120238384E0,-8.048039675E-1,2.262308896E-1,9.901251793E-1
4.122238117E0,-7.999170423E-1,2.323395312E-1,9.827948213E-1
4.124237917E0,-7.846453786E-1,2.408916652E-1,9.766861796E-1
4.126237650E0,-7.632651329E-1,2.592176199E-1,9.717992544E-1
4.128237383E0,-7.577673197E-1,2.647154033E-1,9.693557620E-1
4.130237116E0,-7.382196784E-1,2.805978954E-1,9.620254040E-1
4.132236849E0,-7.143959403E-1,2.970912457E-1,9.559167624E-1
4.134236582E0,-7.040111423E-1,3.068651259E-1,9.528624415E-1
4.136236315E0,-6.789656878E-1,3.221367300E-1,9.473646283E-1
4.138236048E0,-6.667484045E-1,3.245801926E-1,9.467537999E-1
4.140235848E0,-6.417029500E-1,3.227475882E-1,9.449211955E-1
4.142235581E0,-6.227661371E-1,3.044216335E-1,9.388124943E-1
4.144235314E0,-6.111596823E-1,2.934260666E-1,9.320930243E-1
4.146235047E0,-6.001641154E-1,2.671588659E-1,9.302604198E-1
4.148234780E0,-5.842816234E-1,2.549415529E-1,9.272060990E-1
4.150234513E0,-5.757294893E-1,2.470003068E-1,9.284278154E-1
4.152234246E0,-5.604578853E-1,2.372264713E-1,9.217082858E-1
4.154234046E0,-5.464079380E-1,2.317286879E-1,9.198757410E-1
4.156233846E0,-5.409101844E-1,2.280634940E-1,9.204865694E-1
4.158233579E0,-5.286928415E-1,2.225657105E-1,9.119344354E-1
4.160233312E0,-5.213624835E-1,2.146244496E-1,9.033823013E-1
4.162233045E0,-5.213624835E-1,2.091266662E-1,9.015497565E-1
4.164232778E0,-5.176973343E-1,2.030180097E-1,8.917759061E-1
4.166232511E0,-5.189189911E-1,1.987419575E-1,8.795586228E-1
4.168232244E0,-5.201407671E-1,1.956876218E-1,8.746716976E-1
4.170232044E0,-5.189189911E-1,1.950767636E-1,8.630652428E-1
4.172231844E0,-5.311363339E-1,1.798051298E-1,8.496262431E-1
4.174231577E0,-5.439645052E-1,1.553705186E-1,8.355762959E-1
4.176231310E0,-5.665665269E-1,1.260489821E-1,8.105308414E-1
4.178231043E0,-5.677882433E-1,1.553705186E-1,8.013678789E-1
4.180230776E0,-5.580143929E-1,1.840811968E-1,7.970917821E-1
4.182230509E0,-5.207516551E-1,2.671588659E-1,7.958700657E-1
4.184230242E0,-4.987604618E-1,3.135846257E-1,7.958700657E-1
4.186230042E0,-4.511129856E-1,4.058252573E-1,7.970917821E-1
4.188229808E0,-4.046872258E-1,4.931790233E-1,7.934265733E-1
4.190229574E0,-3.851395249E-1,5.365504026E-1,7.909831405E-1
4.192229340E0,-3.497093618E-1,6.116868258E-1,7.787657976E-1
4.194229106E0,-3.264964819E-1,6.758276820E-1,7.665485144E-1
4.196228872E0,-3.148900568E-1,7.020949125E-1,7.616616488E-1
4.198228638E0,-3.038944602E-1,7.363033295E-1,7.555530071E-1
4.200228404E0,-3.014509976E-1,7.589054108E-1,7.488334179E-1
4.202228237E0,-3.038944602E-1,7.619597316E-1,7.470008731E-1
4.204228003E0,-3.057270646E-1,7.729552388E-1,7.390595675E-1
4.206227769E0,-3.252747357E-1,7.613488436E-1,7.408922315E-1
4.208227535E0,-3.332160115E-1,7.601271272E-1,7.366161346E-1
4.210227301E0,-3.503202200E-1,7.589054108E-1,7.360052466E-1
4.212227067E0,-3.747548163E-1,7.613488436E-1,7.329509258E-1
4.214226833E0,-3.906373382E-1,7.619597316E-1,7.305074930E-1
4.216226599E0,-4.156827927E-1,7.692900896E-1,7.182901502E-1
4.218226432E0,-4.474477768E-1,7.753987312E-1,7.072946429E-1
4.220226198E0,-4.614977241E-1,7.772313356E-1,7.005750537E-1
4.222225964E0,-4.975387454E-1,7.802856565E-1,6.822491288E-1
4.224225730E0,-5.274711251E-1,7.882269025E-1,6.639231443E-1
4.226225496E0,-5.445753932E-1,7.900595069E-1,6.553710103E-1
4.228225262E0,-5.708425641E-1,8.041094542E-1,6.315473318E-1
4.230225028E0,-5.824490190E-1,8.126615286E-1,6.199408770E-1
4.232224794E0,-6.032184362E-1,8.328200579E-1,6.028366685E-1
4.234224627E0,-6.123813987E-1,8.505351543E-1,5.790128708E-1
4.236224393E0,-6.215443611E-1,8.609198332E-1,5.704607964E-1
4.238224159E0,-6.349834204E-1,8.804675937E-1,5.484696627E-1
4.240223925E0,-6.410921216E-1,8.957391977E-1,5.270893574E-1
4.242223691E0,-6.435354948E-1,9.018478394E-1,5.197589993E-1
4.244223457E0,-6.533094049E-1,9.079564810E-1,4.965460896E-1
4.246223223E0,-6.557528973E-1,9.140651822E-1,4.776092470E-1
4.248223023E0,-6.569745541E-1,9.146760106E-1,4.653919637E-1
4.250222823E0,-6.606397629E-1,9.134542942E-1,4.452334046E-1
