"Time (s)","Gyroscope x (rad/s)","Gyroscope y (rad/s)","Gyroscope z (rad/s)"
4.186042300E-2,2.446136475E0,2.675338745E0,4.823608398E-1
4.689582400E-2,2.443481445E0,2.776535034E0,5.121917725E-1
5.193122400E-2,2.374237061E0,3.064682007E0,5.883483887E-1
5.696662500E-2,2.124969482E0,3.171218872E0,7.380218506E-1
6.200202500E-2,1.632812500E0,2.916610718E0,9.388275146E-1
6.703742500E-2,9.270782471E-1,2.567214966E0,1.140151978E0
7.210334300E-2,1.478271484E-1,2.274261475E0,1.285034180E0
7.713874400E-2,-5.371246338E-1,2.120864868E0,1.348419189E0
8.217414400E-2,-1.092132568E0,1.970123291E0,1.298355103E0
8.720954500E-2,-1.516113281E0,1.767196655E0,1.121520996E0
9.227546300E-2,-1.785614014E0,1.638290405E0,8.813018799E-1
9.731086300E-2,-1.896408081E0,1.610061646E0,6.559906006E-1
1.023462630E-1,-1.885223389E0,1.634567261E0,4.967346191E-1
1.073816640E-1,-1.796813965E0,1.644683838E0,4.067230225E-1
1.124475820E-1,-1.663650513E0,1.589294434E0,3.694458008E-1
1.174829820E-1,-1.487350464E0,1.509399414E0,3.699798584E-1
1.225489000E-1,-1.290802002E0,1.469451904E0,4.061889648E-1
1.275843000E-1,-1.101715088E0,1.438034058E0,4.626464844E-1
1.326197010E-1,-9.424591064E-1,1.380508423E0,5.201721191E-1
1.376551010E-1,-8.194274902E-1,1.276641846E0,5.462799072E-1
1.427210190E-1,-7.597656250E-1,1.190887451E0,5.643768311E-1
1.477869370E-1,-7.730865479E-1,1.175979614E0,5.904846191E-1
1.528223380E-1,-8.226165771E-1,1.220718384E0,5.947418213E-1
1.578577380E-1,-8.961181641E-1,1.328308105E0,5.595855713E-1
1.629236560E-1,-9.691009521E-1,1.473709106E0,4.844818115E-1
1.679590560E-1,-1.017562866E0,1.639892578E0,3.827514648E-1
1.730249740E-1,-1.047393799E0,1.778915405E0,2.863464355E-1
1.780603750E-1,-1.069229126E0,1.897689819E0,2.400054932E-1
1.830957750E-1,-1.047393799E0,1.998352051E0,1.633148193E-1
1.881311750E-1,-9.872131348E-1,2.052688599E0,6.051635742E-2
1.931970930E-1,-9.142303467E-1,2.094223022E0,-2.630615234E-2
1.982324940E-1,-8.343353271E-1,2.162414551E0,-7.957458496E-2
2.032678940E-1,-7.560424805E-1,2.270004272E0,-1.051330566E-1
2.083032950E-1,-6.867980957E-1,2.413284302E0,-1.157836914E-1
2.133692130E-1,-6.212921143E-1,2.547500610E0,-1.179199219E-1
2.184046130E-1,-5.531158447E-1,2.672668457E0,-1.141967773E-1
2.234400130E-1,-4.817352295E-1,2.788253784E0,-1.115264893E-1
2.285059310E-1,-4.023742676E-1,2.902770996E0,-1.125946045E-1
2.335413320E-1,-3.187561035E-1,3.000244141E0,-1.232452393E-1
2.385767320E-1,-2.292633057E-1,3.076934814E0,-1.424255371E-1
2.436426500E-1,-1.355285645E-1,3.110488892E0,-1.637268066E-1
2.486780500E-1,-3.591918945E-2,3.109420776E0,-1.839599609E-1
2.537439680E-1,6.474304199E-2,3.079605103E0,-1.844940186E-1
2.587793690E-1,1.797943115E-1,3.043380737E0,-1.445465088E-1
2.638147690E-1,2.958984375E-1,2.933654785E0,-8.915710449E-2
2.688806870E-1,3.827209473E-1,2.662551880E0,-4.814147949E-2
2.739160880E-1,4.690093994E-1,2.350952148E0,-2.577209473E-2
2.789820060E-1,5.569000244E-1,2.048431396E0,-2.790832520E-2
2.840174060E-1,6.463775635E-1,1.647354126E0,-6.518554688E-2
2.890528060E-1,7.406463623E-1,1.356536865E0,-1.014099121E-1
2.940882070E-1,8.136291504E-1,1.231903076E0,-1.360321045E-1
2.991541250E-1,8.567657471E-1,1.135498047E0,-1.914215088E-1
3.041895250E-1,8.775329590E-1,1.141357422E0,-2.606658936E-1
3.092249250E-1,8.589019775E-1,1.252670288E0,-3.528137207E-1
3.142908430E-1,8.088378906E-1,1.348541260E0,-4.476165771E-1
3.193262440E-1,7.417144775E-1,1.395416260E0,-5.450897217E-1
3.243616440E-1,6.549072266E-1,1.344284058E0,-6.516113281E-1
3.294275620E-1,5.398559570E-1,1.108322144E0,-7.597351074E-1
3.344629630E-1,3.976440430E-1,6.646423340E-1,-8.827819824E-1
3.394983630E-1,2.218627930E-1,3.401184082E-2,-1.031921387E0
3.445642810E-1,6.687927246E-2,-5.124664307E-1,-1.222061157E0
3.495996810E-1,-1.036071777E-2,-6.893005371E-1,-1.460678101E0
3.546655990E-1,-2.420043945E-2,-5.082092285E-1,-1.725402832E0
3.597010000E-1,-8.224487305E-3,-1.513519287E-1,-1.981597900E0
3.647364000E-1,2.746582031E-2,2.028503418E-1,-2.174942017E0
3.698023180E-1,8.924865723E-2,5.234985352E-1,-2.326736450E0
3.748377180E-1,2.000274658E-1,7.701110840E-1,-2.470550537E0
3.799036360E-1,3.683471680E-1,7.850189209E-1,-2.589324951E0
3.849390370E-1,5.750122070E-1,5.938110352E-1,-2.644729614E0
3.899744370E-1,7.805938721E-1,4.116516113E-1,-2.584533691E0
3.950403550E-1,9.382629395E-1,3.748931885E-1,-2.394927979E0
4.000757560E-1,1.024551392E0,5.176391602E-1,-2.117950439E0
4.051111560E-1,1.053314209E0,7.599792480E-1,-1.823410034E0
4.101465560E-1,1.028808594E0,9.165802002E-1,-1.533660889E0
4.151819570E-1,9.755401611E-1,9.346923828E-1,-1.258285522E0
4.202478750E-1,9.185485840E-1,8.153839111E-1,-1.045761108E0
4.252832750E-1,8.770141602E-1,6.609191895E-1,-9.647979736E-1
4.303491930E-1,9.212188721E-1,6.065826416E-1,-9.083404541E-1
4.353845930E-1,1.074615479E0,5.922088623E-1,-7.719879150E-1
4.404199940E-1,1.297256470E0,5.682373047E-1,-6.164550781E-1
4.454859120E-1,1.542800903E0,5.442657471E-1,-5.253753662E-1
4.505213120E-1,1.788345337E0,5.346832275E-1,-4.987487793E-1
4.555567130E-1,1.994476318E0,5.911407471E-1,-4.902343750E-1
4.606226310E-1,2.123901367E0,6.017913818E-1,-4.721221924E-1
4.656580310E-1,2.153732300E0,5.208282471E-1,-4.465484619E-1
4.706934310E-1,2.094604492E0,4.771575928E-1,-4.252471924E-1
4.757593490E-1,1.956649780E0,4.984588623E-1,-4.279174805E-1
4.807947500E-1,1.736679077E0,5.783538818E-1,-4.305725098E-1
4.858606680E-1,1.451721191E0,6.912841797E-1,-3.970184326E-1
4.908960680E-1,1.152908325E0,8.233642578E-1,-3.325653076E-1
4.959314680E-1,8.807373047E-1,9.719696045E-1,-2.654571533E-1
5.009973860E-1,6.671447754E-1,1.110992432E0,-2.036743164E-1
5.060327870E-1,4.983062744E-1,1.319244385E0,-8.755493164E-2
5.110681870E-1,3.198699951E-1,1.690490723E0,1.393432617E-1
5.161341050E-1,2.895202637E-1,1.904617310E0,2.139129639E-1
5.211695060E-1,4.956359863E-1,1.950424194E0,-6.306457520E-2
5.262049060E-1,6.064300537E-1,2.321136475E0,-2.569427490E-1
5.312708240E-1,5.595550537E-1,2.641250610E0,-4.204559326E-1
5.363062240E-1,4.631500244E-1,2.718475342E0,-6.271209717E-1
5.413416250E-1,3.337249756E-1,2.739242554E0,-8.039550781E-1
5.464075430E-1,1.744689941E-1,2.692901611E0,-9.882354736E-1
5.514429430E-1,6.683349609E-3,2.570938110E0,-1.231658936E0
5.564783430E-1,-1.397857666E-1,2.410614014E0,-1.565612793E0
5.615442610E-1,-2.479095459E-1,2.289703369E0,-1.927276611E0
5.665796620E-1,-3.230133057E-1,2.233245850E0,-2.288925171E0
5.716150620E-1,-3.459167480E-1,2.186370850E0,-2.623413086E0
5.766809800E-1,-2.985076904E-1,2.153884888E0,-2.904113770E0
5.817163810E-1,-1.978454590E-1,2.182647705E0,-3.142196655E0
5.867517810E-1,-3.965759277E-2,2.275863647E0,-3.328094482E0
5.918176990E-1,1.696777344E-1,2.432983398E0,-3.467636108E0
5.968530990E-1,3.555603027E-1,2.666275024E0,-3.622634888E0
6.018885000E-1,4.743347168E-1,2.871337891E0,-3.825042725E0
6.069544180E-1,5.510406494E-1,2.925140381E0,-4.049804688E0
6.119898180E-1,5.750122070E-1,2.815948486E0,-4.288955688E0
6.170252180E-1,5.142822266E-1,2.594909668E0,-4.549423218E0
6.220911360E-1,3.720703125E-1,2.339248657E0,-4.819458008E0
6.271265370E-1,1.750030518E-1,2.109680176E0,-5.062881470E0
6.321924550E-1,-5.935668945E-2,1.932312012E0,-5.270065308E0
6.372278550E-1,-2.953186035E-1,1.859344482E0,-5.434646606E0
6.422632560E-1,-4.833374023E-1,1.847091675E0,-5.563552856E0
6.472986560E-1,-5.994567871E-1,1.794891357E0,-5.679138184E0
6.523645740E-1,-6.463165283E-1,1.673980713E0,-5.783523560E0
6.573999740E-1,-6.394042969E-1,1.496078491E0,-5.878875732E0
6.624658920E-1,-6.042480469E-1,1.297943115E0,-5.953964233E0
6.675012930E-1,-5.552368164E-1,1.125900269E0,-6.001907349E0
6.725366930E-1,-4.982452393E-1,1.011383057E0,-6.013626099E0
6.776026110E-1,-4.481811523E-1,9.336242676E-1,-5.978469849E0
6.826380110E-1,-4.268798828E-1,8.659820557E-1,-5.906036377E0
6.876734120E-1,-4.396667480E-1,7.871551514E-1,-5.827728271E0
6.927393300E-1,-4.875946045E-1,6.838226318E-1,-5.773941040E0
6.977747300E-1,-5.626983643E-1,5.480041504E-1,-5.756896973E0
7.028101310E-1,-6.468505859E-1,3.887481689E-1,-5.784591675E0
7.078760480E-1,-7.315368652E-1,2.449340820E-1,-5.861297607E0
7.129114490E-1,-8.125000000E-1,1.304168701E-1,-5.974746704E0
7.179773670E-1,-8.647003174E-1,-8.605957031E-3,-6.094589233E0
7.230127670E-1,-8.625640869E-1,-1.417541504E-1,-6.210693359E0
7.280481680E-1,-8.039855957E-1,-2.615966797E-1,-6.304443359E0
7.331140860E-1,-6.889343262E-1,-3.878326416E-1,-6.343856812E0
7.381494860E-1,-5.435180664E-1,-4.576110840E-1,-6.333740234E0
7.431848860E-1,-3.853302002E-1,-4.592132568E-1,-6.296981812E0
7.482508040E-1,-2.351226807E-1,-4.576110840E-1,-6.229873657E0
7.532862050E-1,-9.611511230E-2,-4.671936035E-1,-6.127609253E0
7.583216050E-1,1.521301270E-2,-4.794464111E-1,-5.982727051E0
7.633875230E-1,9.403991699E-2,-4.805145264E-1,-5.785659790E0
7.684229230E-1,1.121520996E-1,-4.933013916E-1,-5.588577271E0
7.734583240E-1,9.297180176E-2,-4.501495361E-1,-5.525207520E0
7.785242420E-1,1.510314941E-1,-3.047485352E-1,-5.389373779E0
7.835596420E-1,2.575531006E-1,-1.561431885E-1,-5.268997192E0
7.886255600E-1,4.114837646E-1,6.851196289E-3,-5.272201538E0
7.936609610E-1,5.489044189E-1,1.969909668E-1,-5.376068115E0
7.986963610E-1,7.704772949E-1,4.372100830E-1,-5.574737549E0
8.037317610E-1,1.183807373E0,6.523895264E-1,-5.858627319E0
8.087976790E-1,1.601394653E0,8.526611328E-1,-6.085525513E0
8.138330800E-1,1.909255981E0,1.069442749E0,-6.187789917E0
8.188989980E-1,2.118041992E0,1.231903076E0,-6.224548340E0
8.239343980E-1,2.181427002E0,1.397552490E0,-6.190994263E0
8.289697980E-1,2.151062012E0,1.619125366E0,-6.080734253E0
8.340357160E-1,2.147872925E0,1.946685791E0,-5.869812012E0
8.390711170E-1,2.176635742E0,2.317398071E0,-5.590713501E0
8.441065170E-1,2.206451416E0,2.697174072E0,-5.261016846E0
8.491724350E-1,2.232559204E0,3.046569824E0,-4.907348633E0
8.542078360E-1,2.235748291E0,3.339523315E0,-4.586166382E0
8.592432360E-1,2.184082031E0,3.569625854E0,-4.369918823E0
8.642786360E-1,2.093536377E0,3.656967163E0,-4.270324707E0
8.693445540E-1,1.806976318E0,3.448181152E0,-4.307601929E0
8.743799550E-1,1.285003662E0,3.042846680E0,-4.483367920E0
8.794153550E-1,7.688903809E-1,2.787719727E0,-4.687896729E0
8.844812730E-1,3.289337158E-1,2.688110352E0,-4.917465210E0
8.895166730E-1,-2.420043945E-2,2.635910034E0,-5.225326538E0
8.945825910E-1,-2.191467285E-1,2.655624390E0,-5.654098511E0
8.996179920E-1,-3.789367676E-1,2.740844727E0,-6.049850464E0
9.046533920E-1,-2.090301514E-1,3.106231689E0,-6.781677246E0
9.097193100E-1,2.362518311E-1,3.905715942E0,-7.357986450E0
9.147547110E-1,2.469024658E-1,4.642349243E0,-6.988342285E0
9.197901110E-1,1.558227539E-1,5.001876831E0,-6.479675293E0
9.248560290E-1,1.584930420E-1,4.933685303E0,-5.957168579E0
9.298914290E-1,2.314605713E-1,4.574172974E0,-5.451690674E0
9.349268300E-1,2.644805908E-1,4.119293213E0,-5.167266846E0
9.399927480E-1,1.536865234E-1,3.748580933E0,-4.891906738E0
9.450281480E-1,1.307830811E-1,3.574951172E0,-4.598953247E0
9.500635480E-1,1.670074463E-1,3.477478027E0,-4.358200073E0
9.551294660E-1,1.084136963E-1,3.326736450E0,-4.108932495E0
9.601648670E-1,-3.326416016E-2,3.108367920E0,-3.806396484E0
9.652002670E-1,-2.010345459E-1,2.862823486E0,-3.525161743E0
9.702661850E-1,-4.215545654E-1,2.565078735E0,-3.278030396E0
9.753015860E-1,-6.495208740E-1,2.223129272E0,-3.061248779E0
9.803369860E-1,-8.588409424E-1,1.935501099E0,-2.893463135E0
9.854029040E-1,-1.062835693E0,1.714462280E0,-2.763504028E0
9.904383040E-1,-1.268432617E0,1.513122559E0,-2.625549316E0
9.955042220E-1,-1.494796753E0,1.351745605E0,-2.456176758E0
1.000539623E0,-1.747268677E0,1.216445923E0,-2.284133911E0
1.005575023E0,-1.950210571E0,1.140289307E0,-2.182937622E0
1.010610423E0,-2.100402832E0,1.113647461E0,-2.130203247E0
1.015676341E0,-2.190948486E0,1.089691162E0,-2.067352295E0
1.020711742E0,-2.194152832E0,9.821014404E-1,-1.942184448E0
1.025747142E0,-2.096145630E0,7.216339111E-1,-1.778137207E0
1.030813060E0,-1.944351196E0,3.514556885E-1,-1.623672485E0
1.035848461E0,-1.758987427E0,-6.932067871E-2,-1.496368408E0
1.040883861E0,-1.558715820E0,-4.032745361E-1,-1.415405273E0
1.045949779E0,-1.318496704E0,-5.998229980E-1,-1.377059937E0
1.050985179E0,-1.069763184E0,-6.280517578E-1,-1.364807129E0
1.056051097E0,-8.604431152E-1,-5.769195557E-1,-1.328063965E0
1.061086498E0,-7.038421631E-1,-5.630645752E-1,-1.276931763E0
1.066121898E0,-6.266174316E-1,-5.902404785E-1,-1.174667358E0
1.071157298E0,-6.745452881E-1,-7.159423828E-1,-1.001022339E0
1.076223216E0,-8.785552979E-1,-1.012084961E0,-7.576141357E-1
1.081258617E0,-1.180557251E0,-1.392379761E0,-4.785156250E-1
1.086324535E0,-1.404251099E0,-1.836593628E0,-3.203125000E-1
1.091359935E0,-1.484146118E0,-2.171081543E0,-2.872924805E-1
1.096395336E0,-1.501190186E0,-2.338867188E0,-3.213806152E-1
1.101461254E0,-1.493209839E0,-2.322357178E0,-3.267059326E-1
1.106496654E0,-1.429824829E0,-2.200912476E0,-2.031402588E-1
1.111532054E0,-1.337677002E0,-2.056579590E0,1.150512695E-2
1.116597972E0,-1.243408203E0,-1.888793945E0,2.043304443E-1
1.121633373E0,-1.157653809E0,-1.718353271E0,3.055267334E-1
1.126668773E0,-1.077224731E0,-1.537261963E0,2.575836182E-1
1.131734691E0,-9.792175293E-1,-1.391311646E0,7.276916504E-2
1.136770091E0,-8.822784424E-1,-1.294906616E0,-2.106018066E-1
1.141805492E0,-8.029174805E-1,-1.210220337E0,-5.227203369E-1
1.146871410E0,-7.613677979E-1,-1.074935913E0,-7.703857422E-1
1.151906810E0,-7.730865479E-1,-8.464355469E-1,-9.328460693E-1
1.156942211E0,-8.359375000E-1,-6.051483154E-1,-1.001022339E0
1.162008129E0,-9.121093750E-1,-4.789123535E-1,-1.020736694E0
1.167043529E0,-9.850769043E-1,-4.618682861E-1,-1.010070801E0
1.172078929E0,-1.046325684E0,-4.805145264E-1,-1.026596069E0
1.177144847E0,-1.083084106E0,-5.492248535E-1,-1.142166138E0
1.182180248E0,-1.118240356E0,-7.265930176E-1,-1.313674927E0
1.187215648E0,-1.194396973E0,-9.849090576E-1,-1.455352783E0
1.192281566E0,-1.298797607E0,-1.055221558E0,-1.589050293E0
1.197316966E0,-1.347259521E0,-7.148742676E-1,-1.779724121E0
1.202382884E0,-1.347259521E0,-4.730529785E-1,-1.923004150E0
1.207418285E0,-1.370162964E0,-3.580017090E-1,-1.988525391E0
1.212453685E0,-1.449005127E0,-2.062072754E-1,-1.999176025E0
1.217519603E0,-1.453262329E0,-4.086151123E-1,-1.962417603E0
1.222555004E0,-1.427688599E0,-7.436370850E-1,-1.785064697E0
1.227590404E0,-1.515579224E0,-6.168670654E-1,-1.552291870E0
1.232656322E0,-1.672164917E0,-2.908935547E-1,-1.332855225E0
1.237691722E0,-1.691345215E0,-4.735870361E-1,-1.076660156E0
1.242727123E0,-1.546463013E0,-9.284515381E-1,-8.348388672E-1
1.247793041E0,-1.478286743E0,-7.633361816E-1,-6.718597412E-1
1.252828441E0,-1.549667358E0,-1.891632080E-1,-6.004791260E-1
1.257863841E0,-1.654067993E0,3.525238037E-1,-7.219238281E-1
1.262929759E0,-1.790954590E0,7.882232666E-1,-1.051086426E0
1.267965160E0,-2.065246582E0,1.393280029E0,-1.495300293E0
1.273000560E0,-2.317718506E0,2.188507080E0,-1.957626343E0
1.278066478E0,-2.473785400E0,3.021545410E0,-2.269744873E0
1.283101879E0,-2.572845459E0,3.142990112E0,-2.332595825E0
1.288137279E0,-2.690567017E0,2.666809082E0,-2.112091064E0
1.293203197E0,-2.966995239E0,2.509155273E0,-1.640716553E0
1.298238597E0,-3.275390625E0,2.375457764E0,-1.193298340E0
1.303273998E0,-3.444244385E0,1.727249146E0,-9.195251465E-1
1.308339916E0,-3.384048462E0,9.405517578E-1,-6.430969238E-1
1.313375316E0,-2.809875488E0,3.823547363E-1,-2.414855957E-1
1.318410716E0,-2.048736572E0,3.439941406E-1,2.746276855E-1
1.323476634E0,-1.402130127E0,4.404144287E-1,6.831665039E-1
1.328512035E0,-7.480468750E-1,3.354797363E-1,8.482818604E-1
1.333547435E0,-2.718811035E-1,3.296203613E-1,8.679809570E-1
1.338613353E0,-6.895446777E-2,4.755554199E-1,8.344268799E-1
1.343648754E0,-1.174163818E-1,6.497344971E-1,7.603912354E-1
1.348714672E0,-3.698883057E-1,8.286895752E-1,6.171112061E-1
1.353750072E0,-7.182312012E-1,9.597167969E-1,4.685058594E-1
1.358785472E0,-1.072952271E0,1.068908691E0,3.582611084E-1
1.363851390E0,-1.363250732E0,1.154129028E0,2.613220215E-1
1.368886791E0,-1.583755493E0,1.299011230E0,1.718292236E-1
1.373922191E0,-1.756866455E0,1.503540039E0,6.158447266E-2
1.378988109E0,-1.822372437E0,1.837509155E0,-4.121398926E-2
1.384023509E0,-1.692413330E0,2.048431396E0,-1.333618164E-1
1.389058910E0,-1.393066406E0,1.888107300E0,-1.786346436E-1
1.394124828E0,-1.102783203E0,1.549880981E0,-6.411743164E-2
1.399160228E0,-8.721618652E-1,1.292083740E0,1.169738770E-1
1.404195629E0,-8.354034424E-1,9.991455078E-1,3.326873779E-1
1.409261547E0,-9.110412598E-1,6.774291992E-1,5.452117920E-1
1.414296947E0,-9.509887695E-1,5.027313232E-1,7.236480713E-1
1.419332347E0,-1.005844116E0,3.786163330E-1,8.743743896E-1
1.424398265E0,-1.032485962E0,2.545166016E-1,9.606628418E-1
1.429433666E0,-1.093200684E0,1.495971680E-1,9.936828613E-1
1.434469066E0,-1.203979492E0,-4.534912109E-2,1.031509399E0
1.439534984E0,-1.372833252E0,-2.631988525E-1,1.073043823E0
1.444570384E0,-1.539016724E0,-4.235229492E-1,1.069854736E0
1.449605785E0,-1.508651733E0,-3.271179199E-1,9.473419189E-1
1.454671703E0,-1.294006348E0,-7.624816895E-2,7.769012451E-1
1.459707103E0,-1.111846924E0,1.570434570E-1,5.920867920E-1
1.464773021E0,-1.096389771E0,2.401428223E-1,4.312286377E-1
1.469808422E0,-1.173629761E0,2.401428223E-1,3.614501953E-1
1.474843822E0,-1.248733521E0,2.444000244E-1,3.667755127E-1
1.479909740E0,-1.254058838E0,3.791503906E-1,3.507995605E-1
1.484945140E0,-1.172027588E0,3.647766113E-1,3.550567627E-1
1.489980541E0,-1.059112549E0,3.589172363E-1,3.886108398E-1
1.495046459E0,-9.328765869E-1,3.546600342E-1,4.019317627E-1
1.500081859E0,-8.082427979E-1,3.637084961E-1,4.147186279E-1
1.505117259E0,-6.846771240E-1,3.594512939E-1,4.243011475E-1
1.510183177E0,-5.946502686E-1,3.029937744E-1,4.083251953E-1
1.515218578E0,-5.376586914E-1,2.529144287E-1,3.880767822E-1
1.520253978E0,-5.323333740E-1,2.252197266E-1,3.811645508E-1
1.525319896E0,-5.685577393E-1,1.474609375E-1,3.571929932E-1
1.530355297E0,-6.042480469E-1,5.851745605E-2,3.071289062E-1
1.535390697E0,-6.367340088E-1,9.506225586E-3,2.426757812E-1
1.540456615E0,-6.649627686E-1,5.249023438E-3,1.771545410E-1
1.545492015E0,-7.113037109E-1,5.957031250E-2,1.031188965E-1
1.550527416E0,-7.879943848E-1,1.325531006E-1,6.797790527E-2
1.555593334E0,-8.721618652E-1,1.810150146E-1,1.015319824E-1
1.560628734E0,-9.243621826E-1,2.188262939E-1,1.569213867E-1
1.565664134E0,-9.424591064E-1,2.422637939E-1,2.021942139E-1
1.570730052E0,-9.296875000E-1,2.657012939E-1,2.256317139E-1
1.575795970E0,-8.929290771E-1,2.955322266E-1,2.394714355E-1
1.580831371E0,-8.481903076E-1,3.232269287E-1,2.485351562E-1
1.585866771E0,-8.146362305E-1,3.280181885E-1,2.772979736E-1
1.590902172E0,-8.178253174E-1,2.752838135E-1,3.497314453E-1
1.595968089E0,-8.412628174E-1,1.969909668E-1,4.067230225E-1
1.601003490E0,-8.540496826E-1,1.186981201E-1,4.519958496E-1
1.606069408E0,-8.668365479E-1,3.880310059E-2,4.844818115E-1
1.611104808E0,-8.993225098E-1,-4.376220703E-2,4.914093018E-1
1.616140209E0,-9.541778564E-1,-1.087341309E-1,4.748992920E-1
1.621175609E0,-1.035140991E0,-1.055450439E-1,4.562530518E-1
1.626211009E0,-1.127822876E0,-2.191162109E-2,4.354858398E-1
1.631246410E0,-1.200790405E0,8.088684082E-2,3.880767822E-1
1.636312328E0,-1.251388550E0,1.272125244E-1,2.948760986E-1
1.641347728E0,-1.303054810E0,1.591796875E-1,1.537170410E-1
1.646383129E0,-1.384017944E0,2.460021973E-1,-4.335021973E-2
1.651449047E0,-1.515579224E0,3.695678711E-1,-3.453521729E-1
1.656484447E0,-1.624237061E0,4.084472656E-1,-7.155303955E-1
1.661519847E0,-1.646606445E0,4.111175537E-1,-1.042037964E0
1.666585765E0,-1.572036743E0,4.372100830E-1,-1.236450195E0
1.671621166E0,-1.332351685E0,3.583831787E-1,-1.229522705E0
1.676656566E0,-8.577728271E-1,1.991271973E-1,-1.028717041E0
1.681722484E0,-3.075714111E-1,1.117706299E-1,-6.351013184E-1
1.686757884E0,1.190643311E-1,-1.553344727E-2,-2.217864990E-1
1.691793285E0,3.310546875E-1,-1.060791016E-1,8.502197266E-2
1.696859203E0,4.072265625E-1,-9.754943848E-2,2.948760986E-1
1.701894603E0,4.487762451E-1,-2.244567871E-2,4.104461670E-1
1.706930004E0,4.754028320E-1,2.922058105E-2,4.509277344E-1
1.711995922E0,5.313262939E-1,6.863403320E-2,4.935455322E-1
1.717031322E0,6.250762939E-1,4.573059082E-2,5.643768311E-1
1.722097240E0,7.545013428E-1,-2.244567871E-2,7.124481201E-1
1.727163158E0,9.542388916E-1,-7.943725586E-2,9.857025146E-1
1.732198558E0,1.208297729E0,-2.717285156E-1,1.263732910E0
1.737233959E0,1.424560547E0,-3.750457764E-1,1.248291016E0
1.742269359E0,1.484741211E0,-4.991607666E-1,1.194488525E0
1.747335277E0,1.390457153E0,-9.087524414E-1,1.257873535E0
1.752370677E0,1.279678345E0,-1.068008423E0,1.356414795E0
1.757436595E0,1.301513672E0,-1.090377808E0,1.405410767E0
1.762471996E0,1.440536499E0,-1.229400635E0,1.417129517E0
1.767507396E0,1.659439087E0,-1.382797241E0,1.437362671E0
1.772573314E0,1.904449463E0,-1.465881348E0,1.474121094E0
1.777608714E0,2.134017944E0,-1.444046021E0,1.535369873E0
1.782644115E0,2.336425781E0,-1.307159424E0,1.646163940E0
1.787710033E0,2.512191772E0,-1.140441895E0,1.776123047E0
1.792745433E0,2.636825562E0,-9.497680664E-1,1.925262451E0
1.797780834E0,2.703399658E0,-7.185974121E-1,2.094100952E0
1.802846752E0,2.692749023E0,-4.831695557E-1,2.230453491E0
1.807882152E0,2.572906494E0,-2.674560547E-1,2.290649414E0
1.812917552E0,2.374237061E0,-1.257781982E-1,2.249633789E0
1.817983470E0,2.153732300E0,-7.145690918E-2,2.158020020E0
1.823018871E0,1.967300415E0,-7.571411133E-2,2.082916260E0
1.828054271E0,1.844802856E0,-9.169006348E-2,2.045104980E0
1.833120189E0,1.809112549E0,-7.624816895E-2,2.037643433E0
1.838155589E0,1.852264404E0,-1.188507080E-1,2.001953125E0
1.843190990E0,1.894332886E0,-2.717285156E-1,1.988647461E0
1.848256908E0,1.885818481E0,-3.867645264E-1,2.045104980E0
1.853292308E0,1.852783203E0,-3.878326416E-1,2.115936279E0
1.858327709E0,1.817108154E0,-2.855682373E-1,2.176666260E0
1.863393627E0,1.804855347E0,-2.035522461E-1,2.185714722E0
1.868429027E0,1.837341309E0,-1.939544678E-1,2.163879395E0
1.873464427E0,1.870361328E0,-2.413635254E-1,2.174530029E0
1.878530345E0,1.950790405E0,-3.718566895E-1,2.049896240E0
1.883565746E0,2.056259155E0,-4.751892090E-1,1.919937134E0
1.888631664E0,2.037078857E0,-2.967529297E-1,1.787841797E0
1.893667064E0,1.893264771E0,-1.343078613E-1,1.412872314E0
1.898702464E0,1.604583740E0,-1.658630371E-2,1.058670044E0
1.903768382E0,1.265289307E0,-1.925659180E-2,7.412109375E-1
1.908803783E0,9.883270264E-1,-1.806488037E-1,4.488067627E-1
1.913839183E0,7.939147949E-1,-3.537445068E-1,2.053833008E-1
1.918905101E0,6.367950439E-1,-4.341735840E-1,4.559326172E-2
1.923940502E0,4.807281494E-1,-4.789123535E-1,-5.400085449E-2
1.928975902E0,3.513031006E-1,-5.236511230E-1,-1.365661621E-1
1.934041820E0,2.905731201E-1,-5.343170166E-1,-2.057952881E-1
1.939077220E0,3.017578125E-1,-4.719848633E-1,-2.638549805E-1
1.944143138E0,3.784637451E-1,-3.265838623E-1,-3.538818359E-1
1.949178539E0,4.983062744E-1,-2.264556885E-1,-4.529418945E-1
1.954213939E0,6.176147461E-1,-2.877044678E-1,-5.243225098E-1
1.959249339E0,7.001800537E-1,-4.474945068E-1,-5.472259521E-1
1.964315257E0,7.587585449E-1,-6.120758057E-1,-5.078125000E-1
1.969350658E0,8.162841797E-1,-7.835845947E-1,-4.151306152E-1
1.974386058E0,8.716735840E-1,-8.496246338E-1,-2.335052490E-1
1.979451976E0,9.350585938E-1,-6.903686523E-1,6.637573242E-2
1.984487377E0,1.033065796E0,-3.590698242E-1,3.662414551E-1
1.989522777E0,1.129470825E0,-7.678222656E-2,5.473327637E-1
1.994588695E0,1.146514893E0,3.347778320E-2,5.952758789E-1
1.999624095E0,1.057571411E0,2.975463867E-2,5.228424072E-1
2.004690013E0,8.604888916E-1,9.898376465E-2,3.673095703E-1
2.009725414E0,5.941772461E-1,2.507934570E-1,2.139129639E-1
2.014760814E0,3.299865723E-1,3.844757080E-1,4.133605957E-2
2.019796214E0,1.158752441E-1,4.851531982E-1,-1.530761719E-1
2.024862132E0,-1.887512207E-2,4.808807373E-1,-3.272399902E-1
2.029897533E0,-7.907104492E-2,3.642425537E-1,-4.167175293E-1
2.034963451E0,-6.042480469E-2,2.758178711E-1,-4.375000000E-1
2.039998851E0,2.639770508E-2,3.386688232E-1,-4.470825195E-1
2.045034252E0,1.792602539E-1,4.862060547E-1,-4.534759521E-1
2.050100170E0,3.433074951E-1,6.252288818E-1,-4.620056152E-1
2.055135570E0,4.333190918E-1,6.614532471E-1,-4.470825195E-1
2.060170970E0,4.141540527E-1,5.986022949E-1,-3.858337402E-1
2.065236888E0,3.198699951E-1,5.171051025E-1,-2.856903076E-1
2.070272289E0,2.064208984E-1,4.207000732E-1,-1.706542969E-1
2.075307689E0,1.430358887E-1,3.136444092E-1,2.536010742E-2
2.080373607E0,1.052246094E-1,2.790222168E-1,2.655792236E-1
2.085409007E0,-2.441406250E-4,2.273559570E-1,4.802246094E-1
2.090444408E0,-1.243438721E-1,2.475891113E-1,7.177886963E-1
2.095510326E0,-2.495117188E-1,3.269500732E-1,1.013397217E0
2.100545726E0,-3.778686523E-1,4.734344482E-1,1.296218872E0
2.105581127E0,-5.392608643E-1,6.518554688E-1,1.499679565E0
2.110647045E0,-7.320709229E-1,7.999267578E-1,1.592895508E0
2.115682445E0,-9.030456543E-1,9.123229980E-1,1.605682373E0
2.120717845E0,-1.011703491E0,9.852905273E-1,1.579574585E0
2.125783763E0,-1.063369751E0,9.932861328E-1,1.505538940E0
2.130819164E0,-1.052719116E0,9.091186523E-1,1.416061401E0
2.135885082E0,-1.001586914E0,7.296295166E-1,1.249877930E0
2.140920482E0,-8.753509521E-1,6.033935547E-1,1.054412842E0
2.145955882E0,-6.910552979E-1,5.554504395E-1,8.653259277E-1
2.151021800E0,-5.009155273E-1,4.942016602E-1,6.320343018E-1
2.156057201E0,-3.496398926E-1,4.223022461E-1,3.401489258E-1
2.161092601E0,-2.266082764E-1,3.530578613E-1,4.559326172E-2
2.166158519E0,-1.280670166E-1,2.555847168E-1,-1.813049316E-1
2.171193920E0,-8.865356445E-2,1.969909668E-1,-3.256378174E-1
2.176229320E0,-1.126251221E-1,2.220306396E-1,-4.236450195E-1
2.181295238E0,-1.499023438E-1,2.460021973E-1,-5.168609619E-1
2.186330638E0,-1.813354492E-1,2.321472168E-1,-6.542816162E-1
2.191366039E0,-2.090301514E-1,2.417297363E-1,-8.529510498E-1
2.196431957E0,-2.058410645E-1,3.136444092E-1,-1.126190186E0
2.201467357E0,-2.244720459E-1,3.546600342E-1,-1.283843994E0
2.206502757E0,-2.335357666E-1,2.971343994E-1,-1.290771484E0
2.211568675E0,-1.216735840E-1,1.383972168E-1,-1.346694946E0
2.216604076E0,4.344177246E-2,-5.760192871E-2,-1.502227783E0
2.221639476E0,1.350555420E-1,-2.142028809E-1,-1.631118774E0
2.226705394E0,2.245330811E-1,-3.910369873E-1,-1.677993774E0
2.231740795E0,3.145446777E-1,-5.795898438E-1,-1.658294678E0
2.236776195E0,4.024353027E-1,-6.839752197E-1,-1.715286255E0
2.241842113E0,5.025634766E-1,-7.042236328E-1,-1.785064697E0
2.246877513E0,6.154785156E-1,-5.928955078E-1,-1.795181274E0
2.251912914E0,6.192169189E-1,-6.994323730E-1,-1.844711304E0
2.256978832E0,6.612854004E-1,-6.648101807E-1,-1.925674438E0
2.262014232E0,7.086944580E-1,-6.067504883E-1,-1.982666016E0
2.267049632E0,6.703491211E-1,-8.666687012E-1,-2.065216064E0
2.272115550E0,6.320037842E-1,-1.160690308E0,-2.097717285E0
2.277150951E0,5.702056885E-1,-1.364151001E0,-2.016754150E0
2.282186351E0,4.556884766E-1,-1.528198242E0,-1.823944092E0
2.287252269E0,3.475646973E-1,-1.669342041E0,-1.549636841E0
2.292287670E0,2.761993408E-1,-1.795043945E0,-1.211410522E0
2.297353588E0,2.357177734E-1,-1.914352417E0,-8.215179443E-1
2.302388988E0,2.058868408E-1,-1.882934570E0,-4.199218750E-1
2.307424388E0,1.648712158E-1,-1.637924194E0,-5.027770996E-2
2.312490306E0,7.220458984E-2,-1.324203491E0,2.005920410E-1
2.317525707E0,-8.172607422E-2,-1.008880615E0,2.650451660E-1
2.322561107E0,-2.713470459E-1,-8.016967773E-1,1.904754639E-1
2.327627025E0,-4.572296143E-1,-6.994323730E-1,3.335571289E-2
2.332662425E0,-5.669555664E-1,-6.419067383E-1,-1.253814697E-1
2.337697826E0,-5.563049316E-1,-6.211242676E-1,-1.850280762E-1
2.342763744E0,-4.673614502E-1,-5.865020752E-1,-1.381530762E-1
2.347799144E0,-3.645629883E-1,-5.721282959E-1,1.098632812E-2
2.352834545E0,-2.809295654E-1,-5.641326904E-1,1.617126465E-1
2.357900463E0,-2.132873535E-1,-5.385742188E-1,2.746276855E-1
2.362935863E0,-1.461791992E-1,-5.039520264E-1,2.900848389E-1
2.367971263E0,-1.280670166E-1,-4.011535645E-1,3.257598877E-1
2.373037181E0,-9.185791016E-2,-2.205963135E-1,3.992614746E-1
2.378072582E0,-3.273010254E-2,-6.185913086E-2,4.136505127E-1
2.383107982E0,3.494262695E-3,5.903625488E-2,4.088592529E-1
2.388173900E0,3.384399414E-2,1.570434570E-1,4.056549072E-1
2.393209300E0,4.609680176E-2,1.927337646E-1,3.886108398E-1
2.398275218E0,2.053833008E-2,1.224212646E-1,3.593139648E-1
2.403310619E0,-4.870605469E-2,-3.280639648E-3,3.507995605E-1
2.408346019E0,-1.328582764E-1,-1.279144287E-1,3.673095703E-1
2.413411937E0,-2.063598633E-1,-2.573394775E-1,3.454742432E-1
2.418447338E0,-3.310089111E-1,-5.455017090E-1,1.377410889E-1
2.423482738E0,-4.551086426E-1,-7.095489502E-1,1.334838867E-1
2.428548656E0,-4.726867676E-1,-6.967620850E-1,1.761016846E-1
2.433584056E0,-5.078430176E-1,-7.819824219E-1,1.212310791E-1
2.438619457E0,-5.595092773E-1,-9.263305664E-1,2.536010742E-2
2.443685375E0,-6.665649414E-1,-1.214477539E0,-1.440124512E-1
2.448720775E0,-8.343353271E-1,-1.693313599E0,-3.453521729E-1
2.453756175E0,-1.003723145E0,-2.277618408E0,-5.152587891E-1
2.458822093E0,-1.214111328E0,-2.898666382E0,-6.095428467E-1
2.463857494E0,-1.552322388E0,-3.576705933E0,-6.691894531E-1
2.468892894E0,-1.662048340E0,-3.047805786E0,-5.397644043E-1
2.473958812E0,-1.529418945E0,-1.682128906E0,-2.340393066E-1
2.478994213E0,-1.349929810E0,-7.622833252E-1,3.282165527E-2
2.484060131E0,-1.120895386E0,-4.464263916E-1,9.086608887E-2
2.489095531E0,-8.492584229E-1,-3.974304199E-1,-3.376770020E-2
2.494130931E0,-5.467224121E-1,-3.830413818E-1,-2.558746338E-1
2.499166332E0,-2.308654785E-1,-3.574829102E-1,-4.827728271E-1
2.504232250E0,3.491210938E-2,-2.658691406E-1,-6.015472412E-1
2.509267650E0,1.957702637E-1,-1.145935059E-1,-5.765075684E-1
2.514333568E0,2.618103027E-1,1.004028320E-2,-5.056762695E-1
2.519368968E0,2.458343506E-1,8.779907227E-2,-4.470825195E-1
2.524404369E0,1.638183594E-1,1.559753418E-1,-4.225769043E-1
2.529470287E0,7.592773438E-2,1.756896973E-1,-4.364318848E-1
2.534505687E0,5.081176758E-3,2.049865723E-1,-4.774475098E-1
2.539541088E0,-2.793884277E-2,2.875366211E-1,-5.141906738E-1
2.544607006E0,-6.103515625E-3,3.732910156E-1,-5.120697021E-1
2.549642406E0,2.798461914E-2,4.382781982E-1,-4.614715576E-1
2.554677806E0,4.823303223E-2,4.350738525E-1,-3.597259521E-1
2.559743724E0,5.462646484E-2,3.551788330E-1,-2.180480957E-1
2.564779125E0,3.758239746E-2,2.896728516E-1,-7.850646973E-2
2.569814525E0,8.819580078E-3,2.886047363E-1,1.203918457E-2
2.574880443E0,2.000427246E-2,2.838134766E-1,6.158447266E-2
2.579915843E0,5.462646484E-2,3.077850342E-1,6.423950195E-2
2.584951244E0,6.527709961E-2,3.306884766E-1,2.696228027E-2
2.590017162E0,4.502868652E-2,3.642425537E-1,-3.642272949E-2
2.595052562E0,5.195617676E-2,4.404144287E-1,-1.338958740E-1
2.600087963E0,8.232116699E-2,5.251007080E-1,-2.510833740E-1
2.605153881E0,1.244049072E-1,6.385498047E-1,-3.789062500E-1
2.610189281E0,1.765899658E-1,8.191070557E-1,-5.014190674E-1
2.615224681E0,2.128143311E-1,1.134429932E0,-6.095428467E-1
2.620290599E0,2.591552734E-1,1.548812866E0,-6.995544434E-1
2.625295482E0,2.948455811E-1,1.988235474E0,-7.917022705E-1
2.630361400E0,2.506256104E-1,2.406890869E0,-9.019470215E-1
2.635427318E0,1.339874268E-1,2.698760986E0,-1.057479858E0
2.640462718E0,-7.427978516E-2,3.026336670E0,-1.241241455E0
2.645467601E0,-2.356567383E-1,3.141921997E0,-1.397827148E0
2.650564037E0,-1.850585938E-1,2.754165649E0,-1.608749390E0
2.655629955E0,-1.802673340E-1,2.485717773E0,-1.909164429E0
2.660665355E0,-3.597717285E-1,2.519805908E0,-2.082260132E0
2.665731273E0,-3.954467773E-1,2.036178589E0,-2.032196045E0
2.670766673E0,-3.890533447E-1,1.594085693E0,-1.933654785E0
2.675802074E0,-3.661499023E-1,1.346954346E0,-1.797302246E0
2.680867992E0,-4.428558350E-1,1.593017578E0,-1.692916870E0
2.685903392E0,-4.407196045E-1,1.750686646E0,-1.591705322E0
2.690938793E0,-3.283386230E-1,1.666000366E0,-1.480926514E0
2.695974193E0,-2.473754883E-1,1.590362549E0,-1.413284302E0
2.701009593E0,-1.701507568E-1,1.341094971E0,-1.291305542E0
2.706044994E0,-1.099548340E-1,9.799652100E-1,-1.080383301E0
2.711110912E0,-8.758544922E-2,5.948638916E-1,-8.273773193E-1
2.716176830E0,-8.811950684E-2,2.364044189E-1,-5.775756836E-1
2.721212230E0,-1.014404297E-1,-1.925659180E-2,-3.735809326E-1
2.726278148E0,-1.291351318E-1,-1.630706787E-1,-2.308349609E-1
2.731313548E0,-1.855926514E-1,-2.850341797E-1,-1.738433838E-1
2.736348949E0,-2.606964111E-1,-3.713226318E-1,-2.260437012E-1
2.741414867E0,-3.480529785E-1,-4.309844971E-1,-3.634643555E-1
2.746450267E0,-4.359283447E-1,-5.220642090E-1,-5.424194336E-1
2.751485668E0,-5.174255371E-1,-5.939636230E-1,-7.773132324E-1
2.756521068E0,-6.026458740E-1,-6.024932861E-1,-9.940948486E-1
2.761556468E0,-6.825408936E-1,-5.492248535E-1,-1.158142090E0
2.766622386E0,-7.571105957E-1,-4.538879395E-1,-1.289703369E0
2.771657787E0,-8.172912598E-1,-3.313751221E-1,-1.415939331E0
2.776723705E0,-8.657684326E-1,-2.280426025E-1,-1.548034668E0
2.781789623E0,-9.131622314E-1,-2.115325928E-1,-1.667343140E0
2.786825023E0,-9.637756348E-1,-2.940979004E-1,-1.764282227E0
2.791860423E0,-1.016494751E0,-4.442901611E-1,-1.824478149E0
2.796926341E0,-1.079345703E0,-6.131439209E-1,-1.840988159E0
2.801961742E0,-1.144332886E0,-7.351074219E-1,-1.798370361E0
2.806997142E0,-1.145401001E0,-7.255249023E-1,-1.679061890E0
2.812063060E0,-1.015960693E0,-5.391082764E-1,-1.485183716E0
2.817098461E0,-8.045196533E-1,-3.409576416E-1,-1.256149292E0
2.822133861E0,-5.211486816E-1,-1.502838135E-1,-1.016464233E0
2.827199779E0,-2.068939209E-1,-4.867553711E-3,-7.996826172E-1
2.832235179E0,6.581115723E-2,5.249023438E-3,-6.164550781E-1
2.837270580E0,2.692718506E-1,-1.114044189E-1,-4.726562500E-1
2.842336498E0,4.157409668E-1,-2.530822754E-1,-3.570709229E-1
2.847371898E0,5.307922363E-1,-3.462829590E-1,-2.564086914E-1
2.852407298E0,6.314697266E-1,-3.899688721E-1,-1.594696045E-1
2.857473216E0,7.188110352E-1,-3.793182373E-1,-7.743835449E-2
2.862508617E0,7.992401123E-1,-3.249816895E-1,-1.991271973E-2
2.867544017E0,8.604888916E-1,-2.850341797E-1,2.056884766E-2
2.872609935E0,8.913879395E-1,-2.829132080E-1,4.719543457E-2
2.877645336E0,8.913879395E-1,-3.361663818E-1,5.891418457E-2
2.882711254E0,8.636932373E-1,-4.501495361E-1,6.956481934E-2
2.887746654E0,8.237457275E-1,-5.737304688E-1,9.886169434E-2
2.892782054E0,7.821960449E-1,-6.834411621E-1,1.473388672E-1
2.897847972E0,7.497100830E-1,-7.521514893E-1,2.229614258E-1
2.902883373E0,7.118988037E-1,-7.846527100E-1,3.321533203E-1
2.907918773E0,6.591644287E-1,-8.341827393E-1,4.631805420E-1
2.912984691E0,6.032409668E-1,-9.210052490E-1,6.059265137E-1
2.917989574E0,5.574340820E-1,-9.913024902E-1,7.587890625E-1
2.923055492E0,5.281372070E-1,-1.037643433E0,9.185791016E-1
2.928121410E0,5.212097168E-1,-1.068008423E0,1.094879150E0
2.933156810E0,5.489044189E-1,-1.154830933E0,1.285034180E0
2.938192211E0,6.122894287E-1,-1.299163818E0,1.474655151E0
2.943258129E0,6.639556885E-1,-1.311416626E0,1.648818970E0
2.948293529E0,6.985778809E-1,-1.199569702E0,1.801162720E0
2.953328929E0,7.188110352E-1,-9.295196533E-1,1.891708374E0
2.958364330E0,7.332000732E-1,-5.859680176E-1,1.882110596E0
2.963430248E0,7.592926025E-1,-3.367004395E-1,1.788375854E0
2.968465648E0,7.859344482E-1,-2.541503906E-1,1.648284912E0
2.973531566E0,7.843322754E-1,-2.205963135E-1,1.476257324E0
2.978566966E0,7.481079102E-1,-4.748535156E-2,1.290893555E0
2.983632884E0,6.522369385E-1,2.939300537E-1,1.118316650E0
2.988668285E0,5.659484863E-1,6.465301514E-1,9.979400635E-1
2.993703685E0,4.913787842E-1,8.611907959E-1,9.755706787E-1
2.998739086E0,3.816528320E-1,1.117385864E0,1.016586304E0
3.003805004E0,2.948455811E-1,1.343750000E0,1.094360352E0
3.008840404E0,2.469024658E-1,1.545089722E0,1.174240112E0
3.013875804E0,2.357177734E-1,1.765594482E0,1.254135132E0
3.018911205E0,2.793884277E-1,1.969589233E0,1.353210449E0
3.023946605E0,3.491668701E-1,2.157073975E0,1.483169556E0
3.028982006E0,4.104156494E-1,2.313140869E0,1.653610229E0
3.034017406E0,4.754028320E-1,2.405288696E0,1.860275269E0
3.039083324E0,5.648803711E-1,2.496902466E0,2.072265625E0
3.044149242E0,6.847229004E-1,2.574127197E0,2.259750366E0
3.049184642E0,8.008422852E-1,2.639648438E0,2.437652588E0
3.054250560E0,8.887176514E-1,2.687576294E0,2.616622925E0
3.059316478E0,9.276123047E-1,2.649230957E0,2.782791138E0
3.064351879E0,9.515686035E-1,2.526733398E0,2.918090820E0
3.069387279E0,9.558410645E-1,2.378662109E0,3.031539917E0
3.074422679E0,8.972473145E-1,2.338180542E0,3.137527466E0
3.079458080E0,7.347869873E-1,2.485717773E0,3.230209351E0
3.084493480E0,5.243988037E-1,2.583724976E0,3.233932495E0
3.089559398E0,3.875122070E-1,2.583724976E0,2.973480225E0
3.094625316E0,4.524993896E-1,2.454284668E0,2.014205933E0
3.099660716E0,6.841888428E-1,2.170394897E0,4.956665039E-1
3.104726634E0,8.759460449E-1,1.820983887E0,-8.348388672E-1
3.109762035E0,8.722076416E-1,1.172241211E0,-1.512344360E0
3.114797435E0,7.156219482E-1,3.668975830E-1,-1.529388428E0
3.119863353E0,4.258728027E-1,-1.843719482E-1,-1.178924561E0
3.124898754E0,4.237365723E-2,-5.321807861E-1,-7.847747803E-1
3.129964672E0,-2.628326416E-1,-6.658630371E-1,-5.573425293E-1
3.135000072E0,-4.300689697E-1,-4.890289307E-1,-4.731903076E-1
3.140035472E0,-5.296783447E-1,-1.960906982E-1,-4.737091064E-1
3.145070873E0,-5.760192871E-1,3.347778320E-2,-5.078125000E-1
3.150138345E0,-5.445861816E-1,1.746215820E-1,-5.200500488E-1
3.155173745E0,-4.710845947E-1,2.012481689E-1,-5.078125000E-1
3.160239663E0,-3.789367676E-1,1.895446777E-1,-4.731903076E-1
3.165275063E0,-2.633514404E-1,2.278900146E-1,-4.177856445E-1
3.170310464E0,-1.174163818E-1,3.977966309E-1,-3.336334229E-1
3.175345864E0,4.562377930E-3,5.176391602E-1,-2.622680664E-1
3.180411782E0,6.314086914E-2,5.016632080E-1,-2.106018066E-1
3.185447183E0,6.155395508E-2,3.759613037E-1,-1.749114990E-1
3.190513101E0,7.751464844E-3,2.204284668E-1,-1.466827393E-1
3.195548501E0,-7.800292969E-2,1.314849854E-1,-1.157836914E-1
3.200583901E0,-1.616210938E-1,6.063842773E-2,-9.129333496E-2
3.205649819E0,-2.617645264E-1,-8.796691895E-2,-9.341430664E-2
3.210685220E0,-3.618927002E-1,-2.434997559E-1,-9.927368164E-2
3.215720620E0,-4.316711426E-1,-2.307128906E-1,-1.115264893E-1
3.220786538E0,-5.168914795E-1,-5.441284180E-2,-1.157836914E-1
3.225821938E0,-6.276855469E-1,1.842041016E-1,-8.116149902E-2
3.230857339E0,-6.005096436E-1,4.750213623E-1,-1.937866211E-2
3.235923257E0,-3.618927002E-1,6.651763916E-1,8.850097656E-3
3.240958657E0,-1.669464111E-1,8.569183350E-1,2.268981934E-2
3.246024575E0,-7.960510254E-2,9.847564697E-1,3.204345703E-4
3.251059976E0,-1.036071777E-2,8.052673340E-1,-2.470397949E-2
3.256095376E0,4.130554199E-2,5.192413330E-1,1.045227051E-2
3.261130776E0,5.995178223E-2,3.157653809E-1,6.584167480E-2
3.266196694E0,5.409240723E-2,1.772918701E-1,9.086608887E-2
3.271232095E0,3.598022461E-2,7.928466797E-2,6.317138672E-2
3.276298013E0,2.905273438E-2,6.851196289E-3,1.524353027E-2
3.281333413E0,2.532958984E-2,-5.067443848E-2,-1.618957520E-2
3.286368813E0,2.639770508E-2,-7.464599609E-2,-3.056335449E-2
3.291434731E0,3.758239746E-2,-8.422851562E-2,-3.749084473E-2
3.296470132E0,5.569458008E-2,-8.264160156E-2,-4.867553711E-2
3.301505532E0,6.953430176E-2,-6.559753418E-2,-5.346679688E-2
3.306571450E0,7.699584961E-2,-3.683471680E-2,-5.027770996E-2
3.311606851E0,7.752990723E-2,2.044677734E-3,-4.441833496E-2
3.316642251E0,7.379150391E-2,3.826904297E-2,-3.376770020E-2
3.321708169E0,6.900024414E-2,6.756591797E-2,-2.258300781E-2
3.326743569E0,6.474304199E-2,8.674621582E-2,-1.672363281E-2
3.331778970E0,6.527709961E-2,9.046936035E-2,-1.191711426E-2
3.336844888E0,7.006835938E-2,8.779907227E-2,-9.262084961E-3
3.341880288E0,7.859802246E-2,7.875061035E-2,-1.033020020E-2
3.346915688E0,8.497619629E-2,6.756591797E-2,-1.458740234E-2
3.351981606E0,9.243774414E-2,5.638122559E-2,-2.151489258E-2
3.357017007E0,9.936523438E-2,5.317687988E-2,-2.844238281E-2
3.362052407E0,1.057586670E-1,5.317687988E-2,-3.535461426E-2
3.367118325E0,1.084136963E-1,6.436157227E-2,-4.600524902E-2
3.372153726E0,1.084136963E-1,7.502746582E-2,-5.453491211E-2
3.377189126E0,1.126861572E-1,9.312438965E-2,-6.253051758E-2
3.382255044E0,1.206665039E-1,1.059112549E-1,-7.264709473E-2
3.387290444E0,1.254577637E-1,1.176300049E-1,-8.222961426E-2
3.392356362E0,1.350555420E-1,1.288146973E-1,-9.181213379E-2
3.397391763E0,1.430358887E-1,1.399993896E-1,-9.873962402E-2
3.402427163E0,1.488952637E-1,1.463928223E-1,-1.030120850E-1
3.407493081E0,1.531524658E-1,1.543884277E-1,-1.056671143E-1
3.412528481E0,1.590118408E-1,1.661071777E-1,-1.093902588E-1
3.417563882E0,1.643524170E-1,1.762237549E-1,-1.120605469E-1
3.422629800E0,1.707305908E-1,1.916656494E-1,-1.141967773E-1
3.427665200E0,1.776580811E-1,1.975250244E-1,-1.184539795E-1
3.432700601E0,1.819152832E-1,2.023162842E-1,-1.189880371E-1
3.437766518E0,1.856536865E-1,2.065887451E-1,-1.189880371E-1
3.442801919E0,1.883087158E-1,2.055206299E-1,-1.205749512E-1
3.447837319E0,1.909790039E-1,2.023162842E-1,-1.189880371E-1
3.452872720E0,1.952362061E-1,2.033843994E-1,-1.136627197E-1
3.457938638E0,1.925811768E-1,2.081756592E-1,-1.067352295E-1
3.462974038E0,1.813964844E-1,2.129669189E-1,-9.501647949E-2
3.468039956E0,1.781921387E-1,2.161712646E-1,-8.222961426E-2
3.473075356E0,1.717987061E-1,2.151031494E-1,-6.732177734E-2
3.478110757E0,1.611480713E-1,2.129669189E-1,-4.760742188E-2
3.483176675E0,1.536865234E-1,2.060546875E-1,-2.523803711E-2
3.488212075E0,1.377105713E-1,1.985931396E-1,-6.072998047E-3
3.493247476E0,1.259918213E-1,1.852722168E-1,1.417541504E-2
3.498313393E0,1.153411865E-1,1.810150146E-1,3.440856934E-2
3.503348794E0,9.989929199E-2,1.714324951E-1,5.145263672E-2
3.508384194E0,9.031677246E-2,1.607818604E-1,6.797790527E-2
3.513450112E0,7.699584961E-2,1.453247070E-1,7.595825195E-2
3.518485513E0,6.846618652E-2,1.218872070E-1,8.074951172E-2
3.523520913E0,6.900024414E-2,8.993530273E-2,7.968139648E-2
3.528586831E0,7.379150391E-2,6.063842773E-2,7.223510742E-2
3.533622231E0,8.071899414E-2,3.401184082E-2,6.370544434E-2
3.538657632E0,8.285522461E-2,2.044677734E-3,5.358886719E-2
3.543723550E0,8.551025391E-2,-1.979064941E-2,4.347229004E-2
3.548758950E0,8.871459961E-2,-3.948974609E-2,2.908325195E-2
3.553794351E0,8.924865723E-2,-5.599975586E-2,1.470947266E-2
3.558860268E0,9.190368652E-2,-6.878662109E-2,1.388549805E-3
3.563895669E0,9.883117676E-2,-7.624816895E-2,-6.591796875E-3
3.568961587E0,1.036224365E-1,-7.943725586E-2,-1.139831543E-2
3.573996987E0,1.078796387E-1,-8.210754395E-2,-1.831054688E-2
3.579032388E0,1.126861572E-1,-8.529663086E-2,-2.523803711E-2
3.584098306E0,1.195983887E-1,-8.743286133E-2,-2.896118164E-2
3.589133706E0,1.201324463E-1,-9.275817871E-2,-2.684020996E-2
3.594169106E0,1.142730713E-1,-9.808349609E-2,-2.684020996E-2
3.599235024E0,1.062927246E-1,-1.023406982E-1,-1.937866211E-2
3.604239907E0,9.776306152E-2,-1.066131592E-1,-9.796142578E-3
3.609305825E0,8.818054199E-2,-1.076660156E-1,-1.800537109E-3
3.614371743E0,7.752990723E-2,-1.055450439E-1,9.384155273E-3
3.619407143E0,6.953430176E-2,-9.754943848E-2,2.375793457E-2
3.624442544E0,6.155395508E-2,-9.222412109E-2,3.654479980E-2
3.629508462E0,4.823303223E-2,-8.529663086E-2,4.879760742E-2
3.634543862E0,3.437805176E-2,-7.731628418E-2,5.838012695E-2
3.639609780E0,1.733398438E-2,-7.252502441E-2,6.158447266E-2
3.644614663E0,-2.441406250E-4,-7.571411133E-2,6.423950195E-2
3.649680581E0,-1.622009277E-2,-8.529663086E-2,6.423950195E-2
3.654715981E0,-3.219604492E-2,-9.169006348E-2,5.891418457E-2
3.659781899E0,-4.231262207E-2,-1.076660156E-1,5.412292480E-2
3.664817300E0,-5.191040039E-2,-1.220550537E-1,4.612731934E-2
3.669852700E0,-6.202697754E-2,-1.369628906E-1,3.761291504E-2
3.674918618E0,-6.842041016E-2,-1.492156982E-1,2.854919434E-2
3.679954018E0,-7.427978516E-2,-1.598663330E-1,2.163696289E-2
3.684989419E0,-7.321166992E-2,-1.721191406E-1,1.098632812E-2
3.690055337E0,-7.107543945E-2,-1.769104004E-1,8.544921875E-4
3.695090737E0,-7.000732422E-2,-1.806488037E-1,-6.591796875E-3
3.700156655E0,-6.468200684E-2,-1.843719482E-1,-1.298522949E-2
3.705192056E0,-5.670166016E-2,-1.849060059E-1,-1.937866211E-2
3.710227456E0,-4.870605469E-2,-1.907653809E-1,-2.416992188E-2
3.715293374E0,-3.752136230E-2,-1.976928711E-1,-2.949523926E-2
3.720328774E0,-2.526855469E-2,-2.051391602E-1,-3.430175781E-2
3.725364175E0,-1.728820801E-2,-2.126007080E-1,-4.067993164E-2
3.730430093E0,-1.089477539E-2,-2.232513428E-1,-4.441833496E-2
3.735465493E0,-4.501342773E-3,-2.328338623E-1,-4.495239258E-2
3.740500893E0,2.899169922E-4,-2.461547852E-1,-4.707336426E-2
3.745566811E0,-2.441406250E-4,-2.631988525E-1,-4.814147949E-2
3.750602212E0,-2.365112305E-3,-2.738494873E-1,-4.814147949E-2
3.755637612E0,-3.433227539E-3,-2.845001221E-1,-4.760742188E-2
3.760703530E0,-5.035400391E-3,-2.951507568E-1,-4.335021973E-2
3.765738931E0,-9.826660156E-3,-3.063507080E-1,-4.016113281E-2
3.770774331E0,-1.408386230E-2,-3.148651123E-1,-3.482055664E-2
3.775840249E0,-1.834106445E-2,-3.207244873E-1,-3.109741211E-2
3.780875649E0,-2.366638184E-2,-3.287200928E-1,-2.630615234E-2
3.785941567E0,-2.900695801E-2,-3.308410645E-1,-2.258300781E-2
3.790976968E0,-3.645324707E-2,-3.292388916E-1,-1.937866211E-2
3.796012368E0,-4.177856445E-2,-3.287200928E-1,-1.565551758E-2
3.801047768E0,-5.084228516E-2,-3.297729492E-1,-1.191711426E-2
3.806083169E0,-5.296325684E-2,-3.287200928E-1,-9.262084961E-3
3.811149087E0,-5.563354492E-2,-3.249816895E-1,-1.033020020E-2
3.816215005E0,-5.935668945E-2,-3.260498047E-1,-1.139831543E-2
3.821250405E0,-5.989074707E-2,-3.297729492E-1,-1.298522949E-2
3.826285806E0,-5.828857422E-2,-3.335113525E-1,-1.618957520E-2
3.831351724E0,-5.242919922E-2,-3.383026123E-1,-1.884460449E-2
3.836387124E0,-4.924011230E-2,-3.478851318E-1,-2.204895020E-2
3.841422524E0,-4.071044922E-2,-3.548126221E-1,-2.737426758E-2
3.846488442E0,-3.752136230E-2,-3.585357666E-1,-3.269958496E-2
3.851523843E0,-3.433227539E-2,-3.585357666E-1,-3.802490234E-2
3.856559243E0,-3.005981445E-2,-3.558807373E-1,-3.909301758E-2
3.861625161E0,-3.059387207E-2,-3.516235352E-1,-4.174804688E-2
3.866660561E0,-3.379821777E-2,-3.409576416E-1,-4.495239258E-2
3.871695962E0,-3.379821777E-2,-3.276519775E-1,-4.707336426E-2
3.876761880E0,-3.805541992E-2,-3.127288818E-1,-4.600524902E-2
3.881797280E0,-4.124450684E-2,-2.930297852E-1,-4.228210449E-2
3.886832681E0,-4.551696777E-2,-2.706604004E-1,-3.642272949E-2
3.891898599E0,-4.817199707E-2,-2.477569580E-1,-2.844238281E-2
3.896933999E0,-4.656982422E-2,-2.333679199E-1,-2.044677734E-2
3.901999917E0,-4.338073730E-2,-2.248535156E-1,-1.618957520E-2
3.907035317E0,-4.019165039E-2,-2.179260254E-1,-6.072998047E-3
3.912070718E0,-3.273010254E-2,-2.142028809E-1,-3.402709961E-3
3.917106118E0,-2.687072754E-2,-2.120666504E-1,-2.868652344E-3
3.922172036E0,-1.622009277E-2,-2.136688232E-1,-2.136230469E-4
3.927207436E0,-8.758544922E-3,-2.168579102E-1,2.456665039E-3
3.932273354E0,-5.569458008E-3,-2.211151123E-1,1.922607422E-3
3.937308755E0,-7.156372070E-3,-2.264556885E-1,3.204345703E-4
3.942344155E0,-3.967285156E-3,-2.301788330E-1,-1.266479492E-3
3.947410073E0,-7.156372070E-3,-2.237854004E-1,8.544921875E-4
3.952445474E0,-9.826660156E-3,-2.157897949E-1,2.456665039E-3
3.957480874E0,-1.354980469E-2,-2.088775635E-1,2.990722656E-3
3.962516274E0,-1.782226562E-2,-1.923522949E-1,5.645751953E-3
3.967582192E0,-2.101135254E-2,-1.817016602E-1,7.247924805E-3
3.972617593E0,-2.154541016E-2,-1.715850830E-1,8.316040039E-3
3.977683511E0,-2.154541016E-2,-1.587982178E-1,1.310729980E-2
3.982718911E0,-1.940917969E-2,-1.529388428E-1,1.631164551E-2
3.987723794E0,-1.834106445E-2,-1.556091309E-1,1.470947266E-2
3.992789712E0,-1.834106445E-2,-1.587982178E-1,1.470947266E-2
3.997855630E0,-1.834106445E-2,-1.604003906E-1,2.217102051E-2
4.002891030E0,-1.675415039E-2,-1.620025635E-1,2.322387695E-2
4.007926431E0,-1.515197754E-2,-1.678619385E-1,2.482604980E-2
4.012992349E0,-1.568603516E-2,-1.667938232E-1,2.961730957E-2
4.018027749E0,-1.408386230E-2,-1.667938232E-1,3.387451172E-2
4.023093667E0,-1.568603516E-2,-1.620025635E-1,3.547668457E-2
4.028129067E0,-1.728820801E-2,-1.641235352E-1,3.868103027E-2
4.033194985E0,-1.940917969E-2,-1.561431885E-1,4.347229004E-2
4.038230386E0,-2.314758301E-2,-1.492156982E-1,4.666137695E-2
4.043265786E0,-2.847290039E-2,-1.407012939E-1,5.198669434E-2
4.048301186E0,-3.538513184E-2,-1.321716309E-1,5.891418457E-2
4.053367104E0,-3.858947754E-2,-1.177978516E-1,6.423950195E-2
4.058402505E0,-4.605102539E-2,-1.023406982E-1,7.170104980E-2
4.063437905E0,-5.191040039E-2,-8.956909180E-2,7.809448242E-2
4.068503823E0,-6.042480469E-2,-7.624816895E-2,8.821105957E-2
4.073539224E0,-7.000732422E-2,-6.027221680E-2,9.779357910E-2
4.078605142E0,-7.907104492E-2,-4.481506348E-2,1.057891846E-1
4.083640542E0,-9.237670898E-2,-3.044128418E-2,1.121826172E-1
4.088675942E0,-1.067657471E-1,-1.339721680E-2,1.222991943E-1
4.093711343E0,-1.195526123E-1,4.180908203E-3,1.302947998E-1
4.098777261E0,-1.312713623E-1,1.803588867E-2,1.382751465E-1
4.103812661E0,-1.419219971E-1,2.815246582E-2,1.457366943E-1
4.108878579E0,-1.477813721E-1,3.294372559E-2,1.531982422E-1
4.113913979E0,-1.541748047E-1,3.134155273E-2,1.595764160E-1
4.118949380E0,-1.595001221E-1,3.027343750E-2,1.649169922E-1
4.124015298E0,-1.653594971E-1,2.282714844E-2,1.739654541E-1
4.129020181E0,-1.722717285E-1,1.750183105E-2,1.835479736E-1
4.134055581E0,-1.770782471E-1,9.506225586E-3,1.952667236E-1
4.139090981E0,-1.834564209E-1,1.525878906E-3,2.053833008E-1
4.144126382E0,-1.919860840E-1,-7.003784180E-3,2.139129639E-1
4.149192300E0,-2.053070068E-1,-7.537841797E-3,2.240295410E-1
4.154258218E0,-2.196807861E-1,-7.003784180E-3,2.336120605E-1
4.159293618E0,-2.303314209E-1,-1.678466797E-3,2.400054932E-1
4.164329018E0,-2.404479980E-1,4.180908203E-3,2.458648682E-1
4.169364419E0,-2.537689209E-1,1.271057129E-2,2.527923584E-1
4.174399819E0,-2.676239014E-1,2.761840820E-2,2.565155029E-1
4.179465737E0,-2.793426514E-1,5.212402344E-2,2.581176758E-1
4.184501138E0,-2.910614014E-1,7.661437988E-2,2.602539062E-1
4.189536538E0,-3.017120361E-1,1.027221680E-1,2.634429932E-1
4.194632974E0,-3.128967285E-1,1.288146973E-1,2.698364258E-1
4.199698892E0,-3.262023926E-1,1.506500244E-1,2.709045410E-1
4.204734292E0,-3.416595459E-1,1.708984375E-1,2.730407715E-1
4.209769692E0,-3.512420654E-1,1.884765625E-1,2.799530029E-1
4.214835610E0,-3.618927002E-1,2.039184570E-1,2.868804932E-1
4.219871011E0,-3.741455078E-1,2.198944092E-1,2.932739258E-1
4.224936929E0,-3.810729980E-1,2.332153320E-1,3.007354736E-1
4.229972329E0,-3.901214600E-1,2.486572266E-1,3.044586182E-1
4.235007729E0,-4.093017578E-1,2.534484863E-1,3.039245605E-1
4.240073647E0,-4.359283447E-1,2.577209473E-1,3.002014160E-1
4.245109048E0,-4.652252197E-1,2.619781494E-1,2.895507812E-1
4.250144448E0,-5.073089600E-1,2.710266113E-1,2.756958008E-1
4.255179849E0,-5.536499023E-1,2.864837646E-1,2.581176758E-1
4.260245767E0,-6.037139893E-1,2.992553711E-1,2.496032715E-1
4.265281167E0,-6.622924805E-1,3.104400635E-1,2.442779541E-1
4.270347085E0,-7.246246338E-1,3.370819092E-1,2.533264160E-1
4.275382485E0,-7.879943848E-1,3.695678711E-1,2.772979736E-1
4.280417886E0,-8.439331055E-1,4.063262939E-1,3.103179932E-1
4.285483804E0,-8.886718750E-1,4.462738037E-1,3.433380127E-1
4.290519204E0,-9.147644043E-1,4.851531982E-1,3.747711182E-1
4.295554604E0,-9.270172119E-1,5.128479004E-1,4.024658203E-1
4.300620522E0,-9.275512695E-1,5.277557373E-1,4.237670898E-1
4.305655923E0,-9.163665771E-1,5.251007080E-1,4.381561279E-1
4.310691323E0,-9.009246826E-1,5.037841797E-1,4.567871094E-1
4.315757241E0,-8.806762695E-1,4.734344482E-1,4.552001953E-1
4.320792642E0,-8.423309326E-1,4.057922363E-1,4.333496094E-1
4.325828042E0,-8.077087402E-1,3.328094482E-1,4.088592529E-1
4.330893960E0,-7.954559326E-1,3.136444092E-1,3.918151855E-1
4.335929360E0,-7.800140381E-1,2.976684570E-1,3.753051758E-1
4.340995278E0,-7.246246338E-1,2.289581299E-1,3.539886475E-1
4.346030679E0,-6.314086914E-1,1.357421875E-1,3.262939453E-1
4.351066079E0,-5.387268066E-1,8.621215820E-2,2.927398682E-1
4.356101479E0,-4.710845947E-1,6.916809082E-2,2.591857910E-1
4.361167397E0,-4.242095947E-1,6.596374512E-2,2.229614258E-1
4.366202798E0,-3.991851807E-1,6.330871582E-2,1.947326660E-1
4.371268716E0,-3.752136230E-1,1.643371582E-2,1.792907715E-1
4.376304116E0,-3.405914307E-1,-5.760192871E-2,1.675720215E-1
4.381339517E0,-3.096923828E-1,-1.236572266E-1,1.574554443E-1
4.386405435E0,-2.782745361E-1,-1.577453613E-1,1.526641846E-1
4.391440835E0,-2.479095459E-1,-1.683959961E-1,1.505279541E-1
4.396476235E0,-2.207489014E-1,-1.715850830E-1,1.473388672E-1
4.401542153E0,-1.989135742E-1,-1.854400635E-1,1.430664062E-1
4.406547036E0,-1.781311035E-1,-2.035522461E-1,1.393432617E-1
4.411612954E0,-1.547088623E-1,-2.232513428E-1,1.308135986E-1
4.416678872E0,-1.302032471E-1,-2.450866699E-1,1.185760498E-1
4.421683755E0,-1.003723145E-1,-2.653350830E-1,9.779357910E-2
4.426749673E0,-5.882263184E-2,-2.770538330E-1,8.502197266E-2
4.431815591E0,-1.408386230E-2,-2.871704102E-1,7.435607910E-2
4.436850991E0,3.544616699E-2,-2.834472656E-1,6.211853027E-2
4.441886392E0,8.924865723E-2,-2.770538330E-1,4.187011719E-2
4.446952310E0,1.398468018E-1,-2.802429199E-1,1.364135742E-2
4.451987710E0,1.872558594E-1,-2.962188721E-1,-1.777648926E-2
4.457053628E0,2.261352539E-1,-3.137969971E-1,-4.016113281E-2
4.462089028E0,2.506256104E-1,-3.223266602E-1,-5.986022949E-2
4.467124429E0,2.767333984E-1,-3.324432373E-1,-8.116149902E-2
4.472159829E0,3.038940430E-1,-3.372344971E-1,-1.003417969E-1
4.477225747E0,3.257293701E-1,-3.409576416E-1,-1.211090088E-1
4.482261147E0,3.363800049E-1,-3.500213623E-1,-1.338958740E-1
4.487327065E0,3.385162354E-1,-3.478851318E-1,-1.450805664E-1
4.492362466E0,3.326568604E-1,-3.494873047E-1,-1.551971436E-1
4.497397866E0,3.214721680E-1,-3.526763916E-1,-1.647949219E-1
4.502463784E0,3.097534180E-1,-3.558807373E-1,-1.727752686E-1
4.507499185E0,2.953796387E-1,-3.580017090E-1,-1.791687012E-1
4.512534585E0,2.793884277E-1,-3.569488525E-1,-1.844940186E-1
4.517600503E0,2.660827637E-1,-3.569488525E-1,-1.876983643E-1
4.522605386E0,2.575531006E-1,-3.521423340E-1,-1.930236816E-1
4.527671304E0,2.495727539E-1,-3.500213623E-1,-1.972808838E-1
4.532737222E0,2.463684082E-1,-3.430938721E-1,-2.042083740E-1
4.537772622E0,2.410430908E-1,-3.319091797E-1,-2.111358643E-1
4.542808022E0,2.389068604E-1,-3.228607178E-1,-2.180480957E-1
4.547873940E0,2.394409180E-1,-3.164672852E-1,-2.249755859E-1
4.552909341E0,2.426452637E-1,-3.132629395E-1,-2.340393066E-1
4.557944741E0,2.522277832E-1,-3.137969971E-1,-2.462768555E-1
4.563010659E0,2.660827637E-1,-3.201904297E-1,-2.532043457E-1
4.568046060E0,2.809906006E-1,-3.281860352E-1,-2.564086914E-1
4.573081460E0,2.937774658E-1,-3.350982666E-1,-2.579956055E-1
4.578147378E0,3.054962158E-1,-3.436279297E-1,-2.564086914E-1
4.583182778E0,3.092193604E-1,-3.537445068E-1,-2.548065186E-1
4.588248696E0,3.092193604E-1,-3.601379395E-1,-2.516021729E-1
4.593284097E0,3.049621582E-1,-3.612060547E-1,-2.462768555E-1
4.598319497E0,2.964324951E-1,-3.564147949E-1,-2.452239990E-1
4.603354897E0,2.927093506E-1,-3.404388428E-1,-2.361602783E-1
4.608420815E0,2.916412354E-1,-3.058166504E-1,-2.303009033E-1
4.613456216E0,2.895202637E-1,-2.679901123E-1,-2.292327881E-1
4.618522134E0,2.857818604E-1,-2.307128906E-1,-2.271118164E-1
4.623557534E0,2.815246582E-1,-1.923522949E-1,-2.276458740E-1
4.628592935E0,2.820587158E-1,-1.566772461E-1,-2.324371338E-1
4.633658852E0,2.788543701E-1,-1.257781982E-1,-2.388305664E-1
4.638663735E0,2.772674561E-1,-9.275817871E-2,-2.484130859E-1
4.643729653E0,2.788543701E-1,-6.132507324E-2,-2.601318359E-1
4.648795571E0,2.857818604E-1,-3.204345703E-2,-2.713165283E-1
4.653830972E0,2.964324951E-1,-2.746582031E-3,-2.878265381E-1
4.658866372E0,2.996368408E-1,2.708435059E-2,-3.075408936E-1
4.663932290E0,2.948455811E-1,4.093933105E-2,-3.309783936E-1
4.668967690E0,2.793884277E-1,3.401184082E-2,-3.576049805E-1
4.674003091E0,2.575531006E-1,1.110839844E-2,-3.783721924E-1
4.679069009E0,2.421112061E-1,-1.765441895E-2,-3.959503174E-1
4.684104409E0,2.405090332E-1,-5.387878418E-2,-4.140625000E-1
4.689139810E0,2.447662354E-1,-9.489440918E-2,-4.311065674E-1
4.694205727E0,2.543640137E-1,-1.343078613E-1,-4.401550293E-1
4.699241128E0,2.591552734E-1,-1.779785156E-1,-4.465484619E-1
4.704276528E0,2.596893311E-1,-2.237854004E-1,-4.476165771E-1
4.709342446E0,2.543640137E-1,-2.584075928E-1,-4.412231445E-1
4.714377847E0,2.479705811E-1,-2.610626221E-1,-4.199218750E-1
4.719443765E0,2.346496582E-1,-2.269744873E-1,-3.767700195E-1
4.724479165E0,2.176055908E-1,-1.476135254E-1,-3.038024902E-1
4.729514565E0,1.979064941E-1,-5.067443848E-2,-2.073974609E-1
4.734580483E0,1.670074463E-1,5.744934082E-2,-9.873962402E-2
4.739585366E0,1.116180420E-1,1.772918701E-1,6.713867188E-3
4.744651284E0,3.651428223E-2,2.843475342E-1,1.095123291E-1
4.749717202E0,-5.137634277E-2,3.429412842E-1,2.011260986E-1
4.754722085E0,-1.275329590E-1,3.429412842E-1,2.693023682E-1
4.759788003E0,-1.706848145E-1,3.008575439E-1,2.906036377E-1
4.764853921E0,-1.855926514E-1,2.523956299E-1,2.698364258E-1
4.769889321E0,-1.866607666E-1,2.124481201E-1,2.437438965E-1
4.774924722E0,-1.786651611E-1,1.682281494E-1,2.192382812E-1
4.779990640E0,-1.685485840E-1,1.155090332E-1,1.846160889E-1
4.785026040E0,-1.456451416E-1,6.649780273E-2,1.489257812E-1
4.790061440E0,-1.238098145E-1,4.145812988E-2,1.228332520E-1
4.795127358E0,-1.051635742E-1,2.761840820E-2,1.036529541E-1
4.800162759E0,-8.599853516E-2,2.494812012E-2,9.939575195E-2
4.805198159E0,-8.119201660E-2,6.542968750E-2,1.015319824E-1
4.810264077E0,-1.009063721E-1,1.426696777E-1,9.140014648E-2
4.815299477E0,-1.392517090E-1,2.023162842E-1,7.489013672E-2
4.820334878E0,-1.717529297E-1,2.294921875E-1,6.744384766E-2
4.825400796E0,-1.957092285E-1,2.651672363E-1,5.091857910E-2
4.830436196E0,-2.170257568E-1,2.918090820E-1,3.335571289E-2
4.835471597E0,-2.271423340E-1,2.981872559E-1,2.163696289E-2
4.840537515E0,-2.324676514E-1,3.083190918E-1,8.316040039E-3
4.845572915E0,-2.452545166E-1,3.232269287E-1,-2.334594727E-3
4.850608315E0,-2.574920654E-1,3.482666016E-1,-5.004882812E-3
4.855674233E0,-2.660217285E-1,3.951263428E-1,6.179809570E-3
4.860709634E0,-2.734832764E-1,4.499969482E-1,2.696228027E-2
4.865745034E0,-2.873229980E-1,5.149688721E-1,5.625915527E-2
4.870810952E0,-3.022460938E-1,5.847473145E-1,8.395385742E-2
4.875846352E0,-3.049011230E-1,6.539916992E-1,1.127166748E-1
4.880881753E0,-3.006439209E-1,7.067260742E-1,1.281585693E-1
4.885947671E0,-2.921142578E-1,7.525329590E-1,1.281585693E-1
4.890983071E0,-2.718811035E-1,7.807617188E-1,1.201629639E-1
4.896048989E0,-2.431182861E-1,7.637176514E-1,1.073913574E-1
4.901084390E0,-2.026367188E-1,7.056579590E-1,9.460449219E-2
4.906119790E0,-1.365966797E-1,6.305541992E-1,8.288574219E-2
4.911185708E0,-7.693481445E-2,5.858154297E-1,5.731201172E-2
4.916221108E0,-5.509948730E-2,5.724945068E-1,5.126953125E-3
4.921256509E0,-3.752136230E-2,5.618438721E-1,-5.239868164E-2
4.926322427E0,-6.103515625E-3,5.309600830E-1,-9.767150879E-2
4.931357827E0,3.225708008E-2,4.739685059E-1,-1.248474121E-1
4.936393227E0,7.699584961E-2,4.089813232E-1,-1.386871338E-1
4.941459145E0,1.100158691E-1,3.488006592E-1,-1.477508545E-1
4.946494546E0,1.275939941E-1,2.939300537E-1,-1.551971436E-1
4.951560464E0,1.307830811E-1,2.454681396E-1,-1.578674316E-1
4.956595864E0,1.201324463E-1,2.049865723E-1,-1.573333740E-1
4.961631265E0,1.036224365E-1,1.740875244E-1,-1.541442871E-1
4.966666665E0,8.497619629E-2,1.501159668E-1,-1.504058838E-1
4.971732583E0,6.527709961E-2,1.399993896E-1,-1.461486816E-1
4.976767983E0,4.502868652E-2,1.330718994E-1,-1.461486816E-1
4.981803384E0,2.160644531E-2,1.378784180E-1,-1.498718262E-1
4.986869302E0,-1.831054688E-3,1.533203125E-1,-1.541442871E-1
4.991904702E0,-2.900695801E-2,1.815490723E-1,-1.589355469E-1
4.996970620E0,-5.563354492E-2,2.108459473E-1,-1.695861816E-1
5.002006020E0,-7.907104492E-2,2.422637939E-1,-1.775665283E-1
5.007041421E0,-9.185791016E-2,2.673034668E-1,-1.834259033E-1
5.012107339E0,-7.321166992E-2,2.475891113E-1,-1.765136719E-1
5.017142739E0,-3.273010254E-2,2.065887451E-1,-1.674499512E-1
5.022178140E0,-1.142883301E-2,2.369384766E-1,-1.781005859E-1
5.027244058E0,-1.354980469E-2,2.859497070E-1,-1.898193359E-1
5.032279458E0,-2.154541016E-2,2.960662842E-1,-1.919555664E-1
5.037314858E0,-2.261352539E-2,2.779541016E-1,-1.850280762E-1
5.042350259E0,-1.834106445E-2,2.571868896E-1,-1.786346436E-1
5.047416177E0,-1.142883301E-2,2.401428223E-1,-1.701202393E-1
5.052482095E0,2.426147461E-3,2.151031494E-1,-1.600036621E-1
5.057486977E0,2.532958984E-2,1.868743896E-1,-1.509399414E-1
5.062552895E0,4.876708984E-2,1.682281494E-1,-1.424255371E-1
5.067588296E0,6.367492676E-2,1.618347168E-1,-1.333618164E-1
5.072654214E0,7.699584961E-2,1.581115723E-1,-1.211090088E-1
5.077689614E0,8.178710938E-2,1.714324951E-1,-1.035308838E-1
5.082725015E0,7.859802246E-2,1.927337646E-1,-8.383178711E-2
5.087790933E0,7.167053223E-2,2.198944092E-1,-5.667114258E-2
5.092826333E0,6.207275391E-2,2.507934570E-1,-2.630615234E-2
5.097861733E0,5.355834961E-2,2.870025635E-1,6.713867188E-3
5.102927651E0,4.397583008E-2,3.232269287E-1,4.026794434E-2
5.107963052E0,3.172302246E-2,3.567810059E-1,7.223510742E-2
5.112998452E0,2.000427246E-2,3.807525635E-1,1.063232422E-1
5.118064370E0,2.899169922E-4,3.940734863E-1,1.382751465E-1
5.123099770E0,-2.101135254E-2,3.999328613E-1,1.744995117E-1
5.128165688E0,-4.019165039E-2,3.914031982E-1,2.096557617E-1
5.133201089E0,-5.723571777E-2,3.732910156E-1,2.480010986E-1
5.138236489E0,-7.374572754E-2,3.578491211E-1,2.900848389E-1
5.143302407E0,-8.811950684E-2,3.503875732E-1,3.326873779E-1
5.148337808E0,-9.930419922E-2,3.503875732E-1,3.758392334E-1
5.153373208E0,-1.104888916E-1,3.615722656E-1,4.189758301E-1
5.158439126E0,-1.296691895E-1,3.855438232E-1,4.594573975E-1
5.163474526E0,-1.461791992E-1,4.089813232E-1,4.978027344E-1
5.168509927E0,-1.616210938E-1,4.366760254E-1,5.356140137E-1
5.173545327E0,-1.749420166E-1,4.654388428E-1,5.638580322E-1
5.178611245E0,-1.839904785E-1,4.925994873E-1,5.824890137E-1
5.183646645E0,-1.861267090E-1,5.011291504E-1,5.942077637E-1
5.188712563E0,-1.834564209E-1,4.840850830E-1,5.979461670E-1
5.193747964E0,-1.797332764E-1,4.537200928E-1,5.878143311E-1
5.198783364E0,-1.674804688E-1,4.249572754E-1,5.537261963E-1
5.203849282E0,-1.520385742E-1,3.775634766E-1,4.956665039E-1
5.208884683E0,-1.392517090E-1,3.168334961E-1,4.381561279E-1
5.213920083E0,-1.312713623E-1,2.465362549E-1,3.859558105E-1
5.218986001E0,-1.349945068E-1,1.463928223E-1,3.316192627E-1
5.224021401E0,-1.472473145E-1,2.494812012E-2,2.666473389E-1
5.229087319E0,-1.632232666E-1,-9.915161133E-2,1.936645508E-1
5.234122720E0,-1.855926514E-1,-2.376403809E-1,1.265563965E-1
5.239127602E0,-2.223510742E-1,-3.851776123E-1,7.489013672E-2
5.244163003E0,-2.601623535E-1,-5.156707764E-1,4.719543457E-2
5.249198403E0,-3.006439209E-1,-6.115417480E-1,3.921508789E-2
5.254264321E0,-3.507080078E-1,-6.855773926E-1,3.868103027E-2
5.259299722E0,-4.018402100E-1,-7.074127197E-1,5.519104004E-2
5.264335122E0,-4.471130371E-1,-6.786499023E-1,9.086608887E-2
5.269401040E0,-4.875946045E-1,-6.253967285E-1,1.297607422E-1
5.274436440E0,-5.174255371E-1,-5.481567383E-1,1.691741943E-1
5.279502358E0,-5.264739990E-1,-4.693298340E-1,1.963348389E-1
5.284568276E0,-5.222167969E-1,-3.984832764E-1,2.043304443E-1
5.289634194E0,-5.009155273E-1,-3.420257568E-1,2.032623291E-1
5.294639077E0,-4.620361328E-1,-2.898254395E-1,1.963348389E-1
5.299704995E0,-4.140930176E-1,-2.472229004E-1,1.776885986E-1
5.304770913E0,-3.602905273E-1,-2.072753906E-1,1.643829346E-1
5.309806313E0,-3.043670654E-1,-1.779785156E-1,1.574554443E-1
5.314841714E0,-2.548370361E-1,-1.572113037E-1,1.638488770E-1
5.319907632E0,-2.212829590E-1,-1.343078613E-1,2.000579834E-1
5.324943032E0,-1.994476318E-1,-7.518005371E-2,2.314910889E-1
5.329978433E0,-2.015686035E-1,-2.244567871E-2,2.155151367E-1
5.335044351E0,-2.548370361E-1,-1.872253418E-2,1.867523193E-1
5.340079751E0,-3.725433350E-1,-5.067443848E-2,1.531982422E-1
5.345115151E0,-5.589752197E-1,-9.701538086E-2,1.260223389E-1
5.350181069E0,-8.119659424E-1,-7.199096680E-2,1.308135986E-1
5.355216470E0,-1.100128174E0,1.192321777E-1,1.744995117E-1
5.360251870E0,-1.401062012E0,4.452056885E-1,2.501373291E-1
5.365317788E0,-1.663650513E0,8.004608154E-1,3.294982910E-1
5.370353188E0,-1.883087158E0,1.060394287E0,3.737030029E-1
5.375388589E0,-2.070053101E0,1.188217163E0,3.790283203E-1
5.380454507E0,-2.265518188E0,1.230834961E0,3.561248779E-1
5.385489907E0,-2.460998535E0,1.201538086E0,3.108520508E-1
5.390555825E0,-2.622390747E0,1.056137085E0,2.629089355E-1
5.395591226E0,-2.723052979E0,7.807617188E-1,2.384185791E-1
5.400626626E0,-2.726257324E0,4.526519775E-1,2.517242432E-1
5.405662026E0,-2.600555420E0,3.826904297E-2,3.092498779E-1
5.410727944E0,-2.329971313E0,-4.171295166E-1,4.322967529E-1
5.415763345E0,-2.089752197E0,-6.951599121E-1,5.212402344E-1
5.420829263E0,-1.980026245E0,-8.139343262E-1,5.201721191E-1
5.425864663E0,-1.982162476E0,-8.405761719E-1,4.466705322E-1
5.430900063E0,-2.025299072E0,-8.059539795E-1,3.641204834E-1
5.435965981E0,-2.014114380E0,-7.558898926E-1,3.241729736E-1
5.441001382E0,-1.899597168E0,-7.697296143E-1,3.545227051E-1
5.446036782E0,-1.679626465E0,-7.654724121E-1,4.759674072E-1
5.451102700E0,-1.414901733E0,-6.573486328E-1,6.304321289E-1
5.456138101E0,-1.175231934E0,-4.890289307E-1,7.476043701E-1
5.461173501E0,-9.786834717E-1,-3.420257568E-1,8.067321777E-1
5.466239419E0,-8.108978271E-1,-2.179260254E-1,8.115234375E-1
5.471274819E0,-6.548461914E-1,-1.044769287E-1,7.971496582E-1
5.476310220E0,-5.083618164E-1,-5.334472656E-2,7.731781006E-1
5.481376138E0,-3.629608154E-1,-5.067443848E-2,7.353515625E-1
5.486411538E0,-2.159576416E-1,-4.962158203E-2,6.884918213E-1
5.491446938E0,-8.865356445E-2,-4.269409180E-2,6.288299561E-1
5.496512856E0,1.200866699E-2,-3.790283203E-2,5.569305420E-1
5.501548257E0,9.297180176E-2,-6.452941895E-2,4.860839844E-1
5.506583657E0,1.584930420E-1,-9.436035156E-2,4.200439453E-1
5.511649575E0,2.101593018E-1,-9.594726562E-2,3.678436279E-1
5.516684976E0,2.623443604E-1,-1.028747559E-1,3.225708008E-1
5.521720376E0,3.150787354E-1,-1.625366211E-1,2.506561279E-1
5.526786294E0,3.683471680E-1,-1.923522949E-1,1.654357910E-1
5.531821694E0,4.237365723E-1,-1.651916504E-1,8.874511719E-2
5.536887612E0,4.785919189E-1,-1.252441406E-1,2.589416504E-2
5.541892495E0,5.217437744E-1,-8.636474609E-2,-2.311706543E-2
5.546958413E0,5.483703613E-1,-4.055786133E-2,-5.453491211E-2
5.552024331E0,5.526275635E-1,2.578735352E-3,-6.944274902E-2
5.557059731E0,5.441131592E-1,3.826904297E-2,-7.637023926E-2
5.562095132E0,5.254669189E-1,8.407592773E-2,-7.957458496E-2
5.567161050E0,5.100250244E-1,1.533203125E-1,-8.010864258E-2
5.572196450E0,5.190734863E-1,2.241516113E-1,-7.743835449E-2
5.577231851E0,5.627593994E-1,2.640991211E-1,-9.288024902E-2
5.582297768E0,6.287994385E-1,2.742309570E-1,-1.152496338E-1
5.587333169E0,6.852569580E-1,2.662353516E-1,-1.291046143E-1
5.592368569E0,7.225494385E-1,2.475891113E-1,-1.392211914E-1
5.597434487E0,7.507781982E-1,2.193603516E-1,-1.488037109E-1
5.602469888E0,7.667541504E-1,1.863403320E-1,-1.631927490E-1
5.607505288E0,7.779388428E-1,1.479949951E-1,-1.914215088E-1
5.612571206E0,7.933807373E-1,9.207153320E-2,-2.249755859E-1
5.617606606E0,8.072357178E-1,3.401184082E-2,-2.627868652E-1
5.622672524E0,8.226776123E-1,-2.351379395E-2,-3.000793457E-1
5.627707925E0,8.349304199E-1,-7.836914062E-2,-3.373565674E-1
5.632743325E0,8.487701416E-1,-1.311035156E-1,-3.730468750E-1
5.637778726E0,8.567657471E-1,-1.641235352E-1,-4.066009521E-1
5.642814126E0,8.551635742E-1,-1.737213135E-1,-4.492187500E-1
5.647880044E0,8.407897949E-1,-1.774444580E-1,-4.987487793E-1
5.652945962E0,8.205413818E-1,-1.875610352E-1,-5.525512695E-1
5.657981362E0,8.034973145E-1,-2.232513428E-1,-6.047515869E-1
5.663016763E0,7.997741699E-1,-2.903594971E-1,-6.484222412E-1
5.668082681E0,8.072357178E-1,-3.606719971E-1,-6.841125488E-1
5.673118081E0,8.216094971E-1,-4.139404297E-1,-7.027435303E-1
5.678153481E0,8.354644775E-1,-4.528198242E-1,-7.144622803E-1
5.683219399E0,8.439788818E-1,-4.581451416E-1,-7.261810303E-1
5.688254800E0,8.450469971E-1,-4.309844971E-1,-7.309722900E-1
5.693290200E0,8.503723145E-1,-3.707885742E-1,-7.288513184E-1
5.698356118E0,8.695526123E-1,-2.786407471E-1,-7.165985107E-1
5.703391518E0,8.935241699E-1,-1.556091309E-1,-6.894378662E-1
5.708426919E0,9.148254395E-1,-7.629394531E-5,-6.596069336E-1
5.713492837E0,9.318695068E-1,1.746215820E-1,-6.260528564E-1
5.718528237E0,9.457092285E-1,3.248291016E-1,-5.829010010E-1
5.723594155E0,9.473114014E-1,4.297485352E-1,-5.344390869E-1
5.728629556E0,9.324035645E-1,4.899444580E-1,-4.982147217E-1
5.733664956E0,8.924560547E-1,5.069885254E-1,-4.779815674E-1
5.738700356E0,8.301391602E-1,4.819488525E-1,-4.742431641E-1
5.743766274E0,7.534332275E-1,4.308166504E-1,-4.838409424E-1
5.748801675E0,6.671447754E-1,3.690338135E-1,-5.030059814E-1
5.753837075E0,5.792694092E-1,3.056488037E-1,-5.237884521E-1
5.758872476E0,4.956359863E-1,2.358703613E-1,-5.349731445E-1
5.763938393E0,4.274597168E-1,1.698303223E-1,-5.355072021E-1
5.769004311E0,3.742065430E-1,1.293487549E-1,-5.339050293E-1
5.774039712E0,3.369140625E-1,1.229553223E-1,-5.237884521E-1
5.779075112E0,3.129425049E-1,1.511840820E-1,-5.093994141E-1
5.784110513E0,2.948455811E-1,2.060546875E-1,-4.939575195E-1
5.789176431E0,2.836608887E-1,2.699584961E-1,-4.769134521E-1
5.794211831E0,2.793884277E-1,3.408050537E-1,-4.598693848E-1
5.799277749E0,2.852478027E-1,4.089813232E-1,-4.454803467E-1
5.804313149E0,3.044281006E-1,4.633178711E-1,-4.332427979E-1
5.809348550E0,3.353271484E-1,4.979248047E-1,-4.311065674E-1
5.814414468E0,3.720703125E-1,5.293579102E-1,-4.342956543E-1
5.819449868E0,4.066925049E-1,5.549163818E-1,-4.364318848E-1
5.824485268E0,4.397125244E-1,5.730285645E-1,-4.375000000E-1
5.829551186E0,4.588928223E-1,5.895385742E-1,-4.364318848E-1
5.834586587E0,4.658203125E-1,5.890045166E-1,-4.316406250E-1
5.839621987E0,4.572906494E-1,5.810241699E-1,-4.263153076E-1
5.844687905E0,4.359893799E-1,5.703735352E-1,-4.167175293E-1
5.849723306E0,4.013671875E-1,5.330810547E-1,-4.018096924E-1
5.854758706E0,3.544921875E-1,4.734344482E-1,-3.831634521E-1
5.859824624E0,3.007049561E-1,4.052581787E-1,-3.592071533E-1
5.864860024E0,2.500915527E-1,3.386688232E-1,-3.389587402E-1
5.869925942E0,2.026977539E-1,2.880706787E-1,-3.192596436E-1
5.874961343E0,1.670074463E-1,2.523956299E-1,-2.947540283E-1
5.879996743E0,1.329193115E-1,2.236328125E-1,-2.755737305E-1
5.885032143E0,1.020202637E-1,1.991271973E-1,-2.574615479E-1
5.890098061E0,6.953430176E-2,1.879425049E-1,-2.452239990E-1
5.895133462E0,3.544616699E-2,1.751556396E-1,-2.436218262E-1
5.900168862E0,1.414489746E-2,1.698303223E-1,-2.462768555E-1
5.905234780E0,-5.035400391E-3,2.065887451E-1,-2.622680664E-1
5.910270181E0,-3.433227539E-2,2.710266113E-1,-2.835693359E-1
5.915305581E0,-7.481384277E-2,3.328094482E-1,-2.841033936E-1
5.920371499E0,-1.200866699E-1,3.882141113E-1,-2.649230957E-1
5.925406899E0,-1.685485840E-1,4.563903809E-1,-2.356262207E-1
5.930472817E0,-2.186126709E-1,5.447998047E-1,-1.972808838E-1
5.935508218E0,-2.351226807E-1,6.135101318E-1,-1.418914795E-1
5.940543618E0,-2.537689209E-1,7.131195068E-1,-9.022521973E-2
5.945609536E0,-3.421936035E-1,8.851623535E-1,-3.695678711E-2
5.950644936E0,-4.849395752E-1,1.021514893E0,5.039978027E-2
5.955680337E0,-6.303405762E-1,1.034820557E0,1.436004639E-1
5.960746255E0,-7.363433838E-1,9.597167969E-1,2.064514160E-1
5.965781655E0,-7.981262207E-1,8.984680176E-1,2.352142334E-1
5.970817056E0,-8.652343750E-1,8.872833252E-1,2.261657715E-1
5.975852456E0,-1.009048462E0,9.480133057E-1,1.718292236E-1
5.980918374E0,-1.263107300E0,1.041213989E0,8.502197266E-2
5.985953774E0,-1.583755493E0,1.044418335E0,-7.659912109E-3
5.991019692E0,-1.899078369E0,9.442749023E-1,-5.293273926E-2
5.996055093E0,-2.146743774E0,8.777008057E-1,-2.334594727E-3
6.001090493E0,-2.264450073E0,8.766326904E-1,1.569213867E-1
6.006156411E0,-2.211730957E0,8.441467285E-1,4.019317627E-1
6.011191811E0,-1.977371216E0,6.928710938E-1,6.448059082E-1
6.016257729E0,-1.613586426E0,4.260253906E-1,8.093872070E-1
6.021293130E0,-1.199188232E0,2.119140625E-1,9.042053223E-1
6.026328530E0,-7.698974609E-1,1.655731201E-1,9.665222168E-1
6.031394448E0,-3.608245850E-1,3.210906982E-1,1.023513794E0
6.036429849E0,-4.656982422E-2,6.646423340E-1,1.070922852E0
6.041465249E0,1.409149170E-1,1.023101807E0,1.079971313E0
6.046531167E0,2.005615234E-1,1.242019653E0,1.021377563E0
6.051566567E0,1.355895996E-1,1.288894653E0,9.031372070E-1
6.056601968E0,-5.035400391E-3,1.317123413E0,7.412109375E-1
6.061667886E0,-1.653594971E-1,1.351211548E0,5.622558594E-1
6.066703286E0,-2.852020264E-1,1.288360596E0,3.902130127E-1
6.071738686E0,-3.208770752E-1,1.097137451E0,2.714385986E-1
6.076804604E0,-2.921142578E-1,8.271026611E-1,1.968688965E-1
6.081840005E0,-2.367248535E-1,5.288238525E-1,1.116485596E-1
6.086875405E0,-1.626892090E-1,2.236328125E-1,-5.538940430E-3
6.091941323E0,-1.089019775E-1,-8.103942871E-2,-1.328277588E-1
6.096976724E0,-9.983825684E-2,-3.905029297E-1,-2.590637207E-1
6.102012124E0,-1.403198242E-1,-6.685333252E-1,-3.948822021E-1
6.107078042E0,-2.170257568E-1,-8.735961914E-1,-5.536041260E-1
6.112113442E0,-3.230133057E-1,-9.827880859E-1,-7.283172607E-1
6.117148843E0,-4.258117676E-1,-1.016342163E0,-8.833160400E-1
6.122214761E0,-4.881286621E-1,-1.023269653E0,-9.988861084E-1
6.127250161E0,-5.051727295E-1,-1.008346558E0,-1.070266724E0
6.132285561E0,-4.700164795E-1,-9.897155762E-1,-1.111816406E0
6.137351479E0,-3.821411133E-1,-9.705352783E-1,-1.135238647E0
6.142386880E0,-2.436523438E-1,-9.396362305E-1,-1.144836426E0
6.147422280E0,-6.628417969E-2,-8.874511719E-1,-1.136306763E0
6.152488198E0,1.265258789E-1,-8.235321045E-1,-1.097961426E0
6.157523599E0,3.161468506E-1,-7.489624023E-1,-1.012741089E0
6.162589517E0,4.956359863E-1,-6.679992676E-1,-8.960876465E-1
6.167624917E0,6.618194580E-1,-5.758514404E-1,-7.725219727E-1
6.172660317E0,8.130950928E-1,-4.634704590E-1,-6.601409912E-1
6.177726235E0,9.414520264E-1,-3.452301025E-1,-5.637359619E-1
6.182761636E0,1.051712036E0,-2.371063232E-1,-4.742431641E-1
6.187797036E0,1.130004883E0,-1.316375732E-1,-3.703918457E-1
6.192862954E0,1.171020508E0,-4.109191895E-2,-2.595977783E-1
6.197898354E0,1.191253662E0,3.027343750E-2,-1.424255371E-1
6.202933755E0,1.185394287E0,9.526062012E-2,-2.630615234E-2
6.207999673E0,1.151306152E0,1.538543701E-1,6.744384766E-2
6.213035073E0,1.093795776E0,1.980590820E-1,1.377410889E-1
6.218070474E0,1.024017334E0,2.284240723E-1,1.867523193E-1
6.223136392E0,9.462432861E-1,2.502593994E-1,2.272338867E-1
6.228171792E0,8.642272949E-1,2.593078613E-1,2.522583008E-1
6.233207192E0,7.816619873E-1,2.481231689E-1,2.677001953E-1
6.238273110E0,7.065582275E-1,2.119140625E-1,2.698364258E-1
6.243308511E0,6.453094482E-1,1.586456299E-1,2.671813965E-1
6.248343911E0,5.904541016E-1,1.021881104E-1,2.586517334E-1
6.253409829E0,5.430450439E-1,3.773498535E-2,2.378845215E-1
6.258445229E0,5.073547363E-1,-2.777099609E-2,2.149810791E-1
6.263511147E0,4.833984375E-1,-9.701538086E-2,1.920776367E-1
6.268546548E0,4.642181396E-1,-1.849060059E-1,1.627807617E-1
6.273581948E0,4.471740723E-1,-2.610626221E-1,1.356201172E-1
6.278647866E0,4.327850342E-1,-3.015441895E-1,1.127166748E-1
6.283683267E0,4.194793701E-1,-3.042144775E-1,9.407043457E-2
6.288718667E0,4.029693604E-1,-2.914276123E-1,8.074951172E-2
6.293754067E0,3.827209473E-1,-2.648010254E-1,8.235168457E-2
6.298819985E0,3.678131104E-1,-2.291107178E-1,8.448791504E-2
6.303855386E0,3.694152832E-1,-1.875610352E-1,9.353637695E-2
6.308921304E0,3.811340332E-1,-1.556091309E-1,8.981323242E-2
6.313956704E0,4.040222168E-1,-1.518859863E-1,7.916259766E-2
6.318992104E0,4.423828125E-1,-1.859741211E-1,6.158447266E-2
6.324027505E0,4.690093994E-1,-2.749176025E-1,4.026794434E-2
6.329062905E0,4.738006592E-1,-4.096679688E-1,2.854919434E-2
6.334128823E0,4.498291016E-1,-5.747833252E-1,3.601074219E-2
6.339194741E0,4.136199951E-1,-7.383117676E-1,5.838012695E-2
6.344199624E0,3.582305908E-1,-8.544158936E-1,7.968139648E-2
6.349235024E0,2.958984375E-1,-9.108734131E-1,1.020660400E-1
6.354270425E0,2.314605713E-1,-9.194030762E-1,1.366729736E-1
6.359305825E0,1.680755615E-1,-8.874511719E-1,1.941986084E-1
6.364371743E0,1.137390137E-1,-8.411102295E-1,2.618560791E-1
6.369437661E0,6.420898438E-2,-7.846527100E-1,3.358917236E-1
6.374473061E0,2.053833008E-2,-7.297821045E-1,4.099273682E-1
6.379508462E0,-2.047729492E-2,-6.818542480E-1,4.919433594E-1
6.384574380E0,-6.361389160E-2,-6.136779785E-1,5.776977539E-1
6.389609780E0,-1.158142090E-1,-5.364379883E-1,6.575927734E-1
6.394675698E0,-1.775970459E-1,-4.554748535E-1,7.279052734E-1
6.399741616E0,-2.527008057E-1,-3.665313721E-1,7.795715332E-1
6.404746499E0,-3.336639404E-1,-2.594757080E-1,8.067321777E-1
6.409781899E0,-3.917236328E-1,-1.364288330E-1,8.045959473E-1
6.414847817E0,-4.226226807E-1,-2.777099609E-2,7.619934082E-1
6.419913735E0,-4.183502197E-1,6.542968750E-2,6.970062256E-1
6.424949136E0,-3.895874023E-1,1.762237549E-1,6.123199463E-1
6.430015054E0,-3.634948730E-1,3.514556885E-1,5.228424072E-1
6.435050454E0,-3.592376709E-1,5.906066895E-1,4.429473877E-1
6.440085854E0,-3.831939697E-1,8.526611328E-1,3.944702148E-1
6.445151772E0,-3.991851807E-1,9.943389893E-1,3.737030029E-1
6.450187173E0,-3.650970459E-1,9.831542969E-1,3.864898682E-1
6.455253091E0,-3.070373535E-1,8.739624023E-1,4.269714355E-1
6.460288491E0,-2.654876709E-1,6.577148438E-1,4.583892822E-1
6.465323892E0,-2.180786133E-1,4.345550537E-1,4.962005615E-1
6.470389810E0,-1.323242188E-1,2.561187744E-1,5.516052246E-1
6.475425210E0,-4.498291016E-2,1.080474854E-1,6.112518311E-1
6.480460610E0,4.663085938E-2,-3.790283203E-2,6.773071289E-1
6.485526528E0,1.158752441E-1,-2.046051025E-1,7.220458984E-1
6.490561929E0,1.212005615E-1,-3.574829102E-1,7.358856201E-1
6.495627847E0,5.355834961E-2,-4.432220459E-1,7.428131104E-1
6.500663247E0,-7.427978516E-2,-4.501495361E-1,7.326965332E-1
6.505698647E0,-2.319335938E-1,-4.070129395E-1,6.986083984E-1
6.510734048E0,-4.002380371E-1,-3.239135742E-1,6.661224365E-1
6.515799966E0,-5.866699219E-1,-2.078094482E-1,6.538696289E-1
6.520835366E0,-7.922668457E-1,-8.956909180E-2,6.480102539E-1
6.525901284E0,-1.003723145E0,3.240966797E-2,6.304321289E-1
6.530936685E0,-1.226364136E0,1.501159668E-1,6.064605713E-1
6.535972085E0,-1.463378906E0,2.262878418E-1,5.766296387E-1
6.541007485E0,-1.704132080E0,2.182922363E-1,5.254974365E-1
6.546042886E0,-1.935287476E0,7.022094727E-2,4.301605225E-1
6.551108804E0,-2.101470947E0,-2.237854004E-1,2.980651855E-1
6.556144204E0,-2.182968140E0,-5.843811035E-1,1.542510986E-1
6.561210122E0,-2.221313477E0,-8.981018066E-1,5.126953125E-3
6.566245522E0,-2.253799438E0,-1.074935913E0,-1.360321045E-1
6.571311440E0,-2.260192871E0,-1.175064087E0,-2.233734131E-1
6.576346841E0,-2.206405640E0,-1.311416626E0,-1.972808838E-1
6.581382241E0,-2.088150024E0,-1.453094482E0,-5.186462402E-2
6.586448159E0,-1.936355591E0,-1.517013550E0,1.670379639E-1
6.591483560E0,-1.754730225E0,-1.425399780E0,3.854217529E-1
6.596518960E0,-1.572036743E0,-1.216079712E0,5.500030518E-1
6.601584878E0,-1.418106079E0,-9.859771729E-1,6.570587158E-1
6.606620278E0,-1.281219482E0,-7.649383545E-1,7.342987061E-1
6.611655679E0,-1.170425415E0,-5.614776611E-1,8.078002930E-1
6.616721597E0,-1.089477539E0,-4.165954590E-1,8.594665527E-1
6.621756997E0,-1.013839722E0,-3.042144775E-1,8.807678223E-1
6.626792397E0,-9.248809814E-1,-1.545410156E-1,8.813018799E-1
6.631858315E0,-8.460540771E-1,3.826904297E-2,8.786315918E-1
6.636893716E0,-7.768096924E-1,2.523956299E-1,8.578643799E-1
6.641959634E0,-7.080993652E-1,4.350738525E-1,8.120574951E-1
6.646995034E0,-6.441955566E-1,5.314941406E-1,7.310943604E-1
6.652030435E0,-5.834655762E-1,5.155029297E-1,6.043243408E-1
6.657096352E0,-5.179595947E-1,3.882141113E-1,4.408111572E-1
6.662131753E0,-4.444580078E-1,1.900634766E-1,2.442779541E-1
6.667167153E0,-3.432464600E-1,2.578735352E-3,4.879760742E-2
6.672233071E0,-2.026367188E-1,-1.156616211E-1,-7.957458496E-2
6.677268472E0,-3.645324707E-2,-1.550750732E-1,-1.376190186E-1
6.682303872E0,1.350555420E-1,-1.481475830E-1,-1.711883545E-1
6.687369790E0,2.991027832E-1,-1.066131592E-1,-1.818389893E-1
6.692405190E0,4.439697266E-1,-3.097534180E-2,-1.834259033E-1
6.697440591E0,5.643463135E-1,6.330871582E-2,-1.876983643E-1
6.702506509E0,6.511688232E-1,1.655731201E-1,-1.930236816E-1
6.707541909E0,7.060394287E-1,2.603759766E-1,-1.967468262E-1
6.712577310E0,7.390594482E-1,3.370819092E-1,-1.962127686E-1
6.717643227E0,7.646179199E-1,3.977966309E-1,-2.020721436E-1
6.722678628E0,7.949829102E-1,4.377441406E-1,-2.111358643E-1
6.727714028E0,8.306732178E-1,4.627838135E-1,-2.153930664E-1
6.732779946E0,8.759460449E-1,4.819488525E-1,-2.196502686E-1
6.737815347E0,9.297332764E-1,4.925994873E-1,-2.169952393E-1
6.742850747E0,9.867248535E-1,4.947357178E-1,-2.089996338E-1
6.747916665E0,1.049041748E0,4.925994873E-1,-2.031402588E-1
6.752952065E0,1.111358643E0,4.899444580E-1,-1.978149414E-1
6.757987466E0,1.167831421E0,4.819488525E-1,-2.004699707E-1
6.763053384E0,1.212570190E0,4.734344482E-1,-2.132568359E-1
6.768088784E0,1.242385864E0,4.606475830E-1,-2.292327881E-1
6.773154702E0,1.251449585E0,4.467926025E-1,-2.516021729E-1
6.778190102E0,1.239730835E0,4.446716309E-1,-2.761077881E-1
6.783225503E0,1.210433960E0,4.446716309E-1,-3.032684326E-1
6.788260903E0,1.165161133E0,4.499969482E-1,-3.341674805E-1
6.793296304E0,1.103912354E0,4.601135254E-1,-3.618621826E-1
6.798362222E0,1.033599854E0,4.691619873E-1,-3.879699707E-1
6.803397622E0,9.590301514E-1,4.734344482E-1,-4.098052979E-1
6.808433022E0,8.839263916E-1,4.675750732E-1,-4.305725098E-1
6.813498940E0,8.184204102E-1,4.579772949E-1,-4.460144043E-1
6.818534341E0,7.592926025E-1,4.526519775E-1,-4.604034424E-1
6.823569741E0,7.055053711E-1,4.425354004E-1,-4.715881348E-1
6.828635659E0,6.517028809E-1,4.292144775E-1,-4.875640869E-1
6.833671060E0,6.021728516E-1,4.063262939E-1,-5.030059814E-1
6.838706460E0,5.632934570E-1,3.706359863E-1,-5.259094238E-1
6.843772378E0,5.361175537E-1,3.296203613E-1,-5.482788086E-1
6.848807778E0,5.233459473E-1,3.157653809E-1,-5.621337891E-1
6.853843179E0,5.206756592E-1,3.258972168E-1,-5.711822510E-1
6.858909097E0,5.265350342E-1,3.392028809E-1,-5.807800293E-1
6.863944497E0,5.425109863E-1,3.439941406E-1,-5.924987793E-1
6.868979897E0,5.734100342E-1,3.493347168E-1,-6.010131836E-1
6.874045815E0,6.144256592E-1,3.546600342E-1,-5.940856934E-1
6.879081216E0,6.559600830E-1,3.658447266E-1,-5.743865967E-1
6.884116616E0,7.006988525E-1,3.701019287E-1,-5.568084717E-1
6.889182534E0,7.449188232E-1,3.615722656E-1,-5.450897217E-1
6.894217935E0,7.875213623E-1,3.503875732E-1,-5.317687988E-1
6.899283852E0,8.312072754E-1,3.264312744E-1,-5.179290771E-1
6.904319253E0,8.791351318E-1,3.061828613E-1,-4.960937500E-1
6.909354653E0,9.228210449E-1,2.880706787E-1,-4.694519043E-1
6.914420571E0,9.547729492E-1,2.902069092E-1,-4.263153076E-1
6.919455972E0,9.776763916E-1,3.200378418E-1,-3.693237305E-1
6.924491372E0,9.920501709E-1,3.668975830E-1,-3.054046631E-1
6.929557290E0,9.920501709E-1,4.308166504E-1,-2.350921631E-1
6.934592690E0,9.808654785E-1,4.989929199E-1,-1.637268066E-1
6.939628091E0,9.515686035E-1,5.607757568E-1,-9.820556641E-2
6.944694009E0,9.062957764E-1,6.257629395E-1,-4.016113281E-2
6.949729409E0,8.423919678E-1,7.077941895E-1,6.179809570E-3
6.954764810E0,7.640838623E-1,7.940826416E-1,4.187011719E-2
6.959830727E0,6.746063232E-1,8.899536133E-1,6.477355957E-2
6.964866128E0,5.734100342E-1,1.006591797E0,7.756042480E-2
6.969901528E0,4.684753418E-1,1.131759644E0,8.288574219E-2
6.974967446E0,3.699340820E-1,1.245208740E0,8.874511719E-2
6.980002847E0,2.873840332E-1,1.353332520E0,9.140014648E-2
6.985038247E0,2.223968506E-1,1.447616577E0,8.767700195E-2
6.990104165E0,1.750030518E-1,1.520050049E0,7.542419434E-2
6.995139565E0,1.494293213E-1,1.577041626E0,5.625915527E-2
7.000174966E0,1.430358887E-1,1.621246338E0,2.589416504E-2
7.005240884E0,1.600799561E-1,1.641494751E0,-1.139831543E-2
7.010276284E0,1.920471191E-1,1.632965088E0,-4.600524902E-2
7.015342202E0,2.314605713E-1,1.599411011E0,-8.383178711E-2
7.020377602E0,2.831268311E-1,1.555740356E0,-1.280364990E-1
7.025413003E0,3.417053223E-1,1.504608154E0,-1.775665283E-1
7.030448403E0,3.971099854E-1,1.449752808E0,-2.148590088E-1
7.035514321E0,4.397125244E-1,1.385299683E0,-2.516021729E-1
7.040549722E0,4.716796875E-1,1.304336548E0,-2.920837402E-1
7.045615640E0,4.924468994E-1,1.226577759E0,-3.288421631E-1
7.050651040E0,4.903106689E-1,1.145614624E0,-3.544006348E-1
7.055686440E0,4.642181396E-1,1.067840576E0,-3.751831055E-1
7.060752358E0,4.194793701E-1,9.948730469E-1,-3.943481445E-1
7.065787759E0,3.614196777E-1,9.299011230E-1,-4.082031250E-1
7.070853677E0,2.943115234E-1,8.718414307E-1,-4.204559326E-1
7.075889077E0,2.181396484E-1,8.196411133E-1,-4.337615967E-1
7.080954995E0,1.307830811E-1,7.663726807E-1,-4.433593750E-1
7.085990395E0,4.077148438E-2,7.253723145E-1,-4.513397217E-1
7.091025796E0,-5.828857422E-2,6.955413818E-1,-4.508209229E-1
7.096091714E0,-1.728057861E-1,6.678466797E-1,-4.369659424E-1
7.101127114E0,-2.883911133E-1,6.374816895E-1,-4.145965576E-1
7.106162515E0,-3.933258057E-1,6.033935547E-1,-3.970184326E-1
7.111228433E0,-4.849395752E-1,5.634460449E-1,-3.751831055E-1
7.116263833E0,-5.557708740E-1,5.197753906E-1,-3.368225098E-1
7.121299233E0,-6.005096436E-1,4.787597656E-1,-2.787780762E-1
7.126365151E0,-6.170196533E-1,4.739685059E-1,-2.047424316E-1
7.131400552E0,-6.180877686E-1,5.128479004E-1,-1.173858643E-1
7.136466470E0,-6.127624512E-1,5.719604492E-1,-2.098083496E-2
7.141501870E0,-5.951843262E-1,6.305541992E-1,5.784606934E-2
7.146537270E0,-5.728149414E-1,6.699676514E-1,1.047210693E-1
7.151572671E0,-5.477905273E-1,6.907501221E-1,1.249694824E-1
7.156638589E0,-5.227508545E-1,7.503967285E-1,1.398773193E-1
7.161673989E0,-4.891967773E-1,8.675842285E-1,1.686401367E-1
7.166739907E0,-4.417877197E-1,1.042282104E0,2.171020508E-1
7.171775308E0,-3.805389404E-1,1.239883423E0,2.799530029E-1
7.176810708E0,-3.320617676E-1,1.375701904E0,3.449401855E-1
7.181876626E0,-3.592376709E-1,1.357070923E0,3.710327148E-1
7.186912026E0,-4.955902100E-1,1.207397461E0,3.428039551E-1
7.191947427E0,-7.331390381E-1,9.655761719E-1,2.794189453E-1
7.197013345E0,-9.834747314E-1,6.358795166E-1,2.389526367E-1
7.202048745E0,-1.180557251E0,3.445281982E-1,2.650451660E-1
7.207084145E0,-1.274826050E0,2.417297363E-1,3.545227051E-1
7.212150063E0,-1.313705444E0,3.775634766E-1,4.663848877E-1
7.217185464E0,-1.356323242E0,6.715698242E-1,5.792999268E-1
7.222220864E0,-1.350997925E0,8.904876709E-1,6.916809082E-1
7.227286782E0,-1.251922607E0,9.011383057E-1,8.014068604E-1
7.232322183E0,-1.061767578E0,8.089904785E-1,9.409484863E-1
7.237357583E0,-8.029174805E-1,7.770233154E-1,1.100204468E0
7.242423501E0,-4.977111816E-1,8.665161133E-1,1.247756958E0
7.247458901E0,-1.744079590E-1,1.065719604E0,1.353744507E0
7.252494302E0,1.302642822E-1,1.308593750E0,1.382507324E0
7.257560220E0,3.672790527E-1,1.549346924E0,1.296218872E0
7.262595620E0,4.913787842E-1,1.737365723E0,1.098083496E0
7.267631020E0,4.993743896E-1,1.808746338E0,8.541412354E-1
7.272696938E0,3.976440430E-1,1.736297607E0,6.277618408E-1
7.277732339E0,1.792602539E-1,1.546691895E0,4.184417725E-1
7.282798257E0,-1.360626221E-1,1.237228394E0,2.405395508E-1
7.287833657E0,-4.870605469E-1,8.500061035E-1,1.468048096E-1
7.292869058E0,-8.023834229E-1,4.681091309E-1,1.478576660E-1
7.297904458E0,-1.043136597E0,1.836853027E-1,1.963348389E-1
7.302970376E0,-1.190673828E0,3.987121582E-2,2.607879639E-1
7.308005776E0,-1.265243530E0,-4.867553711E-3,2.879486084E-1
7.313071694E0,-1.269500732E0,1.696777344E-2,2.304229736E-1
7.318107095E0,-1.203979492E0,7.981872559E-2,1.222991943E-1
7.323142495E0,-1.080413818E0,1.224212646E-1,3.654479980E-2
7.328177895E0,-9.126434326E-1,1.069793701E-1,-2.630615234E-2
7.333243813E0,-6.937255859E-1,5.798339844E-2,-8.862304688E-2
7.338279214E0,-4.322052002E-1,2.015686035E-2,-1.733093262E-1
7.343314614E0,-1.515045166E-1,3.613281250E-2,-2.713165283E-1
7.348380532E0,1.228027344E-1,9.898376465E-2,-3.560028076E-1
7.353415933E0,3.587493896E-1,1.842041016E-1,-3.970184326E-1
7.358481851E0,5.478363037E-1,2.657012939E-1,-3.922271729E-1
7.363517251E0,6.852569580E-1,3.408050537E-1,-3.719787598E-1
7.368552651E0,7.672882080E-1,4.212341309E-1,-3.506774902E-1
7.373618569E0,7.997741699E-1,4.963378906E-1,-3.293762207E-1
7.378653970E0,7.960510254E-1,5.698394775E-1,-3.000793457E-1
7.383689370E0,7.694091797E-1,6.326904297E-1,-2.558746338E-1
7.388755288E0,7.332000732E-1,6.731719971E-1,-2.089996338E-1
7.393790688E0,7.044372559E-1,6.928710938E-1,-1.567993164E-1
7.398826089E0,6.836547852E-1,6.944732666E-1,-1.051330566E-1
7.403892007E0,6.676788330E-1,6.784973145E-1,-5.346679688E-2
7.408927407E0,6.522369385E-1,6.444091797E-1,-3.936767578E-3
7.413962808E0,6.415863037E-1,5.927429199E-1,4.772949219E-2
7.419028726E0,6.351928711E-1,5.416107178E-1,9.779357910E-2
7.424064126E0,6.261444092E-1,5.000610352E-1,1.398773193E-1
7.429099526E0,6.213378906E-1,4.622497559E-1,1.787567139E-1
7.434165444E0,6.170806885E-1,4.356079102E-1,2.197723389E-1
7.439200845E0,6.160125732E-1,4.148406982E-1,2.575836182E-1
7.444266763E0,6.144256592E-1,4.036560059E-1,3.002014160E-1
7.449302163E0,6.192169189E-1,4.015197754E-1,3.428039551E-1
7.454337563E0,6.277313232E-1,4.015197754E-1,3.800964355E-1
7.459403481E0,6.335906982E-1,4.276275635E-1,4.115142822E-1
7.464408364E0,6.346588135E-1,4.723663330E-1,4.370880127E-1
7.469474282E0,6.351928711E-1,5.261535645E-1,4.541320801E-1
7.474509683E0,6.287994385E-1,5.799560547E-1,4.637145996E-1
7.479545083E0,6.160125732E-1,6.316223145E-1,4.642486572E-1
7.484580483E0,6.048278809E-1,6.662445068E-1,4.567871094E-1
7.489615884E0,5.893859863E-1,6.822204590E-1,4.402770996E-1
7.494651284E0,5.702056885E-1,6.859436035E-1,4.296264648E-1
7.499717202E0,5.510406494E-1,6.806182861E-1,4.226989746E-1
7.504752602E0,5.281372070E-1,6.651763916E-1,4.184417725E-1
7.509818520E0,5.046997070E-1,6.369476318E-1,4.189758301E-1
7.514884438E0,4.775390625E-1,5.890045166E-1,4.296264648E-1
7.519950356E0,4.524993896E-1,5.405426025E-1,4.418792725E-1
7.524985757E0,4.178771973E-1,4.958038330E-1,4.535980225E-1
7.530021157E0,3.853912354E-1,4.595794678E-1,4.647827148E-1
7.535087075E0,3.528900146E-1,4.207000732E-1,4.748992920E-1
7.540122476E0,3.188018799E-1,3.743591309E-1,4.930114746E-1
7.545157876E0,2.820587158E-1,3.157653809E-1,5.223083496E-1
7.550223794E0,2.500915527E-1,2.502593994E-1,5.654449463E-1
7.555259194E0,2.176055908E-1,1.884765625E-1,6.091308594E-1
7.560294595E0,1.904449463E-1,1.463928223E-1,6.437530518E-1
7.565360513E0,1.707305908E-1,1.394653320E-1,6.847534180E-1
7.570395913E0,1.648712158E-1,1.645050049E-1,7.247009277E-1
7.575431313E0,1.723327637E-1,2.177734375E-1,7.513427734E-1
7.580497231E0,1.856536865E-1,2.976684570E-1,7.673187256E-1
7.585532632E0,2.032318115E-1,3.812866211E-1,7.795715332E-1
7.590568032E0,2.277221680E-1,4.766235352E-1,7.918243408E-1
7.595633950E0,2.623443604E-1,5.735626221E-1,8.099212646E-1
7.600669351E0,3.129425049E-1,6.688995361E-1,8.125915527E-1
7.605735268E0,3.720703125E-1,7.418823242E-1,8.083343506E-1
7.610770669E0,4.402465820E-1,7.972717285E-1,8.040618896E-1
7.615806069E0,5.196075439E-1,8.388214111E-1,7.902221680E-1
7.620871987E0,5.952453613E-1,8.388214111E-1,7.657165527E-1
7.625876870E0,6.591644287E-1,7.807617188E-1,7.231140137E-1
7.630942788E0,7.023010254E-1,6.854248047E-1,6.703796387E-1
7.636008706E0,7.230834961E-1,5.602569580E-1,6.176452637E-1
7.641044106E0,7.177429199E-1,4.111175537E-1,5.707702637E-1
7.646079507E0,6.804656982E-1,2.321472168E-1,5.340270996E-1
7.651145425E0,6.128234863E-1,5.638122559E-2,5.041961670E-1
7.656180825E0,5.302581787E-1,-5.813598633E-2,4.759674072E-1
7.661216226E0,4.226684570E-1,-1.327056885E-1,4.429473877E-1
7.666282143E0,2.932434082E-1,-1.865081787E-1,4.205780029E-1
7.671317544E0,1.478271484E-1,-2.211151123E-1,4.168395996E-1
7.676352944E0,-5.035400391E-3,-2.237854004E-1,4.333496094E-1
7.681418862E0,-1.477813721E-1,-1.880950928E-1,4.541320801E-1
7.686454263E0,-2.686920166E-1,-1.369628906E-1,4.674377441E-1
7.691489663E0,-3.847961426E-1,-4.588317871E-2,4.759674072E-1
7.696555581E0,-4.854583740E-1,7.608032227E-2,4.876861572E-1
7.701590981E0,-5.472564697E-1,1.932678223E-1,5.095214844E-1
7.706626382E0,-5.765533447E-1,2.944641113E-1,5.361480713E-1
7.711692300E0,-5.951843262E-1,3.866119385E-1,5.574645996E-1
7.716727700E0,-6.255493164E-1,4.601135254E-1,5.665130615E-1
7.721763101E0,-6.713562012E-1,5.080566406E-1,5.638580322E-1
7.726829018E0,-7.304840088E-1,5.762329102E-1,5.569305420E-1
7.731864419E0,-8.311462402E-1,6.492004395E-1,5.287017822E-1
7.736930337E0,-1.021301270E0,7.472076416E-1,4.450683594E-1
7.741965737E0,-1.271102905E0,8.153839111E-1,3.364105225E-1
7.747001138E0,-1.541671753E0,7.882232666E-1,2.671813965E-1
7.752067056E0,-1.853805542E0,7.461395264E-1,2.677001953E-1
7.757102456E0,-2.193618774E0,7.850189209E-1,3.103179932E-1
7.762137856E0,-2.478576660E0,8.489379883E-1,3.923492432E-1
7.767203774E0,-2.620254517E0,8.260345459E-1,4.983367920E-1
7.772239175E0,-2.598953247E0,6.417388916E-1,5.867614746E-1
7.777274575E0,-2.497756958E0,4.015197754E-1,6.554565430E-1
7.782340493E0,-2.429580688E0,2.838134766E-1,6.602630615E-1
7.787375893E0,-2.361923218E0,2.204284668E-1,6.059265137E-1
7.792411294E0,-2.279907227E0,7.714843750E-2,5.425415039E-1
7.797446694E0,-2.174972534E0,-1.822357178E-1,4.530639648E-1
7.802512612E0,-2.045547485E0,-3.920898438E-1,3.667755127E-1
7.807548013E0,-1.933166504E0,-4.735870361E-1,3.145751953E-1
7.812613931E0,-1.871902466E0,-4.597473145E-1,2.858123779E-1
7.817649331E0,-1.834625244E0,-4.677276611E-1,2.804870605E-1
7.822684731E0,-1.745666504E0,-5.710601807E-1,3.113861084E-1
7.827750649E0,-1.666305542E0,-5.944976807E-1,3.758392334E-1
7.832786050E0,-1.606658936E0,-5.321807861E-1,4.685058594E-1
7.837851968E0,-1.517181396E0,-4.725189209E-1,6.112518311E-1
7.842887368E0,-1.355255127E0,-3.931579590E-1,7.683868408E-1
7.847922768E0,-1.121429443E0,-2.834472656E-1,8.940887451E-1
7.852988686E0,-8.732147217E-1,-1.438903809E-1,9.867553711E-1
7.858024087E0,-6.489868164E-1,1.525878906E-3,1.062927246E0
7.863059487E0,-4.481811523E-1,1.266937256E-1,1.115661621E0
7.868125405E0,-2.628326416E-1,2.342834473E-1,1.118316650E0
7.873160806E0,-1.094207764E-1,3.285522461E-1,1.069854736E0
7.878196206E0,1.628112793E-2,3.908691406E-1,9.841003418E-1
7.883262124E0,1.148071289E-1,3.898010254E-1,8.813018799E-1
7.888297524E0,1.947021484E-1,2.971343994E-1,7.790374756E-1
7.893332925E0,2.570190430E-1,1.176300049E-1,6.938171387E-1
7.898398843E0,2.932434082E-1,-9.754943848E-2,6.149902344E-1
7.903434243E0,3.198699951E-1,-2.301788330E-1,5.143127441E-1
7.908469643E0,3.433074951E-1,-3.068695068E-1,3.657073975E-1
7.913535561E0,3.736724854E-1,-3.654632568E-1,2.506561279E-1
7.918570962E0,4.290618896E-1,-3.350982666E-1,2.117767334E-1
7.923606362E0,5.094909668E-1,-2.205963135E-1,2.048645020E-1
7.928672280E0,6.165466309E-1,-9.008789062E-2,2.240295410E-1
7.933707681E0,7.310638428E-1,8.300781250E-2,2.650451660E-1
7.938743081E0,8.514404297E-1,3.029937744E-1,2.985992432E-1
7.943808999E0,9.648895264E-1,5.405426025E-1,3.135070801E-1
7.948844399E0,1.048507690E0,7.493286133E-1,3.065948486E-1
7.953879800E0,1.087402344E0,9.006042480E-1,2.927398682E-1
7.958945718E0,1.101776123E0,9.778289795E-1,2.730407715E-1
7.963981118E0,1.108703613E0,1.007125854E0,2.463989258E-1
7.969016518E0,1.117218018E0,1.020980835E0,2.181701660E-1
7.974082436E0,1.112960815E0,1.038024902E0,1.904754639E-1
7.979117837E0,1.097518921E0,1.063049316E0,1.670379639E-1
7.984183755E0,1.074081421E0,1.092346191E0,1.382751465E-1
7.989219155E0,1.046386719E0,1.118988037E0,1.084442139E-1
7.994254556E0,1.012298584E0,1.139755249E0,7.862854004E-2
7.999320474E0,9.760742188E-1,1.153076172E0,4.666137695E-2
8.004355874E0,9.382629395E-1,1.161056519E0,9.384155273E-3
8.009391274E0,8.999176025E-1,1.163192749E0,-3.216552734E-2
8.014426675E0,8.647613525E-1,1.163726807E0,-7.157897949E-2
8.019492593E0,8.503723145E-1,1.147216797E0,-1.131286621E-1
8.024527993E0,8.583679199E-1,1.107788086E0,-1.482849121E-1
8.029593911E0,8.881988525E-1,1.046539307E0,-1.781005859E-1
8.034629311E0,9.377288818E-1,9.714355469E-1,-2.052764893E-1
8.039664712E0,9.989776611E-1,8.973999023E-1,-2.292327881E-1
8.044730630E0,1.061294556E0,8.340148926E-1,-2.585296631E-1
8.049766030E0,1.116699219E0,7.770233154E-1,-2.867584229E-1
8.054801431E0,1.164093018E0,7.370910645E-1,-3.128662109E-1
8.059867349E0,1.192855835E0,7.072601318E-1,-3.363037109E-1
8.064872231E0,1.207244873E0,6.838226318E-1,-3.586730957E-1
8.069938149E0,1.212036133E0,6.800842285E-1,-3.735809326E-1
8.075004067E0,1.204574585E0,6.976623535E-1,-3.767700195E-1
8.080039468E0,1.195526123E0,7.290954590E-1,-3.623962402E-1
8.085074868E0,1.197113037E0,7.722320557E-1,-3.357696533E-1
8.090140786E0,1.208831787E0,8.196411133E-1,-2.856903076E-1
8.095176186E0,1.221618652E0,8.968658447E-1,-2.159271240E-1
8.100242104E0,1.236526489E0,9.991455078E-1,-1.440124512E-1
8.105277505E0,1.272216797E0,1.105133057E0,-8.595275879E-2
8.110312905E0,1.314300537E0,1.228164673E0,-3.216552734E-2
8.115378823E0,1.365432739E0,1.368255615E0,3.547668457E-2
8.120414224E0,1.417098999E0,1.501937866E0,1.137695312E-1
8.125449624E0,1.455444336E0,1.630844116E0,1.931457520E-1
8.130515542E0,1.469833374E0,1.741622925E0,2.756958008E-1
8.135550942E0,1.456512451E0,1.826843262E0,3.337554932E-1
8.140586343E0,1.420822144E0,1.876388550E0,3.614501953E-1
8.145652261E0,1.364364624E0,1.869461060E0,3.582611084E-1
8.150687661E0,1.274353027E0,1.797027588E0,3.316192627E-1
8.155723061E0,1.155044556E0,1.660675049E0,2.932739258E-1
8.160788979E0,1.010696411E0,1.477981567E0,2.501373291E-1
8.165824380E0,8.556976318E-1,1.281967163E0,2.027282715E-1
8.170859780E0,7.055053711E-1,1.100875854E0,1.547851562E-1
8.175925698E0,5.739440918E-1,9.362945557E-1,1.057891846E-1
8.180961099E0,4.748687744E-1,7.988739014E-1,5.039978027E-2
8.185996499E0,4.157409668E-1,7.045898438E-1,3.524780273E-3
8.191062417E0,3.875122070E-1,6.497344971E-1,-4.067993164E-2
8.196097817E0,3.848571777E-1,6.183013916E-1,-8.862304688E-2
8.201133218E0,3.981781006E-1,6.002044678E-1,-1.509399414E-1
8.206199136E0,4.013671875E-1,5.842132568E-1,-2.249755859E-1
8.211234536E0,3.928375244E-1,5.836791992E-1,-3.038024902E-1
8.216269936E0,3.624877930E-1,6.060485840E-1,-3.767700195E-1
8.221335854E0,3.188018799E-1,6.246948242E-1,-4.209899902E-1
8.226371255E0,2.772674561E-1,6.289520264E-1,-4.236450195E-1
8.231406655E0,2.314605713E-1,6.390838623E-1,-4.060668945E-1
8.236472573E0,1.760559082E-1,6.752929688E-1,-3.831634521E-1
8.241507974E0,1.110839844E-1,7.312316895E-1,-3.645324707E-1
8.246543374E0,4.876708984E-2,8.068542480E-1,-3.549346924E-1
8.251609292E0,8.239746094E-4,8.968658447E-1,-3.474884033E-1
8.256644692E0,-2.047729492E-2,9.565277100E-1,-3.341674805E-1
8.261710610E0,-1.728820801E-2,9.666442871E-1,-3.070068359E-1
8.266746011E0,-5.035400391E-3,9.868927002E-1,-2.569427490E-1
8.271781411E0,6.683349609E-3,1.042816162E0,-1.706542969E-1
8.276847329E0,2.426147461E-2,1.066253662E0,-5.613708496E-2
8.281852212E0,4.983520508E-2,1.030029297E0,6.584167480E-2
8.286918130E0,6.900024414E-2,9.661102295E-1,1.771545410E-1
8.291984048E0,8.711242676E-2,8.777008057E-1,2.597198486E-1
8.297019448E0,9.350585938E-2,8.276367188E-1,3.023223877E-1
8.302054849E0,5.888366699E-2,8.324279785E-1,3.055267334E-1
8.307120767E0,-2.473449707E-2,8.649139404E-1,2.842254639E-1
8.312156167E0,-1.413879395E-1,9.149780273E-1,2.613220215E-1
8.317191567E0,-2.947845459E-1,1.019912720E0,2.591857910E-1
8.322257485E0,-4.870605469E-1,1.230300903E0,2.740936279E-1
8.327262368E0,-7.352752686E-1,1.518447876E0,3.087158203E-1
8.332297768E0,-1.002120972E0,1.781036377E0,4.003295898E-1
8.337363686E0,-1.167236328E0,1.874786377E0,5.606536865E-1
8.342429604E0,-1.196533203E0,1.831649780E0,7.795715332E-1
8.347495522E0,-1.148590088E0,1.716598511E0,1.017654419E0
8.352530923E0,-1.067626953E0,1.508865356E0,1.205673218E0
8.357566323E0,-9.600372314E-1,1.223907471E0,1.307937622E0
8.362632241E0,-8.183593750E-1,9.794311523E-1,1.363327026E0
8.367667642E0,-6.505889893E-1,8.302917480E-1,1.412338257E0
8.372703042E0,-4.529724121E-1,7.962036133E-1,1.428314209E0
8.377768960E0,-2.564392090E-1,9.107208252E-1,1.413406372E0
8.382773843E0,-9.025573730E-2,1.107788086E0,1.381439209E0
8.387839761E0,3.225708008E-2,1.346420288E0,1.337768555E0
8.392905679E0,1.030883789E-1,1.598876953E0,1.274917603E0
8.397941079E0,1.387786865E-1,1.677719116E0,1.150817871E0
8.402976479E0,1.515655518E-1,1.474777222E0,9.659881592E-1
8.408042397E0,8.232116699E-2,1.159454346E0,7.630615234E-1
8.413077798E0,-1.243438721E-1,9.160461426E-1,6.096649170E-1
8.418113198E0,-4.082336426E-1,7.003326416E-1,5.760955811E-1
8.423179116E0,-6.367340088E-1,4.936676025E-1,6.900787354E-1
8.428214517E0,-7.416687012E-1,4.404144287E-1,8.413543701E-1
8.433249917E0,-7.336730957E-1,5.192413330E-1,8.621215820E-1
8.438315835E0,-6.702880859E-1,6.294860840E-1,7.508087158E-1
8.443351235E0,-5.722808838E-1,7.200317383E-1,5.862274170E-1
8.448386636E0,-4.252777100E-1,7.621154785E-1,4.461364746E-1
8.453452554E0,-2.084960938E-1,7.029876709E-1,3.145751953E-1
8.458487954E0,5.834960938E-2,5.693054199E-1,1.723632812E-1
8.463553872E0,3.140106201E-1,4.302825928E-1,5.519104004E-2
8.468589272E0,5.036315918E-1,3.216247559E-1,-2.311706543E-2
8.473624673E0,6.133575439E-1,2.465362549E-1,-8.862304688E-2
8.478690591E0,6.431884766E-1,1.948699951E-1,-1.567993164E-1
8.483725991E0,6.106872559E-1,1.645050049E-1,-2.244415283E-1
8.488761392E0,5.398559570E-1,1.629028320E-1,-2.803649902E-1
8.493827310E0,4.466400146E-1,1.815490723E-1,-3.267059326E-1
8.498832192E0,3.395843506E-1,2.156372070E-1,-3.682556152E-1
8.503898110E0,2.192077637E-1,2.475891113E-1,-4.124603271E-1
8.508933511E0,1.025543213E-1,2.364044189E-1,-4.524078369E-1
8.513999429E0,6.683349609E-3,1.852722168E-1,-4.998168945E-1
8.519034829E0,-4.817199707E-2,1.107025146E-1,-5.509490967E-1
8.524100747E0,-5.670166016E-2,2.389526367E-2,-5.882263184E-1
8.529136147E0,-2.420043945E-2,-6.080627441E-2,-5.951538086E-1
8.534171548E0,4.344177246E-2,-1.369628906E-1,-5.765075684E-1
8.539237466E0,1.318511963E-1,-1.758422852E-1,-5.482788086E-1
8.544272866E0,2.341156006E-1,-1.646575928E-1,-5.152587891E-1
8.549308267E0,3.433074951E-1,-9.968566895E-2,-4.593353271E-1
8.554374185E0,4.541015625E-1,1.750183105E-2,-3.906250000E-1
8.559379067E0,5.558319092E-1,1.570434570E-1,-3.149871826E-1
8.564444985E0,6.469116211E-1,3.051147461E-1,-2.377624512E-1
8.569480386E0,7.299957275E-1,4.436035156E-1,-1.605224609E-1
8.574515786E0,8.045654297E-1,5.629119873E-1,-8.702087402E-2
8.579551186E0,8.652954102E-1,6.614532471E-1,-6.072998047E-3
8.584586587E0,9.212188721E-1,7.402801514E-1,7.916259766E-2
8.589621987E0,9.680938721E-1,8.004608154E-1,1.665039062E-1
8.594687905E0,1.002716064E0,8.563995361E-1,2.538604736E-1
8.599723306E0,1.031463623E0,8.931427002E-1,3.460083008E-1
8.604789224E0,1.047988892E0,9.229736328E-1,4.365539551E-1
8.609855142E0,1.049575806E0,9.464111328E-1,5.207061768E-1
8.614921060E0,1.036804199E0,9.719696045E-1,5.958099365E-1
8.619956460E0,1.012832642E0,1.005004883E0,6.634521484E-1
8.625022378E0,9.776763916E-1,1.038024902E0,7.241668701E-1
8.630057778E0,9.340057373E-1,1.039611816E0,7.774353027E-1
8.635093179E0,8.839263916E-1,1.009262085E0,8.280334473E-1
8.640159097E0,8.285369873E-1,9.538574219E-1,8.674468994E-1
8.645194497E0,7.672882080E-1,8.777008057E-1,8.866271973E-1
8.650229897E0,7.081604004E-1,7.850189209E-1,8.951416016E-1
8.655295815E0,6.458435059E-1,6.997985840E-1,8.924865723E-1
8.660331216E0,5.771331787E-1,6.380157471E-1,8.765106201E-1
8.665366616E0,5.025634766E-1,5.740966797E-1,8.525390625E-1
8.670432534E0,4.232025146E-1,5.144500732E-1,8.205871582E-1
8.675467935E0,3.523712158E-1,4.563903809E-1,7.864837646E-1
8.680503335E0,2.980346680E-1,3.839416504E-1,7.534637451E-1
8.685569253E0,2.564849854E-1,2.971343994E-1,7.193756104E-1
8.690604653E0,2.181396484E-1,2.124481201E-1,6.847534180E-1
8.695670571E0,1.856536865E-1,1.394653320E-1,6.533355713E-1
8.700705972E0,1.430358887E-1,7.182312012E-2,6.069946289E-1
8.705741372E0,9.083557129E-2,1.536560059E-2,5.558624268E-1
8.710807290E0,3.332519531E-2,-1.658630371E-2,5.116577148E-1
8.715812173E0,-3.005981445E-2,-7.003784180E-3,4.642486572E-1
8.720878091E0,-9.611511230E-2,4.093933105E-2,4.184417725E-1
8.725944009E0,-1.562957764E-1,1.053771973E-1,3.838195801E-1
8.730979409E0,-2.340698242E-1,1.927337646E-1,3.518676758E-1
8.736014810E0,-3.176879883E-1,2.891387939E-1,3.257598877E-1
8.741080727E0,-3.709564209E-1,3.663787842E-1,2.938079834E-1
8.746116128E0,-3.805389404E-1,3.999328613E-1,2.533264160E-1
8.751151528E0,-3.634948730E-1,4.073791504E-1,1.958007812E-1
8.756217446E0,-3.363342285E-1,3.866119385E-1,1.345520020E-1
8.761252847E0,-3.128967285E-1,3.258972168E-1,7.489013672E-2
8.766288247E0,-3.059692383E-1,2.156372070E-1,1.310729980E-2
8.771354165E0,-3.192901611E-1,8.460998535E-2,-4.441833496E-2
8.776389565E0,-3.634948730E-1,-3.630065918E-2,-8.969116211E-2
8.781424966E0,-4.471130371E-1,-1.247100830E-1,-1.147155762E-1
8.786490884E0,-5.648345947E-1,-1.513519287E-1,-1.088562012E-1
8.791526284E0,-6.937255859E-1,-9.489440918E-2,-4.228210449E-2
8.796561685E0,-8.407287598E-1,2.336120605E-2,6.051635742E-2
8.801627602E0,-9.967956543E-1,1.581115723E-1,1.691741943E-1
8.806663003E0,-1.166168213E0,3.088531494E-1,2.682342529E-1
8.811698403E0,-1.329162598E0,4.249572754E-1,3.539886475E-1
8.816733804E0,-1.484146118E0,5.016632080E-1,4.525299072E-1
8.821799722E0,-1.647140503E0,5.272216797E-1,5.936737061E-1
8.826835122E0,-1.764846802E0,4.819488525E-1,7.657165527E-1
8.831901040E0,-1.795745850E0,3.477325439E-1,8.978118896E-1
8.836936440E0,-1.801071167E0,1.778259277E-1,9.590606689E-1
8.842002358E0,-1.861251831E0,8.993530273E-2,9.707794189E-1
8.847037759E0,-1.962982178E0,6.970214844E-2,9.638519287E-1
8.852073159E0,-2.072708130E0,4.040527344E-2,9.633178711E-1
8.857139077E0,-2.164855957E0,-8.605957031E-3,9.649200439E-1
8.862174477E0,-2.193084717E0,-1.007537842E-1,9.627990723E-1
8.867209878E0,-2.145141602E0,-2.365722656E-1,9.350891113E-1
8.872275796E0,-2.038085938E0,-3.287200928E-1,8.754425049E-1
8.877311196E0,-1.895339966E0,-3.590698242E-1,7.982025146E-1
8.882346597E0,-1.739822388E0,-4.102020264E-1,7.279052734E-1
8.887412515E0,-1.588546753E0,-5.007476807E-1,6.735687256E-1
8.892447915E0,-1.448471069E0,-5.731964111E-1,6.267089844E-1
8.897483315E0,-1.332351685E0,-6.136779785E-1,5.862274170E-1
8.902549233E0,-1.262039185E0,-6.376342773E-1,5.489349365E-1
8.907584634E0,-1.238601685E0,-5.987548828E-1,5.500030518E-1
8.912620034E0,-1.197067261E0,-5.012817383E-1,6.016693115E-1
8.917685952E0,-1.112899780E0,-3.910369873E-1,6.607971191E-1
8.922721352E0,-1.006912231E0,-3.361663818E-1,6.959381104E-1
8.927756753E0,-9.142303467E-1,-3.771820068E-1,6.884918213E-1
8.932822671E0,-8.433990479E-1,-4.288482666E-1,6.325531006E-1
8.937858071E0,-8.002471924E-1,-4.799804688E-1,5.207061768E-1
8.942893472E0,-7.890625000E-1,-6.051483154E-1,3.699798584E-1
8.947959390E0,-7.480468750E-1,-6.909027100E-1,2.282867432E-1
8.952994790E0,-6.484527588E-1,-6.488189697E-1,1.638488770E-1
8.958030190E0,-4.939880371E-1,-5.172729492E-1,2.250976562E-1
8.963096108E0,-3.017120361E-1,-3.404388428E-1,3.438720703E-1
8.968131509E0,-9.718322754E-2,-1.417541504E-1,4.259033203E-1
8.973197427E0,7.432556152E-2,6.703186035E-2,4.615783691E-1
8.978232827E0,2.000274658E-1,2.715606689E-1,4.748992920E-1
8.983268227E0,2.932434082E-1,4.249572754E-1,4.754333496E-1
8.988334145E0,3.544921875E-1,4.904785156E-1,4.546661377E-1
8.993369546E0,3.986968994E-1,5.112457275E-1,4.157867432E-1
8.998404946E0,4.365234375E-1,5.224304199E-1,3.673095703E-1
9.003470864E0,4.812622070E-1,5.266876221E-1,3.252258301E-1
9.008506265E0,5.361175537E-1,5.208282471E-1,2.847442627E-1
9.013541665E0,5.968475342E-1,5.091094971E-1,2.394714355E-1
9.018607583E0,6.596984863E-1,4.878082275E-1,1.968688965E-1
9.023642983E0,7.177429199E-1,4.574584961E-1,1.601104736E-1
9.028678384E0,7.726135254E-1,4.276275635E-1,1.292266846E-1
9.033744302E0,8.189544678E-1,3.924713135E-1,9.779357910E-2
9.038779702E0,8.578338623E-1,3.551788330E-1,6.584167480E-2
9.043815102E0,8.844604492E-1,3.274841309E-1,3.335571289E-2
9.048881020E0,9.047088623E-1,3.024597168E-1,8.544921875E-4
9.053916421E0,9.206848145E-1,2.960662842E-1,-3.109741211E-2
9.058951821E0,9.276123047E-1,3.003234863E-1,-6.306457520E-2
9.064017739E0,9.291992188E-1,3.168334961E-1,-8.755493164E-2
9.069053140E0,9.297332764E-1,3.386688232E-1,-1.168518066E-1
9.074088540E0,9.201507568E-1,3.674316406E-1,-1.424255371E-1
9.079123940E0,9.105682373E-1,4.036560059E-1,-1.722412109E-1
9.084189858E0,8.983154297E-1,4.425354004E-1,-2.004699707E-1
9.089255776E0,8.844604492E-1,4.835510254E-1,-2.249755859E-1
9.094291177E0,8.716735840E-1,5.203094482E-1,-2.505493164E-1
9.099326577E0,8.604888916E-1,5.533294678E-1,-2.739868164E-1
9.104392495E0,8.546295166E-1,5.682373047E-1,-2.931518555E-1
9.109427895E0,8.556976318E-1,5.724945068E-1,-3.128662109E-1
9.114463296E0,8.572998047E-1,5.714416504E-1,-3.309783936E-1
9.119529214E0,8.647613525E-1,5.751647949E-1,-3.480224609E-1
9.124564614E0,8.818054199E-1,5.783538818E-1,-3.618621826E-1
9.129600015E0,9.020385742E-1,5.762329102E-1,-3.799743652E-1
9.134635415E0,9.260101318E-1,5.724945068E-1,-3.986206055E-1
9.139701333E0,9.505157471E-1,5.719604492E-1,-4.236450195E-1
9.144736733E0,9.760742188E-1,5.751647949E-1,-4.497528076E-1
9.149802651E0,1.002716064E0,5.820922852E-1,-4.737091064E-1
9.154838052E0,1.021881104E0,5.895385742E-1,-4.971466064E-1
9.159873452E0,1.036804199E0,5.986022949E-1,-5.163269043E-1
9.164939370E0,1.045318604E0,6.215057373E-1,-5.333709717E-1
9.169974770E0,1.042648315E0,6.587829590E-1,-5.445556641E-1
9.175010171E0,1.025085449E0,7.067260742E-1,-5.461578369E-1
9.180076089E0,9.973754883E-1,7.450714111E-1,-5.445556641E-1
9.185111489E0,9.643554688E-1,7.807617188E-1,-5.355072021E-1
9.190177407E0,9.281463623E-1,8.404083252E-1,-5.168609619E-1
9.195212808E0,8.849945068E-1,9.538574219E-1,-4.811706543E-1
9.200248208E0,8.530426025E-1,1.053466797E0,-4.364318848E-1
9.205314126E0,8.450469971E-1,1.118988037E0,-3.970184326E-1
9.210349526E0,8.514404297E-1,1.142944336E0,-3.618621826E-1
9.215384927E0,8.690185547E-1,1.143478394E0,-3.309783936E-1
9.220450845E0,8.908538818E-1,1.147216797E0,-2.984771729E-1
9.225486245E0,9.031066895E-1,1.146148682E0,-2.659912109E-1
9.230521645E0,9.095001221E-1,1.142410278E0,-2.404174805E-1
9.235587563E0,9.116210938E-1,1.147216797E0,-2.185821533E-1
9.240622964E0,9.041748047E-1,1.145614624E0,-2.036743164E-1
9.245658364E0,8.961791992E-1,1.134429932E0,-1.914215088E-1
9.250693765E0,8.807373047E-1,1.123245239E0,-1.818389893E-1
9.255759683E0,8.583679199E-1,1.118988037E0,-1.717071533E-1
9.260795083E0,8.306732178E-1,1.119506836E0,-1.594696045E-1
9.265861001E0,7.912597656E-1,1.124313354E0,-1.488037109E-1
9.270896401E0,7.427825928E-1,1.132293701E0,-1.349639893E-1
9.275931802E0,6.804656982E-1,1.138687134E0,-1.157836914E-1
9.280997720E0,6.005706787E-1,1.158401489E0,-9.181213379E-2
9.286033120E0,5.068206787E-1,1.188751221E0,-6.678771973E-2
9.291068520E0,4.098815918E-1,1.197814941E0,-3.163146973E-2
9.296134438E0,3.385162354E-1,1.166381836E0,4.058837891E-3
9.301169839E0,3.028259277E-1,1.112060547E0,2.536010742E-2
9.306205239E0,2.985687256E-1,1.056137085E0,2.908325195E-2
9.311271157E0,3.140106201E-1,9.964752197E-1,1.257324219E-2
9.316306558E0,3.401184082E-1,9.352264404E-1,-2.470397949E-2
9.321372476E0,3.726043701E-1,9.011383057E-1,-7.637023926E-2
9.326407876E0,4.109497070E-1,9.000701904E-1,-1.243133545E-1
9.331443276E0,4.514312744E-1,9.245758057E-1,-1.461486816E-1
9.336478677E0,4.956359863E-1,9.426727295E-1,-1.530761719E-1
9.341544595E0,5.403900146E-1,9.506683350E-1,-1.509399414E-1
9.346579995E0,5.760650635E-1,9.490661621E-1,-1.477508545E-1
9.351615395E0,5.989685059E-1,9.373474121E-1,-1.472167969E-1
9.356681313E0,5.968475342E-1,9.277648926E-1,-1.429443359E-1
9.361716714E0,5.675506592E-1,9.266967773E-1,-1.376190186E-1
9.366782632E0,5.073547363E-1,9.453430176E-1,-1.365661621E-1
9.371818032E0,4.327850342E-1,9.714355469E-1,-1.301727295E-1
9.376853433E0,3.411865234E-1,9.996643066E-1,-1.205749512E-1
9.381919351E0,2.426452637E-1,1.032165527E0,-1.104583740E-1
9.386954751E0,1.483612061E-1,1.051330566E0,-1.045989990E-1
9.391990151E0,6.953430176E-2,1.049743652E0,-9.980773926E-2
9.397056069E0,-2.365112305E-3,1.032699585E0,-8.329772949E-2
9.402091470E0,-6.895446777E-2,1.014587402E0,-5.400085449E-2
9.407126870E0,-1.184844971E-1,1.013519287E0,-9.796142578E-3
9.412192788E0,-1.547088623E-1,1.016189575E0,2.803039551E-2
9.417228188E0,-1.845245361E-1,1.027374268E0,6.051635742E-2
9.422263589E0,-2.244720459E-1,1.042282104E0,8.235168457E-2
9.427329507E0,-2.638854980E-1,1.058792114E0,8.981323242E-2
9.432364907E0,-3.059692383E-1,1.104064941E0,8.395385742E-2
9.437400308E0,-3.523101807E-1,1.151473999E0,6.849670410E-2
9.442466226E0,-4.071655273E-1,1.178634644E0,3.707885742E-2
9.447501626E0,-4.742736816E-1,1.207397461E0,-6.072998047E-3
9.452537026E0,-5.626983643E-1,1.250534058E0,-5.613708496E-2
9.457602944E0,-6.788177490E-1,1.255340576E0,-1.040649414E-1
9.462638345E0,-8.183593750E-1,1.181823730E0,-1.424255371E-1
9.467673745E0,-9.781494141E-1,1.020980835E0,-1.621246338E-1
9.472739663E0,-1.142730713E0,7.557220459E-1,-1.536102295E-1
9.477775063E0,-1.279617310E0,4.052581787E-1,-9.501647949E-2
9.482840981E0,-1.363250732E0,6.330871582E-2,-4.016113281E-2
9.487876382E0,-1.383483887E0,-1.636047363E-1,-4.441833496E-2
9.492911782E0,-1.337677002E0,-2.456207275E-1,-4.760742188E-2
9.497977700E0,-1.241806030E0,-1.944885254E-1,-2.098083496E-2
9.503013101E0,-1.041000366E0,-1.593322754E-1,1.201629639E-1
9.508048501E0,-9.536437988E-1,2.896728516E-1,3.278961182E-1
9.513114419E0,-1.019699097E0,1.080627441E0,4.914093018E-1
9.518119302E0,-9.664306641E-1,1.528045654E0,6.368255615E-1
9.523185220E0,-7.437896729E-1,1.546157837E0,7.470703125E-1
9.528251138E0,-4.529724121E-1,1.334701538E0,8.189849854E-1
9.533286538E0,-1.818695068E-1,1.136032104E0,8.802337646E-1
9.538321938E0,7.751464844E-3,1.006591797E0,9.340362549E-1
9.543387856E0,1.078796387E-1,9.464111328E-1,9.185791016E-1
9.548423257E0,1.504974365E-1,9.895477295E-1,8.291015625E-1
9.553489175E0,1.584930420E-1,1.095016479E0,7.177886963E-1
9.558524575E0,1.462402344E-1,1.154663086E0,6.155090332E-1
9.563559976E0,1.206665039E-1,1.147216797E0,5.340270996E-1
9.568595376E0,6.101989746E-2,1.145080566E0,4.871520996E-1
9.573661294E0,-2.101135254E-2,1.088623047E0,4.988708496E-1
9.578696694E0,-1.152801514E-1,9.698486328E-1,5.611877441E-1
9.583732095E0,-1.925201416E-1,8.574523926E-1,6.197814941E-1
9.588798013E0,-2.117004395E-1,8.111267090E-1,5.590515137E-1
9.593833413E0,-1.861267090E-1,7.647857666E-1,4.200439453E-1
9.598899331E0,-1.264648438E-1,6.566619873E-1,2.948760986E-1
9.603934731E0,-1.515197754E-2,4.686431885E-1,2.005920410E-1
9.608970132E0,1.520996094E-1,2.673034668E-1,1.239013672E-1
9.614005532E0,3.587493896E-1,1.245574951E-1,5.572509766E-2
9.619040933E0,5.808563232E-1,7.342529297E-2,-1.777648926E-2
9.624106851E0,7.795410156E-1,1.325531006E-1,-8.595275879E-2
9.629172768E0,9.121551514E-1,2.433319092E-1,-1.307067871E-1
9.634208169E0,9.499816895E-1,3.365478516E-1,-1.589355469E-1
9.639243569E0,8.940582275E-1,3.743591309E-1,-1.924896240E-1
9.644309487E0,7.523651123E-1,4.143066406E-1,-2.404174805E-1
9.649344888E0,5.403900146E-1,4.782257080E-1,-2.974090576E-1
9.654380288E0,2.975006104E-1,5.213623047E-1,-3.448181152E-1
9.659446206E0,6.953430176E-2,5.490570068E-1,-3.741149902E-1
9.664481606E0,-1.120910645E-1,5.687713623E-1,-3.634643555E-1
9.669517007E0,-2.212829590E-1,5.906066895E-1,-3.187255859E-1
9.674552407E0,-2.532348633E-1,5.943450928E-1,-2.548065186E-1
9.679618325E0,-2.266082764E-1,5.852813721E-1,-1.850280762E-1
9.684684243E0,-1.568298340E-1,5.682373047E-1,-1.205749512E-1
9.689719643E0,-5.563354492E-2,5.458679199E-1,-6.092834473E-2
9.694755044E0,6.474304199E-2,5.240325928E-1,-5.538940430E-3
9.699820962E0,2.021636963E-1,5.133819580E-1,4.187011719E-2
9.704825845E0,3.417053223E-1,5.181732178E-1,8.874511719E-2
9.709891763E0,4.722137451E-1,5.240325928E-1,1.334838867E-1
9.714957681E0,5.920562744E-1,5.288238525E-1,1.776885986E-1
9.719993081E0,6.921844482E-1,5.362854004E-1,2.149810791E-1
9.725028481E0,7.790069580E-1,5.442657471E-1,2.506561279E-1
9.730063882E0,8.572998047E-1,5.533294678E-1,2.911376953E-1
9.735129800E0,9.265441895E-1,5.762329102E-1,3.353576660E-1
9.740165200E0,9.702148438E-1,6.225738525E-1,3.811645508E-1
9.745200601E0,9.915161133E-1,6.811523438E-1,4.370880127E-1
9.750266518E0,9.973754883E-1,7.546539307E-1,5.031280518E-1
9.755301919E0,9.984436035E-1,8.409423828E-1,5.787658691E-1
9.760367837E0,1.007507324E0,9.293670654E-1,6.586608887E-1
9.765403237E0,1.024551392E0,9.986114502E-1,7.342987061E-1
9.770438638E0,1.043716431E0,1.043884277E0,8.035430908E-1
9.775504556E0,1.058105469E0,1.074234009E0,8.546752930E-1
9.780539956E0,1.067153931E0,1.087554932E0,8.733062744E-1
9.785575356E0,1.069824219E0,1.050277710E0,8.701171875E-1
9.790641274E0,1.058105469E0,9.607849121E-1,8.615875244E-1
9.795707192E0,1.026138306E0,8.329620361E-1,8.392181396E-1
9.800742593E0,9.776763916E-1,7.040557861E-1,7.944793701E-1
9.805777993E0,9.132232666E-1,5.996704102E-1,7.396240234E-1
9.810813393E0,8.322601318E-1,5.378723145E-1,6.810302734E-1
9.815848794E0,7.369232178E-1,5.384063721E-1,6.256408691E-1
9.820914712E0,6.320037842E-1,5.794219971E-1,5.809020996E-1
9.825950112E0,5.238647461E-1,6.284332275E-1,5.420074463E-1
9.830985513E0,4.216003418E-1,6.859436035E-1,5.132446289E-1
9.836051431E0,3.299865723E-1,7.381439209E-1,4.828948975E-1
9.841086831E0,2.479705811E-1,7.621154785E-1,4.488067627E-1
9.846122231E0,1.755371094E-1,7.557220459E-1,4.211120605E-1
9.851188149E0,1.116180420E-1,7.115173340E-1,4.029998779E-1
9.856223550E0,5.355834961E-2,6.380157471E-1,3.939361572E-1
9.861289468E0,2.899169922E-4,5.559844971E-1,3.822174072E-1
9.866324868E0,-3.219604492E-2,4.702301025E-1,3.646392822E-1
9.871360268E0,-4.924011230E-2,3.823547363E-1,3.465423584E-1
9.876426186E0,-5.137634277E-2,2.939300537E-1,3.220367432E-1
9.881461587E0,-3.645324707E-2,2.390747070E-1,3.055267334E-1
9.886496987E0,-1.515197754E-2,2.364044189E-1,2.874145508E-1
9.891562905E0,2.960205078E-3,2.816772461E-1,2.591857910E-1
9.896598306E0,6.683349609E-3,3.647766113E-1,2.234954834E-1
9.901633706E0,-2.441406250E-4,4.830169678E-1,1.862182617E-1
9.906699624E0,-1.301574707E-2,6.017913818E-1,1.654357910E-1
9.911735024E0,-1.834106445E-2,6.800842285E-1,1.468048096E-1
9.916800942E0,6.149291992E-3,6.896820068E-1,1.404113770E-1
9.921836343E0,4.344177246E-2,6.145782471E-1,1.452026367E-1
9.926871743E0,5.674743652E-2,4.963378906E-1,1.627807617E-1
9.931907143E0,4.450988770E-2,3.594512939E-1,1.862182617E-1
9.936973061E0,1.786804199E-2,1.858062744E-1,2.032623291E-1
9.942008462E0,-2.154541016E-2,-1.499938965E-2,2.245635986E-1
9.947074380E0,-6.947326660E-2,-1.407012939E-1,2.639770508E-1
9.952079263E0,-1.211395264E-1,-1.838378906E-1,3.257598877E-1
9.957145181E0,-1.728057861E-1,-1.838378906E-1,4.093933105E-1
9.962211099E0,-2.244720459E-1,-1.358947754E-1,5.036621094E-1
9.967246499E0,-2.761383057E-1,-6.103515625E-4,6.128540039E-1
9.972281899E0,-3.459167480E-1,2.151031494E-1,7.321624756E-1
9.977347817E0,-4.359283447E-1,4.712982178E-1,8.413543701E-1
9.982383218E0,-5.488433838E-1,7.493286133E-1,9.500122070E-1
9.987418618E0,-7.033081055E-1,1.022048950E0,1.043746948E0
9.992484536E0,-9.115753174E-1,1.248947144E0,1.074645996E0
9.997519936E0,-1.184814453E0,1.439086914E0,1.028305054E0
1.000255534E1,-1.521438599E0,1.669723511E0,9.569396973E-1
1.000762126E1,-1.887893677E0,1.942428589E0,9.004821777E-1
1.001265666E1,-2.238891602E0,2.157608032E0,8.141937256E-1
1.001769206E1,-2.582977295E0,2.260940552E0,6.511993408E-1
1.002275797E1,-2.878585815E0,2.163467407E0,4.903411865E-1
1.002779337E1,-3.064468384E0,1.875854492E0,4.157867432E-1
1.003282877E1,-3.094833374E0,1.544021606E0,4.509277344E-1
1.003789469E1,-2.922790527E0,1.027374268E0,5.446777344E-1
1.004293009E1,-2.674591064E0,5.304260254E-1,6.203155518E-1
1.004796549E1,-2.507339478E0,2.220306396E-1,6.346893311E-1
1.005300089E1,-2.419448853E0,5.265808105E-2,6.123199463E-1
1.005806681E1,-2.355010986E0,-1.002197266E-1,5.760955811E-1
1.006313273E1,-2.237289429E0,-3.106079102E-1,5.617218018E-1
1.006816813E1,-2.062591553E0,-5.193939209E-1,6.059265137E-1
1.007320353E1,-1.844207764E0,-6.493530273E-1,7.257690430E-1
1.007823893E1,-1.590148926E0,-6.445617676E-1,8.940887451E-1
1.008330485E1,-1.328628540E0,-4.757232666E-1,1.074111938E0
1.008834025E1,-1.092666626E0,-2.243194580E-1,1.236038208E0
1.009340617E1,-8.961181641E-1,6.277465820E-2,1.362792969E0
1.009844157E1,-7.555084229E-1,3.370819092E-1,1.451217651E0
1.010347697E1,-6.665649414E-1,5.533294678E-1,1.517257690E0
1.010854289E1,-6.058349609E-1,7.067260742E-1,1.541229248E0
1.011357829E1,-5.589752197E-1,7.924804688E-1,1.506072998E0
1.011861369E1,-4.977111816E-1,7.994079590E-1,1.418197632E0
1.012367960E1,-4.156951904E-1,7.386779785E-1,1.304748535E0
1.012871500E1,-3.203430176E-1,6.055297852E-1,1.206207275E0
1.013375040E1,-2.196807861E-1,4.420013428E-1,1.142288208E0
1.013881632E1,-8.226013184E-2,3.232269287E-1,1.087432861E0
1.014385172E1,8.285522461E-2,2.129669189E-1,1.033096313E0
1.014888712E1,2.671508789E-1,1.469268799E-1,9.798431396E-1
