"Time (s)","Gyroscope x (rad/s)","Gyroscope y (rad/s)","Gyroscope z (rad/s)"
1.433945860E-1,-1.160609815E-2,1.420219894E-2,-1.985253533E-3
1.458032320E-1,-7.941014133E-3,1.542389300E-2,-1.985253533E-3
1.482110450E-1,-7.941014133E-3,1.175880991E-2,-5.650337320E-3
1.506181280E-1,-5.497625098E-3,1.786728203E-2,-4.428642802E-3
1.530259410E-1,-7.941014133E-3,1.908897609E-2,-4.428642802E-3
1.554345860E-1,-1.282779220E-2,1.786728203E-2,-4.428642802E-3
1.578423990E-1,-9.162709117E-3,1.908897609E-2,-6.872031838E-3
1.602494820E-1,-7.941014133E-3,1.908897609E-2,-8.093725890E-3
1.626572950E-1,-1.038440317E-2,1.908897609E-2,-5.650337320E-3
1.650659410E-1,-5.497625098E-3,2.031067200E-2,-5.650337320E-3
1.674737530E-1,-5.497625098E-3,1.542389300E-2,-5.650337320E-3
1.698808360E-1,-4.275931045E-3,1.298050396E-2,-4.428642802E-3
1.722886490E-1,-1.832541777E-3,1.298050396E-2,-1.985253533E-3
1.746972950E-1,-3.054236295E-3,9.315420873E-3,-1.985253533E-3
1.771051070E-1,6.108472589E-4,8.093725890E-3,-1.985253533E-3
1.795121390E-1,4.275931045E-3,4.428642802E-3,-1.985253533E-3
1.819200030E-1,6.108472589E-4,4.428642802E-3,-1.985253533E-3
1.843286490E-1,6.108472589E-4,4.428642802E-3,-1.985253533E-3
1.867364610E-1,6.108472589E-4,1.985253533E-3,-1.985253533E-3
1.891435450E-1,-6.108472589E-4,3.206948051E-3,1.679830020E-3
1.915513570E-1,5.497625098E-3,4.428642802E-3,4.581354442E-4
1.939600030E-1,6.719320081E-3,4.428642802E-3,1.679830020E-3
1.963678160E-1,1.832541777E-3,-4.581354442E-4,4.123218823E-3
1.987748990E-1,5.497625098E-3,-4.581354442E-4,4.123218823E-3
2.011827110E-1,1.832541777E-3,-1.679830020E-3,5.344913341E-3
2.035913570E-1,1.832541777E-3,-2.901524538E-3,5.344913341E-3
2.059991700E-1,6.719320081E-3,-2.901524538E-3,4.123218823E-3
2.084062010E-1,9.162709117E-3,-2.901524538E-3,6.566607859E-3
2.108140660E-1,6.719320081E-3,-4.123218823E-3,9.009997360E-3
2.132227110E-1,1.160609815E-2,-5.344913341E-3,7.788302377E-3
2.156305240E-1,1.282779220E-2,-4.581354442E-4,1.023169141E-2
2.180376070E-1,1.527118124E-2,-4.581354442E-4,9.009997360E-3
2.204454200E-1,1.893626526E-2,-4.581354442E-4,9.009997360E-3
2.228540660E-1,2.382304333E-2,7.635590737E-4,9.009997360E-3
2.252618780E-1,2.382304333E-2,-1.679830020E-3,6.566607859E-3
2.276689610E-1,2.382304333E-2,-1.679830020E-3,7.788302377E-3
2.300767740E-1,2.626643144E-2,-4.581354442E-4,7.788302377E-3
2.324853680E-1,2.993151546E-2,7.635590737E-4,6.566607859E-3
2.348932320E-1,2.626643144E-2,7.635590737E-4,9.009997360E-3
2.373002110E-1,2.626643144E-2,1.985253533E-3,9.009997360E-3
2.397081280E-1,2.748812735E-2,3.206948051E-3,7.788302377E-3
2.421167740E-1,2.626643144E-2,4.428642802E-3,9.009997360E-3
2.445245860E-1,2.626643144E-2,4.428642802E-3,6.566607859E-3
2.469316180E-1,2.626643144E-2,6.872031838E-3,7.788302377E-3
2.493394820E-1,2.748812735E-2,6.872031838E-3,1.023169141E-2
2.517481280E-1,2.260134928E-2,1.985253533E-3,7.788302377E-3
2.541559410E-1,2.260134928E-2,-4.581354442E-4,1.023169141E-2
2.565629720E-1,2.137965336E-2,-4.581354442E-4,1.023169141E-2
2.589708360E-1,1.649287529E-2,-1.679830020E-3,1.267508045E-2
2.613794820E-1,1.282779220E-2,-2.901524538E-3,1.145338640E-2
2.637872950E-1,1.771457121E-2,-6.566607859E-3,1.023169141E-2
2.661943260E-1,1.404948719E-2,-6.566607859E-3,1.511846948E-2
2.686021910E-1,1.282779220E-2,-9.009997360E-3,1.145338640E-2
2.710108360E-1,9.162709117E-3,-9.009997360E-3,1.267508045E-2
2.734186490E-1,6.719320081E-3,-6.566607859E-3,1.511846948E-2
2.758256800E-1,7.941014133E-3,-6.566607859E-3,1.511846948E-2
2.782335450E-1,6.719320081E-3,-5.344913341E-3,1.511846948E-2
2.806421910E-1,3.054236295E-3,-4.123218823E-3,1.756185852E-2
2.830500030E-1,1.832541777E-3,-5.344913341E-3,1.634016447E-2
2.854570340E-1,1.832541777E-3,-4.581354442E-4,1.511846948E-2
2.878648990E-1,-3.054236295E-3,-4.581354442E-4,1.878355257E-2
2.902735450E-1,-6.108472589E-4,4.428642802E-3,2.122694254E-2
2.926813570E-1,-3.054236295E-3,5.650337320E-3,2.000524849E-2
2.950883890E-1,-3.054236295E-3,9.315420873E-3,2.000524849E-2
2.974962530E-1,6.108472589E-4,1.664558798E-2,2.244863659E-2
2.999048990E-1,1.832541777E-3,1.786728203E-2,2.367033064E-2
3.023127110E-1,6.108472589E-4,2.031067200E-2,2.733541466E-2
3.047197430E-1,4.275931045E-3,2.397575416E-2,2.855710872E-2
3.071276070E-1,4.275931045E-3,2.275406010E-2,2.977880463E-2
3.095362530E-1,4.275931045E-3,2.641914412E-2,2.855710872E-2
3.119440660E-1,5.497625098E-3,2.886253223E-2,2.977880463E-2
3.143510970E-1,5.497625098E-3,3.252761811E-2,2.855710872E-2
3.167589610E-1,5.497625098E-3,3.497100621E-2,2.611372061E-2
3.191676070E-1,4.275931045E-3,3.741439432E-2,2.489202656E-2
3.215754720E-1,1.038440317E-2,3.985778242E-2,2.367033064E-2
3.239824510E-1,1.038440317E-2,3.863608837E-2,2.611372061E-2
3.263903680E-1,1.038440317E-2,3.741439432E-2,2.367033064E-2
3.287989610E-1,1.160609815E-2,3.741439432E-2,2.611372061E-2
3.312068260E-1,1.404948719E-2,3.252761811E-2,2.489202656E-2
3.336138050E-1,1.649287529E-2,3.008422814E-2,2.611372061E-2
3.360217220E-1,1.649287529E-2,2.641914412E-2,2.611372061E-2
3.384303160E-1,1.771457121E-2,2.275406010E-2,2.855710872E-2
3.408381800E-1,2.015795931E-2,2.153236605E-2,2.733541466E-2
3.432451590E-1,1.771457121E-2,1.908897609E-2,2.977880463E-2
3.456530760E-1,1.771457121E-2,1.786728203E-2,2.611372061E-2
3.480616700E-1,1.649287529E-2,1.420219894E-2,2.367033064E-2
3.504695340E-1,1.038440317E-2,1.175880991E-2,2.244863659E-2
3.528765140E-1,9.162709117E-3,9.315420873E-3,2.000524849E-2
3.552844300E-1,7.941014133E-3,1.053711493E-2,1.878355257E-2
3.576930240E-1,1.038440317E-2,9.315420873E-3,1.756185852E-2
3.601008890E-1,7.941014133E-3,9.315420873E-3,1.634016447E-2
3.625078680E-1,7.941014133E-3,1.175880991E-2,1.634016447E-2
3.649157840E-1,1.160609815E-2,1.053711493E-2,1.389677543E-2
3.673243780E-1,1.404948719E-2,1.053711493E-2,1.267508045E-2
3.697322430E-1,1.404948719E-2,8.093725890E-3,1.267508045E-2
3.721392740E-1,1.527118124E-2,6.872031838E-3,1.145338640E-2
3.745471390E-1,1.527118124E-2,5.650337320E-3,9.009997360E-3
3.769557840E-1,1.893626526E-2,5.650337320E-3,9.009997360E-3
3.793635970E-1,1.771457121E-2,3.206948051E-3,1.023169141E-2
3.817706280E-1,2.137965336E-2,7.635590737E-4,7.788302377E-3
3.841784930E-1,1.893626526E-2,1.985253533E-3,9.009997360E-3
3.865871390E-1,1.893626526E-2,-4.581354442E-4,6.566607859E-3
3.889949510E-1,2.137965336E-2,-4.581354442E-4,5.344913341E-3
3.914019820E-1,1.771457121E-2,-1.679830020E-3,5.344913341E-3
3.938098470E-1,1.893626526E-2,-4.581354442E-4,2.901524538E-3
3.962184930E-1,2.015795931E-2,-1.679830020E-3,2.901524538E-3
3.986263570E-1,1.893626526E-2,-1.679830020E-3,1.679830020E-3
4.010333360E-1,1.893626526E-2,-5.344913341E-3,1.679830020E-3
4.034412530E-1,1.893626526E-2,-7.788302377E-3,4.581354442E-4
4.058498470E-1,1.527118124E-2,-6.566607859E-3,-7.635590737E-4
4.082577110E-1,1.649287529E-2,-4.123218823E-3,-1.985253533E-3
4.106646910E-1,1.527118124E-2,-1.679830020E-3,-5.650337320E-3
4.130726070E-1,1.771457121E-2,-2.901524538E-3,-8.093725890E-3
4.154812010E-1,1.282779220E-2,-1.679830020E-3,-8.093725890E-3
4.178890660E-1,1.771457121E-2,-2.901524538E-3,-9.315420873E-3
4.202960450E-1,1.893626526E-2,-5.344913341E-3,-6.872031838E-3
4.227039610E-1,1.649287529E-2,-7.788302377E-3,-8.093725890E-3
4.251125550E-1,1.649287529E-2,-5.344913341E-3,-6.872031838E-3
4.275204200E-1,2.137965336E-2,-4.123218823E-3,-6.872031838E-3
4.299274510E-1,2.260134928E-2,-5.344913341E-3,-8.093725890E-3
4.323353160E-1,2.137965336E-2,-5.344913341E-3,-8.093725890E-3
4.347439610E-1,2.626643144E-2,-7.788302377E-3,-1.175880991E-2
4.371517740E-1,2.748812735E-2,-1.023169141E-2,-1.298050396E-2
4.395588050E-1,2.870982140E-2,-1.145338640E-2,-1.298050396E-2
4.419666700E-1,3.359659761E-2,-1.023169141E-2,-1.420219894E-2
4.443753160E-1,3.603998944E-2,-1.389677543E-2,-1.420219894E-2
4.467831280E-1,3.603998944E-2,-1.878355257E-2,-1.664558798E-2
4.491901590E-1,3.848337755E-2,-2.244863659E-2,-1.786728203E-2
4.515980240E-1,3.603998944E-2,-2.855710872E-2,-2.275406010E-2
4.540066700E-1,3.726168349E-2,-3.222219273E-2,-2.641914412E-2
4.564145340E-1,3.970507160E-2,-3.222219273E-2,-2.886253223E-2
4.588215140E-1,4.214845970E-2,-3.588727489E-2,-3.252761811E-2
4.612294300E-1,4.459185153E-2,-3.466558084E-2,-3.130592033E-2
4.636380240E-1,4.947862774E-2,-3.955236077E-2,-3.863608837E-2
4.660458890E-1,5.436540768E-2,-4.077405483E-2,-4.230117425E-2
4.684528680E-1,5.803048983E-2,-4.321744293E-2,-4.596625641E-2
4.708607840E-1,6.291726977E-2,-4.566083103E-2,-4.840964451E-2
4.732693780E-1,6.902574003E-2,-4.810422286E-2,-5.207473040E-2
4.756772430E-1,7.269082218E-2,-4.932591692E-2,-5.940489471E-2
4.780842740E-1,7.757759839E-2,-5.176930502E-2,-6.062658876E-2
4.804921390E-1,8.124268800E-2,-5.543438718E-2,-6.306997687E-2
4.829007840E-1,8.612946421E-2,-6.032116711E-2,-6.429167092E-2
4.853085970E-1,9.223793447E-2,-6.642963737E-2,-6.673506647E-2
4.877156280E-1,1.007898003E-1,-7.131642103E-2,-6.673506647E-2
4.901234930E-1,1.056765765E-1,-7.742489129E-2,-6.673506647E-2
4.925321390E-1,1.130067408E-1,-8.353336155E-2,-6.917845458E-2
4.949399510E-1,1.154501289E-1,-9.086353332E-2,-7.040014863E-2
4.973469820E-1,1.191152185E-1,-9.941539168E-2,-6.917845458E-2
4.997548990E-1,1.240019947E-1,-1.067455560E-1,-6.917845458E-2
5.021634930E-1,1.276670843E-1,-1.128540337E-1,-6.551336497E-2
5.045713570E-1,1.301104724E-1,-1.189625040E-1,-6.306997687E-2
5.069783360E-1,1.288887709E-1,-1.226275861E-1,-6.062658876E-2
5.093862530E-1,1.276670843E-1,-1.226275861E-1,-5.696150661E-2
5.117948470E-1,1.264453828E-1,-1.214058921E-1,-5.573981255E-2
5.142027110E-1,1.240019947E-1,-1.226275861E-1,-5.329642445E-2
5.166096910E-1,1.240019947E-1,-1.226275861E-1,-4.840964451E-2
5.190176070E-1,1.227803007E-1,-1.214058921E-1,-4.596625641E-2
5.214262530E-1,1.240019947E-1,-1.177408099E-1,-4.352286831E-2
5.238340660E-1,1.252236813E-1,-1.152974218E-1,-4.230117425E-2
5.262410970E-1,1.288887709E-1,-1.140757278E-1,-3.985778242E-2
5.286489610E-1,1.374406368E-1,-1.104106456E-1,-3.619270027E-2
5.310576070E-1,1.423274130E-1,-1.091889441E-1,-3.741439432E-2
5.334654200E-1,1.533226669E-1,-1.104106456E-1,-3.619270027E-2
5.358724510E-1,1.582094431E-1,-1.104106456E-1,-3.374931216E-2
5.382803680E-1,1.704263836E-1,-1.116323397E-1,-3.252761811E-2
5.406889610E-1,1.789782494E-1,-1.165191159E-1,-2.886253223E-2
5.430968260E-1,1.863084137E-1,-1.165191159E-1,-2.886253223E-2
5.455038050E-1,1.985253543E-1,-1.201841980E-1,-3.130592033E-2
5.479117220E-1,2.070772201E-1,-1.214058921E-1,-3.252761811E-2
5.503203160E-1,2.119639963E-1,-1.238492802E-1,-3.619270027E-2
5.527281800E-1,2.241809368E-1,-1.275143623E-1,-3.741439432E-2
5.551352110E-1,2.315111160E-1,-1.311794519E-1,-4.474456236E-2
5.575430760E-1,2.425063550E-1,-1.336228400E-1,-4.963133857E-2
5.599517220E-1,2.498365343E-1,-1.397313178E-1,-5.329642445E-2
5.623595340E-1,2.547233105E-1,-1.433963925E-1,-5.329642445E-2
5.647665660E-1,2.644968629E-1,-1.495048702E-1,-5.573981255E-2
5.671744300E-1,2.767138183E-1,-1.543916464E-1,-5.696150661E-2
5.695830760E-1,2.828222811E-1,-1.580567211E-1,-5.451811850E-2
5.719908890E-1,2.889307439E-1,-1.641651988E-1,-5.329642445E-2
5.743979200E-1,2.962609231E-1,-1.690519750E-1,-4.840964451E-2
5.768058360E-1,2.999260128E-1,-1.727170646E-1,-4.230117425E-2
5.792144300E-1,3.096995652E-1,-1.763821393E-1,-3.985778242E-2
5.816222950E-1,3.133646548E-1,-1.763821393E-1,-3.252761811E-2
5.840292740E-1,3.158080280E-1,-1.751604527E-1,-2.519745007E-2
5.864371910E-1,3.194731176E-1,-1.739387512E-1,-2.031067200E-2
5.888458360E-1,3.231382072E-1,-1.739387512E-1,-2.031067200E-2
5.912536490E-1,3.268032968E-1,-1.739387512E-1,-1.420219894E-2
5.936606800E-1,3.292466700E-1,-1.751604527E-1,-1.298050396E-2
5.960685450E-1,3.304683566E-1,-1.727170646E-1,-9.315420873E-3
5.984771910E-1,3.316900730E-1,-1.653869003E-1,-5.650337320E-3
6.008850030E-1,3.341334462E-1,-1.592784226E-1,-1.985253533E-3
6.032920340E-1,3.316900730E-1,-1.531699449E-1,1.679830020E-3
6.056999510E-1,3.292466700E-1,-1.409530044E-1,4.123218823E-3
6.081085450E-1,3.280249834E-1,-1.275143623E-1,6.566607859E-3
6.105164090E-1,3.243598938E-1,-1.177408099E-1,1.023169141E-2
6.129233890E-1,3.231382072E-1,-1.104106456E-1,1.267508045E-2
6.153313050E-1,3.231382072E-1,-1.030804738E-1,1.023169141E-2
6.177399510E-1,3.182514310E-1,-9.575030953E-2,1.267508045E-2
6.201477640E-1,3.194731176E-1,-8.842013776E-2,1.023169141E-2
6.225547950E-1,3.170297146E-1,-7.986827940E-2,9.009997360E-3
6.249626590E-1,3.096995652E-1,-6.642963737E-2,7.788302377E-3
6.273713050E-1,2.999260128E-1,-5.299099907E-2,5.344913341E-3
6.297791700E-1,2.913741469E-1,-4.321744293E-2,4.123218823E-3
6.321861490E-1,2.852656841E-1,-3.710897267E-2,1.679830020E-3
6.345940660E-1,2.767138183E-1,-3.344388679E-2,1.679830020E-3
6.370026590E-1,2.681619525E-1,-2.977880463E-2,4.581354442E-4
6.394105240E-1,2.620534599E-1,-2.855710872E-2,-4.428642802E-3
6.418175030E-1,2.547233105E-1,-2.489202656E-2,-6.872031838E-3
6.442254200E-1,2.461714447E-1,-2.122694254E-2,-8.093725890E-3
6.466340660E-1,2.425063550E-1,-2.122694254E-2,-1.175880991E-2
6.490418780E-1,2.339545041E-1,-1.756185852E-2,-1.664558798E-2
6.514489090E-1,2.290677279E-1,-1.634016447E-2,-2.153236605E-2
6.538567740E-1,2.192941606E-1,-1.878355257E-2,-2.397575416E-2
6.562654200E-1,2.144073844E-1,-1.634016447E-2,-2.641914412E-2
6.586732840E-1,2.095206082E-1,-2.244863659E-2,-2.886253223E-2
6.610802640E-1,1.997470558E-1,-2.489202656E-2,-2.764083818E-2
6.634881800E-1,1.960819662E-1,-2.855710872E-2,-3.008422814E-2
6.658967740E-1,1.863084137E-1,-3.466558084E-2,-3.252761811E-2
6.683046390E-1,1.789782494E-1,-4.321744293E-2,-3.619270027E-2
6.707116180E-1,1.716480851E-1,-5.054761097E-2,-3.741439432E-2
6.731195340E-1,1.667613089E-1,-5.787777901E-2,-4.230117425E-2
6.755281800E-1,1.569877416E-1,-6.642963737E-2,-4.840964451E-2
6.779359930E-1,1.508792788E-1,-7.131642103E-2,-5.085303262E-2
6.803430240E-1,1.435490996E-1,-7.498150319E-2,-5.329642445E-2
6.827509410E-1,1.386623234E-1,-7.620319724E-2,-5.696150661E-2
6.851595340E-1,1.325538605E-1,-7.375980914E-2,-5.818320066E-2
6.875673990E-1,1.288887709E-1,-7.253811508E-2,-6.062658876E-2
6.899743780E-1,1.227803007E-1,-6.765133142E-2,-6.184828654E-2
6.923822950E-1,1.166718230E-1,-6.032116711E-2,-6.306997687E-2
6.947908890E-1,1.130067408E-1,-5.299099907E-2,-6.306997687E-2
6.971987530E-1,1.056765765E-1,-4.810422286E-2,-6.184828654E-2
6.996057840E-1,1.007898003E-1,-3.833066672E-2,-6.306997687E-2
7.020136490E-1,9.712471068E-2,-3.466558084E-2,-6.429167092E-2
7.044222950E-1,8.857285231E-2,-2.489202656E-2,-6.306997687E-2
7.068301070E-1,8.612946421E-2,-1.878355257E-2,-6.184828654E-2
7.092371390E-1,8.246438205E-2,-1.511846948E-2,-6.306997687E-2
7.116450550E-1,7.635590434E-2,-1.145338640E-2,-6.429167092E-2
7.140536490E-1,7.146912813E-2,-9.009997360E-3,-6.429167092E-2
7.164615140E-1,6.536065787E-2,-5.344913341E-3,-6.062658876E-2
7.188684930E-1,5.680879578E-2,-2.901524538E-3,-5.818320066E-2
7.212764090E-1,5.070032179E-2,-4.123218823E-3,-5.573981255E-2
7.236850550E-1,4.214845970E-2,-5.344913341E-3,-5.573981255E-2
7.260928680E-1,3.726168349E-2,-1.145338640E-2,-5.573981255E-2
7.284998990E-1,3.237490356E-2,-1.389677543E-2,-5.696150661E-2
7.309077640E-1,2.504473738E-2,-1.878355257E-2,-5.818320066E-2
7.333164090E-1,1.893626526E-2,-2.489202656E-2,-5.940489471E-2
7.357242740E-1,1.893626526E-2,-2.855710872E-2,-5.940489471E-2
7.381312530E-1,2.015795931E-2,-3.100049868E-2,-5.940489471E-2
7.405391700E-1,2.137965336E-2,-3.588727489E-2,-5.940489471E-2
7.429478160E-1,1.893626526E-2,-3.710897267E-2,-5.818320066E-2
7.453556280E-1,2.260134928E-2,-4.077405483E-2,-5.696150661E-2
7.477626590E-1,2.137965336E-2,-4.199574888E-2,-5.329642445E-2
7.501705240E-1,1.893626526E-2,-4.199574888E-2,-4.963133857E-2
7.525791700E-1,2.626643144E-2,-4.443913698E-2,-4.718795046E-2
7.549870340E-1,2.748812735E-2,-4.932591692E-2,-4.596625641E-2
7.573940140E-1,3.237490356E-2,-4.932591692E-2,-4.230117425E-2
7.598019300E-1,3.481829539E-2,-5.299099907E-2,-3.985778242E-2
7.622105240E-1,3.726168349E-2,-5.421269313E-2,-3.741439432E-2
7.646183890E-1,3.970507160E-2,-5.665608495E-2,-3.497100621E-2
7.670254200E-1,4.092676565E-2,-5.543438718E-2,-3.497100621E-2
7.694332840E-1,4.337015375E-2,-5.665608495E-2,-3.619270027E-2
7.718419300E-1,4.581354558E-2,-5.909947306E-2,-3.619270027E-2
7.742497430E-1,4.947862774E-2,-5.543438718E-2,-3.497100621E-2
7.766567740E-1,5.192201585E-2,-5.665608495E-2,-3.741439432E-2
7.790646910E-1,5.680879578E-2,-5.543438718E-2,-3.985778242E-2
7.814732840E-1,6.169557199E-2,-5.787777901E-2,-4.474456236E-2
7.838811490E-1,6.780404598E-2,-5.787777901E-2,-4.596625641E-2
7.862881280E-1,7.024743408E-2,-5.909947306E-2,-4.718795046E-2
7.886960450E-1,7.635590434E-2,-5.909947306E-2,-4.840964451E-2
7.911046910E-1,8.124268800E-2,-5.665608495E-2,-4.963133857E-2
7.935125030E-1,8.612946421E-2,-5.543438718E-2,-4.963133857E-2
7.959195340E-1,8.612946421E-2,-5.176930502E-2,-5.085303262E-2
7.983274510E-1,9.223793447E-2,-4.566083103E-2,-5.207473040E-2
8.007360450E-1,9.223793447E-2,-4.077405483E-2,-5.207473040E-2
8.031439090E-1,9.590301663E-2,-3.588727489E-2,-5.207473040E-2
8.055509410E-1,9.712471068E-2,-2.977880463E-2,-5.085303262E-2
8.079588050E-1,1.020114943E-1,-2.244863659E-2,-5.085303262E-2
8.103674510E-1,9.956810623E-2,-1.878355257E-2,-4.840964451E-2
8.127752640E-1,1.032331884E-1,-1.023169141E-2,-4.474456236E-2
8.151822950E-1,1.056765765E-1,-6.566607859E-3,-4.352286831E-2
8.175901590E-1,1.068982705E-1,-5.344913341E-3,-4.107947648E-2
8.199988050E-1,1.105633527E-1,-5.344913341E-3,-4.107947648E-2
8.224066700E-1,1.117850468E-1,-2.901524538E-3,-3.863608837E-2
8.248136490E-1,1.142284349E-1,1.985253533E-3,-3.619270027E-2
8.272215660E-1,1.166718230E-1,1.053711493E-2,-3.252761811E-2
8.296302110E-1,1.154501289E-1,2.031067200E-2,-2.764083818E-2
8.320380240E-1,1.166718230E-1,2.886253223E-2,-2.275406010E-2
8.344450550E-1,1.178935245E-1,3.008422814E-2,-1.664558798E-2
8.368529720E-1,1.203369126E-1,2.886253223E-2,-1.053711493E-2
8.392615660E-1,1.227803007E-1,2.397575416E-2,-5.650337320E-3
8.416694300E-1,1.240019947E-1,1.053711493E-2,-6.872031838E-3
8.440764090E-1,1.252236813E-1,3.206948051E-3,-6.872031838E-3
8.464843260E-1,1.227803007E-1,-5.344913341E-3,-1.053711493E-2
8.488929720E-1,1.178935245E-1,-1.878355257E-2,-1.298050396E-2
8.513007840E-1,1.093416587E-1,-2.733541466E-2,-1.664558798E-2
8.537078160E-1,1.056765765E-1,-3.833066672E-2,-1.786728203E-2
8.561157320E-1,9.956810623E-2,-4.688252881E-2,-2.153236605E-2
8.585243260E-1,9.468132257E-2,-4.932591692E-2,-2.397575416E-2
8.609321910E-1,8.857285231E-2,-4.932591692E-2,-2.275406010E-2
8.633391700E-1,8.124268800E-2,-4.932591692E-2,-1.786728203E-2
8.657470860E-1,7.391251624E-2,-4.810422286E-2,-1.298050396E-2
8.681557320E-1,7.146912813E-2,-5.176930502E-2,-9.315420873E-3
8.705635450E-1,6.536065787E-2,-5.299099907E-2,-6.872031838E-3
8.729705760E-1,6.902574003E-2,-5.299099907E-2,-1.985253533E-3
8.753784930E-1,5.925218388E-2,-5.176930502E-2,2.901524538E-3
8.777870860E-1,5.558710173E-2,-4.810422286E-2,4.123218823E-3
8.801949510E-1,5.070032179E-2,-4.566083103E-2,1.023169141E-2
8.826019820E-1,4.825693369E-2,-4.199574888E-2,1.389677543E-2
8.850098470E-1,4.581354558E-2,-2.855710872E-2,2.000524849E-2
8.874184930E-1,4.581354558E-2,-1.634016447E-2,2.733541466E-2
8.898263050E-1,4.703523964E-2,-4.123218823E-3,3.344388679E-2
8.922333360E-1,4.947862774E-2,1.664558798E-2,3.955236077E-2
8.946412530E-1,5.314370990E-2,3.374931216E-2,4.443913698E-2
8.970498470E-1,6.536065787E-2,7.650861889E-2,5.176930502E-2
8.994577110E-1,1.240019947E-1,2.206685692E-1,7.620319724E-2
9.018647430E-1,2.009687424E-1,3.880407214E-1,1.018587798E-1
9.042726070E-1,2.706053257E-1,5.309789777E-1,1.275143623E-1
9.066812530E-1,3.402419090E-1,6.555918455E-1,1.556133330E-1
9.090891180E-1,3.939964771E-1,7.472189069E-1,1.837123185E-1
9.114960970E-1,4.208737612E-1,7.814263701E-1,2.081461996E-1
9.139040140E-1,4.282039404E-1,7.679877281E-1,2.252499312E-1
9.163126070E-1,4.233171642E-1,7.056813240E-1,2.289150059E-1
9.187204720E-1,4.074351192E-1,6.018372774E-1,2.166980654E-1
9.211275030E-1,3.732276857E-1,4.698942602E-1,1.983726472E-1
9.235353680E-1,3.329117596E-1,3.391729295E-1,1.763821393E-1
9.259440140E-1,2.901524603E-1,2.206685692E-1,1.507265568E-1
9.283518780E-1,2.449497581E-1,1.241547018E-1,1.287360638E-1
9.307588570E-1,2.021904439E-1,4.963133857E-2,1.006370857E-1
9.331667740E-1,1.679829955E-1,-1.679830020E-3,7.375980914E-2
9.355754200E-1,1.398840249E-1,-2.977880463E-2,5.176930502E-2
9.379832320E-1,1.215586066E-1,-4.443913698E-2,3.466558084E-2
9.403902640E-1,1.056765765E-1,-4.321744293E-2,2.367033064E-2
9.427981280E-1,1.007898003E-1,-3.100049868E-2,1.511846948E-2
9.452067740E-1,9.345962852E-2,-1.511846948E-2,1.389677543E-2
9.476146390E-1,9.590301663E-2,-4.581354442E-4,1.756185852E-2
9.500216180E-1,1.032331884E-1,1.786728203E-2,2.489202656E-2
9.524295340E-1,1.020114943E-1,3.130592033E-2,3.344388679E-2
9.548381800E-1,1.044548824E-1,3.863608837E-2,4.077405483E-2
9.572459930E-1,1.032331884E-1,4.596625641E-2,4.932591692E-2
9.596530240E-1,1.081199646E-1,5.451811850E-2,5.665608495E-2
9.620608890E-1,1.081199646E-1,6.184828654E-2,6.276455522E-2
9.644695340E-1,1.117850468E-1,6.306997687E-2,6.765133142E-2
9.668773990E-1,1.130067408E-1,6.062658876E-2,7.131642103E-2
9.692843780E-1,1.142284349E-1,5.818320066E-2,7.375980914E-2
9.716922950E-1,1.154501289E-1,4.963133857E-2,7.253811508E-2
9.741009410E-1,1.117850468E-1,4.596625641E-2,7.375980914E-2
9.765087530E-1,1.068982705E-1,4.718795046E-2,7.498150319E-2
9.789157840E-1,1.068982705E-1,4.840964451E-2,7.253811508E-2
9.813237010E-1,1.044548824E-1,5.085303262E-2,7.009471953E-2
9.837322950E-1,1.032331884E-1,5.329642445E-2,6.642963737E-2
9.861401590E-1,1.032331884E-1,5.451811850E-2,6.154286116E-2
9.885471910E-1,9.834641218E-2,5.573981255E-2,5.787777901E-2
9.909550550E-1,9.834641218E-2,5.573981255E-2,5.299099907E-2
9.933637010E-1,9.345962852E-2,5.573981255E-2,4.932591692E-2
9.957715660E-1,9.345962852E-2,5.818320066E-2,4.688252881E-2
9.981785450E-1,9.345962852E-2,5.818320066E-2,4.566083103E-2
1.000586461E0,9.101624042E-2,5.818320066E-2,4.321744293E-2
1.002995107E0,8.979454637E-2,5.818320066E-2,4.443913698E-2
1.005402920E0,8.612946421E-2,5.940489471E-2,4.566083103E-2
1.007809951E0,8.490777016E-2,6.062658876E-2,4.688252881E-2
1.010217816E0,8.002099395E-2,6.184828654E-2,4.810422286E-2
1.012626461E0,7.513421029E-2,6.429167092E-2,5.054761097E-2
1.015034326E0,7.635590434E-2,6.306997687E-2,5.421269313E-2
1.017441305E0,6.658235192E-2,6.184828654E-2,5.543438718E-2
1.019849222E0,6.536065787E-2,6.062658876E-2,5.665608495E-2
1.022257868E0,6.047387794E-2,5.696150661E-2,6.032116711E-2
1.024665680E0,5.925218388E-2,5.818320066E-2,6.154286116E-2
1.027072711E0,5.314370990E-2,5.818320066E-2,6.398624927E-2
1.029480628E0,4.825693369E-2,5.940489471E-2,6.642963737E-2
1.031889222E0,4.092676565E-2,5.940489471E-2,6.887302548E-2
1.034297086E0,3.603998944E-2,6.306997687E-2,6.765133142E-2
1.036704118E0,3.359659761E-2,6.184828654E-2,6.887302548E-2
1.039111982E0,2.870982140E-2,6.551336497E-2,7.009471953E-2
1.041520628E0,2.382304333E-2,6.917845458E-2,6.887302548E-2
1.043928493E0,1.893626526E-2,7.162184268E-2,7.131642103E-2
1.046335472E0,1.527118124E-2,7.284353673E-2,6.887302548E-2
1.048743389E0,1.038440317E-2,7.162184268E-2,7.009471953E-2
1.051151982E0,9.162709117E-3,7.040014863E-2,6.887302548E-2
1.053559847E0,7.941014133E-3,6.795676053E-2,6.887302548E-2
1.055966878E0,6.719320081E-3,6.306997687E-2,6.765133142E-2
1.058374795E0,7.941014133E-3,6.429167092E-2,6.887302548E-2
1.060783389E0,7.941014133E-3,6.062658876E-2,6.765133142E-2
1.063191253E0,6.719320081E-3,6.306997687E-2,7.009471953E-2
1.065598232E0,6.719320081E-3,6.429167092E-2,7.009471953E-2
1.068006149E0,5.497625098E-3,6.184828654E-2,7.009471953E-2
1.070414795E0,5.497625098E-3,6.062658876E-2,7.009471953E-2
1.072822607E0,1.282779220E-2,6.062658876E-2,7.009471953E-2
1.075229639E0,1.527118124E-2,5.573981255E-2,6.642963737E-2
1.077637555E0,1.404948719E-2,5.451811850E-2,6.642963737E-2
1.080046149E0,1.527118124E-2,5.451811850E-2,6.520794332E-2
1.082454014E0,1.649287529E-2,5.940489471E-2,6.520794332E-2
1.084861045E0,1.527118124E-2,6.429167092E-2,6.520794332E-2
1.087268909E0,1.282779220E-2,6.795676053E-2,7.131642103E-2
1.089677555E0,1.038440317E-2,6.917845458E-2,7.009471953E-2
1.092085420E0,1.282779220E-2,7.284353673E-2,7.131642103E-2
1.094492399E0,1.527118124E-2,7.284353673E-2,6.887302548E-2
1.096900316E0,1.282779220E-2,7.773031294E-2,7.131642103E-2
1.099308961E0,1.404948719E-2,7.773031294E-2,6.887302548E-2
1.101716774E0,1.527118124E-2,7.650861889E-2,6.642963737E-2
1.104123805E0,1.771457121E-2,7.773031294E-2,6.642963737E-2
1.106531722E0,1.893626526E-2,8.506047726E-2,6.765133142E-2
1.108940316E0,1.160609815E-2,8.872556686E-2,7.009471953E-2
1.111348180E0,1.404948719E-2,8.750387281E-2,7.009471953E-2
1.113755211E0,2.137965336E-2,8.261708915E-2,7.131642103E-2
1.116163076E0,1.527118124E-2,7.406523079E-2,7.009471953E-2
1.118571722E0,1.404948719E-2,6.795676053E-2,6.887302548E-2
1.120979586E0,1.160609815E-2,6.551336497E-2,6.887302548E-2
1.123386566E0,7.941014133E-3,6.306997687E-2,7.009471953E-2
1.125794482E0,3.054236295E-3,5.940489471E-2,7.009471953E-2
1.128203128E0,-6.108472589E-4,5.573981255E-2,7.253811508E-2
1.130610941E0,-4.275931045E-3,5.329642445E-2,7.375980914E-2
1.133017972E0,-5.497625098E-3,5.085303262E-2,7.620319724E-2
1.135425889E0,-1.160609815E-2,4.718795046E-2,7.742489129E-2
1.137834482E0,-1.404948719E-2,4.107947648E-2,7.620319724E-2
1.140242347E0,-1.404948719E-2,3.741439432E-2,7.864658535E-2
1.142649378E0,-1.893626526E-2,3.374931216E-2,7.986827940E-2
1.145057243E0,-1.893626526E-2,2.641914412E-2,8.231166750E-2
1.147465889E0,-1.771457121E-2,1.664558798E-2,8.231166750E-2
1.149873701E0,-1.527118124E-2,9.315420873E-3,8.475505561E-2
1.152280732E0,-1.282779220E-2,-4.581354442E-4,8.353336155E-2
1.154688649E0,-1.038440317E-2,-1.634016447E-2,8.475505561E-2
1.157097243E0,-4.275931045E-3,-2.855710872E-2,8.475505561E-2
1.159505107E0,4.275931045E-3,-4.321744293E-2,8.842013776E-2
1.161912139E0,9.162709117E-3,-5.787777901E-2,9.086353332E-2
1.164320055E0,1.527118124E-2,-6.887302548E-2,9.330692142E-2
1.166728649E0,2.504473738E-2,-8.475505561E-2,9.452861547E-2
1.169136514E0,3.237490356E-2,-1.006370857E-1,1.006370857E-1
1.171543545E0,4.092676565E-2,-1.201841980E-1,1.055238619E-1
1.173951409E0,4.825693369E-2,-1.372879148E-1,1.030804738E-1
1.176360055E0,5.680879578E-2,-1.409530044E-1,8.719844371E-2
1.178767868E0,4.947862774E-2,-1.201841980E-1,6.032116711E-2
1.181174899E0,4.214845970E-2,-1.030804738E-1,3.833066672E-2
1.183582816E0,3.603998944E-2,-8.353336155E-2,2.733541466E-2
1.185991409E0,2.748812735E-2,-6.276455522E-2,2.977880463E-2
1.188399274E0,2.137965336E-2,-3.955236077E-2,3.588727489E-2
1.190806305E0,1.771457121E-2,-2.489202656E-2,4.199574888E-2
1.193214170E0,1.160609815E-2,-9.009997360E-3,5.299099907E-2
1.195622816E0,5.497625098E-3,3.206948051E-3,6.520794332E-2
1.198030680E0,5.497625098E-3,1.786728203E-2,7.620319724E-2
1.200437711E0,5.497625098E-3,2.764083818E-2,8.719844371E-2
1.202845576E0,3.054236295E-3,3.130592033E-2,9.575030953E-2
1.205254222E0,-6.108472589E-4,3.497100621E-2,1.055238619E-1
1.207662034E0,-4.275931045E-3,4.107947648E-2,1.165191159E-1
1.210069066E0,-1.038440317E-2,4.596625641E-2,1.226275861E-1
1.212476982E0,-1.282779220E-2,5.696150661E-2,1.287360638E-1
1.214885628E0,-1.404948719E-2,6.184828654E-2,1.336228400E-1
1.217293441E0,-1.893626526E-2,6.184828654E-2,1.385096163E-1
1.219700472E0,-2.260134928E-2,6.184828654E-2,1.433963925E-1
1.222108389E0,-2.626643144E-2,6.184828654E-2,1.433963925E-1
1.224516982E0,-2.993151546E-2,6.062658876E-2,1.446180940E-1
1.226924847E0,-2.993151546E-2,6.184828654E-2,1.470614821E-1
1.229331826E0,-3.359659761E-2,6.306997687E-2,1.495048702E-1
1.231739743E0,-3.237490356E-2,6.429167092E-2,1.495048702E-1
1.234148389E0,-2.993151546E-2,6.795676053E-2,1.495048702E-1
1.236556201E0,-2.993151546E-2,7.040014863E-2,1.482831687E-1
1.238963232E0,-2.626643144E-2,7.650861889E-2,1.482831687E-1
1.241371149E0,-1.893626526E-2,8.383878320E-2,1.470614821E-1
1.243779795E0,-1.649287529E-2,8.261708915E-2,1.470614821E-1
1.246187607E0,-1.282779220E-2,7.895200700E-2,1.482831687E-1
1.248594639E0,-5.497625098E-3,7.162184268E-2,1.446180940E-1
1.251002555E0,6.108472589E-4,6.429167092E-2,1.446180940E-1
1.253411149E0,5.497625098E-3,5.573981255E-2,1.421747059E-1
1.255819014E0,7.941014133E-3,4.963133857E-2,1.397313178E-1
1.258226045E0,1.282779220E-2,4.596625641E-2,1.397313178E-1
1.260633909E0,1.771457121E-2,4.230117425E-2,1.385096163E-1
1.263042555E0,2.015795931E-2,4.230117425E-2,1.385096163E-1
1.265450420E0,2.137965336E-2,4.718795046E-2,1.397313178E-1
1.267857399E0,2.504473738E-2,4.963133857E-2,1.397313178E-1
1.270265316E0,2.993151546E-2,4.718795046E-2,1.360662282E-1
1.272673961E0,2.993151546E-2,4.963133857E-2,1.385096163E-1
1.275081774E0,2.626643144E-2,5.085303262E-2,1.372879148E-1
1.277488805E0,2.993151546E-2,5.329642445E-2,1.336228400E-1
1.279896722E0,3.115320951E-2,5.451811850E-2,1.348445266E-1
1.282305316E0,2.870982140E-2,5.329642445E-2,1.336228400E-1
1.284713180E0,2.870982140E-2,5.451811850E-2,1.336228400E-1
1.287120211E0,2.626643144E-2,5.940489471E-2,1.336228400E-1
1.289528076E0,2.504473738E-2,6.062658876E-2,1.348445266E-1
1.291936722E0,2.504473738E-2,6.306997687E-2,1.372879148E-1
1.294344586E0,2.626643144E-2,6.795676053E-2,1.372879148E-1
1.296751566E0,2.504473738E-2,7.162184268E-2,1.348445266E-1
1.299159482E0,2.626643144E-2,7.650861889E-2,1.360662282E-1
1.301568128E0,2.748812735E-2,7.895200700E-2,1.360662282E-1
1.303975941E0,2.993151546E-2,8.506047726E-2,1.385096163E-1
1.306382972E0,2.626643144E-2,8.994726092E-2,1.385096163E-1
1.308790889E0,2.504473738E-2,9.361234307E-2,1.385096163E-1
1.311199482E0,2.626643144E-2,1.009425074E-1,1.409530044E-1
1.313607347E0,2.748812735E-2,1.058292910E-1,1.433963925E-1
1.316014378E0,3.115320951E-2,1.156028435E-1,1.470614821E-1
1.318422243E0,2.993151546E-2,1.217113137E-1,1.470614821E-1
1.320830889E0,2.748812735E-2,1.278197914E-1,1.507265568E-1
1.323238753E0,2.626643144E-2,1.351499557E-1,1.531699449E-1
1.325645732E0,2.870982140E-2,1.400367320E-1,1.556133330E-1
1.328053649E0,2.993151546E-2,1.473668963E-1,1.580567211E-1
1.330462295E0,3.359659761E-2,1.534753740E-1,1.592784226E-1
1.332870107E0,2.993151546E-2,1.620272398E-1,1.666085869E-1
1.335277139E0,2.748812735E-2,1.669140160E-1,1.702736765E-1
1.337685055E0,2.626643144E-2,1.754658818E-1,1.739387512E-1
1.340093649E0,3.481829539E-2,1.791309565E-1,1.739387512E-1
1.342501514E0,2.870982140E-2,1.815743446E-1,1.751604527E-1
1.344908545E0,2.870982140E-2,1.864611208E-1,1.776038408E-1
1.347316409E0,2.870982140E-2,1.913478971E-1,1.763821393E-1
1.349725055E0,2.748812735E-2,1.986780763E-1,1.763821393E-1
1.352132920E0,2.382304333E-2,2.035648525E-1,1.788255423E-1
1.354539899E0,2.626643144E-2,2.096733153E-1,1.812689304E-1
1.356947816E0,2.870982140E-2,2.170034945E-1,1.824906170E-1
1.359356461E0,2.626643144E-2,2.231119573E-1,1.837123185E-1
1.361764326E0,2.504473738E-2,2.304421216E-1,1.898207814E-1
1.364171305E0,2.748812735E-2,2.353289127E-1,1.922641695E-1
1.366579222E0,2.626643144E-2,2.377723008E-1,1.922641695E-1
1.368987868E0,2.382304333E-2,2.377723008E-1,1.922641695E-1
1.371395680E0,2.382304333E-2,2.451024652E-1,1.959292591E-1
1.373802711E0,2.260134928E-2,2.463241518E-1,1.934858710E-1
1.376210628E0,2.260134928E-2,2.512109280E-1,1.947075576E-1
1.378619222E0,2.382304333E-2,2.536543310E-1,1.934858710E-1
1.381027086E0,2.260134928E-2,2.560977042E-1,1.959292591E-1
1.383434118E0,2.382304333E-2,2.609844804E-1,1.947075576E-1
1.385841982E0,1.771457121E-2,2.634278834E-1,1.947075576E-1
1.388250628E0,1.649287529E-2,2.634278834E-1,1.971509457E-1
1.390658493E0,1.771457121E-2,2.670929730E-1,1.995943487E-1
1.393065472E0,1.160609815E-2,2.646495700E-1,2.044811249E-1
1.395473389E0,1.038440317E-2,2.646495700E-1,2.044811249E-1
1.397882034E0,1.038440317E-2,2.646495700E-1,2.032594234E-1
1.400289847E0,1.160609815E-2,2.658712566E-1,2.032594234E-1
1.402696878E0,1.038440317E-2,2.622061968E-1,2.008160353E-1
1.405104795E0,6.719320081E-3,2.658712566E-1,1.995943487E-1
1.407513389E0,3.054236295E-3,2.622061968E-1,1.983726472E-1
1.409921253E0,4.275931045E-3,2.646495700E-1,1.971509457E-1
1.412328284E0,6.108472589E-4,2.658712566E-1,1.959292591E-1
1.414736149E0,-6.108472589E-4,2.670929730E-1,1.971509457E-1
1.417144795E0,6.108472589E-4,2.658712566E-1,1.971509457E-1
1.419552659E0,-1.832541777E-3,2.658712566E-1,1.995943487E-1
1.421959639E0,-1.832541777E-3,2.646495700E-1,2.020377368E-1
1.424367555E0,-4.275931045E-3,2.622061968E-1,2.044811249E-1
1.426776201E0,-1.832541777E-3,2.597627938E-1,2.044811249E-1
1.429184014E0,-7.941014133E-3,2.560977042E-1,2.044811249E-1
1.431591045E0,-4.275931045E-3,2.548760176E-1,2.008160353E-1
1.433998961E0,-7.941014133E-3,2.524326444E-1,2.008160353E-1
1.436407607E0,-6.719320081E-3,2.536543310E-1,2.020377368E-1
1.438815420E0,-6.719320081E-3,2.524326444E-1,1.995943487E-1
1.441222451E0,-1.832541777E-3,2.524326444E-1,1.995943487E-1
1.443630368E0,-3.054236295E-3,2.524326444E-1,2.020377368E-1
1.446038961E0,-4.275931045E-3,2.487675399E-1,2.008160353E-1
1.448446826E0,-1.832541777E-3,2.451024652E-1,2.044811249E-1
1.450853857E0,-1.832541777E-3,2.438807636E-1,2.069245130E-1
1.453261722E0,-3.054236295E-3,2.402156889E-1,2.093679011E-1
1.455670368E0,-3.054236295E-3,2.402156889E-1,2.081461996E-1
1.458078232E0,-1.832541777E-3,2.389939874E-1,2.069245130E-1
1.460485211E0,-3.054236295E-3,2.389939874E-1,2.069245130E-1
1.462893128E0,-1.832541777E-3,2.377723008E-1,2.093679011E-1
1.465301774E0,-3.054236295E-3,2.389939874E-1,2.130329758E-1
1.467709586E0,-1.832541777E-3,2.377723008E-1,2.142546773E-1
1.470116618E0,-3.054236295E-3,2.341072112E-1,2.154763639E-1
1.472524534E0,-3.054236295E-3,2.353289127E-1,2.191414535E-1
1.474933128E0,-3.054236295E-3,2.328855246E-1,2.179197669E-1
1.477340993E0,-6.719320081E-3,2.316638231E-1,2.203631550E-1
1.479748024E0,-5.497625098E-3,2.341072112E-1,2.215848416E-1
1.482155889E0,-6.719320081E-3,2.353289127E-1,2.240282297E-1
1.484564534E0,-6.719320081E-3,2.353289127E-1,2.276933193E-1
1.486972399E0,-7.941014133E-3,2.353289127E-1,2.313583940E-1
1.489379378E0,-6.719320081E-3,2.341072112E-1,2.338017821E-1
1.491787295E0,-1.038440317E-2,2.328855246E-1,2.350234836E-1
1.494195941E0,-9.162709117E-3,2.316638231E-1,2.374668717E-1
1.496603753E0,-6.719320081E-3,2.328855246E-1,2.399102598E-1
1.499010784E0,-6.719320081E-3,2.328855246E-1,2.435753495E-1
1.501418701E0,-7.941014133E-3,2.341072112E-1,2.460187376E-1
1.503827347E0,-5.497625098E-3,2.328855246E-1,2.484621257E-1
1.506235159E0,-7.941014133E-3,2.341072112E-1,2.521272004E-1
1.508642191E0,-7.941014133E-3,2.341072112E-1,2.570139766E-1
1.511050107E0,-4.275931045E-3,2.377723008E-1,2.606790662E-1
1.513458701E0,-4.275931045E-3,2.365505993E-1,2.606790662E-1
1.515866566E0,-3.054236295E-3,2.402156889E-1,2.643441558E-1
1.518273597E0,-6.108472589E-4,2.438807636E-1,2.692309320E-1
1.520681461E0,4.275931045E-3,2.475458533E-1,2.716743052E-1
1.523090107E0,9.162709117E-3,2.548760176E-1,2.765611112E-1
1.525497972E0,1.160609815E-2,2.597627938E-1,2.790044844E-1
1.527904951E0,1.893626526E-2,2.695363462E-1,2.838912606E-1
1.530312868E0,2.382304333E-2,2.780882120E-1,2.863346636E-1
1.532721514E0,2.626643144E-2,2.817533016E-1,2.912214398E-1
1.535129326E0,2.870982140E-2,2.805316150E-1,2.973299026E-1
1.537536357E0,2.260134928E-2,2.719797492E-1,2.985515893E-1
1.539944274E0,2.260134928E-2,2.609844804E-1,3.009949923E-1
1.542352868E0,9.162709117E-3,2.438807636E-1,3.058817685E-1
1.544760732E0,-1.832541777E-3,2.279987335E-1,3.095468581E-1
1.547167764E0,-1.282779220E-2,2.108950168E-1,3.107685447E-1
1.549575628E0,-2.382304333E-2,1.974563748E-1,3.144336343E-1
1.551984274E0,-3.603998944E-2,1.827960461E-1,3.193204105E-1
1.554392139E0,-4.947862774E-2,1.681357026E-1,3.205420971E-1
1.556799118E0,-6.169557199E-2,1.546970755E-1,3.242071867E-1
1.559207034E0,-7.146912813E-2,1.461452097E-1,3.278722763E-1
1.561615680E0,-8.612946421E-2,1.388150454E-1,3.290939629E-1
1.564023545E0,-9.345962852E-2,1.339282542E-1,3.315373361E-1
1.566430524E0,-9.834641218E-2,1.339282542E-1,3.327590525E-1
1.568838441E0,-1.056765765E-1,1.314848661E-1,3.339807391E-1
1.571247086E0,-1.105633527E-1,1.339282542E-1,3.364241421E-1
1.573654899E0,-1.130067408E-1,1.388150454E-1,3.376458287E-1
1.576061930E0,-1.178935245E-1,1.424801201E-1,3.376458287E-1
1.578469847E0,-1.203369126E-1,1.473668963E-1,3.388675153E-1
1.580878441E0,-1.191152185E-1,1.498102844E-1,3.376458287E-1
1.583286305E0,-1.203369126E-1,1.534753740E-1,3.376458287E-1
1.585693336E0,-1.227803007E-1,1.546970755E-1,3.364241421E-1
1.588101201E0,-1.276670843E-1,1.559187621E-1,3.352024257E-1
1.590509847E0,-1.288887709E-1,1.595838517E-1,3.339807391E-1
1.592917711E0,-1.325538605E-1,1.583621502E-1,3.339807391E-1
1.595324691E0,-1.337755471E-1,1.583621502E-1,3.278722763E-1
1.597732607E0,-1.362189353E-1,1.571404636E-1,3.242071867E-1
1.600141253E0,-1.398840249E-1,1.571404636E-1,3.205420971E-1
1.602549066E0,-1.459924877E-1,1.559187621E-1,3.180987239E-1
1.604956097E0,-1.484358907E-1,1.571404636E-1,3.119902313E-1
1.607364014E0,-1.508792788E-1,1.608055383E-1,3.095468581E-1
1.609772607E0,-1.545443535E-1,1.669140160E-1,3.058817685E-1
1.612180472E0,-1.569877416E-1,1.742441803E-1,3.058817685E-1
1.614587503E0,-1.618745178E-1,1.803526580E-1,3.034383655E-1
1.616995368E0,-1.618745178E-1,1.876828223E-1,3.022166789E-1
1.619404014E0,-1.667613089E-1,1.937913001E-1,3.022166789E-1
1.621811878E0,-1.740914732E-1,1.950129867E-1,3.009949923E-1
1.624218909E0,-1.777565479E-1,1.950129867E-1,3.009949923E-1
1.626626774E0,-1.850867122E-1,1.889045089E-1,3.022166789E-1
1.629035420E0,-1.863084137E-1,1.840177327E-1,2.985515893E-1
1.631443284E0,-1.948602796E-1,1.730224788E-1,3.009949923E-1
1.633850264E0,-2.021904439E-1,1.583621502E-1,2.985515893E-1
1.636258180E0,-2.058555335E-1,1.412584335E-1,2.961082160E-1
1.638666826E0,-2.107423097E-1,1.241547018E-1,2.973299026E-1
1.641074639E0,-2.192941606E-1,1.021642014E-1,2.961082160E-1
1.643481670E0,-2.217375487E-1,8.017370105E-2,2.948864996E-1
1.645889586E0,-2.241809368E-1,5.573981255E-2,2.948864996E-1
1.648298180E0,-2.278460264E-1,2.886253223E-2,2.936648130E-1
1.650706045E0,-2.315111160E-1,7.635590737E-4,2.924431264E-1
1.653113076E0,-2.290677279E-1,-2.367033064E-2,2.899997234E-1
1.655520941E0,-2.351761907E-1,-5.176930502E-2,2.899997234E-1
1.657929586E0,-2.339545041E-1,-7.742489129E-2,2.875563502E-1
1.660337451E0,-2.327328026E-1,-1.018587798E-1,2.851129472E-1
1.662744430E0,-2.339545041E-1,-1.250709742E-1,2.814478874E-1
1.665152347E0,-2.327328026E-1,-1.458397806E-1,2.802261710E-1
1.667560993E0,-2.302894145E-1,-1.641651988E-1,2.777827978E-1
1.669968805E0,-2.290677279E-1,-1.812689304E-1,2.777827978E-1
1.672375836E0,-2.229592502E-1,-1.934858710E-1,2.765611112E-1
1.674783753E0,-2.217375487E-1,-2.032594234E-1,2.753393948E-1
1.677192347E0,-2.180724740E-1,-2.081461996E-1,2.753393948E-1
1.679600211E0,-2.107423097E-1,-2.105895877E-1,2.741177082E-1
1.682007243E0,-2.070772201E-1,-2.130329758E-1,2.716743052E-1
1.684415159E0,-1.997470558E-1,-2.105895877E-1,2.692309320E-1
1.686823753E0,-1.948602796E-1,-2.032594234E-1,2.680092454E-1
1.689231618E0,-1.911951900E-1,-1.983726472E-1,2.655658424E-1
1.691638649E0,-1.899735034E-1,-1.959292591E-1,2.606790662E-1
1.694046514E0,-1.887518018E-1,-1.959292591E-1,2.557922900E-1
1.696455159E0,-1.863084137E-1,-1.947075576E-1,2.496838123E-1
1.698863024E0,-1.863084137E-1,-1.983726472E-1,2.423536479E-1
1.701270003E0,-1.863084137E-1,-1.983726472E-1,2.313583940E-1
1.703677920E0,-1.826433241E-1,-1.934858710E-1,2.179197669E-1
1.706086566E0,-1.667613089E-1,-1.824906170E-1,1.959292591E-1
1.708494378E0,-1.484358907E-1,-1.739387512E-1,1.653869003E-1
1.710901409E0,-1.398840249E-1,-1.751604527E-1,1.336228400E-1
1.713309326E0,-1.349972486E-1,-1.885990947E-1,1.128540337E-1
1.715717920E0,-1.423274130E-1,-2.154763639E-1,1.067455560E-1
1.718125784E0,-1.496575773E-1,-2.399102598E-1,1.030804738E-1
1.720532816E0,-1.606528312E-1,-2.631224692E-1,1.006370857E-1
1.722940680E0,-1.679829955E-1,-2.863346636E-1,1.006370857E-1
1.725349326E0,-1.801999360E-1,-3.132119179E-1,1.043021679E-1
1.727757191E0,-1.936385781E-1,-3.413109183E-1,1.043021679E-1
1.730164170E0,-2.046338320E-1,-3.706315756E-1,1.055238619E-1
1.732572086E0,-2.131856978E-1,-3.926220834E-1,1.067455560E-1
1.734980732E0,-2.205158621E-1,-4.121691883E-1,1.067455560E-1
1.737388545E0,-2.278460264E-1,-4.243861437E-1,1.055238619E-1
1.739795576E0,-2.302894145E-1,-4.317162931E-1,1.067455560E-1
1.742203493E0,-2.327328026E-1,-4.402681589E-1,1.055238619E-1
1.744612139E0,-2.266243398E-1,-4.427115619E-1,1.030804738E-1
1.747019951E0,-2.205158621E-1,-4.414898455E-1,1.006370857E-1
1.749426982E0,-2.119639963E-1,-4.402681589E-1,9.697200358E-2
1.751834899E0,-1.960819662E-1,-4.353813827E-1,9.452861547E-2
1.754243493E0,-1.814216375E-1,-4.268295169E-1,9.086353332E-2
1.756651357E0,-1.643179059E-1,-4.182776511E-1,8.842013776E-2
1.759058389E0,-1.484358907E-1,-4.146125913E-1,8.353336155E-2
1.761466253E0,-1.252236813E-1,-4.048390090E-1,7.864658535E-2
1.763874899E0,-1.081199646E-1,-3.987305462E-1,7.620319724E-2
1.766282764E0,-8.612946421E-2,-3.889569938E-1,6.887302548E-2
1.768689743E0,-7.146912813E-2,-3.804051280E-1,6.765133142E-2
1.771097659E0,-5.803048983E-2,-3.755183518E-1,6.642963737E-2
1.773506305E0,-4.825693369E-2,-3.706315756E-1,6.520794332E-2
1.775914118E0,-4.092676565E-2,-3.645231128E-1,6.398624927E-2
1.778321149E0,-3.603998944E-2,-3.608580232E-1,6.765133142E-2
1.780729066E0,-3.481829539E-2,-3.584146202E-1,6.765133142E-2
1.783137659E0,-3.603998944E-2,-3.620797098E-1,7.009471953E-2
1.785545524E0,-3.848337755E-2,-3.620797098E-1,7.375980914E-2
1.787952555E0,-4.825693369E-2,-3.633013964E-1,7.742489129E-2
1.790360420E0,-5.070032179E-2,-3.657447994E-1,7.742489129E-2
1.792769066E0,-5.558710173E-2,-3.706315756E-1,7.986827940E-2
1.795176930E0,-6.536065787E-2,-3.755183518E-1,7.864658535E-2
1.797583909E0,-7.146912813E-2,-3.804051280E-1,7.620319724E-2
1.799991826E0,-7.635590434E-2,-3.877353072E-1,7.498150319E-2
1.802400472E0,-8.246438205E-2,-3.901786804E-1,7.620319724E-2
1.804808336E0,-8.612946421E-2,-3.950654566E-1,7.375980914E-2
1.807215316E0,-8.490777016E-2,-3.950654566E-1,7.253811508E-2
1.809623232E0,-8.735115826E-2,-3.962871730E-1,7.009471953E-2
1.812031878E0,-8.857285231E-2,-3.962871730E-1,6.642963737E-2
1.814439691E0,-8.490777016E-2,-3.950654566E-1,6.276455522E-2
1.816846722E0,-8.246438205E-2,-3.926220834E-1,6.154286116E-2
1.819254639E0,-7.879929990E-2,-3.901786804E-1,5.909947306E-2
1.821663232E0,-7.513421029E-2,-3.828485310E-1,5.543438718E-2
1.824071097E0,-7.146912813E-2,-3.742966652E-1,5.176930502E-2
1.826478128E0,-7.146912813E-2,-3.669664860E-1,5.176930502E-2
1.828885993E0,-6.902574003E-2,-3.584146202E-1,5.054761097E-2
1.831294639E0,-6.413896382E-2,-3.474193811E-1,4.932591692E-2
1.833702503E0,-6.413896382E-2,-3.376458287E-1,4.688252881E-2
1.836109482E0,-5.803048983E-2,-3.290939629E-1,4.810422286E-2
1.838517399E0,-5.558710173E-2,-3.180987239E-1,4.688252881E-2
1.840926045E0,-4.947862774E-2,-3.071034551E-1,4.810422286E-2
1.843333857E0,-4.092676565E-2,-2.948864996E-1,4.688252881E-2
1.845740889E0,-3.848337755E-2,-2.887780368E-1,4.810422286E-2
1.848148805E0,-2.870982140E-2,-2.728960216E-1,4.932591692E-2
1.850557399E0,-2.015795931E-2,-2.606790662E-1,4.688252881E-2
1.852965264E0,-1.160609815E-2,-2.484621257E-1,4.810422286E-2
1.855372295E0,6.108472589E-4,-2.386885732E-1,4.810422286E-2
1.857780159E0,1.282779220E-2,-2.264716178E-1,4.810422286E-2
1.860188805E0,2.382304333E-2,-2.179197669E-1,4.688252881E-2
1.862596670E0,3.603998944E-2,-2.069245130E-1,4.810422286E-2
1.865003649E0,5.192201585E-2,-1.971509457E-1,4.810422286E-2
1.867411566E0,6.780404598E-2,-1.885990947E-1,4.810422286E-2
1.869820211E0,8.368607610E-2,-1.812689304E-1,4.810422286E-2
1.872228024E0,1.007898003E-1,-1.702736765E-1,4.932591692E-2
1.874635055E0,1.178935245E-1,-1.641651988E-1,4.688252881E-2
1.877042972E0,1.349972486E-1,-1.568350345E-1,4.566083103E-2
1.879451566E0,1.508792788E-1,-1.519482583E-1,4.443913698E-2
1.881859430E0,1.692046970E-1,-1.433963925E-1,4.199574888E-2
1.884266461E0,1.875301152E-1,-1.324011385E-1,4.077405483E-2
1.886674326E0,2.009687424E-1,-1.262926757E-1,4.077405483E-2
1.889082972E0,2.205158621E-1,-1.165191159E-1,3.588727489E-2
1.891490836E0,2.327328026E-1,-1.116323397E-1,3.222219273E-2
1.893897868E0,2.486148328E-1,-1.055238619E-1,2.855710872E-2
1.896305732E0,2.620534599E-1,-1.006370857E-1,2.367033064E-2
1.898714378E0,2.779355049E-1,-9.452861547E-2,2.244863659E-2
1.901122243E0,2.925958335E-1,-8.719844371E-2,1.878355257E-2
1.903529222E0,3.048127890E-1,-8.475505561E-2,1.389677543E-2
1.905937139E0,3.170297146E-1,-8.231166750E-2,9.009997360E-3
1.908345732E0,3.304683566E-1,-7.742489129E-2,6.566607859E-3
1.910753597E0,3.426853120E-1,-7.375980914E-2,4.123218823E-3
1.913160628E0,3.524588645E-1,-7.375980914E-2,-7.635590737E-4
1.915568545E0,3.622324169E-1,-7.131642103E-2,-5.650337320E-3
1.917977139E0,3.744493723E-1,-6.765133142E-2,-8.093725890E-3
1.920385003E0,3.854446113E-1,-6.642963737E-2,-9.315420873E-3
1.922792034E0,3.939964771E-1,-6.642963737E-2,-1.542389300E-2
1.925199899E0,4.037700295E-1,-6.520794332E-2,-1.786728203E-2
1.927608545E0,4.111002088E-1,-6.887302548E-2,-2.153236605E-2
1.930016409E0,4.208737612E-1,-6.887302548E-2,-2.641914412E-2
1.932423389E0,4.306473136E-1,-6.887302548E-2,-3.008422814E-2
1.934831305E0,4.355340898E-1,-7.009471953E-2,-3.130592033E-2
1.937239951E0,4.416425824E-1,-7.253811508E-2,-3.252761811E-2
1.939647764E0,4.477510452E-1,-7.375980914E-2,-3.497100621E-2
1.942054795E0,4.550811946E-1,-7.375980914E-2,-3.619270027E-2
1.944462711E0,4.636330605E-1,-7.375980914E-2,-3.863608837E-2
1.946871305E0,4.672981501E-1,-7.498150319E-2,-3.863608837E-2
1.949279170E0,4.709632397E-1,-7.375980914E-2,-3.863608837E-2
1.951686201E0,4.734066129E-1,-7.375980914E-2,-3.741439432E-2
1.954094066E0,4.734066129E-1,-7.498150319E-2,-3.863608837E-2
1.956502711E0,4.782933891E-1,-7.498150319E-2,-3.985778242E-2
1.958910576E0,4.831801951E-1,-7.620319724E-2,-3.985778242E-2
1.961317555E0,4.819584787E-1,-7.864658535E-2,-3.863608837E-2
1.963725472E0,4.856235683E-1,-7.742489129E-2,-3.619270027E-2
1.966134118E0,4.868452549E-1,-7.742489129E-2,-3.497100621E-2
1.968541930E0,4.856235683E-1,-7.986827940E-2,-3.374931216E-2
1.970948961E0,4.819584787E-1,-7.742489129E-2,-3.008422814E-2
1.973356878E0,4.782933891E-1,-7.986827940E-2,-2.886253223E-2
1.975765472E0,4.758500159E-1,-7.864658535E-2,-2.519745007E-2
1.978173336E0,4.721849263E-1,-7.742489129E-2,-2.153236605E-2
1.980580368E0,4.648547769E-1,-7.498150319E-2,-1.786728203E-2
1.982988232E0,4.563029110E-1,-7.253811508E-2,-1.420219894E-2
1.985396878E0,4.501944184E-1,-6.765133142E-2,-9.315420873E-3
1.987804743E0,4.428642690E-1,-6.765133142E-2,-3.206948051E-3
1.990211722E0,4.330907166E-1,-6.276455522E-2,4.581354442E-4
1.992619639E0,4.269822240E-1,-5.787777901E-2,4.123218823E-3
1.995028284E0,4.172086716E-1,-5.665608495E-2,9.009997360E-3
1.997436097E0,4.013266563E-1,-5.909947306E-2,1.267508045E-2
1.999843128E0,3.927747905E-1,-6.398624927E-2,1.634016447E-2
2.002251045E0,3.817795515E-1,-6.887302548E-2,1.634016447E-2
2.004659691E0,3.707842827E-1,-7.498150319E-2,2.122694254E-2
2.007067503E0,3.597890437E-1,-8.231166750E-2,2.367033064E-2
2.009474534E0,3.475720882E-1,-8.964183182E-2,2.733541466E-2
2.011882399E0,3.390202224E-1,-9.819369763E-2,2.855710872E-2
2.014291045E0,3.280249834E-1,-1.067455560E-1,3.100049868E-2
2.016698909E0,3.170297146E-1,-1.140757278E-1,3.344388679E-2
2.019105889E0,3.109212518E-1,-1.214058921E-1,3.588727489E-2
2.021513805E0,3.035911024E-1,-1.324011385E-1,3.588727489E-2
2.023922451E0,2.962609231E-1,-1.421747059E-1,3.710897267E-2
2.026330316E0,2.877090573E-1,-1.531699449E-1,3.833066672E-2
2.028737295E0,2.840439677E-1,-1.641651988E-1,3.833066672E-2
2.031145211E0,2.742704153E-1,-1.788255423E-1,3.710897267E-2
2.033553857E0,2.681619525E-1,-1.934858710E-1,3.955236077E-2
2.035961670E0,2.596100867E-1,-2.093679011E-1,4.443913698E-2
2.038368701E0,2.547233105E-1,-2.228065431E-1,4.443913698E-2
2.040776618E0,2.461714447E-1,-2.362451702E-1,4.932591692E-2
2.043185211E0,2.400629669E-1,-2.496838123E-1,5.054761097E-2
2.045593076E0,2.290677279E-1,-2.631224692E-1,5.543438718E-2
2.048000107E0,2.241809368E-1,-2.765611112E-1,5.787777901E-2
2.050407972E0,2.192941606E-1,-2.863346636E-1,6.154286116E-2
2.052816618E0,2.144073844E-1,-2.985515893E-1,6.398624927E-2
2.055224482E0,2.107423097E-1,-3.107685447E-1,6.765133142E-2
2.057631461E0,2.058555335E-1,-3.217637837E-1,6.765133142E-2
2.060039378E0,2.046338320E-1,-3.303156495E-1,7.131642103E-2
2.062448024E0,2.058555335E-1,-3.437542915E-1,7.375980914E-2
2.064855836E0,2.046338320E-1,-3.596363366E-1,7.742489129E-2
2.067262868E0,2.021904439E-1,-3.730749488E-1,7.986827940E-2
2.069670784E0,2.034121305E-1,-3.950654566E-1,8.108997345E-2
2.072079378E0,2.034121305E-1,-4.158342779E-1,7.986827940E-2
2.074487243E0,2.046338320E-1,-4.378247857E-1,8.353336155E-2
2.076894274E0,2.107423097E-1,-4.622586668E-1,8.475505561E-2
2.079302139E0,2.131856978E-1,-4.879142344E-1,8.719844371E-2
2.081710784E0,2.144073844E-1,-5.196782947E-1,8.842013776E-2
2.084118649E0,2.217375487E-1,-5.514423847E-1,8.964183182E-2
2.086525628E0,2.254026383E-1,-5.832064152E-1,9.330692142E-2
2.088933545E0,2.302894145E-1,-6.210789680E-1,9.208522737E-2
2.091342191E0,2.327328026E-1,-6.589514613E-1,9.208522737E-2
2.093750003E0,2.388412803E-1,-6.968240142E-1,9.330692142E-2
2.096157034E0,2.412846684E-1,-7.322531343E-1,9.575030953E-2
2.098564951E0,2.461714447E-1,-7.627955079E-1,9.575030953E-2
2.100973545E0,2.547233105E-1,-7.957812548E-1,9.819369763E-2
2.103381409E0,2.596100867E-1,-8.251019120E-1,9.819369763E-2
2.105788441E0,2.632751763E-1,-8.532009125E-1,9.697200358E-2
2.108196305E0,2.693836391E-1,-8.776348233E-1,9.697200358E-2
2.110604951E0,2.706053257E-1,-9.008470178E-1,9.575030953E-2
2.113012816E0,2.754921019E-1,-9.167290330E-1,9.330692142E-2
2.115419795E0,2.828222811E-1,-9.338327646E-1,9.086353332E-2
2.117827711E0,2.889307439E-1,-9.484930634E-1,8.842013776E-2
2.120236357E0,2.962609231E-1,-9.619317055E-1,8.475505561E-2
2.122644170E0,2.987042964E-1,-9.729269743E-1,8.108997345E-2
2.125051201E0,3.060344756E-1,-9.827005267E-1,7.986827940E-2
2.127459118E0,3.096995652E-1,-9.936957955E-1,7.620319724E-2
2.129867711E0,3.158080280E-1,-1.001025915E0,7.253811508E-2
2.132275576E0,3.243598938E-1,-1.002247691E0,7.131642103E-2
2.134682607E0,3.268032968E-1,-1.008356094E0,6.642963737E-2
2.137090472E0,3.377985358E-1,-1.005912781E0,6.398624927E-2
2.139499118E0,3.487937748E-1,-1.004691005E0,5.787777901E-2
2.141906982E0,3.597890437E-1,-9.949174523E-1,5.421269313E-2
2.144313961E0,3.720059693E-1,-9.875873327E-1,4.932591692E-2
2.146721878E0,3.842229247E-1,-9.704836011E-1,4.688252881E-2
2.149130524E0,4.001049399E-1,-9.533798695E-1,4.443913698E-2
2.151538336E0,4.159869850E-1,-9.289459586E-1,3.955236077E-2
2.153945368E0,4.330907166E-1,-9.057337642E-1,3.466558084E-2
2.156353284E0,4.477510452E-1,-8.751913905E-1,2.855710872E-2
2.158761878E0,4.660764635E-1,-8.434273601E-1,2.367033064E-2
2.161169743E0,4.819584787E-1,-8.079982400E-1,1.511846948E-2
2.163576722E0,4.941754341E-1,-7.689039707E-1,7.788302377E-3
2.165984639E0,5.063923597E-1,-7.334748507E-1,2.901524538E-3
2.168393284E0,5.137225389E-1,-6.956022978E-1,-3.206948051E-3
2.170801149E0,5.234960914E-1,-6.552863717E-1,-6.872031838E-3
2.173208128E0,5.247178078E-1,-6.149705052E-1,-1.985253533E-3
2.175616045E0,5.344913602E-1,-5.734328628E-1,4.581354442E-4
2.178024639E0,5.381564498E-1,-5.318952799E-1,6.566607859E-3
2.180432503E0,5.381564498E-1,-4.928010404E-1,1.756185852E-2
2.182839534E0,5.381564498E-1,-4.512633979E-1,2.855710872E-2
2.185247451E0,5.344913602E-1,-4.121691883E-1,4.566083103E-2
2.187656045E0,5.332696438E-1,-3.718532622E-1,5.787777901E-2
2.190063909E0,5.222744346E-1,-3.364241421E-1,7.620319724E-2
2.192470889E0,5.112791657E-1,-3.034383655E-1,9.452861547E-2
2.194878805E0,4.978405237E-1,-2.728960216E-1,1.104106456E-1
2.197287451E0,4.807367921E-1,-2.423536479E-1,1.275143623E-1
2.199695316E0,4.660764635E-1,-2.118112892E-1,1.446180940E-1
2.202102295E0,4.489727318E-1,-1.885990947E-1,1.617218107E-1
2.204510211E0,4.330907166E-1,-1.666085869E-1,1.800472289E-1
2.206918857E0,4.208737612E-1,-1.495048702E-1,1.983726472E-1
2.209326670E0,4.062134326E-1,-1.397313178E-1,2.130329758E-1
2.211733701E0,3.952181637E-1,-1.324011385E-1,2.264716178E-1
2.214141566E0,3.830012381E-1,-1.287360638E-1,2.386885732E-1
2.216550211E0,3.683409095E-1,-1.226275861E-1,2.484621257E-1
2.218958076E0,3.512371778E-1,-1.116323397E-1,2.606790662E-1
2.221365055E0,3.243598938E-1,-9.819369763E-2,2.716743052E-1
2.223772972E0,2.987042964E-1,-7.498150319E-2,2.814478874E-1
2.226181618E0,2.681619525E-1,-5.054761097E-2,2.851129472E-1
2.228589430E0,2.351761907E-1,-2.244863659E-2,2.875563502E-1
2.230996461E0,1.960819662E-1,5.650337320E-3,2.851129472E-1
2.233404378E0,1.557660550E-1,4.352286831E-2,2.790044844E-1
2.235812972E0,1.203369126E-1,8.139539510E-2,2.680092454E-1
2.238220836E0,8.002099395E-2,1.217113137E-1,2.521272004E-1
2.240627868E0,4.092676565E-2,1.681357026E-1,2.374668717E-1
2.243035732E0,7.941014133E-3,2.218902707E-1,2.215848416E-1
2.245444378E0,-2.260134928E-2,2.719797492E-1,2.032594234E-1
2.247852243E0,-5.192201585E-2,3.257342875E-1,1.849340051E-1
2.250259222E0,-7.513421029E-2,3.782671690E-1,1.666085869E-1
2.252667139E0,-9.834641218E-2,4.283566475E-1,1.507265568E-1
2.255075784E0,-1.105633527E-1,4.735593498E-1,1.311794519E-1
2.257483597E0,-1.276670843E-1,5.114318728E-1,1.152974218E-1
2.259890628E0,-1.398840249E-1,5.480827093E-1,9.819369763E-2
2.262298545E0,-1.545443535E-1,5.761816502E-1,8.231166750E-2
2.264707139E0,-1.655396074E-1,5.993938446E-1,6.398624927E-2
2.267115003E0,-1.801999360E-1,6.116108298E-1,4.443913698E-2
2.269522034E0,-1.973036677E-1,6.128324866E-1,2.367033064E-2
2.271929899E0,-2.156290859E-1,6.079457402E-1,4.581354442E-4
2.274338545E0,-2.327328026E-1,6.030589342E-1,-2.275406010E-2
2.276746409E0,-2.547233105E-1,5.945070982E-1,-4.718795046E-2
2.279153389E0,-2.742704153E-1,5.908420086E-1,-6.917845458E-2
2.281561305E0,-2.962609231E-1,5.847335458E-1,-9.361234307E-2
2.283969951E0,-3.158080280E-1,5.871769190E-1,-1.192679256E-1
2.286377764E0,-3.365768492E-1,6.018372774E-1,-1.400367320E-1
2.288784795E0,-3.475720882E-1,6.287145615E-1,-1.608055383E-1
2.291192711E0,-3.597890437E-1,6.617003083E-1,-1.766875684E-1
2.293601305E0,-3.646758199E-1,7.056813240E-1,-1.937913001E-1
2.296009170E0,-3.695625961E-1,7.594358325E-1,-2.035648525E-1
2.298416149E0,-3.683409095E-1,8.266290426E-1,-2.096733153E-1
2.300824066E0,-3.658975065E-1,9.011524320E-1,-2.096733153E-1
2.303232711E0,-3.622324169E-1,9.732323885E-1,-2.060082406E-1
2.305640524E0,-3.585673273E-1,1.044090629E0,-1.998997629E-1
2.308047555E0,-3.573456407E-1,1.112505555E0,-1.913478971E-1
2.310455472E0,-3.549022675E-1,1.174811959E0,-1.791309565E-1
2.312864066E0,-3.487937748E-1,1.233453274E0,-1.644706279E-1
2.315271930E0,-3.500154912E-1,1.285986185E0,-1.473668963E-1
2.317678961E0,-3.524588645E-1,1.336075664E0,-1.241547018E-1
2.320086826E0,-3.524588645E-1,1.380056620E0,-1.033858955E-1
2.322495472E0,-3.512371778E-1,1.417929173E0,-8.017370105E-2
2.324903336E0,-3.512371778E-1,1.448471546E0,-6.062658876E-2
2.327310316E0,-3.573456407E-1,1.472905397E0,-3.741439432E-2
2.329718232E0,-3.720059693E-1,1.488787532E0,-1.298050396E-2
2.332126878E0,-3.805578351E-1,1.504669547E0,1.023169141E-2
2.334534691E0,-3.915531039E-1,1.507112861E0,3.344388679E-2
2.336941722E0,-4.074351192E-1,1.503447771E0,5.299099907E-2
2.339349639E0,-4.294256270E-1,1.496117592E0,7.253811508E-2
2.341758232E0,-4.550811946E-1,1.487565756E0,9.086353332E-2
2.344166097E0,-4.844018817E-1,1.471683741E0,1.030804738E-1
2.346573128E0,-5.173876286E-1,1.450914979E0,1.177408099E-1
2.348980993E0,-5.467082858E-1,1.430146098E0,1.238492802E-1
2.351389639E0,-5.784723759E-1,1.411820769E0,1.275143623E-1
2.353797503E0,-6.102364063E-1,1.393495321E0,1.262926757E-1
2.356204482E0,-6.407787800E-1,1.378834963E0,1.226275861E-1
2.358612399E0,-6.652126908E-1,1.366618037E0,1.165191159E-1
2.361021045E0,-6.847597957E-1,1.359287858E0,1.079672500E-1
2.363428857E0,-7.030851841E-1,1.360509515E0,9.452861547E-2
2.365835889E0,-7.140804529E-1,1.369061470E0,8.108997345E-2
2.368243753E0,-7.201889157E-1,1.387386799E0,7.009471953E-2
2.370652399E0,-7.226322889E-1,1.409377337E0,5.787777901E-2
2.373060264E0,-7.226322889E-1,1.433811188E0,4.199574888E-2
2.375467243E0,-7.214106321E-1,1.458245158E0,2.855710872E-2
2.377875159E0,-7.153021693E-1,1.483900666E0,1.145338640E-2
2.380283805E0,-7.091936469E-1,1.503447771E0,-4.428642802E-3
2.382691618E0,-7.043069005E-1,1.520551562E0,-2.275406010E-2
2.385098649E0,-6.908682585E-1,1.533990145E0,-4.474456236E-2
2.387506566E0,-6.810947061E-1,1.548650503E0,-6.551336497E-2
2.389915211E0,-6.725428104E-1,1.551093936E0,-8.750387281E-2
2.392323024E0,-6.688777208E-1,1.544985414E0,-1.143811494E-1
2.394730055E0,-6.615476012E-1,1.525438309E0,-1.449235082E-1
2.397137920E0,-6.615476012E-1,1.491230845E0,-1.742441803E-1
2.399546566E0,-6.688777208E-1,1.435032964E0,-2.108950168E-1
2.401954430E0,-6.920899153E-1,1.351957679E0,-2.499892414E-1
2.404361409E0,-7.214106321E-1,1.251778722E0,-2.915268540E-1
2.406769326E0,-7.568397522E-1,1.140604496E0,-3.306210935E-1
2.409177972E0,-7.910472155E-1,1.022100210E0,-3.672719002E-1
2.411585784E0,-8.264763355E-1,9.048175216E-1,-4.027010500E-1
2.413992816E0,-8.570187092E-1,7.985301018E-1,-4.381301999E-1
2.416400732E0,-8.863393664E-1,6.873558760E-1,-4.747810364E-1
2.418809326E0,-9.132166505E-1,5.774033666E-1,-5.077667832E-1
2.421217191E0,-9.413156509E-1,4.698942602E-1,-5.383091569E-1
2.423624170E0,-9.694145918E-1,3.587200642E-1,-5.725166202E-1
2.426032086E0,-9.962918758E-1,2.451024652E-1,-5.993938446E-1
2.428440732E0,-1.021947503E0,1.424801201E-1,-6.238277555E-1
2.430848545E0,-1.040272832E0,6.551336497E-2,-6.433748603E-1
2.433255576E0,-1.052489877E0,2.153236605E-2,-6.580352187E-1
2.435663493E0,-1.053711534E0,5.650337320E-3,-6.665870547E-1
2.438072086E0,-1.047603011E0,6.872031838E-3,-6.739172339E-1
2.440479951E0,-1.041494608E0,1.420219894E-2,-6.775823236E-1
2.442886982E0,-1.028055906E0,3.130592033E-2,-6.775823236E-1
2.445294847E0,-1.013395548E0,5.818320066E-2,-6.751389503E-1
2.447703493E0,-9.914051294E-1,9.727742523E-2,-6.702521443E-1
2.450111357E0,-9.681929350E-1,1.388150454E-1,-6.641436815E-1
2.452518336E0,-9.437590241E-1,1.840177327E-1,-6.592568755E-1
2.454926253E0,-9.193251133E-1,2.292204350E-1,-6.519267559E-1
2.457334899E0,-8.948912621E-1,2.695363462E-1,-6.458182931E-1
2.459742711E0,-8.716790676E-1,3.049654961E-1,-6.397097707E-1
2.462149743E0,-8.423583508E-1,3.342861533E-1,-6.360446811E-1
2.464557607E0,-8.142594099E-1,3.636068404E-1,-6.323796511E-1
2.466966253E0,-7.886037827E-1,3.868190348E-1,-6.336013079E-1
2.469374118E0,-7.592831254E-1,4.075878263E-1,-6.336013079E-1
2.471781149E0,-7.324058414E-1,4.259132445E-1,-6.348230243E-1
2.474189014E0,-7.030851841E-1,4.466820657E-1,-6.384881139E-1
2.476597659E0,-6.737645268E-1,4.723376334E-1,-6.384881139E-1
2.479005472E0,-6.407787800E-1,4.992149174E-1,-6.397097707E-1
2.481412503E0,-6.090146899E-1,5.334223509E-1,-6.372663975E-1
2.483820420E0,-5.784723759E-1,5.700731874E-1,-6.336013079E-1
2.486229014E0,-5.454866290E-1,6.140542030E-1,-6.311579347E-1
2.488636878E0,-5.076140761E-1,6.531484127E-1,-6.299362183E-1
2.491043909E0,-4.758500159E-1,6.885775924E-1,-6.274928451E-1
2.493451774E0,-4.391991794E-1,7.178982496E-1,-6.299362183E-1
2.495860420E0,-4.037700295E-1,7.459971905E-1,-6.323796511E-1
2.498268284E0,-3.646758199E-1,7.667660117E-1,-6.409314871E-1
2.500675264E0,-3.280249834E-1,7.838697433E-1,-6.507050395E-1
2.503083180E0,-2.889307439E-1,7.973083854E-1,-6.641436815E-1
2.505491826E0,-2.486148328E-1,8.021951914E-1,-6.751389503E-1
2.507899639E0,-2.070772201E-1,8.009734750E-1,-6.836907864E-1
2.510306670E0,-1.679829955E-1,7.960866690E-1,-6.934643388E-1
2.512714534E0,-1.337755471E-1,7.838697433E-1,-7.044596076E-1
2.515123180E0,-9.956810623E-2,7.667660117E-1,-7.130114436E-1
2.517531045E0,-6.780404598E-2,7.459971905E-1,-7.178982496E-1
2.519938024E0,-3.970507160E-2,7.191199064E-1,-7.276718020E-1
2.522345941E0,-1.771457121E-2,6.910209656E-1,-7.350019813E-1
2.524754586E0,7.941014133E-3,6.604785919E-1,-7.398887277E-1
2.527162399E0,2.137965336E-2,6.274928451E-1,-7.435538173E-1
2.529569430E0,3.237490356E-2,5.957288146E-1,-7.472189069E-1
2.531977347E0,3.726168349E-2,5.602996349E-1,-7.508839965E-1
2.534385941E0,3.359659761E-2,5.273138881E-1,-7.545490861E-1
2.536793805E0,3.115320951E-2,5.004366040E-1,-7.557707429E-1
2.539200836E0,1.893626526E-2,4.686725736E-1,-7.557707429E-1
2.541608701E0,1.832541777E-3,4.466820657E-1,-7.508839965E-1
2.544017347E0,-1.649287529E-2,4.246915579E-1,-7.472189069E-1
2.546425211E0,-4.092676565E-2,4.100312293E-1,-7.398887277E-1
2.548832191E0,-6.658235192E-2,3.953709006E-1,-7.301151752E-1
2.551240107E0,-9.712471068E-2,3.855973184E-1,-7.191199064E-1
2.553648701E0,-1.264453828E-1,3.746020794E-1,-7.044596076E-1
2.556056566E0,-1.643179059E-1,3.697153032E-1,-6.873558760E-1
2.558463597E0,-1.948602796E-1,3.672719002E-1,-6.702521443E-1
2.560871461E0,-2.254026383E-1,3.574983478E-1,-6.555918455E-1
2.563280107E0,-2.596100867E-1,3.501681983E-1,-6.348230243E-1
2.565687972E0,-2.901524603E-1,3.452814221E-1,-6.152759194E-1
2.568094951E0,-3.182514310E-1,3.379512429E-1,-5.969504714E-1
2.570502868E0,-3.487937748E-1,3.293993771E-1,-5.737382770E-1
2.572911514E0,-3.695625961E-1,3.220692277E-1,-5.529694557E-1
2.575319326E0,-3.903313875E-1,3.098522723E-1,-5.334223509E-1
2.577726357E0,-4.098785222E-1,3.000787199E-1,-5.114318728E-1
2.580134274E0,-4.294256270E-1,2.841966748E-1,-4.918847680E-1
2.582542868E0,-4.404208660E-1,2.695363462E-1,-4.686725736E-1
2.584950732E0,-4.538595080E-1,2.548760176E-1,-4.454603493E-1
2.587357764E0,-4.611896873E-1,2.438807636E-1,-4.222481549E-1
2.589765628E0,-4.660764635E-1,2.292204350E-1,-3.990359604E-1
2.592174274E0,-4.697415531E-1,2.157817930E-1,-3.770454824E-1
2.594582086E0,-4.685198367E-1,2.072299272E-1,-3.538332880E-1
2.596989118E0,-4.624113739E-1,1.998997629E-1,-3.306210935E-1
2.599397034E0,-4.538595080E-1,1.925695986E-1,-3.098522723E-1
2.601805628E0,-4.477510452E-1,1.901262105E-1,-2.841966748E-1
2.604213493E0,-4.355340898E-1,1.913478971E-1,-2.597627938E-1
2.606620524E0,-4.220954478E-1,1.950129867E-1,-2.377723008E-1
2.609028389E0,-4.037700295E-1,1.998997629E-1,-2.170034945E-1
2.611437034E0,-3.903313875E-1,2.047865391E-1,-1.974563748E-1
2.613844899E0,-3.695625961E-1,2.072299272E-1,-1.803526580E-1
2.616251878E0,-3.451287150E-1,2.096733153E-1,-1.656923145E-1
2.618659795E0,-3.219164908E-1,2.121167034E-1,-1.522536725E-1
2.621068441E0,-2.950392365E-1,2.133384049E-1,-1.412584335E-1
2.623476253E0,-2.632751763E-1,2.133384049E-1,-1.290414780E-1
2.625883284E0,-2.327328026E-1,2.121167034E-1,-1.229330078E-1
2.628291149E0,-1.997470558E-1,2.121167034E-1,-1.168245375E-1
2.630699795E0,-1.679829955E-1,2.072299272E-1,-1.107160673E-1
2.633107659E0,-1.313321590E-1,2.096733153E-1,-1.070509851E-1
2.635514639E0,-9.712471068E-2,2.108950168E-1,-1.033858955E-1
2.637922555E0,-6.291726977E-2,2.108950168E-1,-1.009425074E-1
2.640331201E0,-2.626643144E-2,2.145601064E-1,-9.972081333E-2
2.642739014E0,1.832541777E-3,2.170034945E-1,-9.483403713E-2
2.645146045E0,2.993151546E-2,2.243336588E-1,-9.116895497E-2
2.647553961E0,5.680879578E-2,2.304421216E-1,-8.872556686E-2
2.649962555E0,8.002099395E-2,2.328855246E-1,-8.506047726E-2
2.652370420E0,9.345962852E-2,2.365505993E-1,-8.506047726E-2
2.654777451E0,1.081199646E-1,2.451024652E-1,-7.895200700E-2
2.657185316E0,1.166718230E-1,2.487675399E-1,-7.650861889E-2
2.659593961E0,1.203369126E-1,2.548760176E-1,-7.162184268E-2
2.662001826E0,1.227803007E-1,2.585411072E-1,-6.673506647E-2
2.664408805E0,1.191152185E-1,2.646495700E-1,-6.184828654E-2
2.666816722E0,1.068982705E-1,2.707580328E-1,-5.451811850E-2
2.669225368E0,9.712471068E-2,2.768665254E-1,-4.718795046E-2
2.671633180E0,8.612946421E-2,2.793098986E-1,-3.985778242E-2
2.674040211E0,6.780404598E-2,2.768665254E-1,-3.374931216E-2
2.676448076E0,4.703523964E-2,2.780882120E-1,-2.031067200E-2
2.678856722E0,3.115320951E-2,2.768665254E-1,-1.053711493E-2
2.681264586E0,1.038440317E-2,2.732014358E-1,4.581354442E-4
2.683671566E0,-1.160609815E-2,2.719797492E-1,1.023169141E-2
2.686079482E0,-2.993151546E-2,2.768665254E-1,2.122694254E-2
2.688488128E0,-5.192201585E-2,2.780882120E-1,3.100049868E-2
2.690895941E0,-7.146912813E-2,2.854183912E-1,4.199574888E-2
2.693302972E0,-8.735115826E-2,2.964136302E-1,5.421269313E-2
2.695710889E0,-1.081199646E-1,3.135173619E-1,6.642963737E-2
2.698119482E0,-1.276670843E-1,3.269560039E-1,7.620319724E-2
2.700527347E0,-1.398840249E-1,3.489464819E-1,8.842013776E-2
2.702934378E0,-1.521009654E-1,3.672719002E-1,9.941539168E-2
2.705342243E0,-1.630962193E-1,3.868190348E-1,1.091889441E-1
2.707750889E0,-1.777565479E-1,4.149180055E-1,1.250709742E-1
2.710158701E0,-1.789782494E-1,4.356867969E-1,1.372879148E-1
2.712565732E0,-1.887518018E-1,4.588989913E-1,1.507265568E-1
2.714973649E0,-1.875301152E-1,4.821111858E-1,1.629435122E-1
2.717382243E0,-1.838650256E-1,5.053234100E-1,1.763821393E-1
2.719790107E0,-1.789782494E-1,5.260922313E-1,1.861557066E-1
2.722197139E0,-1.716480851E-1,5.407525301E-1,1.947075576E-1
2.724605003E0,-1.630962193E-1,5.529694557E-1,2.020377368E-1
2.727013649E0,-1.533226669E-1,5.639647245E-1,2.105895877E-1
2.729421514E0,-1.349972486E-1,5.737382770E-1,2.154763639E-1
2.731828493E0,-1.191152185E-1,5.786250830E-1,2.191414535E-1
2.734236409E0,-9.834641218E-2,5.847335458E-1,2.228065431E-1
2.736645055E0,-7.635590434E-2,5.871769190E-1,2.252499312E-1
2.739052868E0,-5.314370990E-2,5.908420086E-1,2.276933193E-1
2.741459899E0,-3.115320951E-2,5.957288146E-1,2.289150059E-1
2.743867816E0,-6.719320081E-3,6.006155610E-1,2.301367074E-1
2.746276409E0,1.282779220E-2,6.067240238E-1,2.338017821E-1
2.748684274E0,3.481829539E-2,6.116108298E-1,2.325800955E-1
2.751091253E0,5.803048983E-2,6.201626658E-1,2.350234836E-1
2.753499170E0,7.513421029E-2,6.299362183E-1,2.374668717E-1
2.755907816E0,8.979454637E-2,6.397097707E-1,2.423536479E-1
2.758315628E0,1.081199646E-1,6.494833231E-1,2.460187376E-1
2.760722659E0,1.227803007E-1,6.592568755E-1,2.472404242E-1
2.763130576E0,1.313321590E-1,6.702521443E-1,2.509055138E-1
2.765539170E0,1.423274130E-1,6.812474132E-1,2.557922900E-1
2.767947034E0,1.533226669E-1,6.983511448E-1,2.655658424E-1
2.770354066E0,1.582094431E-1,7.154548764E-1,2.753393948E-1
2.772761930E0,1.655396074E-1,7.301151752E-1,2.814478874E-1
2.775170576E0,1.753131598E-1,7.386670709E-1,2.875563502E-1
2.777578441E0,1.753131598E-1,7.447755337E-1,2.948864996E-1
2.779985420E0,1.838650256E-1,7.484406233E-1,2.997733057E-1
2.782393336E0,1.899735034E-1,7.459971905E-1,3.034383655E-1
2.784801930E0,1.960819662E-1,7.435538173E-1,3.095468581E-1
2.787209795E0,2.107423097E-1,7.386670709E-1,3.132119179E-1
2.789616826E0,2.168507725E-1,7.288935184E-1,3.193204105E-1
2.792024743E0,2.241809368E-1,7.191199064E-1,3.254288733E-1
2.794433336E0,2.363978922E-1,7.069029808E-1,3.315373361E-1
2.796841201E0,2.498365343E-1,6.934643388E-1,3.364241421E-1
2.799248232E0,2.608317733E-1,6.836907864E-1,3.449759781E-1
2.801656097E0,2.730487287E-1,6.775823236E-1,3.523061574E-1
2.804064743E0,2.901524603E-1,6.751389503E-1,3.608580232E-1
2.806472555E0,3.048127890E-1,6.726955175E-1,3.706315756E-1
2.808879586E0,3.182514310E-1,6.751389503E-1,3.779617548E-1
2.811287503E0,3.316900730E-1,6.873558760E-1,3.877353072E-1
2.813696097E0,3.426853120E-1,6.922426820E-1,3.987305462E-1
2.816103961E0,3.536805511E-1,7.056813240E-1,4.097257853E-1
2.818510993E0,3.597890437E-1,7.117897868E-1,4.182776511E-1
2.820918857E0,3.658975065E-1,7.227849960E-1,4.280512035E-1
2.823327503E0,3.671191931E-1,7.337802649E-1,4.402681589E-1
2.825735368E0,3.646758199E-1,7.459971905E-1,4.512633979E-1
2.828142347E0,3.622324169E-1,7.569924593E-1,4.610369802E-1
2.830550264E0,3.561239541E-1,7.655443549E-1,4.720322192E-1
2.832958909E0,3.463504016E-1,7.704311013E-1,4.842491746E-1
2.835366722E0,3.316900730E-1,7.716528177E-1,4.928010404E-1
2.837773753E0,3.182514310E-1,7.692093849E-1,5.001311898E-1
2.840181670E0,2.962609231E-1,7.606575489E-1,5.086830258E-1
2.842590264E0,2.754921019E-1,7.496622801E-1,5.099047422E-1
2.844998128E0,2.559449971E-1,7.313368917E-1,5.135698318E-1
2.847405159E0,2.278460264E-1,7.056813240E-1,5.123481154E-1
2.849813024E0,2.021904439E-1,6.690304875E-1,5.099047422E-1
2.852221670E0,1.753131598E-1,6.311579347E-1,5.062396526E-1
2.854629482E0,1.472141892E-1,5.859552622E-1,5.050179958E-1
2.857036514E0,1.203369126E-1,5.358657837E-1,5.001311898E-1
2.859444430E0,9.345962852E-2,4.808894992E-1,5.001311898E-1
2.861853024E0,7.269082218E-2,4.198047817E-1,5.013529062E-1
2.864260889E0,4.214845970E-2,3.562766612E-1,5.050179958E-1
2.866667920E0,2.137965336E-2,2.841966748E-1,5.135698318E-1
2.869075784E0,-6.719320081E-3,2.145601064E-1,5.270084739E-1
2.871484430E0,-2.870982140E-2,1.424801201E-1,5.416688323E-1
2.873892295E0,-4.947862774E-2,6.673506647E-2,5.599942207E-1
2.876299274E0,-7.024743408E-2,3.206948051E-3,5.868715048E-1
2.878707191E0,-9.345962852E-2,-5.176930502E-2,6.174138784E-1
2.881115836E0,-1.105633527E-1,-9.575030953E-2,6.516213417E-1
2.883523649E0,-1.276670843E-1,-1.299577504E-1,6.870504618E-1
2.885930680E0,-1.447708011E-1,-1.605001241E-1,7.237012982E-1
2.888338597E0,-1.582094431E-1,-1.776038408E-1,7.603521347E-1
2.890747191E0,-1.704263836E-1,-1.873773932E-1,7.921161652E-1
2.893155055E0,-1.801999360E-1,-1.947075576E-1,8.202151656E-1
2.895562086E0,-1.899735034E-1,-1.959292591E-1,8.422056437E-1
2.897969951E0,-1.973036677E-1,-1.922641695E-1,8.556442857E-1
2.900378597E0,-2.058555335E-1,-1.861557066E-1,8.641961813E-1
2.902786461E0,-2.107423097E-1,-1.776038408E-1,8.580876589E-1
2.905193441E0,-2.156290859E-1,-1.714953631E-1,8.458707333E-1
2.907601357E0,-2.192941606E-1,-1.641651988E-1,8.275453448E-1
2.910010003E0,-2.229592502E-1,-1.605001241E-1,8.018897176E-1
2.912417816E0,-2.266243398E-1,-1.678302884E-1,7.713474035E-1
2.914824847E0,-2.315111160E-1,-1.739387512E-1,7.359182239E-1
2.917232711E0,-2.376195788E-1,-1.885990947E-1,6.956022978E-1
2.919641357E0,-2.400629669E-1,-2.093679011E-1,6.528429985E-1
2.922049222E0,-2.473931462E-1,-2.435753495E-1,6.039752364E-1
2.924456253E0,-2.535016239E-1,-2.863346636E-1,5.477772951E-1
2.926864118E0,-2.571666837E-1,-3.376458287E-1,4.866925478E-1
2.929272764E0,-2.669402659E-1,-3.914003670E-1,4.268295169E-1
2.931680576E0,-2.803788781E-1,-4.500417113E-1,3.681881726E-1
2.934087607E0,-2.877090573E-1,-4.976878166E-1,3.095468581E-1
2.936495524E0,-3.023693860E-1,-5.306735635E-1,2.594573796E-1
2.938904118E0,-3.158080280E-1,-5.367820263E-1,2.179197669E-1
2.941311982E0,-3.255815804E-1,-5.245651007E-1,1.898207814E-1
2.943719014E0,-3.353551328E-1,-4.928010404E-1,1.739387512E-1
2.946126878E0,-3.377985358E-1,-4.451549351E-1,1.690519750E-1
2.948535524E0,-3.341334462E-1,-3.816268146E-1,1.727170646E-1
2.950943389E0,-3.268032968E-1,-3.095468581E-1,1.849340051E-1
2.953350368E0,-3.170297146E-1,-2.374668717E-1,2.020377368E-1
2.955758284E0,-2.974826097E-1,-1.519482583E-1,2.191414535E-1
2.958166930E0,-2.657185495E-1,-6.398624927E-2,2.350234836E-1
2.960574743E0,-2.302894145E-1,1.664558798E-2,2.496838123E-1
2.962981774E0,-1.936385781E-1,8.383878320E-2,2.582356930E-1
2.965389691E0,-1.533226669E-1,1.412584335E-1,2.667875290E-1
2.967798284E0,-1.191152185E-1,1.644706279E-1,2.765611112E-1
2.970206149E0,-8.857285231E-2,1.705790907E-1,2.838912606E-1
2.972613180E0,-5.925218388E-2,1.546970755E-1,2.936648130E-1
2.975021045E0,-3.603998944E-2,1.217113137E-1,3.058817685E-1
2.977429691E0,-6.719320081E-3,7.895200700E-2,3.119902313E-1
2.979837555E0,2.748812735E-2,3.497100621E-2,3.193204105E-1
2.982244534E0,6.536065787E-2,-1.267508045E-2,3.205420971E-1
2.984652451E0,1.044548824E-1,-5.665608495E-2,3.180987239E-1
2.987061097E0,1.472141892E-1,-9.819369763E-2,3.144336343E-1
2.989468909E0,1.911951900E-1,-1.470614821E-1,3.034383655E-1
2.991875941E0,2.278460264E-1,-1.983726472E-1,2.887780368E-1
2.994283857E0,2.644968629E-1,-2.545706034E-1,2.728960216E-1
2.996692451E0,3.096995652E-1,-3.046600819E-1,2.557922900E-1
2.999100316E0,3.573456407E-1,-3.523061574E-1,2.350234836E-1
3.001507347E0,4.037700295E-1,-4.048390090E-1,2.166980654E-1
3.003915211E0,4.440859556E-1,-4.549284875E-1,2.044811249E-1
3.006323857E0,4.856235683E-1,-5.074613690E-1,1.910424829E-1
3.008731722E0,5.088357925E-1,-5.636593103E-1,1.824906170E-1
3.011138701E0,5.308262706E-1,-6.161921620E-1,1.751604527E-1
3.013546618E0,5.467082858E-1,-6.687250137E-1,1.702736765E-1
3.015955264E0,5.515950918E-1,-7.188144922E-1,1.714953631E-1
3.018363076E0,5.515950918E-1,-7.713474035E-1,1.727170646E-1
3.020770107E0,5.393781066E-1,-8.238802552E-1,1.812689304E-1
3.023178024E0,5.149442554E-1,-8.751913905E-1,1.910424829E-1
3.025586618E0,4.892886579E-1,-9.203941226E-1,1.971509457E-1
3.027994482E0,4.526378214E-1,-9.594883323E-1,2.008160353E-1
3.030401514E0,4.123218954E-1,-9.875873327E-1,2.020377368E-1
3.032809378E0,3.683409095E-1,-1.012021184E0,2.008160353E-1
3.035218024E0,3.121429384E-1,-1.035233378E0,1.947075576E-1
3.037625889E0,2.547233105E-1,-1.047450304E0,1.849340051E-1
3.040032868E0,1.960819662E-1,-1.057223916E0,1.739387512E-1
3.042440784E0,1.349972486E-1,-1.058445573E0,1.605001241E-1
3.044849430E0,6.902574003E-2,-1.048672080E0,1.446180940E-1
3.047257243E0,5.497625098E-3,-1.030346632E0,1.299577504E-1
3.049664274E0,-5.680879578E-2,-1.003469348E0,1.226275861E-1
3.052072191E0,-1.154501289E-1,-9.717052579E-1,1.165191159E-1
3.054480784E0,-1.704263836E-1,-9.411629438E-1,1.140757278E-1
3.056888649E0,-2.241809368E-1,-9.081771374E-1,1.140757278E-1
3.059295680E0,-2.718270421E-1,-8.751913905E-1,1.152974218E-1
3.061703545E0,-3.133646548E-1,-8.434273601E-1,1.189625040E-1
3.064112191E0,-3.414636254E-1,-8.153283596E-1,1.189625040E-1
3.066520055E0,-3.658975065E-1,-7.908945084E-1,1.226275861E-1
3.068927034E0,-3.830012381E-1,-7.664605975E-1,1.262926757E-1
3.071334951E0,-3.903313875E-1,-7.469134927E-1,1.311794519E-1
3.073743597E0,-3.976615667E-1,-7.322531343E-1,1.385096163E-1
3.076151409E0,-3.976615667E-1,-7.237012982E-1,1.458397806E-1
3.078558441E0,-3.952181637E-1,-7.224795818E-1,1.519482583E-1
3.080966357E0,-3.866663277E-1,-7.237012982E-1,1.580567211E-1
3.083374951E0,-3.756710589E-1,-7.346965671E-1,1.617218107E-1
3.085782816E0,-3.720059693E-1,-7.542436719E-1,1.641651988E-1
3.088189847E0,-3.622324169E-1,-7.737907767E-1,1.678302884E-1
3.090597711E0,-3.500154912E-1,-8.006680608E-1,1.690519750E-1
3.093006357E0,-3.426853120E-1,-8.397622705E-1,1.666085869E-1
3.095414222E0,-3.304683566E-1,-8.751913905E-1,1.666085869E-1
3.097821201E0,-3.194731176E-1,-9.118422270E-1,1.666085869E-1
3.100229118E0,-3.060344756E-1,-9.448279738E-1,1.690519750E-1
3.102637764E0,-2.925958335E-1,-9.741486907E-1,1.714953631E-1
3.105045576E0,-2.779355049E-1,-1.007134438E0,1.714953631E-1
3.107452607E0,-2.632751763E-1,-1.036455035E0,1.714953631E-1
3.109860524E0,-2.522799075E-1,-1.071884274E0,1.690519750E-1
3.112269118E0,-2.412846684E-1,-1.109756708E0,1.666085869E-1
3.114676982E0,-2.266243398E-1,-1.137855768E0,1.678302884E-1
3.117084014E0,-2.107423097E-1,-1.152516007E0,1.690519750E-1
3.119491878E0,-1.936385781E-1,-1.162289619E0,1.739387512E-1
3.121900524E0,-1.753131598E-1,-1.173284888E0,1.776038408E-1
3.124308389E0,-1.594311297E-1,-1.176949978E0,1.788255423E-1
3.126715420E0,-1.398840249E-1,-1.179393291E0,1.788255423E-1
3.129123284E0,-1.240019947E-1,-1.175728321E0,1.837123185E-1
3.131531930E0,-1.081199646E-1,-1.167176366E0,1.849340051E-1
3.133939795E0,-9.101624042E-2,-1.154959440E0,1.873773932E-1
3.136346774E0,-8.368607610E-2,-1.141520858E0,1.922641695E-1
3.138754691E0,-6.902574003E-2,-1.125638843E0,1.983726472E-1
3.141163336E0,-5.680879578E-2,-1.106091619E0,2.032594234E-1
3.143571149E0,-4.581354558E-2,-1.085322857E0,2.069245130E-1
3.145978180E0,-3.481829539E-2,-1.057223916E0,2.105895877E-1
3.148386097E0,-1.527118124E-2,-1.024238110E0,2.191414535E-1
3.150794691E0,-1.832541777E-3,-9.900307059E-1,2.240282297E-1
3.153202555E0,1.038440317E-2,-9.533798695E-1,2.301367074E-1
3.155609586E0,2.870982140E-2,-9.130639434E-1,2.362451702E-1
3.158017451E0,4.459185153E-2,-8.739697337E-1,2.435753495E-1
3.160426097E0,6.413896382E-2,-8.360971808E-1,2.472404242E-1
3.162833961E0,8.124268800E-2,-8.031114340E-1,2.533488870E-1
3.165240941E0,9.712471068E-2,-7.725690603E-1,2.557922900E-1
3.167648857E0,1.166718230E-1,-7.432484031E-1,2.594573796E-1
3.170057503E0,1.337755471E-1,-7.212579250E-1,2.606790662E-1
3.172465316E0,1.533226669E-1,-7.017107606E-1,2.619007528E-1
3.174872347E0,1.704263836E-1,-6.833853722E-1,2.643441558E-1
3.177280264E0,1.863084137E-1,-6.687250137E-1,2.667875290E-1
3.179688909E0,2.046338320E-1,-6.540647149E-1,2.692309320E-1
3.182096722E0,2.254026383E-1,-6.418477297E-1,2.692309320E-1
3.184503753E0,2.412846684E-1,-6.332958937E-1,2.692309320E-1
3.186911670E0,2.596100867E-1,-6.247440577E-1,2.716743052E-1
3.189320264E0,2.779355049E-1,-6.174138784E-1,2.741177082E-1
3.191728128E0,2.913741469E-1,-6.076403260E-1,2.765611112E-1
3.194135159E0,3.096995652E-1,-5.990884304E-1,2.790044844E-1
3.196543024E0,3.219164908E-1,-5.893148780E-1,2.814478874E-1
3.198951670E0,3.390202224E-1,-5.770979524E-1,2.875563502E-1
3.201359534E0,3.549022675E-1,-5.612159371E-1,2.912214398E-1
3.203766514E0,3.683409095E-1,-5.465555787E-1,2.936648130E-1
3.206174430E0,3.842229247E-1,-5.294518471E-1,2.973299026E-1
3.208583076E0,3.952181637E-1,-5.086830258E-1,2.997733057E-1
3.210990889E0,4.074351192E-1,-4.866925478E-1,3.009949923E-1
3.213397920E0,4.172086716E-1,-4.622586668E-1,3.046600819E-1
3.215805836E0,4.318690002E-1,-4.402681589E-1,3.046600819E-1
3.218214482E0,4.416425824E-1,-4.146125913E-1,3.046600819E-1
3.220622295E0,4.501944184E-1,-3.914003670E-1,3.071034551E-1
3.223029326E0,4.575245976E-1,-3.620797098E-1,3.071034551E-1
3.225437243E0,4.697415531E-1,-3.327590525E-1,3.095468581E-1
3.227845836E0,4.721849263E-1,-3.058817685E-1,3.144336343E-1
3.230253701E0,4.807367921E-1,-2.838912606E-1,3.168770075E-1
3.232660732E0,4.856235683E-1,-2.619007528E-1,3.180987239E-1
3.235068597E0,4.941754341E-1,-2.435753495E-1,3.168770075E-1
3.237477243E0,4.941754341E-1,-2.276933193E-1,3.168770075E-1
3.239885107E0,4.966188073E-1,-2.166980654E-1,3.168770075E-1
3.242292086E0,4.978405237E-1,-2.069245130E-1,3.132119179E-1
3.244700003E0,4.978405237E-1,-1.983726472E-1,3.144336343E-1
3.247108649E0,5.039489865E-1,-1.898207814E-1,3.144336343E-1
3.249516514E0,5.100574493E-1,-1.837123185E-1,3.132119179E-1
3.251923493E0,5.112791657E-1,-1.812689304E-1,3.132119179E-1
3.254331409E0,5.173876286E-1,-1.812689304E-1,3.107685447E-1
3.256740055E0,5.198310018E-1,-1.800472289E-1,3.095468581E-1
3.259147868E0,5.259394646E-1,-1.812689304E-1,3.083251417E-1
3.261554899E0,5.296045542E-1,-1.837123185E-1,3.083251417E-1
3.263962816E0,5.430431962E-1,-1.898207814E-1,3.071034551E-1
3.266371409E0,5.467082858E-1,-1.995943487E-1,3.058817685E-1
3.268779274E0,5.515950918E-1,-2.142546773E-1,3.058817685E-1
3.271186305E0,5.540384650E-1,-2.264716178E-1,3.071034551E-1
3.273594170E0,5.577035546E-1,-2.435753495E-1,3.071034551E-1
3.276002816E0,5.625903010E-1,-2.606790662E-1,3.046600819E-1
3.278410680E0,5.662553906E-1,-2.753393948E-1,3.046600819E-1
3.280817711E0,5.662553906E-1,-2.912214398E-1,3.034383655E-1
3.283225576E0,5.711421967E-1,-3.034383655E-1,3.022166789E-1
3.285634222E0,5.735855699E-1,-3.168770075E-1,2.973299026E-1
3.288042086E0,5.711421967E-1,-3.290939629E-1,2.948864996E-1
3.290449066E0,5.711421967E-1,-3.364241421E-1,2.899997234E-1
3.292856982E0,5.699204803E-1,-3.437542915E-1,2.863346636E-1
3.295265628E0,5.686988235E-1,-3.510844707E-1,2.814478874E-1
3.297673441E0,5.662553906E-1,-3.559712470E-1,2.753393948E-1
3.300080472E0,5.613686442E-1,-3.657447994E-1,2.692309320E-1
3.302488389E0,5.528167486E-1,-3.779617548E-1,2.606790662E-1
3.304897034E0,5.430431962E-1,-3.889569938E-1,2.545706034E-1
3.307304847E0,5.381564498E-1,-3.999522328E-1,2.447970361E-1
3.309711878E0,5.296045542E-1,-4.085040987E-1,2.362451702E-1
3.312119795E0,5.222744346E-1,-4.219427407E-1,2.276933193E-1
3.314528389E0,5.125008225E-1,-4.390464723E-1,2.179197669E-1
3.316936253E0,5.039489865E-1,-4.537068009E-1,2.057028115E-1
3.319343284E0,4.929537475E-1,-4.708105326E-1,1.934858710E-1
3.321751149E0,4.905103445E-1,-4.891359508E-1,1.812689304E-1
3.324159795E0,4.782933891E-1,-5.086830258E-1,1.678302884E-1
3.326567659E0,4.746283293E-1,-5.306735635E-1,1.519482583E-1
3.328974691E0,4.709632397E-1,-5.551074743E-1,1.348445266E-1
3.331382555E0,4.660764635E-1,-5.783196688E-1,1.189625040E-1
3.333791201E0,4.624113739E-1,-5.990884304E-1,1.018587798E-1
3.336199066E0,4.563029110E-1,-6.259657145E-1,8.353336155E-2
3.338606045E0,4.526378214E-1,-6.467345357E-1,6.520794332E-2
3.341013961E0,4.501944184E-1,-6.662816405E-1,4.566083103E-2
3.343422607E0,4.465293586E-1,-6.833853722E-1,2.855710872E-2
3.345830420E0,4.440859556E-1,-6.943806410E-1,9.009997360E-3
3.348237451E0,4.416425824E-1,-6.968240142E-1,-1.175880991E-2
3.350645368E0,4.367557764E-1,-7.017107606E-1,-2.641914412E-2
3.353054014E0,4.318690002E-1,-7.114843726E-1,-4.352286831E-2
3.355461826E0,4.220954478E-1,-7.273663878E-1,-5.696150661E-2
3.357868857E0,4.111002088E-1,-7.408050299E-1,-6.795676053E-2
3.360276774E0,3.988832533E-1,-7.603521347E-1,-7.895200700E-2
3.362685368E0,3.830012381E-1,-7.798992395E-1,-8.628217876E-2
3.365093232E0,3.695625961E-1,-7.994463444E-1,-9.239064902E-2
3.367500264E0,3.561239541E-1,-8.202151656E-1,-9.483403713E-2
3.369908180E0,3.439069986E-1,-8.434273601E-1,-9.361234307E-2
3.372316774E0,3.365768492E-1,-8.654178381E-1,-8.750387281E-2
3.374724639E0,3.292466700E-1,-8.825215697E-1,-8.017370105E-2
3.377131670E0,3.292466700E-1,-8.898517489E-1,-6.673506647E-2
3.379539534E0,3.219164908E-1,-8.984035850E-1,-4.718795046E-2
3.381948180E0,3.231382072E-1,-8.996253014E-1,-2.886253223E-2
3.384356045E0,3.280249834E-1,-9.020686746E-1,-6.872031838E-3
3.386763076E0,3.316900730E-1,-9.069554806E-1,1.389677543E-2
3.389170941E0,3.390202224E-1,-9.179506898E-1,3.466558084E-2
3.391579586E0,3.414636254E-1,-9.350544214E-1,5.543438718E-2
3.393987451E0,3.402419090E-1,-9.472714067E-1,7.742489129E-2
3.396394430E0,3.439069986E-1,-9.668185115E-1,9.575030953E-2
3.398802347E0,3.402419090E-1,-9.888089895E-1,1.116323397E-1
3.401210993E0,3.353551328E-1,-1.008356094E0,1.275143623E-1
3.403618857E0,3.292466700E-1,-1.032789946E0,1.409530044E-1
3.406025836E0,3.158080280E-1,-1.058445573E0,1.531699449E-1
3.408433753E0,3.035911024E-1,-1.084101200E0,1.641651988E-1
3.410842399E0,2.889307439E-1,-1.112200141E0,1.714953631E-1
3.413250211E0,2.681619525E-1,-1.137855768E0,1.788255423E-1
3.415657243E0,2.449497581E-1,-1.172063231E0,1.751604527E-1
3.418065159E0,2.241809368E-1,-1.207492352E0,1.727170646E-1
3.420473805E0,1.960819662E-1,-1.246586561E0,1.653869003E-1
3.422881618E0,1.679829955E-1,-1.294232607E0,1.531699449E-1
3.425288649E0,1.349972486E-1,-1.345543742E0,1.385096163E-1
3.427696566E0,9.956810623E-2,-1.398076653E0,1.189625040E-1
3.430105159E0,6.780404598E-2,-1.457939744E0,9.452861547E-2
3.432513024E0,3.726168349E-2,-1.522689462E0,6.642963737E-2
3.434920055E0,3.054236295E-3,-1.583774209E0,3.222219273E-2
3.437327972E0,-2.626643144E-2,-1.644858956E0,-1.985253533E-3
3.439736566E0,-5.192201585E-2,-1.701056957E0,-4.352286831E-2
3.442144430E0,-7.391251624E-2,-1.760919929E0,-8.506047726E-2
3.444551461E0,-9.101624042E-2,-1.809787750E0,-1.290414780E-1
3.446959378E0,-1.081199646E-1,-1.856212139E0,-1.779092699E-1
3.449367972E0,-1.178935245E-1,-1.902636528E0,-2.279987335E-1
3.451775836E0,-1.264453828E-1,-1.939287305E0,-2.756448388E-1
3.454182868E0,-1.325538605E-1,-1.973494768E0,-3.232909143E-1
3.456590732E0,-1.349972486E-1,-2.006480455E0,-3.721587062E-1
3.458999378E0,-1.374406368E-1,-2.037022829E0,-4.185830951E-1
3.461407243E0,-1.349972486E-1,-2.062678576E0,-4.662291706E-1
3.463814274E0,-1.288887709E-1,-2.087112427E0,-5.138752460E-1
3.466222139E0,-1.325538605E-1,-2.105437756E0,-5.590779781E-1
3.468630784E0,-1.301104724E-1,-2.124984980E0,-6.030589342E-1
3.471038649E0,-1.313321590E-1,-2.135980129E0,-6.458182931E-1
3.473445628E0,-1.288887709E-1,-2.139645338E0,-6.873558760E-1
3.475853545E0,-1.252236813E-1,-2.138423443E0,-7.288935184E-1
3.478262191E0,-1.276670843E-1,-2.123763323E0,-7.716528177E-1
3.480670055E0,-1.264453828E-1,-2.091999054E0,-8.107470274E-1
3.483077034E0,-1.301104724E-1,-2.054126501E0,-8.510629535E-1
3.485484951E0,-1.337755471E-1,-2.004037142E0,-8.877137899E-1
3.487893597E0,-1.459924877E-1,-1.945395827E0,-9.206995368E-1
3.490301461E0,-1.692046970E-1,-1.883089423E0,-9.487984776E-1
3.492708441E0,-1.911951900E-1,-1.819561243E0,-9.732323885E-1
3.495116357E0,-2.144073844E-1,-1.752368093E0,-9.891144037E-1
3.497525003E0,-2.412846684E-1,-1.675401330E0,-1.004996419E0
3.499932816E0,-2.718270421E-1,-1.595991135E0,-1.013548255E0
3.502339847E0,-3.011476994E-1,-1.508029222E0,-1.022100210E0
3.504747764E0,-3.268032968E-1,-1.410293579E0,-1.029430389E0
3.507156409E0,-3.487937748E-1,-1.308892965E0,-1.037982225E0
3.509564222E0,-3.720059693E-1,-1.198940516E0,-1.045312405E0
3.511971253E0,-3.952181637E-1,-1.085322857E0,-1.057529330E0
3.514379170E0,-4.257605374E-1,-9.594883323E-1,-1.066081166E0
3.516787816E0,-4.575245976E-1,-8.263236284E-1,-1.073411345E0
3.519195628E0,-5.015056133E-1,-6.882721782E-1,-1.075854778E0
3.521602659E0,-5.467082858E-1,-5.428904891E-1,-1.078298092E0
3.524010576E0,-6.004628539E-1,-3.877353072E-1,-1.069746256E0
3.526419222E0,-6.542174220E-1,-2.276933193E-1,-1.059972763E0
3.528827034E0,-7.091936469E-1,-6.276455522E-2,-1.041647315E0
3.531234066E0,-7.702783942E-1,1.021642014E-1,-1.011104941E0
3.533641982E0,-8.289197087E-1,2.646495700E-1,-9.695672989E-1
3.536050576E0,-8.790091872E-1,4.210264683E-1,-9.206995368E-1
3.538458441E0,-9.290986657E-1,5.615213513E-1,-8.620582223E-1
3.540865472E0,-9.718579650E-1,6.910209656E-1,-7.875348330E-1
3.543273389E0,-1.004843712E0,8.083036542E-1,-7.007945180E-1
3.545681982E0,-1.030499339E0,9.109259844E-1,-6.055023670E-1
3.548089847E0,-1.047603011E0,9.964445829E-1,-5.028799772E-1
3.550496878E0,-1.057376623E0,1.068524599E0,-3.941491842E-1
3.552904795E0,-1.063485026E0,1.134496093E0,-2.841966748E-1
3.555313389E0,-1.061041713E0,1.182142138E0,-1.779092699E-1
3.557721253E0,-1.061041713E0,1.226123214E0,-7.406523079E-2
3.560128284E0,-1.053711534E0,1.265217423E0,2.489202656E-2
3.562536201E0,-1.043937922E0,1.299424887E0,1.116323397E-1
3.564944795E0,-1.036607742E0,1.327523828E0,1.837123185E-1
3.567352659E0,-1.029277682E0,1.354401112E0,2.386885732E-1
3.569759691E0,-1.019504070E0,1.373948216E0,2.777827978E-1
3.572167555E0,-1.006065488E0,1.395938754E0,2.973299026E-1
3.574576201E0,-9.889616966E-1,1.415485859E0,3.009949923E-1
3.576984066E0,-9.645278454E-1,1.432589531E0,2.985515893E-1
3.579391097E0,-9.352071285E-1,1.444806457E0,2.863346636E-1
3.581798961E0,-8.961129189E-1,1.454580069E0,2.716743052E-1
3.584207607E0,-8.484668136E-1,1.461910248E0,2.521272004E-1
3.586615472E0,-7.959339619E-1,1.463131905E0,2.301367074E-1
3.589022503E0,-7.336275578E-1,1.458245158E0,2.069245130E-1
3.591430420E0,-6.664343476E-1,1.446028233E0,1.788255423E-1
3.593839014E0,-6.004628539E-1,1.437476277E0,1.482831687E-1
3.596246878E0,-5.308262706E-1,1.424037695E0,1.165191159E-1
3.598653909E0,-4.611896873E-1,1.409377337E0,8.231166750E-2
3.601061774E0,-3.915531039E-1,1.397160411E0,4.566083103E-2
3.603470420E0,-3.304683566E-1,1.380056620E0,6.566607859E-3
3.605878284E0,-2.730487287E-1,1.375169873E0,-3.252761811E-2
3.608285316E0,-2.217375487E-1,1.366618037E0,-7.406523079E-2
3.610693232E0,-1.814216375E-1,1.362952948E0,-1.119377613E-1
3.613101826E0,-1.435490996E-1,1.359287858E0,-1.498102844E-1
3.615509691E0,-1.203369126E-1,1.349514365E0,-1.864611208E-1
3.617916722E0,-9.712471068E-2,1.347070932E0,-2.170034945E-1
3.620324586E0,-7.879929990E-2,1.355622768E0,-2.426590770E-1
3.622733232E0,-6.780404598E-2,1.372726560E0,-2.609844804E-1
3.625141097E0,-6.047387794E-2,1.392273664E0,-2.732014358E-1
3.627548128E0,-6.047387794E-2,1.419150949E0,-2.793098986E-1
3.629955993E0,-6.169557199E-2,1.452136636E0,-2.829749882E-1
3.632364639E0,-6.658235192E-2,1.488787532E0,-2.793098986E-1
3.634772503E0,-7.635590434E-2,1.535211921E0,-2.719797492E-1
3.637179534E0,-8.979454637E-2,1.580414534E0,-2.622061968E-1
3.639587399E0,-1.020114943E-1,1.631725788E0,-2.487675399E-1
3.641996045E0,-1.154501289E-1,1.679371834E0,-2.341072112E-1
3.644403909E0,-1.337755471E-1,1.723352790E0,-2.206685692E-1
3.646810941E0,-1.533226669E-1,1.760003686E0,-2.121167034E-1
3.649218805E0,-1.704263836E-1,1.786880970E0,-2.072299272E-1
3.651627451E0,-1.948602796E-1,1.811314821E0,-2.011214644E-1
3.654035316E0,-2.144073844E-1,1.828418612E0,-1.962346882E-1
3.656442347E0,-2.363978922E-1,1.835748672E0,-1.950129867E-1
3.658850264E0,-2.644968629E-1,1.834527016E0,-1.937913001E-1
3.661258857E0,-2.889307439E-1,1.825975180E0,-1.925695986E-1
3.663666722E0,-3.072561622E-1,1.807649732E0,-1.962346882E-1
3.666073753E0,-3.268032968E-1,1.780772448E0,-2.011214644E-1
3.668481618E0,-3.426853120E-1,1.751451850E0,-2.072299272E-1
3.670890264E0,-3.585673273E-1,1.713579297E0,-2.084516287E-1
3.673298128E0,-3.683409095E-1,1.675706744E0,-2.121167034E-1
3.675705159E0,-3.732276857E-1,1.631725788E0,-2.133384049E-1
3.678113076E0,-3.768927455E-1,1.579192877E0,-2.145601064E-1
3.680521670E0,-3.854446113E-1,1.520551562E0,-2.170034945E-1
3.682929534E0,-3.842229247E-1,1.455801725E0,-2.194468826E-1
3.685336566E0,-3.854446113E-1,1.389830232E0,-2.206685692E-1
3.687744482E0,-3.891097009E-1,1.318971992E0,-2.194468826E-1
3.690153076E0,-3.903313875E-1,1.255443811E0,-2.182251811E-1
3.692560941E0,-3.927747905E-1,1.184585571E0,-2.243336588E-1
3.694967972E0,-3.964398801E-1,1.113727212E0,-2.304421216E-1
3.697375889E0,-4.001049399E-1,1.042868972E0,-2.365505993E-1
3.699784482E0,-4.049917459E-1,9.707890153E-1,-2.438807636E-1
3.702192347E0,-4.147652984E-1,8.999307156E-1,-2.560977042E-1
3.704599378E0,-4.355340898E-1,8.217422962E-1,-2.732014358E-1
3.707007295E0,-4.575245976E-1,7.435538173E-1,-2.903051674E-1
3.709415889E0,-4.868452549E-1,6.580352187E-1,-3.098522723E-1
3.711823753E0,-5.222744346E-1,5.725166202E-1,-3.318427801E-1
3.714230784E0,-5.589252710E-1,4.918847680E-1,-3.526115716E-1
3.716638701E0,-6.016845703E-1,4.136963189E-1,-3.697153032E-1
3.719047347E0,-6.407787800E-1,3.452814221E-1,-3.868190348E-1
3.721455159E0,-6.847597957E-1,2.756448388E-1,-4.002576768E-1
3.723862191E0,-7.287407517E-1,2.023431510E-1,-4.112529159E-1
3.726270107E0,-7.776085734E-1,1.314848661E-1,-4.185830951E-1
3.728678753E0,-8.240329623E-1,8.139539510E-2,-4.185830951E-1
3.731086566E0,-8.716790676E-1,5.329642445E-2,-4.136963189E-1
3.733493597E0,-9.071081877E-1,5.818320066E-2,-4.088095427E-1
3.735901514E0,-9.425373077E-1,8.139539510E-2,-4.002576768E-1
3.738310159E0,-9.657495022E-1,1.302631795E-1,-3.917058110E-1
3.740717972E0,-9.865183234E-1,1.913478971E-1,-3.819322586E-1
3.743125003E0,-9.914051294E-1,2.683146596E-1,-3.733803928E-1
3.745532920E0,-9.926267862E-1,3.526115716E-1,-3.648285270E-1
3.747941566E0,-9.901834130E-1,4.344651103E-1,-3.538332880E-1
3.750349430E0,-9.804098606E-1,5.089884996E-1,-3.452814221E-1
3.752756409E0,-9.620844126E-1,5.810684562E-1,-3.391729295E-1
3.755164326E0,-9.413156509E-1,6.507050395E-1,-3.330644667E-1
3.757572972E0,-9.144383669E-1,7.093463540E-1,-3.306210935E-1
3.759980836E0,-8.900044560E-1,7.618792653E-1,-3.293993771E-1
3.762387816E0,-8.545753360E-1,8.070819378E-1,-3.318427801E-1
3.764795732E0,-8.203678727E-1,8.412894011E-1,-3.379512429E-1
3.767204378E0,-7.861604095E-1,8.620582223E-1,-3.465031087E-1
3.769612243E0,-7.470661998E-1,8.840487003E-1,-3.574983478E-1
3.772019222E0,-7.067502737E-1,8.999307156E-1,-3.733803928E-1
3.774427139E0,-6.627692580E-1,9.158127308E-1,-3.929274976E-1
3.776835784E0,-6.175665855E-1,9.316948056E-1,-4.112529159E-1
3.779243649E0,-5.711421967E-1,9.451334476E-1,-4.308000207E-1
3.781650680E0,-5.271611810E-1,9.536852837E-1,-4.454603493E-1
3.784058545E0,-4.807367921E-1,9.683456421E-1,-4.564556181E-1
3.786467191E0,-4.330907166E-1,9.830059409E-1,-4.601207078E-1
3.788875055E0,-3.866663277E-1,9.964445829E-1,-4.613423944E-1
3.791282086E0,-3.390202224E-1,1.003774762E0,-4.601207078E-1
3.793689951E0,-2.925958335E-1,1.011104941E0,-4.540122151E-1
3.796098597E0,-2.473931462E-1,1.015991688E0,-4.442386627E-1
3.798506461E0,-2.070772201E-1,1.015991688E0,-4.320217371E-1
3.800913493E0,-1.618745178E-1,1.009883285E0,-4.259132445E-1
3.803321409E0,-1.203369126E-1,9.976662993E-1,-4.185830951E-1
3.805730055E0,-8.490777016E-2,9.781191945E-1,-4.173613787E-1
3.808137868E0,-5.070032179E-2,9.561286569E-1,-4.161396921E-1
3.810544899E0,-2.015795931E-2,9.219212532E-1,-4.161396921E-1
3.812952816E0,6.108472589E-4,8.901571631E-1,-4.198047817E-1
3.815361461E0,2.382304333E-2,8.559496999E-1,-4.234698713E-1
3.817769274E0,4.337015375E-2,8.156337738E-1,-4.295783341E-1
3.820176305E0,5.436540768E-2,7.753179073E-1,-4.369085133E-1
3.822584222E0,6.291726977E-2,7.362236381E-1,-4.417952895E-1
3.824992868E0,6.658235192E-2,7.007945180E-1,-4.430169761E-1
3.827400680E0,6.658235192E-2,6.702521443E-1,-4.454603493E-1
3.829807711E0,6.658235192E-2,6.360446811E-1,-4.454603493E-1
3.832215628E0,6.291726977E-2,6.042806506E-1,-4.442386627E-1
3.834624274E0,5.925218388E-2,5.786250830E-1,-4.405735731E-1
3.837032139E0,4.947862774E-2,5.554128885E-1,-4.332434237E-1
3.839439118E0,4.092676565E-2,5.358657837E-1,-4.222481549E-1
3.841847034E0,3.481829539E-2,5.138752460E-1,-4.136963189E-1
3.844255680E0,2.504473738E-2,5.004366040E-1,-4.027010500E-1
3.846663545E0,1.527118124E-2,4.845545888E-1,-3.929274976E-1
3.849070576E0,3.054236295E-3,4.772244096E-1,-3.782671690E-1
3.851478441E0,-6.108472589E-4,4.662291706E-1,-3.672719002E-1
3.853887086E0,-7.941014133E-3,4.576773047E-1,-3.538332880E-1
3.856294951E0,-1.893626526E-2,4.515688419E-1,-3.403946459E-1
3.858701982E0,-2.504473738E-2,4.503471553E-1,-3.293993771E-1
3.861109899E0,-2.993151546E-2,4.466820657E-1,-3.159607351E-1
3.863518493E0,-3.359659761E-2,4.454603493E-1,-3.037438095E-1
3.865926357E0,-3.848337755E-2,4.442386627E-1,-2.927485406E-1
3.868333389E0,-3.848337755E-2,4.491254389E-1,-2.817533016E-1
3.870741305E0,-4.214845970E-2,4.491254389E-1,-2.670929730E-1
3.873149899E0,-4.092676565E-2,4.552339315E-1,-2.524326444E-1
3.875557764E0,-3.603998944E-2,4.564556181E-1,-2.438807636E-1
3.877964795E0,-3.359659761E-2,4.527905285E-1,-2.353289127E-1
3.880372711E0,-3.603998944E-2,4.491254389E-1,-2.255553454E-1
3.882781357E0,-3.726168349E-2,4.515688419E-1,-2.121167034E-1
3.885189222E0,-3.359659761E-2,4.515688419E-1,-2.023431510E-1
3.887596201E0,-2.993151546E-2,4.540122151E-1,-1.962346882E-1
3.890004118E0,-2.748812735E-2,4.601207078E-1,-1.852394342E-1
3.892412764E0,-2.137965336E-2,4.686725736E-1,-1.730224788E-1
3.894820628E0,-1.282779220E-2,4.821111858E-1,-1.546970755E-1
3.897227659E0,-6.719320081E-3,4.979932308E-1,-1.363716573E-1
3.899635524E0,1.832541777E-3,5.065450668E-1,-1.192679256E-1
3.902044170E0,3.054236295E-3,5.089884996E-1,-1.058292910E-1
3.904452034E0,5.497625098E-3,5.102101564E-1,-9.483403713E-2
3.906859066E0,4.275931045E-3,5.016583204E-1,-8.506047726E-2
3.909266982E0,3.054236295E-3,4.894413650E-1,-7.650861889E-2
3.911675576E0,-1.832541777E-3,4.760027230E-1,-6.795676053E-2
3.914083441E0,-6.719320081E-3,4.625640810E-1,-5.818320066E-2
3.916490472E0,-1.527118124E-2,4.430169761E-1,-4.963133857E-2
3.918898389E0,-2.504473738E-2,4.271349311E-1,-4.230117425E-2
3.921307034E0,-3.848337755E-2,4.136963189E-1,-3.130592033E-2
3.923714847E0,-4.703523964E-2,4.002576768E-1,-2.275406010E-2
3.926121878E0,-6.047387794E-2,3.880407214E-1,-1.175880991E-2
3.928529795E0,-7.146912813E-2,3.770454824E-1,-3.206948051E-3
3.930938441E0,-8.612946421E-2,3.660502136E-1,6.566607859E-3
3.933346253E0,-1.007898003E-1,3.587200642E-1,1.389677543E-2
3.935753284E0,-1.142284349E-1,3.477247953E-1,2.367033064E-2
3.938161201E0,-1.252236813E-1,3.403946459E-1,3.100049868E-2
3.940569847E0,-1.411057115E-1,3.342861533E-1,4.077405483E-2
3.942977711E0,-1.521009654E-1,3.318427801E-1,4.932591692E-2
3.945384743E0,-1.655396074E-1,3.306210935E-1,5.665608495E-2
3.947792607E0,-1.789782494E-1,3.330644667E-1,6.398624927E-2
3.950201253E0,-1.838650256E-1,3.367295563E-1,7.009471953E-2
3.952609118E0,-1.936385781E-1,3.465031087E-1,7.742489129E-2
3.955016149E0,-2.009687424E-1,3.562766612E-1,8.231166750E-2
3.957424066E0,-2.046338320E-1,3.709369898E-1,8.719844371E-2
3.959832659E0,-2.082989216E-1,3.855973184E-1,9.208522737E-2
3.962240524E0,-2.082989216E-1,4.027010500E-1,9.575030953E-2
3.964647555E0,-2.070772201E-1,4.185830951E-1,9.697200358E-2
3.967055472E0,-2.046338320E-1,4.369085133E-1,9.941539168E-2
3.969464118E0,-2.009687424E-1,4.540122151E-1,9.941539168E-2
3.971871930E0,-1.936385781E-1,4.686725736E-1,9.819369763E-2
3.974278961E0,-1.887518018E-1,4.808894992E-1,9.575030953E-2
3.976686878E0,-1.777565479E-1,4.955498278E-1,9.452861547E-2
3.979095524E0,-1.655396074E-1,5.065450668E-1,9.330692142E-2
3.981503389E0,-1.594311297E-1,5.150969625E-1,8.842013776E-2
3.983910420E0,-1.447708011E-1,5.236487985E-1,8.353336155E-2
3.986318284E0,-1.313321590E-1,5.309789777E-1,7.986827940E-2
3.988726930E0,-1.154501289E-1,5.383091569E-1,7.864658535E-2
3.991134795E0,-9.712471068E-2,5.419742465E-1,7.620319724E-2
3.993541826E0,-8.246438205E-2,5.505260825E-1,7.375980914E-2
3.995949743E0,-5.925218388E-2,5.566345453E-1,7.131642103E-2
3.998358336E0,-3.726168349E-2,5.615213513E-1,7.009471953E-2
4.000766201E0,-1.404948719E-2,5.676298141E-1,6.765133142E-2
4.003173232E0,4.275931045E-3,5.688515306E-1,6.642963737E-2
4.005581149E0,3.115320951E-2,5.737382770E-1,6.032116711E-2
4.007989795E0,5.558710173E-2,5.774033666E-1,5.543438718E-2
4.010397659E0,8.246438205E-2,5.774033666E-1,4.932591692E-2
4.012804639E0,1.068982705E-1,5.798467398E-1,4.443913698E-2
4.015212555E0,1.276670843E-1,5.810684562E-1,3.833066672E-2
4.017621201E0,1.508792788E-1,5.835118294E-1,3.588727489E-2
4.020029066E0,1.740914732E-1,5.896202922E-1,3.344388679E-2
4.022436045E0,1.948602796E-1,5.993938446E-1,3.222219273E-2
4.024843961E0,2.205158621E-1,6.116108298E-1,3.344388679E-2
4.027252607E0,2.400629669E-1,6.213843822E-1,3.222219273E-2
4.029660472E0,2.596100867E-1,6.323796511E-1,3.222219273E-2
4.032067503E0,2.779355049E-1,6.421532035E-1,3.344388679E-2
4.034475420E0,2.925958335E-1,6.519267559E-1,3.710897267E-2
4.036884066E0,3.121429384E-1,6.641436815E-1,4.077405483E-2
4.039291878E0,3.231382072E-1,6.775823236E-1,4.688252881E-2
4.041698909E0,3.341334462E-1,6.922426820E-1,5.176930502E-2
4.044106826E0,3.414636254E-1,7.081246972E-1,6.154286116E-2
4.046515472E0,3.487937748E-1,7.240067124E-1,7.253811508E-2
4.048923336E0,3.536805511E-1,7.423321605E-1,8.353336155E-2
4.051330368E0,3.573456407E-1,7.643226385E-1,9.941539168E-2
4.053738232E0,3.610107303E-1,7.826480269E-1,1.091889441E-1
4.056146878E0,3.634541333E-1,8.046385646E-1,1.201841980E-1
4.058554743E0,3.622324169E-1,8.254073858E-1,1.348445266E-1
4.060961774E0,3.585673273E-1,8.437327743E-1,1.507265568E-1
4.063369691E0,3.585673273E-1,8.620582223E-1,1.678302884E-1
4.065778284E0,3.549022675E-1,8.742751479E-1,1.837123185E-1
4.068186149E0,3.573456407E-1,8.901571631E-1,2.032594234E-1
4.070593180E0,3.561239541E-1,8.974873424E-1,2.215848416E-1
4.073001097E0,3.585673273E-1,8.987090588E-1,2.399102598E-1
4.075409743E0,3.622324169E-1,8.950439692E-1,2.582356930E-1
4.077817607E0,3.646758199E-1,8.877137899E-1,2.790044844E-1
4.080224586E0,3.683409095E-1,8.718317747E-1,3.022166789E-1
4.082632503E0,3.744493723E-1,8.498412371E-1,3.217637837E-1
4.085041149E0,3.842229247E-1,8.241856694E-1,3.425326049E-1
4.087449014E0,3.891097009E-1,7.899782062E-1,3.645231128E-1
4.089856045E0,4.001049399E-1,7.569924593E-1,3.852919042E-1
4.092263961E0,4.049917459E-1,7.178982496E-1,4.060607255E-1
4.094672555E0,4.135435820E-1,6.788040400E-1,4.268295169E-1
4.097080420E0,4.159869850E-1,6.372663975E-1,4.463766217E-1
4.099487451E0,4.172086716E-1,6.006155610E-1,4.659237564E-1
4.101895368E0,4.184303582E-1,5.664080977E-1,4.879142344E-1
4.104304014E0,4.172086716E-1,5.395308137E-1,5.135698318E-1
4.106711878E0,4.135435820E-1,5.212054253E-1,5.367820263E-1
4.109118857E0,4.001049399E-1,5.004366040E-1,5.563291311E-1
4.111526774E0,3.878880143E-1,4.833329022E-1,5.734328628E-1
4.113935420E0,3.768927455E-1,4.674508572E-1,5.868715048E-1
4.116343284E0,3.500154912E-1,4.515688419E-1,5.990884304E-1
4.118750316E0,3.243598938E-1,4.332434237E-1,6.064186096E-1
4.121158232E0,2.974826097E-1,4.124746025E-1,6.088619828E-1
4.123566878E0,2.669402659E-1,3.892624080E-1,6.100836992E-1
4.125974691E0,2.315111160E-1,3.574983478E-1,6.088619828E-1
4.128381722E0,1.936385781E-1,3.232909143E-1,6.076403260E-1
4.130789639E0,1.569877416E-1,2.854183912E-1,6.064186096E-1
4.133198284E0,1.191152185E-1,2.414373755E-1,6.051968932E-1
4.135606149E0,8.246438205E-2,1.925695986E-1,6.039752364E-1
4.138013180E0,4.459185153E-2,1.400367320E-1,6.064186096E-1
4.140421045E0,6.719320081E-3,8.261708915E-2,6.088619828E-1
4.142829691E0,-2.504473738E-2,2.031067200E-2,6.125270724E-1
4.145237555E0,-6.169557199E-2,-4.688252881E-2,6.198572516E-1
4.147644586E0,-9.590301663E-2,-1.152974218E-1,6.247440577E-1
4.150052503E0,-1.264453828E-1,-1.861557066E-1,6.271874309E-1
4.152461149E0,-1.569877416E-1,-2.619007528E-1,6.332958937E-1
4.154868961E0,-1.826433241E-1,-3.339807391E-1,6.369609833E-1
4.157275993E0,-2.070772201E-1,-4.097257853E-1,6.345176101E-1
4.159683909E0,-2.290677279E-1,-4.793623984E-1,6.332958937E-1
4.162092555E0,-2.461714447E-1,-5.453338623E-1,6.308525205E-1
4.164500420E0,-2.644968629E-1,-6.100836992E-1,6.235223413E-1
4.166907451E0,-2.779355049E-1,-6.675033569E-1,6.113054156E-1
4.169315316E0,-2.889307439E-1,-7.151494026E-1,5.954233408E-1
4.171723961E0,-3.011476994E-1,-7.518002391E-1,5.770979524E-1
4.174131826E0,-3.170297146E-1,-7.737907767E-1,5.587725043E-1
4.176538857E0,-3.292466700E-1,-7.811209559E-1,5.331169367E-1
4.178946774E0,-3.402419090E-1,-7.811209559E-1,5.050179958E-1
4.181355420E0,-3.536805511E-1,-7.762341499E-1,4.732539058E-1
4.183763284E0,-3.658975065E-1,-7.676823139E-1,4.341596961E-1
4.186170264E0,-3.732276857E-1,-7.542436719E-1,3.938437700E-1
4.188578180E0,-3.878880143E-1,-7.346965671E-1,3.535278440E-1
4.190986826E0,-3.976615667E-1,-7.114843726E-1,3.095468581E-1
4.193394691E0,-4.062134326E-1,-6.894938350E-1,2.704526186E-1
4.195801722E0,-4.159869850E-1,-6.662816405E-1,2.325800955E-1
4.198209639E0,-4.282039404E-1,-6.442911625E-1,1.983726472E-1
4.200618232E0,-4.379774928E-1,-6.235223413E-1,1.702736765E-1
4.203026097E0,-4.440859556E-1,-6.003101468E-1,1.507265568E-1
4.205433128E0,-4.428642690E-1,-5.685460567E-1,1.397313178E-1
4.207841045E0,-4.343124032E-1,-5.441122055E-1,1.348445266E-1
4.210249691E0,-4.208737612E-1,-5.184566379E-1,1.397313178E-1
4.212657555E0,-4.025483429E-1,-4.940227270E-1,1.543916464E-1
4.215064586E0,-3.805578351E-1,-4.732539058E-1,1.739387512E-1
4.217472451E0,-3.500154912E-1,-4.561502039E-1,1.934858710E-1
4.219881097E0,-3.158080280E-1,-4.439332485E-1,2.130329758E-1
4.222288961E0,-2.791571915E-1,-4.378247857E-1,2.325800955E-1
4.224695993E0,-2.437280566E-1,-4.341596961E-1,2.496838123E-1
4.227103909E0,-2.034121305E-1,-4.280512035E-1,2.655658424E-1
4.229512555E0,-1.606528312E-1,-4.219427407E-1,2.777827978E-1
4.231920420E0,-1.130067408E-1,-4.133908749E-1,2.838912606E-1
4.234327399E0,-6.291726977E-2,-3.938437700E-1,2.912214398E-1
4.236735316E0,-5.497625098E-3,-3.657447994E-1,2.985515893E-1
4.239143961E0,5.192201585E-2,-3.290939629E-1,3.022166789E-1
4.241551826E0,1.166718230E-1,-2.863346636E-1,3.058817685E-1
4.243958857E0,1.789782494E-1,-2.545706034E-1,3.083251417E-1
4.246366774E0,2.266243398E-1,-2.606790662E-1,3.119902313E-1
4.248775420E0,2.657185495E-1,-2.887780368E-1,3.144336343E-1
4.251183232E0,3.072561622E-1,-3.132119179E-1,3.205420971E-1
4.253590264E0,3.512371778E-1,-3.205420971E-1,3.229855001E-1
4.255998180E0,3.976615667E-1,-3.217637837E-1,3.242071867E-1
4.258406826E0,4.465293586E-1,-3.095468581E-1,3.229855001E-1
4.260814691E0,4.892886579E-1,-3.083251417E-1,3.180987239E-1
4.263221722E0,5.271611810E-1,-3.278722763E-1,3.046600819E-1
4.265629639E0,5.638120174E-1,-3.620797098E-1,2.851129472E-1
4.268038232E0,5.906893015E-1,-4.023956358E-1,2.594573796E-1
4.270446097E0,6.114581227E-1,-4.524851143E-1,2.313583940E-1
4.272853128E0,6.285618544E-1,-5.147915483E-1,1.959292591E-1
4.275261045E0,6.285618544E-1,-5.868715048E-1,1.605001241E-1
4.277669691E0,6.273401380E-1,-6.613948941E-1,1.250709742E-1
4.280077555E0,6.248967648E-1,-7.273663878E-1,9.330692142E-2
4.282484586E0,6.212316751E-1,-7.921161652E-1,6.765133142E-2
4.284892503E0,6.126797795E-1,-8.568660021E-1,4.443913698E-2
4.287301097E0,5.980194807E-1,-9.130639434E-1,2.733541466E-2
4.289708961E0,5.858024955E-1,-9.546015263E-1,1.389677543E-2
4.292115993E0,5.772506595E-1,-9.827005267E-1,1.679830020E-3
4.294523909E0,5.674771070E-1,-9.998042583E-1,-1.985253533E-3
4.296932555E0,5.552601814E-1,-1.012021184E0,-3.206948051E-3
4.299340420E0,5.381564498E-1,-1.023016453E0,-7.635590737E-4
4.301747451E0,5.149442554E-1,-1.042563558E0,1.679830020E-3
4.304155316E0,4.856235683E-1,-1.065775752E0,6.566607859E-3
4.306563961E0,4.563029110E-1,-1.085322857E0,1.145338640E-2
4.308971826E0,4.257605374E-1,-1.097539783E0,1.389677543E-2
4.311378857E0,3.903313875E-1,-1.103648305E0,1.389677543E-2
4.313786774E0,3.549022675E-1,-1.099983215E0,1.389677543E-2
4.316195420E0,3.109212518E-1,-1.102426648E0,1.389677543E-2
4.318603284E0,2.608317733E-1,-1.112200141E0,1.023169141E-2
4.321010316E0,2.034121305E-1,-1.120751977E0,7.788302377E-3
4.323418180E0,1.447708011E-1,-1.126860499E0,2.901524538E-3
4.325826826E0,7.879929990E-2,-1.130525589E0,-3.206948051E-3
4.328234691E0,9.162709117E-3,-1.134190679E0,-1.298050396E-2
4.330641722E0,-5.558710173E-2,-1.135412335E0,-1.664558798E-2
4.333049639E0,-1.154501289E-1,-1.130525589E0,-1.664558798E-2
4.335458284E0,-1.679829955E-1,-1.115865231E0,-1.420219894E-2
4.337866149E0,-2.082989216E-1,-1.096318126E0,-1.053711493E-2
4.340273128E0,-2.437280566E-1,-1.074327588E0,-4.428642802E-3
4.342681045E0,-2.730487287E-1,-1.053558826E0,5.344913341E-3
4.345089691E0,-2.999260128E-1,-1.036455035E0,1.878355257E-2
4.347497555E0,-3.170297146E-1,-1.020573020E0,2.733541466E-2
4.349904586E0,-3.243598938E-1,-1.008356094E0,3.710897267E-2
4.352312503E0,-3.280249834E-1,-1.001025915E0,4.443913698E-2
4.354721149E0,-3.292466700E-1,-1.002247691E0,5.299099907E-2
4.357129014E0,-3.243598938E-1,-9.961391687E-1,6.276455522E-2
4.359536045E0,-3.158080280E-1,-9.985825419E-1,6.887302548E-2
4.361943909E0,-3.048127890E-1,-1.003469348E0,7.620319724E-2
4.364352555E0,-2.913741469E-1,-1.014464617E0,8.108997345E-2
4.366760420E0,-2.816005945E-1,-1.026681542E0,8.964183182E-2
4.369167451E0,-2.632751763E-1,-1.037676811E0,9.697200358E-2
4.371575368E0,-2.510582209E-1,-1.051115394E0,1.043021679E-1
4.373984014E0,-2.388412803E-1,-1.069440842E0,1.128540337E-1
4.376391878E0,-2.229592502E-1,-1.092653036E0,1.201841980E-1
4.378798909E0,-2.119639963E-1,-1.113421798E0,1.262926757E-1
4.381206774E0,-2.046338320E-1,-1.137855768E0,1.336228400E-1
4.383615420E0,-1.948602796E-1,-1.164733052E0,1.385096163E-1
4.386023284E0,-1.826433241E-1,-1.190388560E0,1.409530044E-1
4.388430316E0,-1.740914732E-1,-1.218487620E0,1.421747059E-1
4.390838232E0,-1.643179059E-1,-1.241699815E0,1.433963925E-1
4.393246878E0,-1.569877416E-1,-1.263690233E0,1.482831687E-1
4.395654743E0,-1.459924877E-1,-1.283237338E0,1.507265568E-1
4.398061774E0,-1.349972486E-1,-1.296676040E0,1.543916464E-1
4.400469639E0,-1.215586066E-1,-1.297897696E0,1.592784226E-1
4.402878284E0,-1.044548824E-1,-1.296676040E0,1.690519750E-1
4.405286149E0,-8.979454637E-2,-1.293010950E0,1.788255423E-1
4.407693180E0,-7.513421029E-2,-1.282015681E0,1.885990947E-1
4.410101097E0,-5.925218388E-2,-1.272242069E0,1.983726472E-1
4.412509743E0,-4.092676565E-2,-1.262468576E0,2.069245130E-1
4.414917607E0,-2.748812735E-2,-1.245364904E0,2.191414535E-1
4.417324639E0,-6.719320081E-3,-1.223374367E0,2.338017821E-1
4.419732555E0,7.941014133E-3,-1.195275426E0,2.484621257E-1
4.422141149E0,2.748812735E-2,-1.172063231E0,2.619007528E-1
4.424549014E0,4.092676565E-2,-1.161067963E0,2.692309320E-1
4.426956045E0,5.070032179E-2,-1.148851037E0,2.753393948E-1
4.429363961E0,6.902574003E-2,-1.126860499E0,2.802261710E-1
4.431772607E0,8.612946421E-2,-1.102426648E0,2.887780368E-1
4.434180472E0,1.044548824E-1,-1.081657767E0,2.961082160E-1
4.436587503E0,1.203369126E-1,-1.059667230E0,2.997733057E-1
4.438995420E0,1.386623234E-1,-1.035233378E0,3.046600819E-1
4.441404066E0,1.557660550E-1,-1.012021184E0,3.083251417E-1
4.443811878E0,1.740914732E-1,-9.863656163E-1,3.107685447E-1
4.446218909E0,1.960819662E-1,-9.521581531E-1,3.168770075E-1
4.448626826E0,2.168507725E-1,-9.179506898E-1,3.205420971E-1
4.451035472E0,2.351761907E-1,-8.861866593E-1,3.254288733E-1
4.453443336E0,2.547233105E-1,-8.593093753E-1,3.290939629E-1
4.455850368E0,2.754921019E-1,-8.263236284E-1,3.352024257E-1
4.458258284E0,2.974826097E-1,-7.957812548E-1,3.413109183E-1
4.460666930E0,3.170297146E-1,-7.640172243E-1,3.510844707E-1
4.463074795E0,3.353551328E-1,-7.346965671E-1,3.596363366E-1
4.465481774E0,3.561239541E-1,-7.065975666E-1,3.681881726E-1
4.467889691E0,3.756710589E-1,-6.809419990E-1,3.730749488E-1
4.470298336E0,3.903313875E-1,-6.577298045E-1,3.816268146E-1
4.472706201E0,4.086568058E-1,-6.332958937E-1,3.865135908E-1
4.475113232E0,4.257605374E-1,-6.161921620E-1,3.914003670E-1
4.477521149E0,4.440859556E-1,-5.990884304E-1,3.975088596E-1
4.479929795E0,4.538595080E-1,-5.832064152E-1,4.060607255E-1
4.482337659E0,4.660764635E-1,-5.697677732E-1,4.109475017E-1
4.484744691E0,4.795151055E-1,-5.514423847E-1,4.182776511E-1
4.487152607E0,4.905103445E-1,-5.367820263E-1,4.256078303E-1
4.489561201E0,4.990622103E-1,-5.196782947E-1,4.341596961E-1
4.491969066E0,5.161659122E-1,-4.976878166E-1,4.390464723E-1
4.494376097E0,5.186093450E-1,-4.793623984E-1,4.488200247E-1
4.496784014E0,5.296045542E-1,-4.598152637E-1,4.573718905E-1
4.499192659E0,5.381564498E-1,-4.451549351E-1,4.610369802E-1
4.501600524E0,5.454866290E-1,-4.317162931E-1,4.683671296E-1
4.504007555E0,5.528167486E-1,-4.170559645E-1,4.781406820E-1
4.506415472E0,5.577035546E-1,-4.036173224E-1,4.830274582E-1
4.508824118E0,5.613686442E-1,-3.901786804E-1,4.915793240E-1
4.511231930E0,5.674771070E-1,-3.767400384E-1,5.001311898E-1
4.513638961E0,5.711421967E-1,-3.681881726E-1,5.074613690E-1
4.516046878E0,5.748072863E-1,-3.608580232E-1,5.111264586E-1
4.518455524E0,5.748072863E-1,-3.535278440E-1,5.147915483E-1
4.520863389E0,5.796940327E-1,-3.449759781E-1,5.196782947E-1
4.523270420E0,5.821374655E-1,-3.327590525E-1,5.257867575E-1
4.525678336E0,5.870242119E-1,-3.229855001E-1,5.306735635E-1
4.528086982E0,5.870242119E-1,-3.119902313E-1,5.355603099E-1
4.530494847E0,5.845808387E-1,-3.046600819E-1,5.392253995E-1
4.532901878E0,5.845808387E-1,-2.997733057E-1,5.453338623E-1
4.535309743E0,5.809157491E-1,-3.009949923E-1,5.477772951E-1
4.537718441E0,5.699204803E-1,-3.034383655E-1,5.514423847E-1
4.540126253E0,5.638120174E-1,-3.022166789E-1,5.551074743E-1
4.542533284E0,5.564818382E-1,-3.119902313E-1,5.551074743E-1
4.544941201E0,5.454866290E-1,-3.193204105E-1,5.551074743E-1
4.547349847E0,5.296045542E-1,-3.303156495E-1,5.538857579E-1
4.549757711E0,5.125008225E-1,-3.413109183E-1,5.538857579E-1
4.552164743E0,4.941754341E-1,-3.523061574E-1,5.538857579E-1
4.554572659E0,4.795151055E-1,-3.608580232E-1,5.538857579E-1
4.556981305E0,4.660764635E-1,-3.742966652E-1,5.514423847E-1
4.559389170E0,4.514161348E-1,-3.865135908E-1,5.477772951E-1
4.561796149E0,4.391991794E-1,-4.011739492E-1,5.428904891E-1
4.564204118E0,4.245388508E-1,-4.170559645E-1,5.380037427E-1
4.566612711E0,4.074351192E-1,-4.292729199E-1,5.318952799E-1
4.569020576E0,3.939964771E-1,-4.414898455E-1,5.257867575E-1
4.571427607E0,3.817795515E-1,-4.524851143E-1,5.209000111E-1
4.573835524E0,3.671191931E-1,-4.647020400E-1,5.147915483E-1
4.576244170E0,3.536805511E-1,-4.793623984E-1,5.111264586E-1
4.578652034E0,3.402419090E-1,-4.891359508E-1,5.074613690E-1
4.581059066E0,3.329117596E-1,-5.013529062E-1,5.025745630E-1
4.583466982E0,3.194731176E-1,-5.160132051E-1,5.001311898E-1
4.585875628E0,3.084778786E-1,-5.270084739E-1,4.964661002E-1
4.588283493E0,3.023693860E-1,-5.331169367E-1,4.964661002E-1
4.590690472E0,2.962609231E-1,-5.428904891E-1,4.964661002E-1
4.593098389E0,2.938175201E-1,-5.551074743E-1,4.964661002E-1
4.595507034E0,2.938175201E-1,-5.685460567E-1,4.976878166E-1
4.597914899E0,2.962609231E-1,-5.832064152E-1,4.964661002E-1
4.600321930E0,2.962609231E-1,-6.015318632E-1,4.952444136E-1
4.602729847E0,2.962609231E-1,-6.186355352E-1,4.940227270E-1
4.605138493E0,2.974826097E-1,-6.381826997E-1,4.928010404E-1
4.607546357E0,2.962609231E-1,-6.589514613E-1,4.879142344E-1
4.609953389E0,2.962609231E-1,-6.760551929E-1,4.818057716E-1
4.612361305E0,2.950392365E-1,-6.894938350E-1,4.756973088E-1
4.614769951E0,3.011476994E-1,-6.980457306E-1,4.695888162E-1
4.617177816E0,2.962609231E-1,-7.053758502E-1,4.647020400E-1
4.619584795E0,2.925958335E-1,-7.041541934E-1,4.598152637E-1
4.621992711E0,2.925958335E-1,-7.017107606E-1,4.537068009E-1
4.624401357E0,2.852656841E-1,-6.956022978E-1,4.475983381E-1
4.626809222E0,2.816005945E-1,-6.858287454E-1,4.439332485E-1
4.629216253E0,2.767138183E-1,-6.809419990E-1,4.402681589E-1
4.631624170E0,2.657185495E-1,-6.760551929E-1,4.353813827E-1
4.634032816E0,2.535016239E-1,-6.675033569E-1,4.317162931E-1
4.636440680E0,2.437280566E-1,-6.601731777E-1,4.268295169E-1
4.638847711E0,2.290677279E-1,-6.491779089E-1,4.256078303E-1
4.641255628E0,2.192941606E-1,-6.430694461E-1,4.231644273E-1
4.643664274E0,2.046338320E-1,-6.381826997E-1,4.207210541E-1
4.646072139E0,1.960819662E-1,-6.296308041E-1,4.194993675E-1
4.648479170E0,1.863084137E-1,-6.235223413E-1,4.207210541E-1
4.650887034E0,1.801999360E-1,-6.186355352E-1,4.219427407E-1
4.653295680E0,1.716480851E-1,-6.149705052E-1,4.243861437E-1
4.655703545E0,1.716480851E-1,-6.113054156E-1,4.256078303E-1
4.658110576E0,1.740914732E-1,-6.088619828E-1,4.292729199E-1
4.660518493E0,1.740914732E-1,-6.100836992E-1,4.353813827E-1
4.662927139E0,1.801999360E-1,-6.125270724E-1,4.414898455E-1
4.665335003E0,1.887518018E-1,-6.161921620E-1,4.488200247E-1
4.667742034E0,1.936385781E-1,-6.210789680E-1,4.598152637E-1
4.670149951E0,2.009687424E-1,-6.284091473E-1,4.744756222E-1
4.672558597E0,2.046338320E-1,-6.406260729E-1,4.879142344E-1
4.674966461E0,2.144073844E-1,-6.491779089E-1,5.013529062E-1
4.677373493E0,2.266243398E-1,-6.687250137E-1,5.135698318E-1
4.679781357E0,2.376195788E-1,-6.894938350E-1,5.294518471E-1
4.682190055E0,2.498365343E-1,-7.163711190E-1,5.441122055E-1
4.684597868E0,2.596100867E-1,-7.456917763E-1,5.575508475E-1
4.687004899E0,2.644968629E-1,-7.860077024E-1,5.697677732E-1
4.689412816E0,2.754921019E-1,-8.312104344E-1,5.807630420E-1
4.691821461E0,2.901524603E-1,-8.837432861E-1,5.880932212E-1
4.694229326E0,2.962609231E-1,-9.374978542E-1,5.929799676E-1
4.696636357E0,3.048127890E-1,-9.961391687E-1,5.978667736E-1
4.699044274E0,3.133646548E-1,-1.053558826E0,6.003101468E-1
4.701452920E0,3.182514310E-1,-1.114643574E0,6.003101468E-1
4.703860784E0,3.268032968E-1,-1.183058381E0,5.954233408E-1
4.706267816E0,3.390202224E-1,-1.260025144E0,5.856497884E-1
4.708675732E0,3.487937748E-1,-1.341878772E0,5.697677732E-1
4.711084378E0,3.622324169E-1,-1.426175594E0,5.453338623E-1
4.713492243E0,3.707842827E-1,-1.525132895E0,5.196782947E-1
4.715899222E0,3.781144619E-1,-1.628976941E0,4.866925478E-1
4.718307139E0,3.866663277E-1,-1.727934241E0,4.475983381E-1
4.720715784E0,3.903313875E-1,-1.828113079E0,4.048390090E-1
4.723123649E0,3.988832533E-1,-1.920961976E0,3.584146202E-1
4.725530680E0,4.062134326E-1,-2.008924007E0,3.083251417E-1
4.727938597E0,4.098785222E-1,-2.094442606E0,2.533488870E-1
4.730347243E0,4.111002088E-1,-2.168965816E0,1.959292591E-1
4.732755107E0,4.147652984E-1,-2.231272221E0,1.397313178E-1
4.735162139E0,4.159869850E-1,-2.281361818E0,8.231166750E-2
4.737570055E0,4.147652984E-1,-2.321677685E0,2.611372061E-2
4.739978701E0,4.111002088E-1,-2.355885267E0,-3.130592033E-2
4.742386566E0,4.013266563E-1,-2.376653910E0,-8.628217876E-2
4.744793597E0,3.927747905E-1,-2.387649298E0,-1.388150454E-1
4.747201461E0,3.854446113E-1,-2.381540775E0,-1.889045089E-1
4.749610159E0,3.756710589E-1,-2.359550238E0,-2.328855246E-1
4.752017972E0,3.597890437E-1,-2.329007864E0,-2.756448388E-1
4.754425003E0,3.487937748E-1,-2.292356968E0,-3.159607351E-1
4.756832920E0,3.292466700E-1,-2.239824295E0,-3.501681983E-1
4.759241566E0,3.109212518E-1,-2.176295996E0,-3.831539452E-1
4.761649430E0,2.950392365E-1,-2.100551128E0,-4.088095427E-1
4.764056461E0,2.742704153E-1,-2.016254187E0,-4.308000207E-1
4.766464378E0,2.547233105E-1,-1.919740200E0,-4.479037523E-1
4.768873024E0,2.363978922E-1,-1.809787750E0,-4.552339315E-1
4.771280889E0,2.192941606E-1,-1.699835181E0,-4.576773047E-1
4.773687920E0,1.997470558E-1,-1.587439299E0,-4.503471553E-1
4.776095836E0,1.814216375E-1,-1.478708506E0,-4.369085133E-1
4.778504482E0,1.655396074E-1,-1.371199369E0,-4.198047817E-1
4.780912347E0,1.484358907E-1,-1.268577099E0,-3.990359604E-1
4.783319378E0,1.337755471E-1,-1.163511276E0,-3.746020794E-1
4.785727295E0,1.191152185E-1,-1.062110662E0,-3.513898849E-1
4.788135941E0,1.007898003E-1,-9.582666159E-1,-3.306210935E-1
4.790543753E0,8.368607610E-2,-8.532009125E-1,-3.098522723E-1
4.792950784E0,6.413896382E-2,-7.469134927E-1,-2.903051674E-1
4.795358701E0,4.459185153E-2,-6.430694461E-1,-2.707580328E-1
4.797767347E0,2.748812735E-2,-5.416688323E-1,-2.499892414E-1
4.800175211E0,1.282779220E-2,-4.451549351E-1,-2.292204350E-1
4.802582243E0,-7.941014133E-3,-3.547495604E-1,-2.084516287E-1
4.804990159E0,-2.382304333E-2,-2.655658424E-1,-1.876828223E-1
4.807398805E0,-4.337015375E-2,-1.824906170E-1,-1.669140160E-1
4.809806670E0,-6.536065787E-2,-9.941539168E-2,-1.449235082E-1
4.812213701E0,-8.735115826E-2,-2.367033064E-2,-1.204896197E-1
4.814621618E0,-1.142284349E-1,4.474456236E-2,-9.849911928E-2
4.817030264E0,-1.484358907E-1,1.070509851E-1,-7.773031294E-2
4.819438128E0,-1.838650256E-1,1.620272398E-1,-5.818320066E-2
4.821845159E0,-2.241809368E-1,2.084516287E-1,-4.718795046E-2
4.824253076E0,-2.669402659E-1,2.524326444E-1,-4.230117425E-2
4.826661722E0,-3.133646548E-1,2.878617644E-1,-3.741439432E-2
4.829069586E0,-3.561239541E-1,3.184041381E-1,-3.985778242E-2
4.831476618E0,-4.001049399E-1,3.477247953E-1,-5.329642445E-2
4.833884482E0,-4.416425824E-1,3.770454824E-1,-6.795676053E-2
4.836293128E0,-4.795151055E-1,4.014793634E-1,-9.361234307E-2
4.838700993E0,-5.173876286E-1,4.246915579E-1,-1.241547018E-1
4.841108024E0,-5.528167486E-1,4.503471553E-1,-1.595838517E-1
4.843515941E0,-5.870242119E-1,4.723376334E-1,-2.011214644E-1
4.845924586E0,-6.187883019E-1,4.918847680E-1,-2.512109280E-1
4.848332451E0,-6.468872428E-1,5.114318728E-1,-3.013004065E-1
4.850739482E0,-6.749862432E-1,5.285356045E-1,-3.550549746E-1
4.853147399E0,-7.018635273E-1,5.419742465E-1,-4.100312293E-1
4.855556045E0,-7.214106321E-1,5.541911721E-1,-4.686725736E-1
4.857963909E0,-7.372926474E-1,5.615213513E-1,-5.260922313E-1
4.860370941E0,-7.543963790E-1,5.651864409E-1,-5.822901726E-1
4.862778857E0,-7.666133046E-1,5.639647245E-1,-6.397097707E-1
4.865187503E0,-7.751652002E-1,5.688515306E-1,-6.971294284E-1
4.867595368E0,-7.861604095E-1,5.712949038E-1,-7.569924593E-1
4.870002399E0,-7.959339619E-1,5.798467398E-1,-8.131904006E-1
4.872410316E0,-7.995990515E-1,5.957288146E-1,-8.742751479E-1
4.874818961E0,-8.069292307E-1,6.152759194E-1,-9.329164624E-1
4.877226826E0,-8.130376935E-1,6.433748603E-1,-9.927794933E-1
4.879633857E0,-8.167027831E-1,6.824691296E-1,-1.052642584E0
4.882041774E0,-8.203678727E-1,7.313368917E-1,-1.112505555E0
4.884450368E0,-8.289197087E-1,7.887565494E-1,-1.172368646E0
4.886858232E0,-8.423583508E-1,8.559496999E-1,-1.228566527E0
4.889265264E0,-8.545753360E-1,9.341381788E-1,-1.283542752E0
4.891673180E0,-8.667922616E-1,1.019656777E0,-1.339740753E0
4.894081826E0,-8.790091872E-1,1.113727212E0,-1.389830232E0
4.896489691E0,-8.973346353E-1,1.218793035E0,-1.436254621E0
4.898896722E0,-9.083298445E-1,1.333632231E0,-1.481457353E0
4.901304639E0,-9.144383669E-1,1.452136636E0,-1.520551562E0
4.903713284E0,-9.193251133E-1,1.575527787E0,-1.555980682E0
4.906121149E0,-9.242119193E-1,1.701362371E0,-1.586523056E0
4.908528180E0,-9.156600237E-1,1.832083583E0,-1.612178683E0
4.910936097E0,-9.022213817E-1,1.960514307E0,-1.631725788E0
4.913344743E0,-8.838959932E-1,2.088792086E0,-1.641499281E0
4.915752607E0,-8.557969928E-1,2.215848446E0,-1.645164371E0
4.918159639E0,-8.228112459E-1,2.339239597E0,-1.643942714E0
4.920567555E0,-7.861604095E-1,2.451635361E0,-1.634169102E0
4.922976201E0,-7.409577370E-1,2.560366392E0,-1.618287086E0
4.925384066E0,-6.896465421E-1,2.658101797E0,-1.596296549E0
4.927791097E0,-6.432221532E-1,2.731403589E0,-1.564532518E0
4.930199014E0,-5.955760479E-1,2.793709993E0,-1.522994876E0
