"Time (s)","Acceleration x (m/s^2)","Acceleration y (m/s^2)","Acceleration z (m/s^2)"
0.000000000E0,-4.126999855E0,5.158999920E0,7.814000130E0
1.429342500E-2,-4.510000229E0,5.032000065E0,6.506999969E0
1.683212600E-2,-4.507999897E0,4.993999958E0,6.554999828E0
1.937075700E-2,-4.465000153E0,5.044000149E0,6.684000015E0
2.190890400E-2,-4.519999981E0,5.102000237E0,6.798999786E0
2.444706500E-2,-4.540999889E0,5.018000126E0,6.954999924E0
2.698645900E-2,-4.544000149E0,5.146999836E0,7.156000137E0
2.952584200E-2,-4.592000008E0,5.018000126E0,7.382999897E0
3.206488000E-2,-4.592000008E0,5.030000210E0,7.597000122E0
3.460391900E-2,-4.593999863E0,5.059000015E0,7.747000217E0
3.714284700E-2,-4.703999996E0,5.059000015E0,7.934000015E0
3.968177000E-2,-4.635000229E0,5.053999901E0,7.981999874E0
4.222069300E-2,-4.697000027E0,5.146999836E0,8.133000374E0
4.475961600E-2,-4.770999908E0,5.248000145E0,8.201999664E0
4.729901400E-2,-4.876999855E0,5.322000027E0,8.267000198E0
4.983839900E-2,-4.868999958E0,5.372000217E0,8.371999741E0
5.237766800E-2,-5.037000179E0,5.434999943E0,8.446999550E0
5.491693700E-2,-5.092000008E0,5.466000080E0,8.508999825E0
5.745613000E-2,-5.188000202E0,5.565999985E0,8.534999847E0
5.999532300E-2,-5.241000175E0,5.572999954E0,8.630999565E0
6.253501500E-2,-5.217000008E0,5.557000160E0,8.687999725E0
6.507470600E-2,-5.197000027E0,5.443999767E0,8.652000427E0
6.761367100E-2,-5.111000061E0,5.367000103E0,8.623999596E0
7.015263400E-2,-4.962999821E0,5.296000004E0,8.487000465E0
7.269201900E-2,-4.853000164E0,5.283999920E0,8.454000473E0
7.523140400E-2,-4.709000111E0,5.248000145E0,8.355999947E0
7.777127700E-2,-4.649000168E0,5.255000114E0,8.217000008E0
8.031112400E-2,-4.540999889E0,5.236000061E0,7.962999821E0
8.285046800E-2,-4.431000233E0,5.202000141E0,7.751999855E0
8.538981500E-2,-4.282999992E0,5.135000229E0,7.530000210E0
8.792876300E-2,-3.918999910E0,5.004000187E0,7.160999775E0
9.046768600E-2,-3.694000006E0,4.909999847E0,6.763000011E0
9.300691700E-2,-3.486000061E0,4.860000134E0,6.419000149E0
9.554614800E-2,-3.282000065E0,4.743000031E0,6.138000011E0
9.808522400E-2,-3.269999981E0,4.658999920E0,6.038000107E0
1.006243010E-1,-3.282000065E0,4.558000088E0,6.013999939E0
1.031632250E-1,-3.325000048E0,4.419000149E0,5.940000057E0
1.057021480E-1,-3.342000008E0,4.388000011E0,5.948999882E0
1.082422870E-1,-3.296000004E0,4.381000042E0,5.881999969E0
1.107824400E-1,-3.213000059E0,4.472000122E0,5.692999840E0
1.133220160E-1,-3.118999958E0,4.486000061E0,5.559000015E0
1.158615950E-1,-2.980000019E0,4.639999866E0,5.407999992E0
1.184007920E-1,-2.642999887E0,4.814000130E0,5.281000137E0
1.209399830E-1,-2.244999886E0,4.977000237E0,5.109000206E0
1.234790610E-1,-1.896000028E0,4.897999763E0,5.079999924E0
1.260181380E-1,-1.807000041E0,4.879000187E0,5.199999809E0
1.285575010E-1,-2.177999973E0,4.649000168E0,4.965000153E0
1.310968860E-1,-2.585000038E0,4.295000076E0,4.639999866E0
1.336364230E-1,-3.035000086E0,4.223000050E0,5.192999840E0
1.361759620E-1,-3.246000051E0,4.318999767E0,5.850999832E0
1.387153850E-1,-3.401999950E0,4.467000008E0,6.445000172E0
1.412548080E-1,-3.628999949E0,4.382999897E0,6.691999912E0
1.437946170E-1,-4.209000111E0,3.944999933E0,6.550000191E0
1.463344240E-1,-4.467000008E0,3.756000042E0,6.809000015E0
1.488740000E-1,-4.769000053E0,3.907000065E0,7.130000114E0
1.514135790E-1,-4.984000206E0,4.051000118E0,7.728000164E0
1.539532710E-1,-4.980000019E0,4.265999794E0,8.437000275E0
1.564929620E-1,-4.776000023E0,4.493999958E0,9.020999908E0
1.590325050E-1,-4.440999985E0,4.660999775E0,9.446999550E0
1.615720440E-1,-4.005000114E0,4.951000214E0,9.560000420E0
1.641116990E-1,-3.532999992E0,5.063000202E0,9.626999855E0
1.666513520E-1,-2.973000050E0,5.123000145E0,9.616999626E0
1.691908900E-1,-2.525000095E0,5.132999897E0,9.751000404E0
1.717304290E-1,-2.082999945E0,5.104000092E0,9.746999741E0
1.742701600E-1,-1.840999961E0,5.132999897E0,1.010599995E1
1.768098910E-1,-1.809999943E0,5.034999847E0,1.070699978E1
1.793486150E-1,-1.751999974E0,4.972000122E0,1.106099987E1
1.818873480E-1,-1.771000028E0,4.907999992E0,1.121000004E1
1.844267330E-1,-1.629999995E0,4.834000111E0,1.103999996E1
1.869661160E-1,-1.371000051E0,4.756999969E0,1.071599960E1
1.895051830E-1,-1.105999947E0,4.635000229E0,1.022099972E1
1.920442600E-1,-8.059999943E-1,4.567999840E0,9.911999702E0
1.945833380E-1,-6.600000262E-1,4.421999931E0,9.890000343E0
1.971224150E-1,-5.550000072E-1,4.084000111E0,9.845000267E0
1.996612080E-1,-4.210000038E-1,3.792000055E0,9.897000313E0
2.022000150E-1,-2.700000107E-1,3.592999935E0,1.002700043E1
2.047406320E-1,-1.889999956E-1,3.375000000E0,1.013199997E1
2.072812470E-1,-7.599999756E-2,3.260999918E0,1.017300034E1
2.098210670E-1,-2.099999972E-2,3.125999928E0,9.972000122E0
2.123608760E-1,1.190000027E-1,3.128999949E0,9.663000107E0
2.149001060E-1,1.689999998E-1,3.226999998E0,9.526000023E0
2.174393370E-1,3.109999895E-1,3.257999897E0,9.467000008E0
2.199785880E-1,5.000000000E-1,3.384999990E0,9.368000031E0
2.225178570E-1,6.940000057E-1,3.440000057E0,9.218000412E0
2.250570860E-1,7.940000296E-1,3.469000101E0,9.133999825E0
2.275963190E-1,8.730000257E-1,3.450000048E0,8.965999603E0
2.301357040E-1,8.759999871E-1,3.453999996E0,8.645000458E0
2.326750870E-1,8.610000014E-1,3.398999929E0,8.161999702E0
2.352144330E-1,6.819999814E-1,3.197999954E0,7.609000206E0
2.377537800E-1,3.899999857E-1,2.711999893E0,8.017999649E0
2.402929960E-1,2.199999988E-1,2.513999939E0,8.192999840E0
2.428322270E-1,2.269999981E-1,2.302999973E0,7.809999943E0
2.453719200E-1,3.059999943E-1,2.236000061E0,6.578999996E0
2.479116110E-1,4.499999881E-1,2.098999977E0,5.432000160E0
2.504510050E-1,6.169999838E-1,2.108999968E0,5.022999763E0
2.529903900E-1,8.569999933E-1,2.204999924E0,5.255000114E0
2.555300830E-1,1.169999957E0,2.351000071E0,5.789000034E0
2.580697760E-1,1.440999985E0,2.466000080E0,6.612999916E0
2.606084230E-1,1.861999989E0,2.589999914E0,7.302000046E0
2.631470780E-1,2.154000044E0,2.755000114E0,7.984000206E0
2.656864250E-1,2.528000116E0,2.801000118E0,8.539999962E0
2.682257700E-1,2.723999977E0,2.877000093E0,8.949000359E0
2.707655190E-1,2.904000044E0,2.897000074E0,9.354000092E0
2.733052500E-1,3.049999952E0,2.970999956E0,9.864000320E0
2.758450580E-1,3.164999962E0,3.088000059E0,1.040499973E1
2.783848670E-1,3.260999918E0,3.073999882E0,1.107299995E1
2.809250680E-1,3.224999905E0,3.196000099E0,1.156200027E1
2.834652610E-1,3.203000069E0,3.275000095E0,1.200399971E1
2.860049520E-1,3.028000116E0,3.384999990E0,1.222700024E1
2.885446450E-1,2.897000074E0,3.339999914E0,1.239000034E1
2.910844970E-1,2.621000051E0,3.411000013E0,1.240400028E1
2.936243420E-1,2.398999929E0,3.411000013E0,1.238500023E1
2.961636870E-1,2.134999990E0,3.355999947E0,1.227700043E1
2.987030340E-1,1.891000032E0,3.325000048E0,1.209300041E1
3.012426120E-1,1.733000040E0,3.319999933E0,1.198799992E1
3.037821890E-1,1.544000030E0,3.275000095E0,1.156599998E1
3.063226500E-1,1.361999989E0,3.188999891E0,1.141800022E1
3.088631110E-1,1.299999952E0,3.161999941E0,1.140299988E1
3.114026000E-1,1.256999969E0,3.217000008E0,1.116199970E1
3.139421010E-1,1.182000041E0,3.154999971E0,1.093200016E1
3.164819870E-1,1.146000028E0,3.154999971E0,1.069999981E1
3.190218720E-1,1.184999943E0,3.118999958E0,1.038099957E1
3.215610480E-1,1.279999971E0,3.190999985E0,1.028100014E1
3.241002410E-1,1.273000002E0,3.249000072E0,9.965000153E0
3.266394730E-1,1.335999966E0,3.292000055E0,9.720000267E0
3.291787040E-1,1.450000048E0,3.344000101E0,9.512000084E0
3.317176260E-1,1.636999965E0,3.502000093E0,9.206000328E0
3.342565490E-1,1.699000001E0,3.566999912E0,8.878000259E0
3.367959730E-1,1.822000027E0,3.674999952E0,8.788999557E0
3.393353960E-1,1.866999984E0,3.753999949E0,8.517999649E0
3.418750880E-1,1.860000014E0,3.608000040E0,8.388999939E0
3.444147810E-1,1.929000020E0,3.698999882E0,8.194999695E0
3.469549340E-1,1.988999963E0,3.736999989E0,7.988999844E0
3.494950890E-1,2.010999918E0,3.796999931E0,7.901000023E0
3.520349530E-1,1.935999990E0,3.756000042E0,7.627999783E0
3.545748000E-1,1.919999957E0,3.670000076E0,7.519999981E0
3.571146460E-1,1.896000028E0,3.717999935E0,7.309000015E0
3.596544910E-1,1.963000059E0,3.578999996E0,7.133999825E0
3.621945010E-1,1.963000059E0,3.621999979E0,7.040999889E0
3.647345000E-1,2.164000034E0,3.540999889E0,7.126999855E0
3.672738840E-1,2.328999996E0,3.572000027E0,7.560999870E0
3.698132690E-1,2.532999992E0,3.494999886E0,7.953000069E0
3.723526360E-1,2.786000013E0,3.476000071E0,8.470000267E0
3.748920210E-1,3.091000080E0,3.473999977E0,8.805999756E0
3.774315210E-1,3.342000008E0,3.516999960E0,8.897000313E0
3.799710200E-1,3.595999956E0,3.516999960E0,9.027999878E0
3.825108850E-1,3.803999901E0,3.617000103E0,9.119000435E0
3.850507320E-1,3.882999897E0,3.621999979E0,8.991999626E0
3.875902690E-1,3.799000025E0,3.627000093E0,8.729000092E0
3.901298080E-1,3.635999918E0,3.552999973E0,8.557000160E0
3.926689000E-1,3.434999943E0,3.573999882E0,8.399000168E0
3.952079770E-1,3.240999937E0,3.509999990E0,8.220999718E0
3.977472470E-1,3.019000053E0,3.565000057E0,8.107000351E0
4.002865160E-1,2.808000088E0,3.573999882E0,7.965000153E0
4.028263560E-1,2.819999933E0,3.638999939E0,8.031999588E0
4.053662030E-1,2.690999985E0,3.585999966E0,8.078000069E0
4.079057410E-1,2.640000105E0,3.591000080E0,8.180999756E0
4.104452800E-1,2.710000038E0,3.421000004E0,8.284000397E0
4.129848000E-1,2.650000095E0,3.319999933E0,8.286000252E0
4.155243370E-1,2.644999981E0,3.095000029E0,8.338999748E0
4.180641840E-1,2.668999910E0,2.875000000E0,8.220999718E0
4.206040310E-1,2.642999887E0,2.466000080E0,8.135000229E0
4.231439620E-1,2.506000042E0,2.194999933E0,8.050999641E0
4.256839250E-1,2.556999922E0,1.777999997E0,7.849999905E0
4.282236160E-1,2.561000109E0,1.268000007E0,7.834000111E0
4.307633090E-1,2.608999968E0,8.140000105E-1,7.823999882E0
4.333033090E-1,2.776999950E0,6.700000167E-1,7.747000217E0
4.358433100E-1,3.142999887E0,7.009999752E-1,7.793000221E0
4.383828850E-1,3.483000040E0,8.610000014E-1,8.012999535E0
4.409224620E-1,3.653000116E0,9.739999771E-1,8.225999832E0
4.434616940E-1,3.681999922E0,9.670000076E-1,8.197999954E0
4.460009250E-1,3.532999992E0,8.899999857E-1,7.631999969E0
4.485411940E-1,3.239000082E0,4.880000055E-1,6.657999992E0
4.510814630E-1,3.000000000E0,1.809999943E-1,5.824999809E0
4.536221360E-1,2.937000036E0,-8.600000292E-2,5.362999916E0
4.561627910E-1,2.798000097E0,-3.109999895E-1,4.776000023E0
4.587029050E-1,2.607000113E0,-5.600000024E-1,4.428999901E0
4.612430220E-1,2.335999966E0,-7.940000296E-1,4.367000103E0
4.637832140E-1,1.881000042E0,-9.240000248E-1,4.574999809E0
4.663234070E-1,1.218000054E0,-1.256999969E0,4.776000023E0
4.688629430E-1,6.439999938E-1,-1.465000033E0,5.000999928E0
4.714024820E-1,2.960000038E-1,-1.539000034E0,5.367000103E0
4.739419880E-1,2.249999940E-1,-1.378999949E0,5.655000210E0
4.764814870E-1,3.829999864E-1,-9.760000110E-1,5.857999802E0
4.790211800E-1,7.680000067E-1,-4.620000124E-1,6.080999851E0
4.815608730E-1,1.047999978E0,3.999999911E-2,6.452000141E0
4.841001550E-1,1.220999956E0,3.249999881E-1,6.703999996E0
4.866394260E-1,1.266000032E0,3.869999945E-1,7.265999794E0
4.891789260E-1,1.133999944E0,2.870000005E-1,7.993999958E0
4.917184250E-1,1.021999955E0,1.220000014E-1,8.755000114E0
4.942581410E-1,8.399999738E-1,-1.309999973E-1,9.399000168E0
4.967978720E-1,7.030000091E-1,-2.579999864E-1,9.815999985E0
4.993378720E-1,4.930000007E-1,-4.070000052E-1,1.001200008E1
5.018778730E-1,3.160000145E-1,-5.479999781E-1,1.013899994E1
5.044179820E-1,3.799999878E-2,-5.910000205E-1,1.015600014E1
5.069580990E-1,-1.739999950E-1,-5.619999766E-1,1.013899994E1
5.094973280E-1,-4.210000038E-1,-5.360000134E-1,1.007699966E1
5.120365590E-1,-4.779999852E-1,-6.029999852E-1,9.854000092E0
5.145764400E-1,-6.340000033E-1,-6.769999862E-1,9.784999847E0
5.171163250E-1,-7.250000238E-1,-7.080000043E-1,9.701000214E0
5.196561310E-1,-7.580000162E-1,-7.440000176E-1,9.513999939E0
5.221959400E-1,-8.209999800E-1,-8.709999919E-1,9.463999748E0
5.247355060E-1,-8.880000114E-1,-8.379999995E-1,9.322999954E0
5.272750830E-1,-9.279999733E-1,-9.089999795E-1,9.409000397E0
5.298143150E-1,-9.959999919E-1,-9.430000186E-1,9.456999779E0
5.323535460E-1,-1.026999950E0,-8.299999833E-1,9.644000053E0
5.348929510E-1,-9.330000281E-1,-7.919999957E-1,9.807000160E0
5.374323340E-1,-9.240000248E-1,-7.319999933E-1,9.960000038E0
5.399718340E-1,-8.180000186E-1,-6.650000215E-1,1.015100002E1
5.425113350E-1,-7.229999900E-1,-5.450000167E-1,1.034500027E1
5.450510110E-1,-6.409999728E-1,-4.690000117E-1,1.063000011E1
5.475907040E-1,-6.150000095E-1,-3.300000131E-1,1.116899967E1
5.501298180E-1,-5.879999995E-1,-2.579999864E-1,1.183199978E1
5.526689350E-1,-5.289999843E-1,-1.600000076E-2,1.222700024E1
5.552084550E-1,-2.939999998E-1,1.019999981E-1,1.263399982E1
5.577479920E-1,2.000000095E-3,2.389999926E-1,1.289799976E1
5.602879530E-1,1.790000051E-1,4.070000052E-1,1.312699986E1
5.628279160E-1,3.950000107E-1,6.100000143E-1,1.293299961E1
5.653676510E-1,6.439999938E-1,8.759999871E-1,1.260499954E1
5.679073820E-1,8.830000162E-1,9.980000257E-1,1.323299980E1
5.704467670E-1,1.205999970E0,1.169999957E0,1.369200039E1
5.729861520E-1,1.710999966E0,1.240000010E0,1.312500000E1
5.755260120E-1,2.122999907E0,1.302000046E0,1.076200008E1
5.780658570E-1,2.528000116E0,1.230000019E0,7.664000034E0
5.806057030E-1,2.948999882E0,1.075000048E0,5.364999771E0
5.831455500E-1,3.348999977E0,1.014999986E0,4.223000050E0
5.856853960E-1,3.624000072E0,8.659999967E-1,3.914000034E0
5.882252430E-1,3.760999918E0,7.820000052E-1,4.230000019E0
5.907647430E-1,3.663000107E0,6.359999776E-1,4.855000019E0
5.933042420E-1,3.444999933E0,6.769999862E-1,5.362999916E0
5.958440750E-1,2.959000111E0,7.030000091E-1,5.541999817E0
5.983839200E-1,2.423000097E0,6.790000200E-1,5.489999771E0
6.009241130E-1,1.898000002E0,7.179999948E-1,5.552000046E0
6.034643060E-1,1.526999950E0,7.540000081E-1,5.764999866E0
6.060047510E-1,1.271000028E0,6.000000238E-1,6.145999908E0
6.085452140E-1,1.144000053E0,3.680000007E-1,6.498000145E0
6.110847120E-1,1.000000000E0,2.010000050E-1,6.960000038E0
6.136242130E-1,9.430000186E-1,-3.099999949E-2,7.442999840E0
6.161635680E-1,9.070000052E-1,-4.160000086E-1,8.086999893E0
6.187029530E-1,8.519999981E-1,-7.469999790E-1,8.675999641E0
6.212427990E-1,7.919999957E-1,-1.067000031E0,9.083000183E0
6.237826460E-1,7.129999995E-1,-1.442999959E0,9.331999779E0
6.263219040E-1,6.359999776E-1,-1.756999969E0,9.378000259E0
6.288611730E-1,4.740000069E-1,-2.023000002E0,9.510000229E0
6.314005200E-1,3.970000148E-1,-2.194999933E0,9.418999672E0
6.339398650E-1,2.919999957E-1,-2.226000071E0,9.397000313E0
6.364792880E-1,3.510000110E-1,-2.086999893E0,9.576999664E0
6.390187130E-1,6.079999804E-1,-1.819000006E0,9.722999573E0
6.415580960E-1,9.720000029E-1,-1.491000056E0,1.001500034E1
6.440974810E-1,1.455000043E0,-1.184999943E0,1.004100037E1
6.466374820E-1,1.902999997E0,-8.849999905E-1,9.986000061E0
6.491774810E-1,2.280999899E0,-7.369999886E-1,9.663000107E0
6.517176340E-1,2.525000095E0,-5.690000057E-1,9.255999565E0
6.542577890E-1,2.829999924E0,-3.799999952E-1,8.760000229E0
6.567969900E-1,2.996999979E0,-2.049999982E-1,8.432000160E0
6.593361830E-1,3.213000059E0,2.800000086E-2,8.048999786E0
6.618761840E-1,3.493000031E0,2.960000038E-1,7.763999939E0
6.644161830E-1,3.829999924E0,4.020000100E-1,7.541999817E0
6.669554180E-1,4.059999943E0,6.169999838E-1,7.421999931E0
6.694946510E-1,4.323999882E0,7.179999948E-1,7.402999878E0
6.720337660E-1,4.397999763E0,7.390000224E-1,7.270999908E0
6.745728810E-1,4.361999989E0,7.509999871E-1,7.105999947E0
6.771121070E-1,4.309000015E0,7.850000262E-1,6.794000149E0
6.796513380E-1,4.133999825E0,6.560000181E-1,6.442999840E0
6.821908760E-1,4.028999805E0,6.460000277E-1,6.114999771E0
6.847304150E-1,3.957000017E0,6.439999938E-1,5.671999931E0
6.872703890E-1,3.872999907E0,6.000000238E-1,5.335999966E0
6.898103520E-1,3.832999945E0,6.409999728E-1,4.969999790E0
6.923503890E-1,3.756000042E0,6.219999790E-1,4.558000088E0
6.948904280E-1,3.858999968E0,4.639999866E-1,3.890000105E0
6.974302110E-1,3.908999920E0,2.220000029E-1,3.019000053E0
6.999700200E-1,4.077000141E0,-1.049999967E-1,2.319999933E0
7.025097510E-1,4.300000191E0,-3.999999911E-2,2.601999998E0
7.050494820E-1,4.528999805E0,1.190000027E-1,3.368000031E0
7.075888660E-1,4.716000080E0,3.970000148E-1,4.416999817E0
7.101282510E-1,4.789999962E0,6.560000181E-1,5.594999790E0
7.126680590E-1,4.925000191E0,9.620000124E-1,6.749000072E0
7.152078660E-1,5.059000015E0,1.184999943E0,7.495999813E0
7.177476100E-1,5.079999924E0,1.309000015E0,8.020000458E0
7.202873410E-1,5.150000095E0,1.304000020E0,8.048999786E0
7.228269960E-1,5.297999859E0,1.162999988E0,8.168999672E0
7.253666490E-1,5.462999821E0,1.054999948E0,8.281000137E0
7.279060390E-1,5.722000122E0,9.049999714E-1,8.272000313E0
7.304454240E-1,6.094999790E0,7.799999714E-1,8.407999992E0
7.329846550E-1,6.475999832E0,6.529999971E-1,8.503999710E0
7.355238860E-1,6.789999962E0,6.529999971E-1,8.633000374E0
7.380637570E-1,7.046000004E0,5.600000024E-1,8.821999550E0
7.406036400E-1,7.138999939E0,5.690000057E-1,8.904000282E0
7.431432940E-1,7.168000221E0,5.090000033E-1,9.026000023E0
7.456829490E-1,7.019999981E0,4.860000014E-1,9.201000214E0
7.482223520E-1,6.961999893E0,4.420000017E-1,9.348999977E0
7.507617370E-1,6.705999851E0,4.189999998E-1,9.612999916E0
7.533015830E-1,6.493000031E0,4.140000045E-1,9.935999870E0
7.558414280E-1,6.310999870E0,2.720000148E-1,1.030700016E1
7.583813270E-1,6.133999825E0,1.550000012E-1,1.060400009E1
7.609212120E-1,6.020999908E0,8.100000024E-2,1.068999958E1
7.634610200E-1,5.896999836E0,1.899999939E-2,1.080000019E1
7.660008290E-1,5.775000095E0,-1.049999967E-1,1.067599964E1
7.685405590E-1,5.644999981E0,-2.750000060E-1,1.065400028E1
7.710802900E-1,5.439000130E0,-3.389999866E-1,1.058899975E1
7.736198280E-1,5.343999863E0,-4.020000100E-1,1.039500046E1
7.761593670E-1,5.022999763E0,-4.620000124E-1,1.020400047E1
7.786988960E-1,4.703999996E0,-5.379999876E-1,1.000300026E1
7.812383950E-1,4.439000130E0,-5.770000219E-1,9.767999649E0
7.837776270E-1,4.379000187E0,-5.770000219E-1,9.713000298E0
7.863168580E-1,4.421999931E0,-5.450000167E-1,9.737000465E0
7.888555070E-1,4.716000080E0,-3.440000117E-1,9.862000465E0
7.913941620E-1,5.113999844E0,-1.459999979E-1,9.975999832E0
7.939328920E-1,5.553999901E0,1.379999965E-1,1.005300045E1
7.964716230E-1,5.992000103E0,3.300000131E-1,1.008199978E1
7.990105490E-1,6.415999889E0,6.750000119E-1,1.004100037E1
8.015494720E-1,6.806000233E0,8.450000286E-1,9.975999832E0
8.040884330E-1,7.059999943E0,1.006999969E0,9.932999611E0
8.066273960E-1,7.409999847E0,1.072000027E0,9.835000038E0
8.091659960E-1,7.560999870E0,1.184999943E0,9.755999565E0
8.117046130E-1,7.750000000E0,1.251999974E0,9.852000237E0
8.142438440E-1,7.728000164E0,1.258999944E0,9.767999649E0
8.167830750E-1,7.730999947E0,1.192000031E0,9.727000237E0
8.193230790E-1,7.668000221E0,1.041000009E0,9.541000366E0
8.218630800E-1,7.539000034E0,1.026999950E0,9.364000320E0
8.244032330E-1,7.469999790E0,9.380000234E-1,9.184000015E0
8.269433860E-1,7.289999962E0,8.349999785E-1,8.979999542E0
8.294822500E-1,7.179999828E0,6.290000081E-1,8.746000290E0
8.320211370E-1,7.072000027E0,5.500000119E-1,8.513999939E0
8.345599440E-1,6.995999813E0,3.869999945E-1,8.368000031E0
8.370987510E-1,6.889999866E0,3.129999936E-1,8.119000435E0
8.396379930E-1,6.798999786E0,1.959999949E-1,7.995999813E0
8.421772240E-1,6.738999844E0,1.600000076E-2,7.828999996E0
8.447170310E-1,6.596000195E0,-6.899999827E-2,7.793000221E0
8.472568380E-1,6.382999897E0,-2.770000100E-1,7.769000053E0
8.497959480E-1,6.210000038E0,-4.040000141E-1,7.809999943E0
8.523350650E-1,5.892000198E0,-5.550000072E-1,7.755000114E0
8.548735260E-1,5.776999950E0,-6.510000229E-1,7.688000202E0
8.574119870E-1,5.466000080E0,-7.390000224E-1,7.600999832E0
8.599510420E-1,5.327000141E0,-8.659999967E-1,7.548999786E0
8.624900790E-1,5.146999836E0,-8.970000148E-1,7.514999866E0
8.650293090E-1,5.063000202E0,-9.980000257E-1,7.467000008E0
8.675685400E-1,4.986999989E0,-1.113000035E0,7.330999851E0
8.701074670E-1,4.980000019E0,-1.156000018E0,7.349999905E0
8.726463900E-1,4.972000122E0,-1.282999992E0,7.386000156E0
8.751858140E-1,4.988999844E0,-1.417000055E0,7.381000042E0
8.777252370E-1,5.067999840E0,-1.531999946E0,7.407000065E0
8.802644530E-1,5.190000057E0,-1.629999995E0,7.372000217E0
8.828036840E-1,5.308000088E0,-1.702000022E0,7.533999920E0
8.853432230E-1,5.443999767E0,-1.819000006E0,7.567999840E0
8.878827620E-1,5.469999790E0,-1.902999997E0,7.684999943E0
8.904216400E-1,5.506000042E0,-1.993999958E0,7.744999886E0
8.929605250E-1,5.469999790E0,-2.071000099E0,7.834000111E0
8.954996410E-1,5.485000134E0,-2.147000074E0,7.834000111E0
8.980387560E-1,5.432000160E0,-2.334000111E0,7.953000069E0
9.005785640E-1,5.221000195E0,-2.492000103E0,7.909999847E0
9.031183730E-1,5.123000145E0,-2.674000025E0,7.955999851E0
9.056579480E-1,4.943999767E0,-2.836999893E0,7.939000130E0
9.081975250E-1,4.758999825E0,-3.045000076E0,8.031999588E0
9.107369200E-1,4.585000038E0,-3.239000082E0,8.114000320E0
9.132763050E-1,4.359000206E0,-3.368000031E0,8.310000420E0
9.158156510E-1,4.177999973E0,-3.494999886E0,8.468000412E0
9.183549960E-1,3.878000021E0,-3.569000006E0,8.569000244E0
9.208942280E-1,3.631999969E0,-3.585999966E0,8.817999840E0
9.234334590E-1,3.427999973E0,-3.578999996E0,8.899000168E0
9.259730350E-1,3.233999968E0,-3.595999956E0,9.142999649E0
9.285126120E-1,3.141000032E0,-3.634000063E0,9.177000046E0
9.310522650E-1,3.101999998E0,-3.634000063E0,9.227000237E0
9.335919200E-1,3.118999958E0,-3.576999903E0,9.215000153E0
9.361308420E-1,3.059000015E0,-3.585999966E0,9.305999756E0
9.386697650E-1,3.193000078E0,-3.585999966E0,9.130999565E0
9.412091110E-1,3.272000074E0,-3.545000076E0,8.819999695E0
9.437484960E-1,3.322999954E0,-3.502000093E0,8.401000023E0
9.462877260E-1,3.398999929E0,-3.466000080E0,8.036999702E0
9.488269570E-1,3.447000027E0,-3.372999907E0,7.611000061E0
9.513663860E-1,3.648000002E0,-3.329999924E0,7.379000187E0
9.539058090E-1,3.865999937E0,-3.249000072E0,7.216000080E0
9.564451920E-1,4.065000057E0,-3.184000015E0,6.979000092E0
9.589845770E-1,4.328000069E0,-3.178999901E0,6.803999901E0
9.615239680E-1,4.609000206E0,-3.035000086E0,6.772999763E0
9.640633530E-1,4.939000130E0,-2.875000000E0,6.719999790E0
9.666030450E-1,5.165999889E0,-2.783999920E0,6.651000023E0
9.691427360E-1,5.381999969E0,-2.746000051E0,6.603000164E0
9.716819810E-1,5.447000027E0,-2.604000092E0,6.453999996E0
9.742212120E-1,5.513999939E0,-2.581000090E0,6.340000153E0
9.767600970E-1,5.655000210E0,-2.615999937E0,6.368000031E0
9.792989820E-1,5.671999931E0,-2.601999998E0,6.475999832E0
9.818380450E-1,5.778999805E0,-2.704999924E0,6.631999969E0
9.843771220E-1,5.706999779E0,-2.858000040E0,6.866000175E0
9.869160440E-1,5.624000072E0,-2.984999895E0,7.232999802E0
9.894549670E-1,5.532999992E0,-3.105000019E0,7.706999779E0
9.919940870E-1,5.422999859E0,-3.265000105E0,8.232999802E0
9.945332020E-1,5.274000168E0,-3.441999912E0,8.642999649E0
9.970727020E-1,5.132999897E0,-3.609999895E0,8.991999626E0
9.996122030E-1,4.888999939E0,-3.811000109E0,9.251000404E0
1.002151913E0,4.730999947E0,-3.980999947E0,9.286999702E0
1.004691644E0,4.598999977E0,-4.165999889E0,9.364000320E0
1.007230836E0,4.644000053E0,-4.276000023E0,9.586000443E0
1.009770029E0,4.767000198E0,-4.323999882E0,9.741999626E0
1.012308958E0,4.728000164E0,-4.407000065E0,9.925999641E0
1.014847881E0,4.818999767E0,-4.370999813E0,1.019400024E1
1.017386689E0,4.776000023E0,-4.458000183E0,1.045300007E1
1.019925496E0,4.846000195E0,-4.427000046E0,1.074499989E1
1.022464535E0,4.905000210E0,-4.510000229E0,1.100399971E1
1.025003574E0,4.939000130E0,-4.495999813E0,1.123099995E1
1.027542341E0,4.969999790E0,-4.570000172E0,1.150399971E1
1.030081112E0,5.092000008E0,-4.612999916E0,1.173400021E1
1.032620353E0,5.300000191E0,-4.625000000E0,1.195199966E1
1.035159584E0,5.560999870E0,-4.585000038E0,1.201399994E1
1.037698813E0,5.797999859E0,-4.477000237E0,1.187800026E1
1.040238044E0,5.967999935E0,-4.303999901E0,1.164099979E1
1.042777000E0,6.171999931E0,-4.197000027E0,1.133899975E1
1.045315923E0,6.329999924E0,-3.930999994E0,1.098400021E1
1.047855155E0,6.565000057E0,-3.707999945E0,1.076200008E1
1.050394386E0,6.866000175E0,-3.483000040E0,1.058199978E1
1.052933789E0,6.964000225E0,-3.257999897E0,1.056099987E1
1.055473212E0,7.270999908E0,-3.035000086E0,1.054599953E1
1.058011788E0,7.419000149E0,-2.872999907E0,1.050300026E1
1.060550367E0,7.507999897E0,-2.588000059E0,1.043599987E1
1.063088858E0,7.551000118E0,-2.394000053E0,1.042899990E1
1.065627357E0,7.570000172E0,-2.157000065E0,1.033800030E1
1.068165973E0,7.679999828E0,-1.955999970E0,1.030900002E1
1.070704588E0,7.747000217E0,-1.738000035E0,1.019400024E1
1.073243631E0,7.781000137E0,-1.570000052E0,1.022999954E1
1.075782670E0,7.925000191E0,-1.445999980E0,1.021599960E1
1.078321899E0,7.940999985E0,-1.434000015E0,9.987999916E0
1.080861130E0,8.041999817E0,-1.366999984E0,1.016100025E1
1.083400039E0,8.123000145E0,-1.218000054E0,1.046000004E1
1.085938962E0,8.170999527E0,-1.098000050E0,1.064500046E1
1.088478348E0,8.163999557E0,-9.259999990E-1,1.078299999E1
1.091017733E0,8.137999535E0,-7.440000176E-1,1.096100044E1
1.093556717E0,8.267000198E0,-7.350000143E-1,1.112600040E1
1.096095680E0,8.312000275E0,-6.600000262E-1,1.122200012E1
1.098635642E0,8.298000336E0,-7.110000253E-1,1.121899986E1
1.101175603E0,8.284000397E0,-7.630000114E-1,1.115400028E1
1.103714439E0,8.281000137E0,-7.969999909E-1,1.095100021E1
1.106253248E0,8.470000267E0,-1.041000009E0,1.060900021E1
1.108792440E0,8.435000420E0,-1.090999961E0,1.044799995E1
1.111331633E0,8.345999718E0,-1.139000058E0,1.008699989E1
1.113870699E0,8.223999977E0,-1.264000058E0,9.734999657E0
1.116409776E0,8.055999756E0,-1.363999963E0,9.444999695E0
1.118948700E0,8.015999794E0,-1.483999968E0,9.038000107E0
1.121487623E0,7.706999779E0,-1.524999976E0,8.850999832E0
1.124027354E0,7.481999874E0,-1.546000004E0,8.678999901E0
1.126567083E0,7.276000023E0,-1.521999955E0,8.746000290E0
1.129107030E0,7.077000141E0,-1.577000022E0,8.894000053E0
1.131646993E0,7.272999763E0,-1.738000035E0,9.104999542E0
1.134187030E0,7.321000099E0,-1.746999979E0,9.493000031E0
1.136727069E0,7.467000008E0,-1.955999970E0,9.720000267E0
1.139266877E0,7.342999935E0,-2.039000034E0,9.973999977E0
1.141806686E0,7.137000084E0,-2.111000061E0,1.024899960E1
1.144346570E0,7.126999855E0,-2.125999928E0,1.061600018E1
1.146886455E0,7.126999855E0,-2.150000095E0,1.097000027E1
1.149425544E0,7.303999901E0,-2.223999977E0,1.122399998E1
1.151964623E0,7.526999950E0,-2.072999954E0,1.125699997E1
1.154503969E0,7.737999916E0,-2.029999971E0,1.123600006E1
1.157043314E0,7.955999851E0,-1.960000038E0,1.117599964E1
1.159582712E0,8.114000320E0,-1.868999958E0,1.104399967E1
1.162122097E0,8.350999832E0,-1.789999962E0,1.081400013E1
1.164661943E0,8.581000328E0,-1.677999973E0,1.054199982E1
1.167201790E0,8.906000137E0,-1.656000018E0,1.021599960E1
1.169741174E0,9.298999786E0,-1.625000000E0,9.862000465E0
1.172280559E0,9.637000084E0,-1.672999978E0,9.428000450E0
1.174820098E0,9.829999924E0,-1.745000005E0,9.159999847E0
1.177359637E0,1.002700043E1,-1.830999970E0,8.892000198E0
1.179899155E0,1.013700008E1,-1.919999957E0,8.635999680E0
1.182438694E0,1.010599995E1,-1.981999993E0,8.515999794E0
1.184977963E0,1.008699989E1,-2.085000038E0,8.371999741E0
1.187517232E0,1.002700043E1,-2.211999893E0,8.305000305E0
1.190056560E0,1.002900028E1,-2.255000114E0,8.237999916E0
1.192595907E0,1.016800022E1,-2.371999979E0,8.217000008E0
1.195135444E0,1.029500008E1,-2.401000023E0,8.355999947E0
1.197674983E0,1.037899971E1,-2.407999992E0,8.529999733E0
1.200215031E0,1.054599953E1,-2.431999922E0,8.647999763E0
1.202755070E0,1.079800034E1,-2.437000036E0,8.937000275E0
1.205294414E0,1.103699970E1,-2.367000103E0,9.083000183E0
1.207833761E0,1.127400017E1,-2.371999979E0,9.206000328E0
1.210373488E0,1.155200005E1,-2.423000097E0,9.279999733E0
1.212913219E0,1.179399967E1,-2.367000103E0,9.286999702E0
1.215452872E0,1.190900040E1,-2.395999908E0,9.342000008E0
1.217992527E0,1.204800034E1,-2.486999989E0,9.284999847E0
1.220532377E0,1.214099979E1,-2.529999971E0,9.348999977E0
1.223072222E0,1.207100010E1,-2.686000109E0,9.444999695E0
1.225612222E0,1.211200047E1,-2.825000048E0,9.461999893E0
1.228152223E0,1.206700039E1,-2.963999987E0,9.430999756E0
1.230692083E0,1.190400028E1,-3.092999935E0,9.340000153E0
1.233231930E0,1.178899956E1,-3.240999937E0,9.178999901E0
1.235771354E0,1.156200027E1,-3.502000093E0,9.039999962E0
1.238310777E0,1.148299980E1,-3.520999908E0,8.697999954E0
1.240850589E0,1.133199978E1,-3.638999939E0,8.477999687E0
1.243390434E0,1.141499996E1,-3.591000080E0,8.104000092E0
1.245930280E0,1.148999977E1,-3.500000000E0,7.735000134E0
1.248470127E0,1.159700012E1,-3.354000092E0,7.352000237E0
1.251009944E0,1.174600029E1,-3.236999989E0,6.926000118E0
1.253549753E0,1.487500000E1,-2.413000107E0,-1.422000051E0
1.256089599E0,1.737000084E1,-1.508000016E0,-8.331999779E0
1.258629444E0,1.649900055E1,-9.789999723E-1,-8.909000397E0
1.261169880E0,1.633600044E1,-1.157999992E0,-8.671999931E0
1.263710343E0,1.563399982E1,-7.870000005E-1,-7.709000111E0
1.266250688E0,1.545199966E1,-5.070000291E-1,-6.475999832E0
1.268791035E0,1.524600029E1,-3.919999897E-1,-4.755000114E0
1.271331166E0,1.498499966E1,-3.849999905E-1,-2.640000105E0
1.273871281E0,1.461699963E1,-7.030000091E-1,-4.779999852E-1
1.276411166E0,1.393700027E1,-1.248999953E0,1.555999994E0
1.278951051E0,1.248799992E1,-2.078000069E0,3.246000051E0
1.281491382E0,1.087899971E1,-2.984999895E0,3.894999981E0
1.284031689E0,9.835000038E0,-3.760999918E0,4.070000172E0
1.286571343E0,9.439999580E0,-4.388000011E0,3.760999918E0
1.289110998E0,9.493000031E0,-4.842999935E0,3.236999989E0
1.291650728E0,9.397000313E0,-5.425000191E0,2.569000006E0
1.294190459E0,9.255999565E0,-5.755000114E0,1.976999998E0
1.296730458E0,9.137999535E0,-6.020999908E0,1.425999999E0
1.299270459E0,8.772000313E0,-6.103000164E0,7.350000143E-1
1.301810405E0,8.430000305E0,-5.989999771E0,1.162999988E0
1.304350368E0,7.936999798E0,-5.613999844E0,1.199000001E0
1.306889483E0,7.618000031E0,-5.441999912E0,1.246999979E0
1.309428598E0,7.664000034E0,-5.127999783E0,1.187000036E0
1.311967358E0,7.381000042E0,-5.046999931E0,1.141999960E0
1.314506127E0,7.414999962E0,-5.063000202E0,1.156000018E0
1.317045935E0,7.212999821E0,-4.916999817E0,1.381000042E0
1.319585742E0,6.791999817E0,-4.690000057E0,1.472000003E0
1.322125631E0,6.584000111E0,-4.409999847E0,1.289999962E0
1.324665516E0,6.535999775E0,-4.168000221E0,7.730000019E-1
1.327205053E0,6.568999767E0,-4.340000153E0,6.819999814E-1
1.329744592E0,6.947999954E0,-4.263999939E0,2.800000086E-2
1.332284747E0,6.837999821E0,-3.681999922E0,7.820000052E-1
1.334824900E0,6.852000237E0,-3.423000097E0,1.036000013E0
1.337363938E0,7.126999855E0,-3.523999929E0,1.103000045E0
1.339902977E0,7.112999916E0,-3.746999979E0,-2.890000045E-1
1.342442555E0,7.277999878E0,-4.442999840E0,5.450000167E-1
1.344982132E0,7.130000114E0,-3.818000078E0,1.702000022E0
1.347521939E0,6.377999783E0,-3.293999910E0,5.090000033E-1
1.350061746E0,5.880000114E0,-2.678999901E0,-7.149999738E-1
1.352600842E0,5.177999973E0,-1.904999971E0,2.560000122E-1
1.355139921E0,4.868999958E0,-1.465000033E0,2.089999914E0
1.357679152E0,5.165999889E0,-1.258999944E0,3.319999933E0
1.360218383E0,7.291999817E0,-1.893000007E0,3.013999939E0
1.362757897E0,8.751000404E0,-2.690999985E0,4.318999767E0
1.365297436E0,9.456999779E0,-4.242000103E0,4.927000046E0
1.367837011E0,9.920999527E0,-5.132999897E0,5.204999924E0
1.370376588E0,9.609999657E0,-5.729000092E0,5.130000114E0
1.372916876E0,9.378000259E0,-5.492000103E0,5.331999779E0
1.375457185E0,9.607999802E0,-5.153999805E0,6.524000168E0
1.377997491E0,9.395000458E0,-5.315000057E0,6.506999969E0
1.380537800E0,9.619999886E0,-5.000999928E0,6.138000011E0
1.383078430E0,9.682000160E0,-4.800000191E0,5.736000061E0
1.385619045E0,9.076000214E0,-5.620999813E0,5.834000111E0
1.388158852E0,8.857999802E0,-5.908999920E0,5.274000168E0
1.390698661E0,8.505999565E0,-5.834000111E0,4.221000195E0
1.393238978E0,8.097000122E0,-6.045000076E0,3.753999949E0
1.395779285E0,7.451000214E0,-6.363999844E0,3.167000055E0
1.398319439E0,7.348000050E0,-6.473999977E0,2.467999935E0
1.400859594E0,7.111000061E0,-6.313000202E0,2.006000042E0
1.403399150E0,6.849999905E0,-5.894000053E0,1.968000054E0
1.405938689E0,6.308000088E0,-5.797999859E0,2.345999956E0
1.408478074E0,5.933000088E0,-5.458000183E0,2.187999964E0
1.411017459E0,6.117000103E0,-4.703999996E0,2.095000029E0
1.413557032E0,6.098000050E0,-4.284999847E0,2.138000011E0
1.416096609E0,6.392000198E0,-3.713000059E0,1.393000007E0
1.418636569E0,6.535999775E0,-4.059999943E0,1.986999989E0
1.421176532E0,6.796999931E0,-4.105999947E0,2.105999947E0
1.423716415E0,7.163000107E0,-3.663000107E0,2.201999903E0
1.426256300E0,7.993999958E0,-4.017000198E0,2.563999891E0
1.428795647E0,8.307999611E0,-4.361999989E0,3.384999990E0
1.431334992E0,7.802000046E0,-4.390999794E0,2.013000011E0
1.433874347E0,7.660999775E0,-4.393000126E0,1.876999974E0
1.436413732E0,7.710999966E0,-4.197000027E0,2.280999899E0
1.438953731E0,8.232999802E0,-5.150000095E0,6.396999836E0
1.441493732E0,7.579999924E0,-6.039999962E0,6.647999763E0
1.444033264E0,7.165999889E0,-6.784999847E0,5.829999924E0
1.446572803E0,7.368999958E0,-7.311999798E0,5.757999897E0
1.449112842E0,7.897999763E0,-6.900000095E0,4.130000114E0
1.451652881E0,7.672999859E0,-6.670000076E0,4.625000000E0
1.454192726E0,7.521999836E0,-7.096000195E0,5.410999775E0
1.456732573E0,7.611000061E0,-6.998000145E0,4.723000050E0
1.459272574E0,7.642000198E0,-7.145999908E0,4.874000072E0
1.461812573E0,8.496999741E0,-7.533999920E0,5.497000217E0
1.464352558E0,8.243000031E0,-7.416999817E0,4.698999882E0
1.466892521E0,8.256999969E0,-6.557000160E0,3.779999971E0
1.469432251E0,8.381999969E0,-6.263000011E0,4.110000134E0
1.471971982E0,8.293000221E0,-6.626999855E0,4.348000050E0
1.474512093E0,8.364999771E0,-6.794000149E0,4.059999943E0
1.477052208E0,7.928999901E0,-6.505000114E0,3.118999958E0
1.479592514E0,7.818999767E0,-6.605000019E0,3.730000019E0
1.482132823E0,7.751999855E0,-6.885000229E0,3.724999905E0
1.484672644E0,7.574999809E0,-7.251999855E0,3.109999895E0
1.487212491E0,7.589000225E0,-7.182000160E0,2.765000105E0
1.489752069E0,6.854000092E0,-7.660999775E0,2.420000076E0
1.492291646E0,6.987999916E0,-7.972000122E0,3.006999969E0
1.494831641E0,7.198999882E0,-8.036999702E0,2.484999895E0
1.497371640E0,7.118000031E0,-8.420000076E0,2.092000008E0
1.499911909E0,7.318999767E0,-8.564000130E0,2.158999920E0
1.502452178E0,7.616000175E0,-8.685999870E0,2.786000013E0
1.504991929E0,7.671000004E0,-8.137999535E0,2.880000114E0
1.507531660E0,8.005999565E0,-7.901000023E0,3.161999941E0
1.510071353E0,8.071000099E0,-7.688000202E0,3.624000072E0
1.512611044E0,8.380000114E0,-7.867000103E0,4.637000084E0
1.515151300E0,8.432000160E0,-8.255000114E0,5.177999973E0
1.517691569E0,8.690999985E0,-8.376999855E0,4.795000076E0
1.520231144E0,8.965999603E0,-8.159000397E0,4.355000019E0
1.522770723E0,8.425000191E0,-7.943999767E0,3.907000065E0
1.525310386E0,8.661999702E0,-8.055999756E0,3.588999987E0
1.527850039E0,7.960999966E0,-8.286000252E0,3.573999882E0
1.530390193E0,7.447999954E0,-8.201999664E0,3.283999920E0
1.532930348E0,8.262000084E0,-8.189999580E0,2.980000019E0
1.535470240E0,8.383999825E0,-7.785999775E0,2.411000013E0
1.538010125E0,8.972999573E0,-7.337999821E0,3.315999985E0
1.540549511E0,8.793999672E0,-7.513000011E0,3.088000059E0
1.543088896E0,8.564000130E0,-7.969999790E0,2.869999886E0
1.545627972E0,8.128000259E0,-8.267000198E0,2.776999950E0
1.548167049E0,8.128000259E0,-8.248000145E0,2.966000080E0
1.550706396E0,8.229000092E0,-8.059000015E0,3.098000050E0
1.553245741E0,8.154000282E0,-7.965000153E0,3.160000086E0
1.555785005E0,7.962999821E0,-7.946000099E0,3.193000078E0
1.558324274E0,7.488999844E0,-7.822000027E0,2.967999935E0
1.560863621E0,7.451000214E0,-7.716000080E0,2.660000086E0
1.563402968E0,6.366000175E0,-7.589000225E0,2.095000029E0
1.565942697E0,5.190000057E0,-7.548999786E0,1.620000005E0
1.568482428E0,4.348000050E0,-7.579999924E0,1.437999964E0
1.571022236E0,3.497999907E0,-7.560999870E0,9.210000038E-1
1.573562043E0,2.707000017E0,-7.611000061E0,5.310000181E-1
1.576101269E0,1.889000058E0,-8.065999985E0,1.790000051E-1
1.578640502E0,6.119999886E-1,-8.661999702E0,-3.729999959E-1
1.581180040E0,-5.360000134E-1,-9.399000168E0,-4.420000017E-1
1.583719579E0,-1.592000008E0,-1.045499992E1,-5.740000010E-1
1.586258866E0,-3.250999928E0,-1.164500046E1,-6.629999876E-1
1.588798135E0,-3.901999950E0,-1.251700020E1,-1.930000037E-1
1.591337521E0,-3.459000111E0,-1.289999962E1,1.739999950E-1
1.593876906E0,-1.575000048E0,-1.282800007E1,2.525000095E0
1.596417377E0,4.300000146E-2,-1.285200024E1,3.342000008E0
1.598957838E0,2.279000044E0,-1.235599995E1,3.802000046E0
1.601497029E0,3.736999989E0,-1.178699970E1,4.228000164E0
1.604036222E0,4.747000217E0,-1.118299961E1,4.191999912E0
1.606575915E0,5.966000080E0,-1.038399982E1,4.460000038E0
1.609115608E0,7.755000114E0,-9.741999626E0,5.116000175E0
1.611655299E0,7.826000214E0,-9.791999817E0,4.539000034E0
1.614194992E0,9.177000046E0,-9.340000153E0,4.776000023E0
1.616734881E0,7.618000031E0,-9.975999832E0,5.715000153E0
1.619274766E0,7.995999813E0,-1.014400005E1,5.388999939E0
1.621813842E0,8.029999733E0,-1.066399956E1,6.949999809E0
1.624352921E0,8.899000168E0,-1.075699997E1,8.710000038E0
1.626892426E0,8.991999626E0,-1.058899975E1,9.251000404E0
1.629431925E0,9.277000427E0,-1.014900017E1,1.052200031E1
1.631971809E0,9.506999969E0,-9.722999573E0,1.053699970E1
1.634511694E0,8.996999741E0,-9.671999931E0,9.432999611E0
1.637052160E0,9.027999878E0,-9.045000076E0,1.038799953E1
1.639592621E0,9.758999825E0,-6.821000099E0,1.068299961E1
1.642132736E0,8.576000214E0,-6.945000172E0,1.095100021E1
1.644672853E0,6.933000088E0,-7.977000237E0,1.002900028E1
1.647212602E0,5.146999836E0,-8.972999573E0,9.364000320E0
1.649752333E0,3.653000116E0,-1.013899994E1,8.152000427E0
1.652291987E0,3.124000072E0,-1.081200027E1,6.900000095E0
1.654831640E0,3.012000084E0,-1.099400043E1,5.316999912E0
1.657371227E0,2.286000013E0,-1.196599960E1,4.144000053E0
1.659910804E0,1.115000010E0,-1.207900047E1,3.461999893E0
1.662450342E0,-3.589999974E-1,-1.219600010E1,3.536000013E0
1.664989881E0,-7.059999704E-1,-1.184899998E1,3.382999897E0
1.667529554E0,2.309999943E0,-8.545000076E0,2.581000090E0
1.670069247E0,4.609000206E0,-4.560999870E0,-5.086999893E0
1.672608284E0,6.449999809E0,-2.305000067E0,-6.426000118E0
1.675147323E0,9.425999641E0,-6.629999876E-1,-4.797999859E0
1.677686602E0,1.276099968E1,5.809999704E-1,-2.121000051E0
1.680225871E0,1.293599987E1,6.790000200E-1,3.500000015E-2
1.682765063E0,1.245199966E1,4.189999998E-1,1.139000058E0
1.685304256E0,1.321399975E1,4.659999907E-1,1.292000055E0
1.687843785E0,1.252900028E1,-2.150000036E-1,1.230000019E0
1.690383324E0,9.744000435E0,-1.312000036E0,1.314000010E0
1.692922707E0,6.967000008E0,-2.994999886E0,9.789999723E-1
1.695462092E0,5.004000187E0,-4.412000179E0,1.248999953E0
1.698002242E0,5.048999786E0,-5.109000206E0,-1.099999994E-1
1.700542395E0,4.314000130E0,-5.662000179E0,-3.540000021E-1
1.703082124E0,2.951999903E0,-6.320000172E0,-5.619999766E-1
1.705621857E0,9.670000076E-1,-7.256999969E0,-6.769999862E-1
1.708161839E0,1.833999991E0,-8.114000320E0,-3.799999952E-1
1.710701838E0,2.130000114E0,-8.734000206E0,1.241999984E0
1.713241222E0,3.095000029E0,-8.925000191E0,2.801000118E0
1.715780607E0,4.434000015E0,-9.050000191E0,4.473999977E0
1.718320098E0,6.940999985E0,-8.826999664E0,4.809999943E0
1.720859597E0,7.202000141E0,-8.826999664E0,5.197000027E0
1.723399482E0,7.737999916E0,-8.510999680E0,5.757999897E0
1.725939367E0,8.788999557E0,-8.300000191E0,5.394000053E0
1.728479319E0,1.065400028E1,-7.958000183E0,5.176000118E0
1.731019282E0,1.040999985E1,-7.853000164E0,6.068999767E0
1.733559473E0,9.991000175E0,-8.102000237E0,6.071000099E0
1.736099666E0,8.288999557E0,-8.668999672E0,5.723999977E0
1.738639502E0,6.964000225E0,-9.177000046E0,5.304999828E0
1.741179311E0,5.952000141E0,-9.746999741E0,4.133999825E0
1.743719195E0,5.056000233E0,-9.928999901E0,3.164999962E0
1.746259080E0,5.252999783E0,-9.947999954E0,2.157000065E0
1.748799020E0,5.138000011E0,-1.005300045E1,1.861999989E0
1.751338983E0,4.390999794E0,-1.000500011E1,1.610999942E0
1.753878866E0,4.416999817E0,-9.850000381E0,1.162999988E0
1.756418751E0,4.574999809E0,-9.640999794E0,3.440000117E-1
1.758959026E0,3.936000109E0,-9.449999809E0,-3.009999990E-1
1.761499295E0,3.635999918E0,-9.019000053E0,-3.179999888E-1
1.764039295E0,4.254000187E0,-8.295999527E0,-1.090999961E0
1.766579296E0,4.660999775E0,-7.867000103E0,-1.402999997E0
1.769118825E0,4.484000206E0,-7.374000072E0,-1.435999990E0
1.771658364E0,4.751999855E0,-6.856999874E0,-1.455000043E0
1.774198556E0,5.158999920E0,-6.651000023E0,-1.319000006E0
1.776738747E0,5.376999855E0,-6.585999966E0,-1.039000034E0
1.779278847E0,4.807000160E0,-6.938000202E0,-9.359999895E-1
1.781818964E0,4.175000191E0,-7.232999802E0,-9.639999866E-1
1.784359310E0,3.730000019E0,-7.379000187E0,-5.929999948E-1
1.786899655E0,3.214999914E0,-7.546000004E0,-1.059999943E0
1.789439756E0,2.911000013E0,-7.920000076E0,-8.610000014E-1
1.791979873E0,2.869999886E0,-7.946000099E0,-9.380000234E-1
1.794519757E0,3.378000021E0,-8.439000130E0,-6.790000200E-1
1.797059642E0,4.232999802E0,-8.690999985E0,-2.300000004E-2
1.799598983E0,4.625000000E0,-9.267999649E0,6.909999847E-1
1.802138330E0,4.960000038E0,-9.701000214E0,6.700000167E-1
1.804677907E0,4.830999851E0,-1.016100025E1,1.154000044E0
1.807217484E0,5.102000237E0,-1.062300014E1,1.325999975E0
1.809756559E0,4.665999889E0,-1.137199974E1,1.187000036E0
1.812295636E0,4.170000076E0,-1.212699986E1,1.340000033E0
1.814835176E0,3.681999922E0,-1.254800034E1,1.083999991E0
1.817374713E0,3.301000118E0,-1.301000023E1,8.709999919E-1
