"Time (s)","Gyroscope x (rad/s)","Gyroscope y (rad/s)","Gyroscope z (rad/s)"
3.429273100E-2,2.183778882E-1,1.478250325E-1,-4.550812021E-2
3.669804300E-2,2.452551723E-1,1.392731816E-1,-6.383354217E-2
3.910335600E-2,2.660239935E-1,1.246128380E-1,-8.338065445E-2
4.150866800E-2,2.855710983E-1,1.111742035E-1,-1.004843712E-1
4.391398100E-2,2.990097404E-1,1.026223376E-1,-1.188097894E-1
4.631929300E-2,3.075616062E-1,9.773556143E-2,-1.322484314E-1
4.872460600E-2,3.124483824E-1,9.651386738E-2,-1.432436854E-1
5.112991800E-2,3.124483824E-1,9.529217333E-2,-1.542389393E-1
5.353523100E-2,3.038965166E-1,9.895725548E-2,-1.579040140E-1
5.594049100E-2,2.953446507E-1,1.001789495E-1,-1.627907902E-1
5.834580400E-2,2.806843221E-1,1.001789495E-1,-1.627907902E-1
6.075111600E-2,2.635805905E-1,9.529217333E-2,-1.615691036E-1
6.315642900E-2,2.440334857E-1,9.284878522E-2,-1.615691036E-1
6.556174100E-2,2.220429778E-1,8.796200156E-2,-1.615691036E-1
6.796705400E-2,2.024958730E-1,8.307522535E-2,-1.591257155E-1
7.037236600E-2,1.829487532E-1,7.696675509E-2,-1.566823274E-1
7.277767900E-2,1.634016484E-1,7.085828483E-2,-1.554606259E-1
7.518299100E-2,1.450762302E-1,6.597150117E-2,-1.542389393E-1
7.758830400E-2,1.279724985E-1,6.352811307E-2,-1.505738497E-1
7.999356400E-2,1.181989461E-1,6.230641901E-2,-1.505738497E-1
8.239887700E-2,1.047603041E-1,6.108472496E-2,-1.493521482E-1
8.480418900E-2,9.498675168E-2,6.474980712E-2,-1.493521482E-1
8.720950200E-2,8.643488586E-2,6.841489673E-2,-1.481304616E-1
8.961481400E-2,8.276980370E-2,6.719319522E-2,-1.481304616E-1
9.202012700E-2,7.666133344E-2,6.963659078E-2,-1.481304616E-1
9.442543900E-2,7.421794534E-2,6.597150117E-2,-1.493521482E-1
9.683075200E-2,7.177454978E-2,6.474980712E-2,-1.530172378E-1
9.923601200E-2,7.421794534E-2,5.986303091E-2,-1.566823274E-1
1.016413250E-1,7.421794534E-2,6.108472496E-2,-1.615691036E-1
1.040466370E-1,7.543963939E-2,5.986303091E-2,-1.688992679E-1
1.064519500E-1,7.788302749E-2,6.230641901E-2,-1.737860441E-1
1.088572620E-1,8.154810965E-2,6.719319522E-2,-1.811162084E-1
1.112625750E-1,8.399149776E-2,7.330167294E-2,-1.860029846E-1
1.136678870E-1,8.399149776E-2,7.696675509E-2,-1.921114624E-1
1.160732000E-1,8.032641560E-2,7.574506104E-2,-1.982199401E-1
1.184785120E-1,7.788302749E-2,7.452336699E-2,-2.006633282E-1
1.208838250E-1,7.666133344E-2,7.207997888E-2,-2.043284029E-1
1.232890850E-1,7.177454978E-2,6.963659078E-2,-2.067717910E-1
1.256943980E-1,6.933116168E-2,6.841489673E-2,-2.067717910E-1
1.280997100E-1,6.200099736E-2,6.841489673E-2,-2.067717910E-1
1.305050230E-1,5.467082933E-2,6.841489673E-2,-2.055501044E-1
1.329103350E-1,5.222744122E-2,6.597150117E-2,-2.018850148E-1
1.353156480E-1,4.489727318E-2,6.108472496E-2,-1.982199401E-1
1.377209600E-1,3.390202299E-2,5.741964281E-2,-1.957765520E-1
1.401262730E-1,3.023693897E-2,5.008947477E-2,-1.908897758E-1
1.425315850E-1,2.412846684E-2,4.398100078E-2,-1.872246861E-1
1.449368450E-1,1.801999472E-2,3.787253052E-2,-1.860029846E-1
1.473421580E-1,1.191152167E-2,3.542914242E-2,-1.811162084E-1
1.497474700E-1,8.246437646E-3,2.809897438E-2,-1.786728203E-1
1.521527830E-1,-3.054236295E-4,2.321219631E-2,-1.762294322E-1
1.545580950E-1,-1.527118147E-3,1.832541823E-2,-1.713426560E-1
1.569634080E-1,-5.192201585E-3,1.343864016E-2,-1.676775664E-1
1.593687200E-1,-1.130067464E-2,9.773556143E-3,-1.627907902E-1
1.617740330E-1,-7.635590620E-3,2.443389036E-3,-1.603474021E-1
1.641793450E-1,-1.130067464E-2,-4.886778072E-3,-1.566823274E-1
1.665846060E-1,-1.496575773E-2,-1.466033421E-2,-1.505738497E-1
1.689899180E-1,-1.374406368E-2,-2.565558441E-2,-1.456870735E-1
1.713952310E-1,-1.374406368E-2,-3.787253052E-2,-1.420219839E-1
1.738005430E-1,-1.496575773E-2,-4.764608666E-2,-1.371352077E-1
1.762058560E-1,-1.374406368E-2,-5.619794875E-2,-1.310267299E-1
1.786111680E-1,-1.618745178E-2,-6.474980712E-2,-1.310267299E-1
1.810164810E-1,-1.374406368E-2,-7.330167294E-2,-1.285833418E-1
1.834217930E-1,-1.252236869E-2,-8.185353130E-2,-1.273616552E-1
1.858271060E-1,-1.252236869E-2,-8.551861346E-2,-1.224748790E-1
1.882324180E-1,-6.413896102E-3,-9.162709117E-2,-1.224748790E-1
1.906376790E-1,-6.413896102E-3,-9.407047927E-2,-1.212531775E-1
1.930429910E-1,-7.635590620E-3,-9.773556143E-2,-1.224748790E-1
1.954483040E-1,-3.970507067E-3,-1.038440317E-1,-1.249182671E-1
1.978536160E-1,-3.970507067E-3,-1.014006436E-1,-1.273616552E-1
2.002589290E-1,-5.192201585E-3,-9.895725548E-2,-1.310267299E-1
2.026642410E-1,-2.748812549E-3,-9.773556143E-2,-1.359135211E-1
2.050695540E-1,-5.192201585E-3,-9.284878522E-2,-1.395785958E-1
2.074748660E-1,-6.413896102E-3,-9.040539712E-2,-1.469087601E-1
2.098801790E-1,-7.635590620E-3,-8.429691941E-2,-1.517955512E-1
2.122854390E-1,-7.635590620E-3,-8.063183725E-2,-1.591257155E-1
2.146907520E-1,-8.857285604E-3,-7.574506104E-2,-1.676775664E-1
2.170960640E-1,-1.007897966E-2,-7.085828483E-2,-1.750077456E-1
2.195013770E-1,-8.857285604E-3,-6.597150117E-2,-1.823379099E-1
2.219066890E-1,-8.857285604E-3,-6.108472496E-2,-1.908897758E-1
2.243120020E-1,-8.857285604E-3,-5.619794875E-2,-1.994416267E-1
2.267173140E-1,-1.007897966E-2,-5.131116882E-2,-2.055501044E-1
2.291226270E-1,-7.635590620E-3,-5.008947477E-2,-2.153236568E-1
2.315278870E-1,-5.192201585E-3,-4.764608666E-2,-2.226538211E-1
2.339332000E-1,-5.192201585E-3,-4.520269856E-2,-2.312056869E-1
2.363385120E-1,-7.635590620E-3,-4.275930673E-2,-2.385358512E-1
2.387438250E-1,-5.192201585E-3,-4.031591862E-2,-2.434226274E-1
2.411491370E-1,-6.413896102E-3,-3.787253052E-2,-2.519744933E-1
2.435544500E-1,-6.413896102E-3,-3.298575059E-2,-2.556395829E-1
2.459597620E-1,-5.192201585E-3,-2.565558441E-2,-2.605263591E-1
2.483650750E-1,-3.970507067E-3,-1.954711229E-2,-2.641914487E-1
2.507703870E-1,-3.970507067E-3,-9.773556143E-3,-2.666348219E-1
2.531756480E-1,-2.748812549E-3,4.886778072E-3,-2.641914487E-1
2.555809600E-1,-3.970507067E-3,1.710372418E-2,-2.605263591E-1
2.579862730E-1,-6.413896102E-3,2.809897438E-2,-2.519744933E-1
2.603915850E-1,-5.192201585E-3,3.176405653E-2,-2.495311052E-1
2.627968980E-1,-2.748812549E-3,3.542914242E-2,-2.446443290E-1
2.652022100E-1,-3.054236295E-4,3.909422457E-2,-2.422009408E-1
2.676075230E-1,4.581354558E-3,4.153761268E-2,-2.373141646E-1
2.700128350E-1,8.246437646E-3,4.520269856E-2,-2.348707765E-1
2.724181480E-1,1.435491070E-2,5.131116882E-2,-2.312056869E-1
2.748234080E-1,2.046338283E-2,5.008947477E-2,-2.238755226E-1
2.772287200E-1,2.412846684E-2,4.886778072E-2,-2.202104330E-1
2.796340330E-1,2.901524492E-2,4.031591862E-2,-2.141019702E-1
2.820393450E-1,3.268032894E-2,3.420744836E-2,-2.092151791E-1
2.844446580E-1,3.512371704E-2,3.298575059E-2,-2.006633282E-1
2.868499700E-1,4.123219103E-2,2.932066843E-2,-1.884463727E-1
2.892552830E-1,4.611896724E-2,2.076880634E-2,-1.774511337E-1
2.916605950E-1,5.222744122E-2,1.466033421E-2,-1.688992679E-1
2.940658560E-1,5.955760926E-2,3.665083554E-3,-1.640124917E-1
2.964711680E-1,6.077930331E-2,-4.886778072E-3,-1.640124917E-1
2.988764810E-1,6.444438547E-2,-1.099525020E-2,-1.640124917E-1
3.012817930E-1,6.444438547E-2,-1.588202827E-2,-1.676775664E-1
3.036871060E-1,6.444438547E-2,-1.588202827E-2,-1.713426560E-1
3.060924180E-1,6.566607952E-2,-1.832541823E-2,-1.750077456E-1
3.084977310E-1,6.200099736E-2,-2.076880634E-2,-1.811162084E-1
3.109030430E-1,5.955760926E-2,-2.443389036E-2,-1.835595965E-1
3.133083040E-1,5.711421743E-2,-2.687728032E-2,-1.884463727E-1
3.157136160E-1,4.978405312E-2,-2.687728032E-2,-1.933331639E-1
3.181189290E-1,4.734066129E-2,-2.687728032E-2,-1.994416267E-1
3.205242410E-1,4.001049697E-2,-2.809897438E-2,-2.055501044E-1
3.229295540E-1,3.512371704E-2,-3.054236248E-2,-2.104368806E-1
3.253348660E-1,3.023693897E-2,-3.542914242E-2,-2.202104330E-1
3.277401790E-1,2.290677279E-2,-4.031591862E-2,-2.299840003E-1
3.301454910E-1,1.679829881E-2,-4.398100078E-2,-2.385358512E-1
3.325507520E-1,9.468132630E-3,-4.764608666E-2,-2.495311052E-1
3.349560640E-1,3.359660041E-3,-4.886778072E-2,-2.593046725E-1
3.373613770E-1,-2.748812549E-3,-4.642439261E-2,-2.690782249E-1
3.397666890E-1,-1.130067464E-2,-4.764608666E-2,-2.764083743E-1
3.421720020E-1,-2.229592577E-2,-4.764608666E-2,-2.849602401E-1
3.445773140E-1,-3.329117596E-2,-4.642439261E-2,-2.922904193E-1
3.469826270E-1,-4.428642616E-2,-4.153761268E-2,-2.983988822E-1
3.493879390E-1,-5.772506446E-2,-3.176405653E-2,-3.032856584E-1
3.517932520E-1,-7.482878864E-2,-1.832541823E-2,-3.045073450E-1
3.541985120E-1,-9.193251282E-2,0.000000000E0,-3.045073450E-1
3.566038250E-1,-1.004843712E-1,4.520269856E-2,-2.996205688E-1
3.590091370E-1,-7.849387079E-2,1.502684206E-1,-2.788517773E-1
3.614144500E-1,-2.596100792E-2,2.675510943E-1,-2.507528067E-1
3.638197620E-1,2.779355086E-2,3.469612300E-1,-2.287622988E-1
3.662250750E-1,6.322269142E-2,3.823903799E-1,-2.128802687E-1
3.686303870E-1,9.009996802E-2,3.884988427E-1,-2.055501044E-1
3.710357000E-1,1.059819981E-1,3.860554695E-1,-1.957765520E-1
3.734410120E-1,1.194206402E-1,3.848337829E-1,-1.835595965E-1
3.758462730E-1,1.291942000E-1,3.909422457E-1,-1.676775664E-1
3.782515850E-1,1.377460510E-1,4.092676640E-1,-1.493521482E-1
3.806568980E-1,1.414111406E-1,4.312581718E-1,-1.285833418E-1
3.830622100E-1,1.401894391E-1,4.520269632E-1,-1.090362370E-1
3.854675230E-1,1.389677525E-1,4.691306949E-1,-9.071081877E-2
3.878728350E-1,1.389677525E-1,4.813476503E-1,-7.482878864E-2
3.902781480E-1,1.340809762E-1,4.886777997E-1,-6.016845629E-2
3.926834600E-1,1.291942000E-1,4.898995161E-1,-4.917320609E-2
3.950887200E-1,1.169772521E-1,4.886777997E-1,-3.695625812E-2
3.974940330E-1,9.987352788E-2,4.886777997E-1,-1.985253580E-2
3.998993450E-1,8.521319181E-2,5.021164417E-1,2.137965523E-3
4.023046580E-1,6.810946763E-2,5.265503526E-1,2.657185495E-2
4.047099700E-1,5.344913527E-2,5.412106514E-1,5.222744122E-2
4.071152830E-1,3.634541109E-2,5.448757410E-1,7.421794534E-2
4.095205950E-1,1.679829881E-2,5.534276366E-1,9.376505762E-2
4.119258560E-1,-3.970507067E-3,5.705313683E-1,1.096470803E-1
4.143312200E-1,-2.718270384E-2,5.974085927E-1,1.279724985E-1
4.167364810E-1,-5.039490014E-2,6.206207871E-1,1.462979168E-1
4.191417930E-1,-7.360709459E-2,6.474980712E-1,1.609582454E-1
4.215471060E-1,-9.559759498E-2,6.988092661E-1,1.682884246E-1
4.239524180E-1,-1.175880954E-1,7.916580439E-1,1.805053651E-1
4.263577310E-1,-1.310267299E-1,8.588512540E-1,2.098260373E-1
4.287630430E-1,-1.444653720E-1,8.906152844E-1,2.428117841E-1
4.311683560E-1,-1.615691036E-1,9.064973593E-1,2.794626355E-1
4.335736160E-1,-1.762294322E-1,9.113841057E-1,3.124483824E-1
4.359789290E-1,-1.908897758E-1,9.016105533E-1,3.417690396E-1
4.383842410E-1,-1.994416267E-1,8.820634484E-1,3.649812341E-1
4.407895540E-1,-2.092151791E-1,8.576295376E-1,3.808632791E-1
4.431948660E-1,-2.177670449E-1,8.295305967E-1,3.894151151E-1
4.456001790E-1,-2.275405973E-1,8.026533127E-1,3.906368315E-1
4.480054910E-1,-2.385358512E-1,7.721109390E-1,3.869717419E-1
4.504108040E-1,-2.531961799E-1,7.415685654E-1,3.820849657E-1
4.528160640E-1,-2.678565085E-1,7.195780873E-1,3.771981895E-1
4.552213770E-1,-2.825168669E-1,7.110261917E-1,3.747547865E-1
4.576266890E-1,-2.959555089E-1,7.122479081E-1,3.710896969E-1
4.600320020E-1,-3.179459870E-1,7.171346545E-1,3.698680103E-1
4.624373140E-1,-3.509317636E-1,7.098045349E-1,3.613161445E-1
4.648426270E-1,-3.851391971E-1,7.012526393E-1,3.466558158E-1
4.672479390E-1,-4.217900336E-1,7.024743557E-1,3.246653080E-1
4.696532520E-1,-4.535540938E-1,7.134696245E-1,2.916795611E-1
4.720585120E-1,-4.779879749E-1,7.366818190E-1,2.574721277E-1
4.744638250E-1,-4.938700199E-1,7.623373866E-1,2.220429778E-1
4.768691370E-1,-5.073086619E-1,7.916580439E-1,1.915006191E-1
4.792744500E-1,-5.048652887E-1,8.234221339E-1,1.743968874E-1
4.816797620E-1,-4.865398407E-1,8.515210748E-1,1.695101112E-1
4.840850750E-1,-4.645493329E-1,8.698465228E-1,1.731752008E-1
4.864903870E-1,-4.413371384E-1,8.832851648E-1,1.792836636E-1
4.888957000E-1,-4.193466306E-1,8.930587173E-1,1.829487532E-1
4.913009600E-1,-3.973561525E-1,8.918370008E-1,1.841704547E-1
4.937062730E-1,-3.802524209E-1,8.722898960E-1,1.853921413E-1
4.961115850E-1,-3.704788685E-1,8.454126120E-1,1.792836636E-1
4.985168980E-1,-3.607053161E-1,8.112051487E-1,1.731752008E-1
5.009222100E-1,-3.497100472E-1,7.806627750E-1,1.670667231E-1
5.033275230E-1,-3.326063454E-1,7.525638342E-1,1.621799469E-1
5.057328350E-1,-3.155026138E-1,7.244648337E-1,1.609582454E-1
5.081381480E-1,-2.910687327E-1,6.939224601E-1,1.634016484E-1
5.105434080E-1,-2.666348219E-1,6.597150564E-1,1.658450365E-1
5.129487200E-1,-2.385358512E-1,6.218425035E-1,1.719534993E-1
5.153540330E-1,-2.141019702E-1,5.766398311E-1,1.756185889E-1
5.177593450E-1,-1.921114624E-1,5.265503526E-1,1.805053651E-1
5.201646580E-1,-1.701209545E-1,4.727957845E-1,1.841704547E-1
5.225699700E-1,-1.542389393E-1,4.214846194E-1,1.890572309E-1
5.249752830E-1,-1.432436854E-1,3.787252903E-1,1.915006191E-1
5.273805950E-1,-1.359135211E-1,3.591781855E-1,1.976090819E-1
5.297858560E-1,-1.444653720E-1,4.092676640E-1,1.976090819E-1
5.321911680E-1,-1.676775664E-1,4.446968138E-1,2.073826492E-1
5.345964810E-1,-1.969982386E-1,4.508052766E-1,2.220429778E-1
5.370017930E-1,-2.214321345E-1,4.410317242E-1,2.342599183E-1
5.394071060E-1,-2.422009408E-1,4.227063060E-1,2.428117841E-1
5.418124180E-1,-2.568612695E-1,4.092676640E-1,2.513636351E-1
5.442177310E-1,-2.678565085E-1,3.982724249E-1,2.525853515E-1
5.466230430E-1,-2.788517773E-1,3.909422457E-1,2.562504113E-1
5.490283040E-1,-2.874036431E-1,3.860554695E-1,2.562504113E-1
5.514336160E-1,-2.935121059E-1,3.897205591E-1,2.550287247E-1
5.538389290E-1,-2.996205688E-1,3.933856487E-1,2.586938143E-1
5.562442410E-1,-3.045073450E-1,3.921639323E-1,2.586938143E-1
5.586495540E-1,-3.093941510E-1,3.897205591E-1,2.623589039E-1
5.610548660E-1,-3.142809272E-1,3.897205591E-1,2.660239935E-1
5.634601790E-1,-3.142809272E-1,3.848337829E-1,2.684673667E-1
5.658654910E-1,-3.155026138E-1,3.787252903E-1,2.684673667E-1
5.682708040E-1,-3.167243004E-1,3.823903799E-1,2.672456801E-1
5.706760640E-1,-3.167243004E-1,3.946073353E-1,2.660239935E-1
5.730813770E-1,-3.252761662E-1,4.080459774E-1,2.648022771E-1
5.754866890E-1,-3.338280320E-1,4.227063060E-1,2.660239935E-1
5.778920020E-1,-3.362714052E-1,4.373666346E-1,2.672456801E-1
5.802973140E-1,-3.399364948E-1,4.556920528E-1,2.660239935E-1
5.827026270E-1,-3.436015844E-1,4.703523815E-1,2.660239935E-1
5.851078870E-1,-3.423798978E-1,4.801259339E-1,2.648022771E-1
5.875132000E-1,-3.387148082E-1,4.825693369E-1,2.599155009E-1
5.899185120E-1,-3.313846290E-1,4.801259339E-1,2.550287247E-1
5.923238250E-1,-3.203893900E-1,4.776825607E-1,2.415900975E-1
5.947291370E-1,-3.057290614E-1,4.679090083E-1,2.305948436E-1
5.971344500E-1,-2.886253297E-1,4.556920528E-1,2.195995897E-1
5.995397620E-1,-2.702999115E-1,4.398100376E-1,2.110477239E-1
6.019450750E-1,-2.483094037E-1,4.165978432E-1,2.049392611E-1
6.043503870E-1,-2.250972092E-1,3.860554695E-1,1.976090819E-1
6.067556480E-1,-2.043284029E-1,3.506263196E-1,1.890572309E-1
6.091609600E-1,-1.860029846E-1,3.213056624E-1,1.756185889E-1
6.115662730E-1,-1.652341783E-1,3.054236174E-1,1.658450365E-1
6.139715850E-1,-1.505738497E-1,2.968717813E-1,1.536280811E-1
6.163768980E-1,-1.346918195E-1,3.029802442E-1,1.524063945E-1
6.187822100E-1,-1.139230132E-1,3.115321100E-1,1.572931707E-1
6.211875230E-1,-1.078145429E-1,3.213056624E-1,1.634016484E-1
6.235927830E-1,-1.127013192E-1,3.298575282E-1,1.658450365E-1
6.259980950E-1,-1.261399537E-1,3.457395434E-1,1.585148573E-1
6.284034080E-1,-1.420219839E-1,3.726168275E-1,1.487413049E-1
6.308087200E-1,-1.701209545E-1,4.056025743E-1,1.353026628E-1
6.332140330E-1,-2.092151791E-1,4.520269632E-1,1.169772521E-1
6.356193450E-1,-2.470877171E-1,5.228852630E-1,1.059819981E-1
6.380246580E-1,-2.776300907E-1,6.010736823E-1,9.254335612E-2
6.404299700E-1,-3.167243004E-1,6.853706241E-1,8.521319181E-2
6.428352310E-1,-3.460449576E-1,7.733326554E-1,7.421794534E-2
6.452405430E-1,-3.839175105E-1,8.661814332E-1,6.200099736E-2
6.476458560E-1,-4.132381678E-1,9.602518678E-1,5.589252338E-2
6.500511680E-1,-4.340069890E-1,1.050657272E0,4.978405312E-2
6.524564810E-1,-4.633276463E-1,1.126402378E0,3.878879920E-2
6.548617930E-1,-4.999784827E-1,1.192373872E0,2.290677279E-2
6.572671060E-1,-5.439594984E-1,1.263232112E0,2.137965523E-3
6.596723660E-1,-5.842754245E-1,1.346307397E0,-1.496575773E-2
6.620776790E-1,-6.233696342E-1,1.429382563E0,-3.451287001E-2
6.644829910E-1,-6.783458591E-1,1.522231340E0,-5.772506446E-2
6.668883040E-1,-7.259919643E-1,1.630962133E0,-6.994201243E-2
6.692936160E-1,-7.528692484E-1,1.743358135E0,-7.727217674E-2
6.716989290E-1,-7.870767117E-1,1.844758749E0,-7.849387079E-2
6.741042410E-1,-8.286142945E-1,1.935164094E0,-8.093725890E-2
6.765095540E-1,-8.444963098E-1,2.031677961E0,-7.605048269E-2
6.789148140E-1,-8.420529366E-1,2.096427679E0,-7.116370648E-2
6.813201270E-1,-8.506048322E-1,2.126970053E0,-6.872031838E-2
6.837254390E-1,-8.457180262E-1,2.133078575E0,-6.383354217E-2
6.861307520E-1,-8.054021001E-1,2.104979753E0,-5.894676223E-2
6.885360640E-1,-7.638645172E-1,2.034121275E0,-5.528167635E-2
6.909413770E-1,-7.284353375E-1,1.936385870E0,-5.772506446E-2
6.933466890E-1,-6.966713071E-1,1.830098391E0,-6.627693027E-2
6.957519500E-1,-6.636855602E-1,1.716480851E0,-8.093725890E-2
6.981572620E-1,-6.294780970E-1,1.604084849E0,-9.804098308E-2
7.005625750E-1,-5.916055441E-1,1.483137131E0,-1.163664013E-1
7.029678870E-1,-5.488462448E-1,1.362189412E0,-1.261399537E-1
7.053732000E-1,-5.207473040E-1,1.237576604E0,-1.408002973E-1
7.077785120E-1,-4.963133931E-1,1.131289124E0,-1.505738497E-1
7.101838250E-1,-4.596625566E-1,1.039662004E0,-1.591257155E-1
7.125891370E-1,-4.315635860E-1,9.529217482E-1,-1.688992679E-1
7.149944500E-1,-4.046863019E-1,8.735115528E-1,-1.774511337E-1
7.173997100E-1,-3.717005551E-1,8.063184023E-1,-1.835595965E-1
7.198050230E-1,-3.387148082E-1,7.476770282E-1,-1.896680743E-1
7.222103350E-1,-3.118375242E-1,6.939224601E-1,-1.921114624E-1
7.246156480E-1,-2.800734639E-1,6.340594292E-1,-1.921114624E-1
7.270209600E-1,-2.385358512E-1,5.583143830E-1,-1.896680743E-1
7.294262730E-1,-2.006633282E-1,4.654656053E-1,-1.835595965E-1
7.318315850E-1,-1.688992679E-1,3.652866483E-1,-1.750077456E-1
7.342368980E-1,-1.395785958E-1,2.589992285E-1,-1.627907902E-1
7.366421580E-1,-9.681928903E-2,1.466033459E-1,-1.469087601E-1
7.390474700E-1,-6.139015034E-2,3.176405653E-2,-1.249182671E-1
7.414527830E-1,-2.962609194E-2,-8.429691941E-2,-1.065928489E-1
7.438580950E-1,-1.527118147E-3,-1.905843467E-1,-8.215895295E-2
7.462634080E-1,2.657185495E-2,-2.834331393E-1,-5.161659420E-2
7.486687200E-1,5.833591148E-2,-3.603998721E-1,-1.863084175E-2
7.510740330E-1,8.032641560E-2,-4.251496792E-1,1.801999472E-2
7.534793450E-1,9.254335612E-2,-4.715740979E-1,5.467082933E-2
7.558846060E-1,9.743013978E-2,-4.972296655E-1,9.254335612E-2
7.582899180E-1,1.023169160E-1,-5.008947253E-1,1.267508119E-1
7.606952310E-1,1.010952219E-1,-4.776825607E-1,1.621799469E-1
7.631005430E-1,9.743013978E-2,-4.349232614E-1,1.902789176E-1
7.655058560E-1,9.743013978E-2,-3.726168275E-1,2.147128135E-1
7.679111680E-1,9.009996802E-2,-2.858765125E-1,2.391466945E-1
7.703164810E-1,9.132166207E-2,-1.869192570E-1,2.611372173E-1
7.727217930E-1,9.498675168E-2,-8.063183725E-2,2.819060087E-1
7.751270540E-1,9.376505762E-2,2.809897438E-2,2.990097404E-1
7.775323660E-1,9.743013978E-2,1.368297935E-1,3.124483824E-1
7.799376790E-1,1.047603041E-1,2.431172132E-1,3.246653080E-1
7.823429910E-1,1.133121699E-1,3.408527672E-1,3.344388604E-1
7.847483040E-1,1.316375881E-1,4.324798584E-1,3.417690396E-1
7.871536160E-1,1.572931707E-1,5.143333673E-1,3.478775024E-1
7.895589290E-1,1.866138428E-1,5.864133835E-1,3.490992188E-1
7.919641890E-1,2.232646793E-1,6.413896084E-1,3.503209054E-1
7.943695020E-1,2.599155009E-1,6.841489077E-1,3.490992188E-1
7.967748140E-1,3.014531136E-1,7.134696245E-1,3.442124426E-1
7.991801270E-1,3.454341292E-1,7.317950130E-1,3.405473530E-1
8.015854390E-1,3.857500553E-1,7.366818190E-1,3.356605768E-1
8.039907520E-1,4.248442650E-1,7.330167294E-1,3.332171738E-1
8.063960640E-1,4.651601911E-1,7.207997441E-1,3.319954872E-1
8.088013770E-1,5.030327439E-1,7.024743557E-1,3.307738006E-1
8.112066370E-1,5.360184908E-1,6.853706241E-1,3.319954872E-1
8.136119500E-1,5.690042377E-1,6.707102656E-1,3.332171738E-1
8.160172620E-1,5.934380889E-1,6.523848772E-1,3.368822634E-1
8.184225750E-1,6.093201637E-1,6.132906675E-1,3.417690396E-1
8.208278870E-1,6.264238358E-1,5.632011890E-1,3.466558158E-1
8.232332000E-1,6.386408210E-1,5.021164417E-1,3.564293683E-1
8.256385120E-1,6.508577466E-1,4.337015450E-1,3.662029207E-1
8.280438250E-1,6.594096422E-1,3.506263196E-1,3.759764731E-1
8.304490850E-1,6.667397618E-1,2.626643181E-1,3.857500553E-1
8.328543980E-1,6.716265678E-1,1.734806150E-1,3.991886973E-1
8.352597100E-1,6.704048514E-1,8.307522535E-2,4.162923992E-1
8.376650230E-1,6.642963886E-1,-3.665083554E-3,4.358395338E-1
8.400703350E-1,6.569662094E-1,-8.185353130E-2,4.553866386E-1
8.424756480E-1,6.508577466E-1,-1.282779276E-1,4.737120569E-1
8.448809600E-1,6.471926570E-1,-1.514901221E-1,4.895940721E-1
8.472862200E-1,6.398624778E-1,-1.588202864E-1,5.042544007E-1
8.496915330E-1,6.361974478E-1,-1.551551968E-1,5.152496696E-1
8.520968450E-1,6.300889254E-1,-1.490467340E-1,5.274665952E-1
8.545021580E-1,6.215370893E-1,-1.490467340E-1,5.372401476E-1
8.569074700E-1,6.068767309E-1,-1.588202864E-1,5.506787896E-1
8.593127830E-1,5.885513425E-1,-1.747023165E-1,5.641174316E-1
8.617180950E-1,5.702258945E-1,-1.881409585E-1,5.787777901E-1
8.641234080E-1,5.482354164E-1,-1.954711229E-1,5.934380889E-1
8.665286680E-1,5.250232220E-1,-1.918060333E-1,6.044333577E-1
8.689339810E-1,4.993676245E-1,-1.808107942E-1,6.129852533E-1
8.713392930E-1,4.798205197E-1,-1.710372269E-1,6.154286265E-1
8.737446060E-1,4.602734149E-1,-1.698155403E-1,6.154286265E-1
8.761499180E-1,4.358395338E-1,-1.698155403E-1,6.142069101E-1
8.785552310E-1,4.150707126E-1,-1.624853760E-1,6.129852533E-1
8.809605430E-1,3.991886973E-1,-1.563768983E-1,6.068767309E-1
8.833658040E-1,3.784198761E-1,-1.551551968E-1,6.019899845E-1
8.857711160E-1,3.552076817E-1,-1.637070626E-1,5.971031785E-1
8.881764290E-1,3.197785318E-1,-1.747023165E-1,5.885513425E-1
8.905817410E-1,2.684673667E-1,-1.466033459E-1,5.702258945E-1
8.929870540E-1,2.379250079E-1,-8.063183725E-2,5.555655956E-1
8.953923660E-1,1.780619770E-1,8.551862091E-3,5.262449384E-1
8.977976790E-1,1.414111406E-1,1.148392856E-1,5.066977739E-1
9.002029910E-1,1.010952219E-1,2.064663768E-1,4.834856093E-1
9.026083040E-1,6.566607952E-2,2.748812735E-1,4.676035643E-1
9.050135640E-1,1.924168877E-2,3.261924386E-1,4.529432356E-1
9.074188770E-1,-3.817795217E-2,3.701734245E-1,4.370612204E-1
9.098241890E-1,-9.926267713E-2,4.312581718E-1,4.199574888E-1
9.122295020E-1,-1.469087601E-1,5.131117105E-1,4.028537571E-1
9.146348140E-1,-1.921114624E-1,6.169557571E-1,3.784198761E-1
9.170401270E-1,-1.896680743E-1,8.490777016E-1,3.429907262E-1
9.194454390E-1,-1.823379099E-1,1.094638348E0,2.990097404E-1
9.218507000E-1,-1.945548505E-1,1.274227381E0,2.635805905E-1
9.242560120E-1,-2.104368806E-1,1.403727055E0,2.452551723E-1
9.266613250E-1,-2.165453583E-1,1.496575832E0,2.318165302E-1
9.290666370E-1,-2.177670449E-1,1.553995371E0,2.183778882E-1
9.314719500E-1,-2.165453583E-1,1.579650998E0,2.012741715E-1
9.338772620E-1,-1.994416267E-1,1.575985909E0,1.878355294E-1
9.362825750E-1,-1.823379099E-1,1.545443535E0,1.707318127E-1
9.386878870E-1,-1.566823274E-1,1.499019146E0,1.548497826E-1
9.410931480E-1,-1.212531775E-1,1.445264578E0,1.401894391E-1
9.434984600E-1,-8.093725890E-2,1.382958174E0,1.267508119E-1
9.459037730E-1,-4.062134400E-2,1.312099934E0,1.108687744E-1
9.483090850E-1,-3.970507067E-3,1.244906664E0,9.498675168E-2
9.507143980E-1,4.245388508E-2,1.177713513E0,8.276980370E-2
9.531197100E-1,8.276980370E-2,1.116628766E0,6.444438547E-2
9.555250230E-1,1.230857223E-1,1.072647810E0,4.856235534E-2
9.579303350E-1,1.670667231E-1,1.044548869E0,3.390202299E-2
9.603355950E-1,2.098260373E-1,1.031110168E0,2.290677279E-2
9.627409080E-1,2.525853515E-1,1.032331824E0,1.068982668E-2
9.651462200E-1,2.929012477E-1,1.043327093E0,4.581354558E-3
9.675515330E-1,3.319954872E-1,1.056765795E0,-3.054236295E-4
9.699568450E-1,3.723114133E-1,1.075091124E0,-6.413896102E-3
9.723621580E-1,4.077405334E-1,1.090973258E0,-5.192201585E-3
9.747674700E-1,4.407263100E-1,1.101968408E0,9.162708884E-4
9.771727830E-1,4.688252807E-1,1.103190184E0,1.313321572E-2
9.795780430E-1,4.895940721E-1,1.098303318E0,3.145863488E-2
9.819833560E-1,5.066977739E-1,1.090973258E0,5.344913527E-2
9.843886680E-1,5.140279531E-1,1.084864736E0,7.788302749E-2
9.867939810E-1,5.152496696E-1,1.079977989E0,1.096470803E-1
9.891992930E-1,5.103628635E-1,1.077534556E0,1.475196183E-1
9.916046060E-1,4.981459379E-1,1.078756213E0,1.768402755E-1
9.940099180E-1,4.785988331E-1,1.089751482E0,2.049392611E-1
9.964152310E-1,4.553866386E-1,1.109298587E0,2.281514555E-1
9.988204910E-1,4.272876680E-1,1.141062737E0,2.476985604E-1
1.001225804E0,3.943018913E-1,1.182600260E0,2.684673667E-1
1.003631116E0,3.576510847E-1,1.236354828E0,2.867927849E-1
1.006036429E0,3.161134422E-1,1.299883008E0,3.124483824E-1
1.008441741E0,2.696890533E-1,1.362189412E0,3.368822634E-1
1.010847054E0,2.195995897E-1,1.424495816E0,3.564293683E-1
1.013252366E0,1.682884246E-1,1.480693698E0,3.759764731E-1
1.015657679E0,1.157555580E-1,1.534448266E0,3.857500553E-1
1.018062939E0,6.688777357E-2,1.588202834E0,3.930802047E-1
1.020468252E0,2.168507688E-2,1.644400835E0,3.979669809E-1
1.022873564E0,-1.618745178E-2,1.698155403E0,3.967452943E-1
1.025278877E0,-5.161659420E-2,1.751909971E0,3.943018913E-1
1.027684189E0,-7.971556485E-2,1.800777674E0,3.857500553E-1
1.030089502E0,-1.029277667E-1,1.844758749E0,3.771981895E-1
1.032494814E0,-1.175880954E-1,1.882631302E0,3.710896969E-1
1.034900127E0,-1.298050433E-1,1.908286810E0,3.613161445E-1
1.037305387E0,-1.359135211E-1,1.918060422E0,3.552076817E-1
1.039710700E0,-1.322484314E-1,1.885074615E0,3.503209054E-1
1.042116012E0,-1.114796251E-1,1.816659689E0,3.454341292E-1
1.044521325E0,-7.727217674E-2,1.709150672E0,3.454341292E-1
1.046926637E0,-3.695625812E-2,1.567434072E0,3.490992188E-1
1.049331950E0,1.557660475E-2,1.409835458E0,3.539859951E-1
1.051737262E0,7.543963939E-2,1.244906664E0,3.564293683E-1
1.054142575E0,1.377460510E-1,1.073869467E0,3.539859951E-1
1.056547835E0,2.000524700E-1,8.979454637E-1,3.478775024E-1
1.058953148E0,2.550287247E-1,7.207997441E-1,3.393256664E-1
1.061358460E0,3.100049794E-1,5.522059202E-1,3.295520842E-1
1.063763773E0,3.576510847E-1,3.909422457E-1,3.185568452E-1
1.066169085E0,4.016320705E-1,2.333436459E-1,3.063398898E-1
1.068574398E0,4.395045936E-1,9.284878522E-2,2.965663373E-1
1.070979710E0,4.724903405E-1,-3.787253052E-2,2.855710983E-1
1.073385023E0,5.018110275E-1,-1.502684206E-1,2.782409191E-1
1.075790283E0,5.225798488E-1,-2.284568697E-1,2.733541429E-1
1.078195595E0,5.274665952E-1,-2.846548259E-1,2.721324563E-1
1.080600908E0,5.140279531E-1,-3.176405728E-1,2.733541429E-1
1.083006220E0,4.859289825E-1,-3.359659910E-1,2.745758295E-1
1.085411533E0,4.468347728E-1,-3.323009014E-1,2.843494117E-1
1.087816845E0,4.004103839E-1,-3.213056624E-1,2.904578745E-1
1.090222158E0,3.527642787E-1,-3.017585576E-1,3.026748300E-1
1.092627470E0,3.124483824E-1,-2.785463631E-1,3.124483824E-1
1.095032783E0,2.770192325E-1,-2.565558553E-1,3.173351586E-1
1.097438043E0,2.464768738E-1,-2.247917950E-1,3.136700690E-1
1.099843356E0,2.183778882E-1,-1.930277348E-1,3.148917556E-1
1.102248668E0,1.829487532E-1,-1.698155403E-1,3.222219348E-1
1.104653981E0,1.560714692E-1,-1.417165697E-1,3.307738006E-1
1.107059293E0,1.255291104E-1,-1.185043678E-1,3.356605768E-1
1.109464606E0,9.987352788E-2,-9.284878522E-2,3.356605768E-1
1.111869918E0,7.666133344E-2,-6.108472496E-2,3.271087110E-1
1.114275231E0,5.955760926E-2,-2.443389036E-2,3.136700690E-1
1.116680491E0,4.978405312E-2,1.588202827E-2,3.002314270E-1
1.119085804E0,4.489727318E-2,5.497625470E-2,2.904578745E-1
1.121491116E0,4.123219103E-2,9.284878522E-2,2.782409191E-1
1.123896429E0,4.611896724E-2,1.294996142E-1,2.672456801E-1
1.126301741E0,5.344913527E-2,1.673721522E-1,2.599155009E-1
1.128707054E0,6.444438547E-2,2.064663768E-1,2.562504113E-1
1.131112366E0,7.666133344E-2,2.394521236E-1,2.525853515E-1
1.133517679E0,9.132166207E-2,2.663294077E-1,2.403683960E-1
1.135922939E0,1.120904684E-1,3.017585576E-1,2.318165302E-1
1.138328252E0,1.328592747E-1,3.200839758E-1,2.379250079E-1
1.140733564E0,1.438545287E-1,3.335226178E-1,2.501419485E-1
1.143138877E0,1.560714692E-1,3.518480062E-1,2.586938143E-1
1.145544189E0,1.707318127E-1,3.689517379E-1,2.660239935E-1
1.147949502E0,1.853921413E-1,3.823903799E-1,2.623589039E-1
1.150354814E0,2.098260373E-1,3.933856487E-1,2.599155009E-1
1.152760127E0,2.428117841E-1,4.056025743E-1,2.562504113E-1
1.155165439E0,2.867927849E-1,4.202629030E-1,2.611372173E-1
1.157570700E0,3.356605768E-1,4.214846194E-1,2.611372173E-1
1.159976012E0,3.845283389E-1,3.823903799E-1,2.586938143E-1
1.162381325E0,4.480564594E-1,3.103103936E-1,2.660239935E-1
1.164786637E0,5.152496696E-1,2.492256761E-1,2.770192325E-1
1.167191950E0,5.836645365E-1,2.015796006E-1,2.806843221E-1
1.169597262E0,6.484143734E-1,1.759240031E-1,2.819060087E-1
1.172002575E0,7.131641507E-1,1.649287641E-1,2.867927849E-1
1.174407887E0,7.742488980E-1,1.722589284E-1,2.929012477E-1
1.176813200E0,8.304468393E-1,1.918060333E-1,2.953446507E-1
1.179218460E0,8.793146014E-1,2.235700935E-1,2.977880239E-1
1.181623773E0,9.294040799E-1,2.687727809E-1,2.977880239E-1
1.184029085E0,9.782719016E-1,3.115321100E-1,3.014531136E-1
1.186434398E0,1.019809484E0,3.555130959E-1,3.014531136E-1
1.188839710E0,1.065012217E0,3.933856487E-1,2.990097404E-1
1.191245023E0,1.110367656E0,4.300364852E-1,2.941229641E-1
1.193650335E0,1.150683522E0,4.630222321E-1,2.867927849E-1
1.196055648E0,1.195886254E0,4.837910235E-1,2.794626355E-1
1.198460908E0,1.241088867E0,5.021164417E-1,2.733541429E-1
1.200866220E0,1.282626510E0,5.131117105E-1,2.696890533E-1
1.203271533E0,1.320499063E0,5.131117105E-1,2.672456801E-1
1.205676845E0,1.357149839E0,5.045598149E-1,2.684673667E-1
1.208082158E0,1.390135646E0,4.911212027E-1,2.770192325E-1
1.210487470E0,1.414569497E0,4.801259339E-1,2.892361879E-1
1.212892783E0,1.434116602E0,4.691306949E-1,3.026748300E-1
1.215298095E0,1.452442050E0,4.654656053E-1,3.161134422E-1
1.217703408E0,1.471989155E0,4.727957845E-1,3.307738006E-1
1.220108668E0,1.485427856E0,4.862344265E-1,3.478775024E-1
1.222513981E0,1.497644782E0,4.911212027E-1,3.588727713E-1
1.224919293E0,1.513526797E0,4.923428893E-1,3.747547865E-1
1.227324606E0,1.524522066E0,4.776825607E-1,3.930802047E-1
1.229729918E0,1.535517335E0,4.544703662E-1,4.162923992E-1
1.232135231E0,1.550177574E0,4.361449480E-1,4.407263100E-1
1.234540543E0,1.568503022E0,4.117110670E-1,4.785988331E-1
1.236945856E0,1.600267053E0,3.860554695E-1,5.396835804E-1
1.239351168E0,1.625922680E0,3.481829464E-1,5.873296261E-1
1.241756429E0,1.654021621E0,3.103103936E-1,6.337540150E-1
1.244161741E0,1.696780920E0,2.809897363E-1,6.777350307E-1
1.246567054E0,1.733431816E0,2.492256761E-1,6.985038519E-1
1.248972366E0,1.776191115E0,2.137965411E-1,6.997255087E-1
1.251377679E0,1.817728758E0,1.832541823E-1,6.789567471E-1
1.253782991E0,1.861709714E0,1.624853760E-1,6.435275674E-1
1.256188304E0,1.887365341E0,1.233911440E-1,6.007682681E-1
1.258593616E0,1.889808655E0,5.986303091E-2,5.470137000E-1
1.260998929E0,1.881256819E0,3.665083554E-3,4.993676245E-1
1.263404189E0,1.867818236E0,-3.420744836E-2,4.566083252E-1
1.265809502E0,1.844606042E0,-6.108472496E-2,4.187358022E-1
1.268214814E0,1.818950415E0,-7.452336699E-2,3.771981895E-1
1.270620127E0,1.787186384E0,-7.696675509E-2,3.307738006E-1
1.273025439E0,1.744427085E0,-9.773556143E-2,2.819060087E-1
1.275430752E0,1.689450860E0,-1.356080920E-1,2.293731421E-1
1.277836064E0,1.625922680E0,-1.820324808E-1,1.743968874E-1
1.280241377E0,1.552621007E0,-2.235700935E-1,1.218640283E-1
1.282646689E0,1.480540991E0,-2.565558553E-1,6.810946763E-2
1.285051950E0,1.404796004E0,-2.699944973E-1,1.801999472E-2
1.287457262E0,1.336381078E0,-2.638860047E-1,-2.962609194E-2
1.289862575E0,1.266744494E0,-2.418955117E-1,-7.605048269E-2
1.292267887E0,1.198329568E0,-2.174616307E-1,-1.188097894E-1
1.294673200E0,1.132358074E0,-1.881409585E-1,-1.603474021E-1
1.297078512E0,1.067608237E0,-1.380514801E-1,-1.957765520E-1
1.299483825E0,1.005149126E0,-7.574506104E-2,-2.275405973E-1
1.301889137E0,9.477295280E-1,6.108472589E-3,-2.568612695E-1
1.304294398E0,8.927532434E-1,9.773556143E-2,-2.861819267E-1
1.306699710E0,8.438854814E-1,1.918060333E-1,-3.179459870E-1
1.309105023E0,7.974610925E-1,2.956500649E-1,-3.484883606E-1
1.311510335E0,7.485933304E-1,4.019374847E-1,-3.851391971E-1
1.313915648E0,7.021689415E-1,5.008947253E-1,-4.242334068E-1
1.316320960E0,6.618530154E-1,5.949652195E-1,-4.621059597E-1
1.318726273E0,6.276455522E-1,6.817055345E-1,-5.012001991E-1
1.321131585E0,5.983248949E-1,7.647807598E-1,-5.402944088E-1
1.323536898E0,5.690042377E-1,8.429692388E-1,-5.769452453E-1
1.325942210E0,5.433486104E-1,9.187142849E-1,-6.123743653E-1
1.328347470E0,5.201364160E-1,9.846857786E-1,-6.453601122E-1
1.330752783E0,4.920374751E-1,1.038440347E0,-6.771242023E-1
1.333158095E0,4.700469673E-1,1.076312900E0,-7.137750387E-1
1.335563408E0,4.602734149E-1,1.067761064E0,-7.626428008E-1
1.337968720E0,4.566083252E-1,1.028666735E0,-8.102889061E-1
1.340374033E0,4.553866386E-1,9.920159578E-1,-8.603783846E-1
1.342779345E0,4.541649222E-1,9.590302110E-1,-9.116895199E-1
1.345184658E0,4.553866386E-1,9.223793745E-1,-9.643751383E-1
1.347589970E0,4.566083252E-1,8.967237473E-1,-1.013242841E0
1.349995283E0,4.553866386E-1,8.686248064E-1,-1.062110662E0
1.352400543E0,4.578300118E-1,8.295305967E-1,-1.107313395E0
1.354805856E0,4.566083252E-1,7.843278646E-1,-1.150072694E0
1.357211168E0,4.480564594E-1,7.305732965E-1,-1.187945247E0
1.359616481E0,4.370612204E-1,6.719319820E-1,-1.223374367E0
1.362021793E0,4.297310412E-1,6.328377724E-1,-1.256360054E0
1.364427106E0,4.199574888E-1,6.193991303E-1,-1.283237338E0
1.366832418E0,4.162923992E-1,6.181774139E-1,-1.302784443E0
1.369237731E0,4.126273096E-1,6.218425035E-1,-1.321109891E0
1.371643043E0,4.114056230E-1,6.303943992E-1,-1.336991906E0
1.374048304E0,4.016320705E-1,6.426113248E-1,-1.345543742E0
1.376453616E0,3.906368315E-1,6.963658929E-1,-1.355317354E0
1.378858929E0,3.869717419E-1,7.977665067E-1,-1.358982444E0
1.381264241E0,3.808632791E-1,9.822424054E-1,-1.345543742E0
1.383669554E0,3.674246371E-1,1.251015186E0,-1.317444801E0
1.386074866E0,3.637595475E-1,1.488023877E0,-1.285680771E0
1.388480179E0,3.796415627E-1,1.650509238E0,-1.260025144E0
1.390885491E0,4.101839364E-1,1.753131628E0,-1.240478039E0
1.393290804E0,4.578300118E-1,1.817881465E0,-1.230704546E0
1.395696116E0,5.164713860E-1,1.848423839E0,-1.228261113E0
1.398101377E0,5.812211633E-1,1.861862421E0,-1.231926203E0
1.400506689E0,6.569662094E-1,1.865527511E0,-1.242921472E0
1.402912002E0,7.375980616E-1,1.865527511E0,-1.260025144E0
1.405317314E0,8.157865405E-1,1.871636033E0,-1.280794024E0
1.407722627E0,8.951966763E-1,1.891183138E0,-1.302784443E0
1.410127939E0,9.721634388E-1,1.929055691E0,-1.324774981E0
1.412533252E0,1.046686769E0,1.985253572E0,-1.345543742E0
1.414938564E0,1.116476059E0,2.053668499E0,-1.363869190E0
1.417343877E0,1.178782463E0,2.140561581E0,-1.378529549E0
1.419749189E0,1.231315374E0,2.244405508E0,-1.384638071E0
1.422154450E0,1.280183196E0,2.369018316E0,-1.380972981E0
1.424559762E0,1.329050899E0,2.502183199E0,-1.367534280E0
1.426965075E0,1.375475287E0,2.628017664E0,-1.349208832E0
1.429370387E0,1.425564766E0,2.740413427E0,-1.323553324E0
1.431775700E0,1.481762767E0,2.839370728E0,-1.296676040E0
1.434181012E0,1.536738992E0,2.928554535E0,-1.264912009E0
1.436586325E0,1.596602082E0,3.006742954E0,-1.229482770E0
1.438991637E0,1.656465054E0,3.072714329E0,-1.195275426E0
1.441396950E0,1.712663054E0,3.122803926E0,-1.162289619E0
1.443802262E0,1.767639279E0,3.159454823E0,-1.131747246E0
1.446207575E0,1.822615504E0,3.179001808E0,-1.108535051E0
1.448612835E0,1.871483326E0,3.189997196E0,-1.088987947E0
1.451018148E0,1.915464282E0,3.198549032E0,-1.069440842E0
1.453423460E0,1.958223581E0,3.209544182E0,-1.052337170E0
1.455828773E0,1.994874477E0,3.224204540E0,-1.035233378E0
1.458234085E0,2.029081821E0,3.238864899E0,-1.016907930E0
1.460639398E0,2.047407389E0,3.255968571E0,-9.961391687E-1
1.463044710E0,2.049850702E0,3.307279825E0,-9.729269743E-1
1.465450023E0,2.063289404E0,3.380581379E0,-9.374978542E-1
1.467855335E0,2.070619583E0,3.439222813E0,-8.909206986E-1
1.470260648E0,2.081614733E0,3.485647202E0,-8.420529366E-1
1.472665908E0,2.088944912E0,3.514967918E0,-7.956285477E-1
1.475071220E0,2.098718405E0,3.535736561E0,-7.516475320E-1
1.477476533E0,2.108492136E0,3.550396919E0,-7.064448595E-1
1.479881845E0,2.117043972E0,3.551618576E0,-6.624638438E-1
1.482287158E0,2.104826927E0,3.550396919E0,-6.197045445E-1
1.484692470E0,2.088944912E0,3.556505442E0,-5.745018721E-1
1.487097783E0,2.070619583E0,3.563835621E0,-5.280774832E-1
1.489503095E0,2.051072359E0,3.568722486E0,-4.804313779E-1
1.491908408E0,2.030303478E0,3.569944143E0,-4.303418994E-1
1.494313720E0,2.009534836E0,3.567500591E0,-3.814741075E-1
1.496718981E0,1.988765955E0,3.554062128E0,-3.264978528E-1
1.499124293E0,1.964332104E0,3.533293247E0,-2.666348219E-1
1.501529606E0,1.932568073E0,3.503972530E0,-1.994416267E-1
1.503934918E0,1.895917177E0,3.467321873E0,-1.334701329E-1
1.506340231E0,1.858044624E0,3.423340797E0,-6.383354217E-2
1.508745543E0,1.815285325E0,3.365921021E0,9.162708884E-4
1.511150856E0,1.771304369E0,3.293841124E0,5.833591148E-2
1.513556168E0,1.724879980E0,3.216874361E0,1.072036922E-1
1.515961481E0,1.682120681E0,3.139907598E0,1.560714692E-1
1.518366793E0,1.639361382E0,3.066606045E0,1.988307834E-1
1.520772106E0,1.595380306E0,2.985974073E0,2.403683960E-1
1.523177366E0,1.550177574E0,2.902898788E0,2.757975459E-1
1.525582679E0,1.502531528E0,2.814936876E0,3.124483824E-1
1.527987991E0,1.452442050E0,2.722088099E0,3.503209054E-1
1.530393304E0,1.408461094E0,2.626796007E0,3.869717419E-1
1.532798616E0,1.365701795E0,2.532725334E0,4.236225784E-1
1.535203929E0,1.326607585E0,2.436211586E0,4.590517282E-1
1.537609241E0,1.298508525E0,2.339697599E0,4.895940721E-1
1.540014554E0,1.275296330E0,2.249292374E0,5.164713860E-1
1.542419866E0,1.256971002E0,2.168660402E0,5.372401476E-1
1.544825179E0,1.245975733E0,2.103757858E0,5.555655956E-1
1.547230491E0,1.236202121E0,2.057333469E0,5.677825212E-1
1.549635752E0,1.236202121E0,2.030456305E0,5.763344169E-1
1.552041064E0,1.238645554E0,2.018239260E0,5.812211633E-1
1.554446377E0,1.248419046E0,2.021904469E0,5.751127005E-1
1.556851689E0,1.259414315E0,2.041451454E0,5.628957748E-1
1.559257002E0,1.278961420E0,2.082989216E0,5.384618640E-1
1.561662314E0,1.303395391E0,2.124526739E0,5.018110275E-1
1.564067627E0,1.335159421E0,2.154000044E0,4.602734149E-1
1.566472939E0,1.371810198E0,2.174768925E0,4.077405334E-1
1.568878252E0,1.417012930E0,2.195537806E0,3.515425920E-1
1.571283564E0,1.468324065E0,2.216306686E0,2.880144715E-1
1.573688877E0,1.520856977E0,2.238296986E0,2.220429778E-1
1.576094137E0,1.572168112E0,2.256622553E0,1.511846930E-1
1.578499502E0,1.623479247E0,2.274947882E0,7.788302749E-2
1.580904762E0,1.667460322E0,2.298160076E0,2.137965523E-3
1.583310075E0,1.707776189E0,2.323815584E0,-7.727217674E-2
1.585715387E0,1.745648742E0,2.349471331E0,-1.579040140E-1
1.588120700E0,1.776191115E0,2.371461868E0,-2.373141646E-1
1.590526012E0,1.804290056E0,2.389787197E0,-3.155026138E-1
1.592931325E0,1.828724027E0,2.404447556E0,-3.863608837E-1
1.595336637E0,1.847049356E0,2.410556078E0,-4.596625566E-1
1.597741950E0,1.861709714E0,2.410556078E0,-5.268557668E-1
1.600147262E0,1.875148416E0,2.406890869E0,-5.940489769E-1
1.602552575E0,1.884921908E0,2.402004242E0,-6.575770974E-1
1.604957835E0,1.897138834E0,2.397117376E0,-7.162184119E-1
1.607363148E0,1.906912446E0,2.395895720E0,-7.724163532E-1
1.609768460E0,1.916685939E0,2.403225899E0,-8.200624585E-1
1.612173773E0,1.927681208E0,2.411777735E0,-8.591566682E-1
1.614579085E0,1.938676476E0,2.420329571E0,-8.909206986E-1
1.616984398E0,1.948450089E0,2.431324720E0,-9.129112363E-1
1.619389710E0,1.961888671E0,2.461867094E0,-9.202414155E-1
1.621795023E0,1.989987612E0,2.564489603E0,-9.092461467E-1
1.624200335E0,2.007091284E0,2.604805470E0,-9.006943107E-1
1.626605648E0,2.015643358E0,2.579149723E0,-8.945857882E-1
1.629010960E0,2.013199806E0,2.530282021E0,-8.872556686E-1
1.631416273E0,2.005869627E0,2.469197273E0,-8.738170266E-1
1.633821533E0,1.992431045E0,2.417886257E0,-8.567132950E-1
1.636226845E0,1.977770686E0,2.395895720E0,-8.335011005E-1
1.638632158E0,1.967997193E0,2.399560690E0,-8.102889061E-1
1.641037470E0,1.964332104E0,2.452093601E0,-7.760814428E-1
1.643442783E0,1.961888671E0,2.530282021E0,-7.406523228E-1
1.645848095E0,1.952115178E0,2.557159424E0,-7.149966955E-1
1.648253408E0,1.933789730E0,2.549829245E0,-7.040014863E-1
1.650658720E0,1.906912446E0,2.533947229E0,-6.991146803E-1
1.653064033E0,1.877591729E0,2.520508528E0,-6.978929639E-1
1.655469345E0,1.845827699E0,2.516843319E0,-6.978929639E-1
1.657874658E0,1.812842011E0,2.514400005E0,-6.978929639E-1
1.660279918E0,1.781077862E0,2.509513140E0,-6.942279339E-1
1.662685231E0,1.743205309E0,2.502183199E0,-6.930062175E-1
1.665090543E0,1.706554532E0,2.493631124E0,-6.930062175E-1
1.667495856E0,1.674790502E0,2.499739647E0,-6.917845011E-1
1.669901168E0,1.671125412E0,2.580371618E0,-6.856760383E-1
1.672306481E0,1.683342338E0,2.662225008E0,-6.673506498E-1
1.674711793E0,1.701667786E0,2.718423128E0,-6.478035450E-1
1.677117106E0,1.727323294E0,2.746521950E0,-6.282563806E-1
1.679522418E0,1.754200578E0,2.740413427E0,-6.087092757E-1
1.681927731E0,1.781077862E0,2.709871054E0,-5.977140665E-1
1.684333043E0,1.805511832E0,2.665890217E0,-5.879405141E-1
1.686738356E0,1.825058937E0,2.621909142E0,-5.867187977E-1
1.689143668E0,1.840940952E0,2.585258245E0,-5.903838873E-1
1.691548929E0,1.858044624E0,2.560824394E0,-6.013791561E-1
1.693954241E0,1.870261550E0,2.551050901E0,-6.184828281E-1
1.696359554E0,1.883700252E0,2.563267708E0,-6.368082762E-1
1.698764866E0,1.897138834E0,2.591366768E0,-6.563553810E-1
1.701170179E0,1.911799192E0,2.628017664E0,-6.746807694E-1
1.703575491E0,1.926459551E0,2.669555187E0,-6.942279339E-1
1.705980804E0,1.943563223E0,2.712314606E0,-7.113316059E-1
1.708386116E0,1.958223581E0,2.750187159E0,-7.247702479E-1
1.710791429E0,1.974105597E0,2.784394503E0,-7.369872332E-1
1.713196741E0,1.991209388E0,2.813715219E0,-7.455390692E-1
1.715602054E0,2.004647970E0,2.836927414E0,-7.479824424E-1
1.718007366E0,2.015643358E0,2.852809429E0,-7.479824424E-1
1.720412627E0,2.024195194E0,2.865026474E0,-7.430956960E-1
1.722817939E0,2.026638508E0,2.871134758E0,-7.321004272E-1
1.725223252E0,2.027860165E0,2.856474400E0,-7.162184119E-1
1.727628564E0,2.022973299E0,2.827153921E0,-6.942279339E-1
1.730033877E0,2.011978149E0,2.790503025E0,-6.673506498E-1
1.732439189E0,1.999761224E0,2.748965263E0,-6.306998134E-1
1.734844502E0,1.981435776E0,2.706206083E0,-5.879405141E-1
1.737249814E0,1.958223581E0,2.663446665E0,-5.390726924E-1
1.739655127E0,1.930124640E0,2.629239321E0,-4.853181541E-1
1.742060439E0,1.897138834E0,2.592588425E0,-4.217900336E-1
1.744465752E0,1.858044624E0,2.558381081E0,-3.582619131E-1
1.746871064E0,1.817728758E0,2.514400005E0,-2.935121059E-1
1.749276377E0,1.774969459E0,2.445985079E0,-2.275405973E-1
1.751681637E0,1.730988383E0,2.365353346E0,-1.615691036E-1
1.754086950E0,1.685785770E0,2.271282911E0,-9.681928903E-2
1.756492262E0,1.635696292E0,2.178434134E0,-2.840439789E-2
1.758897575E0,1.588050127E0,2.098871231E0,3.878879920E-2
1.761302887E0,1.539182425E0,2.045116663E0,1.059819981E-1
1.763708200E0,1.490314603E0,1.963263035E0,1.743968874E-1
1.766113512E0,1.436560035E0,1.869192600E0,2.367033064E-1
1.768518825E0,1.385248899E0,1.792225838E0,2.965663373E-1
1.770924137E0,1.335159421E0,1.703042150E0,3.552076817E-1
1.773329450E0,1.281404853E0,1.596754789E0,4.077405334E-1
1.775734762E0,1.228871942E0,1.512457848E0,4.614951015E-1
1.778140075E0,1.177560806E0,1.423274159E0,5.128062963E-1
1.780545387E0,1.121362805E0,1.313321590E0,5.604523420E-1
1.782950648E0,1.065012217E0,1.220472813E0,6.068767309E-1
1.785355960E0,1.007592559E0,1.161831498E0,6.557445526E-1
1.787761273E0,9.489512444E-1,1.081199646E0,7.046123147E-1
1.790166585E0,8.890882134E-1,1.001789451E0,7.522584200E-1
1.792571898E0,8.292251825E-1,9.382613897E-1,8.047912717E-1
1.794977210E0,7.620319724E-1,8.441908956E-1,8.548807502E-1
1.797382523E0,6.923953891E-1,7.342383862E-1,9.000834227E-1
1.799787835E0,6.215370893E-1,6.682668924E-1,9.477295280E-1
1.802193148E0,5.433486104E-1,5.864133835E-1,9.904888272E-1
1.804598460E0,4.627167881E-1,4.850127101E-1,1.029583097E0
1.807003773E0,3.735330999E-1,4.031592011E-1,1.065012217E0
1.809409085E0,2.794626355E-1,3.640649617E-1,1.091889501E0
1.811813646E0,1.817270666E-1,3.274141252E-1,1.112658262E0
1.814218906E0,8.032641560E-2,2.944283783E-1,1.130983710E0
1.816624218E0,-2.351761982E-2,2.858765125E-1,1.144422293E0
1.819029531E0,-1.310267299E-1,2.883199155E-1,1.152974248E0
1.821434843E0,-2.397575527E-1,2.822114229E-1,1.151752472E0
1.823840156E0,-3.448232710E-1,2.870981991E-1,1.150530815E0
1.826245468E0,-4.498890042E-1,3.103103936E-1,1.141978979E0
1.828650781E0,-5.537330508E-1,3.396310806E-1,1.124875188E0
1.831056093E0,-6.539120078E-1,3.555130959E-1,1.102884769E0
1.833461406E0,-7.492041588E-1,3.579564989E-1,1.078450799E0
1.835866718E0,-8.383878469E-1,3.628432751E-1,1.054016948E0
1.838272031E0,-9.214630723E-1,3.738385141E-1,1.023474574E0
1.840677343E0,-9.984298348E-1,3.897205591E-1,9.929322004E-1
1.843082656E0,-1.069288135E0,4.141544402E-1,9.648332596E-1
1.845487968E0,-1.131594539E0,4.349232614E-1,9.318475127E-1
1.847893281E0,-1.187792540E0,4.483618736E-1,9.000834227E-1
1.850298541E0,-1.236660242E0,4.508052766E-1,8.658760190E-1
1.852703854E0,-1.278197885E0,4.495835900E-1,8.194515705E-1
1.855109166E0,-1.309961915E0,4.459185004E-1,7.644753456E-1
1.857514479E0,-1.331952453E0,4.520269632E-1,7.070556879E-1
1.859919791E0,-1.349056125E0,4.703523815E-1,6.557445526E-1
1.862325104E0,-1.358829737E0,5.033381581E-1,6.142069101E-1
1.864730416E0,-1.363716483E0,5.277720094E-1,5.836645365E-1
1.867135729E0,-1.367381573E0,5.326588154E-1,5.653391480E-1
1.869541041E0,-1.364938259E0,5.167768002E-1,5.628957748E-1
1.871946354E0,-1.360051394E0,4.874561131E-1,5.763344169E-1
1.874351666E0,-1.356386304E0,4.520269632E-1,6.044333577E-1
1.876756979E0,-1.351499557E0,4.068242610E-1,6.459710002E-1
1.879162291E0,-1.361273170E0,3.347443044E-1,7.058340311E-1
1.881567604E0,-1.373490095E0,2.614426315E-1,7.693621516E-1
1.883972916E0,-1.383263588E0,2.089097649E-1,8.328902125E-1
1.886378177E0,-1.390593767E0,1.795890927E-1,9.013051391E-1
1.888783489E0,-1.389372110E0,1.795890927E-1,9.697200060E-1
1.891188802E0,-1.356386304E0,2.357870489E-1,1.033248186E0
1.893594114E0,-1.296523333E0,2.932066917E-1,1.083337665E0
1.895999427E0,-1.228108406E0,3.249707520E-1,1.127318621E0
1.898404739E0,-1.157250166E0,3.432961702E-1,1.172521353E0
1.900810052E0,-1.086391807E0,3.652866483E-1,1.221389055E0
1.903215364E0,-1.010646820E0,3.958290219E-1,1.264148355E0
1.905620677E0,-9.287932515E-1,4.227063060E-1,1.297134161E0
1.908025989E0,-8.335011005E-1,4.422534108E-1,1.319124699E0
1.910431302E0,-7.296570539E-1,4.581354558E-1,1.327676535E0
1.912836614E0,-6.184828281E-1,4.703523815E-1,1.326454878E0
1.915241927E0,-5.073086619E-1,4.874561131E-1,1.321568012E0
1.917647239E0,-3.936910629E-1,5.143333673E-1,1.316681266E0
1.920052500E0,-2.776300907E-1,5.546492934E-1,1.311794519E0
1.922457864E0,-1.591257155E-1,6.047387719E-1,1.305685997E0
1.924863125E0,-3.695625812E-2,6.474980712E-1,1.297134161E0
1.927268437E0,8.887827396E-2,6.817055345E-1,1.293469071E0
1.929673750E0,2.086043358E-1,7.159129977E-1,1.286138892E0
1.932079062E0,3.295520842E-1,7.366818190E-1,1.276365399E0
1.934484375E0,4.529432356E-1,7.550072074E-1,1.271478534E0
1.936889687E0,5.763344169E-1,7.745543122E-1,1.264148355E0
1.939295000E0,7.021689415E-1,7.977665067E-1,1.255596519E0
1.941700312E0,8.316685557E-1,8.368607163E-1,1.247044683E0
1.944105625E0,9.648332596E-1,8.759549856E-1,1.232384324E0
1.946510937E0,1.104259133E0,9.126058221E-1,1.217723966E0
1.948916250E0,1.245975733E0,9.407047629E-1,1.201841950E0
1.951321562E0,1.391357303E0,9.736905098E-1,1.181073189E0
1.953726875E0,1.541625738E0,1.007897973E0,1.160304427E0
1.956132187E0,1.687007427E0,1.044548869E0,1.150530815E0
1.958537500E0,1.837275863E0,1.057987452E0,1.150530815E0
1.960942760E0,1.981435776E0,1.055544019E0,1.154195905E0
1.963348073E0,2.120708942E0,1.043327093E0,1.155417562E0
1.965753385E0,2.253873587E0,1.054322362E0,1.159082651E0
1.968158698E0,2.384594917E0,1.046992183E0,1.165191174E0
1.970564010E0,2.515316248E0,1.042105436E0,1.171299577E0
1.972969323E0,2.642372608E0,1.049435616E0,1.176186442E0
1.975374635E0,2.766985416E0,1.057987452E0,1.183516622E0
1.977779948E0,2.887933016E0,1.070204377E0,1.193290114E0
1.980185260E0,2.995442152E0,1.077534556E0,1.204285383E0
1.982590573E0,3.096843004E0,1.088529825E0,1.214058876E0
1.984995885E0,3.179918051E0,1.115407109E0,1.220167398E0
1.987401198E0,3.248332977E0,1.145949483E0,1.222610831E0
1.989806510E0,3.300865889E0,1.159388065E0,1.220167398E0
1.992211823E0,3.338738441E0,1.167939901E0,1.214058876E0
1.994617135E0,3.358285427E0,1.172826767E0,1.207950473E0
1.997022448E0,3.354620457E0,1.175270081E0,1.192068458E0
1.999427708E0,3.336295128E0,1.161831498E0,1.173743010E0
2.001833073E0,3.295979023E0,1.141062737E0,1.149309158E0
2.004238333E0,3.242224455E0,1.125180602E0,1.117545009E0
2.006643646E0,3.188469887E0,1.132510781E0,1.078450799E0
2.009048958E0,3.133493662E0,1.149614573E0,1.033248186E0
2.011454271E0,3.068743944E0,1.154501319E0,9.917105436E-1
2.013859583E0,2.990555525E0,1.163053155E0,9.550597072E-1
2.016264896E0,2.905036926E0,1.165496588E0,9.232956171E-1
2.018670208E0,2.808522940E0,1.147171140E0,8.964183331E-1
2.021075521E0,2.707122326E0,1.116628766E0,8.756495714E-1
2.023480833E0,2.591061354E0,1.083643079E0,8.597674966E-1
2.025886146E0,2.470113516E0,1.044548869E0,8.512156606E-1
2.028291458E0,2.336948872E0,9.761339426E-1,8.463288546E-1
2.030696771E0,2.203784227E0,9.529217482E-1,8.402203918E-1
2.033102083E0,2.058402538E0,9.480349422E-1,8.328902125E-1
2.035507396E0,1.910577536E0,9.187142849E-1,8.255600929E-1
2.037912708E0,1.768860936E0,9.309312105E-1,8.157865405E-1
2.040318021E0,1.616149187E0,9.064973593E-1,7.974610925E-1
2.042723333E0,1.460993886E0,8.478559852E-1,7.681404352E-1
2.045128646E0,1.307060480E0,7.867712975E-1,7.339329720E-1
2.047533958E0,1.158013701E0,7.818844914E-1,6.972821355E-1
2.049939271E0,1.005149126E0,7.733326554E-1,6.545228362E-1
2.052344531E0,8.499939442E-1,7.195780873E-1,6.056550741E-1
2.054749843E0,6.985038519E-1,6.670452356E-1,5.543438792E-1
2.057155156E0,5.555655956E-1,6.401679516E-1,4.981459379E-1
2.059560468E0,4.175141156E-1,6.218425035E-1,4.456130862E-1
2.061965781E0,2.916795611E-1,6.169557571E-1,3.955236077E-1
2.064371093E0,1.743968874E-1,6.071822047E-1,3.417690396E-1
2.066776406E0,6.933116168E-2,5.900784731E-1,3.063398898E-1
2.069181718E0,-1.985253580E-2,5.839699507E-1,2.684673667E-1
2.071587031E0,-1.017060652E-1,6.010736823E-1,2.342599183E-1
2.073992343E0,-1.701209545E-1,6.316160560E-1,2.037175596E-1
2.076397656E0,-2.226538211E-1,6.572716236E-1,1.780619770E-1
2.078802968E0,-2.605263591E-1,6.658235192E-1,1.597365588E-1
2.081208281E0,-2.861819267E-1,6.682668924E-1,1.450762302E-1
2.083613593E0,-2.959555089E-1,6.658235192E-1,1.328592747E-1
2.086018906E0,-2.886253297E-1,6.658235192E-1,1.218640283E-1
2.088424218E0,-2.715215981E-1,6.609367132E-1,1.120904684E-1
2.090829531E0,-2.458660156E-1,6.560499668E-1,1.047603041E-1
2.093234843E0,-2.177670449E-1,6.462764144E-1,9.498675168E-2
2.095640156E0,-1.884463727E-1,6.316160560E-1,8.643488586E-2
2.098045416E0,-1.615691036E-1,6.071822047E-1,7.055285573E-2
2.100450729E0,-1.359135211E-1,5.790832043E-1,6.200099736E-2
2.102856041E0,-1.102579311E-1,5.570927262E-1,5.467082933E-2
2.105261354E0,-9.193251282E-2,5.363239050E-1,4.978405312E-2
2.107666666E0,-7.849387079E-2,5.228852630E-1,4.734066129E-2
2.110071979E0,-6.872031838E-2,5.118899941E-1,4.856235534E-2
2.112477291E0,-6.505523622E-2,5.118899941E-1,4.978405312E-2
2.114882604E0,-6.749862432E-2,5.143333673E-1,5.467082933E-2
2.117287916E0,-7.605048269E-2,5.192201734E-1,5.589252338E-2
2.119693229E0,-8.704573661E-2,5.167768002E-1,5.711421743E-2
2.122098541E0,-1.065928489E-1,5.094466209E-1,5.467082933E-2
2.124503854E0,-1.298050433E-1,5.021164417E-1,5.589252338E-2
2.126909166E0,-1.542389393E-1,4.898995161E-1,5.344913527E-2
2.129314479E0,-1.798945218E-1,4.825693369E-1,5.100574717E-2
2.131719791E0,-2.043284029E-1,4.727957845E-1,4.734066129E-2
2.134125104E0,-2.275405973E-1,4.654656053E-1,4.489727318E-2
2.136530416E0,-2.519744933E-1,4.642439187E-1,4.245388508E-2
2.138935729E0,-2.739650011E-1,4.703523815E-1,4.123219103E-2
2.141341041E0,-2.959555089E-1,4.727957845E-1,3.512371704E-2
2.143746354E0,-3.167243004E-1,4.752391577E-1,3.023693897E-2
2.146151666E0,-3.313846290E-1,4.801259339E-1,2.168507688E-2
2.148556979E0,-3.436015844E-1,4.776825607E-1,5.803049076E-3
2.150962239E0,-3.497100472E-1,4.679090083E-1,-8.857285604E-3
2.153367552E0,-3.521534503E-1,4.556920528E-1,-2.840439789E-2
2.155772864E0,-3.460449576E-1,4.398100376E-1,-5.161659420E-2
2.158178177E0,-3.326063454E-1,4.275930822E-1,-7.605048269E-2
2.160583489E0,-3.130592108E-1,4.117110670E-1,-1.090362370E-1
2.162988802E0,-2.861819267E-1,3.970507085E-1,-1.420219839E-1
2.165394114E0,-2.519744933E-1,3.799470067E-1,-1.811162084E-1
2.167799427E0,-2.128802687E-1,3.616215885E-1,-2.238755226E-1
2.170204739E0,-1.676775664E-1,3.481829464E-1,-2.702999115E-1
2.172610052E0,-1.175880954E-1,3.432961702E-1,-3.191677034E-1
2.175015364E0,-6.139015034E-2,3.408527672E-1,-3.680354655E-1
2.177420677E0,-1.527118147E-3,3.445178568E-1,-4.205683470E-1
2.179825989E0,6.077930331E-2,3.494046330E-1,-4.767662883E-1
2.182231302E0,1.255291104E-1,3.457395434E-1,-5.341859460E-1
2.184636614E0,1.951656938E-1,3.396310806E-1,-5.867187977E-1
2.187041927E0,2.611372173E-1,3.286358118E-1,-6.429167390E-1
2.189447239E0,3.246653080E-1,3.164188862E-1,-6.942279339E-1
2.191852552E0,3.869717419E-1,3.042019308E-1,-7.430956960E-1
2.194257864E0,4.431696832E-1,2.919849753E-1,-7.846332788E-1
2.196663177E0,5.005893111E-1,2.809897363E-1,-8.225058317E-1
2.199068489E0,5.531222224E-1,2.663294077E-1,-8.518264890E-1
2.201473802E0,5.971031785E-1,2.504473627E-1,-8.750386834E-1
2.203879114E0,6.386408210E-1,2.418955117E-1,-8.970292211E-1
2.206284375E0,6.777350307E-1,2.296785712E-1,-9.165763259E-1
2.208689739E0,7.119424939E-1,2.223484069E-1,-9.336800575E-1
2.211095000E0,7.424848676E-1,2.150182426E-1,-9.533798695E-1
2.213500312E0,7.718055248E-1,2.101314515E-1,-9.704836011E-1
2.215905625E0,7.974610925E-1,2.076880634E-1,-9.912523627E-1
2.218310937E0,8.182299137E-1,2.028012872E-1,-1.014464617E0
2.220716250E0,8.389987350E-1,2.015796006E-1,-1.038898468E0
2.223121562E0,8.585458398E-1,2.028012872E-1,-1.066997409E0
2.225526875E0,8.793146014E-1,2.052446753E-1,-1.095096469E0
2.227932187E0,8.988617659E-1,2.199050188E-1,-1.124417067E0
2.230337500E0,9.208522439E-1,2.370087355E-1,-1.158624530E0
2.232742812E0,9.452861547E-1,2.541124523E-1,-1.195275426E0
2.235148125E0,9.672766328E-1,2.712161839E-1,-1.238034725E0
2.237553437E0,9.917105436E-1,2.834331393E-1,-1.285680771E0
2.239958750E0,1.013701081E0,2.956500649E-1,-1.339435339E0
2.242364062E0,1.034469843E0,3.005368412E-1,-1.396854997E0
2.244769375E0,1.050351858E0,2.980934680E-1,-1.455496311E0
2.247174687E0,1.058903694E0,2.907632887E-1,-1.514137626E0
2.249580000E0,1.061347127E0,2.748812735E-1,-1.567892194E0
2.251985312E0,1.061347127E0,2.492256761E-1,-1.621646762E0
2.254390625E0,1.051573515E0,2.113531530E-1,-1.665627718E0
2.256795937E0,1.036913276E0,1.551551968E-1,-1.702278614E0
2.259201250E0,1.016144395E0,7.696675509E-2,-1.731599212E0
2.261606562E0,9.892671108E-1,-1.221694518E-2,-1.746259570E0
2.264011875E0,9.587247968E-1,-1.075091213E-1,-1.754811406E0
2.266417187E0,9.245173335E-1,-1.930277348E-1,-1.751146436E0
2.268822500E0,8.854231238E-1,-2.589992285E-1,-1.734042645E0
2.271227760E0,8.463288546E-1,-3.103103936E-1,-1.707165360E0
2.273633073E0,8.096780181E-1,-3.555130959E-1,-1.671736240E0
2.276038385E0,7.705838084E-1,-3.872771561E-1,-1.630198598E0
2.278443698E0,7.375980616E-1,-4.178195298E-1,-1.591104388E0
2.280849010E0,6.997255087E-1,-4.422534108E-1,-1.543458343E0
2.283254323E0,6.630746722E-1,-4.703523815E-1,-1.501920700E0
2.285659635E0,6.325323582E-1,-4.984513521E-1,-1.460383058E0
2.288064948E0,6.032116413E-1,-5.302154422E-1,-1.417623758E0
2.290470260E0,5.787777901E-1,-5.570927262E-1,-1.380972981E0
2.292875573E0,5.628957748E-1,-5.778614879E-1,-1.345543742E0
2.295280885E0,5.470137000E-1,-6.022953987E-1,-1.315001488E0
2.297686198E0,5.372401476E-1,-6.316160560E-1,-1.285680771E0
2.300091510E0,5.323534012E-1,-6.523848772E-1,-1.260025144E0
2.302496823E0,5.335750580E-1,-6.682668924E-1,-1.240478039E0
2.304902135E0,5.433486104E-1,-6.731536984E-1,-1.223374367E0
2.307307448E0,5.580089688E-1,-6.646018028E-1,-1.209935665E0
2.309712760E0,5.799994469E-1,-6.377245188E-1,-1.194053650E0
2.312118073E0,6.044333577E-1,-6.169557571E-1,-1.184280157E0
2.314523385E0,6.227588058E-1,-6.035171151E-1,-1.176949978E0
2.316928698E0,6.349757314E-1,-5.900784731E-1,-1.168398142E0
2.319334010E0,6.435275674E-1,-5.754181147E-1,-1.161067963E0
2.321739323E0,6.459710002E-1,-5.595360994E-1,-1.151294351E0
2.324144635E0,6.386408210E-1,-5.534276366E-1,-1.137855768E0
2.326549948E0,6.288672686E-1,-5.632011890E-1,-1.117086887E0
2.328955260E0,6.105418205E-1,-5.876350403E-1,-1.092653036E0
2.331360573E0,5.922164321E-1,-6.255075932E-1,-1.063332319E0
2.333765885E0,5.714476109E-1,-6.719319820E-1,-1.030346632E0
2.336171198E0,5.470137000E-1,-7.134696245E-1,-9.949174523E-1
2.338576510E0,5.225798488E-1,-7.293516397E-1,-9.631534219E-1
2.340981823E0,4.993676245E-1,-7.293516397E-1,-9.300149679E-1
2.343387135E0,4.749337435E-1,-7.232431769E-1,-8.933641315E-1
2.345792448E0,4.517215490E-1,-7.207997441E-1,-8.591566682E-1
2.348197708E0,4.272876680E-1,-7.159129977E-1,-8.249492049E-1
2.350603021E0,4.052971601E-1,-7.085828185E-1,-7.944068313E-1
2.353008333E0,3.869717419E-1,-7.036960125E-1,-7.650861740E-1
2.355413646E0,3.686463237E-1,-7.024743557E-1,-7.333221436E-1
2.357818958E0,3.552076817E-1,-7.134696245E-1,-7.027797699E-1
2.360224271E0,3.478775024E-1,-7.317950130E-1,-6.734591126E-1
2.362629583E0,3.393256664E-1,-7.488987446E-1,-6.465818286E-1
2.365034896E0,3.332171738E-1,-7.550072074E-1,-6.221479177E-1
2.367440208E0,3.344388604E-1,-7.415685654E-1,-6.038225293E-1
2.369845521E0,3.381039500E-1,-7.207997441E-1,-5.879405141E-1
2.372250833E0,3.405473530E-1,-7.159129977E-1,-5.769452453E-1
2.374656146E0,3.381039500E-1,-7.195780873E-1,-5.720584393E-1
2.377061458E0,3.417690396E-1,-7.183563709E-1,-5.708367825E-1
2.379466771E0,3.442124426E-1,-7.085828185E-1,-5.806103349E-1
2.381872083E0,3.442124426E-1,-7.159129977E-1,-5.928272605E-1
2.384277396E0,3.405473530E-1,-7.354601026E-1,-6.050441861E-1
2.386682708E0,3.332171738E-1,-7.537854910E-1,-6.221479177E-1
2.389088021E0,3.222219348E-1,-7.586722970E-1,-6.429167390E-1
2.391493333E0,3.087832928E-1,-7.757760286E-1,-6.587987542E-1
2.393898646E0,2.965663373E-1,-7.892146707E-1,-6.722373962E-1
2.396303958E0,2.782409191E-1,-7.892146707E-1,-6.881194115E-1
2.398709271E0,2.586938143E-1,-7.574505806E-1,-7.113316059E-1
2.401114583E0,2.428117841E-1,-6.914790869E-1,-7.418739796E-1
2.403519896E0,2.269297540E-1,-6.352811456E-1,-7.699729800E-1
2.405925208E0,2.147128135E-1,-6.181774139E-1,-8.017370105E-1
2.408330521E0,2.293731421E-1,-5.509842038E-1,-8.298360109E-1
2.410735833E0,2.733541429E-1,-4.178195298E-1,-8.713735938E-1
2.413141146E0,3.234436214E-1,-3.384093940E-1,-9.141329527E-1
2.415546458E0,3.820849657E-1,-3.078670204E-1,-9.533798695E-1
2.417951771E0,4.492781460E-1,-2.846548259E-1,-9.985825419E-1
2.420357083E0,5.164713860E-1,-2.968717813E-1,-1.043785214E0
2.422762396E0,5.812211633E-1,-3.090887070E-1,-1.091431379E0
2.425167708E0,6.508577466E-1,-2.846548259E-1,-1.139077425E0
2.427573021E0,7.156075835E-1,-2.809897363E-1,-1.183058381E0
2.429978333E0,7.864658237E-1,-2.577775419E-1,-1.228261113E0
2.432383646E0,8.597674966E-1,-2.431172132E-1,-1.272242069E0
2.434788958E0,9.342908859E-1,-2.504473627E-1,-1.313779712E0
2.437194271E0,1.011257648E0,-2.455606014E-1,-1.354095697E0
2.439599583E0,1.087155461E0,-2.528907657E-1,-1.390746474E0
2.442004896E0,1.162900448E0,-2.333436459E-1,-1.424953938E0
2.444410208E0,1.234980464E0,-2.321219593E-1,-1.451831222E0
2.446815521E0,1.305838704E0,-2.370087355E-1,-1.475043416E0
2.449220833E0,1.375475287E0,-2.272351831E-1,-1.489703774E0
2.451626146E0,1.428008199E0,-2.541124523E-1,-1.495812178E0
2.454031458E0,1.430451512E0,-2.956500649E-1,-1.488482118E0
2.456436771E0,1.409682751E0,-3.738385141E-1,-1.471378326E0
2.458842083E0,1.364480019E0,-4.324798584E-1,-1.449387789E0
2.461247343E0,1.298508525E0,-4.703523815E-1,-1.413958669E0
2.463652656E0,1.219098449E0,-5.265503526E-1,-1.356539011E0
2.466057968E0,1.127471328E0,-5.705313683E-1,-1.289345860E0
2.468463281E0,1.027139664E0,-5.839699507E-1,-1.218487620E0
2.470868593E0,9.220739603E-1,-5.717530251E-1,-1.143964171E0
2.473273906E0,8.133431077E-1,-5.595360994E-1,-1.064554095E0
2.475679218E0,7.046123147E-1,-5.460974574E-1,-9.839222431E-1
2.478084531E0,5.934380889E-1,-5.351021886E-1,-9.080244303E-1
2.480489843E0,4.871506989E-1,-5.167768002E-1,-8.408312798E-1
2.482895156E0,3.845283389E-1,-4.935645759E-1,-7.821899056E-1
2.485300468E0,2.867927849E-1,-4.593571424E-1,-7.321004272E-1
2.487705781E0,1.963873953E-1,-4.227063060E-1,-6.942279339E-1
2.490111093E0,1.120904684E-1,-3.775036037E-1,-6.636855602E-1
2.492516406E0,3.878879920E-2,-3.347443044E-1,-6.416950226E-1
2.494921718E0,-2.473931387E-2,-2.956500649E-1,-6.233696342E-1
2.497327031E0,-8.215895295E-2,-2.614426315E-1,-6.111527085E-1
2.499732343E0,-1.273616552E-1,-2.260134816E-1,-5.977140665E-1
2.502137656E0,-1.713426560E-1,-1.918060333E-1,-5.830537081E-1
2.504542968E0,-2.043284029E-1,-1.575985998E-1,-5.671716928E-1
2.506948281E0,-2.373141646E-1,-1.233911440E-1,-5.500679612E-1
2.509353593E0,-2.715215981E-1,-8.796200156E-2,-5.329642296E-1
2.511758906E0,-3.045073450E-1,-5.375456065E-2,-5.048652887E-1
2.514164218E0,-3.362714052E-1,-2.687728032E-2,-4.767662883E-1
2.516569531E0,-3.643703759E-1,0.000000000E0,-4.352286756E-1
2.518974843E0,-3.973561525E-1,2.076880634E-2,-3.863608837E-1
2.521380156E0,-4.278984964E-1,4.153761268E-2,-3.313846290E-1
2.523785468E0,-4.572191834E-1,5.864133686E-2,-2.678565085E-1
2.526190781E0,-4.853181541E-1,7.574506104E-2,-2.043284029E-1
2.528596093E0,-5.097520351E-1,8.918370306E-2,-1.359135211E-1
2.531001406E0,-5.317425132E-1,9.895725548E-2,-6.994201243E-2
2.533406718E0,-5.476245880E-1,1.087308154E-1,-6.413896102E-3
2.535812031E0,-5.598415136E-1,1.185043678E-1,5.711421743E-2
2.538217343E0,-5.708367825E-1,1.246128380E-1,1.194206402E-1
2.540622656E0,-5.745018721E-1,1.258345395E-1,1.792836636E-1
2.543027968E0,-5.757235289E-1,1.307213157E-1,2.403683960E-1
2.545433281E0,-5.696150661E-1,1.270562261E-1,2.965663373E-1
2.547838593E0,-5.549547076E-1,1.258345395E-1,3.564293683E-1
2.550243906E0,-5.354076028E-1,1.221694499E-1,4.077405334E-1
2.552649218E0,-5.085303187E-1,1.197260618E-1,4.553866386E-1
2.555054531E0,-4.767662883E-1,1.160609797E-1,5.005893111E-1
2.557459843E0,-4.376720488E-1,1.123958975E-1,5.396835804E-1
2.559865156E0,-3.985778391E-1,1.075091213E-1,5.702258945E-1
2.562270468E0,-3.570402265E-1,1.050657257E-1,5.885513425E-1
2.564675781E0,-3.155026138E-1,1.087308154E-1,6.019899845E-1
2.567081093E0,-2.702999115E-1,1.172826737E-1,6.093201637E-1
2.569486406E0,-2.275405973E-1,1.258345395E-1,6.068767309E-1
2.571891718E0,-1.860029846E-1,1.294996142E-1,5.971031785E-1
2.574297031E0,-1.481304616E-1,1.246128380E-1,5.836645365E-1
2.576702343E0,-1.114796251E-1,1.062874198E-1,5.677825212E-1
2.579107656E0,-7.482878864E-2,8.307522535E-2,5.519005060E-1
2.581512968E0,-3.939964995E-2,5.864133686E-2,5.335750580E-1
2.583918281E0,-7.635590620E-3,3.298575059E-2,5.140279531E-1
2.586323593E0,1.557660475E-2,3.665083554E-3,4.847072959E-1
2.588728906E0,2.657185495E-2,-2.076880634E-2,4.480564594E-1
2.591134218E0,3.023693897E-2,-4.520269856E-2,4.089622498E-1
2.593539531E0,3.023693897E-2,-6.230641901E-2,3.662029207E-1
2.595944843E0,2.290677279E-2,-6.841489673E-2,3.222219348E-1
2.598350156E0,1.313321572E-2,-6.841489673E-2,2.831276953E-1
2.600755468E0,-1.527118147E-3,-6.841489673E-2,2.428117841E-1
2.603160781E0,-1.985253580E-2,-7.085828483E-2,2.073826492E-1
2.605566093E0,-3.817795217E-2,-8.429691941E-2,1.719534993E-1
2.607971406E0,-6.016845629E-2,-1.026223376E-1,1.389677525E-1
2.610376718E0,-7.727217674E-2,-1.197260618E-1,1.096470803E-1
2.612782031E0,-9.437590092E-2,-1.356080920E-1,8.276980370E-2
2.615187343E0,-1.139230132E-1,-1.490467340E-1,5.711421743E-2
2.617592656E0,-1.371352077E-1,-1.612636745E-1,3.268032894E-2
2.619997968E0,-1.591257155E-1,-1.722589284E-1,1.679829881E-2
2.622403281E0,-1.823379099E-1,-1.820324808E-1,5.803049076E-3
2.624808593E0,-2.067717910E-1,-1.979145110E-1,9.162708884E-4
2.627213906E0,-2.312056869E-1,-2.113531530E-1,-1.527118147E-3
2.629619218E0,-2.556395829E-1,-2.150182426E-1,9.162708884E-4
2.632024531E0,-2.812951505E-1,-2.125748396E-1,4.581354558E-3
2.634429843E0,-3.020639718E-1,-2.052446753E-1,7.024743594E-3
2.636835156E0,-3.228327632E-1,-1.979145110E-1,9.468132630E-3
2.639240468E0,-3.387148082E-1,-1.918060333E-1,1.313321572E-2
2.641645781E0,-3.533751369E-1,-1.808107942E-1,1.679829881E-2
2.644051093E0,-3.655920923E-1,-1.588202864E-1,1.801999472E-2
2.646456406E0,-3.729222417E-1,-1.246128380E-1,1.191152167E-2
2.648861718E0,-3.790307343E-1,-9.895725548E-2,9.162708884E-4
2.651267031E0,-3.888042867E-1,-7.696675509E-2,-5.192201585E-3
2.653672343E0,-4.034646153E-1,-5.741964281E-2,-1.527118147E-3
2.656077656E0,-4.254551232E-1,-3.787253052E-2,1.068982668E-2
2.658482968E0,-4.474456310E-1,-1.710372418E-2,2.535016090E-2
2.660888281E0,-4.669927359E-1,1.221694518E-3,5.100574717E-2
2.663293593E0,-4.865398407E-1,2.076880634E-2,8.521319181E-2
2.665698906E0,-4.999784827E-1,4.031591862E-2,1.084253863E-1
2.668104218E0,-5.085303187E-1,6.230641901E-2,1.243074164E-1
2.670509531E0,-5.158604980E-1,8.063183725E-2,1.353026628E-1
2.672914843E0,-5.219689608E-1,9.407047927E-2,1.401894391E-1
2.675320156E0,-5.244123936E-1,1.075091213E-1,1.438545287E-1
2.677725468E0,-5.305208564E-1,1.270562261E-1,1.475196183E-1
2.680130781E0,-5.341859460E-1,1.441599578E-1,1.487413049E-1
2.682536093E0,-5.390726924E-1,1.539335102E-1,1.475196183E-1
2.684941406E0,-5.378510356E-1,1.637070626E-1,1.475196183E-1
2.687346718E0,-5.378510356E-1,1.698155403E-1,1.450762302E-1
2.689752031E0,-5.329642296E-1,1.771457046E-1,1.426328421E-1
2.692157343E0,-5.219689608E-1,1.795890927E-1,1.450762302E-1
2.694562656E0,-5.097520351E-1,1.747023165E-1,1.401894391E-1
2.696967968E0,-4.926483035E-1,1.649287641E-1,1.340809762E-1
2.699373281E0,-4.706578255E-1,1.563768983E-1,1.267508119E-1
2.701778593E0,-4.474456310E-1,1.478250325E-1,1.218640283E-1
2.704183906E0,-4.254551232E-1,1.392731816E-1,1.133121699E-1
2.706589218E0,-3.961344361E-1,1.356080920E-1,1.072036922E-1
2.708994531E0,-3.607053161E-1,1.343863904E-1,9.865183383E-2
2.711399843E0,-3.289412558E-1,1.307213157E-1,9.009996802E-2
2.713805156E0,-2.935121059E-1,1.221694499E-1,7.666133344E-2
2.716210468E0,-2.556395829E-1,1.099525094E-1,6.200099736E-2
2.718615781E0,-2.141019702E-1,9.407047927E-2,4.734066129E-2
2.721021093E0,-1.737860441E-1,8.063183725E-2,3.390202299E-2
2.723426406E0,-1.334701329E-1,6.474980712E-2,2.168507688E-2
2.725831718E0,-9.437590092E-2,5.253286287E-2,1.191152167E-2
2.728237031E0,-5.772506446E-2,4.153761268E-2,5.803049076E-3
2.730642343E0,-2.351761982E-2,3.298575059E-2,2.137965523E-3
2.733047656E0,4.581354558E-3,2.932066843E-2,5.803049076E-3
2.735452968E0,2.535016090E-2,2.687728032E-2,9.468132630E-3
2.737858281E0,4.367557913E-2,3.542914242E-2,1.679829881E-2
2.740263593E0,5.467082933E-2,4.520269856E-2,2.412846684E-2
2.742668906E0,6.077930331E-2,5.864133686E-2,3.268032894E-2
2.745074218E0,6.322269142E-2,7.330167294E-2,4.001049697E-2
2.747479531E0,5.833591148E-2,8.307522535E-2,4.734066129E-2
2.749884843E0,4.734066129E-2,9.529217333E-2,5.833591148E-2
2.752290156E0,3.023693897E-2,1.014006436E-1,7.055285573E-2
2.754695468E0,5.803049076E-3,1.014006436E-1,8.276980370E-2
2.757100781E0,-2.473931387E-2,9.773556143E-2,9.987352788E-2
2.759506093E0,-6.139015034E-2,9.407047927E-2,1.194206402E-1
2.761911406E0,-1.065928489E-1,8.796200156E-2,1.365243644E-1
2.764316718E0,-1.554606259E-1,7.574506104E-2,1.524063945E-1
2.766722031E0,-2.153236568E-1,5.986303091E-2,1.707318127E-1
2.769127343E0,-2.825168669E-1,4.398100078E-2,1.902789176E-1
2.771532656E0,-3.448232710E-1,5.375456065E-2,2.171562016E-1
2.773937968E0,-3.949127495E-1,5.741964281E-2,2.305948436E-1
2.776343281E0,-4.462239146E-1,3.054236248E-2,2.415900975E-1
2.778748593E0,-4.999784827E-1,-1.221694518E-2,2.538070381E-1
2.781153906E0,-5.476245880E-1,-4.275930673E-2,2.672456801E-1
2.783559218E0,-5.928272605E-1,-7.452336699E-2,2.831276953E-1
2.785964531E0,-6.392516494E-1,-1.087308154E-1,3.075616062E-1
2.788369843E0,-6.893411279E-1,-1.404948682E-1,3.417690396E-1
2.790775156E0,-7.406523228E-1,-1.661504507E-1,3.796415627E-1
2.793180468E0,-7.882983685E-1,-1.820324808E-1,4.236225784E-1
2.795585781E0,-8.310576677E-1,-1.966928244E-1,4.712686539E-1
2.797991093E0,-8.725953102E-1,-2.223484069E-1,5.201364160E-1
2.800396406E0,-9.092461467E-1,-2.504473627E-1,5.751127005E-1
2.802801718E0,-9.507837296E-1,-2.822114229E-1,6.337540150E-1
2.805207031E0,-9.923213720E-1,-3.090887070E-1,6.936170459E-1
2.807612343E0,-1.037524104E0,-3.286358118E-1,7.595885396E-1
2.810017708E0,-1.087613583E0,-3.506263196E-1,8.292251825E-1
2.812422968E0,-1.132816195E0,-3.726168275E-1,8.988617659E-1
2.814828281E0,-1.175575495E0,-3.921639323E-1,9.697200060E-1
2.817233593E0,-1.211004734E0,-4.080459774E-1,1.043021679E0
2.819638958E0,-1.241547108E0,-4.337015450E-1,1.111436605E0
2.822044218E0,-1.278197885E0,-4.605788291E-1,1.189625025E0
2.824449531E0,-1.320957184E0,-4.874561131E-1,1.273921967E0
2.826854896E0,-1.368603230E0,-5.070032477E-1,1.363105655E0
2.829260208E0,-1.415027618E0,-5.143333673E-1,1.458397865E0
2.831665468E0,-1.461452127E0,-5.143333673E-1,1.556133389E0
2.834070833E0,-1.505433083E0,-5.106683373E-1,1.653868914E0
2.836476146E0,-1.543305635E0,-4.996730685E-1,1.755269647E0
2.838881458E0,-1.572626233E0,-4.886777997E-1,1.857891917E0
2.841286771E0,-1.595838428E0,-4.666872919E-1,1.966622710E0
2.843692083E0,-1.609277129E0,-4.337015450E-1,2.070466757E0
2.846097396E0,-1.594616771E0,-3.762819171E-1,2.153542042E0
2.848502708E0,-1.568961143E0,-3.359659910E-1,2.215848446E0
2.850908021E0,-1.549414039E0,-3.261924386E-1,2.265937805E0
2.853313333E0,-1.527423620E0,-3.115321100E-1,2.309918880E0
2.855718646E0,-1.496881247E0,-2.712161839E-1,2.352678299E0
2.858123958E0,-1.452900171E0,-2.137965411E-1,2.391772509E0
2.860529271E0,-1.383263588E0,-1.502684206E-1,2.429645061E0
2.862934583E0,-1.284306407E0,-9.895725548E-2,2.463852406E0
2.865339896E0,-1.175575495E0,-6.841489673E-2,2.484621286E0
2.867745208E0,-1.065623045E0,-3.542914242E-2,2.485842943E0
2.870150521E0,-9.568922520E-1,-8.551862091E-3,2.463852406E0
2.872555833E0,-8.518264890E-1,-9.773556143E-3,2.405210972E0
2.874961146E0,-7.540909648E-1,-4.398100078E-2,2.301367044E0
2.877366458E0,-6.697940230E-1,-1.062874198E-1,2.162093878E0
2.879771771E0,-5.879405141E-1,-1.832541823E-1,1.991056681E0
2.882177083E0,-5.146388412E-1,-2.565558553E-1,1.811467528E0
2.884582396E0,-4.572191834E-1,-3.249707520E-1,1.636765242E0
2.886987708E0,-4.107947946E-1,-3.884988427E-1,1.464506269E0
2.889393021E0,-3.717005551E-1,-4.752391577E-1,1.283695459E0
2.891798333E0,-3.448232710E-1,-5.839699507E-1,1.099219680E0
2.894203646E0,-3.277195692E-1,-6.865923405E-1,9.135220647E-1
2.896608958E0,-3.167243004E-1,-7.794411182E-1,7.412631512E-1
2.899014271E0,-3.106158376E-1,-8.576295376E-1,5.763344169E-1
2.901419583E0,-3.106158376E-1,-9.272661209E-1,4.272876680E-1
2.903824896E0,-3.167243004E-1,-9.797990322E-1,3.002314270E-1
2.906230208E0,-3.289412558E-1,-1.027445078E0,1.988307834E-1
2.908635521E0,-3.399364948E-1,-1.075091124E0,1.267508119E-1
2.911040833E0,-3.619270027E-1,-1.125180602E0,8.521319181E-2
2.913446146E0,-3.936910629E-1,-1.182600260E0,6.444438547E-2
2.915851458E0,-4.352286756E-1,-1.233911514E0,7.421794534E-2
2.918256771E0,-4.792096615E-1,-1.269340634E0,1.181989461E-1
2.920662083E0,-5.256340504E-1,-1.292552829E0,1.988307834E-1
2.923067396E0,-5.708367825E-1,-1.298661232E0,2.953446507E-1
2.925472708E0,-6.026008129E-1,-1.318208337E0,3.808632791E-1
2.927878021E0,-6.306998134E-1,-1.340198874E0,4.456130862E-1
2.930283333E0,-6.575770974E-1,-1.340198874E0,5.005893111E-1
2.932688646E0,-6.868977547E-1,-1.313321590E0,5.470137000E-1
2.935093958E0,-7.162184119E-1,-1.264453769E0,5.909947157E-1
2.937499271E0,-7.455390692E-1,-1.208255887E0,6.423059106E-1
2.939904583E0,-7.748597264E-1,-1.148392797E0,6.899519563E-1
2.942309896E0,-8.066238165E-1,-1.094638348E0,7.388197780E-1
2.944715208E0,-8.432746530E-1,-1.055544019E0,8.108997345E-1
2.947120521E0,-9.116895199E-1,-1.005454540E0,9.684983492E-1
2.949525885E0,-9.471186996E-1,-9.431481957E-1,1.122431874E0
2.951931198E0,-9.617789984E-1,-9.113841057E-1,1.259261608E0
2.954336510E0,-9.776610136E-1,-8.991671801E-1,1.386317849E0
2.956741823E0,-9.776610136E-1,-8.637380004E-1,1.455954432E0
2.959147135E0,-9.715525508E-1,-8.686248064E-1,1.444959164E0
2.961552448E0,-9.739959836E-1,-8.991671801E-1,1.385096192E0
2.963957760E0,-9.801044464E-1,-8.869501948E-1,1.303242683E0
2.966363073E0,-9.837695360E-1,-8.368607163E-1,1.212837219E0
2.968768385E0,-9.923213720E-1,-7.977665067E-1,1.119988441E0
2.971173698E0,-1.004538298E0,-7.611156702E-1,1.029583097E0
2.973579010E0,-1.024085402E0,-7.391251922E-1,9.465078115E-1
2.975984323E0,-1.047297597E0,-7.354601026E-1,8.768712282E-1
2.978389635E0,-1.077839971E0,-7.550072074E-1,8.157865405E-1
2.980794948E0,-1.114490867E0,-7.831062078E-1,7.669187188E-1
2.983200260E0,-1.147476554E0,-8.307522535E-1,7.180509567E-1
2.985605573E0,-1.175575495E0,-8.771766424E-1,6.691831946E-1
2.988010885E0,-1.189014196E0,-8.955020905E-1,6.239804626E-1
2.990416198E0,-1.185349107E0,-8.808417320E-1,5.909947157E-1
2.992821510E0,-1.171910524E0,-8.502993584E-1,5.738909841E-1
2.995226823E0,-1.153585076E0,-8.148702383E-1,5.873296261E-1
2.997632135E0,-1.137703061E0,-7.879929543E-1,6.215370893E-1
3.000037448E0,-1.125486016E0,-7.843278646E-1,6.691831946E-1
3.002442760E0,-1.112047434E0,-7.977665067E-1,7.192726731E-1
3.004848073E0,-1.104717255E0,-8.148702383E-1,7.705838084E-1
3.007253385E0,-1.099830508E0,-8.222004175E-1,8.194515705E-1
3.009658698E0,-1.092500329E0,-8.209787011E-1,8.622109294E-1
3.012064010E0,-1.083948493E0,-8.124268651E-1,9.025267959E-1
3.014469323E0,-1.080283403E0,-8.002098799E-1,9.379559755E-1
3.016874635E0,-1.072953224E0,-7.941014171E-1,9.770501852E-1
3.019279948E0,-1.072953224E0,-7.904363275E-1,1.013701081E0
3.021685260E0,-1.069288135E0,-7.476770282E-1,1.063790560E0
3.024090573E0,-1.065623045E0,-7.012526393E-1,1.116323352E0
3.026495885E0,-1.075396657E0,-6.988092661E-1,1.160304427E0
3.028901198E0,-1.083948493E0,-6.548282504E-1,1.200620294E0
3.031306510E0,-1.092500329E0,-5.937435627E-1,1.245823026E0
3.033711823E0,-1.097387075E0,-5.216635466E-1,1.304464340E0
3.036117135E0,-1.118155956E0,-4.618005157E-1,1.387539506E0
3.038522500E0,-1.120599270E0,-4.117110670E-1,1.458397865E0
3.040927812E0,-1.116934180E0,-3.982724249E-1,1.501157165E0
3.043333125E0,-1.108382344E0,-4.043808877E-1,1.517039180E0
3.045738437E0,-1.101052165E0,-4.104893506E-1,1.514595747E0
3.048143750E0,-1.092500329E0,-3.921639323E-1,1.513374090E0
3.050549062E0,-1.081505060E0,-3.799470067E-1,1.504822254E0
3.052954375E0,-1.074174881E0,-3.677300513E-1,1.498713732E0
3.055359687E0,-1.070509791E0,-3.677300513E-1,1.490161896E0
3.057765000E0,-1.060736299E0,-3.811686933E-1,1.477944970E0
3.060170312E0,-1.047297597E0,-4.068242610E-1,1.452289343E0
3.062575625E0,-1.032637239E0,-4.263713956E-1,1.418081880E0
3.064980937E0,-1.013090134E0,-4.398100376E-1,1.372879267E0
3.067386250E0,-9.947647452E-1,-4.385883212E-1,1.320346355E0
3.069791562E0,-9.739959836E-1,-4.275930822E-1,1.262926698E0
3.072196875E0,-9.520054460E-1,-4.165978432E-1,1.200620294E0
3.074602187E0,-9.312366247E-1,-3.897205591E-1,1.143200636E0
3.077007500E0,-9.031376839E-1,-3.616215885E-1,1.085780978E0
3.079412812E0,-8.774821162E-1,-3.469612300E-1,1.027139664E0
3.081818125E0,-8.518264890E-1,-3.469612300E-1,9.636115432E-1
3.084223437E0,-8.261709213E-1,-3.775036037E-1,8.903098702E-1
3.086628750E0,-7.956285477E-1,-4.190412164E-1,8.121214509E-1
3.089034062E0,-7.626428008E-1,-4.361449480E-1,7.473716140E-1
3.091439375E0,-7.296570539E-1,-4.227063060E-1,7.021689415E-1
3.093844687E0,-7.027797699E-1,-4.043808877E-1,6.752916574E-1
3.096250000E0,-6.832326651E-1,-3.994941115E-1,6.618530154E-1
3.098655312E0,-6.661289334E-1,-4.104893506E-1,6.533011198E-1
3.101060625E0,-6.526902914E-1,-4.275930822E-1,6.484143734E-1
3.103465937E0,-6.392516494E-1,-4.459185004E-1,6.471926570E-1
3.105871250E0,-6.282563806E-1,-4.581354558E-1,6.459710002E-1
3.108276562E0,-6.221479177E-1,-4.666872919E-1,6.471926570E-1
3.110681875E0,-6.209262609E-1,-4.642439187E-1,6.533011198E-1
3.113087239E0,-6.184828281E-1,-4.593571424E-1,6.618530154E-1
3.115492552E0,-6.172611713E-1,-4.581354558E-1,6.728482842E-1
3.117897864E0,-6.135960817E-1,-4.654656053E-1,6.911736727E-1
3.120303177E0,-6.087092757E-1,-4.727957845E-1,7.107207775E-1
3.122708489E0,-6.050441861E-1,-4.691306949E-1,7.363763452E-1
3.125113802E0,-6.026008129E-1,-4.508052766E-1,7.705838084E-1
3.127519114E0,-6.013791561E-1,-4.141544402E-1,8.194515705E-1
3.129924427E0,-5.977140665E-1,-3.677300513E-1,8.756495714E-1
3.132329739E0,-5.952706337E-1,-3.432961702E-1,9.330691695E-1
3.134735052E0,-5.952706337E-1,-3.396310806E-1,9.770501852E-1
3.137140364E0,-5.940489769E-1,-3.335226178E-1,1.012479305E0
3.139545677E0,-5.916055441E-1,-2.980934680E-1,1.056460381E0
3.141950989E0,-5.867187977E-1,-2.247917950E-1,1.108993173E0
3.144356302E0,-5.903838873E-1,-2.015796006E-1,1.144422293E0
3.146761614E0,-6.001574397E-1,-1.954711229E-1,1.165191174E0
3.149166927E0,-6.062659025E-1,-1.698155403E-1,1.185959935E0
3.151572239E0,-6.099309921E-1,-1.111742035E-1,1.225054145E0
3.153977552E0,-6.087092757E-1,-2.687728032E-2,1.271478534E0
3.156382864E0,-6.148177385E-1,-9.773556143E-3,1.305685997E0
3.158788177E0,-6.282563806E-1,-2.932066843E-2,1.308129430E0
3.161193489E0,-6.306998134E-1,-1.954711229E-2,1.302020907E0
3.163598802E0,-6.331431866E-1,1.466033421E-2,1.295912504E0
3.166004114E0,-6.343649030E-1,5.619794875E-2,1.292247415E0
3.168409427E0,-6.319214702E-1,9.407047927E-2,1.293469071E0
3.170814739E0,-6.306998134E-1,1.233911440E-1,1.294690728E0
3.173220052E0,-6.331431866E-1,1.392731816E-1,1.298355818E0
3.175625364E0,-6.392516494E-1,1.343863904E-1,1.298355818E0
3.178030677E0,-6.453601122E-1,1.197260618E-1,1.303242683E0
3.180435989E0,-6.600204706E-1,1.087308154E-1,1.315459609E0
3.182841302E0,-6.820109487E-1,1.087308154E-1,1.336228371E0
3.185246614E0,-7.027797699E-1,1.148392856E-1,1.354553819E0
3.187651927E0,-7.198835015E-1,1.209477559E-1,1.366770744E0
3.190057239E0,-7.406523228E-1,1.368297935E-1,1.377766013E0
3.192462604E0,-7.650861740E-1,1.673721522E-1,1.391204596E0
3.194867916E0,-7.858549953E-1,2.174616307E-1,1.413195133E0
3.197273229E0,-8.102889061E-1,2.492256761E-1,1.435185671E0
3.199678541E0,-8.481613994E-1,2.394521236E-1,1.440072417E0
3.202083854E0,-8.823688626E-1,2.492256761E-1,1.442515850E0
3.204489166E0,-9.214630723E-1,2.834331393E-1,1.451067686E0
3.206894479E0,-9.605573416E-1,3.274141252E-1,1.459619522E0
3.209299791E0,-1.008203387E0,3.787252903E-1,1.470614791E0
3.211705104E0,-1.070509791E0,4.275930822E-1,1.491383553E0
3.214110416E0,-1.135259628E0,4.618005157E-1,1.509709001E0
3.216515729E0,-1.213448048E0,4.801259339E-1,1.524369359E0
3.218921041E0,-1.312405348E0,5.045598149E-1,1.542694807E0
3.221326354E0,-1.408919215E0,5.216635466E-1,1.563463569E0
3.223731666E0,-1.500546336E0,5.277720094E-1,1.581789017E0
3.226136979E0,-1.587286592E0,5.338805318E-1,1.590340853E0
3.228542291E0,-1.666696787E0,5.522059202E-1,1.592784286E0
3.230947604E0,-1.739998460E0,5.717530251E-1,1.581789017E0
3.233352916E0,-1.807191610E0,6.059604883E-1,1.556133389E0
3.235758229E0,-1.864611268E0,6.474980712E-1,1.526812673E0
3.238163541E0,-1.918365836E0,6.743753552E-1,1.490161896E0
3.240568854E0,-1.962346792E0,6.878139973E-1,1.443737507E0
3.242974166E0,-1.994110823E0,6.988092661E-1,1.388761282E0
3.245379479E0,-2.023431540E0,7.024743557E-1,1.325233102E0
3.247784791E0,-2.055195570E0,7.159129977E-1,1.253153205E0
3.250190104E0,-2.091846466E0,7.146912813E-1,1.192068458E0
3.252595416E0,-2.126053810E0,7.036960125E-1,1.143200636E0
3.255000781E0,-2.171256542E0,6.780404449E-1,1.097997904E0
3.257406093E0,-2.212794304E0,6.389462352E-1,1.043021679E0
3.259811406E0,-2.266548872E0,5.534276366E-1,9.758284688E-1
3.262216718E0,-2.314194918E0,4.764608741E-1,9.330691695E-1
3.264622031E0,-2.345958948E0,4.373666346E-1,8.964183331E-1
3.267027343E0,-2.375279665E0,4.178195298E-1,8.646543026E-1
3.269432656E0,-2.409487009E0,4.141544402E-1,8.402203918E-1
3.271837968E0,-2.443694353E0,4.129327536E-1,8.243383765E-1
3.274243281E0,-2.473015070E0,4.068242610E-1,8.084563613E-1
3.276648593E0,-2.501114130E0,3.872771561E-1,7.791357040E-1
3.279053906E0,-2.534099817E0,3.579564989E-1,7.485933304E-1
3.281459218E0,-2.575637579E0,3.347443044E-1,7.192726731E-1
3.283864531E0,-2.618396759E0,3.213056624E-1,6.862868667E-1
3.286269843E0,-2.651382446E0,3.347443044E-1,6.581879258E-1
3.288675156E0,-2.681924820E0,3.432961702E-1,6.349757314E-1
3.291080468E0,-2.691698551E0,3.542914093E-1,6.178719997E-1
3.293485781E0,-2.683146477E0,3.970507085E-1,6.166502833E-1
3.295891093E0,-2.690476656E0,4.422534108E-1,6.264238358E-1
3.298296406E0,-2.706358671E0,4.740174711E-1,6.459710002E-1
3.300701718E0,-2.728349209E0,4.923428893E-1,6.777350307E-1
3.303107031E0,-2.750339746E0,5.021164417E-1,7.168292403E-1
3.305512343E0,-2.771108627E0,5.277720094E-1,7.620319724E-1
3.307917656E0,-2.788212299E0,5.741963983E-1,8.145648241E-1
3.310323021E0,-2.794320822E0,6.218425035E-1,8.744278550E-1
3.312728281E0,-2.804094315E0,6.670452356E-1,9.318475127E-1
3.315133593E0,-2.810202837E0,7.256865501E-1,9.917105436E-1
3.317538958E0,-2.829749823E0,7.843278646E-1,1.068677306E0
3.319944271E0,-2.843188524E0,8.661814332E-1,1.154195905E0
3.322349583E0,-2.851740360E0,9.504783154E-1,1.237271070E0
3.324754896E0,-2.851740360E0,1.039662004E0,1.308129430E0
3.327160208E0,-2.854183912E0,1.111742020E0,1.371657491E0
3.329565521E0,-2.839523554E0,1.187487125E0,1.433963895E0
3.331970833E0,-2.815089703E0,1.242463350E0,1.471836448E0
3.334376146E0,-2.797985792E0,1.275449038E0,1.496270418E0
3.336781458E0,-2.772330284E0,1.313321590E0,1.514595747E0
3.339186771E0,-2.760113239E0,1.336533785E0,1.530477762E0
3.341592083E0,-2.763778448E0,1.337755442E0,1.559798479E0
3.343997396E0,-2.767443419E0,1.345085621E0,1.623326540E0
3.346402708E0,-2.782103777E0,1.341420531E0,1.703958392E0
3.348808021E0,-2.793099165E0,1.348750710E0,1.793142080E0
3.351213333E0,-2.790655613E0,1.407392025E0,1.871330619E0
3.353618646E0,-2.771108627E0,1.549108624E0,1.937302113E0
3.356023958E0,-2.746674776E0,1.784895658E0,1.983726501E0
3.358429271E0,-2.730792761E0,1.982810259E0,1.972731233E0
3.360834583E0,-2.738122940E0,2.032899618E0,1.910424829E0
3.363239896E0,-2.752783060E0,2.001135588E0,1.815132618E0
3.365645208E0,-2.774773598E0,1.941272616E0,1.694184899E0
3.368050521E0,-2.784547329E0,1.883852959E0,1.565907001E0
3.370455833E0,-2.784547329E0,1.814216375E0,1.432742238E0
3.372861146E0,-2.768665314E0,1.721367598E0,1.284917235E0
3.375266458E0,-2.717354059E0,1.622410297E0,1.133427143E0
3.377671823E0,-2.628170252E0,1.555217147E0,1.006370902E0
3.380077135E0,-2.524326324E0,1.447708011E0,8.670976758E-1
3.382482448E0,-2.407043695E0,1.314543247E0,7.253811359E-1
3.384887760E0,-2.260440350E0,1.209477544E0,5.971031785E-1
3.387293073E0,-2.083294630E0,1.116628766E0,4.920374751E-1
3.389698385E0,-1.880493283E0,9.981244206E-1,4.004103839E-1
3.392103698E0,-1.650814772E0,8.832851648E-1,3.124483824E-1
3.394509010E0,-1.408919215E0,7.696675658E-1,2.269297540E-1
3.396914323E0,-1.158471823E0,6.560499668E-1,1.450762302E-1
3.399319635E0,-8.982508779E-1,5.412106514E-1,7.421794534E-2
3.401724948E0,-6.331431866E-1,4.263713956E-1,1.435491070E-2
3.404130260E0,-3.851391971E-1,3.176405728E-1,-2.473931387E-2
3.406535573E0,-1.603474021E-1,2.223484069E-1,-4.672981426E-2
3.408940885E0,3.390202299E-2,1.490467340E-1,-5.528167635E-2
3.411346198E0,1.878355294E-1,9.162709117E-2,-4.672981426E-2
3.413751510E0,2.953446507E-1,5.497625470E-2,-2.718270384E-2
3.416156823E0,3.576510847E-1,4.764608666E-2,-7.635590620E-3
3.418562135E0,3.747547865E-1,5.497625470E-2,2.137965523E-3
3.420967448E0,3.564293683E-1,7.085828483E-2,-1.527118147E-3
3.423372760E0,3.112266660E-1,1.099525094E-1,-2.107422985E-2
3.425778073E0,2.440334857E-1,1.282779276E-1,-4.550812021E-2
3.428183385E0,1.621799469E-1,1.270562261E-1,-5.894676223E-2
3.430588750E0,7.788302749E-2,1.429382563E-1,-7.238540053E-2
3.432994062E0,-3.054236295E-4,1.661504507E-1,-7.971556485E-2
3.435399375E0,-7.360709459E-2,1.942494214E-1,-8.093725890E-2
3.437804687E0,-1.383569092E-1,2.247917950E-1,-8.582404256E-2
3.440210000E0,-1.872246861E-1,3.115321100E-1,-1.029277667E-1
3.442615312E0,-2.470877171E-1,3.298575282E-1,-1.310267299E-1
3.445020625E0,-3.008422852E-1,1.551551968E-1,-1.530172378E-1
3.447425937E0,-3.326063454E-1,-4.886778072E-3,-1.786728203E-1
3.449831250E0,-3.533751369E-1,-8.185353130E-2,-1.835595965E-1
3.452236562E0,-3.594835997E-1,-1.356080920E-1,-1.481304616E-1
3.454641875E0,-3.582619131E-1,-1.404948682E-1,-1.004843712E-1
3.457047187E0,-3.497100472E-1,-1.001789495E-1,-6.383354217E-2
3.459452500E0,-3.301629424E-1,-1.099525020E-2,-4.917320609E-2
3.461857812E0,-3.142809272E-1,9.651386738E-2,-6.383354217E-2
3.464263125E0,-3.142809272E-1,1.795890927E-1,-9.315420687E-2
3.466668437E0,-3.374931216E-1,2.993151546E-1,-9.315420687E-2
3.469073750E0,-3.472666740E-1,3.286358118E-1,-1.151447073E-1
3.471479062E0,-3.460449576E-1,1.808107942E-1,-1.212531775E-1
3.473884375E0,-3.387148082E-1,7.330167294E-2,-1.102579311E-1
3.476289687E0,-3.252761662E-1,4.275930673E-2,-9.071081877E-2
3.478695000E0,-3.081724346E-1,4.886778072E-2,-5.528167635E-2
3.481100312E0,-2.935121059E-1,6.841489673E-2,-2.351761982E-2
3.483505625E0,-2.739650011E-1,9.773556143E-2,-1.007897966E-2
3.485910937E0,-2.544178963E-1,1.123958975E-1,-5.192201585E-3
3.488316250E0,-2.422009408E-1,1.527118087E-1,-3.695625812E-2
3.490721614E0,-2.373141646E-1,2.455606014E-1,-7.971556485E-2
3.493126927E0,-2.214321345E-1,2.076880634E-1,-1.224748790E-1
3.495532239E0,-2.141019702E-1,7.085828483E-2,-1.517955512E-1
3.497937552E0,-2.006633282E-1,-3.542914242E-2,-1.615691036E-1
3.500342864E0,-1.835595965E-1,-9.773556143E-2,-1.640124917E-1
3.502748177E0,-1.640124917E-1,-1.258345395E-1,-1.566823274E-1
3.505153489E0,-1.408002973E-1,-1.356080920E-1,-1.481304616E-1
3.507558802E0,-1.310267299E-1,-1.514901221E-1,-1.530172378E-1
3.509964114E0,-1.273616552E-1,-1.404948682E-1,-1.579040140E-1
3.512369427E0,-1.151447073E-1,-1.844758689E-1,-1.481304616E-1
3.514774739E0,-1.090362370E-1,-3.017585576E-1,-1.212531775E-1
3.517180052E0,-1.065928489E-1,-4.569137394E-1,-8.582404256E-2
3.519585364E0,-9.559759498E-2,-5.509842038E-1,-5.161659420E-2
3.521990677E0,-6.872031838E-2,-5.583143830E-1,7.024743594E-3
3.524395989E0,-3.817795217E-2,-5.302154422E-1,6.810946763E-2
3.526801302E0,-8.857285604E-3,-4.984513521E-1,1.181989461E-1
3.529206614E0,1.435491070E-2,-4.666872919E-1,1.462979168E-1
3.531611927E0,4.367557913E-2,-4.398100376E-1,1.634016484E-1
3.534017239E0,6.933116168E-2,-4.288147688E-1,1.609582454E-1
3.536422552E0,9.254335612E-2,-4.239279926E-1,1.548497826E-1
3.538827864E0,1.157555580E-1,-4.337015450E-1,1.499630064E-1
3.541233177E0,1.304158866E-1,-4.508052766E-1,1.426328421E-1
3.543638489E0,1.255291104E-1,-4.776825607E-1,1.194206402E-1
3.546043802E0,1.059819981E-1,-4.764608741E-1,9.498675168E-2
3.548449166E0,8.032641560E-2,-4.911212027E-1,5.711421743E-2
3.550854479E0,5.222744122E-2,-5.546492934E-1,2.657185495E-2
3.553259791E0,1.924168877E-2,-6.157340407E-1,5.803049076E-3
3.555665104E0,-1.985253580E-2,-6.743753552E-1,-2.107422985E-2
3.558070416E0,-5.650337040E-2,-7.098045349E-1,-2.718270384E-2
3.560475729E0,-7.605048269E-2,-7.024743557E-1,5.803049076E-3
3.562881041E0,-8.460234851E-2,-6.768187881E-1,5.222744122E-2
3.565286354E0,-9.559759498E-2,-6.621584296E-1,8.032641560E-2
3.567691666E0,-9.804098308E-2,-6.303943992E-1,1.084253863E-1
3.570096979E0,-8.948912472E-2,-5.839699507E-1,1.243074164E-1
3.572502291E0,-7.849387079E-2,-5.363239050E-1,1.267508119E-1
3.574907604E0,-6.627693027E-2,-4.886777997E-1,1.218640283E-1
3.577312916E0,-5.894676223E-2,-4.422534108E-1,1.096470803E-1
3.579718229E0,-5.161659420E-2,-3.994941115E-1,9.254335612E-2
3.582123541E0,-4.917320609E-2,-3.591781855E-1,6.933116168E-2
3.584528854E0,-4.062134400E-2,-3.103103936E-1,5.467082933E-2
3.586934166E0,-3.084778599E-2,-2.492256761E-1,4.856235534E-2
3.589339479E0,-1.618745178E-2,-1.795890927E-1,5.100574717E-2
3.591744791E0,9.468132630E-3,-7.941014320E-2,7.299624383E-2
3.594150104E0,3.145863488E-2,-1.221694518E-3,6.566607952E-2
3.596555416E0,4.001049697E-2,4.031591862E-2,5.344913527E-2
3.598960729E0,4.611896724E-2,9.651386738E-2,4.245388508E-2
3.601366041E0,4.856235534E-2,1.417165697E-1,2.412846684E-2
3.603771354E0,3.878879920E-2,1.282779276E-1,4.581354558E-3
3.606176666E0,1.679829881E-2,5.864133686E-2,-1.374406368E-2
3.608582031E0,-1.374406368E-2,-3.298575059E-2,-2.107422985E-2
3.610987343E0,-4.306473210E-2,-1.221694499E-1,-1.740914769E-2
3.613392656E0,-6.261184067E-2,-1.710372269E-1,-5.192201585E-3
3.615797968E0,-6.872031838E-2,-1.563768983E-1,1.191152167E-2
3.618203281E0,-6.016845629E-2,-9.651386738E-2,1.924168877E-2
3.620608593E0,-3.939964995E-2,-2.687728032E-2,2.290677279E-2
3.623013906E0,-2.473931387E-2,2.321219631E-2,1.801999472E-2
3.625419218E0,-1.252236869E-2,4.764608666E-2,1.068982668E-2
3.627824531E0,-3.970507067E-3,5.375456065E-2,8.246437646E-3
3.630229843E0,3.359660041E-3,4.886778072E-2,4.581354558E-3
3.632635156E0,9.468132630E-3,4.642439261E-2,9.162708884E-4
3.635040468E0,1.191152167E-2,4.398100078E-2,3.359660041E-3
3.637445781E0,1.191152167E-2,4.031591862E-2,4.581354558E-3
3.639851093E0,1.313321572E-2,3.665083647E-2,7.024743594E-3
3.642256406E0,1.313321572E-2,3.909422457E-2,1.068982668E-2
3.644661718E0,1.313321572E-2,4.153761268E-2,1.191152167E-2
3.647067031E0,1.313321572E-2,4.275930673E-2,1.313321572E-2
3.649472343E0,1.313321572E-2,4.153761268E-2,1.068982668E-2
3.651877656E0,1.435491070E-2,4.153761268E-2,1.191152167E-2
3.654282968E0,1.313321572E-2,4.520269856E-2,1.191152167E-2
3.656688281E0,1.313321572E-2,4.642439261E-2,1.191152167E-2
3.659093593E0,1.068982668E-2,4.764608666E-2,1.313321572E-2
3.661498906E0,1.191152167E-2,4.520269856E-2,1.313321572E-2
3.663904218E0,1.068982668E-2,4.275930673E-2,1.557660475E-2
3.666309583E0,1.068982668E-2,4.153761268E-2,1.679829881E-2
3.668714843E0,1.191152167E-2,3.909422457E-2,1.801999472E-2
3.671120208E0,1.068982668E-2,4.031591862E-2,1.924168877E-2
3.673525521E0,1.191152167E-2,3.909422457E-2,2.046338283E-2
3.675930833E0,1.557660475E-2,3.665083647E-2,2.046338283E-2
3.678336146E0,1.557660475E-2,3.420744836E-2,2.046338283E-2
3.680741458E0,1.679829881E-2,3.298575059E-2,2.290677279E-2
3.683146771E0,2.046338283E-2,3.298575059E-2,2.168507688E-2
3.685552083E0,2.290677279E-2,3.176405653E-2,2.290677279E-2
3.687957396E0,2.657185495E-2,2.932066843E-2,2.657185495E-2
3.690362708E0,2.901524492E-2,2.687728032E-2,2.657185495E-2
3.692768021E0,2.901524492E-2,2.321219631E-2,2.535016090E-2
3.695173333E0,3.023693897E-2,2.076880634E-2,2.779355086E-2
3.697578646E0,3.145863488E-2,1.954711229E-2,2.657185495E-2
3.699983958E0,3.145863488E-2,1.832541823E-2,2.535016090E-2
3.702389271E0,3.023693897E-2,1.710372418E-2,2.535016090E-2
3.704794583E0,3.145863488E-2,1.710372418E-2,2.535016090E-2
3.707199896E0,2.901524492E-2,1.710372418E-2,2.535016090E-2
3.709605208E0,2.779355086E-2,1.588202827E-2,2.290677279E-2
3.712010521E0,2.535016090E-2,1.343864016E-2,2.290677279E-2
3.714415833E0,2.412846684E-2,1.221694518E-2,2.168507688E-2
3.716821146E0,2.412846684E-2,1.343864016E-2,2.046338283E-2
3.719226510E0,2.290677279E-2,9.773556143E-3,1.924168877E-2
3.721631771E0,2.168507688E-2,9.773556143E-3,1.801999472E-2
3.724037135E0,1.924168877E-2,7.330167107E-3,1.801999472E-2
3.726442396E0,1.801999472E-2,3.665083554E-3,1.435491070E-2
3.728847760E0,1.679829881E-2,2.443389036E-3,1.557660475E-2
3.731253073E0,1.435491070E-2,-2.443389036E-3,1.313321572E-2
3.733658385E0,1.435491070E-2,-3.665083554E-3,1.191152167E-2
3.736063698E0,1.557660475E-2,-3.665083554E-3,1.435491070E-2
3.738469010E0,1.191152167E-2,-6.108472589E-3,1.313321572E-2
3.740874323E0,1.313321572E-2,-7.330167107E-3,1.191152167E-2
3.743279635E0,1.435491070E-2,-1.099525020E-2,1.068982668E-2
3.745684948E0,1.313321572E-2,-1.221694518E-2,9.468132630E-3
3.748090260E0,1.435491070E-2,-1.466033421E-2,9.468132630E-3
3.750495573E0,1.557660475E-2,-1.588202827E-2,8.246437646E-3
3.752900885E0,1.557660475E-2,-1.588202827E-2,7.024743594E-3
3.755306198E0,1.801999472E-2,-1.710372418E-2,7.024743594E-3
3.757711510E0,1.924168877E-2,-1.954711229E-2,7.024743594E-3
3.760116823E0,1.924168877E-2,-1.710372418E-2,4.581354558E-3
3.762522135E0,1.801999472E-2,-1.832541823E-2,4.581354558E-3
3.764927448E0,1.801999472E-2,-1.832541823E-2,4.581354558E-3
3.767332760E0,1.801999472E-2,-1.832541823E-2,2.137965523E-3
3.769738073E0,1.801999472E-2,-1.832541823E-2,3.359660041E-3
3.772143385E0,1.679829881E-2,-1.832541823E-2,3.359660041E-3
3.774548698E0,1.557660475E-2,-1.832541823E-2,2.137965523E-3
3.776954010E0,1.557660475E-2,-1.588202827E-2,3.359660041E-3
3.779359323E0,1.313321572E-2,-1.466033421E-2,2.137965523E-3
3.781764687E0,1.313321572E-2,-1.343864016E-2,3.359660041E-3
3.784170000E0,1.068982668E-2,-1.466033421E-2,2.137965523E-3
3.786575312E0,9.468132630E-3,-1.343864016E-2,3.359660041E-3
3.788980625E0,9.468132630E-3,-1.221694518E-2,3.359660041E-3
3.791385937E0,7.024743594E-3,-1.221694518E-2,3.359660041E-3
3.793791250E0,5.803049076E-3,-1.221694518E-2,3.359660041E-3
3.796196562E0,7.024743594E-3,-1.221694518E-2,2.137965523E-3
3.798601875E0,3.359660041E-3,-8.551862091E-3,2.137965523E-3
3.801007187E0,4.581354558E-3,-9.773556143E-3,3.359660041E-3
3.803412500E0,4.581354558E-3,-8.551862091E-3,2.137965523E-3
3.805817812E0,3.359660041E-3,-8.551862091E-3,2.137965523E-3
3.808223125E0,5.803049076E-3,-6.108472589E-3,2.137965523E-3
3.810628437E0,5.803049076E-3,-4.886778072E-3,3.359660041E-3
3.813033750E0,5.803049076E-3,-6.108472589E-3,3.359660041E-3
3.815439062E0,7.024743594E-3,-3.665083554E-3,2.137965523E-3
3.817844375E0,7.024743594E-3,0.000000000E0,2.137965523E-3
3.820249687E0,4.581354558E-3,1.221694518E-3,2.137965523E-3
3.822655000E0,5.803049076E-3,3.665083554E-3,3.359660041E-3
3.825060312E0,7.024743594E-3,7.330167107E-3,4.581354558E-3
3.827465625E0,9.468132630E-3,8.551862091E-3,4.581354558E-3
3.829870937E0,1.068982668E-2,9.773556143E-3,7.024743594E-3
3.832276250E0,1.313321572E-2,1.099525020E-2,8.246437646E-3
3.834681562E0,1.557660475E-2,8.551862091E-3,8.246437646E-3
3.837086875E0,1.679829881E-2,8.551862091E-3,9.468132630E-3
3.839492187E0,1.801999472E-2,9.773556143E-3,1.191152167E-2
3.841897552E0,1.924168877E-2,6.108472589E-3,1.313321572E-2
3.844302864E0,2.168507688E-2,4.886778072E-3,1.557660475E-2
3.846708125E0,2.290677279E-2,7.330167107E-3,1.435491070E-2
3.849113489E0,2.412846684E-2,7.330167107E-3,1.313321572E-2
3.851518802E0,2.290677279E-2,8.551862091E-3,1.557660475E-2
3.853924114E0,2.535016090E-2,9.773556143E-3,1.557660475E-2
3.856329427E0,2.535016090E-2,8.551862091E-3,1.679829881E-2
3.858734739E0,2.412846684E-2,9.773556143E-3,1.435491070E-2
3.861140052E0,2.535016090E-2,9.773556143E-3,1.313321572E-2
3.863545364E0,2.290677279E-2,1.221694518E-2,1.313321572E-2
3.865950677E0,2.290677279E-2,1.343864016E-2,1.313321572E-2
3.868355989E0,2.046338283E-2,1.221694518E-2,1.191152167E-2
3.870761302E0,2.046338283E-2,1.466033421E-2,1.313321572E-2
3.873166614E0,2.046338283E-2,1.466033421E-2,1.068982668E-2
3.875571927E0,1.924168877E-2,1.588202827E-2,9.468132630E-3
3.877977239E0,1.924168877E-2,1.832541823E-2,8.246437646E-3
3.880382552E0,1.924168877E-2,1.832541823E-2,7.024743594E-3
3.882787864E0,1.801999472E-2,1.832541823E-2,7.024743594E-3
3.885193177E0,1.801999472E-2,2.076880634E-2,7.024743594E-3
3.887598489E0,1.801999472E-2,2.076880634E-2,5.803049076E-3
3.890003802E0,1.801999472E-2,1.954711229E-2,4.581354558E-3
3.892409114E0,1.801999472E-2,2.076880634E-2,7.024743594E-3
3.894814427E0,1.801999472E-2,2.321219631E-2,5.803049076E-3
3.897219739E0,1.924168877E-2,2.321219631E-2,4.581354558E-3
3.899625052E0,2.046338283E-2,2.321219631E-2,4.581354558E-3
3.902030364E0,1.924168877E-2,2.321219631E-2,5.803049076E-3
3.904435729E0,2.046338283E-2,2.076880634E-2,4.581354558E-3
3.906841041E0,-5.528167635E-2,3.787253052E-2,-7.635590620E-3
3.909246354E0,-6.685723066E-1,2.272351831E-1,-1.896680743E-1
3.911651666E0,-1.344169378E0,4.984513521E-1,-5.745018721E-1
3.914056979E0,-1.713121176E0,7.843278646E-1,-7.944068313E-1
3.916462291E0,-1.616607308E0,1.075091124E0,-9.092461467E-1
3.918867604E0,-1.302631736E0,1.281557560E0,-1.079214454E0
3.921272916E0,-1.068066478E0,1.549108624E0,-1.332105160E0
3.923678229E0,-9.080244303E-1,1.781230569E0,-1.625311852E0
3.926083541E0,-7.736380696E-1,1.919282079E0,-1.895306349E0
3.928488854E0,-6.331431866E-1,1.952267885E0,-2.101772785E0
3.930894166E0,-4.767662883E-1,1.866749167E0,-2.237380743E0
3.933299479E0,-3.081724346E-1,1.671278119E0,-2.311904192E0
3.935704791E0,-1.591257155E-1,1.411057115E0,-2.348555088E0
3.938110104E0,-6.016845629E-2,1.138619304E0,-2.354663372E0
3.940515416E0,-1.618745178E-2,8.808417320E-1,-2.341224909E0
3.942920729E0,-1.374406368E-2,6.316160560E-1,-2.314347506E0
3.945326041E0,-5.405998230E-2,4.007157981E-1,-2.283805132E0
3.947731354E0,-9.926267713E-2,1.881409585E-1,-2.245932579E0
3.950136666E0,-1.273616552E-1,-1.954711229E-2,-2.183626175E0
3.952541979E0,-1.994416267E-1,-1.844758689E-1,-2.105437756E0
3.954947291E0,-2.617480457E-1,-3.103103936E-1,-2.002815485E0
3.957352604E0,-2.776300907E-1,-4.434750974E-1,-1.865985632E0
3.959757916E0,-2.043284029E-1,-6.328377724E-1,-1.710830450E0
3.962163229E0,-1.200314835E-1,-6.963658929E-1,-1.587439299E0
3.964568593E0,-5.894676223E-2,-6.145123243E-1,-1.498255610E0
3.966973854E0,-2.718270384E-2,-4.410317242E-1,-1.443279386E0
3.969379166E0,1.435491070E-2,-2.761029601E-1,-1.417623758E0
3.971784531E0,7.055285573E-2,-1.905843467E-1,-1.402963400E0
3.974189843E0,1.304158866E-1,-1.612636745E-1,-1.400520086E0
3.976595156E0,1.719534993E-1,-1.331647038E-1,-1.413958669E0
3.979000468E0,1.963873953E-1,-8.429691941E-2,-1.432284117E0
3.981405781E0,2.428117841E-1,-2.076880634E-2,-1.443279386E0
3.983811093E0,3.148917556E-1,1.099525020E-2,-1.429840684E0
3.986216406E0,3.894151151E-1,-6.108472589E-3,-1.382194638E0
3.988621718E0,3.857500553E-1,-3.665083554E-3,-1.295454383E0
3.991027031E0,3.210002482E-1,6.230641901E-2,-1.157402873E0
3.993432343E0,2.244863659E-1,1.795890927E-1,-9.814788103E-1
3.995837656E0,1.511846930E-1,2.785463631E-1,-7.858549953E-1
3.998242968E0,6.933116168E-2,3.310792148E-1,-6.160394549E-1
4.000648281E0,-7.482878864E-2,3.603998721E-1,-5.622848868E-1
4.003053593E0,-2.678565085E-1,3.640649617E-1,-5.867187977E-1
4.005458906E0,-4.645493329E-1,3.432961702E-1,-6.209262609E-1
4.007864218E0,-6.233696342E-1,3.261924386E-1,-6.465818286E-1
4.010269531E0,-7.321004272E-1,3.115321100E-1,-6.600204706E-1
4.012674843E0,-7.895200849E-1,3.090887070E-1,-6.624638438E-1
4.015080156E0,-7.931851745E-1,3.298575282E-1,-6.465818286E-1
4.017485468E0,-7.406523228E-1,3.689517379E-1,-6.123743653E-1
4.019890781E0,-6.453601122E-1,4.092676640E-1,-5.610632300E-1
4.022296093E0,-5.183038712E-1,4.324798584E-1,-4.816530645E-1
4.024701406E0,-3.717005551E-1,4.263713956E-1,-3.484883606E-1
4.027106718E0,-2.226538211E-1,3.518480062E-1,-1.701209545E-1
4.029512031E0,-8.338065445E-2,2.064663768E-1,-1.130067464E-2
4.031917343E0,3.634541109E-2,2.565558441E-2,9.620844573E-2
4.034322656E0,1.316375881E-1,-1.490467340E-1,1.609582454E-1
4.036728021E0,2.037175596E-1,-2.919849753E-1,1.951656938E-1
4.039133281E0,2.562504113E-1,-3.872771561E-1,2.086043358E-1
4.041538646E0,2.794626355E-1,-4.275930822E-1,2.159345001E-1
4.043943958E0,2.733541429E-1,-4.239279926E-1,2.098260373E-1
4.046349271E0,2.391466945E-1,-3.897205591E-1,1.951656938E-1
4.048754583E0,1.817270666E-1,-3.359659910E-1,1.756185889E-1
4.051159896E0,1.108687744E-1,-2.736595869E-1,1.511846930E-1
4.053565208E0,3.878879920E-2,-2.040229887E-1,1.230857223E-1
4.055970521E0,-1.252236869E-2,-1.380514801E-1,9.254335612E-2
4.058375833E0,-3.695625812E-2,-7.574506104E-2,6.322269142E-2
4.060781146E0,-3.817795217E-2,-2.321219631E-2,4.001049697E-2
4.063186458E0,-2.351761982E-2,9.773556143E-3,2.535016090E-2
4.065591771E0,-1.527118147E-3,2.199050039E-2,2.046338283E-2
4.067997083E0,1.801999472E-2,1.954711229E-2,2.168507688E-2
4.070402396E0,3.878879920E-2,7.330167107E-3,2.657185495E-2
4.072807708E0,5.100574717E-2,-4.886778072E-3,2.779355086E-2
4.075213021E0,5.833591148E-2,-1.588202827E-2,2.901524492E-2
4.077618333E0,5.955760926E-2,-2.321219631E-2,2.901524492E-2
4.080023646E0,5.589252338E-2,-2.321219631E-2,2.535016090E-2
4.082428958E0,5.100574717E-2,-2.199050039E-2,2.290677279E-2
4.084834271E0,4.611896724E-2,-1.710372418E-2,1.924168877E-2
4.087239583E0,3.634541109E-2,-8.551862091E-3,1.557660475E-2
4.089644896E0,3.023693897E-2,-1.221694518E-3,1.313321572E-2
4.092050208E0,2.535016090E-2,6.108472589E-3,1.068982668E-2
4.094455521E0,1.924168877E-2,1.099525020E-2,5.803049076E-3
4.096860833E0,1.313321572E-2,1.466033421E-2,7.024743594E-3
4.099266146E0,9.468132630E-3,1.343864016E-2,5.803049076E-3
4.101671458E0,7.024743594E-3,1.343864016E-2,3.359660041E-3
4.104076823E0,3.359660041E-3,1.466033421E-2,3.359660041E-3
4.106482083E0,3.359660041E-3,1.466033421E-2,-3.054236295E-4
4.108887396E0,2.137965523E-3,1.099525020E-2,-2.748812549E-3
4.111292760E0,9.162708884E-4,1.221694518E-2,-3.970507067E-3
4.113698073E0,2.137965523E-3,1.221694518E-2,-7.635590620E-3
4.116103385E0,5.803049076E-3,1.343864016E-2,-7.635590620E-3
4.118508698E0,9.468132630E-3,1.466033421E-2,-1.007897966E-2
4.120914010E0,1.679829881E-2,1.710372418E-2,-1.252236869E-2
4.123319323E0,1.924168877E-2,1.588202827E-2,-1.618745178E-2
4.125724635E0,2.779355086E-2,1.710372418E-2,-1.740914769E-2
4.128129948E0,3.756710514E-2,2.199050039E-2,-2.107422985E-2
4.130535260E0,4.367557913E-2,2.565558441E-2,-2.840439789E-2
4.132940573E0,4.734066129E-2,3.298575059E-2,-2.962609194E-2
4.135345885E0,4.978405312E-2,3.665083647E-2,-3.206948191E-2
4.137751198E0,4.856235534E-2,3.787253052E-2,-2.840439789E-2
4.140156510E0,4.734066129E-2,3.909422457E-2,-2.351761982E-2
4.142561823E0,4.734066129E-2,3.665083647E-2,-2.229592577E-2
4.144967135E0,4.734066129E-2,3.420744836E-2,-2.107422985E-2
4.147372448E0,4.978405312E-2,3.298575059E-2,-2.107422985E-2
4.149777760E0,5.222744122E-2,3.298575059E-2,-1.985253580E-2
4.152183073E0,5.344913527E-2,2.932066843E-2,-1.618745178E-2
4.154588385E0,4.978405312E-2,2.321219631E-2,-1.007897966E-2
4.156993698E0,4.611896724E-2,1.588202827E-2,-3.054236295E-4
4.159399010E0,4.001049697E-2,6.108472589E-3,4.581354558E-3
4.161804323E0,3.512371704E-2,-2.443389036E-3,1.191152167E-2
4.164209635E0,3.390202299E-2,-1.710372418E-2,1.801999472E-2
4.166614948E0,3.145863488E-2,-2.932066843E-2,2.535016090E-2
4.169020260E0,3.268032894E-2,-4.275930673E-2,3.390202299E-2
4.171425573E0,3.756710514E-2,-5.741964281E-2,4.123219103E-2
4.173830937E0,4.123219103E-2,-7.330167294E-2,4.856235534E-2
4.176236250E0,4.978405312E-2,-8.551861346E-2,5.467082933E-2
4.178641562E0,6.322269142E-2,-9.895725548E-2,6.444438547E-2
4.181046875E0,7.666133344E-2,-1.148392856E-1,7.543963939E-2
4.183452187E0,9.009996802E-2,-1.319430023E-1,8.765657991E-2
4.185857500E0,1.072036922E-1,-1.441599578E-1,9.620844573E-2
4.188262812E0,1.194206402E-1,-1.563768983E-1,1.023169160E-1
4.190668125E0,1.377460510E-1,-1.624853760E-1,1.120904684E-1
4.193073437E0,1.658450365E-1,-1.673721522E-1,1.267508119E-1
4.195478750E0,1.841704547E-1,-1.637070626E-1,1.475196183E-1
4.197884062E0,1.316375881E-1,-1.478250325E-1,1.377460510E-1
4.200289375E0,3.512371704E-2,-1.319430023E-1,9.376505762E-2
4.202694687E0,-6.383354217E-2,-1.050657257E-1,4.611896724E-2
4.205100000E0,-1.432436854E-1,-6.108472496E-2,4.581354558E-3
4.207505312E0,-2.006633282E-1,-8.551862091E-3,-2.351761982E-2
4.209910625E0,-2.275405973E-1,3.909422457E-2,-3.573456407E-2
4.212315937E0,-2.287622988E-1,7.696675509E-2,-3.939964995E-2
4.214721250E0,-2.128802687E-1,9.773556143E-2,-3.573456407E-2
4.217126562E0,-1.798945218E-1,9.895725548E-2,-3.329117596E-2
4.219531875E0,-1.383569092E-1,9.162709117E-2,-2.718270384E-2
4.221937187E0,-9.315420687E-2,7.574506104E-2,-2.107422985E-2
4.224342500E0,-4.795150831E-2,5.375456065E-2,-1.740914769E-2
4.226747812E0,-7.635590620E-3,3.054236248E-2,-8.857285604E-3
4.229153125E0,2.046338283E-2,9.773556143E-3,-3.970507067E-3
4.231558437E0,3.878879920E-2,-6.108472589E-3,3.359660041E-3
4.233963750E0,4.734066129E-2,-1.710372418E-2,8.246437646E-3
4.236369062E0,4.367557913E-2,-1.710372418E-2,9.468132630E-3
4.238774375E0,4.367557913E-2,-8.551862091E-3,1.191152167E-2
4.241179687E0,3.878879920E-2,0.000000000E0,9.468132630E-3
4.243585000E0,2.901524492E-2,1.221694518E-2,7.024743594E-3
4.245990312E0,2.046338283E-2,2.321219631E-2,5.803049076E-3
4.248395677E0,1.435491070E-2,3.176405653E-2,4.581354558E-3
4.250800937E0,9.468132630E-3,3.787253052E-2,4.581354558E-3
4.253206250E0,5.803049076E-3,4.031591862E-2,2.137965523E-3
4.255611614E0,3.359660041E-3,4.153761268E-2,2.137965523E-3
4.258016927E0,4.581354558E-3,4.153761268E-2,3.359660041E-3
4.260422239E0,7.024743594E-3,3.909422457E-2,3.359660041E-3
4.262827552E0,1.068982668E-2,3.420744836E-2,3.359660041E-3
4.265232864E0,1.191152167E-2,2.932066843E-2,3.359660041E-3
4.267638177E0,1.557660475E-2,2.565558441E-2,4.581354558E-3
4.270043489E0,1.557660475E-2,2.321219631E-2,5.803049076E-3
4.272448802E0,1.557660475E-2,1.954711229E-2,4.581354558E-3
4.274854114E0,1.801999472E-2,1.588202827E-2,5.803049076E-3
4.277259427E0,1.435491070E-2,1.466033421E-2,4.581354558E-3
4.279664739E0,1.191152167E-2,1.466033421E-2,2.137965523E-3
4.282070052E0,1.191152167E-2,1.343864016E-2,9.162708884E-4
4.284475364E0,9.468132630E-3,1.221694518E-2,9.162708884E-4
4.286880677E0,7.024743594E-3,1.343864016E-2,-3.054236295E-4
4.289285989E0,5.803049076E-3,1.343864016E-2,-3.054236295E-4
4.291691302E0,4.581354558E-3,1.099525020E-2,-3.970507067E-3
4.294096614E0,3.359660041E-3,1.221694518E-2,-2.748812549E-3
4.296501927E0,2.137965523E-3,9.773556143E-3,-3.970507067E-3
4.298907239E0,9.162708884E-4,7.330167107E-3,-3.970507067E-3
4.301312552E0,9.162708884E-4,7.330167107E-3,-2.748812549E-3
4.303717864E0,9.162708884E-4,4.886778072E-3,-6.413896102E-3
4.306123177E0,3.359660041E-3,2.443389036E-3,-3.970507067E-3
4.308528489E0,2.137965523E-3,3.665083554E-3,-2.748812549E-3
4.310933802E0,-1.985253580E-2,-2.443389036E-3,-1.007897966E-2
4.313339114E0,-2.067717910E-1,-2.809897438E-2,-6.383354217E-2
4.315744427E0,-6.404733658E-1,-6.841489673E-2,-2.079934925E-1
4.318149739E0,-8.884773254E-1,7.574506104E-2,-3.069507480E-1
4.320555052E0,-7.736380696E-1,4.202629030E-1,-3.008422852E-1
4.322960364E0,-4.987567961E-1,6.841489077E-1,-2.935121059E-1
4.325365677E0,-2.947337925E-1,7.427902818E-1,-3.326063454E-1
4.327770989E0,-1.969982386E-1,6.755970716E-1,-4.059080184E-1
4.330176302E0,-1.640124917E-1,5.888567567E-1,-4.877615273E-1
4.332581614E0,-1.676775664E-1,5.265503526E-1,-6.050441861E-1
4.334986927E0,-1.860029846E-1,5.094466209E-1,-7.638645172E-1
4.337392291E0,-1.725643575E-1,6.096255779E-1,-9.312366247E-1
4.339797604E0,-7.605048269E-2,6.365028620E-1,-1.101204872E0
4.342202916E0,6.688777357E-2,5.448757410E-1,-1.273463845E0
4.344608229E0,2.086043358E-1,4.031592011E-1,-1.412737012E0
4.347013541E0,3.319954872E-1,2.321219593E-1,-1.505585790E0
4.349418854E0,4.211791754E-1,5.131116882E-2,-1.542236567E0
4.351824166E0,4.798205197E-1,-1.099525094E-1,-1.550788522E0
4.354229479E0,5.042544007E-1,-2.406738251E-1,-1.516581059E0
4.356634791E0,5.066977739E-1,-3.420744538E-1,-1.466491580E0
4.359040104E0,4.908157587E-1,-4.056025743E-1,-1.395633221E0
4.361445416E0,4.627167881E-1,-4.251496792E-1,-1.302784443E0
4.363850729E0,4.175141156E-1,-4.275930822E-1,-1.191610336E0
4.366256041E0,3.710896969E-1,-4.068242610E-1,-1.057223916E0
4.368661354E0,3.185568452E-1,-3.518480062E-1,-8.787037730E-1
4.371066666E0,2.696890533E-1,-2.883199155E-1,-6.722373962E-1
4.373471979E0,2.293731421E-1,-1.979145110E-1,-4.511106908E-1
4.375877291E0,1.902789176E-1,-1.062874198E-1,-2.299840003E-1
4.378282604E0,1.634016484E-1,-3.909422457E-2,-3.206948191E-2
4.380687916E0,1.487413049E-1,1.710372418E-2,1.267508119E-1
4.383093229E0,1.340809762E-1,7.085828483E-2,2.452551723E-1
4.385498541E0,1.328592747E-1,1.136175916E-1,3.161134422E-1
4.387903854E0,1.340809762E-1,1.783674061E-1,3.490992188E-1
4.390309166E0,1.328592747E-1,2.431172132E-1,3.466558158E-1
4.392714479E0,1.389677525E-1,2.651077211E-1,3.063398898E-1
4.395119791E0,1.401894391E-1,2.553341687E-1,2.391466945E-1
4.397525104E0,1.316375881E-1,2.333436459E-1,1.597365588E-1
4.399930416E0,1.157555580E-1,1.905843467E-1,7.055285573E-2
4.402335729E0,1.072036922E-1,1.221694499E-1,-2.473931387E-2
4.404741041E0,1.108687744E-1,2.443389036E-2,-7.482878864E-2
4.407146354E0,1.072036922E-1,-4.398100078E-2,-4.795150831E-2
4.409551666E0,8.765657991E-2,-9.162709117E-2,1.191152167E-2
4.411956979E0,5.955760926E-2,-1.356080920E-1,5.711421743E-2
4.414362291E0,3.145863488E-2,-1.588202864E-1,6.810946763E-2
4.416767656E0,1.313321572E-2,-1.490467340E-1,5.344913527E-2
4.419172916E0,2.137965523E-3,-1.136175916E-1,4.367557913E-2
4.421578229E0,-1.527118147E-3,-7.941014320E-2,4.734066129E-2
4.423983593E0,-1.527118147E-3,-6.841489673E-2,5.711421743E-2
4.426388854E0,4.581354558E-3,-7.818844914E-2,6.810946763E-2
4.428794218E0,1.313321572E-2,-9.529217333E-2,8.154810965E-2
4.431199531E0,2.290677279E-2,-1.136175916E-1,9.498675168E-2
4.433604843E0,3.390202299E-2,-1.270562261E-1,1.096470803E-1
4.436010156E0,4.123219103E-2,-1.331647038E-1,1.218640283E-1
4.438415468E0,4.856235534E-2,-1.343863904E-1,1.365243644E-1
4.440820781E0,5.100574717E-2,-1.356080920E-1,1.499630064E-1
4.443226093E0,5.467082933E-2,-1.356080920E-1,1.597365588E-1
4.445631406E0,5.467082933E-2,-1.380514801E-1,1.646233350E-1
4.448036718E0,5.100574717E-2,-1.258345395E-1,1.829487532E-1
4.450442031E0,4.611896724E-2,-1.050657257E-1,2.134911120E-1
4.452847343E0,4.367557913E-2,-9.284878522E-2,2.342599183E-1
4.455252656E0,4.489727318E-2,-8.551861346E-2,2.501419485E-1
4.457657968E0,4.489727318E-2,-7.941014320E-2,2.599155009E-1
4.460063281E0,4.611896724E-2,-7.085828483E-2,2.635805905E-1
4.462468593E0,4.734066129E-2,-6.108472496E-2,2.721324563E-1
4.464873906E0,4.367557913E-2,-4.886778072E-2,2.806843221E-1
4.467279218E0,4.001049697E-2,-4.153761268E-2,2.892361879E-1
4.469684531E0,3.512371704E-2,-4.153761268E-2,2.916795611E-1
4.472089843E0,3.023693897E-2,-4.275930673E-2,2.892361879E-1
4.474495156E0,2.535016090E-2,-4.642439261E-2,2.794626355E-1
4.476900468E0,1.924168877E-2,-5.008947477E-2,2.623589039E-1
4.479305781E0,1.679829881E-2,-5.375456065E-2,2.440334857E-1
4.481711093E0,1.435491070E-2,-5.741964281E-2,2.220429778E-1
4.484116406E0,1.068982668E-2,-5.986303091E-2,1.939440072E-1
4.486521718E0,3.359660041E-3,-6.474980712E-2,1.682884246E-1
4.488927031E0,-3.970507067E-3,-8.185353130E-2,1.353026628E-1
4.491332343E0,-1.863084175E-2,-9.407047927E-2,1.035386100E-1
4.493737656E0,-4.428642616E-2,-1.136175916E-1,6.077930331E-2
4.496142968E0,-1.261399537E-1,-1.404948682E-1,-7.635590620E-3
4.498548281E0,-2.238755226E-1,-1.343863904E-1,-9.193251282E-2
4.500953593E0,-3.057290614E-1,-8.674030751E-2,-1.236965731E-1
4.503358906E0,-3.533751369E-1,-3.298575059E-2,-1.310267299E-1
4.505764218E0,-3.619270027E-1,7.330167107E-3,-1.212531775E-1
4.508169531E0,-3.399364948E-1,3.420744836E-2,-1.029277667E-1
4.510574843E0,-2.935121059E-1,4.642439261E-2,-8.460234851E-2
4.512980156E0,-2.275405973E-1,4.764608666E-2,-6.994201243E-2
4.515385468E0,-1.554606259E-1,4.275930673E-2,-5.650337040E-2
4.517790833E0,-8.215895295E-2,2.932066843E-2,-4.062134400E-2
4.520196093E0,-1.985253580E-2,1.099525020E-2,-2.840439789E-2
4.522601406E0,2.412846684E-2,-8.551862091E-3,-1.740914769E-2
4.525006771E0,4.978405312E-2,-2.443389036E-2,-7.635590620E-3
4.527412083E0,5.833591148E-2,-3.298575059E-2,-5.192201585E-3
4.529817396E0,5.589252338E-2,-3.176405653E-2,-1.527118147E-3
4.532222708E0,4.611896724E-2,-2.443389036E-2,-1.527118147E-3
4.534628021E0,3.390202299E-2,-1.221694518E-2,-6.413896102E-3
4.537033333E0,1.924168877E-2,2.443389036E-3,-6.413896102E-3
4.539438646E0,8.246437646E-3,1.466033421E-2,-1.007897966E-2
4.541843958E0,9.162708884E-4,2.565558441E-2,-8.857285604E-3
4.544249271E0,-3.970507067E-3,2.809897438E-2,-8.857285604E-3
4.546654583E0,-6.413896102E-3,2.932066843E-2,-8.857285604E-3
4.549059896E0,-5.192201585E-3,2.687728032E-2,-7.635590620E-3
4.551465208E0,-2.748812549E-3,2.321219631E-2,-6.413896102E-3
4.553870521E0,2.137965523E-3,1.710372418E-2,-6.413896102E-3
4.556275833E0,5.803049076E-3,1.099525020E-2,-1.527118147E-3
4.558681146E0,9.468132630E-3,7.330167107E-3,9.162708884E-4
4.561086458E0,1.313321572E-2,4.886778072E-3,9.162708884E-4
4.563491771E0,1.801999472E-2,1.221694518E-3,9.162708884E-4
4.565897083E0,1.801999472E-2,-2.443389036E-3,2.137965523E-3
4.568302396E0,1.924168877E-2,-3.665083554E-3,3.359660041E-3
4.570707708E0,2.168507688E-2,-3.665083554E-3,3.359660041E-3
4.573113021E0,2.046338283E-2,-4.886778072E-3,4.581354558E-3
4.575518333E0,2.168507688E-2,-3.665083554E-3,3.359660041E-3
4.577923646E0,1.924168877E-2,-3.665083554E-3,3.359660041E-3
4.580328958E0,1.924168877E-2,-3.665083554E-3,4.581354558E-3
4.582734271E0,1.801999472E-2,-1.221694518E-3,2.137965523E-3
4.585139583E0,1.679829881E-2,-1.221694518E-3,2.137965523E-3
4.587544896E0,1.557660475E-2,-3.665083554E-3,2.137965523E-3
4.589950208E0,1.435491070E-2,-2.443389036E-3,4.581354558E-3
4.592355521E0,1.435491070E-2,-2.443389036E-3,4.581354558E-3
4.594760833E0,1.557660475E-2,-3.665083554E-3,4.581354558E-3
4.597166146E0,1.435491070E-2,-2.443389036E-3,5.803049076E-3
4.599571458E0,1.313321572E-2,-1.221694518E-3,7.024743594E-3
4.601976771E0,1.313321572E-2,-1.221694518E-3,5.803049076E-3
4.604382083E0,1.068982668E-2,1.221694518E-3,7.024743594E-3
4.606787396E0,9.468132630E-3,2.443389036E-3,7.024743594E-3
4.609192708E0,9.468132630E-3,3.665083554E-3,8.246437646E-3
4.611598021E0,7.024743594E-3,3.665083554E-3,5.803049076E-3
4.614003333E0,5.803049076E-3,7.330167107E-3,5.803049076E-3
4.616408698E0,4.581354558E-3,8.551862091E-3,7.024743594E-3
4.618813958E0,3.359660041E-3,8.551862091E-3,5.803049076E-3
4.621219271E0,2.137965523E-3,1.099525020E-2,5.803049076E-3
4.623624635E0,9.162708884E-4,1.099525020E-2,4.581354558E-3
4.626029948E0,-1.527118147E-3,1.221694518E-2,4.581354558E-3
4.628435260E0,-3.054236295E-4,1.221694518E-2,5.803049076E-3
4.630840573E0,-2.748812549E-3,1.343864016E-2,3.359660041E-3
4.633245885E0,-2.748812549E-3,1.221694518E-2,3.359660041E-3
4.635651198E0,-3.970507067E-3,1.466033421E-2,2.137965523E-3
4.638056510E0,-6.413896102E-3,1.588202827E-2,3.359660041E-3
4.640461823E0,-6.413896102E-3,1.710372418E-2,9.162708884E-4
4.642867135E0,-5.192201585E-3,1.954711229E-2,9.162708884E-4
4.645272448E0,-6.413896102E-3,1.832541823E-2,2.137965523E-3
4.647677760E0,-8.857285604E-3,1.832541823E-2,9.162708884E-4
4.650083073E0,-1.130067464E-2,1.954711229E-2,-3.054236295E-4
4.652488385E0,-1.007897966E-2,2.076880634E-2,-3.054236295E-4
4.654893698E0,-1.007897966E-2,2.076880634E-2,-3.054236295E-4
4.657299010E0,-1.130067464E-2,2.076880634E-2,9.162708884E-4
4.659704323E0,-1.007897966E-2,2.076880634E-2,9.162708884E-4
4.662109635E0,-1.007897966E-2,2.076880634E-2,-3.054236295E-4
4.664514948E0,-1.007897966E-2,2.076880634E-2,-3.054236295E-4
4.666920260E0,-1.007897966E-2,2.076880634E-2,-3.054236295E-4
4.669325573E0,-8.857285604E-3,1.954711229E-2,-3.054236295E-4
4.671730885E0,-8.857285604E-3,1.710372418E-2,-3.054236295E-4
4.674136198E0,-8.857285604E-3,1.832541823E-2,-3.054236295E-4
4.676541510E0,-7.635590620E-3,1.588202827E-2,-1.527118147E-3
4.678946823E0,-7.635590620E-3,1.466033421E-2,-1.527118147E-3
4.681352135E0,-6.413896102E-3,1.221694518E-2,-1.527118147E-3
4.683757448E0,-6.413896102E-3,1.099525020E-2,-1.527118147E-3
4.686162760E0,-5.192201585E-3,9.773556143E-3,-3.054236295E-4
4.688568073E0,-2.748812549E-3,4.886778072E-3,-1.527118147E-3
4.690973385E0,-2.748812549E-3,3.665083554E-3,-2.748812549E-3
4.693378698E0,-2.748812549E-3,3.665083554E-3,-3.054236295E-4
4.695784010E0,-1.527118147E-3,2.443389036E-3,-1.527118147E-3
4.698189323E0,-3.054236295E-4,0.000000000E0,-1.527118147E-3
4.700594635E0,9.162708884E-4,-1.221694518E-3,-1.527118147E-3
4.702999948E0,2.137965523E-3,-3.665083554E-3,-3.054236295E-4
4.705405260E0,3.359660041E-3,-3.665083554E-3,-3.054236295E-4
4.707810573E0,4.581354558E-3,-3.665083554E-3,-3.054236295E-4
4.710215885E0,4.581354558E-3,-4.886778072E-3,9.162708884E-4
4.712621198E0,5.803049076E-3,-6.108472589E-3,9.162708884E-4
4.715026510E0,7.024743594E-3,-6.108472589E-3,3.359660041E-3
4.717431823E0,7.024743594E-3,-4.886778072E-3,9.162708884E-4
4.719837135E0,7.024743594E-3,-6.108472589E-3,-3.054236295E-4
4.722242448E0,7.024743594E-3,-4.886778072E-3,2.137965523E-3
4.724647760E0,7.024743594E-3,-3.665083554E-3,9.162708884E-4
4.727053073E0,7.024743594E-3,-4.886778072E-3,2.137965523E-3
4.729458437E0,7.024743594E-3,-4.886778072E-3,3.359660041E-3
4.731863750E0,5.803049076E-3,-3.665083554E-3,2.137965523E-3
4.734269062E0,4.581354558E-3,-4.886778072E-3,2.137965523E-3
4.736674375E0,5.803049076E-3,-3.665083554E-3,9.162708884E-4
4.739079687E0,4.581354558E-3,-2.443389036E-3,9.162708884E-4
4.741485000E0,3.359660041E-3,-2.443389036E-3,2.137965523E-3
4.743890312E0,4.581354558E-3,0.000000000E0,2.137965523E-3
4.746295625E0,3.359660041E-3,-2.443389036E-3,9.162708884E-4
4.748700937E0,4.581354558E-3,1.221694518E-3,2.137965523E-3
4.751106250E0,3.359660041E-3,1.221694518E-3,2.137965523E-3
4.753511562E0,9.162708884E-4,1.221694518E-3,9.162708884E-4
4.755916875E0,9.162708884E-4,1.221694518E-3,2.137965523E-3
4.758322187E0,-3.054236295E-4,2.443389036E-3,-3.054236295E-4
4.760727500E0,9.162708884E-4,2.443389036E-3,9.162708884E-4
4.763132812E0,-3.054236295E-4,6.108472589E-3,2.137965523E-3
4.765538125E0,-2.748812549E-3,4.886778072E-3,-3.054236295E-4
4.767943437E0,9.162708884E-4,3.665083554E-3,-3.054236295E-4
4.770348750E0,-3.054236295E-4,7.330167107E-3,-3.054236295E-4
4.772754062E0,-3.054236295E-4,7.330167107E-3,-3.054236295E-4
4.775159375E0,9.162708884E-4,7.330167107E-3,9.162708884E-4
4.777564687E0,9.162708884E-4,7.330167107E-3,9.162708884E-4
4.779970000E0,9.162708884E-4,8.551862091E-3,9.162708884E-4
4.782375312E0,3.359660041E-3,7.330167107E-3,-1.527118147E-3
4.784780625E0,-2.748812549E-3,7.330167107E-3,9.162708884E-4
4.787185937E0,-1.527118147E-3,6.108472589E-3,9.162708884E-4
4.789591250E0,-3.054236295E-4,6.108472589E-3,-3.054236295E-4
4.791996562E0,-3.054236295E-4,6.108472589E-3,9.162708884E-4
4.794401875E0,-1.527118147E-3,3.665083554E-3,-3.054236295E-4
4.796807187E0,-3.970507067E-3,4.886778072E-3,-3.054236295E-4
4.799212500E0,-2.748812549E-3,2.443389036E-3,-3.054236295E-4
4.801617812E0,-3.054236295E-4,-1.221694518E-3,9.162708884E-4
4.804023125E0,-2.748812549E-3,0.000000000E0,9.162708884E-4
4.806428437E0,-5.192201585E-3,0.000000000E0,-1.527118147E-3
4.808833750E0,-3.970507067E-3,-1.221694518E-3,-3.054236295E-4
4.811239062E0,-5.192201585E-3,-3.665083554E-3,9.162708884E-4
4.813644375E0,-3.970507067E-3,-4.886778072E-3,2.137965523E-3
4.816049687E0,-3.970507067E-3,-2.443389036E-3,2.137965523E-3
4.818455000E0,-6.413896102E-3,-4.886778072E-3,2.137965523E-3
4.820860312E0,-7.635590620E-3,-6.108472589E-3,2.137965523E-3
4.823265625E0,-6.413896102E-3,-6.108472589E-3,9.162708884E-4
4.825670937E0,-7.635590620E-3,-6.108472589E-3,2.137965523E-3
4.828076250E0,-8.857285604E-3,-6.108472589E-3,2.137965523E-3
4.830481562E0,-8.857285604E-3,-7.330167107E-3,2.137965523E-3
4.832886875E0,-1.007897966E-2,-6.108472589E-3,2.137965523E-3
4.835292187E0,-8.857285604E-3,-6.108472589E-3,3.359660041E-3
4.837697552E0,-1.007897966E-2,-4.886778072E-3,3.359660041E-3
4.840102864E0,-1.007897966E-2,-4.886778072E-3,2.137965523E-3
4.842508177E0,-1.007897966E-2,-4.886778072E-3,2.137965523E-3
4.844913489E0,-1.007897966E-2,-2.443389036E-3,3.359660041E-3
4.847318802E0,-1.130067464E-2,-2.443389036E-3,2.137965523E-3
4.849724114E0,-1.130067464E-2,-3.665083554E-3,2.137965523E-3
4.852129427E0,-1.007897966E-2,-2.443389036E-3,9.162708884E-4
4.854534739E0,-1.130067464E-2,-1.221694518E-3,2.137965523E-3
