"Time (s)","Acceleration x (m/s^2)","Acceleration y (m/s^2)","Acceleration z (m/s^2)"
0.000000000E0,5.304334641E0,8.074943542E0,5.275804996E0
9.789450000E-4,5.408013344E0,8.019014359E0,5.498456478E0
2.978945000E-3,5.370577812E0,7.892131329E0,5.748985767E0
4.978945000E-3,5.218766212E0,7.701169968E0,6.007559776E0
6.978945000E-3,4.991106033E0,7.516807079E0,6.261804581E0
8.980508000E-3,4.740327835E0,7.367552280E0,6.524285793E0
1.098207000E-2,4.481620312E0,7.278354168E0,6.782294273E0
1.298050800E-2,4.481620312E0,7.278354168E0,6.782294273E0
1.498050800E-2,4.096402168E0,7.232395172E0,7.107456207E0
1.697894500E-2,3.776134968E0,7.227711678E0,7.334368706E0
1.897894500E-2,3.157099724E0,7.263586521E0,7.681259632E0
2.098675800E-2,2.571362972E0,7.325222969E0,7.973064899E0
2.297894500E-2,1.978778958E0,7.430309296E0,8.245113373E0
2.497894500E-2,1.400627255E0,7.538613319E0,8.495211601E0
2.697894500E-2,8.551513553E-1,7.653142452E0,8.738224030E0
2.897894500E-2,3.277853727E-1,7.796574116E0,8.981407166E0
3.098050800E-2,-1.489193439E-1,7.963239193E0,9.204019547E0
3.298050800E-2,-5.339548588E-1,8.125202179E0,9.391361237E0
3.498050800E-2,-7.942524552E-1,8.289645195E0,9.495605469E0
3.698050800E-2,-8.777909279E-1,8.418922424E0,9.481345177E0
3.898050800E-2,-8.043081164E-1,8.515945435E0,9.362334251E0
4.097894500E-2,-5.900079608E-1,8.560324669E0,9.171506882E0
4.297894500E-2,-2.643773258E-1,8.562738419E0,8.907225609E0
4.497894500E-2,1.159847081E-1,8.533537865E0,8.600297928E0
4.697894500E-2,4.770398736E-1,8.466051102E0,8.269534111E0
4.897894500E-2,7.738251090E-1,8.372197151E0,7.924989700E0
5.097894500E-2,9.846106768E-1,8.271430969E0,7.556780338E0
5.297894500E-2,1.110162616E0,8.154229164E0,7.185650349E0
5.497894500E-2,1.200730443E0,8.014628410E0,6.834641457E0
5.697894500E-2,1.198747993E0,7.910116673E0,6.511223316E0
5.897894500E-2,1.123081684E0,7.822853088E0,6.237326145E0
6.097894500E-2,1.033184171E0,7.728339195E0,6.001708031E0
6.297894500E-2,9.365446568E-1,7.653793335E0,5.795318127E0
6.497894500E-2,8.371278048E-1,7.611157894E0,5.614958286E0
6.697894500E-2,7.666904330E-1,7.589973450E0,5.448206902E0
6.897894500E-2,7.332386374E-1,7.611942768E0,5.296405315E0
7.097894500E-2,5.214571357E-1,7.692464828E0,5.189691067E0
7.297894500E-2,3.179691434E-1,7.774681568E0,5.114608288E0
7.497894500E-2,3.109206259E-1,7.790512085E0,5.039526463E0
7.697894500E-2,4.401212931E-1,7.786853313E0,4.962921619E0
7.897894500E-2,6.085773110E-1,7.744409084E0,4.911685467E0
8.097894500E-2,7.719289660E-1,7.680378914E0,4.877180099E0
8.297894500E-2,9.268050790E-1,7.563560963E0,4.879277706E0
8.497894500E-2,1.075877666E0,7.438152790E0,4.913974762E0
8.697894500E-2,1.250367045E0,7.353512764E0,4.950749397E0
8.897894500E-2,1.392075062E0,7.283018112E0,5.004734039E0
9.097894500E-2,1.513499379E0,7.200370312E0,5.103327274E0
9.297894500E-2,1.639443994E0,7.110022545E0,5.218507290E0
9.497894500E-2,1.770464182E0,7.057694912E0,5.380642414E0
9.698050800E-2,1.920552015E0,7.022452354E0,5.590173721E0
9.898050800E-2,2.061982155E0,6.997763157E0,5.816100121E0
1.009805080E-1,2.158861399E0,6.945282459E0,6.038109779E0
1.029805080E-1,2.217001915E0,6.849389553E0,6.291042328E0
1.049805080E-1,2.230064631E0,6.746410370E0,6.586448669E0
1.069789450E-1,2.240810156E0,6.625110149E0,6.928359985E0
1.089789450E-1,2.249658823E0,6.481908798E0,7.294558048E0
1.109789450E-1,2.266178846E0,6.351567745E0,7.686335564E0
1.129789450E-1,2.306372881E0,6.227213383E0,8.067128181E0
1.149789450E-1,2.348376751E0,6.131225109E0,8.465562820E0
1.169789450E-1,2.395992756E0,6.040752888E0,8.863957405E0
1.189789450E-1,2.410922766E0,5.933329582E0,9.269343376E0
1.209789450E-1,2.416324139E0,5.835962296E0,9.685474396E0
1.229805080E-1,2.407446623E0,5.726968765E0,1.013461685E1
1.249805080E-1,2.383351088E0,5.639609337E0,1.060648632E1
1.269805080E-1,2.343339443E0,5.575348854E0,1.107508850E1
1.289805080E-1,2.350081205E0,5.535336971E0,1.145659924E1
1.309805080E-1,2.358221769E0,5.462926865E0,1.175477314E1
1.329789450E-1,2.428266287E0,5.430058956E0,1.194755459E1
1.349789450E-1,2.566114902E0,5.440823078E0,1.205048656E1
1.369789450E-1,2.730452776E0,5.448743343E0,1.207922649E1
1.389789450E-1,2.875704288E0,5.450275898E0,1.208703136E1
1.409789450E-1,3.003104687E0,5.451511383E0,1.210888577E1
1.429789450E-1,3.110336065E0,5.472609043E0,1.211879826E1
1.449789450E-1,3.180122375E0,5.421382427E0,1.211655617E1
1.469789450E-1,3.226818800E0,5.345706463E0,1.210166550E1
1.489789450E-1,3.270594597E0,5.252160072E0,1.207826900E1
1.509789450E-1,3.361056805E0,5.165030479E0,1.202254105E1
1.529789450E-1,3.488169909E0,5.066791534E0,1.193358231E1
1.549789450E-1,3.653810263E0,5.011610031E0,1.182608318E1
1.569789450E-1,3.832695484E0,4.999610424E0,1.168112755E1
1.589789450E-1,4.006227493E0,5.001008511E0,1.149076939E1
1.609789450E-1,4.128858566E0,5.003393173E0,1.126207638E1
1.629789450E-1,4.230640411E0,4.995559216E0,1.102035713E1
1.649789450E-1,4.329119205E0,4.999830723E0,1.077138901E1
1.669789450E-1,4.416123867E0,5.032190323E0,1.048667049E1
1.689789450E-1,4.491618156E0,5.055605888E0,1.017928410E1
1.709789450E-1,4.539032936E0,5.071503639E0,9.862549782E0
1.729789450E-1,4.572848797E0,5.082248688E0,9.554751396E0
1.749789450E-1,4.602939129E0,5.086835861E0,9.269860268E0
1.770101950E-1,4.618951321E0,5.104131222E0,9.026762962E0
1.789789450E-1,4.625684261E0,5.140494823E0,8.825572968E0
1.809789450E-1,4.622140408E0,5.192238331E0,8.677994728E0
1.829789450E-1,4.609959126E0,5.266085148E0,8.556992531E0
1.849789450E-1,4.573394299E0,5.342411995E0,8.446782112E0
1.869789450E-1,4.516518116E0,5.406758785E0,8.347240448E0
1.889789450E-1,4.434856415E0,5.457994461E0,8.249920845E0
1.909789450E-1,4.368441582E0,5.512381554E0,8.175834656E0
1.929789450E-1,4.321878910E0,5.536553383E0,8.106489182E0
1.949789450E-1,4.270527840E0,5.528422356E0,8.045953751E0
1.969789450E-1,4.183063030E0,5.505639076E0,8.014101982E0
1.989789450E-1,3.916042566E0,5.431553364E0,8.034538269E0
2.009789450E-1,3.771930695E0,5.408999443E0,8.014121056E0
2.029789450E-1,3.992580414E0,5.505141258E0,8.008489609E0
2.049789450E-1,4.335506916E0,5.615638256E0,8.032786369E0
2.069789450E-1,4.632809162E0,5.682475090E0,8.086579323E0
2.089789450E-1,4.841056824E0,5.678088665E0,8.179014206E0
2.109789450E-1,4.965229511E0,5.632493496E0,8.295736313E0
2.129789450E-1,5.050568581E0,5.551234245E0,8.410351753E0
2.149789450E-1,5.119866371E0,5.460810184E0,8.532732964E0
2.169789450E-1,5.206660748E0,5.401299953E0,8.624201775E0
2.189789450E-1,5.324053288E0,5.360291958E0,8.688576698E0
2.209789450E-1,5.459296703E0,5.343781948E0,8.712806702E0
2.229789450E-1,5.586553574E0,5.330316544E0,8.718484879E0
2.249836330E-1,5.668167114E0,5.317138672E0,8.703057289E0
2.269820700E-1,5.701044559E0,5.306096554E0,8.683836937E0
2.289883200E-1,5.714068890E0,5.270509243E0,8.678875923E0
2.309789450E-1,5.710592270E0,5.226034641E0,8.692273140E0
2.329805080E-1,5.687713146E0,5.196988106E0,8.711139679E0
2.349851950E-1,5.673328876E0,5.167711735E0,8.729307175E0
2.369789450E-1,5.659634113E0,5.132182121E0,8.725303650E0
2.389789450E-1,5.637004375E0,5.094353676E0,8.686805725E0
2.409789450E-1,5.614038944E0,5.065776348E0,8.612843513E0
2.429789450E-1,5.588909626E0,5.026310444E0,8.505181313E0
2.449789450E-1,5.562334061E0,4.966618061E0,8.347480774E0
2.469789450E-1,5.535030365E0,4.911637783E0,8.172185898E0
2.489789450E-1,5.499088764E0,4.835339546E0,8.008365631E0
2.509851950E-1,5.467360973E0,4.764030457E0,7.863860607E0
2.529789450E-1,5.444730282E0,4.715015888E0,7.730091572E0
2.550023830E-1,5.425060272E0,4.674190521E0,7.588144302E0
2.569789450E-1,5.407400608E0,4.647346497E0,7.418118000E0
2.589789450E-1,5.375950336E0,4.606922626E0,7.237288475E0
2.609789450E-1,5.319398880E0,4.560303211E0,7.059351444E0
2.629789450E-1,5.178390026E0,4.517322063E0,6.886710644E0
2.649789450E-1,4.759988785E0,4.433372021E0,6.785196304E0
2.669789450E-1,4.463031292E0,4.365500927E0,6.655191422E0
2.689789450E-1,4.408510685E0,4.384262085E0,6.509269714E0
2.709883200E-1,4.421994686E0,4.427300453E0,6.370999336E0
2.729789450E-1,4.455312729E0,4.476572990E0,6.238054276E0
2.749789450E-1,4.513501167E0,4.512026310E0,6.096825123E0
2.769789450E-1,4.614038467E0,4.533823013E0,5.970717907E0
2.789789450E-1,4.569334030E0,4.553819180E0,5.881222248E0
2.809883200E-1,4.231138706E0,4.555524349E0,5.830245018E0
2.829789450E-1,4.113085270E0,4.558655739E0,5.698803425E0
2.849789450E-1,4.233370304E0,4.580903053E0,5.572618961E0
2.869789450E-1,4.429273129E0,4.641476154E0,5.501674175E0
2.889789450E-1,4.590364933E0,4.686305046E0,5.466757298E0
2.909789450E-1,4.678346634E0,4.714317322E0,5.429340839E0
2.929789450E-1,4.745470524E0,4.729438782E0,5.398608685E0
2.949789450E-1,4.870945930E0,4.744895935E0,5.357782841E0
2.969789450E-1,5.051545620E0,4.775273323E0,5.358596802E0
2.989789450E-1,5.349776745E0,4.941229820E0,5.488334179E0
3.009898830E-1,5.996776581E0,5.502124310E0,6.037046432E0
3.029805080E-1,6.463894367E0,5.742349148E0,6.288150311E0
3.049789450E-1,6.535433292E0,5.485710144E0,6.132517815E0
3.069789450E-1,6.422436714E0,5.041920185E0,5.840751171E0
3.089789450E-1,6.326256752E0,4.810515881E0,5.676891804E0
3.109789450E-1,6.078524113E0,4.368288040E0,5.404249668E0
3.129789450E-1,5.767698765E0,3.980724335E0,5.287987232E0
3.149789450E-1,5.451348305E0,3.647030115E0,5.300207138E0
3.169789450E-1,5.221830368E0,3.382001400E0,5.358606339E0
3.189789450E-1,5.161745548E0,3.198682070E0,5.428708553E0
3.209898830E-1,5.349345684E0,3.087102890E0,5.558675766E0
3.229789450E-1,5.586055756E0,3.114023209E0,5.642759800E0
3.249789450E-1,5.725733280E0,3.151114225E0,5.693832874E0
3.269789450E-1,6.001909256E0,3.237133026E0,5.794226646E0
3.289789450E-1,6.279109955E0,3.363508463E0,5.954140186E0
3.309883200E-1,6.541226864E0,3.496386766E0,6.196691990E0
3.330195700E-1,6.788289547E0,3.598877668E0,6.560897827E0
3.349805080E-1,7.019674778E0,3.684542179E0,7.033187866E0
3.369883200E-1,7.342260361E0,3.761559010E0,7.800836086E0
3.389805080E-1,7.503045082E0,3.775703907E0,8.227673531E0
3.409789450E-1,7.570791721E0,3.778892994E0,8.393420219E0
3.429789450E-1,7.688270092E0,3.797127247E0,8.605469704E0
3.449789450E-1,7.746717453E0,3.815016747E0,8.672966957E0
3.469789450E-1,7.763151169E0,3.830799341E0,8.644044876E0
3.489789450E-1,7.727257252E0,3.817880154E0,8.551963806E0
3.509789450E-1,7.651648521E0,3.778356791E0,8.427972794E0
3.529789450E-1,7.550785542E0,3.702221155E0,8.300218582E0
3.549805080E-1,7.429332733E0,3.589214802E0,8.192632675E0
3.569805080E-1,7.323834419E0,3.486043930E0,8.126609802E0
3.589805080E-1,7.211718559E0,3.422884703E0,8.075278282E0
3.609805080E-1,7.123295784E0,3.380373240E0,8.040716171E0
3.629805080E-1,7.049334526E0,3.358547926E0,8.016677856E0
3.649789450E-1,6.987793446E0,3.362503290E0,7.998204231E0
3.669789450E-1,6.915996552E0,3.419015884E0,7.981138229E0
3.689789450E-1,6.836288452E0,3.501998663E0,7.954591274E0
3.709789450E-1,6.748564720E0,3.600256920E0,7.909686089E0
3.729836330E-1,6.605698109E0,3.758820057E0,7.840148449E0
3.749789450E-1,6.559499741E0,3.808533192E0,7.807357788E0
3.769789450E-1,6.458445549E0,3.898200989E0,7.708122730E0
3.789789450E-1,6.315358162E0,4.005145073E0,7.578146458E0
3.810070700E-1,6.118334293E0,4.134355545E0,7.485596180E0
3.829789450E-1,5.925189495E0,4.256526947E0,7.405323029E0
3.849851950E-1,5.770859241E0,4.345887661E0,7.296090126E0
3.869789450E-1,5.651915550E0,4.388648510E0,7.147515774E0
3.889789450E-1,5.547997475E0,4.363260269E0,6.940043926E0
3.909789450E-1,5.471938610E0,4.347352982E0,6.681335926E0
3.929789450E-1,5.395371914E0,4.359123230E0,6.410685539E0
3.949789450E-1,5.218316078E0,4.344585419E0,6.157819748E0
3.969789450E-1,5.049284935E0,4.328381538E0,5.876452923E0
3.989945700E-1,4.962710857E0,4.332355976E0,5.601311684E0
4.009867580E-1,4.932476997E0,4.363739491E0,5.335536003E0
4.029789450E-1,4.943834782E0,4.419044971E0,5.091844559E0
4.049789450E-1,4.983636379E0,4.471851349E0,4.877534866E0
4.069789450E-1,5.030150890E0,4.540411949E0,4.688986301E0
4.089789450E-1,5.097724438E0,4.620876312E0,4.540938377E0
4.109789450E-1,5.148424149E0,4.708897114E0,4.434425354E0
4.129789450E-1,5.177595139E0,4.804990292E0,4.364792347E0
4.149789450E-1,5.223113537E0,4.879000187E0,4.327165127E0
4.169789450E-1,5.239633560E0,4.943174362E0,4.332949638E0
4.189789450E-1,5.239604950E0,4.987869263E0,4.349891186E0
4.209789450E-1,5.241491795E0,5.015967369E0,4.366037369E0
4.229789450E-1,5.249057770E0,5.022192478E0,4.395591259E0
4.249789450E-1,5.248310566E0,5.026300907E0,4.418776989E0
4.269789450E-1,5.246663094E0,5.020468712E0,4.449058533E0
4.289789450E-1,5.245360851E0,5.010882378E0,4.479378700E0
4.309789450E-1,5.212522030E0,4.978560448E0,4.539253235E0
4.329789450E-1,5.152619362E0,4.938309193E0,4.600889683E0
4.349789450E-1,5.187737465E0,4.888366222E0,4.539119244E0
4.369789450E-1,5.211812973E0,4.842378616E0,4.479465485E0
4.389789450E-1,5.180171490E0,4.819154263E0,4.484895229E0
4.409883200E-1,5.118075371E0,4.793727875E0,4.533535480E0
4.429789450E-1,5.070114613E0,4.772841454E0,4.565732956E0
4.449789450E-1,5.035283566E0,4.760918140E0,4.582310677E0
4.469914450E-1,4.999150276E0,4.740299225E0,4.574256420E0
4.489789450E-1,4.941124439E0,4.717544556E0,4.569535255E0
4.509789450E-1,4.893346310E0,4.703016758E0,4.583651543E0
4.529789450E-1,4.856360435E0,4.666279793E0,4.625798702E0
4.549789450E-1,4.808122158E0,4.620186806E0,4.668042183E0
4.569789450E-1,4.742530346E0,4.568462372E0,4.721058846E0
4.589789450E-1,4.666193962E0,4.501568317E0,4.785243034E0
4.610070700E-1,4.566451073E0,4.412274361E0,4.858869553E0
4.629789450E-1,4.453167439E0,4.327787399E0,4.948039055E0
4.649789450E-1,4.351844788E0,4.226254463E0,5.046833515E0
4.669789450E-1,4.240303516E0,4.123150349E0,5.149132729E0
4.689789450E-1,4.129767895E0,4.022421837E0,5.251375198E0
4.709789450E-1,4.046143532E0,3.919355869E0,5.343101501E0
4.729789450E-1,3.983405828E0,3.799147844E0,5.410330772E0
4.749789450E-1,3.927840948E0,3.669123888E0,5.474466801E0
4.769820700E-1,3.891353607E0,3.549959421E0,5.547375202E0
4.789789450E-1,3.864548206E0,3.443408012E0,5.629208565E0
4.809789450E-1,3.849790096E0,3.334059954E0,5.732973576E0
4.829789450E-1,3.801819801E0,3.221206903E0,5.864252567E0
4.849789450E-1,3.733240366E0,3.115900278E0,6.045292377E0
4.869789450E-1,3.646723747E0,3.029029131E0,6.267646313E0
4.889789450E-1,3.524092436E0,2.970907450E0,6.519976139E0
4.909789450E-1,3.376408577E0,2.929392099E0,6.789036751E0
4.929789450E-1,3.213832855E0,2.898947239E0,7.078610420E0
4.949789450E-1,3.036259413E0,2.857987404E0,7.390546322E0
4.970242580E-1,2.879276514E0,2.858054399E0,7.718542576E0
4.989820700E-1,2.755476952E0,2.877437830E0,8.046921730E0
5.009789450E-1,2.655696392E0,2.900470018E0,8.355179787E0
5.029898830E-1,2.609038115E0,2.925513506E0,8.621386528E0
5.049789450E-1,2.578258276E0,2.962920427E0,8.834795952E0
5.070336330E-1,2.576275826E0,2.988356352E0,9.000398636E0
5.089789450E-1,2.584598064E0,2.993355513E0,9.105607986E0
5.109789450E-1,2.627895117E0,2.986153841E0,9.135229111E0
5.129789450E-1,2.710207462E0,2.962929964E0,9.134856224E0
5.150086330E-1,2.808915854E0,2.921653748E0,9.096156120E0
5.170305080E-1,2.923894882E0,2.879889488E0,9.023229599E0
5.189805080E-1,3.051180124E0,2.828011990E0,8.919579506E0
5.209789450E-1,3.184728861E0,2.767065287E0,8.802990913E0
5.229789450E-1,3.313220739E0,2.711088657E0,8.675437927E0
5.249789450E-1,3.434262037E0,2.681812286E0,8.566492081E0
5.269789450E-1,3.560379267E0,2.677703857E0,8.442184448E0
5.289789450E-1,3.657315493E0,2.686514616E0,8.317925453E0
5.309789450E-1,3.697001696E0,2.715359926E0,8.205159187E0
5.330148830E-1,3.680654049E0,2.787559509E0,8.108031273E0
5.349789450E-1,3.626545191E0,2.879257441E0,8.023382187E0
5.369789450E-1,3.553330660E0,3.000231743E0,7.923026562E0
5.389789450E-1,3.451720715E0,3.138491869E0,7.808985710E0
5.410055080E-1,3.314312458E0,3.275239229E0,7.685741901E0
5.429789450E-1,3.156697512E0,3.384568214E0,7.528241634E0
5.449789450E-1,2.973952770E0,3.468882322E0,7.337481499E0
5.469789450E-1,2.771728992E0,3.521525860E0,7.141003609E0
5.489789450E-1,2.552142382E0,3.530566454E0,6.910709858E0
5.509789450E-1,2.324099302E0,3.504479170E0,6.672812462E0
5.529851950E-1,2.101333141E0,3.477750301E0,6.458177090E0
5.549789450E-1,1.886602163E0,3.451883316E0,6.253089905E0
5.569789450E-1,1.694319129E0,3.428774595E0,6.052043915E0
5.589789450E-1,1.515012622E0,3.407217264E0,5.862346649E0
5.609789450E-1,1.359762907E0,3.408969641E0,5.683490276E0
5.629789450E-1,1.219874501E0,3.434223890E0,5.510878086E0
5.649851950E-1,1.118437052E0,3.486742973E0,5.372387886E0
5.669789450E-1,1.052194238E0,3.558645725E0,5.270442486E0
5.689789450E-1,1.027572274E0,3.639244080E0,5.192908764E0
5.709789450E-1,1.043172836E0,3.730242968E0,5.145177841E0
5.729789450E-1,1.078999639E0,3.825512886E0,5.119100094E0
5.749789450E-1,1.160948396E0,3.912901402E0,5.116189003E0
5.769789450E-1,1.262136936E0,3.955939531E0,5.132823944E0
5.789898830E-1,1.380707383E0,3.944207668E0,5.173122883E0
5.809914450E-1,1.527127147E0,3.890137196E0,5.242449284E0
5.829805080E-1,1.705859184E0,3.831278086E0,5.368585587E0
5.849789450E-1,1.907642484E0,3.784734964E0,5.555027008E0
5.869789450E-1,2.125715733E0,3.762554884E0,5.817326069E0
5.889789450E-1,2.340332270E0,3.756473541E0,6.129434109E0
5.909789450E-1,2.443254232E0,3.765102625E0,6.501052380E0
5.929789450E-1,2.216121197E0,3.726105690E0,6.980984211E0
5.949789450E-1,1.607352018E0,3.619851112E0,7.611933231E0
5.969789450E-1,7.641333938E-1,3.517024994E0,8.440163612E0
5.989789450E-1,-3.780923411E-2,3.507821560E0,9.365130424E0
6.009789450E-1,-5.081357956E-1,3.670387983E0,1.021204567E1
6.029789450E-1,-6.158173680E-1,3.962988138E0,1.084420109E1
6.049914450E-1,-6.133849025E-1,4.260807514E0,1.129944420E1
6.069805080E-1,-6.591620445E-1,4.547105789E0,1.167674255E1
6.089789450E-1,-7.749168873E-1,4.788604259E0,1.204028702E1
6.109789450E-1,-8.093934059E-1,4.961714745E0,1.236282444E1
6.129851950E-1,-8.977873325E-1,5.062951088E0,1.274111843E1
6.149789450E-1,-1.313679338E0,5.090350628E0,1.305901051E1
6.169789450E-1,-1.869095802E0,5.063832283E0,1.318702316E1
6.189789450E-1,-2.388110876E0,4.998394012E0,1.307502270E1
6.210305080E-1,-2.715484381E0,4.932630062E0,1.277578640E1
6.229789450E-1,-2.779036045E0,4.920879364E0,1.237793636E1
6.249789450E-1,-2.632319450E0,4.941469669E0,1.194384861E1
6.269789450E-1,-2.394393206E0,4.974969387E0,1.152236462E1
6.289945700E-1,-2.196325779E0,4.984354496E0,1.115616608E1
6.309789450E-1,-2.161456585E0,4.893278599E0,1.086794281E1
6.329789450E-1,-2.191412926E0,4.826720238E0,1.071003056E1
6.349789450E-1,-2.285131454E0,4.698352337E0,1.036724758E1
6.369789450E-1,-2.403625250E0,4.575366974E0,9.956910133E0
6.389789450E-1,-2.546501637E0,4.486322403E0,9.497750282E0
6.409789450E-1,-2.698638916E0,4.473039150E0,9.015730858E0
6.429789450E-1,-2.796456337E0,4.532405853E0,8.575504303E0
6.450336330E-1,-2.810917139E0,4.654462337E0,8.212342262E0
6.469805080E-1,-2.766605377E0,4.835406303E0,7.803842545E0
6.489789450E-1,-2.738641024E0,4.947828770E0,7.605928898E0
6.509789450E-1,-2.742251635E0,4.984000206E0,7.550258636E0
6.529789450E-1,-2.764718771E0,5.043146610E0,7.472102642E0
6.549805080E-1,-2.790346146E0,5.111333370E0,7.443256855E0
6.569805080E-1,-2.805104256E0,5.189547062E0,7.455639839E0
6.590117580E-1,-2.793698311E0,5.272003651E0,7.477494240E0
6.609898830E-1,-2.747327328E0,5.392067909E0,7.525655746E0
6.629805080E-1,-2.797576904E0,5.423824787E0,7.489053249E0
6.649789450E-1,-2.862986326E0,5.420357704E0,7.436792374E0
6.669789450E-1,-3.054656506E0,5.383343220E0,7.259363174E0
6.689789450E-1,-3.239833832E0,5.413347721E0,7.066170216E0
6.709805080E-1,-3.376063824E0,5.560006618E0,6.988435745E0
6.729805080E-1,-3.501510382E0,5.715169907E0,7.053462029E0
6.749805080E-1,-3.571047544E0,5.884890079E0,7.327837467E0
6.770211330E-1,-3.590105534E0,6.042706490E0,7.835216999E0
6.789805080E-1,-3.624582052E0,6.142765045E0,8.569576263E0
6.809805080E-1,-3.710170031E0,6.162301540E0,9.412286758E0
6.829805080E-1,-3.885971546E0,6.102734089E0,1.024851418E1
6.849805080E-1,-4.113793850E0,5.991796494E0,1.100763988E1
6.869805080E-1,-4.360214710E0,5.875495434E0,1.161229992E1
6.889805080E-1,-4.565694809E0,5.821530342E0,1.202755928E1
6.909805080E-1,-4.719881535E0,5.844035625E0,1.227796364E1
6.929805080E-1,-4.857892513E0,5.916130066E0,1.235452175E1
6.949805080E-1,-4.973532677E0,6.022528172E0,1.233226490E1
6.969805080E-1,-5.070746422E0,6.142400742E0,1.233918858E1
6.989805080E-1,-5.173362255E0,6.281168938E0,1.239134407E1
7.010273830E-1,-5.286024094E0,6.397527218E0,1.241920280E1
7.029805080E-1,-5.445832253E0,6.521345615E0,1.238351059E1
7.049805080E-1,-5.653533459E0,6.675139427E0,1.224369812E1
7.069805080E-1,-5.914281845E0,6.754502296E0,1.199790001E1
7.089805080E-1,-6.221179485E0,6.791899681E0,1.161451149E1
7.109789450E-1,-6.542721272E0,6.802463531E0,1.112836456E1
7.129805080E-1,-6.890282631E0,6.800605297E0,1.052415466E1
7.150398830E-1,-7.181992054E0,6.811858177E0,9.870718956E0
7.169805080E-1,-7.369630337E0,6.854484558E0,9.263645172E0
7.189992580E-1,-7.508657455E0,6.920842171E0,8.680408478E0
7.209820700E-1,-7.612077236E0,7.033599377E0,8.158041000E0
7.229789450E-1,-7.720936298E0,7.168498516E0,7.638624191E0
7.249789450E-1,-7.837371349E0,7.292125702E0,7.123707294E0
7.269805080E-1,-7.928236485E0,7.411960125E0,6.693632126E0
7.289805080E-1,-7.998395920E0,7.534801960E0,6.332462311E0
7.309805080E-1,-8.028945923E0,7.663916111E0,5.985973835E0
7.329805080E-1,-8.043282509E0,7.812835217E0,5.702854633E0
7.349805080E-1,-7.993530750E0,7.971139908E0,5.513233185E0
7.369805080E-1,-7.898605347E0,8.106575012E0,5.354699135E0
7.389805080E-1,-7.809569836E0,8.192632675E0,5.214944839E0
7.409805080E-1,-7.728310585E0,8.225634575E0,5.109676838E0
7.429805080E-1,-7.642004490E0,8.228172302E0,4.982056141E0
7.449805080E-1,-7.517802715E0,8.152008057E0,4.871415138E0
7.469805080E-1,-7.323039532E0,8.061296463E0,4.830110550E0
7.489805080E-1,-7.063862324E0,7.973036766E0,4.818723679E0
7.509805080E-1,-6.737705231E0,7.888444424E0,4.831000805E0
7.529805080E-1,-6.340966702E0,7.857703209E0,4.866052151E0
7.549805080E-1,-5.925285339E0,7.826453686E0,4.901600838E0
7.569805080E-1,-5.523758411E0,7.786959171E0,4.910833359E0
7.589805080E-1,-5.157004833E0,7.743422985E0,4.920572758E0
7.609805080E-1,-4.849627972E0,7.676653385E0,4.913677692E0
7.629805080E-1,-4.596148968E0,7.573051453E0,4.898488998E0
7.649805080E-1,-4.435574532E0,7.441571236E0,4.904924393E0
7.669805080E-1,-4.350714207E0,7.317302704E0,4.961350918E0
7.689805080E-1,-4.341377258E0,7.203224182E0,5.050568581E0
7.709789450E-1,-4.392795086E0,7.123382092E0,5.152053833E0
7.729789450E-1,-4.491436005E0,7.065825462E0,5.269599438E0
7.749789450E-1,-4.608340263E0,7.040092945E0,5.374024868E0
7.769805080E-1,-4.746542931E0,7.013584137E0,5.445899010E0
7.789805080E-1,-4.885177135E0,6.992007256E0,5.498226643E0
7.810305080E-1,-4.989947319E0,6.980419636E0,5.526746750E0
7.829851950E-1,-5.081903934E0,6.981559277E0,5.522283554E0
7.849805080E-1,-5.205684185E0,6.988722801E0,5.467609882E0
7.869805080E-1,-5.337719440E0,6.985006809E0,5.407544136E0
7.889930080E-1,-5.465847492E0,7.003202438E0,5.382107735E0
7.909945700E-1,-5.580941200E0,7.027412891E0,5.398177624E0
7.929898830E-1,-5.661635876E0,7.063096046E0,5.428297043E0
7.949805080E-1,-5.718924522E0,7.094699860E0,5.452689171E0
7.969805080E-1,-5.757202625E0,7.097812176E0,5.483603001E0
7.989805080E-1,-5.795404911E0,7.065882683E0,5.509402752E0
8.009805080E-1,-5.839812279E0,7.010002613E0,5.448570728E0
8.029805080E-1,-5.902339458E0,6.915421963E0,5.244077682E0
8.049805080E-1,-5.953479290E0,6.833166599E0,4.968370438E0
8.069789450E-1,-5.997599602E0,6.790022850E0,4.748429775E0
8.089789450E-1,-6.029663086E0,6.757538795E0,4.674238205E0
8.109789450E-1,-6.081665039E0,6.680100441E0,4.545545101E0
8.129789450E-1,-6.161219597E0,6.564958572E0,4.277222157E0
8.149789450E-1,-6.240755081E0,6.460245609E0,3.991737604E0
8.169789450E-1,-6.304823875E0,6.399193287E0,3.914682627E0
8.189789450E-1,-6.382290363E0,6.322282314E0,3.831900597E0
8.209851950E-1,-6.471517563E0,6.227491379E0,3.654269934E0
8.229867580E-1,-6.544569492E0,6.142497063E0,3.422444344E0
8.249789450E-1,-6.555467606E0,6.059810638E0,3.235677481E0
8.269805080E-1,-6.530855656E0,5.994190216E0,3.067298174E0
8.289805080E-1,-6.523050308E0,5.956458092E0,2.935693502E0
8.309805080E-1,-6.526076794E0,5.931759357E0,2.857910633E0
8.329805080E-1,-6.485442162E0,5.918992996E0,2.847098351E0
8.349805080E-1,-6.387251377E0,5.912040710E0,2.837109804E0
8.369805080E-1,-6.245753765E0,5.927306175E0,2.857862711E0
8.389789450E-1,-6.089269161E0,5.968831062E0,2.943948746E0
8.409789450E-1,-5.927650928E0,6.023878574E0,3.068054438E0
8.429789450E-1,-5.755784988E0,6.092994213E0,3.188463926E0
8.449789450E-1,-5.608809948E0,6.168641567E0,3.345810890E0
8.469789450E-1,-5.473106861E0,6.233371258E0,3.436531782E0
8.489789450E-1,-5.358223438E0,6.296702862E0,3.413221836E0
8.509789450E-1,-5.271218300E0,6.375136852E0,3.368622541E0
8.529789450E-1,-5.166121960E0,6.469611645E0,3.379588127E0
8.549789450E-1,-5.034814358E0,6.547691345E0,3.349564791E0
8.569789450E-1,-4.910622597E0,6.588584423E0,3.206602335E0
8.589789450E-1,-4.809405327E0,6.617410660E0,3.000624180E0
8.610258200E-1,-4.711032391E0,6.649722576E0,2.810802460E0
8.629961330E-1,-4.609403133E0,6.683653355E0,2.643667936E0
8.649805080E-1,-4.518500328E0,6.709146976E0,2.431637526E0
8.669805080E-1,-4.430278778E0,6.714404583E0,2.153804779E0
8.689805080E-1,-4.341760159E0,6.701858997E0,1.853696346E0
8.709867580E-1,-4.266266346E0,6.682743549E0,1.518594265E0
8.729805080E-1,-4.214282990E0,6.646495819E0,1.153344393E0
8.749805080E-1,-4.202570915E0,6.603007317E0,8.344559073E-1
8.769805080E-1,-4.227882385E0,6.574516296E0,5.926607251E-1
8.789805080E-1,-4.306795597E0,6.566826344E0,4.123964608E-1
8.809851950E-1,-4.444117069E0,6.548543930E0,2.542354763E-1
8.829805080E-1,-4.631238461E0,6.500267029E0,8.074206114E-2
8.849805080E-1,-4.834544659E0,6.468539238E0,-8.354806155E-2
8.869805080E-1,-5.050587177E0,6.468673229E0,-1.519743502E-1
8.889805080E-1,-5.258567333E0,6.494559765E0,-8.709148318E-2
8.909883200E-1,-5.444673538E0,6.532895565E0,6.666415185E-2
8.929805080E-1,-5.624238491E0,6.558915615E0,2.697690725E-1
8.949805080E-1,-5.776136398E0,6.571939945E0,3.907624483E-1
8.969805080E-1,-5.905566216E0,6.590758324E0,4.765227735E-1
8.989805080E-1,-6.022480488E0,6.642894745E0,6.383803487E-1
9.009930080E-1,-6.116333008E0,6.702491283E0,9.063681364E-1
9.029867580E-1,-6.208193779E0,6.757912159E0,1.224720359E0
9.049805080E-1,-6.303770542E0,6.803746700E0,1.486808896E0
9.069805080E-1,-6.362648487E0,6.826970100E0,1.661575913E0
9.089805080E-1,-6.407113552E0,6.859464169E0,1.814144015E0
9.109867580E-1,-6.450429916E0,6.926272392E0,2.045462370E0
9.129789450E-1,-6.466920853E0,7.003345966E0,2.316945553E0
9.149789450E-1,-6.483220577E0,7.078198910E0,2.560416698E0
9.169789450E-1,-6.495881081E0,7.113690376E0,2.748533964E0
9.189789450E-1,-6.497077942E0,7.125230312E0,2.906244755E0
9.209789450E-1,-6.487846375E0,7.127001762E0,3.048613548E0
9.229789450E-1,-6.494243145E0,7.118728161E0,3.158967257E0
9.249789450E-1,-6.479657650E0,7.088350296E0,3.237161875E0
9.269789450E-1,-6.441044331E0,7.034241199E0,3.263785362E0
9.289789450E-1,-6.378383160E0,6.980093956E0,3.227719069E0
9.309867580E-1,-6.294260979E0,6.919300079E0,3.127842426E0
9.329976950E-1,-6.190610886E0,6.846411228E0,2.998967648E0
9.349805080E-1,-6.074146748E0,6.759846687E0,2.891927481E0
9.369805080E-1,-5.919558525E0,6.680406570E0,2.819153309E0
9.389805080E-1,-5.728654385E0,6.625550747E0,2.809279442E0
9.410258200E-1,-5.508387566E0,6.562890053E0,2.848716974E0
9.429789450E-1,-5.303501606E0,6.522983551E0,2.918780804E0
9.449789450E-1,-5.137238979E0,6.484254837E0,2.964184523E0
9.469789450E-1,-5.027182102E0,6.425778866E0,2.998478889E0
9.489789450E-1,-4.965133667E0,6.365722656E0,3.049820423E0
9.509851950E-1,-4.909980774E0,6.324925423E0,3.079757214E0
9.529789450E-1,-4.836977005E0,6.328114510E0,3.090761185E0
9.549789450E-1,-4.753189564E0,6.307677746E0,3.075016737E0
9.569789450E-1,-4.704596519E0,6.280057907E0,3.049456358E0
9.589789450E-1,-4.600630760E0,6.231024742E0,2.967584133E0
9.609867580E-1,-4.511298180E0,6.203778744E0,2.867085218E0
9.629789450E-1,-4.413969040E0,6.169560909E0,2.738919020E0
9.649789450E-1,-4.331264019E0,6.158183575E0,2.602487564E0
9.669789450E-1,-4.198520184E0,6.140112400E0,2.466774702E0
9.689789450E-1,-4.005930424E0,6.107646942E0,2.290226221E0
9.709851950E-1,-3.986144781E0,6.125363827E0,2.106552839E0
9.729789450E-1,-4.069013119E0,6.148491859E0,1.949129105E0
9.749789450E-1,-4.030131340E0,6.120125294E0,1.420862913E0
9.769805080E-1,-3.667572260E0,6.158030510E0,4.677121043E-1
9.789805080E-1,-3.003229141E0,6.257648468E0,-8.714606762E-1
9.809805080E-1,-1.846504092E0,6.630396843E0,-2.995156050E0
9.829805080E-1,-1.636992335E0,6.767708778E0,-3.383083582E0
9.850258200E-1,-1.784475088E0,6.994861126E0,-2.883011580E0
9.869805080E-1,-2.177392244E0,6.943606377E0,-1.716824532E0
9.889805080E-1,-2.360807419E0,6.878732681E0,-1.130388737E0
9.909851950E-1,-2.700870037E0,6.710631371E0,-2.182554305E-1
9.929789450E-1,-3.098767281E0,6.559796333E0,3.220775723E-1
9.949805080E-1,-3.604279041E0,6.482195854E0,6.397594213E-1
9.969805080E-1,-4.107032776E0,6.483019352E0,8.524794579E-1
9.989805080E-1,-4.532789230E0,6.552891731E0,1.005507231E0
1.000986758E0,-4.860966682E0,6.645844460E0,1.157644391E0
1.002980508E0,-5.129806995E0,6.732073784E0,1.353432655E0
1.004978945E0,-5.363691807E0,6.826693058E0,1.624829769E0
1.006978945E0,-5.573289394E0,6.927986145E0,1.987752438E0
1.008978945E0,-5.740644455E0,7.022701263E0,2.423114061E0
1.010978945E0,-5.849283695E0,7.138580799E0,2.909855127E0
1.013005508E0,-5.948078156E0,7.279867172E0,3.584570169E0
1.014978945E0,-5.954255581E0,7.324993134E0,3.770398378E0
1.016978945E0,-5.932687759E0,7.412515640E0,4.063123226E0
1.018978945E0,-5.904637814E0,7.469583511E0,4.227825165E0
1.020997695E0,-5.836240292E0,7.530272007E0,4.266093731E0
1.023022695E0,-5.739121437E0,7.588671207E0,4.213680267E0
1.024978945E0,-5.608302593E0,7.646907806E0,4.105682850E0
1.026980508E0,-5.477770329E0,7.684515953E0,3.989736080E0
1.028980508E0,-5.357926846E0,7.706896782E0,3.878300190E0
1.030986758E0,-5.258500099E0,7.706159592E0,3.767678738E0
1.033027383E0,-5.200761795E0,7.685942650E0,3.661050558E0
1.034980508E0,-5.160854816E0,7.641659737E0,3.542575598E0
1.036978945E0,-5.134231567E0,7.610956669E0,3.424216032E0
1.038978945E0,-5.137774944E0,7.608236790E0,3.306794643E0
1.040978945E0,-5.170307159E0,7.621854782E0,3.209666729E0
1.042978945E0,-5.205990791E0,7.651418686E0,3.127277613E0
1.044978945E0,-5.256450653E0,7.707127094E0,3.065737009E0
1.046978945E0,-5.331696033E0,7.773934364E0,3.034162283E0
1.048991445E0,-5.419581890E0,7.846584320E0,3.025782585E0
1.050986758E0,-5.507908821E0,7.921513081E0,3.035512447E0
1.052978945E0,-5.588650703E0,7.993166924E0,3.064147234E0
1.054978945E0,-5.640662670E0,8.050637245E0,3.116101265E0
1.056978945E0,-5.675924301E0,8.108136177E0,3.171340227E0
1.058978945E0,-5.678730488E0,8.156327248E0,3.204294205E0
1.060980508E0,-5.651043892E0,8.218805313E0,3.187572956E0
1.062980508E0,-5.606434822E0,8.304498672E0,3.132247686E0
1.064980508E0,-5.525175571E0,8.375961304E0,3.054579973E0
1.066980508E0,-5.449490070E0,8.446944237E0,2.979153156E0
1.068980508E0,-5.382625103E0,8.494570732E0,2.918857336E0
1.070980508E0,-5.315443993E0,8.543125153E0,2.881843090E0
1.072980508E0,-5.266247749E0,8.568273544E0,2.895489931E0
1.074980508E0,-5.251719952E0,8.581460953E0,2.948306084E0
1.076980508E0,-5.257571220E0,8.599340439E0,3.026175261E0
1.078994570E0,-5.281905651E0,8.626376152E0,3.102521420E0
1.081002383E0,-5.313892365E0,8.631384850E0,3.172796249E0
1.082978945E0,-5.377501488E0,8.648698807E0,3.263641596E0
1.084978945E0,-5.463060379E0,8.670352936E0,3.384223223E0
1.086978945E0,-5.558627605E0,8.680034637E0,3.573010683E0
1.088978945E0,-5.651579857E0,8.698258400E0,3.843909979E0
1.090978945E0,-5.753822327E0,8.705183983E0,4.193463326E0
1.092978945E0,-5.850758553E0,8.687762260E0,4.572273731E0
1.094978945E0,-5.943624973E0,8.667517662E0,4.959962368E0
1.096978945E0,-6.038415909E0,8.669978142E0,5.381227016E0
1.098980508E0,-6.136310101E0,8.704532623E0,5.782389641E0
1.101025820E0,-6.219369411E0,8.701103210E0,6.043166161E0
1.102980508E0,-6.283831596E0,8.673254013E0,6.110960484E0
1.104980508E0,-6.347517014E0,8.639065742E0,6.114800930E0
1.106980508E0,-6.429063320E0,8.618235588E0,6.084844112E0
1.108980508E0,-6.482482910E0,8.606896400E0,5.995138645E0
1.110980508E0,-6.453733444E0,8.594044685E0,5.815046787E0
1.112980508E0,-6.314065456E0,8.568321228E0,5.559173107E0
1.114980508E0,-6.078246117E0,8.531134605E0,5.258155346E0
1.116980508E0,-5.759788513E0,8.499004364E0,4.938807011E0
1.118978945E0,-5.423929691E0,8.483498573E0,4.623739719E0
1.120978945E0,-5.080582142E0,8.505277634E0,4.372051716E0
1.122978945E0,-4.719794750E0,8.525503159E0,4.200014114E0
1.124980508E0,-4.382117271E0,8.532896042E0,4.141442299E0
1.126980508E0,-4.103192329E0,8.536880493E0,4.166275024E0
1.128980508E0,-3.858275175E0,8.537359238E0,4.237995625E0
1.130980508E0,-3.660418510E0,8.553123474E0,4.298061371E0
1.132980508E0,-3.439586639E0,8.583232880E0,4.295886993E0
1.134980508E0,-2.864145279E0,8.751467705E0,4.068581581E0
1.136980508E0,-2.549116135E0,8.846115112E0,3.939467192E0
1.138980508E0,-2.693611145E0,8.845176697E0,4.061408997E0
1.140980508E0,-2.845365047E0,8.862253189E0,4.181636333E0
1.142978945E0,-2.946180105E0,8.923065186E0,4.204467297E0
1.144994570E0,-2.805726528E0,9.073641777E0,4.231818199E0
1.146980508E0,-2.038471222E0,9.401177406E0,4.148902416E0
1.148993008E0,-1.576265693E0,9.704111099E0,4.263958454E0
1.150991445E0,-1.284019947E0,9.976082802E0,4.627819538E0
1.152980508E0,-1.104837894E0,1.024816036E1,5.093089581E0
1.154983633E0,-1.066176295E0,1.052793694E1,5.454489231E0
1.156980508E0,-1.044312477E0,1.087718391E1,5.604835987E0
1.158980508E0,-1.274711251E0,1.106466866E1,5.228496075E0
1.160980508E0,-1.647718430E0,1.116165352E1,4.428516388E0
1.162980508E0,-2.163323879E0,1.120307350E1,3.396022081E0
1.165002383E0,-2.679312706E0,1.115727615E1,2.557218075E0
1.166978945E0,-3.046247959E0,1.104752636E1,2.700372219E0
1.168980508E0,-3.318296671E0,1.093916512E1,3.218534946E0
1.170980508E0,-3.582913399E0,1.082683849E1,3.733575583E0
1.172980508E0,-3.899455547E0,1.076835346E1,3.656922817E0
1.174980508E0,-4.256105423E0,1.073229694E1,3.364897251E0
1.177019570E0,-4.592940807E0,1.066916561E1,3.539061069E0
1.178980508E0,-5.007319927E0,1.063468933E1,3.812948227E0
1.181027383E0,-5.381638527E0,1.064644051E1,3.841276407E0
1.182980508E0,-5.658849239E0,1.066914654E1,3.554336071E0
1.184980508E0,-5.881499767E0,1.065166855E1,3.015037298E0
1.186980508E0,-6.119608402E0,1.055379391E1,1.970839858E0
1.188980508E0,-6.713255405E0,1.045647430E1,-2.952816784E-1
1.190980508E0,-7.298206329E0,1.037690163E1,-2.018704653E0
1.192980508E0,-7.495919704E0,1.024146557E1,-1.397485971E0
1.194980508E0,-7.231724739E0,1.010806084E1,1.351478994E-1
1.196980508E0,-6.734467983E0,9.998435974E0,1.541741490E0
1.198980508E0,-6.308414936E0,9.962780952E0,2.609699011E0
1.200980508E0,-5.964062214E0,1.001672649E1,3.195732594E0
1.202980508E0,-5.612717152E0,1.011001492E1,3.346480846E0
1.204980508E0,-5.255962372E0,1.018356419E1,3.005297899E0
1.206980508E0,-4.986882687E0,1.022419930E1,2.352648020E0
1.208980508E0,-4.835339546E0,1.022917843E1,1.592919827E0
1.210980508E0,-4.787838459E0,1.022421741E1,9.371097088E-1
1.212980508E0,-4.804808617E0,1.020207596E1,4.123581648E-1
1.214980508E0,-4.868781567E0,1.015901947E1,8.295430243E-2
1.216980508E0,-4.961197853E0,1.011851883E1,-4.522168264E-2
1.218978945E0,-5.035743713E0,1.008823776E1,2.414312959E-2
1.220978945E0,-5.050635815E0,1.007455158E1,2.099619210E-1
1.222978945E0,-4.988003254E0,1.008562183E1,4.579916298E-1
1.224989883E0,-4.859798431E0,1.013276958E1,7.234798670E-1
1.226980508E0,-4.676172733E0,1.018582439E1,9.373299479E-1
1.228980508E0,-4.418604374E0,1.025283432E1,1.057662606E0
1.230980508E0,-4.149161339E0,1.031808949E1,1.087714553E0
1.232980508E0,-3.891056538E0,1.037336731E1,1.015208602E0
1.234980508E0,-3.681027651E0,1.040184879E1,8.702540398E-1
1.236980508E0,-3.488562584E0,1.041987228E1,6.713054180E-1
1.238980508E0,-3.324626684E0,1.043794346E1,4.617266059E-1
1.240978945E0,-3.201076508E0,1.044618988E1,3.185150027E-1
1.242978945E0,-3.118869066E0,1.045645618E1,2.144917399E-1
1.244980508E0,-3.045481920E0,1.045604420E1,1.166167781E-1
1.246980508E0,-2.983999014E0,1.045950127E1,2.475604601E-2
1.248980508E0,-2.931518078E0,1.047864532E1,1.030464470E-2
1.250980508E0,-2.878299713E0,1.048767567E1,5.562209338E-2
1.252980508E0,-2.840528727E0,1.051448154E1,1.487182379E-1
1.254980508E0,-2.816443205E0,1.056616783E1,2.894493937E-1
1.256980508E0,-2.819804668E0,1.063059044E1,4.529733956E-1
1.258980508E0,-2.811367512E0,1.071820927E1,5.988186002E-1
1.260991445E0,-2.797337294E0,1.082799721E1,7.209994793E-1
1.262993008E0,-2.767179966E0,1.094029522E1,7.775887847E-1
1.264985195E0,-2.737530231E0,1.104347515E1,7.759224772E-1
1.266978945E0,-2.704700947E0,1.115254593E1,7.148320079E-1
1.268980508E0,-2.689579010E0,1.125824547E1,6.315903664E-1
1.270980508E0,-2.689857006E0,1.134487724E1,5.290610790E-1
1.272980508E0,-2.703944445E0,1.139842129E1,4.134977758E-1
1.274986758E0,-2.733287573E0,1.142347336E1,3.002807796E-1
1.276980508E0,-2.776823997E0,1.142603016E1,1.888642162E-1
1.278978945E0,-2.813493490E0,1.141821575E1,9.382397681E-2
1.280978945E0,-2.828481197E0,1.140628338E1,5.202121288E-2
1.282999258E0,-2.828893185E0,1.136380100E1,-1.751597971E-2
1.285019570E0,-2.760073900E0,1.128589344E1,-1.168178841E-1
1.286980508E0,-2.657199860E0,1.120542908E1,-1.793640107E-1
1.288980508E0,-2.587404251E0,1.116295624E1,-2.166082114E-1
1.290980508E0,-2.427787542E0,1.107817268E1,-2.968905866E-1
1.292980508E0,-2.248011827E0,1.097485733E1,-3.736486733E-1
1.294978945E0,-2.081078291E0,1.086592197E1,-4.257369339E-1
1.296978945E0,-1.956196904E0,1.075602722E1,-4.707958400E-1
1.298980508E0,-1.845565557E0,1.064632511E1,-4.825465679E-1
1.300985195E0,-1.732310295E0,1.048897839E1,-4.520827234E-1
1.302980508E0,-1.682788610E0,1.039367008E1,-3.998029530E-1
1.304986758E0,-1.661077976E0,1.035026741E1,-3.597335815E-1
1.306980508E0,-1.639367342E0,1.027910233E1,-2.829563320E-1
1.308993008E0,-1.609583497E0,1.021636486E1,-1.852729023E-1
1.311002383E0,-1.499000072E0,1.019408035E1,-1.777359545E-1
1.312991445E0,-1.398127556E0,1.020792770E1,-1.996476948E-1
1.314986758E0,-1.407014847E0,1.022203445E1,-2.302360088E-1
1.316978945E0,-1.402408481E0,1.022107697E1,-2.484032065E-1
1.318978945E0,-1.373802543E0,1.022517586E1,-2.560359240E-1
1.320978945E0,-1.342170238E0,1.020773602E1,-2.303796709E-1
1.322978945E0,-1.340015531E0,1.015342712E1,-1.718270779E-1
1.324985195E0,-1.379797578E0,1.008312321E1,-7.857769728E-2
1.326980508E0,-1.426656842E0,9.998818398E0,4.930140451E-2
1.328980508E0,-1.461459041E0,9.921620369E0,2.295369059E-1
1.330980508E0,-1.474186659E0,9.840935707E0,4.282077551E-1
1.332982070E0,-1.427116632E0,9.746708870E0,6.167750955E-1
1.334986758E0,-1.371159315E0,9.636393547E0,7.844553590E-1
1.336980508E0,-1.326569676E0,9.540050507E0,9.267476201E-1
1.338980508E0,-1.315489411E0,9.467238426E0,1.015467048E0
1.340986758E0,-1.311486244E0,9.423098564E0,1.039830565E0
1.342978945E0,-1.316629052E0,9.382474899E0,1.005976558E0
1.344978945E0,-1.328801155E0,9.339129448E0,9.367170334E-1
1.346980508E0,-1.380295515E0,9.319544792E0,8.614433408E-1
1.348980508E0,-1.444057941E0,9.286753654E0,7.833253145E-1
1.350980508E0,-1.504410982E0,9.220310211E0,7.104553580E-1
1.352980508E0,-1.542756557E0,9.157821655E0,6.523050666E-1
1.354982070E0,-1.562953949E0,9.087048531E0,5.916455984E-1
1.356982070E0,-1.567100883E0,8.958834648E0,5.094861388E-1
1.358980508E0,-1.562906146E0,8.906967163E0,4.765897691E-1
1.360980508E0,-1.554315805E0,8.789373398E0,4.087668359E-1
1.362986758E0,-1.536828518E0,8.658267021E0,3.434338570E-1
1.364980508E0,-1.524895787E0,8.523453712E0,2.636207640E-1
1.366980508E0,-1.525508642E0,8.386055946E0,1.747384220E-1
1.368980508E0,-1.530316234E0,8.257199287E0,8.330863714E-2
1.370994570E0,-1.541722298E0,8.133065224E0,-2.469858527E-2
1.372980508E0,-1.546587229E0,8.013756752E0,-1.172201186E-1
1.374978945E0,-1.528669119E0,7.908469677E0,-1.969374567E-1
1.376978945E0,-1.518958092E0,7.807654858E0,-2.523967326E-1
1.378978945E0,-1.491750479E0,7.709578514E0,-2.852930725E-1
1.380978945E0,-1.439595222E0,7.617823124E0,-3.071569204E-1
1.382978945E0,-1.386980176E0,7.548898697E0,-3.027037084E-1
1.384978945E0,-1.318132520E0,7.484887123E0,-2.742318809E-1
1.386978945E0,-1.223561525E0,7.449252129E0,-2.362502515E-1
1.388978945E0,-1.122717738E0,7.446101665E0,-1.761940867E-1
1.390978945E0,-1.000862479E0,7.453714848E0,-9.826761484E-2
1.392985195E0,-8.984002471E-1,7.485816479E0,-6.358999759E-3
1.394978945E0,-8.211920261E-1,7.527542591E0,9.854534268E-2
1.396980508E0,-7.663648129E-1,7.572869778E0,2.122794986E-1
1.398980508E0,-7.319744825E-1,7.599435329E0,3.133722842E-1
1.400980508E0,-7.064523101E-1,7.602692127E0,4.134882092E-1
1.402980508E0,-6.867623925E-1,7.596754074E0,4.948144555E-1
1.404980508E0,-6.828837991E-1,7.581201077E0,5.472091436E-1
1.406980508E0,-6.756150126E-1,7.561817646E0,5.768110752E-1
1.408986758E0,-6.777027845E-1,7.532589436E0,5.926415324E-1
1.410978945E0,-7.126676440E-1,7.494665623E0,6.165931225E-1
1.412978945E0,-7.535797954E-1,7.466260910E0,6.338505149E-1
1.414978945E0,-8.048444390E-1,7.435739040E0,6.481678486E-1
1.416978945E0,-8.476431966E-1,7.402421474E0,6.315903664E-1
1.418978945E0,-8.916198611E-1,7.384493828E0,6.122452617E-1
1.421021133E0,-9.260676503E-1,7.362064838E0,5.890598297E-1
1.422978945E0,-9.402796030E-1,7.353972435E0,5.595153570E-1
1.424988320E0,-9.225816727E-1,7.351444244E0,5.311009288E-1
1.426978945E0,-8.859887123E-1,7.325979710E0,4.876222908E-1
1.428978945E0,-8.148521781E-1,7.261900902E0,4.534330666E-1
1.430978945E0,-6.185372472E-1,7.106794834E0,4.161218405E-1
1.432978945E0,-8.095274866E-2,6.741995811E0,3.937887251E-1
1.434978945E0,3.712066114E-1,6.358051777E0,3.923521936E-1
1.436978945E0,3.794043660E-1,6.187086582E0,3.738689721E-1
1.438978945E0,1.640028208E-1,6.137918949E0,3.747021556E-1
1.440978945E0,-1.590803415E-1,6.164830208E0,4.053287804E-1
1.442978945E0,-5.024854541E-1,6.243752480E0,4.334654212E-1
1.444978945E0,-8.657433391E-1,6.379503250E0,4.304583073E-1
1.446978945E0,-1.195013046E0,6.538277149E0,3.877266049E-1
1.448978945E0,-1.449459195E0,6.704597950E0,3.213306069E-1
1.450978945E0,-1.592603803E0,6.864185810E0,2.528851628E-1
1.452978945E0,-1.604890823E0,7.015356064E0,2.138979733E-1
1.454978945E0,-1.498281837E0,7.154975891E0,2.125189155E-1
1.456978945E0,-1.252406836E0,7.290851593E0,2.850728035E-1
1.458980508E0,-9.152650237E-1,7.406606674E0,4.044764340E-1
1.460980508E0,-5.617371798E-1,7.483106136E0,5.619957447E-1
1.462980508E0,-2.176808119E-1,7.520532131E0,7.567113638E-1
1.464980508E0,6.571605057E-2,7.538594246E0,9.951451421E-1
1.466980508E0,2.618969381E-1,7.522179604E0,1.252483487E0
1.468980508E0,3.785328567E-1,7.495556355E0,1.482824802E0
1.470980508E0,4.019002616E-1,7.451952457E0,1.663730741E0
1.472980508E0,3.536810577E-1,7.398906708E0,1.764737248E0
1.474980508E0,2.242696732E-1,7.343265533E0,1.802862644E0
1.476980508E0,6.838797778E-2,7.292604446E0,1.775693178E0
1.478980508E0,-1.287218630E-1,7.238342285E0,1.686571360E0
1.480980508E0,-3.338762224E-1,7.198550224E0,1.566736817E0
1.482980508E0,-5.212177038E-1,7.169839382E0,1.442468286E0
1.484980508E0,-6.737666726E-1,7.154161930E0,1.343415260E0
1.486978945E0,-8.029195070E-1,7.163298130E0,1.298308611E0
1.488978945E0,-9.143838882E-1,7.191483021E0,1.321216345E0
1.490980508E0,-9.838253856E-1,7.248656273E0,1.428035975E0
1.492980508E0,-1.033854604E0,7.347249508E0,1.612523556E0
1.494980508E0,-1.059644938E0,7.486400604E0,1.837214589E0
1.496978945E0,-1.071845770E0,7.659080029E0,2.063840151E0
1.498978945E0,-1.065314412E0,7.826856136E0,2.260566950E0
1.500991445E0,-1.037848115E0,8.022586823E0,2.400532007E0
1.503002383E0,-1.010247827E0,8.236159325E0,2.480163097E0
1.504978945E0,-1.000527382E0,8.437904358E0,2.517541409E0
1.506978945E0,-9.870814681E-1,8.603487015E0,2.531293631E0
1.508978945E0,-9.845436215E-1,8.718590736E0,2.518776894E0
1.510978945E0,-1.007116199E0,8.817500114E0,2.477768898E0
1.512978945E0,-1.053515792E0,8.853987694E0,2.398741245E0
1.514978945E0,-1.120438457E0,8.854236603E0,2.322404385E0
1.516978945E0,-1.190818429E0,8.819358826E0,2.252962828E0
1.518980508E0,-1.267816067E0,8.737839699E0,2.211495399E0
1.520980508E0,-1.338665128E0,8.621443748E0,2.195904255E0
1.522980508E0,-1.392113447E0,8.489360809E0,2.192696095E0
1.524980508E0,-1.439585567E0,8.337931633E0,2.188645124E0
1.526993008E0,-1.480219960E0,8.170635223E0,2.168830872E0
1.528980508E0,-1.484309316E0,7.991979599E0,2.134306431E0
1.530980508E0,-1.482240677E0,7.814683914E0,2.073110580E0
1.533025820E0,-1.481723547E0,7.623827457E0,1.999809742E0
1.534980508E0,-1.483907104E0,7.451234341E0,1.895451188E0
1.536978945E0,-1.486339569E0,7.275059700E0,1.778355598E0
1.538978945E0,-1.514361382E0,7.122712135E0,1.651185155E0
1.540980508E0,-1.543762088E0,6.995866776E0,1.537106156E0
1.542980508E0,-1.584942341E0,6.869251728E0,1.429558754E0
1.544980508E0,-1.641301870E0,6.770112991E0,1.357320786E0
1.546980508E0,-1.713022590E0,6.678529739E0,1.303968430E0
1.548983633E0,-1.780002832E0,6.613876820E0,1.256074786E0
1.550980508E0,-1.850277305E0,6.578681946E0,1.212327957E0
1.552980508E0,-1.938144565E0,6.578030586E0,1.170764685E0
1.554978945E0,-2.029057264E0,6.604031563E0,1.132888317E0
1.556978945E0,-2.110498190E0,6.663695335E0,1.107950330E0
1.558978945E0,-2.184124708E0,6.751802444E0,1.107299089E0
1.560980508E0,-2.257148027E0,6.879470348E0,1.131528497E0
1.562980508E0,-2.322136164E0,7.024061203E0,1.180532932E0
1.565019570E0,-2.383102179E0,7.192124367E0,1.239698529E0
1.566994570E0,-2.437891006E0,7.380471706E0,1.281817317E0
1.568986758E0,-2.485736847E0,7.583011150E0,1.308641911E0
1.570980508E0,-2.533841133E0,7.795415401E0,1.356593013E0
1.572978945E0,-2.555839062E0,8.019713402E0,1.430822849E0
1.574978945E0,-2.573766947E0,8.260665894E0,1.534932256E0
1.576978945E0,-2.554488659E0,8.507758141E0,1.655705452E0
1.578991445E0,-2.501653671E0,8.765995979E0,1.786419153E0
1.580982070E0,-2.394498587E0,9.038140297E0,1.926345944E0
1.582978945E0,-2.260231733E0,9.314469337E0,2.079431057E0
1.584978945E0,-2.102597475E0,9.585712433E0,2.237640142E0
1.586978945E0,-1.933269978E0,9.850770950E0,2.383351088E0
1.588978945E0,-1.758790135E0,1.009603214E1,2.533324003E0
1.590978945E0,-1.590554357E0,1.031999588E1,2.689071417E0
1.592978945E0,-1.435247302E0,1.051714325E1,2.844532013E0
1.594978945E0,-1.306965947E0,1.069442940E1,3.007548332E0
1.596980508E0,-1.212845087E0,1.085030174E1,3.178130388E0
1.599008633E0,-1.146200061E0,1.095993710E1,3.328457594E0
1.600980508E0,-1.112288713E0,1.104332256E1,3.442517281E0
1.602980508E0,-1.111484289E0,1.109940434E1,3.492307186E0
1.604978945E0,-1.127994657E0,1.111898804E1,3.487719774E0
1.607000820E0,-1.197934031E0,1.112257004E1,3.422463417E0
1.608980508E0,-1.316150188E0,1.109773827E1,3.206228733E0
1.610980508E0,-1.411793709E0,1.105898094E1,3.005757332E0
1.612980508E0,-1.466180444E0,1.103713608E1,2.887493372E0
1.614980508E0,-1.566650629E0,1.099462414E1,2.640411854E0
1.616980508E0,-1.646301031E0,1.094399261E1,2.414485455E0
1.618980508E0,-1.719649792E0,1.088110065E1,2.222910881E0
1.620994570E0,-1.795143723E0,1.080121136E1,1.994120955E0
1.622980508E0,-1.810667753E0,1.077658844E1,1.938403249E0
1.624980508E0,-1.814268589E0,1.073149204E1,1.851235151E0
1.626980508E0,-1.805227995E0,1.068970776E1,1.789819002E0
1.628986758E0,-1.792012095E0,1.062870407E1,1.727033496E0
1.630980508E0,-1.794185996E0,1.058629799E1,1.704930186E0
1.632980508E0,-1.792653680E0,1.057563019E1,1.700371623E0
1.634980508E0,-1.792806983E0,1.055273151E1,1.688352823E0
1.636980508E0,-1.804165006E0,1.052664471E1,1.671315551E0
1.638980508E0,-1.829457402E0,1.051481628E1,1.657582402E0
1.640980508E0,-1.847729921E0,1.051071739E1,1.635163069E0
1.642980508E0,-1.879113197E0,1.051163769E1,1.599068165E0
1.644980508E0,-1.906416655E0,1.049988651E1,1.522262216E0
1.646978945E0,-1.928740144E0,1.045774841E1,1.400301456E0
1.648978945E0,-1.973866105E0,1.039005947E1,1.256764412E0
1.650980508E0,-2.070926905E0,1.031749630E1,1.086699486E0
1.652980508E0,-2.301048040E0,1.021099186E1,8.624393344E-1
1.654980508E0,-2.382738352E0,1.019311237E1,8.129272461E-1
1.656980508E0,-2.505407572E0,1.017306805E1,7.564240694E-1
1.658980508E0,-2.546970844E0,1.018515396E1,7.583777308E-1
1.660980508E0,-2.491569042E0,1.025095558E1,8.058212399E-1
1.662993008E0,-2.330765009E0,1.033033848E1,8.652549386E-1
1.664980508E0,-2.081633806E0,1.042012119E1,9.252631664E-1
1.666978945E0,-1.803628802E0,1.052927780E1,9.906057119E-1
1.668978945E0,-1.532595634E0,1.060913849E1,1.056522965E0
1.670985195E0,-1.307090402E0,1.067190552E1,1.123790383E0
1.672978945E0,-1.144696474E0,1.071708870E1,1.190416217E0
1.674978945E0,-1.049771190E0,1.073453712E1,1.249122024E0
1.677010195E0,-1.029161930E0,1.073030472E1,1.303805709E0
1.678980508E0,-1.060296178E0,1.072186756E1,1.348136663E0
1.680986758E0,-1.116186380E0,1.069826031E1,1.377049088E0
1.682980508E0,-1.190339565E0,1.066340065E1,1.379127145E0
1.684980508E0,-1.271167874E0,1.062439442E1,1.367472291E0
1.686980508E0,-1.350875616E0,1.058825207E1,1.336098671E0
1.688980508E0,-1.430161953E0,1.053658485E1,1.293146610E0
1.690983633E0,-1.488886952E0,1.049639034E1,1.268428922E0
1.692978945E0,-1.568192482E0,1.046260357E1,1.253019810E0
1.694978945E0,-1.647000074E0,1.043124866E1,1.249868989E0
1.696978945E0,-1.731620669E0,1.039658070E1,1.249591351E0
1.698980508E0,-1.810370803E0,1.035576439E1,1.267126441E0
1.700978945E0,-1.890844703E0,1.031612682E1,1.300855994E0
1.702980508E0,-1.978137374E0,1.027512836E1,1.318228245E0
1.704980508E0,-2.054550886E0,1.023678303E1,1.322461247E0
1.706980508E0,-2.122910023E0,1.018647575E1,1.320775747E0
1.708980508E0,-2.189813375E0,1.013273048E1,1.307339430E0
1.710980508E0,-2.246374130E0,1.007062531E1,1.292888045E0
1.712980508E0,-2.322480917E0,9.998415947E0,1.288568974E0
1.714978945E0,-2.412301779E0,9.914868355E0,1.297159314E0
1.716985195E0,-2.491329670E0,9.828216553E0,1.304581285E0
1.718978945E0,-2.562379837E0,9.746220589E0,1.280706406E0
1.720978945E0,-2.620827198E0,9.676960945E0,1.226635695E0
1.722978945E0,-2.679647923E0,9.627247810E0,1.137025476E0
1.724978945E0,-2.726497889E0,9.574277878E0,1.019039273E0
1.726986758E0,-2.767227888E0,9.527964592E0,8.837189674E-1
1.728978945E0,-2.805726528E0,9.491065025E0,7.456214428E-1
1.730978945E0,-2.847299576E0,9.444225311E0,6.105693579E-1
1.732982070E0,-2.891917944E0,9.405545235E0,4.842799604E-1
1.734978945E0,-2.934946537E0,9.379734993E0,3.794618249E-1
1.736978945E0,-2.984784126E0,9.355342865E0,3.023397923E-1
1.738978945E0,-3.024039507E0,9.334475517E0,2.493896335E-1
1.740989883E0,-3.047569752E0,9.305697441E0,2.267787755E-1
1.742980508E0,-3.090454578E0,9.282779694E0,2.207070887E-1
1.744980508E0,-3.125027180E0,9.269152641E0,2.288282216E-1
1.746980508E0,-3.168821812E0,9.253082275E0,2.401288599E-1
1.748980508E0,-3.229098082E0,9.237041473E0,2.528947294E-1
1.750985195E0,-3.300991297E0,9.227588654E0,2.490544468E-1
1.752980508E0,-3.366151810E0,9.230077744E0,2.434041351E-1
1.754978945E0,-3.420299053E0,9.232884407E0,2.478381842E-1
1.756978945E0,-3.483994484E0,9.233133316E0,2.616862357E-1
1.758978945E0,-3.535804987E0,9.247900963E0,2.889514267E-1
1.760978945E0,-3.579858065E0,9.278565407E0,3.257359266E-1
1.762980508E0,-3.621392727E0,9.321681023E0,3.656041920E-1
1.764980508E0,-3.669296026E0,9.361970901E0,4.153365493E-1
1.766980508E0,-3.701186657E0,9.419200897E0,4.568232596E-1
1.768980508E0,-3.719622135E0,9.475168228E0,4.959349334E-1
1.770983633E0,-3.720733166E0,9.526040077E0,5.325853825E-1
1.772978945E0,-3.700133324E0,9.590118408E0,5.666213632E-1
1.774978945E0,-3.661921978E0,9.662950516E0,5.923925042E-1
1.776978945E0,-3.606874466E0,9.736567497E0,6.241300702E-1
1.778978945E0,-3.561432362E0,9.823083878E0,6.571796536E-1
1.780978945E0,-3.515559673E0,9.890514374E0,6.946632862E-1
1.782978945E0,-3.469485521E0,9.956871986E0,7.427771688E-1
1.784978945E0,-3.436244488E0,1.002160168E1,7.855088711E-1
1.786978945E0,-3.409726381E0,1.006871033E1,8.411022425E-1
1.788978945E0,-3.388053894E0,1.011103058E1,8.876263499E-1
1.790985195E0,-3.366122961E0,1.015637589E1,9.408446550E-1
1.792978945E0,-3.361143112E0,1.017871857E1,1.006292582E0
1.794978945E0,-3.374081373E0,1.020036221E1,1.095711231E0
1.796978945E0,-3.375422001E0,1.022244644E1,1.204082370E0
1.798978945E0,-3.384002924E0,1.023501110E1,1.325889826E0
1.800986758E0,-3.412762165E0,1.023238659E1,1.431722999E0
1.802978945E0,-3.430977345E0,1.024140835E1,1.510310292E0
1.804978945E0,-3.470021963E0,1.023980999E1,1.562331557E0
1.806978945E0,-3.499614239E0,1.025324535E1,1.582605600E0
1.808978945E0,-3.536762714E0,1.025754452E1,1.580192208E0
1.810983633E0,-3.551194906E0,1.024961662E1,1.565693021E0
1.812978945E0,-3.570721865E0,1.023919582E1,1.544193149E0
1.814978945E0,-3.595372915E0,1.021617413E1,1.515385985E0
1.816978945E0,-3.619582653E0,1.018853474E1,1.490821481E0
1.818978945E0,-3.618012190E0,1.014629173E1,1.465366364E0
1.821003945E0,-3.620980978E0,1.008230019E1,1.446519136E0
1.822978945E0,-3.641925573E0,1.001103783E1,1.449928641E0
1.824978945E0,-3.656204700E0,9.920738220E0,1.463173270E0
1.826978945E0,-3.670952797E0,9.844842911E0,1.474560022E0
1.829005508E0,-3.678767681E0,9.766427994E0,1.509783626E0
1.830978945E0,-3.658924341E0,9.672938347E0,1.554698825E0
1.833013320E0,-3.631218672E0,9.590655327E0,1.596865535E0
1.834978945E0,-3.593898058E0,9.521213531E0,1.632721066E0
1.836978945E0,-3.548925400E0,9.451820374E0,1.665732265E0
1.838978945E0,-3.497622252E0,9.400057793E0,1.697642207E0
1.840978945E0,-3.434597254E0,9.357028008E0,1.714890003E0
1.842978945E0,-3.370375156E0,9.331363678E0,1.698839307E0
1.844989883E0,-3.309821129E0,9.309670448E0,1.681275487E0
1.846978945E0,-3.250464201E0,9.297412872E0,1.659143448E0
1.848978945E0,-3.195924044E0,9.298007011E0,1.618786812E0
1.850978945E0,-3.139698744E0,9.284743309E0,1.578458905E0
1.852978945E0,-3.079814911E0,9.260868073E0,1.547784328E0
1.854978945E0,-3.019165039E0,9.246848106E0,1.504899383E0
1.856978945E0,-2.960727215E0,9.218337059E0,1.466486812E0
1.858978945E0,-2.881508112E0,9.181159973E0,1.427652955E0
1.860980508E0,-2.809863806E0,9.151922226E0,1.383101583E0
1.862980508E0,-2.751186848E0,9.115664482E0,1.347543001E0
1.864980508E0,-2.691322088E0,9.066525459E0,1.308890820E0
1.866980508E0,-2.631926775E0,9.014696121E0,1.286931276E0
1.868980508E0,-2.559468746E0,8.961899757E0,1.271273136E0
1.870988320E0,-2.488533258E0,8.926187515E0,1.255720496E0
1.872980508E0,-2.401250362E0,8.875295639E0,1.236078501E0
1.874980508E0,-2.313363791E0,8.824586868E0,1.201496601E0
1.876980508E0,-2.219233513E0,8.769337654E0,1.156859159E0
1.878980508E0,-2.119328022E0,8.712117195E0,1.110392451E0
1.880980508E0,-2.037475109E0,8.656198502E0,1.082849503E0
1.882980508E0,-1.952787519E0,8.606274605E0,1.081681132E0
1.884980508E0,-1.894780755E0,8.566731453E0,1.098900318E0
1.886980508E0,-1.845086813E0,8.538747787E0,1.154608488E0
1.888980508E0,-1.806817889E0,8.517726898E0,1.232678652E0
1.890985195E0,-1.787070394E0,8.515763283E0,1.319818020E0
1.892978945E0,-1.786304355E0,8.525886536E0,1.389077544E0
1.894978945E0,-1.816643715E0,8.529449463E0,1.438340545E0
1.896996133E0,-1.860428810E0,8.535319328E0,1.492631555E0
1.898978945E0,-1.934965134E0,8.548995018E0,1.530699372E0
1.901007070E0,-2.012575626E0,8.570055008E0,1.558778524E0
1.902978945E0,-2.062901497E0,8.586880684E0,1.582730055E0
1.904978945E0,-2.099398851E0,8.605537415E0,1.599278808E0
1.906978945E0,-2.142628670E0,8.642129898E0,1.598244548E0
1.908978945E0,-2.182611704E0,8.673512459E0,1.572684050E0
1.910986758E0,-2.212443590E0,8.691621780E0,1.529071331E0
1.912978945E0,-2.239967346E0,8.698183060E0,1.475814700E0
1.914978945E0,-2.269272327E0,8.689679146E0,1.413383365E0
1.916978945E0,-2.311573029E0,8.659999847E0,1.356056690E0
1.918978945E0,-2.356823444E0,8.621740341E0,1.306171179E0
1.920983633E0,-2.404793739E0,8.566349030E0,1.276157379E0
1.922978945E0,-2.460827589E0,8.492147446E0,1.252426028E0
1.925025820E0,-2.520740032E0,8.410562515E0,1.235599637E0
1.926978945E0,-2.568643332E0,8.339674950E0,1.217825055E0
1.929019570E0,-2.593102217E0,8.299098015E0,1.212270498E0
1.931005508E0,-2.642518759E0,8.162686348E0,1.179173112E0
1.932978945E0,-2.672924995E0,8.090199471E0,1.146305442E0
1.934978945E0,-2.681956053E0,8.054238319E0,1.123033762E0
1.936978945E0,-2.688027620E0,7.988120079E0,1.069001436E0
1.938978945E0,-2.688516140E0,7.920852661E0,1.016731262E0
1.940989883E0,-2.673461437E0,7.808296204E0,9.427791834E-1
1.942978945E0,-2.646196365E0,7.752855778E0,8.811236620E-1
1.944978945E0,-2.632884502E0,7.728693962E0,8.448755145E-1
1.946983633E0,-2.593715429E0,7.627859592E0,7.274351120E-1
1.948978945E0,-2.567752600E0,7.562545776E0,6.620829701E-1
1.951018008E0,-2.554613352E0,7.537732601E0,6.335248947E-1
1.952989883E0,-2.511086702E0,7.451043129E0,5.536351800E-1
1.954978945E0,-2.470950127E0,7.386992931E0,5.165442228E-1
1.956978945E0,-2.448473454E0,7.365598679E0,5.022747517E-1
1.958978945E0,-2.397553444E0,7.315876007E0,4.727973640E-1
1.960986758E0,-2.368784904E0,7.260071754E0,4.512208104E-1
1.962980508E0,-2.321848869E0,7.219447136E0,4.269244671E-1
1.964980508E0,-2.262108803E0,7.166889668E0,4.029537439E-1
1.966980508E0,-2.223227024E0,7.117464066E0,3.968915939E-1
1.968980508E0,-2.204226494E0,7.055166721E0,3.911550939E-1
1.970980508E0,-2.209905624E0,7.041203499E0,4.037390053E-1
1.972980508E0,-2.253154516E0,7.014273643E0,4.528105855E-1
1.974978945E0,-2.306439877E0,6.998960495E0,5.247898698E-1
1.976978945E0,-2.361362696E0,7.030372143E0,6.215347648E-1
1.978978945E0,-2.422223330E0,7.079817295E0,7.326735854E-1
1.981003945E0,-2.489749432E0,7.169973373E0,8.422514200E-1
1.982978945E0,-2.539060593E0,7.281619549E0,9.595481753E-1
1.984991445E0,-2.590746641E0,7.475808620E0,1.135933876E0
1.986980508E0,-2.598005533E0,7.637493610E0,1.244477272E0
1.988980508E0,-2.591512680E0,7.722775459E0,1.294305444E0
1.990988320E0,-2.551424026E0,7.897379875E0,1.386731148E0
1.992980508E0,-2.480948448E0,8.105225563E0,1.467731833E0
1.994978945E0,-2.393339872E0,8.310131073E0,1.539011955E0
1.996978945E0,-2.289469719E0,8.495240211E0,1.597583771E0
1.998978945E0,-2.169137239E0,8.663542747E0,1.652669549E0
2.000978945E0,-2.038107395E0,8.826703072E0,1.720454216E0
2.002978945E0,-1.911540151E0,8.953165054E0,1.794674397E0
2.004978945E0,-1.816930890E0,9.062914848E0,1.891534328E0
2.006978945E0,-1.734924674E0,9.146989822E0,2.001274824E0
2.008978945E0,-1.658980727E0,9.211135864E0,2.108506441E0
2.010985195E0,-1.585057259E0,9.255840302E0,2.220286846E0
2.012978945E0,-1.526801586E0,9.261921883E0,2.303107262E0
2.014978945E0,-1.473037362E0,9.256003380E0,2.377298594E0
2.016978945E0,-1.417300463E0,9.243409157E0,2.414954662E0
2.018982070E0,-1.363670230E0,9.212735176E0,2.442497492E0
2.020978945E0,-1.297820091E0,9.175251007E0,2.456288099E0
2.022978945E0,-1.240646601E0,9.125739098E0,2.433907270E0
2.024978945E0,-1.179575324E0,9.035353661E0,2.385975361E0
2.026978945E0,-1.135071874E0,8.954946518E0,2.305328846E0
2.028978945E0,-1.098201156E0,8.877450943E0,2.213324547E0
2.030991445E0,-1.065822005E0,8.793615341E0,2.121846914E0
2.032983633E0,-1.027476430E0,8.706016541E0,2.042129517E0
2.034980508E0,-9.879816771E-1,8.610995293E0,1.984515548E0
2.036980508E0,-9.487168193E-1,8.528999329E0,1.959998846E0
2.038980508E0,-9.004496932E-1,8.447834969E0,1.956819296E0
2.040983633E0,-8.551801443E-1,8.392768860E0,1.951149940E0
2.042980508E0,-8.059936762E-1,8.340421677E0,1.946208239E0
2.044980508E0,-7.697741985E-1,8.309192657E0,1.957748294E0
2.046980508E0,-7.408521771E-1,8.299614906E0,2.007298708E0
2.048978945E0,-7.113556266E-1,8.304710388E0,2.110546112E0
2.050985195E0,-6.692751646E-1,8.324036598E0,2.264838219E0
2.052978945E0,-6.510121226E-1,8.357918739E0,2.443771124E0
2.054978945E0,-6.391273737E-1,8.387099266E0,2.610714197E0
2.056978945E0,-6.494128704E-1,8.428767204E0,2.746235609E0
2.058978945E0,-6.808439493E-1,8.472112656E0,2.831890345E0
2.061000820E0,-7.122558355E-1,8.517439842E0,2.872477055E0
2.062978945E0,-7.682131529E-1,8.545988083E0,2.849895000E0
2.064978945E0,-8.387941718E-1,8.590903282E0,2.768578053E0
2.066978945E0,-9.175921679E-1,8.640012741E0,2.645075798E0
2.068978945E0,-9.758957624E-1,8.706753731E0,2.504267931E0
2.070982070E0,-1.023147702E0,8.777362823E0,2.366582394E0
2.072994570E0,-1.046065092E0,8.855682373E0,2.241039753E0
2.074978945E0,-1.035042167E0,8.941146851E0,2.121789455E0
2.076978945E0,-9.902992845E-1,9.024128914E0,2.027065277E0
2.078978945E0,-9.254547358E-1,9.089702606E0,1.962364435E0
2.080978945E0,-8.620562553E-1,9.145160675E0,1.928855062E0
2.082978945E0,-8.046911359E-1,9.171535492E0,1.910821915E0
2.084978945E0,-7.469909191E-1,9.185957909E0,1.911262393E0
2.086978945E0,-6.970287561E-1,9.185651779E0,1.936621785E0
2.088978945E0,-6.510792375E-1,9.170683861E0,1.956570268E0
2.090994570E0,-6.193799973E-1,9.135593414E0,1.969451189E0
2.092978945E0,-6.058766842E-1,9.081216812E0,1.970303416E0
2.094978945E0,-6.122547984E-1,9.035353661E0,1.946304083E0
2.096978945E0,-6.317723393E-1,9.007408142E0,1.932072878E0
2.098978945E0,-6.822325587E-1,8.992238045E0,1.907594562E0
2.100978945E0,-7.361403704E-1,8.979998589E0,1.878337383E0
2.102978945E0,-7.803852558E-1,8.991606712E0,1.871509194E0
2.104978945E0,-8.157332540E-1,9.024483681E0,1.875359058E0
2.106978945E0,-8.496734500E-1,9.054833412E0,1.882043719E0
2.108988320E0,-8.533413410E-1,9.113442421E0,1.881028533E0
2.110978945E0,-8.516749740E-1,9.197182655E0,1.871700644E0
2.112978945E0,-8.526422977E-1,9.271583557E0,1.845919967E0
2.114978945E0,-8.606771827E-1,9.346542358E0,1.812190413E0
2.116978945E0,-8.891107440E-1,9.402891159E0,1.777235150E0
2.118978945E0,-9.196128249E-1,9.477744102E0,1.749912500E0
2.120978945E0,-9.628234506E-1,9.558734894E0,1.738640547E0
2.122980508E0,-1.010056257E0,9.642465591E0,1.753877163E0
2.124991445E0,-1.040136933E0,9.736537933E0,1.768261552E0
2.126978945E0,-1.083443403E0,9.840858459E0,1.795325637E0
2.128978945E0,-1.102137208E0,9.945255280E0,1.834437370E0
2.130983633E0,-1.096333742E0,1.006762791E1,1.879649401E0
2.133013320E0,-1.076480985E0,1.020760250E1,1.932398558E0
2.134978945E0,-1.069145083E0,1.035757542E1,1.976873159E0
2.136978945E0,-1.058677793E0,1.051661682E1,2.004598141E0
2.138978945E0,-1.067172408E0,1.069333744E1,2.025504351E0
2.141000820E0,-1.095797420E0,1.087753773E1,2.044083357E0
2.142978945E0,-1.126538992E0,1.107553864E1,2.067153692E0
2.144985195E0,-1.136364698E0,1.128729153E1,2.116876364E0
2.146978945E0,-1.106580973E0,1.150880241E1,2.213027477E0
2.148978945E0,-1.038279057E0,1.171733761E1,2.318487644E0
2.150985195E0,-9.607069492E-1,1.190198803E1,2.429856300E0
2.152978945E0,-8.637896776E-1,1.206025505E1,2.520625353E0
2.154978945E0,-7.679066658E-1,1.218560505E1,2.591972351E0
2.156978945E0,-6.833052039E-1,1.227124119E1,2.624341965E0
2.158978945E0,-6.302113533E-1,1.232476616E1,2.641589880E0
2.160988320E0,-6.172538996E-1,1.233468723E1,2.650275946E0
2.162980508E0,-6.374322772E-1,1.231946087E1,2.666862965E0
2.164993008E0,-6.730579734E-1,1.229651451E1,2.672905922E0
2.166980508E0,-7.373088002E-1,1.226226711E1,2.665675640E0
2.168980508E0,-8.125728965E-1,1.221018982E1,2.642959118E0
2.170985195E0,-9.127079844E-1,1.211621189E1,2.596051931E0
2.172978945E0,-1.009634852E0,1.201302147E1,2.530939341E0
2.174978945E0,-1.101457238E0,1.191123009E1,2.453482151E0
2.177010195E0,-1.185752273E0,1.181852627E1,2.366122484E0
2.178978945E0,-1.279940128E0,1.169946766E1,2.297571659E0
2.180978945E0,-1.355960965E0,1.158314705E1,2.247839451E0
2.182978945E0,-1.416170239E0,1.146166611E1,2.197139740E0
2.184978945E0,-1.469589710E0,1.133941841E1,2.139698029E0
2.186978945E0,-1.506881833E0,1.121346378E1,2.068101883E0
2.188978945E0,-1.517722726E0,1.111456490E1,1.980426192E0
2.190988320E0,-1.501576304E0,1.102477264E1,1.871643186E0
2.192978945E0,-1.463805318E0,1.095526409E1,1.736686945E0
2.194978945E0,-1.396135569E0,1.088507557E1,1.598981977E0
2.196978945E0,-1.324596882E0,1.082835197E1,1.453309178E0
2.198978945E0,-1.228484035E0,1.079112720E1,1.329059720E0
2.200978945E0,-1.135703921E0,1.076611233E1,1.220477819E0
2.202978945E0,-1.047606945E0,1.076140022E1,1.134095073E0
2.204978945E0,-9.609272480E-1,1.076470375E1,1.069853783E0
2.206978945E0,-8.621712327E-1,1.079185486E1,1.051313162E0
2.208978945E0,-7.312274575E-1,1.084222889E1,1.117211223E0
2.210988320E0,-5.796074867E-1,1.089862633E1,1.304437757E0
2.212978945E0,-3.960967362E-1,1.094948959E1,1.602324247E0
2.214978945E0,-2.037561387E-1,1.100881767E1,1.957901478E0
2.216978945E0,-3.955221176E-2,1.106734085E1,2.251085997E0
2.218978945E0,8.482177556E-2,1.109997845E1,2.395580769E0
2.221002383E0,1.694615930E-1,1.112945652E1,2.412627459E0
2.222978945E0,2.029133737E-1,1.115711403E1,2.318678856E0
2.224978945E0,2.299582809E-1,1.119023037E1,2.141096115E0
2.226980508E0,2.312607318E-1,1.124075794E1,1.907680750E0
2.228980508E0,2.354936898E-1,1.128473473E1,1.631705880E0
2.230980508E0,2.455206066E-1,1.132816505E1,1.366715670E0
2.233003945E0,2.657180727E-1,1.136845493E1,1.128329873E0
2.234980508E0,2.748256326E-1,1.141272831E1,9.495787024E-1
2.236978945E0,2.705352306E-1,1.145093060E1,8.248312473E-1
2.238978945E0,2.763674855E-1,1.146227932E1,7.600536942E-1
2.240978945E0,2.888077796E-1,1.148001575E1,7.640663981E-1
2.242978945E0,2.874670029E-1,1.150316238E1,8.189510703E-1
2.244980508E0,2.764728367E-1,1.150184059E1,8.897811174E-1
2.246997695E0,2.704969049E-1,1.150027943E1,9.573359489E-1
2.248978945E0,2.622033954E-1,1.148600101E1,9.982672334E-1
2.250988320E0,2.464591265E-1,1.146282482E1,1.012306809E0
2.252980508E0,2.137543261E-1,1.143362522E1,9.861429334E-1
2.254980508E0,1.914499551E-1,1.140794086E1,9.656964540E-1
2.256980508E0,1.391797364E-1,1.135026836E1,9.067128897E-1
2.258978945E0,1.030081362E-1,1.128263664E1,8.312764168E-1
2.260996133E0,6.895300467E-4,1.117021465E1,7.159045935E-1
2.262980508E0,-8.078036457E-2,1.108134270E1,6.584054828E-1
2.264980508E0,-1.322365403E-1,1.102785587E1,6.279512048E-1
2.266978945E0,-2.509410679E-1,1.091266632E1,5.714384913E-1
2.268986758E0,-3.799119294E-1,1.079625034E1,5.189480186E-1
2.270978945E0,-4.960019886E-1,1.066727924E1,4.673577547E-1
2.272978945E0,-6.157982945E-1,1.053564644E1,4.128465652E-1
2.274978945E0,-7.474601865E-1,1.041257477E1,3.432135880E-1
2.276978945E0,-8.831635714E-1,1.027972603E1,2.703628242E-1
2.278978945E0,-1.008025885E0,1.013803577E1,1.840566546E-1
2.280988320E0,-1.144964695E0,9.990840912E0,8.541554213E-2
2.282978945E0,-1.271933913E0,9.844890594E0,-1.653914526E-2
2.284985195E0,-1.385802269E0,9.704321861E0,-1.182352602E-1
2.286999258E0,-1.558462501E0,9.498142242E0,-2.824391723E-1
2.288978945E0,-1.655446768E0,9.364402771E0,-3.819900751E-1
2.290978945E0,-1.700687647E0,9.294328690E0,-4.393455684E-1
2.292989883E0,-1.823615551E0,9.099029541E0,-6.372215748E-1
2.294978945E0,-1.862296224E0,9.035899162E0,-7.060500979E-1
2.296978945E0,-1.930492640E0,8.910300255E0,-8.489552140E-1
2.298978945E0,-2.022477865E0,8.801247597E0,-9.692686200E-1
2.300996133E0,-2.115842342E0,8.701581955E0,-1.072956681E0
2.302978945E0,-2.331779957E0,8.544522285E0,-1.147157788E0
2.304985195E0,-2.498435497E0,8.444320679E0,-1.134047151E0
2.306978945E0,-2.583046675E0,8.400401115E0,-1.104761243E0
2.308978945E0,-2.755869865E0,8.328489304E0,-1.017210126E0
2.310985195E0,-2.916329145E0,8.289818764E0,-9.039452076E-1
2.312978945E0,-3.047540903E0,8.272091866E0,-7.599196434E-1
2.314978945E0,-3.145301104E0,8.269792557E0,-5.935992599E-1
2.316978945E0,-3.213995695E0,8.304901123E0,-4.491905570E-1
2.318989883E0,-3.284806490E0,8.399118423E0,-3.489501178E-1
2.320978945E0,-3.302772522E0,8.437521935E0,-3.337229788E-1
2.322978945E0,-3.323774338E0,8.529746056E0,-3.068887591E-1
2.324978945E0,-3.319790602E0,8.623004913E0,-2.711002529E-1
2.326978945E0,-3.309773207E0,8.701993942E0,-2.196057588E-1
2.328978945E0,-3.302944899E0,8.785369873E0,-1.398692578E-1
2.330978945E0,-3.290868759E0,8.863488197E0,-4.752011597E-2
2.332978945E0,-3.266620159E0,8.942352295E0,5.827486888E-2
2.334978945E0,-3.202886581E0,9.018899918E0,1.506431699E-1
2.336978945E0,-3.092973471E0,9.105311394E0,2.389988005E-1
2.338978945E0,-2.944427490E0,9.174015999E0,3.210911751E-1
2.340978945E0,-2.783163786E0,9.220348358E0,4.113238454E-1
2.342978945E0,-2.623949289E0,9.253713608E0,5.101277828E-1
2.344978945E0,-2.478104115E0,9.275865555E0,5.895769596E-1
2.346978945E0,-2.374818325E0,9.288381577E0,6.325193644E-1
2.348978945E0,-2.311228275E0,9.292768478E0,6.366661191E-1
2.350978945E0,-2.259044170E0,9.295248985E0,6.150895953E-1
2.352978945E0,-2.205730200E0,9.297087669E0,5.498811007E-1
2.354978945E0,-2.128407001E0,9.301253319E0,4.721461535E-1
2.356978945E0,-2.043211699E0,9.297471046E0,3.998221159E-1
2.358978945E0,-1.945317626E0,9.293275833E0,3.361076117E-1
2.360978945E0,-1.867400765E0,9.278853416E0,2.824008763E-1
2.362978945E0,-1.802469969E0,9.246253967E0,2.360587120E-1
2.364978945E0,-1.737979770E0,9.200888634E0,1.792778224E-1
2.366978945E0,-1.696014166E0,9.167474747E0,1.136958450E-1
2.368997695E0,-1.653933764E0,9.128640175E0,3.454354033E-2
2.370982070E0,-1.608798265E0,9.092958450E0,-5.754703283E-2
2.372982070E0,-1.564457655E0,9.052131653E0,-1.664066017E-1
2.374978945E0,-1.551155448E0,9.021255493E0,-2.828126848E-1
2.376978945E0,-1.541913867E0,8.979473114E0,-4.004637599E-1
2.378978945E0,-1.536273122E0,8.937698364E0,-5.347689390E-1
2.381018008E0,-1.532174230E0,8.898682594E0,-6.790434718E-1
2.382986758E0,-1.536694407E0,8.852522850E0,-8.264305592E-1
2.384978945E0,-1.528429747E0,8.772364616E0,-9.642599225E-1
2.386978945E0,-1.532720089E0,8.685799599E0,-1.074182510E0
2.388978945E0,-1.550101876E0,8.606226921E0,-1.161178231E0
2.390978945E0,-1.590372443E0,8.522850990E0,-1.216244817E0
2.392978945E0,-1.658204913E0,8.416059494E0,-1.243586659E0
2.394978945E0,-1.755323410E0,8.309967995E0,-1.226664424E0
2.396978945E0,-1.859777570E0,8.211958885E0,-1.188510537E0
2.398978945E0,-1.957499266E0,8.136023521E0,-1.143815517E0
2.400978945E0,-2.023263216E0,8.061267853E0,-1.105345488E0
2.402978945E0,-2.066952705E0,7.998855591E0,-1.097549915E0
2.404991445E0,-2.106370926E0,7.951325893E0,-1.121645093E0
2.406978945E0,-2.134698868E0,7.918956280E0,-1.156973958E0
2.408978945E0,-2.173839331E0,7.878973007E0,-1.182592034E0
2.410986758E0,-2.256104231E0,7.866341114E0,-1.165669799E0
2.412978945E0,-2.372577190E0,7.880859852E0,-1.124192595E0
2.414978945E0,-2.483448029E0,7.917213440E0,-1.058170199E0
2.416978945E0,-2.555656910E0,8.000263214E0,-9.831741452E-1
2.418978945E0,-2.576477051E0,8.122501373E0,-8.855769038E-1
2.420986758E0,-2.539692640E0,8.262418747E0,-7.895789742E-1
2.422980508E0,-2.463509083E0,8.430998802E0,-6.865325570E-1
2.424978945E0,-2.353078842E0,8.625810623E0,-5.885235071E-1
2.426978945E0,-2.241710186E0,8.827010155E0,-4.782274067E-1
2.428978945E0,-2.135302305E0,9.056872368E0,-3.768281937E-1
2.430978945E0,-2.032706022E0,9.282846451E0,-2.747106850E-1
2.433013320E0,-1.915667892E0,9.517210007E0,-1.790671349E-1
2.434978945E0,-1.776689172E0,9.774855614E0,-1.100853980E-1
2.436978945E0,-1.591310859E0,1.002489662E1,-7.131848484E-2
2.438978945E0,-1.393645644E0,1.027258110E1,-6.495948136E-2
2.440978945E0,-1.164482355E0,1.051723957E1,-1.074517742E-1
2.442978945E0,-9.271211028E-1,1.076004028E1,-2.130552232E-1
2.444978945E0,-6.900663972E-1,1.097924423E1,-3.506547809E-1
2.446978945E0,-4.619085491E-1,1.117649746E1,-4.651933908E-1
2.449010195E0,-2.567158937E-1,1.133857536E1,-5.436274409E-1
2.450982070E0,-8.102936298E-2,1.145569038E1,-5.630779266E-1
2.452982070E0,6.299623847E-2,1.152884769E1,-5.337442160E-1
2.454978945E0,1.722484380E-1,1.156345844E1,-4.588152468E-1
2.456978945E0,2.204006314E-1,1.156793022E1,-3.553569913E-1
2.458978945E0,2.308201939E-1,1.153815651E1,-2.514103353E-1
2.461003945E0,2.152387351E-1,1.150072956E1,-1.903581917E-1
2.462991445E0,1.730241627E-1,1.144473457E1,-1.791341752E-1
2.464978945E0,1.126328260E-1,1.136768818E1,-1.837980747E-1
2.466978945E0,4.634216800E-2,1.129250145E1,-1.920820177E-1
2.468978945E0,-1.852154359E-2,1.119286442E1,-2.090904266E-1
2.470978945E0,-8.893980086E-2,1.108324814E1,-2.434998900E-1
2.472978945E0,-1.742212623E-1,1.096804905E1,-3.130466640E-1
2.474978945E0,-2.747681439E-1,1.084586811E1,-4.323257804E-1
2.476978945E0,-4.048690796E-1,1.070074081E1,-5.861388445E-1
2.478978945E0,-5.550525784E-1,1.055030823E1,-7.671692371E-1
2.480978945E0,-7.236905694E-1,1.039335442E1,-9.455947280E-1
2.482978945E0,-9.011391997E-1,1.022269535E1,-1.104780436E0
2.484978945E0,-1.095701694E0,1.004927826E1,-1.242945075E0
2.486978945E0,-1.286864281E0,9.857052803E0,-1.354984164E0
2.488978945E0,-1.470729351E0,9.644313812E0,-1.446921349E0
2.490978945E0,-1.678067207E0,9.442194939E0,-1.513671756E0
2.492978945E0,-1.915217638E0,9.257132530E0,-1.555417061E0
2.494996133E0,-2.170726776E0,9.068872452E0,-1.574005604E0
2.496982070E0,-2.410300255E0,8.915307999E0,-1.573086262E0
2.498978945E0,-2.646282434E0,8.783981323E0,-1.549881697E0
2.500985195E0,-2.888240576E0,8.673895836E0,-1.511631966E0
2.502978945E0,-3.125563145E0,8.590472221E0,-1.456785560E0
2.504978945E0,-3.375460386E0,8.548803329E0,-1.390456557E0
2.506978945E0,-3.622685909E0,8.537216187E0,-1.302445650E0
2.508978945E0,-3.870485544E0,8.577849388E0,-1.168418288E0
2.510978945E0,-4.070401192E0,8.658037186E0,-1.007729053E0
2.512978945E0,-4.215404034E0,8.795003891E0,-8.369171619E-1
2.514978945E0,-4.314811230E0,8.961899757E0,-6.716693640E-1
2.516978945E0,-4.360770226E0,9.160589218E0,-5.529073477E-1
2.518980508E0,-4.344097137E0,9.394875526E0,-4.799895585E-1
2.520985195E0,-4.294335842E0,9.650433540E0,-4.588918388E-1
2.522980508E0,-4.215413570E0,9.905157089E0,-4.713321328E-1
2.524980508E0,-4.104006290E0,1.013217545E1,-5.200780630E-1
2.526978945E0,-4.006993294E0,1.035178089E1,-5.785253048E-1
2.528978945E0,-3.902395487E0,1.055695534E1,-6.269743443E-1
2.530978945E0,-3.804520607E0,1.074192047E1,-6.594685316E-1
2.533011758E0,-3.743976116E0,1.089807987E1,-6.754043102E-1
2.534980508E0,-3.700028181E0,1.102643871E1,-6.816292405E-1
2.536980508E0,-3.661787748E0,1.113634205E1,-6.939641833E-1
2.538980508E0,-3.636945486E0,1.120503616E1,-7.080612183E-1
2.541003945E0,-3.609479189E0,1.126444149E1,-7.357764840E-1
2.542980508E0,-3.562983990E0,1.131205750E1,-7.732505202E-1
2.544978945E0,-3.514151812E0,1.134067249E1,-8.134922385E-1
2.546978945E0,-3.460243940E0,1.133482170E1,-8.608878851E-1
2.548978945E0,-3.429301262E0,1.131290913E1,-9.120855331E-1
2.550978945E0,-3.396290064E0,1.126762962E1,-9.611570239E-1
2.552978945E0,-3.379042149E0,1.121509171E1,-1.003783464E0
2.554978945E0,-3.363230944E0,1.115326405E1,-1.046151280E0
2.556978945E0,-3.361258030E0,1.107546234E1,-1.097789288E0
2.558978945E0,-3.382777214E0,1.098536301E1,-1.148287892E0
2.560985195E0,-3.426552773E0,1.087238598E1,-1.213122845E0
2.562978945E0,-3.479167700E0,1.074438286E1,-1.286050200E0
2.564978945E0,-3.541292429E0,1.060133362E1,-1.348615527E0
2.566978945E0,-3.626956940E0,1.045133209E1,-1.400397301E0
2.568978945E0,-3.738354445E0,1.028888130E1,-1.432106137E0
2.570985195E0,-3.891564131E0,1.013207054E1,-1.427097440E0
2.572978945E0,-4.081654072E0,9.972156525E0,-1.378638744E0
2.574978945E0,-4.274904728E0,9.815604210E0,-1.309982657E0
2.576978945E0,-4.374273300E0,9.743960381E0,-1.263075471E0
2.578978945E0,-4.564670086E0,9.628023148E0,-1.136201859E0
2.580997695E0,-4.794982433E0,9.509337425E0,-8.938512802E-1
2.582978945E0,-4.902740955E0,9.477351189E0,-7.385154366E-1
2.584978945E0,-4.946822643E0,9.469680786E0,-6.718608737E-1
2.586978945E0,-5.001947403E0,9.469997406E0,-5.757097006E-1
2.588978945E0,-4.995491982E0,9.507317543E0,-5.441733599E-1
2.590978945E0,-4.925054550E0,9.572362900E0,-5.842043161E-1
2.592978945E0,-4.808073997E0,9.652156830E0,-6.477656364E-1
2.594978945E0,-4.647557259E0,9.753441811E0,-7.234511375E-1
2.596978945E0,-4.459439754E0,9.859638214E0,-7.921743393E-1
2.598978945E0,-4.228754044E0,9.959821701E0,-8.408244848E-1
2.600978945E0,-3.981423378E0,1.005678749E1,-8.788635731E-1
2.602978945E0,-3.730558872E0,1.015934467E1,-9.096816778E-1
2.604978945E0,-3.496444225E0,1.024793911E1,-9.409404397E-1
2.606978945E0,-3.270249844E0,1.032662296E1,-9.633118510E-1
2.608978945E0,-3.051295280E0,1.039447498E1,-9.754360914E-1
2.610978945E0,-2.874583960E0,1.044749260E1,-9.802244902E-1
2.612978945E0,-2.724409819E0,1.049175549E1,-9.686461091E-1
2.615010195E0,-2.581591129E0,1.053428650E1,-9.531604052E-1
2.616985195E0,-2.392382145E0,1.057968998E1,-9.222177863E-1
2.618978945E0,-2.341892958E0,1.058874035E1,-9.108788371E-1
2.621003945E0,-2.269712925E0,1.060272312E1,-8.913804293E-1
2.622978945E0,-2.199064732E0,1.062749672E1,-8.681184053E-1
2.624978945E0,-2.134603262E0,1.065015602E1,-8.685110211E-1
2.626985195E0,-2.069902420E0,1.067102432E1,-8.608974814E-1
2.628978945E0,-2.009673595E0,1.069232368E1,-8.598727584E-1
2.630978945E0,-1.952950358E0,1.070027161E1,-8.502767682E-1
2.632978945E0,-1.901139736E0,1.071632195E1,-8.085027337E-1
2.634978945E0,-1.869411826E0,1.073596382E1,-7.430931330E-1
2.636978945E0,-1.844550371E0,1.074805927E1,-6.578882933E-1
2.638999258E0,-1.844655752E0,1.075436115E1,-5.566135645E-1
2.640978945E0,-1.864259481E0,1.077721214E1,-4.445458055E-1
2.642978945E0,-1.934687376E0,1.082532501E1,-3.269042969E-1
2.644978945E0,-2.021740437E0,1.085185337E1,-2.066770643E-1
2.646978945E0,-2.144946098E0,1.088693333E1,-9.782707691E-2
2.648978945E0,-2.274596930E0,1.094365597E1,1.915361281E-5
2.650978945E0,-2.406776190E0,1.100837708E1,7.534073293E-2
2.652978945E0,-2.538888216E0,1.106553078E1,1.264042705E-1
2.654978945E0,-2.645363092E0,1.114897346E1,1.605934799E-1
2.656985195E0,-2.712257147E0,1.124599648E1,1.732540131E-1
2.658978945E0,-2.767093658E0,1.135620594E1,1.662246436E-1
2.660985195E0,-2.799386740E0,1.144696617E1,1.669045836E-1
2.662985195E0,-2.785548449E0,1.153033161E1,1.879831403E-1
2.664997695E0,-2.725032568E0,1.160990524E1,2.138117850E-1
2.666978945E0,-2.648734093E0,1.167709637E1,2.568595409E-1
2.668978945E0,-2.540592670E0,1.173619461E1,3.068696260E-1
2.670978945E0,-2.392966270E0,1.178330231E1,3.793277144E-1
2.672978945E0,-2.229394436E0,1.179825306E1,4.913189113E-1
2.674978945E0,-2.039112806E0,1.180842304E1,6.725982428E-1
2.677018008E0,-1.840327024E0,1.181149673E1,9.048741460E-1
2.678978945E0,-1.651529908E0,1.180519485E1,1.124393702E0
2.680978945E0,-1.459534049E0,1.176835346E1,1.269108891E0
2.682978945E0,-1.295722723E0,1.172361088E1,1.321580172E0
2.684980508E0,-1.162471056E0,1.166892815E1,1.278139830E0
2.686980508E0,-1.062757492E0,1.160923576E1,1.162308335E0
2.689030508E0,-9.835667610E-1,1.154199600E1,1.013111234E0
2.690986758E0,-9.164908528E-1,1.144704247E1,8.115099072E-1
2.692980508E0,-8.919358850E-1,1.140462685E1,7.567209601E-1
2.694980508E0,-8.577275276E-1,1.132596302E1,6.625139117E-1
2.696989883E0,-8.170357347E-1,1.125798607E1,6.060490608E-1
2.698978945E0,-7.832103968E-1,1.118997192E1,5.507909060E-1
2.701032070E0,-7.576020360E-1,1.113095951E1,4.971511960E-1
2.702978945E0,-7.322331071E-1,1.106828880E1,4.491426647E-1
2.704978945E0,-7.172070146E-1,1.101781940E1,4.174434245E-1
2.706978945E0,-7.159907818E-1,1.095993710E1,3.916051984E-1
2.709038320E0,-7.476995587E-1,1.088882923E1,3.533746004E-1
2.710980508E0,-8.012052774E-1,1.081482887E1,3.092446625E-1
2.712978945E0,-8.775228262E-1,1.073165417E1,2.681505978E-1
2.714978945E0,-9.974914789E-1,1.065418720E1,2.203814834E-1
2.716978945E0,-1.146726847E0,1.056844711E1,1.556422561E-1
2.718978945E0,-1.299199224E0,1.047386646E1,9.740570188E-2
2.720978945E0,-1.468651295E0,1.039578629E1,4.209006578E-2
2.722978945E0,-1.660570383E0,1.031764984E1,-1.467166841E-2
2.724978945E0,-1.865265131E0,1.022642136E1,-7.514920086E-2
2.726978945E0,-2.063600779E0,1.014245129E1,-1.481340528E-1
2.728978945E0,-2.238894463E0,1.006597042E1,-2.082763910E-1
2.730978945E0,-2.389940023E0,9.992219925E0,-2.521956265E-1
2.733018008E0,-2.511431456E0,9.918813705E0,-2.840959728E-1
2.734978945E0,-2.610618353E0,9.857522011E0,-2.845748365E-1
2.736978945E0,-2.696570396E0,9.796451569E0,-2.595793605E-1
2.738978945E0,-2.784954548E0,9.734105110E0,-2.269224375E-1
2.740980508E0,-2.879142523E0,9.653881073E0,-1.894388050E-1
2.742989883E0,-3.003181219E0,9.584669113E0,-1.708502322E-1
2.744978945E0,-3.151545048E0,9.516702652E0,-1.625663042E-1
2.746978945E0,-3.324550390E0,9.439465523E0,-1.499823779E-1
2.748978945E0,-3.499317408E0,9.384667397E0,-1.450407356E-1
2.750978945E0,-3.681506634E0,9.321307182E0,-1.378389746E-1
2.752978945E0,-3.884889126E0,9.256070137E0,-1.404438764E-1
2.754978945E0,-4.096134186E0,9.199107170E0,-1.416984349E-1
2.756978945E0,-4.309697151E0,9.151328087E0,-1.683698446E-1
2.758978945E0,-4.517906189E0,9.096490860E0,-2.306669652E-1
2.760978945E0,-4.715025902E0,9.042833328E0,-3.184479773E-1
2.762978945E0,-4.878339291E0,8.989355087E0,-4.318469465E-1
2.764978945E0,-4.992648125E0,8.954745293E0,-5.675694346E-1
2.766978945E0,-5.062022686E0,8.920364380E0,-7.026695013E-1
2.768978945E0,-5.083120346E0,8.884202003E0,-8.439657092E-1
2.770978945E0,-5.057760715E0,8.849123001E0,-9.753977656E-1
2.772978945E0,-4.989602566E0,8.801622391E0,-1.081968546E0
2.774983633E0,-4.857327461E0,8.766858101E0,-1.165516615E0
2.776978945E0,-4.674746037E0,8.732362747E0,-1.216331005E0
2.778978945E0,-4.462571621E0,8.694840431E0,-1.237352133E0
2.781027383E0,-4.229270935E0,8.670783043E0,-1.219845772E0
2.782978945E0,-3.985512733E0,8.659099579E0,-1.171243548E0
2.784978945E0,-3.733642578E0,8.647425652E0,-1.098363996E0
2.786978945E0,-3.484338999E0,8.638356209E0,-9.982863069E-1
2.788978945E0,-3.236654282E0,8.641584396E0,-8.584936857E-1
2.790978945E0,-2.994456768E0,8.642273903E0,-6.842245460E-1
2.792980508E0,-2.778605223E0,8.650221825E0,-5.085954666E-1
2.794978945E0,-2.604747772E0,8.664826393E0,-3.621469438E-1
2.796978945E0,-2.489892960E0,8.667536736E0,-2.593016326E-1
2.798985195E0,-2.415596247E0,8.643221855E0,-2.073378563E-1
2.800978945E0,-2.385486841E0,8.625265121E0,-2.024249732E-1
2.802978945E0,-2.404697895E0,8.610172272E0,-2.593973875E-1
2.804978945E0,-2.441568613E0,8.588968277E0,-3.685538471E-1
2.806978945E0,-2.490745544E0,8.556704521E0,-4.902558923E-1
2.808978945E0,-2.537269592E0,8.515150070E0,-5.954762697E-1
2.810978945E0,-2.592355490E0,8.463005066E0,-6.895875335E-1
2.812978945E0,-2.656060219E0,8.388871193E0,-7.783741355E-1
2.814978945E0,-2.729744434E0,8.296588898E0,-8.593651652E-1
2.816978945E0,-2.821442127E0,8.192623138E0,-9.549608827E-1
2.818978945E0,-2.940759420E0,8.057427406E0,-1.057279468E0
2.820978945E0,-3.078273058E0,7.894592762E0,-1.173522711E0
2.822978945E0,-3.242122650E0,7.717919827E0,-1.307138324E0
2.824986758E0,-3.455484390E0,7.522294521E0,-1.435074925E0
2.826991445E0,-3.743104458E0,7.311825275E0,-1.551835299E0
2.828978945E0,-4.102751732E0,7.082987309E0,-1.624532819E0
2.830978945E0,-4.541905880E0,6.840655804E0,-1.637643576E0
2.833025820E0,-5.064186573E0,6.613072395E0,-1.611019969E0
2.834978945E0,-5.629247189E0,6.391819477E0,-1.540046215E0
2.836978945E0,-6.183006763E0,6.194604397E0,-1.464973807E0
2.838978945E0,-6.704712868E0,6.040427208E0,-1.396959186E0
2.840978945E0,-7.187096596E0,5.933415890E0,-1.349228382E0
2.843008633E0,-7.603506088E0,5.857912540E0,-1.338205576E0
2.844978945E0,-7.955539703E0,5.823273182E0,-1.351842880E0
2.846978945E0,-8.247555733E0,5.818887234E0,-1.367366910E0
2.848978945E0,-8.499914169E0,5.849944115E0,-1.357703805E0
2.850978945E0,-8.709742546E0,5.910211563E0,-1.302369118E0
2.852978945E0,-8.876195908E0,6.002052784E0,-1.196832657E0
2.854978945E0,-8.987220764E0,6.114637852E0,-1.089103103E0
2.856978945E0,-9.035170555E0,6.218948841E0,-1.002605438E0
2.858978945E0,-9.017463684E0,6.348714352E0,-9.343132973E-1
2.860978945E0,-8.929692268E0,6.482999802E0,-8.319755197E-1
2.862980508E0,-8.806572914E0,6.617027760E0,-6.568635702E-1
2.864978945E0,-8.638337135E0,6.724220753E0,-4.115057886E-1
2.866978945E0,-8.436017990E0,6.838817120E0,-1.160613224E-1
2.868978945E0,-8.208233833E0,6.949610710E0,2.300061584E-1
2.870978945E0,-7.973793030E0,7.039546967E0,5.783529878E-1
2.872978945E0,-7.755805492E0,7.109371185E0,8.854619861E-1
2.874978945E0,-7.537033081E0,7.175498962E0,1.049646735E0
2.876978945E0,-7.343763828E0,7.245352745E0,1.026815653E0
2.878978945E0,-7.180172443E0,7.320482254E0,8.486965895E-1
2.880978945E0,-7.043262482E0,7.406022549E0,5.657306910E-1
2.882978945E0,-6.906467438E0,7.500967026E0,2.402150482E-1
2.884978945E0,-6.770083904E0,7.608102322E0,-8.690952510E-2
2.886978945E0,-6.634916782E0,7.725600719E0,-4.299411476E-1
2.888978945E0,-6.478192806E0,7.855854511E0,-7.601590753E-1
2.890978945E0,-6.299719334E0,8.001163483E0,-1.087609291E0
2.892991445E0,-6.123582363E0,8.138255119E0,-1.395331144E0
2.894983633E0,-5.943883419E0,8.297393799E0,-1.687605739E0
2.897022695E0,-5.751121521E0,8.457728386E0,-1.934658527E0
2.898978945E0,-5.571307182E0,8.613849640E0,-2.140291691E0
2.900978945E0,-5.402937412E0,8.798183441E0,-2.259053707E0
2.902978945E0,-5.328123569E0,8.892898560E0,-2.287554502E0
2.904978945E0,-5.202772617E0,9.082537651E0,-2.290925503E0
2.906978945E0,-5.127508640E0,9.268528938E0,-2.215766668E0
2.908978945E0,-5.118841171E0,9.451838493E0,-2.097406864E0
2.910978945E0,-5.168363094E0,9.634526253E0,-1.989533663E0
2.912978945E0,-5.283332825E0,9.794735909E0,-1.938144565E0
2.914978945E0,-5.468021393E0,9.907331467E0,-1.927859187E0
2.916978945E0,-5.712440968E0,9.947831154E0,-1.948870659E0
2.918978945E0,-5.980658054E0,9.917263031E0,-1.958993316E0
2.920978945E0,-6.308414936E0,9.823868752E0,-1.962306857E0
2.922978945E0,-6.655526161E0,9.666254044E0,-1.960582972E0
2.924991445E0,-6.975162029E0,9.479084969E0,-1.950517774E0
2.926986758E0,-7.414268017E0,9.144011497E0,-1.894780755E0
2.928978945E0,-7.553562641E0,9.020432472E0,-1.832004905E0
2.930978945E0,-7.813228130E0,8.761466026E0,-1.577692747E0
2.933010195E0,-8.050531387E0,8.495116234E0,-1.130187750E0
2.934978945E0,-8.309201241E0,8.072472572E0,-3.324492872E-1
2.936978945E0,-8.373615265E0,7.923275471E0,-1.158123240E-1
2.938978945E0,-8.508561134E0,7.616042137E0,1.410663575E-1
2.940978945E0,-8.686230659E0,7.316326141E0,1.112058759E-1
2.942988320E0,-8.900052071E0,7.034154892E0,-1.779945344E-1
2.945016445E0,-9.222599030E0,6.638536930E0,-9.115587473E-1
2.946980508E0,-9.384342194E0,6.422081947E0,-1.479741096E0
2.948978945E0,-9.448391914E0,6.329522610E0,-1.762477160E0
2.950980508E0,-9.549742699E0,6.171198845E0,-2.295780659E0
2.952978945E0,-9.595309258E0,6.054926872E0,-2.735461712E0
2.954980508E0,-9.603985786E0,5.948786736E0,-3.053086042E0
2.956993008E0,-9.557193756E0,5.821242809E0,-3.357140064E0
2.958985195E0,-9.493613243E0,5.756465435E0,-3.472904444E0
2.960978945E0,-9.450814247E0,5.740539074E0,-3.525452375E0
2.962978945E0,-9.353772163E0,5.708542824E0,-3.622647524E0
2.964978945E0,-9.252947807E0,5.698812962E0,-3.715207338E0
2.966978945E0,-9.159086227E0,5.704061031E0,-3.809194088E0
2.968978945E0,-9.066765785E0,5.707575798E0,-3.904856682E0
2.970982070E0,-8.967195511E0,5.726365089E0,-4.000596046E0
2.972978945E0,-8.869186401E0,5.748133183E0,-4.070707798E0
2.974978945E0,-8.752445221E0,5.773521423E0,-4.089401722E0
2.976978945E0,-8.609625816E0,5.819279671E0,-4.062854767E0
2.978978945E0,-8.455640793E0,5.879776478E0,-3.981854200E0
2.980978945E0,-8.298494339E0,5.952215195E0,-3.856637478E0
2.982978945E0,-8.137891769E0,6.022451878E0,-3.686745167E0
2.984996133E0,-7.972452164E0,6.103892803E0,-3.489922285E0
2.986978945E0,-7.777544975E0,6.238887310E0,-3.188636303E0
2.988978945E0,-7.717278481E0,6.294136047E0,-3.088089466E0
2.990980508E0,-7.622400761E0,6.418845177E0,-2.902595997E0
2.992978945E0,-7.533470631E0,6.547844887E0,-2.752326488E0
2.994978945E0,-7.433316231E0,6.677897930E0,-2.635134935E0
2.996978945E0,-7.328488827E0,6.830561638E0,-2.550657988E0
2.998978945E0,-7.197094917E0,6.993827343E0,-2.477979422E0
3.000980508E0,-7.047610283E0,7.162455559E0,-2.395226240E0
3.002978945E0,-6.908545494E0,7.326687813E0,-2.287065983E0
3.004985195E0,-6.768360138E0,7.478471279E0,-2.165938377E0
3.006978945E0,-6.634955406E0,7.623167038E0,-2.038212538E0
3.008978945E0,-6.525147915E0,7.761379242E0,-1.893650770E0
3.010980508E0,-6.420779705E0,7.901268005E0,-1.746378660E0
3.012978945E0,-6.311948776E0,8.052534103E0,-1.609114289E0
3.014978945E0,-6.194690228E0,8.215089798E0,-1.488025188E0
3.016978945E0,-6.056046963E0,8.376095772E0,-1.391988873E0
3.018978945E0,-5.912662983E0,8.552739143E0,-1.324587226E0
3.021022695E0,-5.756704807E0,8.742101669E0,-1.301670074E0
3.022978945E0,-5.610936165E0,8.949200630E0,-1.296259165E0
3.024978945E0,-5.471392632E0,9.146683693E0,-1.303805709E0
3.026978945E0,-5.327500820E0,9.333977699E0,-1.294286251E0
3.028978945E0,-5.171265125E0,9.511503220E0,-1.227603078E0
3.030982070E0,-5.002368450E0,9.670180321E0,-1.066770196E0
3.032980508E0,-4.861915112E0,9.813611984E0,-8.113566041E-1
3.034978945E0,-4.733901978E0,9.947218895E0,-4.965861440E-1
3.036978945E0,-4.600649834E0,1.005396175E1,-2.014385462E-1
3.038978945E0,-4.518730164E0,1.014056492E1,-1.963245450E-3
3.040988320E0,-4.448043346E0,1.023254013E1,5.187756196E-2
3.042986758E0,-4.377271175E0,1.031416321E1,-2.286941558E-2
3.044978945E0,-4.241558075E0,1.039646721E1,-2.162921727E-1
3.046978945E0,-4.080389977E0,1.047840500E1,-4.907155633E-1
3.048978945E0,-3.980791330E0,1.054545307E1,-8.065682650E-1
3.050983633E0,-3.805459023E0,1.058632755E1,-1.089831114E0
3.052978945E0,-3.766931534E0,1.058142376E1,-1.310930729E0
3.054978945E0,-3.854214668E0,1.053183460E1,-1.475307107E0
3.056978945E0,-3.809826136E0,1.050382233E1,-1.563183784E0
3.058978945E0,-3.548877239E0,1.049301052E1,-1.588849783E0
3.060978945E0,-3.360089540E0,1.039786530E1,-1.611766934E0
3.062993008E0,-3.314552069E0,1.017450523E1,-1.726851463E0
3.064988320E0,-3.242572784E0,9.872059822E0,-1.939791799E0
3.066980508E0,-3.472262859E0,9.393717766E0,-2.232803822E0
3.068978945E0,-3.919365644E0,8.784192085E0,-2.574102163E0
3.070982070E0,-4.281129360E0,8.225049973E0,-2.884629965E0
3.072978945E0,-4.455379486E0,7.805787086E0,-3.052272081E0
3.074978945E0,-4.647595882E0,7.501101017E0,-3.026280403E0
3.076978945E0,-4.789619446E0,7.284282207E0,-2.843564749E0
3.078978945E0,-5.093242645E0,7.061985493E0,-2.467579126E0
3.080985195E0,-5.104169846E0,6.961112976E0,-2.019853830E0
3.082978945E0,-4.458884716E0,7.041040421E0,-1.757593036E0
3.084978945E0,-3.234710217E0,7.270108223E0,-1.860467196E0
3.086978945E0,-1.955737233E0,7.613656998E0,-2.268486977E0
3.088978945E0,-1.286059856E0,7.982430935E0,-2.770139217E0
3.090985195E0,-1.667398691E0,8.303829193E0,-3.156448603E0
3.092978945E0,-3.245828867E0,8.545777321E0,-3.284270048E0
3.094978945E0,-5.561414719E0,8.815747261E0,-3.143471956E0
3.096978945E0,-7.833224773E0,9.093800545E0,-2.765092373E0
3.098978945E0,-1.045382214E1,9.078496933E0,-2.113505363E0
3.100978945E0,-1.230899334E1,9.257918358E0,-1.199993014E0
3.102978945E0,-1.040598679E1,1.048580837E1,-2.890854776E-1
3.104978945E0,-6.381821156E0,1.220191479E1,1.054760695E0
3.106978945E0,-3.541962862E0,1.347998714E1,3.003621817E0
3.108978945E0,-3.633603334E0,1.364694881E1,4.949676991E0
3.110978945E0,-5.510704994E0,1.304710674E1,5.974433422E0
3.112978945E0,-8.201749802E0,1.169123173E1,5.567333221E0
3.115021133E0,-1.061122704E1,9.369803429E0,3.502333879E0
3.116986758E0,-1.108768272E1,7.171227932E0,8.479304910E-1
3.118978945E0,-1.026230431E1,5.697635174E0,-1.508979082E0
3.120988320E0,-8.555756569E0,5.176187515E0,-3.312397242E0
3.122978945E0,-6.360541344E0,5.694283009E0,-4.229405403E0
3.124985195E0,-4.393484592E0,6.980544090E0,-4.058430195E0
3.126978945E0,-3.840203762E0,8.206614494E0,-3.443101645E0
3.128978945E0,-3.654988289E0,8.314650536E0,-3.312665224E0
3.130978945E0,-3.651109695E0,7.967577457E0,-3.565004587E0
3.133021133E0,-4.470242500E0,7.748872280E0,-3.948843002E0
3.134978945E0,-5.425203800E0,7.845329762E0,-4.414103508E0
3.136978945E0,-5.501837254E0,8.186015129E0,-4.875523567E0
3.138978945E0,-5.194661140E0,8.456138611E0,-5.357466698E0
3.140978945E0,-5.575329781E0,8.509099007E0,-5.807998180E0
3.142978945E0,-6.316066742E0,8.317714691E0,-6.245102406E0
3.144978945E0,-6.897982597E0,7.909130573E0,-6.604855537E0
3.146978945E0,-7.242010117E0,7.446302414E0,-6.762365341E0
3.148985195E0,-7.359699249E0,7.098127842E0,-6.643000126E0
3.150978945E0,-7.408550739E0,6.920650959E0,-6.352688313E0
3.152978945E0,-7.555238724E0,6.789113045E0,-6.069876194E0
3.154978945E0,-7.710516930E0,6.669776917E0,-5.916464806E0
3.156978945E0,-7.785388470E0,6.544147968E0,-5.938376904E0
3.158978945E0,-7.860691071E0,6.421382904E0,-6.073371410E0
3.160978945E0,-7.936252117E0,6.345065594E0,-6.142745495E0
3.162985195E0,-7.947351456E0,6.337585926E0,-6.069004536E0
3.164978945E0,-7.930256844E0,6.372770786E0,-5.825073719E0
3.166978945E0,-7.983733654E0,6.414765835E0,-5.417015553E0
3.168978945E0,-8.019072533E0,6.467456818E0,-5.084106445E0
3.170978945E0,-8.056221008E0,6.541639328E0,-4.780320644E0
3.172978945E0,-7.991558075E0,6.681307316E0,-4.557889462E0
3.174978945E0,-7.685924053E0,6.865699291E0,-4.469677925E0
3.177018008E0,-7.244624615E0,7.065078735E0,-4.471487999E0
3.178978945E0,-6.864041805E0,7.251079082E0,-4.497335434E0
3.180978945E0,-6.604453087E0,7.427426815E0,-4.549088478E0
3.182978945E0,-5.365750790E0,7.043358326E0,-6.842121124E0
3.184978945E0,-5.528690338E0,6.883684158E0,-8.422754288E0
3.186978945E0,-5.888366699E0,7.535893440E0,-6.232959270E0
3.188978945E0,-4.960641861E0,8.254987717E0,-4.631267071E0
3.190982070E0,-4.187104702E0,8.949995041E0,-4.490688801E0
3.192978945E0,-3.615924597E0,9.528041840E0,-4.514525890E0
3.194978945E0,-3.092006207E0,1.009229755E1,-4.305885792E0
3.196978945E0,-2.620894194E0,1.054248428E1,-3.906436920E0
3.198978945E0,-2.265039206E0,1.085139370E1,-3.641666889E0
3.200986758E0,-1.989256024E0,1.107030010E1,-3.239594221E0
3.202978945E0,-1.759134889E0,1.124258709E1,-2.799520969E0
3.204978945E0,-1.565396070E0,1.138732147E1,-2.231214046E0
3.206978945E0,-1.418430448E0,1.149796200E1,-1.659105062E0
3.208978945E0,-1.316772580E0,1.157925034E1,-1.094494939E0
3.210982070E0,-1.226405859E0,1.168589783E1,-6.483976841E-1
3.212978945E0,-1.137485266E0,1.180973530E1,-3.169061244E-1
3.215000820E0,-9.711648226E-1,1.195402908E1,7.594407536E-3
3.217008633E0,-6.884287596E-1,1.210842609E1,4.367885888E-1
3.218978945E0,-3.254677653E-1,1.224985600E1,1.001513720E0
3.220978945E0,8.629661053E-2,1.235077667E1,1.439528108E0
3.222978945E0,2.779859602E-1,1.241257572E1,1.421092749E0
3.224978945E0,-8.472601324E-2,1.243877792E1,1.071912885E0
3.226978945E0,-8.380759358E-1,1.220995903E1,2.242744446E0
3.228978945E0,2.833106816E-1,1.213102722E1,3.796083450E0
3.230996133E0,5.844054818E-1,1.219868755E1,4.031749725E0
3.232978945E0,7.687590122E-1,1.228975296E1,3.821988821E0
3.234978945E0,8.895704150E-1,1.232589626E1,3.641580820E0
3.236978945E0,1.067124367E0,1.239221573E1,3.213995695E0
3.238978945E0,1.183942318E0,1.249712944E1,2.780491590E0
3.240978945E0,1.180015922E0,1.253518772E1,2.432518482E0
3.242978945E0,1.345809460E0,1.250519371E1,2.397946358E0
3.244978945E0,1.733718038E0,1.238307953E1,2.256688118E0
3.247019570E0,2.093997478E0,1.216842461E1,2.102635860E0
3.248980508E0,2.944906473E0,1.140330505E1,2.213018179E0
3.250978945E0,3.156812429E0,1.107892895E1,2.369263649E0
3.252978945E0,3.429358721E0,1.021222782E1,2.192332268E0
3.254978945E0,1.672627568E0,9.244874954E0,1.804940820E0
3.256978945E0,-1.172775745E0,8.471959114E0,1.086843014E0
3.258978945E0,-2.027860165E0,7.807472706E0,8.555535674E-1
3.260978945E0,-1.612341642E0,7.073189735E0,5.183063149E-1
3.262978945E0,-2.259025097E0,6.389128208E0,6.204717159E-1
3.264986758E0,-3.195349455E0,5.540604115E0,1.964308500E0
3.266978945E0,-3.447908878E0,5.221169949E0,2.500398874E0
3.268978945E0,-4.096498013E0,4.548657894E0,3.115708828E0
3.270978945E0,-4.774602890E0,3.838451147E0,3.015755653E0
3.272978945E0,-5.264399529E0,3.097235203E0,2.209206581E0
3.274978945E0,-5.385105610E0,2.347754240E0,5.928618312E-1
3.276978945E0,-5.788384914E0,1.448980451E0,-2.557122231E0
3.278978945E0,-7.955348015E0,6.467409134E-1,-2.931048870E0
3.280978945E0,-9.820671082E0,3.682186604E-1,-8.063383698E-1
3.282983633E0,-1.089989090E1,3.401490152E-1,1.107050180E0
3.284978945E0,-1.140939522E1,3.590823710E-1,1.460204482E0
3.286978945E0,-1.066479874E1,4.090254307E-1,6.489148736E-1
3.288978945E0,-9.961181641E0,5.485116243E-1,-4.682771266E-1
3.290978945E0,-1.137211323E1,1.771795392E0,4.160548151E-1
3.292988320E0,-1.418860435E1,4.639445782E0,3.097311735E0
3.294982070E0,-1.517701626E1,7.253779888E0,3.632540226E0
3.296978945E0,-1.498652458E1,7.638355732E0,3.079355240E0
3.298978945E0,-1.424869919E1,7.926234245E0,1.907987237E0
3.300978945E0,-1.361405373E1,7.707710743E0,7.777324915E-1
3.302978945E0,-1.333636379E1,7.241377831E0,1.608903520E-3
3.304978945E0,-1.319596863E1,6.816378593E0,-3.104130328E-1
3.306978945E0,-1.294416523E1,6.573615551E0,-2.670109570E-1
3.308978945E0,-1.242833042E1,6.525530815E0,-1.689061373E-1
3.310978945E0,-1.163101292E1,6.600344658E0,-9.628521651E-2
3.312978945E0,-1.071301842E1,6.753841877E0,-1.045212671E-1
3.314980508E0,-9.897514343E0,6.929346561E0,-1.292390078E-1
3.316980508E0,-9.266489029E0,7.113278866E0,-6.635769457E-2
3.318980508E0,-8.736959457E0,7.313241959E0,1.093958691E-1
3.320980508E0,-8.198646545E0,7.529726028E0,3.382528126E-1
3.322980508E0,-7.642464161E0,7.727286339E0,5.722812414E-1
3.324978945E0,-7.024434566E0,7.924213886E0,8.205312490E-1
3.326978945E0,-6.343964577E0,8.139797211E0,1.055584311E0
3.328978945E0,-5.578633785E0,8.399012566E0,1.174652815E0
3.330978945E0,-4.780780315E0,8.681700706E0,1.060478091E0
3.333022695E0,-4.039228916E0,8.935400009E0,7.150714397E-1
3.334978945E0,-3.441569090E0,9.139787674E0,1.653914452E-1
3.336978945E0,-3.047550440E0,9.232807159E0,-4.409353435E-1
3.338980508E0,-2.864231348E0,9.226995468E0,-1.017870903E0
3.340980508E0,-2.897137165E0,9.106020927E0,-1.438761950E0
3.342988320E0,-3.083396435E0,8.884039879E0,-1.725434065E0
3.344978945E0,-3.383150578E0,8.596553802E0,-1.889484882E0
3.346978945E0,-3.956983328E0,8.111382484E0,-2.052577972E0
3.348978945E0,-4.150798798E0,7.951124668E0,-2.103670120E0
3.350978945E0,-4.128264427E0,7.248445988E0,-3.187017679E0
3.352978945E0,-3.371897936E0,5.313509464E0,-8.161268234E0
3.354978945E0,-3.887896299E0,4.238944054E0,-1.059693718E1
3.356978945E0,-4.693018436E0,4.618022442E0,-7.120288372E0
3.358978945E0,-5.650201321E0,5.811972618E0,-2.780309916E0
3.360985195E0,-6.118477821E0,6.692933559E0,-8.015404344E-1
3.362997695E0,-6.294585705E0,7.081014156E0,-4.643219113E-1
3.364985195E0,-6.622275829E0,7.063708782E0,-9.546160698E-1
3.366978945E0,-7.288591862E0,6.760076046E0,-1.759345531E0
3.368978945E0,-8.075431824E0,6.319849491E0,-2.704222202E0
3.370982070E0,-8.721607208E0,5.889219284E0,-3.458817005E0
3.372978945E0,-9.140535355E0,5.534762383E0,-4.033023357E0
3.374978945E0,-9.318281174E0,5.269436836E0,-4.314227104E0
3.376978945E0,-9.253713608E0,5.087630749E0,-4.345189095E0
3.378978945E0,-8.956335068E0,4.967432022E0,-3.928999901E0
3.380978945E0,-8.477092743E0,4.880235195E0,-3.109282732E0
3.382978945E0,-7.889813900E0,4.805449963E0,-1.932637930E0
3.384978945E0,-7.296272278E0,4.742942333E0,-7.616721988E-1
3.386978945E0,-6.773531914E0,4.720139980E0,1.379826367E-1
3.388988320E0,-6.345974922E0,4.727734566E0,5.377377272E-1
3.390980508E0,-6.037419796E0,4.779516220E0,4.196460843E-1
3.392986758E0,-5.820687294E0,4.877678394E0,-1.711854190E-1
3.394978945E0,-5.670896530E0,4.999505043E0,-1.088432908E0
3.396978945E0,-5.539291859E0,5.132220268E0,-2.170928001E0
3.398978945E0,-5.391789913E0,5.274330616E0,-3.219674587E0
3.400986758E0,-5.196749210E0,5.428306580E0,-4.136567593E0
3.402986758E0,-4.956255913E0,5.585175037E0,-4.809884071E0
3.404978945E0,-4.664048195E0,5.738461018E0,-5.247275829E0
3.406978945E0,-4.320672512E0,5.915449619E0,-5.443476200E0
3.408985195E0,-3.948957920E0,6.093290806E0,-5.449576855E0
3.410978945E0,-3.568825722E0,6.268728733E0,-5.298454762E0
3.412978945E0,-3.185677052E0,6.425271034E0,-5.018524647E0
3.414978945E0,-2.843210220E0,6.593056679E0,-4.644808769E0
3.416978945E0,-2.550906897E0,6.760277271E0,-4.193051815E0
3.418978945E0,-2.310825825E0,6.896488190E0,-3.730089664E0
3.421032070E0,-2.173034906E0,7.025660038E0,-3.306306362E0
3.422978945E0,-2.145310163E0,7.143206120E0,-3.013054848E0
3.424986758E0,-2.191498995E0,7.253310680E0,-2.901810884E0
3.426978945E0,-2.321092367E0,7.340421200E0,-2.962709665E0
3.428978945E0,-2.505780935E0,7.396072388E0,-3.145272493E0
3.430985195E0,-2.729198456E0,7.432454586E0,-3.386483431E0
3.433008633E0,-2.986757040E0,7.425195217E0,-3.554211617E0
3.434978945E0,-3.267300129E0,7.377981663E0,-3.638583183E0
3.436978945E0,-3.527137995E0,7.309737206E0,-3.637098789E0
3.438978945E0,-3.756157637E0,7.236781120E0,-3.598944902E0
3.440993008E0,-3.945337772E0,7.178046227E0,-3.534559965E0
3.442978945E0,-4.071263313E0,7.109898090E0,-3.483965874E0
3.444978945E0,-4.116504192E0,7.050454617E0,-3.458855152E0
3.446978945E0,-4.107827663E0,7.007397652E0,-3.494203329E0
3.448978945E0,-4.059340477E0,6.982009411E0,-3.563989401E0
3.450986758E0,-3.999925852E0,6.981233597E0,-3.667773485E0
3.452978945E0,-3.931250572E0,7.004380703E0,-3.773836374E0
3.454978945E0,-3.871146441E0,7.052331924E0,-3.881795883E0
3.456978945E0,-3.823789120E0,7.113671303E0,-3.955460787E0
3.459014883E0,-3.768511772E0,7.182969093E0,-4.005288601E0
3.461021133E0,-3.727034569E0,7.264314651E0,-4.019903183E0
3.462978945E0,-3.671106100E0,7.336772442E0,-4.000969887E0
3.464978945E0,-3.605351925E0,7.410734177E0,-3.952415228E0
3.466978945E0,-3.532433748E0,7.472619534E0,-3.869997263E0
3.468978945E0,-3.445610523E0,7.527877808E0,-3.773635149E0
3.470996133E0,-3.360530376E0,7.546389580E0,-3.670732737E0
3.472985195E0,-3.275880814E0,7.544273376E0,-3.555073500E0
3.474978945E0,-3.195215225E0,7.526240349E0,-3.439395189E0
3.476978945E0,-3.124835491E0,7.514929771E0,-3.310673237E0
3.478978945E0,-3.063428879E0,7.494291782E0,-3.176100016E0
3.480982070E0,-3.021693230E0,7.465829372E0,-3.034976244E0
3.482978945E0,-3.004933834E0,7.439263821E0,-2.903707027E0
3.484978945E0,-2.978530407E0,7.421824455E0,-2.800880909E0
3.486978945E0,-2.918800116E0,7.402239799E0,-2.756722212E0
3.488978945E0,-2.849157572E0,7.397250175E0,-2.771451235E0
3.490985195E0,-2.767869711E0,7.386399269E0,-2.836152077E0
3.492980508E0,-2.671488523E0,7.381419659E0,-2.934266567E0
3.494978945E0,-2.595161438E0,7.370837212E0,-3.016655684E0
3.496978945E0,-2.561853170E0,7.355772972E0,-3.078723192E0
3.498978945E0,-2.582424402E0,7.336284161E0,-3.069663525E0
3.501030508E0,-2.654432297E0,7.335690498E0,-2.994006634E0
3.502978945E0,-2.751847744E0,7.341570377E0,-2.882963657E0
3.504978945E0,-2.883480787E0,7.363606930E0,-2.775779963E0
3.506978945E0,-3.019538641E0,7.415742874E0,-2.722734213E0
3.508978945E0,-3.159407616E0,7.476162910E0,-2.705936193E0
3.510988320E0,-3.293224335E0,7.542147160E0,-2.697030067E0
3.512978945E0,-3.404382229E0,7.602231979E0,-2.690536976E0
3.514978945E0,-3.493379593E0,7.652002811E0,-2.661001921E0
3.516978945E0,-3.556538820E0,7.670907021E0,-2.612428427E0
3.518978945E0,-3.602038145E0,7.682571888E0,-2.550188780E0
3.520980508E0,-3.633900166E0,7.668924809E0,-2.469475269E0
3.523000820E0,-3.654528618E0,7.644494534E0,-2.371581316E0
3.524978945E0,-3.699597120E0,7.615639687E0,-2.247705221E0
3.526978945E0,-3.757009983E0,7.581239700E0,-2.060162544E0
3.528985195E0,-3.813723803E0,7.529352665E0,-1.833891511E0
3.530978945E0,-3.875657082E0,7.468099117E0,-1.570854902E0
3.533021133E0,-3.930532217E0,7.421354771E0,-1.321944118E0
3.534978945E0,-3.962145329E0,7.380796909E0,-1.110095620E0
3.536978945E0,-3.979345322E0,7.368203640E0,-8.742284179E-1
3.538978945E0,-3.952549219E0,7.378862858E0,-5.895290375E-1
3.540978945E0,-3.891152382E0,7.420742035E0,-2.928779125E-1
3.542978945E0,-3.832829475E0,7.487319946E0,-4.747223109E-2
3.544978945E0,-3.775368929E0,7.562804222E0,7.784985751E-2
3.546978945E0,-3.760371685E0,7.602050304E0,8.264784515E-2
3.548978945E0,-3.798084974E0,7.673923969E0,-2.972640842E-2
3.550986758E0,-3.913102388E0,7.722985744E0,-2.840576768E-1
3.552978945E0,-4.092734814E0,7.754684925E0,-6.222913265E-1
3.554978945E0,-4.314236164E0,7.748383999E0,-9.798414111E-1
3.556993008E0,-4.614048004E0,7.742714405E0,-1.444211125E0
3.558986758E0,-4.723682880E0,7.746497154E0,-1.679302573E0
3.560978945E0,-4.738766670E0,7.757702351E0,-1.773298979E0
3.562978945E0,-4.676268578E0,7.783492088E0,-1.919728398E0
3.564978945E0,-4.458625793E0,7.848968983E0,-2.028070688E0
3.566978945E0,-4.089018822E0,7.945206165E0,-2.112528563E0
3.568978945E0,-3.635978222E0,8.061047554E0,-2.162816525E0
3.570978945E0,-3.142332315E0,8.190237999E0,-2.199352026E0
3.572993008E0,-2.665809631E0,8.298341751E0,-2.220727444E0
3.575025820E0,-2.124298573E0,8.369353294E0,-2.287372351E0
3.576982070E0,-1.905152440E0,8.364450455E0,-2.364197493E0
3.578980508E0,-1.836706996E0,8.348332405E0,-2.412943602E0
3.580985195E0,-1.776143312E0,8.274916649E0,-2.540171385E0
3.582994570E0,-1.850382686E0,8.121093750E0,-2.753648043E0
3.584978945E0,-1.989074111E0,8.004793167E0,-2.897070408E0
3.586978945E0,-2.075773001E0,7.940408230E0,-2.963092804E0
3.588980508E0,-2.276493073E0,7.800318718E0,-3.078033686E0
3.590980508E0,-2.518317223E0,7.659692764E0,-3.167145729E0
3.592980508E0,-2.781497240E0,7.524046898E0,-3.236788273E0
3.594980508E0,-3.068810940E0,7.395947933E0,-3.271714926E0
3.596980508E0,-3.375154018E0,7.278746605E0,-3.270517826E0
3.598978945E0,-3.699194908E0,7.160999775E0,-3.237238407E0
3.600988320E0,-4.016168118E0,7.031253338E0,-3.179059267E0
3.602991445E0,-4.482424259E0,6.873456001E0,-3.073704720E0
3.604988320E0,-4.776576042E0,6.792484283E0,-3.020745039E0
3.606978945E0,-4.914721489E0,6.753975868E0,-3.004914522E0
3.608978945E0,-5.174827576E0,6.683519363E0,-2.992799997E0
3.610980508E0,-5.416115284E0,6.650613308E0,-3.005259514E0
3.612980508E0,-5.609978676E0,6.638987541E0,-3.066656351E0
3.614980508E0,-5.760229111E0,6.643679619E0,-3.156400681E0
3.616980508E0,-5.842148781E0,6.662096024E0,-3.273390770E0
3.618978945E0,-5.867105961E0,6.704866409E0,-3.407858849E0
3.620978945E0,-5.835253716E0,6.750806332E0,-3.563568115E0
3.622978945E0,-5.733126640E0,6.805480003E0,-3.725378036E0
3.624978945E0,-5.584379673E0,6.870200157E0,-3.856062889E0
3.626978945E0,-5.365932465E0,6.948768139E0,-3.952874899E0
3.628978945E0,-5.115690708E0,7.013612747E0,-4.011015415E0
3.630978945E0,-4.857701302E0,7.055741310E0,-4.036116600E0
3.632978945E0,-4.611855030E0,7.095771790E0,-4.034373760E0
3.634978945E0,-4.388762951E0,7.107091904E0,-4.025189400E0
3.636980508E0,-4.186280727E0,7.090917110E0,-4.012777805E0
3.639008633E0,-3.971473217E0,7.056124210E0,-4.022498131E0
3.640980508E0,-3.645622253E0,6.943098545E0,-4.097561359E0
3.642994570E0,-3.570472956E0,6.885417461E0,-4.129011631E0
3.644991445E0,-3.329587698E0,6.666836262E0,-4.171628475E0
3.646985195E0,-3.285696983E0,6.437366486E0,-4.184260368E0
3.648978945E0,-3.413997650E0,6.343715191E0,-4.226646900E0
3.650978945E0,-3.331493378E0,6.353780270E0,-4.393254757E0
3.652978945E0,-3.202522516E0,6.405437469E0,-4.632761002E0
3.654978945E0,-3.190293074E0,6.458598614E0,-4.851658344E0
3.656978945E0,-3.319436312E0,6.519066334E0,-5.038348675E0
3.658980508E0,-3.532807350E0,6.560811520E0,-5.195168495E0
3.661005508E0,-3.758130550E0,6.587397099E0,-5.347181320E0
3.662980508E0,-3.919126272E0,6.603849888E0,-5.487213612E0
3.664988320E0,-3.978301287E0,6.617046833E0,-5.586697102E0
3.666978945E0,-3.942053080E0,6.628740311E0,-5.606731892E0
3.668978945E0,-3.803313971E0,6.665428638E0,-5.523844719E0
3.670978945E0,-3.565531254E0,6.740827084E0,-5.321869850E0
3.672978945E0,-3.254581928E0,6.858219624E0,-5.049093723E0
3.674978945E0,-2.922525406E0,7.010701656E0,-4.752959251E0
3.677010195E0,-2.643351793E0,7.202026844E0,-4.493706226E0
3.678978945E0,-2.455608130E0,7.405026436E0,-4.329157352E0
3.680980508E0,-2.367722034E0,7.609951019E0,-4.259438038E0
3.682978945E0,-2.375795126E0,7.797694683E0,-4.276742935E0
3.684978945E0,-2.455914497E0,7.963382721E0,-4.347889423E0
3.686978945E0,-2.592709780E0,8.092248917E0,-4.415290833E0
3.688978945E0,-2.765321970E0,8.196137428E0,-4.445074558E0
3.690978945E0,-2.965372086E0,8.272474289E0,-4.394403934E0
3.692978945E0,-3.229825974E0,8.299337387E0,-4.290275574E0
3.694978945E0,-3.500294209E0,8.307333946E0,-4.167078972E0
3.696978945E0,-3.700248241E0,8.330682755E0,-4.026463032E0
3.698978945E0,-3.761166334E0,8.377522469E0,-3.898947954E0
3.700978945E0,-3.673251152E0,8.468645096E0,-3.773300409E0
3.702978945E0,-3.449805260E0,8.592377663E0,-3.622848749E0
3.704978945E0,-3.180859804E0,8.743165016E0,-3.436541319E0
3.706978945E0,-2.882570982E0,8.909312248E0,-3.188473463E0
3.708978945E0,-2.585699558E0,9.090075493E0,-2.876461029E0
3.710978945E0,-2.318994999E0,9.231601715E0,-2.508242369E0
3.712978945E0,-2.083003521E0,9.359259605E0,-2.098374128E0
3.714978945E0,-1.870331168E0,9.437732697E0,-1.662514567E0
3.716978945E0,-1.728220940E0,9.505651474E0,-1.200941205E0
3.718978945E0,-1.639520645E0,9.555152893E0,-6.679152250E-1
3.720978945E0,-1.593475342E0,9.623494148E0,-6.087018549E-2
3.722978945E0,-1.579502702E0,9.694706917E0,5.505227447E-1
3.724978945E0,-1.570778370E0,9.752963066E0,1.110947847E0
3.726978945E0,-1.559238315E0,9.804437637E0,1.546807528E0
3.728978945E0,-1.526073694E0,9.873209000E0,1.812190413E0
3.730978945E0,-1.467109323E0,9.974196434E0,1.929247737E0
3.732978945E0,-1.408959031E0,1.011919880E1,1.925733089E0
3.734978945E0,-1.330678105E0,1.031787872E1,1.831296086E0
3.736978945E0,-1.257405996E0,1.054842186E1,1.674341917E0
3.738978945E0,-1.204589963E0,1.079462242E1,1.496950626E0
3.741007070E0,-1.199064136E0,1.104585075E1,1.299601436E0
3.742978945E0,-1.263659716E0,1.127098274E1,1.079564691E0
3.744978945E0,-1.389613748E0,1.146831226E1,8.540883660E-1
3.746978945E0,-1.553712368E0,1.165097046E1,5.977268219E-1
3.748978945E0,-1.719458222E0,1.181813335E1,3.422846496E-1
3.750978945E0,-1.830999255E0,1.194764996E1,1.294401288E-1
3.752978945E0,-1.883882403E0,1.205777454E1,-2.291729860E-2
3.754978945E0,-1.892731309E0,1.213238811E1,-7.288907468E-2
3.756978945E0,-1.902202845E0,1.217668915E1,2.425805107E-2
3.758978945E0,-1.898870111E0,1.220490360E1,2.316437960E-1
3.760978945E0,-1.897203684E0,1.220980644E1,4.841267467E-1
3.762978945E0,-1.872505069E0,1.222154713E1,6.893576980E-1
3.764978945E0,-1.775099516E0,1.223548126E1,8.090007305E-1
3.766978945E0,-1.582557797E0,1.227369308E1,8.454405069E-1
3.768978945E0,-1.313679338E0,1.235160065E1,8.444061875E-1
3.770978945E0,-1.007288456E0,1.246566963E1,8.585798740E-1
3.772978945E0,-7.328556180E-1,1.260139275E1,9.147956967E-1
3.774978945E0,-5.658934712E-1,1.274706554E1,1.005823255E0
3.776978945E0,-5.286397338E-1,1.288331413E1,1.146822691E0
3.778978945E0,-6.740157008E-1,1.297850800E1,1.320124507E0
3.780978945E0,-9.726875424E-1,1.301711273E1,1.499450207E0
3.782999258E0,-1.402963877E0,1.301023579E1,1.675816655E0
3.784978945E0,-1.913072467E0,1.294165611E1,1.802958369E0
3.786978945E0,-2.434941292E0,1.282344055E1,1.829304218E0
3.788978945E0,-2.908476353E0,1.267913628E1,1.750343442E0
3.790978945E0,-3.307819605E0,1.250266457E1,1.602065682E0
3.792978945E0,-3.581792831E0,1.231341839E1,1.424004197E0
3.794985195E0,-3.737942696E0,1.213240623E1,1.268639684E0
3.796988320E0,-3.736371994E0,1.197669697E1,1.151352406E0
3.798978945E0,-3.555140734E0,1.184768772E1,1.067478776E0
3.800978945E0,-3.207942963E0,1.173518944E1,9.918794632E-1
3.802978945E0,-2.728173494E0,1.162413692E1,9.049220681E-1
3.804978945E0,-2.134239197E0,1.149551105E1,8.594705462E-1
3.806978945E0,-1.495657802E0,1.135062313E1,8.490701318E-1
3.808978945E0,-8.914379478E-1,1.121985149E1,8.641535640E-1
3.810983633E0,-4.237545431E-1,1.106186295E1,9.171420336E-1
3.812985195E0,-1.678335369E-1,1.087934875E1,9.966965914E-1
3.815022695E0,-1.217020676E-1,1.068742847E1,1.093240380E0
3.816985195E0,-3.004914522E-1,1.047732353E1,1.203546047E0
3.818978945E0,-6.656838655E-1,1.026126099E1,1.309216499E0
3.820994570E0,-1.151591897E0,1.004600334E1,1.431043148E0
3.823000820E0,-1.719314575E0,9.848232269E0,1.622004628E0
3.824978945E0,-2.323218584E0,9.699925423E0,1.900766373E0
3.826978945E0,-2.938758135E0,9.578846931E0,2.206036568E0
3.828978945E0,-3.502113819E0,9.534036636E0,2.532098055E0
3.830978945E0,-3.937360287E0,9.582582474E0,2.900690079E0
3.833016445E0,-4.289288998E0,9.666608810E0,3.325584412E0
3.834978945E0,-4.552928925E0,9.768707275E0,3.813762188E0
3.836978945E0,-4.757604599E0,9.893798828E0,4.304219246E0
3.838978945E0,-4.909923553E0,1.001237869E1,4.679170609E0
3.840988320E0,-4.994343281E0,1.013206100E1,4.871549129E0
3.842978945E0,-5.007319927E0,1.024357319E1,4.824393272E0
3.844978945E0,-4.906648636E0,1.035279560E1,4.571000576E0
3.846978945E0,-4.670924664E0,1.045189762E1,4.163420677E0
3.848978945E0,-4.356355667E0,1.054098034E1,3.676066875E0
3.850978945E0,-3.936623096E0,1.061106300E1,3.242524862E0
3.852978945E0,-3.422951937E0,1.066640854E1,2.895930767E0
3.854978945E0,-2.850258827E0,1.071157265E1,2.634024143E0
3.856978945E0,-2.294095516E0,1.073619461E1,2.409677744E0
3.858978945E0,-1.776306152E0,1.074646950E1,2.198978424E0
3.860978945E0,-1.328226447E0,1.073156834E1,1.972850919E0
3.862978945E0,-9.316987991E-1,1.068945026E1,1.768836141E0
3.864978945E0,-5.660467744E-1,1.061381245E1,1.614429355E0
3.866978945E0,-2.709853351E-1,1.050864983E1,1.522606969E0
3.868978945E0,-2.639367804E-2,1.036722851E1,1.492392063E0
3.870978945E0,5.953900889E-2,1.028153515E1,1.500513196E0
3.872978945E0,1.334432214E-1,1.011722565E1,1.538820386E0
3.874978945E0,1.051820666E-1,9.973736763E0,1.582529068E0
3.876986758E0,4.146757070E-3,9.868066788E0,1.644921899E0
3.878978945E0,-3.009703159E-1,9.811323166E0,1.707793713E0
3.880978945E0,-6.164016128E-1,9.855817795E0,1.726286530E0
3.882978945E0,-7.860260010E-1,9.890734673E0,1.725951314E0
3.884978945E0,-1.141248941E0,9.984271049E0,1.715819001E0
3.886978945E0,-1.516056418E0,1.010201740E1,1.706730604E0
3.888978945E0,-1.902710438E0,1.020159721E1,1.699346900E0
3.890978945E0,-2.236538887E0,1.026625061E1,1.678574800E0
3.892978945E0,-2.505541801E0,1.031080151E1,1.666048288E0
3.894978945E0,-2.718587399E0,1.034480953E1,1.670128107E0
3.897016445E0,-2.857135057E0,1.034772110E1,1.700065136E0
3.898983633E0,-2.932245731E0,1.034661961E1,1.803341389E0
3.901007070E0,-2.900240183E0,1.033184147E1,1.940854907E0
3.902993008E0,-2.763042688E0,1.029935741E1,2.120017767E0
3.904978945E0,-2.645659924E0,1.028826714E1,2.209158659E0
3.906978945E0,-2.319809198E0,1.026119423E1,2.381857157E0
3.908978945E0,-1.923156857E0,1.021055222E1,2.531849146E0
3.910978945E0,-1.508481145E0,1.015233517E1,2.648724556E0
3.912978945E0,-1.112346053E0,1.006311703E1,2.727665901E0
3.914978945E0,-8.154363632E-1,9.932394028E0,2.751991272E0
3.916978945E0,-6.791583896E-1,9.774787903E0,2.752230644E0
3.918978945E0,-7.620552182E-1,9.632543564E0,2.757057428E0
3.920978945E0,-1.050537348E0,9.538203239E0,2.781257868E0
3.922993008E0,-1.441826582E0,9.479899406E0,2.843995571E0
3.924978945E0,-1.831142902E0,9.434802055E0,2.986881495E0
3.926978945E0,-2.153536558E0,9.413339615E0,3.167059660E0
3.928982070E0,-2.493781328E0,9.384284019E0,3.441760778E0
3.930978945E0,-2.579963207E0,9.368195534E0,3.516431093E0
3.932983633E0,-2.702134371E0,9.339090347E0,3.619295597E0
3.934988320E0,-2.800220013E0,9.296407700E0,3.657439947E0
3.936978945E0,-2.847989082E0,9.238409996E0,3.652718544E0
3.938978945E0,-2.868790150E0,9.172714233E0,3.599395037E0
3.940980508E0,-2.859883547E0,9.120538712E0,3.517350435E0
3.942978945E0,-2.826230764E0,9.082595825E0,3.435171843E0
3.944978945E0,-2.765063524E0,9.049135208E0,3.351518631E0
3.946978945E0,-2.685681343E0,9.019369125E0,3.275660753E0
3.948978945E0,-2.588170528E0,8.987258911E0,3.199132442E0
3.950980508E0,-2.481273890E0,8.952619553E0,3.118974447E0
3.952980508E0,-2.339748144E0,8.904438019E0,3.034669876E0
3.954980508E0,-2.176147461E0,8.844094276E0,2.936498165E0
3.956980508E0,-2.004483223E0,8.785667419E0,2.837780237E0
3.958980508E0,-1.841102839E0,8.725591660E0,2.755601645E0
3.960978945E0,-1.725922465E0,8.651352882E0,2.690977335E0
3.962978945E0,-1.694864988E0,8.583059311E0,2.656424284E0
3.964978945E0,-1.723212242E0,8.510286331E0,2.658282280E0
3.966978945E0,-1.813263059E0,8.438488007E0,2.718108416E0
3.968978945E0,-1.923348427E0,8.369459152E0,2.823233128E0
3.970978945E0,-2.059262514E0,8.339818001E0,2.946141958E0
3.972986758E0,-2.197350264E0,8.332521439E0,3.064099312E0
3.974978945E0,-2.316524267E0,8.338564873E0,3.162692547E0
3.976978945E0,-2.381215572E0,8.397920609E0,3.260433435E0
3.978978945E0,-2.379472733E0,8.498266220E0,3.327298880E0
3.981005508E0,-2.334049702E0,8.625820160E0,3.400139809E0
3.982978945E0,-2.263775110E0,8.763784409E0,3.478526115E0
3.984978945E0,-2.183320284E0,8.905837059E0,3.554048777E0
3.986978945E0,-2.088452578E0,9.035774231E0,3.637117863E0
3.988999258E0,-2.017852306E0,9.164296150E0,3.714421988E0
3.991014883E0,-1.992157698E0,9.268116951E0,3.784543514E0
3.992983633E0,-2.006963491E0,9.353283882E0,3.855095625E0
3.994978945E0,-2.080915451E0,9.402958870E0,3.919614792E0
3.996978945E0,-2.192408800E0,9.447989464E0,3.988404751E0
3.998978945E0,-2.323582172E0,9.478289604E0,4.068275452E0
4.000978945E0,-2.496711969E0,9.485558510E0,4.129509449E0
4.002978945E0,-2.661605120E0,9.478712082E0,4.177517891E0
4.004978945E0,-2.780865192E0,9.453754425E0,4.228715897E0
4.007008633E0,-2.833566427E0,9.439341545E0,4.278802395E0
4.009022695E0,-2.772782564E0,9.414422989E0,4.331312180E0
4.010988320E0,-2.578708410E0,9.406521797E0,4.368919849E0
4.012978945E0,-2.256334066E0,9.415820122E0,4.401615143E0
4.014978945E0,-1.807095528E0,9.438642502E0,4.420491219E0
4.016978945E0,-1.268955708E0,9.445920944E0,4.444069386E0
4.018978945E0,-6.858621836E-1,9.466893196E0,4.486992836E0
4.020978945E0,-1.380305141E-1,9.504041672E0,4.496952534E0
4.022978945E0,2.905986309E-1,9.540596962E0,4.446760178E0
4.024978945E0,5.747328997E-1,9.603134155E0,4.340400219E0
4.026978945E0,7.128208876E-1,9.667710304E0,4.178044796E0
4.028978945E0,6.980821490E-1,9.749304771E0,3.991507769E0
4.030978945E0,5.225584507E-1,9.830717087E0,3.787435532E0
4.033007070E0,2.306095064E-1,9.892601967E0,3.597642422E0
4.034978945E0,-1.296603829E-1,9.963700294E0,3.431245327E0
4.036978945E0,-5.337537527E-1,1.004070663E1,3.298989773E0
4.038993008E0,-9.320818186E-1,1.010266018E1,3.207579136E0
4.040978945E0,-1.289421320E0,1.014934635E1,3.160461187E0
4.042978945E0,-1.570864558E0,1.019409847E1,3.164435625E0
4.044978945E0,-1.754988194E0,1.022478294E1,3.212798357E0
4.046978945E0,-1.856981158E0,1.022866249E1,3.288349867E0
4.048978945E0,-1.882321358E0,1.022923660E1,3.377682447E0
4.050978945E0,-1.815475225E0,1.022342300E1,3.450810909E0
4.052978945E0,-1.676908493E0,1.022260952E1,3.502736330E0
4.054978945E0,-1.483255863E0,1.021112728E1,3.526027203E0
4.057018008E0,-1.271589279E0,1.019570827E1,3.527789116E0
4.058978945E0,-1.107624769E0,1.016559887E1,3.507735252E0
4.061007070E0,-1.015811920E0,1.011663151E1,3.462465763E0
4.062978945E0,-9.899162054E-1,1.004999733E1,3.395629168E0
4.064978945E0,-1.039734721E0,9.959170341E0,3.314571142E0
4.066978945E0,-1.142848253E0,9.838224411E0,3.217663288E0
4.068978945E0,-1.323840380E0,9.704676628E0,3.134268522E0
4.070978945E0,-1.530555606E0,9.552807808E0,3.068657875E0
4.072978945E0,-1.770952582E0,9.420245171E0,3.023599148E0
4.074978945E0,-2.028023005E0,9.260953903E0,3.006274700E0
4.076978945E0,-2.284480333E0,9.121017456E0,2.988394737E0
4.078978945E0,-2.502036572E0,8.980871201E0,2.983539343E0
4.080978945E0,-2.676362991E0,8.839785576E0,2.984803438E0
4.082978945E0,-2.806396961E0,8.722268105E0,2.981949568E0
4.084978945E0,-2.882523298E0,8.627161026E0,2.965017557E0
4.086978945E0,-2.858054399E0,8.562220573E0,2.939093351E0
4.088980508E0,-2.724046230E0,8.524000168E0,2.889945030E0
4.090978945E0,-2.501576900E0,8.503964424E0,2.831622362E0
4.092978945E0,-2.214703560E0,8.501426697E0,2.764728308E0
4.094978945E0,-1.867094278E0,8.528903008E0,2.694712400E0
4.096978945E0,-1.509132266E0,8.563092232E0,2.641293049E0
4.098978945E0,-1.217987895E0,8.592119217E0,2.567474842E0
4.101000820E0,-1.051542997E0,8.596094131E0,2.484089613E0
4.102978945E0,-1.044973254E0,8.593852997E0,2.377030611E0
4.104978945E0,-1.157989144E0,8.580138206E0,2.240551472E0
4.106978945E0,-1.366322994E0,8.552596092E0,2.099695683E0
4.108978945E0,-1.611757398E0,8.499167442E0,1.951963902E0
4.110978945E0,-1.917066097E0,8.426095963E0,1.819823146E0
4.112988320E0,-2.233886003E0,8.360782623E0,1.716882110E0
4.114978945E0,-2.527127743E0,8.287078857E0,1.639616370E0
4.116978945E0,-2.805420160E0,8.205360413E0,1.600188613E0
4.118978945E0,-3.059904814E0,8.113949776E0,1.606949806E0
4.120985195E0,-3.232009411E0,8.035017967E0,1.646751046E0
4.122978945E0,-3.332671404E0,7.952647686E0,1.701712370E0
4.124978945E0,-3.395226955E0,7.879451752E0,1.765867472E0
4.126978945E0,-3.390381098E0,7.818102837E0,1.821614027E0
4.128978945E0,-3.328351974E0,7.761522770E0,1.873290420E0
4.130978945E0,-3.239086628E0,7.727573395E0,1.942425370E0
4.132978945E0,-3.134239912E0,7.706073284E0,2.023713350E0
4.134978945E0,-3.038797379E0,7.701907158E0,2.123312235E0
4.136978945E0,-2.998536587E0,7.695242405E0,2.208248854E0
4.138978945E0,-2.985579014E0,7.705670834E0,2.263708353E0
4.140978945E0,-3.030781746E0,7.711053371E0,2.269578695E0
4.142978945E0,-3.140474319E0,7.734305859E0,2.239124537E0
4.144978945E0,-3.255348206E0,7.772938251E0,2.176827431E0
4.146978945E0,-3.392421007E0,7.813745499E0,2.086173296E0
4.148978945E0,-3.527702808E0,7.855212688E0,1.988422871E0
