"Time (s)","Acceleration x (m/s^2)","Acceleration y (m/s^2)","Acceleration z (m/s^2)"
2.876428000E-3,4.943672180E0,2.556940317E0,7.715898991E0
4.881115000E-3,4.860038280E0,2.590124130E0,7.869664669E0
8.876428000E-3,4.676919937E0,2.674016953E0,8.183640480E0
1.087642800E-2,4.602632523E0,2.722331762E0,8.360418320E0
1.287799000E-2,4.554413319E0,2.779064894E0,8.542426109E0
1.487955300E-2,3.913140535E0,2.452447653E0,7.501215935E0
1.887642800E-2,3.981672287E0,2.585402489E0,7.851880550E0
2.087642800E-2,4.229903221E0,2.817142248E0,8.485769272E0
2.287955300E-2,4.400657654E0,2.988538265E0,8.881665230E0
2.687642800E-2,4.635433197E0,3.275124311E0,9.369564056E0
2.887642800E-2,4.743612766E0,3.394384384E0,9.543077469E0
3.087642800E-2,4.787350178E0,3.447765350E0,9.622966766E0
3.287642800E-2,4.883041382E0,3.547718525E0,9.747369766E0
3.487642800E-2,5.030591488E0,3.692136765E0,9.875133514E0
3.687642800E-2,5.069281578E0,3.733106375E0,9.935985565E0
3.887642800E-2,5.147964954E0,3.801503897E0,1.004314899E1
4.087642800E-2,5.216314316E0,3.836305857E0,1.012711906E1
4.287642800E-2,5.278324127E0,3.859108448E0,1.017010975E1
4.487642800E-2,5.346194744E0,3.853448391E0,1.018386173E1
4.687642800E-2,5.403378010E0,3.813848495E0,1.017873859E1
4.887642800E-2,5.459163189E0,3.759337187E0,1.014740276E1
5.087642800E-2,5.507573605E0,3.681353331E0,1.009169388E1
5.287642800E-2,5.548677444E0,3.585824728E0,1.001788616E1
5.487955300E-2,5.585490704E0,3.466219902E0,9.924684525E0
5.887642800E-2,5.680521488E0,3.243578434E0,9.738961220E0
6.087642800E-2,5.743067265E0,3.087581873E0,9.585569382E0
6.287642800E-2,5.781001091E0,2.924526930E0,9.447951317E0
6.487642800E-2,5.703342915E0,2.669420004E0,9.296809196E0
6.687642800E-2,5.712526798E0,2.520241976E0,9.168902397E0
6.887642800E-2,5.763293266E0,2.435832024E0,9.064878464E0
7.087642800E-2,5.799378872E0,2.375957727E0,8.968871117E0
7.287799000E-2,5.822689056E0,2.330908775E0,8.864771843E0
7.687642800E-2,5.835703850E0,2.290609360E0,8.625035286E0
7.887642800E-2,5.813810825E0,2.286031723E0,8.468999863E0
8.087642800E-2,5.766492367E0,2.265786409E0,8.277750969E0
8.287642800E-2,5.717842102E0,2.236711264E0,8.065912247E0
8.487642800E-2,5.651886940E0,2.227277994E0,7.835044384E0
8.687642800E-2,5.584973812E0,2.218141556E0,7.611166954E0
8.887642800E-2,5.529159546E0,2.201391935E0,7.380758762E0
9.087642800E-2,5.485374451E0,2.189296484E0,7.160789013E0
9.287642800E-2,5.437059402E0,2.167633533E0,7.003691196E0
9.487642800E-2,5.400639057E0,2.152167082E0,7.004505157E0
9.687642800E-2,5.398216248E0,2.161542654E0,6.890579700E0
9.887642800E-2,5.389060497E0,2.154293299E0,6.689811707E0
1.008764280E-1,5.395726204E0,2.142446518E0,6.485384941E0
1.028764280E-1,5.428019047E0,2.115717888E0,6.292852402E0
1.048764280E-1,5.492537975E0,2.092273712E0,6.128236771E0
1.068764280E-1,5.589474678E0,2.078339338E0,6.019003868E0
1.088764280E-1,5.715898037E0,2.054972172E0,5.954331398E0
1.108764280E-1,5.849015713E0,2.042464733E0,5.919538975E0
1.128764280E-1,6.027805328E0,1.984745383E0,5.866952896E0
1.148873650E-1,6.288792133E0,1.878404379E0,5.742502213E0
1.188764280E-1,6.790846825E0,1.687021613E0,5.342526913E0
1.208764280E-1,6.865124702E0,1.502074242E0,5.276514053E0
1.228842400E-1,6.809952736E0,1.350032806E0,5.325480461E0
1.268764280E-1,6.950463295E0,1.062345624E0,5.492605209E0
1.288764280E-1,7.094029427E0,9.230605364E-1,5.576469421E0
1.308764280E-1,7.190544605E0,7.999985218E-1,5.683317661E0
1.328764280E-1,7.234473228E0,7.089901567E-1,5.797540188E0
1.348764280E-1,7.245361805E0,6.196385622E-1,5.903564930E0
1.368764280E-1,7.226543427E0,5.338304043E-1,5.988760471E0
1.388795530E-1,7.185276985E0,4.603187740E-1,6.035629272E0
1.428764280E-1,7.003681660E0,3.272395134E-1,5.951813221E0
1.448764280E-1,6.908258438E0,2.522147894E-1,5.777429104E0
1.468811150E-1,6.793872833E0,2.120017707E-1,5.614603996E0
1.508764280E-1,6.629113674E0,2.458462119E-1,5.570540905E0
1.528764280E-1,6.558800697E0,2.803514302E-1,5.645173550E0
1.548764280E-1,6.504615307E0,3.069653809E-1,5.725225449E0
1.568764280E-1,6.447814941E0,3.176818192E-1,5.809884548E0
1.588764280E-1,6.374437332E0,3.317022622E-1,5.905049324E0
1.608764280E-1,6.285152912E0,3.593983948E-1,6.025430202E0
1.628764280E-1,6.172596455E0,3.820666969E-1,6.167655468E0
1.648826780E-1,6.043893814E0,3.997454941E-1,6.356213093E0
1.688764280E-1,5.705890179E0,4.706713259E-1,6.881855011E0
1.708764280E-1,5.525022507E0,5.142553449E-1,7.200398922E0
1.728764280E-1,5.328545094E0,5.609039664E-1,7.546102524E0
1.748764280E-1,5.116773129E0,6.092094183E-1,7.914464951E0
1.768764280E-1,4.905144691E0,6.546992064E-1,8.298169136E0
1.788764280E-1,4.692137241E0,7.142190933E-1,8.705385208E0
1.808858030E-1,4.464438915E0,7.808353901E-1,9.147105217E0
1.848764280E-1,3.996075869E0,9.065117836E-1,1.002826691E1
1.868764280E-1,3.764958858E0,9.607740045E-1,1.039420605E1
1.888795530E-1,3.518212318E0,1.008571863E0,1.066120815E1
1.928764280E-1,2.972803593E0,1.076442599E0,1.095863438E1
1.948764280E-1,2.682990313E0,1.102625608E0,1.101567364E1
1.968764280E-1,2.491147757E0,1.134343982E0,1.098667622E1
1.988764280E-1,2.330583096E0,1.151237607E0,1.095877838E1
2.008764280E-1,2.205644131E0,1.170745492E0,1.094093609E1
2.028764280E-1,2.154302835E0,1.187476158E0,1.090750408E1
2.048764280E-1,2.171176910E0,1.204197288E0,1.087220383E1
2.068795530E-1,2.248720407E0,1.221090674E0,1.082528687E1
2.108764280E-1,2.563011885E0,1.263736367E0,1.066275024E1
2.128764280E-1,2.762947083E0,1.297695637E0,1.054440880E1
2.148826780E-1,2.984104156E0,1.325123668E0,1.041490269E1
2.188764280E-1,3.418785810E0,1.358460426E0,1.009100533E1
2.208764280E-1,3.627177238E0,1.372931004E0,9.921092987E0
2.228764280E-1,3.804357767E0,1.373821616E0,9.750098228E0
2.248764280E-1,3.954962730E0,1.366983771E0,9.585090637E0
2.268764280E-1,4.088951588E0,1.356171608E0,9.428251266E0
2.288764280E-1,4.207493782E0,1.341356277E0,9.292595863E0
2.308764280E-1,4.312350273E0,1.335859299E0,9.181169510E0
2.328764280E-1,4.387374401E0,1.301957250E0,9.089634895E0
2.348764280E-1,4.460445881E0,1.271445513E0,8.992909431E0
2.368764280E-1,4.534550667E0,1.226846457E0,8.879490852E0
2.388764280E-1,4.602316380E0,1.165956974E0,8.734038353E0
2.408826780E-1,4.651244164E0,1.080340505E0,8.574766159E0
2.448764280E-1,4.770217419E0,8.763927817E-1,8.197037697E0
2.468764280E-1,4.834382057E0,7.671118379E-1,8.020843506E0
2.488826780E-1,4.858026981E0,6.544694304E-1,7.882018566E0
2.528764280E-1,4.829755783E0,4.799991548E-1,7.711617947E0
2.548764280E-1,4.776882172E0,4.392881095E-1,7.631709576E0
2.568764280E-1,4.710639477E0,4.263019860E-1,7.575972557E0
2.588764280E-1,4.642347813E0,4.303433895E-1,7.535481930E0
2.608764280E-1,4.599069595E0,4.576947689E-1,7.537876129E0
2.628764280E-1,4.576823235E0,5.100607276E-1,7.581431389E0
2.648764280E-1,4.565886021E0,5.704041719E-1,7.647644997E0
2.668764280E-1,4.558234215E0,6.434848309E-1,7.739984989E0
2.688764280E-1,4.539004326E0,7.283735871E-1,7.846258640E0
2.708764280E-1,4.518509865E0,8.132432699E-1,7.942533970E0
2.728920530E-1,4.477147579E0,8.811907172E-1,8.032738686E0
2.768779900E-1,4.335535049E0,1.008227110E0,8.172166824E0
2.788936150E-1,4.257436752E0,1.082351565E0,8.205810547E0
2.808936150E-1,4.183972836E0,1.138078928E0,8.222493172E0
2.848764280E-1,4.013783455E0,1.231740117E0,8.340354919E0
2.868764280E-1,3.934363127E0,1.260882378E0,8.477447510E0
2.888951780E-1,3.865409851E0,1.272661924E0,8.670161247E0
2.908967400E-1,3.896668673E0,1.188261509E0,8.915058136E0
2.948889280E-1,3.873818398E0,1.089371324E0,9.259441376E0
2.988764280E-1,3.725751162E0,1.090147138E0,9.450047493E0
3.008764280E-1,3.648313284E0,1.093862891E0,9.524681091E0
3.028764280E-1,3.571038008E0,1.114615798E0,9.584937096E0
3.048764280E-1,3.506490231E0,1.135024071E0,9.616023064E0
3.068826780E-1,3.489453077E0,1.141382933E0,9.621549606E0
3.088842400E-1,3.477118254E0,1.165449500E0,9.632554054E0
3.108904900E-1,3.493887186E0,1.182860136E0,9.584784508E0
3.148764280E-1,3.568107367E0,1.201199651E0,9.338861465E0
3.168764280E-1,3.588745594E0,1.204905987E0,9.241321564E0
3.188764280E-1,3.642356396E0,1.225208759E0,9.022500992E0
3.208764280E-1,3.726048231E0,1.241307378E0,8.786366463E0
3.228764280E-1,3.807575703E0,1.259369254E0,8.554415703E0
3.248764280E-1,3.907950163E0,1.288865805E0,8.354872704E0
3.268873650E-1,4.058459282E0,1.324510694E0,8.247833252E0
3.309045530E-1,4.422301292E0,1.440428376E0,8.485098839E0
3.348764280E-1,4.566393852E0,1.638381004E0,8.963957787E0
3.368858030E-1,4.435325623E0,1.705849648E0,9.000494003E0
3.408764280E-1,3.994486094E0,1.757372856E0,8.747187614E0
3.428764280E-1,3.821663141E0,1.754384756E0,8.615945816E0
3.448764280E-1,3.708876848E0,1.744683504E0,8.590538979E0
3.468764280E-1,3.675444365E0,1.721440554E0,8.691459656E0
3.488764280E-1,3.686093807E0,1.671334743E0,8.887755394E0
3.508764280E-1,3.704184294E0,1.622033358E0,9.120883942E0
3.528764280E-1,3.695708990E0,1.574283361E0,9.354816437E0
3.548764280E-1,3.647307634E0,1.529569268E0,9.544667244E0
3.568951780E-1,3.576774359E0,1.480210423E0,9.662978172E0
3.608764280E-1,3.354008436E0,1.403931141E0,9.751038551E0
3.628779900E-1,3.247284412E0,1.378571749E0,9.762261391E0
3.668764280E-1,3.113420010E0,1.333120227E0,9.756678581E0
3.688764280E-1,3.078799725E0,1.326004624E0,9.760719299E0
3.708764280E-1,3.044189215E0,1.328293562E0,9.773121834E0
3.728811150E-1,3.013016701E0,1.320335150E0,9.802713394E0
3.768764280E-1,2.924392939E0,1.348893166E0,9.953931808E0
3.788951780E-1,2.896859646E0,1.362099648E0,9.984376907E0
3.828826780E-1,2.794454813E0,1.480382800E0,1.017761707E1
3.848842400E-1,2.729897499E0,1.701942205E0,1.035690403E1
3.888764280E-1,2.671114922E0,1.726066113E0,1.027450562E1
3.908779900E-1,2.598685741E0,1.704259753E0,1.009013271E1
3.948764280E-1,2.381215572E0,1.647191644E0,9.855492592E0
3.968764280E-1,2.224165440E0,1.583084464E0,9.711054802E0
3.988764280E-1,2.101860046E0,1.497123003E0,9.594944954E0
4.008764280E-1,2.023789883E0,1.416218162E0,9.520839691E0
4.028764280E-1,1.980560303E0,1.336778522E0,9.473280907E0
4.048764280E-1,1.944369555E0,1.263209581E0,9.435865402E0
4.068779900E-1,1.897902846E0,1.204944253E0,9.399827003E0
4.089076780E-1,1.857134342E0,1.170419931E0,9.370541573E0
4.128764280E-1,1.855439305E0,1.108994246E0,9.323884010E0
4.148764280E-1,1.891936541E0,1.093134999E0,9.259048462E0
4.168764280E-1,1.938738346E0,1.083347559E0,9.167561531E0
4.188764280E-1,2.029382706E0,1.073837757E0,9.054182053E0
4.208764280E-1,2.137457132E0,1.065074921E0,8.932909966E0
4.228795530E-1,2.241700649E0,1.057844520E0,8.797005653E0
4.268764280E-1,2.489711285E0,1.007259846E0,8.558945656E0
4.288764280E-1,2.636073589E0,9.846681356E-1,8.457248688E0
4.308764280E-1,2.824477911E0,9.654091597E-1,8.372437477E0
4.328764280E-1,2.998689651E0,9.374544621E-1,8.295937538E0
4.348764280E-1,3.172269344E0,9.012062550E-1,8.238103867E0
4.368764280E-1,3.362493515E0,8.685110211E-1,8.187288284E0
4.388764280E-1,3.556011915E0,8.357583880E-1,8.157408714E0
4.408826780E-1,3.754251957E0,8.056584597E-1,8.159851074E0
4.428826780E-1,3.939237595E0,7.514824867E-1,8.187518120E0
4.448889280E-1,4.109417439E0,7.052169442E-1,8.221717834E0
4.488920530E-1,4.365147114E0,6.352391839E-1,8.301061630E0
4.529076780E-1,4.534167767E0,6.071312428E-1,8.372963905E0
4.568779900E-1,4.533153057E0,5.963094234E-1,8.458896637E0
4.608764280E-1,4.385909081E0,6.145532727E-1,8.490882874E0
4.628779900E-1,4.348435402E0,6.230383515E-1,8.401952744E0
4.648842400E-1,4.279654980E0,6.461854577E-1,8.330069542E0
4.668873650E-1,4.158565521E0,6.946824193E-1,8.324016571E0
4.708764280E-1,3.827035666E0,7.864186168E-1,8.657213211E0
4.728779900E-1,3.638458729E0,8.206748366E-1,8.995772362E0
4.748811150E-1,3.434922934E0,8.495585322E-1,9.333450317E0
4.768889280E-1,3.226100683E0,8.505640626E-1,9.561838150E0
4.808764280E-1,2.879094601E0,8.548640609E-1,9.625006676E0
4.828889280E-1,2.719516277E0,8.872911334E-1,9.617967606E0
4.869248650E-1,2.418057680E0,9.654953480E-1,9.749400139E0
4.908826780E-1,2.381378412E0,9.524900317E-1,9.511569023E0
4.948764280E-1,2.317606449E0,9.550566673E-1,9.237653732E0
4.968764280E-1,2.262616396E0,9.656007290E-1,9.086379051E0
4.988764280E-1,2.183866262E0,9.969456196E-1,8.947793007E0
5.009233030E-1,2.098536968E0,1.051092863E0,8.818533897E0
5.048795530E-1,1.891917348E0,1.173829198E0,8.677955627E0
5.068904900E-1,1.784618735E0,1.263640523E0,8.675552368E0
5.108764280E-1,1.568144679E0,1.429941773E0,8.792580605E0
5.128764280E-1,1.444057941E0,1.502782941E0,8.873830795E0
5.148842400E-1,1.329567313E0,1.569782257E0,8.980190277E0
5.188764280E-1,1.227057099E0,1.685680747E0,9.237347603E0
5.208764280E-1,1.196143150E0,1.726248145E0,9.365437508E0
5.228983030E-1,1.133587480E0,1.746905327E0,9.471892357E0
5.268873650E-1,8.899343014E-1,1.751291513E0,9.556542397E0
5.308764280E-1,5.891364217E-1,1.748351455E0,9.541200638E0
5.328764280E-1,4.651646614E-1,1.759489298E0,9.526040077E0
5.348764280E-1,3.788297474E-1,1.774017215E0,9.520265579E0
5.368764280E-1,3.081912100E-1,1.780701876E0,9.529066086E0
5.388764280E-1,2.734848559E-1,1.796647191E0,9.550192833E0
5.408873650E-1,2.547143102E-1,1.801761270E0,9.598019600E0
5.448764280E-1,2.897846103E-1,1.822543025E0,9.701602936E0
5.468889280E-1,3.278236687E-1,1.830932260E0,9.746977806E0
5.508764280E-1,3.726144135E-1,1.865839720E0,9.827834129E0
5.528764280E-1,3.835511208E-1,1.887081027E0,9.830400467E0
5.548764280E-1,3.717045784E-1,1.895048976E0,9.808336258E0
5.568764280E-1,3.598868251E-1,1.917056441E0,9.777000427E0
5.588764280E-1,3.485957682E-1,1.941793323E0,9.732497215E0
5.608764280E-1,3.479541242E-1,1.971184611E0,9.662528038E0
5.628764280E-1,3.461249471E-1,1.992617488E0,9.585033417E0
5.648764280E-1,3.519667983E-1,2.012776613E0,9.501427650E0
5.668764280E-1,3.492853045E-1,2.019767761E0,9.407249451E0
5.688764280E-1,3.511144817E-1,2.016549826E0,9.321393967E0
5.708764280E-1,3.481839597E-1,2.017622471E0,9.259814262E0
5.728764280E-1,3.288675547E-1,2.030905485E0,9.195084572E0
5.748764280E-1,2.969767749E-1,2.042685032E0,9.118231773E0
5.768764280E-1,2.712343037E-1,2.040453672E0,9.019561768E0
5.788764280E-1,2.559210062E-1,2.004894972E0,8.904323578E0
5.808764280E-1,3.098575771E-1,1.866404653E0,8.736537933E0
5.828764280E-1,3.267414868E-1,1.706634879E0,8.540798187E0
5.848764280E-1,2.650094032E-1,1.615109205E0,8.336351395E0
5.868764280E-1,2.317587286E-1,1.554986119E0,8.152065277E0
5.888764280E-1,1.811740249E-1,1.523219824E0,8.029376984E0
5.908764280E-1,9.092220664E-2,1.510645509E0,7.964015007E0
5.928764280E-1,-3.658340313E-3,1.530450344E0,7.958862782E0
5.948764280E-1,-1.199207753E-1,1.572013617E0,7.984806061E0
5.968764280E-1,-2.565147579E-1,1.627367735E0,8.029147148E0
5.988764280E-1,-3.978109658E-1,1.677243710E0,8.077202797E0
6.008764280E-1,-4.672811329E-1,1.699978948E0,8.099545479E0
6.028764280E-1,-6.088837981E-1,1.754997730E0,8.135593414E0
6.048998650E-1,-7.473739982E-1,1.796331167E0,8.164390564E0
6.089186150E-1,-9.419555664E-1,1.889887094E0,8.211537361E0
6.128764280E-1,-4.708915949E-1,1.909711003E0,8.388124466E0
6.148764280E-1,2.965553999E-1,2.012431860E0,9.251836777E0
6.168764280E-1,1.135024071E0,2.220488071E0,1.039618015E1
6.188764280E-1,1.671995640E0,2.423832178E0,1.094706535E1
6.208764280E-1,1.899693727E0,2.496979952E0,1.066049862E1
6.228873650E-1,2.068647623E0,2.465223312E0,1.004696083E1
6.268764280E-1,2.204743624E0,2.410970688E0,1.050273991E1
6.288764280E-1,2.151420116E0,2.328696251E0,1.105614567E1
6.308764280E-1,1.913446069E0,2.180447340E0,1.143469715E1
6.328764280E-1,1.477998137E0,1.956560850E0,1.162953854E1
6.348764280E-1,8.878753185E-1,1.660359740E0,1.176233006E1
6.368764280E-1,2.151142210E-1,1.326311111E0,1.187744331E1
6.388764280E-1,-4.426304400E-1,9.713850617E-1,1.193744183E1
6.408764280E-1,-1.009232640E0,6.149076223E-1,1.190600109E1
6.428764280E-1,-1.444373965E0,2.989974916E-1,1.179492950E1
6.448764280E-1,-1.793266654E0,5.672342703E-2,1.163572502E1
6.468764280E-1,-2.047234058E0,-1.135521978E-1,1.142761135E1
6.488764280E-1,-2.233100653E0,-2.132084519E-1,1.117624760E1
6.508764280E-1,-2.363460302E0,-2.909912765E-1,1.086403561E1
6.528764280E-1,-2.457293749E0,-3.294230103E-1,1.052366638E1
6.548811150E-1,-2.527233124E0,-3.300454915E-1,1.019551659E1
6.568889280E-1,-2.596837521E0,-2.961914539E-1,9.728149414E0
6.588936150E-1,-2.611461163E0,-2.824391723E-1,9.432464600E0
6.628764280E-1,-2.592901468E0,-2.510655522E-1,9.006173134E0
6.648764280E-1,-2.555695295E0,-2.263861448E-1,8.750069618E0
6.668764280E-1,-2.491674662E0,-1.853974015E-1,8.522534370E0
6.688764280E-1,-2.364053965E0,-1.204187721E-1,8.376276970E0
6.708764280E-1,-2.192054510E0,-3.536714986E-2,8.299673080E0
6.728764280E-1,-1.985195398E0,6.875190139E-2,8.278345108E0
6.748764280E-1,-1.738831997E0,1.781477630E-1,8.305658340E0
6.768764280E-1,-1.477921486E0,2.653829157E-1,8.378528595E0
6.788764280E-1,-1.239229202E0,3.447171748E-1,8.485672951E0
6.808764280E-1,-1.023818135E0,3.888183534E-1,8.617996216E0
6.828764280E-1,-8.139806986E-1,3.947368264E-1,8.762491226E0
6.848764280E-1,-6.401233673E-1,3.638994992E-1,8.921839714E0
6.868764280E-1,-4.884171486E-1,3.197887242E-1,9.108366966E0
6.888764280E-1,-4.227106571E-1,2.717610598E-1,9.295468330E0
6.908764280E-1,-4.485393465E-1,2.429540157E-1,9.472113609E0
6.928764280E-1,-4.961743355E-1,2.339422256E-1,9.629661560E0
6.948764280E-1,-5.358893871E-1,2.319119573E-1,9.719712257E0
6.968764280E-1,-5.721567273E-1,2.469762713E-1,9.741240501E0
6.988764280E-1,-6.035208106E-1,2.917287052E-1,9.718007088E0
7.008764280E-1,-6.194374561E-1,3.540545404E-1,9.671588898E0
7.028764280E-1,-6.570838690E-1,4.457907677E-1,9.598487854E0
7.048764280E-1,-6.752415299E-1,5.675503016E-1,9.520801544E0
7.068764280E-1,-5.800192952E-1,8.271583915E-1,9.455008507E0
7.088764280E-1,-5.187756419E-1,1.062460542E0,9.407967567E0
7.108764280E-1,-6.340037584E-1,1.159760833E0,9.400536537E0
7.128764280E-1,-8.141051531E-1,1.236997843E0,9.394186974E0
7.148764280E-1,-1.014432907E0,1.329423547E0,9.461990356E0
7.168764280E-1,-1.149302959E0,1.430516362E0,9.442904472E0
7.188764280E-1,-1.189573526E0,1.468086123E0,9.290163040E0
7.208764280E-1,-1.165593147E0,1.439547300E0,9.085468292E0
7.228889280E-1,-1.125715375E0,1.381320357E0,8.913047791E0
7.248967400E-1,-1.097674489E0,1.307847023E0,8.771714211E0
7.288764280E-1,-1.059788585E0,1.121673942E0,8.667748451E0
7.308951780E-1,-1.076500177E0,1.044523239E0,8.675753593E0
7.348764280E-1,-1.157998800E0,9.271115065E-1,8.673608780E0
7.368764280E-1,-1.244094253E0,8.869655132E-1,8.634583473E0
7.388764280E-1,-1.383130312E0,8.433240652E-1,8.554588318E0
7.408764280E-1,-1.573708773E0,8.188169599E-1,8.451972961E0
7.428826780E-1,-1.769745946E0,8.137316704E-1,8.315569878E0
7.468764280E-1,-2.212462664E0,8.119887114E-1,8.024856567E0
7.488764280E-1,-2.467454672E0,8.108586669E-1,7.854006290E0
7.508764280E-1,-2.729792118E0,8.120078444E-1,7.659865379E0
7.528764280E-1,-2.954090595E0,8.241416812E-1,7.443199635E0
7.548764280E-1,-3.160269499E0,8.383440971E-1,7.215376854E0
7.568764280E-1,-3.326858044E0,8.178497553E-1,6.971752644E0
7.588764280E-1,-3.455331087E0,7.976235151E-1,6.738978386E0
7.608764280E-1,-3.556232214E0,7.998070121E-1,6.580060959E0
7.628764280E-1,-3.620866299E0,8.600738645E-1,6.470942974E0
7.648764280E-1,-3.652019501E0,9.738080502E-1,6.389827728E0
7.668764280E-1,-3.558866024E0,1.151793003E0,6.343274593E0
7.688764280E-1,-3.332623482E0,1.362932920E0,6.336599827E0
7.708764280E-1,-3.069385767E0,1.562350750E0,6.364621162E0
7.728826780E-1,-2.830463648E0,1.673480034E0,6.423317432E0
7.768920530E-1,-2.502994061E0,1.690258503E0,6.579955578E0
7.808764280E-1,-2.166541815E0,1.495006561E0,6.802022934E0
7.828764280E-1,-1.907335997E0,1.374176025E0,6.910317421E0
7.848764280E-1,-1.598417044E0,1.257434726E0,7.029701710E0
7.868764280E-1,-1.343444109E0,1.140894532E0,7.149066925E0
7.888764280E-1,-1.148067594E0,1.010793686E0,7.255666733E0
7.908764280E-1,-9.752157927E-1,8.918401599E-1,7.333162308E0
7.928826780E-1,-8.342356682E-1,7.814961672E-1,7.370348454E0
7.968764280E-1,-5.967500210E-1,5.659796596E-1,7.453657150E0
7.988764280E-1,-4.557219148E-1,4.686506093E-1,7.507843494E0
8.008764280E-1,-2.914892435E-1,4.015842378E-1,7.562507153E0
8.028764280E-1,-1.239334568E-1,3.312138617E-1,7.603812218E0
8.048764280E-1,2.297475934E-2,2.517742515E-1,7.620437622E0
8.068764280E-1,1.573086232E-1,1.674983501E-1,7.635875702E0
8.088764280E-1,2.837607861E-1,1.173829213E-1,7.676471710E0
8.108764280E-1,4.288206697E-1,8.168058842E-2,7.712748528E0
8.128764280E-1,6.129348278E-1,1.269214153E-1,7.719663143E0
8.148951780E-1,1.002433062E0,3.059598207E-1,7.681489944E0
8.188764280E-1,1.273916364E0,3.359735310E-1,7.620198250E0
8.208764280E-1,1.250769258E0,2.615138590E-1,7.589149952E0
8.228764280E-1,1.166005015E0,1.542153209E-1,7.496360302E0
8.248764280E-1,1.013436794E0,3.274310380E-2,7.324858665E0
8.268764280E-1,8.257122636E-1,-8.533892781E-2,7.133725166E0
8.288764280E-1,6.159418821E-1,-2.006915659E-1,6.943165779E0
8.308764280E-1,3.875446618E-1,-2.916329205E-1,6.743259430E0
8.328998650E-1,1.295550317E-1,-4.010191858E-1,6.570532322E0
8.368779900E-1,-3.401011229E-1,-5.353052020E-1,6.256661892E0
8.388889280E-1,-5.712565184E-1,-5.760736465E-1,6.096681595E0
8.428811150E-1,-9.792667627E-1,-6.426324248E-1,5.763533115E0
8.448936150E-1,-1.188740373E0,-7.098329663E-1,5.541676521E0
8.488764280E-1,-1.670300364E0,-8.493957520E-1,5.233026028E0
8.508764280E-1,-1.921452165E0,-8.526996970E-1,5.134681702E0
8.528764280E-1,-2.153680086E0,-8.562622666E-1,5.066159725E0
8.548764280E-1,-2.365576744E0,-8.560228944E-1,5.010269165E0
8.568764280E-1,-2.533936739E0,-8.334982395E-1,4.966435909E0
8.588764280E-1,-2.658741951E0,-8.186541796E-1,4.921645641E0
8.608764280E-1,-2.771039486E0,-8.147372603E-1,4.859032154E0
8.628764280E-1,-2.864738941E0,-8.041931987E-1,4.773923397E0
8.648764280E-1,-2.954607725E0,-7.663935423E-1,4.685797215E0
8.668764280E-1,-3.083798885E0,-7.198311090E-1,4.582473278E0
8.688764280E-1,-3.255233049E0,-6.607421637E-1,4.468988419E0
8.708764280E-1,-3.485737324E0,-6.147352457E-1,4.327021599E0
8.728764280E-1,-3.738517284E0,-5.418748856E-1,4.154859543E0
8.748764280E-1,-4.028158188E0,-4.685165286E-1,3.949982643E0
8.768764280E-1,-4.343273640E0,-4.007223248E-1,3.734092712E0
8.788764280E-1,-4.659221649E0,-3.467761874E-1,3.535852671E0
8.808764280E-1,-4.970448494E0,-3.032304347E-1,3.356555939E0
8.828795530E-1,-5.252993584E0,-2.760610282E-1,3.202273369E0
8.868764280E-1,-5.703045845E0,-2.077592462E-1,2.936622620E0
8.888764280E-1,-5.857950687E0,-1.420719326E-1,2.836276531E0
8.908764280E-1,-6.013525963E0,-1.336251795E-1,2.748486042E0
8.928764280E-1,-6.087459087E0,-1.359906644E-1,2.705859661E0
8.948764280E-1,-6.218900204E0,-1.449066550E-1,2.645861149E0
8.968764280E-1,-6.309765339E0,-1.748054475E-1,2.607687950E0
8.988764280E-1,-6.399184227E0,-2.310787588E-1,2.584138393E0
9.008764280E-1,-6.471642017E0,-3.092063665E-1,2.603703976E0
9.028795530E-1,-6.596638680E0,-4.597729146E-1,2.689282179E0
9.068764280E-1,-6.508215904E0,-5.014607310E-1,2.853629827E0
9.088779900E-1,-6.332165718E0,-4.648965001E-1,2.996295691E0
9.128764280E-1,-6.054332733E0,-3.982419372E-1,3.405608177E0
9.148764280E-1,-5.977114677E0,-4.228830636E-1,3.675185680E0
9.168889280E-1,-5.864654064E0,-5.162856579E-1,3.993901968E0
9.209186150E-1,-5.760909081E0,-6.664882898E-1,4.168649673E0
9.248811150E-1,-5.598812103E0,-1.059156537E0,4.409037113E0
9.288764280E-1,-5.573998451E0,-1.356889844E0,4.547441483E0
9.308764280E-1,-5.600076199E0,-1.542679906E0,4.681583405E0
9.328764280E-1,-5.646964550E0,-1.723183632E0,4.853056431E0
9.348764280E-1,-5.698947430E0,-1.904386401E0,5.037678242E0
9.368764280E-1,-5.758457661E0,-2.100557566E0,5.224866390E0
9.388764280E-1,-5.788403988E0,-2.282698870E0,5.411317348E0
9.408764280E-1,-5.781068325E0,-2.459342957E0,5.588459492E0
9.428764280E-1,-5.723444462E0,-2.620511293E0,5.718119621E0
9.448764280E-1,-5.612947464E0,-2.744607449E0,5.827793598E0
9.468764280E-1,-5.464392185E0,-2.831871271E0,5.932104111E0
9.488764280E-1,-5.291233540E0,-2.855794191E0,6.050358295E0
9.508764280E-1,-4.810803890E0,-2.656223059E0,6.157158852E0
9.528764280E-1,-4.663856983E0,-2.681448460E0,6.286168098E0
9.548764280E-1,-4.839189053E0,-2.845173597E0,6.421584129E0
9.568764280E-1,-5.075372696E0,-3.091163397E0,6.507717609E0
9.588764280E-1,-5.372645855E0,-3.349947691E0,6.523002625E0
9.608764280E-1,-5.653840542E0,-3.601406097E0,6.473863602E0
9.628779900E-1,-5.924767971E0,-3.823597670E0,6.371449471E0
9.668764280E-1,-6.366671085E0,-4.195235252E0,6.081808567E0
9.688764280E-1,-6.561357498E0,-4.298549652E0,5.938846111E0
9.708764280E-1,-6.753793716E0,-4.377156258E0,5.822995663E0
9.728764280E-1,-6.927574635E0,-4.418614388E0,5.725293159E0
9.748764280E-1,-7.106555462E0,-4.428995609E0,5.630826950E0
9.768764280E-1,-7.286264420E0,-4.432567596E0,5.534427166E0
9.788764280E-1,-7.475348949E0,-4.434530735E0,5.443466663E0
9.808764280E-1,-7.673933506E0,-4.404057503E0,5.360751629E0
9.828764280E-1,-7.827641010E0,-4.362101555E0,5.276370525E0
9.848764280E-1,-7.981856346E0,-4.333495617E0,5.190667629E0
9.868764280E-1,-8.149690628E0,-4.326925755E0,5.124061108E0
9.888764280E-1,-8.307410240E0,-4.342488289E0,5.054763317E0
9.908764280E-1,-8.457086563E0,-4.344518661E0,5.005327702E0
9.928764280E-1,-8.613379478E0,-4.366430283E0,4.963860035E0
9.948764280E-1,-8.769884109E0,-4.422828197E0,4.940856457E0
9.968764280E-1,-8.927968979E0,-4.505561829E0,4.935273647E0
9.988764280E-1,-9.097411156E0,-4.599165440E0,4.943614960E0
1.000876428E0,-9.246253967E0,-4.699865818E0,4.968667507E0
1.002876428E0,-9.384810448E0,-4.816577911E0,4.997196674E0
1.004876428E0,-9.533635139E0,-4.944601059E0,5.023303032E0
1.006876428E0,-9.621424675E0,-5.077239513E0,5.037055492E0
1.008876428E0,-9.665277481E0,-5.203691959E0,5.017872810E0
1.010876428E0,-9.704456329E0,-5.340669155E0,4.966780663E0
1.012876428E0,-9.706170082E0,-5.449088573E0,4.898181915E0
1.014892053E0,-9.637897491E0,-5.528565884E0,4.819327354E0
1.018876428E0,-9.556943893E0,-5.815813065E0,4.589483261E0
1.020884240E0,-9.601083755E0,-6.017423630E0,4.520559311E0
1.024893615E0,-9.766629219E0,-6.391331196E0,4.441675186E0
1.028876428E0,-9.990332603E0,-6.643124580E0,4.326715469E0
1.030876428E0,-9.920720100E0,-6.605449200E0,4.227690697E0
1.032877990E0,-9.836586952E0,-6.549023151E0,4.132363319E0
1.034879553E0,-9.796642303E0,-6.486304283E0,4.038271427E0
1.036915490E0,-9.843482018E0,-6.462017536E0,3.920917034E0
1.040876428E0,-1.008754826E1,-6.502805233E0,3.636198759E0
1.042876428E0,-1.024438667E1,-6.542117596E0,3.485229731E0
1.044876428E0,-1.043146992E1,-6.573233128E0,3.344498873E0
1.046876428E0,-1.060716629E1,-6.592156887E0,3.209312439E0
1.048876428E0,-1.080390263E1,-6.611185551E0,3.085292816E0
1.050876428E0,-1.102489662E1,-6.620724201E0,2.973387957E0
1.052876428E0,-1.124896526E1,-6.632350445E0,2.884170294E0
1.054876428E0,-1.146052647E1,-6.635663986E0,2.822696686E0
1.056876428E0,-1.165340328E1,-6.637732983E0,2.762123585E0
1.058876428E0,-1.181783676E1,-6.629104137E0,2.720339775E0
1.060876428E0,-1.194007492E1,-6.597174644E0,2.679169178E0
1.062876428E0,-1.202281952E1,-6.534964085E0,2.634177208E0
1.064890490E0,-1.199817753E1,-6.382396221E0,2.600361586E0
1.068876428E0,-1.098272991E1,-5.418298721E0,2.670818090E0
1.070877990E0,-1.120930767E1,-5.404575348E0,2.879420280E0
1.072884240E0,-1.153675747E1,-5.576134205E0,3.061705112E0
1.076876428E0,-1.225262356E1,-6.021091938E0,3.187831879E0
1.078876428E0,-1.234457111E1,-6.014522076E0,3.086442232E0
1.080876428E0,-1.237742901E1,-6.015087128E0,2.822849989E0
1.082881115E0,-1.225896358E1,-5.864578247E0,2.478180647E0
1.086876428E0,-1.203448296E1,-5.728175163E0,1.783651471E0
1.088876428E0,-1.195323467E1,-5.767143726E0,1.512828946E0
1.090876428E0,-1.194784164E1,-5.867240429E0,1.291269541E0
1.092876428E0,-1.200674915E1,-5.976387024E0,1.100911379E0
1.094876428E0,-1.211924839E1,-6.103270054E0,9.330778718E-1
1.096876428E0,-1.223783779E1,-6.230823517E0,7.427100539E-1
1.098876428E0,-1.237304306E1,-6.355801105E0,5.528020263E-1
1.100876428E0,-1.251465511E1,-6.475501537E0,3.531543314E-1
1.102876428E0,-1.265162277E1,-6.592424870E0,1.761653572E-1
1.104876428E0,-1.276472473E1,-6.714289665E0,2.046563476E-2
1.106876428E0,-1.286544418E1,-6.825591087E0,-8.497500420E-2
1.108876428E0,-1.299691391E1,-6.922049046E0,-1.622406840E-1
1.110876428E0,-1.315019131E1,-7.013430595E0,-2.144917399E-1
1.112876428E0,-1.330571842E1,-7.077499390E0,-2.432221621E-1
1.114876428E0,-1.348185539E1,-7.143953323E0,-2.341720760E-1
1.116876428E0,-1.364862633E1,-7.217397690E0,-2.157941908E-1
1.118876428E0,-1.381666946E1,-7.300141335E0,-1.841140985E-1
1.120876428E0,-1.401314735E1,-7.446503639E0,-1.445619017E-1
1.122876428E0,-1.425708771E1,-7.672812939E0,-1.111963019E-1
1.124876428E0,-1.447546768E1,-7.810843945E0,-5.434837565E-2
1.126884240E0,-1.436882019E1,-7.686891079E0,1.331176143E-2
1.130876428E0,-1.357705879E1,-6.952809334E0,3.903889358E-1
1.132876428E0,-1.329477215E1,-6.661713123E0,7.022480965E-1
1.134876428E0,-1.317499542E1,-6.538469315E0,1.047128081E0
1.136876428E0,-1.317107773E1,-6.551512718E0,1.394354343E0
1.138876428E0,-1.321488285E1,-6.654348850E0,1.744846344E0
1.140876428E0,-1.327173042E1,-6.792263985E0,2.083664179E0
1.142876428E0,-1.328145981E1,-6.944372654E0,2.384203672E0
1.144876428E0,-1.324557590E1,-7.067836285E0,2.649097919E0
1.146876428E0,-1.321520805E1,-7.187728405E0,2.896409512E0
1.148876428E0,-1.315049839E1,-7.294309139E0,3.126587868E0
1.150876428E0,-1.306164360E1,-7.395727634E0,3.357207060E0
1.152892053E0,-1.297144032E1,-7.501962662E0,3.578603745E0
1.156877990E0,-1.272006798E1,-7.740904331E0,4.033846855E0
1.160876428E0,-1.232422924E1,-8.020891190E0,4.482912540E0
1.162876428E0,-1.209418583E1,-8.162667274E0,4.701752663E0
1.164876428E0,-1.183619499E1,-8.294098854E0,4.905728817E0
1.166876428E0,-1.157293892E1,-8.440814972E0,5.112204552E0
1.168876428E0,-1.130566025E1,-8.604886055E0,5.309305191E0
1.170876428E0,-1.104815865E1,-8.784881592E0,5.486561775E0
1.172876428E0,-1.076384258E1,-8.994738579E0,5.627599716E0
1.174876428E0,-1.043366337E1,-9.197833061E0,5.742224693E0
1.176876428E0,-1.001864243E1,-9.358398438E0,5.868599892E0
1.178876428E0,-9.618092537E0,-9.521739960E0,5.996297359E0
1.180876428E0,-9.252497673E0,-9.716791153E0,6.069818497E0
1.182898303E0,-8.916227341E0,-9.911363602E0,6.063459396E0
1.186876428E0,-8.266460419E0,-1.020375252E1,5.889276505E0
1.188876428E0,-8.112436295E0,-1.025930786E1,5.807643414E0
1.190876428E0,-7.843778133E0,-1.034661961E1,5.586323738E0
1.192876428E0,-7.626624107E0,-1.038868046E1,5.305330753E0
1.194876428E0,-7.457133770E0,-1.037465000E1,5.004188061E0
1.196882678E0,-7.299987793E0,-1.023878384E1,4.574563026E0
1.200876428E0,-7.276055813E0,-1.006551170E1,4.135485172E0
1.202877990E0,-7.311163902E0,-9.938685417E0,3.840567589E0
1.206876428E0,-7.460361481E0,-9.769051552E0,3.229347229E0
1.208888928E0,-7.517123222E0,-9.649926186E0,2.936450243E0
1.212877990E0,-7.664040565E0,-9.194941521E0,2.431991816E0
1.216876428E0,-7.851459026E0,-8.588078499E0,1.957068324E0
1.218876428E0,-7.960577011E0,-8.290870667E0,1.706539035E0
1.220876428E0,-8.067914009E0,-8.036684036E0,1.464609742E0
1.222877990E0,-8.175289154E0,-7.822910786E0,1.206514835E0
1.226876428E0,-8.477782249E0,-7.498678207E0,7.406702042E-1
1.228876428E0,-8.657940865E0,-7.371201038E0,5.402180552E-1
1.230876428E0,-8.833464622E0,-7.257083893E0,3.360405862E-1
1.232876428E0,-8.970183372E0,-7.151758194E0,1.420240551E-1
1.234876428E0,-9.068124771E0,-7.028217316E0,-2.382709458E-2
1.236888928E0,-9.159420967E0,-6.889928341E0,-1.449928582E-1
1.240884240E0,-9.212974548E0,-6.469180584E0,-2.219903916E-1
1.244876428E0,-9.104420662E0,-6.247669220E0,-1.612063944E-1
1.246876428E0,-9.019609451E0,-6.126723766E0,-1.017056853E-1
1.248888928E0,-8.934691429E0,-6.045722961E0,-4.384262115E-2
1.252876428E0,-8.789095879E0,-5.957023144E0,5.241386592E-2
1.254876428E0,-8.715785027E0,-5.948709965E0,1.051437631E-1
1.256876428E0,-8.643000603E0,-5.963985443E0,1.613308936E-1
1.258876428E0,-8.557901382E0,-5.973619461E0,2.373132855E-1
1.260876428E0,-8.478816032E0,-5.969109058E0,3.308499455E-1
1.262876428E0,-8.388315201E0,-5.971617699E0,4.234959781E-1
1.264876428E0,-8.295669556E0,-6.027814388E0,5.121005774E-1
1.266876428E0,-8.214601517E0,-6.149641037E0,5.832179785E-1
1.268876428E0,-8.099153519E0,-6.266439915E0,6.470473409E-1
1.270876428E0,-7.952656746E0,-6.330814838E0,7.160195112E-1
1.272877990E0,-7.772794724E0,-6.345764637E0,8.316211700E-1
1.276876428E0,-7.303636551E0,-6.282605648E0,1.067028642E0
1.278876428E0,-7.043406487E0,-6.211565018E0,1.148622990E0
1.280876428E0,-6.665045738E0,-6.204420567E0,1.112087488E0
1.282876428E0,-6.317675591E0,-6.202150822E0,1.052289963E0
1.284876428E0,-6.048327923E0,-6.145168781E0,1.044456124E0
1.286876428E0,-5.808429241E0,-6.070469856E0,1.029334307E0
1.288876428E0,-5.567764282E0,-5.984603882E0,9.718830585E-1
1.290876428E0,-5.329991341E0,-5.881260872E0,9.003060460E-1
1.292876428E0,-5.087477684E0,-5.773090839E0,8.292652369E-1
1.294876428E0,-4.841746330E0,-5.690366268E0,7.700902224E-1
1.296876428E0,-4.601712704E0,-5.630558968E0,7.296856642E-1
1.298876428E0,-4.344786644E0,-5.592606068E0,7.251366377E-1
1.300876428E0,-3.987514257E0,-5.578470707E0,6.927479506E-1
1.302877990E0,-3.512810946E0,-5.608388901E0,5.210453272E-1
1.306876428E0,-2.663022757E0,-5.766664505E0,4.769249819E-3
1.308876428E0,-2.320134878E0,-5.863102913E0,-2.378495783E-1
1.310876428E0,-2.110354662E0,-5.959877014E0,-3.908677995E-1
1.312876428E0,-1.978577852E0,-6.039201260E0,-4.325652122E-1
1.314876428E0,-1.931172609E0,-6.082785606E0,-4.010000527E-1
1.316879553E0,-1.964643598E0,-6.138628006E0,-3.292123079E-1
1.320876428E0,-2.154599667E0,-6.305207253E0,-1.860773563E-1
1.322876428E0,-2.326589346E0,-6.464000225E0,-2.185523063E-1
1.324876428E0,-2.599308014E0,-6.644896030E0,-3.710055053E-1
1.326876428E0,-2.961934090E0,-6.813103199E0,-6.331322789E-1
1.328876428E0,-3.327231646E0,-6.924280167E0,-8.873486519E-1
1.330876428E0,-3.678547382E0,-6.950683594E0,-1.064442873E0
1.332877990E0,-4.056390762E0,-6.914512157E0,-1.059290648E0
1.334879553E0,-4.475625038E0,-6.833224297E0,-8.715277314E-1
1.336926428E0,-4.947617531E0,-6.750154972E0,-5.364065766E-1
1.340876428E0,-6.078954697E0,-6.692961693E0,4.126358628E-1
1.342884240E0,-6.669690609E0,-6.700470448E0,8.826751113E-1
1.346876428E0,-7.749714851E0,-6.781183720E0,1.605398417E0
1.348881115E0,-8.201107979E0,-6.837226868E0,1.814211130E0
1.350909240E0,-8.597645760E0,-6.895224094E0,1.912306428E0
1.354876428E0,-9.140535355E0,-7.003212452E0,1.859471083E0
1.356876428E0,-9.437848091E0,-7.116735935E0,1.717897177E0
1.358876428E0,-9.660967827E0,-7.234042168E0,1.559410691E0
1.360876428E0,-9.766485214E0,-7.338984966E0,1.395388722E0
1.362876428E0,-9.860758781E0,-7.427110195E0,1.173359990E0
1.364876428E0,-9.871973991E0,-7.494981289E0,9.317562580E-1
1.366881115E0,-9.818228722E0,-7.540164471E0,7.100723386E-1
1.370876428E0,-9.776646614E0,-7.598966122E0,3.270575404E-1
1.372876428E0,-9.830151558E0,-7.632006168E0,1.461899579E-1
1.374876428E0,-9.895187378E0,-7.653113842E0,-7.307103835E-3
1.376876428E0,-9.978984833E0,-7.653103828E0,-1.307712942E-1
1.378876428E0,-1.006229305E1,-7.640692234E0,-2.192130983E-1
1.380876428E0,-1.012431240E1,-7.611359119E0,-2.788478732E-1
1.382904553E0,-1.018969345E1,-7.577342033E0,-3.338474631E-1
1.386876428E0,-1.036201859E1,-7.486515522E0,-3.374770880E-1
1.388893615E0,-1.044068241E1,-7.450660229E0,-2.655935884E-1
1.392881115E0,-1.048113441E1,-7.374696732E0,-1.349372137E-2
1.396876428E0,-1.028656387E1,-7.240899086E0,2.899953127E-1
1.398876428E0,-1.012561512E1,-7.169571400E0,4.253251255E-1
1.400876428E0,-9.951040268E0,-7.088072300E0,5.659988523E-1
1.402877990E0,-9.789584160E0,-7.018908501E0,7.395209670E-1
1.406876428E0,-9.460764885E0,-6.923859119E0,1.145970345E0
1.408876428E0,-9.262065887E0,-6.897666454E0,1.392515659E0
1.410876428E0,-9.043292046E0,-6.890761852E0,1.639510989E0
1.412876428E0,-8.768016815E0,-6.881347656E0,1.877753258E0
1.414876428E0,-8.477025032E0,-6.899188995E0,2.106629372E0
1.416876428E0,-8.128238678E0,-6.893950462E0,2.326158524E0
1.418876428E0,-7.545843601E0,-6.568243027E0,2.650927305E0
1.420876428E0,-6.162129402E0,-5.601158142E0,3.133186579E0
1.422876428E0,-5.885426521E0,-5.359152317E0,3.592174053E0
1.424876428E0,-6.490862846E0,-5.619316101E0,4.083761215E0
1.426876428E0,-7.144288063E0,-6.127719879E0,4.613253593E0
1.428876428E0,-7.709137917E0,-6.666923046E0,5.110404491E0
1.430877990E0,-8.155225754E0,-7.215357780E0,5.523251057E0
1.434876428E0,-8.622258186E0,-8.130909920E0,6.071877480E0
1.436876428E0,-8.753632545E0,-8.392873764E0,6.189116478E0
1.438876428E0,-8.788042068E0,-8.487503052E0,6.257380486E0
1.440876428E0,-8.727630615E0,-8.382071495E0,6.334454536E0
1.442877990E0,-8.701601982E0,-8.150906563E0,6.396397114E0
1.446876428E0,-8.528511047E0,-7.694140434E0,6.448715210E0
1.448876428E0,-8.304604530E0,-7.492960453E0,6.437644482E0
1.450876428E0,-8.021781921E0,-7.304383755E0,6.276830673E0
1.452906115E0,-7.755681038E0,-7.128113270E0,6.000434399E0
1.456876428E0,-7.304441452E0,-6.819911957E0,5.299747467E0
1.458876428E0,-7.103577137E0,-6.711665630E0,4.925418854E0
1.460876428E0,-6.845654964E0,-6.730723858E0,4.604806423E0
1.462876428E0,-6.675838947E0,-6.758381367E0,4.271571636E0
1.464876428E0,-6.644800186E0,-6.721864700E0,3.820628643E0
1.466876428E0,-6.613024235E0,-6.680655956E0,3.364810944E0
1.468876428E0,-6.599798679E0,-6.634601116E0,2.980187178E0
1.470876428E0,-6.608130932E0,-6.593305588E0,2.614152193E0
1.472877990E0,-6.656005383E0,-6.537185669E0,2.223188639E0
1.476876428E0,-6.678214073E0,-6.503685951E0,1.696655869E0
1.478882678E0,-6.638077736E0,-6.525300980E0,1.567608356E0
1.482876428E0,-6.262063503E0,-6.420961380E0,1.392553926E0
1.484923303E0,-5.893710613E0,-6.272070885E0,1.275496602E0
1.488876428E0,-5.208758354E0,-5.966446400E0,1.433054209E0
1.490882678E0,-4.875533104E0,-5.737972736E0,1.540448427E0
1.494876428E0,-5.128935337E0,-5.735846519E0,1.225457788E0
1.496876428E0,-5.627964020E0,-5.795490742E0,7.575349808E-1
1.498876428E0,-6.115135670E0,-5.762431622E0,2.941803634E-1
1.500876428E0,-6.449739933E0,-5.638115406E0,-8.101020753E-2
1.502876428E0,-6.570044041E0,-5.449442387E0,-3.475519121E-1
1.504876428E0,-6.574784279E0,-5.232489586E0,-4.923914969E-1
1.506876428E0,-6.580817699E0,-5.015842915E0,-5.177891850E-1
1.508882678E0,-6.599942207E0,-4.833270550E0,-4.460685253E-1
1.512876428E0,-6.576393127E0,-4.645594120E0,-7.525454462E-2
1.514876428E0,-6.515044212E0,-4.629849434E0,2.266926020E-1
1.516876428E0,-6.419553757E0,-4.658369541E0,5.219072104E-1
1.518876428E0,-6.337145329E0,-4.746706009E0,7.243226171E-1
1.520877990E0,-6.315243244E0,-4.902252674E0,8.294089437E-1
1.524876428E0,-6.184606075E0,-5.155070782E0,7.613657117E-1
1.526876428E0,-6.085409641E0,-5.231991768E0,5.883607268E-1
1.528876428E0,-6.027000427E0,-5.279119015E0,3.246920407E-1
1.530876428E0,-6.050569057E0,-5.331561565E0,3.340390325E-2
1.532892053E0,-6.102427483E0,-5.385009766E0,-2.962298095E-1
1.536876428E0,-6.308003426E0,-5.561816692E0,-6.563368440E-1
1.538876428E0,-6.419918060E0,-5.656598568E0,-6.853067279E-1
1.540876428E0,-6.483593941E0,-5.733701229E0,-6.422685385E-1
1.542876428E0,-6.533594131E0,-5.828817844E0,-4.753639400E-1
1.544876428E0,-6.579544067E0,-5.921895027E0,-2.300923616E-1
1.546876428E0,-6.745778084E0,-6.082622528E0,7.399998605E-2
1.548876428E0,-7.029424191E0,-6.323957920E0,3.838288188E-1
1.550876428E0,-7.242364407E0,-6.554059982E0,6.303454041E-1
1.552876428E0,-7.369640350E0,-6.764874458E0,8.261144757E-1
1.554876428E0,-7.424592018E0,-6.908239365E0,9.530838132E-1
1.556876428E0,-7.522332668E0,-7.047811508E0,9.757712483E-1
1.558876428E0,-7.681145191E0,-7.210147858E0,9.393410683E-1
1.560876428E0,-7.829786777E0,-7.357448578E0,8.435155749E-1
1.562876428E0,-7.829738617E0,-7.460706234E0,7.381898165E-1
1.564876428E0,-7.703171253E0,-7.488373756E0,6.339942217E-1
1.566876428E0,-7.535481930E0,-7.438870907E0,5.300475359E-1
1.568876428E0,-7.455496311E0,-7.382367611E0,3.843747377E-1
1.570876428E0,-7.453303337E0,-7.351147652E0,1.914499551E-1
1.572876428E0,-7.463904858E0,-7.346090794E0,9.835380130E-3
1.574876428E0,-7.420396805E0,-7.340689659E0,-1.195760146E-1
1.576876428E0,-7.360331535E0,-7.303071976E0,-2.362598330E-1
1.578876428E0,-7.280987740E0,-7.261987209E0,-3.205165565E-1
1.580876428E0,-7.181034565E0,-7.216670036E0,-4.042465687E-1
1.582876428E0,-7.104362965E0,-7.202793121E0,-5.588929057E-1
1.584876428E0,-7.088436604E0,-7.233228207E0,-7.668723464E-1
1.586876428E0,-7.065107346E0,-7.255398273E0,-9.309996963E-1
1.588876428E0,-7.026435852E0,-7.238945484E0,-9.568954110E-1
1.590876428E0,-6.944956779E0,-7.194949627E0,-9.228019118E-1
1.592876428E0,-6.888146877E0,-7.165357590E0,-9.231371284E-1
1.594876428E0,-6.853421211E0,-7.160865784E0,-9.275137186E-1
1.596876428E0,-6.847905159E0,-7.189155579E0,-8.973467946E-1
1.598876428E0,-6.883378029E0,-7.244155407E0,-8.250227571E-1
1.600876428E0,-6.883320332E0,-7.316297531E0,-7.106948495E-1
1.602887365E0,-6.836585522E0,-7.392710686E0,-6.049668789E-1
1.604896740E0,-6.851745605E0,-7.499424934E0,-5.164963603E-1
1.608876428E0,-7.169839382E0,-7.846670628E0,-3.426772952E-1
1.610876428E0,-7.338113308E0,-8.051863670E0,-3.062663078E-1
1.612876428E0,-7.441246033E0,-8.224887848E0,-3.133818507E-1
1.614876428E0,-7.479351997E0,-8.349768639E0,-3.070898652E-1
1.616876428E0,-7.456041813E0,-8.439082146E0,-2.834447622E-1
1.618876428E0,-7.373404026E0,-8.465092659E0,-2.990836799E-1
1.620876428E0,-7.235679626E0,-8.448802948E0,-3.804003298E-1
1.622876428E0,-7.101863384E0,-8.401014328E0,-4.834563732E-1
1.624876428E0,-7.001460075E0,-8.336265564E0,-5.088827610E-1
1.626876428E0,-6.913813114E0,-8.239396095E0,-4.863198102E-1
1.628876428E0,-6.840272427E0,-8.135181427E0,-3.500322998E-1
1.630876428E0,-6.833300591E0,-8.050992012E0,-1.648838818E-1
1.632876428E0,-6.921522141E0,-8.003068924E0,-3.216849640E-2
1.634876428E0,-7.069618225E0,-8.017885208E0,7.227616012E-2
1.636898303E0,-7.224216461E0,-8.062799454E0,1.765005440E-1
1.640876428E0,-7.331773281E0,-8.159267426E0,2.319023758E-1
1.642876428E0,-7.353331089E0,-8.213816643E0,2.418335229E-1
1.644876428E0,-7.332491875E0,-8.243160248E0,1.812506467E-1
1.646876428E0,-7.301338196E0,-8.235574722E0,3.766557947E-2
1.648876428E0,-7.207820892E0,-8.163375854E0,-6.650134176E-2
1.650876428E0,-6.988626957E0,-8.017664909E0,-1.080072224E-1
1.652876428E0,-6.753487110E0,-7.814367771E0,-1.366610229E-1
1.654876428E0,-6.580463409E0,-7.611282349E0,-2.163975239E-1
1.656876428E0,-6.418586254E0,-7.448055267E0,-2.914797068E-1
1.658876428E0,-6.260913849E0,-7.314535141E0,-3.670598567E-1
1.660921740E0,-6.139384270E0,-7.209286213E0,-4.363288879E-1
1.664876428E0,-6.062157154E0,-7.209094524E0,-6.566528678E-1
1.666876428E0,-5.962491035E0,-7.219207287E0,-7.417045236E-1
1.668876428E0,-5.791142941E0,-7.206537724E0,-7.843979597E-1
1.670876428E0,-5.617122650E0,-7.195074081E0,-7.840148807E-1
1.672876428E0,-5.496953011E0,-7.195888042E0,-7.492127419E-1
1.674876428E0,-5.420663834E0,-7.220979691E0,-7.211623192E-1
1.676876428E0,-5.386685371E0,-7.256087780E0,-7.159429193E-1
1.678876428E0,-5.410120010E0,-7.300926685E0,-6.698018909E-1
1.680876428E0,-5.443648338E0,-7.350697041E0,-6.271276474E-1
1.682876428E0,-5.493534088E0,-7.407477856E0,-5.150789618E-1
1.684876428E0,-5.530194283E0,-7.458761692E0,-3.922755718E-1
1.686876428E0,-5.571182728E0,-7.531009197E0,-2.973023951E-1
1.688876428E0,-5.629745007E0,-7.617114067E0,-2.317012697E-1
1.690876428E0,-5.693574429E0,-7.703133106E0,-1.086967513E-1
1.692876428E0,-5.861369610E0,-7.804762363E0,1.370728314E-1
1.694876428E0,-6.071092129E0,-7.898748875E0,4.507611394E-1
1.696876428E0,-6.325902462E0,-7.986894131E0,6.678482294E-1
1.698876428E0,-6.624038219E0,-8.128170967E0,8.001134396E-1
1.700876428E0,-6.921972275E0,-8.304211617E0,8.978255987E-1
1.702887365E0,-7.171256542E0,-8.453130722E0,8.769290447E-1
1.704956115E0,-7.349796772E0,-8.579977036E0,8.751764894E-1
1.708910803E0,-7.726644516E0,-8.684363365E0,7.691612840E-1
1.712876428E0,-8.145696640E0,-8.734516144E0,5.590652227E-1
1.714876428E0,-8.162054062E0,-8.659099579E0,4.967872500E-1
1.716899865E0,-8.097295761E0,-8.540375710E0,4.373823404E-1
1.720881115E0,-8.031014442E0,-8.283516884E0,2.699223161E-1
1.724876428E0,-8.104037285E0,-8.167186737E0,1.894292422E-2
1.726876428E0,-8.112014771E0,-8.150925636E0,-6.815813482E-2
1.728876428E0,-8.104439735E0,-8.152764320E0,-1.625758708E-1
1.730876428E0,-8.005166054E0,-8.135516167E0,-2.516018748E-1
1.732876428E0,-7.864579201E0,-8.098310471E0,-3.158622384E-1
1.734876428E0,-7.701543331E0,-8.046557426E0,-3.700957000E-1
1.736876428E0,-7.467131615E0,-7.972892761E0,-4.463462234E-1
1.738876428E0,-7.203434467E0,-7.897523403E0,-5.082411766E-1
1.740876428E0,-6.953365326E0,-7.830887794E0,-5.178562403E-1
1.742876428E0,-6.715438843E0,-7.767719269E0,-5.258815885E-1
1.744876428E0,-6.482923985E0,-7.702147007E0,-5.407256484E-1
1.746876428E0,-6.236445427E0,-7.623837471E0,-5.254027843E-1
1.748895178E0,-5.972785950E0,-7.550220013E0,-5.237364173E-1
1.752876428E0,-5.291779518E0,-7.464316368E0,-4.770207405E-1
1.754876428E0,-5.080994129E0,-7.334445477E0,-3.990846872E-1
1.756876428E0,-4.888337612E0,-7.181408405E0,-3.356862068E-1
1.758876428E0,-4.747586727E0,-7.049439430E0,-2.249208838E-1
1.760876428E0,-4.725617886E0,-6.941997528E0,-7.440221310E-2
1.762876428E0,-4.801246166E0,-6.852789402E0,8.712020516E-2
1.764876428E0,-4.854493141E0,-6.820467949E0,2.382422239E-1
1.766876428E0,-4.893748283E0,-6.844036102E0,3.571095467E-1
1.768879553E0,-4.997675896E0,-6.907980442E0,4.724047184E-1
1.772876428E0,-4.903956890E0,-6.892580986E0,5.678663254E-1
1.774876428E0,-4.851523876E0,-6.877277374E0,6.001210213E-1
1.776876428E0,-4.777772903E0,-6.839850903E0,6.658371091E-1
1.778918615E0,-4.601061821E0,-6.771587849E0,6.616137028E-1
1.782882678E0,-4.870620251E0,-6.749426842E0,8.061468601E-1
1.786876428E0,-5.269628525E0,-6.759492397E0,1.003639817E0
1.788876428E0,-5.458722591E0,-6.757308483E0,1.150366068E0
1.790876428E0,-5.558043480E0,-6.801869392E0,1.302531838E0
1.792876428E0,-5.602546692E0,-6.867269516E0,1.392841220E0
1.794876428E0,-5.730885506E0,-6.982104778E0,1.449267745E0
1.796876428E0,-5.933004379E0,-7.141970634E0,1.457656980E0
1.798882678E0,-6.255531788E0,-7.313271046E0,1.384662628E0
1.802876428E0,-7.071485519E0,-7.587646484E0,1.202569246E0
1.804876428E0,-7.474707603E0,-7.586066246E0,1.135081410E0
1.806885803E0,-7.799667358E0,-7.531593800E0,1.003831267E0
1.808902990E0,-8.055138588E0,-7.441274643E0,9.032174349E-1
1.812876428E0,-8.323490143E0,-7.274466038E0,7.205110192E-1
1.814876428E0,-8.421259880E0,-7.207552910E0,5.817814469E-1
1.816876428E0,-8.362458229E0,-7.129884720E0,3.763876557E-1
1.818876428E0,-8.222464561E0,-7.086913586E0,1.771996617E-1
1.820876428E0,-8.155340195E0,-7.079510689E0,6.018065289E-2
1.822876428E0,-8.032891273E0,-7.083504200E0,-3.937982768E-2
1.824876428E0,-7.734488010E0,-7.088062763E0,-1.092809439E-1
1.826876428E0,-7.415216446E0,-7.127653122E0,-1.383369714E-1
1.828876428E0,-7.192670345E0,-7.180383205E0,-1.419665813E-1
1.830876428E0,-7.056900024E0,-7.261881828E0,-1.284441352E-1
1.832876428E0,-6.854905605E0,-7.353800297E0,-1.896973848E-1
1.834876428E0,-6.673416138E0,-7.435394764E0,-2.831957340E-1
1.836876428E0,-6.603112221E0,-7.616204739E0,-4.382442534E-1
1.838876428E0,-6.662105560E0,-7.769414425E0,-3.106907606E-1
1.840876428E0,-6.560409546E0,-7.785599232E0,-2.045701742E-1
1.842876428E0,-6.281552315E0,-7.776165962E0,-2.230342627E-1
1.844876428E0,-6.015278339E0,-7.777640820E0,-1.716259569E-1
1.846876428E0,-5.748229504E0,-7.766780853E0,-1.088978723E-1
1.848876428E0,-5.573126793E0,-7.781777859E0,-3.356670588E-2
1.850896740E0,-5.543515682E0,-7.835321903E0,-3.801992396E-3
1.854876428E0,-5.970439911E0,-7.979290009E0,-5.837063491E-2
1.856876428E0,-6.334664822E0,-8.024080276E0,-6.444232911E-2
1.858876428E0,-6.547269821E0,-7.993655205E0,-6.886681914E-2
1.860913928E0,-6.618607998E0,-7.894133091E0,-8.028237522E-2
1.864876428E0,-6.351395607E0,-7.610448837E0,-7.222828269E-2
1.866876428E0,-6.071704865E0,-7.507670403E0,-1.014758423E-1
1.868876428E0,-6.021417618E0,-7.411969662E0,-1.454621106E-1
1.870876428E0,-6.248866081E0,-7.365397453E0,-2.060258538E-1
1.872876428E0,-6.523634911E0,-7.353263855E0,-2.046371996E-1
1.874876428E0,-6.615782738E0,-7.362132072E0,-1.756769419E-1
1.876876428E0,-6.512151718E0,-7.364439964E0,-1.247762144E-1
1.878876428E0,-6.397661209E0,-7.409852982E0,-2.821327187E-2
1.880876428E0,-6.246788025E0,-7.478643417E0,6.082230061E-2
1.882885803E0,-6.131895542E0,-7.587809563E0,1.126328260E-1
1.884909240E0,-6.035763264E0,-7.727305412E0,1.215967163E-1
1.888884240E0,-5.901582718E0,-7.949898720E0,1.751885265E-1
1.892876428E0,-6.335958004E0,-8.064016342E0,3.468910754E-1
1.894876428E0,-6.605104446E0,-8.071907043E0,3.903889358E-1
1.896876428E0,-6.683222771E0,-8.054190636E0,3.607295752E-1
1.898876428E0,-6.646207809E0,-8.023621559E0,2.890375853E-1
1.900876428E0,-6.590040207E0,-7.998434067E0,2.224404961E-1
1.902876428E0,-6.474419594E0,-7.980371952E0,1.203134209E-1
1.904876428E0,-6.314869404E0,-7.948338032E0,-6.155971438E-2
1.906876428E0,-6.075727463E0,-7.942036152E0,-2.498588860E-1
1.908877990E0,-5.789447784E0,-7.973333359E0,-4.526286423E-1
1.912876428E0,-5.562506199E0,-8.091003418E0,-8.297058344E-1
1.914876428E0,-5.458895206E0,-8.094307899E0,-9.981427193E-1
1.916876428E0,-5.288436890E0,-8.079798698E0,-1.097444534E0
1.918876428E0,-5.156612396E0,-8.076005936E0,-1.184133887E0
1.920876428E0,-5.103451729E0,-8.064791679E0,-1.264148116E0
1.922876428E0,-5.250570297E0,-8.021265030E0,-1.318324089E0
1.924879553E0,-5.417752743E0,-7.947820663E0,-1.289670229E0
1.926898303E0,-5.306901455E0,-7.875669003E0,-1.292983890E0
1.930877990E0,-5.018371105E0,-7.763629913E0,-1.200184584E0
1.934876428E0,-5.006735325E0,-7.579793453E0,-8.236628175E-1
1.936876428E0,-4.537041187E0,-7.582360268E0,-6.248866320E-1
1.938876428E0,-3.777954578E0,-7.687934875E0,-5.048796535E-1
1.940876428E0,-3.463777781E0,-7.893204212E0,-4.618606567E-1
1.942876428E0,-3.919020891E0,-8.175011635E0,-2.850823998E-1
1.944876428E0,-4.599529743E0,-8.487378120E0,-2.046563476E-2
1.946876428E0,-4.925131321E0,-8.759024620E0,1.716067940E-1
1.948876428E0,-4.942618847E0,-8.979156494E0,4.037486017E-1
1.950876428E0,-4.776997566E0,-9.163998604E0,6.682600379E-1
1.952876428E0,-4.721058846E0,-9.333326340E0,8.888425827E-1
1.954876428E0,-4.962481022E0,-9.534046173E0,1.025714397E0
1.956876428E0,-5.377511024E0,-9.737055779E0,1.088404059E0
1.958876428E0,-5.676633358E0,-9.907320976E0,1.058581948E0
1.960876428E0,-5.779171944E0,-9.978314400E0,9.828102589E-1
1.962876428E0,-5.497594833E0,-9.941941261E0,9.689142704E-1
1.964876428E0,-4.834161758E0,-9.860327721E0,9.677075744E-1
1.966876428E0,-4.258422852E0,-9.832383156E0,8.960443735E-1
1.968876428E0,-4.203404427E0,-9.912416458E0,6.860441566E-1
1.970876428E0,-4.555821419E0,-1.001526165E1,4.884363115E-1
1.972877990E0,-5.084987164E0,-1.014059353E1,3.568413854E-1
1.976876428E0,-5.493668079E0,-1.024454975E1,2.836650014E-1
1.978876428E0,-5.025965691E0,-1.014868546E1,2.284547240E-1
1.980876428E0,-4.277432919E0,-1.000232315E1,5.591897666E-2
1.982876428E0,-4.178753376E0,-9.928572655E0,-2.689358890E-1
1.984876428E0,-4.628001690E0,-9.884797096E0,-6.260741353E-1
1.986876428E0,-5.224023342E0,-9.807559967E0,-9.606302977E-1
1.988876428E0,-5.567658901E0,-9.669836044E0,-1.179766893E0
1.990876428E0,-5.408444405E0,-9.490576744E0,-1.261935830E0
1.992876428E0,-4.778548717E0,-9.265388489E0,-1.289210558E0
1.994876428E0,-3.396184683E0,-8.947609901E0,-1.293989420E0
1.996876428E0,-6.743891835E-1,-8.477495193E0,-1.129919529E0
1.998876428E0,1.625797033E0,-8.331352234E0,-1.071386099E0
2.000876428E0,1.217480302E0,-8.748030663E0,-1.335303664E0
2.002882678E0,-7.297910452E-1,-9.373586655E0,-1.413661122E0
2.006876428E0,-3.031940460E0,-9.771110535E0,-9.041654468E-1
2.008888928E0,-3.473469496E0,-9.584611893E0,-6.607421637E-1
2.012876428E0,-3.290638685E0,-8.828906059E0,-2.198451906E-1
2.014876428E0,-2.981758118E0,-8.434772491E0,-3.603752702E-2
2.016876428E0,-2.768367529E0,-8.093398094E0,7.750509679E-2
2.018876428E0,-2.497698307E0,-7.770333290E0,7.626969367E-2
2.020876428E0,-2.024661541E0,-7.459374905E0,8.043560386E-2
2.022876428E0,-1.680844426E0,-7.235631943E0,1.453280449E-1
2.024876428E0,-1.574091792E0,-7.143110275E0,1.704288423E-1
2.026876428E0,-1.619572163E0,-7.082652092E0,1.337784082E-1
2.028876428E0,-1.826708913E0,-7.038091183E0,8.990705758E-2
2.030927990E0,-1.946869016E0,-6.998414516E0,6.965211779E-2
2.034876428E0,-2.153766394E0,-6.899744511E0,1.428093463E-1
2.036876428E0,-2.367913246E0,-6.837868690E0,1.029506773E-1
2.038876428E0,-2.498981476E0,-6.761416912E0,1.056704894E-1
2.040876428E0,-2.550619602E0,-6.697568417E0,8.961975574E-2
2.042876428E0,-2.676573753E0,-6.703601837E0,6.599377096E-2
2.044876428E0,-2.968676090E0,-6.802348614E0,-5.941450968E-2
2.046876428E0,-3.260471582E0,-6.926454067E0,-1.301009208E-1
2.048876428E0,-3.481561899E0,-7.078773499E0,-1.692125946E-1
2.050888928E0,-3.577396870E0,-7.264898300E0,-1.810686737E-1
2.054876428E0,-3.849512339E0,-7.900042057E0,-5.394615233E-2
2.056876428E0,-3.800143957E0,-8.308751106E0,2.316629514E-2
2.058876428E0,-3.592968941E0,-8.708449364E0,1.300913393E-1
2.060876428E0,-2.028769970E0,-8.967080116E0,-1.034582406E-1
2.062876428E0,3.173447371E0,-9.251338959E0,-4.698860049E-1
2.064876428E0,5.681354523E0,-9.531335831E0,-5.275288224E-1
2.066876428E0,5.268440723E0,-9.757349014E0,-4.532510936E-1
2.068879553E0,2.404563665E0,-1.010492992E1,-3.439222574E-1
2.072876428E0,-2.939035892E0,-9.997467995E0,1.779083371E0
2.074876428E0,-6.840981483E0,-1.000146198E1,3.105365753E0
2.076876428E0,-9.632984161E0,-9.806353569E0,3.766778231E0
2.078884240E0,-1.162459660E1,-9.242288589E0,4.036757946E0
2.082876428E0,-1.165281963E1,-8.710565567E0,3.460023642E0
2.084876428E0,-1.140030766E1,-8.528280258E0,2.807172775E0
2.086876428E0,-1.110146332E1,-8.425818443E0,2.126721382E0
2.088876428E0,-1.051621437E1,-8.470867157E0,1.496098399E0
2.090876428E0,-9.551849365E0,-8.711465836E0,1.025350332E0
2.092876428E0,-8.248752594E0,-9.094518661E0,7.265348434E-1
2.094876428E0,-7.044833183E0,-9.538958549E0,5.174348950E-1
2.096876428E0,-6.094967365E0,-9.915413857E0,3.201622367E-1
2.098876428E0,-5.472397804E0,-1.017118168E1,1.477222443E-1
2.100876428E0,-4.984086514E0,-1.028581619E1,4.949294031E-2
2.102876428E0,-4.150578499E0,-1.049448490E1,1.998679489E-1
2.104876428E0,-3.941593409E0,-1.069013977E1,6.746860594E-2
2.106876428E0,-4.285640240E0,-1.082834148E1,-1.043584645E-1
2.108879553E0,-4.522933960E0,-1.085943890E1,-2.398990244E-1
2.112876428E0,-4.525443554E0,-1.082662773E1,-4.151354134E-1
2.114876428E0,-4.586208344E0,-1.088969135E1,-5.072164536E-1
2.116876428E0,-4.595411777E0,-1.100755310E1,-5.879489183E-1
2.118876428E0,-4.542375088E0,-1.114251900E1,-6.540672183E-1
2.120876428E0,-4.475653648E0,-1.128506947E1,-7.053030729E-1
2.122876428E0,-4.398272991E0,-1.145907974E1,-6.910815239E-1
2.124876428E0,-4.359946728E0,-1.162673187E1,-7.282586694E-1
2.126876428E0,-4.384291172E0,-1.176998138E1,-7.708275914E-1
2.128876428E0,-4.410473824E0,-1.184807110E1,-8.117588758E-1
2.130876428E0,-4.418317318E0,-1.188541126E1,-8.368980289E-1
2.132882678E0,-4.399096489E0,-1.191022491E1,-9.309422374E-1
2.136876428E0,-4.086739540E0,-1.184298515E1,-1.206313729E0
2.138881115E0,-3.825599194E0,-1.198265457E1,-1.286203504E0
2.142876428E0,-3.664392710E0,-1.173917294E1,-1.515740395E0
2.144876428E0,-3.592212439E0,-1.143443966E1,-1.696368575E0
2.146876428E0,-3.410961628E0,-1.106134605E1,-1.893554926E0
2.148882678E0,-3.189919472E0,-1.064306927E1,-2.084851742E0
2.150888928E0,-2.949350119E0,-1.023959827E1,-2.268218756E0
2.154876428E0,-2.634761572E0,-9.670850754E0,-2.595917940E0
2.156876428E0,-2.604278564E0,-9.488986969E0,-2.709882021E0
2.158876428E0,-2.504430771E0,-9.301589012E0,-2.802030087E0
2.160882678E0,-2.364953995E0,-9.084386826E0,-2.948775291E0
2.164876428E0,-1.958629370E0,-8.538249969E0,-2.448789597E0
2.166876428E0,-1.714468598E0,-8.346570015E0,-2.000029802E0
2.168876428E0,-1.461468577E0,-8.339962006E0,-1.788219690E0
2.170876428E0,-1.353269935E0,-8.589695930E0,-1.781582832E0
2.172876428E0,-1.411334038E0,-8.825362206E0,-1.645783782E0
2.174876428E0,-1.364264011E0,-8.942161560E0,-1.360241652E0
2.176876428E0,-1.248892188E0,-9.008959770E0,-1.141804338E0
2.178876428E0,-1.217777252E0,-9.039490700E0,-9.416874647E-1
2.180882678E0,-1.186518431E0,-8.997591972E0,-7.519038320E-1
2.184876428E0,-1.316303372E0,-8.850597382E0,-4.852759540E-1
2.186876428E0,-1.536100745E0,-8.847858429E0,-3.701627553E-1
2.188876428E0,-1.617369413E0,-8.784996033E0,-2.182171196E-1
2.190876428E0,-1.644050360E0,-8.657921791E0,-4.692635313E-2
2.192876428E0,-1.623996615E0,-8.511540413E0,1.185129881E-1
2.194876428E0,-1.676822305E0,-8.415091515E0,2.971108258E-1
2.196876428E0,-1.801828384E0,-8.396235466E0,4.980418384E-1
2.198876428E0,-1.975264311E0,-8.469737053E0,6.759118438E-1
2.200876428E0,-2.075504541E0,-8.558955193E0,8.515983820E-1
2.202876428E0,-2.186557293E0,-8.682868958E0,1.031527519E0
2.204876428E0,-2.340820551E0,-8.821589470E0,1.217326999E0
2.206876428E0,-2.571794033E0,-9.130901337E0,1.357991219E0
2.208877990E0,-2.775004148E0,-9.389780998E0,1.467243433E0
2.212876428E0,-2.782886028E0,-9.610785484E0,1.691474676E0
2.214876428E0,-2.623508692E0,-9.564682961E0,1.700046062E0
2.216877990E0,-2.521640301E0,-9.472649574E0,1.659497857E0
2.220876428E0,-2.366103172E0,-9.214516640E0,1.453261256E0
2.222876428E0,-2.384893179E0,-9.105905533E0,1.314780593E0
2.224876428E0,-2.355932951E0,-9.013077736E0,1.157088995E0
2.226876428E0,-2.368354082E0,-8.954611778E0,1.005143285E0
2.228876428E0,-2.406019449E0,-8.940446854E0,8.453159928E-1
2.230876428E0,-2.443752289E0,-8.994881630E0,6.681355238E-1
2.232895178E0,-2.468374014E0,-9.059880257E0,5.101756454E-1
2.236876428E0,-2.398252726E0,-9.161815643E0,1.925129741E-1
2.238876428E0,-2.356114864E0,-9.199260712E0,5.707776919E-2
2.240876428E0,-2.256582975E0,-9.212696075E0,-1.028453261E-1
2.242876428E0,-2.153095961E0,-9.226821899E0,-2.448789477E-1
2.244876428E0,-2.093853951E0,-9.247547150E0,-3.686496019E-1
2.246876428E0,-2.024106026E0,-9.275195122E0,-4.875456691E-1
2.248877990E0,-1.929774404E0,-9.342548370E0,-6.277692914E-1
2.252876428E0,-1.823414445E0,-9.557002068E0,-9.789124727E-1
2.254876428E0,-1.825569272E0,-9.702320099E0,-1.148125052E0
2.256876428E0,-1.782406449E0,-9.787774086E0,-1.274969816E0
2.258876428E0,-1.739224672E0,-9.902092934E0,-1.375028372E0
2.260876428E0,-1.798361421E0,-1.009398365E1,-1.507791638E0
2.262876428E0,-1.780098557E0,-1.019928074E1,-1.588045239E0
2.264876428E0,-1.645812511E0,-1.025233555E1,-1.660838604E0
2.266876428E0,-1.598943591E0,-1.033897686E1,-1.691953659E0
2.268876428E0,-1.577194691E0,-1.044498253E1,-1.696818590E0
2.270876428E0,-1.548033357E0,-1.056518078E1,-1.717322588E0
2.272881115E0,-1.550810695E0,-1.064625835E1,-1.735164165E0
2.274884240E0,-1.532490253E0,-1.064796257E1,-1.750381708E0
2.278895178E0,-1.233894944E0,-1.066396618E1,-1.786093593E0
2.282876428E0,-1.680106997E0,-1.051356220E1,-1.978462934E0
2.284876428E0,-1.715052843E0,-1.039352608E1,-1.881191254E0
2.286876428E0,-1.535056710E0,-1.019732571E1,-1.708655477E0
2.288876428E0,-1.514208078E0,-1.005500603E1,-1.624006271E0
2.290876428E0,-1.797853827E0,-1.011378765E1,-1.571573138E0
2.292876428E0,-1.704125762E0,-1.001456261E1,-1.563212633E0
2.294876428E0,-1.478496194E0,-9.765987396E0,-1.557562232E0
2.296876428E0,-1.503204346E0,-9.642914772E0,-1.437622309E0
2.298876428E0,-1.578516364E0,-9.672278404E0,-1.293615937E0
2.300876428E0,-1.703359604E0,-9.819847107E0,-1.250769258E0
2.302876428E0,-1.790834069E0,-9.981225967E0,-1.224634171E0
2.304876428E0,-1.950038910E0,-1.016767693E1,-1.210144401E0
2.306876428E0,-2.063591003E0,-1.046913528E1,-1.211188316E0
2.308876428E0,-1.584942341E0,-1.041431713E1,-1.251861095E0
2.310876428E0,-1.225955844E0,-1.027509022E1,-1.201381683E0
2.312876428E0,-1.237687349E0,-1.035358238E1,-1.059051156E0
2.314876428E0,-1.110239267E0,-1.026783085E1,-9.188467264E-1
2.316876428E0,-9.779452085E-1,-1.015686417E1,-8.197172284E-1
2.318876428E0,-9.442061186E-1,-1.012944603E1,-6.550440192E-1
2.320876428E0,-7.590194345E-1,-1.002694511E1,-5.565561652E-1
2.322876428E0,-8.679268360E-1,-9.987919807E0,-4.487978816E-1
2.324876428E0,-8.161163330E-1,-9.934902191E0,-3.486436605E-1
2.326876428E0,-6.599856615E-1,-9.822337151E0,-3.686113060E-1
2.328893615E0,-6.515484452E-1,-9.751871109E0,-3.299114108E-1
2.332876428E0,-5.519209504E-1,-9.607222557E0,-2.592920661E-1
2.334876428E0,-4.818857610E-1,-9.573578835E0,-2.636782229E-1
2.336876428E0,-3.745106161E-1,-9.519471169E0,-3.125199378E-1
2.338876428E0,-3.911838233E-1,-9.486583710E0,-3.131424189E-1
2.340876428E0,-3.648476005E-1,-9.437972069E0,-2.864039838E-1
2.342876428E0,-3.437020183E-1,-9.365475655E0,-2.585067451E-1
2.344876428E0,-3.753821254E-1,-9.301080704E0,-2.561029792E-1
2.346876428E0,-3.676152825E-1,-9.182271957E0,-2.667715549E-1
2.348876428E0,-2.266542763E-1,-8.948213577E0,-2.830904126E-1
2.350876428E0,-3.267893791E-1,-8.827881813E0,-2.837512195E-1
2.352876428E0,-7.756734490E-1,-9.056317329E0,-2.810696959E-1
2.354876428E0,-1.165487766E0,-9.428203583E0,-3.696551621E-1
2.356876428E0,-1.354869127E0,-9.770018578E0,-4.733432531E-1
2.358876428E0,-1.467329621E0,-1.008815002E1,-5.380250216E-1
2.360876428E0,-1.492104888E0,-1.021442127E1,-5.535969138E-1
2.362882678E0,-1.450196624E0,-1.038852692E1,-5.703945756E-1
2.364890490E0,-1.116866350E0,-1.039389038E1,-5.289748907E-1
2.368876428E0,8.669787645E-1,-1.023772144E1,-5.783050656E-1
2.370876428E0,-5.398445949E-2,-1.000848103E1,-1.006531954E0
2.372887365E0,-1.663318992E0,-1.010782146E1,-1.008772969E0
2.376876428E0,-2.089113235E0,-1.019427109E1,-1.017353773E0
2.378876428E0,-1.973626733E0,-1.014838886E1,-1.041764975E0
2.380876428E0,-1.685479760E0,-1.003886795E1,-1.057068706E0
2.382888928E0,-1.298586249E0,-9.814570427E0,-1.053257227E0
2.384901428E0,-1.277660847E0,-9.702292442E0,-1.034659028E0
2.388876428E0,-1.314359307E0,-9.613207817E0,-1.083357096E0
2.390876428E0,-1.404764295E0,-9.622880936E0,-1.147282362E0
2.392876428E0,-1.517014027E0,-9.684450150E0,-1.209569812E0
2.394876428E0,-1.562666774E0,-9.758296967E0,-1.266322017E0
2.396876428E0,-1.445628524E0,-9.762941360E0,-1.306027412E0
2.398882678E0,-1.441682816E0,-9.784297943E0,-1.342486382E0
2.402876428E0,-1.489787221E0,-9.778226852E0,-1.382632375E0
2.404876428E0,-1.321005583E0,-9.736922264E0,-1.370421886E0
2.406876428E0,-1.289086103E0,-9.721119881E0,-1.333599091E0
2.408877990E0,-1.184517026E0,-9.683041573E0,-1.279901981E0
2.412876428E0,-1.181232095E0,-9.628847122E0,-1.255538583E0
2.414876428E0,-1.173560977E0,-9.576414108E0,-1.287314296E0
2.416876428E0,-1.261476159E0,-9.534324646E0,-1.264224768E0
2.418876428E0,-1.168562055E0,-9.472543716E0,-1.250912905E0
2.420876428E0,-9.404807091E-1,-9.247612953E0,-1.406746745E0
2.422876428E0,-8.666052222E-1,-8.896335602E0,-1.613768578E0
2.424876428E0,-8.694686890E-1,-8.532321930E0,-1.736389995E0
2.426876428E0,-1.036076427E0,-8.281907082E0,-1.923070669E0
2.428876428E0,-1.301373124E0,-8.109908104E0,-2.092991829E0
2.430876428E0,-1.581475616E0,-8.035649300E0,-2.169797897E0
2.432876428E0,-1.959577560E0,-8.132518768E0,-2.231903553E0
2.434876428E0,-2.215785980E0,-8.403629303E0,-2.191422462E0
2.436876428E0,-2.422817230E0,-8.751487732E0,-2.074489594E0
2.438881115E0,-2.623547077E0,-9.195850372E0,-1.952739596E0
2.442876428E0,-2.573785782E0,-1.040221310E1,-1.242322564E0
2.444876428E0,-2.179968596E0,-1.098304558E1,-8.094316721E-1
2.446876428E0,-1.668758512E0,-1.135084248E1,-5.334568620E-1
2.448885803E0,-1.161455989E0,-1.155723381E1,-4.267329276E-1
2.452902990E0,-5.982248187E-1,-1.176922512E1,-5.631067157E-1
2.456920178E0,-6.086634994E-1,-1.172697258E1,-6.104160547E-1
2.460876428E0,-9.740570188E-1,-1.152546692E1,-6.477943659E-1
2.462876428E0,-1.075618982E0,-1.135304546E1,-6.884958148E-1
2.464893615E0,-1.171463728E0,-1.118793297E1,-7.480347753E-1
2.468876428E0,-1.569552541E0,-1.087740421E1,-7.696400881E-1
2.470876428E0,-1.783527017E0,-1.071308517E1,-8.071811795E-1
2.472877990E0,-1.994801044E0,-1.051824474E1,-8.314487934E-1
2.476876428E0,-2.343205214E0,-1.016234303E1,-8.624680638E-1
2.478876428E0,-2.440735340E0,-1.005850124E1,-8.820047379E-1
2.480876428E0,-2.472654819E0,-9.988188744E0,-8.918018341E-1
2.482876428E0,-2.528535604E0,-9.949057579E0,-9.325990081E-1
2.484876428E0,-2.588658810E0,-9.946346283E0,-9.728119969E-1
2.486876428E0,-2.591234922E0,-1.000414371E1,-9.642215967E-1
2.488876428E0,-2.560158253E0,-1.012976170E1,-9.390345812E-1
2.490876428E0,-2.476217508E0,-1.030700970E1,-8.800031543E-1
2.492876428E0,-2.347859621E0,-1.052076340E1,-7.834690213E-1
2.494876428E0,-2.245799541E0,-1.072559261E1,-7.497395277E-1
2.496879553E0,-2.257100105E0,-1.089084053E1,-7.597855330E-1
2.498881115E0,-2.246201754E0,-1.098786354E1,-7.672650218E-1
2.500885803E0,-2.272317648E0,-1.102672577E1,-8.032355309E-1
2.504876428E0,-2.358125925E0,-1.100748634E1,-8.784038424E-1
2.506881115E0,-2.458768606E0,-1.097570992E1,-9.178124666E-1
2.508885803E0,-2.551404953E0,-1.092962742E1,-9.573263526E-1
2.512876428E0,-2.549221516E0,-1.082500935E1,-1.047942162E0
2.514876428E0,-2.539778709E0,-1.078223896E1,-1.059510827E0
2.516876428E0,-2.525068760E0,-1.064242744E1,-1.036076427E0
2.518876428E0,-2.484070539E0,-1.042589664E1,-9.716532826E-1
2.520876428E0,-2.441290855E0,-1.022579765E1,-9.187510014E-1
2.522876428E0,-2.476849556E0,-1.007239723E1,-9.014264941E-1
2.524876428E0,-2.561048746E0,-9.969360352E0,-9.144222140E-1
2.526876428E0,-2.510933399E0,-9.965911865E0,-9.275329113E-1
2.528876428E0,-2.405464172E0,-9.996903419E0,-9.623828530E-1
2.530876428E0,-2.227105379E0,-1.001001358E1,-9.585042596E-1
2.532876428E0,-1.941094279E0,-9.953769684E0,-9.499713778E-1
2.534876428E0,-1.351124644E0,-9.517947197E0,-1.216254473E0
2.536876428E0,-1.451077759E-1,-8.913526535E0,-1.205030441E0
2.538881115E0,1.068264008E0,-8.525512695E0,-1.045806408E0
2.542876428E0,2.564448595E0,-8.235641479E0,-9.419459701E-1
2.544876428E0,3.343493223E0,-8.344032288E0,-8.770343661E-1
2.546876428E0,4.133541584E0,-8.641286850E0,-9.060137868E-1
2.548876428E0,4.652508259E0,-9.019015312E0,-9.627563953E-1
2.550876428E0,4.879612923E0,-9.422868729E0,-1.034007788E0
2.552876428E0,4.687080383E0,-9.789747238E0,-1.030933738E0
2.554876428E0,3.967441082E0,-1.006168079E1,-8.632916808E-1
2.556882678E0,3.045309544E0,-1.022424698E1,-5.469697118E-1
2.560876428E0,1.288817883E0,-1.032317448E1,-4.951209296E-3
2.562876428E0,6.749254465E-1,-1.030192375E1,1.325238496E-1
2.564884240E0,2.899569571E-1,-1.022900677E1,1.969087273E-1
2.568910803E0,-8.345229179E-2,-1.003966331E1,1.622311026E-1
2.570918615E0,-3.421793282E-1,-1.006886292E1,5.524859950E-2
2.574876428E0,-9.743060470E-1,-1.028573895E1,-5.663052797E-1
2.576876428E0,-1.080895901E0,-1.030744076E1,-1.089112759E0
2.578876428E0,-1.140329599E0,-1.029099751E1,-1.456613183E0
2.580887365E0,-1.197493553E0,-1.021709251E1,-1.473219395E0
2.584895178E0,-9.161365032E-1,-9.792399406E0,-1.049579740E0
2.588879553E0,-5.351902246E-1,-9.603219986E0,-7.406032085E-1
2.592876428E0,-5.816952512E-2,-9.568695068E0,-4.664862752E-1
2.594876428E0,1.815762669E-1,-9.631940842E0,-3.754395545E-1
2.596876428E0,4.800565839E-1,-9.746211052E0,-3.325258791E-1
2.598879553E0,8.291503191E-1,-9.913939476E0,-3.050021231E-1
2.602876428E0,1.302551031E0,-1.036347485E1,-4.179989100E-1
2.604876428E0,1.332574368E0,-1.056477928E1,-5.450256467E-1
2.606876428E0,1.221722722E0,-1.072297859E1,-7.271860838E-1
2.608893615E0,1.024134159E0,-1.083537197E1,-8.906047344E-1
2.612877990E0,7.264390588E-1,-1.097936821E1,-1.096017718E0
2.614882678E0,7.276362181E-1,-1.099026680E1,-1.149465799E0
2.618876428E0,8.641057014E-1,-1.088800621E1,-1.092589140E0
2.620876428E0,9.963135123E-1,-1.080005264E1,-1.011942863E0
2.622876428E0,1.086689830E0,-1.072200108E1,-9.181572199E-1
2.624877990E0,1.164549351E0,-1.062075520E1,-8.427685499E-1
2.628876428E0,1.281932235E0,-1.039210892E1,-9.300419688E-1
2.630876428E0,1.219022274E0,-1.030502701E1,-9.540893435E-1
2.632884240E0,1.186642885E0,-1.019154167E1,-1.069451571E0
2.636876428E0,1.048708200E0,-1.006182384E1,-1.231912613E0
2.638876428E0,1.016951561E0,-1.005896091E1,-1.208008766E0
2.640876428E0,1.057624221E0,-1.008423424E1,-1.068292856E0
2.642877990E0,1.114175320E0,-1.010123253E1,-9.411319494E-1
2.646876428E0,1.211427689E0,-1.011991692E1,-8.725907803E-1
2.648876428E0,1.227382660E0,-1.012642956E1,-8.467620611E-1
2.650876428E0,1.260202408E0,-1.012569237E1,-8.346091509E-1
2.652876428E0,1.306151986E0,-1.013572884E1,-8.208951354E-1
2.654876428E0,1.320545912E0,-1.015147305E1,-8.184147477E-1
2.656876428E0,1.333273411E0,-1.019987392E1,-8.082537651E-1
2.658876428E0,1.280696750E0,-1.026737118E1,-7.105990648E-1
2.660876428E0,1.007374763E0,-1.038367176E1,-2.046180516E-1
2.662877990E0,7.931224108E-1,-1.045341015E1,3.603656590E-1
2.666882678E0,1.207625747E0,-1.033347988E1,-1.565807872E-2
2.670876428E0,1.315115809E0,-1.030747890E1,-3.075016737E-1
2.672877990E0,1.344344258E0,-1.033194733E1,-3.555963933E-1
2.676876428E0,1.391423821E0,-1.034148598E1,-4.860229492E-1
2.678876428E0,1.298088312E0,-1.031052399E1,-5.897014737E-1
2.680876428E0,1.128013849E0,-1.029251957E1,-6.155013442E-1
2.682876428E0,9.228594303E-1,-1.022853756E1,-6.222721338E-1
2.684876428E0,6.274053454E-1,-1.014078522E1,-6.478135586E-1
2.686876428E0,3.783796430E-1,-9.990506172E0,-7.338228226E-1
2.688876428E0,2.704011500E-1,-9.759063721E0,-9.205514193E-1
2.690876428E0,1.426273733E-1,-9.517008781E0,-1.050355434E0
2.692876428E0,-8.481220156E-2,-9.268270493E0,-1.057748795E0
2.694876428E0,-3.794713914E-1,-9.062829018E0,-9.257037640E-1
2.696876428E0,-6.867911220E-1,-8.934413910E0,-5.785061717E-1
2.698876428E0,-7.944822907E-1,-8.879788399E0,6.442318112E-2
2.700876428E0,-8.040208220E-1,-8.891231537E0,7.613753080E-1
2.702876428E0,-8.426727653E-1,-8.909427643E0,1.188318968E0
2.704876428E0,-8.598439693E-1,-8.886031151E0,1.151419401E0
2.706876428E0,-7.605708838E-1,-8.853201866E0,8.608782887E-1
2.708885803E0,-6.784496903E-1,-8.883311272E0,5.730090737E-1
2.712876428E0,-7.001699209E-1,-9.119303703E0,4.337336123E-2
2.714876428E0,-6.023619771E-1,-9.272992134E0,-2.612074018E-1
2.716876428E0,-3.708522618E-1,-9.469748497E0,-6.002455354E-1
2.718876428E0,-7.128974795E-2,-9.721799850E0,-9.941396117E-1
2.720876428E0,1.586972624E-1,-1.007836342E1,-1.198211789E0
2.722876428E0,2.817687988E-1,-1.052131939E1,-1.315001011E0
2.724876428E0,3.209954202E-1,-1.088707733E1,-1.560952544E0
2.726876428E0,1.803217083E-1,-1.114920330E1,-1.638400197E0
2.728876428E0,-5.703946203E-2,-1.131944084E1,-1.305251718E0
2.730876428E0,-2.380219549E-1,-1.140238571E1,-8.164994121E-1
2.732876428E0,-2.873808146E-1,-1.141975784E1,-4.110365510E-1
2.734876428E0,-2.821231484E-1,-1.133862305E1,-1.017056853E-1
2.736876428E0,-1.534874886E-1,-1.117645931E1,1.407694817E-1
2.738876428E0,3.090435639E-2,-1.098026848E1,3.711204231E-1
2.740876428E0,1.745085716E-1,-1.078833961E1,5.972384214E-1
2.742879553E0,2.284643054E-1,-1.059780025E1,7.990409136E-1
2.746876428E0,3.204973936E-1,-1.017516613E1,8.371853232E-1
2.748876428E0,2.237237841E-1,-9.964035034E0,7.985045910E-1
2.750876428E0,4.182191566E-2,-9.769186020E0,7.751084566E-1
2.752881115E0,-1.539375931E-1,-9.552635193E0,7.279521823E-1
2.756876428E0,-7.225126624E-1,-9.139012337E0,7.605133653E-1
2.758876428E0,-1.090865374E0,-8.973553658E0,7.617105246E-1
2.760876428E0,-1.236250877E0,-8.820315361E0,6.212091446E-1
2.762879553E0,-1.364407659E0,-8.697281837E0,4.699913561E-1
2.766876428E0,-1.737041235E0,-8.452930450E0,1.044829655E-2
2.768876428E0,-1.957336545E0,-8.345392227E0,-2.434615791E-1
2.770876428E0,-2.127985477E0,-8.234674454E0,-4.567945302E-1
2.772877990E0,-2.260605335E0,-8.137010574E0,-6.175221205E-1
2.776876428E0,-2.238003969E0,-8.051853180E0,-8.546533585E-1
2.778892053E0,-2.131184340E0,-8.060731888E0,-9.216048717E-1
2.780912365E0,-2.055259228E0,-8.093541145E0,-9.450010061E-1
2.784876428E0,-2.026308775E0,-8.241397858E0,-9.728599191E-1
2.786876428E0,-2.009894133E0,-8.372858047E0,-1.004779458E0
2.788876428E0,-2.041095257E0,-8.535645485E0,-1.041113734E0
2.790876428E0,-2.036536694E0,-8.710067749E0,-1.076509595E0
2.792876428E0,-1.995739460E0,-8.908297539E0,-1.138634443E0
2.794876428E0,-1.941209078E0,-9.122751236E0,-1.219098806E0
2.796876428E0,-1.901829362E0,-9.286189079E0,-1.294075608E0
2.798876428E0,-1.774553537E0,-9.421452522E0,-1.323150754E0
2.800876428E0,-1.615971208E0,-9.567824364E0,-1.268888593E0
2.802877990E0,-1.452887774E0,-9.701928139E0,-1.215890527E0
2.806876428E0,-1.233377814E0,-1.010791683E1,-1.297523141E0
2.808879553E0,-1.362674356E0,-1.033195686E1,-1.241757393E0
2.812877990E0,-1.768635154E0,-1.071484756E1,-1.219702125E0
2.816876428E0,-2.035971642E0,-1.102041531E1,-1.107433200E0
2.818876428E0,-2.127094984E0,-1.117729187E1,-1.124882221E0
2.820876428E0,-2.264905214E0,-1.128031921E1,-1.206878781E0
2.822876428E0,-2.355482578E0,-1.132311821E1,-1.290168166E0
2.824876428E0,-2.329261541E0,-1.128403473E1,-1.248375177E0
2.826876428E0,-2.242112637E0,-1.122119236E1,-1.060621858E0
2.828876428E0,-2.201372862E0,-1.114725971E1,-9.072013497E-1
2.830876428E0,-2.190914869E0,-1.103983593E1,-8.811907172E-1
2.832876428E0,-2.084209919E0,-1.092386150E1,-9.272552133E-1
2.834876428E0,-1.948688626E0,-1.081417751E1,-1.007144928E0
2.836876428E0,-1.861760020E0,-1.077378273E1,-1.083606124E0
2.838876428E0,-1.847672462E0,-1.075773239E1,-1.161360264E0
2.840876428E0,-1.903045535E0,-1.078081226E1,-1.267768025E0
2.842876428E0,-2.020811558E0,-1.082103539E1,-1.446155310E0
2.844876428E0,-2.159196615E0,-1.087597752E1,-1.640238881E0
2.846876428E0,-2.236510038E0,-1.081006908E1,-1.603569269E0
2.848890490E0,-2.276655912E0,-1.047874165E1,-1.447697163E0
2.852876428E0,-2.496232986E0,-9.849555016E0,-1.448578238E0
2.854876428E0,-2.558012962E0,-9.605978012E0,-1.482441783E0
2.856876428E0,-2.575797081E0,-9.397308350E0,-1.387765527E0
2.858876428E0,-2.515367508E0,-9.221689224E0,-1.311045647E0
2.860876428E0,-2.410855770E0,-9.064255714E0,-1.358297586E0
2.862876428E0,-2.370585203E0,-8.945081711E0,-1.419771194E0
2.864876428E0,-2.355664492E0,-8.851641655E0,-1.214080572E0
2.866876428E0,-2.244947195E0,-8.808756828E0,-9.683684111E-1
2.868876428E0,-2.043470383E0,-8.793098450E0,-9.675639868E-1
2.870876428E0,-1.831842065E0,-8.778158188E0,-1.143346190E0
2.872882678E0,-1.722446203E0,-8.769586563E0,-1.357780576E0
2.876876428E0,-1.814967632E0,-8.744591713E0,-1.567637086E0
2.878876428E0,-1.897768855E0,-8.710393906E0,-1.466640115E0
2.880876428E0,-1.979344010E0,-8.706418991E0,-1.263525605E0
2.882893615E0,-2.017928839E0,-8.707826614E0,-1.121942043E0
2.886892053E0,-2.183061838E0,-8.721128464E0,-7.610304952E-1
2.890876428E0,-2.197120667E0,-8.722881317E0,-2.894972861E-1
2.892876428E0,-2.207511425E0,-8.669012070E0,-7.599195838E-2
2.894876428E0,-2.229930639E0,-8.574708939E0,1.300051510E-1
2.896876428E0,-2.234604359E0,-8.491974831E0,2.428103685E-1
2.898876428E0,-2.282057285E0,-8.440651894E0,2.602114379E-1
2.900876428E0,-2.305146933E0,-8.410648346E0,2.319981456E-1
2.902876428E0,-2.295503139E0,-8.416633606E0,1.949359030E-1
2.904876428E0,-2.330085039E0,-8.464891434E0,1.620204151E-1
2.906876428E0,-2.385381460E0,-8.572381973E0,9.792285413E-2
2.908876428E0,-2.458318472E0,-8.716512680E0,-1.361821964E-2
2.910876428E0,-2.558348179E0,-8.886615753E0,-1.236461550E-1
2.912876428E0,-2.680442810E0,-9.057417870E0,-1.914020479E-1
2.914876428E0,-2.779878855E0,-9.193754196E0,-1.761749387E-1
2.916888928E0,-2.838680506E0,-9.287961006E0,-1.210316867E-1
2.918918615E0,-2.856215477E0,-9.356071472E0,-5.669469386E-2
2.922876428E0,-2.845020294E0,-9.435175896E0,1.086776033E-1
2.924876428E0,-2.837962151E0,-9.452557564E0,1.394191533E-1
2.926876428E0,-2.867631197E0,-9.457633018E0,1.382795125E-1
2.928876428E0,-2.916836739E0,-9.429199219E0,1.511986256E-1
2.930876428E0,-2.974278450E0,-9.370167732E0,1.454238147E-1
2.932882678E0,-3.047713280E0,-9.267112732E0,1.026154831E-1
2.936892053E0,-3.145234108E0,-9.006363869E0,-7.544608414E-2
2.940876428E0,-3.119864941E0,-9.027586937E0,-3.523690104E-1
2.942876428E0,-3.123494625E0,-9.074694633E0,-4.578862786E-1
2.944901428E0,-3.135513783E0,-9.035573006E0,-4.978694320E-1
2.948876428E0,-3.199658871E0,-8.825937271E0,-5.326715708E-1
2.950876428E0,-3.187132597E0,-8.701927185E0,-6.015000343E-1
2.952876428E0,-3.126339197E0,-8.626346588E0,-7.100052834E-1
2.954876428E0,-3.075467110E0,-8.587628365E0,-7.872805595E-1
2.956876428E0,-3.074097395E0,-8.610104561E0,-8.826943040E-1
2.958876428E0,-3.093365908E0,-8.650882721E0,-9.482570887E-1
2.960876428E0,-3.149428606E0,-8.704647064E0,-9.615305662E-1
2.962876428E0,-3.183770895E0,-8.722133636E0,-9.627372622E-1
2.964876428E0,-3.262933016E0,-8.761351585E0,-9.591746926E-1
2.966876428E0,-3.283274174E0,-8.777853012E0,-9.564070106E-1
2.968876428E0,-3.276723623E0,-8.794036865E0,-9.418023229E-1
2.970876428E0,-3.270058155E0,-8.801362991E0,-9.315646887E-1
2.972876428E0,-3.248586893E0,-8.813382149E0,-9.412085414E-1
2.974876428E0,-3.202733040E0,-8.814234734E0,-9.616454840E-1
2.976876428E0,-3.152263403E0,-8.814474106E0,-9.821206927E-1
2.978876428E0,-3.104254961E0,-8.811332703E0,-9.824367166E-1
2.980876428E0,-3.201220036E0,-8.832190514E0,-8.955846429E-1
2.982876428E0,-3.341663837E0,-8.929549217E0,-7.994335294E-1
2.984876428E0,-2.983596563E0,-8.866992950E0,-9.089730382E-1
2.986876428E0,-3.014616013E0,-8.706706047E0,-8.196405768E-1
2.988876428E0,-2.956254959E0,-8.545805931E0,-6.974117756E-1
2.990879553E0,-2.836908579E0,-8.404491425E0,-5.638728142E-1
2.994876428E0,-2.845010757E0,-8.268175125E0,-3.751522601E-1
2.996876428E0,-2.921270847E0,-8.261586189E0,-3.442766368E-1
2.998876428E0,-3.015248060E0,-8.270348549E0,-3.067355454E-1
3.000876428E0,-3.086930513E0,-8.257352829E0,-2.887215614E-1
3.002876428E0,-3.107759953E0,-8.208032608E0,-2.479052246E-1
3.004876428E0,-3.078320742E0,-8.171133041E0,-2.008352131E-1
3.006887365E0,-3.031222105E0,-8.161670685E0,-1.455483139E-1
3.010877990E0,-2.841323614E0,-8.129923820E0,-8.613379300E-2
3.014876428E0,-2.810610771E0,-8.211537361E0,-4.969405010E-2
3.016876428E0,-2.757066965E0,-8.211565971E0,4.532702640E-2
3.018876428E0,-2.654757738E0,-8.104018211E0,1.575001627E-1
3.020876428E0,-2.494700670E0,-7.973132133E0,1.760887504E-1
3.022876428E0,-2.313249111E0,-7.892467022E0,5.128380284E-2
3.024876428E0,-2.237180471E0,-7.853642464E0,-1.541674286E-1
3.026876428E0,-2.248749256E0,-7.820199966E0,-3.637271225E-1
3.028876428E0,-2.333254814E0,-7.770525455E0,-6.573519707E-1
3.030915490E0,-2.355348587E0,-7.768561840E0,-7.493277192E-1
3.034876428E0,-2.526878595E0,-7.876080990E0,-1.069805861E0
3.036876428E0,-2.696685076E0,-8.033992767E0,-1.203201294E0
3.038876428E0,-2.934477329E0,-8.268078804E0,-1.331501722E0
3.040876428E0,-3.214895725E0,-8.621290207E0,-1.478084326E0
3.042876428E0,-3.491684675E0,-9.015021324E0,-1.598790407E0
3.044876428E0,-3.819537163E0,-9.469144821E0,-1.696320653E0
3.046876428E0,-4.145588875E0,-9.954736710E0,-1.743428946E0
3.048876428E0,-4.425786972E0,-1.048426628E1,-1.709661126E0
3.050876428E0,-4.727466106E0,-1.109248924E1,-1.647670388E0
3.052877990E0,-5.000615597E0,-1.170005131E1,-1.525863051E0
3.056876428E0,-5.319169044E0,-1.264550304E1,-1.286739707E0
3.058876428E0,-5.340563774E0,-1.293139935E1,-1.223092318E0
3.060924865E0,-5.255694389E0,-1.308904266E1,-1.234795213E0
3.062926428E0,-5.105616093E0,-1.313141155E1,-1.296536922E0
3.066876428E0,-4.596665859E0,-1.286286831E1,-1.452657938E0
3.068876428E0,-4.298223972E0,-1.256838131E1,-1.519274116E0
3.070876428E0,-4.009177208E0,-1.219242382E1,-1.527433634E0
3.072876428E0,-3.772093534E0,-1.180809784E1,-1.555570364E0
3.074876428E0,-3.558789253E0,-1.138987827E1,-1.569131136E0
3.076876428E0,-3.310127497E0,-1.100502396E1,-1.634109735E0
3.078876428E0,-3.004780531E0,-1.060812378E1,-1.665674806E0
3.080876428E0,-2.710073471E0,-1.028572083E1,-1.727234602E0
3.082876428E0,-2.427260637E0,-1.001631546E1,-1.832273006E0
3.084876428E0,-2.162596226E0,-9.805769920E0,-1.938087106E0
3.086876428E0,-1.921921492E0,-9.640933037E0,-2.070754528E0
3.088876428E0,-1.692432523E0,-9.503496170E0,-2.194209337E0
3.090876428E0,-1.528161526E0,-9.397184372E0,-2.297227144E0
3.092876428E0,-1.392726302E0,-9.294970512E0,-2.399823189E0
3.094929553E0,-1.290130019E0,-9.195046425E0,-2.469906330E0
3.098876428E0,-1.168849230E0,-8.986482620E0,-2.501720428E0
3.100876428E0,-1.145893693E0,-8.906574249E0,-2.506077766E0
3.102876428E0,-1.096908331E0,-8.815843582E0,-2.510521412E0
3.104876428E0,-9.899641275E-1,-8.700605392E0,-2.519399405E0
3.106876428E0,-8.388229609E-1,-8.558341980E0,-2.509927750E0
3.108876428E0,-6.670437455E-1,-8.403168678E0,-2.443167925E0
3.110876428E0,-5.445563793E-1,-8.221172333E0,-2.349210024E0
3.112877990E0,-4.855728447E-1,-8.055013657E0,-2.236356735E0
3.116876428E0,-2.322375625E-1,-7.847762108E0,-1.914336681E0
3.118876428E0,-1.090415195E-1,-7.754608631E0,-1.708100080E0
3.120876428E0,-6.834009290E-2,-7.647893906E0,-1.522549391E0
3.122876428E0,-7.284119725E-2,-7.542060852E0,-1.368439436E0
3.124876428E0,-2.331665158E-1,-7.475588322E0,-1.257425189E0
3.126876428E0,-3.704979122E-1,-7.436888695E0,-1.202952266E0
3.128876428E0,-4.077708423E-1,-7.390689850E0,-1.186010838E0
3.130876428E0,-4.384070635E-1,-7.379484653E0,-1.166866779E0
3.132876428E0,-4.286961555E-1,-7.373796463E0,-1.156926155E0
3.134876428E0,-3.035081625E-1,-7.364688873E0,-1.213323951E0
3.136876428E0,-1.407982111E-1,-7.367533207E0,-1.356526017E0
3.138876428E0,7.435432076E-2,-7.310426712E0,-1.492641091E0
3.140876428E0,2.568308115E-1,-7.179770470E0,-1.617953658E0
3.142876428E0,3.269521892E-1,-7.025038242E0,-1.757238626E0
3.144876428E0,4.343752265E-1,-6.849341869E0,-1.935999393E0
3.146876428E0,5.816569328E-1,-6.701255798E0,-2.131921530E0
3.148876428E0,7.675331831E-1,-6.616596699E0,-2.325928688E0
3.150876428E0,9.768822193E-1,-6.583230972E0,-2.489031315E0
3.152876428E0,1.100691199E0,-6.548246861E0,-2.692375422E0
3.154876428E0,1.005804181E0,-6.641419888E0,-2.955718517E0
3.156876428E0,6.691793799E-1,-6.912673473E0,-3.048527241E0
3.158876428E0,2.455589026E-1,-7.363367081E0,-3.158229828E0
3.160876428E0,-2.149131149E-1,-7.891451836E0,-3.264398098E0
3.162876428E0,-6.956114173E-1,-8.523099899E0,-3.305616856E0
3.164876428E0,-1.130781531E0,-9.160273552E0,-3.303730249E0
3.166876428E0,-1.495533347E0,-9.756218910E0,-3.307225943E0
3.168876428E0,-1.791083097E0,-1.030150318E1,-3.190704823E0
3.170876428E0,-1.975647330E0,-1.074555111E1,-3.048383713E0
3.172876428E0,-1.969614029E0,-1.108609295E1,-2.928989649E0
3.174876428E0,-1.883508921E0,-1.134862137E1,-2.792252302E0
3.176876428E0,-1.772734046E0,-1.153014088E1,-2.674265862E0
3.178876428E0,-1.704843998E0,-1.168255424E1,-2.508989334E0
3.180876428E0,-1.683583498E0,-1.186419868E1,-2.348098993E0
3.182876428E0,-1.731094003E0,-1.208345032E1,-2.268094301E0
3.184876428E0,-1.748533368E0,-1.226547623E1,-2.254878521E0
3.186876428E0,-1.703455329E0,-1.236819744E1,-2.218467236E0
3.188876428E0,-1.142216206E0,-1.235899448E1,-1.753350496E0
3.190876428E0,1.809844136E0,-1.181796169E1,5.098691955E-2
3.192876428E0,8.088781357E0,-1.005578136E1,1.919278264E0
3.194892053E0,1.376087475E1,-7.994086266E0,5.384636402E0
3.198876428E0,1.151096821E1,-7.238313675E0,5.700316429E0
3.200876428E0,6.531075478E0,-8.063709259E0,-8.200141191E-1
3.202876428E0,3.311468363E0,-8.231562614E0,-3.011714220E0
3.204876428E0,1.256122708E0,-8.118613243E0,-2.380593061E0
3.206924865E0,1.105546579E-1,-7.976589203E0,-1.165506959E0
3.210876428E0,-1.143154621E0,-8.026867867E0,6.710564494E-1
3.212876428E0,-1.691896081E0,-8.287117004E0,5.889257193E-1
3.214876428E0,-2.071195126E0,-8.742714882E0,-1.294094682E0
3.216876428E0,-2.282938480E0,-9.308216095E0,-2.729935884E0
3.218876428E0,-2.704116583E0,-9.958375931E0,-3.337047815E0
3.220876428E0,-3.378525257E0,-1.067588902E1,-3.341233015E0
3.222882678E0,-3.986815214E0,-1.130220222E1,-3.234116554E0
3.226876428E0,-4.680501461E0,-1.216670132E1,-2.935779810E0
3.228882678E0,-4.471124172E0,-1.226860714E1,-2.933624983E0
3.232877990E0,-3.532050848E0,-1.199591827E1,-2.706012964E0
3.236876428E0,-3.029086351E0,-1.171725178E1,-2.425039053E0
3.238876428E0,-2.804031610E0,-1.157770824E1,-2.267213106E0
3.240876428E0,-2.605379820E0,-1.148560810E1,-2.196823835E0
3.242876428E0,-2.535354137E0,-1.146877289E1,-2.137150526E0
3.244876428E0,-2.384711266E0,-1.146191502E1,-2.119596481E0
3.246876428E0,-2.151688337E0,-1.139764595E1,-2.137801647E0
3.248876428E0,-1.870771766E0,-1.128415012E1,-2.125457287E0
3.250876428E0,-1.563059330E0,-1.122050285E1,-2.136719704E0
3.252876428E0,-1.266647577E0,-1.120053482E1,-2.098010302E0
3.254876428E0,-7.462248206E-1,-1.114525795E1,-2.061034203E0
3.256881115E0,-5.986365676E-1,-1.114583206E1,-2.009510994E0
3.260882678E0,1.494460702E-1,-1.114747906E1,-1.655964017E0
3.262929553E0,9.299079776E-1,-1.092046165E1,-1.320249081E0
3.266876428E0,1.471629620E0,-1.069050312E1,-1.030713320E0
3.268876428E0,1.246986508E0,-1.100356960E1,-8.593843579E-1
3.270876428E0,1.046428919E0,-1.141139793E1,-7.276170850E-1
3.272876428E0,1.332660556E0,-1.139535618E1,-6.343198419E-1
3.274913928E0,1.541722298E0,-1.125045872E1,-5.378813744E-1
3.278876428E0,1.561019540E0,-1.081437016E1,-5.133360028E-1
3.280876428E0,1.531666636E0,-1.054973316E1,-5.630300045E-1
3.282907678E0,1.522712231E0,-1.018920517E1,-6.198013425E-1
3.286882678E0,1.429395914E0,-9.602080345E0,-6.190160513E-1
3.290876428E0,1.400655866E0,-9.408043861E0,-5.188043714E-1
3.292881115E0,1.333531976E0,-9.383431435E0,-4.783902168E-1
3.296876428E0,1.069068432E0,-9.533348083E0,-3.845375478E-1
3.298876428E0,9.204077721E-1,-9.654790878E0,-3.517656922E-1
3.300876428E0,7.382568717E-1,-9.812980652E0,-3.635643423E-1
3.302877990E0,5.927469134E-1,-9.979195595E0,-3.776709735E-1
3.306876428E0,5.760928392E-1,-1.014963341E1,-4.225670099E-1
3.308885803E0,6.085677743E-1,-1.018263531E1,-4.560954273E-1
3.312876428E0,5.131061673E-1,-1.037891197E1,-6.171103120E-1
3.314876428E0,4.403990507E-1,-1.047900867E1,-6.871262789E-1
3.316876428E0,3.534990847E-1,-1.056392670E1,-7.386782765E-1
3.318876428E0,3.213784695E-1,-1.058898926E1,-7.968477607E-1
3.320876428E0,2.934333384E-1,-1.059217739E1,-8.129368424E-1
3.322877990E0,2.423315197E-1,-1.059659290E1,-8.674001694E-1
3.326876428E0,5.522944778E-2,-1.062361908E1,-9.952792525E-1
3.328876428E0,3.366247565E-2,-1.060069275E1,-1.079516888E0
3.330876428E0,2.553176694E-2,-1.060249233E1,-1.167518020E0
3.332877990E0,3.860410675E-2,-1.061255741E1,-1.260681272E0
3.336876428E0,-1.004607044E-2,-1.062764072E1,-1.532643437E0
3.338882678E0,-2.718855441E-2,-1.060819054E1,-1.655523419E0
3.342877990E0,-2.334825508E-2,-1.034253025E1,-1.880444288E0
3.346876428E0,-6.675034296E-3,-9.652904510E0,-2.019221783E0
3.348876428E0,-1.492066495E-2,-9.221440315E0,-2.150117636E0
3.350882678E0,7.214207947E-2,-8.654780388E0,-2.254112005E0
3.352923303E0,1.652382165E-1,-7.833272457E0,-2.325229406E0
3.356876428E0,6.367618591E-2,-6.459757328E0,-2.817199707E0
3.358876428E0,9.844956920E-3,-6.074443817E0,-3.026558399E0
3.360882678E0,-8.452489227E-2,-5.785148144E0,-3.109589100E0
3.362884240E0,-2.085253894E-1,-5.698027611E0,-3.140225410E0
3.366876428E0,-2.719334364E-1,-6.052139759E0,-3.051323891E0
3.368876428E0,-2.517934144E-1,-6.257524014E0,-2.880971670E0
3.370876428E0,-1.543685496E-1,-6.448887825E0,-2.667695999E0
3.372876428E0,-7.986099273E-2,-6.492921829E0,-2.459592104E0
3.374882678E0,7.977480441E-2,-6.496436596E0,-2.294401884E0
3.376898303E0,2.990549207E-1,-6.531487942E0,-2.166340828E0
3.378917053E0,6.502652168E-1,-6.558283806E0,-2.017660856E0
3.382876428E0,1.735144973E0,-6.528949738E0,-1.650170088E0
3.384876428E0,2.453836441E0,-6.293092251E0,-1.474272847E0
3.386876428E0,3.036738396E0,-5.943797588E0,-1.159157634E0
3.388876428E0,3.234642982E0,-5.816655636E0,-9.679853320E-1
3.390876428E0,3.117834806E0,-5.851027012E0,-9.387186170E-1
3.392876428E0,2.854932308E0,-6.015833855E0,-9.815461040E-1
3.394876428E0,2.574638367E0,-6.216190338E0,-9.441295266E-1
3.396877990E0,2.280553818E0,-6.415818691E0,-7.952771783E-1
3.398877990E0,2.035981178E0,-6.682791710E0,-4.875169396E-1
3.402876428E0,1.534549236E0,-7.574545383E0,-1.000297442E-1
3.404879553E0,1.288616776E0,-8.330557823E0,-9.457097203E-2
3.406893615E0,1.066252947E0,-9.113844872E0,-4.687751234E-1
3.410876428E0,7.768992782E-1,-1.009581280E1,-6.334291101E-1
3.412876428E0,8.009466529E-1,-1.055795002E1,-3.927831352E-1
3.414876428E0,9.018478990E-1,-1.107020378E1,-1.874372512E-1
3.416882678E0,9.450488687E-1,-1.175540638E1,-1.064557880E-1
3.420885803E0,8.779824972E-1,-1.345406342E1,-5.153758526E-1
3.424876428E0,8.763256669E-1,-1.442802429E1,-7.315435410E-1
3.426876428E0,8.771972060E-1,-1.449316597E1,-8.167962432E-1
3.428876428E0,8.842840791E-1,-1.429772282E1,-8.139711022E-1
3.430876428E0,9.121429324E-1,-1.398732853E1,-7.912166119E-1
3.432882678E0,8.728876114E-1,-1.358383846E1,-7.098233700E-1
3.434910803E0,8.224082589E-1,-1.315755558E1,-5.645048618E-1
3.438876428E0,5.825188756E-1,-1.254712963E1,-3.624821603E-1
3.440876428E0,4.521210492E-1,-1.223726273E1,-4.181137979E-1
3.442876428E0,3.756119311E-1,-1.190196991E1,-5.263604522E-1
3.444876428E0,3.076644838E-1,-1.158778286E1,-7.135295272E-1
3.446876428E0,2.437584698E-1,-1.132086849E1,-9.075939655E-1
3.448876428E0,2.006915659E-1,-1.106169033E1,-1.121223807E0
3.450876428E0,1.380400956E-1,-1.075919724E1,-1.383484602E0
3.452902990E0,9.245449305E-2,-1.040974045E1,-1.626065135E0
3.456876428E0,1.160709001E-2,-9.528012276E0,-1.869775772E0
3.458876428E0,-4.323928431E-2,-9.211231232E0,-1.977993608E0
3.460876428E0,-2.292687595E-1,-8.953825951E0,-2.121262789E0
3.462876428E0,-2.881565392E-1,-8.662050247E0,-2.373812675E0
3.464876428E0,-5.319916084E-2,-8.382157326E0,-2.580489635E0
3.466876428E0,2.059875280E-1,-8.137413025E0,-2.611939907E0
3.468876428E0,4.321821332E-1,-7.936797619E0,-2.709297895E0
3.470876428E0,4.911178052E-1,-7.692560673E0,-2.916568518E0
3.472876428E0,4.147427678E-1,-7.215980530E0,-3.135341406E0
3.474876428E0,2.239727825E-1,-6.538038254E0,-3.143491030E0
3.476876428E0,9.634267539E-3,-5.773933411E0,-2.894302607E0
3.478876428E0,-6.697060913E-2,-4.997858047E0,-2.638295412E0
3.480876428E0,-7.349241525E-2,-4.472052574E0,-2.804510593E0
3.482876428E0,8.939948678E-2,-4.177997112E0,-2.935186148E0
3.484876428E0,6.257485598E-2,-4.373191357E0,-2.684771538E0
3.486876428E0,1.011310816E-1,-4.958554745E0,-2.261132002E0
3.488876428E0,2.117527723E-1,-5.627810478E0,-2.402782440E0
3.490876428E0,3.954454958E-1,-6.027307034E0,-2.806349039E0
3.492876428E0,5.736890435E-1,-6.109083652E0,-2.847596407E0
3.494876428E0,5.454469919E-1,-6.131483555E0,-2.434893608E0
3.496876428E0,3.939036131E-1,-6.107311726E0,-2.660302639E0
3.498876428E0,2.834734917E-1,-5.632417202E0,-4.131022453E0
3.500876428E0,7.575254142E-2,-3.763780832E0,-5.135103226E0
3.502876428E0,4.017183185E-1,4.262636602E-2,-2.121779680E0
3.504885803E0,1.454975605E0,4.663071632E0,8.684171677E0
3.508876428E0,8.613284230E-1,4.252035141E0,6.303914070E0
3.510876428E0,7.043262124E-1,3.693621159E0,2.590612650E0
3.512896740E0,3.546291590E-2,1.949933648E0,-2.679935217E0
3.516876428E0,-2.128349543E0,-2.210575819E0,-7.661761284E0
3.518876428E0,-2.280841112E0,-3.495649338E0,-5.726307869E0
3.520876428E0,-2.141958237E0,-4.237669945E0,-2.952797651E0
3.522876428E0,-2.177919149E0,-5.092275620E0,-1.574379206E0
3.524890490E0,-2.404161692E0,-6.562267780E0,-1.746321201E0
3.528876428E0,-1.725041509E0,-7.941356659E0,5.624362826E-1
3.530876428E0,-1.235542059E0,-8.148751259E0,1.229978085E0
3.532876428E0,-9.977309108E-1,-8.602299690E0,5.060959458E-1
3.534876428E0,-7.821761370E-1,-8.841097832E0,5.490383506E-1
3.536876428E0,-6.890703440E-1,-8.957655907E0,5.401797891E-1
3.538876428E0,-5.146288276E-1,-9.204575539E0,-1.113782637E-2
3.540882678E0,-3.440563679E-1,-9.033504486E0,-4.869135618E-1
3.544887365E0,1.413919777E-1,-7.335709572E0,8.841307759E-1
3.548876428E0,2.390658259E-1,-7.333238602E0,7.085879147E-2
3.550876428E0,2.901389599E-1,-7.396129608E0,-2.890280262E-2
3.552876428E0,3.023972511E-1,-7.704598427E0,-1.146056429E-1
3.554876428E0,1.468603313E-1,-8.205350876E0,-1.892185509E-1
3.556876428E0,6.692273170E-2,-8.715899467E0,-3.600879312E-1
3.558876428E0,-4.069185257E-2,-9.184253693E0,-9.285001159E-1
3.560876428E0,-1.383273900E-1,-9.581153870E0,-1.283512354E0
3.562876428E0,-1.216541752E-1,-9.727459908E0,-1.332229614E0
3.564876428E0,-2.817496471E-2,-9.730322838E0,-1.450024247E0
3.566876428E0,5.350561813E-2,-9.508341789E0,-1.757794142E0
3.568876428E0,1.588792205E-1,-8.933838844E0,-2.011656046E0
3.570876428E0,3.139373064E-1,-7.825026989E0,-2.304179668E0
3.572923303E0,5.183734298E-1,-4.734533787E0,-2.238588095E0
3.576876428E0,2.024728507E-1,-8.446264863E-1,-2.068781853E0
3.578876428E0,-4.276522994E-1,2.485631704E0,-2.450005770E0
3.580876428E0,-1.513480186E0,4.447852135E0,-3.605629444E0
3.582876428E0,-2.141670942E0,4.614038467E0,-4.357294083E0
3.584876428E0,-2.083271503E0,3.927668810E0,-4.743220329E0
3.586876428E0,-1.730442762E0,2.743736029E0,-5.098107815E0
3.588882678E0,-1.390935421E0,1.233310819E0,-5.782150269E0
3.592876428E0,-9.639151692E-1,-1.606614709E0,-6.841201782E0
3.594876428E0,-8.226860166E-1,-2.442478180E0,-6.923188686E0
3.596876428E0,-7.456789017E-1,-2.461306334E0,-6.362763405E0
3.598876428E0,-9.459586740E-1,-2.093298435E0,-5.482223988E0
3.600876428E0,-1.515472174E0,-2.067125082E0,-4.501769543E0
3.602876428E0,-2.235188484E0,-2.609612703E0,-4.023053646E0
3.604876428E0,-2.770282984E0,-3.340371132E0,-4.319216251E0
3.606881115E0,-2.886813402E0,-3.690412760E0,-5.355273724E0
3.608899865E0,-2.435142517E0,-3.895174503E0,-6.682580948E0
3.612876428E0,-1.671076179E0,-6.251978874E0,-6.501790047E0
3.614881115E0,-1.554315805E0,-7.957808971E0,-5.063488007E0
3.618876428E0,-1.843305469E0,-1.095264912E1,-8.767088056E-1
3.620876428E0,-1.993268728E0,-1.199559212E1,5.146384239E-1
3.622884240E0,-2.082189560E0,-1.296084785E1,1.246392727E0
3.626876428E0,-1.888747454E0,-1.446293163E1,6.467600465E-1
3.628876428E0,-1.619390130E0,-1.452456856E1,3.854952157E-1
3.630879553E0,-1.408259869E0,-1.439674664E1,2.121741474E-1
3.634890490E0,-1.312491775E0,-1.405335999E1,-3.629705608E-1
3.638876428E0,-1.313889980E0,-1.384197140E1,-1.013522983E0
3.640876428E0,-1.391241789E0,-1.425421524E1,-1.145979881E0
3.642876428E0,-1.377661943E0,-1.489637756E1,-1.197512746E0
3.644876428E0,-1.215181828E0,-1.539409447E1,-1.244333625E0
3.646876428E0,-1.022477388E0,-1.578683853E1,-1.315068007E0
3.648876428E0,-8.074301481E-1,-1.602880669E1,-1.381167173E0
3.650876428E0,-6.119291782E-1,-1.615315247E1,-1.493684888E0
3.652888928E0,-4.387709796E-1,-1.619860268E1,-1.786256433E0
3.656881115E0,-8.869080991E-2,-1.656034851E1,-1.439585567E0
3.660876428E0,3.480020165E-1,-1.620053864E1,-8.939374685E-1
3.662876428E0,6.167654991E-1,-1.570421982E1,-8.932000399E-1
3.664895178E0,8.827804327E-1,-1.520809364E1,-1.043776155E0
3.668876428E0,1.337506413E0,-1.495651054E1,-8.992621303E-1
3.670876428E0,1.562072992E0,-1.503734875E1,-9.215856791E-1
3.672876428E0,1.796829224E0,-1.502707291E1,-1.154302120E0
3.674876428E0,2.015314341E0,-1.504605389E1,-1.305615544E0
3.676876428E0,2.219137669E0,-1.512354946E1,-1.268773675E0
3.678876428E0,2.347313643E0,-1.534504223E1,-1.154206276E0
3.680876428E0,2.389020681E0,-1.582004166E1,-1.160278082E0
3.682876428E0,2.432604790E0,-1.646607399E1,-1.472778797E0
3.684876428E0,2.510473728E0,-1.707298470E1,-2.343435049E0
3.686876428E0,2.659833431E0,-1.743155098E1,-3.701225042E0
3.688912365E0,2.852547646E0,-1.762295341E1,-5.221667290E0
3.692876428E0,3.241672516E0,-1.782426834E1,-7.919617176E0
3.694876428E0,3.313604116E0,-1.776665306E1,-8.822364807E0
3.696876428E0,3.222777367E0,-1.758337021E1,-9.060808182E0
3.698990490E0,5.062970161E0,-1.867395973E1,-8.637580872E0
3.702892053E0,2.870906591E0,-1.705433083E1,-6.140993118E0
3.706876428E0,3.579676151E0,-1.639039803E1,-3.819144249E0
3.708876428E0,3.307081938E0,-1.581440163E1,-3.086193085E0
3.710876428E0,1.465931416E0,-1.721843719E1,-2.853821278E0
3.712876428E0,8.025555611E-1,-1.707293701E1,-2.183368444E0
3.714885803E0,5.349795818E-1,-1.741588211E1,-2.227297068E0
3.718876428E0,6.496905535E-2,-1.821423531E1,-3.511116028E0
3.720876428E0,-1.686475724E-1,-1.870907784E1,-3.902682781E0
3.722876428E0,-2.732741833E-1,-1.932595634E1,-4.183886528E0
3.724876428E0,-2.676909268E-1,-1.968975258E1,-5.015842915E0
3.726876428E0,-4.181425571E-1,-1.963890839E1,-5.375834942E0
3.728876428E0,-6.331897378E-1,-1.930569267E1,-5.300590515E0
3.730876428E0,-7.379983068E-1,-1.900420570E1,-5.024855137E0
3.732879553E0,-7.150331140E-1,-1.845380592E1,-4.603867531E0
3.736876428E0,-3.749128282E-1,-1.621974945E1,-4.557487488E0
3.738876428E0,-2.038998008E-1,-1.491180706E1,-4.379301071E0
3.740882678E0,-4.074931517E-2,-1.382763577E1,-4.079988003E0
3.742890490E0,1.338933408E-1,-1.303954124E1,-3.764163733E0
3.746884240E0,4.945941865E-1,-1.188481712E1,-3.664699316E0
3.750876428E0,6.287077665E-1,-1.116018867E1,-3.066215754E0
3.752876428E0,6.601484418E-1,-1.105723763E1,-2.714105368E0
3.754876428E0,6.582713723E-1,-1.106051254E1,-2.366907597E0
3.756881115E0,6.154630780E-1,-1.106940937E1,-2.004789591E0
3.760876428E0,5.658264756E-1,-1.126037121E1,-1.330611110E0
3.762876428E0,6.313222647E-1,-1.145739460E1,-1.079880714E0
3.764877990E0,6.996144652E-1,-1.160002232E1,-8.490126133E-1
3.768876428E0,7.719193697E-1,-1.178120613E1,-4.870189130E-1
3.770876428E0,9.040122628E-1,-1.184576225E1,-4.095712900E-1
3.772881115E0,9.963231087E-1,-1.194399261E1,-4.489415586E-1
3.774901428E0,1.072717309E0,-1.204001808E1,-5.740242600E-1
3.778876428E0,1.058601022E0,-1.210830212E1,-9.497989416E-1
3.780876428E0,1.080522299E0,-1.218539429E1,-1.199523807E0
3.782876428E0,1.044848800E0,-1.224051857E1,-1.455013752E0
3.784876428E0,9.506129622E-1,-1.231817818E1,-1.755984187E0
3.786876428E0,7.915039062E-1,-1.239756966E1,-2.066416264E0
3.788876428E0,6.051871181E-1,-1.244926453E1,-2.300607681E0
3.790876428E0,4.836191833E-1,-1.248961163E1,-2.515827179E0
3.792887365E0,3.708330989E-1,-1.253175926E1,-2.761577606E0
3.796876428E0,1.310298741E-1,-1.253694057E1,-3.182353735E0
3.798876428E0,-2.041775174E-2,-1.246443462E1,-3.239105940E0
3.800876428E0,-1.793544292E-1,-1.238012981E1,-3.250684261E0
3.802877990E0,-3.379080594E-1,-1.234420681E1,-3.220670700E0
3.806876428E0,-6.163345575E-1,-1.231678867E1,-3.264896154E0
3.808910803E0,-6.970000267E-1,-1.235514355E1,-3.292621136E0
3.812876428E0,-7.425855994E-1,-1.242443180E1,-3.339623928E0
3.814884240E0,-7.394922972E-1,-1.238279152E1,-3.389997959E0
3.816915490E0,-7.392049432E-1,-1.233402729E1,-3.409812450E0
3.820876428E0,-7.654166818E-1,-1.215689468E1,-3.373842001E0
3.822876428E0,-8.021533489E-1,-1.207773209E1,-3.321715355E0
3.824876428E0,-8.475760818E-1,-1.199611950E1,-3.238684654E0
3.826876428E0,-8.779250383E-1,-1.199818707E1,-3.120468616E0
3.828876428E0,-9.363723397E-1,-1.204328442E1,-2.988116980E0
3.830888928E0,-9.773418307E-1,-1.209125519E1,-2.930043221E0
3.832888928E0,-1.106111526E0,-1.214253902E1,-2.787942648E0
3.836876428E0,-1.086814284E0,-1.229821968E1,-2.457533121E0
3.838876428E0,-1.063772559E0,-1.231317902E1,-2.376455784E0
3.840876428E0,-1.019633055E0,-1.227153778E1,-2.236586571E0
3.842884240E0,-9.234914780E-1,-1.214836121E1,-2.066272736E0
3.846876428E0,-7.677247524E-1,-1.209076691E1,-1.929908514E0
3.848879553E0,-6.564613581E-1,-1.205064011E1,-1.865887523E0
3.852876428E0,-3.894408643E-1,-1.196701431E1,-1.755955458E0
3.854888928E0,-2.420633733E-1,-1.196620083E1,-1.719237924E0
3.856901428E0,-2.220861427E-2,-1.193199253E1,-1.678344965E0
3.860876428E0,1.577874720E-1,-1.188696289E1,-1.649499655E0
3.862882678E0,2.729007006E-1,-1.185714054E1,-1.641426444E0
3.866876428E0,5.307083130E-1,-1.173674965E1,-1.656251192E0
3.868876428E0,6.671108007E-1,-1.165351868E1,-1.684952974E0
3.870876428E0,8.268710971E-1,-1.153242874E1,-1.715570092E0
3.872876428E0,9.391590953E-1,-1.142557144E1,-1.735777140E0
3.874877990E0,1.033088446E0,-1.131203842E1,-1.721622586E0
3.878876428E0,1.185771465E0,-1.098603439E1,-1.719592333E0
3.880909240E0,1.213381529E0,-1.072899246E1,-1.682587504E0
3.884879553E0,1.238233328E0,-1.046924019E1,-1.644107938E0
3.886917053E0,1.310691357E0,-1.023600674E1,-1.586053252E0
3.890877990E0,1.395944118E0,-9.990850449E0,-1.483600616E0
3.894876428E0,1.742193460E0,-9.681031227E0,-1.049407363E0
3.896876428E0,2.006992102E0,-9.480281830E0,-9.325415492E-1
3.898929553E0,2.123254538E0,-9.314766884E0,-1.057107091E0
3.902876428E0,1.850813746E0,-9.171985626E0,-1.512235284E0
3.904877990E0,1.585306287E0,-9.114543915E0,-1.647871614E0
3.908876428E0,1.182553768E0,-8.878696442E0,-1.661623955E0
3.910876428E0,1.067354202E0,-8.731481552E0,-1.672282815E0
3.912876428E0,9.849936962E-1,-8.559855461E0,-1.713329077E0
3.914876428E0,9.656964540E-1,-8.397154808E0,-1.815140128E0
3.916876428E0,9.390155077E-1,-8.259115219E0,-1.934160590E0
3.918876428E0,9.330587387E-1,-8.115951538E0,-2.098642349E0
3.920876428E0,9.129761457E-1,-7.960040569E0,-2.267740011E0
3.922876428E0,8.958815336E-1,-7.788481712E0,-2.424110174E0
3.924876428E0,8.677257299E-1,-7.662364960E0,-2.539615870E0
3.926876428E0,8.599876761E-1,-7.590232372E0,-2.626946688E0
3.928876428E0,8.662030101E-1,-7.564087391E0,-2.701789618E0
3.930876428E0,8.688271046E-1,-7.582513332E0,-2.770359516E0
3.932884240E0,8.905472159E-1,-7.597338200E0,-2.861655235E0
3.936876428E0,9.098445177E-1,-7.459978104E0,-3.061235905E0
3.938876428E0,8.941960335E-1,-7.265310764E0,-3.171781063E0
3.940876428E0,8.832976222E-1,-6.977211475E0,-3.305434704E0
3.942876428E0,8.900014162E-1,-6.660889149E0,-3.344517708E0
3.944876428E0,8.959773183E-1,-6.282825470E0,-3.316467285E0
3.946876428E0,9.123440385E-1,-5.931213379E0,-3.202120304E0
3.948877990E0,9.614635110E-1,-5.625444889E0,-3.053833008E0
3.952876428E0,1.247388721E0,-5.430509090E0,-2.626228571E0
3.954876428E0,1.440389991E0,-5.367263794E0,-2.330094576E0
3.956881115E0,1.631265402E0,-5.353186131E0,-1.977141380E0
3.960876428E0,1.956110716E0,-5.243636608E0,-1.205116630E0
3.962876428E0,2.061790705E0,-5.140284061E0,-9.213271737E-1
3.964876428E0,2.117527723E0,-5.044458389E0,-8.194873929E-1
3.966876428E0,2.138673306E0,-5.023829937E0,-8.231265545E-1
3.968876428E0,2.100212812E0,-4.994984627E0,-9.575944543E-1
3.970876428E0,2.068580866E0,-4.942436695E0,-1.138797283E0
3.972876428E0,2.029574394E0,-4.898996353E0,-1.251640797E0
3.974879553E0,1.972803116E0,-4.878712654E0,-1.329318285E0
3.978876428E0,1.856770515E0,-4.947588921E0,-1.338444948E0
3.980876428E0,1.865753531E0,-4.982851028E0,-1.339019537E0
3.982881115E0,1.864115834E0,-5.084451199E0,-1.274012208E0
3.984893615E0,1.852020383E0,-5.246117115E0,-1.152137637E0
3.988877990E0,1.935127974E0,-5.438591957E0,-1.092273116E0
3.992876428E0,2.061896086E0,-5.310750961E0,-1.159780025E0
3.994876428E0,2.085953236E0,-5.176982403E0,-1.211035132E0
3.996876428E0,2.078358650E0,-5.074146271E0,-1.214702964E0
3.998885803E0,2.100366116E0,-5.050673962E0,-1.195903778E0
4.002876428E0,1.996476889E0,-5.220010757E0,-1.205470920E0
4.004876428E0,1.902825356E0,-5.382251263E0,-1.173139691E0
4.006876428E0,1.833115697E0,-5.584849358E0,-1.166589141E0
4.008888928E0,1.821661830E0,-5.782580853E0,-1.201601982E0
4.012882678E0,1.881133914E0,-6.089766979E0,-1.370642185E0
4.016876428E0,1.989437938E0,-6.164035320E0,-1.523191214E0
4.018876428E0,1.993469834E0,-6.142765045E0,-1.613902569E0
4.020876428E0,1.975407958E0,-6.156153202E0,-1.752488613E0
4.022877990E0,1.913723707E0,-6.193378448E0,-1.924133658E0
4.024893615E0,1.850229502E0,-6.233304024E0,-2.110440969E0
4.028876428E0,1.799031854E0,-6.352918625E0,-2.501461983E0
4.030876428E0,1.739655614E0,-6.399595737E0,-2.618921280E0
4.032877990E0,1.695851326E0,-6.453752518E0,-2.689799309E0
4.036876428E0,1.717954636E0,-6.673636436E0,-2.847979546E0
4.038876428E0,1.754155040E0,-6.801208973E0,-2.892262697E0
4.040895178E0,1.805726051E0,-7.012377262E0,-2.953994989E0
4.044876428E0,1.967957139E0,-7.473165512E0,-3.138702631E0
4.046876428E0,2.101812363E0,-7.350927353E0,-3.029632330E0
4.048876428E0,2.139334202E0,-7.186110497E0,-2.818444490E0
4.050876428E0,2.107596636E0,-7.055310249E0,-2.623996973E0
4.054874865E0,2.067565441E0,-6.954466343E0,-2.714651108E0
4.056874865E0,2.014270544E0,-6.984786510E0,-2.935578585E0
4.058874865E0,1.937033653E0,-7.059907436E0,-3.188789368E0
4.060874865E0,1.856550217E0,-7.146433830E0,-3.419293404E0
4.062876428E0,1.770828247E0,-7.227980137E0,-3.619889498E0
4.064876428E0,1.703848004E0,-7.322158337E0,-3.786803484E0
4.066879553E0,1.642977834E0,-7.443936825E0,-3.932284594E0
4.070876428E0,1.590889573E0,-7.743892193E0,-4.217855453E0
4.072882678E0,1.621037364E0,-7.909561634E0,-4.334759712E0
4.076876428E0,1.681419015E0,-8.264985085E0,-4.540747166E0
4.078876428E0,1.687443018E0,-8.446398735E0,-4.651311398E0
4.080876428E0,1.698983073E0,-8.621759415E0,-4.771155834E0
4.082885803E0,1.758981705E0,-8.811917305E0,-4.885838032E0
4.086876428E0,1.889762521E0,-9.192020416E0,-5.114761829E0
4.088876428E0,1.967861414E0,-9.396216393E0,-5.212800026E0
4.090876428E0,2.030781031E0,-9.592551231E0,-5.313825130E0
4.092884240E0,2.072794437E0,-9.802215576E0,-5.413012028E0
4.096876428E0,2.101180077E0,-1.027758026E1,-5.631449699E0
4.098890490E0,2.109808922E0,-1.053016758E1,-5.712737560E0
4.100912365E0,2.121827602E0,-1.079042816E1,-5.777486324E0
4.104876428E0,2.228513479E0,-1.139414978E1,-5.888835907E0
4.106876428E0,2.272289038E0,-1.166279793E1,-5.947206497E0
4.108876428E0,2.336606741E0,-1.190430546E1,-6.005366802E0
4.110876428E0,2.365767956E0,-1.214989376E1,-6.050549984E0
4.112877990E0,2.330870390E0,-1.238282967E1,-6.081693649E0
4.116876428E0,2.175496101E0,-1.279239178E1,-6.118736744E0
4.118876428E0,2.172460318E0,-1.296372032E1,-6.168795109E0
4.120888928E0,2.217423439E0,-1.308614159E1,-6.194565773E0
4.124876428E0,2.246977568E0,-1.318286705E1,-6.136779308E0
4.126876428E0,2.260768175E0,-1.319730854E1,-6.053729534E0
4.128876428E0,2.307704210E0,-1.318790436E1,-5.953785419E0
4.130876428E0,2.348108530E0,-1.312856674E1,-5.848124981E0
4.132882678E0,2.387919426E0,-1.300896168E1,-5.738470554E0
4.136882678E0,2.440955639E0,-1.262087154E1,-5.424887657E0
4.140876428E0,2.474235058E0,-1.237061024E1,-5.227969170E0
4.142877990E0,2.485315323E0,-1.217360592E1,-5.072719574E0
4.146876428E0,2.349880219E0,-1.161633110E1,-4.784687519E0
4.148876428E0,2.209474564E0,-1.134888935E1,-4.638737202E0
4.150876428E0,2.072143316E0,-1.109325600E1,-4.503129482E0
4.152876428E0,1.956110716E0,-1.086138153E1,-4.367799759E0
4.154876428E0,1.847270250E0,-1.063018894E1,-4.245915413E0
4.156876428E0,1.720310569E0,-1.039313412E1,-4.136701584E0
4.158876428E0,1.561977148E0,-1.018766308E1,-4.016522408E0
4.160876428E0,1.402590513E0,-1.000411415E1,-3.884841204E0
4.162876428E0,1.251726985E0,-9.816954613E0,-3.753887892E0
4.164876428E0,1.107825756E0,-9.658564568E0,-3.629925728E0
4.166896740E0,9.602184892E-1,-9.511262894E0,-3.513634682E0
4.170876428E0,5.681823492E-1,-9.246244431E0,-3.273716450E0
4.172877990E0,4.145703912E-1,-9.116353989E0,-3.129566431E0
4.176876428E0,1.749682575E-1,-8.926531792E0,-2.817266703E0
4.178876428E0,5.097734183E-2,-8.842399597E0,-2.623719454E0
4.180876428E0,-8.152735978E-2,-8.797628403E0,-2.424742222E0
4.182876428E0,-2.272097468E-1,-8.818113327E0,-2.256582975E0
4.184881115E0,-3.352935910E-1,-8.852512360E0,-2.096391916E0
4.186884240E0,-4.548695982E-1,-8.899505615E0,-1.935175776E0
4.190876428E0,-7.768322825E-1,-9.113442421E0,-1.706146479E0
4.192876428E0,-9.779643416E-1,-9.276209831E0,-1.685843587E0
4.194876428E0,-1.152750611E0,-9.448995590E0,-1.711882949E0
4.196876428E0,-1.387459040E0,-9.685196877E0,-1.793304920E0
4.198876428E0,-1.658482671E0,-1.000190258E1,-1.958207965E0
4.200876428E0,-1.937905192E0,-1.033422661E1,-2.211485863E0
4.202877990E0,-2.181213617E0,-1.068178844E1,-2.552707434E0
4.206876428E0,-2.612983942E0,-1.138412285E1,-3.430096149E0
4.208888928E0,-2.710983515E0,-1.171966457E1,-3.919834852E0
4.212877990E0,-2.878309250E0,-1.256262493E1,-4.994429111E0
4.216876428E0,-2.766701221E0,-1.333560753E1,-6.014924526E0
4.218876428E0,-2.615636826E0,-1.376634407E1,-6.500736237E0
4.220876428E0,-2.408796787E0,-1.418992615E1,-6.945311069E0
4.222931115E0,-2.151956320E0,-1.456602669E1,-7.322129250E0
4.226876428E0,-1.582452416E0,-1.533696842E1,-8.126686096E0
4.228876428E0,-1.162873268E0,-1.572924423E1,-8.545777321E0
4.230876428E0,-6.369054914E-1,-1.612926674E1,-8.981981277E0
4.232877990E0,-2.037082464E-1,-1.640280151E1,-9.330271721E0
4.236876428E0,4.705564082E-1,-1.677596092E1,-9.762520790E0
4.238876428E0,9.656007290E-1,-1.684630203E1,-9.829758644E0
4.240876428E0,1.556317210E0,-1.682237816E1,-9.809561729E0
4.242877990E0,2.232928276E0,-1.666813469E1,-9.639448166E0
4.246876428E0,3.809586763E0,-1.605076599E1,-8.979042053E0
4.248876428E0,4.585144997E0,-1.560314655E1,-8.492061615E0
4.250876428E0,5.213364601E0,-1.505386925E1,-7.789277077E0
4.252881115E0,5.603619576E0,-1.441940498E1,-6.848461151E0
4.256876428E0,5.482903957E0,-1.292786503E1,-4.260970116E0
4.258876428E0,4.958420277E0,-1.204627228E1,-2.584722757E0
4.260876428E0,4.209217072E0,-1.111910343E1,-7.306911945E-1
4.262876428E0,3.332431793E0,-1.015361786E1,1.137810826E0
4.264879553E0,2.365231991E0,-9.153310776E0,2.923109531E0
4.268876428E0,1.046074629E-1,-7.107857704E0,6.772181511E0
4.270876428E0,-1.199676991E0,-6.116275311E0,8.442664146E0
4.272879553E0,-2.572445393E0,-5.112789154E0,9.830880165E0
4.276876428E0,-5.422924519E0,-3.040789366E0,1.154623890E1
4.278876428E0,-6.865143776E0,-2.058573008E0,1.177117825E1
4.280876428E0,-8.265904427E0,-1.177726984E0,1.164505291E1
4.282876428E0,-9.580503464E0,-4.449863136E-1,1.123200512E1
4.284912365E0,-1.081535625E1,1.115410700E-1,1.062419319E1
4.288876428E0,-1.279375172E1,5.723770261E-1,8.852828979E0
4.290876428E0,-1.347165585E1,4.859750569E-1,7.647635937E0
4.292876428E0,-1.392198658E1,2.521285713E-1,6.255081654E0
4.294876428E0,-1.405318832E1,-1.056800634E-1,4.762259007E0
4.296876428E0,-1.390823364E1,-5.315415263E-1,3.269895315E0
4.298876428E0,-1.347297764E1,-9.990429282E-1,1.870647192E0
4.300876428E0,-1.278450108E1,-1.493062496E0,6.172156334E-1
4.302876428E0,-1.187057590E1,-2.008783102E0,-4.598208070E-1
4.304876428E0,-1.074245739E1,-2.519724846E0,-1.234431267E0
4.306876428E0,-9.435194016E0,-3.033204556E0,-1.602678537E0
4.308876428E0,-8.079798698E0,-3.549164534E0,-1.734139442E0
4.310876428E0,-6.653180122E0,-4.048834324E0,-1.479865551E0
4.312876428E0,-5.193492889E0,-4.545947075E0,-9.997324347E-1
4.314876428E0,-3.767219067E0,-5.059360027E0,-2.622033954E-1
4.316876428E0,-2.379462957E0,-5.552019596E0,7.283257246E-1
4.318876428E0,-1.080014825E0,-6.067941189E0,1.849032402E0
4.320876428E0,5.616797134E-2,-6.615610123E0,2.879391432E0
4.322876428E0,1.047147274E0,-7.162599087E0,3.818780422E0
4.324876428E0,1.950010300E0,-7.672516346E0,4.683173180E0
4.326876428E0,2.747317553E0,-8.140056610E0,5.422713280E0
4.328876428E0,3.449201822E0,-8.578233719E0,5.964684010E0
4.330876428E0,4.009243965E0,-9.013154030E0,6.366450787E0
4.332918615E0,4.473767281E0,-9.459280014E0,6.604682922E0
4.336881115E0,5.037630558E0,-1.039757729E1,6.400323868E0
4.340876428E0,5.047647476E0,-1.152027607E1,5.603552341E0
4.342876428E0,4.958229065E0,-1.210285282E1,5.219656944E0
4.344876428E0,4.805670261E0,-1.266192722E1,4.808887959E0
4.346876428E0,4.612745762E0,-1.319315243E1,4.437403679E0
4.348876428E0,4.367722988E0,-1.368684673E1,4.129021168E0
4.350876428E0,4.084182262E0,-1.414242458E1,3.883663416E0
4.352879553E0,3.740193129E0,-1.454709244E1,3.739953756E0
4.356876428E0,2.973636627E0,-1.512840557E1,3.676181793E0
4.358876428E0,2.599049568E0,-1.531913662E1,3.731583595E0
4.360879553E0,2.245215416E0,-1.543333149E1,3.788383484E0
4.364876428E0,1.640047312E0,-1.549101162E1,3.863944530E0
4.366876428E0,1.484031558E0,-1.544316578E1,3.893345356E0
4.368876428E0,1.464178801E0,-1.534450626E1,3.915917873E0
4.370876428E0,1.528879762E0,-1.518256187E1,3.924048662E0
4.372899865E0,1.653933764E0,-1.496942997E1,3.910133600E0
4.376876428E0,2.045845270E0,-1.449047470E1,3.825531960E0
4.378876428E0,2.228905916E0,-1.420908928E1,3.736467838E0
4.380906115E0,2.381608248E0,-1.392636204E1,3.617907047E0
4.384892053E0,2.543274164E0,-1.332259274E1,3.225698471E0
4.388876428E0,2.789120436E0,-1.262630177E1,2.648714781E0
4.390876428E0,2.970907450E0,-1.225018120E1,2.373161316E0
4.392876428E0,3.204591036E0,-1.186885262E1,2.107912540E0
4.394876428E0,3.485996008E0,-1.150753880E1,1.874698281E0
4.396876428E0,3.780473232E0,-1.119048882E1,1.656538606E0
4.398876428E0,4.058985710E0,-1.093486500E1,1.472434044E0
4.400876428E0,4.328975201E0,-1.072949982E1,1.322585702E0
4.402876428E0,4.561404228E0,-1.056456852E1,1.206955433E0
4.404876428E0,4.690260410E0,-1.043147945E1,1.128004193E0
4.406876428E0,4.692664146E0,-1.034074879E1,1.092991352E0
4.408876428E0,4.592816353E0,-1.029467487E1,1.095749497E0
4.410876428E0,4.408175468E0,-1.027419949E1,1.132160544E0
4.412876428E0,4.158077240E0,-1.027202511E1,1.170276284E0
4.414876428E0,4.016215801E0,-1.027338600E1,1.202463865E0
4.416876428E0,3.535833836E0,-1.029150486E1,1.339680314E0
4.418876428E0,3.383974314E0,-1.030207729E1,1.397993565E0
4.420876428E0,3.083080530E0,-1.032432461E1,1.524914861E0
4.422876428E0,2.785596132E0,-1.036153030E1,1.679111123E0
4.424876428E0,2.483763933E0,-1.040613842E1,1.843190551E0
4.426876428E0,2.189593315E0,-1.044688892E1,2.004215002E0
4.428876428E0,1.869574666E0,-1.047934341E1,2.176779509E0
4.430877990E0,1.343329072E0,-1.052319622E1,2.471630096E0
4.434876428E0,6.699838042E-1,-1.053624058E1,2.776029110E0
4.436876428E0,1.882033944E-1,-1.052545738E1,2.964098454E0
4.438876428E0,-3.078272939E-1,-1.050573826E1,3.166925430E0
4.440879553E0,-1.017966628E0,-1.042381859E1,3.516220570E0
4.444876428E0,-1.648934603E0,-1.029132366E1,3.874239683E0
4.446876428E0,-1.990050912E0,-1.018575764E1,4.138434887E0
4.448876428E0,-2.289469719E0,-1.005897903E1,4.424599648E0
4.450876428E0,-2.582175255E0,-9.949536324E0,4.680367470E0
4.452902990E0,-2.879764795E0,-9.867203712E0,4.898958206E0
4.456876428E0,-3.445505142E0,-9.676060677E0,5.232480049E0
4.458876428E0,-3.682061911E0,-9.576740265E0,5.322396278E0
4.460876428E0,-3.878778934E0,-9.499254227E0,5.357083797E0
4.462876428E0,-4.102349758E0,-9.435050964E0,5.341262817E0
4.464888928E0,-4.239968300E0,-9.370598793E0,5.322817802E0
4.468876428E0,-4.248501301E0,-9.289905548E0,5.323554993E0
4.470876428E0,-4.171053886E0,-9.301492691E0,5.321850777E0
4.472876428E0,-4.089028358E0,-9.340020180E0,5.356796265E0
4.474876428E0,-4.149946213E0,-9.405832291E0,5.322808743E0
4.476876428E0,-4.262205601E0,-9.437895775E0,5.257600307E0
4.478876428E0,-4.308711052E0,-9.446217537E0,5.216812611E0
4.480876428E0,-4.247227669E0,-9.466051102E0,5.171437263E0
4.482876428E0,-4.091547012E0,-9.523616791E0,5.040580273E0
4.484876428E0,-3.883414268E0,-9.603573799E0,4.789418221E0
4.486876428E0,-3.598054171E0,-9.694974899E0,4.459861279E0
4.488876428E0,-3.304774284E0,-9.784652710E0,4.098413467E0
4.490876428E0,-3.106065035E0,-9.899554253E0,3.670445204E0
4.492876428E0,-2.948584080E0,-1.007449436E1,3.146651268E0
4.494879553E0,-2.772025824E0,-1.026266861E1,2.578258276E0
4.498876428E0,-2.198921204E0,-1.056884861E1,1.492985845E0
4.500876428E0,-1.847844839E0,-1.068946838E1,9.693260789E-1
4.502876428E0,-1.463412762E0,-1.079205608E1,4.774038196E-1
4.504876428E0,-1.071003079E0,-1.087160015E1,4.743392393E-2
4.506876428E0,-7.047955394E-1,-1.094497871E1,-2.937781513E-1
4.508876428E0,-3.184863031E-1,-1.100090599E1,-5.639494061E-1
4.510876428E0,6.849332154E-2,-1.104672146E1,-7.467132211E-1
4.512876428E0,4.427261949E-1,-1.110741997E1,-8.994058371E-1
4.514876428E0,7.935246825E-1,-1.115730572E1,-1.014394522E0
4.516876428E0,1.123024344E0,-1.116637516E1,-1.080158472E0
4.518876428E0,1.451020241E0,-1.115927792E1,-1.108984590E0
4.520876428E0,1.753254771E0,-1.112083721E1,-1.111455441E0
4.522876428E0,2.016243458E0,-1.106393147E1,-1.103209853E0
4.524876428E0,2.217088223E0,-1.101204491E1,-1.081997156E0
4.526876428E0,2.364724398E0,-1.093662739E1,-1.062537074E0
4.528876428E0,2.418478966E0,-1.083652020E1,-1.033002377E0
4.530876428E0,2.370910883E0,-1.071779728E1,-1.003247142E0
4.532876428E0,2.277661562E0,-1.060887051E1,-1.021414280E0
4.534876428E0,2.141287804E0,-1.053033066E1,-1.069940090E0
4.536876428E0,1.979870677E0,-1.044463730E1,-1.137485266E0
4.538876428E0,1.794875622E0,-1.038113403E1,-1.242092609E0
4.540876428E0,1.607658625E0,-1.032178593E1,-1.369531274E0
4.542876428E0,1.413996339E0,-1.028300953E1,-1.490563035E0
4.544876428E0,1.210230708E0,-1.025841713E1,-1.615185857E0
4.546876428E0,9.719979763E-1,-1.019035435E1,-1.697048426E0
4.548876428E0,7.468377352E-1,-1.016829872E1,-1.822973847E0
4.550876428E0,5.824900866E-1,-1.014653111E1,-1.951465964E0
4.552876428E0,4.507324100E-1,-1.012207222E1,-2.042522192E0
4.554876428E0,3.299209774E-1,-1.008860016E1,-2.121300936E0
4.556876428E0,1.855602115E-1,-1.004346561E1,-2.144831181E0
4.558876428E0,2.164358273E-2,-1.001819229E1,-2.129489183E0
4.560876428E0,-1.381933242E-1,-9.985898972E0,-2.054588795E0
4.562876428E0,-2.825445235E-1,-9.948577881E0,-1.935405612E0
4.564876428E0,-4.254113436E-1,-9.933140755E0,-1.774199247E0
4.566876428E0,-5.644857287E-1,-9.929357529E0,-1.598177433E0
4.568876428E0,-6.938588023E-1,-9.924627304E0,-1.418928504E0
4.570876428E0,-8.235191703E-1,-9.917520523E0,-1.227545500E0
4.572876428E0,-9.554205537E-1,-9.898339272E0,-1.032092571E0
4.574876428E0,-1.077879190E0,-9.859513283E0,-8.580819368E-1
4.576876428E0,-1.160910130E0,-9.799687386E0,-7.213155031E-1
4.578876428E0,-1.227191210E0,-9.728024483E0,-6.184318662E-1
4.580876428E0,-1.270899773E0,-9.664405823E0,-5.340315104E-1
4.582876428E0,-1.307473540E0,-9.586585045E0,-4.272021949E-1
4.584876428E0,-1.323677540E0,-9.498736382E0,-3.014012873E-1
4.586876428E0,-1.323888183E0,-9.418645859E0,-2.074049115E-1
4.588876428E0,-1.317864418E0,-9.338842392E0,-9.134358168E-2
4.590876428E0,-1.307377815E0,-9.251070976E0,5.599559098E-2
4.592876428E0,-1.291480184E0,-9.164017677E0,2.284834534E-1
4.594876428E0,-1.281204343E0,-9.107333183E0,4.301039875E-1
4.596876428E0,-1.291164279E0,-9.031781197E0,6.556473374E-1
4.598876428E0,-1.292782664E0,-8.945618629E0,8.760096431E-1
4.600876428E0,-1.288080573E0,-8.877939224E0,1.085942864E0
4.602876428E0,-1.292696476E0,-8.810451508E0,1.291413188E0
4.604876428E0,-1.295550466E0,-8.752751350E0,1.492334604E0
4.606876428E0,-1.328169107E0,-8.687542915E0,1.710235715E0
4.608876428E0,-1.349285841E0,-8.618455887E0,1.931900501E0
4.610876428E0,-1.351297021E0,-8.546869278E0,2.137734890E0
4.612876428E0,-1.370814562E0,-8.502385139E0,2.337075949E0
4.614876428E0,-1.406018972E0,-8.464086533E0,2.520471811E0
4.616876428E0,-1.457637906E0,-8.417381287E0,2.687654257E0
4.618876428E0,-1.525642872E0,-8.369180679E0,2.834476233E0
4.620876428E0,-1.617522717E0,-8.334542274E0,2.957356215E0
4.622876428E0,-1.723451734E0,-8.297307014E0,3.038366556E0
4.624876428E0,-1.805477023E0,-8.278881073E0,3.085829020E0
4.626876428E0,-1.891534328E0,-8.265357971E0,3.116791010E0
4.628890490E0,-1.988949537E0,-8.259345055E0,3.140560627E0
4.632876428E0,-2.132745266E0,-8.218010902E0,3.175803185E0
4.634876428E0,-2.180341959E0,-8.207265854E0,3.198835373E0
4.636876428E0,-2.223188639E0,-8.211757660E0,3.224194765E0
4.638876428E0,-2.252158403E0,-8.212150574E0,3.254400253E0
4.640876428E0,-2.257042646E0,-8.230144501E0,3.263181925E0
4.642876428E0,-2.229585886E0,-8.262275696E0,3.269665480E0
4.644876428E0,-2.196498156E0,-8.287365913E0,3.261831760E0
4.646876428E0,-2.140569687E0,-8.321526527E0,3.256976366E0
4.648876428E0,-2.058084488E0,-8.360868454E0,3.262454033E0
4.650876428E0,-1.971490979E0,-8.403724670E0,3.264359951E0
4.652876428E0,-1.903361559E0,-8.446083069E0,3.284480810E0
4.654876428E0,-1.797461271E0,-8.485826492E0,3.289987564E0
4.656876428E0,-1.697489023E0,-8.539868355E0,3.285371304E0
4.658876428E0,-1.611422300E0,-8.587809563E0,3.278935909E0
4.660876428E0,-1.501834869E0,-8.630321503E0,3.277786732E0
4.662876428E0,-1.388397574E0,-8.681863785E0,3.273170710E0
4.664876428E0,-1.270459175E0,-8.748394012E0,3.252178192E0
4.666876428E0,-1.140741348E0,-8.811630249E0,3.235294342E0
4.668876428E0,-9.926168919E-1,-8.876397133E0,3.207799435E0
4.670876428E0,-8.436208963E-1,-8.946557999E0,3.153843403E0
4.672882678E0,-7.019990683E-1,-9.025881767E0,3.077928305E0
4.676876428E0,-4.238790572E-1,-9.192968369E0,2.841036320E0
4.678876428E0,-2.887407243E-1,-9.276008606E0,2.681831598E0
4.680876428E0,-1.667417884E-1,-9.348275185E0,2.512111425E0
4.682909240E0,-2.940079756E-2,-9.404932022E0,2.323888779E0
4.686882678E0,2.636016011E-1,-9.549167633E0,1.890825510E0
4.690876428E0,5.310339332E-1,-9.667959213E0,1.411123276E0
4.692876428E0,6.669671535E-1,-9.709981918E0,1.171913862E0
4.694876428E0,8.050646782E-1,-9.754015923E0,9.258856773E-1
4.696876428E0,9.699485302E-1,-9.799409866E0,6.532436013E-1
4.698876428E0,1.088164687E0,-9.845637321E0,4.096000493E-1
4.700876428E0,1.190435410E0,-9.895647049E0,1.905592978E-1
4.702876428E0,1.278609037E0,-9.919542313E0,2.079124749E-2
4.704876428E0,1.346269131E0,-9.937804222E0,-1.105833873E-1
4.706876428E0,1.410826445E0,-9.952514648E0,-2.253135443E-1
4.708876428E0,1.438867331E0,-9.961851120E0,-2.835980058E-1
4.710876428E0,1.500867605E0,-9.989844322E0,-4.368652105E-1
4.712923303E0,1.528841376E0,-9.996242523E0,-4.711884856E-1
4.716876428E0,1.677569270E0,-1.004619503E1,-6.268977523E-1
4.718876428E0,1.704384327E0,-1.005673885E1,-6.587406397E-1
4.720877990E0,1.769046903E0,-1.006962013E1,-7.132901549E-1
