"Time (s)","Acceleration x (m/s^2)","Acceleration y (m/s^2)","Acceleration z (m/s^2)"
4.013433750E-1,-8.547300100E-1,9.773430824E0,5.410895944E-1
4.033433750E-1,-8.547300100E-1,9.773430824E0,5.410895944E-1
4.053173750E-1,-8.547300100E-1,9.773430824E0,5.410895944E-1
4.073043750E-1,-8.547300100E-1,9.773430824E0,5.410895944E-1
4.092957080E-1,-8.690952063E-1,9.735123634E0,6.344634295E-1
4.112892080E-1,-8.738836050E-1,9.744700432E0,6.464344859E-1
4.132840080E-1,-8.738836050E-1,9.744700432E0,6.464344859E-1
4.152795080E-1,-8.738836050E-1,9.744700432E0,6.464344859E-1
4.172796500E-1,-8.690952063E-1,9.739912033E0,6.631938815E-1
4.192797750E-1,-8.690952063E-1,9.739912033E0,6.679822803E-1
4.212798860E-1,-8.738836050E-1,9.732728958E0,6.679822803E-1
4.232799860E-1,-8.786720037E-1,9.720758438E0,6.727706790E-1
4.252800760E-1,-8.762778044E-1,9.718363762E0,6.751648784E-1
4.272801590E-1,-8.643068075E-1,9.689633369E0,6.751648784E-1
4.292802350E-1,-8.643068075E-1,9.692028046E0,6.751648784E-1
4.312802350E-1,-8.475474119E-1,9.706393242E0,6.775590777E-1
4.332802350E-1,-8.475474119E-1,9.699210167E0,6.607996821E-1
4.352802350E-1,-8.427590132E-1,9.706393242E0,6.488286853E-1
4.372802350E-1,-8.283938169E-1,9.699210167E0,6.416460276E-1
4.392802350E-1,-8.212111592E-1,9.703998566E0,6.464344859E-1
4.412802350E-1,-8.212111592E-1,9.703998566E0,6.560112834E-1
4.432802350E-1,-8.236053586E-1,9.706393242E0,7.254431248E-1
4.452789960E-1,-8.236053586E-1,9.706393242E0,7.254431248E-1
4.472778140E-1,-8.236053586E-1,9.706393242E0,7.254431248E-1
4.492766830E-1,-8.236053586E-1,9.706393242E0,7.254431248E-1
4.512755990E-1,-8.379706144E-1,9.715970039E0,7.445967197E-1
4.532745590E-1,-8.379706144E-1,9.715970039E0,7.445967197E-1
4.552739820E-1,-8.379706144E-1,9.715970039E0,7.445967197E-1
4.572743520E-1,-8.379706144E-1,9.732728958E0,7.517793179E-1
4.592743520E-1,-8.403648138E-1,9.727940559E0,7.541735172E-1
4.612743520E-1,-8.403648138E-1,9.720758438E0,7.709329724E-1
4.632743850E-1,-8.475474119E-1,9.739912033E0,7.709329724E-1
4.652752850E-1,-8.690952063E-1,9.744700432E0,7.900865674E-1
4.672761850E-1,-8.595184088E-1,9.739912033E0,7.948749661E-1
4.692761850E-1,-8.595184088E-1,9.732728958E0,7.924807668E-1
4.712770850E-1,-8.643068075E-1,9.725546837E0,8.020575643E-1
4.732779850E-1,-8.690952063E-1,9.723152161E0,8.068459630E-1
4.752789180E-1,-8.738836050E-1,9.715970039E0,8.164227605E-1
4.772789180E-1,-8.738836050E-1,9.708786964E0,8.020575643E-1
4.792788840E-1,-8.738836050E-1,9.713575363E0,8.044517636E-1
4.812790840E-1,-8.499416113E-1,9.703998566E0,7.972691655E-1
4.832790500E-1,-8.475474119E-1,9.735123634E0,7.996633649E-1
4.852781500E-1,-8.475474119E-1,9.735123634E0,7.996633649E-1
4.872772500E-1,-8.475474119E-1,9.735123634E0,7.996633649E-1
4.892763500E-1,-8.475474119E-1,9.735123634E0,7.996633649E-1
4.912754830E-1,-8.475474119E-1,9.735123634E0,7.996633649E-1
4.932746160E-1,-8.499416113E-1,9.742305756E0,8.092401624E-1
4.952737490E-1,-8.499416113E-1,9.742305756E0,8.092401624E-1
4.972737820E-1,-8.714894056E-1,9.730335236E0,8.307880163E-1
4.992738150E-1,-8.643068075E-1,9.730335236E0,8.331822157E-1
5.012738480E-1,-8.499416113E-1,9.723152161E0,8.116343617E-1
5.032738810E-1,-8.619126081E-1,9.715970039E0,8.092401624E-1
5.052747810E-1,-8.690952063E-1,9.708786964E0,8.236053586E-1
5.072756810E-1,-8.858546019E-1,9.708786964E0,8.212111592E-1
5.092765810E-1,-8.786720037E-1,9.696816444E0,8.212111592E-1
5.112774470E-1,-8.738836050E-1,9.684844971E0,8.236053586E-1
5.132783130E-1,-8.643068075E-1,9.680056572E0,8.259995580E-1
5.152788130E-1,-8.619126081E-1,9.658509254E0,8.092401624E-1
5.172784790E-1,-8.738836050E-1,9.660902977E0,8.068459630E-1
5.192784790E-1,-8.667010069E-1,9.658509254E0,8.116343617E-1
5.212784790E-1,-8.762778044E-1,9.668086052E0,8.164227605E-1
5.232784450E-1,-8.475474119E-1,9.639355659E0,8.571242094E-1
5.252775450E-1,-8.475474119E-1,9.639355659E0,8.571242094E-1
5.272766450E-1,-8.475474119E-1,9.639355659E0,8.571242094E-1
5.292766450E-1,-8.475474119E-1,9.639355659E0,8.571242094E-1
5.312757450E-1,-8.475474119E-1,9.644144058E0,8.571242094E-1
5.332748450E-1,-8.619126081E-1,9.644144058E0,8.595184088E-1
5.352742110E-1,-8.619126081E-1,9.644144058E0,8.595184088E-1
5.372741770E-1,-9.074024558E-1,9.648932457E0,8.427590132E-1
5.392741770E-1,-9.169792533E-1,9.648932457E0,8.379706144E-1
5.412739770E-1,-9.193734527E-1,9.653720856E0,8.571242094E-1
5.432740100E-1,-9.169792533E-1,9.663297653E0,8.643068075E-1
5.452749100E-1,-9.313444495E-1,9.677662849E0,8.619126081E-1
5.472758100E-1,-9.481038451E-1,9.682451248E0,8.810662031E-1
5.492767100E-1,-9.528923035E-1,9.692028046E0,8.810662031E-1
5.512776100E-1,-9.624691010E-1,9.703998566E0,8.786720037E-1
5.532785100E-1,-9.648633003E-1,9.715970039E0,8.858546019E-1
5.552794100E-1,-9.528923035E-1,9.713575363E0,9.169792533E-1
5.572793760E-1,-9.576807022E-1,9.713575363E0,9.576807022E-1
5.592793420E-1,-9.552865028E-1,9.718363762E0,9.744400978E-1
5.612793080E-1,-9.696516991E-1,9.723152161E0,9.959878922E-1
5.632792740E-1,-9.911994934E-1,9.759065628E0,9.816226959E-1
5.652783740E-1,-9.840168953E-1,9.749488831E0,9.600749016E-1
5.672774740E-1,-9.840168953E-1,9.749488831E0,9.600749016E-1
5.692765740E-1,-9.840168953E-1,9.749488831E0,9.600749016E-1
5.712757070E-1,-9.840168953E-1,9.749488831E0,9.600749016E-1
5.732748730E-1,-9.911994934E-1,9.754277229E0,9.313444495E-1
5.752740390E-1,-9.911994934E-1,9.754277229E0,9.313444495E-1
5.772740720E-1,-9.959878922E-1,9.766247749E0,9.050082564E-1
5.792741050E-1,-9.911994934E-1,9.768642426E0,8.906430602E-1
5.812741380E-1,-1.000776291E0,9.763854027E0,8.427590132E-1
5.832741710E-1,-9.888052940E-1,9.761459351E0,8.259995580E-1
5.852750710E-1,-9.935936928E-1,9.775824547E0,7.876923680E-1
5.872759710E-1,-1.000776291E0,9.751882553E0,7.589619160E-1
5.892768370E-1,-1.003170490E0,9.749488831E0,7.350199223E-1
5.912777030E-1,-1.007958889E0,9.747094154E0,7.206547260E-1
5.932785690E-1,-1.003170490E0,9.749488831E0,6.943184733E-1
5.952791690E-1,-9.768342972E-1,9.742305756E0,6.488286853E-1
5.972791690E-1,-9.457096457E-1,9.751882553E0,6.392518282E-1
5.992791690E-1,-9.361328483E-1,9.754277229E0,6.296750307E-1
6.012789690E-1,-9.026140571E-1,9.751882553E0,6.512228847E-1
6.032789350E-1,-8.858546019E-1,9.703998566E0,7.158663273E-1
6.052780350E-1,-8.786720037E-1,9.703998566E0,7.350199223E-1
6.072771350E-1,-8.786720037E-1,9.703998566E0,7.350199223E-1
6.092762350E-1,-8.786720037E-1,9.703998566E0,7.350199223E-1
6.112753350E-1,-8.786720037E-1,9.703998566E0,7.350199223E-1
6.132744350E-1,-8.738836050E-1,9.687239647E0,7.469909191E-1
6.152737680E-1,-8.738836050E-1,9.687239647E0,7.469909191E-1
6.172737680E-1,-8.643068075E-1,9.689633369E0,7.637503147E-1
6.192738010E-1,-8.403648138E-1,9.689633369E0,7.781155705E-1
6.212738340E-1,-8.331822157E-1,9.670479774E0,7.900865674E-1
6.232738670E-1,-8.140285611E-1,9.670479774E0,7.972691655E-1
6.252747670E-1,-8.068459630E-1,9.668086052E0,8.212111592E-1
6.272768670E-1,-7.972691655E-1,9.658509254E0,8.212111592E-1
6.292777670E-1,-7.900865674E-1,9.651326180E0,8.283938169E-1
6.312786670E-1,-7.589619160E-1,9.648932457E0,8.403648138E-1
6.332795330E-1,-7.469909191E-1,9.641749382E0,8.403648138E-1
6.352803660E-1,-7.158663273E-1,9.644144058E0,8.068459630E-1
6.372803320E-1,-7.230489254E-1,9.648932457E0,8.092401624E-1
6.392802980E-1,-7.086837292E-1,9.653720856E0,8.044517636E-1
6.412802640E-1,-6.943184733E-1,9.672874451E0,8.092401624E-1
6.432802300E-1,-6.057330370E-1,9.744700432E0,7.374141216E-1
6.452793300E-1,-6.033388376E-1,9.754277229E0,7.302315235E-1
6.472784300E-1,-6.033388376E-1,9.754277229E0,7.302315235E-1
6.492775630E-1,-6.033388376E-1,9.754277229E0,7.302315235E-1
6.512767290E-1,-6.033388376E-1,9.754277229E0,7.302315235E-1
6.532758950E-1,-6.033388376E-1,9.754277229E0,7.302315235E-1
6.552752280E-1,-5.985504389E-1,9.763854027E0,7.326257229E-1
6.572752610E-1,-5.937620401E-1,9.775824547E0,7.326257229E-1
6.592752940E-1,-5.937620401E-1,9.778219223E0,7.230489254E-1
6.612754940E-1,-5.961562395E-1,9.775824547E0,7.182605267E-1
6.632755270E-1,-5.937620401E-1,9.766247749E0,7.254431248E-1
6.652764270E-1,-5.841852427E-1,9.749488831E0,7.278373241E-1
6.672772930E-1,-5.770025849E-1,9.737517357E0,7.230489254E-1
6.692781590E-1,-5.841852427E-1,9.730335236E0,7.134721279E-1
6.712790250E-1,-6.033388376E-1,9.715970039E0,7.182605267E-1
6.732798910E-1,-6.081272364E-1,9.708786964E0,7.254431248E-1
6.752805240E-1,-6.129156351E-1,9.689633369E0,7.182605267E-1
6.772805240E-1,-6.224924326E-1,9.677662849E0,7.230489254E-1
6.792804900E-1,-6.416460276E-1,9.668086052E0,7.398083210E-1
6.812804560E-1,-6.799532771E-1,9.653720856E0,7.661445141E-1
6.832804220E-1,-7.565677166E-1,9.684844971E0,8.786720037E-1
6.852795220E-1,-7.637503147E-1,9.687239647E0,8.834604025E-1
6.872774220E-1,-7.637503147E-1,9.687239647E0,8.834604025E-1
6.892765220E-1,-7.637503147E-1,9.687239647E0,8.834604025E-1
6.912756220E-1,-7.637503147E-1,9.687239647E0,8.834604025E-1
6.932747220E-1,-7.637503147E-1,9.687239647E0,8.834604025E-1
6.952738550E-1,-7.709329724E-1,9.699210167E0,8.882488012E-1
6.972738880E-1,-7.757213712E-1,9.715970039E0,9.026140571E-1
6.992739210E-1,-8.020575643E-1,9.735123634E0,9.265560508E-1
7.012739540E-1,-8.116343617E-1,9.780612946E0,9.409212470E-1
7.032739870E-1,-8.116343617E-1,9.792584419E0,9.409212470E-1
7.052748870E-1,-8.212111592E-1,9.821314812E0,9.576807022E-1
7.072757870E-1,-8.259995580E-1,9.842862129E0,9.648633003E-1
7.092766870E-1,-8.283938169E-1,9.876380920E0,9.792284966E-1
7.112775530E-1,-8.355764151E-1,9.883563995E0,1.003170490E0
7.132783860E-1,-8.331822157E-1,9.885957718E0,1.005564690E0
7.152790520E-1,-8.331822157E-1,9.912294388E0,1.015141487E0
7.172790180E-1,-8.451532125E-1,9.933841705E0,1.022324085E0
7.192789840E-1,-8.547300100E-1,9.948206902E0,1.027112484E0
7.212789500E-1,-8.643068075E-1,9.945813179E0,1.015141487E0
7.232789160E-1,-8.810662031E-1,9.952995300E0,9.552865028E-1
7.252780160E-1,-8.810662031E-1,9.950601578E0,9.457096457E-1
7.272771490E-1,-8.882488012E-1,9.950601578E0,9.457096457E-1
7.292762820E-1,-8.882488012E-1,9.950601578E0,9.457096457E-1
7.312754150E-1,-8.882488012E-1,9.950601578E0,9.457096457E-1
7.332745480E-1,-8.882488012E-1,9.950601578E0,9.457096457E-1
7.352736480E-1,-8.810662031E-1,9.945813179E0,9.289502501E-1
7.372736480E-1,-8.667010069E-1,9.945813179E0,9.145850539E-1
7.392736480E-1,-8.619126081E-1,9.936236382E0,8.978256583E-1
7.412736480E-1,-8.595184088E-1,9.912294388E0,8.810662031E-1
7.432736480E-1,-8.451532125E-1,9.909899712E0,8.786720037E-1
7.452745480E-1,-8.259995580E-1,9.888352394E0,8.547300100E-1
7.472754480E-1,-8.283938169E-1,9.871592522E0,8.355764151E-1
7.492763480E-1,-8.092401624E-1,9.857227325E0,8.307880163E-1
7.512772480E-1,-8.068459630E-1,9.833285332E0,8.259995580E-1
7.532777480E-1,-8.044517636E-1,9.826103210E0,8.092401624E-1
7.552786480E-1,-8.068459630E-1,9.804554939E0,7.805097699E-1
7.572786480E-1,-8.020575643E-1,9.790189743E0,7.733271718E-1
7.592786480E-1,-8.092401624E-1,9.763854027E0,7.517793179E-1
7.612786140E-1,-8.212111592E-1,9.759065628E0,7.182605267E-1
7.632785800E-1,-8.236053586E-1,9.694421768E0,6.464344859E-1
7.652776800E-1,-8.236053586E-1,9.689633369E0,6.296750307E-1
7.672767800E-1,-8.236053586E-1,9.689633369E0,6.296750307E-1
7.692758800E-1,-8.236053586E-1,9.689633369E0,6.296750307E-1
7.712749800E-1,-8.236053586E-1,9.689633369E0,6.296750307E-1
7.732741130E-1,-8.236053586E-1,9.689633369E0,6.296750307E-1
7.752736790E-1,-8.212111592E-1,9.675268173E0,6.153098345E-1
7.772733450E-1,-8.259995580E-1,9.670479774E0,6.033388376E-1
7.792733780E-1,-8.379706144E-1,9.672874451E0,5.889736414E-1
7.812734110E-1,-8.283938169E-1,9.653720856E0,5.722141862E-1
7.832734440E-1,-8.307880163E-1,9.646537781E0,5.674257874E-1
7.852743440E-1,-8.403648138E-1,9.644144058E0,5.698199868E-1
7.872752440E-1,-8.403648138E-1,9.644144058E0,5.626373887E-1
7.892761440E-1,-8.619126081E-1,9.653720856E0,5.530605912E-1
7.912770100E-1,-8.571242094E-1,9.648932457E0,5.363011956E-1
7.932778760E-1,-8.427590132E-1,9.653720856E0,5.291185975E-1
7.952787760E-1,-8.523358107E-1,9.658509254E0,5.267243981E-1
7.972787760E-1,-8.499416113E-1,9.658509254E0,5.171475410E-1
7.992787760E-1,-8.451532125E-1,9.672874451E0,4.932055473E-1
8.012787760E-1,-8.355764151E-1,9.672874451E0,4.955997467E-1
8.032787760E-1,-8.667010069E-1,9.727940559E0,4.740519226E-1
8.052778760E-1,-8.667010069E-1,9.727940559E0,4.740519226E-1
8.072769760E-1,-8.690952063E-1,9.727940559E0,4.788403511E-1
8.092760760E-1,-8.690952063E-1,9.727940559E0,4.788403511E-1
8.112751760E-1,-8.690952063E-1,9.727940559E0,4.788403511E-1
8.132746760E-1,-8.690952063E-1,9.727940559E0,4.788403511E-1
8.152737760E-1,-8.786720037E-1,9.723152161E0,4.812345505E-1
8.172737420E-1,-8.906430602E-1,9.723152161E0,4.812345505E-1
8.192737080E-1,-8.762778044E-1,9.706393242E0,4.884171486E-1
8.212737080E-1,-8.786720037E-1,9.711181641E0,4.836287498E-1
8.232737410E-1,-8.810662031E-1,9.718363762E0,4.836287498E-1
8.252746410E-1,-8.906430602E-1,9.732728958E0,4.788403511E-1
8.272755410E-1,-8.906430602E-1,9.730335236E0,4.836287498E-1
8.292764410E-1,-8.882488012E-1,9.727940559E0,4.932055473E-1
8.312773410E-1,-8.786720037E-1,9.737517357E0,5.075707436E-1
8.332782410E-1,-8.762778044E-1,9.744700432E0,5.027823448E-1
8.352787070E-1,-8.882488012E-1,9.723152161E0,5.123591423E-1
8.372790730E-1,-8.930372596E-1,9.713575363E0,5.099649429E-1
8.392790390E-1,-8.930372596E-1,9.723152161E0,5.243301988E-1
8.412790050E-1,-8.978256583E-1,9.723152161E0,5.267243981E-1
8.432789710E-1,-9.026140571E-1,9.677662849E0,5.626373887E-1
8.452780710E-1,-9.026140571E-1,9.677662849E0,5.626373887E-1
8.472771710E-1,-9.074024558E-1,9.675268173E0,5.698199868E-1
8.492762710E-1,-9.074024558E-1,9.675268173E0,5.698199868E-1
8.512754040E-1,-9.074024558E-1,9.675268173E0,5.698199868E-1
8.532745700E-1,-9.074024558E-1,9.675268173E0,5.698199868E-1
8.552739700E-1,-9.169792533E-1,9.672874451E0,5.698199868E-1
8.572740030E-1,-9.145850539E-1,9.675268173E0,5.698199868E-1
8.592738360E-1,-9.145850539E-1,9.675268173E0,5.482721925E-1
8.612738690E-1,-9.217676520E-1,9.677662849E0,5.386953950E-1
8.632739020E-1,-9.289502501E-1,9.696816444E0,5.291185975E-1
8.652748020E-1,-9.361328483E-1,9.689633369E0,5.099649429E-1
8.672757020E-1,-9.409212470E-1,9.692028046E0,5.003881454E-1
8.692765680E-1,-9.552865028E-1,9.696816444E0,4.716577232E-1
8.712774340E-1,-9.600749016E-1,9.696816444E0,4.620809257E-1
8.732779670E-1,-9.576807022E-1,9.711181641E0,4.405331016E-1
8.752788330E-1,-9.672574997E-1,9.720758438E0,4.213795066E-1
8.772788330E-1,-9.768342972E-1,9.727940559E0,4.046200812E-1
8.792788330E-1,-9.959878922E-1,9.749488831E0,3.734954596E-1
8.812788330E-1,-1.000776291E0,9.751882553E0,3.567360640E-1
8.832787990E-1,-9.648633003E-1,9.859622002E0,2.082955539E-1
8.852778990E-1,-9.648633003E-1,9.859622002E0,2.082955539E-1
8.872769990E-1,-9.624691010E-1,9.852438927E0,1.987187415E-1
8.892760990E-1,-9.624691010E-1,9.852438927E0,1.987187415E-1
8.912751990E-1,-9.624691010E-1,9.852438927E0,1.987187415E-1
8.932742990E-1,-9.624691010E-1,9.852438927E0,1.987187415E-1
8.952733990E-1,-9.624691010E-1,9.854833603E0,1.987187415E-1
8.972733650E-1,-9.528923035E-1,9.873987198E0,1.771709323E-1
8.992733650E-1,-9.361328483E-1,9.876380920E0,1.532289088E-1
9.012733980E-1,-9.265560508E-1,9.878775597E0,1.532289088E-1
9.032734310E-1,-9.193734527E-1,9.873987198E0,1.484405100E-1
9.052743310E-1,-9.097966552E-1,9.862015724E0,1.244984865E-1
9.072752310E-1,-8.954314590E-1,9.857227325E0,1.053448766E-1
9.092761310E-1,-8.690952063E-1,9.859622002E0,8.379705995E-2
9.112770310E-1,-8.571242094E-1,9.854833603E0,7.422025502E-2
9.132778970E-1,-8.403648138E-1,9.840468407E0,5.267243832E-2
9.152785300E-1,-8.307880163E-1,9.854833603E0,3.112462163E-2
9.172784960E-1,-8.331822157E-1,9.854833603E0,2.873042040E-2
9.192786620E-1,-8.068459630E-1,9.842862129E0,1.436521020E-2
9.212786280E-1,-8.044517636E-1,9.835680008E0,1.197100803E-2
9.232785940E-1,-7.613561153E-1,9.785401344E0,-7.900865376E-2
9.252776940E-1,-7.613561153E-1,9.785401344E0,-7.900865376E-2
9.272767940E-1,-7.541735172E-1,9.768642426E0,-9.816227108E-2
9.292759270E-1,-7.541735172E-1,9.768642426E0,-9.816227108E-2
9.312750930E-1,-7.541735172E-1,9.768642426E0,-9.816227108E-2
9.332745930E-1,-7.541735172E-1,9.768642426E0,-9.816227108E-2
9.352740260E-1,-7.541735172E-1,9.768642426E0,-9.816227108E-2
9.372740590E-1,-7.517793179E-1,9.756670952E0,-1.221042871E-1
9.392740920E-1,-7.374141216E-1,9.761459351E0,-1.484405100E-1
9.412744250E-1,-7.374141216E-1,9.751882553E0,-1.604115069E-1
9.432744580E-1,-7.302315235E-1,9.737517357E0,-1.723825186E-1
9.452753580E-1,-7.278373241E-1,9.720758438E0,-1.795651317E-1
9.472762240E-1,-7.302315235E-1,9.711181641E0,-1.987187415E-1
9.492770900E-1,-7.254431248E-1,9.692028046E0,-2.154781520E-1
9.512779560E-1,-7.206547260E-1,9.677662849E0,-2.226607651E-1
9.532788220E-1,-6.991068721E-1,9.639355659E0,-2.442085743E-1
9.552796880E-1,-6.967126727E-1,9.617807388E0,-2.609679997E-1
9.572796880E-1,-7.015010715E-1,9.617807388E0,-2.825157940E-1
9.592796880E-1,-7.062895298E-1,9.605836868E0,-3.040636182E-1
9.612796540E-1,-7.038952708E-1,9.596260071E0,-3.160346150E-1
9.632796200E-1,-6.392518282E-1,9.548376083E0,-4.118026793E-1
9.652787200E-1,-6.392518282E-1,9.548376083E0,-4.118026793E-1
9.672778200E-1,-6.392518282E-1,9.548376083E0,-4.118026793E-1
9.692769200E-1,-6.416460276E-1,9.550769806E0,-4.237737060E-1
9.712760200E-1,-6.416460276E-1,9.550769806E0,-4.237737060E-1
9.732751200E-1,-6.416460276E-1,9.550769806E0,-4.237737060E-1
9.752741860E-1,-6.416460276E-1,9.550769806E0,-4.237737060E-1
9.772741860E-1,-6.296750307E-1,9.557952881E0,-4.501099288E-1
9.792742190E-1,-6.057330370E-1,9.581894875E0,-4.596867263E-1
9.812742520E-1,-5.913678408E-1,9.584288597E0,-4.692635238E-1
9.832742850E-1,-5.746083856E-1,9.579500198E0,-4.764461517E-1
9.852751850E-1,-5.626373887E-1,9.577106476E0,-4.908113480E-1
9.872760850E-1,-5.506663918E-1,9.586683273E0,-5.219359994E-1
9.892769850E-1,-5.315127969E-1,9.593865395E0,-5.219359994E-1
9.912778510E-1,-5.219359994E-1,9.601048470E0,-5.219359994E-1
9.932791170E-1,-5.219359994E-1,9.613018990E0,-5.267243981E-1
9.952796830E-1,-5.147533417E-1,9.620202065E0,-5.291185975E-1
9.972796490E-1,-5.219359994E-1,9.639355659E0,-5.363011956E-1
9.992796150E-1,-4.979939461E-1,9.660902977E0,-5.315127969E-1
1.001279281E0,-4.908113480E-1,9.677662849E0,-5.243301988E-1
1.003279247E0,-4.070142806E-1,9.720758438E0,-5.506663918E-1
1.005278347E0,-4.070142806E-1,9.720758438E0,-5.506663918E-1
1.007277480E0,-4.070142806E-1,9.720758438E0,-5.506663918E-1
1.009276613E0,-3.926490843E-1,9.713575363E0,-5.530605912E-1
1.011275779E0,-3.926490843E-1,9.713575363E0,-5.530605912E-1
1.013274945E0,-3.926490843E-1,9.713575363E0,-5.530605912E-1
1.015274111E0,-3.926490843E-1,9.713575363E0,-5.530605912E-1
1.017274144E0,-3.711012602E-1,9.699210167E0,-5.817909837E-1
1.019274177E0,-3.423708379E-1,9.692028046E0,-6.081272364E-1
1.021274210E0,-3.351882398E-1,9.687239647E0,-6.272808313E-1
1.023274243E0,-3.256114423E-1,9.680056572E0,-6.320692301E-1
1.025275109E0,-3.112462163E-1,9.668086052E0,-6.440402865E-1
1.027275975E0,-2.849099934E-1,9.627384186E0,-6.560112834E-1
1.029276441E0,-2.466027737E-1,9.605836868E0,-6.751648784E-1
1.031277307E0,-2.226607651E-1,9.601048470E0,-6.967126727E-1
1.033278173E0,-1.867477298E-1,9.569923401E0,-7.134721279E-1
1.035279073E0,-1.675941199E-1,9.562741280E0,-7.182605267E-1
1.037279073E0,-1.149216816E-1,9.538799286E0,-7.493851185E-1
1.039279039E0,-7.900865376E-2,9.519645691E0,-7.517793179E-1
1.041279005E0,-6.464344263E-2,9.519645691E0,-7.685387731E-1
1.043278971E0,7.900865376E-2,9.440636635E0,-7.805097699E-1
1.045278071E0,7.900865376E-2,9.440636635E0,-7.805097699E-1
1.047277171E0,7.900865376E-2,9.440636635E0,-7.805097699E-1
1.049276271E0,8.858546615E-2,9.445425034E0,-7.733271718E-1
1.051275371E0,8.858546615E-2,9.445425034E0,-7.733271718E-1
1.053274071E0,8.858546615E-2,9.445425034E0,-7.733271718E-1
1.055273171E0,8.858546615E-2,9.445425034E0,-7.733271718E-1
1.057273204E0,8.140286058E-2,9.450213432E0,-7.589619160E-1
1.059273237E0,8.379705995E-2,9.433453560E0,-7.302315235E-1
1.061273270E0,7.182604820E-2,9.443030357E0,-7.158663273E-1
1.063273303E0,5.027823523E-2,9.457395554E0,-6.823474765E-1
1.065274203E0,4.309562966E-2,9.452607155E0,-6.703764796E-1
1.067275103E0,3.830722719E-2,9.469367027E0,-6.727706790E-1
1.069276003E0,2.394201607E-2,9.466972351E0,-6.871358752E-1
1.071276869E0,1.197100803E-2,9.466972351E0,-6.919242740E-1
1.073277702E0,0.000000000E0,9.486125946E0,-7.182605267E-1
1.075278535E0,0.000000000E0,9.490914345E0,-7.350199223E-1
1.077278501E0,-1.197100803E-2,9.512462616E0,-7.613561153E-1
1.079278467E0,-4.788403399E-3,9.510068893E0,-8.044517636E-1
1.081278433E0,4.788403399E-3,9.510068893E0,-8.283938169E-1
1.083278399E0,-7.182605099E-3,9.644144058E0,-1.019929886E0
1.085277532E0,-7.182605099E-3,9.644144058E0,-1.019929886E0
1.087276665E0,-7.182605099E-3,9.644144058E0,-1.019929886E0
1.089276231E0,-7.182605099E-3,9.646537781E0,-1.039083481E0
1.091275397E0,0.000000000E0,9.646537781E0,-1.039083481E0
1.093274563E0,0.000000000E0,9.646537781E0,-1.039083481E0
1.095273696E0,0.000000000E0,9.646537781E0,-1.039083481E0
1.097273729E0,-4.788403399E-3,9.668086052E0,-1.074996591E0
1.099273762E0,2.394201700E-3,9.706393242E0,-1.077390790E0
1.101273795E0,1.675941236E-2,9.723152161E0,-1.074996591E0
1.103273795E0,1.436521020E-2,9.754277229E0,-1.086967587E0
1.105274661E0,1.675941236E-2,9.759065628E0,-1.074996591E0
1.107275527E0,2.394201700E-3,9.778219223E0,-1.065419793E0
1.109276393E0,0.000000000E0,9.814131737E0,-1.063025594E0
1.111277259E0,7.182605099E-3,9.818920135E0,-1.055842996E0
1.113278125E0,-7.182605099E-3,9.816526413E0,-1.043871999E0
1.115279025E0,-1.436521020E-2,9.828496933E0,-1.043871999E0
1.117278991E0,-2.633621916E-2,9.830891609E0,-1.010353088E0
1.119278957E0,-2.633621916E-2,9.818920135E0,-1.012747288E0
1.121278923E0,-2.154781483E-2,9.816526413E0,-1.022324085E0
1.123278889E0,-4.788403213E-2,9.730335236E0,-1.108515382E0
1.125277989E0,-4.788403213E-2,9.730335236E0,-1.108515382E0
1.127277089E0,-4.788403213E-2,9.730335236E0,-1.108515382E0
1.129276189E0,-5.027823523E-2,9.715970039E0,-1.134851575E0
1.131275289E0,-5.027823523E-2,9.715970039E0,-1.134851575E0
1.133274422E0,-5.027823523E-2,9.715970039E0,-1.134851575E0
1.135273922E0,-5.027823523E-2,9.715970039E0,-1.134851575E0
1.137273955E0,-3.830722719E-2,9.713575363E0,-1.144428372E0
1.139273988E0,-4.309562966E-2,9.708786964E0,-1.142034173E0
1.141274021E0,-5.027823523E-2,9.706393242E0,-1.134851575E0
1.143274054E0,-5.746084079E-2,9.725546837E0,-1.125274777E0
1.145274954E0,-6.943184882E-2,9.735123634E0,-1.122880578E0
1.147275854E0,-8.858546615E-2,9.742305756E0,-1.098938584E0
1.149276720E0,-9.337386489E-2,9.751882553E0,-1.096544385E0
1.151277553E0,-1.149216816E-1,9.780612946E0,-1.063025594E0
1.153278386E0,-1.173158810E-1,9.806949615E0,-1.041477680E0
1.155279252E0,-1.221042871E-1,9.818920135E0,-1.031900883E0
1.157279218E0,-1.436520964E-1,9.838073730E0,-9.888052940E-1
1.159279184E0,-1.484405100E-1,9.854833603E0,-9.720458984E-1
1.164988038E0,-1.699883193E-1,9.897929192E0,-9.481038451E-1
1.166988271E0,-3.471592367E-1,9.945813179E0,-9.361328483E-1
1.168987404E0,-3.471592367E-1,9.945813179E0,-9.361328483E-1
1.170986570E0,-3.471592367E-1,9.945813179E0,-9.361328483E-1
1.172985736E0,-3.471592367E-1,9.945813179E0,-9.361328483E-1
1.174984902E0,-3.758896589E-1,9.943418503E0,-9.241618514E-1
1.176984068E0,-3.758896589E-1,9.943418503E0,-9.241618514E-1
1.178983368E0,-3.758896589E-1,9.943418503E0,-9.241618514E-1
1.180983401E0,-4.309563041E-1,9.921871185E0,-9.169792533E-1
1.182983434E0,-4.692635238E-1,9.907505989E0,-9.169792533E-1
1.184983434E0,-5.195417404E-1,9.890746117E0,-9.193734527E-1
1.186983434E0,-5.530605912E-1,9.883563995E0,-9.313444495E-1
1.188984300E0,-5.698199868E-1,9.859622002E0,-9.313444495E-1
1.190985166E0,-6.057330370E-1,9.835680008E0,-9.361328483E-1
1.192986032E0,-6.248866320E-1,9.823708534E0,-9.504981041E-1
1.194986898E0,-6.679822803E-1,9.785401344E0,-9.457096457E-1
1.196987764E0,-7.158663273E-1,9.761459351E0,-9.552865028E-1
1.198988264E0,-7.445967197E-1,9.763854027E0,-9.600749016E-1
1.200988230E0,-8.212111592E-1,9.751882553E0,-9.528923035E-1
1.202988196E0,-8.547300100E-1,9.749488831E0,-9.624691010E-1
1.204988162E0,-9.074024558E-1,9.720758438E0,-9.481038451E-1
1.206988128E0,-1.175553083E0,9.653720856E0,-9.888052940E-1
1.208987228E0,-1.175553083E0,9.653720856E0,-9.888052940E-1
1.210986328E0,-1.175553083E0,9.653720856E0,-9.888052940E-1
1.212985428E0,-1.175553083E0,9.653720856E0,-9.888052940E-1
1.214984561E0,-1.211466074E0,9.651326180E0,-1.005564690E0
1.216983727E0,-1.211466074E0,9.651326180E0,-1.005564690E0
1.218982860E0,-1.211466074E0,9.651326180E0,-1.005564690E0
1.220982893E0,-1.295263171E0,9.636960983E0,-1.027112484E0
1.222982926E0,-1.333570361E0,9.632172585E0,-1.022324085E0
1.224982959E0,-1.419761658E0,9.617807388E0,-1.036689281E0
1.226982759E0,-1.501164436E0,9.620202065E0,-1.055842996E0
1.228983659E0,-1.551442742E0,9.620202065E0,-1.055842996E0
1.230984525E0,-1.623268723E0,9.603442192E0,-1.055842996E0
1.232985358E0,-1.647210717E0,9.593865395E0,-1.063025594E0
1.234986191E0,-1.711854219E0,9.577106476E0,-1.084573388E0
1.236987024E0,-1.754949808E0,9.553164482E0,-1.103726983E0
1.238987724E0,-1.771709204E0,9.534010887E0,-1.096544385E0
1.240987690E0,-1.826775908E0,9.502885818E0,-1.094150186E0
1.242987656E0,-1.845929503E0,9.486125946E0,-1.096544385E0
1.244987656E0,-1.874659896E0,9.459790230E0,-1.094150186E0
1.246987656E0,-1.956062794E0,9.538799286E0,-1.048660398E0
1.248986822E0,-1.956062794E0,9.538799286E0,-1.048660398E0
1.250985988E0,-1.956062794E0,9.538799286E0,-1.048660398E0
1.252985154E0,-1.956062794E0,9.538799286E0,-1.048660398E0
1.254984320E0,-1.951274395E0,9.565135002E0,-1.041477680E0
1.256983486E0,-1.951274395E0,9.565135002E0,-1.041477680E0
1.258982886E0,-1.951274395E0,9.565135002E0,-1.041477680E0
1.260982919E0,-1.958456993E0,9.596260071E0,-1.043871999E0
1.262982952E0,-1.956062794E0,9.624990463E0,-1.041477680E0
1.264982952E0,-1.934514999E0,9.687239647E0,-1.043871999E0
1.266982952E0,-1.927332401E0,9.727940559E0,-1.051054597E0
1.268983918E0,-1.932120800E0,9.747094154E0,-1.039083481E0
1.270984784E0,-1.941697598E0,9.792584419E0,-1.027112484E0
1.272985650E0,-1.951274395E0,9.794978142E0,-1.031900883E0
1.274986516E0,-1.968033791E0,9.809343338E0,-1.029506683E0
1.276987349E0,-1.975216389E0,9.809343338E0,-1.029506683E0
1.278988215E0,-1.984793186E0,9.797372818E0,-9.768342972E-1
1.280988181E0,-2.013523579E0,9.766247749E0,-9.433154464E-1
1.282988147E0,-2.015917778E0,9.747094154E0,-9.241618514E-1
1.284988113E0,-2.023100376E0,9.715970039E0,-8.978256583E-1
1.286988079E0,-2.059013367E0,9.407117844E0,-7.613561153E-1
1.288987179E0,-2.059013367E0,9.407117844E0,-7.613561153E-1
1.290986279E0,-2.059013367E0,9.407117844E0,-7.613561153E-1
1.292985412E0,-2.059013367E0,9.407117844E0,-7.613561153E-1
1.294984578E0,-2.059013367E0,9.407117844E0,-7.613561153E-1
1.296983744E0,-2.056619167E0,9.366415977E0,-7.661445141E-1
1.298983010E0,-2.056619167E0,9.366415977E0,-7.661445141E-1
1.300983443E0,-2.061407566E0,9.318531990E0,-7.613561153E-1
1.302983476E0,-2.059013367E0,9.299378395E0,-7.541735172E-1
1.304983509E0,-2.044648170E0,9.273042679E0,-7.422025204E-1
1.306983542E0,-2.025494576E0,9.263465881E0,-7.422025204E-1
1.308984408E0,-1.999158382E0,9.241917610E0,-7.230489254E-1
1.310985241E0,-1.965639591E0,9.241917610E0,-7.062895298E-1
1.312986074E0,-1.951274395E0,9.244312286E0,-7.038952708E-1
1.314986907E0,-1.934514999E0,9.258677483E0,-6.991068721E-1
1.316987740E0,-1.927332401E0,9.275436401E0,-6.943184733E-1
1.318988340E0,-1.884236693E0,9.306561470E0,-7.038952708E-1
1.320988306E0,-1.867477298E0,9.337685585E0,-7.134721279E-1
1.322988272E0,-1.853112102E0,9.352050781E0,-7.158663273E-1
1.324988272E0,-1.826775908E0,9.397541046E0,-7.326257229E-1
1.326988305E0,-1.661576033E0,9.601048470E0,-8.906430602E-1
1.328987371E0,-1.661576033E0,9.601048470E0,-8.906430602E-1
1.330986537E0,-1.661576033E0,9.601048470E0,-8.906430602E-1
1.332985703E0,-1.661576033E0,9.601048470E0,-8.906430602E-1
1.334984869E0,-1.630451322E0,9.627384186E0,-9.002198577E-1
1.336984035E0,-1.630451322E0,9.627384186E0,-9.002198577E-1
1.338983501E0,-1.630451322E0,9.627384186E0,-9.002198577E-1
1.340983701E0,-1.596932530E0,9.644144058E0,-9.026140571E-1
1.342983701E0,-1.601720929E0,9.658509254E0,-9.074024558E-1
1.344983701E0,-1.577778935E0,9.680056572E0,-9.026140571E-1
1.346983701E0,-1.570596337E0,9.687239647E0,-8.930372596E-1
1.348984567E0,-1.551442742E0,9.687239647E0,-8.714894056E-1
1.350985433E0,-1.520318031E0,9.680056572E0,-8.619126081E-1
1.352986299E0,-1.498770237E0,9.672874451E0,-8.547300100E-1
1.354987132E0,-1.474828243E0,9.665691376E0,-8.188169599E-1
1.356987965E0,-1.458068848E0,9.665691376E0,-7.948749661E-1
1.358988698E0,-1.429338455E0,9.646537781E0,-7.924807668E-1
1.360988264E0,-1.410184860E0,9.646537781E0,-7.685387731E-1
1.362988230E0,-1.400607944E0,9.656114578E0,-7.589619160E-1
1.364988196E0,-1.362300754E0,9.644144058E0,-7.445967197E-1
1.366988162E0,-1.276109457E0,9.687239647E0,-7.517793179E-1
1.368987262E0,-1.273715258E0,9.689633369E0,-7.637503147E-1
1.370986395E0,-1.273715258E0,9.689633369E0,-7.637503147E-1
1.372985561E0,-1.273715258E0,9.689633369E0,-7.637503147E-1
1.374984727E0,-1.273715258E0,9.689633369E0,-7.637503147E-1
1.376983893E0,-1.280897856E0,9.696816444E0,-7.565677166E-1
1.378983193E0,-1.280897856E0,9.696816444E0,-7.565677166E-1
1.380983226E0,-1.295263171E0,9.725546837E0,-7.493851185E-1
1.382983259E0,-1.307234168E0,9.730335236E0,-7.565677166E-1
1.384983292E0,-1.321599364E0,9.756670952E0,-7.876923680E-1
1.386983292E0,-1.321599364E0,9.773430824E0,-7.972691655E-1
1.388984125E0,-1.316810966E0,9.799766541E0,-8.164227605E-1
1.390984958E0,-1.323993564E0,9.811738014E0,-8.619126081E-1
1.392985791E0,-1.326387763E0,9.830891609E0,-8.786720037E-1
1.394986624E0,-1.302445769E0,9.857227325E0,-8.906430602E-1
1.396987457E0,-1.295263171E0,9.871592522E0,-9.002198577E-1
1.398987990E0,-1.304839969E0,9.897929192E0,-9.026140571E-1
1.400987790E0,-1.307234168E0,9.912294388E0,-9.169792533E-1
1.402987790E0,-1.304839969E0,9.926659584E0,-9.169792533E-1
1.404987823E0,-1.323993564E0,9.952995300E0,-9.217676520E-1
1.406987856E0,-1.462857246E0,9.993697166E0,-7.924807668E-1
1.408987022E0,-1.482010841E0,9.998485565E0,-7.852981687E-1
1.410986188E0,-1.482010841E0,9.998485565E0,-7.852981687E-1
1.412985354E0,-1.482010841E0,9.998485565E0,-7.852981687E-1
1.414984520E0,-1.482010841E0,9.998485565E0,-7.852981687E-1
1.416983686E0,-1.491587639E0,9.991303444E0,-7.876923680E-1
1.418982952E0,-1.491587639E0,9.991303444E0,-7.876923680E-1
1.420982952E0,-1.515529633E0,9.996091843E0,-7.517793179E-1
1.422982952E0,-1.527500629E0,9.991303444E0,-7.374141216E-1
1.424982952E0,-1.544260144E0,9.976937294E0,-7.110779285E-1
1.426982552E0,-1.539471745E0,9.969755173E0,-7.062895298E-1
1.428983418E0,-1.549048543E0,9.948206902E0,-7.038952708E-1
1.430984284E0,-1.556231141E0,9.933841705E0,-6.823474765E-1
1.432985117E0,-1.584961534E0,9.936236382E0,-6.679822803E-1
1.434985950E0,-1.628057122E0,9.936236382E0,-6.488286853E-1
1.436986783E0,-1.637633920E0,9.941024780E0,-6.488286853E-1
1.438987483E0,-1.637633920E0,9.931447983E0,-6.344634295E-1
1.440987449E0,-1.625662923E0,9.914688110E0,-6.200982332E-1
1.442987415E0,-1.635239720E0,9.912294388E0,-6.248866320E-1
1.444987381E0,-1.656787634E0,9.909899712E0,-6.368576288E-1
1.446987347E0,-1.774103403E0,9.941024780E0,-7.924807668E-1
1.448986480E0,-1.786074519E0,9.955389977E0,-8.116343617E-1
1.450985646E0,-1.786074519E0,9.955389977E0,-8.116343617E-1
1.452984812E0,-1.786074519E0,9.955389977E0,-8.116343617E-1
1.454983978E0,-1.786074519E0,9.955389977E0,-8.116343617E-1
1.456983144E0,-1.786074519E0,9.962572098E0,-8.259995580E-1
1.458982277E0,-1.795651317E0,9.962572098E0,-8.259995580E-1
1.460982310E0,-1.802833915E0,9.972148895E0,-8.355764151E-1
1.462982343E0,-1.826775908E0,9.988908768E0,-8.714894056E-1
1.464982343E0,-1.853112102E0,9.993697166E0,-8.810662031E-1
1.466982309E0,-1.869871497E0,9.998485565E0,-8.906430602E-1
1.468983142E0,-1.893813491E0,1.001285076E1,-9.193734527E-1
1.470983975E0,-1.900996208E0,1.002003384E1,-9.361328483E-1
1.472984808E0,-1.927332401E0,1.003679276E1,-9.289502501E-1
1.474985641E0,-1.920149803E0,1.004636955E1,-9.145850539E-1
1.476986474E0,-1.917755604E0,1.005115795E1,-9.145850539E-1
1.478987207E0,-1.936909199E0,1.004636955E1,-9.217676520E-1
1.480987207E0,-1.958456993E0,1.005594635E1,-9.265560508E-1
1.482987207E0,-1.960851192E0,1.005594635E1,-9.217676520E-1
1.484987207E0,-1.968033791E0,1.005834103E1,-9.097966552E-1
1.486987607E0,-2.073378563E0,9.962572098E0,-9.552865028E-1
1.488986740E0,-2.059013367E0,9.945813179E0,-9.504981041E-1
1.490985873E0,-2.059013367E0,9.945813179E0,-9.504981041E-1
1.492985006E0,-2.059013367E0,9.945813179E0,-9.504981041E-1
1.494984139E0,-2.059013367E0,9.945813179E0,-9.504981041E-1
1.496983272E0,-2.047042370E0,9.931447983E0,-9.504981041E-1
1.498982805E0,-2.047042370E0,9.931447983E0,-9.504981041E-1
1.500982838E0,-2.015917778E0,9.917082787E0,-9.457096457E-1
1.502982871E0,-1.980004787E0,9.895534515E0,-9.361328483E-1
1.504982904E0,-1.968033791E0,9.900322914E0,-9.552865028E-1
1.506982937E0,-1.958456993E0,9.905111313E0,-9.768342972E-1
1.508983837E0,-1.924938202E0,9.885957718E0,-1.036689281E0
1.510984703E0,-1.912967205E0,9.876380920E0,-1.065419793E0
1.512985569E0,-1.879448295E0,9.864410400E0,-1.115697980E0
1.514986402E0,-1.838746905E0,9.878775597E0,-1.180341482E0
1.516987235E0,-1.812410712E0,9.876380920E0,-1.211466074E0
1.518988101E0,-1.766920805E0,9.857227325E0,-1.256955862E0
1.520988067E0,-1.740584612E0,9.854833603E0,-1.280897856E0
1.522988033E0,-1.680729628E0,9.859622002E0,-1.319205165E0
1.524987999E0,-1.640028119E0,9.842862129E0,-1.376665950E0
1.526987999E0,-1.374271750E0,9.818920135E0,-1.661576033E0
1.528987165E0,-1.345541358E0,9.806949615E0,-1.692700624E0
1.530986331E0,-1.345541358E0,9.806949615E0,-1.692700624E0
1.532985497E0,-1.345541358E0,9.806949615E0,-1.692700624E0
1.534984663E0,-1.345541358E0,9.806949615E0,-1.692700624E0
1.536983829E0,-1.345541358E0,9.806949615E0,-1.692700624E0
1.538983129E0,-1.321599364E0,9.797372818E0,-1.719036818E0
1.540983162E0,-1.307234168E0,9.802161217E0,-1.733402014E0
1.542983195E0,-1.273715258E0,9.790189743E0,-1.793257117E0
1.544983195E0,-1.230619669E0,9.768642426E0,-1.855506301E0
1.546983195E0,-1.223437071E0,9.761459351E0,-1.872265697E0
1.548984061E0,-1.197100878E0,9.759065628E0,-1.884236693E0
1.550984927E0,-1.182735682E0,9.749488831E0,-1.879448295E0
1.552985793E0,-1.173158884E0,9.730335236E0,-1.850717902E0
1.554986659E0,-1.168370485E0,9.711181641E0,-1.793257117E0
1.556987525E0,-1.163581967E0,9.711181641E0,-1.769315004E0
1.558987991E0,-1.158793569E0,9.675268173E0,-1.723825216E0
1.560987957E0,-1.151610970E0,9.656114578E0,-1.695094824E0
1.562987923E0,-1.139639974E0,9.634567261E0,-1.668758631E0
1.564987889E0,-1.127668977E0,9.620202065E0,-1.642422318E0
1.566987855E0,-1.086967587E0,9.579500198E0,-1.527500629E0
1.568986955E0,-1.086967587E0,9.586683273E0,-1.527500629E0
1.570986055E0,-1.086967587E0,9.586683273E0,-1.513135433E0
1.572985155E0,-1.086967587E0,9.586683273E0,-1.513135433E0
1.574984288E0,-1.086967587E0,9.586683273E0,-1.513135433E0
1.576983454E0,-1.086967587E0,9.586683273E0,-1.513135433E0
1.578982587E0,-1.089361787E0,9.589076996E0,-1.489193439E0
1.580982620E0,-1.094150186E0,9.586683273E0,-1.462857246E0
1.582982653E0,-1.094150186E0,9.579500198E0,-1.403002143E0
1.584982686E0,-1.086967587E0,9.584288597E0,-1.362300754E0
1.586982719E0,-1.079784989E0,9.593865395E0,-1.340752959E0
1.588984019E0,-1.070208192E0,9.608230591E0,-1.295263171E0
1.590984885E0,-1.072602391E0,9.613018990E0,-1.276109457E0
1.592985718E0,-1.055842996E0,9.601048470E0,-1.264138460E0
1.594986551E0,-1.051054597E0,9.613018990E0,-1.247379065E0
1.596987384E0,-1.079784989E0,9.617807388E0,-1.242590666E0
1.598988084E0,-1.084573388E0,9.610625267E0,-1.223437071E0
1.600988050E0,-1.079784989E0,9.605836868E0,-1.225831270E0
1.602988016E0,-1.063025594E0,9.598653793E0,-1.209071875E0
1.604988016E0,-1.048660398E0,9.598653793E0,-1.211466074E0
1.606988049E0,-9.385270476E-1,9.620202065E0,-1.223437071E0
1.608987215E0,-9.385270476E-1,9.620202065E0,-1.223437071E0
1.610986381E0,-9.433154464E-1,9.632172585E0,-1.228225470E0
1.612985547E0,-9.433154464E-1,9.632172585E0,-1.228225470E0
1.614984713E0,-9.433154464E-1,9.632172585E0,-1.228225470E0
1.616983879E0,-9.433154464E-1,9.632172585E0,-1.228225470E0
1.618983179E0,-9.457096457E-1,9.644144058E0,-1.225831270E0
1.620983212E0,-9.385270476E-1,9.646537781E0,-1.218648672E0
1.622983212E0,-9.481038451E-1,9.639355659E0,-1.206677675E0
1.624983212E0,-9.624691010E-1,9.648932457E0,-1.206677675E0
1.626983212E0,-9.696516991E-1,9.680056572E0,-1.194706678E0
1.628984078E0,-9.648633003E-1,9.682451248E0,-1.177947283E0
1.630984944E0,-9.648633003E-1,9.680056572E0,-1.170764685E0
1.632985810E0,-9.696516991E-1,9.687239647E0,-1.165976286E0
1.634986676E0,-9.816226959E-1,9.692028046E0,-1.156399369E0
1.636987509E0,-1.019929886E0,9.694421768E0,-1.132457376E0
1.638988375E0,-1.058237195E0,9.694421768E0,-1.158793569E0
1.640988341E0,-1.074996591E0,9.699210167E0,-1.165976286E0
1.642988307E0,-1.098938584E0,9.711181641E0,-1.168370485E0
1.644988273E0,-1.115697980E0,9.713575363E0,-1.173158884E0
1.646988706E0,-1.067813993E0,9.696816444E0,-1.242590666E0
1.648987372E0,-1.067813993E0,9.696816444E0,-1.242590666E0
1.650986472E0,-1.048660398E0,9.703998566E0,-1.244984865E0
1.652985605E0,-1.048660398E0,9.703998566E0,-1.244984865E0
1.654984771E0,-1.048660398E0,9.703998566E0,-1.244984865E0
1.656983937E0,-1.048660398E0,9.703998566E0,-1.244984865E0
1.658983203E0,-1.043871999E0,9.703998566E0,-1.254561663E0
1.660983236E0,-1.041477680E0,9.708786964E0,-1.261744261E0
1.662983269E0,-1.017535686E0,9.706393242E0,-1.244984865E0
1.664983302E0,-1.007958889E0,9.715970039E0,-1.244984865E0
1.666983302E0,-9.959878922E-1,9.723152161E0,-1.247379065E0
1.668984168E0,-9.816226959E-1,9.723152161E0,-1.247379065E0
1.670985001E0,-9.792284966E-1,9.730335236E0,-1.249773264E0
1.672985834E0,-9.744400978E-1,9.727940559E0,-1.256955862E0
1.674986667E0,-9.720458984E-1,9.725546837E0,-1.264138460E0
1.676987500E0,-9.481038451E-1,9.703998566E0,-1.273715258E0
1.678988200E0,-9.409212470E-1,9.680056572E0,-1.302445769E0
1.680988166E0,-9.313444495E-1,9.660902977E0,-1.309628367E0
1.682988166E0,-9.265560508E-1,9.641749382E0,-1.321599364E0
1.684988199E0,-9.169792533E-1,9.629778862E0,-1.335964561E0
1.686988232E0,-8.403648138E-1,9.536404610E0,-1.312022567E0
1.688987398E0,-8.403648138E-1,9.536404610E0,-1.312022567E0
1.690986564E0,-8.475474119E-1,9.522039413E0,-1.292868972E0
1.692985730E0,-8.475474119E-1,9.522039413E0,-1.292868972E0
1.694984896E0,-8.475474119E-1,9.522039413E0,-1.292868972E0
1.696984062E0,-8.475474119E-1,9.522039413E0,-1.292868972E0
1.698983195E0,-8.619126081E-1,9.526827812E0,-1.285686255E0
1.700983195E0,-8.714894056E-1,9.522039413E0,-1.288080573E0
1.702983195E0,-8.882488012E-1,9.507674217E0,-1.288080573E0
1.704983195E0,-8.858546019E-1,9.505280495E0,-1.285686255E0
1.706982728E0,-8.954314590E-1,9.519645691E0,-1.237802267E0
1.708983594E0,-9.193734527E-1,9.529222488E0,-1.218648672E0
1.710984460E0,-9.217676520E-1,9.519645691E0,-1.223437071E0
1.712985326E0,-9.361328483E-1,9.510068893E0,-1.216254473E0
1.714986159E0,-9.409212470E-1,9.514857292E0,-1.209071875E0
1.716986992E0,-9.169792533E-1,9.536404610E0,-1.218648672E0
1.718987725E0,-8.978256583E-1,9.560346603E0,-1.223437071E0
1.720987691E0,-8.954314590E-1,9.569923401E0,-1.233013868E0
1.722987657E0,-8.690952063E-1,9.562741280E0,-1.247379065E0
1.724987623E0,-8.619126081E-1,9.565135002E0,-1.235408068E0
1.726987589E0,-8.140285611E-1,9.617807388E0,-1.125274777E0
1.728986689E0,-8.140285611E-1,9.617807388E0,-1.125274777E0
1.730985822E0,-8.140285611E-1,9.610625267E0,-1.108515382E0
1.732984988E0,-8.092401624E-1,9.610625267E0,-1.108515382E0
1.734984154E0,-8.092401624E-1,9.610625267E0,-1.108515382E0
1.736983320E0,-8.092401624E-1,9.610625267E0,-1.108515382E0
1.738982586E0,-8.092401624E-1,9.610625267E0,-1.108515382E0
1.740982619E0,-8.020575643E-1,9.610625267E0,-1.077390790E0
1.742982652E0,-7.829039693E-1,9.586683273E0,-1.022324085E0
1.744982652E0,-7.709329724E-1,9.572318077E0,-1.010353088E0
1.746982652E0,-7.541735172E-1,9.545981407E0,-9.768342972E-1
1.748983485E0,-7.326257229E-1,9.514857292E0,-9.576807022E-1
1.750984318E0,-7.230489254E-1,9.502885818E0,-9.528923035E-1
1.752985151E0,-7.230489254E-1,9.476549149E0,-9.481038451E-1
1.754985984E0,-7.062895298E-1,9.466972351E0,-9.576807022E-1
1.756986817E0,-6.847416759E-1,9.435848236E0,-9.600749016E-1
1.758987683E0,-6.871358752E-1,9.407117844E0,-9.864110947E-1
1.760987683E0,-6.871358752E-1,9.411906242E0,-1.003170490E0
1.762987683E0,-6.703764796E-1,9.404723167E0,-1.055842996E0
1.764987716E0,-6.584054828E-1,9.416694641E0,-1.084573388E0
1.766987749E0,-5.195417404E-1,9.534010887E0,-1.283292055E0
1.768986915E0,-5.195417404E-1,9.534010887E0,-1.283292055E0
1.770986081E0,-5.195417404E-1,9.534010887E0,-1.283292055E0
1.772985247E0,-4.979939461E-1,9.565135002E0,-1.304839969E0
1.774984413E0,-4.979939461E-1,9.565135002E0,-1.304839969E0
1.776983579E0,-4.979939461E-1,9.565135002E0,-1.304839969E0
1.778982745E0,-4.979939461E-1,9.565135002E0,-1.304839969E0
1.780982745E0,-4.525041282E-1,9.605836868E0,-1.331176162E0
1.782982745E0,-4.046200812E-1,9.636960983E0,-1.359906554E0
1.784982745E0,-3.734954596E-1,9.656114578E0,-1.376665950E0
1.786982745E0,-3.232172430E-1,9.687239647E0,-1.414973259E0
1.788983611E0,-3.040636182E-1,9.696816444E0,-1.431732655E0
1.790984477E0,-2.609679997E-1,9.739912033E0,-1.460463047E0
1.792985310E0,-2.489969730E-1,9.787796021E0,-1.477222443E0
1.794986143E0,-2.537853718E-1,9.806949615E0,-1.482010841E0
1.796986976E0,-2.466027737E-1,9.862015724E0,-1.505952835E0
1.798987709E0,-2.226607651E-1,9.893140793E0,-1.503558636E0
1.800987675E0,-1.699883193E-1,9.948206902E0,-1.462857246E0
1.802987641E0,-1.364694983E-1,1.000088024E1,-1.391031146E0
1.804987607E0,-1.244984865E-1,1.002003384E1,-1.376665950E0
1.806987573E0,-5.746084079E-2,1.030254936E1,-1.237802267E0
1.808986706E0,-5.746084079E-2,1.030254936E1,-1.237802267E0
1.810985872E0,-5.746084079E-2,1.032649136E1,-1.223437071E0
1.812985038E0,-6.224924326E-2,1.032649136E1,-1.223437071E0
1.814984204E0,-6.224924326E-2,1.032649136E1,-1.223437071E0
1.816983370E0,-6.224924326E-2,1.032649136E1,-1.223437071E0
1.818982803E0,-6.224924326E-2,1.032649136E1,-1.223437071E0
1.820982836E0,-4.788403213E-2,1.038395214E1,-1.185129881E0
1.822982869E0,-6.943184882E-2,1.040789413E1,-1.137245774E0
1.824982869E0,-7.182604820E-2,1.042704773E1,-1.110909581E0
1.826982835E0,-9.576806426E-2,1.047014332E1,-1.041477680E0
1.828983668E0,-1.125274822E-1,1.048690319E1,-1.010353088E0
1.830984501E0,-1.412578970E-1,1.049169159E1,-9.217676520E-1
1.832985334E0,-1.651999205E-1,1.047493172E1,-8.236053586E-1
1.834986167E0,-1.747767180E-1,1.044859505E1,-7.781155705E-1
1.836987000E0,-2.106897533E-1,1.038874054E1,-6.823474765E-1
1.838987833E0,-2.202665508E-1,1.035522175E1,-6.584054828E-1
1.840987833E0,-2.585737705E-1,1.028818417E1,-5.865794420E-1
1.842987866E0,-2.849099934E-1,1.022832870E1,-5.027823448E-1
1.844987899E0,-3.088520169E-1,1.019241619E1,-4.668693244E-1
1.846987932E0,-5.746083856E-1,9.885957718E0,-1.747767180E-1
1.848987098E0,-5.746083856E-1,9.885957718E0,-1.747767180E-1
1.850986264E0,-5.746083856E-1,9.885957718E0,-1.747767180E-1
1.852985430E0,-5.961562395E-1,9.862015724E0,-1.532289088E-1
1.854984596E0,-5.961562395E-1,9.862015724E0,-1.532289088E-1
1.856983729E0,-5.961562395E-1,9.862015724E0,-1.532289088E-1
1.858982929E0,-5.961562395E-1,9.862015724E0,-1.532289088E-1
1.860982929E0,-6.177040339E-1,9.840468407E0,-1.436520964E-1
1.862982929E0,-6.655880809E-1,9.845256805E0,-1.268926859E-1
1.864982929E0,-6.919242740E-1,9.864410400E0,-1.197100878E-1
1.866982929E0,-7.589619160E-1,9.871592522E0,-1.173158810E-1
1.868983795E0,-7.829039693E-1,9.883563995E0,-1.221042871E-1
1.870984628E0,-8.379706144E-1,9.929053307E0,-1.221042871E-1
1.872985461E0,-9.241618514E-1,9.974543571E0,-1.101332754E-1
1.874986294E0,-9.720458984E-1,9.991303444E0,-1.101332754E-1
1.876987127E0,-1.067813993E0,1.005115795E1,-7.422025502E-2
1.878987693E0,-1.113303781E0,1.009185982E1,-5.985504389E-2
1.880987659E0,-1.223437071E0,1.015410900E1,-3.830722719E-2
1.882987625E0,-1.333570361E0,1.021635818E1,-2.394201607E-2
1.884987591E0,-1.388636947E0,1.024030018E1,-2.394201700E-3
1.886987591E0,-1.965639591E0,1.033846188E1,1.125274822E-1
1.888986757E0,-1.965639591E0,1.033846188E1,1.125274822E-1
1.890985923E0,-1.965639591E0,1.033846188E1,1.125274822E-1
1.892985089E0,-2.008735180E0,1.031930828E1,1.244984865E-1
1.894984255E0,-2.008735180E0,1.031930828E1,1.244984865E-1
1.896983421E0,-2.008735180E0,1.031930828E1,1.244984865E-1
1.898982854E0,-2.008735180E0,1.031930828E1,1.244984865E-1
1.900982887E0,-2.078166962E0,1.027621269E1,1.436520964E-1
1.902982887E0,-2.157175779E0,1.024508858E1,1.364694983E-1
1.904982853E0,-2.188300371E0,1.022832870E1,1.173158810E-1
1.906982819E0,-2.236184359E0,1.020917511E1,8.619125932E-2
1.908983652E0,-2.245761156E0,1.020438671E1,6.943184882E-2
1.910984485E0,-2.272097349E0,1.018523312E1,1.915361360E-2
1.912985318E0,-2.272097349E0,1.016847420E1,-3.830722719E-2
1.914987418E0,-2.264914751E0,1.015889740E1,-4.548983276E-2
1.916988284E0,-2.219424963E0,1.016129112E1,-8.379705995E-2
1.918989084E0,-2.205059767E0,1.016368580E1,-1.101332754E-1
1.920989117E0,-2.154781580E0,1.018044472E1,-1.604115069E-1
1.922989150E0,-2.123656988E0,1.016368580E1,-1.867477298E-1
1.924989183E0,-2.087743998E0,1.016368580E1,-1.915361285E-1
1.926989216E0,-1.924938202E0,1.021156979E1,-1.580173075E-1
1.928988382E0,-1.924938202E0,1.021156979E1,-1.580173075E-1
1.930987548E0,-1.924938202E0,1.021156979E1,-1.580173075E-1
1.932986714E0,-1.924938202E0,1.021396351E1,-1.580173075E-1
1.934985847E0,-1.912967205E0,1.021396351E1,-1.771709323E-1
1.936984980E0,-1.912967205E0,1.021396351E1,-1.771709323E-1
1.938984080E0,-1.912967205E0,1.021396351E1,-1.771709323E-1
1.940984080E0,-1.860294700E0,1.020199299E1,-2.035071403E-1
1.942984080E0,-1.836352706E0,1.017086792E1,-2.106897533E-1
1.944984080E0,-1.783680320E0,1.014932060E1,-2.561795712E-1
1.946984080E0,-1.723825216E0,1.010143661E1,-3.040636182E-1
1.948984713E0,-1.699883223E0,1.007031155E1,-3.351882398E-1
1.950985546E0,-1.651999116E0,1.000327396E1,-4.261679053E-1
1.952986379E0,-1.616086125E0,9.960178375E0,-4.596867263E-1
1.954987212E0,-1.561019540E0,9.881169319E0,-5.099649429E-1
1.956988045E0,-1.496376038E0,9.775824547E0,-5.578489900E-1
1.958988611E0,-1.470039845E0,9.725546837E0,-5.841852427E-1
1.960988577E0,-1.431732655E0,9.624990463E0,-6.416460276E-1
1.962988543E0,-1.407790542E0,9.586683273E0,-6.655880809E-1
1.964988543E0,-1.333570361E0,9.483732224E0,-6.967126727E-1
1.966988576E0,-9.983820915E-1,9.189245224E0,-7.757213712E-1
1.968987742E0,-9.983820915E-1,9.189245224E0,-7.757213712E-1
1.970986908E0,-9.983820915E-1,9.189245224E0,-7.757213712E-1
1.972986074E0,-9.983820915E-1,9.179668427E0,-7.757213712E-1
1.974983974E0,-9.576807022E-1,9.179668427E0,-7.757213712E-1
1.976983140E0,-9.576807022E-1,9.179668427E0,-7.757213712E-1
1.978982606E0,-9.576807022E-1,9.179668427E0,-7.757213712E-1
1.980982606E0,-9.002198577E-1,9.153332710E0,-7.613561153E-1
1.982982572E0,-8.762778044E-1,9.150938034E0,-7.469909191E-1
1.984982538E0,-8.068459630E-1,9.165303230E0,-7.134721279E-1
1.986982504E0,-7.350199223E-1,9.184456825E0,-6.871358752E-1
1.988983337E0,-7.038952708E-1,9.196428299E0,-6.823474765E-1
1.990984170E0,-6.248866320E-1,9.253889084E0,-6.368576288E-1
1.992985003E0,-5.889736414E-1,9.292196274E0,-6.153098345E-1
1.994985869E0,-5.482721925E-1,9.380781174E0,-5.698199868E-1
1.996986735E0,-5.123591423E-1,9.471760750E0,-5.315127969E-1
1.998987635E0,-4.908113480E-1,9.522039413E0,-5.147533417E-1
2.000987635E0,-4.477157295E-1,9.617807388E0,-4.788403511E-1
2.002987635E0,-4.189853072E-1,9.665691376E0,-4.764461517E-1
2.004987635E0,-3.663128614E-1,9.768642426E0,-4.429273009E-1
2.006987635E0,-2.035071403E-1,1.020678139E1,-4.740519226E-1
2.008986968E0,-2.035071403E-1,1.020678139E1,-4.740519226E-1
2.010986101E0,-2.035071403E-1,1.020678139E1,-4.740519226E-1
2.012985234E0,-2.035071403E-1,1.020678139E1,-4.740519226E-1
2.014984400E0,-1.795651317E-1,1.023551178E1,-4.644751251E-1
2.016983566E0,-1.795651317E-1,1.023551178E1,-4.644751251E-1
2.018982766E0,-1.795651317E-1,1.023551178E1,-4.644751251E-1
2.020982799E0,-1.532289088E-1,1.028339577E1,-4.501099288E-1
2.022982832E0,-1.508347094E-1,1.031451988E1,-4.501099288E-1
2.024982865E0,-1.316810995E-1,1.035282707E1,-4.357447028E-1
2.026982865E0,-1.101332754E-1,1.037198067E1,-4.165911078E-1
2.028983698E0,-8.140286058E-2,1.036958694E1,-4.022258818E-1
2.030984531E0,-6.464344263E-2,1.036240387E1,-3.782838583E-1
2.032985364E0,-5.506663769E-2,1.036479855E1,-3.663128614E-1
2.034986197E0,-3.351882473E-2,1.037437534E1,-3.447650373E-1
2.036987030E0,-1.675941236E-2,1.033367348E1,-3.256114423E-1
2.038987563E0,7.182605099E-3,1.031930828E1,-3.184288144E-1
2.040987529E0,5.746084079E-2,1.027142429E1,-3.040636182E-1
2.042987529E0,6.943184882E-2,1.025705910E1,-2.873041928E-1
2.044987562E0,9.576806426E-2,1.020917511E1,-2.705447972E-1
2.046987595E0,1.005564705E-1,9.878775597E0,-2.154781483E-2
2.048986761E0,1.005564705E-1,9.878775597E0,-2.154781483E-2
2.050985927E0,1.005564705E-1,9.878775597E0,-2.154781483E-2
2.052985093E0,1.005564705E-1,9.878775597E0,-2.154781483E-2
2.054984259E0,9.337386489E-2,9.847650528E0,1.197100803E-2
2.056983425E0,9.337386489E-2,9.847650528E0,1.197100803E-2
2.058982558E0,9.337386489E-2,9.847650528E0,1.197100803E-2
2.060982558E0,8.140286058E-2,9.773430824E0,8.619125932E-2
2.062982558E0,7.422025502E-2,9.723152161E0,1.221042871E-1
2.064982558E0,8.379705995E-2,9.629778862E0,1.819593310E-1
2.066982558E0,6.464344263E-2,9.541193008E0,2.154781520E-1
2.068983424E0,6.224924326E-2,9.498097420E0,2.178723514E-1
2.070984290E0,3.830722719E-2,9.426271439E0,2.298433632E-1
2.072985156E0,1.436521020E-2,9.392752647E0,2.585737705E-1
2.074985989E0,0.000000000E0,9.347262383E0,2.729389966E-1
2.076986822E0,-4.788403399E-3,9.270648003E0,2.920926213E-1
2.078987622E0,2.394201700E-3,9.220370293E0,2.920926213E-1
2.080987588E0,-2.633621916E-2,9.158121109E0,3.088520169E-1
2.082987554E0,-3.112462163E-2,9.131784439E0,3.136404157E-1
2.084987520E0,-6.703764945E-2,9.059958458E0,3.040636182E-1
2.086987486E0,-2.035071403E-1,8.892364502E0,2.370259613E-1
2.088986619E0,-2.035071403E-1,8.892364502E0,2.370259613E-1
2.090985752E0,-2.035071403E-1,8.892364502E0,2.370259613E-1
2.092984918E0,-2.035071403E-1,8.892364502E0,2.370259613E-1
2.094984084E0,-2.035071403E-1,8.889969826E0,2.370259613E-1
2.096983250E0,-2.202665508E-1,8.889969826E0,2.226607651E-1
2.098982550E0,-2.202665508E-1,8.889969826E0,2.226607651E-1
2.100982583E0,-2.442085743E-1,8.875604630E0,2.011129409E-1
2.102982616E0,-2.633621991E-1,8.880393028E0,1.843535304E-1
2.104982616E0,-2.873041928E-1,8.861239433E0,1.532289088E-1
2.106982582E0,-2.968810201E-1,8.851662636E0,1.221042871E-1
2.108983415E0,-3.399766386E-1,8.846874237E0,9.337386489E-2
2.110984248E0,-3.471592367E-1,8.830115318E0,5.506663769E-2
2.112985081E0,-3.711012602E-1,8.830115318E0,4.309562966E-2
2.114985914E0,-3.830722570E-1,8.803778648E0,4.788403399E-3
2.116986747E0,-3.902548850E-1,8.794201851E0,-3.112462163E-2
2.118987613E0,-3.926490843E-1,8.787019730E0,-6.943184882E-2
2.120987613E0,-4.046200812E-1,8.784625053E0,-1.173158810E-1
2.122987646E0,-4.070142806E-1,8.787019730E0,-1.388636976E-1
2.124987679E0,-4.094084799E-1,8.789413452E0,-1.675941199E-1
2.126987712E0,-3.734954596E-1,8.803778648E0,-2.561795712E-1
2.128986878E0,-3.734954596E-1,8.803778648E0,-2.561795712E-1
2.130986044E0,-3.734954596E-1,8.803778648E0,-2.561795712E-1
2.132985210E0,-3.734954596E-1,8.803778648E0,-2.561795712E-1
2.134984376E0,-3.734954596E-1,8.803778648E0,-2.561795712E-1
2.136983542E0,-3.734954596E-1,8.813355446E0,-2.609679997E-1
2.138982642E0,-3.734954596E-1,8.813355446E0,-2.609679997E-1
2.140982642E0,-3.902548850E-1,8.834903717E0,-2.394201756E-1
2.142982308E0,-4.022258818E-1,8.839692116E0,-2.322375625E-1
2.144982308E0,-4.165911078E-1,8.861239433E0,-2.130839527E-1
2.146982308E0,-4.237737060E-1,8.873210907E0,-1.987187415E-1
2.148983174E0,-4.333505034E-1,8.901941299E0,-1.747767180E-1
2.150984040E0,-4.333505034E-1,8.923488617E0,-1.556231081E-1
2.152984873E0,-4.381389022E-1,8.933065414E0,-1.316810995E-1
2.154985706E0,-4.668693244E-1,8.968978882E0,-9.816227108E-2
2.156986539E0,-4.860229492E-1,8.983344078E0,-7.900865376E-2
2.158987239E0,-5.171475410E-1,9.012074471E0,-4.548983276E-2
2.160987205E0,-5.339069963E-1,9.050381660E0,-2.394201700E-3
2.162987171E0,-5.434837937E-1,9.095871925E0,1.436521020E-2
2.164987137E0,-5.698199868E-1,9.136572838E0,5.027823523E-2
2.166987137E0,-7.062895298E-1,9.306561470E0,1.340752989E-1
2.168986270E0,-7.182605267E-1,9.306561470E0,1.340752989E-1
2.170985436E0,-7.182605267E-1,9.306561470E0,1.340752989E-1
2.172984602E0,-7.182605267E-1,9.306561470E0,1.340752989E-1
2.174983768E0,-7.182605267E-1,9.306561470E0,1.340752989E-1
2.176982934E0,-7.302315235E-1,9.320926666E0,1.268926859E-1
2.178982067E0,-7.302315235E-1,9.320926666E0,1.268926859E-1
2.180982100E0,-7.517793179E-1,9.347262383E0,1.244984865E-1
2.182981700E0,-7.589619160E-1,9.356839180E0,1.173158810E-1
2.184981666E0,-7.493851185E-1,9.390357971E0,1.029506698E-1
2.186981632E0,-7.541735172E-1,9.409511566E0,9.337386489E-2
2.188982465E0,-7.733271718E-1,9.443030357E0,7.900865376E-2
2.190983298E0,-7.876923680E-1,9.481337547E0,6.943184882E-2
2.192984131E0,-8.068459630E-1,9.500492096E0,6.224924326E-2
2.194984964E0,-8.259995580E-1,9.545981407E0,4.309562966E-2
2.196985797E0,-8.236053586E-1,9.562741280E0,3.112462163E-2
2.198986697E0,-8.307880163E-1,9.591471672E0,1.197100803E-2
2.200986730E0,-8.379706144E-1,9.629778862E0,-9.576806799E-3
2.202987096E0,-8.403648138E-1,9.656114578E0,-1.675941236E-2
2.204987129E0,-8.547300100E-1,9.715970039E0,-4.309562966E-2
2.206987162E0,-7.900865674E-1,9.945813179E0,-1.628057212E-1
2.208986328E0,-7.900865674E-1,9.945813179E0,-1.628057212E-1
2.210985494E0,-7.900865674E-1,9.945813179E0,-1.628057212E-1
2.212984660E0,-7.900865674E-1,9.945813179E0,-1.628057212E-1
2.214983826E0,-7.900865674E-1,9.945813179E0,-1.628057212E-1
2.216982959E0,-7.757213712E-1,9.967360497E0,-1.723825186E-1
2.218982359E0,-7.757213712E-1,9.967360497E0,-1.723825186E-1
2.220982359E0,-7.541735172E-1,9.998485565E0,-1.915361285E-1
2.222982225E0,-7.493851185E-1,1.002003384E1,-1.963245422E-1
2.224982225E0,-7.158663273E-1,1.006312943E1,-1.987187415E-1
2.226982225E0,-6.919242740E-1,1.008228302E1,-2.011129409E-1
2.228983091E0,-6.751648784E-1,1.010622501E1,-1.963245422E-1
2.230983924E0,-6.631938815E-1,1.013016701E1,-1.843535304E-1
2.232984790E0,-6.512228847E-1,1.013495541E1,-1.843535304E-1
2.234985656E0,-6.033388376E-1,1.015650272E1,-2.226607651E-1
2.236986522E0,-5.817909837E-1,1.015889740E1,-2.298433632E-1
2.238987388E0,-5.363011956E-1,1.016847420E1,-2.442085743E-1
2.240987388E0,-5.075707436E-1,1.018044472E1,-2.585737705E-1
2.242987788E0,-4.453215301E-1,1.018044472E1,-2.873041928E-1
2.244987821E0,-3.663128614E-1,1.018044472E1,-3.495534360E-1
2.246987854E0,-7.661445439E-2,1.019480991E1,-5.554547906E-1
2.248986987E0,-4.309562966E-2,1.019720459E1,-5.770025849E-1
2.250986120E0,-4.309562966E-2,1.019720459E1,-5.770025849E-1
2.252985253E0,-4.309562966E-2,1.019720459E1,-5.770025849E-1
2.254984386E0,-4.309562966E-2,1.019720459E1,-5.770025849E-1
2.256983519E0,-4.309562966E-2,1.019720459E1,-5.841852427E-1
2.258982752E0,-1.915361360E-2,1.019720459E1,-5.841852427E-1
2.260982718E0,9.576806799E-3,1.020438671E1,-5.913678408E-1
2.262982684E0,8.619125932E-2,1.019959831E1,-6.296750307E-1
2.264982650E0,1.723825186E-1,1.018762779E1,-6.584054828E-1
2.266982283E0,2.106897533E-1,1.019002151E1,-6.679822803E-1
2.268983116E0,2.801215947E-1,1.019480991E1,-6.823474765E-1
2.270983949E0,3.303998411E-1,1.016368580E1,-6.751648784E-1
2.272984782E0,4.046200812E-1,1.016368580E1,-6.751648784E-1
2.274985615E0,4.596867263E-1,1.016847420E1,-6.991068721E-1
2.276986481E0,4.836287498E-1,1.016607952E1,-7.062895298E-1
2.278987114E0,5.363011956E-1,1.016368580E1,-7.493851185E-1
2.280987147E0,5.722141862E-1,1.015650272E1,-7.517793179E-1
2.282987313E0,6.105214357E-1,1.015889740E1,-7.589619160E-1
2.284987346E0,6.488286853E-1,1.014692593E1,-7.469909191E-1
2.286987379E0,7.493851185E-1,1.007988834E1,-6.823474765E-1
2.288986545E0,7.445967197E-1,1.006312943E1,-6.799532771E-1
2.290985711E0,7.445967197E-1,1.006312943E1,-6.799532771E-1
2.292984844E0,7.445967197E-1,1.006312943E1,-6.799532771E-1
2.294983944E0,7.445967197E-1,1.006312943E1,-6.799532771E-1
2.296983044E0,7.493851185E-1,1.005594635E1,-6.655880809E-1
2.298982444E0,7.493851185E-1,1.005594635E1,-6.655880809E-1
2.300982410E0,7.565677166E-1,1.003918743E1,-6.368576288E-1
2.302982376E0,7.541735172E-1,1.000327396E1,-6.224924326E-1
2.304982342E0,7.661445141E-1,9.972148895E0,-6.248866320E-1
2.306982308E0,7.661445141E-1,9.945813179E0,-6.153098345E-1
2.308982774E0,7.709329724E-1,9.900322914E0,-6.153098345E-1
2.310983640E0,7.757213712E-1,9.888352394E0,-6.105214357E-1
2.312984506E0,7.757213712E-1,9.857227325E0,-5.985504389E-1
2.314985372E0,7.637503147E-1,9.830891609E0,-5.985504389E-1
2.316986238E0,7.422025204E-1,9.823708534E0,-6.081272364E-1
2.318987004E0,7.158663273E-1,9.797372818E0,-6.272808313E-1
2.320987004E0,7.158663273E-1,9.787796021E0,-6.153098345E-1
2.322987004E0,6.775590777E-1,9.790189743E0,-5.961562395E-1
2.324987004E0,6.607996821E-1,9.761459351E0,-5.530605912E-1
2.326987370E0,5.698199868E-1,9.725546837E0,-4.788403511E-1
2.328986536E0,5.482721925E-1,9.718363762E0,-4.692635238E-1
2.330985702E0,5.482721925E-1,9.718363762E0,-4.692635238E-1
2.332984868E0,5.482721925E-1,9.718363762E0,-4.692635238E-1
2.334984034E0,5.482721925E-1,9.718363762E0,-4.692635238E-1
2.336983200E0,5.482721925E-1,9.718363762E0,-4.692635238E-1
2.338982400E0,5.267243981E-1,9.723152161E0,-4.668693244E-1
2.340982400E0,5.003881454E-1,9.735123634E0,-4.644751251E-1
2.342982366E0,4.548983276E-1,9.749488831E0,-4.501099288E-1
2.344982332E0,3.950432837E-1,9.761459351E0,-4.572925270E-1
2.346982298E0,3.711012602E-1,9.768642426E0,-4.357447028E-1
2.348983131E0,3.232172430E-1,9.775824547E0,-4.165911078E-1
2.350983964E0,2.920926213E-1,9.775824547E0,-4.046200812E-1
2.352984797E0,2.082955539E-1,9.773430824E0,-3.615244627E-1
2.354985663E0,1.221042871E-1,9.768642426E0,-3.447650373E-1
2.356986563E0,7.661445439E-2,9.761459351E0,-3.375824392E-1
2.358987196E0,-2.394201607E-2,9.730335236E0,-3.160346150E-1
2.360987229E0,-7.422025502E-2,9.713575363E0,-2.992752194E-1
2.362987262E0,-1.651999205E-1,9.675268173E0,-2.609679997E-1
2.364987295E0,-2.585737705E-1,9.627384186E0,-2.585737705E-1
2.366987328E0,-6.368576288E-1,9.419088364E0,-2.370259613E-1
2.368986894E0,-6.368576288E-1,9.380781174E0,-2.370259613E-1
2.370986060E0,-6.655880809E-1,9.380781174E0,-2.250549644E-1
2.372985193E0,-6.655880809E-1,9.380781174E0,-2.250549644E-1
2.374984326E0,-6.655880809E-1,9.380781174E0,-2.250549644E-1
2.376983459E0,-6.655880809E-1,9.380781174E0,-2.250549644E-1
2.378982692E0,-6.919242740E-1,9.366415977E0,-2.226607651E-1
2.380982692E0,-7.206547260E-1,9.361627579E0,-2.250549644E-1
2.382982692E0,-7.661445141E-1,9.332897186E0,-2.442085743E-1
2.384982692E0,-8.044517636E-1,9.323320389E0,-2.753331959E-1
2.386982658E0,-8.164227605E-1,9.318531990E0,-2.992752194E-1
2.388984424E0,-8.475474119E-1,9.304166794E0,-3.303998411E-1
2.390985257E0,-8.427590132E-1,9.304166794E0,-3.447650373E-1
2.392986090E0,-8.595184088E-1,9.311349869E0,-3.615244627E-1
2.394986923E0,-8.523358107E-1,9.323320389E0,-3.615244627E-1
2.396987756E0,-8.451532125E-1,9.323320389E0,-3.615244627E-1
2.398988522E0,-8.355764151E-1,9.325715065E0,-3.687070608E-1
2.400988488E0,-8.499416113E-1,9.337685585E0,-3.687070608E-1
2.402988488E0,-8.547300100E-1,9.359233856E0,-3.519476354E-1
2.404988521E0,-8.451532125E-1,9.387964249E0,-3.447650373E-1
2.406988554E0,-7.302315235E-1,9.524434090E0,-4.692635238E-1
2.408987720E0,-7.302315235E-1,9.524434090E0,-4.692635238E-1
2.410986886E0,-7.015010715E-1,9.538799286E0,-4.932055473E-1
2.412986052E0,-7.015010715E-1,9.538799286E0,-4.932055473E-1
2.414985218E0,-7.015010715E-1,9.538799286E0,-4.932055473E-1
2.416984351E0,-7.015010715E-1,9.538799286E0,-4.932055473E-1
2.418983451E0,-6.751648784E-1,9.560346603E0,-5.171475410E-1
2.420983417E0,-6.512228847E-1,9.572318077E0,-5.363011956E-1
2.422983383E0,-5.961562395E-1,9.579500198E0,-5.506663918E-1
2.424983349E0,-5.793967843E-1,9.581894875E0,-5.530605912E-1
2.426983315E0,-5.626373887E-1,9.591471672E0,-5.626373887E-1
2.428984148E0,-5.243301988E-1,9.581894875E0,-5.674257874E-1
2.430984981E0,-5.027823448E-1,9.586683273E0,-5.770025849E-1
2.432985847E0,-4.477157295E-1,9.593865395E0,-5.817909837E-1
2.434986747E0,-4.141969085E-1,9.572318077E0,-5.889736414E-1
2.436987647E0,-3.615244627E-1,9.553164482E0,-6.224924326E-1
2.438988447E0,-3.016694188E-1,9.538799286E0,-6.560112834E-1
2.440988480E0,-2.633621991E-1,9.529222488E0,-6.799532771E-1
2.442988513E0,-2.154781520E-1,9.514857292E0,-7.134721279E-1
2.444988546E0,-1.819593310E-1,9.500492096E0,-7.110779285E-1
2.446988579E0,9.816227108E-2,9.390357971E0,-7.565677166E-1
2.448986812E0,9.816227108E-2,9.378387451E0,-7.517793179E-1
2.450985945E0,1.125274822E-1,9.378387451E0,-7.517793179E-1
2.452985078E0,1.125274822E-1,9.378387451E0,-7.517793179E-1
2.454984211E0,1.125274822E-1,9.378387451E0,-7.517793179E-1
2.456983344E0,1.125274822E-1,9.378387451E0,-7.517793179E-1
2.458982910E0,1.292868853E-1,9.368810654E0,-7.374141216E-1
2.460982910E0,1.412578970E-1,9.364022255E0,-7.254431248E-1
2.462982910E0,1.699883193E-1,9.352050781E0,-7.134721279E-1
2.464982876E0,1.699883193E-1,9.340080261E0,-7.038952708E-1
2.466982842E0,1.867477298E-1,9.340080261E0,-6.607996821E-1
2.468983675E0,2.130839527E-1,9.347262383E0,-6.440402865E-1
2.470984508E0,2.394201756E-1,9.359233856E0,-6.320692301E-1
2.472985341E0,2.753331959E-1,9.359233856E0,-6.248866320E-1
2.474986174E0,2.753331959E-1,9.354445457E0,-6.081272364E-1
2.476987007E0,2.801215947E-1,9.368810654E0,-5.889736414E-1
2.478987873E0,2.801215947E-1,9.361627579E0,-5.722141862E-1
2.480987873E0,2.801215947E-1,9.352050781E0,-5.626373887E-1
2.482987906E0,2.825157940E-1,9.378387451E0,-5.410895944E-1
2.484987939E0,2.873041928E-1,9.380781174E0,-5.363011956E-1
2.486987972E0,3.519476354E-1,9.423876762E0,-6.296750307E-1
2.488987138E0,3.519476354E-1,9.423876762E0,-6.296750307E-1
2.490986304E0,3.639186621E-1,9.414299965E0,-6.416460276E-1
2.492985470E0,3.639186621E-1,9.414299965E0,-6.416460276E-1
2.494984603E0,3.639186621E-1,9.414299965E0,-6.416460276E-1
2.496983736E0,3.639186621E-1,9.414299965E0,-6.416460276E-1
2.498982869E0,3.734954596E-1,9.402329445E0,-6.703764796E-1
2.500982835E0,3.830722570E-1,9.390357971E0,-6.943184733E-1
2.502982801E0,4.046200812E-1,9.364022255E0,-7.326257229E-1
2.504982767E0,4.189853072E-1,9.368810654E0,-7.637503147E-1
2.506982733E0,4.596867263E-1,9.361627579E0,-8.188169599E-1
2.508983566E0,4.716577232E-1,9.342473984E0,-8.451532125E-1
2.510984432E0,4.812345505E-1,9.335291862E0,-8.690952063E-1
2.512985298E0,5.243301988E-1,9.325715065E0,-9.169792533E-1
2.514986198E0,5.434837937E-1,9.328108788E0,-9.361328483E-1
2.516987098E0,5.626373887E-1,9.340080261E0,-9.696516991E-1
2.518987564E0,5.674257874E-1,9.325715065E0,-1.007958889E0
2.520987597E0,5.650315881E-1,9.308955193E0,-1.019929886E0
2.522987630E0,5.650315881E-1,9.306561470E0,-1.043871999E0
2.524987663E0,5.770025849E-1,9.304166794E0,-1.048660398E0
2.526987696E0,6.464344859E-1,9.203610420E0,-1.127668977E0
2.528986829E0,6.464344859E-1,9.203610420E0,-1.127668977E0
2.530985962E0,6.488286853E-1,9.194033623E0,-1.132457376E0
2.532985095E0,6.488286853E-1,9.194033623E0,-1.132457376E0
2.534984228E0,6.488286853E-1,9.194033623E0,-1.132457376E0
2.536983361E0,6.488286853E-1,9.194033623E0,-1.132457376E0
2.538982461E0,6.488286853E-1,9.174880028E0,-1.130063176E0
2.540982461E0,6.464344859E-1,9.158121109E0,-1.122880578E0
2.542982427E0,6.488286853E-1,9.126996040E0,-1.125274777E0
2.544982393E0,6.536170840E-1,9.110237122E0,-1.115697980E0
2.546982359E0,6.823474765E-1,9.059958458E0,-1.098938584E0
2.548983192E0,7.086837292E-1,9.028834343E0,-1.108515382E0
2.550984025E0,7.182605267E-1,9.012074471E0,-1.098938584E0
2.552984858E0,7.589619160E-1,8.988132477E0,-1.067813993E0
2.554985691E0,7.733271718E-1,8.961795807E0,-1.053448796E0
2.556986524E0,7.876923680E-1,8.935460091E0,-1.029506683E0
2.558987357E0,8.236053586E-1,8.925883293E0,-1.003170490E0
2.560987390E0,8.451532125E-1,8.906729698E0,-1.000776291E0
2.562987423E0,8.667010069E-1,8.899546623E0,-9.911994934E-1
2.564987456E0,8.667010069E-1,8.887576103E0,-9.864110947E-1
2.566987489E0,1.005564690E0,8.901941299E0,-8.906430602E-1
2.568986655E0,1.005564690E0,8.901941299E0,-8.906430602E-1
2.570985821E0,1.005564690E0,8.901941299E0,-8.906430602E-1
2.572984987E0,1.012747288E0,8.911518097E0,-8.475474119E-1
2.574984120E0,1.012747288E0,8.911518097E0,-8.475474119E-1
2.576983220E0,1.012747288E0,8.911518097E0,-8.475474119E-1
2.578982420E0,1.012747288E0,8.911518097E0,-8.475474119E-1
2.580982386E0,9.744400978E-1,8.923488617E0,-8.164227605E-1
2.582982352E0,9.361328483E-1,8.904335022E0,-8.523358107E-1
2.584982318E0,9.409212470E-1,8.904335022E0,-8.810662031E-1
2.586982284E0,9.744400978E-1,8.899546623E0,-9.217676520E-1
2.588983150E0,9.840168953E-1,8.899546623E0,-9.457096457E-1
2.590984016E0,1.010353088E0,8.894758224E0,-1.000776291E0
2.592984916E0,1.029506683E0,8.913911819E0,-1.017535686E0
2.594985816E0,1.031900883E0,8.923488617E0,-1.041477680E0
2.596986716E0,1.053448796E0,8.952219009E0,-1.072602391E0
2.598987649E0,1.055842996E0,8.976161003E0,-1.079784989E0
2.600987682E0,1.086967587E0,8.990526199E0,-1.096544385E0
2.602987715E0,1.084573388E0,9.038411140E0,-1.106121182E0
2.604987748E0,1.084573388E0,9.059958458E0,-1.118092179E0
2.606987748E0,1.091755986E0,9.232340813E0,-1.084573388E0
2.608986881E0,1.091755986E0,9.232340813E0,-1.084573388E0
2.610986014E0,1.091755986E0,9.265859604E0,-1.084573388E0
2.612985147E0,1.084573388E0,9.265859604E0,-1.084573388E0
2.614984280E0,1.084573388E0,9.265859604E0,-1.084573388E0
2.616983413E0,1.084573388E0,9.265859604E0,-1.084573388E0
2.618982846E0,1.084573388E0,9.265859604E0,-1.084573388E0
2.620982346E0,1.091755986E0,9.316138268E0,-1.082179189E0
2.622982312E0,1.072602391E0,9.347262383E0,-1.074996591E0
2.624982278E0,1.065419793E0,9.366415977E0,-1.079784989E0
2.626982244E0,1.067813993E0,9.426271439E0,-1.084573388E0
2.628983077E0,1.079784989E0,9.455001831E0,-1.091755986E0
2.630983910E0,1.101332784E0,9.490914345E0,-1.108515382E0
2.632984743E0,1.113303781E0,9.553164482E0,-1.122880578E0
2.634985576E0,1.118092179E0,9.586683273E0,-1.132457376E0
2.636986442E0,1.132457376E0,9.644144058E0,-1.130063176E0
2.638987242E0,1.134851575E0,9.687239647E0,-1.139639974E0
2.640987275E0,1.154005170E0,9.742305756E0,-1.142034173E0
2.642987308E0,1.154005170E0,9.818920135E0,-1.170764685E0
2.644987341E0,1.158793569E0,9.854833603E0,-1.177947283E0
2.646987374E0,1.137245774E0,1.025227070E1,-1.211466074E0
2.648986540E0,1.137245774E0,1.025227070E1,-1.211466074E0
2.650985706E0,1.137245774E0,1.025227070E1,-1.211466074E0
2.652984839E0,1.134851575E0,1.029057789E1,-1.230619669E0
2.654983939E0,1.134851575E0,1.029057789E1,-1.230619669E0
2.656983039E0,1.134851575E0,1.029057789E1,-1.230619669E0
2.658982105E0,1.134851575E0,1.029057789E1,-1.230619669E0
2.660981605E0,1.108515382E0,1.036479855E1,-1.252167463E0
2.662981571E0,1.074996591E0,1.043901825E1,-1.259350061E0
2.664981537E0,1.053448796E0,1.047732544E1,-1.261744261E0
2.666981537E0,1.000776291E0,1.054915237E1,-1.259350061E0
2.668982403E0,9.744400978E-1,1.058027649E1,-1.256955862E0
2.670983303E0,9.265560508E-1,1.063773727E1,-1.254561663E0
2.672984203E0,8.690952063E-1,1.071914005E1,-1.242590666E0
2.674985103E0,8.259995580E-1,1.076702404E1,-1.233013868E0
2.676986003E0,7.374141216E-1,1.084603310E1,-1.204283476E0
2.678986436E0,6.823474765E-1,1.088912868E1,-1.180341482E0
2.680986936E0,5.889736414E-1,1.097292614E1,-1.132457376E0
2.682986969E0,4.764461517E-1,1.105432892E1,-1.089361787E0
2.684986969E0,4.237737060E-1,1.109024143E1,-1.051054597E0
2.686986969E0,-2.466027737E-1,1.120276928E1,-9.433154464E-1
2.688986102E0,-2.466027737E-1,1.120276928E1,-9.433154464E-1
2.690985235E0,-2.466027737E-1,1.120276928E1,-9.433154464E-1
2.692984368E0,-3.064578176E-1,1.118840408E1,-9.528923035E-1
2.694983501E0,-3.064578176E-1,1.118840408E1,-9.528923035E-1
2.696982634E0,-3.064578176E-1,1.118840408E1,-9.528923035E-1
2.698982000E0,-3.064578176E-1,1.118840408E1,-9.528923035E-1
2.700981966E0,-4.309563041E-1,1.115967369E1,-9.648633003E-1
2.702981932E0,-5.698199868E-1,1.109502983E1,-9.768342972E-1
2.704981898E0,-6.368576288E-1,1.106390572E1,-9.672574997E-1
2.706981864E0,-7.589619160E-1,1.099926186E1,-9.409212470E-1
2.708982697E0,-8.212111592E-1,1.094658947E1,-9.217676520E-1
2.710983530E0,-9.648633003E-1,1.086279202E1,-8.954314590E-1
2.712984363E0,-1.072602391E0,1.077181244E1,-8.403648138E-1
2.714985363E0,-1.113303781E0,1.071435165E1,-8.068459630E-1
2.716986263E0,-1.218648672E0,1.060900688E1,-7.469909191E-1
2.718987196E0,-1.280897856E0,1.056112289E1,-7.158663273E-1
2.720987696E0,-1.388636947E0,1.045338345E1,-6.512228847E-1
2.722987729E0,-1.486799240E0,1.033367348E1,-5.913678408E-1
2.724987762E0,-1.529894829E0,1.027860737E1,-5.554547906E-1
2.726987795E0,-1.752555609E0,9.809343338E0,-3.495534360E-1
2.728986961E0,-1.752555609E0,9.809343338E0,-3.495534360E-1
2.730986094E0,-1.752555609E0,9.809343338E0,-3.495534360E-1
2.732985194E0,-1.752555609E0,9.773430824E0,-3.495534360E-1
2.734984294E0,-1.742978811E0,9.773430824E0,-3.375824392E-1
2.736983394E0,-1.742978811E0,9.773430824E0,-3.375824392E-1
2.738982760E0,-1.742978811E0,9.773430824E0,-3.375824392E-1
2.740982726E0,-1.707065821E0,9.701604843E0,-3.136404157E-1
2.742982692E0,-1.683123827E0,9.632172585E0,-3.064578176E-1
2.744982692E0,-1.613691926E0,9.598653793E0,-3.112462163E-1
2.746982692E0,-1.517923832E0,9.548376083E0,-3.256114423E-1
2.748983592E0,-1.472434044E0,9.534010887E0,-3.495534360E-1
2.750984492E0,-1.400607944E0,9.469367027E0,-4.022258818E-1
2.752985392E0,-1.355118155E0,9.409511566E0,-4.333505034E-1
2.754986292E0,-1.273715258E0,9.378387451E0,-4.932055473E-1
2.756987192E0,-1.206677675E0,9.328108788E0,-5.339069963E-1
2.758987825E0,-1.189918280E0,9.306561470E0,-5.602431893E-1
2.760987858E0,-1.146822572E0,9.270648003E0,-6.009446383E-1
2.762987891E0,-1.122880578E0,9.258677483E0,-6.153098345E-1
2.764987891E0,-1.094150186E0,9.256282806E0,-6.655880809E-1
2.766987891E0,-7.900865674E-1,9.462183952E0,-9.169792533E-1
2.768987024E0,-7.900865674E-1,9.462183952E0,-9.169792533E-1
2.770986157E0,-7.900865674E-1,9.462183952E0,-9.169792533E-1
2.772985290E0,-7.900865674E-1,9.462183952E0,-9.169792533E-1
2.774984290E0,-7.589619160E-1,9.478943825E0,-9.265560508E-1
2.776983390E0,-7.589619160E-1,9.478943825E0,-9.265560508E-1
2.778982456E0,-7.589619160E-1,9.478943825E0,-9.265560508E-1
2.780982422E0,-7.015010715E-1,9.531616211E0,-9.481038451E-1
2.782982388E0,-6.727706790E-1,9.579500198E0,-9.648633003E-1
2.784982354E0,-6.081272364E-1,9.680056572E0,-9.600749016E-1
2.786982320E0,-5.602431893E-1,9.761459351E0,-9.361328483E-1
2.788983153E0,-5.410895944E-1,9.806949615E0,-9.121908545E-1
2.790983986E0,-4.764461517E-1,9.905111313E0,-8.547300100E-1
2.792984852E0,-4.453215301E-1,9.945813179E0,-8.164227605E-1
2.794985752E0,-4.022258818E-1,1.001045704E1,-7.445967197E-1
2.796986652E0,-3.639186621E-1,1.007749462E1,-6.679822803E-1
2.798987452E0,-3.663128614E-1,1.011101341E1,-6.344634295E-1
2.800987485E0,-3.351882398E-1,1.014932060E1,-5.674257874E-1
2.802987518E0,-3.208230138E-1,1.016847420E1,-5.339069963E-1
2.804987551E0,-3.184288144E-1,1.017805099E1,-4.620809257E-1
2.806987584E0,-4.548983276E-1,1.013974380E1,-1.747767180E-1
2.808986717E0,-4.548983276E-1,1.013974380E1,-1.747767180E-1
2.810985817E0,-4.548983276E-1,1.013974380E1,-1.747767180E-1
2.812984917E0,-4.548983276E-1,1.013974380E1,-1.747767180E-1
2.814984017E0,-4.740519226E-1,1.012059021E1,-1.388636976E-1
2.816983117E0,-4.740519226E-1,1.012059021E1,-1.388636976E-1
2.818982317E0,-4.740519226E-1,1.012059021E1,-1.388636976E-1
2.820982283E0,-5.458779931E-1,1.010143661E1,-5.746084079E-2
2.822982249E0,-5.985504389E-1,1.009185982E1,-1.915361360E-2
2.824982249E0,-7.685387731E-1,1.011580181E1,7.422025502E-2
2.826982249E0,-9.768342972E-1,1.017565632E1,2.178723514E-1
2.828983115E0,-1.074996591E0,1.021875191E1,2.873041928E-1
2.830983981E0,-1.268926859E0,1.031451988E1,4.213795066E-1
2.832984847E0,-1.345541358E0,1.037437534E1,4.884171486E-1
2.834985713E0,-1.493981838E0,1.047253704E1,5.698199868E-1
2.836986579E0,-1.616086125E0,1.058745956E1,6.105214357E-1
2.838987479E0,-1.666364431E0,1.064970875E1,6.296750307E-1
2.840987479E0,-1.762132406E0,1.077181244E1,6.679822803E-1
2.842987512E0,-1.800439715E0,1.082209110E1,6.919242740E-1
2.844987545E0,-1.857900500E0,1.091546440E1,7.254431248E-1
2.846987478E0,-2.305616140E0,1.133684444E1,6.057330370E-1
2.848986644E0,-2.305616140E0,1.133684444E1,6.057330370E-1
2.850985810E0,-2.305616140E0,1.133684444E1,6.057330370E-1
2.852984976E0,-2.305616140E0,1.133684444E1,6.057330370E-1
2.854984109E0,-2.336740971E0,1.134642124E1,5.530605912E-1
2.856983209E0,-2.336740971E0,1.134642124E1,5.530605912E-1
2.858982409E0,-2.336740971E0,1.134642124E1,5.530605912E-1
2.860982375E0,-2.367865562E0,1.137036324E1,4.189853072E-1
2.862982341E0,-2.377442360E0,1.137036324E1,3.375824392E-1
2.864982307E0,-2.377442360E0,1.135839176E1,1.364694983E-1
2.866982273E0,-2.324769735E0,1.129374886E1,-8.858546615E-2
2.868983106E0,-2.291250944E0,1.125783539E1,-2.106897533E-1
2.870983972E0,-2.217030764E0,1.116446209E1,-4.596867263E-1
2.872984872E0,-2.171540976E0,1.110221291E1,-5.793967843E-1
2.874985772E0,-2.056619167E0,1.097771454E1,-7.805097699E-1
2.876986672E0,-1.944091797E0,1.085560989E1,-8.930372596E-1
2.878987472E0,-1.958456993E0,1.078617764E1,-9.576807022E-1
2.880987505E0,-1.982398987E0,1.062576675E1,-1.106121182E0
2.882987538E0,-1.980004787E0,1.053478718E1,-1.182735682E0
2.884987571E0,-1.960851192E0,1.035043335E1,-1.338358760E0
2.886987604E0,-2.025494576E0,9.687239647E0,-1.929726601E0
2.888986737E0,-2.025494576E0,9.687239647E0,-1.929726601E0
2.890985870E0,-2.025494576E0,9.687239647E0,-1.929726601E0
2.892985003E0,-2.025494576E0,9.687239647E0,-1.929726601E0
2.894984136E0,-2.039859772E0,9.641749382E0,-1.975216389E0
2.896983269E0,-2.039859772E0,9.641749382E0,-1.975216389E0
2.898982535E0,-2.039859772E0,9.641749382E0,-1.975216389E0
2.900982535E0,-2.047042370E0,9.579500198E0,-2.061407566E0
2.902982501E0,-2.063801765E0,9.565135002E0,-2.085349798E0
2.904982467E0,-2.106897593E0,9.526827812E0,-2.128445387E0
2.906982533E0,-2.123656988E0,9.510068893E0,-2.185906172E0
2.908983366E0,-2.159569979E0,9.502885818E0,-2.200271368E0
2.910984199E0,-2.193088770E0,9.495702744E0,-2.212242365E0
2.912985032E0,-2.212242365E0,9.495702744E0,-2.212242365E0
2.914985865E0,-2.269703150E0,9.507674217E0,-2.185906172E0
2.916986731E0,-2.288856745E0,9.522039413E0,-2.173935175E0
2.918987497E0,-2.324769735E0,9.534010887E0,-2.161964178E0
2.920987530E0,-2.377442360E0,9.545981407E0,-2.099714994E0
2.922987563E0,-2.398990154E0,9.555558205E0,-2.063801765E0
2.924987596E0,-2.451662540E0,9.557952881E0,-1.977610588E0
2.926987629E0,-2.645592928E0,9.548376083E0,-1.381454349E0
2.928986795E0,-2.645592928E0,9.548376083E0,-1.381454349E0
2.930985961E0,-2.645592928E0,9.548376083E0,-1.381454349E0
2.932985094E0,-2.645592928E0,9.548376083E0,-1.381454349E0
2.934984194E0,-2.645592928E0,9.548376083E0,-1.381454349E0
2.936983294E0,-2.664746523E0,9.550769806E0,-1.326387763E0
2.938982460E0,-2.664746523E0,9.550769806E0,-1.326387763E0
2.940982426E0,-2.710236311E0,9.538799286E0,-1.177947283E0
2.942982392E0,-2.726995707E0,9.534010887E0,-1.103726983E0
2.944981892E0,-2.753331900E0,9.541193008E0,-9.648633003E-1
2.946981858E0,-2.774879694E0,9.545981407E0,-8.834604025E-1
2.948982724E0,-2.817975283E0,9.536404610E0,-7.541735172E-1
2.950983624E0,-2.863465309E0,9.526827812E0,-6.344634295E-1
2.952984524E0,-2.882618904E0,9.522039413E0,-5.793967843E-1
2.954985424E0,-2.925714493E0,9.524434090E0,-4.692635238E-1
2.956986324E0,-2.944868088E0,9.524434090E0,-4.118026793E-1
2.958987090E0,-2.999934673E0,9.538799286E0,-3.232172430E-1
2.960987123E0,-3.038241863E0,9.545981407E0,-2.394201756E-1
2.962987156E0,-3.059789658E0,9.550769806E0,-1.987187415E-1
2.964987189E0,-3.078943491E0,9.543587685E0,-1.316810995E-1
2.966987189E0,-3.126827478E0,9.505280495E0,5.985504389E-2
2.968986322E0,-3.126827478E0,9.505280495E0,5.985504389E-2
2.970985455E0,-3.126827478E0,9.505280495E0,5.985504389E-2
2.972984588E0,-3.126827478E0,9.505280495E0,5.985504389E-2
2.974983721E0,-3.126827478E0,9.500492096E0,7.422025502E-2
2.976982854E0,-3.124433279E0,9.500492096E0,7.422025502E-2
2.978982287E0,-3.124433279E0,9.500492096E0,7.422025502E-2
2.980982253E0,-3.117250681E0,9.474155426E0,7.182604820E-2
2.982982219E0,-3.114856482E0,9.457395554E0,8.140286058E-2
2.984982185E0,-3.076549292E0,9.433453560E0,1.221042871E-1
2.986982151E0,-3.047818661E0,9.435848236E0,1.221042871E-1
2.988982984E0,-2.999934673E0,9.445425034E0,9.337386489E-2
2.990983817E0,-2.954444885E0,9.457395554E0,8.379705995E-2
2.992984450E0,-2.916137695E0,9.457395554E0,7.422025502E-2
2.994985316E0,-2.868253708E0,9.474155426E0,4.788403213E-2
2.996986182E0,-2.844311714E0,9.481337547E0,3.351882473E-2
2.998987015E0,-2.791639090E0,9.483732224E0,-1.436521020E-2
3.000987048E0,-2.743755102E0,9.500492096E0,-4.548983276E-2
3.002987081E0,-2.724601507E0,9.519645691E0,-5.985504389E-2
3.004987581E0,-2.688688517E0,9.536404610E0,-8.140286058E-2
3.006987614E0,-2.494758129E0,9.478943825E0,-1.699883193E-1
3.008986780E0,-2.477998734E0,9.450213432E0,-1.651999205E-1
3.010985913E0,-2.477998734E0,9.450213432E0,-1.651999205E-1
3.012985046E0,-2.477998734E0,9.450213432E0,-1.651999205E-1
3.014984146E0,-2.477998734E0,9.450213432E0,-1.651999205E-1
3.016983246E0,-2.461239338E0,9.431059837E0,-1.747767180E-1
3.018982312E0,-2.461239338E0,9.431059837E0,-1.747767180E-1
3.020981878E0,-2.444479942E0,9.421483040E0,-1.939303428E-1
3.022981844E0,-2.451662540E0,9.433453560E0,-2.059013397E-1
3.024981810E0,-2.432508945E0,9.431059837E0,-2.394201756E-1
3.026981810E0,-2.398990154E0,9.423876762E0,-2.609679997E-1
3.028982710E0,-2.308010340E0,9.419088364E0,-2.992752194E-1
3.030983610E0,-2.224213362E0,9.371204376E0,-3.280056417E-1
3.032984510E0,-2.188300371E0,9.340080261E0,-3.327940404E-1
3.034985410E0,-2.152387381E0,9.287407875E0,-3.399766386E-1
3.036986310E0,-2.135627985E0,9.251494408E0,-3.447650373E-1
3.038986910E0,-2.104503393E0,9.203610420E0,-3.423708379E-1
3.040986943E0,-2.106897593E0,9.150938034E0,-3.471592367E-1
3.042986976E0,-2.109291792E0,9.122207642E0,-3.351882398E-1
3.044986976E0,-2.121262789E0,9.103054047E0,-3.136404157E-1
3.046986976E0,-2.267308950E0,8.966584206E0,-2.825157940E-1
3.048986109E0,-2.286462545E0,8.966584206E0,-2.825157940E-1
3.050985242E0,-2.286462545E0,8.966584206E0,-2.825157940E-1
3.052984575E0,-2.286462545E0,8.966584206E0,-2.825157940E-1
3.054983708E0,-2.286462545E0,8.966584206E0,-2.825157940E-1
3.056982841E0,-2.303221941E0,8.949825287E0,-2.849099934E-1
3.058981941E0,-2.303221941E0,8.949825287E0,-2.849099934E-1
3.060981907E0,-2.351106167E0,8.930671692E0,-2.873041928E-1
3.062981873E0,-2.355894566E0,8.921094894E0,-2.873041928E-1
3.064981839E0,-2.382230759E0,8.892364502E0,-3.040636182E-1
3.066981805E0,-2.391807556E0,8.882787704E0,-3.160346150E-1
3.068982238E0,-2.415749550E0,8.882787704E0,-3.375824392E-1
3.070983071E0,-2.427720547E0,8.885181427E0,-3.687070608E-1
3.072983904E0,-2.451662540E0,8.875604630E0,-3.974374831E-1
3.074984770E0,-2.466027737E0,8.894758224E0,-4.477157295E-1
3.076985670E0,-2.475604534E0,8.901941299E0,-4.740519226E-1
3.078986603E0,-2.480392933E0,8.913911819E0,-5.339069963E-1
3.080987036E0,-2.475604534E0,8.911518097E0,-5.626373887E-1
3.082987069E0,-2.461239338E0,8.923488617E0,-6.272808313E-1
3.084987102E0,-2.458845139E0,8.966584206E0,-6.871358752E-1
3.086987135E0,-2.331952572E0,9.038411140E0,-1.031900883E0
3.088986268E0,-2.319981337E0,9.045593262E0,-1.043871999E0
3.090985401E0,-2.319981337E0,9.045593262E0,-1.043871999E0
3.092984501E0,-2.319981337E0,9.045593262E0,-1.043871999E0
3.094983601E0,-2.319981337E0,9.045593262E0,-1.043871999E0
3.096982701E0,-2.319981337E0,9.045593262E0,-1.043871999E0
3.098981867E0,-2.305616140E0,9.045593262E0,-1.046266198E0
3.100981833E0,-2.291250944E0,9.045593262E0,-1.043871999E0
3.102981799E0,-2.252943754E0,9.062353134E0,-9.983820915E-1
3.104981799E0,-2.197877169E0,9.081506729E0,-9.792284966E-1
3.106981832E0,-2.173935175E0,9.088688850E0,-9.648633003E-1
3.108982732E0,-2.111685991E0,9.117419243E0,-9.313444495E-1
3.110983632E0,-2.080561161E0,9.129390717E0,-9.121908545E-1
3.112984532E0,-2.032677174E0,9.160514832E0,-8.762778044E-1
3.114986298E0,-1.965639591E0,9.194033623E0,-8.571242094E-1
3.116987198E0,-1.927332401E0,9.213187218E0,-8.571242094E-1
3.118988098E0,-1.896207690E0,9.270648003E0,-8.451532125E-1
3.120988131E0,-1.879448295E0,9.308955193E0,-8.427590132E-1
3.122988131E0,-1.862688899E0,9.371204376E0,-8.690952063E-1
3.124988131E0,-1.836352706E0,9.428665161E0,-8.930372596E-1
3.126988131E0,-1.580173135E0,9.696816444E0,-9.313444495E-1
3.128987664E0,-1.553836942E0,9.730335236E0,-9.337386489E-1
3.130986797E0,-1.553836942E0,9.730335236E0,-9.337386489E-1
3.132985930E0,-1.553836942E0,9.730335236E0,-9.337386489E-1
3.134985063E0,-1.553836942E0,9.730335236E0,-9.337386489E-1
3.136984163E0,-1.537077546E0,9.754277229E0,-9.385270476E-1
3.138983629E0,-1.537077546E0,9.754277229E0,-9.385270476E-1
3.140983595E0,-1.508347034E0,9.773430824E0,-9.624691010E-1
3.142983561E0,-1.460463047E0,9.809343338E0,-9.935936928E-1
3.144983527E0,-1.443703651E0,9.833285332E0,-1.012747288E0
3.146983493E0,-1.429338455E0,9.850045204E0,-1.017535686E0
3.148984326E0,-1.403002143E0,9.878775597E0,-1.046266198E0
3.150985159E0,-1.383848548E0,9.895534515E0,-1.060631394E0
3.152986025E0,-1.314416766E0,9.924264908E0,-1.055842996E0
3.154986925E0,-1.261744261E0,9.943418503E0,-1.077390790E0
3.156987825E0,-1.235408068E0,9.950601578E0,-1.082179189E0
3.158988658E0,-1.194706678E0,9.967360497E0,-1.094150186E0
3.160988691E0,-1.173158884E0,9.972148895E0,-1.096544385E0
3.162988724E0,-1.149216771E0,9.981725693E0,-1.098938584E0
3.164988757E0,-1.134851575E0,9.967360497E0,-1.106121182E0
3.166988757E0,-1.046266198E0,9.957783699E0,-1.209071875E0
3.168987890E0,-1.046266198E0,9.950601578E0,-1.213860273E0
3.170986990E0,-1.036689281E0,9.950601578E0,-1.213860273E0
3.172986090E0,-1.036689281E0,9.950601578E0,-1.213860273E0
3.174984323E0,-1.036689281E0,9.950601578E0,-1.213860273E0
3.176983423E0,-1.036689281E0,9.950601578E0,-1.213860273E0
3.178982623E0,-1.036689281E0,9.960178375E0,-1.235408068E0
3.180982589E0,-1.036689281E0,9.974543571E0,-1.261744261E0
3.182982589E0,-1.034295082E0,9.969755173E0,-1.271321058E0
3.184982622E0,-1.051054597E0,9.976937294E0,-1.300051570E0
3.186982655E0,-1.055842996E0,9.972148895E0,-1.307234168E0
3.188983555E0,-1.046266198E0,9.929053307E0,-1.323993564E0
3.190984455E0,-1.046266198E0,9.909899712E0,-1.331176162E0
3.192985355E0,-1.041477680E0,9.873987198E0,-1.331176162E0
3.194986255E0,-1.036689281E0,9.830891609E0,-1.312022567E0
3.196987155E0,-1.055842996E0,9.816526413E0,-1.295263171E0
3.198987888E0,-1.125274777E0,9.737517357E0,-1.338358760E0
3.200987888E0,-1.158793569E0,9.699210167E0,-1.374271750E0
3.202987888E0,-1.163581967E0,9.620202065E0,-1.448492050E0
3.204987888E0,-1.101332784E0,9.517251015E0,-1.484405041E0
3.206987888E0,-1.158793569E0,9.378387451E0,-1.419761658E0
3.208987021E0,-1.187524080E0,9.378387451E0,-1.417367458E0
3.210986154E0,-1.187524080E0,9.378387451E0,-1.417367458E0
3.212985287E0,-1.187524080E0,9.378387451E0,-1.417367458E0
3.214984387E0,-1.187524080E0,9.378387451E0,-1.417367458E0
3.216983487E0,-1.187524080E0,9.378387451E0,-1.417367458E0
3.218982920E0,-1.216254473E0,9.373599052E0,-1.424550056E0
3.220982720E0,-1.233013868E0,9.366415977E0,-1.419761658E0
3.222982686E0,-1.247379065E0,9.340080261E0,-1.424550056E0
3.224982652E0,-1.252167463E0,9.364022255E0,-1.458068848E0
3.226982618E0,-1.261744261E0,9.383175850E0,-1.455674648E0
3.228983451E0,-1.247379065E0,9.385569572E0,-1.465251446E0
3.230984317E0,-1.244984865E0,9.383175850E0,-1.482010841E0
3.232985217E0,-1.230619669E0,9.392752647E0,-1.532289028E0
3.234986117E0,-1.216254473E0,9.407117844E0,-1.596932530E0
3.236987017E0,-1.177947283E0,9.409511566E0,-1.632845521E0
3.238987817E0,-1.132457376E0,9.411906242E0,-1.699883223E0
3.240987850E0,-1.110909581E0,9.411906242E0,-1.740584612E0
3.242987883E0,-1.101332784E0,9.428665161E0,-1.798045516E0
3.244987883E0,-1.077390790E0,9.431059837E0,-1.812410712E0
3.246987883E0,-9.744400978E-1,9.505280495E0,-1.836352706E0
3.248986983E0,-9.744400978E-1,9.505280495E0,-1.836352706E0
3.250986083E0,-9.528923035E-1,9.510068893E0,-1.845929503E0
3.252985183E0,-9.528923035E-1,9.510068893E0,-1.845929503E0
3.254984283E0,-9.528923035E-1,9.510068893E0,-1.845929503E0
3.256983383E0,-9.528923035E-1,9.510068893E0,-1.845929503E0
3.258982249E0,-9.289502501E-1,9.517251015E0,-1.848323703E0
3.260982249E0,-9.121908545E-1,9.522039413E0,-1.850717902E0
3.262982249E0,-8.834604025E-1,9.538799286E0,-1.831564307E0
3.264982282E0,-8.667010069E-1,9.548376083E0,-1.829170108E0
3.266982315E0,-8.188169599E-1,9.545981407E0,-1.821987510E0
3.268983215E0,-7.829039693E-1,9.545981407E0,-1.788468719E0
3.270984115E0,-7.685387731E-1,9.557952881E0,-1.774103403E0
3.272985015E0,-7.158663273E-1,9.567529678E0,-1.783680320E0
3.274985915E0,-6.871358752E-1,9.572318077E0,-1.783680320E0
3.276986815E0,-6.392518282E-1,9.579500198E0,-1.769315004E0
3.278987348E0,-5.841852427E-1,9.572318077E0,-1.771709204E0
3.280987514E0,-5.578489900E-1,9.569923401E0,-1.769315004E0
3.282987514E0,-4.836287498E-1,9.557952881E0,-1.750161409E0
3.284987514E0,-4.525041282E-1,9.562741280E0,-1.742978811E0
3.286987514E0,-3.040636182E-1,9.598653793E0,-1.651999116E0
3.288986647E0,-3.040636182E-1,9.598653793E0,-1.651999116E0
3.290985780E0,-2.849099934E-1,9.605836868E0,-1.651999116E0
3.292984880E0,-2.849099934E-1,9.605836868E0,-1.651999116E0
3.294983980E0,-2.849099934E-1,9.605836868E0,-1.651999116E0
3.296983080E0,-2.849099934E-1,9.605836868E0,-1.651999116E0
3.298982280E0,-2.681505978E-1,9.615413666E0,-1.649604917E0
3.300982246E0,-2.489969730E-1,9.627384186E0,-1.649604917E0
3.302982212E0,-2.202665508E-1,9.646537781E0,-1.642422318E0
3.304982178E0,-2.035071403E-1,9.658509254E0,-1.640028119E0
3.306982144E0,-1.819593310E-1,9.687239647E0,-1.654393315E0
3.308983010E0,-1.628057212E-1,9.725546837E0,-1.628057122E0
3.310983910E0,-1.604115069E-1,9.735123634E0,-1.604115129E0
3.312984810E0,-1.532289088E-1,9.768642426E0,-1.532289028E0
3.314985710E0,-1.532289088E-1,9.787796021E0,-1.496376038E0
3.316986610E0,-1.795651317E-1,9.823708534E0,-1.438915253E0
3.318987543E0,-2.082955539E-1,9.866804123E0,-1.371877551E0
3.320987576E0,-2.106897533E-1,9.876380920E0,-1.326387763E0
3.322987609E0,-2.825157940E-1,9.876380920E0,-1.252167463E0
3.324987609E0,-3.136404157E-1,9.895534515E0,-1.216254473E0
3.326987575E0,-6.009446383E-1,9.802161217E0,-1.027112484E0
3.328986675E0,-6.009446383E-1,9.802161217E0,-1.027112484E0
3.330985775E0,-6.416460276E-1,9.783007622E0,-1.027112484E0
3.332984875E0,-6.416460276E-1,9.783007622E0,-1.027112484E0
3.334983975E0,-6.416460276E-1,9.783007622E0,-1.027112484E0
3.336983075E0,-6.416460276E-1,9.783007622E0,-1.027112484E0
3.338982541E0,-6.416460276E-1,9.754277229E0,-1.027112484E0
3.340982541E0,-6.943184733E-1,9.735123634E0,-1.017535686E0
3.342982574E0,-7.637503147E-1,9.694421768E0,-9.768342972E-1
3.344982607E0,-8.068459630E-1,9.677662849E0,-9.624691010E-1
3.346982640E0,-8.667010069E-1,9.634567261E0,-9.193734527E-1
3.348983540E0,-9.193734527E-1,9.608230591E0,-8.834604025E-1
3.350984440E0,-9.361328483E-1,9.586683273E0,-8.714894056E-1
3.352985340E0,-9.648633003E-1,9.557952881E0,-8.451532125E-1
3.354986240E0,-9.840168953E-1,9.541193008E0,-8.427590132E-1
3.356987106E0,-9.935936928E-1,9.522039413E0,-8.403648138E-1
3.358987872E0,-1.017535686E0,9.493309021E0,-8.667010069E-1
3.360987872E0,-1.027112484E0,9.488520622E0,-8.906430602E-1
3.362987872E0,-1.036689281E0,9.462183952E0,-9.576807022E-1
3.364987872E0,-1.048660398E0,9.457395554E0,-9.840168953E-1
3.366987872E0,-1.233013868E0,9.557952881E0,-1.264138460E0
3.368987005E0,-1.233013868E0,9.557952881E0,-1.264138460E0
3.370986105E0,-1.233013868E0,9.586683273E0,-1.276109457E0
3.372985205E0,-1.259350061E0,9.586683273E0,-1.276109457E0
3.374984305E0,-1.259350061E0,9.586683273E0,-1.276109457E0
3.376983405E0,-1.259350061E0,9.586683273E0,-1.276109457E0
3.378982471E0,-1.259350061E0,9.586683273E0,-1.276109457E0
3.380982437E0,-1.319205165E0,9.632172585E0,-1.319205165E0
3.382983003E0,-1.340752959E0,9.684844971E0,-1.319205165E0
3.384982969E0,-1.355118155E0,9.701604843E0,-1.314416766E0
3.386982969E0,-1.381454349E0,9.759065628E0,-1.316810966E0
3.388983869E0,-1.386242747E0,9.811738014E0,-1.321599364E0
3.390984769E0,-1.371877551E0,9.840468407E0,-1.309628367E0
3.392985669E0,-1.379060149E0,9.866804123E0,-1.247379065E0
3.394986569E0,-1.381454349E0,9.876380920E0,-1.213860273E0
3.396987469E0,-1.367089152E0,9.905111313E0,-1.137245774E0
3.398988035E0,-1.362300754E0,9.907505989E0,-1.039083481E0
3.400988068E0,-1.352723956E0,9.888352394E0,-9.816226959E-1
3.402988068E0,-1.347935557E0,9.862015724E0,-8.714894056E-1
3.404988034E0,-1.345541358E0,9.847650528E0,-8.044517636E-1
3.406988000E0,-1.256955862E0,9.569923401E0,-5.770025849E-1
3.408987100E0,-1.256955862E0,9.569923401E0,-5.770025849E-1
3.410986200E0,-1.242590666E0,9.536404610E0,-5.458779931E-1
3.412985300E0,-1.242590666E0,9.536404610E0,-5.458779931E-1
3.414984400E0,-1.242590666E0,9.536404610E0,-5.458779931E-1
3.416983533E0,-1.242590666E0,9.536404610E0,-5.458779931E-1
3.418982966E0,-1.242590666E0,9.536404610E0,-5.458779931E-1
3.420982999E0,-1.213860273E0,9.443030357E0,-5.171475410E-1
3.422983032E0,-1.182735682E0,9.366415977E0,-4.477157295E-1
3.424983065E0,-1.156399369E0,9.325715065E0,-4.046200812E-1
3.426983098E0,-1.132457376E0,9.241917610E0,-2.968810201E-1
3.428983998E0,-1.122880578E0,9.227552414E0,-2.466027737E-1
3.430984898E0,-1.106121182E0,9.179668427E0,-1.436520964E-1
3.432985798E0,-1.096544385E0,9.143755913E0,-6.703764945E-2
3.434986664E0,-1.108515382E0,9.136572838E0,-3.112462163E-2
3.436987530E0,-1.130063176E0,9.150938034E0,1.197100803E-2
3.438988430E0,-1.144428372E0,9.172486305E0,2.154781483E-2
3.440988430E0,-1.187524080E0,9.215581894E0,2.633621916E-2
3.442987830E0,-1.244984865E0,9.289801598E0,4.070143029E-2
3.444987830E0,-1.280897856E0,9.330503464E0,3.112462163E-2
3.446987830E0,-1.893813491E0,9.881169319E0,-3.136404157E-1
3.448986930E0,-1.893813491E0,9.881169319E0,-3.136404157E-1
3.450986030E0,-1.893813491E0,9.881169319E0,-3.136404157E-1
3.452985130E0,-1.960851192E0,9.952995300E0,-3.567360640E-1
3.454984230E0,-1.960851192E0,9.952995300E0,-3.567360640E-1
3.456983330E0,-1.960851192E0,9.952995300E0,-3.567360640E-1
3.458982530E0,-1.960851192E0,9.952995300E0,-3.567360640E-1
3.460982496E0,-2.066195965E0,1.010143661E1,-4.405331016E-1
3.462982462E0,-2.183511972E0,1.023072338E1,-5.243301988E-1
3.464982995E0,-2.240972757E0,1.029297256E1,-5.674257874E-1
3.466983028E0,-2.329558372E0,1.043183613E1,-6.081272364E-1
3.468983928E0,-2.367865562E0,1.049647999E1,-6.248866320E-1
3.470984828E0,-2.468421936E0,1.063055515E1,-6.296750307E-1
3.472985728E0,-2.549824715E0,1.077660084E1,-5.913678408E-1
3.474986628E0,-2.576161146E0,1.084842682E1,-5.554547906E-1
3.476987528E0,-2.604891539E0,1.097771454E1,-4.501099288E-1
3.478988128E0,-2.616862535E0,1.105911732E1,-3.663128614E-1
3.480988128E0,-2.647987127E0,1.115967369E1,-2.059013397E-1
3.482988094E0,-2.674323320E0,1.126741219E1,-2.873042040E-2
3.484988060E0,-2.691082716E0,1.132008457E1,6.703764945E-2
3.486988026E0,-2.559401512E0,1.147091961E1,8.140285611E-1
3.488987126E0,-2.559401512E0,1.147091961E1,8.140285611E-1
3.490986226E0,-2.559401512E0,1.147091961E1,8.140285611E-1
3.492985326E0,-2.516305923E0,1.145894814E1,8.690952063E-1
3.494984459E0,-2.516305923E0,1.145894814E1,8.690952063E-1
3.496983592E0,-2.516305923E0,1.145894814E1,8.690952063E-1
3.498982892E0,-2.516305923E0,1.145894814E1,8.690952063E-1
3.500982525E0,-2.401384354E0,1.142542934E1,9.911994934E-1
3.502982525E0,-2.293645144E0,1.134881496E1,1.113303781E0
3.504982525E0,-2.231395960E0,1.132008457E1,1.163581967E0
3.506982525E0,-2.147598982E0,1.125783539E1,1.261744261E0
3.508983391E0,-2.102109194E0,1.120276928E1,1.300051570E0
3.510984257E0,-1.989581585E0,1.111897182E1,1.395819545E0
3.512985123E0,-1.845929503E0,1.104475212E1,1.505952835E0
3.514986023E0,-1.786074519E0,1.099447346E1,1.561019540E0
3.516986923E0,-1.678335428E0,1.088912868E1,1.666364431E0
3.518987723E0,-1.640028119E0,1.085560989E1,1.707065821E0
3.520987756E0,-1.553836942E0,1.080293751E1,1.766920805E0
3.522987789E0,-1.436521053E0,1.075026512E1,1.817199111E0
3.524987289E0,-1.376665950E0,1.071674633E1,1.843535304E0
3.526987289E0,-9.696516991E-1,1.034803867E1,1.991975784E0
3.528986389E0,-9.696516991E-1,1.034803867E1,1.991975784E0
3.530985489E0,-9.696516991E-1,1.034803867E1,1.991975784E0
3.532984589E0,-9.696516991E-1,1.031451988E1,1.989581585E0
3.534983689E0,-9.528923035E-1,1.031451988E1,1.989581585E0
3.536982789E0,-9.528923035E-1,1.031451988E1,1.989581585E0
3.538981989E0,-9.528923035E-1,1.031451988E1,1.989581585E0
3.540981955E0,-9.145850539E-1,1.028818417E1,1.994369984E0
3.542981955E0,-8.667010069E-1,1.024508858E1,1.996764183E0
3.544981988E0,-8.451532125E-1,1.022114658E1,2.013523579E0
3.546982021E0,-8.236053586E-1,1.015410900E1,2.025494576E0
3.548982921E0,-8.068459630E-1,1.013256073E1,2.025494576E0
3.550983821E0,-7.924807668E-1,1.010622501E1,2.006340981E0
3.552984721E0,-7.924807668E-1,1.007031155E1,1.982398987E0
3.554985621E0,-8.044517636E-1,1.005594635E1,1.977610588E0
3.556986521E0,-8.092401624E-1,1.002961063E1,1.953668594E0
3.558987254E0,-8.044517636E-1,1.001763916E1,1.932120800E0
3.560987620E0,-8.188169599E-1,1.001285076E1,1.889025092E0
3.562987620E0,-8.212111592E-1,1.000088024E1,1.817199111E0
3.564987620E0,-8.283938169E-1,9.993697166E0,1.774103403E0
3.566987620E0,-8.571242094E-1,9.866804123E0,1.472434044E0
3.568986753E0,-8.571242094E-1,9.866804123E0,1.472434044E0
3.570985886E0,-8.571242094E-1,9.866804123E0,1.472434044E0
3.572985019E0,-8.571242094E-1,9.866804123E0,1.472434044E0
3.574984119E0,-8.643068075E-1,9.852438927E0,1.434126854E0
3.576983219E0,-8.643068075E-1,9.852438927E0,1.434126854E0
3.578982385E0,-8.643068075E-1,9.852438927E0,1.434126854E0
3.580982351E0,-8.595184088E-1,9.828496933E0,1.364694953E0
3.582982317E0,-8.619126081E-1,9.804554939E0,1.340752959E0
3.584982283E0,-8.475474119E-1,9.790189743E0,1.280897856E0
3.586982249E0,-8.212111592E-1,9.751882553E0,1.206677675E0
3.588983115E0,-8.140285611E-1,9.732728958E0,1.163581967E0
3.590983981E0,-7.709329724E-1,9.682451248E0,1.067813993E0
3.592984881E0,-7.589619160E-1,9.670479774E0,1.022324085E0
3.594985781E0,-7.062895298E-1,9.658509254E0,9.241618514E-1
3.596986681E0,-6.560112834E-1,9.641749382E0,8.379706144E-1
3.598987481E0,-6.296750307E-1,9.634567261E0,7.852981687E-1
3.600987514E0,-5.913678408E-1,9.605836868E0,6.943184733E-1
3.602987547E0,-5.602431893E-1,9.601048470E0,6.536170840E-1
3.604987547E0,-4.979939461E-1,9.572318077E0,5.841852427E-1
3.606987513E0,-3.040636182E-1,9.433453560E0,2.489969730E-1
3.608986613E0,-3.040636182E-1,9.433453560E0,2.489969730E-1
3.610985713E0,-3.040636182E-1,9.433453560E0,2.489969730E-1
3.612984813E0,-2.825157940E-1,9.411906242E0,2.250549644E-1
3.614983913E0,-2.825157940E-1,9.411906242E0,2.250549644E-1
3.616983013E0,-2.825157940E-1,9.411906242E0,2.250549644E-1
3.618982279E0,-2.825157940E-1,9.411906242E0,2.250549644E-1
3.620982279E0,-2.442085743E-1,9.385569572E0,1.891419291E-1
3.622982312E0,-2.154781520E-1,9.361627579E0,1.723825186E-1
3.624982345E0,-1.699883193E-1,9.337685585E0,1.388636976E-1
3.626982378E0,-1.101332754E-1,9.318531990E0,1.053448766E-1
3.628983278E0,-8.140286058E-2,9.308955193E0,9.576806426E-2
3.630984178E0,-3.112462163E-2,9.296984673E0,7.661445439E-2
3.632985078E0,-9.576806799E-3,9.292196274E0,6.464344263E-2
3.634985978E0,4.548983276E-2,9.289801598E0,6.464344263E-2
3.636986878E0,8.379705995E-2,9.280224800E0,5.267243832E-2
3.638987678E0,1.029506698E-1,9.270648003E0,4.070143029E-2
3.640987678E0,1.651999205E-1,9.263465881E0,7.182605099E-3
3.642987678E0,1.915361285E-1,9.263465881E0,-2.394201700E-3
3.644987678E0,2.226607651E-1,9.256282806E0,-1.436521020E-2
3.646987678E0,3.926490843E-1,9.244312286E0,-6.943184882E-2
3.648986811E0,3.926490843E-1,9.244312286E0,-6.943184882E-2
3.650985944E0,3.926490843E-1,9.244312286E0,-6.943184882E-2
3.652985044E0,3.926490843E-1,9.244312286E0,-6.943184882E-2
3.654984144E0,3.974374831E-1,9.246706009E0,-8.379705995E-2
3.656983244E0,3.974374831E-1,9.246706009E0,-8.379705995E-2
3.658982444E0,3.974374831E-1,9.246706009E0,-8.379705995E-2
3.660982410E0,4.094084799E-1,9.227552414E0,-1.101332754E-1
3.662982376E0,4.213795066E-1,9.220370293E0,-1.149216816E-1
3.664982342E0,4.309563041E-1,9.225158691E0,-1.364694983E-1
3.666982342E0,4.525041282E-1,9.210793495E0,-1.364694983E-1
3.668983208E0,4.716577232E-1,9.210793495E0,-1.388636976E-1
3.670984108E0,4.932055473E-1,9.182063103E0,-1.484405100E-1
3.672985008E0,4.860229492E-1,9.174880028E0,-1.556231081E-1
3.674985908E0,5.003881454E-1,9.170091629E0,-1.532289088E-1
3.676986808E0,5.195417404E-1,9.162909508E0,-1.268926859E-1
3.678987541E0,5.219359994E-1,9.155726433E0,-1.197100878E-1
3.680987574E0,5.195417404E-1,9.148544312E0,-8.858546615E-2
3.682987574E0,5.075707436E-1,9.148544312E0,-8.858546615E-2
3.684987540E0,4.836287498E-1,9.162909508E0,-5.506663769E-2
3.686987506E0,3.375824392E-1,9.256282806E0,9.816227108E-2
3.688986606E0,3.375824392E-1,9.256282806E0,9.816227108E-2
3.690985706E0,3.375824392E-1,9.256282806E0,9.816227108E-2
3.692984806E0,3.375824392E-1,9.256282806E0,9.816227108E-2
3.694983906E0,3.040636182E-1,9.263465881E0,1.053448766E-1
3.696983006E0,3.040636182E-1,9.263465881E0,1.053448766E-1
3.698982472E0,3.040636182E-1,9.263465881E0,1.053448766E-1
3.700982505E0,2.681505978E-1,9.285013199E0,1.244984865E-1
3.702982538E0,2.394201756E-1,9.287407875E0,1.436520964E-1
3.704982571E0,1.795651317E-1,9.330503464E0,1.460463107E-1
3.706982604E0,1.316810995E-1,9.352050781E0,1.412578970E-1
3.708983504E0,1.125274822E-1,9.368810654E0,1.388636976E-1
3.710984404E0,5.506663769E-2,9.409511566E0,1.149216816E-1
3.712985304E0,3.591302410E-2,9.419088364E0,1.029506698E-1
3.714986204E0,-2.394201700E-3,9.462183952E0,1.005564705E-1
3.716987070E0,-3.351882473E-2,9.483732224E0,1.029506698E-1
3.718987836E0,-8.858546615E-2,9.493309021E0,1.077390760E-1
3.720987836E0,-1.388636976E-1,9.536404610E0,8.379705995E-2
3.722988536E0,-1.580173075E-1,9.548376083E0,6.464344263E-2
3.724988536E0,-2.082955539E-1,9.555558205E0,4.070143029E-2
3.726988536E0,-3.615244627E-1,9.543587685E0,-6.703764945E-2
3.728987669E0,-3.615244627E-1,9.543587685E0,-6.703764945E-2
3.730986769E0,-3.615244627E-1,9.543587685E0,-6.703764945E-2
3.732985869E0,-3.615244627E-1,9.543587685E0,-6.703764945E-2
3.734984969E0,-3.615244627E-1,9.538799286E0,-8.379705995E-2
3.736984069E0,-3.758896589E-1,9.538799286E0,-8.379705995E-2
3.738983135E0,-3.758896589E-1,9.538799286E0,-8.379705995E-2
3.740983101E0,-3.878606856E-1,9.517251015E0,-1.077390760E-1
3.742983067E0,-3.902548850E-1,9.510068893E0,-1.221042871E-1
3.744983067E0,-4.118026793E-1,9.498097420E0,-1.604115069E-1
3.746983067E0,-4.261679053E-1,9.493309021E0,-1.699883193E-1
3.748983967E0,-4.381389022E-1,9.486125946E0,-1.939303428E-1
3.750984867E0,-4.572925270E-1,9.464578629E0,-2.250549644E-1
3.752985767E0,-4.740519226E-1,9.466972351E0,-2.298433632E-1
3.754986667E0,-4.884171486E-1,9.483732224E0,-2.298433632E-1
3.756987567E0,-5.003881454E-1,9.488520622E0,-2.274491638E-1
3.758988133E0,-5.410895944E-1,9.474155426E0,-2.418143749E-1
3.760988133E0,-5.530605912E-1,9.464578629E0,-2.489969730E-1
3.762988133E0,-5.554547906E-1,9.464578629E0,-2.513911724E-1
3.764988099E0,-5.817909837E-1,9.519645691E0,-2.561795712E-1
3.766988065E0,-6.224924326E-1,9.581894875E0,-2.226607651E-1
3.768987165E0,-6.224924326E-1,9.581894875E0,-2.226607651E-1
3.770986265E0,-6.224924326E-1,9.581894875E0,-2.226607651E-1
3.772985365E0,-6.224924326E-1,9.581894875E0,-2.226607651E-1
3.774984465E0,-6.248866320E-1,9.589076996E0,-2.178723514E-1
3.776983598E0,-6.248866320E-1,9.589076996E0,-2.178723514E-1
3.778982731E0,-6.248866320E-1,9.589076996E0,-2.178723514E-1
3.780982764E0,-6.392518282E-1,9.610625267E0,-2.250549644E-1
3.782982064E0,-6.440402865E-1,9.620202065E0,-2.298433632E-1
3.784982097E0,-6.344634295E-1,9.651326180E0,-2.466027737E-1
3.786982130E0,-6.200982332E-1,9.653720856E0,-2.346317619E-1
3.788983030E0,-6.033388376E-1,9.651326180E0,-2.298433632E-1
3.790983930E0,-6.153098345E-1,9.660902977E0,-2.130839527E-1
3.792984830E0,-6.272808313E-1,9.658509254E0,-1.915361285E-1
3.794985696E0,-6.440402865E-1,9.639355659E0,-1.723825186E-1
3.796986562E0,-6.560112834E-1,9.627384186E0,-1.556231081E-1
3.798987462E0,-6.967126727E-1,9.639355659E0,-8.619125932E-2
3.800987462E0,-7.422025204E-1,9.632172585E0,-3.112462163E-2
3.802987462E0,-7.589619160E-1,9.615413666E0,-1.197100803E-2
3.804987462E0,-7.829039693E-1,9.593865395E0,1.197100803E-2
3.806987462E0,-8.307880163E-1,9.490914345E0,2.873042040E-2
3.808986562E0,-8.475474119E-1,9.490914345E0,2.873042040E-2
3.810985662E0,-8.475474119E-1,9.490914345E0,2.873042040E-2
3.812984762E0,-8.475474119E-1,9.490914345E0,2.873042040E-2
3.814983862E0,-8.475474119E-1,9.490914345E0,2.873042040E-2
3.816982962E0,-8.619126081E-1,9.490914345E0,2.633621916E-2
3.818982162E0,-8.619126081E-1,9.490914345E0,2.633621916E-2
3.820982128E0,-8.643068075E-1,9.498097420E0,2.873042040E-2
3.822982094E0,-8.714894056E-1,9.498097420E0,3.591302410E-2
3.824982094E0,-8.930372596E-1,9.522039413E0,3.830722719E-2
3.826981727E0,-9.002198577E-1,9.536404610E0,3.591302410E-2
3.828982627E0,-9.145850539E-1,9.565135002E0,3.830722719E-2
3.830983527E0,-9.457096457E-1,9.605836868E0,4.309562966E-2
3.832984427E0,-9.552865028E-1,9.627384186E0,4.548983276E-2
3.834985327E0,-9.624691010E-1,9.684844971E0,4.070143029E-2
3.836986227E0,-9.648633003E-1,9.715970039E0,3.591302410E-2
3.838987127E0,-9.648633003E-1,9.790189743E0,5.027823523E-2
3.840987127E0,-9.864110947E-1,9.838073730E0,5.506663769E-2
3.842987127E0,-9.864110947E-1,9.869198799E0,5.267243832E-2
3.844987093E0,-9.576807022E-1,9.912294388E0,5.267243832E-2
3.846987059E0,-8.786720037E-1,1.014692593E1,-2.394201607E-2
3.848986159E0,-8.667010069E-1,1.016368580E1,-4.788403213E-2
3.850985259E0,-8.667010069E-1,1.016368580E1,-4.788403213E-2
3.852984359E0,-8.667010069E-1,1.016368580E1,-4.788403213E-2
3.854983492E0,-8.667010069E-1,1.016368580E1,-4.788403213E-2
3.856982625E0,-8.523358107E-1,1.017805099E1,-7.182604820E-2
3.858981725E0,-8.523358107E-1,1.017805099E1,-7.182604820E-2
3.860981725E0,-8.236053586E-1,1.018283939E1,-1.244984865E-1
3.862981725E0,-8.044517636E-1,1.018523312E1,-1.436520964E-1
3.864981725E0,-7.733271718E-1,1.019241619E1,-1.508347094E-1
3.866981725E0,-7.685387731E-1,1.018523312E1,-1.436520964E-1
3.868982591E0,-7.541735172E-1,1.017086792E1,-1.316810995E-1
3.870983457E0,-7.398083210E-1,1.013734913E1,-1.268926859E-1
3.872984357E0,-7.254431248E-1,1.013256073E1,-1.077390760E-1
3.874985257E0,-7.158663273E-1,1.011101341E1,-1.029506698E-1
3.876986157E0,-7.182605267E-1,1.008946514E1,-1.029506698E-1
3.878986957E0,-6.847416759E-1,1.007988834E1,-1.077390760E-1
3.880986990E0,-6.751648784E-1,1.004636955E1,-8.858546615E-2
3.882987023E0,-6.536170840E-1,1.002482224E1,-8.379705995E-2
3.884987056E0,-6.224924326E-1,9.976937294E0,-8.858546615E-2
3.886987456E0,-5.051765442E-1,9.794978142E0,-1.364694983E-1
3.888986556E0,-4.836287498E-1,9.794978142E0,-1.508347094E-1
3.890985656E0,-4.836287498E-1,9.794978142E0,-1.508347094E-1
3.892984756E0,-4.836287498E-1,9.794978142E0,-1.508347094E-1
3.894983856E0,-4.836287498E-1,9.794978142E0,-1.508347094E-1
3.896982956E0,-4.668693244E-1,9.768642426E0,-1.628057212E-1
3.898982389E0,-4.668693244E-1,9.768642426E0,-1.628057212E-1
3.900982355E0,-4.596867263E-1,9.718363762E0,-1.747767180E-1
3.902982355E0,-4.141969085E-1,9.692028046E0,-1.891419291E-1
3.904982388E0,-3.902548850E-1,9.646537781E0,-2.130839527E-1
3.906982421E0,-3.806780577E-1,9.624990463E0,-2.322375625E-1
3.908982487E0,-3.423708379E-1,9.565135002E0,-2.777273953E-1
3.910983387E0,-3.399766386E-1,9.536404610E0,-2.920926213E-1
3.912984287E0,-3.375824392E-1,9.476549149E0,-3.256114423E-1
3.914985187E0,-3.351882398E-1,9.416694641E0,-3.591302633E-1
3.916986087E0,-3.327940404E-1,9.385569572E0,-3.734954596E-1
3.918987020E0,-2.968810201E-1,9.340080261E0,-3.902548850E-1
3.920987020E0,-2.849099934E-1,9.308955193E0,-3.854664862E-1
3.922987020E0,-2.896983922E-1,9.275436401E0,-3.926490843E-1
3.924987020E0,-2.633621991E-1,9.232340813E0,-4.141969085E-1
3.926987020E0,-2.418143749E-1,9.057564735E0,-4.141969085E-1
3.928986153E0,-2.442085743E-1,9.038411140E0,-4.070142806E-1
3.930985286E0,-2.442085743E-1,9.038411140E0,-4.070142806E-1
3.932984386E0,-2.442085743E-1,9.038411140E0,-4.070142806E-1
3.934983486E0,-2.442085743E-1,9.038411140E0,-4.070142806E-1
3.936982586E0,-2.442085743E-1,9.038411140E0,-4.070142806E-1
3.938981786E0,-2.370259613E-1,9.021651268E0,-4.022258818E-1
3.940981752E0,-2.250549644E-1,9.007286072E0,-3.974374831E-1
3.942981718E0,-2.298433632E-1,8.957007408E0,-4.189853072E-1
3.944981684E0,-2.322375625E-1,8.904335022E0,-4.118026793E-1
3.946981650E0,-2.154781520E-1,8.889969826E0,-4.141969085E-1
3.948982516E0,-2.059013397E-1,8.858845711E0,-3.878606856E-1
3.950983416E0,-2.035071403E-1,8.846874237E0,-3.734954596E-1
3.952984316E0,-2.154781520E-1,8.854057312E0,-3.567360640E-1
3.954985216E0,-2.082955539E-1,8.830115318E0,-3.663128614E-1
3.956986116E0,-1.987187415E-1,8.810961723E0,-3.639186621E-1
3.958986682E0,-1.556231081E-1,8.765471458E0,-3.591302633E-1
3.960986715E0,-1.460463107E-1,8.751106262E0,-3.663128614E-1
3.962986748E0,-1.316810995E-1,8.729558945E0,-3.734954596E-1
3.964986748E0,-1.292868853E-1,8.708010674E0,-3.854664862E-1
3.966986714E0,-1.771709323E-1,8.791808128E0,-3.950432837E-1
3.968986647E0,-1.771709323E-1,8.827720642E0,-3.926490843E-1
3.970985747E0,-1.771709323E-1,8.827720642E0,-3.926490843E-1
3.972984847E0,-1.771709323E-1,8.827720642E0,-3.926490843E-1
3.974983947E0,-1.771709323E-1,8.827720642E0,-3.926490843E-1
3.976983047E0,-1.771709323E-1,8.851662636E0,-3.950432837E-1
3.978982447E0,-1.771709323E-1,8.851662636E0,-3.950432837E-1
3.980982447E0,-1.795651317E-1,8.877999306E0,-3.974374831E-1
3.982982480E0,-1.891419291E-1,8.928277016E0,-3.591302633E-1
3.984982513E0,-2.130839527E-1,8.985737801E0,-3.375824392E-1
3.986982546E0,-2.082955539E-1,9.012074471E0,-3.351882398E-1
3.988983446E0,-1.963245422E-1,9.055170059E0,-3.184288144E-1
3.990984346E0,-2.035071403E-1,9.083900452E0,-3.112462163E-1
3.992985246E0,-2.130839527E-1,9.112630844E0,-2.873041928E-1
3.994986146E0,-2.011129409E-1,9.134179115E0,-2.896983922E-1
3.996987046E0,-1.891419291E-1,9.136572838E0,-2.873041928E-1
3.998987812E0,-1.747767180E-1,9.162909508E0,-3.040636182E-1
4.000987812E0,-1.675941199E-1,9.170091629E0,-3.256114423E-1
4.002987812E0,-1.316810995E-1,9.155726433E0,-3.543418646E-1
4.004987812E0,-9.816227108E-2,9.162909508E0,-3.902548850E-1
4.006987812E0,7.422025502E-2,9.105448723E0,-5.363011956E-1
4.008986945E0,7.422025502E-2,9.093477249E0,-5.363011956E-1
4.010986045E0,7.900865376E-2,9.093477249E0,-5.386953950E-1
4.012985145E0,7.900865376E-2,9.093477249E0,-5.386953950E-1
4.014984245E0,7.900865376E-2,9.093477249E0,-5.386953950E-1
4.016983345E0,7.900865376E-2,9.093477249E0,-5.386953950E-1
4.018982478E0,9.097966552E-2,9.086295128E0,-5.458779931E-1
4.020982444E0,1.077390760E-1,9.079112053E0,-5.578489900E-1
4.022982410E0,1.292868853E-1,9.062353134E0,-5.770025849E-1
4.024982376E0,1.819593310E-1,9.047987938E0,-5.865794420E-1
4.026982376E0,2.059013397E-1,9.031228065E0,-6.033388376E-1
4.028983276E0,2.561795712E-1,8.976161003E0,-6.344634295E-1
4.030983809E0,2.873041928E-1,8.952219009E0,-6.440402865E-1
4.032984709E0,3.471592367E-1,8.913911819E0,-6.679822803E-1
4.034985609E0,3.974374831E-1,8.892364502E0,-6.847416759E-1
4.036986509E0,4.118026793E-1,8.882787704E0,-6.991068721E-1
4.038987109E0,4.620809257E-1,8.875604630E0,-7.326257229E-1
4.040987142E0,4.908113480E-1,8.882787704E0,-7.469909191E-1
4.042987142E0,5.219359994E-1,8.904335022E0,-7.924807668E-1
4.044987108E0,5.363011956E-1,8.921094894E0,-8.403648138E-1
4.046987074E0,7.206547260E-1,9.182063103E0,-8.403648138E-1
4.048986174E0,7.206547260E-1,9.182063103E0,-8.403648138E-1
4.050985274E0,7.565677166E-1,9.220370293E0,-7.948749661E-1
4.052984374E0,7.565677166E-1,9.220370293E0,-7.948749661E-1
4.054983474E0,7.565677166E-1,9.220370293E0,-7.948749661E-1
4.056982574E0,7.565677166E-1,9.220370293E0,-7.948749661E-1
4.058981807E0,7.637503147E-1,9.258677483E0,-7.565677166E-1
4.060981840E0,7.422025204E-1,9.296984673E0,-7.469909191E-1
4.062981873E0,7.326257229E-1,9.373599052E0,-8.020575643E-1
4.064981906E0,7.445967197E-1,9.445425034E0,-8.403648138E-1
4.066981939E0,7.805097699E-1,9.474155426E0,-9.504981041E-1
4.068982839E0,8.355764151E-1,9.517251015E0,-1.055842996E0
4.070983739E0,8.762778044E-1,9.550769806E0,-1.115697980E0
4.072984639E0,9.385270476E-1,9.610625267E0,-1.216254473E0
4.074985539E0,9.648633003E-1,9.641749382E0,-1.249773264E0
4.076986405E0,1.007958889E0,9.701604843E0,-1.292868972E0
4.078987238E0,1.048660398E0,9.766247749E0,-1.335964561E0
4.080987238E0,1.055842996E0,9.804554939E0,-1.359906554E0
4.082987238E0,1.060631394E0,9.883563995E0,-1.371877551E0
4.084987238E0,1.060631394E0,9.917082787E0,-1.371877551E0
4.086987238E0,1.161187768E0,1.016129112E1,-1.331176162E0
4.088986338E0,1.161187768E0,1.017565632E1,-1.323993564E0
4.090985804E0,1.170764685E0,1.017565632E1,-1.323993564E0
4.092984904E0,1.170764685E0,1.017565632E1,-1.323993564E0
4.094984004E0,1.170764685E0,1.017565632E1,-1.323993564E0
4.096983104E0,1.170764685E0,1.017565632E1,-1.323993564E0
4.098982537E0,1.185129881E0,1.019002151E1,-1.309628367E0
4.100982103E0,1.199495077E0,1.020438671E1,-1.295263171E0
4.102982069E0,1.252167463E0,1.023551178E1,-1.268926859E0
4.104982069E0,1.283292055E0,1.025705910E1,-1.261744261E0
4.106982102E0,1.312022567E0,1.029776096E1,-1.235408068E0
4.108983002E0,1.352723956E0,1.032888508E1,-1.206677675E0
4.110983902E0,1.352723956E0,1.033846188E1,-1.194706678E0
4.112984802E0,1.340752959E0,1.035761547E1,-1.175553083E0
4.114985702E0,1.333570361E0,1.036001015E1,-1.163581967E0
4.116986602E0,1.331176162E0,1.033606815E1,-1.163581967E0
4.118987402E0,1.343147159E0,1.031691456E1,-1.130063176E0
4.120987402E0,1.350329757E0,1.030973148E1,-1.120486379E0
4.122987368E0,1.371877551E0,1.029297256E1,-1.089361787E0
4.124987334E0,1.379060149E0,1.028818417E1,-1.074996591E0
4.126987300E0,1.407790542E0,1.025466537E1,-1.027112484E0
4.128986400E0,1.407790542E0,1.025466537E1,-1.027112484E0
4.130985500E0,1.424550056E0,1.025466537E1,-1.034295082E0
4.132984600E0,1.424550056E0,1.025466537E1,-1.034295082E0
4.134983700E0,1.424550056E0,1.025466537E1,-1.034295082E0
4.136982833E0,1.424550056E0,1.025466537E1,-1.034295082E0
4.138981999E0,1.431732655E0,1.025227070E1,-1.034295082E0
4.140982032E0,1.429338455E0,1.025945377E1,-1.027112484E0
4.142982065E0,1.429338455E0,1.028100109E1,-1.043871999E0
4.144982098E0,1.434126854E0,1.029536629E1,-1.041477680E0
4.146982131E0,1.436521053E0,1.032170296E1,-1.046266198E0
4.148983031E0,1.431732655E0,1.034564495E1,-1.053448796E0
4.150983931E0,1.438915253E0,1.036240387E1,-1.053448796E0
4.152984831E0,1.434126854E0,1.039592266E1,-1.060631394E0
4.154985697E0,1.436521053E0,1.041028786E1,-1.053448796E0
4.156986563E0,1.455674648E0,1.044380665E1,-1.039083481E0
4.158987096E0,1.455674648E0,1.046296024E1,-1.029506683E0
4.160987496E0,1.446097851E0,1.047972012E1,-1.031900883E0
4.162987496E0,1.448492050E0,1.050126839E1,-1.010353088E0
4.164987496E0,1.438915253E0,1.050845051E1,-1.007958889E0
4.166987462E0,1.359906554E0,1.059943008E1,-9.121908545E-1
4.168986562E0,1.359906554E0,1.059943008E1,-9.121908545E-1
4.170985662E0,1.362300754E0,1.059943008E1,-9.050082564E-1
4.172984762E0,1.362300754E0,1.059943008E1,-9.050082564E-1
4.174983862E0,1.362300754E0,1.059943008E1,-9.050082564E-1
4.176982962E0,1.362300754E0,1.059943008E1,-9.050082564E-1
4.178982428E0,1.362300754E0,1.061618996E1,-9.050082564E-1
4.180982394E0,1.383848548E0,1.062337208E1,-8.978256583E-1
4.182982160E0,1.405396342E0,1.063055515E1,-8.762778044E-1
4.184982193E0,1.395819545E0,1.063773727E1,-8.690952063E-1
4.186982226E0,1.359906554E0,1.064970875E1,-8.331822157E-1
4.188983126E0,1.347935557E0,1.069040966E1,-7.996633649E-1
4.190984026E0,1.335964561E0,1.070477486E1,-7.781155705E-1
4.192984926E0,1.297657371E0,1.074547672E1,-7.278373241E-1
4.194985826E0,1.278503656E0,1.078617764E1,-7.015010715E-1
4.196986726E0,1.237802267E0,1.085321522E1,-6.631938815E-1
4.198987592E0,1.182735682E0,1.092743587E1,-6.129156351E-1
4.200987558E0,1.151610970E0,1.097292614E1,-5.865794420E-1
4.202987524E0,1.091755986E0,1.107348251E1,-5.195417404E-1
4.204987490E0,1.055842996E0,1.111178970E1,-4.955997467E-1
4.206987456E0,5.243301988E-1,1.120276928E1,-1.891419291E-1
4.208986556E0,5.243301988E-1,1.120276928E1,-1.891419291E-1
4.210985656E0,5.243301988E-1,1.114770222E1,-1.891419291E-1
4.212984756E0,4.477157295E-1,1.114770222E1,-1.723825186E-1
4.214983889E0,4.477157295E-1,1.114770222E1,-1.723825186E-1
4.216983055E0,4.477157295E-1,1.114770222E1,-1.723825186E-1
4.218982188E0,4.477157295E-1,1.114770222E1,-1.723825186E-1
4.220982221E0,3.160346150E-1,1.103756905E1,-1.412578970E-1
4.222982254E0,1.747767180E-1,1.088434029E1,-1.316810995E-1
4.224982287E0,1.053448766E-1,1.079096603E1,-1.292868853E-1
4.226982320E0,-1.675941236E-2,1.059943008E1,-9.816227108E-2
4.228983220E0,-7.900865376E-2,1.043183613E1,-8.858546615E-2
4.230984120E0,-2.250549644E-1,1.034325027E1,-5.506663769E-2
4.232984986E0,-3.591302633E-1,1.014453220E1,-1.915361360E-2
4.234985852E0,-4.237737060E-1,1.006312943E1,-7.182605099E-3
4.236986718E0,-5.602431893E-1,9.902717590E0,2.394201607E-2
4.238987218E0,-6.200982332E-1,9.818920135E0,3.112462163E-2
4.240987218E0,-7.613561153E-1,9.660902977E0,4.788403213E-2
4.242987451E0,-9.193734527E-1,9.531616211E0,5.985504389E-2
4.244987417E0,-9.911994934E-1,9.466972351E0,6.943184882E-2
4.246987383E0,-1.759738207E0,8.997709274E0,8.619125932E-2
4.248986483E0,-1.759738207E0,8.997709274E0,8.619125932E-2
4.250985583E0,-1.759738207E0,8.959402084E0,7.422025502E-2
4.252984683E0,-1.841141105E0,8.959402084E0,7.422025502E-2
4.254983783E0,-1.841141105E0,8.959402084E0,7.422025502E-2
4.256982883E0,-1.841141105E0,8.959402084E0,7.422025502E-2
4.258982316E0,-1.841141105E0,8.959402084E0,7.422025502E-2
4.260982316E0,-1.963245392E0,8.906729698E0,4.309562966E-2
4.262982316E0,-2.073378563E0,8.877999306E0,3.830722719E-2
4.264982349E0,-2.121262789E0,8.863634109E0,3.351882473E-2
4.266982382E0,-2.217030764E0,8.827720642E0,2.633621916E-2
4.268983282E0,-2.264914751E0,8.813355446E0,3.351882473E-2
4.270984182E0,-2.365471363E0,8.815750122E0,4.070143029E-2
4.272985082E0,-2.451662540E0,8.834903717E0,5.027823523E-2
4.274985982E0,-2.489969730E0,8.837297440E0,4.309562966E-2
4.276986848E0,-2.533065319E0,8.849268913E0,1.436521020E-2
4.278987714E0,-2.552218914E0,8.854057312E0,-4.788403399E-3
4.280987680E0,-2.583343744E0,8.870816231E0,-7.900865376E-2
4.282987646E0,-2.597708941E0,8.918700218E0,-1.675941199E-1
4.284987612E0,-2.604891539E0,8.945036888E0,-2.250549644E-1
4.286987578E0,-2.341529369E0,9.143755913E0,-8.140285611E-1
4.288986678E0,-2.341529369E0,9.143755913E0,-8.140285611E-1
4.290985778E0,-2.341529369E0,9.143755913E0,-8.140285611E-1
4.292984911E0,-2.308010340E0,9.167697906E0,-8.379706144E-1
4.294984077E0,-2.308010340E0,9.167697906E0,-8.379706144E-1
4.296983243E0,-2.308010340E0,9.167697906E0,-8.379706144E-1
4.298982476E0,-2.308010340E0,9.167697906E0,-8.379706144E-1
4.300982509E0,-2.229001760E0,9.225158691E0,-8.667010069E-1
4.302982542E0,-2.157175779E0,9.318531990E0,-8.810662031E-1
4.304982575E0,-2.135627985E0,9.361627579E0,-8.738836050E-1
4.306982608E0,-2.082955360E0,9.481337547E0,-8.547300100E-1
4.308983508E0,-2.056619167E0,9.555558205E0,-8.403648138E-1
4.310984374E0,-2.003946781E0,9.687239647E0,-8.236053586E-1
4.312985240E0,-1.934514999E0,9.842862129E0,-8.331822157E-1
4.314986106E0,-1.908178806E0,9.931447983E0,-8.283938169E-1
4.316986972E0,-1.860294700E0,1.008946514E1,-8.068459630E-1
4.318987272E0,-1.826775908E0,1.016847420E1,-8.020575643E-1
4.320987272E0,-1.742978811E0,1.027860737E1,-7.876923680E-1
4.322986938E0,-1.635239720E0,1.036001015E1,-7.685387731E-1
4.324986904E0,-1.580173135E0,1.037676907E1,-7.805097699E-1
4.326986870E0,-9.864110947E-1,9.895534515E0,-8.858546019E-1
4.328985970E0,-9.864110947E-1,9.895534515E0,-8.858546019E-1
4.330985070E0,-9.864110947E-1,9.895534515E0,-8.858546019E-1
4.332984170E0,-9.672574997E-1,9.818920135E0,-8.930372596E-1
4.334983270E0,-9.672574997E-1,9.818920135E0,-8.930372596E-1
4.336982370E0,-9.672574997E-1,9.818920135E0,-8.930372596E-1
4.338981836E0,-9.672574997E-1,9.818920135E0,-8.930372596E-1
4.340981436E0,-9.552865028E-1,9.656114578E0,-8.786720037E-1
4.342981469E0,-9.074024558E-1,9.534010887E0,-8.188169599E-1
4.344981502E0,-9.002198577E-1,9.478943825E0,-7.757213712E-1
4.346981535E0,-8.810662031E-1,9.378387451E0,-6.655880809E-1
4.348982435E0,-8.643068075E-1,9.337685585E0,-5.961562395E-1
4.350983335E0,-8.738836050E-1,9.294589996E0,-4.668693244E-1
4.352984235E0,-9.050082564E-1,9.256282806E0,-3.232172430E-1
4.354985101E0,-9.169792533E-1,9.253889084E0,-2.489969730E-1
4.356985934E0,-9.217676520E-1,9.258677483E0,-1.077390760E-1
4.358986700E0,-9.337386489E-1,9.265859604E0,-2.873042040E-2
4.360986666E0,-9.935936928E-1,9.275436401E0,7.900865376E-2
4.362986632E0,-1.063025594E0,9.349657059E0,1.915361285E-1
4.364986598E0,-1.120486379E0,9.380781174E0,2.489969730E-1
4.366986564E0,-1.675941229E0,9.802161217E0,2.537853718E-1
4.368985664E0,-1.675941229E0,9.802161217E0,2.537853718E-1
4.370984797E0,-1.675941229E0,9.802161217E0,2.537853718E-1
4.372983963E0,-1.675941229E0,9.862015724E0,2.537853718E-1
4.374983129E0,-1.740584612E0,9.862015724E0,2.202665508E-1
4.376982295E0,-1.740584612E0,9.862015724E0,2.202665508E-1
4.378981795E0,-1.740584612E0,9.862015724E0,2.202665508E-1
4.380981595E0,-1.860294700E0,9.976937294E0,1.436520964E-1
4.382981961E0,-1.924938202E0,1.007749462E1,5.985504389E-2
4.384981994E0,-2.018311977E0,1.012537861E1,2.154781483E-2
4.386982027E0,-2.111685991E0,1.019959831E1,-5.746084079E-2
4.388982893E0,-2.161964178E0,1.022832870E1,-1.053448766E-1
4.390983759E0,-2.262520552E0,1.028818417E1,-1.747767180E-1
4.392984625E0,-2.317587137E0,1.034803867E1,-2.011129409E-1
4.394985491E0,-2.434903145E0,1.036958694E1,-2.489969730E-1
4.396986357E0,-2.540247917E0,1.039352894E1,-3.088520169E-1
4.398986890E0,-2.580949545E0,1.040549946E1,-3.543418646E-1
4.400987290E0,-2.669534922E0,1.041507626E1,-4.261679053E-1
4.402987256E0,-2.698265314E0,1.041507626E1,-4.644751251E-1
4.404987222E0,-2.750937700E0,1.042704773E1,-5.267243981E-1
4.406987188E0,-2.851494312E0,1.053957558E1,-1.010353088E0
4.408986288E0,-2.851494312E0,1.053957558E1,-1.010353088E0
4.410985388E0,-2.851494312E0,1.053957558E1,-1.010353088E0
4.412984488E0,-2.868253708E0,1.057548809E1,-1.060631394E0
4.414983588E0,-2.868253708E0,1.057548809E1,-1.060631394E0
4.416982721E0,-2.868253708E0,1.057548809E1,-1.060631394E0
4.418982187E0,-2.868253708E0,1.057548809E1,-1.060631394E0
4.420982220E0,-2.875436306E0,1.064970875E1,-1.156399369E0
4.422982253E0,-2.889801502E0,1.068322754E1,-1.204283476E0
4.424982286E0,-2.882618904E0,1.074787045E1,-1.295263171E0
4.426982319E0,-2.825158119E0,1.079575443E1,-1.343147159E0
4.428983219E0,-2.815581083E0,1.082687950E1,-1.364694953E0
4.430984119E0,-2.820369720E0,1.086997509E1,-1.398213744E0
4.432984985E0,-2.839523315E0,1.088194561E1,-1.403002143E0
4.434985818E0,-2.873042107E0,1.088912868E1,-1.429338455E0
4.436986651E0,-2.899378300E0,1.087715721E1,-1.431732655E0
4.438987384E0,-2.904166698E0,1.085082150E1,-1.434126854E0
4.440987584E0,-2.889801502E0,1.078857231E1,-1.422155857E0
4.442987550E0,-2.870647907E0,1.075744724E1,-1.405396342E0
4.444987516E0,-2.834734917E0,1.067604446E1,-1.350329757E0
4.446987482E0,-2.616862535E0,1.009664822E1,-1.019929886E0
4.448986615E0,-2.616862535E0,1.009664822E1,-1.019929886E0
4.450985748E0,-2.616862535E0,1.009664822E1,-1.019929886E0
4.452984881E0,-2.616862535E0,1.009664822E1,-1.019929886E0
4.454984014E0,-2.590526342E0,1.004397583E1,-9.816226959E-1
4.456983147E0,-2.590526342E0,1.004397583E1,-9.816226959E-1
4.458982280E0,-2.590526342E0,1.004397583E1,-9.816226959E-1
4.460982280E0,-2.521094322E0,9.924264908E0,-9.361328483E-1
4.462982280E0,-2.473210335E0,9.857227325E0,-9.002198577E-1
4.464982280E0,-2.403778553E0,9.739912033E0,-8.283938169E-1
