"Time (s)","Acceleration x (m/s^2)","Acceleration y (m/s^2)","Acceleration z (m/s^2)"
3.837532800E-2,-2.315246582E0,1.377807617E0,8.316497803E0
4.350228100E-2,-2.293716431E0,1.355087280E0,8.454086304E0
4.859871700E-2,-2.260208130E0,1.362258911E0,8.612014771E0
5.372567000E-2,-2.239868164E0,1.382598877E0,8.783111572E0
5.879158800E-2,-2.230300903E0,1.414901733E0,8.887191772E0
6.394905800E-2,-2.176467896E0,1.438827515E0,8.944625854E0
6.901497600E-2,-2.111862183E0,1.453186035E0,8.927871704E0
7.414192900E-2,-2.025711060E0,1.441223145E0,8.975723267E0
7.923836500E-2,-1.941970825E0,1.376617432E0,9.060668945E0
8.433480100E-2,-1.842666626E0,1.316802979E0,9.133651733E0
8.946175400E-2,-1.760116577E0,1.258178711E0,9.345413208E0
9.455818900E-2,-1.694305420E0,1.163650513E0,9.588287354E0
9.965462500E-2,-1.638076782E0,1.011703491E0,9.804840088E0
1.047815780E-1,-1.620132446E0,9.231719971E-1,1.002378845E1
1.098780130E-1,-1.610565186E0,8.860931396E-1,1.018170166E1
1.149744490E-1,-1.618942261E0,9.040374756E-1,1.027622986E1
1.201014020E-1,-1.635681152E0,9.542846680E-1,1.025109863E1
1.251978380E-1,-1.681152344E0,1.046401978E0,1.011471558E1
1.302942730E-1,-1.770874023E0,1.134948730E0,9.870635986E0
1.354212260E-1,-1.874969482E0,1.233047485E0,9.589492798E0
1.405176620E-1,-1.994613647E0,1.338333130E0,9.309524536E0
1.456140970E-1,-2.093917847E0,1.449600220E0,9.060668945E0
1.507105330E-1,-2.189620972E0,1.554885864E0,8.864456177E0
1.558374860E-1,-2.230300903E0,1.647003174E0,8.695770264E0
1.612696150E-1,-2.217147827E0,1.691268921E0,8.552200317E0
1.660608750E-1,-2.146560669E0,1.704437256E0,8.403839111E0
1.713098980E-1,-2.037673950E0,1.722381592E0,8.304534912E0
1.762537460E-1,-1.934783936E0,1.703231812E0,8.305740356E0
1.814722520E-1,-1.895309448E0,1.670928955E0,8.352401733E0
1.864771350E-1,-1.909667969E0,1.633850098E0,8.499557495E0
1.915735700E-1,-1.969482422E0,1.570434570E0,8.796264648E0
1.967005230E-1,-2.085540771E0,1.485488892E0,9.168350220E0
2.017969590E-1,-2.242263794E0,1.398147583E0,9.603836060E0
2.068933940E-1,-2.365493774E0,1.290481567E0,1.010394287E1
2.120203470E-1,-2.463607788E0,1.228256226E0,1.055259705E1
2.171167830E-1,-2.529403687E0,1.180404663E0,1.092109680E1
2.223963240E-1,-2.572479248E0,1.157669067E0,1.121659851E1
2.273401720E-1,-2.628707886E0,1.151687622E0,1.146426392E1
2.324671250E-1,-2.693313599E0,1.137329102E0,1.156596375E1
2.375635600E-1,-2.739974976E0,1.066741943E0,1.145349121E1
2.426599960E-1,-2.781845093E0,9.638519287E-1,1.114002991E1
2.477869490E-1,-2.832092285E0,8.824920654E-1,1.076435852E1
2.528833850E-1,-2.883544922E0,8.095245361E-1,1.032289124E1
2.579798200E-1,-2.889526367E0,7.472991943E-1,9.900558472E0
2.631067730E-1,-2.872772217E0,7.114105225E-1,9.582305908E0
2.682032090E-1,-2.822525024E0,6.994476318E-1,9.420791626E0
2.733301620E-1,-2.793807983E0,7.006378174E-1,9.399261475E0
2.784265970E-1,-2.791412354E0,6.802978516E-1,9.533248901E0
2.835535510E-1,-2.830902100E0,6.815032959E-1,9.785690308E0
2.886499860E-1,-2.882339478E0,7.281646729E-1,1.004412842E1
2.937769390E-1,-2.944564819E0,7.963562012E-1,1.021879578E1
2.988733750E-1,-2.979248047E0,9.028320312E-1,1.025708008E1
3.040003280E-1,-3.016342163E0,1.016494751E0,1.013026428E1
3.090967630E-1,-3.030700684E0,1.105026245E0,9.884994507E0
3.142237170E-1,-3.053436279E0,1.223480225E0,9.663665771E0
3.192896350E-1,-3.077362061E0,1.345504761E0,9.401641846E0
3.244165880E-1,-3.048645020E0,1.394561768E0,9.211425781E0
3.295130230E-1,-2.978057861E0,1.367050171E0,9.125274658E0
3.346399760E-1,-2.938583374E0,1.322784424E0,8.829757690E0
3.397364120E-1,-2.834487915E0,1.321578979E0,8.577316284E0
3.448328470E-1,-2.668182373E0,1.352691650E0,8.384704590E0
3.499598010E-1,-2.517440796E0,1.374221802E0,8.211212158E0
3.556971050E-1,-2.358322144E0,1.383789062E0,8.096359253E0
3.601526720E-1,-2.205184937E0,1.412506104E0,8.018600464E0
3.652796250E-1,-2.085540771E0,1.496261597E0,8.053298950E0
3.703760600E-1,-1.979049683E0,1.605133057E0,8.116699219E0
3.754724960E-1,-1.888122559E0,1.669738770E0,8.249511719E0
3.805994490E-1,-1.895309448E0,1.637435913E0,8.292572021E0
3.856958850E-1,-1.830703735E0,1.583602905E0,8.268646240E0
3.908228380E-1,-1.806777954E0,1.527359009E0,8.376327515E0
3.959192730E-1,-1.876159668E0,1.431655884E0,8.424179077E0
4.010157090E-1,-1.958709717E0,1.304824829E0,8.517501831E0
4.061426620E-1,-2.038879395E0,1.188781738E0,8.767547607E0
4.112390970E-1,-2.134582520E0,1.058364868E0,8.998458862E0
4.163660510E-1,-2.208770752E0,9.650573730E-1,9.215011597E0
4.214624860E-1,-2.287734985E0,8.765106201E-1,9.404037476E0
4.265894390E-1,-2.369079590E0,7.939605713E-1,9.497360229E0
4.316858750E-1,-2.482742310E0,7.628631592E-1,9.516510010E0
4.367823100E-1,-2.537780762E0,8.011474609E-1,9.561965942E0
4.419092630E-1,-2.814147949E0,8.298492432E-1,9.613418579E0
4.470362170E-1,-3.068984985E0,8.250732422E-1,9.737838745E0
4.521326520E-1,-3.163497925E0,7.556762695E-1,9.809631348E0
4.572596050E-1,-3.138381958E0,6.468048096E-1,9.890975952E0
4.623255230E-1,-3.058212280E0,5.271606445E-1,9.913711548E0
4.674829940E-1,-3.011566162E0,4.099121094E-1,9.908920288E0
4.725489120E-1,-2.996002197E0,3.094177246E-1,9.957977295E0
4.776758650E-1,-2.981643677E0,2.256622314E-1,1.012786865E1
4.827723010E-1,-3.041473389E0,1.813964844E-1,1.032647705E1
4.878992540E-1,-3.108474731E0,1.562805176E-1,1.065667725E1
4.929956890E-1,-3.202987671E0,1.060333252E-1,1.081341553E1
4.980921250E-1,-3.284347534E0,1.150512695E-2,1.075360107E1
5.032190780E-1,-3.275970459E0,-9.616088867E-2,1.052867126E1
5.083155130E-1,-3.157516479E0,-1.643676758E-1,1.019966125E1
5.137171250E-1,-2.791412354E0,-1.906890869E-1,9.997467041E0
5.185389020E-1,-2.034088135E0,-8.898925781E-2,1.022000122E1
5.237879260E-1,-2.071182251E0,-1.236877441E-1,9.947219849E0
5.287622910E-1,-2.440872192E0,-3.199005127E-1,9.551193237E0
5.338587260E-1,-2.645462036E0,-6.261749268E-1,9.261672974E0
5.389551620E-1,-2.682540894E0,-9.013519287E-1,9.182708740E0
5.440821150E-1,-2.631103516E0,-1.082015991E0,9.347808838E0
5.491785510E-1,-2.562896729E0,-1.157379150E0,9.657684326E0
5.543055040E-1,-2.387039185E0,-1.180114746E0,1.006684875E1
5.594019390E-1,-2.101089478E0,-1.184906006E0,1.053106689E1
5.644983750E-1,-1.774475098E0,-1.211227417E0,1.102876282E1
5.696253280E-1,-1.678756714E0,-1.280609131E0,1.143196106E1
5.747217630E-1,-1.616546631E0,-1.407440186E0,1.172627258E1
5.798487170E-1,-1.595001221E0,-1.578521729E0,1.204093933E1
5.849451520E-1,-1.529205322E0,-1.742431641E0,1.230174255E1
5.900415880E-1,-1.429901123E0,-1.931457520E0,1.244172668E1
5.951685410E-1,-1.288726807E0,-2.096572876E0,1.247283936E1
6.002649760E-1,-1.030303955E0,-2.203048706E0,1.239746094E1
6.053919290E-1,-7.000885010E-1,-2.270050049E0,1.221202087E1
6.104883650E-1,-3.303985596E-1,-2.298751831E0,1.199188232E1
6.155848010E-1,1.296997070E-2,-2.291580200E0,1.169038391E1
6.207117540E-1,2.163543701E-1,-2.264068604E0,1.134941101E1
6.258081890E-1,2.702026367E-1,-2.191085815E0,1.097972107E1
6.309351420E-1,1.589355469E-1,-2.106140137E0,1.059207153E1
6.360315780E-1,-5.761718750E-2,-2.023590088E0,1.017572021E1
6.411280130E-1,-3.004913330E-1,-1.951797485E0,9.796463013E0
6.462549670E-1,-4.919128418E-1,-1.888397217E0,9.540435791E0
6.513514020E-1,-6.283111572E-1,-1.805831909E0,9.332260132E0
6.564783550E-1,-7.635040283E-1,-1.713714600E0,9.182708740E0
6.615747910E-1,-8.998870850E-1,-1.598861694E0,9.121688843E0
6.666712260E-1,-9.872283936E-1,-1.488784790E0,9.069046021E0
6.717981790E-1,-1.024322510E0,-1.462463379E0,8.997268677E0
6.768946150E-1,-1.084136963E0,-1.468444824E0,8.903945923E0
6.819910510E-1,-1.085342407E0,-1.466064453E0,8.859680176E0
6.871180040E-1,-9.585113525E-1,-1.437347412E0,8.927871704E0
6.922144390E-1,-9.046783447E-1,-1.402648926E0,9.082199097E0
6.973413920E-1,-9.740753174E-1,-1.347610474E0,9.380111694E0
7.024378280E-1,-1.260009766E0,-1.312911987E0,9.871841431E0
7.075647810E-1,-1.653625488E0,-1.284194946E0,1.049397278E1
7.126612170E-1,-2.074768066E0,-1.259078979E0,1.108859253E1
7.177576520E-1,-2.495910645E0,-1.210021973E0,1.162577820E1
7.228540880E-1,-2.979248047E0,-1.044921875E0,1.207203674E1
7.279810410E-1,-3.392013550E0,-8.451232910E-1,1.235559082E1
7.330774760E-1,-3.633697510E0,-7.015533447E-1,1.245729065E1
7.382044290E-1,-3.691116333E0,-6.094207764E-1,1.241062927E1
7.433008650E-1,-3.372879028E0,-5.077362061E-1,1.242857361E1
7.484278180E-1,-3.250839233E0,-5.304565430E-1,1.214382935E1
7.535242540E-1,-3.096496582E0,-7.039489746E-1,1.172866821E1
7.586817240E-1,-2.876358032E0,-9.575805664E-1,1.118429565E1
7.637476420E-1,-2.596405029E0,-1.207626343E0,1.057054138E1
7.688440780E-1,-2.299697876E0,-1.422988892E0,9.925674438E0
7.739405130E-1,-1.971878052E0,-1.547409058E0,9.412414551E0
7.790674670E-1,-1.629699707E0,-1.548614502E0,9.107330322E0
7.841639020E-1,-1.367691040E0,-1.517501831E0,8.871643066E0
7.892908550E-1,-1.254028320E0,-1.433746338E0,8.649108887E0
7.943872910E-1,-1.226516724E0,-1.318893433E0,8.419387817E0
7.995142440E-1,-1.325820923E0,-1.217208862E0,8.168151855E0
8.046106790E-1,-1.506469727E0,-1.135848999E0,7.965957642E0
8.097376330E-1,-1.731399536E0,-1.105941772E0,7.835540771E0
8.148340680E-1,-1.989822388E0,-1.059280396E0,7.847503662E0
8.199305040E-1,-2.214752197E0,-9.707489014E-1,7.963562012E0
8.250269390E-1,-2.379852295E0,-8.104248047E-1,8.280609131E0
8.301538920E-1,-2.433685303E0,-5.807189941E-1,8.771133423E0
8.352503280E-1,-2.105880737E0,-7.242889404E-1,1.098689270E1
8.403772810E-1,-1.870178223E0,-6.668548584E-1,1.428898621E1
8.454737170E-1,-1.878555298E0,-5.448150635E-1,1.479267883E1
8.506006700E-1,-1.612960815E0,-6.668548584E-1,1.490873718E1
8.556971050E-1,-1.094909668E0,-7.182922363E-1,1.537771606E1
8.607935410E-1,-7.754669189E-1,-7.852935791E-1,1.450314331E1
8.662867050E-1,-3.782501221E-1,-9.228820801E-1,1.290234375E1
8.710169290E-1,3.810119629E-2,-1.144226074E0,1.106466675E1
8.763575060E-1,4.077911377E-1,-1.458877563E0,9.311920166E0
8.812403180E-1,6.446685791E-1,-1.591674805E0,8.198059082E0
8.864283060E-1,4.687957764E-1,-1.357177734E0,7.952789307E0
8.914331890E-1,1.649169922E-1,-1.056884766E0,8.217208862E0
8.965601420E-1,-3.662872314E-1,-8.690490723E-1,8.626373291E0
9.016565780E-1,-8.735656738E-1,-7.290649414E-1,8.951797485E0
9.067530130E-1,-1.231292725E0,-5.819091797E-1,9.187484741E0
9.118494490E-1,-1.360504150E0,-5.208892822E-1,9.360977173E0
9.170069200E-1,-1.370086670E0,-4.969635010E-1,9.532058716E0
9.220728380E-1,-1.323425293E0,-4.957733154E-1,9.731857300E0
9.271692730E-1,-1.222930908E0,-4.885864258E-1,9.865859985E0
9.322962260E-1,-1.161911011E0,-4.479064941E-1,1.006805420E1
9.373926620E-1,-9.884338379E-1,-4.550933838E-1,1.035040283E1
9.424890970E-1,-7.204284668E-1,-5.256805420E-1,1.062078857E1
9.476160510E-1,-3.543243408E-1,-7.075347900E-1,1.078111267E1
9.527124860E-1,9.672546387E-2,-9.420318604E-1,1.082298279E1
9.578089220E-1,5.717010498E-1,-1.189682007E0,1.084452820E1
9.629053570E-1,1.019149780E0,-1.451705933E0,1.077632141E1
9.680323100E-1,1.301498413E0,-1.650299072E0,1.075360107E1
9.731287460E-1,1.272796631E0,-1.707733154E0,1.096536255E1
9.782251810E-1,1.045471191E0,-1.626373291E0,1.154681396E1
9.833216170E-1,7.786712646E-1,-1.454086304E0,1.198590088E1
9.884485700E-1,5.717010498E-1,-1.283004761E0,1.203614807E1
9.935450060E-1,4.209442139E-1,-1.123886108E0,1.174900818E1
9.986414410E-1,3.372039795E-1,-1.001846313E0,1.130393982E1
1.003768394E0,3.084869385E-1,-9.169006348E-1,1.084213257E1
1.008864830E0,2.833557129E-1,-8.164062500E-1,1.039706421E1
1.013961265E0,2.654113770E-1,-7.230834961E-1,1.008001709E1
1.019088218E0,2.414855957E-1,-6.824035645E-1,9.859878540E0
1.024184654E0,2.929229736E-1,-7.374420166E-1,9.644515991E0
1.029281090E0,3.826599121E-1,-9.240875244E-1,9.466262817E0
1.034408043E0,4.041900635E-1,-1.066452026E0,9.126480103E0
1.039504478E0,3.611297607E-1,-9.946746826E-1,8.667053223E0
1.044600914E0,2.941284180E-1,-8.331604004E-1,8.190887451E0
1.049727867E0,1.792755127E-1,-6.859893799E-1,7.717102051E0
1.054824302E0,1.110687256E-1,-6.058349609E-1,7.532852173E0
1.059920738E0,1.062927246E-1,-5.819091797E-1,7.334243774E0
1.065047691E0,1.984100342E-1,-6.333618164E-1,7.141632080E0
1.070144127E0,5.704956055E-1,-8.092346191E-1,7.071044922E0
1.075240562E0,1.257232666E0,-1.128662109E0,7.633346558E0
1.080367515E0,1.955947876E0,-1.495971680E0,8.299758911E0
1.085463951E0,2.622344971E0,-1.862075806E0,8.773529053E0
1.090590904E0,3.379669189E0,-2.205444336E0,9.047515869E0
1.095687340E0,4.070007324E0,-2.512924194E0,9.139633179E0
1.100783775E0,4.510284424E0,-2.764160156E0,9.219787598E0
1.105880211E0,4.617950439E0,-2.942428589E0,9.346618652E0
1.111007164E0,4.467208862E0,-3.021392822E0,9.493774414E0
1.116103599E0,4.114273071E0,-2.912521362E0,9.602645874E0
1.121230552E0,3.478973389E0,-2.628967285E0,9.792877197E0
1.126326988E0,2.624740601E0,-2.216201782E0,1.007283020E1
1.131453941E0,1.849456787E0,-1.819000244E0,1.019367981E1
1.136550377E0,1.205795288E0,-1.426574707E0,1.022119141E1
1.141646812E0,6.147613525E-1,-1.050903320E0,1.016256714E1
1.146743248E0,8.714294434E-2,-7.589721680E-1,9.984298706E0
1.151870201E0,-4.500427246E-1,-4.251861572E-1,9.895767212E0
1.156966636E0,-2.073577881E0,4.673461914E-1,1.084571838E1
1.162093590E0,-3.390823364E0,8.525848389E-1,1.349577332E1
1.167190025E0,-3.589431763E0,6.372375488E-1,1.574502563E1
1.172316978E0,-2.805770874E0,5.032348633E-1,1.677273560E1
1.177413414E0,-1.983840942E0,5.128021240E-1,1.536935425E1
1.182509849E0,-1.557922363E0,4.972534180E-1,1.231730652E1
1.187636802E0,-1.301879883E0,1.479034424E-1,9.825180054E0
1.192733238E0,-8.508453369E-1,-5.304565430E-1,9.224578857E0
1.197829674E0,-3.303985596E-1,-1.068847656E0,9.989089966E0
1.202956627E0,-5.882263184E-2,-1.225570679E0,1.058848572E1
1.208175133E0,-4.325866699E-2,-9.468078613E-1,1.056455994E1
1.213180015E0,-3.608703613E-2,-5.615692139E-1,1.030494690E1
1.218276451E0,1.960144043E-1,-2.624664307E-1,1.032289124E1
1.223403404E0,5.597229004E-1,-6.385803223E-2,1.069377136E1
1.228866051E0,8.313140869E-1,1.629638672E-2,1.100962830E1
1.233596275E0,9.952239990E-1,7.476806641E-4,1.106825256E1
1.238875816E0,1.090942383E0,-2.677917480E-2,1.091032410E1
1.243819664E0,1.300308228E0,-9.976196289E-2,1.077033997E1
1.248977135E0,1.576675415E0,-1.057434082E-1,1.069137573E1
1.254012535E0,1.671188354E0,-1.021423340E-1,1.049278259E1
1.259139488E0,1.697509766E0,-1.511993408E-1,1.043534851E1
1.264235924E0,1.788436890E0,-1.823120117E-1,1.061361694E1
1.269362877E0,1.855438232E0,-1.691436768E-1,1.073205566E1
1.274459312E0,1.859039307E0,-1.715393066E-1,1.065907288E1
1.279586265E0,1.818359375E0,-2.074279785E-1,1.052627563E1
1.284652183E0,1.759735107E0,-2.457122803E-1,1.045687866E1
1.289779136E0,1.689147949E0,-2.852020264E-1,1.040902710E1
1.295669029E0,1.632904053E0,-2.732391357E-1,1.032289124E1
1.300002525E0,1.575485229E0,-2.481079102E-1,1.026545715E1
1.305098961E0,1.443878174E0,-2.493133545E-1,1.016375732E1
1.310225914E0,1.332611084E0,-3.091278076E-1,9.946014404E0
1.315322349E0,1.245269775E0,-3.749237061E-1,9.742630005E0
1.320449302E0,1.185455322E0,-4.347534180E-1,9.590682983E0
1.325545738E0,1.189041138E0,-4.790191650E-1,9.518890381E0
1.330642174E0,1.208190918E0,-4.790191650E-1,9.492584229E0
1.335738609E0,1.223739624E0,-4.144134521E-1,9.621795654E0
1.340865562E0,1.234512329E0,-2.588806152E-1,9.890975952E0
1.345961998E0,1.386444092E0,-1.069335938E-1,1.023315430E1
1.351088951E0,1.356536865E0,7.492065430E-2,1.045927429E1
1.356185386E0,1.485748291E0,2.483978271E-1,1.060882568E1
1.361312340E0,1.741790771E0,4.757232666E-1,1.089596558E1
1.366408775E0,1.820739746E0,2.615661621E-1,1.087083435E1
1.371505211E0,2.022933960E0,-1.129150391E-1,1.057174683E1
1.376601646E0,2.302902222E0,-3.151092529E-1,1.031690979E1
1.381728599E0,2.314865112E0,-4.562835693E-1,1.007044983E1
1.386825035E0,2.328018188E0,-6.118164062E-1,9.895767212E0
1.391951988E0,2.379470825E0,-7.123107910E-1,9.746215820E0
1.397048424E0,2.512268066E0,-5.280761719E-1,9.831161499E0
1.402144859E0,2.079177856E0,-2.768249512E-1,9.980712891E0
1.407241295E0,1.746566772E0,-4.113769531E-2,1.003694153E1
1.412368248E0,1.680770874E0,6.535339355E-2,1.002737427E1
1.417464683E0,1.705886841E0,1.084136963E-1,1.000105286E1
1.422591636E0,1.629318237E0,1.634521484E-1,1.005010986E1
1.427688072E0,1.532409668E0,2.483978271E-1,1.021041870E1
1.432784508E0,1.441482544E0,3.477020264E-1,1.025109863E1
1.437880943E0,1.346969604E0,4.577789307E-1,1.026426697E1
1.443007896E0,1.283554077E0,5.367431641E-1,1.032408142E1
1.448104332E0,1.289535522E0,5.463104248E-1,1.030255127E1
1.453200767E0,1.343383789E0,4.888763428E-1,1.022477722E1
1.458327720E0,1.327819824E0,4.458160400E-1,1.014103699E1
1.463424156E0,1.223739624E0,4.158935547E-1,1.001899719E1
1.468520592E0,1.088546753E0,4.326477051E-1,9.962768555E0
1.473647545E0,9.270324707E-1,5.558776855E-1,9.955581665E0
1.478743980E0,7.571411133E-1,7.425231934E-1,9.968750000E0
1.483870933E0,6.255340576E-1,1.027267456E0,1.002497864E1
1.488967369E0,5.501556396E-1,1.393371582E0,1.022119141E1
1.494063804E0,5.728912354E-1,1.594360352E0,1.039227295E1
1.499160240E0,6.865539551E-1,1.618286133E0,1.044970703E1
1.504287193E0,8.384857178E-1,1.509414673E0,1.035279846E1
1.509383629E0,8.887481689E-1,1.399353027E0,1.016017151E1
1.514510582E0,8.372955322E-1,1.301239014E0,9.926879883E0
1.519607017E0,7.439727783E-1,1.246200562E0,9.713912964E0
1.524703453E0,6.506500244E-1,1.268936157E0,9.547607422E0
1.529799888E0,5.824584961E-1,1.302444458E0,9.466262817E0
1.534926842E0,5.298156738E-1,1.387390137E0,9.494964600E0
1.540023277E0,5.381927490E-1,1.504638672E0,9.585891724E0
1.545150230E0,5.070800781E-1,1.692474365E0,9.772537231E0
1.550246666E0,4.700012207E-1,1.929351807E0,9.996261597E0
1.555373619E0,4.089813232E-1,2.192565918E0,1.016256714E1
1.560470054E0,3.240356445E-1,2.409118652E0,1.025828552E1
1.565566490E0,2.211456299E-1,2.559860229E0,1.026785278E1
1.570662926E0,1.864471436E-1,2.636444092E0,1.014341736E1
1.575789879E0,2.019958496E-1,2.605331421E0,9.975921631E0
1.581344078E0,2.977142334E-1,2.515594482E0,9.745025635E0
1.586013267E0,3.982086182E-1,2.430648804E0,9.561965942E0
1.591414879E0,4.185485840E-1,2.417495728E0,9.466262817E0
1.596236656E0,3.934326172E-1,2.459365845E0,9.423187256E0
1.601485679E0,3.730926514E-1,2.520385742E0,9.424377441E0
1.606460045E0,3.982086182E-1,2.602935791E0,9.388488770E0
1.611556480E0,4.544525146E-1,2.721389771E0,9.349014282E0
1.616652916E0,5.023040771E-1,2.765655518E0,9.341827393E0
1.621779869E0,5.621185303E-1,2.714202881E0,9.247314453E0
1.626876304E0,5.836639404E-1,2.626861572E0,9.053497314E0
1.632003258E0,5.944213867E-1,2.532348633E0,8.899154663E0
1.637099693E0,6.614227295E-1,2.411514282E0,8.857284546E0
1.642226646E0,7.750854492E-1,2.278717041E0,8.846511841E0
1.647323082E0,8.145599365E-1,2.226074219E0,8.778320312E0
1.652450035E0,7.212524414E-1,2.275115967E0,8.704147339E0
1.657546470E0,5.800628662E-1,2.367248535E0,8.690979004E0
1.662673424E0,4.867553711E-1,2.482101440E0,8.820190430E0
1.667769859E0,4.448699951E-1,2.616104126E0,9.095367432E0
1.672896812E0,4.891357422E-1,2.718994141E0,9.370544434E0
1.677993248E0,6.147613525E-1,2.772827148E0,9.573928833E0
1.683120201E0,7.188568115E-1,2.785995483E0,9.694763184E0
1.688216636E0,7.619171143E-1,2.742919922E0,9.682800293E0
1.693343590E0,7.834625244E-1,2.629257202E0,9.526077271E0
1.698653648E0,8.779754639E-1,2.439025879E0,9.274826050E0
1.703536461E0,1.015563965E0,2.194961548E0,8.945816040E0
1.708632896E0,1.141189575E0,1.974822998E0,8.601242065E0
1.713759849E0,1.148361206E0,1.889877319E0,8.326080322E0
1.718856285E0,1.045471191E0,1.941329956E0,8.128662109E0
1.723983238E0,8.911285400E-1,2.043014526E0,8.036544800E0
1.729079674E0,8.253326416E-1,2.149505615E0,8.015014648E0
1.734206627E0,8.648071289E-1,2.269134521E0,8.073638916E0
1.739303062E0,9.605255127E-1,2.415100098E0,8.277023315E0
1.744430015E0,1.120849609E0,2.589782715E0,8.747207642E0
1.749526451E0,1.238098145E0,2.724975586E0,9.496170044E0
1.754653404E0,1.151947021E0,2.765655518E0,1.025349426E1
1.759749840E0,8.779754639E-1,2.724975586E0,1.060044861E1
1.764846275E0,5.058898926E-1,2.626861572E0,1.045329285E1
1.769942711E0,1.146697998E-1,2.458175659E0,9.911315918E0
1.775069664E0,-1.760711670E-1,2.230850220E0,9.255691528E0
1.780166099E0,-4.021911621E-1,1.950897217E0,8.766357422E0
1.785293052E0,-5.804443359E-1,1.625473022E0,8.420593262E0
1.790389488E0,-6.342926025E-1,1.260559082E0,8.120285034E0
1.795485924E0,-5.146484375E-1,8.992462158E-1,7.872634888E0
1.800612877E0,-2.586212158E-1,6.432189941E-1,7.809219360E0
1.805709312E0,8.595275879E-2,5.475006104E-1,8.050903320E0
1.810836265E0,4.508514404E-1,5.558776855E-1,8.438537598E0
1.815932701E0,7.702941895E-1,6.133117676E-1,8.799850464E0
1.821029136E0,9.952239990E-1,7.030334473E-1,9.011611938E0
1.826156090E0,1.147171021E0,7.843933105E-1,9.043914795E0
1.831252525E0,1.156738281E0,8.537902832E-1,9.034347534E0
1.836379478E0,1.015563965E0,9.052276611E-1,9.159973145E0
1.841475914E0,8.002014160E-1,1.015304565E0,9.550003052E0
1.846602867E0,5.453796387E-1,1.182800293E0,9.156387329E0
1.851699302E0,4.053955078E-1,1.201934814E0,8.439727783E0
1.856795738E0,4.676055908E-1,1.038024902E0,8.023376465E0
1.861892174E0,8.600311279E-1,8.358459473E-1,8.005432129E0
1.867019127E0,1.319458008E0,7.832031250E-1,8.286590576E0
1.872115562E0,1.534805298E0,1.046401978E0,8.625183105E0
1.877242515E0,1.491729736E0,1.361068726E0,9.016403198E0
1.882338951E0,1.226135254E0,1.692474365E0,9.339431763E0
1.887435386E0,1.046661377E0,2.058578491E0,9.441131592E0
1.892562340E0,1.252456665E0,2.284698486E0,9.607437134E0
1.897658775E0,1.506088257E0,2.436630249E0,9.995071411E0
1.902755211E0,1.790832520E0,2.638824463E0,1.018769836E1
1.907882164E0,1.951156616E0,2.680709839E0,1.055857849E1
1.912978599E0,2.043273926E0,2.760864258E0,1.106346130E1
1.918105552E0,2.283752441E0,2.915206909E0,1.141520691E1
1.923201988E0,2.596023560E0,3.091079712E0,1.160902405E1
1.928298424E0,2.712066650E0,3.087478638E0,1.171910095E1
1.933700035E0,2.607986450E0,2.951095581E0,1.148460388E1
1.938521812E0,2.429718018E0,2.764450073E0,1.104312134E1
1.943770836E0,2.258636475E0,2.567047119E0,1.065190125E1
1.948714683E0,2.146163940E0,2.307418823E0,1.044132996E1
1.953872154E0,2.046875000E0,1.974822998E0,1.035997009E1
1.958938072E0,1.915267944E0,1.621887207E0,1.012667847E1
1.964034508E0,1.739395142E0,1.279708862E0,9.731857300E0
1.969161461E0,1.553939819E0,1.045211792E0,9.313110352E0
1.974257896E0,1.361328125E0,8.908691406E-1,9.024780273E0
1.979354332E0,1.186645508E0,8.394317627E-1,8.859680176E0
1.984481285E0,9.976196289E-1,9.064331055E-1,8.698165894E0
1.989577720E0,8.109741211E-1,1.078704834E0,8.497161865E0
1.994704674E0,5.238342285E-1,1.356277466E0,8.350006104E0
1.999801109E0,1.027069092E-1,1.727157593E0,8.476821899E0
2.004928062E0,-3.244171143E-1,2.257171631E0,8.639541626E0
2.010024498E0,-1.967086792E0,2.992965698E0,9.944824219E0
2.015120933E0,-3.063003540E0,3.615097046E0,1.044731140E1
2.020247886E0,-3.181442261E0,4.097259521E0,1.060044861E1
2.025344322E0,-2.666992188E0,4.372436523E0,1.044850159E1
2.030440758E0,-1.774475098E0,4.368835449E0,9.789291382E0
2.035567711E0,-8.041839600E-1,3.988388062E0,8.970947266E0
2.040664146E0,-7.197570801E-2,3.499053955E0,8.377517700E0
2.045760582E0,-1.377716064E-1,3.116195679E0,8.018600464E0
2.050887535E0,-1.678756714E0,2.756072998E0,8.798660278E0
2.055983970E0,-2.046051025E0,2.205734253E0,8.670639038E0
2.061080406E0,-1.615341187E0,1.855178833E0,7.446716309E0
2.066207359E0,-7.862396240E-1,1.809722900E0,6.288589478E0
2.071303795E0,1.780700684E-1,1.879104614E0,5.865051270E0
2.076430748E0,1.204589844E0,1.987976074E0,6.075622559E0
2.081527183E0,2.086349487E0,2.092071533E0,6.499160767E0
2.086623619E0,2.782669067E0,2.167449951E0,6.861663818E0
2.091750572E0,3.169097900E0,2.175811768E0,6.971740723E0
2.096847008E0,3.215759277E0,2.155487061E0,6.917892456E0
2.101943443E0,2.957336426E0,2.160263062E0,6.805435181E0
2.107070396E0,2.512268066E0,2.240432739E0,6.765960693E0
2.112166832E0,2.013366699E0,2.464157104E0,6.853286743E0
2.117263267E0,1.562316895E0,2.760864258E0,7.081802368E0
2.122390220E0,1.154342651E0,3.070739746E0,7.386886597E0
2.127486656E0,1.095718384E0,3.146102905E0,7.202651978E0
2.132613609E0,1.241683960E0,3.097061157E0,6.838943481E0
2.137710045E0,1.327819824E0,2.986984253E0,6.430953979E0
2.142806480E0,1.248855591E0,2.774032593E0,6.044525146E0
2.147933433E0,9.760742188E-1,2.561065674E0,5.737045288E0
2.153029869E0,6.351013184E-1,2.445007324E0,5.489379883E0
2.158156822E0,2.438812256E-1,2.442611694E0,5.299148560E0
2.163253258E0,-1.892242432E-1,2.446212769E0,5.190277100E0
2.168349693E0,-5.960083008E-1,2.374420166E0,5.213012695E0
2.173446129E0,-9.369812012E-1,2.199752808E0,5.475021362E0
2.178573082E0,-1.179855347E0,1.934143066E0,6.000244141E0
2.183669517E0,-1.305480957E0,1.591964722E0,6.658279419E0
2.188796470E0,-1.349746704E0,1.213897705E0,7.416809082E0
2.193892906E0,-1.392807007E0,8.585662842E-1,8.183700562E0
2.199019859E0,-1.466995239E0,5.259704590E-1,8.969741821E0
2.204116295E0,-1.647644043E0,2.651519775E-1,9.756988525E0
2.209212730E0,-1.871383667E0,1.610565186E-1,1.058250427E1
2.214339683E0,-2.205184937E0,1.466979980E-1,1.132548523E1
2.219436119E0,-2.572479248E0,2.196807861E-1,1.193444824E1
2.224532554E0,-2.897903442E0,3.034362793E-1,1.238908386E1
2.229659508E0,-3.094116211E0,2.663421631E-1,1.260922241E1
2.235610435E0,-3.089324951E0,-1.481628418E-2,1.256616211E1
2.239882896E0,-2.838073730E0,-4.586791992E-1,1.231132507E1
2.244979332E0,-2.471969604E0,-9.958648682E-1,1.183514404E1
2.250075767E0,-2.226715088E0,-1.566558838E0,1.117951965E1
2.255172203E0,-2.134582520E0,-2.039138794E0,1.049876404E1
2.260299156E0,-2.133392334E0,-2.316711426E0,1.001541138E1
2.265395592E0,-2.260208130E0,-2.394470215E0,9.904144287E0
2.270492027E0,-2.591613770E0,-2.292770386E0,1.013026428E1
2.275649498E0,-3.071380615E0,-2.040328979E0,1.070573425E1
2.280715416E0,-3.676757812E0,-1.693374634E0,1.157194519E1
2.285811851E0,-4.289321899E0,-1.273437500E0,1.258529663E1
2.290938804E0,-4.787033081E0,-9.504089355E-1,1.393365479E1
2.296279381E0,-5.160308838E0,-7.888946533E-1,1.452706909E1
2.301131676E0,-5.551544189E0,-4.957733154E-1,1.475199890E1
2.306319664E0,-6.140167236E0,-7.942199707E-2,1.508340454E1
2.311355064E0,-6.860412598E0,7.731628418E-2,1.611231995E1
2.316451500E0,-7.073379517E0,-2.074279785E-1,1.732667542E1
2.321578453E0,-6.569686890E0,-5.173034668E-1,1.646406555E1
2.326674888E0,-6.304077148E0,-4.096221924E-1,1.400424194E1
2.331771324E0,-6.660614014E0,4.142761230E-2,1.162817383E1
2.336898277E0,-7.204986572E0,5.714263916E-1,1.008360291E1
2.341994713E0,-7.714645386E0,9.961547852E-1,9.469848633E0
2.347091148E0,-8.133392334E0,1.265350342E0,9.582305908E0
2.352218101E0,-8.406173706E0,1.410110474E0,1.002616882E1
2.357314537E0,-8.449249268E0,1.414901733E0,1.062437439E1
2.362441490E0,-8.418136597E0,1.401748657E0,1.101679993E1
2.367537926E0,-8.366699219E0,1.405334473E0,1.131471252E1
2.372629273E0,-8.322433472E0,1.477111816E0,1.142118835E1
2.377756226E0,-8.217147827E0,1.563262939E0,1.122618103E1
2.382852662E0,-7.957519531E0,1.550094604E0,1.077871704E1
2.387949097E0,-7.598602295E0,1.447204590E0,1.015299988E1
2.393045533E0,-7.189422607E0,1.328765869E0,9.504547119E0
2.398172486E0,-6.792221069E0,1.215103149E0,8.968551636E0
2.403268922E0,-6.471572876E0,1.144515991E0,8.625183105E0
2.408395875E0,-6.283737183E0,1.161270142E0,8.426574707E0
2.413492310E0,-6.194015503E0,1.273727417E0,8.455291748E0
2.418619263E0,-6.105484009E0,1.406524658E0,8.578521729E0
2.423685181E0,-5.983444214E0,1.471130371E0,8.647903442E0
2.428812134E0,-5.672378540E0,1.301239014E0,8.853698730E0
2.433908570E0,-5.189025879E0,9.985504150E-1,9.073837280E0
2.439035523E0,-4.703277588E0,7.305603027E-1,9.350204468E0
2.444131959E0,-4.358718872E0,6.587677002E-1,9.374130249E0
2.449258912E0,-4.301284790E0,9.231719971E-1,8.972137451E0
2.454355347E0,-4.536987305E0,1.451995850E0,7.939636230E0
2.459451783E0,-4.861206055E0,1.922180176E0,6.751602173E0
2.464548218E0,-5.110061646E0,2.265548706E0,5.813613892E0
2.469675172E0,-5.269180298E0,2.506027222E0,5.179519653E0
2.474771607E0,-5.406768799E0,2.724975586E0,4.862457275E0
2.479898560E0,-5.559921265E0,2.954681396E0,4.937835693E0
2.484994996E0,-5.709472656E0,3.209518433E0,5.313507080E0
2.490121949E0,-5.760910034E0,3.440429688E0,6.021789551E0
2.495218384E0,-5.620925903E0,3.617492676E0,7.417999268E0
2.500345338E0,-5.380447388E0,3.716796875E0,9.248504639E0
2.505441773E0,-5.360107422E0,3.838836670E0,1.129437256E1
2.510538209E0,-5.452239990E0,3.830459595E0,1.221681213E1
2.515665162E0,-5.580261230E0,3.792175293E0,1.061480713E1
2.520792115E0,-5.942764282E0,3.831649780E0,8.561767578E0
2.525858033E0,-6.641464233E0,3.958465576E0,7.592681885E0
2.530984986E0,-5.848251343E0,3.848403931E0,6.866455078E0
2.536081422E0,-4.728408813E0,3.655776978E0,6.678619385E0
2.541208375E0,-4.109863281E0,3.637832642E0,6.544616699E0
2.546304810E0,-2.083145142E0,1.132553101E0,6.109130859E0
2.551401246E0,-1.734985352E0,1.400543213E0,6.178512573E0
2.556528199E0,-2.842864990E0,2.446212769E0,5.764556885E0
2.561624634E0,-4.084732056E0,3.298049927E0,5.046707153E0
2.566751588E0,-4.813354492E0,4.000350952E0,4.413803101E0
2.571848023E0,-5.400787354E0,4.577011108E0,4.236740112E0
2.576944459E0,-5.934387207E0,5.022079468E0,4.383895874E0
2.582071412E0,-6.249053955E0,5.217102051E0,4.752395630E0
2.587167847E0,-6.250244141E0,5.159667969E0,5.193862915E0
2.592294800E0,-6.021728516E0,4.827072144E0,5.723876953E0
2.597391236E0,-5.573074341E0,4.279113770E0,6.308929443E0
2.602518189E0,-5.020339966E0,3.694061279E0,6.746810913E0
2.607614625E0,-4.556121826E0,3.229858398E0,7.054290771E0
2.612711060E0,-4.340774536E0,2.971435547E0,7.126068115E0
2.617838013E0,-4.332397461E0,2.927169800E0,7.069839478E0
2.622934449E0,-4.548950195E0,3.056381226E0,6.946609497E0
2.628061402E0,-4.781051636E0,3.158065796E0,6.749206543E0
2.633188355E0,-5.461807251E0,3.512207031E0,6.641525269E0
2.638559449E0,-5.521636963E0,3.384201050E0,5.837539673E0
2.643381226E0,-5.023925781E0,3.142517090E0,5.544418335E0
2.648813355E0,-4.598007202E0,3.265747070E0,6.003845215E0
2.653604615E0,-4.548950195E0,3.514602661E0,6.897552490E0
2.658884156E0,-4.833694458E0,3.651000977E0,7.458679199E0
2.663828004E0,-5.270385742E0,3.743118286E0,7.608230591E0
2.668954957E0,-5.644866943E0,3.844818115E0,7.762557983E0
2.674020875E0,-5.561111450E0,3.671340942E0,7.886993408E0
2.679117310E0,-4.699691772E0,3.116195679E0,8.147811890E0
2.684213746E0,-4.516647339E0,3.260971069E0,8.210021973E0
2.689340699E0,-4.785842896E0,3.496658325E0,7.871444702E0
2.694437134E0,-5.198593140E0,3.708419800E0,7.548400879E0
2.699564088E0,-5.617340088E0,4.026672363E0,7.410827637E0
2.704660523E0,-6.007369995E0,4.244415283E0,7.463455200E0
2.709756959E0,-6.020538330E0,4.222885132E0,7.526870728E0
2.714883912E0,-5.842269897E0,3.966842651E0,7.652496338E0
2.719980347E0,-5.473770142E0,3.555282593E0,7.781707764E0
2.725107300E0,-4.922225952E0,3.107818604E0,7.957580566E0
2.730203736E0,-4.314453125E0,2.673522949E0,8.072433472E0
2.735300172E0,-3.738983154E0,2.266754150E0,7.968353271E0
2.740427125E0,-3.189819336E0,1.905426025E0,7.687194824E0
2.745523560E0,-2.739974976E0,1.597946167E0,7.264862061E0
2.750650513E0,-2.437286377E0,1.390975952E0,6.907135010E0
2.755746949E0,-2.077163696E0,1.156478882E0,6.616409302E0
2.760843384E0,-1.842666626E0,9.147949219E-1,6.411819458E0
2.765970338E0,-1.689529419E0,7.676391602E-1,6.221588135E0
2.771066773E0,-1.622528076E0,7.377319336E-1,6.247909546E0
2.776163209E0,-1.578262329E0,7.544860840E-1,6.529067993E0
2.781290162E0,-1.563903809E0,7.652435303E-1,6.818603516E0
2.786386597E0,-1.425109863E0,7.592620850E-1,7.189483643E0
2.791513550E0,-1.082946777E0,8.286590576E-1,7.517303467E0
2.796609986E0,-1.093704224E0,9.865875244E-1,7.601043701E0
2.801706422E0,-1.332992554E0,1.034439087E0,7.662063599E0
2.806833375E0,-1.727813721E0,9.650573730E-1,7.547210693E0
2.811929810E0,-2.145355225E0,8.513946533E-1,7.128463745E0
2.817026246E0,-2.342758179E0,5.355377197E-1,7.392868042E0
2.822153199E0,-2.385833740E0,6.176757812E-2,9.164764404E0
2.827249634E0,-2.218338013E0,-4.263763428E-1,9.782104492E0
2.832376588E0,-2.230300903E0,-7.553863525E-1,9.193466187E0
2.837473023E0,-2.503082275E0,-7.003479004E-1,8.332061768E0
2.842569459E0,-2.286529541E0,-4.562835693E-1,7.737442017E0
2.847696412E0,-2.102279663E0,-3.761291504E-1,7.605834961E0
2.852792847E0,-1.921630859E0,-4.503021240E-1,7.890579224E0
2.857889283E0,-1.769683838E0,-7.948760986E-1,8.043716431E0
2.863077271E0,-1.825912476E0,-1.590484619E0,7.938430786E0
2.868112672E0,-2.042465210E0,-1.998458862E0,8.050903320E0
2.873239625E0,-2.196807861E0,-2.003250122E0,8.226776123E0
2.878336060E0,-2.434890747E0,-1.841735840E0,7.818801880E0
2.883463013E0,-2.560516357E0,-1.781906128E0,7.226577759E0
2.888559449E0,-2.474365234E0,-1.805831909E0,6.963363647E0
2.893686402E0,-2.162109375E0,-1.907531738E0,6.910720825E0
2.898782838E0,-1.708663940E0,-2.113311768E0,6.872436523E0
2.903909791E0,-1.234893799E0,-2.327468872E0,6.692977905E0
2.909006226E0,-3.004913330E-1,-2.946014404E0,5.149597168E0
2.914102662E0,4.408264160E-2,-3.423385620E0,4.933059692E0
2.919199097E0,-2.346801758E-1,-3.535842896E0,4.927062988E0
2.924326050E0,-1.099685669E0,-3.125473022E0,4.946212769E0
2.929422486E0,-2.227905273E0,-2.488983154E0,5.146011353E0
2.934549439E0,-3.334594727E0,-1.962570190E0,5.689178467E0
2.939645875E0,-4.356323242E0,-1.725677490E0,6.295761108E0
2.944772828E0,-5.307464600E0,-1.698165894E0,6.823379517E0
2.949869263E0,-6.209564209E0,-1.777130127E0,7.219390869E0
2.954965699E0,-7.088928223E0,-1.797470093E0,7.517303467E0
2.960062134E0,-7.945556641E0,-1.750808716E0,7.939636230E0
2.965189088E0,-8.753143311E0,-1.640731812E0,8.445709229E0
2.970285523E0,-9.527221680E0,-1.482803345E0,8.936248779E0
2.975412476E0,-1.018524170E1,-1.303344727E0,9.238937378E0
2.980508912E0,-1.062791443E1,-1.164566040E0,9.425582886E0
2.985635865E0,-1.081095886E1,-1.116699219E0,9.547607422E0
2.990732300E0,-1.073199463E1,-1.204040527E0,9.572738647E0
2.995828736E0,-1.045085144E1,-1.389480591E0,9.491378784E0
3.001291382E0,-1.006201172E1,-1.607238770E0,9.307128906E0
3.006052125E0,-9.614547729E0,-1.841735840E0,9.034347534E0
3.011362183E0,-9.165893555E0,-2.072631836E0,8.765151978E0
3.016275513E0,-8.732803345E0,-2.302352905E0,8.527069092E0
3.021432984E0,-8.378662109E0,-2.510528564E0,8.253097534E0
3.026498902E0,-8.125015259E0,-2.676818848E0,7.963562012E0
3.031595338E0,-7.975463867E0,-2.784500122E0,7.693176270E0
3.036722291E0,-7.914459229E0,-2.850311279E0,7.452697754E0
3.041818726E0,-7.920440674E0,-2.867050171E0,7.240936279E0
3.046945679E0,-8.030502319E0,-2.796463013E0,7.049499512E0
3.052042115E0,-8.189620972E0,-2.689987183E0,6.852096558E0
3.057138550E0,-8.361907959E0,-2.579910278E0,6.782699585E0
3.062265504E0,-8.536590576E0,-2.444717407E0,6.764755249E0
3.067361939E0,-8.751937866E0,-2.329864502E0,6.832946777E0
3.072488892E0,-8.942169189E0,-2.230560303E0,6.990875244E0
3.077585328E0,-9.077362061E0,-2.174331665E0,7.234954834E0
3.082681763E0,-9.130004883E0,-2.176727295E0,7.546020508E0
3.087808716E0,-9.101287842E0,-2.254486084E0,7.889389038E0
3.092905152E0,-9.031906128E0,-2.351394653E0,8.201644897E0
3.098032105E0,-8.836883545E0,-2.535644531E0,8.517501831E0
3.103128541E0,-8.566497803E0,-2.841934204E0,8.822586060E0
3.108255494E0,-8.285339355E0,-3.234359741E0,9.066650391E0
3.113351929E0,-8.061614990E0,-3.612411499E0,9.102539062E0
3.118448365E0,-7.945556641E0,-3.985702515E0,8.750808716E0
3.123575318E0,-7.878555298E0,-4.441528320E0,8.311721802E0
3.128671754E0,-7.729003906E0,-5.002655029E0,8.042526245E0
3.133798707E0,-7.524429321E0,-5.537445068E0,7.802047729E0
3.138895142E0,-7.332992554E0,-5.926284790E0,7.508926392E0
3.144022095E0,-7.201385498E0,-6.129669189E0,7.144027710E0
3.149118531E0,-7.166702271E0,-6.151199341E0,6.797058105E0
3.154214966E0,-7.255233765E0,-6.014816284E0,6.451293945E0
3.159311402E0,-7.432296753E0,-5.804244995E0,6.149795532E0
3.164438355E0,-7.620132446E0,-5.532653809E0,5.982299805E0
3.169534791E0,-7.784042358E0,-5.240737915E0,5.915298462E0
3.175546754E0,-7.902481079E0,-4.905746460E0,5.877014160E0
3.179758179E0,-7.995803833E0,-4.574340820E0,5.824371338E0
3.184885132E0,-8.074768066E0,-4.280014038E0,5.781311035E0
3.189981568E0,-8.121429443E0,-4.038345337E0,5.765762329E0
3.195108521E0,-8.115447998E0,-3.878021240E0,5.810028076E0
3.200204957E0,-8.013748169E0,-3.826583862E0,5.885391235E0
3.205331910E0,-7.782852173E0,-3.915115356E0,5.942825317E0
3.210428345E0,-7.452636719E0,-4.140029907E0,5.969146729E0
3.215524781E0,-7.043472290E0,-4.485794067E0,5.878219604E0
3.220621216E0,-6.685745239E0,-4.922485352E0,5.398452759E0
3.225748170E0,-6.445266724E0,-5.428573608E0,4.788284302E0
3.230844605E0,-6.221527100E0,-6.004043579E0,4.564559937E0
3.235971558E0,-5.967895508E0,-6.619003296E0,4.765548706E0
3.241067994E0,-5.784835815E0,-7.211227417E0,5.108932495E0
3.246194947E0,-5.762115479E0,-7.735260010E0,5.360168457E0
3.251260865E0,-5.896102905E0,-8.151596069E0,5.470245361E0
3.256387818E0,-6.168884277E0,-8.431564331E0,5.295562744E0
3.261484254E0,-6.500289917E0,-8.553604126E0,4.954589844E0
3.266611207E0,-6.811355591E0,-8.662475586E0,4.752395630E0
3.271707642E0,-7.130798340E0,-8.917312622E0,4.313308716E0
3.276834595E0,-7.529205322E0,-9.099166870E0,4.069244385E0
3.281931031E0,-7.973083496E0,-9.059677124E0,4.406631470E0
3.287027466E0,-8.467193604E0,-8.880218506E0,4.696166992E0
3.292123902E0,-9.004379272E0,-8.767761230E0,4.626770020E0
3.297281373E0,-9.383651733E0,-8.694778442E0,4.698562622E0
3.302347291E0,-9.655227661E0,-8.694778442E0,5.014404297E0
3.307474244E0,-9.862213135E0,-8.774932861E0,5.306335449E0
3.312570679E0,-9.928009033E0,-8.924484253E0,5.684402466E0
3.317697632E0,-9.916046143E0,-9.081222534E0,6.043319702E0
3.322794068E0,-9.833496094E0,-9.395874023E0,5.649703979E0
3.327921021E0,-9.741378784E0,-9.937850952E0,5.055084229E0
3.333170045E0,-9.516448975E0,-1.025369263E1,5.983505249E0
3.338113892E0,-9.448257446E0,-1.050613403E1,6.579315186E0
3.343240845E0,-9.289123535E0,-1.074900818E1,7.230163574E0
3.348337281E0,-9.128814697E0,-1.105769348E1,7.640533447E0
3.353769410E0,-8.906280518E0,-1.126347351E1,8.076019287E0
3.358560670E0,-9.144363403E0,-1.095001221E1,8.013809204E0
3.363809693E0,-8.791427612E0,-1.073226929E1,8.089187622E0
3.368784058E0,-8.554534912E0,-1.023574829E1,8.351196289E0
3.373880494E0,-8.805770874E0,-9.291778564E0,8.303344727E0
3.379007447E0,-8.845260620E0,-8.571548462E0,8.617996216E0
3.384103882E0,-8.474380493E0,-8.192276001E0,9.319091797E0
3.389230836E0,-8.002990723E0,-7.921890259E0,9.825180054E0
3.394357789E0,-7.648849487E0,-7.730468750E0,9.821594238E0
3.399454224E0,-7.379653931E0,-7.533065796E0,9.716308594E0
3.404550660E0,-7.103286743E0,-7.281814575E0,9.827575684E0
3.409677613E0,-6.737182617E0,-7.139434814E0,9.865859985E0
3.414774048E0,-6.233489990E0,-7.120300293E0,9.766555786E0
3.419870484E0,-5.813552856E0,-7.190887451E0,9.594268799E0
3.424997437E0,-5.374465942E0,-7.219604492E0,8.702941895E0
3.430093873E0,-4.775070190E0,-7.200454712E0,7.476623535E0
3.435220826E0,-4.087127686E0,-7.152603149E0,6.178512573E0
3.440317261E0,-3.475769043E0,-7.110733032E0,4.912719727E0
3.445444214E0,-3.003189087E0,-7.101150513E0,3.725875854E0
3.450540650E0,-2.683746338E0,-7.128677368E0,2.668243408E0
3.455667603E0,-2.510269165E0,-7.227981567E0,1.886993408E0
3.460764039E0,-2.449249268E0,-7.430160522E0,1.446716309E0
3.465890992E0,-2.500686646E0,-7.755584717E0,1.315109253E0
3.470987427E0,-2.666992188E0,-8.254501343E0,1.346206665E0
3.476114380E0,-2.920623779E0,-8.822784424E0,1.465850830E0
3.481210816E0,-3.273574829E0,-9.391082764E0,1.597457886E0
3.486337769E0,-3.786834717E0,-9.900756836E0,1.639328003E0
3.491434205E0,-4.416152954E0,-1.031950378E1,1.613006592E0
3.496530640E0,-5.125610352E0,-1.060305786E1,1.529266357E0
3.501627076E0,-5.893707275E0,-1.076457214E1,1.496963501E0
3.506754029E0,-6.661804199E0,-1.084114075E1,1.429962158E0
3.511850464E0,-7.360519409E0,-1.093325806E1,1.355789185E0
3.516977418E0,-7.951538086E0,-1.109118652E1,1.266052246E0
3.522073853E0,-8.397796631E0,-1.126107788E1,1.159576416E0
3.527200806E0,-8.760314941E0,-1.139387512E1,1.078216553E0
3.532297242E0,-9.054626465E0,-1.146566772E1,1.057876587E0
3.537424195E0,-9.236480713E0,-1.150514221E1,1.112915039E0
3.542520630E0,-9.290328979E0,-1.161640930E1,1.158370972E0
3.547647584E0,-9.246063232E0,-1.181143188E1,1.248107910E0
3.552744019E0,-9.153930664E0,-1.202796936E1,1.404830933E0
3.557840455E0,-9.180252075E0,-1.213804626E1,1.453887939E0
3.562967408E0,-9.303482056E0,-1.220384216E1,1.414413452E0
3.568063843E0,-9.262802124E0,-1.241322327E1,1.432357788E0
3.573190797E0,-8.968490601E0,-1.276615906E1,1.447906494E0
3.578378785E0,-8.503082275E0,-1.314781189E1,1.386886597E0
3.583414185E0,-8.081954956E0,-1.327941895E1,1.169143677E0
3.588510621E0,-7.993408203E0,-1.294921875E1,9.394378662E-1
3.593637574E0,-8.018539429E0,-1.249098206E1,9.262695312E-1
3.598734009E0,-8.004180908E0,-1.211412048E1,1.002838135E0
3.603830445E0,-8.040069580E0,-1.176954651E1,1.002838135E0
3.608957398E0,-7.941970825E0,-1.158531189E1,1.073425293E0
3.614053834E0,-7.988632202E0,-1.110195923E1,1.345016479E0
3.619180787E0,-8.621536255E0,-9.630371094E0,2.061660767E0
3.624277222E0,-9.101287842E0,-8.297561646E0,3.146804810E0
3.629404175E0,-9.097702026E0,-7.554595947E0,4.419784546E0
3.634500611E0,-8.701690674E0,-7.236343384E0,5.495361328E0
3.639627564E0,-7.921630859E0,-7.399063110E0,6.222778320E0
3.644724000E0,-6.904678345E0,-7.844131470E0,6.824584961E0
3.649820435E0,-5.629302979E0,-8.597869873E0,7.141632080E0
3.654947388E0,-4.416152954E0,-9.076431274E0,7.128463745E0
3.660043824E0,-3.316650391E0,-9.464065552E0,6.858078003E0
3.665170777E0,-2.205184937E0,-9.965362549E0,6.555389404E0
3.670267213E0,-1.122421265E0,-1.052528381E1,6.191680908E0
3.675394166E0,-1.880340576E-1,-1.096795654E1,5.668838501E0
3.680490601E0,1.972198486E-1,-1.062817383E1,4.930664062E0
3.685587037E0,-2.167358398E-1,-9.137451172E0,4.376724243E0
3.690713990E0,-4.823455811E-1,-7.807037354E0,4.727264404E0
3.696115601E0,-5.385742188E-1,-7.533065796E0,5.211822510E0
3.700937379E0,-5.282592773E-2,-8.316711426E0,5.498962402E0
3.706186402E0,4.305114746E-1,-8.493774414E0,5.185501099E0
3.711160767E0,1.147171021E0,-9.182907104E0,4.072830200E0
3.716257203E0,-1.729003906E0,-6.664459229E0,3.124084473E0
3.721384156E0,-4.808563232E0,-3.410232544E0,2.931457520E0
3.726511109E0,-5.317047119E0,-3.304946899E0,4.051300049E0
3.731607545E0,-4.274963379E0,-5.016998291E0,5.544418335E0
3.736734498E0,-3.068984985E0,-6.228973389E0,6.085189819E0
3.741830933E0,-1.964691162E0,-7.126281738E0,5.577911377E0
3.746957886E0,-8.197326660E-1,-8.206634521E0,4.581314087E0
3.752054322E0,1.960144043E-1,-9.357589722E0,3.127670288E0
3.757181275E0,7.511596680E-1,-1.014004517E1,1.520889282E0
3.762277711E0,1.206985474E0,-1.137113953E1,3.340454102E-1
3.767404664E0,1.863815308E0,-1.315739441E1,-4.627685547E-1
3.772470582E0,1.396026611E0,-1.317054749E1,-1.436645508E0
3.777597535E0,6.147613525E-1,-1.300663757E1,-2.683303833E0
3.782693970E0,-4.584197998E-1,-1.342657471E1,-3.682312012E0
3.787820923E0,-2.854827881E0,-1.275419617E1,-4.727966309E0
3.792917359E0,-5.488128662E0,-1.139627075E1,-5.143127441E0
3.798044312E0,-8.452835083E0,-9.152999878E0,-4.899063110E0
3.803140748E0,-1.052621460E1,-7.290191650E0,-3.476516724E0
3.808267701E0,-1.159939575E1,-6.310333252E0,-2.070739746E0
3.813364136E0,-1.143190002E1,-6.554397583E0,-1.144714355E0
3.818491089E0,-1.055732727E1,-7.833358765E0,-1.077713013E0
3.823587525E0,-9.703094482E0,-9.383911133E0,-1.388778687E0
3.828714478E0,-9.003189087E0,-1.136277771E1,-1.875717163E0
3.833810914E0,-8.862014771E0,-1.295280457E1,-2.329162598E0
3.838937867E0,-9.313064575E0,-1.303295898E1,9.992523193E-1
3.844034302E0,-1.006918335E1,-1.145130920E1,7.818801880E0
3.849161255E0,-1.068174744E1,-9.314514160E0,1.317153931E1
3.854227173E0,-1.053938293E1,-7.882415771E0,1.430334473E1
3.859354127E0,-9.448257446E0,-7.714920044E0,1.368240356E1
3.864450562E0,-8.621536255E0,-7.779525757E0,1.245608521E1
3.869577515E0,-8.554534912E0,-7.493576050E0,1.015538025E1
3.874673951E0,-8.609573364E0,-7.388290405E0,7.764953613E0
3.879800904E0,-8.437286377E0,-7.728073120E0,6.036148071E0
3.884897339E0,-8.096313477E0,-8.465057373E0,4.724884033E0
3.890024293E0,-7.676361084E0,-9.277420044E0,3.515304565E0
3.895120728E0,-7.183441162E0,-1.009815979E1,2.570144653E0
3.900247681E0,-6.731201172E0,-1.089497375E1,1.694366455E0
3.905344117E0,-6.393814087E0,-1.156137085E1,8.485107422E-1
3.910471070E0,-6.244262695E0,-1.182579041E1,3.735351562E-1
3.915567505E0,-6.362701416E0,-1.117852783E1,4.919738770E-1
3.920663941E0,-5.669982910E0,-1.134602356E1,4.979553223E-1
3.925760377E0,-5.301483154E0,-1.071791077E1,4.848022461E-1
3.930887330E0,-4.988037109E0,-9.621994019E0,6.558837891E-1
3.935983765E0,-4.008163452E0,-1.026327515E1,-5.764160156E-1
3.941110718E0,-3.963897705E0,-9.083602905E0,-9.676513672E-1
3.946207154E0,-3.516448975E0,-7.817810059E0,-5.441131592E-1
3.951334107E0,-2.553329468E0,-6.922882080E0,8.078308105E-1
3.956430543E0,-1.117645264E0,-6.608230591E0,2.025772095E0
3.961526978E0,1.338043213E-1,-6.183502197E0,2.836944580E0
3.966653931E0,1.281158447E0,-5.858078003E0,3.217391968E0
3.971750367E0,2.623535156E0,-6.176330566E0,3.320297241E0
3.976846802E0,3.786453247E0,-7.296173096E0,3.073822021E0
3.982004273E0,3.153549194E0,-6.601058960E0,2.781906128E0
3.987070191E0,2.235900879E0,-5.976531982E0,2.793869019E0
3.992197144E0,1.204589844E0,-5.658279419E0,2.512710571E0
3.997324097E0,1.780700684E-1,-5.245513916E0,2.199249268E0
4.002420533E0,-3.303985596E-1,-5.229965210E0,1.690780640E0
4.007516968E0,-7.718811035E-1,-5.143829346E0,1.057876587E0
4.012643922E0,-1.286331177E0,-5.267059326E0,4.261779785E-1
4.017740357E0,-1.842666626E0,-5.594879150E0,4.690551758E-2
4.022836793E0,-2.442062378E0,-6.175125122E0,7.910766602E-1
4.027994263E0,-3.023529053E0,-6.287597656E0,4.656524658E-1
4.033060181E0,-3.557128906E0,-6.189483643E0,3.077239990E-1
4.038614380E0,-3.985443115E0,-6.127273560E0,2.694396973E-1
4.043253052E0,-4.362304688E0,-6.209823608E0,4.369354248E-1
4.048654664E0,-4.891113281E0,-6.395278931E0,6.654510498E-1
4.053476441E0,-5.697509766E0,-6.468246460E0,1.047103882E0
4.058725464E0,-7.298294067E0,-6.335449219E0,1.833145142E0
4.063699830E0,-8.213562012E0,-6.504150391E0,1.999450684E0
4.068826783E0,-8.274566650E0,-6.869049072E0,1.705139160E0
4.073923218E0,-7.916839600E0,-7.285400391E0,1.179916382E0
4.079019654E0,-7.644058228E0,-7.664657593E0,8.173980713E-1
4.084146607E0,-7.797210693E0,-7.947021484E0,9.418182373E-1
4.089243043E0,-8.016143799E0,-8.222198486E0,1.000442505E0
4.094339478E0,-8.048446655E0,-8.617004395E0,9.131164551E-1
4.099466431E0,-7.773269653E0,-8.875427246E0,1.013610840E0
4.104562867E0,-7.236083984E0,-8.990295410E0,1.232559204E0
4.109689820E0,-6.633102417E0,-9.083602905E0,1.354583740E0
4.115640748E0,-6.077957153E0,-9.283401489E0,1.370132446E0
4.119913209E0,-5.367294312E0,-9.549011230E0,1.301940918E0
4.125009644E0,-4.722427368E0,-9.759582520E0,1.155975342E0
4.130106080E0,-4.345550537E0,-9.851699829E0,1.035140991E0
4.135202515E0,-4.240280151E0,-9.819396973E0,9.824981689E-1
4.140329468E0,-4.163696289E0,-9.729675293E0,9.561767578E-1
4.145425904E0,-4.099090576E0,-9.593276978E0,8.640594482E-1
4.150522339E0,-3.615753174E0,-9.501159668E0,6.989593506E-1
4.155649293E0,-3.287933350E0,-9.425781250E0,8.365325928E-1
4.160745728E0,-3.261611938E0,-9.443725586E0,9.956665039E-1
4.165872681E0,-2.958923340E0,-9.552597046E0,9.442138672E-1
4.170969117E0,-2.682540894E0,-9.706939697E0,8.688354492E-1
4.176065552E0,-2.369079590E0,-9.812225342E0,7.503967285E-1
4.181192505E0,-2.299697876E0,-9.966552734E0,6.475067139E-1
4.186288941E0,-4.201354980E-1,-1.124671936E1,8.688354492E-1
4.191385377E0,-1.080551147E0,-1.154940796E1,1.038726807E0
4.196512330E0,-2.101089478E0,-1.164392090E1,1.066253662E0
4.201608765E0,-2.824920654E0,-1.152787781E1,9.095153809E-1
4.206705201E0,-3.146759033E0,-1.112947083E1,5.829010010E-1
4.211832154E0,-3.237686157E0,-1.071551514E1,3.531951904E-1
4.216928589E0,-3.329803467E0,-1.039248657E1,4.704437256E-1
4.222025025E0,-3.502090454E0,-1.020225525E1,7.264709473E-1
4.227151978E0,-3.645660400E0,-1.003594971E1,9.286651611E-1
4.232278931E0,-3.753326416E0,-9.799057007E0,1.045913696E0
4.237375367E0,-3.984237671E0,-9.493972778E0,1.062667847E0
4.242471802E0,-4.495101929E0,-9.004638672E0,1.091369629E0
4.247568238E0,-5.277557373E0,-8.346618652E0,1.077011108E0
4.252695191E0,-6.071975708E0,-7.707733154E0,1.063858032E0
4.257791627E0,-6.576858521E0,-7.226776123E0,1.065048218E0
4.262918580E0,-6.599594116E0,-7.024581909E0,1.075820923E0
4.268015015E0,-6.210769653E0,-7.128677368E0,1.118896484E0
4.273141968E0,-5.559921265E0,-7.650314331E0,1.389282227E0
4.278207886E0,-5.184234619E0,-8.155197144E0,1.849899292E0
4.283334839E0,-5.258422852E0,-8.371749878E0,2.235137939E0
4.288431275E0,-5.642471313E0,-8.322692871E0,2.300949097E0
4.293558228E0,-6.051635742E0,-8.262863159E0,2.267440796E0
4.298654664E0,-6.274169922E0,-8.268844604E0,2.073623657E0
4.303781617E0,-6.240676880E0,-8.390884399E0,1.666854858E0
4.308878052E0,-6.094711304E0,-8.561965942E0,1.283996582E0
4.314005005E0,-5.882949829E0,-8.846725464E0,9.406280518E-1
4.319101441E0,-5.658020020E0,-9.152999878E0,7.791137695E-1
4.324197877E0,-5.497695923E0,-9.477233887E0,8.173980713E-1
4.329294312E0,-5.055023193E0,-9.814620972E0,8.652496338E-1
4.334421265E0,-4.651840210E0,-9.949813843E0,9.884796143E-1
4.339517701E0,-4.428115845E0,-9.949813843E0,1.097351074E0
4.344644654E0,-4.362304688E0,-9.911529541E0,1.172729492E0
4.349741089E0,-4.258224487E0,-9.885208130E0,1.361770630E0
4.354837525E0,-4.072769165E0,-9.875625610E0,1.617797852E0
4.359933961E0,-3.827514648E0,-9.876831055E0,1.839126587E0
4.365060914E0,-3.590621948E0,-9.818206787E0,1.925277710E0
4.370157349E0,-3.412353516E0,-9.735656738E0,1.914505005E0
4.375284302E0,-3.423126221E0,-9.655487061E0,1.968338013E0
4.380472291E0,-3.482940674E0,-9.619598389E0,1.819992065E0
4.385507691E0,-3.341766357E0,-9.595672607E0,1.604629517E0
4.390604127E0,-3.370483398E0,-9.424591064E0,1.407226562E0
4.395731080E0,-3.448242188E0,-9.258285522E0,1.213409424E0
4.401041138E0,-3.581054688E0,-9.090789795E0,1.029159546E0
4.405923951E0,-3.685134888E0,-8.946014404E0,8.114166260E-1
4.411142457E0,-3.852630615E0,-8.743820190E0,6.451110840E-1
4.416147339E0,-3.983047485E0,-8.552398682E0,5.601654053E-1
4.421243775E0,-4.081146240E0,-8.377731323E0,5.015411377E-1
4.426340211E0,-4.027313232E0,-8.278427124E0,4.453125000E-1
4.431467164E0,-3.875366211E0,-8.258087158E0,4.704437256E-1
4.436563599E0,-3.780853271E0,-8.340637207E0,5.326538086E-1
4.441690552E0,-3.723419189E0,-8.505737305E0,6.486968994E-1
4.446786988E0,-3.756927490E0,-8.712722778E0,6.929779053E-1
4.451883423E0,-3.803588867E0,-8.943634033E0,6.786193848E-1
4.457010377E0,-3.724624634E0,-9.160171509E0,6.451110840E-1
4.462106812E0,-3.685134888E0,-9.322891235E0,6.869812012E-1
4.467233765E0,-3.620529175E0,-9.382705688E0,7.384338379E-1
4.472330201E0,-3.734191895E0,-9.315719604E0,7.850952148E-1
4.477457154E0,-3.902877808E0,-9.137451172E0,9.190979004E-1
4.482553589E0,-4.191223145E0,-8.912521362E0,1.123672485E0
4.487650025E0,-4.489120483E0,-8.688796997E0,1.303146362E0
4.492776978E0,-4.661407471E0,-8.417205811E0,1.347412109E0
4.497873414E0,-4.809768677E0,-8.271240234E0,1.299545288E0
4.503000367E0,-4.970077515E0,-8.187500000E0,1.203842163E0
4.508096802E0,-5.157913208E0,-8.162368774E0,1.181106567E0
4.513223755E0,-5.062210083E0,-8.125289917E0,1.244522095E0
4.518320191E0,-5.045455933E0,-8.063064575E0,1.469436646E0
4.523416627E0,-5.129211426E0,-7.884811401E0,1.837936401E0
4.528543580E0,-5.267990112E0,-7.651504517E0,2.262664795E0
4.533640015E0,-5.338577271E0,-7.586898804E0,2.570144653E0
4.538736451E0,-5.386428833E0,-7.659881592E0,2.828567505E0
4.543863404E0,-5.406768799E0,-7.889587402E0,2.994873047E0
4.548959839E0,-5.430709839E0,-8.366958618E0,3.048706055E0
4.554086793E0,-5.441467285E0,-8.704345703E0,2.931457520E0
4.559183228E0,-5.254837036E0,-9.135055542E0,2.679016113E0
4.564279664E0,-4.858810425E0,-9.571746826E0,2.372726440E0
4.569406617E0,-4.321624756E0,-1.002996826E1,2.157379150E0
4.574503052E0,-4.030899048E0,-1.041760254E1,1.922882080E0
4.579599488E0,-4.155334473E0,-1.063536072E1,1.561569214E0
4.584726441E0,-4.424514771E0,-1.076576233E1,1.256484985E0
4.589822877E0,-4.793014526E0,-1.070713806E1,9.262695312E-1
4.594949830E0,-5.197402954E0,-1.047264099E1,5.111083984E-1
4.600046265E0,-5.366088867E0,-1.012448120E1,-7.632446289E-2
4.605173218E0,-5.263198853E0,-9.736846924E0,-8.384399414E-1
4.610269654E0,-4.946151733E0,-9.435348511E0,-1.589782715E0
4.615396607E0,-4.971282959E0,-8.987899780E0,-2.454788208E0
4.620493043E0,-4.854034424E0,-8.523681641E0,-3.152297974E0
4.625619996E0,-4.746353149E0,-7.917114258E0,-3.600952148E0
4.630716431E0,-4.961715698E0,-6.956390381E0,-4.305633545E0
4.635812867E0,-1.806777954E0,-6.170349121E0,-1.930755615E0
4.640909302E0,6.674041748E-1,-7.019805908E0,1.264862061E0
4.646036255E0,8.116149902E-2,-8.114517212E0,3.666046143E0
4.651132691E0,-1.641662598E0,-8.471038818E0,4.808624268E0
4.656259644E0,-3.146759033E0,-8.450714111E0,4.940231323E0
4.661356080E0,-4.096710205E0,-8.402847290E0,4.315704346E0
4.666452515E0,-4.638671875E0,-8.648117065E0,3.459075928E0
4.671579468E0,-4.915054321E0,-9.017807007E0,2.602447510E0
4.676675904E0,-5.037078857E0,-9.365966797E0,1.930053711E0
4.681772339E0,-4.909072876E0,-9.540634155E0,1.495758057E0
4.686899293E0,-4.627914429E0,-9.599258423E0,1.116500854E0
4.691995728E0,-4.121826172E0,-9.550201416E0,8.796081543E-1
4.697122681E0,-3.508071899E0,-9.459274292E0,8.784179688E-1
4.702219117E0,-3.100097656E0,-9.202056885E0,9.202880859E-1
4.707315552E0,-2.924224854E0,-8.734252930E0,1.103332520E0
4.712442505E0,-2.766296387E0,-8.168350220E0,1.452697754E0
4.717538941E0,-2.501892090E0,-7.683807373E0,1.802047729E0
4.722665894E0,-2.317642212E0,-7.227981567E0,2.224380493E0
4.727762330E0,-2.310455322E0,-6.841537476E0,2.680206299E0
4.732980836E0,-2.378662109E0,-6.877426147E0,2.817794800E0
4.737985718E0,-2.081939697E0,-7.743621826E0,3.226974487E0
4.743539918E0,-2.284133911E0,-8.015213013E0,3.699554443E0
4.748209107E0,-2.871582031E0,-8.016403198E0,3.998657227E0
4.753610718E0,-3.432693481E0,-7.845321655E0,4.416198730E0
4.758432496E0,-4.044067383E0,-7.164566040E0,4.917495728E0
4.763681519E0,-4.754730225E0,-6.021987915E0,5.323089600E0
4.768655884E0,-5.693908691E0,-5.256286621E0,4.620788574E0
4.773752320E0,-5.978652954E0,-6.974334717E0,3.295166016E0
4.778848755E0,-5.817138672E0,-7.730468750E0,1.674026489E0
4.783975709E0,-5.689132690E0,-7.629974365E0,9.597778320E-1
4.789072144E0,-5.497695923E0,-7.895568848E0,-5.333557129E-1
4.794199097E0,-4.763107300E0,-9.319305420E0,-1.654388428E0
4.799295533E0,-3.918441772E0,-1.105050659E1,-2.545715332E0
4.804422486E0,-3.433898926E0,-1.228759766E1,-3.105636597E0
4.809518922E0,-3.403976440E0,-1.253764343E1,-2.783798218E0
4.814645875E0,-3.716247559E0,-1.177314758E1,-2.586395264E0
4.819742310E0,-3.843063354E0,-1.149317932E1,-1.513214111E0
4.824869263E0,-4.009368896E0,-1.156616211E1,-9.460449219E-4
4.829965699E0,-4.157714844E0,-1.182698059E1,9.908752441E-1
4.835092652E0,-4.247451782E0,-1.177673340E1,1.719497681E0
4.840158570E0,-4.053634644E0,-1.135081482E1,1.620193481E0
4.845285523E0,-3.706680298E0,-1.086985779E1,1.470642090E0
4.850381959E0,-3.095306396E0,-1.059228516E1,1.281600952E0
4.855508912E0,-2.031692505E0,-1.064013672E1,1.439529419E0
4.860605347E0,-5.230255127E-1,-1.149797058E1,8.126068115E-1
4.865732300E0,1.141189575E0,-1.263694763E1,1.641540527E-1
4.870828736E0,1.677185059E0,-1.255439758E1,-6.661529541E-1
4.875955689E0,3.730926514E-1,-1.061022949E1,-7.451171875E-1
4.881021607E0,-6.881256104E-1,-9.705749512E0,-2.761230469E-1
4.886148560E0,-1.305480957E0,-9.965362549E0,3.733825684E-2
4.891244996E0,-1.629699707E0,-1.063175964E1,4.417266846E-1
4.896371949E0,-2.023315430E0,-1.140583801E1,5.996551514E-1
4.901468384E0,-2.741165161E0,-1.212727356E1,4.477081299E-1
4.906595338E0,-3.621734619E0,-1.252926636E1,8.030395508E-1
4.911691773E0,-4.674575806E0,-1.211412048E1,8.712310791E-1
4.916818726E0,-7.251632690E0,-9.234359741E0,2.777099609E-2
4.921915162E0,-8.069992065E0,-7.695770264E0,2.239837646E-1
4.927042115E0,-7.654830933E0,-7.689788818E0,1.037536621E0
4.932138550E0,-6.770675659E0,-9.058486938E0,1.859466553E0
4.937234986E0,-5.218933105E0,-1.129098511E1,2.354782104E0
4.942331422E0,-2.966094971E0,-1.412408447E1,2.931457520E0
4.947458375E0,-6.558227539E-1,-1.696916199E1,3.180313110E0
4.952554810E0,-6.821441650E-1,-1.672868347E1,2.351196289E0
4.957681763E0,-3.073776245E0,-1.296476746E1,1.498153687E0
4.962778199E0,-4.475967407E0,-1.005389404E1,1.437133789E0
4.967905152E0,-4.888732910E0,-8.600250244E0,1.518493652E0
4.973001588E0,-5.075363159E0,-8.413619995E0,2.000640869E0
4.978128541E0,-5.142364502E0,-9.240341187E0,3.095367432E0
4.983224976E0,-5.009567261E0,-1.053605652E1,3.085800171E0
4.988321412E0,-4.562103271E0,-1.194064331E1,2.509124756E0
4.993448365E0,-3.996200562E0,-1.304133606E1,2.226776123E0
4.998544800E0,-3.612152100E0,-1.337034607E1,2.147811890E0
5.003641236E0,-3.397994995E0,-1.290972900E1,2.328460693E0
5.008768189E0,-3.358520508E0,-1.192149353E1,2.501937866E0
5.013864625E0,-3.088134766E0,-1.083993530E1,1.864257812E0
5.018991578E0,-2.671783447E0,-9.860076904E0,1.278015137E0
5.024088013E0,-2.318832397E0,-9.115905762E0,1.065048218E0
5.029214966E0,-2.217147827E0,-8.741439819E0,1.041122437E0
5.034311402E0,-2.394210815E0,-8.693572998E0,9.693450928E-1
5.039438355E0,-2.759109497E0,-8.853897095E0,9.824981689E-1
5.044504273E0,-3.127609253E0,-9.030960083E0,1.244522095E0
5.049631226E0,-3.344161987E0,-9.113525391E0,1.609420776E0
5.055643189E0,-3.392013550E0,-9.083602905E0,1.803237915E0
5.059854615E0,-3.255630493E0,-9.042922974E0,1.814010620E0
5.064951050E0,-3.314254761E0,-8.907730103E0,1.681213379E0
5.070078004E0,-3.560714722E0,-8.553604126E0,1.577117920E0
5.075174439E0,-3.642074585E0,-8.107330322E0,1.356979370E0
5.080301392E0,-3.527206421E0,-7.786697388E0,1.189483643E0
5.085397828E0,-3.348953247E0,-7.543823242E0,1.202636719E0
5.090524781E0,-3.352539062E0,-7.281814575E0,1.403640747E0
5.096048463E0,-3.600189209E0,-7.034149170E0,1.938430786E0
5.100717652E0,-4.222320557E0,-6.664459229E0,2.637145996E0
5.106119263E0,-4.968887329E0,-6.074630737E0,2.966156006E0
5.110941041E0,-5.635284424E0,-5.324478149E0,3.024780273E0
5.116159547E0,-6.251434326E0,-4.597061157E0,2.846511841E0
5.121164429E0,-6.738372803E0,-3.952194214E0,2.559371948E0
5.126260865E0,-6.987228394E0,-3.575332642E0,2.182495117E0
5.131357300E0,-7.006378174E0,-3.453292847E0,1.749404907E0
5.136484254E0,-6.854431152E0,-3.621994019E0,1.324676514E0
5.141580689E0,-6.606781006E0,-4.000061035E0,6.630554199E-1
5.146677125E0,-6.306472778E0,-4.575531006E0,1.282653809E-1
5.151804078E0,-5.837478638E0,-5.312515259E0,-3.754272461E-1
5.156900513E0,-5.388824463E0,-6.056686401E0,-6.302642822E-1
5.161996949E0,-4.843261719E0,-6.864257812E0,-5.034332275E-1
5.167123902E0,-4.440078735E0,-7.584503174E0,-2.378387451E-1
5.172220338E0,-4.060806274E0,-8.454299927E0,1.354370117E-1
5.177347291E0,-3.794006348E0,-9.160171509E0,5.218811035E-1
5.182443726E0,-3.776062012E0,-9.923492432E0,3.818969727E-1
5.187540162E0,-3.577453613E0,-1.070594788E1,6.724548340E-2
5.192667115E0,-2.682540894E0,-1.218231201E1,6.175994873E-1
5.197763550E0,-1.306671143E0,-1.368261719E1,9.729309082E-1
5.202859986E0,-3.064727783E-1,-1.474861145E1,1.799652100E0
5.207986939E0,-2.890014648E-2,-1.529417419E1,2.622787476E0
5.213083375E0,-5.648956299E-1,-1.566746521E1,3.432754517E0
5.218210328E0,-1.744552612E0,-1.597134399E1,3.828765869E0
5.223306763E0,-3.025909424E0,-1.644990540E1,3.602645874E0
5.228433716E0,-3.699493408E0,-1.736157227E1,2.479217529E0
5.233530152E0,-4.243865967E0,-1.785569763E1,1.516098022E0
5.238657105E0,-5.051437378E0,-1.697154236E1,1.222976685E0
5.243753541E0,-5.940368652E0,-1.477253723E1,1.102142334E0
5.248849976E0,-6.164108276E0,-1.299588013E1,1.219390869E0
5.253976929E0,-5.766891479E0,-1.215121460E1,1.427566528E0
5.259073365E0,-5.300292969E0,-1.190953064E1,1.561569214E0
5.264169800E0,-4.903091431E0,-1.184373474E1,1.690780640E0
5.269296754E0,-4.392211914E0,-1.168699646E1,1.624969482E0
5.274393189E0,-3.127609253E0,-1.098948669E1,1.767349243E0
5.279520142E0,-4.021911621E-1,-9.150604248E0,2.351196289E0
5.284616578E0,3.689575195E-2,-9.070449829E0,2.091567993E0
5.289713013E0,-1.218139648E0,-9.909133911E0,1.700347900E0
5.294839966E0,-3.007965088E0,-1.063415527E1,1.376113892E0
5.299936402E0,-4.347946167E0,-1.085668945E1,1.123672485E0
5.305032838E0,-4.911453247E0,-1.069996643E1,9.968566895E-1
5.310159791E0,-4.697296143E0,-1.046546936E1,1.078216553E0
5.315256226E0,-4.046447754E0,-1.034223938E1,9.765167236E-1
5.320383179E0,-3.332199097E0,-1.018070984E1,5.757293701E-1
5.325479615E0,-2.964904785E0,-9.832565308E0,4.393310547E-1
5.330606568E0,-3.013946533E0,-9.334854126E0,6.056365967E-1
5.335703004E0,-3.320236206E0,-8.880218506E0,1.013610840E0
5.340799439E0,-3.674377441E0,-8.534454346E0,1.434738159E0
5.345895875E0,-3.983047485E0,-8.331069946E0,1.737442017E0
5.351022828E0,-4.283340454E0,-8.181518555E0,1.915710449E0
5.356119263E0,-4.511856079E0,-8.092987061E0,1.973129272E0
5.361246216E0,-4.693710327E0,-8.066665649E0,2.183700562E0
5.366342652E0,-4.779861450E0,-8.137252808E0,2.249496460E0
5.371469605E0,-4.649444580E0,-8.351409912E0,2.361968994E0
5.376566041E0,-4.362304688E0,-8.639739990E0,2.397857666E0
5.381692994E0,-3.981842041E0,-9.100357056E0,1.860671997E0
5.386789429E0,-3.541564941E0,-9.552597046E0,1.629760742E0
5.391916382E0,-5.039474487E0,-7.230361938E0,1.982696533E0
5.397012818E0,-5.470184326E0,-6.356979370E0,2.271041870E0
5.402109254E0,-4.673370361E0,-7.696960449E0,1.824768066E0
5.407205689E0,-4.030899048E0,-8.907730103E0,1.560363770E0
5.412332642E0,-3.857421875E0,-9.395874023E0,1.407226562E0
5.417429078E0,-3.992614746E0,-9.397064209E0,1.291183472E0
5.422556031E0,-4.209167480E0,-9.283401489E0,1.164352417E0
5.427652466E0,-4.358718872E0,-9.255889893E0,1.087783813E0
5.432748902E0,-4.373077393E0,-9.287002563E0,1.073425293E0
5.437906373E0,-4.255828857E0,-9.418609619E0,1.013610840E0
5.442972291E0,-4.134994507E0,-9.620803833E0,1.050704956E0
5.448526490E0,-3.983047485E0,-9.813415527E0,1.427566528E0
5.453195679E0,-3.965103149E0,-9.974929810E0,1.708724976E0
5.458475220E0,-3.947158813E0,-1.005987549E1,1.892974854E0
5.463419068E0,-4.023727417E0,-9.988098145E0,1.895370483E0
5.468637574E0,-4.097900391E0,-9.819396973E0,1.799652100E0
5.473611939E0,-4.063201904E0,-9.638748169E0,1.590286255E0
5.478708375E0,-3.957916260E0,-9.515518188E0,1.501739502E0
5.483835328E0,-3.811950684E0,-9.358779907E0,1.562759399E0
5.488931763E0,-3.737777710E0,-9.109924316E0,1.666854858E0
5.494028199E0,-4.095504761E0,-7.951797485E0,1.793670654E0
5.499155152E0,-4.731994629E0,-6.613021851E0,1.888183594E0
5.504251588E0,-5.070587158E0,-6.215805054E0,1.836746216E0
5.509348023E0,-5.254837036E0,-5.868850708E0,1.914505005E0
5.514444459E0,-5.874572754E0,-4.616210938E0,1.669235229E0
5.519571412E0,-6.377059937E0,-4.025177002E0,1.257675171E0
5.524667847E0,-6.642669678E0,-4.068252563E0,1.103332520E0
5.529794800E0,-6.600799561E0,-4.606643677E0,1.195465088E0
5.534891236E0,-6.424926758E0,-5.463272095E0,1.378509521E0
5.540018189E0,-6.077957153E0,-6.413223267E0,1.554382324E0
5.545084107E0,-5.531204224E0,-7.304550171E0,1.754180908E0
5.550211060E0,-4.743957520E0,-8.217407227E0,2.050903320E0
5.555307496E0,-3.904083252E0,-9.091979980E0,2.059265137E0
5.560434449E0,-3.183837891E0,-9.837341309E0,1.873825073E0
5.565530884E0,-2.780654907E0,-1.018070984E1,1.796066284E0
5.570627320E0,-2.948150635E0,-1.036975098E1,1.748199463E0
5.575723755E0,-3.342971802E0,-1.047982788E1,1.693176270E0
5.580850709E0,-3.947158813E0,-1.004193115E1,1.506530762E0
5.585947144E0,-4.417343140E0,-9.745223999E0,1.591476440E0
5.591074097E0,-4.735580444E0,-9.939041138E0,1.763763428E0
5.596170533E0,-4.822921753E0,-1.042478943E1,1.956375122E0
5.601266968E0,-4.696105957E0,-1.098350525E1,2.071243286E0
5.606363404E0,-4.657821655E0,-1.108041382E1,2.199249268E0
5.611490357E0,-4.833694458E0,-1.098590088E1,2.381103516E0
5.616586793E0,-5.098098755E0,-1.068321228E1,2.428970337E0
5.621683228E0,-5.458221436E0,-1.029557800E1,2.150192261E0
5.626779664E0,-5.827911377E0,-9.885208130E0,1.668045044E0
5.631876099E0,-5.990615845E0,-9.538238525E0,1.439529419E0
5.636972535E0,-6.002593994E0,-9.325286865E0,1.479019165E0
5.642099488E0,-6.036087036E0,-9.077621460E0,1.627365112E0
5.647195923E0,-6.028915405E0,-8.937652588E0,1.571136475E0
5.652292359E0,-5.957122803E0,-8.876632690E0,1.520889282E0
5.657419312E0,-5.964294434E0,-8.417205811E0,1.190673828E0
5.662515748E0,-6.299301147E0,-7.700561523E0,4.237823486E-1
5.667612183E0,-6.396209717E0,-7.649108887E0,2.156066895E-1
5.672739136E0,-5.467788696E0,-8.654098511E0,1.196655273E0
5.677835572E0,-4.465194702E0,-8.967559814E0,2.278213501E0
5.682932007E0,-4.065597534E0,-9.021392822E0,2.966156006E0
5.688028443E0,-4.175674438E0,-8.784500122E0,3.171936035E0
5.693155396E0,-4.558517456E0,-8.461471558E0,3.022384644E0
5.698251832E0,-4.649444580E0,-8.277221680E0,2.640731812E0
5.703348267E0,-4.980850220E0,-8.534454346E0,2.160964966E0
5.708444703E0,-5.131607056E0,-9.052505493E0,2.032943726E0
5.713571656E0,-5.246459961E0,-9.199661255E0,1.940826416E0
5.718668091E0,-5.524017334E0,-9.516708374E0,1.976715088E0
5.723764527E0,-5.809967041E0,-9.590881348E0,1.999450684E0
5.728860963E0,-5.641265869E0,-9.919906616E0,2.230361938E0
5.733987916E0,-5.602981567E0,-9.660278320E0,2.223175049E0
5.739084351E0,-5.589828491E0,-9.466461182E0,1.985092163E0
5.744211304E0,-5.515640259E0,-9.405441284E0,1.809219360E0
5.749307740E0,-5.545562744E0,-9.313323975E0,1.835540771E0
5.754404175E0,-5.675964355E0,-9.075225830E0,1.939636230E0
5.759531129E0,-5.684341431E0,-8.826385498E0,2.144210815E0
5.764627564E0,-4.716445923E0,-7.792678833E0,1.948013306E0
5.769724000E0,-4.399398804E0,-8.016403198E0,1.555587769E0
5.774850953E0,-5.806381226E0,-6.268447876E0,1.391677856E0
5.779947388E0,-4.861206055E0,-7.802246094E0,1.622589111E0
5.785074341E0,-4.139770508E0,-8.402847290E0,2.272232056E0
5.790170777E0,-4.072769165E0,-8.237747192E0,2.786697388E0
5.795267213E0,-4.018936157E0,-8.121688843E0,2.991271973E0
5.800424683E0,-3.853836060E0,-8.235351562E0,2.830963135E0
5.805490601E0,-3.802383423E0,-8.420791626E0,2.504333496E0
5.810587037E0,-3.852630615E0,-8.289184570E0,2.035339355E0
5.815683472E0,-4.076370239E0,-8.066665649E0,1.475418091E0
5.821054566E0,-4.394607544E0,-7.978118896E0,1.049499512E0
5.825906861E0,-4.559707642E0,-8.362167358E0,7.647552490E-1
5.831155884E0,-5.049041748E0,-9.340835571E0,7.719268799E-1
5.836130250E0,-5.900894165E0,-1.028839111E1,1.029159546E0
5.841287720E0,-6.799392700E0,-1.076934814E1,1.218200684E0
5.846353638E0,-7.531600952E0,-1.098350525E1,1.304336548E0
5.851480591E0,-9.418334961E0,-1.050613403E1,1.341430664E0
5.856577027E0,-8.763900757E0,-1.033863831E1,1.770935059E0
5.861917603E0,-7.616546631E0,-1.068679810E1,1.863067627E0
5.866800416E0,-6.753936768E0,-1.069517517E1,2.286590576E0
5.871896851E0,-6.493118286E0,-1.010774231E1,2.439727783E0
5.876993287E0,-6.241867065E0,-9.431762695E0,2.491180420E0
5.882120240E0,-5.863800049E0,-8.917312622E0,2.486389160E0
5.887216675E0,-5.278762817E0,-8.382507324E0,2.396667480E0
5.892343629E0,-4.562103271E0,-7.881210327E0,2.243515015E0
5.897440064E0,-3.930404663E0,-7.444519043E0,2.072433472E0
5.902567017E0,-3.627716064E0,-6.906143188E0,1.870239258E0
5.907663453E0,-3.502090454E0,-6.549606323E0,1.764953613E0
5.912790406E0,-3.497299194E0,-6.471847534E0,1.760162354E0
5.917886841E0,-3.582244873E0,-6.431167603E0,1.848709106E0
5.922983277E0,-3.908874512E0,-6.583114624E0,2.092773438E0
5.928110230E0,-4.266601562E0,-6.732666016E0,2.475616455E0
5.933206666E0,-4.721237183E0,-6.742233276E0,2.655090332E0
5.938303101E0,-5.052642822E0,-7.019805908E0,2.683792114E0
5.943430054E0,-5.211761475E0,-7.537841797E0,2.419387817E0
5.948526490E0,-5.363708496E0,-8.098968506E0,2.012619019E0
5.953683961E0,-5.066986084E0,-8.252105713E0,1.835540771E0
5.958749879E0,-4.766693115E0,-8.195877075E0,1.693176270E0
5.963876832E0,-4.858810425E0,-8.077423096E0,1.560363770E0
5.968973267E0,-5.394805908E0,-7.804641724E0,1.495758057E0
5.974100220E0,-6.147354126E0,-7.433761597E0,1.571136475E0
5.979196656E0,-6.856826782E0,-7.058090210E0,1.727859497E0
5.984323609E0,-7.207366943E0,-6.851104736E0,1.889389038E0
5.989420045E0,-7.167892456E0,-6.865463257E0,1.961166382E0
5.995523560E0,-6.776672363E0,-7.030563354E0,1.965957642E0
5.999612916E0,-6.201187134E0,-7.367950439E0,2.034149170E0
6.004739869E0,-5.638870239E0,-7.734054565E0,2.065261841E0
6.009836304E0,-5.163909912E0,-8.036743164E0,1.959976196E0
6.014963257E0,-4.873168945E0,-8.291580200E0,1.845108032E0
6.020059693E0,-4.901885986E0,-8.784500122E0,1.693176270E0
6.025156129E0,-5.013153076E0,-9.251098633E0,1.688385010E0
6.030283082E0,-5.312255859E0,-9.501159668E0,1.731460571E0
6.035379517E0,-5.668792725E0,-9.611221313E0,1.817596436E0
6.040475953E0,-6.014556885E0,-9.610031128E0,1.891769409E0
6.045602906E0,-6.343566895E0,-9.602844238E0,1.956375122E0
6.050699341E0,-6.773071289E0,-9.496368408E0,2.030563354E0
6.055826295E0,-7.249252319E0,-9.198471069E0,2.131057739E0
6.060922730E0,-7.504089355E0,-8.707931519E0,2.311721802E0
6.066049683E0,-7.706283569E0,-8.069046021E0,2.550994873E0
6.071146119E0,-7.888137817E0,-7.535446167E0,2.682601929E0
6.076273072E0,-8.044860840E0,-7.122695923E0,2.650299072E0
6.081369507E0,-8.158523560E0,-6.781707764E0,2.540237427E0
6.086465943E0,-8.025726318E0,-6.542434692E0,2.286590576E0
6.091562379E0,-7.632095337E0,-6.386901855E0,2.055679321E0
6.096689332E0,-7.262405396E0,-6.155990601E0,1.857086182E0
6.101785767E0,-7.053039551E0,-5.960968018E0,1.674026489E0
6.106912720E0,-6.958526611E0,-5.937042236E0,1.500549316E0
6.112009156E0,-7.002792358E0,-5.944229126E0,1.382110596E0
6.117136109E0,-7.068588257E0,-6.099761963E0,1.280410767E0
6.122232545E0,-6.980056763E0,-6.599853516E0,1.297164917E0
6.127328980E0,-6.667785645E0,-7.157379150E0,1.526870728E0
6.132425416E0,-6.398605347E0,-7.457687378E0,1.663253784E0
6.137552369E0,-6.190429688E0,-7.556991577E0,1.672836304E0
6.142648804E0,-5.857818604E0,-7.467254639E0,1.779312134E0
6.147745240E0,-5.679550171E0,-7.072433472E0,2.105926514E0
6.152933228E0,-5.914047241E0,-6.592681885E0,2.251892090E0
6.157968629E0,-6.237091064E0,-6.242126465E0,2.038940430E0
6.163095582E0,-6.491912842E0,-6.211029053E0,1.913314819E0
6.168192017E0,-6.341171265E0,-6.431167603E0,1.969543457E0
6.173593629E0,-6.032501221E0,-6.635757446E0,2.023376465E0
6.178415406E0,-5.955932617E0,-6.767349243E0,2.035339355E0
6.183664429E0,-6.380645752E0,-7.007827759E0,1.946807861E0
6.188608277E0,-7.009963989E0,-7.111923218E0,1.825973511E0
6.193735230E0,-7.519638062E0,-7.195663452E0,1.808029175E0
6.198831666E0,-7.870178223E0,-7.217208862E0,1.833145142E0
6.203958619E0,-8.075973511E0,-7.239944458E0,1.962356567E0
6.209055054E0,-8.158523560E0,-7.031768799E0,2.020980835E0
6.214151490E0,-8.152542114E0,-6.753005981E0,1.943222046E0
6.219278443E0,-8.102294922E0,-6.575927734E0,1.727859497E0
6.224374879E0,-8.017349243E0,-6.556793213E0,1.543624878E0
6.229471314E0,-7.981445312E0,-6.638137817E0,1.364151001E0
6.234598267E0,-8.062805176E0,-6.755386353E0,1.206237793E0
6.239694703E0,-8.062805176E0,-6.840332031E0,1.098556519E0
6.244791138E0,-7.920440674E0,-6.843933105E0,1.114105225E0
6.249918091E0,-7.920440674E0,-6.778121948E0,1.120086670E0
6.255014527E0,-7.982650757E0,-6.712326050E0,1.201446533E0
6.260141480E0,-7.870178223E0,-6.571136475E0,1.224182129E0
6.265237916E0,-7.474166870E0,-6.203842163E0,1.019592285E0
6.270334351E0,-7.822326660E0,-6.275634766E0,9.143066406E-1
6.275461304E0,-8.308074951E0,-6.456283569E0,9.645538330E-1
6.280557740E0,-8.538986206E0,-6.660873413E0,1.134445190E0
6.285684693E0,-8.628707886E0,-6.931259155E0,1.177520752E0
6.290781129E0,-8.834487915E0,-7.375137329E0,1.171539307E0
6.295908082E0,-9.119232178E0,-7.743621826E0,1.187088013E0
6.301004517E0,-9.342971802E0,-8.043930054E0,1.118896484E0
6.306131470E0,-9.554733276E0,-8.374130249E0,1.388092041E0
6.311227906E0,-9.535583496E0,-8.455490112E0,1.727859497E0
6.316324341E0,-9.591827393E0,-8.429168701E0,2.031753540E0
6.321451295E0,-1.008474731E1,-8.520095825E0,2.688583374E0
6.326578248E0,-1.001295471E1,-8.400451660E0,2.821380615E0
6.331674683E0,-9.594207764E0,-8.471038818E0,2.559371948E0
6.336801636E0,-9.394409180E0,-8.535644531E0,2.127471924E0
6.341898072E0,-9.225723267E0,-8.670852661E0,1.788879395E0
6.346994507E0,-9.140777588E0,-8.785705566E0,1.626174927E0
6.352090943E0,-9.114456177E0,-8.856292725E0,1.705139160E0
6.357217896E0,-9.070190430E0,-8.640930176E0,1.756576538E0
6.362314332E0,-8.968490601E0,-8.268844604E0,1.773330688E0
6.367441285E0,-8.664596558E0,-7.649108887E0,1.645309448E0
6.372537720E0,-8.326019287E0,-6.985107422E0,1.525665283E0
6.377664673E0,-8.304489136E0,-6.510131836E0,1.419189453E0
6.382761109E0,-8.382247925E0,-6.236145020E0,1.471832275E0
6.387888062E0,-8.449249268E0,-6.176330566E0,1.551986694E0
6.392984498E0,-8.513854980E0,-6.201446533E0,1.597457886E0
6.398325074E0,-8.509063721E0,-6.191879272E0,1.534042358E0
6.403207886E0,-8.434890747E0,-6.218200684E0,1.441925049E0
6.408304322E0,-8.391815186E0,-6.275634766E0,1.427566528E0
6.413400757E0,-8.227905273E0,-6.274429321E0,1.486190796E0
6.418527711E0,-8.122634888E0,-6.178726196E0,1.474227905E0
6.423624146E0,-8.007766724E0,-5.823379517E0,1.452697754E0
6.428751099E0,-7.775665283E0,-5.409423828E0,1.301940918E0
6.433847535E0,-7.694305420E0,-5.086395264E0,1.300750732E0
6.438943970E0,-7.583053589E0,-4.837539673E0,1.329467773E0
6.444070923E0,-7.309066772E0,-4.619796753E0,1.263656616E0
6.449197877E0,-7.140380859E0,-4.567153931E0,1.334243774E0
6.454294312E0,-6.951339722E0,-4.631759644E0,1.421585083E0
6.459421265E0,-7.233688354E0,-5.178527832E0,1.392868042E0
6.464517701E0,-7.035095215E0,-5.048110962E0,1.741027832E0
6.469644654E0,-6.710861206E0,-4.837539673E0,1.569946289E0
6.474741089E0,-6.782653809E0,-4.808822632E0,1.434738159E0
6.479837525E0,-6.927413940E0,-4.971542358E0,1.390472412E0
6.484933961E0,-7.127212524E0,-5.124679565E0,1.519683838E0
6.490060914E0,-7.414352417E0,-5.234756470E0,1.648910522E0
6.495157349E0,-7.813949585E0,-5.324478149E0,1.769744873E0
6.500284302E0,-7.699096680E0,-5.194076538E0,1.933654785E0
6.505411255E0,-7.408370972E0,-4.738235474E0,1.974334717E0
6.510477173E0,-7.388031006E0,-4.490585327E0,1.934844971E0
6.516000855E0,-7.471786499E0,-4.277618408E0,1.970733643E0
6.520700562E0,-7.510070801E0,-4.058685303E0,2.093963623E0
6.526102173E0,-7.604583740E0,-3.868453979E0,2.363159180E0
6.530923951E0,-7.766098022E0,-3.794281006E0,2.663467407E0
6.536172974E0,-7.825912476E0,-3.738037109E0,2.823776245E0
6.541116822E0,-7.828308105E0,-3.638732910E0,2.850097656E0
6.546243775E0,-7.502883911E0,-3.416213989E0,2.647903442E0
6.551340211E0,-7.589035034E0,-3.176925659E0,2.664657593E0
6.556467164E0,-7.690719604E0,-2.941238403E0,2.475616455E0
6.561563599E0,-7.670379639E0,-2.803649902E0,2.176513672E0
6.566690552E0,-7.581848145E0,-2.910125732E0,1.861862183E0
6.571786988E0,-7.496902466E0,-3.192474365E0,1.562759399E0
6.576913941E0,-8.020935059E0,-2.978317261E0,1.212219238E0
6.582010377E0,-7.818740845E0,-3.900756836E0,-3.144073486E-1
6.587106812E0,-7.060211182E0,-4.507339478E0,-6.123199463E-1
6.592203248E0,-7.228912354E0,-4.717895508E0,-7.034301758E-2
6.597330201E0,-7.573471069E0,-4.940429688E0,6.211853027E-1
6.602426636E0,-7.946762085E0,-5.050506592E0,1.072235107E0
6.607553589E0,-7.671585083E0,-5.299362183E0,1.323486328E0
6.612650025E0,-7.541168213E0,-5.223983765E0,1.379714966E0
6.617776978E0,-7.520828247E0,-5.299362183E0,1.499359131E0
6.622873414E0,-7.533996582E0,-5.334060669E0,1.415603638E0
6.628000367E0,-7.709869385E0,-5.445327759E0,1.346206665E0
6.633096802E0,-8.006576538E0,-5.517105103E0,1.480209351E0
6.638223755E0,-8.471984863E0,-5.494369507E0,1.342620850E0
6.643320191E0,-8.988830566E0,-5.829376221E0,1.213409424E0
6.648416627E0,-9.977066040E0,-6.366561890E0,1.227767944E0
6.653543580E0,-1.090667725E1,-7.241134644E0,1.427566528E0
6.658640015E0,-1.135293579E1,-8.213821411E0,1.940826416E0
6.663766968E0,-1.156709290E1,-8.742630005E0,3.109725952E0
6.668893922E0,-1.061474609E1,-8.461471558E0,3.333450317E0
6.673990357E0,-9.487731934E0,-8.081008911E0,2.811813354E0
6.679086793E0,-8.793807983E0,-7.574935913E0,2.334442139E0
6.684183228E0,-8.598800659E0,-7.122695923E0,2.286590576E0
6.689310181E0,-8.762710571E0,-6.439544678E0,1.975524902E0
6.694406617E0,-8.844070435E0,-5.737243652E0,1.778121948E0
6.699533570E0,-8.998397827E0,-5.078018188E0,1.804443359E0
6.704630005E0,-8.978057861E0,-4.491775513E0,1.969543457E0
6.709756959E0,-8.355926514E0,-3.533462524E0,7.121124268E-1
6.714853394E0,-9.480560303E0,-3.753601074E0,8.724365234E-1
6.719949830E0,-1.015533447E1,-3.373138428E0,1.007629395E0
6.725046265E0,-1.004765320E1,-3.281005859E0,8.425292969E-1
6.730173218E0,-9.881347656E0,-3.267852783E0,7.145080566E-1
6.735269654E0,-9.884948730E0,-3.543029785E0,5.936737061E-1
6.740396607E0,-9.815551758E0,-3.791885376E0,2.814025879E-1
6.745493043E0,-9.594207764E0,-4.171142578E0,1.749267578E-1
6.750589478E0,-9.232894897E0,-4.451095581E0,8.279418945E-2
6.755716431E0,-8.748352051E0,-4.530059814E0,2.550811768E-1
6.760812867E0,-8.139373779E0,-4.565963745E0,4.572753906E-1
6.765939820E0,-7.909667969E0,-4.703552246E0,8.951568604E-1
6.771036255E0,-8.448059082E0,-4.810028076E0,1.785293579E0
6.776163209E0,-8.385833740E0,-4.439132690E0,1.834350586E0
6.781259644E0,-7.762512207E0,-4.272842407E0,2.122680664E0
6.786356080E0,-7.362899780E0,-4.131668091E0,2.059265137E0
6.791483033E0,-7.271972656E0,-4.147216797E0,1.864257812E0
6.796579468E0,-7.386840820E0,-4.056289673E0,1.386886597E0
6.801706422E0,-7.580657959E0,-4.040740967E0,1.051895142E0
6.806802857E0,-6.197601318E0,-3.152999878E0,-3.766174316E-1
6.811899293E0,-6.819732666E0,-4.571945190E0,-5.369415283E-1
6.817026246E0,-8.217147827E0,-4.241729736E0,-2.629547119E-1
6.822122681E0,-8.601196289E0,-3.972534180E0,2.178955078E-2
6.827249634E0,-8.681350708E0,-3.409027100E0,-4.196929932E-1
6.832346070E0,-7.571075439E0,-2.709121704E0,-2.024078369E0
6.837473023E0,-7.170288086E0,-3.540634155E0,-2.938140869E0
6.842569459E0,-8.200393677E0,-3.307327271E0,-2.377014160E0
6.847696412E0,-8.353530884E0,-3.058486938E0,-1.635238647E0
6.852792847E0,-8.067596436E0,-3.138641357E0,-1.038238525E0
6.857889283E0,-7.152343750E0,-3.234359741E0,-1.029861450E0
6.863016236E0,-6.136581421E0,-3.618408203E0,-1.951095581E0
6.868509400E0,-5.702285767E0,-4.333862305E0,-1.984603882E0
6.873239625E0,-6.579254150E0,-4.516906738E0,-7.020416260E-1
6.878519166E0,-6.756332397E0,-4.108932495E0,5.075225830E-1
6.883463013E0,-6.142562866E0,-3.709335327E0,4.907836914E-1
6.888620484E0,-5.827911377E0,-3.805038452E0,6.020507812E-1
6.893686402E0,-6.138977051E0,-3.430557251E0,-4.244842529E-1
6.898782838E0,-7.446655273E0,-3.925872803E0,-3.515014648E-1
6.903909791E0,-8.833297729E0,-3.718902588E0,2.598724365E-1
6.909006226E0,-1.011344910E1,-3.517898560E0,7.264709473E-1
6.914102662E0,-1.079301453E1,-3.364761353E0,8.963623047E-1
6.919229615E0,-1.121655273E1,-3.435348511E0,8.150024414E-1
6.924326050E0,-1.146659851E1,-3.592086792E0,5.254669189E-1
6.929453004E0,-1.084805298E1,-3.376724243E0,-9.545898438E-2
6.935312379E0,-1.098922729E1,-4.435546875E0,5.398254395E-1
6.939676392E0,-1.204565430E1,-4.327865601E0,1.566345215E0
6.944772828E0,-1.206480408E1,-4.355392456E0,2.073623657E0
6.949930298E0,-1.175015259E1,-4.402053833E0,2.229156494E0
6.954965699E0,-1.184346008E1,-4.514511108E0,2.381103516E0
6.960092652E0,-1.208993530E1,-4.539642334E0,2.600051880E0
6.965189088E0,-1.200498962E1,-4.615005493E0,2.821380615E0
6.970316041E0,-1.158384705E1,-4.916503906E0,2.669448853E0
6.975412476E0,-1.184466553E1,-5.081619263E0,2.985290527E0
6.980539429E0,-1.185423279E1,-5.273040771E0,2.801040649E0
6.985635865E0,-1.147975159E1,-5.238342285E0,2.247116089E0
6.990762818E0,-1.118902588E1,-5.332855225E0,1.855880737E0
6.995828736E0,-1.107537842E1,-5.554199219E0,1.384490967E0
7.000955689E0,-1.073080444E1,-5.238342285E0,6.869812012E-1
7.006052125E0,-1.065423584E1,-5.454895020E0,3.543853760E-1
7.011179078E0,-1.104785156E1,-5.568557739E0,1.713409424E-1
7.016275513E0,-1.203729248E1,-6.032760620E0,2.335510254E-1
7.021371949E0,-1.188893127E1,-7.016204834E0,1.844940186E-1
7.026498902E0,-1.085522461E1,-6.940841675E0,2.287597656E-1
7.031625855E0,-9.467391968E0,-6.029174805E0,2.766265869E-1
7.036691773E0,-8.686141968E0,-4.805236816E0,2.275695801E-1
7.041818726E0,-8.885940552E0,-3.419799805E0,-1.313629150E-1
7.046915162E0,-9.615753174E0,-2.684005737E0,-2.127075195E-1
7.052042115E0,-1.020199585E1,-2.626571655E0,-1.708374023E-1
7.057138550E0,-1.067457581E1,-2.730667114E0,1.294555664E-1
7.062265504E0,-1.077507019E1,-3.350402832E0,1.402282715E-1
7.067331422E0,-1.055493164E1,-3.581314087E0,8.758544922E-2
7.072458375E0,-1.019720459E1,-3.525085449E0,4.764251709E-1
7.077554810E0,-9.962707520E0,-2.950805664E0,7.958679199E-1
7.082681763E0,-1.006201172E1,-1.828567505E0,1.172729492E0
7.087778199E0,-1.019122314E1,-8.558807373E-1,1.489776611E0
7.092905152E0,-1.028932190E1,-2.337493896E-1,1.936035156E0
7.097971070E0,-1.057048035E1,-9.378051758E-2,2.196853638E0
7.103098023E0,-1.014097595E1,-5.783233643E-1,1.948013306E0
7.108194459E0,-1.039222717E1,-1.260269165E0,2.395462036E0
7.113321412E0,-1.035513306E1,-1.836944580E0,2.078414917E0
7.118417847E0,-1.011944580E1,-2.412414551E0,2.280609131E0
7.123514283E0,-9.645660400E0,-2.500946045E0,2.144210815E0
7.128610718E0,-8.604782104E0,-2.149200439E0,1.321090698E0
7.133737672E0,-7.843856812E0,-1.915908813E0,1.331848145E0
7.138834107E0,-7.248046875E0,-1.603637695E0,4.848022461E-1
7.143961060E0,-6.986038208E0,-1.481613159E0,4.608612061E-1
7.149057496E0,-7.252838135E0,-1.432556152E0,5.781097412E-1
7.154153931E0,-7.471786499E0,-1.372741699E0,1.653594971E-1
7.159250367E0,-7.251632690E0,-1.158584595E0,-7.642517090E-1
7.164377320E0,-7.218139648E0,-1.113113403E0,-4.699401855E-1
7.169473755E0,-7.288726807E0,-9.922790527E-1,-3.610687256E-1
7.174600709E0,-7.313858032E0,-8.175964355E-1,-4.914703369E-1
7.179697144E0,-7.336578369E0,-5.472106934E-1,-1.059768677E0
7.184824097E0,-8.504287720E0,-1.452178955E-1,-1.695068359E0
7.189890015E0,-8.164505005E0,-1.975723267E0,-1.344512939E0
7.195016968E0,-8.633499146E0,-3.355194092E0,8.518981934E-2
7.200113404E0,-8.783050537E0,-3.915115356E0,7.862854004E-1
7.205240357E0,-8.404983521E0,-4.076629639E0,6.307525635E-1
7.210367310E0,-8.091522217E0,-4.076629639E0,4.046325684E-1
7.215433228E0,-8.067596436E0,-4.146011353E0,1.629638672E-1
7.220987427E0,-8.186035156E0,-4.144821167E0,-1.337432861E-1
7.225626099E0,-8.577270508E0,-4.314712524E0,-3.873901367E-1
7.230966675E0,-8.565307617E0,-4.816009521E0,-3.718414307E-1
7.235849488E0,-8.399002075E0,-4.935653687E0,-2.868957520E-1
7.241006959E0,-7.854629517E0,-4.492980957E0,-1.205902100E-1
7.246072877E0,-7.541168213E0,-3.479614258E0,-1.253814697E-1
7.251169312E0,-7.279159546E0,-2.979522705E0,-6.302642822E-1
7.256296265E0,-7.574676514E0,-3.002243042E0,-4.639587402E-1
7.261392701E0,-8.468383789E0,-2.969940186E0,-1.241760254E-1
7.266489136E0,-9.474578857E0,-2.828765869E0,1.079254150E-1
7.271616089E0,-1.030249023E1,-2.768951416E0,2.311553955E-1
7.276712525E0,-1.092462158E1,-2.788085938E0,3.376312256E-1
7.281839478E0,-1.160179138E1,-2.879013062E0,2.993469238E-1
7.286935914E0,-1.221675110E1,-2.879013062E0,6.116180420E-1
7.292032349E0,-1.222392273E1,-2.846710205E0,1.262466431E0
7.297159302E0,-1.203729248E1,-2.553588867E0,1.299545288E0
7.302255738E0,-1.144267273E1,-2.328674316E0,1.160766602E0
7.307352173E0,-1.108255005E1,-2.193481445E0,9.777221680E-1
7.312448609E0,-1.079421997E1,-2.204238892E0,8.173980713E-1
7.317575562E0,-1.075233459E1,-2.291580200E0,7.240753174E-1
7.322671998E0,-1.091983032E1,-2.362167358E0,7.180938721E-1
7.327798951E0,-1.117108154E1,-2.417205811E0,5.996551514E-1
7.332895386E0,-1.117347717E1,-2.419601440E0,5.362396240E-1
7.338296998E0,-1.089112854E1,-2.388488770E0,5.673522949E-1
7.343118775E0,-1.052262878E1,-2.298751831E0,6.295623779E-1
7.348215211E0,-1.018524170E1,-2.174331665E0,6.857910156E-1
7.353342164E0,-9.968688965E0,-2.065460205E0,7.683410645E-1
7.358438599E0,-9.820343018E0,-1.997268677E0,8.221893311E-1
7.363565552E0,-9.723419189E0,-2.022384644E0,8.317565918E-1
7.368661988E0,-9.685134888E0,-2.155197144E0,8.843994141E-1
7.373788941E0,-9.713851929E0,-2.277221680E0,8.616638184E-1
7.378885377E0,-9.759323120E0,-2.351394653E0,8.556823730E-1
7.383981812E0,-9.820343018E0,-2.368148804E0,8.197937012E-1
7.389108765E0,-9.889724731E0,-2.345413208E0,7.743225098E-1
7.394205201E0,-9.995010376E0,-2.347808838E0,8.293609619E-1
7.399301636E0,-1.014216614E1,-2.374130249E0,8.138122559E-1
7.404428589E0,-1.038385010E1,-2.436340332E0,7.695465088E-1
7.409525025E0,-1.064346313E1,-2.612213135E0,7.982482910E-1
7.414651978E0,-1.063987732E1,-2.764160156E0,8.317565918E-1
7.419748414E0,-1.059440613E1,-2.893371582E0,8.724365234E-1
7.424875367E0,-1.046879578E1,-3.007034302E0,9.848937988E-1
7.429971802E0,-1.017567444E1,-2.853897095E0,9.657592773E-1
7.435098755E0,-1.013020325E1,-2.705535889E0,8.784179688E-1
7.440195191E0,-1.010388184E1,-2.548812866E0,8.951568604E-1
7.445291627E0,-1.009191895E1,-2.381317139E0,7.779083252E-1
7.450388062E0,-1.012303162E1,-2.274826050E0,6.606597900E-1
7.455515015E0,-1.013858032E1,-2.250900269E0,6.522979736E-1
7.460611451E0,-1.020437622E1,-2.286788940E0,5.864868164E-1
7.465738404E0,-1.010986328E1,-2.326278687E0,5.290679932E-1
7.470834839E0,-8.237487793E0,-1.346420288E0,-1.413909912E0
7.475961793E0,-7.568695068E0,-4.574890137E-1,-4.567871094E-1
7.481058228E0,-8.178863525E0,5.218505859E-2,7.958679199E-1
7.486185181E0,-8.866790771E0,2.125091553E-1,1.630950928E0
7.491281617E0,-9.265197754E0,-3.940734863E-1,2.099945068E0
7.496408570E0,-9.359710693E0,-1.267456055E0,1.896560669E0
7.501505005E0,-8.897903442E0,-2.711517334E0,1.739837646E0
7.506601441E0,-8.720840454E0,-4.137649536E0,1.205032349E0
7.511697877E0,-9.292724609E0,-4.720291138E0,6.499023438E-1
7.516824830E0,-9.591827393E0,-4.899765015E0,6.594696045E-1
7.521921265E0,-9.609771729E0,-4.683212280E0,8.066253662E-1
7.527048218E0,-9.278366089E0,-4.166351318E0,9.477996826E-1
7.532144654E0,-9.045059204E0,-3.520294189E0,1.041122437E0
7.537271607E0,-9.199401855E0,-2.905334473E0,1.006423950E0
7.542368043E0,-9.336990356E0,-2.411224365E0,9.980621338E-1
7.547494996E0,-9.418334961E0,-2.067855835E0,1.032745361E0
7.552591431E0,-9.514053345E0,-1.925476074E0,9.741210938E-1
7.557687867E0,-9.551147461E0,-1.963760376E0,8.652496338E-1
7.562875855E0,-9.441070557E0,-2.076232910E0,7.910766602E-1
7.567911255E0,-9.384841919E0,-2.206634521E0,6.929779053E-1
7.573404420E0,-9.335784912E0,-2.353790283E0,6.307525635E-1
7.578104127E0,-9.301086426E0,-2.494964600E0,5.505981445E-1
7.583505738E0,-9.316650391E0,-2.632553101E0,4.704437256E-1
7.588327515E0,-9.214950562E0,-2.755783081E0,4.082183838E-1
7.593576539E0,-9.265197754E0,-2.737838745E0,3.484039307E-1
7.598550904E0,-9.258026123E0,-2.813217163E0,2.694396973E-1
7.603677857E0,-9.097702026E0,-2.812026978E0,2.036437988E-1
7.608774293E0,-9.030700684E0,-2.786895752E0,2.299652100E-1
7.613870728E0,-9.070190430E0,-2.710327148E0,2.897796631E-1
7.618967164E0,-9.068984985E0,-2.550003052E0,2.514953613E-1
7.624063599E0,-8.885940552E0,-2.499755859E0,1.785125732E-1
7.629190552E0,-9.139572144E0,-2.542831421E0,2.084197998E-1
7.634286988E0,-9.266403198E0,-2.576324463E0,2.610626221E-1
7.639383423E0,-9.418334961E0,-2.682800293E0,2.287597656E-1
7.644510377E0,-9.546356201E0,-2.773727417E0,2.694396973E-1
7.649606812E0,-9.476959229E0,-2.882614136E0,2.622680664E-1
7.654733765E0,-9.546356201E0,-2.956787109E0,2.036437988E-1
7.659830201E0,-9.622924805E0,-2.972335815E0,1.725311279E-1
7.664926636E0,-9.510467529E0,-2.981903076E0,1.450195312E-1
7.670023072E0,-9.408767700E0,-2.947219849E0,8.399963379E-2
7.675150025E0,-9.407577515E0,-2.886199951E0,2.896118164E-2
7.680246461E0,-9.281951904E0,-2.826370239E0,2.537536621E-2
7.685373414E0,-9.283142090E0,-2.838333130E0,4.571533203E-2
7.690469849E0,-9.403991699E0,-2.936447144E0,1.222839355E-1
7.695566285E0,-9.673171997E0,-2.949600220E0,1.665496826E-1
7.700662720E0,-9.840667725E0,-2.900558472E0,3.015136719E-2
7.705789673E0,-9.789230347E0,-2.919692993E0,-2.031402588E-1
7.710886109E0,-9.682754517E0,-2.947219849E0,-3.036346436E-1
7.716013062E0,-9.577468872E0,-3.029769897E0,-3.347473145E-1
7.721078980E0,-9.497299194E0,-3.072830200E0,-3.849945068E-1
7.726205933E0,-9.415954590E0,-3.108734131E0,-4.424285889E-1
7.731302369E0,-9.338180542E0,-3.108734131E0,-4.759216309E-1
7.736398804E0,-9.210159302E0,-3.093170166E0,-4.962615967E-1
7.741525757E0,-9.194610596E0,-3.121887207E0,-5.405273438E-1
7.746622193E0,-9.171875000E0,-3.164962769E0,-5.429229736E-1
7.751718629E0,-9.139572144E0,-3.184097290E0,-5.453186035E-1
7.756845582E0,-9.128814697E0,-3.210418701E0,-5.692443848E-1
7.761942017E0,-9.144363403E0,-3.230758667E0,-5.752258301E-1
7.767038453E0,-9.159912109E0,-3.229568481E0,-5.859985352E-1
7.772165406E0,-9.152740479E0,-3.193679810E0,-5.955657959E-1
7.777261841E0,-9.077362061E0,-3.184097290E0,-5.836029053E-1
7.782358277E0,-8.946960449E0,-3.102752686E0,-5.943756104E-1
7.787485230E0,-9.106079102E0,-3.057281494E0,-6.553802490E-1
7.792581666E0,-9.351348877E0,-3.136245728E0,-7.642517090E-1
7.797708619E0,-9.542770386E0,-3.234359741E0,-6.781158447E-1
7.802805054E0,-9.588226318E0,-3.302551270E0,-5.871887207E-1
7.807901490E0,-9.572677612E0,-3.334854126E0,-6.410217285E-1
7.813028443E0,-9.526016235E0,-3.337249756E0,-7.223815918E-1
7.818124879E0,-9.464996338E0,-3.364761353E0,-7.941741943E-1
7.823251832E0,-9.346557617E0,-3.416213989E0,-8.444213867E-1
7.828348267E0,-9.338180542E0,-3.502349854E0,-9.078216553E-1
7.833444703E0,-9.317840576E0,-3.584899902E0,-9.425201416E-1
7.838571656E0,-9.325027466E0,-3.604049683E0,-1.004730225E0
7.843668091E0,-9.279556274E0,-3.632751465E0,-1.041824341E0
7.848764527E0,-9.297500610E0,-3.630371094E0,-1.038238525E0
7.853891480E0,-9.192214966E0,-3.673431396E0,-1.179412842E0
7.858987916E0,-9.064208984E0,-3.716506958E0,-1.065750122E0
7.864084351E0,-8.967300415E0,-3.752395630E0,-1.071731567E0
7.869211304E0,-8.944564819E0,-3.795471191E0,-1.159072876E0
7.875223267E0,-8.979263306E0,-3.843322754E0,-1.209320068E0
7.879434693E0,-8.943359375E0,-3.824188232E0,-1.258377075E0
7.884531129E0,-8.963699341E0,-3.840927124E0,-1.217697144E0
7.889627564E0,-9.005584717E0,-3.898361206E0,-1.212905884E0
7.894724000E0,-8.991226196E0,-3.929473877E0,-1.210525513E0
7.899850953E0,-9.019943237E0,-3.997665405E0,-1.247604370E0
7.904947388E0,-8.993621826E0,-3.943817139E0,-1.200942993E0
7.910043824E0,-8.858428955E0,-3.858886719E0,-1.129165649E0
7.915140259E0,-8.690917969E0,-3.830169678E0,-1.069335938E0
7.920267213E0,-8.579650879E0,-3.874435425E0,-1.075332642E0
7.925363648E0,-8.605972290E0,-3.885208130E0,-1.133956909E0
7.930490601E0,-8.741165161E0,-3.855285645E0,-1.139938354E0
7.935953248E0,-8.884735107E0,-3.819396973E0,-1.132751465E0
7.940683472E0,-9.120437622E0,-3.809829712E0,-1.044219971E0
7.946024048E0,-9.403991699E0,-3.819396973E0,-9.461059570E-1
7.950906861E0,-9.628906250E0,-3.826583862E0,-8.838958740E-1
7.956094849E0,-9.737777710E0,-3.834945679E0,-8.061370850E-1
7.961130250E0,-9.784439087E0,-3.832565308E0,-7.810058594E-1
7.966226685E0,-9.773681641E0,-3.830169678E0,-7.558898926E-1
7.971323121E0,-9.756927490E0,-3.825378418E0,-7.271728516E-1
7.976450074E0,-9.615753174E0,-3.801452637E0,-6.996459961E-1
7.981546509E0,-9.260421753E0,-3.842132568E0,-6.864929199E-1
7.986642945E0,-9.070190430E0,-3.715316772E0,-6.350402832E-1
7.991739380E0,-9.264007568E0,-3.612411499E0,-7.295684814E-1
7.996866334E0,-9.717437744E0,-3.668655396E0,-7.080230713E-1
8.001962769E0,-9.912460327E0,-3.710525513E0,-6.278686523E-1
8.007059205E0,-9.697113037E0,-3.645919800E0,-6.278686523E-1
8.012186158E0,-9.484146118E0,-3.514312744E0,-6.553802490E-1
8.017313111E0,-9.350143433E0,-3.381515503E0,-6.529846191E-1
8.022409547E0,-9.237686157E0,-3.291778564E0,-6.769256592E-1
8.027505982E0,-9.171875000E0,-3.227172852E0,-7.020416260E-1
8.032602418E0,-9.158721924E0,-3.203247070E0,-7.152099609E-1
8.037729371E0,-9.149154663E0,-3.193679810E0,-7.367401123E-1
8.042825806E0,-9.106079102E0,-3.188888550E0,-7.510986328E-1
8.047952759E0,-9.118041992E0,-3.206832886E0,-7.834014893E-1
8.053049195E0,-9.103683472E0,-3.234359741E0,-7.534942627E-1
8.058145630E0,-9.176666260E0,-3.229568481E0,-7.678527832E-1
8.063242066E0,-9.214950562E0,-3.245117188E0,-7.881927490E-1
8.068369019E0,-9.230499268E0,-3.234359741E0,-8.061370850E-1
8.073465455E0,-9.271179199E0,-3.255889893E0,-8.324584961E-1
8.078592408E0,-9.283142090E0,-3.209228516E0,-9.161987305E-1
8.083688843E0,-9.286743164E0,-3.239135742E0,-9.544830322E-1
8.088815797E0,-9.341766357E0,-3.283401489E0,-1.013107300E0
8.093912232E0,-9.400390625E0,-3.239135742E0,-1.017898560E0
8.099039185E0,-9.284347534E0,-3.255889893E0,-9.736328125E-1
8.104135621E0,-9.279556274E0,-3.271438599E0,-1.032257080E0
8.109232056E0,-9.241271973E0,-3.287002563E0,-1.016708374E0
8.114328492E0,-9.259216309E0,-3.271438599E0,-1.037033081E0
8.119455445E0,-9.194610596E0,-3.275024414E0,-1.040634155E0
8.124551880E0,-9.139572144E0,-3.310928345E0,-1.040634155E0
8.129678834E0,-9.195816040E0,-3.325286865E0,-1.041824341E0
8.134744752E0,-9.254440308E0,-3.324081421E0,-1.038238525E0
8.139871705E0,-9.260421753E0,-3.295364380E0,-1.063354492E0
8.144968140E0,-9.307067871E0,-3.252304077E0,-1.037033081E0
8.150095093E0,-9.279556274E0,-3.199661255E0,-1.043029785E0
8.155191529E0,-9.256820679E0,-3.149414062E0,-1.118392944E0
8.160318482E0,-9.224517822E0,-3.142227173E0,-1.156677246E0
8.165414918E0,-9.240081787E0,-3.074035645E0,-1.169845581E0
8.170511353E0,-9.231704712E0,-3.041732788E0,-1.151901245E0
8.175607789E0,-9.269989014E0,-2.986694336E0,-1.142318726E0
8.180734742E0,-9.285537720E0,-2.966354370E0,-1.131561279E0
8.185831177E0,-9.286743164E0,-2.949600220E0,-1.145919800E0
8.190927613E0,-9.180252075E0,-2.959182739E0,-1.106430054E0
8.196054566E0,-9.235290527E0,-2.961578369E0,-1.112411499E0
8.201151002E0,-9.256820679E0,-2.941238403E0,-1.107635498E0
8.206247437E0,-9.210159302E0,-2.969940186E0,-1.060974121E0
8.211374390E0,-9.185043335E0,-2.996261597E0,-1.041824341E0
8.216470826E0,-9.247253418E0,-2.995071411E0,-1.002349854E0
8.221567261E0,-9.253234863E0,-3.026184082E0,-9.700469971E-1
8.226694214E0,-9.244857788E0,-3.085998535E0,-9.425201416E-1
8.231790650E0,-9.212554932E0,-3.141036987E0,-8.719329834E-1
8.236887086E0,-9.244857788E0,-3.162567139E0,-7.738342285E-1
8.242014039E0,-9.238876343E0,-3.197265625E0,-7.008514404E-1
8.247110474E0,-9.286743164E0,-3.206832886E0,-6.541900635E-1
8.252206910E0,-9.308273315E0,-3.192474365E0,-5.931701660E-1
8.257333863E0,-9.328613281E0,-3.200851440E0,-5.596771240E-1
8.262430298E0,-9.383651733E0,-3.196060181E0,-5.560760498E-1
8.267526734E0,-9.380050659E0,-3.211624146E0,-5.249786377E-1
8.272653687E0,-9.389633179E0,-3.190078735E0,-5.213928223E-1
8.278146851E0,-9.429107666E0,-3.149414062E0,-5.142059326E-1
8.282877076E0,-9.424316406E0,-3.137451172E0,-5.405273438E-1
8.287973511E0,-9.380050659E0,-3.148208618E0,-5.261688232E-1
8.293069947E0,-9.360916138E0,-3.157775879E0,-5.524902344E-1
8.298471558E0,-9.378860474E0,-3.164962769E0,-5.548858643E-1
8.303293336E0,-9.356124878E0,-3.180511475E0,-5.560760498E-1
8.308572877E0,-9.377670288E0,-3.191284180E0,-5.752258301E-1
8.313516724E0,-9.394409180E0,-3.210418701E0,-5.536956787E-1
8.318613160E0,-9.399200439E0,-3.237945557E0,-5.752258301E-1
8.323709595E0,-9.438674927E0,-3.246322632E0,-5.871887207E-1
8.328836548E0,-9.451843262E0,-3.254684448E0,-6.039428711E-1
8.333932984E0,-9.459014893E0,-3.258285522E0,-6.111145020E-1
8.339059937E0,-9.488922119E0,-3.276229858E0,-5.919799805E-1
8.344156373E0,-9.481750488E0,-3.276229858E0,-6.003570557E-1
8.349283326E0,-9.453033447E0,-3.275024414E0,-5.620574951E-1
8.354379761E0,-9.441070557E0,-3.263061523E0,-5.560760498E-1
8.359476197E0,-9.456619263E0,-3.248703003E0,-5.620574951E-1
8.364572632E0,-9.435089111E0,-3.257080078E0,-5.764160156E-1
8.369699586E0,-9.419540405E0,-3.272644043E0,-5.871887207E-1
8.374796021E0,-9.412353516E0,-3.276229858E0,-6.135101318E-1
8.379922974E0,-9.394409180E0,-3.300155640E0,-6.218872070E-1
8.385019410E0,-9.401596069E0,-3.352798462E0,-6.649627686E-1
8.390115845E0,-9.370483398E0,-3.411422729E0,-7.295684814E-1
8.395212281E0,-9.321426392E0,-3.461669922E0,-7.917785645E-1
8.400339234E0,-9.280761719E0,-3.515502930E0,-8.611602783E-1
8.405435670E0,-9.255630493E0,-3.562164307E0,-8.934783936E-1
8.410562623E0,-9.214950562E0,-3.614807129E0,-9.269714355E-1
8.415659058E0,-9.188629150E0,-3.662673950E0,-9.257812500E-1
8.420755494E0,-9.161117554E0,-3.699752808E0,-9.736328125E-1
8.425851929E0,-9.151535034E0,-3.726074219E0,-9.927673340E-1
8.430978882E0,-9.116851807E0,-3.738037109E0,-1.028671265E0
8.436105836E0,-9.103683472E0,-3.735656738E0,-1.049011230E0
8.441202271E0,-9.079757690E0,-3.735656738E0,-1.077713013E0
8.446298707E0,-9.057022095E0,-3.733261108E0,-1.076522827E0
8.451425660E0,-9.028305054E0,-3.715316772E0,-1.069335938E0
8.456522095E0,-9.001983643E0,-3.690185547E0,-1.068145752E0
8.461649048E0,-8.969680786E0,-3.675827026E0,-1.074127197E0
8.466745484E0,-8.961318970E0,-3.654296875E0,-1.044219971E0
8.471872437E0,-8.945755005E0,-3.618408203E0,-1.044219971E0
8.476968873E0,-8.925415039E0,-3.600448608E0,-1.043029785E0
8.482065308E0,-8.905075073E0,-3.592086792E0,-1.014312744E0
8.487161744E0,-8.926620483E0,-3.568145752E0,-9.963684082E-1
8.492288697E0,-8.961318970E0,-3.569351196E0,-9.796142578E-1
8.497385132E0,-8.960113525E0,-3.577728271E0,-9.963684082E-1
8.502512086E0,-8.978057861E0,-3.566955566E0,-9.999542236E-1
8.507608521E0,-9.011566162E0,-3.547805786E0,-9.963684082E-1
8.512704957E0,-9.035491943E0,-3.528671265E0,-9.736328125E-1
8.517831910E0,-9.043869019E0,-3.539443970E0,-9.508972168E-1
8.522928345E0,-9.049850464E0,-3.527481079E0,-9.221801758E-1
8.528024781E0,-9.045059204E0,-3.509521484E0,-8.803100586E-1
8.533151734E0,-9.060607910E0,-3.489181519E0,-8.288574219E-1
8.538248170E0,-9.074966431E0,-3.483200073E0,-7.845916748E-1
8.543375123E0,-9.104888916E0,-3.493972778E0,-7.690429688E-1
8.548471558E0,-9.119232178E0,-3.497558594E0,-7.439270020E-1
8.553598511E0,-9.141967773E0,-3.492782593E0,-7.187957764E-1
8.558694947E0,-9.175476074E0,-3.476028442E0,-7.223815918E-1
8.563791382E0,-9.225723267E0,-3.479614258E0,-7.104187012E-1
8.568887818E0,-9.259216309E0,-3.473632812E0,-6.948699951E-1
8.574014771E0,-9.287933350E0,-3.485595703E0,-6.553802490E-1
8.579111207E0,-9.316650391E0,-3.507141113E0,-6.254730225E-1
8.584238160E0,-9.333389282E0,-3.521484375E0,-5.871887207E-1
8.589334595E0,-9.356124878E0,-3.546615601E0,-5.453186035E-1
8.594461548E0,-9.393218994E0,-3.550201416E0,-5.154113770E-1
8.599557984E0,-9.435089111E0,-3.566955566E0,-5.070343018E-1
8.604684937E0,-9.441070557E0,-3.571746826E0,-4.866943359E-1
8.609781373E0,-9.436294556E0,-3.599258423E0,-4.914703369E-1
8.614908326E0,-9.429107666E0,-3.600448608E0,-5.058288574E-1
8.620004761E0,-9.399200439E0,-3.605239868E0,-5.309600830E-1
8.625101197E0,-9.352539062E0,-3.606430054E0,-5.405273438E-1
8.630197632E0,-9.315444946E0,-3.613616943E0,-5.871887207E-1
8.635324586E0,-9.271179199E0,-3.610031128E0,-6.290588379E-1
8.640421021E0,-9.230499268E0,-3.619598389E0,-6.733245850E-1
8.645547974E0,-9.205383301E0,-3.625579834E0,-7.223815918E-1
8.651010621E0,-9.204177856E0,-3.630371094E0,-7.499084473E-1
8.655740845E0,-9.208969116E0,-3.625579834E0,-7.798156738E-1
8.661081422E0,-9.205383301E0,-3.610031128E0,-8.168945312E-1
8.665964234E0,-9.207778931E0,-3.595672607E0,-8.456115723E-1
8.671182740E0,-9.206573486E0,-3.566955566E0,-8.515930176E-1
8.676187623E0,-9.200592041E0,-3.539443970E0,-8.527984619E-1
8.681284058E0,-9.200592041E0,-3.501159668E0,-8.420257568E-1
8.686411011E0,-9.194610596E0,-3.456878662E0,-8.384399414E-1
8.691507447E0,-9.206573486E0,-3.422195435E0,-8.300628662E-1
8.696603882E0,-9.205383301E0,-3.373138428E0,-8.360443115E-1
8.701730836E0,-9.220932007E0,-3.338439941E0,-8.312530518E-1
8.706827271E0,-9.235290527E0,-3.310928345E0,-7.965545654E-1
8.711923707E0,-9.249649048E0,-3.290588379E0,-7.666473389E-1
8.717020142E0,-9.254440308E0,-3.279815674E0,-7.403259277E-1
8.722147095E0,-9.280761719E0,-3.277420044E0,-7.176055908E-1
8.727243531E0,-9.274765015E0,-3.272644043E0,-7.032470703E-1
8.732370484E0,-9.267593384E0,-3.290588379E0,-6.984558105E-1
8.737466920E0,-9.248458862E0,-3.309722900E0,-7.140045166E-1
8.742563355E0,-9.219741821E0,-3.325286865E0,-7.295684814E-1
8.747690308E0,-9.207778931E0,-3.356384277E0,-7.534942627E-1
8.752786744E0,-9.205383301E0,-3.380310059E0,-7.845916748E-1
8.757883179E0,-9.018737793E0,-3.416213989E0,-7.905731201E-1
8.763010132E0,-9.177856445E0,-3.442535400E0,-8.348541260E-1
8.768106568E0,-9.232894897E0,-3.467651367E0,-8.515930176E-1
8.773203004E0,-9.240081787E0,-3.476028442E0,-8.683471680E-1
8.778329957E0,-9.222137451E0,-3.496368408E0,-8.779144287E-1
8.783426392E0,-9.183837891E0,-3.525085449E0,-9.150085449E-1
8.788553345E0,-9.182647705E0,-3.545425415E0,-9.114227295E-1
8.793649781E0,-9.153930664E0,-3.541824341E0,-9.521026611E-1
8.798746216E0,-9.137191772E0,-3.545425415E0,-9.772186279E-1
8.803873170E0,-9.164703369E0,-3.557388306E0,-9.628601074E-1
8.808969605E0,-9.157516479E0,-3.572937012E0,-9.724273682E-1
8.814066041E0,-9.163497925E0,-3.568145752E0,-9.521026611E-1
8.819192994E0,-9.157516479E0,-3.558578491E0,-9.508972168E-1
8.824289429E0,-9.164703369E0,-3.558578491E0,-9.305572510E-1
8.829416382E0,-9.162307739E0,-3.560974121E0,-9.257812500E-1
8.834512818E0,-9.180252075E0,-3.559783936E0,-9.078216553E-1
8.839609254E0,-9.180252075E0,-3.546615601E0,-8.731384277E-1
8.844736207E0,-9.175476074E0,-3.534652710E0,-8.551788330E-1
8.849832642E0,-9.141967773E0,-3.522689819E0,-8.372344971E-1
8.854959595E0,-9.235290527E0,-3.517898560E0,-8.408355713E-1
8.860056031E0,-9.242462158E0,-3.516708374E0,-8.180999756E-1
8.865152466E0,-9.259216309E0,-3.510726929E0,-7.822113037E-1
8.870279420E0,-9.244857788E0,-3.519104004E0,-7.654571533E-1
8.875375855E0,-9.214950562E0,-3.538238525E0,-7.510986328E-1
8.880472291E0,-9.208969116E0,-3.532257080E0,-7.379302979E-1
8.885599244E0,-9.183837891E0,-3.545425415E0,-7.355499268E-1
8.890695679E0,-9.161117554E0,-3.569351196E0,-7.307586670E-1
8.895822632E0,-9.229309082E0,-3.593276978E0,-7.199859619E-1
8.900919068E0,-9.237686157E0,-3.606430054E0,-7.080230713E-1
8.906015504E0,-9.236480713E0,-3.620788574E0,-7.152099609E-1
8.911142457E0,-9.231704712E0,-3.623184204E0,-7.152099609E-1
8.916238892E0,-9.199401855E0,-3.644714355E0,-7.343444824E-1
8.921335328E0,-9.173080444E0,-3.666259766E0,-7.510986328E-1
8.926462281E0,-9.156326294E0,-3.672241211E0,-7.427215576E-1
8.931589234E0,-9.137191772E0,-3.671035767E0,-7.750244141E-1
8.936685670E0,-9.110870361E0,-3.672241211E0,-8.037414551E-1
8.941782105E0,-9.096511841E0,-3.667449951E0,-8.575744629E-1
8.946909058E0,-9.072586060E0,-3.666259766E0,-8.994598389E-1
8.952005494E0,-9.058227539E0,-3.669845581E0,-9.126129150E-1
8.957132447E0,-9.035491943E0,-3.671035767E0,-9.508972168E-1
8.962228882E0,-9.051040649E0,-3.649505615E0,-9.867858887E-1
8.967325318E0,-9.040267944E0,-3.613616943E0,-1.010711670E0
8.972421754E0,-9.036682129E0,-3.592086792E0,-1.029861450E0
8.977548707E0,-9.045059204E0,-3.583709717E0,-1.051391602E0
8.982645142E0,-9.045059204E0,-3.571746826E0,-1.058578491E0
8.987772095E0,-9.049850464E0,-3.557388306E0,-1.062164307E0
8.992899048E0,-9.072586060E0,-3.535842896E0,-1.058578491E0
8.997964966E0,-9.091720581E0,-3.519104004E0,-1.026275635E0
9.003458130E0,-9.109664917E0,-3.508331299E0,-9.915771484E-1
9.008188355E0,-9.135986328E0,-3.485595703E0,-9.556884766E-1
9.013559449E0,-9.137191772E0,-3.467651367E0,-9.317626953E-1
9.018381226E0,-9.157516479E0,-3.449707031E0,-8.815002441E-1
9.023630250E0,-9.191024780E0,-3.449707031E0,-8.575744629E-1
9.028604615E0,-9.210159302E0,-3.424575806E0,-8.192901611E-1
9.033701050E0,-9.218536377E0,-3.431762695E0,-7.750244141E-1
9.038797486E0,-9.214950562E0,-3.449707031E0,-7.654571533E-1
9.043924439E0,-9.217346191E0,-3.471237183E0,-7.451171875E-1
9.049020875E0,-9.191024780E0,-3.483200073E0,-7.487030029E-1
9.054147828E0,-9.199401855E0,-3.513122559E0,-7.798156738E-1
9.059244263E0,-9.244857788E0,-3.605239868E0,-6.183013916E-1
9.064340699E0,-9.232894897E0,-3.590881348E0,-6.087188721E-1
9.069437134E0,-9.201797485E0,-3.543029785E0,-6.266784668E-1
9.074564088E0,-9.173080444E0,-3.544219971E0,-6.577758789E-1
9.079660523E0,-9.176666260E0,-3.540634155E0,-6.601715088E-1
9.085214722E0,-9.168289185E0,-3.522689819E0,-6.625671387E-1
9.089853394E0,-9.167098999E0,-3.525085449E0,-6.876831055E-1
9.094980347E0,-9.177856445E0,-3.529861450E0,-7.259674072E-1
9.100076783E0,-9.161117554E0,-3.538238525E0,-7.403259277E-1
9.105203736E0,-9.155136108E0,-3.532257080E0,-7.319488525E-1
9.110300172E0,-9.180252075E0,-3.539443970E0,-7.319488525E-1
9.115396607E0,-9.197006226E0,-3.550201416E0,-7.403259277E-1
9.120493043E0,-9.197006226E0,-3.560974121E0,-7.223815918E-1
9.125619996E0,-9.200592041E0,-3.562164307E0,-7.176055908E-1
9.130716431E0,-9.216156006E0,-3.569351196E0,-7.068328857E-1
9.135843384E0,-9.228118896E0,-3.582504272E0,-6.936645508E-1
9.140939820E0,-9.241271973E0,-3.587295532E0,-6.661529541E-1
9.146066773E0,-9.262802124E0,-3.580108643E0,-6.553802490E-1
9.151163209E0,-9.268783569E0,-3.586105347E0,-6.577758789E-1
9.156259644E0,-9.266403198E0,-3.598068237E0,-6.649627686E-1
9.161356080E0,-9.272384644E0,-3.600448608E0,-6.565856934E-1
9.166483033E0,-9.275970459E0,-3.583709717E0,-6.517944336E-1
9.171579468E0,-9.273574829E0,-3.571746826E0,-6.218872070E-1
9.176706422E0,-9.252044678E0,-3.543029785E0,-6.326599121E-1
9.181802857E0,-9.258026123E0,-3.504745483E0,-6.422271729E-1
9.186899293E0,-9.268783569E0,-3.467651367E0,-6.410217285E-1
9.191995728E0,-9.259216309E0,-3.437744141E0,-6.649627686E-1
9.197122681E0,-9.249649048E0,-3.404235840E0,-6.936645508E-1
9.202219117E0,-9.256820679E0,-3.375534058E0,-7.259674072E-1
9.207346070E0,-9.241271973E0,-3.331268311E0,-7.211914062E-1
9.212442505E0,-9.213760376E0,-3.309722900E0,-7.379302979E-1
9.218179810E0,-9.195816040E0,-3.309722900E0,-7.475128174E-1
9.222665894E0,-9.169494629E0,-3.300155640E0,-7.630615234E-1
9.227792847E0,-9.162307739E0,-3.302551270E0,-7.905731201E-1
9.232858765E0,-9.171875000E0,-3.319305420E0,-7.953643799E-1
9.237985718E0,-9.165893555E0,-3.356384277E0,-8.073272705E-1
9.243082154E0,-9.157516479E0,-3.367156982E0,-7.941741943E-1
9.248209107E0,-9.158721924E0,-3.365951538E0,-7.822113037E-1
9.253275025E0,-9.171875000E0,-3.401855469E0,-7.798156738E-1
9.258401978E0,-9.197006226E0,-3.428176880E0,-7.630615234E-1
9.263498414E0,-9.219741821E0,-3.449707031E0,-7.654571533E-1
9.268625367E0,-9.236480713E0,-3.453292847E0,-7.475128174E-1
9.273721802E0,-9.247253418E0,-3.461669922E0,-7.319488525E-1
9.278848755E0,-9.259216309E0,-3.479614258E0,-7.116088867E-1
9.283914673E0,-9.274765015E0,-3.495178223E0,-7.080230713E-1
9.289041627E0,-9.260421753E0,-3.523880005E0,-7.080230713E-1
9.294138062E0,-9.254440308E0,-3.535842896E0,-6.817016602E-1
9.299265015E0,-9.244857788E0,-3.544219971E0,-6.601715088E-1
9.304361451E0,-9.240081787E0,-3.556182861E0,-6.338500977E-1
9.309488404E0,-9.222137451E0,-3.586105347E0,-6.254730225E-1
9.314584839E0,-9.214950562E0,-3.601654053E0,-6.577758789E-1
9.319711793E0,-9.213760376E0,-3.618408203E0,-6.709442139E-1
9.324777711E0,-9.176666260E0,-3.625579834E0,-6.721343994E-1
9.329904664E0,-9.156326294E0,-3.626770020E0,-6.829071045E-1
9.335001099E0,-9.147949219E0,-3.630371094E0,-6.649627686E-1
9.340097535E0,-9.140777588E0,-3.619598389E0,-6.876831055E-1
9.345193970E0,-9.150344849E0,-3.630371094E0,-6.996459961E-1
9.350320923E0,-9.173080444E0,-3.614807129E0,-7.164001465E-1
9.355417359E0,-9.181457520E0,-3.631561279E0,-7.522888184E-1
9.360544312E0,-9.192214966E0,-3.621994019E0,-7.451171875E-1
9.365976441E0,-9.204177856E0,-3.614807129E0,-7.570800781E-1
9.370737183E0,-9.229309082E0,-3.627975464E0,-7.714385986E-1
9.376077759E0,-9.240081787E0,-3.612411499E0,-7.678527832E-1
9.380960572E0,-9.246063232E0,-3.604049683E0,-7.582702637E-1
9.386118043E0,-9.264007568E0,-3.594467163E0,-7.427215576E-1
9.391183961E0,-9.247253418E0,-3.590881348E0,-7.307586670E-1
9.396280396E0,-9.234100342E0,-3.583709717E0,-7.594757080E-1
9.401407349E0,-9.225723267E0,-3.572937012E0,-7.642517090E-1
9.406503785E0,-9.217346191E0,-3.568145752E0,-7.546844482E-1
9.411600220E0,-9.218536377E0,-3.556182861E0,-7.606658936E-1
9.416727173E0,-9.208969116E0,-3.545425415E0,-7.678527832E-1
9.421823609E0,-9.213760376E0,-3.538238525E0,-7.510986328E-1
9.426920045E0,-9.198196411E0,-3.539443970E0,-7.463073730E-1
9.432046998E0,-9.211364746E0,-3.537048340E0,-7.235870361E-1
9.437143433E0,-9.211364746E0,-3.539443970E0,-7.259674072E-1
9.442239869E0,-9.224517822E0,-3.554992676E0,-7.211914062E-1
9.447366822E0,-9.208969116E0,-3.549011230E0,-7.367401123E-1
9.452463257E0,-9.128814697E0,-3.537048340E0,-1.005935669E0
9.457559693E0,-9.179061890E0,-3.546615601E0,-6.434173584E-1
9.462686646E0,-9.119232178E0,-3.529861450E0,-6.888885498E-1
9.467783082E0,-9.259216309E0,-3.534652710E0,-7.223815918E-1
9.472879517E0,-9.299896240E0,-3.563369751E0,-7.487030029E-1
9.478006470E0,-9.295104980E0,-3.608825684E0,-7.510986328E-1
9.483102906E0,-9.273574829E0,-3.647109985E0,-7.510986328E-1
9.488199341E0,-9.255630493E0,-3.650711060E0,-7.690429688E-1
9.493295777E0,-9.217346191E0,-3.671035767E0,-7.893829346E-1
9.498422730E0,-9.177856445E0,-3.698562622E0,-8.109130859E-1
9.503519166E0,-9.173080444E0,-3.717697144E0,-8.025512695E-1
9.508646119E0,-9.169494629E0,-3.733261108E0,-8.264770508E-1
9.513742554E0,-9.162307739E0,-3.742828369E0,-8.192901611E-1
9.518838990E0,-9.157516479E0,-3.735656738E0,-8.276672363E-1
9.523935425E0,-9.146759033E0,-3.708129883E0,-8.288574219E-1
9.529062379E0,-9.140777588E0,-3.679412842E0,-8.384399414E-1
9.534158814E0,-9.139572144E0,-3.677032471E0,-8.324584961E-1
9.539255250E0,-9.122833252E0,-3.665054321E0,-8.336486816E-1
9.544382203E0,-9.140777588E0,-3.649505615E0,-8.324584961E-1
9.549478638E0,-9.141967773E0,-3.626770020E0,-8.468170166E-1
9.554575074E0,-9.130004883E0,-3.604049683E0,-8.539886475E-1
9.559702027E0,-9.116851807E0,-3.587295532E0,-8.587799072E-1
9.564798463E0,-9.126419067E0,-3.571746826E0,-8.575744629E-1
9.569925416E0,-9.122833252E0,-3.575332642E0,-8.719329834E-1
9.575021851E0,-9.140777588E0,-3.560974121E0,-8.671569824E-1
9.580118287E0,-9.147949219E0,-3.563369751E0,-8.815002441E-1
9.585214722E0,-9.120437622E0,-3.565765381E0,-8.779144287E-1
9.590341675E0,-9.118041992E0,-3.568145752E0,-8.791198730E-1
9.595438111E0,-9.086929321E0,-3.589691162E0,-8.803100586E-1
9.600565064E0,-9.089324951E0,-3.612411499E0,-8.767242432E-1
9.605661500E0,-9.082153320E0,-3.638732910E0,-8.803100586E-1
9.610757935E0,-9.073776245E0,-3.636352539E0,-8.970642090E-1
9.615854371E0,-9.061813354E0,-3.650711060E0,-9.066314697E-1
9.620981324E0,-9.073776245E0,-3.671035767E0,-8.862915039E-1
9.626077759E0,-9.098892212E0,-3.694976807E0,-9.102172852E-1
9.631204713E0,-9.084548950E0,-3.704544067E0,-8.946685791E-1
9.636301148E0,-9.103683472E0,-3.716506958E0,-8.898773193E-1
9.641397584E0,-9.131195068E0,-3.715316772E0,-8.910827637E-1
9.646494019E0,-9.168289185E0,-3.709335327E0,-8.671569824E-1
9.651620972E0,-9.200592041E0,-3.683013916E0,-8.504028320E-1
9.656717408E0,-9.232894897E0,-3.648315430E0,-8.204956055E-1
9.661844361E0,-9.260421753E0,-3.593276978E0,-8.180999756E-1
9.666940797E0,-9.284347534E0,-3.546615601E0,-7.953643799E-1
9.672067750E0,-9.308273315E0,-3.498764038E0,-7.714385986E-1
9.677164185E0,-9.327407837E0,-3.436553955E0,-7.534942627E-1
9.682260621E0,-9.338180542E0,-3.393478394E0,-7.546844482E-1
9.687357056E0,-9.331008911E0,-3.339630127E0,-7.319488525E-1
9.692484009E0,-9.333389282E0,-3.301345825E0,-7.259674072E-1
9.697580445E0,-9.323822021E0,-3.270248413E0,-7.223815918E-1
9.702707398E0,-9.308273315E0,-3.252304077E0,-7.199859619E-1
9.707803834E0,-9.297500610E0,-3.210418701E0,-7.104187012E-1
9.712900269E0,-9.286743164E0,-3.185302734E0,-7.020416260E-1
9.718027222E0,-9.275970459E0,-3.157775879E0,-6.817016602E-1
9.723123658E0,-9.281951904E0,-3.139831543E0,-6.769256592E-1
9.728616822E0,-9.277160645E0,-3.129074097E0,-6.697387695E-1
9.733316529E0,-9.277160645E0,-3.118301392E0,-6.529846191E-1
9.738657105E0,-9.295104980E0,-3.115905762E0,-6.338500977E-1
9.743539918E0,-9.296310425E0,-3.105133057E0,-6.087188721E-1
9.748727906E0,-9.302291870E0,-3.106338501E0,-5.943756104E-1
9.753763306E0,-9.329803467E0,-3.102752686E0,-5.716400146E-1
9.758859742E0,-9.360916138E0,-3.100357056E0,-5.560760498E-1
9.763956177E0,-9.386032104E0,-3.093170166E0,-5.919799805E-1
9.769083130E0,-9.393218994E0,-3.097961426E0,-5.608673096E-1
9.774179566E0,-9.413558960E0,-3.105133057E0,-5.907745361E-1
9.779306519E0,-9.425521851E0,-3.095565796E0,-6.063385010E-1
9.784402955E0,-9.415954590E0,-3.112319946E0,-5.991516113E-1
9.789499390E0,-9.420730591E0,-3.121887207E0,-5.871887207E-1
9.794595826E0,-9.436294556E0,-3.145812988E0,-5.716400146E-1
9.799722779E0,-9.437484741E0,-3.156585693E0,-5.524902344E-1
9.804819214E0,-9.435089111E0,-3.167358398E0,-5.309600830E-1
9.809946168E0,-9.429107666E0,-3.168548584E0,-5.201873779E-1
9.815042603E0,-9.426712036E0,-3.188888550E0,-4.962615967E-1
9.820169556E0,-9.397994995E0,-3.198455811E0,-5.034332275E-1
9.825235474E0,-9.401596069E0,-3.197265625E0,-4.747314453E-1
9.830362427E0,-9.406372070E0,-3.215209961E0,-4.699401855E-1
9.835458863E0,-9.411163330E0,-3.245117188E0,-4.232788086E-1
9.840555298E0,-9.392013550E0,-3.255889893E0,-4.065246582E-1
9.845682252E0,-9.375274658E0,-3.271438599E0,-3.885803223E-1
9.850778687E0,-9.366897583E0,-3.300155640E0,-3.586730957E-1
9.855905640E0,-9.366897583E0,-3.300155640E0,-3.742218018E-1
9.861002076E0,-9.365692139E0,-3.310928345E0,-3.873901367E-1
9.866098511E0,-9.371688843E0,-3.322891235E0,-3.754272461E-1
9.871225464E0,-9.345367432E0,-3.340835571E0,-3.383331299E-1
9.876321900E0,-9.334594727E0,-3.380310059E0,-3.586730957E-1
9.881418336E0,-9.319046021E0,-3.418594360E0,-3.742218018E-1
9.886545289E0,-9.302291870E0,-3.461669922E0,-3.730316162E-1
9.891641724E0,-9.289123535E0,-3.508331299E0,-3.969573975E-1
9.896738160E0,-9.293914795E0,-3.557388306E0,-4.304656982E-1
9.901865113E0,-9.284347534E0,-3.601654053E0,-4.280700684E-1
9.906961548E0,-9.273574829E0,-3.633956909E0,-4.759216309E-1
9.912057984E0,-9.273574829E0,-3.644714355E0,-4.890899658E-1
9.917184937E0,-9.274765015E0,-3.669845581E0,-5.225830078E-1
9.922281373E0,-9.266403198E0,-3.674636841E0,-5.381317139E-1
9.927377808E0,-9.247253418E0,-3.694976807E0,-5.417327881E-1
9.932504761E0,-9.222137451E0,-3.697357178E0,-5.596771240E-1
9.937601197E0,-9.192214966E0,-3.693771362E0,-6.015472412E-1
9.942728150E0,-9.181457520E0,-3.691375732E0,-6.517944336E-1
9.947824586E0,-9.182647705E0,-3.685394287E0,-6.864929199E-1
9.952921021E0,-9.179061890E0,-3.680618286E0,-7.080230713E-1
9.958017457E0,-9.155136108E0,-3.649505615E0,-7.104187012E-1
9.963144410E0,-9.134796143E0,-3.643524170E0,-7.283630371E-1
9.968240845E0,-9.112060547E0,-3.613616943E0,-7.534942627E-1
9.973367798E0,-9.108474731E0,-3.593276978E0,-7.439270020E-1
9.978464234E0,-9.113250732E0,-3.566955566E0,-7.702331543E-1
9.983560670E0,-9.090530396E0,-3.550201416E0,-7.881927490E-1
9.988657105E0,-9.098892212E0,-3.529861450E0,-7.929687500E-1
9.993784058E0,-9.089324951E0,-3.517898560E0,-7.977600098E-1
9.998880494E0,-9.083343506E0,-3.495178223E0,-8.037414551E-1
1.000397693E1,-9.074966431E0,-3.495178223E0,-8.121185303E-1
1.000907336E1,-9.055831909E0,-3.482009888E0,-8.013458252E-1
1.001420032E1,-9.065399170E0,-3.449707031E0,-8.061370850E-1
1.001929675E1,-9.061813354E0,-3.430557251E0,-8.240814209E-1
1.002442371E1,-9.076171875E0,-3.397064209E0,-7.977600098E-1
1.002952014E1,-9.074966431E0,-3.383911133E0,-7.989501953E-1
1.003464710E1,-9.095306396E0,-3.361175537E0,-7.786102295E-1
1.003971301E1,-9.116851807E0,-3.353988647E0,-7.702331543E-1
1.004483997E1,-9.127609253E0,-3.363571167E0,-7.522888184E-1
1.004993640E1,-9.153930664E0,-3.356384277E0,-7.307586670E-1
1.005506336E1,-9.150344849E0,-3.377929688E0,-7.128143311E-1
1.006015979E1,-9.149154663E0,-3.381515503E0,-6.805114746E-1
1.006525623E1,-9.177856445E0,-3.356384277E0,-6.577758789E-1
1.007047473E1,-9.179061890E0,-3.362365723E0,-6.410217285E-1
1.007547962E1,-9.187438965E0,-3.358779907E0,-6.206817627E-1
1.008057605E1,-9.198196411E0,-3.334854126E0,-6.194915771E-1
1.008567249E1,-9.198196411E0,-3.321685791E0,-5.919799805E-1
1.009116565E1,-9.207778931E0,-3.314514160E0,-5.716400146E-1
1.009589588E1,-9.231704712E0,-3.316909790E0,-5.429229736E-1
1.010117542E1,-9.210159302E0,-3.328872681E0,-5.010528564E-1
1.010611926E1,-9.223327637E0,-3.338439941E0,-4.747314453E-1
1.011130725E1,-9.223327637E0,-3.356384277E0,-4.687500000E-1
1.011631213E1,-9.223327637E0,-3.405441284E0,-4.484100342E-1
1.012143909E1,-9.241271973E0,-3.440139771E0,-4.185028076E-1
1.012653552E1,-9.269989014E0,-3.471237183E0,-4.137115479E-1
1.013163196E1,-9.260421753E0,-3.489181519E0,-3.981628418E-1
1.013672839E1,-9.305877686E0,-3.520294189E0,-3.515014648E-1
1.014182483E1,-9.348953247E0,-3.562164307E0,-2.988586426E-1
1.014692127E1,-9.372879028E0,-3.578918457E0,-2.797088623E-1
1.015204822E1,-9.397994995E0,-3.602844238E0,-2.282714844E-1
1.015809070E1,-9.423126221E0,-3.629165649E0,-2.139129639E-1
1.016227161E1,-9.433898926E0,-3.660278320E0,-1.816101074E-1
1.016736804E1,-9.448257446E0,-3.684204102E0,-1.660461426E-1
1.017246448E1,-9.429107666E0,-3.693771362E0,-1.301574707E-1
1.017756091E1,-9.411163330E0,-3.684204102E0,-9.307861328E-2
1.018268787E1,-9.401596069E0,-3.660278320E0,-1.122131348E-1
1.018778430E1,-9.380050659E0,-3.638732910E0,-1.134033203E-1
1.019288074E1,-9.369293213E0,-3.592086792E0,-1.086273193E-1
1.019797717E1,-9.356124878E0,-3.539443970E0,-1.277618408E-1
1.020310413E1,-9.326217651E0,-3.461669922E0,-1.469116211E-1
1.020820056E1,-9.271179199E0,-3.379119873E0,-1.576843262E-1
1.021329700E1,-9.249649048E0,-3.284606934E0,-2.043304443E-1
1.021842395E1,-9.246063232E0,-3.197265625E0,-2.258758545E-1
1.022352039E1,-9.254440308E0,-3.100357056E0,-2.665557861E-1
1.022861682E1,-9.246063232E0,-3.015411377E0,-2.701416016E-1
1.023374378E1,-9.262802124E0,-2.916107178E0,-2.809143066E-1
1.023884021E1,-9.289123535E0,-2.834747314E0,-3.168029785E-1
1.024393665E1,-9.329803467E0,-2.773727417E0,-3.646545410E-1
1.024903308E1,-9.365692139E0,-2.733062744E0,-3.694458008E-1
1.025416004E1,-9.387237549E0,-2.698364258E0,-4.101257324E-1
1.025925647E1,-9.408767700E0,-2.680419922E0,-3.945617676E-1
1.026435291E1,-9.418334961E0,-2.658874512E0,-3.921813965E-1
1.026944934E1,-9.438674927E0,-2.656478882E0,-3.838043213E-1
1.027457630E1,-9.457824707E0,-2.648117065E0,-3.586730957E-1
1.027967273E1,-9.474578857E0,-2.650497437E0,-3.550872803E-1
1.028476917E1,-9.479354858E0,-2.634948730E0,-3.646545410E-1
1.028986560E1,-9.459014893E0,-2.644515991E0,-3.766174316E-1
1.029499255E1,-9.455429077E0,-2.656478882E0,-3.754272461E-1
1.030008899E1,-9.451843262E0,-2.662475586E0,-3.838043213E-1
1.030518543E1,-9.441070557E0,-2.674438477E0,-3.861999512E-1
1.031028186E1,-9.438674927E0,-2.701950073E0,-3.694458008E-1
1.031540881E1,-9.449447632E0,-2.716308594E0,-3.431243896E-1
1.032050525E1,-9.447052002E0,-2.731857300E0,-3.371429443E-1
1.032563220E1,-9.462615967E0,-2.742630005E0,-3.383331299E-1
1.033069812E1,-9.441070557E0,-2.761764526E0,-3.515014648E-1
1.033582507E1,-9.436294556E0,-2.782104492E0,-3.491058350E-1
1.034092151E1,-9.435089111E0,-2.808425903E0,-3.562774658E-1
1.034604846E1,-9.423126221E0,-2.837142944E0,-3.825988770E-1
1.035114490E1,-9.415954590E0,-2.853897095E0,-4.029388428E-1
1.035624133E1,-9.399200439E0,-2.890975952E0,-4.304656982E-1
1.036133777E1,-9.380050659E0,-2.953201294E0,-4.388275146E-1
1.036646472E1,-9.359710693E0,-3.004638672E0,-4.603729248E-1
1.037156116E1,-9.333389282E0,-3.062072754E0,-5.022430420E-1
1.037665759E1,-9.303482056E0,-3.117111206E0,-5.070343018E-1
1.038178455E1,-9.279556274E0,-3.170944214E0,-5.321502686E-1
1.038688098E1,-9.260421753E0,-3.217605591E0,-5.776214600E-1
1.039197742E1,-9.240081787E0,-3.264266968E0,-6.039428711E-1
1.039710437E1,-9.219741821E0,-3.297760010E0,-6.075286865E-1
1.040220081E1,-9.189834595E0,-3.333648682E0,-5.895843506E-1
1.040729724E1,-9.169494629E0,-3.374328613E0,-5.883789062E-1
1.041242420E1,-9.173080444E0,-3.403045654E0,-5.776214600E-1
1.041752063E1,-9.179061890E0,-3.443725586E0,-5.345458984E-1
1.042261707E1,-9.192214966E0,-3.465255737E0,-4.986572266E-1
1.042774402E1,-9.204177856E0,-3.477218628E0,-4.747314453E-1
1.043284046E1,-9.218536377E0,-3.504745483E0,-4.292602539E-1
1.043793689E1,-9.236480713E0,-3.514312744E0,-4.077301025E-1
1.044309436E1,-9.240081787E0,-3.531066895E0,-3.909759521E-1
1.044816028E1,-9.252044678E0,-3.549011230E0,-3.814086914E-1
1.045362293E1,-9.255630493E0,-3.565765381E0,-3.814086914E-1
1.045835315E1,-9.236480713E0,-3.564559937E0,-3.586730957E-1
1.046366321E1,-9.223327637E0,-3.568145752E0,-3.515014648E-1
1.046857654E1,-9.214950562E0,-3.562164307E0,-3.347473145E-1
1.047376453E1,-9.195816040E0,-3.559783936E0,-3.479003906E-1
