"Time (s)","Acceleration x (m/s^2)","Acceleration y (m/s^2)","Acceleration z (m/s^2)"
4.221483000E-2,-4.907226562E-1,1.033248901E0,8.931457520E0
4.731126600E-2,-4.990997314E-1,1.030853271E0,9.247314453E0
5.240770200E-2,-4.931182861E-1,1.003341675E0,9.559570312E0
5.750413700E-2,-4.596099854E-1,9.530944824E-1,9.845520020E0
6.260057300E-2,-4.129486084E-1,9.040374756E-1,1.010513306E1
6.769700800E-2,-3.495483398E-1,8.501892090E-1,1.022717285E1
7.279344400E-2,-2.921142578E-1,7.867889404E-1,1.033245850E1
7.788987900E-2,-2.993011475E-1,8.023376465E-1,1.043534851E1
8.298631500E-2,-4.273071289E-1,8.214874268E-1,1.057891846E1
8.808275000E-2,-4.703826904E-1,8.561706543E-1,1.075598145E1
9.317918600E-2,-3.447570801E-1,8.920745850E-1,1.092947388E1
9.827562200E-2,-8.752441406E-2,8.789062500E-1,1.103115845E1
1.033720570E-1,1.864471436E-1,8.286590576E-1,1.108380127E1
1.084684930E-1,4.508514404E-1,7.652435303E-1,1.112208557E1
1.135649280E-1,6.482696533E-1,7.030334473E-1,1.112329102E1
1.186918810E-1,7.655181885E-1,6.659545898E-1,1.107064819E1
1.241545280E-1,8.528442383E-1,6.587677002E-1,1.103236389E1
1.288847520E-1,8.636169434E-1,6.791076660E-1,1.096296692E1
1.343473990E-1,8.600311279E-1,7.030334473E-1,1.088879395E1
1.390776230E-1,8.767852783E-1,7.018432617E-1,1.075120544E1
1.442961290E-1,9.342041016E-1,6.240692139E-1,1.054063416E1
1.492704950E-1,9.784698486E-1,5.534820557E-1,1.024870300E1
1.543669300E-1,1.040679932E0,5.343475342E-1,9.899353027E0
1.594633660E-1,1.132812500E0,5.546875000E-1,9.552398682E0
1.645598010E-1,1.228530884E0,5.989532471E-1,9.229370117E0
1.696562370E-1,1.321838379E0,6.372375488E-1,8.945816040E0
1.747526720E-1,1.441482544E0,6.432189941E-1,8.701751709E0
1.798491080E-1,1.537200928E0,5.953674316E-1,8.461273193E0
1.849455430E-1,1.675979614E0,5.080261230E-1,8.227966309E0
1.900419790E-1,1.875778198E0,3.991546631E-1,7.994674683E0
1.951689320E-1,2.121047974E0,2.795104980E-1,7.843917847E0
2.002348500E-1,2.435699463E0,1.227722168E-1,7.757781982E0
2.053618030E-1,2.780273438E0,-1.416320801E-1,7.754196167E0
2.104582390E-1,3.136795044E0,-5.280761719E-1,7.808029175E0
2.155546740E-1,3.493331909E0,-9.527893066E-1,7.853485107E0
2.206511100E-1,3.860626221E0,-1.363159180E0,7.977920532E0
2.257475450E-1,4.181259155E0,-1.674224854E0,8.101150513E0
2.308439810E-1,4.414566040E0,-1.847717285E0,8.287796021E0
2.359404160E-1,4.553344727E0,-1.935043335E0,8.521087646E0
2.410368520E-1,4.613174438E0,-1.915908813E0,8.817794800E0
2.461332880E-1,4.567703247E0,-1.826171875E0,9.139633179E0
2.512297230E-1,4.424133301E0,-1.701751709E0,9.490188599E0
2.563261590E-1,4.178878784E0,-1.541427612E0,9.863464355E0
2.614225940E-1,3.873794556E0,-1.364364624E0,1.025828552E1
2.665190300E-1,3.543579102E0,-1.198059082E0,1.063037109E1
2.716154650E-1,3.280364990E0,-1.085601807E0,1.097851562E1
2.767119010E-1,3.049468994E0,-1.038940430E0,1.125250244E1
2.818083360E-1,2.885559082E0,-1.125076294E0,1.132548523E1
2.869047720E-1,2.824539185E0,-1.302154541E0,1.138410950E1
2.920012070E-1,2.820953369E0,-1.506729126E0,1.138050842E1
2.970976430E-1,2.873596191E0,-1.694564819E0,1.139965820E1
3.021940790E-1,2.965713501E0,-1.845321655E0,1.141641235E1
3.072905140E-1,3.037490845E0,-1.926681519E0,1.139845276E1
3.123869500E-1,3.097320557E0,-1.958984375E0,1.121899414E1
3.174833850E-1,3.166702271E0,-1.996063232E0,1.092826843E1
3.225798210E-1,3.298309326E0,-2.053497314E0,1.058729553E1
3.276762560E-1,3.493331909E0,-2.155197144E0,1.019367981E1
3.327726920E-1,3.739791870E0,-2.331054688E0,9.826370239E0
3.378691270E-1,4.022140503E0,-2.541625977E0,9.477020264E0
3.429655630E-1,4.341583252E0,-2.723480225E0,9.100158691E0
3.480619980E-1,4.611968994E0,-2.821594238E0,8.696960449E0
3.531584340E-1,4.824935913E0,-2.839538574E0,8.293777466E0
3.582853870E-1,4.945770264E0,-2.803649902E0,7.852294922E0
3.633513050E-1,4.960128784E0,-2.745025635E0,7.441925049E0
3.684782580E-1,4.925430298E0,-2.663665771E0,7.030364990E0
3.735746940E-1,4.856048584E0,-2.530868530E0,6.718093872E0
3.786711290E-1,4.716064453E0,-2.317901611E0,6.512313843E0
3.837675650E-1,4.501907349E0,-2.075027466E0,6.403442383E0
3.888640000E-1,4.146575928E0,-1.792678833E0,6.368743896E0
3.939604360E-1,3.816360474E0,-1.574935913E0,6.430953979E0
3.990568720E-1,3.636901855E0,-1.440933228E0,6.669052124E0
4.041533070E-1,3.484954834E0,-1.381118774E0,7.048309326E0
4.092497430E-1,3.333007812E0,-1.383499146E0,7.647705078E0
4.143461780E-1,3.221740723E0,-1.473236084E0,8.419387817E0
4.194426140E-1,3.183456421E0,-1.659881592E0,9.304733276E0
4.245390490E-1,3.158340454E0,-1.923080444E0,1.023315430E1
4.296354850E-1,3.009979248E0,-2.146820068E0,1.117353821E1
4.347319200E-1,2.854446411E0,-2.277221680E0,1.193803406E1
4.398283560E-1,2.506286621E0,-2.337051392E0,1.250393677E1
4.449247910E-1,2.146163940E0,-2.277221680E0,1.279467773E1
4.500517450E-1,1.989440918E0,-2.439941406E0,1.289875793E1
4.551481800E-1,1.711868286E0,-2.664855957E0,1.287364197E1
4.602446160E-1,1.903305054E0,-2.934051514E0,1.272288513E1
4.653410510E-1,1.969100952E0,-3.330062866E0,1.251950073E1
4.704374870E-1,1.953552246E0,-3.616012573E0,1.205888367E1
4.755339220E-1,2.745574951E0,-4.260879517E0,1.057652283E1
4.806303580E-1,2.555343628E0,-4.631759644E0,7.900146484E0
4.857267930E-1,1.652053833E0,-4.264465332E0,6.261062622E0
4.908232290E-1,1.486953735E0,-4.152008057E0,5.354187012E0
4.959196640E-1,1.915267944E0,-4.172332764E0,5.349411011E0
5.010161000E-1,2.237091064E0,-4.023986816E0,5.260864258E0
5.061125360E-1,1.953552246E0,-3.887588501E0,4.935440063E0
5.112089710E-1,1.148361206E0,-3.637542725E0,4.554992676E0
5.163054070E-1,-4.919128418E-1,-2.951995850E0,4.032150269E0
5.214018420E-1,-1.526809692E0,-2.244918823E0,3.949600220E0
5.264982780E-1,-8.257141113E-1,-1.998458862E0,4.105133057E0
5.315947130E-1,6.410827637E-1,-1.966156006E0,4.486785889E0
5.368132190E-1,2.393829346E0,-2.071441650E0,5.276428223E0
5.417875840E-1,4.494720459E0,-2.628967285E0,6.082809448E0
5.471281610E-1,6.298919678E0,-3.436553955E0,6.971740723E0
5.519804550E-1,7.002410889E0,-4.125686646E0,7.920486450E0
5.571989610E-1,7.017959595E0,-4.648513794E0,8.655090332E0
5.621733270E-1,7.250061035E0,-4.843521118E0,8.645523071E0
5.672697620E-1,7.411575317E0,-4.775329590E0,8.087982178E0
5.723661980E-1,7.369705200E0,-4.492980957E0,7.366546631E0
5.774626330E-1,7.447463989E0,-4.126876831E0,6.713317871E0
5.825590690E-1,7.650863647E0,-3.989288330E0,6.290985107E0
5.876555040E-1,8.002609253E0,-4.131668091E0,6.092376709E0
5.927519400E-1,8.265808105E0,-4.429565430E0,6.036148071E0
5.978483750E-1,8.263427734E0,-4.746612549E0,5.967941284E0
6.029448110E-1,8.013366699E0,-5.062469482E0,5.512115479E0
6.080412470E-1,7.472595215E0,-5.372344971E0,4.931854248E0
6.131376820E-1,6.737991333E0,-5.649902344E0,4.404235840E0
6.182646350E-1,6.148162842E0,-5.923889160E0,4.123077393E0
6.233610710E-1,5.246078491E0,-5.732467651E0,5.342224121E0
6.284575060E-1,4.084350586E0,-4.707138062E0,7.485000610E0
6.335539420E-1,3.952758789E0,-3.885208130E0,8.720886230E0
6.386503770E-1,5.067810059E0,-3.747619629E0,8.311721802E0
6.437468130E-1,6.844482422E0,-3.956985474E0,7.050704956E0
6.488432480E-1,8.024139404E0,-4.125686646E0,5.984695435E0
6.539396840E-1,7.454650879E0,-3.934249878E0,6.019393921E0
6.590361200E-1,5.756942749E0,-3.448516846E0,7.157180786E0
6.641325550E-1,4.320053101E0,-2.746215820E0,9.226974487E0
6.692289910E-1,4.300903320E0,-2.380111694E0,1.097972107E1
6.743559440E-1,4.290145874E0,-1.925476074E0,1.288798523E1
6.794523790E-1,4.830917358E0,-1.723281860E0,1.337492371E1
6.845488150E-1,5.162322998E0,-1.539031982E0,1.303276062E1
6.896452500E-1,5.156341553E0,-1.342819214E0,1.198948669E1
6.947416860E-1,4.692138672E0,-1.147811890E0,1.030134583E1
6.998381220E-1,4.595230103E0,-1.020996094E0,9.853897095E0
7.049345570E-1,4.403793335E0,-6.632690430E-1,9.680419922E0
7.100309930E-1,4.479171753E0,-2.935791016E-1,8.797454834E0
7.151274280E-1,4.885955811E0,1.179962158E-1,8.219589233E0
7.202238640E-1,5.675582886E0,3.907775879E-1,7.473037720E0
7.253202990E-1,6.426925659E0,5.929718018E-1,6.445312500E0
7.304167350E-1,6.867202759E0,7.604675293E-1,5.792068481E0
7.355131700E-1,6.978469849E0,9.052276611E-1,5.272827148E0
7.406401230E-1,7.033508301E0,8.573760986E-1,4.617202759E0
7.457060410E-1,6.967712402E0,7.832031250E-1,4.733245850E0
7.508329950E-1,7.187850952E0,5.917663574E-1,4.379119873E0
7.559294300E-1,7.823135376E0,2.902679443E-1,4.379119873E0
7.610258660E-1,9.018356323E0,-1.260833740E-1,4.102737427E0
7.661223010E-1,9.874984741E0,-5.472106934E-1,4.057281494E0
7.712187370E-1,1.044209290E1,-9.216918945E-1,4.340835571E0
7.763151720E-1,1.073281860E1,-1.285400391E0,4.961761475E0
7.814116080E-1,1.072923279E1,-1.789093018E0,5.640136719E0
7.865080430E-1,1.070291138E1,-2.343032837E0,5.857879639E0
7.916349970E-1,1.056890869E1,-2.790481567E0,6.233551025E0
7.967314320E-1,1.050549316E1,-3.163757324E0,6.469238281E0
8.018278680E-1,1.038945007E1,-3.322891235E0,6.218002319E0
8.069243030E-1,1.020161438E1,-3.080017090E0,6.684600830E0
8.120207390E-1,9.845077515E0,-2.602645874E0,7.037536621E0
8.171171740E-1,9.463424683E0,-1.951797485E0,7.160766602E0
8.222136100E-1,8.880767822E0,-1.151397705E0,7.254089355E0
8.273100450E-1,8.610382080E0,-2.313537598E-1,7.036346436E0
8.324369980E-1,8.105499268E0,8.848876953E-1,7.074630737E0
8.375334340E-1,8.019348145E0,1.952087402E0,6.523086548E0
8.426298700E-1,7.900909424E0,3.232254028E0,6.332855225E0
8.477263050E-1,8.298110962E0,3.951293945E0,5.052688599E0
8.528227410E-1,9.175094604E0,3.586395264E0,3.291580200E0
8.579191760E-1,1.005325317E1,2.650787354E0,1.817596436E0
8.630156120E-1,1.073999023E1,1.624267578E0,1.267242432E0
8.681120470E-1,1.125804138E1,8.370361328E-1,1.441925049E0
8.732084830E-1,1.156910706E1,3.453063965E-1,2.218399048E0
8.783049180E-1,1.209791565E1,-4.472351074E-2,3.191070557E0
8.834013540E-1,1.266621399E1,-3.856964111E-1,4.024978638E0
8.884977890E-1,1.308735657E1,-6.668548584E-1,4.641128540E0
8.936247430E-1,1.343431091E1,-8.427276611E-1,5.017990112E0
8.987211780E-1,1.374418640E1,-9.192962646E-1,5.095764160E0
9.038176140E-1,1.398345947E1,-8.498992920E-1,5.008422852E0
9.089140490E-1,1.426342773E1,-5.783233643E-1,4.669845581E0
9.140104850E-1,1.439382935E1,-1.715393066E-1,4.278610229E0
9.191069200E-1,1.399304199E1,2.962646484E-1,3.880203247E0
9.242033560E-1,1.348934937E1,6.958618164E-1,3.474624634E0
9.293608270E-1,1.292463684E1,1.024871826E0,3.009216309E0
9.343962270E-1,1.229173279E1,1.308425903E0,2.627563477E0
9.396147330E-1,1.173301697E1,1.551300049E0,2.481613159E0
9.446196160E-1,1.131307983E1,1.766647339E0,2.529464722E0
9.499907090E-1,1.114079285E1,1.924575806E0,2.609619141E0
9.548124870E-1,1.110369873E1,1.998748779E0,2.561767578E0
9.600309930E-1,1.107737732E1,2.015502930E0,2.285400391E0
9.650053580E-1,1.109173584E1,1.990371704E0,1.898956299E0
9.701017930E-1,1.102354431E1,1.978408813E0,1.596267700E0
9.751982290E-1,1.090748596E1,2.021484375E0,1.416793823E0
9.802946640E-1,1.096971130E1,2.107620239E0,1.392868042E0
9.853911000E-1,1.106182861E1,2.212905884E0,1.519683838E0
9.905180530E-1,1.116113281E1,2.338531494E0,1.634552002E0
9.955839710E-1,1.127838135E1,2.462951660E0,1.717102051E0
1.000710924E0,1.137049866E1,2.598159790E0,1.659667969E0
1.005807360E0,1.145664978E1,2.679504395E0,1.543624878E0
1.010903795E0,1.155355835E1,2.701049805E0,1.346206665E0
1.016000231E0,1.161695862E1,2.677108765E0,1.096160889E0
1.021096666E0,1.157867432E1,2.692672729E0,8.185882568E-1
1.026193102E0,1.141716003E1,2.681900024E0,4.859924316E-1
1.031289538E0,1.113839722E1,2.622085571E0,1.473999023E-1
1.036385973E0,1.081417847E1,2.504837036E0,-1.325531006E-1
1.041482409E0,1.045524597E1,2.336135864E0,-2.462158203E-1
1.046578844E0,1.003411865E1,2.135147095E0,-1.600646973E-1
1.051705797E0,9.612976074E0,1.956878662E0,7.203674316E-2
1.056771715E0,9.201416016E0,1.791778564E0,8.041381836E-2
1.061898668E0,8.731216431E0,1.692474365E0,-2.366485596E-1
1.066995104E0,8.366317749E0,1.614700317E0,-7.702331543E-1
1.072091539E0,8.066009521E0,1.583602905E0,-1.287094116E0
1.077187975E0,7.814773560E0,1.584793091E0,-1.675918579E0
1.082284411E0,7.744186401E0,1.615905762E0,-1.807525635E0
1.087380846E0,7.837493896E0,1.723571777E0,-1.843414307E0
1.092477282E0,7.973892212E0,1.863555908E0,-1.912811279E0
1.097573717E0,8.186859131E0,2.040618896E0,-2.076721191E0
1.102670153E0,8.487152100E0,2.269134521E0,-2.277725220E0
1.107766588E0,8.755142212E0,2.514404297E0,-2.417694092E0
1.112863024E0,9.021942139E0,2.722579956E0,-2.363861084E0
1.117959459E0,9.203796387E0,2.835037231E0,-2.119796753E0
1.123055895E0,9.208587646E0,2.929565430E0,-1.823089600E0
1.128152330E0,9.035110474E0,3.058776855E0,-1.503646851E0
1.133248766E0,8.709686279E0,3.207122803E0,-1.252395630E0
1.138345202E0,8.387847900E0,3.343521118E0,-1.159072876E0
1.143441637E0,7.908081055E0,3.514602661E0,-1.075332642E0
1.148538073E0,7.518051147E0,3.676116943E0,-1.142318726E0
1.153634508E0,7.229721069E0,3.781402588E0,-1.291870117E0
1.158730944E0,7.032318115E0,3.857971191E0,-1.368438721E0
1.163827379E0,6.833709717E0,3.985992432E0,-1.419891357E0
1.168923815E0,6.676986694E0,4.137939453E0,-1.385192871E0
1.174020250E0,6.586059570E0,4.329360962E0,-1.478515625E0
1.179116686E0,6.644683838E0,4.445419312E0,-1.661560059E0
1.184213122E0,6.879180908E0,4.440628052E0,-1.790786743E0
1.189309557E0,7.284759521E0,4.378417969E0,-1.756088257E0
1.194436510E0,7.715469360E0,4.320983887E0,-1.568252563E0
1.199502428E0,8.086349487E0,4.239624023E0,-1.445022583E0
1.204629381E0,8.381866455E0,4.232452393E0,-1.311019897E0
1.209725817E0,8.858032227E0,4.219284058E0,-1.270339966E0
1.214822252E0,9.080566406E0,4.035049438E0,-1.740524292E0
1.219918688E0,8.726440430E0,3.846008301E0,-2.148513794E0
1.225015123E0,8.383056641E0,3.750289917E0,-1.747711182E0
1.230111559E0,8.418960571E0,3.564849854E0,-1.668746948E0
1.235207995E0,8.301712036E0,3.276519775E0,-1.480911255E0
1.240304430E0,8.246673584E0,3.070739746E0,-1.509628296E0
1.245400866E0,8.031311035E0,3.092269897E0,-1.699859619E0
1.250497301E0,7.696319580E0,3.290878296E0,-1.754882812E0
1.255593737E0,7.464218140E0,3.555282593E0,-1.958282471E0
1.260690172E0,7.005996704E0,4.037429810E0,-1.917602539E0
1.265786608E0,6.548965454E0,4.773223877E0,-1.422286987E0
1.270883043E0,6.158935547E0,5.891876221E0,-6.027374268E-1
1.275979479E0,5.928024292E0,6.732955933E0,1.341247559E-2
1.281075914E0,6.133804321E0,7.315597534E0,2.622680664E-1
1.286172350E0,6.424545288E0,7.858779907E0,4.010467529E-1
1.291268786E0,6.569305420E0,8.325378418E0,5.840911865E-1
1.296365221E0,6.668609619E0,8.759674072E0,7.743225098E-1
1.301461657E0,6.586059570E0,9.312408447E0,1.482604980E0
1.306558092E0,6.432907104E0,9.557678223E0,2.219589233E0
1.311654528E0,6.924636841E0,8.770431519E0,1.908523560E0
1.316750963E0,7.392440796E0,7.547714233E0,9.801025391E-1
1.321847399E0,7.709487915E0,6.419494629E0,-1.026458740E-1
1.326943834E0,7.854248047E0,5.725570679E0,-7.618713379E-1
1.332040270E0,7.812377930E0,5.538925171E0,-7.762298584E-1
1.337136705E0,7.710678101E0,5.756683350E0,-5.154113770E-1
1.342477282E0,7.655639648E0,6.021087646E0,-3.706359863E-1
1.347329577E0,7.642486572E0,6.126373291E0,-3.730316162E-1
1.352822741E0,7.589843750E0,6.068939209E0,-4.974517822E-1
1.357522448E0,7.463027954E0,6.005538940E0,-7.080230713E-1
1.362863024E0,7.218948364E0,5.994766235E0,-9.317626953E-1
1.367715319E0,6.936599731E0,6.005538940E0,-1.151901245E0
1.372933825E0,6.740386963E0,6.017501831E0,-1.309829712E0
1.377908190E0,6.632705688E0,6.034240723E0,-1.398361206E0
1.383004625E0,6.642288208E0,6.056976318E0,-1.492874146E0
1.388101061E0,6.667404175E0,6.145507812E0,-1.667556763E0
1.393197497E0,6.773895264E0,6.309417725E0,-1.692672729E0
1.398293932E0,7.003601074E0,6.583404541E0,-1.596954346E0
1.403390368E0,7.242889404E0,6.918395996E0,-1.478515625E0
1.408486803E0,7.576675415E0,7.252197266E0,-1.433059692E0
1.413583239E0,7.863815308E0,7.607528687E0,-1.504837036E0
1.418679674E0,8.142578125E0,7.910217285E0,-1.563461304E0
1.423776110E0,8.411773682E0,8.075317383E0,-1.570632935E0
1.428872545E0,8.674987793E0,8.105239868E0,-1.502441406E0
1.433968981E0,8.889144897E0,8.092071533E0,-1.270339966E0
1.439065416E0,9.024337769E0,8.139923096E0,-9.365386963E-1
1.444161852E0,9.110488892E0,8.121978760E0,-6.793060303E-1
1.449258288E0,9.140396118E0,8.004730225E0,-6.757202148E-1
1.454354723E0,9.102111816E0,7.789382935E0,-9.078216553E-1
1.459451159E0,9.033905029E0,7.583602905E0,-1.162658691E0
1.464547594E0,8.872390747E0,7.402938843E0,-1.324172974E0
1.469644030E0,8.708480835E0,7.234252930E0,-1.417495728E0
1.474740465E0,8.588851929E0,7.113403320E0,-1.394760132E0
1.479836901E0,8.523040771E0,7.004531860E0,-1.467742920E0
1.484933336E0,8.426132202E0,6.948303223E0,-1.551498413E0
1.490029772E0,8.341186523E0,6.872924805E0,-1.673538208E0
1.495126207E0,8.220352173E0,6.738937378E0,-1.818298340E0
1.500222643E0,8.033706665E0,6.519989014E0,-1.923583984E0
1.505349596E0,7.720245361E0,6.212509155E0,-1.969039917E0
1.510446032E0,7.350555420E0,5.800949097E0,-1.914016724E0
1.515542467E0,6.977279663E0,5.325973511E0,-1.929565430E0
1.520638903E0,6.626724243E0,4.813903809E0,-2.061172485E0
1.525735338E0,6.228332520E0,4.288681030E0,-2.071929932E0
1.530831774E0,5.789245605E0,3.716796875E0,-2.094665527E0
1.535928209E0,5.080963135E0,3.225067139E0,-2.176025391E0
1.541024645E0,4.293731689E0,2.718994141E0,-2.324371338E0
1.546121080E0,3.836700439E0,2.226074219E0,-2.566055298E0
1.551217516E0,3.444274902E0,1.846801758E0,-3.146316528E0
1.556313952E0,3.142776489E0,1.552490234E0,-3.659576416E0
1.561410387E0,2.960922241E0,1.114608765E0,-3.664352417E0
1.566506823E0,3.220550537E0,1.118194580E0,-3.505233765E0
1.571603258E0,3.385650635E0,1.535736084E0,-3.390380859E0
1.576730211E0,3.689544678E0,2.175811768E0,-3.233657837E0
1.581796129E0,3.822341919E0,2.717788696E0,-3.215698242E0
1.586923082E0,4.040084839E0,3.219085693E0,-3.103240967E0
1.592019518E0,4.242279053E0,3.783798218E0,-2.834045410E0
1.597115954E0,4.428924561E0,4.288681030E0,-2.320785522E0
1.602212389E0,4.584457397E0,4.605728149E0,-1.710617065E0
1.607308825E0,4.617950439E0,4.804336548E0,-1.120788574E0
1.612405260E0,4.542587280E0,4.980209351E0,-4.902801514E-1
1.617501696E0,4.394226074E0,5.128555298E0,1.856994629E-1
1.622598131E0,4.202804565E0,5.274520874E0,8.030395508E-1
1.627694567E0,3.969497681E0,5.342727661E0,1.230163574E0
1.632791002E0,3.775680542E0,5.294860840E0,1.585494995E0
1.637887438E0,3.681167603E0,5.072326660E0,1.587890625E0
1.642983873E0,3.346176147E0,4.890472412E0,1.895370483E0
1.648110827E0,3.395217896E0,4.337738037E0,1.705139160E0
1.653207262E0,2.844879150E0,3.885498047E0,2.004241943E0
1.658303698E0,2.984848022E0,3.465545654E0,1.414413452E0
1.663400133E0,3.061431885E0,3.469146729E0,6.510925293E-1
1.668496569E0,3.457443237E0,3.982406616E0,9.477233887E-2
1.673593004E0,3.541183472E0,4.994567871E0,-5.608673096E-1
1.678689440E0,3.720642090E0,6.079711914E0,-1.516799927E0
1.683785875E0,3.791229248E0,7.942520142E0,-2.307632446E0
1.688882311E0,3.888153076E0,1.003623962E1,-3.512420654E0
1.693978747E0,4.641891479E0,1.133674622E1,-4.871536255E0
1.699075182E0,5.864624023E0,1.205458069E1,-5.478118896E0
1.704171618E0,7.202209473E0,1.287652588E1,-4.951705933E0
1.709268053E0,9.233718872E0,1.305717468E1,-3.587783813E0
1.714364489E0,1.148297119E1,1.257023621E1,-2.651000977E0
1.719460924E0,1.344508362E1,1.182128906E1,-2.338729858E0
1.724557360E0,1.510690308E1,1.061291504E1,-1.759674072E0
1.729653795E0,1.663591003E1,8.352890015E0,-1.177017212E0
1.734750231E0,1.695295715E1,5.914611816E0,-1.228469849E0
1.739846666E0,1.588815308E1,4.696655273E0,-1.257186890E0
1.745278795E0,1.445484924E1,3.883102417E0,-1.296661377E0
1.750039538E0,1.291387939E1,2.906829834E0,-1.946319580E0
1.755135973E0,1.102354431E1,3.482299805E0,-2.215499878E0
1.760232409E0,9.559143066E0,4.665557861E0,-1.845809937E0
1.765695055E0,8.458435059E0,5.682495117E0,-1.507232666E0
1.770425280E0,8.152160645E0,5.835647583E0,-2.172439575E0
1.775765856E0,7.474990845E0,6.285491943E0,-2.439239502E0
1.780618151E0,7.166305542E0,6.643218994E0,-2.679718018E0
1.785836657E0,6.851654053E0,7.044021606E0,-3.006332397E0
1.790811022E0,7.111282349E0,7.055984497E0,-3.323379517E0
1.795907457E0,7.087356567E0,7.297653198E0,-3.963455200E0
1.801003893E0,6.862426758E0,7.710418701E0,-4.617904663E0
1.806100329E0,6.964126587E0,8.512008667E0,-5.238830566E0
1.811196764E0,7.087356567E0,9.564849854E0,-5.706634521E0
1.816293200E0,6.540588379E0,1.045140076E1,-6.146911621E0
1.821420153E0,5.256835938E0,1.096943665E1,-6.998764038E0
1.826516588E0,4.493530273E0,1.032458496E1,-7.169845581E0
1.831613024E0,4.028121948E0,9.380615234E0,-6.199554443E0
1.836709459E0,2.975280762E0,9.021682739E0,-6.266555786E0
1.841805895E0,2.265808105E0,8.788391113E0,-6.317993164E0
1.846902330E0,2.202407837E0,8.488082886E0,-5.682708740E0
1.851998766E0,2.201202393E0,8.398361206E0,-5.150299072E0
1.857095202E0,2.421340942E0,8.232055664E0,-4.638244629E0
1.862191637E0,2.615158081E0,8.112411499E0,-4.069946289E0
1.867288073E0,2.896316528E0,7.973632812E0,-3.336547852E0
1.872384508E0,3.140396118E0,7.766647339E0,-2.694076538E0
1.877480944E0,2.944183350E0,7.499847412E0,-2.530166626E0
1.882577379E0,2.618759155E0,7.233047485E0,-2.363861084E0
1.887673815E0,2.458435059E0,7.327560425E0,-1.431854248E0
1.892770250E0,2.307693481E0,7.656585693E0,2.058410645E-2
1.897866686E0,2.375885010E0,7.786987305E0,1.135635376E0
1.902963122E0,2.445266724E0,7.948501587E0,1.312713623E0
1.908059557E0,2.462020874E0,8.145919800E0,1.438339233E0
1.913155993E0,2.368698120E0,8.553894043E0,1.614212036E0
1.918252428E0,2.140182495E0,9.117401123E0,1.685989380E0
1.923348864E0,1.851852417E0,9.782608032E0,1.345016479E0
1.928445299E0,1.518051147E0,1.037243652E1,8.173980713E-1
1.933541735E0,1.284759521E0,1.073016357E1,3.603668213E-1
1.938638170E0,1.108886719E0,1.088330078E1,3.852844238E-2
1.943734606E0,1.195022583E0,1.080314636E1,-3.825988770E-1
1.948831041E0,1.669998169E0,1.083305359E1,-7.834014893E-1
1.953927477E0,2.406982422E0,1.081510925E1,-1.293075562E0
1.959023913E0,3.100906372E0,1.093354797E1,-1.594573975E0
1.964089830E0,3.746963501E0,1.114770508E1,-1.675918579E0
1.969216784E0,4.259033203E0,1.146475220E1,-1.654388428E0
1.974282702E0,4.491134644E0,1.136784363E1,-1.808731079E0
1.979409655E0,4.974487305E0,1.077801514E1,-1.964263916E0
1.984475573E0,4.640686035E0,1.076963806E1,-9.221801758E-1
1.989602526E0,4.262619019E0,1.075888062E1,-1.211715698E0
1.994668444E0,4.541381836E0,1.016545105E1,-1.480911255E0
1.999764879E0,4.483963013E0,1.005418396E1,-2.761230469E-1
2.004861315E0,3.953948975E0,1.019177246E1,-9.377441406E-1
2.009957750E0,4.036499023E0,9.408126831E0,-1.939132690E0
2.015054186E0,4.617950439E0,8.598159790E0,-6.637573242E-1
2.020150622E0,4.698120117E0,8.302642822E0,1.341247559E-2
2.025247057E0,4.802200317E0,8.014312744E0,-2.198944092E-1
2.030343493E0,5.297515869E0,7.240234375E0,-3.574829102E-1
2.035439928E0,5.174285889E0,6.673126221E0,-2.976531982E-1
2.040536364E0,5.053451538E0,6.206527710E0,-2.174987793E-1
2.045632799E0,5.073791504E0,5.867950439E0,-1.026458740E-1
2.050729235E0,5.124038696E0,5.524581909E0,-2.641601562E-1
2.055825670E0,5.147964478E0,5.453979492E0,-2.031402588E-1
2.060922106E0,4.936203003E0,5.501846313E0,-2.509918213E-1
2.066018541E0,4.869201660E0,5.457580566E0,-4.675445557E-1
2.071114977E0,5.060623169E0,5.212310791E0,-7.558898926E-1
2.076211413E0,5.094131470E0,5.169235229E0,-7.750244141E-1
2.081307848E0,5.320251465E0,5.206329346E0,-5.596771240E-1
2.086404284E0,5.630126953E0,5.200347900E0,-2.677459717E-1
2.091500719E0,6.041687012E0,5.006530762E0,2.896118164E-2
2.096597155E0,6.447265625E0,4.775619507E0,4.070281982E-1
2.101693590E0,6.922241211E0,4.627273560E0,5.362396240E-1
2.106790026E0,6.976089478E0,4.995758057E0,5.386352539E-1
2.111886461E0,6.779876709E0,5.407333374E0,4.967651367E-1
2.116982897E0,6.542984009E0,5.603530884E0,3.818969727E-1
2.122079332E0,6.495132446E0,5.516204834E0,3.125152588E-1
2.127175768E0,6.676986694E0,5.238632202E0,4.812011719E-1
2.132272204E0,6.952148438E0,4.989776611E0,6.475067139E-1
2.137368639E0,7.090942383E0,4.760070801E0,6.152038574E-1
2.142465075E0,7.120849609E0,4.470535278E0,3.316497803E-1
2.148110827E0,6.767913818E0,4.167846680E0,-3.838043213E-1
2.152657946E0,6.302505493E0,3.814895630E0,-7.953643799E-1
2.157754381E0,5.808380127E0,3.589981079E0,-1.002349854E0
2.162850817E0,5.232910156E0,3.637832642E0,-1.401947021E0
2.167947252E0,4.574890137E0,4.158279419E0,-1.982208252E0
2.173043688E0,4.421737671E0,4.834243774E0,-2.199951172E0
2.178140123E0,4.670593262E0,5.536544800E0,-2.496658325E0
2.183236559E0,5.104888916E0,5.979217529E0,-2.763458252E0
2.188668688E0,5.369308472E0,6.121582031E0,-2.674926758E0
2.193429430E0,5.663619995E0,6.162261963E0,-2.674926758E0
2.198739489E0,6.160125732E0,6.235244751E0,-3.023086548E0
2.203652819E0,6.671005249E0,6.631256104E0,-3.842620850E0
2.208810289E0,6.991638184E0,8.181808472E0,-5.086898804E0
2.213845690E0,6.761932373E0,9.743118286E0,-5.606140137E0
2.218942125E0,6.748764038E0,1.057582092E1,-4.664566040E0
2.224038561E0,6.903106689E0,1.071939087E1,-3.445419312E0
2.229134997E0,7.193832397E0,1.052557373E1,-2.769439697E0
2.234231432E0,7.153152466E0,1.029466248E1,-2.755081177E0
2.239327868E0,6.840896606E0,1.000035095E1,-2.765853882E0
2.244424303E0,6.394622803E0,9.563659668E0,-2.039627075E0
2.249520739E0,5.393234253E0,9.032455444E0,-6.829071045E-1
2.254617174E0,3.277969360E0,9.088684082E0,-4.531860352E-3
2.259744127E0,1.734603882E0,8.496459961E0,-4.017486572E-1
2.264810045E0,4.795684814E-1,8.477310181E0,3.735351562E-1
2.269936998E0,-1.712799072E-1,8.143524170E0,5.003509521E-1
2.275033434E0,1.266326904E-1,7.597961426E0,1.075820923E0
2.280129870E0,6.745910645E-1,6.792770386E0,1.514907837E0
2.285226305E0,1.354141235E0,6.083297729E0,1.991073608E0
2.290322741E0,1.735809326E0,5.702835083E0,2.385894775E0
2.295419176E0,2.288543701E0,5.546112061E0,2.235137939E0
2.300515612E0,2.844879150E0,5.724380493E0,1.962356567E0
2.305703600E0,3.195419312E0,6.229263306E0,1.709915161E0
2.310708483E0,3.534011841E0,6.776016235E0,1.148803711E0
2.315804918E0,3.829528809E0,7.103836060E0,2.060241699E-1
2.320901354E0,4.168106079E0,7.431655884E0,-3.562774658E-1
2.325997789E0,4.251861572E0,7.633850098E0,-1.069335938E0
2.331094225E0,4.131011963E0,7.983200073E0,-1.100448608E0
2.336190661E0,4.142974854E0,8.227264404E0,-1.720184326E0
2.341287096E0,4.773483276E0,8.086090088E0,-3.026672363E0
2.346383532E0,5.573883057E0,8.263153076E0,-2.341125488E0
2.351510485E0,5.857437134E0,9.220291138E0,-1.678314209E0
2.356576403E0,6.123046875E0,1.017024231E1,-1.126770020E0
2.361703356E0,7.503707886E0,9.673736572E0,-1.581405640E0
2.366799791E0,8.540985107E0,9.301651001E0,-2.865158081E0
2.371896227E0,9.421554565E0,8.922378540E0,-3.816299438E0
2.376992663E0,9.884552002E0,8.592178345E0,-4.948104858E0
2.382089098E0,9.903701782E0,8.355285645E0,-6.463958740E0
2.387185534E0,9.947967529E0,8.021484375E0,-7.989379883E0
2.392281969E0,1.037030029E1,7.536941528E0,-9.275527954E0
2.397378405E0,1.104507446E1,7.029663086E0,-9.801956177E0
2.402474840E0,1.187777710E1,6.463760376E0,-9.727767944E0
2.407571276E0,1.217210388E1,5.866744995E0,-9.262374878E0
2.412667711E0,1.129153442E1,5.491073608E0,-8.528961182E0
2.417764147E0,9.542388916E0,5.337936401E0,-7.340927124E0
2.422860582E0,7.039489746E0,5.029266357E0,-5.887298584E0
2.427957018E0,4.729217529E0,4.616500854E0,-4.434844971E0
2.433053454E0,3.018356323E0,4.398757935E0,-2.886688232E0
2.438149889E0,1.589355469E-1,4.909622192E0,-1.928359985E0
2.443246325E0,-4.331207275E0,6.493667603E0,-1.443817139E0
2.448342760E0,-6.442871094E0,7.405334473E0,2.383270264E-1
2.453469713E0,-7.754135132E0,8.123184204E0,1.846313477E0
2.458535631E0,-8.282943726E0,8.675918579E0,4.245117188E0
2.463632067E0,-7.666793823E0,8.973831177E0,7.702743530E0
2.468728502E0,-5.684341431E0,8.899658203E0,1.067463684E1
2.473855455E0,-3.176666260E0,8.564651489E0,1.211271667E1
2.478921373E0,-9.800567627E-1,8.240432739E0,1.256735229E1
2.484017809E0,8.133697510E-1,7.830062866E0,1.102517700E1
2.489114245E0,2.420150757E0,6.998550415E0,7.390487671E0
2.494210680E0,3.811569214E0,6.309417725E0,3.963958740E0
2.499307116E0,5.798812866E0,5.936141968E0,3.716308594E0
2.504403551E0,6.458038330E0,5.873931885E0,3.208923340E-1
2.509499987E0,6.869598389E0,5.943313599E0,-7.751464844E-2
2.514596422E0,7.227325439E0,6.077316284E0,3.304595947E-1
2.519692858E0,7.106491089E0,6.328567505E0,-6.661529541E-1
2.524789293E0,6.651855469E0,6.648010254E0,-2.849609375E0
2.529885729E0,6.180465698E0,7.023681641E0,-4.544921875E0
2.534982164E0,5.749755859E0,7.556076050E0,-4.939727783E0
2.540078600E0,5.625335693E0,8.287094116E0,-4.275726318E0
2.545205553E0,6.264221191E0,8.882904053E0,-3.129562378E0
2.550973375E0,7.459426880E0,9.251403809E0,-7.857971191E-1
2.555398424E0,8.476379395E0,9.557678223E0,1.920486450E0
2.560464342E0,8.931015015E0,9.902236938E0,3.843124390E0
2.565591295E0,8.727630615E0,1.037004089E1,4.565750122E0
2.570687731E0,7.796829224E0,1.079118347E1,5.110122681E0
2.575784166E0,7.461822510E0,1.068231201E1,4.144622803E0
2.580941637E0,5.640884399E0,1.000633240E1,8.421783447E0
2.585977038E0,4.309280396E0,9.170043945E0,1.172387695E1
2.591073473E0,4.172897339E0,8.436645508E0,8.543823242E0
2.596169909E0,4.445678711E0,7.851593018E0,4.534652710E0
2.601571520E0,4.638290405E0,7.384994507E0,1.638137817E0
2.606362780E0,4.669403076E0,7.012908936E0,-4.268646240E-1
2.611611803E0,4.560531616E0,6.730560303E0,-1.948699951E0
2.616555651E0,4.300903320E0,6.516403198E0,-2.975219727E0
2.621682604E0,3.938400269E0,6.350097656E0,-3.501647949E0
2.626748522E0,3.512466431E0,6.313003540E0,-3.722976685E0
2.631844957E0,3.024337769E0,6.447006226E0,-3.721786499E0
2.636971911E0,2.530212402E0,6.656387329E0,-3.587783813E0
2.642068346E0,2.037292480E0,6.943511963E0,-3.362869263E0
2.647164782E0,1.570693970E0,7.382598877E0,-3.039825439E0
2.652261217E0,1.067001343E0,8.001144409E0,-2.484695435E0
2.657357653E0,6.219482422E-1,8.656784058E0,-1.863754272E0
2.662454088E0,2.845611572E-1,9.380615234E0,-1.224884033E0
2.667550524E0,1.816558838E-1,9.990783691E0,-6.015472412E-1
2.672677477E0,3.144683838E-1,1.046215820E1,-5.737304688E-3
2.677773913E0,4.939270020E-1,1.093594360E1,5.266723633E-1
2.682870348E0,6.949310303E-1,1.141091919E1,1.011215210E0
2.687966784E0,7.738800049E-1,1.207492065E1,1.273223877E0
2.693063219E0,8.025970459E-1,1.275807190E1,1.419189453E0
2.698159655E0,8.301239014E-1,1.336465454E1,1.488586426E0
2.703256090E0,8.157653809E-1,1.388987732E1,1.489776611E0
2.708352526E0,7.248382568E-1,1.437443542E1,1.443115234E0
2.713479479E0,6.458740234E-1,1.479078674E1,1.366546631E0
2.718575914E0,5.609283447E-1,1.505039978E1,1.237335205E0
2.723672350E0,3.503570557E-1,1.518559265E1,1.117691040E0
2.728768786E0,-3.435668945E-1,1.513655090E1,8.820037842E-1
2.733865221E0,-3.495483398E-1,1.361111450E1,6.822052002E-1
2.738961657E0,5.609283447E-1,1.160592651E1,5.541839600E-1
2.744058092E0,1.844680786E0,1.023724365E1,3.723297119E-1
2.749154528E0,2.001403809E0,9.808929443E0,1.617584229E-1
2.754250963E0,1.831512451E0,9.470336914E0,-3.205871582E-2
2.759347399E0,1.741790771E0,9.254989624E0,-9.426879883E-2
2.764474352E0,1.802795410E0,9.220291138E0,-8.470153809E-2
2.769540270E0,1.865020752E0,9.172439575E0,-4.521179199E-2
2.774667223E0,1.939193726E0,9.044418335E0,7.431030273E-3
2.779763659E0,2.040893555E0,8.892471313E0,1.127166748E-1
2.784860094E0,2.128219604E0,8.763259888E0,2.203826904E-1
2.789956530E0,2.478775024E0,8.397155762E0,1.856994629E-1
2.795052965E0,2.999206543E0,7.807327271E0,8.518981934E-2
2.800149401E0,3.312667847E0,7.440032959E0,7.431030273E-3
2.805245836E0,3.099716187E0,7.715209961E0,-3.341674805E-3
2.810342272E0,2.605590820E0,8.368438721E0,7.920837402E-2
2.815438707E0,2.290939331E0,8.947509766E0,3.065338135E-1
2.820535143E0,1.960723877E0,9.481109619E0,5.039367676E-1
2.825631579E0,1.643676758E0,9.895065308E0,7.360382080E-1
2.830728014E0,1.315856934E0,1.006614685E1,8.676452637E-1
2.835824450E0,1.094528198E0,1.000035095E1,8.520965576E-1
2.840920885E0,1.052658081E0,9.689285278E0,6.977539062E-1
2.846047838E0,1.290740967E0,9.299255371E0,4.512939453E-1
2.851144274E0,1.521636963E0,9.098251343E0,2.921752930E-1
2.856240709E0,1.668807983E0,9.028869629E0,2.790069580E-1
2.861337145E0,1.756134033E0,8.998947144E0,4.560852051E-1
2.866433580E0,1.865020752E0,8.990585327E0,7.444152832E-1
2.871530016E0,1.999008179E0,8.982208252E0,1.167938232E0
2.876626452E0,1.902099609E0,9.223876953E0,1.428756714E0
2.881722887E0,1.813568115E0,9.356674194E0,1.331848145E0
2.886849840E0,2.383056641E0,8.290679932E0,1.818847656E-2
2.891946276E0,3.062622070E0,7.191177368E0,-8.085327148E-1
2.897042711E0,3.404800415E0,6.814300537E0,-9.425201416E-1
2.902139147E0,3.770904541E0,6.823883057E0,-5.249786377E-1
2.907235582E0,4.096328735E0,7.057174683E0,1.067352295E-1
2.912332018E0,3.492126465E0,8.054977417E0,7.719268799E-1
2.917428454E0,1.809982300E0,9.814910889E0,1.518493652E0
2.922524889E0,6.351013184E-1,1.110942078E1,1.924072266E0
2.927621325E0,8.181610107E-1,1.158081055E1,1.965957642E0
2.932717760E0,1.405593872E0,1.146835327E1,1.804443359E0
2.937844713E0,1.442687988E0,1.127691650E1,1.522079468E0
2.942941149E0,1.055038452E0,1.110823059E1,1.211013794E0
2.948037584E0,8.073883057E-1,1.085697937E1,1.001647949E0
2.953744372E0,8.145599365E-1,1.051121521E1,9.394378662E-1
2.958230455E0,1.470199585E0,9.818496704E0,6.570739746E-1
2.963326891E0,1.732208252E0,9.262161255E0,4.572753906E-1
2.968423327E0,1.528823853E0,8.986984253E0,3.543853760E-1
2.973519762E0,1.203399658E0,8.940322876E0,3.818969727E-1
2.978616198E0,8.953857422E-2,9.134155273E0,6.175994873E-1
2.983773668E0,-9.865798950E0,1.121829224E1,3.486587524E0
2.988839586E0,-1.327676392E1,1.140852356E1,5.321884155E0
2.993936022E0,-1.263908386E1,9.889083862E0,4.413803101E0
2.999032457E0,-9.711456299E0,8.211715698E0,2.122680664E0
3.004403551E0,-5.831497192E0,7.249801636E0,-2.306518555E-1
3.009225329E0,-1.629699707E0,6.939926147E0,-1.994171143E0
3.014474352E0,1.966705322E0,7.016494751E0,-2.528961182E0
3.019418200E0,3.852249146E0,7.563262939E0,-1.989379883E0
3.024514635E0,3.702697754E0,8.433044434E0,-9.760284424E-1
3.029611071E0,3.616561890E0,8.979812622E0,-3.564453125E-2
3.034707506E0,3.919250488E0,9.058776855E0,4.931640625E-1
3.039834459E0,4.182464600E0,8.854187012E0,1.330566406E-1
3.044930895E0,4.734008789E0,8.434249878E0,-4.902801514E-1
3.050027330E0,5.764114380E0,7.838439941E0,-8.791198730E-1
3.055123766E0,6.478378296E0,7.462768555E0,-1.333755493E0
3.060220202E0,6.660232544E0,7.209121704E0,-2.556488037E0
3.065316637E0,6.468811035E0,7.205535889E0,-3.135543823E0
3.070413073E0,7.083755493E0,7.203140259E0,-2.996765137E0
3.075509508E0,7.458236694E0,7.587188721E0,-1.801544189E0
3.080605944E0,7.685562134E0,8.035842896E0,-5.082244873E-1
3.085732897E0,7.865020752E0,8.517990112E0,3.615570068E-1
3.090829332E0,7.953552246E0,8.884094238E0,2.802124023E-1
3.095925768E0,8.007385254E0,9.162857056E0,-2.043304443E-1
3.101022204E0,7.634109497E0,9.349502563E0,-2.976531982E-1
3.106118639E0,6.819351196E0,9.537338257E0,2.371368408E-1
3.111215075E0,4.878768921E0,9.716796875E0,1.141632080E0
3.116311510E0,1.920043945E0,9.846008301E0,1.219390869E0
3.121407946E0,9.312438965E-2,9.550491333E0,9.956665039E-1
3.126534899E0,3.491668701E-1,8.928359985E0,1.173934937E0
3.131631334E0,2.227523804E0,8.179412842E0,5.035400391E-3
3.136727770E0,3.602203369E0,7.420883179E0,-1.049011230E0
3.141824205E0,3.822341919E0,7.240234375E0,-4.460144043E-1
3.146920641E0,3.727828979E0,7.490280151E0,1.749267578E-1
3.152017077E0,3.785247803E0,7.680511475E0,3.852844238E-2
3.157113512E0,3.390441895E0,7.487884521E0,-8.599700928E-1
3.162209948E0,2.788650513E0,7.126571655E0,-1.440231323E0
3.167306383E0,2.048065186E0,6.600143433E0,-2.069549561E0
3.172402819E0,1.692733765E0,6.134750366E0,-2.976425171E0
3.177529772E0,1.595825195E0,5.999557495E0,-4.090286255E0
3.182626207E0,1.710678101E0,6.218490601E0,-5.074935913E0
3.187722643E0,2.036102295E0,6.693466187E0,-5.447006226E0
3.192819079E0,3.175079346E0,7.309616089E0,-5.756881714E0
3.197915514E0,3.271987915E0,7.615905762E0,-6.371841431E0
3.203011950E0,2.859237671E0,7.119384766E0,-7.090881348E0
3.208108385E0,3.639297485E0,7.160064697E0,-6.215103149E0
3.213204821E0,6.241485596E0,7.533355713E0,-2.712020874E0
3.218301256E0,9.164321899E0,7.895858765E0,2.286590576E0
3.223428209E0,1.064428711E1,8.634048462E0,5.397262573E0
3.228524645E0,1.099243164E1,9.416503906E0,6.245513916E0
3.233621080E0,1.069572449E1,9.471542358E0,6.143814087E0
3.238717516E0,9.331817627E0,9.064758301E0,6.054092407E0
3.243813952E0,7.105300903E0,8.559875488E0,4.879211426E0
3.248910387E0,5.203002930E0,8.290679932E0,3.725875854E0
3.254006823E0,3.951553345E0,8.159072876E0,2.705337524E0
3.259103258E0,3.664413452E0,8.299057007E0,2.023376465E0
3.264199694E0,4.486358643E0,8.436645508E0,1.538833618E0
3.269326647E0,5.468612671E0,8.452194214E0,1.349807739E0
3.274423082E0,6.235504150E0,8.466552734E0,1.214599609E0
3.279519518E0,7.096923828E0,8.278717041E0,6.271667480E-1
3.284615954E0,7.692733765E0,8.037033081E0,1.330566406E-1
3.289712389E0,7.411575317E0,7.903045654E0,-2.916717529E-1
3.294808825E0,6.417358398E0,7.855178833E0,-6.051330566E-1
3.299935778E0,5.526031494E0,7.827667236E0,-6.685485840E-1
3.305032213E0,4.668212891E0,7.806137085E0,-5.345458984E-1
3.310128649E0,3.963516235E0,7.729553223E0,-3.275756836E-1
3.315225084E0,3.024337769E0,7.553695679E0,-3.311614990E-1
3.320321520E0,3.122436523E0,7.652984619E0,3.125152588E-1
3.325417955E0,2.724044800E0,7.909027100E0,1.081802368E0
3.330514391E0,4.591629028E0,7.747512817E0,1.199050903E0
3.335610827E0,6.437698364E0,7.301239014E0,7.264709473E-1
3.340737780E0,6.521453857E0,7.166046143E0,3.208923340E-1
3.345834215E0,5.193435669E0,7.419692993E0,3.699340820E-1
3.350930651E0,4.394226074E0,7.570434570E0,5.266723633E-1
3.356576403E0,4.621551514E0,7.420883179E0,5.972595215E-1
3.361123522E0,5.011581421E0,7.380203247E0,4.094238281E-1
3.366219957E0,5.187454224E0,7.676925659E0,2.287597656E-1
3.371316393E0,5.012771606E0,8.107620239E0,2.297973633E-2
3.376412829E0,4.731613159E0,8.523971558E0,-3.000488281E-1
3.381509264E0,4.990036011E0,8.935546875E0,-2.557830811E-1
3.386605700E0,5.236495972E0,9.327972412E0,7.681274414E-2
3.391732653E0,5.436309814E0,9.662963867E0,2.550811768E-1
3.397134264E0,5.604995728E0,9.726364136E0,2.479095459E-1
3.401925524E0,5.721054077E0,9.664154053E0,1.174926758E-1
3.407205065E0,5.106094360E0,9.534942627E0,2.656555176E-2
3.412118395E0,4.431320190E0,9.363861084E0,3.375244141E-2
3.417275866E0,4.519851685E0,8.941528320E0,7.801818848E-2
3.422341784E0,5.013961792E0,8.312210083E0,-8.230590820E-2
3.427438219E0,5.890945435E0,7.602737427E0,-4.376373291E-1
3.432534655E0,6.899520874E0,7.088287354E0,-5.477142334E-1
3.437631090E0,7.802810669E0,6.814300537E0,-5.883789062E-1
3.442727526E0,8.412979126E0,6.730560303E0,-5.297546387E-1
3.447823961E0,8.469207764E0,6.834640503E0,-3.622589111E-1
3.452920397E0,8.233505249E0,7.185195923E0,-3.622589111E-1
3.458047350E0,8.689346313E0,7.442428589E0,-4.280700684E-1
3.463143786E0,9.281570435E0,8.124374390E0,1.103210449E-1
3.468240221E0,9.358139038E0,9.300445557E0,1.031555176E0
3.473336657E0,9.347366333E0,1.013435364E1,1.595062256E0
3.478433092E0,9.317459106E0,1.034490967E1,1.943222046E0
3.483529528E0,9.114074707E0,1.002308655E1,2.127471924E0
3.488625963E0,8.799407959E0,9.343521118E0,2.049697876E0
3.493722399E0,8.320846558E0,8.528762817E0,1.761367798E0
3.498818834E0,7.490539551E0,7.865951538E0,1.700347900E0
3.503915270E0,6.592041016E0,7.156478882E0,1.425170898E0
3.509042223E0,5.375289917E0,6.633651733E0,1.094970703E0
3.514169176E0,4.564117432E0,6.175415039E0,6.367340088E-1
3.519235094E0,4.180068970E0,5.665756226E0,6.666564941E-1
3.524331530E0,3.664413452E0,5.336730957E0,8.664550781E-1
3.529427965E0,3.739791870E0,5.067550659E0,7.635650635E-1
3.534524401E0,4.499511719E0,4.798355103E0,5.494079590E-1
3.539620836E0,5.054641724E0,4.422683716E0,3.065338135E-1
3.544717272E0,5.675582886E0,3.922576904E0,2.993469238E-1
3.549844225E0,6.625534058E0,3.405731201E0,3.149108887E-1
3.554940661E0,7.400802612E0,3.039627075E0,2.574768066E-1
3.560037096E0,7.486953735E0,3.190368652E0,4.548797607E-1
3.565133532E0,7.320648193E0,3.665344238E0,6.594696045E-1
3.570229967E0,7.214172363E0,4.157073975E0,6.654510498E-1
3.575326403E0,7.532409668E0,4.611709595E0,6.965637207E-1
3.580422838E0,7.920059204E0,5.166854858E0,1.206237793E0
3.585519274E0,7.899719238E0,5.991180420E0,1.770935059E0
3.590646227E0,7.291931152E0,6.857376099E0,1.870239258E0
3.595742663E0,6.542984009E0,7.374221802E0,1.719497681E0
3.600839098E0,5.914871216E0,7.199554443E0,1.482604980E0
3.605935534E0,5.966308594E0,6.527160645E0,1.318695068E0
3.611031969E0,6.182861328E0,5.927764893E0,1.183502197E0
3.616128405E0,5.840682983E0,5.451599121E0,8.987579346E-1
3.621255358E0,5.996215820E0,4.755279541E0,5.182952881E-1
3.626351793E0,6.075180054E0,4.219284058E0,4.465026855E-1
3.631448229E0,6.237899780E0,3.286087036E0,-4.760742188E-2
3.636544664E0,6.542984009E0,2.563461304E0,4.106140137E-1
3.641641100E0,6.977279663E0,2.094467163E0,5.852966309E-1
3.646737536E0,7.547973633E0,1.766647339E0,5.326538086E-1
3.651833971E0,8.627136230E0,1.491470337E0,6.140136719E-1
3.656930407E0,8.890335083E0,1.911407471E0,9.442138672E-1
3.662057360E0,9.374893188E0,2.809921265E0,9.095153809E-1
3.667153795E0,9.873794556E0,3.207122803E0,9.406280518E-1
3.672250231E0,1.009274292E1,3.266952515E0,1.005233765E0
3.677346666E0,1.042533875E1,3.410522461E0,1.138031006E0
3.682443102E0,1.078067017E1,3.868743896E0,1.288787842E0
3.687539538E0,1.058445740E1,4.328170776E0,1.228958130E0
3.692666491E0,9.952758789E0,4.410720825E0,1.037536621E0
3.697762926E0,9.822341919E0,4.348495483E0,7.743225098E-1
3.702859362E0,9.458633423E0,4.342514038E0,4.812011719E-1
3.707955797E0,8.799407959E0,4.252792358E0,-4.043579102E-2
3.713052233E0,8.749160767E0,4.135543823E0,-3.885803223E-1
3.718148668E0,8.532608032E0,4.137939453E0,-3.921813965E-1
3.723275622E0,8.061233521E0,3.948898315E0,-3.885803223E-1
3.728372057E0,8.270599365E0,3.913009644E0,-3.335571289E-1
3.733468493E0,8.477584839E0,4.267150879E0,-6.436157227E-2
3.738564928E0,7.995422363E0,4.566253662E0,1.988525391E-1
3.743661364E0,8.183258057E0,4.633255005E0,5.039367676E-1
3.748757799E0,9.226531982E0,4.996963501E0,9.765167236E-1
3.753884752E0,9.451461792E0,5.268539429E0,1.091369629E0
3.759347399E0,9.164321899E0,5.148895264E0,9.968566895E-1
3.764077623E0,9.021942139E0,4.865356445E0,9.262695312E-1
3.769174059E0,8.785064697E0,4.722976685E0,8.221893311E-1
3.774270495E0,8.411773682E0,4.642822266E0,6.798095703E-1
3.779366930E0,8.478775024E0,4.596160889E0,4.046325684E-1
3.784493883E0,8.518264771E0,4.586593628E0,2.933654785E-1
3.789926012E0,8.563720703E0,4.494461060E0,2.167968750E-1
3.794686754E0,8.652252197E0,4.261169434E0,2.359466553E-1
3.799966295E0,8.707290649E0,4.025466919E0,2.371368408E-1
3.804879625E0,8.724044800E0,3.847198486E0,5.647277832E-2
3.810037096E0,8.282562256E0,4.063751221E0,5.049133301E-2
3.815103014E0,7.632919312E0,4.612915039E0,4.450988770E-2
3.820199450E0,7.424743652E0,4.946701050E0,-4.760742188E-2
3.825295885E0,7.637695312E0,4.858169556E0,-1.780242920E-1
3.830392321E0,7.812377930E0,4.507629395E0,-2.450103760E-1
3.835488756E0,7.425933838E0,3.750289917E0,-5.082244873E-1
3.840615709E0,7.995422363E0,3.339920044E0,-7.391357422E-1
3.845712145E0,8.131820679E0,3.375823975E0,-6.625671387E-1
3.850808580E0,7.955947876E0,3.525375366E0,-6.888885498E-1
3.855905016E0,7.777679443E0,3.393768311E0,-6.829071045E-1
3.861001452E0,7.561126709E0,3.107818604E0,-5.836029053E-1
3.866097887E0,7.951156616E0,2.765655518E0,-4.185028076E-1
3.871224840E0,8.271804810E0,2.606521606E0,-1.110229492E-1
3.876321276E0,8.134216309E0,2.448608398E0,-3.445434570E-2
3.881417711E0,8.435699463E0,2.315795898E0,-2.725372314E-1
3.886514147E0,8.653457642E0,2.523971558E0,-1.971588135E-1
3.891610582E0,8.939392090E0,2.991775513E0,7.801818848E-2
3.896707018E0,8.487152100E0,3.887878418E0,4.273681641E-1
3.901833971E0,8.860427856E0,4.909622192E0,2.622680664E-1
3.906930407E0,9.214569092E0,5.922973633E0,-5.119323730E-2
3.912026842E0,9.657241821E0,6.628860474E0,-5.166015625E-1
3.917123278E0,9.738601685E0,7.097854614E0,-8.216857910E-1
3.922219713E0,9.493331909E0,7.218688965E0,-7.642517090E-1
3.927316149E0,9.413177490E0,7.046417236E0,-2.976531982E-1
3.932412584E0,9.415573120E0,6.827468872E0,3.795166016E-1
3.937539538E0,9.026733398E0,6.579803467E0,7.575836182E-1
3.942635973E0,8.738403320E0,6.301040649E0,7.707366943E-1
3.947732409E0,8.753952026E0,6.120391846E0,8.688354492E-1
3.952828844E0,8.293334961E0,6.006729126E0,8.221893311E-1
3.957925280E0,7.866210938E0,5.767440796E0,4.848022461E-1
3.963021715E0,7.804000854E0,5.780609131E0,4.237823486E-1
3.968118151E0,7.738189697E0,6.152694702E0,4.919738770E-1
3.973245104E0,7.510879517E0,6.285491943E0,2.909698486E-1
3.978341539E0,7.659240723E0,5.870330811E0,2.730255127E-1
3.983437975E0,7.769302368E0,5.529357910E0,4.692382812E-1
3.988534411E0,7.783660889E0,5.383392334E0,5.374298096E-1
3.993630846E0,7.788452148E0,5.285293579E0,4.632568359E-1
3.998727282E0,7.854248047E0,5.190780640E0,3.914794922E-1
4.003823717E0,7.942779541E0,5.116592407E0,3.627624512E-1
4.008920153E0,8.020553589E0,5.061569214E0,3.316497803E-1
4.014047106E0,8.080368042E0,5.008926392E0,2.957611084E-1
4.019143541E0,8.111480713E0,4.945510864E0,2.670440674E-1
4.024239977E0,8.073196411E0,4.879714966E0,1.797027588E-1
4.029336413E0,8.019348145E0,4.830657959E0,1.533966064E-1
4.034432848E0,7.886550903E0,4.751693726E0,1.856994629E-1
4.039529284E0,6.667404175E0,4.386795044E0,6.845092773E-2
4.044625719E0,6.502304077E0,3.524169922E0,-3.526916504E-1
4.049722155E0,7.010772705E0,3.586395264E0,-1.397247314E-1
4.054818590E0,7.173492432E0,4.130752563E0,1.545867920E-1
4.059915026E0,7.396026611E0,4.745712280E0,3.759155273E-1
4.065041979E0,8.873596191E0,4.117599487E0,8.820037842E-1
4.070138414E0,9.056640625E0,5.062759399E0,1.039932251E0
4.075234850E0,9.705093384E0,6.542724609E0,6.295623779E-1
4.080331286E0,8.846069336E0,7.059570312E0,5.049133301E-2
4.085427721E0,8.768310547E0,6.411117554E0,-2.509918213E-1
4.090524157E0,8.886749268E0,5.585586548E0,2.132110596E-1
4.095620592E0,8.586456299E0,5.263763428E0,6.439208984E-1
4.100717028E0,8.336410522E0,5.203933716E0,6.451110840E-1
4.105813463E0,8.258636475E0,5.182403564E0,5.326538086E-1
4.110909899E0,8.244277954E0,5.146514893E0,4.141998291E-1
4.116036852E0,8.251464844E0,5.012512207E0,3.340454102E-1
4.121133288E0,8.234710693E0,4.890472412E0,2.347412109E-1
4.126229723E0,8.188049316E0,4.800750732E0,1.390380859E-1
4.131326159E0,8.100708008E0,4.760070801E0,1.593780518E-1
4.136422594E0,8.232315063E0,4.087692261E0,3.567810059E-1
4.141519030E0,4.238693237E0,1.699645996E0,-2.785186768E-1
4.146645983E0,4.221939087E0,1.533340454E0,1.856994629E-1
4.151742418E0,4.915863037E0,2.411514282E0,8.329467773E-1
4.156838854E0,5.559539795E0,3.286087036E0,9.454193115E-1
4.162209948E0,5.851455688E0,4.006332397E0,9.238739014E-1
4.167031725E0,5.778472900E0,4.667938232E0,1.047103882E0
4.172128161E0,6.073989868E0,5.267349243E0,9.226837158E-1
4.177224596E0,6.809783936E0,5.739929199E0,7.683410645E-1
4.182656725E0,7.722640991E0,6.103637695E0,5.685424805E-1
4.187447985E0,8.797027588E0,6.481704712E0,5.242767334E-1
4.192727526E0,9.760131836E0,6.693466187E0,5.147094727E-1
4.197640856E0,1.040618896E1,6.771240234E0,5.254669189E-1
4.202828844E0,1.092543030E1,6.304641724E0,6.570739746E-1
4.207833727E0,1.091825867E1,5.956481934E0,8.640594482E-1
4.212930163E0,1.071846008E1,5.627471924E0,8.305511475E-1
4.218057116E0,1.051626587E1,5.282897949E0,5.864868164E-1
4.223153551E0,9.965911865E0,4.883300781E0,4.501037598E-1
4.228249987E0,9.000411987E0,4.379608154E0,3.364410400E-1
4.233346422E0,8.320846558E0,3.935745239E0,2.814025879E-1
4.238442858E0,7.641281128E0,3.538528442E0,3.531951904E-1
4.243539293E0,7.262023926E0,3.359069824E0,2.849884033E-1
4.248635729E0,6.895919800E0,3.277709961E0,1.569824219E-1
4.253732164E0,6.430526733E0,3.292068481E0,1.605682373E-1
4.258828600E0,5.906494141E0,3.264556885E0,2.849884033E-1
4.263955553E0,5.322647095E0,3.187988281E0,3.041381836E-1
4.269051989E0,4.997222900E0,3.045608521E0,3.352508545E-1
4.274148424E0,5.541580200E0,3.093460083E0,5.793151855E-1
4.279244860E0,5.658828735E0,3.435638428E0,8.748321533E-1
4.284341295E0,5.584655762E0,3.826873779E0,1.075820923E0
4.289437731E0,6.184066772E0,4.098449707E0,1.264862061E0
4.294564684E0,7.431915283E0,4.364059448E0,1.575927734E0
4.299661120E0,8.271804810E0,5.327163696E0,1.404830933E0
4.304757555E0,9.094924927E0,5.992370605E0,6.403350830E-1
4.309853991E0,9.761322021E0,6.107223511E0,1.306610107E-1
4.314950426E0,1.076870728E1,5.650192261E0,2.933654785E-1
4.320046862E0,1.149851990E1,5.375030518E0,7.695465088E-1
4.325143297E0,1.212304688E1,5.285293579E0,9.537811279E-1
4.330239733E0,1.274876404E1,5.071136475E0,9.238739014E-1
4.335366686E0,1.351567078E1,4.697860718E0,7.097167969E-1
4.340463122E0,1.422633362E1,4.319793701E0,5.482025146E-1
4.345559557E0,1.515594482E1,3.828063965E0,5.793151855E-1
4.350655993E0,1.358865356E1,3.448806763E0,4.776153564E-1
4.355752428E0,1.212065125E1,2.777618408E0,5.302581787E-1
4.360848864E0,1.116352844E1,2.331359863E0,5.015411377E-1
4.365945299E0,1.042773438E1,2.244018555E0,3.771209717E-1
4.371072252E0,9.903701782E0,2.294265747E0,2.395324707E-1
4.376168688E0,9.549560547E0,2.453384399E0,2.443237305E-1
4.381265123E0,9.178680420E0,2.663955688E0,3.125152588E-1
4.386361559E0,8.685760498E0,2.831451416E0,4.321594238E-1
4.391457995E0,8.405792236E0,2.936737061E0,5.147094727E-1
4.396554430E0,8.325637817E0,3.148498535E0,3.005523682E-1
4.401681383E0,8.349563599E0,3.319595337E0,2.909698486E-1
4.406777819E0,8.351959229E0,3.306427002E0,3.077239990E-1
4.411874254E0,8.283767700E0,3.330352783E0,2.921752930E-1
4.416970690E0,8.220352173E0,3.415298462E0,3.005523682E-1
4.422067125E0,8.268203735E0,3.509811401E0,3.507995605E-1
4.427163561E0,8.397415161E0,3.555282593E0,4.082183838E-1
4.432290514E0,8.557739258E0,3.549301147E0,3.687438965E-1
4.437386950E0,8.079177856E0,3.531356812E0,5.003509521E-1
4.442483385E0,8.390243530E0,3.381805420E0,2.239837646E-1
4.447579821E0,8.908294678E0,3.512207031E0,2.896118164E-2
4.452676256E0,9.041091919E0,3.694061279E0,-5.239868164E-2
4.457772692E0,8.889144897E0,3.816101074E0,4.571533203E-2
4.462899645E0,8.027725220E0,3.982406616E0,1.055297852E-1
4.467996080E0,7.275192261E0,3.928558350E0,3.519897461E-1
4.473092516E0,8.515869141E0,4.049392700E0,3.795166016E-1
4.478188952E0,9.675186157E0,4.249206543E0,5.410308838E-1
4.483285387E0,1.002095032E1,4.288681030E0,7.946624756E-1
4.488412340E0,9.528030396E0,4.285095215E0,9.154968262E-1
4.493508776E0,8.410583496E0,4.416702271E0,7.025451660E-1
4.498605211E0,6.022537231E0,4.451400757E0,5.314483643E-1
4.503701647E0,5.100112915E0,3.773025513E0,8.808135986E-1
4.508798082E0,4.908691406E0,3.597152710E0,7.982482910E-1
4.513925036E0,4.902709961E0,3.719192505E0,8.915710449E-1
4.519021471E0,4.829727173E0,3.811309814E0,1.001647949E0
4.524117907E0,5.004394531E0,3.703643799E0,9.932708740E-1
4.529214342E0,5.633712769E0,3.496658325E0,9.920806885E-1
4.534341295E0,5.867004395E0,3.502639771E0,9.777221680E-1
4.539437731E0,6.050064087E0,3.449996948E0,8.544921875E-1
4.544534166E0,6.483169556E0,3.414108276E0,5.673522949E-1
4.549630602E0,7.624542236E0,3.444015503E0,5.254669189E-1
4.554818590E0,9.374893188E0,3.465545654E0,4.536895752E-1
4.559853991E0,1.143151855E1,3.399749756E0,2.503051758E-1
4.565041979E0,1.341157532E1,3.264556885E0,-1.253814697E-1
4.570046862E0,1.506741333E1,2.908020020E0,-5.608673096E-1
4.575417955E0,1.633680725E1,2.439025879E0,-8.252716064E-1
4.580239733E0,1.717549133E1,1.830062866E0,-7.762298584E-1
4.585519274E0,1.718028259E1,1.175613403E0,-8.073272705E-1
4.590432604E0,1.476351929E1,1.179214478E0,-7.271728516E-1
4.595559557E0,1.284327698E1,1.260559082E0,-6.482086182E-1
4.600625475E0,1.154995728E1,1.419692993E0,-7.223815918E-1
4.605721911E0,1.052941895E1,1.685287476E0,-7.690429688E-1
4.610818346E0,9.841491699E0,1.941329956E0,-6.470031738E-1
4.615914782E0,9.331817627E0,2.196151733E0,-3.515014648E-1
4.621041735E0,8.871200562E0,2.458175659E0,5.288696289E-2
4.626138170E0,8.561325073E0,2.641220093E0,4.381408691E-1
4.631234606E0,8.416564941E0,2.711807251E0,7.791137695E-1
4.636331041E0,8.399810791E0,2.708221436E0,7.683410645E-1
4.641427477E0,8.184463501E0,2.769241333E0,7.480010986E-1
4.646523913E0,8.058837891E0,2.771636963E0,7.994537354E-1
4.651620348E0,8.186859131E0,2.727371216E0,8.066253662E-1
4.656716784E0,8.223937988E0,2.625671387E0,8.197937012E-1
4.661813219E0,7.585052490E0,2.648406982E0,9.370422363E-1
4.666909655E0,7.427124023E0,2.602935791E0,7.264709473E-1
4.672006090E0,6.976089478E0,2.601745605E0,3.484039307E-1
4.677133043E0,6.581268311E0,2.553878784E0,1.593780518E-1
4.682229479E0,6.913864136E0,2.391174316E0,2.455139160E-1
4.687325914E0,7.211776733E0,2.283493042E0,2.598724365E-1
4.692422350E0,7.765716553E0,1.996353149E0,3.579711914E-1
4.697518786E0,7.716659546E0,1.703231812E0,9.346466064E-1
4.702615221E0,7.693923950E0,1.806121826E0,1.115310669E0
4.707711657E0,7.597015381E0,2.159072876E0,1.083007812E0
4.712808092E0,7.241683960E0,2.547897339E0,9.549865723E-1
4.717904528E0,7.020355225E0,2.827865601E0,8.712310791E-1
4.723000963E0,7.088546753E0,3.069534302E0,7.240753174E-1
4.728127916E0,7.212966919E0,3.244216919E0,5.171051025E-1
4.733193834E0,7.679580688E0,3.280105591E0,2.514953613E-1
4.738320788E0,8.223937988E0,3.082702637E0,9.356689453E-2
4.743417223E0,8.298110962E0,2.964248657E0,4.930114746E-2
4.748513659E0,8.074386597E0,2.928359985E0,-2.847290039E-2
4.753610094E0,9.230117798E0,2.562255859E0,-4.521179199E-2
4.758706530E0,1.092543030E1,2.083694458E0,-1.289672852E-1
4.763802965E0,1.188735962E1,1.952087402E0,-3.622589111E-1
4.768899401E0,1.211347961E1,2.058578491E0,-5.094299316E-1
4.773995836E0,1.205604553E1,2.074127197E0,-5.094299316E-1
4.779092272E0,1.214218140E1,1.643417358E0,-4.424285889E-1
4.784188707E0,1.175694275E1,1.302444458E0,-1.373443604E-1
4.789285143E0,1.138366699E1,1.122970581E0,1.234741211E-1
4.794381579E0,1.090988159E1,1.242614746E0,4.154052734E-1
4.799478014E0,1.014418030E1,1.624267578E0,6.798095703E-1
4.804574450E0,9.413177490E0,2.072921753E0,8.987579346E-1
4.809701403E0,8.758743286E0,2.472534180E0,1.224182129E0
4.814797838E0,8.569702148E0,2.705825806E0,1.481399536E0
4.819894274E0,9.200210571E0,2.695068359E0,1.461059570E0
4.824990709E0,1.060479736E1,2.417495728E0,1.444320679E0
4.830087145E0,1.121377563E1,2.209320068E0,1.359375000E0
4.835183580E0,1.115275574E1,1.996353149E0,1.336639404E0
4.840280016E0,1.040858459E1,1.997558594E0,1.514907837E0
4.845376452E0,8.990844727E0,2.248794556E0,1.951599121E0
4.850472887E0,7.507293701E0,2.858963013E0,3.010421753E0
4.855569323E0,6.001007080E0,3.936935425E0,4.789489746E0
4.860665758E0,5.092926025E0,5.051986694E0,6.670242310E0
4.865762194E0,5.278381348E0,5.603530884E0,7.342620850E0
4.870889147E0,6.204391479E0,5.195556641E0,5.084991455E0
4.875985582E0,7.189041138E0,3.892669678E0,1.514907837E0
4.881082018E0,7.750167847E0,2.380401611E0,-1.777618408E0
4.886178454E0,6.511871338E0,1.323974609E0,-3.809127808E0
4.891274889E0,5.248458862E0,6.085205078E-1,-5.277114868E0
4.896371325E0,5.536804199E0,-1.858978271E-1,-5.740127563E0
4.901467760E0,6.344375610E0,-1.140640259E0,-4.901443481E0
4.906564196E0,7.958343506E0,-1.887191772E0,-3.441833496E0
4.911660631E0,1.070649719E1,-2.963958740E0,-1.599349976E0
4.916757067E0,1.271527100E1,-4.153198242E0,5.326538086E-1
4.921853502E0,1.355274963E1,-5.271835327E0,2.098754883E0
4.926949938E0,1.301556396E1,-5.957382202E0,2.896759033E0
4.932076891E0,1.244607544E1,-6.262466431E0,2.329666138E0
4.937173327E0,1.252264404E1,-6.354598999E0,8.389282227E-1
4.942269762E0,1.252743530E1,-6.246917725E0,-5.381317139E-1
4.947366198E0,1.183351135E1,-5.822189331E0,-1.477325439E0
4.952462633E0,1.163371277E1,-5.239532471E0,-2.147308350E0
4.957559069E0,1.239224243E1,-4.561172485E0,-2.569641113E0
4.962655504E0,1.273081970E1,-3.769149780E0,-2.424880981E0
4.967874010E0,1.272842407E1,-2.938842773E0,-1.948699951E0
4.972878893E0,1.296771240E1,-2.115707397E0,-1.885299683E0
4.978249987E0,1.243411255E1,-1.153793335E0,-1.801544189E0
4.983071764E0,1.225942993E1,-2.241821289E-1,-1.814712524E0
4.988351305E0,1.221636963E1,5.905761719E-1,-1.556289673E0
4.993264635E0,1.217210388E1,1.307220459E0,-1.197357178E0
4.998391588E0,1.213500977E1,1.664947510E0,-6.159057617E-1
5.003457506E0,1.184307861E1,1.903030396E0,-9.187316895E-2
5.008553942E0,1.238864136E1,2.196151733E0,5.158996582E-1
5.013650377E0,1.163490295E1,2.439025879E0,8.784179688E-1
5.018777330E0,1.134178162E1,2.494064331E0,5.027465820E-1
5.023873766E0,1.091346741E1,2.337341309E0,1.761169434E-1
5.028970202E0,1.049353027E1,1.942520142E0,-1.840057373E-1
5.034066637E0,1.014059448E1,1.358673096E0,-7.247772217E-1
5.039163073E0,9.784057617E0,6.575775146E-1,-1.072937012E0
5.044259508E0,9.425140381E0,9.526062012E-2,-1.596954346E0
5.049386461E0,9.053054810E0,-2.205963135E-1,-2.149703979E0
5.054482897E0,8.619949341E0,-4.156036377E-1,-2.436843872E0
5.059579332E0,8.087554932E0,-5.328521729E-1,-2.399749756E0
5.064675768E0,8.732421875E0,-8.535003662E-1,-2.385391235E0
5.069772204E0,8.525436401E0,-1.110717773E0,-1.793167114E0
5.074868639E0,7.746566772E0,-1.355987549E0,-1.657974243E0
5.079965075E0,8.737197876E0,-1.602447510E0,-1.527572632E0
5.085061510E0,8.293334961E0,-1.367950439E0,-1.074127197E0
5.090188463E0,8.713272095E0,-1.122680664E0,-8.898773193E-1
5.095284899E0,8.664215088E0,-6.871948242E-1,-4.053344727E-1
5.100381334E0,8.774291992E0,-5.687408447E-1,2.048339844E-1
5.105477770E0,8.136596680E0,-8.822021484E-1,4.979553223E-1
5.110574205E0,9.139190674E0,-8.941650391E-1,-2.607727051E-2
5.115670641E0,1.043013000E1,-1.187286377E0,8.987579346E-1
5.120797594E0,1.011068726E1,-1.011413574E0,1.602249146E0
5.125894030E0,1.084648132E1,-9.324645996E-1,1.352188110E0
5.130990465E0,1.082493591E1,-7.984619141E-1,1.278015137E0
5.136086901E0,1.050907898E1,-6.907806396E-1,8.437194824E-1
5.141183336E0,1.077349854E1,-6.249847412E-1,3.101196289E-1
5.146310289E0,1.070051575E1,-7.063293457E-1,4.644622803E-1
5.151406725E0,1.058326721E1,-7.015533447E-1,4.620666504E-1
5.156503161E0,1.113720703E1,-8.594818115E-1,1.043395996E-1
5.161599596E0,1.117549133E1,-1.066452026E0,1.818847656E-2
5.166696032E0,1.096252441E1,-1.205245972E0,-1.086273193E-1
5.171792467E0,1.104029846E1,-1.140640259E0,-6.589813232E-1
5.176919420E0,1.073521423E1,-9.025421143E-1,-1.087295532E0
5.182015856E0,1.049951172E1,-5.986633301E-1,-1.555084229E0
5.187112291E0,1.041217041E1,-3.581848145E-1,-1.972640991E0
5.192208727E0,1.016333008E1,2.807006836E-1,-2.971633911E0
5.197305163E0,9.201416016E0,1.340728760E0,-3.768447876E0
5.202423631E0,8.759933472E0,1.593170166E0,-3.988586426E0
5.207520067E0,9.115264893E0,1.280899048E0,-3.502838135E0
5.212647020E0,9.578277588E0,9.937591553E-1,-2.828063965E0
5.217743455E0,9.995819092E0,7.401275635E-1,-2.217895508E0
5.222839891E0,9.949172974E0,6.707305908E-1,-2.098251343E0
5.227936326E0,9.721847534E0,6.049346924E-1,-1.990585327E0
5.233032762E0,9.627334595E0,5.463104248E-1,-1.584991455E0
5.238129197E0,9.598617554E0,5.917663574E-1,-1.400756836E0
5.243225633E0,9.432312012E0,7.305603027E-1,-1.427062988E0
5.248322069E0,9.226531982E0,9.231719971E-1,-1.462966919E0
5.253418504E0,9.151153564E0,9.483032227E-1,-1.358871460E0
5.258514940E0,9.225341797E0,7.377319336E-1,-1.267944336E0
5.263641893E0,9.266021729E0,3.333435059E-1,-1.258377075E0
5.268738328E0,9.365310669E0,-9.378051758E-2,-1.342132568E0
5.273834764E0,9.451461792E0,-5.400390625E-1,-1.443817139E0
5.278931199E0,9.493331909E0,-9.228820801E-1,-1.605331421E0
5.284027635E0,9.370101929E0,-1.172943115E0,-1.720184326E0
5.289124071E0,9.343780518E0,-1.267456055E0,-1.990585327E0
5.294220506E0,9.232513428E0,-1.366760254E0,-2.037246704E0
5.299316942E0,9.196624756E0,-1.294967651E0,-2.129364014E0
5.304413377E0,1.016691589E1,-1.699356079E0,-2.368652344E0
5.309509813E0,1.055096436E1,-1.760375977E0,-1.464157104E0
5.314606248E0,1.067298889E1,-1.474426270E0,-1.102844238E0
5.319733201E0,1.066342163E1,-1.040130615E0,-1.027465820E0
5.324829637E0,1.069572449E1,-7.482147217E-1,-1.004730225E0
5.329926072E0,1.082852173E1,-6.871948242E-1,-8.874816895E-1
5.335022508E0,1.092663574E1,-7.518005371E-1,-8.432159424E-1
5.340118944E0,1.095893860E1,-8.152160645E-1,-1.010711670E0
5.345215379E0,1.087518311E1,-8.080291748E-1,-1.151901245E0
5.350342332E0,1.085963440E1,-6.393432617E-1,-1.002349854E0
5.355438768E0,1.055574036E1,-5.280761719E-1,-1.508422852E0
5.360535203E0,1.024108887E1,-5.089263916E-1,-1.695068359E0
5.365631639E0,1.008316040E1,-4.574890137E-1,-1.820693970E0
5.370728074E0,9.964721680E0,-4.203948975E-1,-1.805130005E0
5.375855028E0,9.851058960E0,-4.467163086E-1,-1.823089600E0
5.381134569E0,9.658432007E0,-4.921722412E-1,-1.954681396E0
5.386047899E0,9.476577759E0,-5.711364746E-1,-2.091079712E0
5.391174852E0,9.373687744E0,-5.830993652E-1,-2.088684082E0
5.396240770E0,9.256439209E0,-5.089263916E-1,-1.935546875E0
5.401337205E0,9.201416016E0,-3.761291504E-1,-1.815902710E0
5.406433641E0,9.188247681E0,-2.540893555E-1,-1.757278442E0
5.411560594E0,9.184661865E0,-1.990509033E-1,-1.717803955E0
5.416657030E0,9.209777832E0,-1.966705322E-1,-1.771636963E0
5.421753465E0,9.273193359E0,-2.098236084E-1,-1.788391113E0
5.426849901E0,9.330627441E0,-1.775207520E-1,-1.843414307E0
5.431946336E0,9.458633423E0,-7.702636719E-2,-1.590972900E0
5.437073289E0,9.831924438E0,3.184509277E-2,-1.393569946E0
5.442169725E0,9.549560547E0,-4.043579102E-3,-2.159271240E0
5.447266160E0,9.324645996E0,7.919311523E-3,-2.648605347E0
5.452362596E0,9.380874634E0,1.108093262E-1,-2.952499390E0
5.457459031E0,9.629730225E0,1.419219971E-1,-3.033843994E0
5.462555467E0,9.955154419E0,7.133483887E-2,-3.012313843E0
5.467651903E0,1.020759583E1,-3.036499023E-2,-2.983596802E0
5.472778856E0,1.035594177E1,-1.392364502E-1,-3.097259521E0
5.477875291E0,1.031646729E1,-2.313537598E-1,-3.409530640E0
5.482971727E0,1.015016174E1,-3.043365479E-1,-3.888092041E0
5.488068162E0,9.843887329E0,-4.419250488E-1,-4.278121948E0
5.493164598E0,9.529220581E0,-7.541961670E-1,-4.459976196E0
5.498291551E0,8.284957886E0,-1.500747681E0,-4.209930420E0
5.503387987E0,1.028535461E1,-1.878814697E0,-4.457580566E0
5.508484422E0,1.069692993E1,-1.610824585E0,-5.347717285E0
5.513580858E0,1.026860046E1,-1.158584595E0,-5.809524536E0
5.518677293E0,1.022314453E1,-8.451232910E-1,-5.503250122E0
5.523804246E0,1.054498291E1,-5.603790283E-1,-4.865554810E0
5.528900682E0,1.113002014E1,-2.074279785E-1,-3.946716309E0
5.533997117E0,1.181556702E1,1.988220215E-2,-3.459777832E0
5.539093553E0,1.241258240E1,3.261718750E-1,-3.104446411E0
5.544189988E0,1.268415833E1,6.551818848E-1,-2.846008301E0
5.549286424E0,1.257051086E1,1.065551758E0,-2.521789551E0
5.554413377E0,1.217089844E1,1.509414673E0,-2.172439575E0
5.559509813E0,1.205006409E1,1.874328613E0,-1.307434082E0
5.564606248E0,1.198545837E1,2.108825684E0,1.341247559E-2
5.569702684E0,1.187300110E1,2.220092773E0,9.657592773E-1
5.574799119E0,1.111805725E1,2.441421509E0,1.464660645E0
5.579895555E0,9.581863403E0,2.902038574E0,2.327270508E0
5.585022508E0,7.936798096E0,3.167648315E0,3.639724731E0
5.590118944E0,6.368301392E0,2.996551514E0,4.496368408E0
5.595215379E0,5.331024170E0,2.404327393E0,4.761962891E0
5.600311815E0,4.997222900E0,1.572830200E0,4.474822998E0
5.605408250E0,5.250854492E0,6.348419189E-1,3.959167480E0
5.610504686E0,6.020156860E0,-2.959594727E-1,3.209030151E0
5.615631639E0,6.907882690E0,-1.024581909E0,2.457672119E0
5.620728074E0,7.723846436E0,-1.539031982E0,1.900146484E0
5.625824510E0,7.893737793E0,-1.755584717E0,1.461059570E0
5.630920946E0,7.939193726E0,-1.984100342E0,9.537811279E-1
5.636017381E0,8.342391968E0,-2.189880371E0,2.455139160E-1
5.641113817E0,9.015960693E0,-2.299957275E0,-4.771270752E-1
5.646240770E0,9.536407471E0,-2.156387329E0,-1.076522827E0
5.651337205E0,9.766113281E0,-1.847717285E0,-1.553894043E0
5.656433641E0,9.762527466E0,-1.460067749E0,-1.992965698E0
5.661530076E0,9.601013184E0,-1.023391724E0,-2.435638428E0
5.666626512E0,9.541183472E0,-5.005493164E-1,-2.704833984E0
5.671722947E0,9.474197388E0,-2.438354492E-2,-2.682098389E0
5.676849901E0,9.461029053E0,4.458160400E-1,-2.518203735E0
5.681946336E0,9.577087402E0,8.466033936E-1,-2.220291138E0
5.687042772E0,9.713470459E0,1.157669067E0,-1.809921265E0
5.692139207E0,9.859436035E0,1.466354370E0,-1.360076904E0
5.697235643E0,9.896530151E0,1.763061523E0,-9.927673340E-1
5.702332078E0,9.824737549E0,2.043014526E0,-6.912841797E-1
5.707428514E0,9.733810425E0,2.275115967E0,-4.819030762E-1
5.712524949E0,9.707489014E0,2.448608398E0,-4.508056641E-1
5.717651903E0,9.735015869E0,2.565841675E0,-5.620574951E-1
5.722748338E0,9.719451904E0,2.686691284E0,-7.546844482E-1
5.727844774E0,9.657241821E0,2.801544189E0,-9.413299561E-1
5.732941209E0,9.557937622E0,2.911605835E0,-1.057373047E0
5.738037645E0,9.470596313E0,3.006134033E0,-1.093276978E0
5.743195115E0,9.364120483E0,3.039627075E0,-1.077713013E0
5.748261033E0,9.291137695E0,3.028854370E0,-1.072937012E0
5.753723680E0,9.251663208E0,2.975021362E0,-1.063354492E0
5.758453905E0,9.239700317E0,2.879302979E0,-1.060974121E0
5.763794481E0,9.274383545E0,2.728561401E0,-1.065750122E0
5.768646776E0,9.322250366E0,2.584991455E0,-1.086090088E0
5.774139940E0,9.395233154E0,2.418685913E0,-1.094467163E0
5.778870164E0,9.435913086E0,2.277511597E0,-1.126770020E0
5.783966600E0,9.472991943E0,2.186584473E0,-1.124374390E0
5.789063035E0,9.493331909E0,2.118392944E0,-1.126770020E0
5.794159471E0,9.476577759E0,2.081298828E0,-1.115997314E0
5.799255906E0,9.456237793E0,2.059768677E0,-1.121978760E0
5.804352342E0,9.413177490E0,2.069335938E0,-1.101654053E0
5.809479295E0,9.362930298E0,2.078903198E0,-1.087295532E0
5.814575731E0,9.299514771E0,2.112411499E0,-1.119598389E0
5.819672166E0,9.222946167E0,2.142318726E0,-1.149505615E0
5.824768602E0,9.172698975E0,2.182998657E0,-1.166259766E0
5.829865037E0,9.116470337E0,2.220092773E0,-1.153091431E0
5.834961473E0,9.093734741E0,2.234436035E0,-1.125579834E0
5.840057908E0,9.076980591E0,2.235641479E0,-1.047805786E0
5.845184862E0,9.092529297E0,2.223678589E0,-9.640655518E-1
5.850281297E0,9.130813599E0,2.202133179E0,-8.719329834E-1
5.855377733E0,9.181076050E0,2.182998657E0,-7.427215576E-1
5.860474168E0,9.276779175E0,2.132751465E0,-6.254730225E-1
5.865570604E0,9.378479004E0,2.076522827E0,-5.321502686E-1
5.870667039E0,9.482559204E0,2.005935669E0,-4.579772949E-1
5.875763475E0,9.635711670E0,1.924575806E0,-3.957672119E-1
5.880859910E0,9.758941650E0,1.837234497E0,-3.610687256E-1
5.885986863E0,9.889343262E0,1.741516113E0,-3.574829102E-1
5.891083299E0,9.994628906E0,1.669738770E0,-3.550872803E-1
5.896179735E0,1.006761169E1,1.583602905E0,-3.706359863E-1
5.901276170E0,1.013819885E1,1.483093262E0,-3.658599854E-1
5.906372606E0,1.019203186E1,1.388580322E0,-3.646545410E-1
5.911499559E0,1.019084167E1,1.294067383E0,-3.802032471E-1
5.916595994E0,1.016333008E1,1.211517334E0,-4.053344727E-1
5.921692430E0,1.011427307E1,1.130157471E0,-4.232788086E-1
5.926788865E0,1.004129028E1,1.052383423E0,-4.304656982E-1
5.931885301E0,9.963516235E0,9.698333740E-1,-4.316558838E-1
5.937012254E0,9.914474487E0,9.064331055E-1,-4.220886230E-1
5.942108690E0,9.851058960E0,8.382263184E-1,-4.567871094E-1
5.947205125E0,9.774490356E0,7.365417480E-1,-4.651489258E-1
5.952301561E0,9.702713013E0,6.479949951E-1,-4.519958496E-1
5.957397996E0,9.612976074E0,5.690460205E-1,-4.484100342E-1
5.962494432E0,9.561523438E0,5.199890137E-1,-4.639587402E-1
5.967621385E0,9.535202026E0,5.020446777E-1,-4.496002197E-1
5.972717821E0,9.529220581E0,5.068206787E-1,-4.149017334E-1
5.977814256E0,9.514862061E0,5.427246094E-1,-3.718414307E-1
5.982910692E0,9.530426025E0,5.821990967E-1,-3.012542725E-1
5.988007127E0,9.536407471E0,6.695404053E-1,-2.378387451E-1
5.993103563E0,9.554351807E0,7.520904541E-1,-1.624603271E-1
5.998291551E0,9.555541992E0,8.549804688E-1,-1.038360596E-1
6.003326951E0,9.556747437E0,9.423217773E-1,-8.470153809E-2
6.008423387E0,9.583068848E0,1.040420532E0,-5.000305176E-2
6.013519822E0,9.561523438E0,1.144515991E0,-4.641723633E-2
6.018616258E0,9.553146362E0,1.236633301E0,-1.411437988E-2
6.023712694E0,9.559143066E0,1.338333130E0,-3.564453125E-2
6.028809129E0,9.529220581E0,1.422073364E0,-8.110046387E-2
6.033905565E0,9.529220581E0,1.508224487E0,-1.110229492E-1
6.039032518E0,9.544784546E0,1.587188721E0,-1.768188477E-1
6.044128953E0,9.548370361E0,1.639831543E0,-2.545928955E-1
6.049225389E0,9.562728882E0,1.688873291E0,-2.892761230E-1
6.054321824E0,9.595031738E0,1.740325928E0,-3.335571289E-1
6.059418260E0,9.640487671E0,1.761856079E0,-3.586730957E-1
6.064514696E0,9.652450562E0,1.803741455E0,-4.077301025E-1
6.069641649E0,9.660827637E0,1.845611572E0,-4.280700684E-1
6.074738084E0,9.663223267E0,1.875518799E0,-4.675445557E-1
6.079834520E0,9.654846191E0,1.901840210E0,-4.986572266E-1
6.084930955E0,9.593826294E0,1.932952881E0,-5.094299316E-1
6.090027391E0,9.579467773E0,1.965255737E0,-5.249786377E-1
6.095123826E0,9.532821655E0,1.986785889E0,-5.465087891E-1
6.100220262E0,9.495727539E0,1.973632812E0,-5.500946045E-1
6.105316697E0,9.463424683E0,2.002334595E0,-5.572814941E-1
6.110413133E0,9.427536011E0,2.014297485E0,-5.357513428E-1
6.115509569E0,9.419158936E0,2.032257080E0,-5.333557129E-1
6.120636522E0,9.413177490E0,2.035842896E0,-5.405273438E-1
6.125732957E0,9.411972046E0,2.031051636E0,-5.369415283E-1
6.130829393E0,9.410781860E0,2.016693115E0,-5.429229736E-1
6.135956346E0,9.422744751E0,2.007125854E0,-5.345458984E-1
6.141022264E0,9.431121826E0,1.990371704E0,-5.166015625E-1
6.146118699E0,9.453857422E0,1.979614258E0,-5.201873779E-1
6.151215135E0,9.464614868E0,1.962860107E0,-4.974517822E-1
6.156555711E0,9.484954834E0,1.959274292E0,-4.926757812E-1
6.161438524E0,9.492141724E0,1.954483032E0,-4.807128906E-1
6.166626512E0,9.502899170E0,1.937728882E0,-4.591674805E-1
6.171631395E0,9.519653320E0,1.938934326E0,-4.711303711E-1
6.176941453E0,9.542388916E0,1.942520142E0,-5.154113770E-1
6.181824266E0,9.531616211E0,1.944915771E0,-5.668487549E-1
6.186920701E0,9.536407471E0,1.961654663E0,-5.919799805E-1
6.192017137E0,9.542388916E0,1.973632812E0,-6.051330566E-1
6.197144090E0,9.537597656E0,1.981994629E0,-6.374359131E-1
6.202240526E0,9.528030396E0,1.999954224E0,-6.912841797E-1
6.207336961E0,9.520843506E0,2.023880005E0,-7.211914062E-1
6.212433397E0,9.510086060E0,2.046600342E0,-7.654571533E-1
6.217529832E0,9.514862061E0,2.069335938E0,-7.810058594E-1
6.222626268E0,9.519653320E0,2.094467163E0,-8.109130859E-1
6.227753221E0,9.504104614E0,2.108825684E0,-8.468170166E-1
6.232849656E0,9.494522095E0,2.136337280E0,-8.898773193E-1
6.237946092E0,9.483764648E0,2.143508911E0,-9.353485107E-1
6.243042528E0,9.480178833E0,2.153091431E0,-9.377441406E-1
6.248138963E0,9.477783203E0,2.148300171E0,-9.401245117E-1
6.253235399E0,9.453857422E0,2.136337280E0,-9.508972168E-1
6.258362352E0,9.452651978E0,2.123184204E0,-9.580841064E-1
6.263458787E0,9.450256348E0,2.101638794E0,-9.700469971E-1
6.268555223E0,9.438293457E0,2.077713013E0,-9.796142578E-1
6.273651658E0,9.438293457E0,2.053787231E0,-9.616699219E-1
6.278748094E0,9.472991943E0,2.048995972E0,-9.604644775E-1
6.283844530E0,9.495727539E0,2.021484375E0,-9.293670654E-1
6.288940965E0,9.525634766E0,1.986785889E0,-9.114227295E-1
6.294067918E0,9.557937622E0,1.953292847E0,-8.946685791E-1
6.299164354E0,9.593826294E0,1.942520142E0,-8.755187988E-1
6.304260789E0,9.621353149E0,1.924575806E0,-8.515930176E-1
6.309357225E0,9.598617554E0,1.905426025E0,-8.420257568E-1
6.314453660E0,9.571105957E0,1.880310059E0,-8.228759766E-1
6.319550096E0,9.559143066E0,1.862365723E0,-7.917785645E-1
6.324677049E0,9.548370361E0,1.851593018E0,-7.702331543E-1
6.329773485E0,9.528030396E0,1.824081421E0,-7.439270020E-1
6.334869920E0,9.500518799E0,1.792968750E0,-7.044372559E-1
6.339966356E0,9.502899170E0,1.771438599E0,-6.709442139E-1
6.345062791E0,9.464614868E0,1.753479004E0,-6.482086182E-1
6.350159227E0,9.458633423E0,1.742721558E0,-6.362457275E-1
6.355286180E0,9.445480347E0,1.730758667E0,-6.003570557E-1
6.360382615E0,9.428726196E0,1.723571777E0,-6.003570557E-1
6.365479051E0,9.411972046E0,1.714004517E0,-6.099243164E-1
6.370575487E0,9.414367676E0,1.700851440E0,-6.338500977E-1
6.375671922E0,9.422744751E0,1.712814331E0,-6.386413574E-1
6.380798875E0,9.423934937E0,1.716400146E0,-6.254730225E-1
6.385895311E0,9.440689087E0,1.712814331E0,-6.422271729E-1
6.390991746E0,9.483764648E0,1.714004517E0,-6.410217285E-1
6.396088182E0,9.512481689E0,1.727157593E0,-6.410217285E-1
6.401184617E0,9.559143066E0,1.757080078E0,-6.362457275E-1
6.406281053E0,9.610580444E0,1.772628784E0,-6.266784668E-1
6.411408006E0,9.633316040E0,1.806121826E0,-6.123199463E-1
6.416504442E0,9.673995972E0,1.832443237E0,-6.051330566E-1
6.421600877E0,9.689544678E0,1.857574463E0,-6.147003174E-1
6.426697313E0,9.688354492E0,1.865951538E0,-6.278686523E-1
6.431793748E0,9.695526123E0,1.888687134E0,-6.374359131E-1
6.436920701E0,9.671600342E0,1.910217285E0,-6.446228027E-1
6.442017137E0,9.642883301E0,1.930557251E0,-6.338500977E-1
6.447113572E0,9.642883301E0,1.938934326E0,-6.517944336E-1
6.452210008E0,9.642883301E0,1.932952881E0,-6.625671387E-1
6.457306444E0,9.614166260E0,1.922180176E0,-6.589813232E-1
6.462433397E0,9.609390259E0,1.907821655E0,-6.338500977E-1
6.467529832E0,9.572296143E0,1.907821655E0,-6.398315430E-1
6.472626268E0,9.566314697E0,1.911407471E0,-6.326599121E-1
6.477722703E0,9.545974731E0,1.903030396E0,-6.170959473E-1
6.482819139E0,9.525634766E0,1.895858765E0,-6.230773926E-1
6.487915574E0,9.513671875E0,1.893463135E0,-6.242828369E-1
6.493042528E0,9.496917725E0,1.882705688E0,-6.123199463E-1
6.498138963E0,9.483764648E0,1.876708984E0,-5.895843506E-1
6.503235399E0,9.475387573E0,1.853988647E0,-5.919799805E-1
6.508331834E0,9.450256348E0,1.830062866E0,-5.979614258E-1
6.513428270E0,9.451461792E0,1.815704346E0,-5.716400146E-1
6.518524705E0,9.467010498E0,1.825271606E0,-5.477142334E-1
6.523651658E0,9.474197388E0,1.808517456E0,-5.788116455E-1
6.528748094E0,9.492141724E0,1.792968750E0,-5.823974609E-1
6.533844530E0,9.514862061E0,1.788177490E0,-5.919799805E-1
6.539276658E0,9.551956177E0,1.772628784E0,-5.859985352E-1
6.544037401E0,9.553146362E0,1.779800415E0,-5.859985352E-1
6.549316942E0,9.555541992E0,1.782196045E0,-5.895843506E-1
6.554230272E0,9.585449219E0,1.792968750E0,-5.788116455E-1
6.559418260E0,9.583068848E0,1.825271606E0,-5.847930908E-1
6.564453660E0,9.567504883E0,1.842025757E0,-6.063385010E-1
6.569550096E0,9.549560547E0,1.853988647E0,-6.362457275E-1
6.574646531E0,9.534011841E0,1.877914429E0,-6.517944336E-1
6.579895555E0,9.526824951E0,1.891067505E0,-6.482086182E-1
6.584839403E0,9.504104614E0,1.920989990E0,-6.470031738E-1
6.589935838E0,9.486160278E0,1.948501587E0,-6.493988037E-1
6.595032274E0,9.489746094E0,1.976013184E0,-6.577758789E-1
6.600159227E0,9.478973389E0,1.992767334E0,-6.577758789E-1
6.605255662E0,9.488540649E0,1.997558594E0,-6.625671387E-1
6.610352098E0,9.519653320E0,2.005935669E0,-6.589813232E-1
6.615448533E0,9.519653320E0,2.027465820E0,-6.529846191E-1
6.620544969E0,9.526824951E0,2.028656006E0,-6.422271729E-1
6.625641405E0,9.523239136E0,2.037033081E0,-6.529846191E-1
6.630768358E0,9.512481689E0,2.022674561E0,-6.506042480E-1
6.635864793E0,9.501708984E0,2.029861450E0,-6.434173584E-1
6.640961229E0,9.501708984E0,2.020278931E0,-6.673431396E-1
6.646057664E0,9.487350464E0,2.010711670E0,-6.697387695E-1
6.651154100E0,9.475387573E0,2.017898560E0,-6.661529541E-1
6.656281053E0,9.472991943E0,2.026260376E0,-6.757202148E-1
6.661377488E0,9.457443237E0,2.016693115E0,-6.757202148E-1
6.666473924E0,9.451461792E0,2.016693115E0,-6.745300293E-1
6.671570360E0,9.453857422E0,1.990371704E0,-6.517944336E-1
6.676666795E0,9.453857422E0,1.972427368E0,-6.242828369E-1
6.681793748E0,9.457443237E0,1.971237183E0,-6.099243164E-1
6.686890184E0,9.467010498E0,1.965255737E0,-5.895843506E-1
6.691986619E0,9.470596313E0,1.953292847E0,-5.656585693E-1
6.697083055E0,9.490936279E0,1.958068848E0,-5.536956787E-1
6.702179490E0,9.512481689E0,1.938934326E0,-5.142059326E-1
6.707275926E0,9.518463135E0,1.929351807E0,-4.759216309E-1
6.712372362E0,9.523239136E0,1.929351807E0,-4.615631104E-1
6.717499315E0,9.539993286E0,1.931747437E0,-4.484100342E-1
6.722595750E0,9.535202026E0,1.910217285E0,-4.340515137E-1
6.727692186E0,9.530426025E0,1.889877319E0,-4.268646240E-1
6.732788621E0,9.531616211E0,1.891067505E0,-4.352416992E-1
6.737885057E0,9.536407471E0,1.882705688E0,-4.340515137E-1
6.742981492E0,9.539993286E0,1.863555908E0,-4.484100342E-1
6.748077928E0,9.526824951E0,1.851593018E0,-4.531860352E-1
6.753174363E0,9.524444580E0,1.838424683E0,-4.639587402E-1
6.758270799E0,9.534011841E0,1.819290161E0,-4.723358154E-1
6.763397752E0,9.536407471E0,1.802536011E0,-4.890899658E-1
6.768494188E0,9.542388916E0,1.795364380E0,-5.070343018E-1
6.773590623E0,9.545974731E0,1.782196045E0,-4.914703369E-1
6.778687059E0,9.544784546E0,1.779800415E0,-4.938659668E-1
6.783783494E0,9.547164917E0,1.790573120E0,-4.878845215E-1
6.788879930E0,9.547164917E0,1.788177490E0,-4.974517822E-1
6.794006883E0,9.543579102E0,1.792968750E0,-4.890899658E-1
6.799103319E0,9.542388916E0,1.795364380E0,-4.783172607E-1
6.804199754E0,9.543579102E0,1.791778564E0,-4.579772949E-1
6.809296190E0,9.547164917E0,1.797760010E0,-4.603729248E-1
6.814392625E0,9.530426025E0,1.809722900E0,-4.627685547E-1
6.819489061E0,9.517257690E0,1.808517456E0,-4.663543701E-1
6.824585496E0,9.528030396E0,1.822875977E0,-4.627685547E-1
6.829681932E0,9.543579102E0,1.816894531E0,-4.591674805E-1
6.834778367E0,9.556747437E0,1.816894531E0,-4.376373291E-1
6.839874803E0,9.593826294E0,1.825271606E0,-4.137115479E-1
6.845001756E0,9.626129150E0,1.821685791E0,-4.208831787E-1
6.850098192E0,9.639297485E0,1.820480347E0,-3.957672119E-1
6.855194627E0,9.636901855E0,1.804931641E0,-3.981628418E-1
6.860291063E0,9.604598999E0,1.806121826E0,-4.137115479E-1
6.865387498E0,9.583068848E0,1.795364380E0,-4.185028076E-1
6.870483934E0,9.557937622E0,1.782196045E0,-4.244842529E-1
6.875580369E0,9.544784546E0,1.792968750E0,-4.137115479E-1
6.880676805E0,9.526824951E0,1.794158936E0,-4.364471436E-1
6.885773240E0,9.529220581E0,1.784591675E0,-4.400329590E-1
6.890869676E0,9.541183472E0,1.770233154E0,-4.472045898E-1
6.895996629E0,9.557937622E0,1.758270264E0,-4.328460693E-1
6.901093065E0,9.560333252E0,1.749893188E0,-4.220886230E-1
6.906189500E0,9.584259033E0,1.754684448E0,-4.256744385E-1
6.911285936E0,9.602203369E0,1.748703003E0,-4.089202881E-1
6.916382371E0,9.627334595E0,1.729553223E0,-4.352416992E-1
6.921478807E0,9.645278931E0,1.725967407E0,-4.376373291E-1
6.926575242E0,9.639297485E0,1.710418701E0,-4.543914795E-1
6.932037889E0,9.620147705E0,1.698455811E0,-4.579772949E-1
6.936768113E0,9.623748779E0,1.703231812E0,-4.699401855E-1
6.942108690E0,9.587844849E0,1.706832886E0,-5.058288574E-1
6.946991502E0,9.572296143E0,1.706832886E0,-5.189971924E-1
6.952148973E0,9.548370361E0,1.712814331E0,-5.166015625E-1
6.957184373E0,9.525634766E0,1.731948853E0,-5.058288574E-1
6.962280809E0,9.522048950E0,1.729553223E0,-4.866943359E-1
6.967377244E0,9.512481689E0,1.730758667E0,-5.022430420E-1
6.972473680E0,9.510086060E0,1.749893188E0,-4.759216309E-1
6.977570115E0,9.520843506E0,1.746307373E0,-4.555816650E-1
6.982941209E0,9.510086060E0,1.754684448E0,-4.639587402E-1
6.987793504E0,9.523239136E0,1.767837524E0,-4.496002197E-1
6.992889940E0,9.506500244E0,1.771438599E0,-4.412231445E-1
6.997986375E0,9.507690430E0,1.781005859E0,-4.508056641E-1
7.003082811E0,9.516067505E0,1.773818970E0,-4.711303711E-1
7.008179246E0,9.535202026E0,1.795364380E0,-4.675445557E-1
7.013275682E0,9.555541992E0,1.792968750E0,-4.448242188E-1
7.018372117E0,9.589050293E0,1.790573120E0,-4.280700684E-1
7.023468553E0,9.597427368E0,1.791778564E0,-4.113159180E-1
7.028564988E0,9.610580444E0,1.781005859E0,-4.077301025E-1
7.033661424E0,9.597427368E0,1.778610229E0,-4.208831787E-1
7.038757860E0,9.595031738E0,1.790573120E0,-4.089202881E-1
7.043854295E0,9.587844849E0,1.779800415E0,-3.981628418E-1
7.048950731E0,9.562728882E0,1.777420044E0,-4.077301025E-1
7.054047166E0,9.545974731E0,1.772628784E0,-4.208831787E-1
7.059143602E0,9.531616211E0,1.758270264E0,-4.137115479E-1
7.064240037E0,9.545974731E0,1.759475708E0,-4.077301025E-1
7.069336473E0,9.551956177E0,1.737930298E0,-4.185028076E-1
7.074432908E0,9.562728882E0,1.727157593E0,-4.041442871E-1
7.079529344E0,9.586654663E0,1.719985962E0,-4.089202881E-1
7.084625780E0,9.622543335E0,1.706832886E0,-4.172973633E-1
7.089722215E0,9.630920410E0,1.714004517E0,-4.280700684E-1
7.094818651E0,9.632110596E0,1.721176147E0,-4.376373291E-1
7.099915086E0,9.635711670E0,1.734344482E0,-4.280700684E-1
7.105042039E0,9.647674561E0,1.736740112E0,-4.244842529E-1
7.110138475E0,9.617752075E0,1.743911743E0,-4.292602539E-1
7.115234910E0,9.605789185E0,1.758270264E0,-4.472045898E-1
7.120331346E0,9.602203369E0,1.760665894E0,-4.555816650E-1
7.125427781E0,9.590240479E0,1.755874634E0,-4.460144043E-1
7.130524217E0,9.575881958E0,1.758270264E0,-4.484100342E-1
7.135620653E0,9.567504883E0,1.765457153E0,-4.496002197E-1
7.140717088E0,9.550765991E0,1.760665894E0,-4.424285889E-1
7.145813524E0,9.556747437E0,1.769042969E0,-4.448242188E-1
7.150909959E0,9.541183472E0,1.758270264E0,-4.531860352E-1
7.156006395E0,9.535202026E0,1.752288818E0,-4.328460693E-1
7.161102830E0,9.537597656E0,1.752288818E0,-4.388275146E-1
7.166199266E0,9.525634766E0,1.753479004E0,-4.328460693E-1
7.171295701E0,9.528030396E0,1.754684448E0,-4.280700684E-1
7.176392137E0,9.538803101E0,1.758270264E0,-4.280700684E-1
7.181488572E0,9.538803101E0,1.776214600E0,-4.328460693E-1
7.186615526E0,9.548370361E0,1.776214600E0,-4.424285889E-1
7.191711961E0,9.545974731E0,1.777420044E0,-4.364471436E-1
7.196808397E0,9.542388916E0,1.769042969E0,-4.579772949E-1
7.201904832E0,9.549560547E0,1.772628784E0,-4.543914795E-1
7.207001268E0,9.569900513E0,1.776214600E0,-4.460144043E-1
7.212097703E0,9.585449219E0,1.778610229E0,-4.603729248E-1
7.217194139E0,9.583068848E0,1.790573120E0,-4.627685547E-1
7.222290574E0,9.587844849E0,1.801345825E0,-4.579772949E-1
7.227387010E0,9.602203369E0,1.795364380E0,-4.651489258E-1
7.232483446E0,9.612976074E0,1.784591675E0,-4.854888916E-1
7.237610399E0,9.614166260E0,1.772628784E0,-4.986572266E-1
7.242706834E0,9.601013184E0,1.775024414E0,-4.723358154E-1
7.247803270E0,9.581863403E0,1.789382935E0,-4.627685547E-1
7.252899705E0,9.572296143E0,1.783401489E0,-4.699401855E-1
7.257996141E0,9.562728882E0,1.779800415E0,-4.711303711E-1
7.263092576E0,9.553146362E0,1.792968750E0,-4.902801514E-1
7.268189012E0,9.545974731E0,1.791778564E0,-4.783172607E-1
7.273285447E0,9.528030396E0,1.791778564E0,-4.747314453E-1
7.278381883E0,9.525634766E0,1.789382935E0,-4.771270752E-1
7.283478319E0,9.545974731E0,1.776214600E0,-4.890899658E-1
7.288574754E0,9.553146362E0,1.788177490E0,-4.807128906E-1
7.293671190E0,9.561523438E0,1.767837524E0,-4.675445557E-1
7.298798143E0,9.562728882E0,1.781005859E0,-4.699401855E-1
7.303894578E0,9.561523438E0,1.781005859E0,-4.711303711E-1
7.308991014E0,9.542388916E0,1.783401489E0,-4.627685547E-1
7.314087449E0,9.543579102E0,1.784591675E0,-4.699401855E-1
7.319183885E0,9.541183472E0,1.783401489E0,-4.854888916E-1
7.324310838E0,9.544784546E0,1.776214600E0,-4.854888916E-1
7.329376756E0,9.551956177E0,1.778610229E0,-5.130157471E-1
7.334869920E0,9.539993286E0,1.765457153E0,-5.082244873E-1
7.339569627E0,9.543579102E0,1.764251709E0,-4.998474121E-1
7.344910203E0,9.551956177E0,1.760665894E0,-4.938659668E-1
7.349762498E0,9.553146362E0,1.766647339E0,-4.914703369E-1
7.355042039E0,9.569900513E0,1.772628784E0,-5.010528564E-1
7.359985887E0,9.578277588E0,1.763061523E0,-4.759216309E-1
7.365082322E0,9.573486328E0,1.771438599E0,-4.854888916E-1
7.370178758E0,9.584259033E0,1.776214600E0,-4.890899658E-1
7.375275194E0,9.573486328E0,1.775024414E0,-4.759216309E-1
7.380371629E0,9.585449219E0,1.772628784E0,-4.448242188E-1
7.385468065E0,9.575881958E0,1.788177490E0,-4.460144043E-1
7.390564500E0,9.572296143E0,1.785781860E0,-4.472045898E-1
7.395660936E0,9.566314697E0,1.786987305E0,-4.531860352E-1
7.400757371E0,9.579467773E0,1.786987305E0,-4.735260010E-1
7.405884324E0,9.563919067E0,1.772628784E0,-4.771270752E-1
7.410980760E0,9.568710327E0,1.770233154E0,-4.591674805E-1
7.416077196E0,9.556747437E0,1.764251709E0,-4.890899658E-1
7.421173631E0,9.550765991E0,1.769042969E0,-4.842987061E-1
7.426270067E0,9.547164917E0,1.764251709E0,-4.687500000E-1
7.431366502E0,9.534011841E0,1.769042969E0,-4.579772949E-1
7.436462938E0,9.532821655E0,1.757080078E0,-4.519958496E-1
7.441589891E0,9.536407471E0,1.757080078E0,-4.519958496E-1
7.446686326E0,9.535202026E0,1.745117188E0,-4.615631104E-1
7.451782762E0,9.548370361E0,1.742721558E0,-4.603729248E-1
7.456879197E0,9.553146362E0,1.735534668E0,-4.472045898E-1
7.461975633E0,9.563919067E0,1.734344482E0,-4.364471436E-1
7.467072069E0,9.577087402E0,1.736740112E0,-4.232788086E-1
7.472168504E0,9.598617554E0,1.719985962E0,-4.017486572E-1
7.477295457E0,9.623748779E0,1.718795776E0,-4.208831787E-1
7.482391893E0,9.627334595E0,1.731948853E0,-4.101257324E-1
7.487488328E0,9.597427368E0,1.735534668E0,-4.196929932E-1
7.492584764E0,9.608184814E0,1.735534668E0,-4.029388428E-1
7.497681199E0,9.615371704E0,1.743911743E0,-4.137115479E-1
7.502777635E0,9.622543335E0,1.751098633E0,-4.412231445E-1
7.507874071E0,9.611770630E0,1.748703003E0,-4.208831787E-1
7.512970506E0,9.623748779E0,1.749893188E0,-4.220886230E-1
7.518066942E0,9.591445923E0,1.749893188E0,-4.208831787E-1
7.523163377E0,9.572296143E0,1.748703003E0,-4.161071777E-1
7.528259813E0,9.565124512E0,1.749893188E0,-4.424285889E-1
7.533356248E0,9.545974731E0,1.742721558E0,-4.448242188E-1
7.538483201E0,9.529220581E0,1.739135742E0,-4.376373291E-1
7.543579637E0,9.541183472E0,1.742721558E0,-4.280700684E-1
7.548676072E0,9.542388916E0,1.743911743E0,-4.376373291E-1
7.553772508E0,9.554351807E0,1.728363037E0,-4.340515137E-1
7.558868944E0,9.557937622E0,1.740325928E0,-4.388275146E-1
7.563965379E0,9.562728882E0,1.752288818E0,-4.364471436E-1
7.569061815E0,9.553146362E0,1.742721558E0,-4.340515137E-1
7.574158250E0,9.566314697E0,1.746307373E0,-4.567871094E-1
7.579285203E0,9.571105957E0,1.751098633E0,-4.196929932E-1
7.584381639E0,9.583068848E0,1.752288818E0,-4.268646240E-1
7.589478074E0,9.589050293E0,1.748703003E0,-4.220886230E-1
7.594574510E0,9.606994629E0,1.748703003E0,-4.328460693E-1
7.599670946E0,9.586654663E0,1.764251709E0,-4.412231445E-1
7.604767381E0,9.587844849E0,1.760665894E0,-4.436187744E-1
7.609894334E0,9.583068848E0,1.767837524E0,-4.531860352E-1
7.614990770E0,9.580673218E0,1.777420044E0,-4.436187744E-1
7.620087205E0,9.566314697E0,1.769042969E0,-4.376373291E-1
7.625183641E0,9.554351807E0,1.773818970E0,-4.364471436E-1
7.630280076E0,9.573486328E0,1.776214600E0,-4.579772949E-1
7.635376512E0,9.595031738E0,1.764251709E0,-4.472045898E-1
7.640472947E0,9.624938965E0,1.755874634E0,-4.567871094E-1
7.645569383E0,9.621353149E0,1.763061523E0,-4.639587402E-1
7.650696336E0,9.627334595E0,1.761856079E0,-4.675445557E-1
7.655792772E0,9.624938965E0,1.758270264E0,-4.579772949E-1
7.660889207E0,9.626129150E0,1.749893188E0,-4.519958496E-1
7.665985643E0,9.620147705E0,1.752288818E0,-4.484100342E-1
7.671082078E0,9.601013184E0,1.748703003E0,-4.531860352E-1
7.676178514E0,9.586654663E0,1.748703003E0,-4.496002197E-1
7.681274949E0,9.557937622E0,1.739135742E0,-4.376373291E-1
7.686371385E0,9.525634766E0,1.737930298E0,-4.519958496E-1
7.691498338E0,9.518463135E0,1.740325928E0,-4.555816650E-1
7.696594774E0,9.510086060E0,1.718795776E0,-4.567871094E-1
7.701691209E0,9.498123169E0,1.705627441E0,-4.747314453E-1
7.706787645E0,9.484954834E0,1.702041626E0,-4.819030762E-1
7.711884080E0,9.499313354E0,1.702041626E0,-4.723358154E-1
7.716980516E0,9.513671875E0,1.724777222E0,-4.436187744E-1
7.722076951E0,9.514862061E0,1.724777222E0,-4.125061035E-1
7.727173387E0,9.535202026E0,1.722381592E0,-3.993530273E-1
7.732269822E0,9.556747437E0,1.725967407E0,-3.957672119E-1
7.737701951E0,9.569900513E0,1.718795776E0,-4.089202881E-1
7.742462694E0,9.581863403E0,1.711608887E0,-4.161071777E-1
7.747772752E0,9.577087402E0,1.697250366E0,-4.316558838E-1
7.752655565E0,9.575881958E0,1.706832886E0,-4.388275146E-1
7.757843553E0,9.595031738E0,1.706832886E0,-4.292602539E-1
7.762848436E0,9.595031738E0,1.705627441E0,-4.220886230E-1
7.767944871E0,9.583068848E0,1.700851440E0,-4.268646240E-1
7.773041307E0,9.602203369E0,1.690078735E0,-4.077301025E-1
7.778137742E0,9.580673218E0,1.672134399E0,-4.101257324E-1
7.783234178E0,9.573486328E0,1.667343140E0,-3.957672119E-1
7.788727342E0,9.587844849E0,1.657775879E0,-3.897857666E-1
7.793427049E0,9.623748779E0,1.655380249E0,-3.598785400E-1
7.798523485E0,9.638092041E0,1.645812988E0,-3.371429443E-1
7.803619920E0,9.665618896E0,1.630249023E0,-3.586730957E-1
7.808716356E0,9.678771973E0,1.614700317E0,-3.598785400E-1
7.813812791E0,9.697921753E0,1.600341797E0,-3.718414307E-1
7.818909227E0,9.713470459E0,1.578811646E0,-3.825988770E-1
7.824005662E0,9.697921753E0,1.565643311E0,-4.005432129E-1
7.829102098E0,9.688354492E0,1.564453125E0,-4.196929932E-1
7.834198533E0,9.672790527E0,1.544113159E0,-4.292602539E-1
7.839294969E0,9.639297485E0,1.524978638E0,-4.376373291E-1
7.844391405E0,9.602203369E0,1.514205933E0,-4.579772949E-1
7.849487840E0,9.610580444E0,1.515396118E0,-4.519958496E-1
7.854584276E0,9.632110596E0,1.499847412E0,-4.639587402E-1
7.859680711E0,9.656051636E0,1.508224487E0,-4.472045898E-1
7.864777147E0,9.700317383E0,1.517791748E0,-4.029388428E-1
7.869873582E0,9.748168945E0,1.521377563E0,-3.574829102E-1
7.874970018E0,9.800811768E0,1.521377563E0,-3.000488281E-1
7.880066453E0,9.869003296E0,1.536941528E0,-2.617645264E-1
7.885162889E0,9.918060303E0,1.529754639E0,-2.127075195E-1
7.890259324E0,9.950363159E0,1.530960083E0,-1.600646973E-1
7.895355760E0,9.964721680E0,1.509414673E0,-1.170043945E-1
7.900452196E0,9.958740234E0,1.480697632E0,-6.913757324E-2
7.905548631E0,9.946777344E0,1.437637329E0,-4.760742188E-2
7.910645067E0,9.902511597E0,1.422073364E0,-1.770019531E-2
7.915741502E0,9.852249146E0,1.379013062E0,1.449584961E-3
7.920837938E0,9.792434692E0,1.335937500E0,1.449584961E-3
7.925934373E0,9.711074829E0,1.291671753E0,-1.770019531E-2
7.931030809E0,9.645278931E0,1.260559082E0,-4.162597656E-2
7.936127244E0,9.569900513E0,1.224670410E0,-5.239868164E-2
7.941254197E0,9.529220581E0,1.176818848E0,-7.034301758E-2
7.946320115E0,9.522048950E0,1.155273438E0,-8.470153809E-2
7.951447069E0,9.513671875E0,1.139724731E0,-7.273864746E-2
7.956543504E0,9.525634766E0,1.142120361E0,-8.828735352E-2
7.961639940E0,9.559143066E0,1.138534546E0,-1.170043945E-1
7.966736375E0,9.609390259E0,1.162460327E0,-1.289672852E-1
7.971832811E0,9.650070190E0,1.191177368E0,-9.545898438E-2
7.976959764E0,9.690734863E0,1.207916260E0,-5.598449707E-2
7.982025682E0,9.736206055E0,1.258178711E0,6.225585938E-3
7.987122117E0,9.763717651E0,1.314407349E0,8.160400391E-2
7.992218553E0,9.788848877E0,1.384994507E0,1.402282715E-1
7.997314988E0,9.806793213E0,1.447204590E0,1.976623535E-1
8.002411424E0,9.816360474E0,1.503433228E0,2.395324707E-1
8.007507860E0,9.821151733E0,1.539321899E0,2.610626221E-1
8.012604295E0,9.846267700E0,1.557281494E0,2.933654785E-1
8.017700731E0,9.860626221E0,1.575225830E0,3.519897461E-1
8.022797166E0,9.859436035E0,1.597946167E0,4.309539795E-1
8.027893602E0,9.836700439E0,1.621887207E0,4.776153564E-1
8.032990037E0,9.816360474E0,1.645812988E0,5.099182129E-1
8.038086473E0,9.791244507E0,1.680511475E0,5.374298096E-1
8.043182908E0,9.770904541E0,1.696060181E0,5.470123291E-1
8.048279344E0,9.761322021E0,1.694854736E0,5.482025146E-1
8.053406297E0,9.761322021E0,1.668548584E0,5.673522949E-1
8.058502733E0,9.724243164E0,1.643417358E0,5.458068848E-1
8.063599168E0,9.672790527E0,1.590774536E0,5.290679932E-1
8.068695604E0,9.609390259E0,1.540527344E0,5.218811035E-1
8.073792039E0,9.524444580E0,1.477111816E0,5.123138428E-1
8.078888475E0,9.438293457E0,1.399353027E0,4.752197266E-1
8.083984910E0,9.340194702E0,1.345504761E0,4.824066162E-1
8.089081346E0,9.264816284E0,1.270141602E0,4.656524658E-1
8.094177781E0,9.165512085E0,1.227066040E0,3.914794922E-1
8.099274217E0,9.138000488E0,1.225875854E0,3.759155273E-1
8.104370653E0,9.116470337E0,1.225875854E0,3.125152588E-1
8.109467088E0,9.036300659E0,1.189971924E0,2.849884033E-1
8.114563524E0,8.939392090E0,1.182800293E0,2.873840332E-1
8.119659959E0,8.855651855E0,1.201934814E0,3.902740479E-1
8.124756395E0,8.844879150E0,1.255783081E0,5.517883301E-1
8.129852830E0,8.837692261E0,1.291671753E0,7.001495361E-1
8.134949266E0,8.822143555E0,1.273727417E0,7.336425781E-1
8.140045701E0,8.866409302E0,1.255783081E0,7.444152832E-1
8.145172655E0,8.971694946E0,1.237838745E0,7.743225098E-1
8.150635301E0,9.118850708E0,1.206726074E0,8.927764893E-1
8.155365526E0,9.360534668E0,1.140930176E0,1.104537964E0
8.160645067E0,9.683563232E0,1.101440430E0,1.269638062E0
8.165558397E0,1.006402588E1,1.111007690E0,1.437133789E0
8.170715867E0,1.041217041E1,1.142120361E0,1.501739502E0
8.175720750E0,1.084767151E1,1.128952026E0,1.537643433E0
8.180847703E0,1.126760864E1,1.029663086E0,1.508926392E0
8.185944139E0,1.151048279E1,8.466033936E-1,1.531661987E0
8.191376268E0,1.156072998E1,5.702362061E-1,1.706329346E0
8.196137010E0,1.158226013E1,2.244720459E-1,2.097564697E0
8.201233446E0,1.162892151E1,-1.141052246E-1,2.702941895E0
8.206329881E0,1.172703552E1,-3.773193359E-1,3.426773071E0
8.211426317E0,1.182035828E1,-5.496063232E-1,4.252288818E0
8.216522752E0,1.182273865E1,-6.285705566E-1,5.010818481E0
8.221619188E0,1.176651001E1,-5.926818848E-1,5.564758301E0
8.226715623E0,1.161097717E1,-4.526977539E-1,5.944015503E0
8.231812059E0,1.138485718E1,-2.385406494E-1,6.076828003E0
8.236908494E0,1.111566162E1,-5.310058594E-2,5.957183838E0
8.242004930E0,1.092184448E1,8.209228516E-2,5.589889526E0
8.247101365E0,1.083570862E1,1.670379639E-1,5.014404297E0
8.252197801E0,1.073281860E1,1.909790039E-1,4.426971436E0
8.257294237E0,1.058206177E1,2.065277100E-1,3.931655884E0
8.262390672E0,1.048994446E1,1.622619629E-1,3.650497437E0
8.267487108E0,1.044088745E1,5.458068848E-2,3.450698853E0
8.272583543E0,1.028775024E1,5.523681641E-3,3.302337646E0
8.277679979E0,1.014059448E1,-1.600646973E-2,3.144424438E0
8.282776414E0,1.000898743E1,-6.266784668E-2,3.014007568E0
8.287872850E0,9.897720337E0,-1.296691895E-1,2.863265991E0
8.292969285E0,9.842681885E0,-2.205963135E-1,2.762756348E0
8.298065721E0,9.798416138E0,-3.234863281E-1,2.661071777E0
8.303162156E0,9.805603027E0,-4.467163086E-1,2.561767578E0
8.308258592E0,9.652450562E0,-5.089263916E-1,2.445709229E0
8.313385545E0,9.404800415E0,-4.838104248E-1,2.397857666E0
8.318481981E0,9.154754639E0,-4.203948975E-1,2.365554810E0
8.323578416E0,8.947769165E0,-3.462219238E-1,2.382308960E0
8.328674852E0,8.818557739E0,-2.816162109E-1,2.424179077E0
8.333771287E0,8.739593506E0,-2.062377930E-1,2.494766235E0
8.338867723E0,8.670196533E0,-1.272735596E-1,2.572540283E0
8.343964158E0,8.564910889E0,-4.351806641E-2,2.657470703E0
8.349060594E0,8.497924805E0,-4.591369629E-2,2.744812012E0
8.354157030E0,8.182067871E0,8.448791504E-2,2.799850464E0
8.359253465E0,7.911682129E0,2.160949707E-1,2.844116211E0
8.364349901E0,7.752548218E0,3.225708008E-1,2.960174561E0
8.369446336E0,7.659240723E0,3.931732178E-1,3.053497314E0
8.374542772E0,7.576675415E0,4.350433350E-1,3.091781616E0
8.379639207E0,7.480972290E0,4.589691162E-1,3.114501953E0
8.384735643E0,7.387649536E0,4.625549316E-1,3.120483398E0
8.389832078E0,7.290740967E0,4.709320068E-1,3.103744507E0
8.394928514E0,7.193832397E0,4.769134521E-1,3.076217651E0
8.400024949E0,7.125640869E0,4.757232666E-1,3.101348877E0
8.405121385E0,7.087356567E0,4.733276367E-1,3.120483398E0
8.410217821E0,7.080169678E0,4.637603760E-1,3.084594727E0
8.415314256E0,7.104095459E0,3.979492188E-1,3.030761719E0
8.420410692E0,7.143585205E0,3.357391357E-1,2.956573486E0
8.425507127E0,7.189041138E0,2.687377930E-1,2.871643066E0
8.430603563E0,7.254852295E0,2.077178955E-1,2.774719238E0
8.435699998E0,7.289550781E0,1.694335938E-1,2.711318970E0
8.440796434E0,7.308685303E0,1.431121826E-1,2.671829224E0
8.445892869E0,7.306289673E0,1.323547363E-1,2.646713257E0
8.450989305E0,7.289550781E0,1.490936279E-1,2.653884888E0
8.456085740E0,7.223739624E0,1.790161133E-1,2.686187744E0
8.461182176E0,7.180664062E0,2.029418945E-1,2.713714600E0
8.466278612E0,7.157943726E0,2.208862305E-1,2.723281860E0
8.471375047E0,7.161529541E0,2.352447510E-1,2.740036011E0
8.476471483E0,7.178283691E0,2.555847168E-1,2.748397827E0
8.481567918E0,7.206985474E0,2.639465332E-1,2.765151978E0
8.486694871E0,7.252456665E0,2.639465332E-1,2.793869019E0
8.491760789E0,7.319458008E0,2.412261963E-1,2.830963135E0
8.496887742E0,7.422348022E0,2.041320801E-1,2.852493286E0
8.501953660E0,7.546768188E0,1.610565186E-1,2.854888916E0
8.507050096E0,7.677185059E0,1.012420654E-1,2.828567505E0
8.512146531E0,7.805191040E0,5.339050293E-2,2.808227539E0
8.517242967E0,7.951156616E0,-1.242065430E-2,2.747207642E0
8.522339403E0,8.098312378E0,-2.796936035E-2,2.688583374E0
8.527435838E0,8.261032104E0,-4.113769531E-2,2.638336182E0
8.532532274E0,8.439300537E0,-8.180236816E-2,2.567749023E0
8.537628709E0,8.649856567E0,-1.811065674E-1,2.518692017E0
8.542725145E0,8.855651855E0,-2.863922119E-1,2.543823242E0
8.547821580E0,9.054244995E0,-4.323577881E-1,2.600051880E0
8.552948533E0,9.230117798E0,-5.938720703E-1,2.712509155E0
8.558014451E0,9.389251709E0,-7.589721680E-1,2.838134766E0
8.563507615E0,9.511276245E0,-8.893890381E-1,2.982894897E0
8.568207322E0,9.608184814E0,-9.827117920E-1,3.144424438E0
8.573608934E0,9.683563232E0,-1.046112061E0,3.289184570E0
8.578400194E0,9.737396240E0,-1.073638916E0,3.425567627E0
8.583618699E0,9.767318726E0,-1.077224731E0,3.542816162E0
8.588593065E0,9.756546021E0,-1.060470581E0,3.617004395E0
8.593689500E0,9.658432007E0,-1.031753540E0,3.658874512E0
8.598785936E0,9.508880615E0,-9.707489014E-1,3.633743286E0
8.603882371E0,9.283966064E0,-9.324645996E-1,3.559570312E0
8.608978807E0,8.987258911E0,-9.013519287E-1,3.381301880E0
8.614075242E0,8.709686279E0,-9.456176758E-1,3.120483398E0
8.619171678E0,8.532608032E0,-1.036544800E0,2.852493286E0
8.624268113E0,8.369903564E0,-1.096359253E0,2.598846436E0
8.629364549E0,8.162918091E0,-1.133453369E0,2.433746338E0
8.634460985E0,7.936798096E0,-1.143020630E0,2.369140625E0
8.639557420E0,7.740585327E0,-1.123886108E0,2.317703247E0
8.644653856E0,7.629318237E0,-1.085601807E0,2.317703247E0
8.649750291E0,7.463027954E0,-8.953704834E-1,2.340423584E0
8.654846727E0,7.258438110E0,-6.536865234E-1,2.400253296E0
8.659943162E0,7.143585205E0,-3.761291504E-1,2.473236084E0
8.665039598E0,7.112472534E0,-1.224822998E-1,2.545013428E0
8.670136033E0,7.118453979E0,1.060333252E-1,2.665847778E0
8.675232469E0,7.126831055E0,3.070220947E-1,2.822586060E0
8.680328905E0,7.159133911E0,4.733276367E-1,2.980514526E0
8.685425340E0,7.197418213E0,5.989532471E-1,3.146804810E0
8.690521776E0,7.244079590E0,6.910705566E-1,3.262863159E0
8.695618211E0,7.299118042E0,7.987518311E-1,3.287994385E0
8.700714647E0,7.335006714E0,8.525848389E-1,3.237731934E0
8.705811082E0,7.344573975E0,8.454132080E-1,3.128860474E0
8.710907518E0,7.360137939E0,7.688446045E-1,2.985290527E0
8.716003953E0,7.350555420E0,6.288604736E-1,2.822586060E0
8.721100389E0,7.307495117E0,4.470062256E-1,2.623977661E0
8.726196824E0,7.240493774E0,2.519836426E-1,2.467254639E0
8.731293260E0,7.203399658E0,5.218505859E-2,2.378707886E0
8.736389696E0,7.227325439E0,-2.074279785E-1,2.345214844E0
8.741486131E0,7.034713745E0,-2.050323486E-1,2.266250610E0
8.746582567E0,6.877975464E0,-1.416320801E-1,2.159774780E0
8.751679002E0,6.812179565E0,-1.117248535E-1,2.123886108E0
8.756775438E0,6.784652710E0,-6.864929199E-2,2.211212158E0
8.761871873E0,6.742782593E0,1.629638672E-2,2.303344727E0
8.766968309E0,6.693725586E0,1.562805176E-1,2.394271851E0
8.772064744E0,6.702102661E0,3.297576904E-1,2.491180420E0
8.777161180E0,6.732009888E0,5.487060547E-1,2.647903442E0
8.782257615E0,6.821746826E0,7.855834961E-1,2.822586060E0
8.787354051E0,6.940185547E0,1.065551758E0,3.078613281E0
8.792450487E0,7.108886719E0,1.341918945E0,3.394470215E0
8.797546922E0,7.343383789E0,1.625473022E0,3.701950073E0
8.802643358E0,7.624542236E0,1.930557251E0,4.024978638E0
8.807739793E0,7.863815308E0,2.199752808E0,4.206832886E0
8.812836229E0,8.085159302E0,2.407928467E0,4.380310059E0
8.817932664E0,8.478775024E0,2.411514282E0,4.675827026E0
8.823029100E0,8.758743286E0,2.584991455E0,4.940231323E0
8.828125535E0,9.309082031E0,2.539535522E0,5.230957031E0
8.833221971E0,1.004129028E1,2.235641479E0,5.463058472E0
8.838318406E0,1.070410156E1,1.891067505E0,5.558776855E0
8.843414842E0,1.129153442E1,1.672134399E0,5.387695312E0
8.848511278E0,1.186341858E1,1.595565796E0,4.992874146E0
8.853607713E0,1.237069702E1,1.770233154E0,4.382705688E0
8.858704149E0,1.304309082E1,2.033447266E0,3.780914307E0
8.863800584E0,1.376930237E1,2.419891357E0,3.295166016E0
8.868897020E0,1.447758484E1,2.935546875E0,2.814208984E0
8.873993455E0,1.507937622E1,3.466751099E0,2.127471924E0
8.879120408E0,1.544189453E1,3.933349609E0,1.255279541E0
8.884216844E0,1.566322327E1,4.233642578E0,4.644622803E-1
8.889313280E0,1.565365601E1,4.341323853E0,1.773223877E-1
8.894409715E0,1.530908203E1,4.225265503E0,5.003509521E-1
8.899506151E0,1.489871216E1,3.885498047E0,1.266052246E0
8.904602586E0,1.456013489E1,3.397354126E0,1.974334717E0
8.909699022E0,1.420719910E1,2.777618408E0,1.913314819E0
8.914795457E0,1.379084778E1,2.023880005E0,9.454193115E-1
8.919891893E0,1.334457397E1,1.166046143E0,-2.928771973E-1
8.924988328E0,1.291267395E1,3.465118408E-1,-1.045410156E0
8.930084764E0,1.242573547E1,-1.930694580E-1,-1.196166992E0
8.935181199E0,1.221516418E1,-3.665618896E-1,-1.288284302E0
8.940277635E0,1.251187134E1,-1.787109375E-1,-1.760864258E0
8.945374071E0,1.321536255E1,9.286499023E-2,-1.990585327E0
8.950470506E0,1.391885376E1,2.711334229E-1,-1.489288330E0
8.955566942E0,1.444049072E1,1.443176270E-1,-4.496002197E-1
8.960663377E0,1.466781616E1,-4.072265625E-1,8.700408936E-1
8.965759813E0,1.460798645E1,-1.244720459E0,2.181304932E0
8.970856248E0,1.442733765E1,-2.041534424E0,3.303543091E0
8.975952684E0,1.422035217E1,-2.498565674E0,4.005828857E0
8.981049119E0,1.391287231E1,-2.575134277E0,3.930465698E0
8.986481248E0,1.351686096E1,-2.410018921E0,3.138427734E0
8.991241990E0,1.300001526E1,-2.057083130E0,2.040130615E0
8.996338426E0,1.241496277E1,-1.596466064E0,1.151199341E0
9.001434862E0,1.180479431E1,-1.053298950E0,6.690368652E-1
9.006622850E0,1.118026733E1,-4.179992676E-1,4.225769043E-1
9.011627733E0,1.069931030E1,1.586761475E-1,3.220825195E-1
9.016724168E0,1.046003723E1,6.647491455E-1,4.022369385E-1
9.021820604E0,1.047439575E1,1.112213135E0,5.458068848E-1
9.026917039E0,1.065264893E1,1.492675781E0,7.169036865E-1
9.032013475E0,1.090150452E1,1.782196045E0,7.204895020E-1
9.037109910E0,1.104986572E1,1.981994629E0,4.752197266E-1
9.042206346E0,1.113002014E1,2.058578491E0,2.012481689E-1
9.047302781E0,1.122692871E1,1.978408813E0,1.091156006E-1
9.052399217E0,1.130230713E1,1.797760010E0,1.976623535E-1
9.057495653E0,1.126521301E1,1.518981934E0,4.800109863E-1
9.062592088E0,1.113600159E1,1.170837402E0,8.640594482E-1
9.067719041E0,1.093261719E1,8.214874268E-1,1.232559204E0
9.072784959E0,1.069812012E1,4.278564453E-1,1.542419434E0
9.077911912E0,1.043371582E1,8.448791504E-2,1.792465210E0
9.082977830E0,1.016571045E1,-2.229919434E-1,1.998260498E0
9.088104783E0,9.880966187E0,-4.682464600E-1,2.138229370E0
9.093170701E0,9.592636108E0,-6.489105225E-1,2.230361938E0
9.098267137E0,9.325836182E0,-7.518005371E-1,2.235137939E0
9.103363572E0,9.084167480E0,-7.817077637E-1,2.211212158E0
9.108460008E0,8.867614746E0,-7.888946533E-1,2.184890747E0
9.113556444E0,8.665420532E0,-7.470092773E-1,2.181304932E0
9.118683397E0,8.471603394E0,-6.333618164E-1,2.218399048E0
9.123749315E0,8.255050659E0,-4.754333496E-1,2.255477905E0
9.128876268E0,8.019348145E0,-2.983551025E-1,2.273437500E0
9.133972703E0,7.792037964E0,-1.392364502E-1,2.300949097E0
9.139069139E0,7.591033936E0,-1.481628418E-2,2.314102173E0
9.144135057E0,7.417556763E0,1.072235107E-1,2.310516357E0
9.149262010E0,7.221343994E0,1.730194092E-1,2.334442139E0
9.154358446E0,7.021545410E0,2.304534912E-1,2.226776123E0
9.159454881E0,6.825332642E0,1.897735596E-1,2.159774780E0
9.164551317E0,6.601608276E0,1.096191406E-1,2.156188965E0
9.169647752E0,6.344375610E0,-1.600646973E-2,2.220794678E0
9.174744188E0,6.101501465E0,-1.847076416E-1,2.375122070E0
9.179840623E0,5.972290039E0,-2.863922119E-1,2.673034668E0
9.184937059E0,5.888549805E0,-4.359436035E-1,2.926666260E0
9.190033494E0,5.791641235E0,-6.680450439E-1,3.106124878E0
9.195129930E0,5.689941406E0,-9.444274902E-1,3.155181885E0
9.200226365E0,5.725830078E0,-1.154983521E0,3.173126221E0
9.205322801E0,5.829925537E0,-1.316513062E0,3.146804810E0
9.210419237E0,5.948364258E0,-1.408630371E0,2.963760376E0
9.215515672E0,6.130218506E0,-1.383499146E0,2.686187744E0
9.220612108E0,6.306091309E0,-1.375122070E0,2.473236084E0
9.225708543E0,6.486755371E0,-1.377517700E0,2.146606445E0
9.230804979E0,6.581268311E0,-1.377517700E0,1.685989380E0
9.235901414E0,6.649459839E0,-1.428970337E0,1.299545288E0
9.240997850E0,6.734405518E0,-1.556991577E0,1.149993896E0
9.246094285E0,6.814575195E0,-1.706542969E0,1.227767944E0
9.251221238E0,6.905502319E0,-1.813018799E0,1.336639404E0
9.256287156E0,7.059829712E0,-1.798660278E0,1.459869385E0
9.261414110E0,7.215362549E0,-1.639541626E0,1.523284912E0
9.266510545E0,7.197418213E0,-1.409820557E0,1.395263672E0
9.271606981E0,7.040695190E0,-1.172943115E0,1.121292114E0
9.276672899E0,6.843276978E0,-9.599761963E-1,8.090209961E-1
9.281799852E0,6.691345215E0,-8.331604004E-1,4.943695068E-1
9.286865770E0,6.481964111E0,-7.015533447E-1,2.550811768E-1
9.291992723E0,6.371902466E0,-5.711364746E-1,1.569824219E-1
9.297058641E0,6.365921021E0,-4.203948975E-1,9.237670898E-2
9.302185594E0,6.498718262E0,-2.493133545E-1,1.713409424E-1
9.307282030E0,6.765518188E0,-1.129150391E-1,3.986511230E-1
9.312378465E0,7.169906616E0,3.065490723E-2,6.594696045E-1
9.317474901E0,7.659240723E0,1.479034424E-1,9.083251953E-1
9.322571336E0,8.200012207E0,2.244720459E-1,1.135635376E0
9.327667772E0,8.746765137E0,2.065277100E-1,1.276824951E0
9.332764207E0,9.261230469E0,5.458068848E-2,1.263656616E0
9.337860643E0,9.731414795E0,-8.300781250E-2,1.094970703E0
9.342957078E0,1.015135193E1,-1.942749023E-1,8.843994141E-1
9.348053514E0,1.054498291E1,-3.127136230E-1,8.520965576E-1
9.353149949E0,1.089791870E1,-4.993591309E-1,1.103332520E0
9.358246385E0,1.118266296E1,-7.171020508E-1,1.538833618E0
9.363342821E0,1.139083862E1,-1.009033203E0,1.933654785E0
9.368439256E0,1.152842712E1,-1.305740356E0,2.038940430E0
9.373535692E0,1.167439270E1,-1.652694702E0,2.147811890E0
9.378632127E0,1.183111572E1,-1.906341553E0,2.119094849E0
9.383728563E0,1.202134705E1,-2.101348877E0,1.942016602E0
9.388824998E0,1.222354126E1,-2.279617310E0,1.872634888E0
9.393921434E0,1.237788391E1,-2.366958618E0,1.885787964E0
9.399139940E0,1.240299988E1,-2.327468872E0,1.690780640E0
9.404114305E0,1.233001709E1,-2.225784302E0,1.378509521E0
9.409454881E0,1.216252136E1,-2.125274658E0,1.208618164E0
9.414307176E0,1.189692688E1,-2.028366089E0,1.257675171E0
9.419525682E0,1.157029724E1,-1.945816040E0,1.725479126E0
9.424500047E0,1.124607849E1,-1.756790161E0,2.565353394E0
9.429596483E0,1.100918579E1,-1.406234741E0,3.424377441E0
9.434692918E0,1.091346741E1,-8.822021484E-1,3.985488892E0
9.439789354E0,1.101756287E1,-2.636566162E-1,4.154190063E0
9.444885789E0,1.132504272E1,2.926635742E-1,3.862258911E0
9.449982225E0,1.193760681E1,7.556762695E-1,3.095367432E0
9.455078660E0,1.266143799E1,1.075119019E0,2.275817871E0
9.460175096E0,1.339842224E1,1.333541870E0,2.097564697E0
9.465271531E0,1.422514343E1,1.664947510E0,3.235351562E0
9.470367967E0,1.514996338E1,1.870727539E0,5.390075684E0
9.475464403E0,1.609274292E1,1.984390259E0,7.718292236E0
9.480560838E0,1.713122559E1,1.996353149E0,9.353790283E0
9.485657274E0,1.838865662E1,1.973632812E0,9.650497437E0
9.490753709E0,2.006123352E1,1.972427368E0,8.578521729E0
9.495850145E0,2.167399597E1,1.901840210E0,6.691772461E0
9.500946580E0,2.303073120E1,1.584793091E0,4.794265747E0
9.506043016E0,2.372463989E1,1.000946045E0,3.652893066E0
9.511139451E0,2.335855103E1,1.646575928E-1,3.430358887E0
9.516235887E0,2.183671570E1,-6.285705566E-1,4.172134399E0
9.521332322E0,1.977648926E1,-1.093978882E0,5.545608521E0
9.526428758E0,1.794598389E1,-1.254287720E0,6.824584961E0
9.531525194E0,1.656771851E1,-1.220794678E0,7.571136475E0
9.536621629E0,1.532104492E1,-1.029373169E0,7.317504883E0
9.541718065E0,1.408634949E1,-7.506103516E-1,6.328063965E0
9.546814500E0,1.283491516E1,-4.132080078E-1,4.955780029E0
9.551910936E0,1.141716003E1,-4.591369629E-2,3.766555786E0
9.557007371E0,9.967117310E0,3.740234375E-1,2.801040649E0
9.562103807E0,8.721649170E0,6.192932129E-1,2.144210815E0
9.567200242E0,7.666412354E0,7.114105225E-1,1.949203491E0
9.572296678E0,6.596817017E0,7.042388916E-1,2.131057739E0
9.577393113E0,5.420745850E0,6.695404053E-1,2.430160522E0
9.582489549E0,4.477981567E0,6.061248779E-1,2.560562134E0
9.587585985E0,3.880966187E0,2.842864990E-1,2.546218872E0
9.592682420E0,3.696716309E0,-2.313537598E-1,2.394271851E0
9.597778856E0,3.853454590E0,-8.104248047E-1,2.150192261E0
9.602875291E0,4.102310181E0,-1.247116089E0,1.913314819E0
9.607971727E0,4.354751587E0,-1.461273193E0,1.666854858E0
9.613068162E0,4.559326172E0,-1.430160522E0,1.483795166E0
9.618164598E0,4.631118774E0,-1.233947754E0,1.394073486E0
9.623261033E0,4.615570068E0,-9.456176758E-1,1.435943604E0
9.628357469E0,4.674194336E0,-6.895904541E-1,1.601043701E0
9.633453905E0,4.558135986E0,-5.077362061E-1,1.839126587E0
9.638550340E0,3.998214722E0,-3.043365479E-1,1.888183594E0
9.643646776E0,3.602203369E0,-2.014465332E-1,1.916900635E0
9.648743211E0,3.421539307E0,-2.122192383E-1,1.903732300E0
9.653839647E0,3.341384888E0,-3.725433350E-1,1.901351929E0
9.658936082E0,3.348556519E0,-5.759277344E-1,2.009017944E0
9.664032518E0,3.390441895E0,-8.235778809E-1,2.452896118E0
9.669128953E0,3.073394775E0,-1.092773438E0,2.608428955E0
9.674255906E0,2.598419189E0,-1.296173096E0,2.839324951E0
9.679321824E0,1.984649658E0,-1.373931885E0,3.124084473E0
9.684418260E0,1.483352661E0,-1.333251953E0,3.359771729E0
9.689514696E0,1.187850952E0,-1.212417603E0,3.613403320E0
9.694611131E0,1.063415527E0,-1.065261841E0,3.840728760E0
9.699707567E0,1.125625610E0,-9.599761963E-1,3.962768555E0
9.704804002E0,1.335006714E0,-8.259735107E-1,3.898162842E0
9.709900438E0,1.728622437E0,-6.704406738E-1,3.719894409E0
9.715027391E0,2.287353516E0,-4.778137207E-1,3.530853271E0
9.720123826E0,2.939392090E0,-2.337493896E-1,3.292770386E0
9.725220262E0,3.575881958E0,6.535339355E-2,2.860870361E0
9.730316697E0,4.184860229E0,3.453063965E-1,2.316497803E0
9.735413133E0,4.659835815E0,6.898803711E-1,1.687194824E0
9.740509569E0,5.169509888E0,9.470977783E-1,1.117691040E0
9.745606004E0,5.738998413E0,1.112213135E0,7.587738037E-1
9.750702440E0,6.290542603E0,1.164855957E0,7.480010986E-1
9.755798875E0,6.813369751E0,1.383789062E0,9.609680176E-1
9.760895311E0,7.433105469E0,1.644607544E0,1.251693726E0
9.765991746E0,8.076782227E0,1.842025757E0,1.395263672E0
9.771088182E0,8.753952026E0,1.954483032E0,1.568740845E0
9.776184617E0,9.334213257E0,2.015502930E0,1.841522217E0
9.781281053E0,9.855850220E0,2.069335938E0,2.210021973E0
9.786377488E0,1.018844604E1,2.168640137E0,2.716094971E0
9.791473924E0,1.041337585E1,2.223678589E0,3.173126221E0
9.796570360E0,1.056411743E1,2.247604370E0,3.459075928E0
9.801971971E0,1.060121155E1,2.191375732E0,3.424377441E0
9.806763231E0,1.073400879E1,1.946105957E0,3.283203125E0
9.811859666E0,1.102354431E1,1.395751953E0,3.219787598E0
9.816956102E0,1.111566162E1,8.190917969E-1,3.173126221E0
9.822357713E0,1.106422424E1,3.345489502E-1,3.011611938E0
9.827148973E0,1.090510559E1,-7.821655273E-2,2.914703369E0
9.832428514E0,1.067179871E1,-3.761291504E-1,2.821380615E0
9.837372362E0,1.016571045E1,-4.467163086E-1,2.657470703E0
9.842499315E0,9.464614868E0,-3.079376221E-1,2.489974976E0
9.847565233E0,8.710876465E0,-1.272735596E-1,2.443313599E0
9.852661668E0,8.005004883E0,-2.198791504E-2,2.580902100E0
9.857758104E0,7.375686646E0,-1.840209961E-2,2.878814697E0
9.862854539E0,6.965316772E0,-1.368408203E-1,3.364562988E0
9.867950975E0,6.822937012E0,-3.079376221E-1,3.849105835E0
9.873047410E0,6.868408203E0,-4.622650146E-1,4.096755981E0
9.878143846E0,6.944976807E0,-5.352478027E-1,4.248703003E0
9.883240281E0,7.093338013E0,-4.778137207E-1,4.517898560E0
9.888336717E0,7.273986816E0,-4.048461914E-1,4.885192871E0
9.893433153E0,7.467803955E0,-3.904876709E-1,4.982101440E0
9.898529588E0,7.732208252E0,-4.838104248E-1,4.848114014E0
9.903626024E0,8.190444946E0,-6.536865234E-1,4.486785889E0
9.908722459E0,8.978881836E0,-7.984619141E-1,4.048904419E0
9.913818895E0,9.676391602E0,-7.123107910E-1,3.606231689E0
9.918915330E0,9.812774658E0,-4.407348633E-1,2.597656250E0
9.924042283E0,9.745773315E0,6.295776367E-2,1.635742188E0
9.929108201E0,9.805603027E0,6.898803711E-1,7.599639893E-1
9.934235155E0,1.016691589E1,1.491470337E0,-2.402343750E-1
9.939331590E0,1.083570862E1,2.313400269E0,-9.293670654E-1
9.944428026E0,1.198545837E1,2.997756958E0,-3.323516846E-1
9.949524461E0,1.341755676E1,3.470336914E0,1.654891968E0
9.954620897E0,1.457807922E1,3.683303833E0,4.404235840E0
9.959717332E0,1.548616028E1,3.475128174E0,7.039932251E0
9.964813768E0,1.639064026E1,3.453582764E0,9.197067261E0
9.969910203E0,1.772822571E1,3.518188477E0,9.630157471E0
9.975006639E0,2.016651917E1,3.399749756E0,7.519699097E0
9.980103074E0,2.262634277E1,2.324172974E0,3.231750488E0
9.985199510E0,2.546423340E1,1.094268799E0,3.807067871E-1
9.990295946E0,2.658287048E1,3.106079102E-1,-9.820098877E-1
9.995392381E0,2.512564087E1,1.510620117E-2,-2.046813965E0
1.000048882E1,2.250430298E1,-5.548095703E-2,-2.813705444E0
1.000558525E1,1.950370789E1,1.120147705E-1,-3.286300659E0
1.001068169E1,1.644209290E1,2.675476074E-1,-3.488479614E0
1.001577812E1,1.384349060E1,9.884643555E-2,-2.881912231E0
1.002087456E1,1.170071411E1,-1.464080811E-1,-1.412719727E0
1.002597099E1,9.916870117E0,-2.086334229E-1,1.473999023E-1
1.003106743E1,8.579269409E0,-3.634643555E-2,1.062667847E0
1.003616386E1,7.669998169E0,2.615661621E-1,1.368942261E0
1.004126030E1,7.404403687E0,5.295562744E-1,1.391677856E0
1.004635674E1,7.934402466E0,7.413177490E-1,1.060272217E0
1.005145317E1,8.898712158E0,9.889831543E-1,5.757293701E-1
1.005654961E1,9.913269043E0,1.260559082E0,1.785125732E-1
1.006164604E1,1.109054565E1,1.382598877E0,3.135681152E-2
1.006677300E1,1.225465393E1,1.277313232E0,5.230865479E-1
1.007186943E1,1.285525513E1,1.148101807E0,1.361770630E0
1.007696587E1,1.294497681E1,1.002136230E0,1.870239258E0
1.008206230E1,1.301197815E1,7.054290771E-1,1.835540771E0
1.008715874E1,1.319981384E1,2.065277100E-1,1.609420776E0
1.009225517E1,1.336851501E1,-3.246765137E-1,1.366546631E0
1.009735161E1,1.331826782E1,-7.541961670E-1,1.157180786E0
1.010244805E1,1.300839233E1,-1.037734985E0,9.597778320E-1
1.010754448E1,1.253581238E1,-1.316513062E0,9.095153809E-1
1.011264092E1,1.203211975E1,-1.527069092E0,9.322509766E-1
1.011773735E1,1.139204407E1,-1.625183105E0,1.219390869E0
1.012283379E1,1.055694580E1,-1.550994873E0,1.708724976E0
1.012793022E1,9.810379028E0,-1.367950439E0,2.269836426E0
1.013302666E1,9.171493530E0,-1.133453369E0,2.682601929E0
1.013812309E1,8.503906250E0,-8.475189209E-1,2.754394531E0
1.014321953E1,7.814773560E0,-5.543975830E-1,2.505538940E0
1.014831596E1,7.222549438E0,-2.899780273E-1,2.140625000E0
1.015341240E1,6.729629517E0,-7.104492188E-2,1.761367798E0
1.015850884E1,6.295318604E0,9.765625000E-2,1.435943604E0
1.016360527E1,5.942382812E0,2.280578613E-1,1.225372314E0
1.016870171E1,5.589447021E0,3.381347656E-1,1.149993896E0
1.017379814E1,5.259231567E0,4.194946289E-1,1.289978027E0
1.017889458E1,4.980468750E0,5.128021240E-1,1.464660645E0
1.018399101E1,4.682556152E0,6.563720703E-1,1.574722290E0
1.018908745E1,4.363128662E0,8.669433594E-1,1.621383667E0
1.019418389E1,4.035308838E0,1.094268799E0,1.585494995E0
1.019928032E1,3.745773315E0,1.272521973E0,1.589080811E0
1.020480400E1,3.514862061E0,1.376617432E0,1.666854858E0
1.020947319E1,3.368896484E0,1.377807617E0,1.694366455E0
1.021463066E1,3.416763306E0,1.267745972E0,1.719497681E0
1.021966606E1,3.663223267E0,1.053588867E0,1.776916504E0
1.022476250E1,3.934799194E0,7.616577148E-1,1.793670654E0
1.022985893E1,4.142974854E0,4.745178223E-1,1.787689209E0
1.023526055E1,4.302108765E0,2.412261963E-1,1.720687866E0
1.024005180E1,4.449264526E0,-7.629394531E-3,1.557983398E0
1.024533135E1,4.629913330E0,-3.139190674E-1,1.388092041E0
1.025027519E1,4.956542969E0,-6.979675293E-1,1.211013794E0
1.025540215E1,5.423141479E0,-1.076019287E0,1.141632080E0
1.026046807E1,5.901702881E0,-1.413421631E0,1.154785156E0
1.026556450E1,6.425735474E0,-1.732849121E0,1.374923706E0
1.027066094E1,6.915069580E0,-1.932662964E0,1.727859497E0
1.027575737E1,7.372100830E0,-1.988891602E0,2.204040527E0
1.028085381E1,7.863815308E0,-1.987686157E0,2.607223511E0
1.028595024E1,8.387847900E0,-1.929061890E0,2.980514526E0
1.029104668E1,8.855651855E0,-1.773529053E0,3.237731934E0
1.029614311E1,9.251663208E0,-1.568954468E0,3.371734619E0
1.030123955E1,9.488540649E0,-1.310516357E0,3.457870483E0
1.030633598E1,9.587844849E0,-9.898834229E-1,3.309524536E0
1.031143242E1,9.627334595E0,-6.991577148E-1,2.942230225E0
1.031652886E1,9.656051636E0,-4.885864258E-1,2.379913330E0
1.032162529E1,9.770904541E0,-3.749237061E-1,1.796066284E0
1.032672173E1,9.995819092E0,-3.115234375E-1,1.356979370E0
1.033181816E1,1.029373169E1,-2.409362793E-1,1.071029663E0
1.033691460E1,1.070170593E1,-1.691436768E-1,1.004043579E0
1.034201103E1,1.120300293E1,-8.778381348E-2,9.669494629E-1
1.034710747E1,1.172583008E1,-5.070495605E-2,9.406280518E-1
1.035220391E1,1.210987854E1,-9.976196289E-2,1.017196655E0
1.035733086E1,1.226541138E1,-2.552947998E-1,1.123672485E0
1.036242729E1,1.226901245E1,-4.538879395E-1,1.335449219E0
1.036752373E1,1.227378845E1,-7.147064209E-1,1.824768066E0
1.037262016E1,1.242932129E1,-7.960662842E-1,2.796264648E0
1.037771660E1,1.284687805E1,-6.513061523E-1,3.847900391E0
1.038281304E1,1.345584106E1,-4.168090820E-1,4.549011230E0
1.038790947E1,1.414857483E1,-2.193908691E-1,4.704544067E0
1.039300591E1,1.492384338E1,-8.778381348E-2,4.490386963E0
1.039810234E1,1.556752014E1,8.090209961E-2,4.282211304E0
1.040319878E1,1.603889465E1,3.070220947E-1,4.199645996E0
1.040829521E1,1.609393311E1,6.348419189E-1,4.088378906E0
1.041339165E1,1.620999146E1,8.992462158E-1,3.943618774E0
1.041848808E1,1.638705444E1,9.423217773E-1,3.833557129E0
1.042358452E1,1.657369995E1,8.478088379E-1,4.002243042E0
1.042868096E1,1.695416260E1,7.293548584E-1,4.212814331E0
1.043377739E1,1.731068420E1,6.037292480E-1,4.295364380E0
1.043887383E1,1.742793274E1,4.625549316E-1,4.255889893E0
1.044397026E1,1.735375977E1,3.321533203E-1,3.998657227E0
1.044906670E1,1.710131836E1,1.921691895E-1,3.627761841E0
1.045416313E1,1.671128845E1,1.143951416E-1,3.652893066E0
1.045925957E1,1.617170715E1,1.538848877E-1,4.368347168E0
1.046435600E1,1.559263611E1,2.830963135E-1,5.504943848E0
1.046945244E1,1.505545044E1,4.494018555E-1,6.533843994E0
1.047454888E1,1.435314941E1,7.162017822E-1,7.251693726E0
1.047964531E1,1.373341370E1,8.430175781E-1,7.693176270E0
1.048474175E1,1.316152954E1,8.047332764E-1,7.843917847E0
1.048983818E1,1.265185547E1,6.396331787E-1,7.629760742E0
1.049493462E1,1.215534973E1,3.656463623E-1,7.122482300E0
1.050003105E1,1.162294006E1,2.706909180E-2,6.475219727E0
1.050512749E1,1.110130310E1,-2.852020264E-1,5.823181152E0
1.051022392E1,1.054139709E1,-5.376434326E-1,5.172332764E0
1.051532036E1,1.001377869E1,-7.506103516E-1,4.607635498E0
1.052041680E1,9.556747437E0,-8.690490723E-1,4.176925659E0
1.052551323E1,9.134414673E0,-8.774261475E-1,3.902938843E0
1.053060967E1,8.617553711E0,-7.876892090E-1,3.672027588E0
1.053570610E1,8.099517822E0,-6.130218506E-1,3.442321777E0
1.054080254E1,7.735809326E0,-4.120178223E-1,3.247314453E0
1.054589897E1,7.352951050E0,-2.265777588E-1,3.037933350E0
1.055102593E1,6.779876709E0,1.629638672E-2,2.714904785E0
1.055612236E1,6.257034302E0,2.220764160E-1,2.397857666E0
1.056121880E1,5.770095825E0,3.716278076E-1,2.109527588E0
1.056631523E1,5.406387329E0,3.931732178E-1,1.805633545E0
1.057141167E1,5.042678833E0,4.230804443E-1,1.586685181E0
1.057650810E1,4.607192993E0,4.876861572E-1,1.352188110E0
1.058160454E1,4.104690552E0,5.582733154E-1,1.134445190E0
1.058670098E1,3.616561890E0,6.049346924E-1,9.717407227E-1
1.059179741E1,3.212173462E0,5.929718018E-1,8.090209961E-1
1.059689385E1,2.853256226E0,5.271606445E-1,7.204895020E-1
1.060199028E1,2.557739258E0,3.680419922E-1,6.534881592E-1
1.060763603E1,2.253845215E0,1.849975586E-1,5.924682617E-1
1.061218315E1,1.892532349E0,1.748657227E-2,5.601654053E-1
1.061727959E1,1.649658203E0,-1.212921143E-1,5.924682617E-1
1.062237602E1,1.405593872E0,-2.899780273E-1,6.403350830E-1
1.062756401E1,1.108886719E0,-4.850006104E-1,7.886810303E-1
1.063256890E1,7.583312988E-1,-6.979675293E-1,1.087783813E0
1.063766533E1,4.496612549E-1,-9.396362305E-1,1.519683838E0
1.064279228E1,3.635253906E-1,-1.199264526E0,2.097564697E0
1.064816338E1,4.915313721E-1,-1.434951782E0,2.814208984E0
1.065298516E1,7.308197021E-1,-1.645523071E0,3.538040161E0
1.065823418E1,1.037094116E0,-1.810623169E0,4.108718872E0
1.066317803E1,1.411575317E0,-1.888397217E0,4.352798462E0
1.066830498E1,1.808776855E0,-1.732849121E0,4.277420044E0
