"Time (s)","Acceleration x (m/s^2)","Acceleration y (m/s^2)","Acceleration z (m/s^2)"
1.200010700E-2,1.042074203E0,9.534201622E0,1.186241865E0
2.205755500E-2,1.056431174E0,9.500701904E0,1.253240824E0
2.457193000E-2,1.104885817E0,9.515059471E0,1.262812138E0
2.708682600E-2,1.090528965E0,9.495916367E0,1.272383451E0
2.960114900E-2,1.056431174E0,9.491130829E0,1.281954765E0
3.211552400E-2,1.109671474E0,9.505488396E0,1.316052437E0
3.462989900E-2,1.114457130E0,9.538987160E0,1.311266780E0
3.714427400E-2,1.090528965E0,9.500701904E0,1.339980721E0
3.966625300E-2,1.071386337E0,9.515059471E0,1.316052437E0
4.218057600E-2,1.076171994E0,9.495916367E0,1.339980721E0
4.469495100E-2,1.071386337E0,9.495916367E0,1.339980721E0
4.720932600E-2,1.076171994E0,9.515059471E0,1.359123230E0
4.972364900E-2,1.071386337E0,9.510273933E0,1.325623751E0
5.223802400E-2,1.100100160E0,9.505488396E0,1.335195065E0
5.475234700E-2,1.061216831E0,9.534201622E0,1.354337573E0
5.726672200E-2,1.100100160E0,9.543772697E0,1.349551916E0
5.978109700E-2,1.085743308E0,9.529416084E0,1.354337573E0
6.229542000E-2,1.076171994E0,9.582656860E0,1.349551916E0
6.480979500E-2,1.061216831E0,9.568299294E0,1.349551916E0
6.729187800E-2,1.051645517E0,9.558130264E0,1.320838094E0
6.980625300E-2,1.066002488E0,9.543772697E0,1.306481123E0
7.232057600E-2,1.027717352E0,9.573084831E0,1.316052437E0
7.483495100E-2,1.085743308E0,9.606584549E0,1.287338614E0
7.734927400E-2,1.095314622E0,9.597013474E0,1.267597795E0
7.986364900E-2,1.080957651E0,9.577870369E0,1.267597795E0
8.237802400E-2,1.051645517E0,9.587442398E0,1.296909928E0
8.489234700E-2,1.104885817E0,9.558130264E0,1.272383451E0
8.740672200E-2,1.104885817E0,9.548559189E0,1.262812138E0
8.992109700E-2,1.162313581E0,9.573084831E0,1.248455167E0
9.243542000E-2,1.114457130E0,9.548559189E0,1.229312658E0
9.494974200E-2,1.157527924E0,9.529416084E0,1.205384374E0
9.745042000E-2,1.138385415E0,9.534201622E0,1.181456208E0
9.996479500E-2,1.147956610E0,9.524630547E0,1.186241865E0
1.024791170E-1,1.152742267E0,9.471988678E0,1.157527924E0
1.049934920E-1,1.181456208E0,9.515059471E0,1.167099237E0
1.075078150E-1,1.167099237E0,9.524630547E0,1.138385415E0
1.100221900E-1,1.195813060E0,9.510273933E0,1.119242787E0
1.125365650E-1,1.162313581E0,9.495916367E0,1.143171072E0
1.150508880E-1,1.200598717E0,9.471988678E0,1.162313581E0
1.175652630E-1,1.210170031E0,9.519845009E0,1.191027522E0
1.200796380E-1,1.195813060E0,9.510273933E0,1.162313581E0
1.225939610E-1,1.248455167E0,9.519845009E0,1.186241865E0
1.251083360E-1,1.248455167E0,9.548559189E0,1.186241865E0
1.276330240E-1,1.267597795E0,9.486345291E0,1.210170031E0
1.301473990E-1,1.210170031E0,9.519845009E0,1.214955688E0
1.326617220E-1,1.219741344E0,9.553344727E0,1.210170031E0
1.351760970E-1,1.186241865E0,9.524630547E0,1.243669510E0
1.376904200E-1,1.157527924E0,9.495916367E0,1.238883972E0
1.402047950E-1,1.171884894E0,9.543772697E0,1.229312658E0
1.427191700E-1,1.143171072E0,9.562915802E0,1.253240824E0
1.452334920E-1,1.162313581E0,9.568299294E0,1.248455167E0
1.477478670E-1,1.176670551E0,9.582656860E0,1.253240824E0
1.502622420E-1,1.124028444E0,9.577870369E0,1.253240824E0
1.527765650E-1,1.138385415E0,9.558130264E0,1.296909928E0
1.552909400E-1,1.186241865E0,9.587442398E0,1.195813060E0
1.578042220E-1,1.143171072E0,9.553344727E0,1.234098315E0
1.603185970E-1,1.133599758E0,9.515059471E0,1.258026481E0
1.628329200E-1,1.147956610E0,9.577870369E0,1.272383451E0
1.653472950E-1,1.200598717E0,9.534201622E0,1.248455167E0
1.678616170E-1,1.200598717E0,9.519845009E0,1.267597795E0
1.703759920E-1,1.167099237E0,9.524630547E0,1.253240824E0
1.728903670E-1,1.157527924E0,9.519845009E0,1.258026481E0
1.754046900E-1,1.181456208E0,9.500701904E0,1.272383451E0
1.779190650E-1,1.195813060E0,9.500701904E0,1.238883972E0
1.804333880E-1,1.200598717E0,9.529416084E0,1.258026481E0
1.829477630E-1,1.152742267E0,9.558130264E0,1.243669510E0
1.854621380E-1,1.152742267E0,9.491130829E0,1.248455167E0
1.879752630E-1,1.128814101E0,9.486345291E0,1.214955688E0
1.904896380E-1,1.138385415E0,9.462417603E0,1.253240824E0
1.930039610E-1,1.195813060E0,9.486345291E0,1.238883972E0
1.955183360E-1,1.162313581E0,9.457631111E0,1.229312658E0
1.980326590E-1,1.162313581E0,9.448060036E0,1.205384374E0
2.005470340E-1,1.162313581E0,9.419346809E0,1.234098315E0
2.030614090E-1,1.152742267E0,9.433703423E0,1.224527001E0
2.055757320E-1,1.147956610E0,9.448060036E0,1.210170031E0
2.080901070E-1,1.119242787E0,9.433703423E0,1.171884894E0
2.106044300E-1,1.162313581E0,9.395418167E0,1.157527924E0
2.131188050E-1,1.147956610E0,9.404989243E0,1.167099237E0
2.156331800E-1,1.143171072E0,9.424132347E0,1.195813060E0
2.181380760E-1,1.114457130E0,9.390632629E0,1.167099237E0
2.206524510E-1,1.133599758E0,9.414560318E0,1.143171072E0
2.231667740E-1,1.143171072E0,9.428917885E0,1.128814101E0
2.256811490E-1,1.109671474E0,9.419346809E0,1.138385415E0
2.281954720E-1,1.109671474E0,9.438488960E0,1.147956610E0
2.307098470E-1,1.056431174E0,9.443274498E0,1.133599758E0
2.332242220E-1,1.056431174E0,9.462417603E0,1.124028444E0
2.357385450E-1,1.090528965E0,9.471988678E0,1.176670551E0
2.382529200E-1,1.090528965E0,9.486345291E0,1.167099237E0
2.407672950E-1,1.114457130E0,9.505488396E0,1.143171072E0
2.432816170E-1,1.076171994E0,9.515059471E0,1.147956610E0
2.457959920E-1,1.100100160E0,9.538987160E0,1.152742267E0
2.483103670E-1,1.133599758E0,9.558130264E0,1.171884894E0
2.508247420E-1,1.124028444E0,9.577870369E0,1.138385415E0
2.533390650E-1,1.080957651E0,9.562915802E0,1.181456208E0
2.558534400E-1,1.100100160E0,9.577870369E0,1.181456208E0
2.583677630E-1,1.085743308E0,9.597013474E0,1.167099237E0
2.608821380E-1,1.143171072E0,9.616155624E0,1.186241865E0
2.633965130E-1,1.128814101E0,9.582656860E0,1.124028444E0
2.659108360E-1,1.124028444E0,9.597013474E0,1.104885817E0
2.684252110E-1,1.133599758E0,9.606584549E0,1.128814101E0
2.709395860E-1,1.147956610E0,9.601799011E0,1.090528965E0
2.734539090E-1,1.138385415E0,9.587442398E0,1.085743308E0
2.759682320E-1,1.176670551E0,9.592227936E0,1.090528965E0
2.784859920E-1,1.191027522E0,9.573084831E0,1.085743308E0
2.810003670E-1,1.186241865E0,9.573084831E0,1.052243710E0
2.835146900E-1,1.210170031E0,9.582656860E0,1.066600680E0
2.860290650E-1,1.205384374E0,9.529416084E0,1.033101201E0
2.885434400E-1,1.243669510E0,9.558130264E0,1.090528965E0
2.910577630E-1,1.253240824E0,9.548559189E0,1.057029366E0
2.935721380E-1,1.267597795E0,9.573084831E0,1.071386337E0
2.960864610E-1,1.248455167E0,9.534201622E0,1.057029366E0
2.986008360E-1,1.277169108E0,9.519845009E0,1.023529887E0
3.011152110E-1,1.281954765E0,9.529416084E0,1.042672515E0
3.036295340E-1,1.267597795E0,9.562915802E0,1.052243710E0
3.061439090E-1,1.277169108E0,9.558130264E0,1.037886858E0
3.086744300E-1,1.325025558E0,9.548559189E0,1.013958573E0
3.111888050E-1,1.301097274E0,9.500701904E0,1.028315544E0
3.137031280E-1,1.296311617E0,9.524630547E0,1.023529887E0
3.162175030E-1,1.339382529E0,9.573084831E0,1.047458172E0
3.187318780E-1,1.301097274E0,9.495916367E0,1.052243710E0
3.212462010E-1,1.296311617E0,9.534201622E0,1.061815023E0
3.237605760E-1,1.286740422E0,9.538987160E0,1.018744230E0
3.262748990E-1,1.296311617E0,9.558130264E0,1.028315544E0
3.287892740E-1,1.281954765E0,9.577870369E0,1.071386337E0
3.313035970E-1,1.320239902E0,9.553344727E0,1.061815023E0
3.338179720E-1,1.315454245E0,9.543772697E0,1.047458172E0
3.363322950E-1,1.277169108E0,9.562915802E0,1.071386337E0
3.388375550E-1,1.291526079E0,9.519845009E0,1.080957651E0
3.413519300E-1,1.315454245E0,9.534201622E0,1.085743308E0
3.438662530E-1,1.277169108E0,9.582656860E0,1.076171994E0
3.463806280E-1,1.305882931E0,9.577870369E0,1.119242787E0
3.488949510E-1,1.320239902E0,9.573084831E0,1.124028444E0
3.514093260E-1,1.291526079E0,9.620942116E0,1.090528965E0
3.539237010E-1,1.334596872E0,9.587442398E0,1.104885817E0
3.564380240E-1,1.315454245E0,9.558130264E0,1.138385415E0
3.589523990E-1,1.291526079E0,9.611370087E0,1.143171072E0
3.614667740E-1,1.291526079E0,9.592227936E0,1.176670551E0
3.639810970E-1,1.353739381E0,9.582656860E0,1.124028444E0
3.664954720E-1,1.329811215E0,9.558130264E0,1.181456208E0
3.689982320E-1,1.329811215E0,9.553344727E0,1.191027522E0
3.715126070E-1,1.301097274E0,9.568299294E0,1.162313581E0
3.740269300E-1,1.325025558E0,9.582656860E0,1.195813060E0
3.765413050E-1,1.310668588E0,9.573084831E0,1.147956610E0
3.790556280E-1,1.291526079E0,9.548559189E0,1.171884894E0
3.815700030E-1,1.329811215E0,9.553344727E0,1.171884894E0
3.840843780E-1,1.305882931E0,9.568299294E0,1.114457130E0
3.865987010E-1,1.348953724E0,9.524630547E0,1.119242787E0
3.891130760E-1,1.301097274E0,9.510273933E0,1.143171072E0
3.916274510E-1,1.291526079E0,9.543772697E0,1.104885817E0
3.941417740E-1,1.277169108E0,9.553344727E0,1.076171994E0
3.966561490E-1,1.296311617E0,9.538987160E0,1.085743308E0
3.991744820E-1,1.301097274E0,9.558130264E0,1.057029366E0
4.016888570E-1,1.243669510E0,9.548559189E0,1.076171994E0
4.042031800E-1,1.243669510E0,9.505488396E0,1.100100160E0
4.067175550E-1,1.272383451E0,9.548559189E0,1.061815023E0
4.092318780E-1,1.267597795E0,9.543772697E0,1.085743308E0
4.117462530E-1,1.262812138E0,9.582656860E0,1.037886858E0
4.142606280E-1,1.258026481E0,9.543772697E0,1.052243710E0
4.167749510E-1,1.272383451E0,9.562915802E0,1.104885817E0
4.192893260E-1,1.224527001E0,9.543772697E0,1.085743308E0
4.218037010E-1,1.219741344E0,9.543772697E0,1.061815023E0
4.243180240E-1,1.262812138E0,9.515059471E0,1.100100160E0
4.268323990E-1,1.219741344E0,9.534201622E0,1.066600680E0
4.293462530E-1,1.210170031E0,9.553344727E0,1.100100160E0
4.318606280E-1,1.214955688E0,9.548559189E0,1.095314622E0
4.343749510E-1,1.243669510E0,9.573084831E0,1.133599758E0
4.368893260E-1,1.243669510E0,9.573084831E0,1.128814101E0
4.394036490E-1,1.214955688E0,9.538987160E0,1.090528965E0
4.419180240E-1,1.181456208E0,9.562915802E0,1.114457130E0
4.444323990E-1,1.200598717E0,9.573084831E0,1.128814101E0
4.469467220E-1,1.229312658E0,9.543772697E0,1.095314622E0
4.494610970E-1,1.195813060E0,9.543772697E0,1.133599758E0
4.519754200E-1,1.191027522E0,9.519845009E0,1.128814101E0
4.544897950E-1,1.234098315E0,9.548559189E0,1.143171072E0
4.570041700E-1,1.181456208E0,9.543772697E0,1.143171072E0
4.595234400E-1,1.186241865E0,9.515059471E0,1.171884894E0
4.620378150E-1,1.219741344E0,9.524630547E0,1.124028444E0
4.645521380E-1,1.167099237E0,9.548559189E0,1.138385415E0
4.670665130E-1,1.176670551E0,9.558130264E0,1.124028444E0
4.695808360E-1,1.195813060E0,9.519845009E0,1.147956610E0
4.720952110E-1,1.167099237E0,9.524630547E0,1.143171072E0
4.746095860E-1,1.138385415E0,9.515059471E0,1.138385415E0
4.771239090E-1,1.171884894E0,9.491130829E0,1.076171994E0
4.796382840E-1,1.147956610E0,9.481559753E0,1.124028444E0
4.821526070E-1,1.124028444E0,9.491130829E0,1.143171072E0
4.846669820E-1,1.176670551E0,9.558130264E0,1.133599758E0
4.871813050E-1,1.152742267E0,9.538987160E0,1.138385415E0
4.897019300E-1,1.109671474E0,9.491130829E0,1.152742267E0
4.922163050E-1,1.138385415E0,9.524630547E0,1.176670551E0
4.947306280E-1,1.080957651E0,9.510273933E0,1.152742267E0
4.972450030E-1,1.051645517E0,9.486345291E0,1.152742267E0
4.997593780E-1,1.114457130E0,9.524630547E0,1.147956610E0
5.022737010E-1,1.066002488E0,9.519845009E0,1.133599758E0
5.047880760E-1,1.051645517E0,9.553344727E0,1.104885817E0
5.073023990E-1,1.085743308E0,9.543772697E0,1.152742267E0
5.098167740E-1,1.061216831E0,9.543772697E0,1.114457130E0
5.123310970E-1,1.061216831E0,9.548559189E0,1.133599758E0
5.148454720E-1,1.066002488E0,9.577870369E0,1.119242787E0
5.173597950E-1,1.071386337E0,9.553344727E0,1.147956610E0
5.198819820E-1,1.061216831E0,9.562915802E0,1.152742267E0
5.223963570E-1,1.046859860E0,9.524630547E0,1.104885817E0
5.249106800E-1,1.051645517E0,9.538987160E0,1.095314622E0
5.274250550E-1,1.071386337E0,9.538987160E0,1.157527924E0
5.299394300E-1,1.061216831E0,9.534201622E0,1.109671474E0
5.324537530E-1,1.090528965E0,9.573084831E0,1.143171072E0
5.349681280E-1,1.051645517E0,9.558130264E0,1.147956610E0
5.374824510E-1,1.071386337E0,9.553344727E0,1.119242787E0
5.399968260E-1,1.066002488E0,9.538987160E0,1.095314622E0
5.425112010E-1,1.080957651E0,9.606584549E0,1.138385415E0
5.450255240E-1,1.076171994E0,9.548559189E0,1.147956610E0
5.475398990E-1,1.095314622E0,9.515059471E0,1.100100160E0
5.500522950E-1,1.095314622E0,9.529416084E0,1.124028444E0
5.525666170E-1,1.056431174E0,9.548559189E0,1.147956610E0
5.550809400E-1,1.080957651E0,9.592227936E0,1.124028444E0
5.575952630E-1,1.061216831E0,9.582656860E0,1.162313581E0
5.601095860E-1,1.032503009E0,9.558130264E0,1.124028444E0
5.626239610E-1,1.061216831E0,9.534201622E0,1.138385415E0
5.651382840E-1,1.051645517E0,9.538987160E0,1.090528965E0
5.676525550E-1,1.066002488E0,9.553344727E0,1.100100160E0
5.701669300E-1,1.080957651E0,9.538987160E0,1.162313581E0
5.726812530E-1,1.090528965E0,9.553344727E0,1.119242787E0
5.751955760E-1,1.056431174E0,9.538987160E0,1.104885817E0
5.777098990E-1,1.022931695E0,9.543772697E0,1.119242787E0
5.802262530E-1,1.022931695E0,9.558130264E0,1.109671474E0
5.827405760E-1,1.046859860E0,9.568299294E0,1.119242787E0
5.852548990E-1,1.076171994E0,9.529416084E0,1.109671474E0
5.877692220E-1,1.104885817E0,9.568299294E0,1.162313581E0
5.902835970E-1,1.152742267E0,9.562915802E0,1.124028444E0
5.927979200E-1,1.109671474E0,9.553344727E0,1.138385415E0
5.953122420E-1,1.143171072E0,9.558130264E0,1.195813060E0
5.978265130E-1,1.157527924E0,9.568299294E0,1.162313581E0
6.003408880E-1,1.128814101E0,9.548559189E0,1.205384374E0
6.028552110E-1,1.152742267E0,9.534201622E0,1.219741344E0
6.053695340E-1,1.157527924E0,9.529416084E0,1.176670551E0
6.078838570E-1,1.138385415E0,9.558130264E0,1.191027522E0
6.104197950E-1,1.143171072E0,9.553344727E0,1.186241865E0
6.129340650E-1,1.143171072E0,9.592227936E0,1.157527924E0
6.154483880E-1,1.119242787E0,9.558130264E0,1.210170031E0
6.179627110E-1,1.128814101E0,9.534201622E0,1.200598717E0
6.204770860E-1,1.143171072E0,9.538987160E0,1.152742267E0
6.229913570E-1,1.157527924E0,9.577870369E0,1.162313581E0
6.255057320E-1,1.128814101E0,9.543772697E0,1.152742267E0
6.280200030E-1,1.080957651E0,9.534201622E0,1.114457130E0
6.305343780E-1,1.138385415E0,9.568299294E0,1.157527924E0
6.330487010E-1,1.128814101E0,9.548559189E0,1.133599758E0
6.355630240E-1,1.104885817E0,9.553344727E0,1.100100160E0
6.380773470E-1,1.147956610E0,9.601799011E0,1.071386337E0
6.405676070E-1,1.157527924E0,9.587442398E0,1.080957651E0
6.430819300E-1,1.152742267E0,9.534201622E0,1.090528965E0
6.455962530E-1,1.181456208E0,9.519845009E0,1.037886858E0
6.481105760E-1,1.162313581E0,9.573084831E0,1.042672515E0
6.506248990E-1,1.157527924E0,9.582656860E0,1.047458172E0
6.531392220E-1,1.143171072E0,9.562915802E0,9.948160052E-1
6.556535450E-1,1.162313581E0,9.553344727E0,1.057029366E0
6.581678670E-1,1.181456208E0,9.592227936E0,1.037886858E0
6.606822420E-1,1.152742267E0,9.577870369E0,1.085743308E0
6.631965650E-1,1.167099237E0,9.577870369E0,1.061815023E0
6.657108880E-1,1.186241865E0,9.558130264E0,1.076171994E0
6.682252110E-1,1.181456208E0,9.558130264E0,1.047458172E0
6.707710970E-1,1.171884894E0,9.577870369E0,1.066600680E0
6.732853670E-1,1.162313581E0,9.611370087E0,1.100100160E0
6.757996900E-1,1.171884894E0,9.606584549E0,1.100100160E0
6.783140130E-1,1.210170031E0,9.529416084E0,1.095314622E0
6.808283880E-1,1.219741344E0,9.573084831E0,1.100100160E0
6.833426590E-1,1.191027522E0,9.592227936E0,1.042672515E0
6.858570340E-1,1.195813060E0,9.577870369E0,1.090528965E0
6.883713050E-1,1.181456208E0,9.562915802E0,1.095314622E0
6.908856800E-1,1.214955688E0,9.548559189E0,1.066600680E0
6.934000030E-1,1.186241865E0,9.562915802E0,1.061815023E0
6.959143260E-1,1.186241865E0,9.573084831E0,1.042672515E0
6.984286490E-1,1.195813060E0,9.611370087E0,1.028315544E0
7.008968780E-1,1.186241865E0,9.597013474E0,1.052243710E0
7.034112010E-1,1.186241865E0,9.553344727E0,1.090528965E0
7.059255240E-1,1.195813060E0,9.573084831E0,1.104885817E0
7.084398470E-1,1.162313581E0,9.582656860E0,1.104885817E0
7.109541700E-1,1.186241865E0,9.577870369E0,1.095314622E0
7.134684920E-1,1.186241865E0,9.548559189E0,1.090528965E0
7.159828150E-1,1.181456208E0,9.587442398E0,1.095314622E0
7.184971380E-1,1.200598717E0,9.577870369E0,1.095314622E0
7.210115130E-1,1.167099237E0,9.573084831E0,1.124028444E0
7.235257840E-1,1.167099237E0,9.558130264E0,1.119242787E0
7.260401590E-1,1.176670551E0,9.562915802E0,1.080957651E0
7.285544820E-1,1.171884894E0,9.534201622E0,1.100100160E0
7.310795340E-1,1.171884894E0,9.558130264E0,1.071386337E0
7.335938570E-1,1.186241865E0,9.577870369E0,1.066600680E0
7.361081800E-1,1.167099237E0,9.538987160E0,1.095314622E0
7.386225030E-1,1.133599758E0,9.582656860E0,1.071386337E0
7.411368780E-1,1.181456208E0,9.562915802E0,1.071386337E0
7.436511490E-1,1.191027522E0,9.543772697E0,1.114457130E0
7.461655240E-1,1.195813060E0,9.529416084E0,1.071386337E0
7.486798470E-1,1.162313581E0,9.553344727E0,1.071386337E0
7.511941700E-1,1.205384374E0,9.558130264E0,1.052243710E0
7.537084920E-1,1.191027522E0,9.553344727E0,1.013958573E0
7.562228150E-1,1.157527924E0,9.553344727E0,1.033101201E0
7.587371380E-1,1.176670551E0,9.558130264E0,1.047458172E0
7.612777630E-1,1.186241865E0,9.568299294E0,1.023529887E0
7.637920860E-1,1.186241865E0,9.562915802E0,1.013958573E0
7.663064090E-1,1.191027522E0,9.582656860E0,9.996016622E-1
7.688207320E-1,1.186241865E0,9.538987160E0,1.061815023E0
7.713350550E-1,1.195813060E0,9.510273933E0,1.018744230E0
7.738493780E-1,1.186241865E0,9.534201622E0,1.090528965E0
7.763637530E-1,1.186241865E0,9.548559189E0,1.066600680E0
7.788780240E-1,1.171884894E0,9.548559189E0,1.066600680E0
7.813923990E-1,1.195813060E0,9.553344727E0,1.095314622E0
7.839067220E-1,1.200598717E0,9.582656860E0,1.080957651E0
7.864210450E-1,1.214955688E0,9.548559189E0,1.095314622E0
7.889353670E-1,1.224527001E0,9.548559189E0,1.104885817E0
7.914254720E-1,1.191027522E0,9.562915802E0,1.124028444E0
7.939397950E-1,1.186241865E0,9.543772697E0,1.104885817E0
7.964541170E-1,1.181456208E0,9.568299294E0,1.143171072E0
7.989684400E-1,1.181456208E0,9.558130264E0,1.138385415E0
8.014828150E-1,1.171884894E0,9.548559189E0,1.109671474E0
8.039970860E-1,1.167099237E0,9.534201622E0,1.124028444E0
8.065114610E-1,1.157527924E0,9.548559189E0,1.085743308E0
8.090257320E-1,1.171884894E0,9.538987160E0,1.104885817E0
8.115401070E-1,1.195813060E0,9.573084831E0,1.090528965E0
8.140544300E-1,1.200598717E0,9.587442398E0,1.104885817E0
8.165687530E-1,1.167099237E0,9.534201622E0,1.085743308E0
8.190830760E-1,1.171884894E0,9.558130264E0,1.085743308E0
8.216209920E-1,1.162313581E0,9.543772697E0,1.100100160E0
8.241353150E-1,1.200598717E0,9.529416084E0,1.090528965E0
8.266496380E-1,1.186241865E0,9.558130264E0,1.052243710E0
8.291639610E-1,1.176670551E0,9.616155624E0,1.061815023E0
8.316782840E-1,1.195813060E0,9.597013474E0,1.100100160E0
8.341926070E-1,1.181456208E0,9.597013474E0,1.085743308E0
8.367069820E-1,1.200598717E0,9.640084267E0,1.047458172E0
8.392212530E-1,1.210170031E0,9.630513191E0,1.057029366E0
8.417356280E-1,1.219741344E0,9.616155624E0,1.076171994E0
8.442499510E-1,1.281954765E0,9.673583984E0,1.080957651E0
8.467642740E-1,1.258026481E0,9.640084267E0,1.076171994E0
8.492785970E-1,1.253240824E0,9.640084267E0,1.066600680E0
8.517644820E-1,1.229312658E0,9.678369522E0,1.047458172E0
8.542788050E-1,1.248455167E0,9.625727654E0,1.057029366E0
8.567931280E-1,1.238883972E0,9.616155624E0,1.013958573E0
8.593074510E-1,1.262812138E0,9.620942116E0,1.037886858E0
8.618218260E-1,1.248455167E0,9.611370087E0,1.052243710E0
8.643360970E-1,1.234098315E0,9.592227936E0,1.033101201E0
8.668504720E-1,1.243669510E0,9.611370087E0,1.057029366E0
8.693647420E-1,1.281954765E0,9.592227936E0,1.047458172E0
8.718791170E-1,1.281954765E0,9.582656860E0,1.057029366E0
8.743934400E-1,1.248455167E0,9.601799011E0,1.066600680E0
8.769077630E-1,1.243669510E0,9.548559189E0,1.042672515E0
8.794220860E-1,1.234098315E0,9.510273933E0,1.023529887E0
8.819576590E-1,1.243669510E0,9.524630547E0,1.057029366E0
8.844719820E-1,1.248455167E0,9.538987160E0,1.047458172E0
8.869863050E-1,1.234098315E0,9.500701904E0,1.018744230E0
8.895006280E-1,1.253240824E0,9.524630547E0,1.080957651E0
8.920149510E-1,1.253240824E0,9.558130264E0,1.061815023E0
8.945293260E-1,1.262812138E0,9.538987160E0,1.018744230E0
8.970435970E-1,1.248455167E0,9.495916367E0,1.047458172E0
8.995579200E-1,1.238883972E0,9.524630547E0,1.037886858E0
9.020722950E-1,1.262812138E0,9.558130264E0,1.066600680E0
9.045866170E-1,1.253240824E0,9.519845009E0,1.085743308E0
9.071009400E-1,1.219741344E0,9.505488396E0,1.057029366E0
9.096152630E-1,1.253240824E0,9.529416084E0,1.080957651E0
9.121184400E-1,1.248455167E0,9.519845009E0,1.119242787E0
9.146327630E-1,1.253240824E0,9.543772697E0,1.080957651E0
9.171470860E-1,1.301097274E0,9.558130264E0,1.100100160E0
9.196614090E-1,1.258026481E0,9.486345291E0,1.133599758E0
9.221757840E-1,1.248455167E0,9.529416084E0,1.133599758E0
9.246901070E-1,1.248455167E0,9.515059471E0,1.109671474E0
9.272043780E-1,1.253240824E0,9.486345291E0,1.085743308E0
9.297187530E-1,1.195813060E0,9.519845009E0,1.095314622E0
9.322330760E-1,1.205384374E0,9.524630547E0,1.128814101E0
9.347473990E-1,1.219741344E0,9.505488396E0,1.104885817E0
9.372617220E-1,1.219741344E0,9.515059471E0,1.104885817E0
9.397760450E-1,1.214955688E0,9.510273933E0,1.114457130E0
9.422837010E-1,1.214955688E0,9.505488396E0,1.143171072E0
9.447980240E-1,1.181456208E0,9.519845009E0,1.080957651E0
9.473123470E-1,1.219741344E0,9.510273933E0,1.066600680E0
9.498266700E-1,1.210170031E0,9.510273933E0,1.071386337E0
9.523410450E-1,1.214955688E0,9.505488396E0,1.104885817E0
9.548553670E-1,1.262812138E0,9.495916367E0,1.090528965E0
9.573696380E-1,1.214955688E0,9.471988678E0,1.085743308E0
9.598840130E-1,1.219741344E0,9.486345291E0,1.071386337E0
9.623983360E-1,1.214955688E0,9.481559753E0,1.052243710E0
9.649126590E-1,1.253240824E0,9.462417603E0,1.066600680E0
9.674269820E-1,1.214955688E0,9.495916367E0,1.071386337E0
9.699413050E-1,1.229312658E0,9.491130829E0,1.042672515E0
9.724632320E-1,1.219741344E0,9.505488396E0,1.047458172E0
9.749775550E-1,1.210170031E0,9.529416084E0,1.076171994E0
9.774918780E-1,1.219741344E0,9.505488396E0,1.061815023E0
9.800062010E-1,1.224527001E0,9.515059471E0,1.066600680E0
9.825205760E-1,1.238883972E0,9.519845009E0,1.100100160E0
9.850348990E-1,1.234098315E0,9.562915802E0,1.052243710E0
9.875492220E-1,1.234098315E0,9.553344727E0,1.042672515E0
9.900634920E-1,1.267597795E0,9.553344727E0,1.047458172E0
9.925778670E-1,1.224527001E0,9.573084831E0,1.080957651E0
9.950921900E-1,1.243669510E0,9.577870369E0,1.052243710E0
9.976065130E-1,1.248455167E0,9.611370087E0,1.100100160E0
1.000120836E0,1.224527001E0,9.616155624E0,1.076171994E0
1.002641617E0,1.234098315E0,9.577870369E0,1.052243710E0
1.005155940E0,1.229312658E0,9.562915802E0,1.109671474E0
1.007670263E0,1.214955688E0,9.534201622E0,1.076171994E0
1.010184586E0,1.286740422E0,9.553344727E0,1.090528965E0
1.012698961E0,1.258026481E0,9.582656860E0,1.095314622E0
1.015213284E0,1.281954765E0,9.577870369E0,1.128814101E0
1.017727555E0,1.243669510E0,9.543772697E0,1.109671474E0
1.020241930E0,1.234098315E0,9.573084831E0,1.100100160E0
1.022756253E0,1.277169108E0,9.573084831E0,1.119242787E0
1.025270576E0,1.253240824E0,9.534201622E0,1.143171072E0
1.027784899E0,1.248455167E0,9.558130264E0,1.133599758E0
1.030299222E0,1.229312658E0,9.529416084E0,1.157527924E0
1.032809586E0,1.258026481E0,9.505488396E0,1.128814101E0
1.035323909E0,1.229312658E0,9.538987160E0,1.128814101E0
1.037838232E0,1.243669510E0,9.534201622E0,1.119242787E0
1.040352555E0,1.234098315E0,9.510273933E0,1.128814101E0
1.042866878E0,1.238883972E0,9.495916367E0,1.114457130E0
1.045381253E0,1.229312658E0,9.515059471E0,1.114457130E0
1.047895524E0,1.253240824E0,9.491130829E0,1.109671474E0
1.050409899E0,1.224527001E0,9.491130829E0,1.080957651E0
1.052924222E0,1.238883972E0,9.524630547E0,1.095314622E0
1.055438545E0,1.238883972E0,9.500701904E0,1.119242787E0
1.057952867E0,1.205384374E0,9.519845009E0,1.095314622E0
1.060467190E0,1.234098315E0,9.500701904E0,1.124028444E0
1.062974847E0,1.210170031E0,9.495916367E0,1.128814101E0
1.065489170E0,1.238883972E0,9.486345291E0,1.104885817E0
1.068003492E0,1.258026481E0,9.500701904E0,1.104885817E0
1.070517815E0,1.234098315E0,9.476774216E0,1.147956610E0
1.073032138E0,1.238883972E0,9.467203140E0,1.109671474E0
1.075546513E0,1.243669510E0,9.448060036E0,1.124028444E0
1.078060784E0,1.229312658E0,9.457631111E0,1.133599758E0
1.080575159E0,1.229312658E0,9.481559753E0,1.138385415E0
1.083089482E0,1.243669510E0,9.495916367E0,1.147956610E0
1.085603805E0,1.234098315E0,9.448060036E0,1.138385415E0
1.088118128E0,1.234098315E0,9.438488960E0,1.109671474E0
1.090632451E0,1.224527001E0,9.457631111E0,1.104885817E0
1.093151097E0,1.238883972E0,9.467203140E0,1.100100160E0
1.095665420E0,1.229312658E0,9.462417603E0,1.119242787E0
1.098179742E0,1.205384374E0,9.495916367E0,1.095314622E0
1.100694117E0,1.229312658E0,9.452845573E0,1.147956610E0
1.103208388E0,1.229312658E0,9.448060036E0,1.124028444E0
1.105722763E0,1.243669510E0,9.486345291E0,1.138385415E0
1.108237034E0,1.219741344E0,9.548559189E0,1.128814101E0
1.110751409E0,1.243669510E0,9.500701904E0,1.128814101E0
1.113265732E0,1.234098315E0,9.452845573E0,1.138385415E0
1.115780055E0,1.258026481E0,9.471988678E0,1.147956610E0
1.118294378E0,1.258026481E0,9.510273933E0,1.124028444E0
1.120808701E0,1.248455167E0,9.457631111E0,1.124028444E0
1.123317399E0,1.262812138E0,9.495916367E0,1.133599758E0
1.125831722E0,1.243669510E0,9.515059471E0,1.133599758E0
1.128346045E0,1.277169108E0,9.538987160E0,1.138385415E0
1.130860367E0,1.277169108E0,9.515059471E0,1.104885817E0
1.133374690E0,1.267597795E0,9.486345291E0,1.133599758E0
1.135889065E0,1.267597795E0,9.534201622E0,1.128814101E0
1.138403336E0,1.281954765E0,9.529416084E0,1.080957651E0
1.140917711E0,1.272383451E0,9.543772697E0,1.119242787E0
1.143432034E0,1.248455167E0,9.548559189E0,1.128814101E0
1.145946357E0,1.234098315E0,9.577870369E0,1.090528965E0
1.148460680E0,1.277169108E0,9.548559189E0,1.080957651E0
1.150975003E0,1.248455167E0,9.562915802E0,1.066600680E0
1.153490263E0,1.243669510E0,9.543772697E0,1.080957651E0
1.156004586E0,1.229312658E0,9.577870369E0,1.104885817E0
1.158518909E0,1.229312658E0,9.597013474E0,1.104885817E0
1.161033232E0,1.258026481E0,9.606584549E0,1.090528965E0
1.163547555E0,1.281954765E0,9.548559189E0,1.100100160E0
1.166061878E0,1.262812138E0,9.534201622E0,1.076171994E0
1.168576253E0,1.238883972E0,9.519845009E0,1.085743308E0
1.171090524E0,1.248455167E0,9.515059471E0,1.080957651E0
1.173604899E0,1.214955688E0,9.524630547E0,1.047458172E0
1.176119222E0,1.195813060E0,9.529416084E0,1.066600680E0
1.178633545E0,1.224527001E0,9.495916367E0,1.047458172E0
1.181147867E0,1.219741344E0,9.515059471E0,1.076171994E0
1.183663753E0,1.181456208E0,9.548559189E0,1.061815023E0
1.186178076E0,1.210170031E0,9.505488396E0,1.047458172E0
1.188692399E0,1.195813060E0,9.543772697E0,1.037886858E0
1.191206722E0,1.157527924E0,9.505488396E0,1.076171994E0
1.193721045E0,1.186241865E0,9.548559189E0,1.052243710E0
1.196235420E0,1.234098315E0,9.515059471E0,1.066600680E0
1.198749742E0,1.191027522E0,9.553344727E0,1.071386337E0
1.201264065E0,1.191027522E0,9.534201622E0,1.052243710E0
1.203778388E0,1.133599758E0,9.568299294E0,1.061815023E0
1.206292711E0,1.181456208E0,9.573084831E0,1.052243710E0
1.208807034E0,1.186241865E0,9.534201622E0,1.066600680E0
1.211321357E0,1.167099237E0,9.568299294E0,1.061815023E0
1.213833336E0,1.224527001E0,9.592227936E0,1.085743308E0
1.216347659E0,1.200598717E0,9.548559189E0,1.080957651E0
1.218861982E0,1.171884894E0,9.582656860E0,1.033101201E0
1.221376305E0,1.157527924E0,9.582656860E0,1.071386337E0
1.223890628E0,1.191027522E0,9.582656860E0,1.071386337E0
1.226405003E0,1.200598717E0,9.606584549E0,1.057029366E0
1.228919274E0,1.181456208E0,9.587442398E0,1.061815023E0
1.231433649E0,1.162313581E0,9.582656860E0,1.071386337E0
1.233947972E0,1.176670551E0,9.606584549E0,1.047458172E0
1.236462295E0,1.167099237E0,9.601799011E0,1.052243710E0
1.238976617E0,1.128814101E0,9.577870369E0,1.057029366E0
1.241490940E0,1.138385415E0,9.601799011E0,1.071386337E0
1.244001878E0,1.176670551E0,9.592227936E0,1.100100160E0
1.246516201E0,1.191027522E0,9.582656860E0,1.095314622E0
1.249030524E0,1.191027522E0,9.562915802E0,1.071386337E0
1.251544847E0,1.195813060E0,9.582656860E0,1.095314622E0
1.254059170E0,1.162313581E0,9.558130264E0,1.090528965E0
1.256573545E0,1.162313581E0,9.577870369E0,1.061815023E0
1.259087815E0,1.143171072E0,9.601799011E0,1.061815023E0
1.261602190E0,1.128814101E0,9.577870369E0,1.066600680E0
1.264116513E0,1.176670551E0,9.553344727E0,1.066600680E0
1.266630836E0,1.162313581E0,9.534201622E0,1.061815023E0
1.269145159E0,1.157527924E0,9.582656860E0,1.023529887E0
1.271659482E0,1.191027522E0,9.558130264E0,1.071386337E0
1.274177242E0,1.191027522E0,9.543772697E0,1.037886858E0
1.276691565E0,1.162313581E0,9.534201622E0,1.028315544E0
1.279205888E0,1.181456208E0,9.548559189E0,1.071386337E0
1.281720211E0,1.186241865E0,9.568299294E0,1.033101201E0
1.284234534E0,1.191027522E0,9.582656860E0,1.028315544E0
1.286748909E0,1.195813060E0,9.587442398E0,1.013958573E0
1.289263180E0,1.176670551E0,9.582656860E0,1.066600680E0
1.291777503E0,1.210170031E0,9.558130264E0,1.061815023E0
1.294291878E0,1.219741344E0,9.577870369E0,1.028315544E0
1.296806201E0,1.210170031E0,9.573084831E0,1.057029366E0
1.299320524E0,1.205384374E0,9.573084831E0,1.080957651E0
1.301834847E0,1.191027522E0,9.538987160E0,1.080957651E0
1.304348336E0,1.234098315E0,9.558130264E0,1.104885817E0
1.306862659E0,1.229312658E0,9.553344727E0,1.057029366E0
1.309376982E0,1.258026481E0,9.524630547E0,1.109671474E0
1.311891305E0,1.229312658E0,9.519845009E0,1.109671474E0
1.314405628E0,1.243669510E0,9.582656860E0,1.076171994E0
1.316919951E0,1.243669510E0,9.524630547E0,1.090528965E0
1.319434274E0,1.229312658E0,9.510273933E0,1.133599758E0
1.321948649E0,1.195813060E0,9.529416084E0,1.119242787E0
1.324462972E0,1.210170031E0,9.524630547E0,1.085743308E0
1.326977295E0,1.214955688E0,9.548559189E0,1.100100160E0
1.329491617E0,1.214955688E0,9.568299294E0,1.124028444E0
1.332005940E0,1.214955688E0,9.534201622E0,1.085743308E0
1.334517190E0,1.234098315E0,9.553344727E0,1.095314622E0
1.337031513E0,1.224527001E0,9.524630547E0,1.100100160E0
1.339545836E0,1.200598717E0,9.543772697E0,1.066600680E0
1.342060159E0,1.210170031E0,9.548559189E0,1.047458172E0
1.344574534E0,1.210170031E0,9.558130264E0,1.057029366E0
1.347088805E0,1.210170031E0,9.543772697E0,1.066600680E0
1.349603180E0,1.238883972E0,9.538987160E0,1.066600680E0
1.352117451E0,1.253240824E0,9.538987160E0,1.047458172E0
1.354631826E0,1.253240824E0,9.529416084E0,1.052243710E0
1.357146149E0,1.272383451E0,9.534201622E0,1.061815023E0
1.359660472E0,1.238883972E0,9.553344727E0,1.023529887E0
1.362174795E0,1.248455167E0,9.573084831E0,1.042672515E0
1.364712451E0,1.262812138E0,9.568299294E0,1.066600680E0
1.367226774E0,1.248455167E0,9.534201622E0,1.061815023E0
1.369741097E0,1.248455167E0,9.573084831E0,1.037886858E0
1.372255420E0,1.291526079E0,9.649655342E0,1.085743308E0
1.374769795E0,1.291526079E0,9.616155624E0,1.066600680E0
1.377284065E0,1.305882931E0,9.620942116E0,1.104885817E0
1.379798388E0,1.267597795E0,9.616155624E0,1.066600680E0
1.382312711E0,1.267597795E0,9.620942116E0,1.071386337E0
1.384827086E0,1.238883972E0,9.635298729E0,1.066600680E0
1.387341409E0,1.219741344E0,9.625727654E0,1.071386337E0
1.389855732E0,1.229312658E0,9.635298729E0,1.071386337E0
1.392370055E0,1.238883972E0,9.625727654E0,1.042672515E0
1.394891097E0,1.238883972E0,9.649655342E0,1.013958573E0
1.397405420E0,1.248455167E0,9.649655342E0,1.052243710E0
1.399919742E0,1.214955688E0,9.630513191E0,1.018744230E0
1.402434065E0,1.219741344E0,9.630513191E0,1.052243710E0
1.404948440E0,1.229312658E0,9.616155624E0,1.085743308E0
1.407462711E0,1.205384374E0,9.616155624E0,1.013958573E0
1.409977034E0,1.205384374E0,9.592227936E0,1.013958573E0
1.412491409E0,1.186241865E0,9.587442398E0,1.057029366E0
1.415005732E0,1.195813060E0,9.553344727E0,1.023529887E0
1.417520055E0,1.214955688E0,9.529416084E0,1.013958573E0
1.420034378E0,1.191027522E0,9.534201622E0,1.018744230E0
1.422548701E0,1.186241865E0,9.529416084E0,1.047458172E0
1.425055940E0,1.224527001E0,9.562915802E0,1.085743308E0
1.427570263E0,1.205384374E0,9.568299294E0,1.076171994E0
1.430099951E0,1.195813060E0,9.534201622E0,1.080957651E0
1.432614274E0,1.224527001E0,9.495916367E0,1.076171994E0
1.435128180E0,1.224527001E0,9.510273933E0,1.100100160E0
1.437636513E0,1.238883972E0,9.515059471E0,1.042672515E0
1.440150836E0,1.253240824E0,9.534201622E0,1.076171994E0
1.442674847E0,1.272383451E0,9.491130829E0,1.047458172E0
1.445189170E0,1.291526079E0,9.471988678E0,1.047458172E0
1.447692138E0,1.277169108E0,9.524630547E0,1.109671474E0
1.450206461E0,1.286740422E0,9.481559753E0,1.095314622E0
1.452720732E0,1.339382529E0,9.462417603E0,1.033101201E0
1.455235055E0,1.363310695E0,9.457631111E0,1.109671474E0
1.457749378E0,1.382453322E0,9.510273933E0,1.124028444E0
1.460263753E0,1.387238979E0,9.495916367E0,1.133599758E0
1.462778076E0,1.363310695E0,9.505488396E0,1.157527924E0
1.465292347E0,1.358525038E0,9.510273933E0,1.143171072E0
1.467806670E0,1.406381488E0,9.510273933E0,1.147956610E0
1.470321045E0,1.411167145E0,9.486345291E0,1.171884894E0
1.472835367E0,1.406381488E0,9.495916367E0,1.229312658E0
1.475349690E0,1.435095429E0,9.538987160E0,1.253240824E0
1.477864013E0,1.444666624E0,9.515059471E0,1.243669510E0
1.480357034E0,1.492523074E0,9.510273933E0,1.281954765E0
1.482871357E0,1.502094388E0,9.495916367E0,1.296909928E0
1.485385680E0,1.492523074E0,9.448060036E0,1.287338614E0
1.487900003E0,1.473380566E0,9.500701904E0,1.306481123E0
1.490414326E0,1.468594909E0,9.495916367E0,1.339980721E0
1.492928649E0,1.482951880E0,9.515059471E0,1.335195065E0
1.495442972E0,1.468594909E0,9.538987160E0,1.330409408E0
1.497957295E0,1.497308731E0,9.543772697E0,1.320838094E0
1.500471670E0,1.482951880E0,9.519845009E0,1.316052437E0
1.502985940E0,1.444666624E0,9.524630547E0,1.281954765E0
1.505500315E0,1.444666624E0,9.538987160E0,1.243669510E0
1.508014586E0,1.420738459E0,9.562915802E0,1.195813060E0
1.510529951E0,1.396810174E0,9.543772697E0,1.143171072E0
1.513044274E0,1.415952802E0,9.553344727E0,1.200598717E0
1.515558597E0,1.396810174E0,9.568299294E0,1.152742267E0
1.518072920E0,1.382453322E0,9.543772697E0,1.104885817E0
1.520587242E0,1.368096352E0,9.543772697E0,1.085743308E0
1.523101565E0,1.344168067E0,9.510273933E0,1.090528965E0
1.525615888E0,1.334596872E0,9.515059471E0,1.085743308E0
1.528130211E0,1.310668588E0,9.519845009E0,1.066600680E0
1.530675367E0,1.315454245E0,9.538987160E0,1.061815023E0
1.533168232E0,1.305882931E0,9.515059471E0,1.033101201E0
1.535682555E0,1.281954765E0,9.505488396E0,1.042672515E0
1.538211045E0,1.277169108E0,9.519845009E0,1.061815023E0
1.540725367E0,1.301097274E0,9.491130829E0,1.085743308E0
1.543250628E0,1.301097274E0,9.457631111E0,1.023529887E0
1.545764951E0,1.277169108E0,9.481559753E0,1.071386337E0
1.548279222E0,1.219741344E0,9.491130829E0,1.100100160E0
1.550793545E0,1.258026481E0,9.510273933E0,1.090528965E0
1.553307867E0,1.253240824E0,9.481559753E0,1.076171994E0
1.555822190E0,1.258026481E0,9.495916367E0,1.119242787E0
1.558336513E0,1.248455167E0,9.524630547E0,1.114457130E0
1.560850836E0,1.214955688E0,9.481559753E0,1.133599758E0
1.563365159E0,1.234098315E0,9.515059471E0,1.128814101E0
1.565879534E0,1.224527001E0,9.510273933E0,1.119242787E0
1.568393805E0,1.162313581E0,9.553344727E0,1.167099237E0
1.570908128E0,1.219741344E0,9.524630547E0,1.138385415E0
1.573422503E0,1.219741344E0,9.524630547E0,1.100100160E0
1.575907972E0,1.210170031E0,9.534201622E0,1.095314622E0
1.578422295E0,1.195813060E0,9.538987160E0,1.090528965E0
1.580936617E0,1.210170031E0,9.524630547E0,1.080957651E0
1.583450940E0,1.219741344E0,9.548559189E0,1.095314622E0
1.585965315E0,1.205384374E0,9.611370087E0,1.119242787E0
1.588479586E0,1.234098315E0,9.587442398E0,1.119242787E0
1.590993961E0,1.224527001E0,9.568299294E0,1.095314622E0
1.593508232E0,1.200598717E0,9.568299294E0,1.080957651E0
1.596022607E0,1.224527001E0,9.548559189E0,1.114457130E0
1.598536930E0,1.224527001E0,9.543772697E0,1.095314622E0
1.601051253E0,1.205384374E0,9.553344727E0,1.076171994E0
1.603565576E0,1.176670551E0,9.606584549E0,1.066600680E0
1.606100524E0,1.210170031E0,9.592227936E0,1.085743308E0
1.608614847E0,1.229312658E0,9.519845009E0,1.090528965E0
1.611129170E0,1.224527001E0,9.587442398E0,1.124028444E0
1.613643492E0,1.224527001E0,9.548559189E0,1.085743308E0
1.616157867E0,1.253240824E0,9.538987160E0,1.080957651E0
1.618672190E0,1.262812138E0,9.597013474E0,1.085743308E0
1.621186513E0,1.248455167E0,9.558130264E0,1.076171994E0
1.623700784E0,1.281954765E0,9.548559189E0,1.095314622E0
1.626215159E0,1.286740422E0,9.538987160E0,1.080957651E0
1.628729482E0,1.286740422E0,9.519845009E0,1.119242787E0
1.631243805E0,1.286740422E0,9.524630547E0,1.119242787E0
1.633758128E0,1.253240824E0,9.519845009E0,1.080957651E0
1.636278076E0,1.262812138E0,9.515059471E0,1.071386337E0
1.638792399E0,1.286740422E0,9.505488396E0,1.114457130E0
1.641306722E0,1.281954765E0,9.529416084E0,1.095314622E0
1.643821045E0,1.267597795E0,9.538987160E0,1.071386337E0
1.646335420E0,1.286740422E0,9.524630547E0,1.104885817E0
1.648849690E0,1.253240824E0,9.519845009E0,1.100100160E0
1.651364013E0,1.214955688E0,9.558130264E0,1.100100160E0
1.653878336E0,1.243669510E0,9.553344727E0,1.104885817E0
1.656392711E0,1.214955688E0,9.548559189E0,1.109671474E0
1.658907034E0,1.248455167E0,9.538987160E0,1.071386337E0
1.661421357E0,1.219741344E0,9.573084831E0,1.076171994E0
1.663935680E0,1.200598717E0,9.558130264E0,1.095314622E0
1.666415784E0,1.224527001E0,9.529416084E0,1.080957651E0
1.668930107E0,1.200598717E0,9.548559189E0,1.071386337E0
1.671444430E0,1.171884894E0,9.534201622E0,1.138385415E0
1.673958753E0,1.157527924E0,9.548559189E0,1.071386337E0
1.676473076E0,1.195813060E0,9.519845009E0,1.047458172E0
1.678987399E0,1.152742267E0,9.562915802E0,1.061815023E0
1.681501722E0,1.143171072E0,9.515059471E0,1.057029366E0
1.684016045E0,1.186241865E0,9.481559753E0,1.047458172E0
1.686530420E0,1.157527924E0,9.476774216E0,1.057029366E0
1.689044690E0,1.152742267E0,9.500701904E0,1.057029366E0
1.691559065E0,1.214955688E0,9.467203140E0,1.061815023E0
1.694073336E0,1.147956610E0,9.452845573E0,1.013958573E0
1.696606774E0,1.210170031E0,9.486345291E0,1.028315544E0
1.699121097E0,1.195813060E0,9.462417603E0,1.028315544E0
1.701635420E0,1.210170031E0,9.491130829E0,1.042672515E0
1.704149742E0,1.229312658E0,9.471988678E0,1.033101201E0
1.706664117E0,1.200598717E0,9.495916367E0,1.071386337E0
1.709178388E0,1.186241865E0,9.568299294E0,1.095314622E0
1.711692763E0,1.205384374E0,9.543772697E0,1.033101201E0
1.714207034E0,1.205384374E0,9.606584549E0,1.071386337E0
1.716721409E0,1.214955688E0,9.687940598E0,1.052243710E0
1.719235732E0,1.253240824E0,9.697511673E0,9.996016622E-1
1.721750055E0,1.238883972E0,9.702297211E0,1.033101201E0
1.724264378E0,1.253240824E0,9.735796928E0,1.057029366E0
1.726788492E0,1.291526079E0,9.731011391E0,1.033101201E0
1.729302815E0,1.339382529E0,9.711869240E0,1.047458172E0
1.731817138E0,1.334596872E0,9.683155060E0,1.037886858E0
1.734331461E0,1.353739381E0,9.687940598E0,1.033101201E0
1.736845836E0,1.382453322E0,9.678369522E0,1.018744230E0
1.739360107E0,1.372882009E0,9.649655342E0,1.033101201E0
1.741874482E0,1.401595831E0,9.620942116E0,1.047458172E0
1.744388753E0,1.396810174E0,9.601799011E0,1.080957651E0
1.746903128E0,1.439880967E0,9.587442398E0,1.114457130E0
1.749417451E0,1.430309772E0,9.562915802E0,1.138385415E0
1.751931774E0,1.449452281E0,9.538987160E0,1.167099237E0
1.754446097E0,1.463809252E0,9.548559189E0,1.152742267E0
1.756947190E0,1.415952802E0,9.558130264E0,1.181456208E0
1.759461513E0,1.449452281E0,9.529416084E0,1.157527924E0
1.761975836E0,1.454237938E0,9.543772697E0,1.200598717E0
1.764490159E0,1.411167145E0,9.515059471E0,1.224527001E0
1.767004534E0,1.420738459E0,9.486345291E0,1.210170031E0
1.769518805E0,1.377667665E0,9.486345291E0,1.157527924E0
1.772033128E0,1.392024517E0,9.491130829E0,1.147956610E0
1.774547503E0,1.368096352E0,9.524630547E0,1.152742267E0
1.777061826E0,1.339382529E0,9.510273933E0,1.143171072E0
1.779576149E0,1.358525038E0,9.471988678E0,1.147956610E0
1.782090472E0,1.320239902E0,9.495916367E0,1.076171994E0
1.784604795E0,1.291526079E0,9.524630547E0,1.037886858E0
1.787117086E0,1.267597795E0,9.515059471E0,1.052243710E0
1.789631409E0,1.248455167E0,9.524630547E0,1.071386337E0
1.792145732E0,1.234098315E0,9.495916367E0,1.028315544E0
1.794660055E0,1.262812138E0,9.510273933E0,1.037886858E0
1.797174378E0,1.210170031E0,9.534201622E0,1.061815023E0
1.799688753E0,1.234098315E0,9.515059471E0,1.013958573E0
1.802203076E0,1.186241865E0,9.476774216E0,1.028315544E0
1.804717399E0,1.195813060E0,9.524630547E0,1.071386337E0
1.807231722E0,1.176670551E0,9.548559189E0,1.057029366E0
1.809746045E0,1.176670551E0,9.573084831E0,1.052243710E0
1.812260367E0,1.162313581E0,9.568299294E0,1.076171994E0
1.814774690E0,1.143171072E0,9.495916367E0,1.071386337E0
1.817288701E0,1.171884894E0,9.486345291E0,1.076171994E0
1.819803024E0,1.176670551E0,9.519845009E0,1.047458172E0
1.822317347E0,1.157527924E0,9.534201622E0,1.047458172E0
1.824831670E0,1.109671474E0,9.491130829E0,1.071386337E0
1.827345992E0,1.114457130E0,9.534201622E0,1.066600680E0
1.829860367E0,1.128814101E0,9.558130264E0,1.100100160E0
1.832374690E0,1.147956610E0,9.505488396E0,1.085743308E0
1.834889013E0,1.143171072E0,9.553344727E0,1.052243710E0
1.837403336E0,1.162313581E0,9.543772697E0,1.080957651E0
1.839917659E0,1.162313581E0,9.562915802E0,1.047458172E0
1.842431982E0,1.181456208E0,9.529416084E0,1.071386337E0
1.844946305E0,1.171884894E0,9.515059471E0,1.119242787E0
1.847454951E0,1.138385415E0,9.534201622E0,1.071386337E0
1.849969274E0,1.181456208E0,9.505488396E0,1.090528965E0
1.852483597E0,1.205384374E0,9.519845009E0,1.037886858E0
1.854997920E0,1.205384374E0,9.548559189E0,1.080957651E0
1.857512242E0,1.171884894E0,9.500701904E0,1.085743308E0
1.860026617E0,1.191027522E0,9.534201622E0,1.100100160E0
1.862540940E0,1.210170031E0,9.553344727E0,1.109671474E0
1.865055211E0,1.176670551E0,9.515059471E0,1.085743308E0
1.867569586E0,1.176670551E0,9.543772697E0,1.061815023E0
1.870083909E0,1.200598717E0,9.524630547E0,1.095314622E0
1.872598232E0,1.200598717E0,9.543772697E0,1.095314622E0
1.875112555E0,1.167099237E0,9.534201622E0,1.114457130E0
1.877631201E0,1.219741344E0,9.568299294E0,1.114457130E0
1.880145524E0,1.200598717E0,9.573084831E0,1.119242787E0
1.882659847E0,1.214955688E0,9.534201622E0,1.119242787E0
1.885174170E0,1.219741344E0,9.510273933E0,1.104885817E0
1.887688492E0,1.205384374E0,9.543772697E0,1.124028444E0
1.890202867E0,1.171884894E0,9.524630547E0,1.114457130E0
1.892717190E0,1.167099237E0,9.543772697E0,1.100100160E0
1.895231513E0,1.181456208E0,9.553344727E0,1.114457130E0
1.897745836E0,1.157527924E0,9.510273933E0,1.057029366E0
1.900260159E0,1.147956610E0,9.538987160E0,1.061815023E0
1.902774482E0,1.147956610E0,9.500701904E0,1.071386337E0
1.905288805E0,1.167099237E0,9.529416084E0,1.061815023E0
1.907802815E0,1.157527924E0,9.481559753E0,1.109671474E0
1.910317190E0,1.147956610E0,9.495916367E0,1.100100160E0
1.912831461E0,1.138385415E0,9.471988678E0,1.114457130E0
1.915345784E0,1.104885817E0,9.476774216E0,1.143171072E0
1.917860107E0,1.104885817E0,9.515059471E0,1.138385415E0
1.920374482E0,1.128814101E0,9.486345291E0,1.128814101E0
1.922888753E0,1.100100160E0,9.495916367E0,1.186241865E0
1.925403128E0,1.124028444E0,9.519845009E0,1.138385415E0
1.927917451E0,1.090528965E0,9.510273933E0,1.176670551E0
1.930431774E0,1.100100160E0,9.476774216E0,1.162313581E0
1.932946097E0,1.109671474E0,9.476774216E0,1.124028444E0
1.935460420E0,1.076171994E0,9.500701904E0,1.162313581E0
1.937966930E0,1.104885817E0,9.462417603E0,1.181456208E0
1.940481253E0,1.090528965E0,9.476774216E0,1.205384374E0
1.942995576E0,1.100100160E0,9.486345291E0,1.195813060E0
1.945509899E0,1.061216831E0,9.467203140E0,1.195813060E0
1.948024222E0,1.071386337E0,9.462417603E0,1.195813060E0
1.950538545E0,1.037288666E0,9.452845573E0,1.210170031E0
1.953052867E0,1.076171994E0,9.457631111E0,1.219741344E0
1.955567242E0,1.071386337E0,9.476774216E0,1.224527001E0
1.958081565E0,1.046859860E0,9.452845573E0,1.191027522E0
1.960595888E0,1.061216831E0,9.467203140E0,1.167099237E0
1.963110211E0,1.042074203E0,9.481559753E0,1.186241865E0
1.965624534E0,1.066002488E0,9.457631111E0,1.186241865E0
1.968141565E0,1.071386337E0,9.414560318E0,1.176670551E0
1.970655940E0,1.042074203E0,9.471988678E0,1.186241865E0
1.973170211E0,1.046859860E0,9.471988678E0,1.214955688E0
1.975684534E0,1.046859860E0,9.438488960E0,1.205384374E0
1.978198857E0,1.066002488E0,9.448060036E0,1.186241865E0
1.980713232E0,1.051645517E0,9.476774216E0,1.167099237E0
1.983227503E0,1.037288666E0,9.433703423E0,1.214955688E0
1.985741878E0,1.022931695E0,9.457631111E0,1.195813060E0
1.988256201E0,1.013360381E0,9.381061554E0,1.205384374E0
1.990770524E0,9.894321561E-1,9.438488960E0,1.219741344E0
1.993284847E0,9.367900491E-1,9.438488960E0,1.205384374E0
1.995799170E0,9.032905698E-1,9.433703423E0,1.229312658E0
1.998313492E0,8.841479421E-1,9.433703423E0,1.248455167E0
2.000827815E0,8.554341197E-1,9.409774780E0,1.248455167E0
2.003342138E0,8.650053740E-1,9.443274498E0,1.210170031E0
2.005856461E0,8.267202377E-1,9.424132347E0,1.243669510E0
2.008370784E0,8.362914920E-1,9.433703423E0,1.253240824E0
2.010885159E0,7.788637877E-1,9.457631111E0,1.253240824E0
2.013399430E0,7.597211599E-1,9.476774216E0,1.210170031E0
2.015913753E0,7.597211599E-1,9.486345291E0,1.224527001E0
2.018428128E0,7.597211599E-1,9.548559189E0,1.258026481E0
2.020942451E0,7.166503668E-1,9.568299294E0,1.205384374E0
2.023456774E0,6.879364848E-1,9.611370087E0,1.186241865E0
2.025971097E0,6.879364848E-1,9.697511673E0,1.181456208E0
2.028488909E0,6.879364848E-1,9.740582466E0,1.152742267E0
2.031003232E0,6.879364848E-1,9.778867722E0,1.133599758E0
2.033517555E0,6.879364848E-1,9.807581902E0,1.080957651E0
2.036031878E0,7.022934556E-1,9.841081619E0,1.090528965E0
2.038546201E0,7.357929349E-1,9.855438232E0,1.047458172E0
2.041060576E0,7.980063558E-1,9.845867157E0,1.047458172E0
2.043574847E0,8.219345808E-1,9.802796364E0,1.071386337E0
2.046089222E0,8.362914920E-1,9.711869240E0,1.061815023E0
2.048603545E0,8.937192559E-1,9.625727654E0,1.085743308E0
2.051117867E0,9.128618240E-1,9.616155624E0,1.124028444E0
2.053632190E0,9.320043921E-1,9.515059471E0,1.176670551E0
2.056146513E0,9.559326172E-1,9.452845573E0,1.262812138E0
2.058677920E0,9.559326172E-1,9.381061554E0,1.325623751E0
2.061192242E0,1.003789067E0,9.323633194E0,1.330409408E0
2.063706565E0,1.027717352E0,9.223134995E0,1.392622828E0
2.066220888E0,9.990034699E-1,9.175278664E0,1.421336651E0
2.068735211E0,9.607182741E-1,9.113064766E0,1.454836130E0
2.071249534E0,9.655039310E-1,9.060422897E0,1.430907965E0
2.073763805E0,9.655039310E-1,9.002396584E0,1.440479279E0
2.076278128E0,9.798609018E-1,8.949754715E0,1.430907965E0
2.078792451E0,9.367900491E-1,9.016754150E0,1.363908887E0
2.081306774E0,9.320043921E-1,8.954540253E0,1.344766378E0
2.083821097E0,9.320043921E-1,8.944969177E0,1.281954765E0
2.086335420E0,9.080761671E-1,8.983254433E0,1.248455167E0
2.088839638E0,8.458628058E-1,9.011968613E0,1.210170031E0
2.091353961E0,8.410771489E-1,9.065208435E0,1.147956610E0
2.093868284E0,8.027920127E-1,9.108279228E0,1.085743308E0
2.096382607E0,7.932206988E-1,9.127422333E0,9.900303483E-1
2.098896930E0,8.027920127E-1,9.165707588E0,9.469595551E-1
2.101411253E0,7.980063558E-1,9.199206352E0,8.895317912E-1
2.103925524E0,7.788637877E-1,9.232706070E0,8.703892231E-1
2.106439847E0,7.597211599E-1,9.247062683E0,7.938188910E-1
2.108954170E0,7.980063558E-1,9.237491608E0,7.890332937E-1
2.111468492E0,7.645068169E-1,9.261420250E0,8.033902049E-1
2.113982815E0,7.884350419E-1,9.309276581E0,7.794619799E-1
2.116497138E0,7.932206988E-1,9.337990761E0,8.033902049E-1
2.119003805E0,7.597211599E-1,9.323633194E0,8.033902049E-1
2.121518128E0,7.884350419E-1,9.357132912E0,8.129615188E-1
2.124032451E0,7.836494446E-1,9.337990761E0,8.656035662E-1
2.126546774E0,7.597211599E-1,9.390632629E0,9.326026440E-1
2.129061097E0,7.357929349E-1,9.323633194E0,9.756734371E-1
2.131575367E0,7.549355626E-1,9.337990761E0,1.018744230E0
2.134089690E0,7.597211599E-1,9.361918449E0,1.066600680E0
2.136604013E0,7.597211599E-1,9.395418167E0,1.114457130E0
2.139118336E0,7.453642488E-1,9.433703423E0,1.138385415E0
2.141632659E0,7.118647099E-1,9.457631111E0,1.176670551E0
2.144146982E0,7.166503668E-1,9.457631111E0,1.253240824E0
2.146661305E0,7.166503668E-1,9.481559753E0,1.267597795E0
2.149182972E0,7.214360237E-1,9.500701904E0,1.272383451E0
2.151697295E0,7.549355626E-1,9.491130829E0,1.287338614E0
2.154211617E0,8.075776696E-1,9.505488396E0,1.292124271E0
2.156725940E0,8.027920127E-1,9.548559189E0,1.339980721E0
2.159240263E0,7.932206988E-1,9.524630547E0,1.311266780E0
2.161754586E0,8.506484628E-1,9.529416084E0,1.330409408E0
2.164268857E0,8.889335990E-1,9.582656860E0,1.316052437E0
2.166783180E0,8.745766878E-1,9.592227936E0,1.316052437E0
2.169297503E0,8.985049129E-1,9.592227936E0,1.330409408E0
2.171811826E0,9.080761671E-1,9.597013474E0,1.335195065E0
2.174326149E0,8.889335990E-1,9.620942116E0,1.335195065E0
2.176840472E0,9.367900491E-1,9.616155624E0,1.339980721E0
2.179354847E0,9.607182741E-1,9.597013474E0,1.306481123E0
2.181869170E0,9.559326172E-1,9.644869804E0,1.272383451E0
2.184383492E0,9.750752449E-1,9.611370087E0,1.267597795E0
2.186897815E0,9.702895880E-1,9.625727654E0,1.262812138E0
2.189412138E0,1.013360381E0,9.649655342E0,1.262812138E0
2.191926409E0,1.042074203E0,9.644869804E0,1.200598717E0
2.194440732E0,1.076171994E0,9.654440880E0,1.181456208E0
2.196955055E0,1.104885817E0,9.659226418E0,1.186241865E0
2.199469378E0,1.100100160E0,9.654440880E0,1.195813060E0
2.201983701E0,1.090528965E0,9.630513191E0,1.167099237E0
2.204498024E0,1.095314622E0,9.673583984E0,1.114457130E0
2.207012347E0,1.124028444E0,9.731011391E0,1.104885817E0
2.209520159E0,1.119242787E0,9.745368004E0,1.080957651E0
2.212034482E0,1.114457130E0,9.769296646E0,1.109671474E0
2.214548805E0,1.147956610E0,9.788438797E0,1.066600680E0
2.217063128E0,1.133599758E0,9.769296646E0,1.037886858E0
2.219577451E0,1.157527924E0,9.817152977E0,1.052243710E0
2.222091722E0,1.195813060E0,9.764511108E0,1.013958573E0
2.224606097E0,1.157527924E0,9.735796928E0,1.013958573E0
2.227120367E0,1.171884894E0,9.783653259E0,1.037886858E0
2.229634690E0,1.200598717E0,9.735796928E0,1.042672515E0
2.232149013E0,1.181456208E0,9.731011391E0,1.023529887E0
2.234663336E0,1.181456208E0,9.745368004E0,1.023529887E0
2.237177659E0,1.214955688E0,9.716654778E0,1.004387259E0
2.239703545E0,1.195813060E0,9.716654778E0,9.756734371E-1
2.242217867E0,1.200598717E0,9.735796928E0,9.900303483E-1
2.244732190E0,1.181456208E0,9.721440315E0,1.037886858E0
2.247246513E0,1.210170031E0,9.702297211E0,9.708877802E-1
2.249760836E0,1.186241865E0,9.697511673E0,9.469595551E-1
2.252275107E0,1.181456208E0,9.707083702E0,1.013958573E0
2.254789482E0,1.171884894E0,9.697511673E0,1.057029366E0
2.257303753E0,1.133599758E0,9.716654778E0,1.061815023E0
2.259818076E0,1.138385415E0,9.697511673E0,1.066600680E0
2.262332399E0,1.114457130E0,9.668798447E0,1.061815023E0
2.264846722E0,1.162313581E0,9.673583984E0,1.066600680E0
2.267361045E0,1.138385415E0,9.683155060E0,1.090528965E0
2.269878076E0,1.128814101E0,9.606584549E0,1.128814101E0
2.272392399E0,1.138385415E0,9.640084267E0,1.114457130E0
2.274906722E0,1.133599758E0,9.625727654E0,1.157527924E0
2.277421045E0,1.128814101E0,9.616155624E0,1.167099237E0
2.279935367E0,1.128814101E0,9.620942116E0,1.224527001E0
2.282449638E0,1.176670551E0,9.573084831E0,1.224527001E0
2.284963961E0,1.147956610E0,9.562915802E0,1.292124271E0
2.287478284E0,1.162313581E0,9.538987160E0,1.316052437E0
2.289992607E0,1.214955688E0,9.573084831E0,1.354337573E0
2.292506930E0,1.224527001E0,9.500701904E0,1.454836130E0
2.295021253E0,1.253240824E0,9.529416084E0,1.464407444E0
2.297535576E0,1.248455167E0,9.543772697E0,1.507478237E0
2.300044742E0,1.267597795E0,9.543772697E0,1.569691658E0
2.302559065E0,1.305882931E0,9.524630547E0,1.579262972E0
2.305073388E0,1.334596872E0,9.519845009E0,1.631905079E0
2.307587711E0,1.387238979E0,9.495916367E0,1.674975872E0
2.310102034E0,1.420738459E0,9.505488396E0,1.694118381E0
2.312616357E0,1.430309772E0,9.486345291E0,1.746760488E0
2.315130680E0,1.511665702E0,9.462417603E0,1.761117458E0
2.317644951E0,1.468594909E0,9.491130829E0,1.756331801E0
2.320159274E0,1.492523074E0,9.500701904E0,1.843071699E0
2.322673597E0,1.521237016E0,9.476774216E0,1.862214208E0
2.325187920E0,1.593021631E0,9.495916367E0,1.919641972E0
2.327702242E0,1.597807288E0,9.519845009E0,1.962712765E0
2.330225732E0,1.578664780E0,9.495916367E0,1.953141451E0
2.332740055E0,1.564307809E0,9.515059471E0,1.953141451E0
2.335254378E0,1.578664780E0,9.534201622E0,2.020140409E0
2.337768701E0,1.602592945E0,9.505488396E0,2.048854351E0
2.340283024E0,1.588235974E0,9.486345291E0,2.039283037E0
2.342797295E0,1.569093466E0,9.505488396E0,2.082353830E0
2.345311670E0,1.535593987E0,9.491130829E0,2.096710920E0
2.347825940E0,1.521237016E0,9.467203140E0,2.087139606E0
2.350340315E0,1.492523074E0,9.457631111E0,2.111067772E0
2.352854586E0,1.487737536E0,9.486345291E0,2.111067772E0
2.355368909E0,1.506880045E0,9.481559753E0,2.139781713E0
2.357883232E0,1.444666624E0,9.448060036E0,2.139781713E0
2.360413492E0,1.392024517E0,9.452845573E0,2.197209358E0
2.362927815E0,1.377667665E0,9.443274498E0,2.201995134E0
2.365442138E0,1.358525038E0,9.376275063E0,2.206780672E0
2.367956461E0,1.315454245E0,9.352347374E0,2.211566210E0
2.370470784E0,1.315454245E0,9.333204269E0,2.235494614E0
2.372985055E0,1.267597795E0,9.285347939E0,2.273779631E0
2.375499430E0,1.291526079E0,9.256634712E0,2.302493572E0
2.378013701E0,1.296311617E0,9.247062683E0,2.340778828E0
2.380528024E0,1.286740422E0,9.184849739E0,2.389233351E0
2.383042347E0,1.291526079E0,9.165707588E0,2.374876499E0
2.385556670E0,1.272383451E0,9.141778946E0,2.374876499E0
2.388070992E0,1.272383451E0,9.046066284E0,2.408375978E0
2.390581513E0,1.277169108E0,9.021539688E0,2.398804665E0
2.393095836E0,1.238883972E0,9.031110764E0,2.470589399E0
2.395610159E0,1.171884894E0,9.021539688E0,2.508874655E0
2.398124430E0,1.167099237E0,8.997611046E0,2.542374134E0
2.400638805E0,1.100100160E0,8.988039970E0,2.599801779E0
2.403153076E0,1.114457130E0,8.944969177E0,2.647658348E0
2.405667399E0,1.066002488E0,8.925827026E0,2.647658348E0
2.408181722E0,1.076171994E0,8.911469460E0,2.676372051E0
2.410696045E0,1.037288666E0,8.916254997E0,2.681157827E0
2.413210367E0,9.990034699E-1,8.906683922E0,2.743371248E0
2.415724690E0,9.798609018E-1,8.906683922E0,2.738585472E0
2.418238961E0,9.655039310E-1,8.892327309E0,2.714657307E0
2.420768857E0,9.511470199E-1,8.877969742E0,2.733799934E0
2.423283180E0,9.798609018E-1,8.858827591E0,2.743371248E0
2.425797503E0,9.702895880E-1,8.911469460E0,2.748156786E0
2.428311826E0,9.415757060E-1,8.944969177E0,2.724228621E0
2.430826149E0,9.655039310E-1,8.978468895E0,2.738585472E0
2.433340420E0,9.750752449E-1,8.959325790E0,2.714657307E0
2.435854795E0,1.013360381E0,9.041280746E0,2.748156786E0
2.438369065E0,9.990034699E-1,9.060422897E0,2.719442844E0
2.440883388E0,1.008574724E0,9.098708153E0,2.671586514E0
2.443397711E0,9.942178130E-1,9.113064766E0,2.604587555E0
2.445912034E0,9.559326172E-1,9.122636795E0,2.609373093E0
2.448426357E0,1.003789067E0,9.117850304E0,2.609373093E0
2.450907451E0,1.013360381E0,9.170493126E0,2.561516523E0
2.453421774E0,9.655039310E-1,9.180064201E0,2.499303341E0
2.455936097E0,9.750752449E-1,9.146564484E0,2.417947292E0
2.458450420E0,1.008574724E0,9.146564484E0,2.360519648E0
2.460964742E0,9.990034699E-1,9.117850304E0,2.331207514E0
2.463479013E0,9.846464992E-1,9.089137077E0,2.235494614E0
2.465993388E0,9.559326172E-1,9.113064766E0,2.197209358E0
2.468507659E0,9.990034699E-1,9.074779510E0,2.158924341E0
2.471021982E0,9.415757060E-1,9.021539688E0,2.039283037E0
2.473536305E0,9.607182741E-1,8.992825508E0,1.996212244E0
2.476050628E0,9.176474810E-1,9.007183075E0,1.929213285E0
2.478564951E0,9.128618240E-1,8.992825508E0,1.857428551E0
2.481105055E0,9.224331379E-1,8.906683922E0,1.823929071E0
2.483619378E0,9.320043921E-1,8.854042053E0,1.732403636E0
2.486133701E0,8.793623447E-1,8.830113411E0,1.660618901E0
2.488648024E0,9.128618240E-1,8.767900467E0,1.560120344E0
2.491162347E0,9.846464992E-1,8.667402267E0,1.555334687E0
2.493676617E0,1.056431174E0,8.590831757E0,1.631905079E0
2.496190940E0,1.071386337E0,8.586046219E0,1.794616938E0
2.498705263E0,9.894321561E-1,8.633902550E0,1.943570137E0
2.501219586E0,1.056431174E0,8.538188934E0,2.058425665E0
2.503733909E0,1.032503009E0,8.456234932E0,2.192423820E0
2.506248232E0,9.607182741E-1,8.413164139E0,2.370090723E0
2.508762555E0,8.793623447E-1,8.408378601E0,2.537588358E0
2.511265367E0,8.315058947E-1,8.403593063E0,2.657229662E0
2.513779690E0,8.697910309E-1,8.437092781E0,2.796013355E0
2.516294013E0,9.176474810E-1,8.475378036E0,2.954537868E0
2.518808336E0,9.607182741E-1,8.519046783E0,3.107678413E0
2.521322659E0,1.032503009E0,8.662615776E0,3.222533941E0
2.523836930E0,1.032503009E0,8.806185722E0,3.351746321E0
2.526351305E0,1.080957651E0,8.944969177E0,3.491128206E0
2.528865576E0,1.124028444E0,9.084351540E0,3.605983734E0
2.531379899E0,1.181456208E0,9.256634712E0,3.768695593E0
2.533894222E0,1.281954765E0,9.438488960E0,3.907479286E0
2.536408545E0,1.372882009E0,9.630513191E0,4.080360889E0
2.538922867E0,1.497308731E0,9.821938515E0,4.257429600E0
2.541428232E0,1.694118381E0,9.841081619E0,4.415356159E0
2.543942555E0,1.880758643E0,9.860223770E0,4.554738045E0
2.546456878E0,2.086541414E0,9.841081619E0,4.655236244E0
2.548971149E0,2.335993052E0,9.745368004E0,4.674378872E0
2.551485524E0,2.599203587E0,9.611370087E0,4.717449665E0
2.553999795E0,2.767299414E0,9.644869804E0,4.650450706E0
2.556514117E0,2.882154942E0,9.644869804E0,4.511667252E0
2.559028440E0,2.963510752E0,9.683155060E0,4.319643021E0
2.561542763E0,3.011367321E0,9.912865639E0,4.113860130E0
2.564057086E0,3.150151014E0,1.008514881E1,3.739981890E0
2.566571409E0,3.327818155E0,1.014796066E1,3.203391314E0
2.569085680E0,3.524029493E0,1.022931671E1,2.470589399E0
2.571609899E0,3.567100286E0,1.045424175E1,1.751546144E0
2.574124222E0,3.600599766E0,1.055952644E1,1.292124271E0
2.576638545E0,3.614956856E0,1.059781170E1,1.023529887E0
2.579152867E0,3.533600807E0,1.060738277E1,9.373882413E-1
2.581667242E0,3.390031576E0,1.059781170E1,1.004387259E0
2.584181513E0,3.241676569E0,1.057866859E1,1.080957651E0
2.586695888E0,3.035295486E0,1.063609695E1,1.248455167E0
2.589210211E0,2.882154942E0,1.066062355E1,1.349551916E0
2.591724534E0,2.752942562E0,1.055952644E1,1.540977836E0
2.594238857E0,2.661417007E0,1.042074299E1,1.722832322E0
2.596753180E0,2.642274380E0,1.035852909E1,1.953141451E0
2.599267503E0,2.618346214E0,1.027238750E1,2.144567251E0
2.601787711E0,2.599203587E0,1.015753174E1,2.288136721E0
2.604302034E0,2.594418049E0,1.007079220E1,2.398804665E0
2.606816357E0,2.565704107E0,9.975079536E0,2.513660192E0
2.609330680E0,2.517847538E0,9.912865639E0,2.561516523E0
2.611845003E0,2.570489645E0,9.783653259E0,2.609373093E0
2.614359326E0,2.627917528E0,9.716654778E0,2.705085993E0
2.616873701E0,2.632703066E0,9.630513191E0,2.743371248E0
2.619388024E0,2.580060959E0,9.524630547E0,2.767299414E0
2.621902347E0,2.560918331E0,9.495916367E0,2.776870728E0
2.624416670E0,2.527418852E0,9.467203140E0,2.843869686E0
2.626930992E0,2.402992249E0,9.529416084E0,2.858226538E0
2.629445315E0,2.254637241E0,9.649655342E0,2.886940479E0
2.631942972E0,2.235494614E0,9.745368004E0,2.949752092E0
2.634457295E0,2.254637241E0,9.750154495E0,3.007179976E0
2.636971617E0,2.331207514E0,9.764511108E0,3.002394199E0
2.639485940E0,2.436491728E0,9.664012909E0,2.916252613E0
2.642000315E0,2.460419893E0,9.630513191E0,2.848655462E0
2.644514638E0,2.417349100E0,9.597013474E0,2.848655462E0
2.647028961E0,2.335993052E0,9.548559189E0,2.786442041E0
2.649543284E0,2.316850424E0,9.611370087E0,2.767299414E0
2.652057607E0,2.302493572E0,9.510273933E0,2.781656265E0
2.654571930E0,2.369492531E0,9.414560318E0,2.810370207E0
2.657086253E0,2.479562521E0,9.333204269E0,2.776870728E0
2.659600576E0,2.551347256E0,9.170493126E0,2.824727058E0
2.662136097E0,2.690729141E0,9.069993973E0,2.815155745E0
2.664650420E0,2.843869686E0,9.002396584E0,2.776870728E0
2.667164742E0,2.915654421E0,8.978468895E0,2.724228621E0
2.669679065E0,2.867797852E0,8.954540253E0,2.671586514E0
2.672193388E0,2.920439959E0,8.997611046E0,2.671586514E0
2.674707763E0,2.953939438E0,9.036494255E0,2.681157827E0
2.677222086E0,2.963510752E0,9.113064766E0,2.628515720E0
2.679736409E0,3.049652576E0,9.146564484E0,2.604587555E0
2.682250732E0,3.083152056E0,9.223134995E0,2.494517565E0
2.684765055E0,3.102294445E0,9.304491043E0,2.408375978E0
2.687279378E0,3.131008387E0,9.357132912E0,2.345564365E0
2.689793701E0,3.116651535E0,9.414560318E0,2.278565407E0
2.692292034E0,3.183650494E0,9.457631111E0,2.115853310E0
2.694806357E0,3.164507866E0,9.491130829E0,2.029711723E0
2.697320680E0,3.154936552E0,9.548559189E0,1.900499344E0
2.699835055E0,3.121437073E0,9.573084831E0,1.833500385E0
2.702349378E0,3.078366280E0,9.620942116E0,1.833500385E0
2.704863701E0,2.997010469E0,9.654440880E0,1.727617979E0
2.707378024E0,2.939582586E0,9.673583984E0,1.698904037E0
2.709892347E0,2.848655462E0,9.740582466E0,1.756331801E0
2.712406670E0,2.824727058E0,9.740582466E0,1.708475351E0
2.714920992E0,2.762513638E0,9.721440315E0,1.674975872E0
2.717435315E0,2.776870728E0,9.735796928E0,1.631905079E0
2.719949638E0,2.743371248E0,9.702297211E0,1.627119422E0
2.722460107E0,2.714657307E0,9.644869804E0,1.540977836E0
2.724974430E0,2.709871531E0,9.678369522E0,1.430907965E0
2.727488753E0,2.695514679E0,9.697511673E0,1.368694544E0
2.730003128E0,2.527418852E0,9.735796928E0,1.253240824E0
2.732517399E0,2.388635159E0,9.745368004E0,1.114457130E0
2.735031722E0,2.268994093E0,9.754940033E0,1.076171994E0
2.737546097E0,2.105684042E0,9.826724052E0,1.013958573E0
2.740060420E0,1.962114573E0,9.874580383E0,9.900303483E-1
2.742574742E0,1.818545222E0,9.831509590E0,9.804590940E-1
2.745089065E0,1.665404558E0,9.812367439E0,1.009172916E0
2.747603388E0,1.578664780E0,9.793225288E0,1.047458172E0
2.750117711E0,1.468594909E0,9.754940033E0,1.128814101E0
2.752646253E0,1.320239902E0,9.745368004E0,1.157527924E0
2.755160576E0,1.234098315E0,9.683155060E0,1.157527924E0
2.757674899E0,1.224527001E0,9.601799011E0,1.277169108E0
2.760189274E0,1.219741344E0,9.548559189E0,1.335195065E0
2.762703597E0,1.191027522E0,9.515059471E0,1.373480201E0
2.765217867E0,1.143171072E0,9.443274498E0,1.426122308E0
2.767732242E0,1.114457130E0,9.462417603E0,1.402194023E0
2.770246565E0,1.143171072E0,9.433703423E0,1.430907965E0
2.772760888E0,1.147956610E0,9.390632629E0,1.469193101E0
2.775275211E0,1.248455167E0,9.309276581E0,1.497906923E0
2.777789534E0,1.234098315E0,9.299705505E0,1.588834286E0
2.780303857E0,1.210170031E0,9.280562401E0,1.627119422E0
2.782810576E0,1.281954765E0,9.251849174E0,1.651047587E0
2.785324899E0,1.372882009E0,9.218349457E0,1.741974831E0
2.787839222E0,1.401595831E0,9.227920532E0,1.808973908E0
2.790353597E0,1.358525038E0,9.270991325E0,1.828714728E0
2.792867867E0,1.344168067E0,9.242277145E0,1.910070658E0
2.795382242E0,1.368096352E0,9.251849174E0,1.957927108E0
2.797896565E0,1.420738459E0,9.199206352E0,2.024926186E0
2.800410888E0,1.430309772E0,9.180064201E0,2.072782516E0
2.802925211E0,1.430309772E0,9.227920532E0,2.115853310E0
2.805439534E0,1.492523074E0,9.175278664E0,2.149353027E0
2.807953857E0,1.660618901E0,9.156135559E0,2.221137524E0
2.810468232E0,1.708475351E0,9.184849739E0,2.254637241E0
2.812975367E0,1.708475351E0,9.203991890E0,2.278565407E0
2.815489690E0,1.727617979E0,9.251849174E0,2.379662037E0
2.818004013E0,1.698904037E0,9.242277145E0,2.374876499E0
2.820518388E0,1.737189293E0,9.261420250E0,2.335993052E0
2.823032659E0,1.727617979E0,9.199206352E0,2.283350945E0
2.825547034E0,1.694118381E0,9.141778946E0,2.259422779E0
2.828061357E0,1.703689694E0,9.180064201E0,2.225923300E0
2.830575680E0,1.660618901E0,9.132207870E0,2.197209358E0
2.833090003E0,1.703689694E0,9.103493690E0,2.158924341E0
2.835604326E0,1.665404558E0,9.016754150E0,2.115853310E0
2.838118649E0,1.627119422E0,8.973683357E0,2.082353830E0
2.840632972E0,1.588235974E0,8.930612564E0,1.981855392E0
2.843142815E0,1.530808330E0,8.906683922E0,1.929213285E0
2.845657138E0,1.473380566E0,8.801400185E0,1.900499344E0
2.848171461E0,1.425524116E0,8.777471542E0,1.852642894E0
2.850685836E0,1.415952802E0,8.729615211E0,1.780260086E0
2.853200107E0,1.435095429E0,8.672187805E0,1.765903115E0
2.855714482E0,1.415952802E0,8.629117012E0,1.694118381E0
2.858228805E0,1.387238979E0,8.629117012E0,1.631905079E0
2.860743128E0,1.344168067E0,8.600402832E0,1.555334687E0
2.863257451E0,1.396810174E0,8.571688652E0,1.531406522E0
2.865771774E0,1.420738459E0,8.523832321E0,1.517049551E0
2.868286097E0,1.411167145E0,8.480163574E0,1.545763373E0
2.870800420E0,1.459023595E0,8.451449394E0,1.497906923E0
2.873319742E0,1.492523074E0,8.422736168E0,1.497906923E0
2.875834065E0,1.444666624E0,8.389236450E0,1.555334687E0
2.878348388E0,1.439880967E0,8.446663857E0,1.550549030E0
2.880862763E0,1.415952802E0,8.432307243E0,1.560120344E0
2.883377034E0,1.439880967E0,8.427521706E0,1.560120344E0
2.885891357E0,1.420738459E0,8.403593063E0,1.607976794E0
2.888405732E0,1.396810174E0,8.394021988E0,1.603191137E0
2.890920055E0,1.411167145E0,8.394021988E0,1.631905079E0
2.893434378E0,1.435095429E0,8.417949677E0,1.627119422E0
2.895948701E0,1.468594909E0,8.461020470E0,1.636690736E0
2.898463024E0,1.540379524E0,8.475378036E0,1.641476393E0
2.900977347E0,1.597807288E0,8.480163574E0,1.741974831E0
2.903493388E0,1.612762451E0,8.528617859E0,1.770688772E0
2.906007711E0,1.617548108E0,8.547760963E0,1.838286042E0
2.908522034E0,1.674975872E0,8.600402832E0,1.895713687E0
2.911036409E0,1.674975872E0,8.657830238E0,1.924427629E0
2.913550732E0,1.770688772E0,8.710473061E0,2.005783558E0
2.916065055E0,1.832902193E0,8.743971825E0,2.039283037E0
2.918579378E0,1.890329838E0,8.796614647E0,2.058425665E0
2.921093701E0,1.971685886E0,8.877969742E0,2.154138565E0
2.923608024E0,2.014756680E0,8.887541771E0,2.259422779E0
2.926122347E0,2.053041935E0,8.959325790E0,2.292922258E0
2.928636670E0,2.105684042E0,9.031110764E0,2.292922258E0
2.931150992E0,2.120040894E0,9.050851822E0,2.355733871E0
2.933676305E0,2.158924341E0,9.093922615E0,2.374876499E0
2.936190628E0,2.163709879E0,9.170493126E0,2.389233351E0
2.938704951E0,2.149353027E0,9.203991890E0,2.437089920E0
2.941219326E0,2.144567251E0,9.213563919E0,2.394019127E0
2.943733597E0,2.163709879E0,9.223134995E0,2.408375978E0
2.946247972E0,2.216351986E0,9.256634712E0,2.465803623E0
2.948762295E0,2.201995134E0,9.266205788E0,2.475374937E0
2.951276617E0,2.259422779E0,9.290133476E0,2.441875458E0
2.953790940E0,2.273779631E0,9.314062119E0,2.456232548E0
2.956305263E0,2.273779631E0,9.361918449E0,2.461018085E0
2.958819586E0,2.278565407E0,9.371489525E0,2.427518606E0
2.961333909E0,2.316850424E0,9.366703987E0,2.379662037E0
2.963828440E0,2.326421738E0,9.371489525E0,2.326421738E0
2.966342763E0,2.355135679E0,9.419346809E0,2.259422779E0
2.968857086E0,2.407777786E0,9.337990761E0,2.235494614E0
2.971371409E0,2.412563324E0,9.352347374E0,2.240280151E0
2.973885732E0,2.446063042E0,9.275776863E0,2.201995134E0
2.976400055E0,2.546561480E0,9.223134995E0,2.182852507E0
2.978914430E0,2.599203587E0,9.136993408E0,2.187638044E0
2.981428753E0,2.594418049E0,9.079565048E0,2.178066730E0
2.983943076E0,2.637488842E0,9.031110764E0,2.168495417E0
2.986457399E0,2.651845694E0,8.997611046E0,2.187638044E0
2.988971722E0,2.676372051E0,8.959325790E0,2.173281193E0
2.991486045E0,2.714657307E0,8.901898384E0,2.139781713E0
2.994007399E0,2.796013355E0,8.858827591E0,2.139781713E0
2.996521722E0,2.824727058E0,8.858827591E0,2.087139606E0
2.999036045E0,2.867797852E0,8.844470978E0,2.063211441E0
3.001550420E0,2.848655462E0,8.815756798E0,2.010569334E0
3.004064690E0,2.891726255E0,8.844470978E0,1.991426587E0
3.006579065E0,2.901297569E0,8.868398666E0,1.957927108E0
3.009093388E0,2.906083107E0,8.882756233E0,1.924427629E0
3.011607711E0,2.910868645E0,8.921041489E0,1.914856315E0
3.014122034E0,2.925225735E0,8.897112846E0,1.876571178E0
3.016636357E0,2.891726255E0,8.944969177E0,1.780260086E0
3.019150680E0,2.848655462E0,8.992825508E0,1.698904037E0
3.021665003E0,2.810370207E0,9.031110764E0,1.651047587E0
3.024189534E0,2.796013355E0,9.103493690E0,1.603191137E0
3.026703857E0,2.762513638E0,9.113064766E0,1.488335729E0
3.029218180E0,2.714657307E0,9.184849739E0,1.363908887E0
3.031732503E0,2.681157827E0,9.237491608E0,1.301695466E0
3.034246826E0,2.666202545E0,9.337990761E0,1.234098315E0
3.036761201E0,2.627917528E0,9.400203705E0,1.109671474E0
3.039275524E0,2.589632273E0,9.505488396E0,9.613165259E-1
3.041789847E0,2.589632273E0,9.568299294E0,8.943174481E-1
3.044304170E0,2.570489645E0,9.630513191E0,8.273184299E-1
3.046818492E0,2.584846735E0,9.640084267E0,7.507480979E-1
3.049332815E0,2.670988321E0,9.783653259E0,6.735795736E-1
3.051847138E0,2.681157827E0,9.831509590E0,5.347958803E-1
3.054354534E0,2.681157827E0,9.850652695E0,4.390829504E-1
3.056868857E0,2.724228621E0,9.941579819E0,3.098705411E-1
3.059383180E0,2.757728100E0,9.994221687E0,2.039881349E-1
3.061897555E0,2.786442041E0,9.975079536E0,6.999006122E-2
3.064411826E0,2.805584431E0,9.965508461E0,2.691925503E-2
3.066926201E0,2.819941521E0,1.003729248E1,-1.794616925E-3
3.069440524E0,2.834298372E0,1.004686451E1,-4.486542568E-2
3.071954847E0,2.853441000E0,1.009472084E1,-8.315058798E-2
3.074469170E0,2.877369165E0,1.011924744E1,-4.486542568E-2
3.076983492E0,2.939582586E0,1.010967541E1,-6.580262445E-3
3.079497815E0,2.958725214E0,1.013838959E1,2.213360928E-2
3.082012138E0,2.987439156E0,1.010488987E1,2.691925503E-2
3.084526670E0,3.001796007E0,1.008993530E1,3.649054468E-2
3.087040992E0,3.059223652E0,1.008514881E1,1.704886109E-1
3.089555315E0,3.078366280E0,1.008036327E1,2.285145670E-1
3.092069638E0,3.159722328E0,1.007557774E1,2.907279432E-1
3.094583961E0,3.169293642E0,1.000857925E1,3.625126183E-1
3.097098284E0,3.202793121E0,9.884152412E0,4.630111754E-1
3.099612607E0,3.217748165E0,9.793225288E0,5.012963414E-1
3.102126930E0,3.246462107E0,9.740582466E0,5.682953596E-1
3.104641253E0,3.256033421E0,9.683155060E0,6.687939167E-1
3.107155576E0,3.246462107E0,9.606584549E0,6.735795736E-1
3.109669899E0,3.232105255E0,9.548559189E0,7.507480979E-1
3.112184222E0,3.232105255E0,9.500701904E0,8.464609981E-1
3.114726878E0,3.260818958E0,9.476774216E0,8.991031051E-1
3.117241201E0,3.260818958E0,9.476774216E0,9.804590940E-1
3.119755524E0,3.284747362E0,9.538987160E0,1.066600680E0
3.122269847E0,3.289532900E0,9.601799011E0,1.147956610E0
3.124784170E0,3.313461065E0,9.620942116E0,1.210170031E0
3.127298492E0,3.332603693E0,9.726225853E0,1.281954765E0
3.129812815E0,3.366103172E0,9.798010826E0,1.320838094E0
3.132327138E0,3.509672642E0,9.884152412E0,1.402194023E0
3.134841461E0,3.624528170E0,9.884152412E0,1.459621787E0
3.137355784E0,3.768695593E0,9.960722923E0,1.526620865E0
3.139870107E0,3.854837179E0,1.004207802E1,1.627119422E0
3.142384430E0,3.940979004E0,1.012881851E1,1.722832322E0
3.144893701E0,4.070191383E0,1.021974564E1,1.833500385E0
3.147408024E0,4.103690624E0,1.036810017E1,1.905285001E0
3.149922347E0,4.156332970E0,1.046859932E1,1.991426587E0
3.152436670E0,4.127619267E0,1.063131142E1,2.082353830E0
3.154950992E0,4.070191383E0,1.082812023E1,2.106282234E0
3.157465315E0,3.921836376E0,1.102433205E1,2.106282234E0
3.159979638E0,3.787838221E0,1.126421261E1,2.115853310E0
3.162493961E0,3.658027649E0,1.146042442E1,2.158924341E0
3.165008284E0,3.514458179E0,1.174816132E1,2.178066730E0
3.167522607E0,3.318246841E0,1.205444241E1,2.254637241E0
3.170036930E0,3.131008387E0,1.231346512E1,2.312064886E0
3.172551253E0,2.977867842E0,1.262453270E1,2.312064886E0
3.175055940E0,2.853441000E0,1.285484123E1,2.335993052E0
3.177570263E0,2.729014158E0,1.316590881E1,2.370090723E0
3.180084586E0,2.594418049E0,1.348714447E1,2.484946251E0
3.182598909E0,2.398206472E0,1.381735420E1,2.595016241E0
3.185113232E0,2.259422779E0,1.410987663E1,2.700300455E0
3.187627555E0,2.038684845E0,1.449811268E1,2.824727058E0
3.190141878E0,1.832902193E0,1.473739433E1,2.901895761E0
3.192656201E0,1.602592945E0,1.495813274E1,2.949752092E0
3.195170524E0,1.425524116E0,1.512563038E1,3.050250769E0
3.197684847E0,1.181456208E0,1.529791355E1,3.141177893E0
3.200199170E0,9.655039310E-1,1.536012650E1,3.256033421E0
3.202713492E0,7.549355626E-1,1.539841175E1,3.289532900E0
3.205235107E0,5.874379873E-1,1.535534096E1,3.428914785E0
3.207749430E0,3.571287692E-1,1.520220089E1,3.567698479E0
3.210263753E0,1.226321608E-1,1.507777405E1,3.634697676E0
3.212778076E0,-5.982056633E-2,1.491924953E1,3.735196114E0
3.215292399E0,-2.703889608E-1,1.478525066E1,3.835694790E0
3.217806722E0,-4.905286431E-1,1.466561031E1,3.960719585E0
3.220321045E0,-6.777670383E-1,1.450289822E1,4.051646709E0
3.222835367E0,-7.543373108E-1,1.428215981E1,4.128217220E0
3.225349690E0,-9.122636318E-1,1.409073448E1,4.204787731E0
3.227864013E0,-9.840483069E-1,1.389930820E1,4.324428558E0
3.230378336E0,-1.075573802E0,1.371207047E1,4.439284325E0
3.232892659E0,-1.113858938E0,1.356850052E1,4.472783566E0
3.235409065E0,-1.128215909E0,1.337707520E1,4.526023865E0
3.237923388E0,-1.080359459E0,1.316590881E1,4.549952030E0
3.240437711E0,-1.080359459E0,1.293619728E1,4.616951466E0
3.242952034E0,-1.113858938E0,1.277767277E1,4.559523582E0
3.245466357E0,-1.089930773E0,1.256710434E1,4.506881237E0
3.247980680E0,-1.085145116E0,1.232782269E1,4.391427994E0
3.250495003E0,-1.070788145E0,1.214058399E1,4.295714855E0
3.253009326E0,-1.051047325E0,1.183430290E1,4.152145386E0
3.255523649E0,-1.109073281E0,1.158963680E1,4.075575352E0
3.258037972E0,-1.166501045E0,1.139342499E1,3.994219303E0
3.260552295E0,-1.180858016E0,1.115832996E1,3.931407690E0
3.263066617E0,-1.171286702E0,1.090947628E1,3.893122435E0
3.265590367E0,-1.176072359E0,1.065105152E1,3.902693748E0
3.268104690E0,-1.200000525E0,1.041595650E1,3.873979807E0
3.270619013E0,-1.176072359E0,1.026281643E1,3.840480328E0
3.273133336E0,-1.099501967E0,1.014317513E1,3.739981890E0
3.275647659E0,-1.109073281E0,1.005165005E1,3.716053486E0
3.278161982E0,-1.089930773E0,1.002293587E1,3.672982693E0
3.280676305E0,-1.104287624E0,1.002293587E1,3.610769272E0
3.283190628E0,-1.142572761E0,1.008036327E1,3.610769272E0
3.285704951E0,-1.166501045E0,1.012403297E1,3.534198999E0
3.288219274E0,-1.219143152E0,1.030110168E1,3.510270834E0
3.290733597E0,-1.271785259E0,1.043509960E1,3.629911900E0
3.293247920E0,-1.290927768E0,1.057866859E1,3.739981890E0
3.295743701E0,-1.343569875E0,1.066062355E1,3.955335855E0
3.298258024E0,-1.386640668E0,1.066062355E1,4.262215137E0
3.300772347E0,-1.444068432E0,1.073240757E1,4.526023865E0
3.303286670E0,-1.362712502E0,1.074676514E1,4.760520458E0
3.305800992E0,-1.338784218E0,1.075633621E1,5.009374142E0
3.308315315E0,-1.276570916E0,1.057388306E1,5.268397331E0
3.310829638E0,-1.200000525E0,1.054995537E1,5.469394207E0
3.313343961E0,-1.055832982E0,1.053081226E1,5.742774487E0
3.315858284E0,-9.984052777E-1,1.042074299E1,5.848058701E0
3.318372607E0,-9.792626500E-1,1.027238750E1,5.843272686E0
3.320886930E0,-7.639086246E-1,1.021017456E1,5.867201328E0
3.323401253E0,-5.916253924E-1,1.007079220E1,5.814558983E0
3.325930888E0,-3.517449200E-1,9.826724052E0,5.781059742E0
3.328445211E0,-1.507478207E-1,9.687940598E0,5.675775528E0
3.330959534E0,-1.196411345E-2,9.562915802E0,5.603990555E0
3.333473857E0,-2.392822644E-3,9.486345291E0,5.536393166E0
3.335988180E0,-2.632104978E-2,9.428917885E0,5.325825214E0
3.338502503E0,6.999006122E-2,9.352347374E0,5.124827862E0
3.341016826E0,1.417747438E-1,9.299705505E0,5.048257351E0
3.343531149E0,1.417747438E-1,9.280562401E0,4.875376225E0
3.346045472E0,1.082752272E-1,9.275776863E0,4.693521500E0
3.348559795E0,2.135594189E-1,9.357132912E0,4.530809879E0
3.351074117E0,2.039881349E-1,9.409774780E0,4.424927235E0
3.353588440E0,2.135594189E-1,9.471988678E0,4.286143780E0
3.356099378E0,2.614158690E-1,9.606584549E0,4.085146427E0
3.358613701E0,3.092723191E-1,9.745368004E0,4.027718544E0
3.361128024E0,1.848455518E-1,9.850652695E0,4.027718544E0
3.363642347E0,3.649054468E-2,9.984650612E0,4.032504559E0
3.366156670E0,-2.273181528E-1,1.005165005E1,4.022933006E0
3.368670992E0,-5.437689424E-1,1.014317513E1,3.859622955E0
3.371185315E0,-8.548358679E-1,1.022453117E1,3.620340586E0
3.373699638E0,-1.113858938E0,1.022931671E1,3.491128206E0
3.376213961E0,-1.367498159E0,1.018146038E1,3.361317635E0
3.378728284E0,-1.487139225E0,1.020538902E1,3.256033421E0
3.381242607E0,-1.587637782E0,1.015274620E1,3.136392355E0
3.383756930E0,-1.601994753E0,1.003250694E1,3.050250769E0
3.386270836E0,-1.626521230E0,9.979865074E0,3.007179976E0
3.388785159E0,-1.597209096E0,9.946365356E0,2.959323406E0
3.391299482E0,-1.558923960E0,9.927223206E0,2.892324448E0
3.393813805E0,-1.549352646E0,9.970293999E0,2.925823927E0
3.396328128E0,-1.587637782E0,1.000379372E1,2.954537868E0
3.398842451E0,-1.534995675E0,9.865009308E0,2.897109985E0
3.401356774E0,-1.467996716E0,9.467203140E0,2.930609465E0
3.403871097E0,-1.396211982E0,8.978468895E0,2.935395241E0
3.406385420E0,-1.558923960E0,8.605188370E0,2.997608662E0
3.408899742E0,-2.042872429E0,8.614759445E0,2.992822886E0
3.411414065E0,-2.321038008E0,8.743971825E0,3.040679455E0
3.413928388E0,-2.455035925E0,8.858827591E0,3.275176048E0
3.416432242E0,-2.502892494E0,8.839685440E0,3.438486099E0
3.418946565E0,-2.694916487E0,8.729615211E0,3.323032379E0
3.421460888E0,-2.929413080E0,8.633902550E0,3.246462107E0
3.423975211E0,-3.044268608E0,8.571688652E0,3.212962627E0
3.426489534E0,-3.063411236E0,8.552546501E0,3.203391314E0
3.429003857E0,-3.034697294E0,8.489734650E0,3.136392355E0
3.431518180E0,-3.068196774E0,8.413164139E0,3.074178934E0
3.434032503E0,-3.063411236E0,8.422736168E0,2.925823927E0
3.436546826E0,-3.106482029E0,8.509475708E0,2.824727058E0
3.439061149E0,-3.221935749E0,8.782257080E0,2.595016241E0
3.441575472E0,-3.197409153E0,8.849256516E0,2.389233351E0
3.444089795E0,-2.977269650E0,8.825327873E0,2.427518606E0
3.446614847E0,-2.800200701E0,9.016754150E0,2.422732830E0
3.449129170E0,-2.699702263E0,9.328418732E0,2.307279348E0
3.451643492E0,-2.646461725E0,9.548559189E0,2.216351986E0
3.454157815E0,-2.603390932E0,9.707083702E0,2.106282234E0
3.456672138E0,-2.411965132E0,9.764511108E0,1.943570137E0
3.459186461E0,-2.287538528E0,9.764511108E0,1.847857237E0
3.461700784E0,-2.191825628E0,9.836296082E0,1.804188251E0
3.464215107E0,-2.042872429E0,9.826724052E0,1.780260086E0
3.466729430E0,-2.014158487E0,9.783653259E0,1.804188251E0
3.469243753E0,-2.057229280E0,9.735796928E0,1.828714728E0
3.471758076E0,-2.119442701E0,9.740582466E0,1.871785522E0
3.474272399E0,-2.129014015E0,9.731011391E0,1.957927108E0
3.476790055E0,-2.085943222E0,9.673583984E0,1.919641972E0
3.479304378E0,-2.124228239E0,9.587442398E0,1.914856315E0
3.481818701E0,-2.105085611E0,9.471988678E0,1.905285001E0
3.484333024E0,-2.004587173E0,9.404989243E0,1.857428551E0
3.486847347E0,-1.880160451E0,9.342776299E0,1.838286042E0
3.489361670E0,-1.760519266E0,9.280562401E0,1.804188251E0
3.491875992E0,-1.636092424E0,9.213563919E0,1.852642894E0
3.494390315E0,-1.587637782E0,9.103493690E0,1.905285001E0
3.496904638E0,-1.554138303E0,9.055637360E0,2.063211441E0
3.499418961E0,-1.578066587E0,8.964112282E0,2.312064886E0
3.501933284E0,-1.674377680E0,8.901898384E0,2.580659151E0
3.504447607E0,-1.703091502E0,8.844470978E0,2.805584431E0
3.506986305E0,-1.722234130E0,8.753543854E0,2.983251572E0
3.509500524E0,-1.808375716E0,8.581260681E0,3.169891834E0
3.512014899E0,-1.841875196E0,8.236095428E0,3.270390272E0
3.514529222E0,-1.865803480E0,7.929215908E0,3.323032379E0
3.517043492E0,-1.803590059E0,7.800003529E0,3.418745279E0
3.519557867E0,-1.894517303E0,7.670791149E0,3.577269793E0
3.522072190E0,-2.033301115E0,7.421339512E0,3.730410576E0
3.524586461E0,-2.210968018E0,7.229913712E0,3.850051641E0
3.527100784E0,-2.440679073E0,7.249056339E0,3.873979807E0
3.529615107E0,-2.641676188E0,7.282555580E0,3.950550079E0
3.532129430E0,-2.800200701E0,7.268198967E0,3.960719585E0
3.534643753E0,-2.886342287E0,7.253841877E0,3.984647989E0
3.537158076E0,-2.924627542E0,7.225128174E0,3.936193228E0
3.539632503E0,-2.900699139E0,7.268198967E0,3.787838221E0
3.542146826E0,-2.852842808E0,7.306483746E0,3.725624800E0
3.544661149E0,-2.766701221E0,7.292127132E0,3.658625841E0
3.547175472E0,-2.670390129E0,7.234699249E0,3.515056372E0
3.549689795E0,-2.512463808E0,7.186842918E0,3.428914785E0
3.552204117E0,-2.335394859E0,7.110272408E0,3.438486099E0
3.554718440E0,-2.114656925E0,6.990631580E0,3.399602890E0
3.557232763E0,-1.947159410E0,6.879963398E0,3.342175007E0
3.559747086E0,-1.794018745E0,6.793821812E0,3.270390272E0
3.562261409E0,-1.636092424E0,6.707680225E0,3.165106058E0
3.564775732E0,-1.424925923E0,6.554539204E0,3.112463951E0
3.567290055E0,-1.195214868E0,6.352943897E0,3.131606579E0
3.569812711E0,-9.649057388E-1,6.262016773E0,3.141177893E0
3.572327034E0,-7.351947427E-1,6.070590973E0,3.160320520E0
3.574841357E0,-4.666004181E-1,5.806782246E0,3.179463148E0
3.577355680E0,-1.938186288E-1,5.428716183E0,3.284747362E0
3.579870003E0,-3.589234129E-2,5.212764263E0,3.337389469E0
3.582384326E0,1.130608693E-1,5.021338463E0,3.390031576E0
3.584898649E0,2.709871531E-1,4.858626366E0,3.505485058E0
3.587412972E0,3.906283081E-1,4.690530777E0,3.534198999E0
3.589927295E0,4.959124923E-1,4.456034184E0,3.505485058E0
3.592441617E0,5.539384484E-1,4.412963390E0,3.572484255E0
3.594955940E0,6.352944374E-1,4.374678135E0,3.610769272E0
3.597470263E0,7.357929349E-1,4.255036831E0,3.649054527E0
3.599987451E0,8.362914920E-1,4.201796532E0,3.668197155E0
3.602501826E0,9.798609018E-1,4.091726780E0,3.577269793E0
3.605016149E0,1.100100160E0,3.996013880E0,3.524627686E0
3.607530472E0,1.143171072E0,3.981656790E0,3.510270834E0
3.610044847E0,1.305882931E0,3.957728624E0,3.467200041E0
3.612559222E0,1.387238979E0,3.857230186E0,3.394817114E0
3.615073545E0,1.396810174E0,3.862015724E0,3.241676569E0
3.617587867E0,1.387238979E0,3.838087559E0,3.088535786E0
3.620102242E0,1.401595831E0,3.785445452E0,2.935395241E0
3.622616565E0,1.358525038E0,3.732803345E0,2.767299414E0
3.625130940E0,1.281954765E0,3.809373617E0,2.633301258E0
3.627645263E0,1.267597795E0,3.747160196E0,2.489732027E0
3.630151774E0,1.238883972E0,3.713660717E0,2.398804665E0
3.632666149E0,1.071386337E0,3.737588882E0,2.374876499E0
3.635180472E0,8.745766878E-1,3.804588079E0,2.379662037E0
3.637694795E0,7.453642488E-1,3.847658873E0,2.384447813E0
3.640209170E0,6.735795736E-1,3.881158352E0,2.417947292E0
3.642723545E0,5.443671346E-1,3.948157310E0,2.370090723E0
3.645237867E0,3.475574851E-1,3.981656790E0,2.494517565E0
3.647752190E0,1.657029688E-1,4.010370731E0,2.513660192E0
3.650266565E0,3.649054468E-2,4.067798615E0,2.599801779E0
3.652780888E0,-1.603191197E-1,4.101297855E0,2.733799934E0
3.655295263E0,-3.565305769E-1,4.206582069E0,2.853441000E0
3.657809586E0,-5.240281820E-1,4.283750534E0,2.954537868E0
3.660349690E0,-6.681957245E-1,4.341178417E0,3.141177893E0
3.662864013E0,-8.356932998E-1,4.379463673E0,3.299104214E0
3.665378388E0,-1.137787223E0,4.427320004E0,3.448057413E0
3.667892711E0,-1.429711580E0,4.355535507E0,3.629911900E0
3.670407034E0,-1.578066587E0,4.264608383E0,3.802195072E0
3.672921409E0,-1.770090580E0,4.278964996E0,4.027718544E0
3.675435784E0,-1.975873351E0,4.216751575E0,4.204787731E0
3.677950107E0,-2.153540373E0,4.177868366E0,4.396213531E0
3.680464430E0,-2.297109842E0,4.177868366E0,4.583451748E0
3.682978805E0,-2.498106956E0,4.153940201E0,4.750949383E0
3.685493180E0,-2.646461725E0,4.096512318E0,4.865804672E0
3.688007503E0,-2.852842808E0,4.096512318E0,4.975874901E0
3.690498128E0,-3.058625460E0,4.072584152E0,5.134399414E0
3.693012503E0,-3.168695450E0,4.005585194E0,5.287539959E0
3.695526878E0,-3.346362352E0,4.034298897E0,5.359324455E0
3.698041201E0,-3.475574970E0,4.043870449E0,5.407180786E0
3.700555576E0,-3.623929977E0,4.024727821E0,5.435894966E0
3.703069899E0,-3.753740549E0,4.082155228E0,5.459823132E0
3.705584274E0,-3.820739508E0,4.149154663E0,5.541179180E0
3.708098597E0,-3.935595036E0,4.235894203E0,5.560321808E0
3.710612920E0,-4.012165546E0,4.278964996E0,5.570491314E0
3.713127295E0,-4.093521118E0,4.384249210E0,5.589633465E0
3.715641617E0,-4.170091629E0,4.503890514E0,5.608776093E0
3.718155992E0,-4.256233215E0,4.594817638E0,5.599205017E0
3.720692920E0,-4.338187218E0,4.709673405E0,5.584847927E0
3.723207242E0,-4.352544308E0,4.753342152E0,5.555535793E0
3.725721617E0,-4.328616142E0,4.853840828E0,5.584847927E0
3.728235940E0,-4.290330887E0,4.968696117E0,5.594419479E0
3.730750315E0,-4.241876125E0,5.073980331E0,5.541179180E0
3.733264638E0,-4.222733974E0,5.136193752E0,5.493322372E0
3.735779013E0,-4.198805332E0,5.188836098E0,5.426323414E0
3.738293336E0,-4.112663746E0,5.255835056E0,5.344967365E0
3.740807711E0,-4.112663746E0,5.361717224E0,5.282754421E0
3.743322034E0,-4.103092670E0,5.414359570E0,5.201398373E0
3.745836357E0,-4.079164505E0,5.524429321E0,5.105685234E0
3.748350732E0,-4.031308174E0,5.663212776E0,4.995017052E0
3.750855940E0,-4.031308174E0,5.749354839E0,4.918447018E0
3.753370263E0,-4.045664787E0,5.845665932E0,4.789234638E0
3.755884638E0,-4.093521118E0,5.927021503E0,4.640879631E0
3.758398961E0,-4.117449760E0,6.032305717E0,4.559523582E0
3.760913336E0,-4.150949001E0,6.070590973E0,4.439284325E0
3.763427659E0,-4.150949001E0,6.156732559E0,4.348356724E0
3.765942034E0,-4.184448719E0,6.228517532E0,4.276572227E0
3.768456357E0,-4.170091629E0,6.266802311E0,4.233501434E0
3.770970732E0,-4.179663181E0,6.271588326E0,4.156930923E0
3.773485055E0,-4.227519512E0,6.319444656E0,4.133002758E0
3.775999378E0,-4.222733974E0,6.382256031E0,4.118646145E0
3.778513753E0,-4.261018753E0,6.430112839E0,4.085146427E0
3.781028180E0,-4.371686935E0,6.449255466E0,4.056432724E0
3.783542503E0,-4.400400639E0,6.482754707E0,4.085146427E0
3.786056878E0,-4.462614059E0,6.554539204E0,4.061218262E0
3.788571253E0,-4.563112736E0,6.597609997E0,4.056432724E0
3.791085576E0,-4.649254322E0,6.688537598E0,4.099503517E0
3.793599899E0,-4.716253281E0,6.774679184E0,4.133002758E0
3.796114274E0,-4.822135925E0,6.870391846E0,4.147359848E0
3.798628597E0,-4.903491974E0,6.990631580E0,4.195216179E0
3.801142972E0,-4.980062008E0,7.091129780E0,4.247858524E0
3.803657295E0,-5.061418056E0,7.244270325E0,4.252644062E0
3.806171670E0,-5.114060402E0,7.335197926E0,4.262215137E0
3.808685992E0,-5.176273346E0,7.484150887E0,4.290929317E0
3.811181617E0,-5.142774105E0,7.670791149E0,4.357928276E0
3.813695940E0,-5.094917774E0,7.785646915E0,4.377070904E0
3.816210315E0,-5.142774105E0,7.963313580E0,4.420141697E0
3.818724690E0,-5.123631477E0,8.082955360E0,4.467998028E0
3.821239013E0,-5.114060402E0,8.283951759E0,4.477569580E0
3.823753336E0,-5.070989609E0,8.389236450E0,4.472783566E0
3.826267711E0,-5.042275429E0,8.437092781E0,4.506881237E0
3.828782034E0,-4.956133842E0,8.557332039E0,4.521238327E0
3.831296409E0,-4.917848587E0,8.657830238E0,4.540380955E0
3.833810732E0,-4.822135925E0,8.662615776E0,4.497310162E0
3.836325107E0,-4.677968502E0,8.638688087E0,4.463212490E0
3.838839430E0,-4.543970108E0,8.557332039E0,4.448855400E0
3.841362034E0,-4.500899315E0,8.398807526E0,4.482355118E0
3.843876357E0,-4.419543266E0,8.092526436E0,4.602594376E0
3.846390732E0,-4.304687977E0,7.785646915E0,4.779663086E0
3.848905055E0,-4.386044025E0,7.589435101E0,5.105685234E0
3.851419430E0,-4.788038254E0,7.646862984E0,5.603990555E0
3.853933753E0,-5.363512039E0,7.881359577E0,6.159723759E0
3.856448128E0,-5.799005508E0,8.331808090E0,6.753741741E0
3.858962451E0,-6.105885029E0,8.830113411E0,7.328617573E0
3.861476826E0,-6.326025009E0,9.352347374E0,7.874779224E0
3.863991149E0,-6.570691109E0,9.955936432E0,8.373085022E0
3.866505472E0,-6.848258495E0,1.059302616E1,8.760722160E0
3.869019847E0,-7.102495670E0,1.133121204E1,9.158528328E0
3.871531722E0,-7.423133850E0,1.209272766E1,9.541978836E0
3.874046045E0,-7.777870178E0,1.287876987E1,9.978070259E0
3.876560420E0,-7.969295979E0,1.353978729E1,1.029870892E1
3.879074742E0,-8.079963684E0,1.406680584E1,1.061994553E1
3.881589117E0,-8.194819450E0,1.444546986E1,1.089751244E1
3.884103440E0,-8.213961601E0,1.460339642E1,1.110389328E1
3.886617815E0,-8.190033913E0,1.457468319E1,1.117567825E1
3.889132138E0,-8.026723862E0,1.429651737E1,1.112782192E1
3.891646513E0,-7.763513088E0,1.393280792E1,1.090708351E1
3.894160836E0,-7.572087288E0,1.351107311E1,1.050508976E1
3.896675211E0,-7.341778278E0,1.296969700E1,9.949356079E0
3.899189534E0,-7.150352478E0,1.238525009E1,9.312267303E0
3.901714742E0,-6.910471916E0,1.181037426E1,8.483154297E0
3.904229065E0,-6.604190350E0,1.134078312E1,7.558328629E0
3.906743440E0,-6.206383705E0,1.093340492E1,6.667600155E0
3.909257763E0,-5.674578667E0,1.063131142E1,5.656632900E0
3.911772138E0,-5.085346222E0,1.030110168E1,4.295714855E0
3.914286461E0,-4.155734539E0,9.984650612E0,2.843869686E0
3.916800836E0,-3.206980467E0,9.745368004E0,1.938784599E0
3.919315159E0,-2.368894339E0,9.597013474E0,1.507478237E0
3.921829534E0,-1.712662816E0,9.337990761E0,1.660618901E0
3.924343857E0,-1.214357495E0,9.223134995E0,2.077568293E0
3.926858232E0,-8.356932998E-1,9.194420815E0,2.547159672E0
3.929372555E0,-7.447660565E-1,9.266205788E0,2.882154942E0
3.931867659E0,-7.447660565E-1,9.582656860E0,3.059821844E0
3.934381982E0,-5.335994363E-1,9.654440880E0,3.150749207E0
3.936896357E0,-1.459621787E-1,9.505488396E0,3.189034462E0
3.939410680E0,1.944168359E-1,9.189635277E0,3.165106058E0
3.941925055E0,5.294120312E-1,8.916254997E0,3.232105255E0
3.944439378E0,7.740781307E-1,8.729615211E0,3.342175007E0
3.946953753E0,1.032503009E0,8.667402267E0,3.543770313E0
3.949468076E0,1.195813060E0,8.552546501E0,3.759124279E0
3.951982451E0,1.344168067E0,8.480163574E0,3.965505362E0
3.954496774E0,1.329811215E0,8.470592499E0,4.228715897E0
3.957011097E0,1.277169108E0,8.384450912E0,4.559523582E0
3.959525472E0,1.191027522E0,8.403593063E0,4.947160721E0
3.962054430E0,1.138385415E0,8.451449394E0,5.450251579E0
3.964568805E0,1.090528965E0,8.643473625E0,5.871986866E0
3.967083128E0,1.008574724E0,8.849256516E0,6.260222435E0
3.969597503E0,9.032905698E-1,9.108279228E0,6.648457527E0
3.972111826E0,7.692924738E-1,9.404989243E0,7.021738052E0
3.974626201E0,8.985049129E-1,9.759725571E0,7.155735970E0
3.977140524E0,9.128618240E-1,1.006600666E1,7.228118896E0
3.979654847E0,8.602197170E-1,1.040159988E1,7.290332317E0
3.982169222E0,7.070791125E-1,1.076112175E1,7.208976269E0
3.984683545E0,6.592226624E-1,1.106740284E1,6.983452797E0
3.987197867E0,7.262216806E-1,1.136471081E1,6.653243542E0
3.989712242E0,8.745766878E-1,1.172901821E1,6.159723759E0
3.992223597E0,9.176474810E-1,1.205444241E1,5.522036552E0
3.994737972E0,9.415757060E-1,1.238046455E1,4.870590687E0
3.997252295E0,9.990034699E-1,1.276331615E1,4.008575916E0
3.999766670E0,9.607182741E-1,1.304148197E1,3.150749207E0
4.002280992E0,7.836494446E-1,1.334836102E1,2.384447813E0
4.004795367E0,5.587241054E-1,1.357807255E1,1.631905079E0
4.007309690E0,2.470589429E-1,1.373121262E1,1.119242787E0
4.009824013E0,-1.411765367E-1,1.379821205E1,7.453642488E-1
4.012338388E0,-6.873382926E-1,1.367857075E1,5.730810165E-1
4.014852711E0,-1.286142230E0,1.351585865E1,6.257231236E-1
4.017367034E0,-1.765304923E0,1.322333622E1,7.555337548E-1
4.019881409E0,-2.124228239E0,1.287876987E1,1.066600680E0
4.022397242E0,-2.392822742E0,1.244746304E1,1.483550072E0
4.024911617E0,-2.555534601E0,1.203051376E1,1.986641049E0
4.027425940E0,-2.627319336E0,1.163270760E1,2.475374937E0
4.029940315E0,-2.478964329E0,1.121635628E1,2.886940479E0
4.032454638E0,-2.301895380E0,1.084726334E1,3.332603693E0
4.034968961E0,-2.066800594E0,1.052602673E1,3.668197155E0
4.037483336E0,-1.693520188E0,1.013838959E1,3.999004841E0
4.039997659E0,-1.420140266E0,9.778867722E0,4.314857483E0
4.042512034E0,-1.060618639E0,9.452845573E0,4.593023300E0
4.045026357E0,-7.112665176E-1,9.227920532E0,4.817948341E0
4.047540680E0,-3.182454109E-1,8.944969177E0,4.995017052E0
4.050055055E0,-6.939185411E-2,8.720044136E0,5.072185993E0
4.052562711E0,1.800599098E-1,8.552546501E0,5.153541565E0
4.055077086E0,4.384847581E-1,8.374878883E0,5.273182869E0
4.057591409E0,6.305087805E-1,8.255238533E0,5.316253662E0
4.060105784E0,7.070791125E-1,8.164310455E0,5.277968407E0
4.062620107E0,8.027920127E-1,8.097311974E0,5.201398373E0
4.065134482E0,8.554341197E-1,8.078168869E0,5.105685234E0
4.067648805E0,8.697910309E-1,8.106883049E0,5.033900738E0
4.070163128E0,9.080761671E-1,8.159524918E0,4.932804108E0
4.072677503E0,8.889335990E-1,8.197810173E0,4.760520458E0
4.075191826E0,8.985049129E-1,8.336593628E0,4.607379913E0
4.077706149E0,8.362914920E-1,8.427521706E0,4.420141697E0
4.080220524E0,7.310073376E-1,8.571688652E0,4.180859566E0
4.082750263E0,6.687939167E-1,8.720044136E0,3.931407690E0
4.085264638E0,5.682953596E-1,8.868398666E0,3.610769272E0
4.087778961E0,5.198407173E-1,9.036494255E0,3.279961586E0
4.090293336E0,3.188436031E-1,9.237491608E0,2.997608662E0
4.092807659E0,1.178465188E-1,9.424132347E0,2.657229662E0
4.095321982E0,-2.153540403E-2,9.524630547E0,2.360519648E0
4.097836357E0,-1.938186288E-1,9.519845009E0,2.077568293E0
4.100350680E0,-4.666004181E-1,9.620942116E0,1.905285001E0
4.102865055E0,-7.830511928E-1,9.831509590E0,1.761117458E0
4.105379378E0,-1.137787223E0,1.000857925E1,1.694118381E0
4.107893701E0,-1.396211982E0,1.010967541E1,1.607976794E0
4.110408076E0,-1.549352646E0,1.008993530E1,1.622333765E0
4.112914795E0,-1.597209096E0,1.001336479E1,1.651047587E0
4.115429170E0,-1.612164259E0,9.917651176E0,1.732403636E0
4.117943492E0,-1.616949916E0,9.812367439E0,1.866999865E0
4.120457867E0,-1.621735573E0,9.707083702E0,2.020140409E0
4.122972190E0,-1.592423439E0,9.510273933E0,2.134995937E0
4.125486565E0,-1.558923960E0,9.251849174E0,2.264208317E0
4.128000888E0,-1.525424480E0,9.069993973E0,2.475374937E0
4.130515211E0,-1.544566989E0,8.935398102E0,2.638087034E0
4.133029586E0,-1.482353687E0,8.734400749E0,2.776870728E0
4.135543909E0,-1.472782373E0,8.509475708E0,2.906681299E0
4.138058284E0,-1.501496196E0,8.293522835E0,3.064607620E0
4.140572607E0,-1.544566989E0,8.121239662E0,3.193820000E0
4.143077451E0,-1.601994753E0,7.987242222E0,3.337389469E0
4.145591826E0,-1.612164259E0,7.838288784E0,3.586841106E0
4.148106149E0,-1.515853167E0,7.723433495E0,3.936193228E0
4.150620524E0,-1.501496196E0,7.594220638E0,4.367499352E0
4.153134847E0,-1.601994753E0,7.503293514E0,4.683950424E0
4.155649222E0,-1.813161373E0,7.450651646E0,4.923232555E0
4.158163545E0,-2.052443504E0,7.436294556E0,5.239683151E0
4.160677920E0,-2.306680918E0,7.387839794E0,5.522036552E0
4.163192242E0,-2.488535643E0,7.306483746E0,5.642275810E0
4.165706565E0,-2.593819857E0,7.110272408E0,5.268397331E0
4.168220940E0,-2.800200701E0,6.846463680E0,4.937589645E0
4.170735263E0,-2.977269650E0,6.722036839E0,5.431109428E0
4.173257242E0,-3.068196774E0,6.626324177E0,5.680561066E0
4.175771565E0,-3.183052301E0,6.592824459E0,5.545964718E0
4.178285940E0,-3.284149170E0,6.678966045E0,5.297111034E0
4.180800315E0,-3.346362352E0,6.990631580E0,5.215754986E0
4.183314638E0,-3.394218922E0,7.201199532E0,5.172684193E0
4.185829013E0,-3.245863914E0,7.296912670E0,4.971088886E0
4.188343336E0,-3.072982550E0,7.469794273E0,4.803591251E0
4.190857711E0,-2.915056229E0,7.632505894E0,4.621737003E0
4.193372034E0,-2.771486759E0,7.838288784E0,4.396213531E0
4.195886357E0,-2.627319336E0,7.929215908E0,4.343571186E0
4.198400732E0,-2.397608280E0,7.694719315E0,4.267001152E0
4.200915055E0,-2.143969059E0,7.330412388E0,4.319643021E0
4.203424482E0,-1.975873351E0,7.167700291E0,4.434498787E0
4.205938805E0,-1.951945066E0,7.119843960E0,4.410570145E0
4.208453180E0,-1.798804402E0,7.229913712E0,4.348356724E0
4.210967503E0,-1.558923960E0,7.339983463E0,4.185645103E0
4.213481878E0,-1.372283816E0,7.426125050E0,4.070789337E0
4.215996201E0,-1.171286702E0,7.421339512E0,3.960719585E0
4.218510576E0,-1.031904817E0,7.479365349E0,3.917050600E0
4.221024899E0,-9.409775138E-1,7.642077446E0,3.989433527E0
4.223539274E0,-8.979067206E-1,7.776075363E0,3.711267948E0
4.226053597E0,-7.926225066E-1,7.968099594E0,3.553341627E0
4.228567972E0,-6.825526357E-1,8.140382767E0,3.596412420E0
4.231082295E0,-2.656033039E-1,7.938787460E0,3.639483213E0
4.233598805E0,2.901297510E-1,7.162914753E0,2.930609465E0
4.236113128E0,9.415757060E-1,6.516254425E0,2.810370207E0
4.238627503E0,1.694118381E0,5.874379635E0,3.011965513E0
4.241141826E0,2.019542217E0,5.634499073E0,2.786442041E0
4.243656201E0,1.942971945E0,6.041877270E0,2.379662037E0
4.246170524E0,1.569093466E0,6.693323135E0,1.478764415E0
4.248684899E0,1.583450437E0,6.851249218E0,7.310073376E-1
4.251199222E0,1.976471543E0,6.884748936E0,6.879364848E-1
4.253713597E0,2.345564365E0,6.995417118E0,7.453642488E-1
4.256227920E0,2.776870728E0,6.961917400E0,1.181456208E0
4.258742295E0,3.284747362E0,6.793821812E0,1.866999865E0
4.261256617E0,3.744169235E0,6.621538639E0,2.796013355E0
4.263763388E0,4.180261135E0,6.468397617E0,3.720839262E0
4.266277711E0,4.558925152E0,6.314659119E0,4.650450706E0
4.268792086E0,4.716851711E0,6.180660725E0,5.277968407E0
4.271306409E0,4.558925152E0,6.147161484E0,5.580062389E0
4.273820784E0,4.444069862E0,6.046662807E0,5.747560024E0
4.276335107E0,4.305285931E0,6.032305717E0,5.790630817E0
4.278849482E0,4.036691666E0,5.984449387E0,5.637490273E0
4.281363805E0,3.658027649E0,5.922235966E0,5.081757069E0
4.283878180E0,3.202793121E0,5.922235966E0,4.846662045E0
4.286392503E0,2.863012314E0,6.003592014E0,4.669593334E0
4.288906878E0,2.580060959E0,6.108876228E0,4.458426952E0
4.291421201E0,2.335993052E0,6.209374905E0,4.391427994E0
4.293933649E0,2.076970100E0,6.377470493E0,4.502095699E0
4.296447972E0,1.861616015E0,6.616752625E0,4.707878590E0
4.298962347E0,1.607976794E0,6.856035233E0,4.947160721E0
4.301476722E0,1.281954765E0,7.339983463E0,5.091328144E0
4.303991045E0,1.133599758E0,7.800003529E0,5.105685234E0
4.306505420E0,1.554736495E0,7.512865067E0,4.674378872E0
4.309019742E0,1.602592945E0,7.656434059E0,4.760520458E0
4.311534117E0,1.535593987E0,7.857431412E0,5.076971531E0
4.314048440E0,1.473380566E0,8.001599312E0,4.995017052E0
4.316562763E0,1.473380566E0,8.188239098E0,4.846662045E0
4.319077138E0,1.435095429E0,8.427521706E0,4.918447018E0
4.321591461E0,1.382453322E0,8.691329956E0,4.971088886E0
4.324105732E0,1.267597795E0,8.930612564E0,4.975874901E0
4.326620107E0,1.133599758E0,9.270991325E0,4.913661480E0
4.329134430E0,1.022931695E0,9.538987160E0,4.789234638E0
4.331648805E0,9.272187948E-1,9.778867722E0,4.707878590E0
4.334163128E0,7.453642488E-1,9.912865639E0,4.640879631E0
4.336677503E0,5.874379873E-1,1.006600666E1,4.434498787E0
4.339191826E0,4.959124923E-1,1.012881851E1,4.176073551E0
4.341706201E0,3.906283081E-1,1.008036327E1,4.018147469E0
4.344220524E0,2.087737769E-1,1.003250694E1,3.854837179E0
4.346734847E0,-1.674975827E-2,1.009950638E1,3.725624800E0
4.349249222E0,-2.416750938E-1,1.007557774E1,3.567698479E0
4.351763545E0,-6.059823632E-1,1.008036327E1,3.413959742E0
4.354283180E0,-9.457631707E-1,1.004686451E1,3.251247883E0
4.356797503E0,-1.262213945E0,9.984650612E0,3.055036306E0
4.359311878E0,-1.530210137E0,9.936794281E0,2.906681299E0
4.361826253E0,-1.779661894E0,9.826724052E0,2.733799934E0
4.364340576E0,-1.961516380E0,9.740582466E0,2.537588358E0
4.366854951E0,-2.143969059E0,9.692726135E0,2.365305185E0
4.369369274E0,-2.249253273E0,9.534201622E0,2.211566210E0
4.371883597E0,-2.311466694E0,9.395418167E0,2.067996979E0
4.374397972E0,-2.407179594E0,9.294919968E0,1.900499344E0
4.376912295E0,-2.455035925E0,9.194420815E0,1.765903115E0
4.379426670E0,-2.517249346E0,9.127422333E0,1.684547186E0
4.381940992E0,-2.550748825E0,9.050851822E0,1.612762451E0
4.384453492E0,-2.526820660E0,8.940183640E0,1.555334687E0
4.386967815E0,-2.536391973E0,8.901898384E0,1.531406522E0
4.389482190E0,-2.483749866E0,8.830113411E0,1.512263894E0
4.391996513E0,-2.402393818E0,8.782257080E0,1.478764415E0
4.394510888E0,-2.297109842E0,8.734400749E0,1.368694544E0
4.397025211E0,-2.153540373E0,8.676973343E0,1.378265858E0
4.399539586E0,-2.071586132E0,8.662615776E0,1.373480201E0
4.402053909E0,-1.937588096E0,8.643473625E0,1.301695466E0
4.404568284E0,-1.750947952E0,8.614759445E0,1.301695466E0
4.407082607E0,-1.582852125E0,8.609973907E0,1.311266780E0
4.409596982E0,-1.463211060E0,8.595617294E0,1.287338614E0
4.412111305E0,-1.204786181E0,8.566903114E0,1.306481123E0
4.414636149E0,-9.649057388E-1,8.619544983E0,1.354337573E0
4.417150472E0,-7.686942816E-1,8.624331474E0,1.430907965E0
4.419664847E0,-5.437689424E-1,8.657830238E0,1.464407444E0
4.422179170E0,-3.278166950E-1,8.743971825E0,1.507478237E0
4.424693545E0,-1.603191197E-1,8.796614647E0,1.603191137E0
4.427207867E0,-2.632104978E-2,8.863613129E0,1.665404558E0
4.429722242E0,1.082752272E-1,8.964112282E0,1.741974831E0
4.432236565E0,2.566302419E-1,9.041280746E0,1.799402595E0
4.434750940E0,4.241278172E-1,9.098708153E0,1.919641972E0
4.437265263E0,5.922235847E-1,9.189635277E0,1.986641049E0
4.439779638E0,6.592226624E-1,9.275776863E0,2.082353830E0
4.442293961E0,7.692924738E-1,9.337990761E0,2.173281193E0
4.444820524E0,8.985049129E-1,9.242277145E0,2.494517565E0
4.447334847E0,9.990034699E-1,9.208778381E0,2.690729141E0
4.449849222E0,1.152742267E0,9.247062683E0,2.609373093E0
4.452363545E0,1.310668588E0,9.328418732E0,2.566302299E0
4.454877920E0,1.473380566E0,9.414560318E0,2.614158630E0
4.457392242E0,1.636690736E0,9.558130264E0,2.623729944E0
4.459906617E0,1.818545222E0,9.625727654E0,2.604587555E0
4.462420940E0,1.966900229E0,9.740582466E0,2.599801779E0
4.464935315E0,2.120040894E0,9.793225288E0,2.614158630E0
4.467449638E0,2.273779631E0,9.836296082E0,2.647658348E0
4.469964013E0,2.393420935E0,9.946365356E0,2.618944407E0
4.472478336E0,2.541775942E0,9.975079536E0,2.599801779E0
4.474990055E0,2.599203587E0,1.006600666E1,2.571087837E0
4.477504378E0,2.651845694E0,1.010967541E1,2.489732027E0
4.480018753E0,2.762513638E0,1.012403297E1,2.456232548E0
4.482533128E0,2.829512835E0,1.011924744E1,2.422732830E0
4.485047451E0,2.886940479E0,1.013838959E1,2.379662037E0
4.487561774E0,2.949153900E0,1.017188931E1,2.292922258E0
4.490076149E0,3.040081263E0,1.014796066E1,2.225923300E0
4.492590524E0,3.131008387E0,1.018624592E1,2.192423820E0
4.495104847E0,3.217748165E0,1.019581699E1,2.058425665E0
4.497619170E0,3.385245800E0,1.025324535E1,2.029711723E0
4.500133545E0,3.500101328E0,1.025324535E1,1.991426587E0
4.502647867E0,3.552743435E0,1.024367332E1,1.948355794E0
4.505157503E0,3.643670797E0,1.024845982E1,1.924427629E0
4.507671878E0,3.677170277E0,1.034895802E1,1.838286042E0
4.510186201E0,3.729812384E0,1.039202881E1,1.756331801E0
4.512700576E0,3.792623997E0,1.044467068E1,1.765903115E0
4.515214899E0,3.826123476E0,1.054038334E1,1.838286042E0
4.517729222E0,3.883551121E0,1.064626598E1,1.910070658E0
4.520243597E0,4.022335052E0,1.078983593E1,2.039283037E0
4.522757920E0,4.108476639E0,1.088076305E1,2.091925144E0
4.525272295E0,4.165904045E0,1.100997543E1,2.178066730E0
4.527786617E0,4.228117466E0,1.112004471E1,2.350350142E0
4.530300992E0,4.334000111E0,1.132642555E1,2.556730986E0
4.532815315E0,4.472783566E0,1.146999550E1,2.752942562E0
4.535341357E0,4.582853794E0,1.163749313E1,2.911466837E0
4.537855680E0,4.578067780E0,1.180558872E1,3.031108141E0
4.540370055E0,4.448855400E0,1.201615715E1,3.064607620E0
4.542884378E0,4.266402721E0,1.217408371E1,2.959323406E0
4.545398753E0,3.993621111E0,1.241874981E1,2.743371248E0
4.547913076E0,3.701098442E0,1.259581852E1,2.504088879E0
4.550427399E0,3.361317635E0,1.280698490E1,2.221137524E0
4.552941774E0,3.044866800E0,1.292184067E1,1.886142492E0
4.555456149E0,2.752942562E0,1.300798225E1,1.564906001E0
4.557970472E0,2.560918331E0,1.306062412E1,1.373480201E0
4.560484795E0,2.331207514E0,1.304626751E1,1.162313581E0
4.562999170E0,2.105684042E0,1.313240910E1,9.182456732E-1
4.565514222E0,1.909472466E0,1.311805153E1,7.890332937E-1
4.568028545E0,1.679761529E0,1.313240910E1,7.118647099E-1
4.570542920E0,1.459023595E0,1.319462204E1,6.352944374E-1
4.573057242E0,1.339382529E0,1.318983650E1,6.400800347E-1
4.575571617E0,1.238883972E0,1.319462204E1,6.448656917E-1
4.578085940E0,1.143171072E0,1.322333622E1,6.448656917E-1
4.580600315E0,1.066002488E0,1.319940758E1,7.070791125E-1
4.583114638E0,1.022931695E0,1.318026543E1,8.033902049E-1
4.585629013E0,9.367900491E-1,1.316112232E1,9.230313301E-1
4.588143336E0,8.602197170E-1,1.316112232E1,1.018744230E0
4.590657711E0,7.501499057E-1,1.316112232E1,1.143171072E0
4.593172034E0,7.549355626E-1,1.313240910E1,1.531406522E0
4.595662555E0,7.022934556E-1,1.305583858E1,1.895713687E0
4.598176878E0,6.305087805E-1,1.304148197E1,2.345564365E0
4.600691201E0,5.443671346E-1,1.305583858E1,2.767299414E0
4.603205576E0,4.097708762E-1,1.302712440E1,3.212962627E0
4.605719951E0,2.901297510E-1,1.298405361E1,3.582055569E0
4.608234274E0,9.870393574E-2,1.284527016E1,3.883551121E0
4.610748649E0,2.991028363E-3,1.275853062E1,4.176073551E0
4.613262972E0,-1.603191197E-1,1.257667542E1,4.467998028E0
4.615777347E0,-3.613162339E-1,1.234217930E1,4.755734921E0
4.618291670E0,-5.144568682E-1,1.200180054E1,4.918447018E0
4.620806045E0,-6.825526357E-1,1.171944714E1,5.129613400E0
4.623320367E0,-9.649057388E-1,1.145563793E1,5.268397331E0
4.625829951E0,-1.305284739E0,1.116311550E1,5.435894966E0
4.628344274E0,-1.693520188E0,1.084726334E1,5.550750256E0
4.630858597E0,-2.105085611E0,1.054038334E1,5.580062389E0
4.633372972E0,-2.464607239E0,1.032981491E1,5.599205017E0
4.635887295E0,-2.809772015E0,1.010488987E1,5.507679462E0
4.638401617E0,-3.116053343E0,9.850652695E0,5.282754421E0
4.640915940E0,-3.389433384E0,9.697511673E0,5.048257351E0
4.643430263E0,-3.652643681E0,9.635298729E0,4.731806755E0
4.645944638E0,-3.835096598E0,9.500701904E0,4.453640938E0
4.648458961E0,-3.945166349E0,9.376275063E0,4.228715897E0
4.650973284E0,-3.997808456E0,9.256634712E0,3.931407690E0
4.653487607E0,-4.112663746E0,9.165707588E0,3.716053486E0
4.656018336E0,-4.093521118E0,8.968897820E0,3.515056372E0
4.658532711E0,-4.050450325E0,8.801400185E0,3.390031576E0
4.661047034E0,-3.964308977E0,8.629117012E0,3.236890793E0
4.663561357E0,-3.830310822E0,8.379665375E0,3.126821041E0
4.666075680E0,-3.753740549E0,8.126026154E0,3.150749207E0
4.668590055E0,-3.733999729E0,7.881359577E0,3.222533941E0
4.671104378E0,-3.738785267E0,7.704290867E0,3.256033421E0
4.673618701E0,-3.700500250E0,7.503293514E0,3.327818155E0
4.676133024E0,-3.676572084E0,7.320840836E0,3.438486099E0
4.678647347E0,-3.623929977E0,7.172485828E0,3.610769272E0
4.681161722E0,-3.480360508E0,7.028916359E0,3.859622955E0
4.683676045E0,-3.389433384E0,6.923632145E0,4.223930359E0
4.686191513E0,-3.217149973E0,6.784250259E0,4.559523582E0
4.688705888E0,-2.996412039E0,6.602396011E0,4.908875465E0
4.691220159E0,-2.776272535E0,6.458826542E0,5.234897614E0
4.693734534E0,-2.512463808E0,6.391827583E0,5.565705299E0
4.696248857E0,-2.273181438E0,6.295516491E0,5.891129494E0
4.698763180E0,-2.028515339E0,6.252445698E0,6.183651924E0
4.701277555E0,-1.789233088E0,6.156732559E0,6.399005890E0
4.703791878E0,-1.621735573E0,6.104090691E0,6.499504566E0
4.706306201E0,-1.554138303E0,6.171089649E0,6.399005890E0
4.708820524E0,-1.463211060E0,6.511468410E0,6.552146435E0
4.711334899E0,-1.295713425E0,6.947560310E0,6.863811970E0
4.713849222E0,-1.027119160E0,7.268198967E0,7.040880680E0
4.716375003E0,-7.495517135E-1,7.613363266E0,7.098308563E0
4.718889326E0,-5.437689424E-1,8.111668587E0,7.050451756E0
4.721403701E0,-4.474578202E-1,8.739186287E0,6.993024349E0
4.723918024E0,-4.235295951E-1,9.457631111E0,6.854240417E0
4.726432347E0,-5.192425251E-1,1.035374355E1,6.734599113E0
4.728946670E0,-7.830511928E-1,1.142213917E1,6.470790863E0
4.731460992E0,-1.109073281E0,1.254317665E1,6.174080849E0
4.733975367E0,-1.386640668E0,1.362592888E1,5.843272686E0
4.736489690E0,-1.616949916E0,1.456989670E1,5.440680504E0
4.739004013E0,-1.741376638E0,1.542234039E1,5.004588604E0
4.741518388E0,-1.822732687E0,1.615095520E1,4.573880672E0
4.744032711E0,-1.822732687E0,1.669233131E1,4.113860130E0
4.746549847E0,-1.736590981E0,1.709492302E1,3.625126362E0
4.749064170E0,-1.568495274E0,1.728156281E1,3.122035265E0
4.751578545E0,-1.305284739E0,1.724327850E1,2.647658348E0
4.754092867E0,-9.840483069E-1,1.701296806E1,2.312064886E0
4.756607190E0,-7.016952634E-1,1.667797470E1,2.020140409E0
4.759121513E0,-5.144568682E-1,1.617966843E1,1.819143414E0
4.761635888E0,-3.996013701E-1,1.558565044E1,1.737189293E0
4.764150211E0,-2.081755698E-1,1.494377518E1,1.660618901E0
4.766664534E0,-2.392822644E-3,1.424866104E1,1.631905079E0
4.769178857E0,1.274178028E-1,1.357328606E1,1.631905079E0
4.771693232E0,1.992024779E-1,1.303669643E1,1.622333765E0
4.774207555E0,2.422732860E-1,1.261974621E1,1.698904037E0
4.776716878E0,4.384847581E-1,1.208794212E1,1.674975872E0
4.779231201E0,5.102694035E-1,1.169492054E1,1.775474429E0
4.781745576E0,5.246263742E-1,1.142692471E1,1.857428551E0
4.784259899E0,3.619144261E-1,1.120199966E1,1.823929071E0
4.786774222E0,1.992024779E-1,1.106740284E1,1.785045743E0
4.789288545E0,9.870393574E-2,1.090947628E1,1.799402595E0
4.791802867E0,3.649054468E-2,1.069412231E1,1.804188251E0
4.794317242E0,-1.196411345E-2,1.053081226E1,1.746760488E0
4.796831565E0,-9.810572863E-2,1.035852909E1,1.670190215E0
4.799345888E0,-1.651047617E-1,1.011924744E1,1.627119422E0
4.801860263E0,-1.842473447E-1,9.903294563E0,1.598405480E0
4.804374586E0,-2.129612118E-1,9.711869240E0,1.579262972E0
4.806885367E0,-1.698904037E-1,9.529416084E0,1.526620865E0
4.809399690E0,1.130608693E-1,9.208778381E0,1.430907965E0
4.811914013E0,3.714857101E-1,8.921041489E0,1.368694544E0
4.814428388E0,4.863412082E-1,8.743971825E0,1.292124271E0
4.816942711E0,4.480560422E-1,8.571688652E0,1.243669510E0
4.819457034E0,3.858426511E-1,8.365307808E0,1.171884894E0
4.821971409E0,3.044866920E-1,8.183453560E0,1.085743308E0
4.824485732E0,2.231307179E-1,7.987242222E0,1.162313581E0
4.827000055E0,1.513460279E-1,7.809575081E0,1.238883972E0
4.829514378E0,8.434699476E-2,7.484150887E0,1.306481123E0
4.832028701E0,-5.503492057E-2,7.465008259E0,1.459621787E0
4.834543076E0,-3.038884699E-1,7.579864025E0,1.612762451E0
4.837055263E0,-4.235295951E-1,7.704290867E0,1.780260086E0
4.839569638E0,-4.187439680E-1,7.823931694E0,2.077568293E0
4.842083909E0,-3.326023519E-1,7.924430370E0,2.331207514E0
4.844598284E0,-8.374879509E-2,7.541578770E0,2.484946251E0
4.847112607E0,6.400800347E-1,6.477969170E0,2.595016241E0
4.849626930E0,5.970092416E-1,6.415755749E0,2.647658348E0
4.852141253E0,3.379862010E-1,6.578467846E0,2.729014158E0
4.854655628E0,9.391828626E-2,6.698108673E0,2.959323406E0
4.857169951E0,6.041877344E-2,6.621538639E0,3.346960783E0
4.859684274E0,6.520441920E-2,6.252445698E0,3.739981890E0
4.862198597E0,-3.110669367E-2,5.874379635E0,3.940979004E0
4.864712972E0,-2.273181528E-1,5.696712494E0,4.061218262E0
4.867217920E0,-6.921239495E-1,5.634499073E0,4.147359848E0
4.869732295E0,-1.219143152E0,5.629713535E0,4.176073551E0
4.872246565E0,-1.645663738E0,5.624927998E0,4.133002758E0
4.874760940E0,-2.090728760E0,5.677569866E0,3.926621914E0
4.877275263E0,-2.450250387E0,5.754140377E0,3.711267948E0
4.879789586E0,-2.728415966E0,5.811567783E0,3.558127165E0
4.882303909E0,-3.005983353E0,5.917450428E0,3.361317635E0
4.884818284E0,-3.178266764E0,5.955735683E0,3.112463951E0
4.887332607E0,-3.197409153E0,5.869594097E0,2.901895761E0
4.889846930E0,-3.168695450E0,5.984449387E0,2.810370207E0
4.892361253E0,-3.212364435E0,6.094519138E0,2.685943365E0
4.894875628E0,-3.187838078E0,6.266802311E0,2.628515720E0
4.897389482E0,-3.206980467E0,6.468397617E0,2.623729944E0
4.899903857E0,-3.149552822E0,6.602396011E0,2.638087034E0
4.902418128E0,-2.862414122E0,6.501897335E0,2.695514679E0
4.904932503E0,-2.579462767E0,6.554539204E0,2.892324448E0
4.907446826E0,-2.507678032E0,6.808178425E0,3.045464993E0
4.909961201E0,-2.507678032E0,7.052844524E0,3.050250769E0
4.912475524E0,-2.550748825E0,7.287341595E0,3.045464993E0
4.914989847E0,-2.641676188E0,7.484150887E0,3.007179976E0
4.917504170E0,-2.733201742E0,7.718647480E0,2.877369165E0
4.920018492E0,-2.728415966E0,7.876574039E0,2.839084148E0
4.922532867E0,-2.685345173E0,7.924430370E0,2.858226538E0
4.925047190E0,-2.627319336E0,8.020741463E0,2.911466837E0
4.927560680E0,-2.675175667E0,8.063812256E0,2.877369165E0
4.930075055E0,-2.680559635E0,8.078168869E0,2.757728100E0
4.932589378E0,-2.680559635E0,8.082955360E0,2.504088879E0
4.935103701E0,-2.641676188E0,7.968099594E0,2.201995134E0
4.937618024E0,-2.522035122E0,7.780860901E0,1.919641972E0
4.940132399E0,-2.431107759E0,7.579864025E0,1.741974831E0
4.942646722E0,-2.364108801E0,7.363911629E0,1.569691658E0
4.945161045E0,-2.330609322E0,7.177271366E0,1.426122308E0
4.947675367E0,-2.239681959E0,7.028916359E0,1.301695466E0
4.950189690E0,-2.239681959E0,6.918846607E0,1.267597795E0
4.952704065E0,-2.230110645E0,6.779464722E0,1.258026481E0
4.955218388E0,-2.158325911E0,6.736393929E0,1.195813060E0
4.957757347E0,-2.057229280E0,6.664609432E0,1.229312658E0
4.960271722E0,-1.966302037E0,6.611967087E0,1.219741344E0
4.962785992E0,-1.846660852E0,6.554539204E0,1.335195065E0
4.965300367E0,-1.750947952E0,6.425326824E0,1.454836130E0
4.967814690E0,-1.660020709E0,6.391827583E0,1.636690736E0
4.970329065E0,-1.539781332E0,6.396613121E0,1.876571178E0
4.972843336E0,-1.472782373E0,6.329015732E0,2.182852507E0
4.975357711E0,-1.424925923E0,6.233303070E0,2.484946251E0
4.977872034E0,-1.357926846E0,6.190232277E0,2.810370207E0
4.980386357E0,-1.324427366E0,6.132804394E0,3.088535786E0
4.982900680E0,-1.243071318E0,6.061019897E0,3.370888948E0
4.985415055E0,-1.209571838E0,5.974878311E0,3.601198196E0
4.987907347E0,-1.128215909E0,5.850451469E0,3.739981890E0
4.990421670E0,-1.051047325E0,5.773283005E0,3.797409534E0
4.992935992E0,-9.649057388E-1,5.667998791E0,3.806980848E0
4.995450367E0,-8.261220455E-1,5.510072231E0,3.811766386E0
4.997964690E0,-7.639086246E-1,5.371288776E0,3.787838221E0
5.000479065E0,-6.681957245E-1,5.255835056E0,3.692125320E0
5.002993336E0,-5.389832854E-1,5.112265587E0,3.605983734E0
5.005507711E0,-4.235295951E-1,4.920839787E0,3.428914785E0
5.008022034E0,-3.421736360E-1,4.849055290E0,3.284747362E0
5.010536357E0,-2.512463629E-1,4.676173687E0,3.184248686E0
5.013050680E0,-2.512463629E-1,4.623531342E0,3.126821041E0
5.015565055E0,-1.938186288E-1,4.556532383E0,3.088535786E0
5.018082399E0,-2.081755698E-1,4.484747887E0,3.098107100E0
5.020596774E0,-2.273181528E-1,4.389034748E0,3.078964472E0
5.023111045E0,-2.799602449E-1,4.326821327E0,3.055036306E0
5.025625420E0,-3.373879790E-1,4.235894203E0,3.007179976E0
5.028139742E0,-4.331009090E-1,4.158725739E0,3.002394199E0
5.030654065E0,-4.139583111E-1,4.039084435E0,2.959323406E0
5.033168388E0,-4.139583111E-1,3.943371773E0,2.867797852E0
5.035682763E0,-4.522434771E-1,3.924229145E0,2.848655462E0
5.038197086E0,-3.996013701E-1,3.828516245E0,2.776870728E0
5.040711409E0,-3.708875179E-1,3.785445452E0,2.638087034E0
5.043225732E0,-4.043870270E-1,3.799802303E0,2.571087837E0
5.045740107E0,-4.331009090E-1,3.799802303E0,2.494517565E0
5.048255315E0,-4.666004181E-1,3.866801500E0,2.451446772E0
5.050769690E0,-5.240281820E-1,3.919443607E0,2.461018085E0
5.053283961E0,-5.629115105E-1,4.010370731E0,2.480160713E0
5.055798336E0,-6.490531564E-1,4.173082829E0,2.499303341E0
5.058312659E0,-7.543373108E-1,4.298107624E0,2.571087837E0
5.060827034E0,-8.691928387E-1,4.417748928E0,2.652443886E0
5.063341305E0,-9.314061999E-1,4.513461590E0,2.815155745E0
5.065855680E0,-9.840483069E-1,4.585246563E0,2.867797852E0
5.068370003E0,-1.118644595E0,4.758127689E0,2.988037348E0
5.070884326E0,-1.204786181E0,4.872983456E0,3.093321562E0
5.073398649E0,-1.262213945E0,4.949553490E0,3.165106058E0
5.075913024E0,-1.391426325E0,5.035695076E0,3.265604734E0
5.078425888E0,-1.463211060E0,5.131408215E0,3.375674486E0
5.080940263E0,-1.549352646E0,5.241477966E0,3.418745279E0
5.083454534E0,-1.669592023E0,5.352146149E0,3.413959742E0
5.085968909E0,-1.794018745E0,5.495715618E0,3.423531055E0
5.088483232E0,-1.913659930E0,5.562714577E0,3.495913982E0
5.090997607E0,-2.033301115E0,5.715855122E0,3.553341627E0
5.093511878E0,-2.177468538E0,5.855237007E0,3.596412420E0
5.096026253E0,-2.292324066E0,6.008377552E0,3.577269793E0
5.098540576E0,-2.426322222E0,6.147161484E0,3.677768469E0
5.101054899E0,-2.541177750E0,6.305087566E0,3.773481369E0
5.103569222E0,-2.627319336E0,6.458826542E0,3.811766386E0
5.106083597E0,-2.680559635E0,6.621538639E0,3.840480328E0
5.108603961E0,-2.766701221E0,6.736393929E0,3.873979807E0
5.111118336E0,-2.824128866E0,6.889534473E0,3.888336897E0
5.113632607E0,-2.886342287E0,7.071987152E0,3.902693748E0
5.116146982E0,-2.967698336E0,7.210771084E0,3.955335855E0
5.118661305E0,-3.015554667E0,7.339983463E0,3.970290899E0
5.121175680E0,-3.106482029E0,7.508079052E0,4.046861172E0
5.123689951E0,-3.187838078E0,7.685148239E0,4.123431683E0
5.126204326E0,-3.212364435E0,7.833503246E0,4.200001717E0
5.128718649E0,-3.255435228E0,7.972885132E0,4.319643021E0
5.131232972E0,-3.303291559E0,8.116454124E0,4.377070904E0
5.133747295E0,-3.375076294E0,8.264809608E0,4.467998028E0
5.136261670E0,-3.422932863E0,8.374878883E0,4.578666210E0
5.138775472E0,-3.432504177E0,8.523832321E0,4.640879631E0
5.141289847E0,-3.427718401E0,8.590831757E0,4.727021217E0
5.143804170E0,-3.513859987E0,8.648259163E0,4.794020176E0
5.146318545E0,-3.523431301E0,8.729615211E0,4.899304390E0
5.148832920E0,-3.600001574E0,8.787042618E0,4.956732273E0
5.151347242E0,-3.595216036E0,8.825327873E0,5.067399979E0
5.153861617E0,-3.609572887E0,8.839685440E0,5.096114159E0
5.156375992E0,-3.681357622E0,8.820542336E0,5.158327579E0
5.158890315E0,-3.714857101E0,8.758329391E0,5.206183910E0
5.161404690E0,-3.700500250E0,8.729615211E0,5.244469166E0
5.163919013E0,-3.820739508E0,8.657830238E0,5.335396290E0
5.166433388E0,-3.844667673E0,8.542975426E0,5.397609711E0
5.168947086E0,-3.906881094E0,8.398807526E0,5.445466042E0
5.171461461E0,-4.050450325E0,8.240880966E0,5.541179180E0
5.173975784E0,-4.309473515E0,8.126026154E0,5.661418438E0
5.176490159E0,-4.630111694E0,8.039883614E0,5.819344521E0
5.179004534E0,-5.032704353E0,8.044670105E0,6.077769279E0
5.181518909E0,-5.526223660E0,8.183453560E0,6.312864304E0
5.184033232E0,-6.077171326E0,8.389236450E0,6.710670948E0
5.186547607E0,-6.546762943E0,8.624331474E0,7.131807804E0
5.189061930E0,-6.943971157E0,8.921041489E0,7.716853142E0
5.191576305E0,-7.207779884E0,9.328418732E0,8.325227737E0
5.194090628E0,-7.413562775E0,9.764511108E0,9.000602722E0
5.196605003E0,-7.543373585E0,1.014317513E1,9.594620705E0
5.199113961E0,-7.667799950E0,1.053559780E1,1.019820976E1
5.201628336E0,-7.682157040E0,1.092861938E1,1.070608711E1
5.204142659E0,-7.658228874E0,1.134556866E1,1.117567825E1
5.206657034E0,-7.677371502E0,1.175773239E1,1.153998566E1
5.209171409E0,-7.734799385E0,1.210708427E1,1.180319595E1
5.211685784E0,-7.782655716E0,1.243789196E1,1.200957680E1
5.214200107E0,-7.820940971E0,1.274895859E1,1.208136177E1
5.216714482E0,-7.978867054E0,1.303669643E1,1.199043465E1
5.219228805E0,-8.161319733E0,1.324726391E1,1.165484047E1
5.221743180E0,-8.199604988E0,1.333878994E1,1.111825085E1
5.224257503E0,-8.070392609E0,1.344407368E1,1.050508976E1
5.226771878E0,-7.768298626E0,1.354457283E1,9.824331284E0
5.229290524E0,-7.246065140E0,1.357807255E1,9.043673515E0
5.231804899E0,-6.608976364E0,1.356371498E1,8.176275253E0
5.234319222E0,-5.952744484E0,1.363549995E1,7.295117855E0
5.236833597E0,-5.401797295E0,1.362114334E1,6.355935097E0
5.239347972E0,-4.951348305E0,1.356850052E1,5.478965759E0
5.241862347E0,-4.625326157E0,1.353978729E1,4.664807796E0
5.244376670E0,-4.462614059E0,1.342493153E1,3.783052683E0
5.246891045E0,-4.352544308E0,1.330947781E1,3.021536827E0
5.249405367E0,-4.270590305E0,1.316590881E1,2.335993052E0
5.251919742E0,-4.103092670E0,1.300319672E1,1.770688772E0
5.254434065E0,-3.854238987E0,1.284048462E1,1.306481123E0
5.256948440E0,-3.509074450E0,1.270588779E1,9.182456732E-1
5.259456149E0,-3.168695450E0,1.251924801E1,6.879364848E-1
5.261970524E0,-2.771486759E0,1.225603771E1,6.305087805E-1
5.264484847E0,-2.349751949E0,1.202572823E1,6.687939167E-1
5.266999222E0,-1.913659930E0,1.182951736E1,7.405785918E-1
5.269513597E0,-1.525424480E0,1.154656601E1,8.895317912E-1
5.272027920E0,-9.984052777E-1,1.130249786E1,1.205384374E0
5.274542295E0,-4.713860750E-1,1.105304623E1,1.598405480E0
5.277056670E0,4.127619043E-2,1.078026390E1,2.192423820E0
5.279570992E0,5.826523304E-1,1.047817039E1,2.853441000E0
5.282085367E0,1.080957651E0,1.003250694E1,3.596412420E0
5.284599742E0,1.224527001E0,9.908080101E0,4.377070904E0
5.287114065E0,1.262812138E0,9.908080101E0,4.875376225E0
5.289641878E0,1.430309772E0,9.731011391E0,5.340181828E0
5.292156253E0,1.545165181E0,9.568299294E0,5.694917679E0
5.294670628E0,1.602592945E0,9.424132347E0,5.962913990E0
5.297184951E0,1.617548108E0,9.318847656E0,6.154938221E0
5.299699326E0,1.627119422E0,9.189635277E0,6.226722717E0
5.302213701E0,1.718046665E0,9.117850304E0,6.212365627E0
5.304728024E0,1.785045743E0,8.964112282E0,6.121438503E0
5.307242399E0,1.832902193E0,8.925827026E0,5.996413708E0
5.309756722E0,1.890329838E0,8.868398666E0,5.781059742E0
5.312271097E0,1.880758643E0,8.815756798E0,5.459823132E0
5.314785472E0,1.861616015E0,8.729615211E0,5.076971531E0
5.317299795E0,1.837687731E0,8.734400749E0,4.626522541E0
5.319809065E0,1.799402595E0,8.729615211E0,4.022933006E0
5.322323440E0,1.651047587E0,8.777471542E0,3.375674486E0
5.324837815E0,1.392024517E0,8.844470978E0,2.681157827E0
5.327352138E0,9.655039310E-1,8.877969742E0,2.010569334E0
5.329866513E0,5.539384484E-1,8.964112282E0,1.478764415E0
5.332380836E0,-2.392822644E-3,9.031110764E0,1.133599758E0
5.334895211E0,-5.964110494E-1,9.098708153E0,9.708877802E-1
