"Time (s)","Acceleration x (m/s^2)","Acceleration y (m/s^2)","Acceleration z (m/s^2)"
3.441310000E-3,-6.368576288E-1,9.806650162E0,9.433154464E-1
5.485988000E-3,-6.584054828E-1,9.816226959E0,9.289502501E-1
7.408595000E-3,-6.799532771E-1,9.825803757E0,9.193734527E-1
9.361720000E-3,-6.871358752E-1,9.830592155E0,9.050082564E-1
1.137588000E-2,-6.967126727E-1,9.825803757E0,8.858546019E-1
1.335952300E-2,-7.110779285E-1,9.813833237E0,8.571242094E-1
1.534316600E-2,-7.158663273E-1,9.821015358E0,8.212111592E-1
1.735732600E-2,-7.134721279E-1,9.821015358E0,7.852981687E-1
1.934096800E-2,-7.110779285E-1,9.821015358E0,7.469909191E-1
2.132461100E-2,-7.062895298E-1,9.828198433E0,7.110779285E-1
2.333877100E-2,-7.038952708E-1,9.842563629E0,6.799532771E-1
2.535293100E-2,-7.062895298E-1,9.856928825E0,6.536170840E-1
2.733657400E-2,-7.086837292E-1,9.864110947E0,6.153098345E-1
2.932021600E-2,-7.015010715E-1,9.866505623E0,5.770025849E-1
3.130385900E-2,-6.943184733E-1,9.861717224E0,5.554547906E-1
3.331801900E-2,-6.967126727E-1,9.849745750E0,5.554547906E-1
3.530166200E-2,-6.919242740E-1,9.832986832E0,5.674257874E-1
3.728530400E-2,-6.919242740E-1,9.821015358E0,5.674257874E-1
3.929946400E-2,-6.823474765E-1,9.794678688E0,5.602431893E-1
4.128310700E-2,-6.631938815E-1,9.773131371E0,5.554547906E-1
4.326675000E-2,-6.512228847E-1,9.749189377E0,5.626373887E-1
4.525039200E-2,-6.344634295E-1,9.725247383E0,5.841852427E-1
4.723403500E-2,-6.177040339E-1,9.710882187E0,6.129156351E-1
4.918716000E-2,-6.177040339E-1,9.706093788E0,6.344634295E-1
5.120132000E-2,-6.320692301E-1,9.715670586E0,6.536170840E-1
5.318496200E-2,-6.584054828E-1,9.727641106E0,6.775590777E-1
5.516860500E-2,-6.799532771E-1,9.725247383E0,7.134721279E-1
5.718276500E-2,-6.895300746E-1,9.713275909E0,7.326257229E-1
5.919692500E-2,-7.038952708E-1,9.708487511E0,7.326257229E-1
6.118056800E-2,-7.230489254E-1,9.696516991E0,7.350199223E-1
6.316421000E-2,-7.254431248E-1,9.679757118E0,7.541735172E-1
6.514785300E-2,-7.206547260E-1,9.660603523E0,7.661445141E-1
6.716201300E-2,-7.278373241E-1,9.646238327E0,7.685387731E-1
6.914565600E-2,-7.637503147E-1,9.629479408E0,7.924807668E-1
7.112929800E-2,-8.044517636E-1,9.619902611E0,8.379706144E-1
7.314345900E-2,-7.948749661E-1,9.622296333E0,8.619126081E-1
7.515761900E-2,-7.613561153E-1,9.624691010E0,8.571242094E-1
7.714126100E-2,-7.254431248E-1,9.624691010E0,8.307880163E-1
7.915542100E-2,-6.991068721E-1,9.627084732E0,8.116343617E-1
8.116958200E-2,-6.967126727E-1,9.624691010E0,8.164227605E-1
8.315322400E-2,-6.967126727E-1,9.624691010E0,8.259995580E-1
8.516738400E-2,-7.086837292E-1,9.624691010E0,8.212111592E-1
8.715102700E-2,-7.350199223E-1,9.622296333E0,7.972691655E-1
8.913466900E-2,-7.661445141E-1,9.617507935E0,7.637503147E-1
9.111831200E-2,-7.876923680E-1,9.615114212E0,7.469909191E-1
9.310195500E-2,-7.972691655E-1,9.617507935E0,7.254431248E-1
9.508559700E-2,-7.852981687E-1,9.612719536E0,6.943184733E-1
9.709975700E-2,-7.709329724E-1,9.605537415E0,6.751648784E-1
9.908340000E-2,-7.661445141E-1,9.600749016E0,6.679822803E-1
1.010670430E-1,-7.565677166E-1,9.595960617E0,6.775590777E-1
1.030812030E-1,-7.445967197E-1,9.583989143E0,6.847416759E-1
1.050648450E-1,-7.398083210E-1,9.579200745E0,6.943184733E-1
1.070484880E-1,-7.541735172E-1,9.591172218E0,6.967126727E-1
1.090321300E-1,-7.805097699E-1,9.605537415E0,7.015010715E-1
1.110157730E-1,-7.924807668E-1,9.619902611E0,7.086837292E-1
1.129994160E-1,-7.900865674E-1,9.624691010E0,7.206547260E-1
1.150135760E-1,-7.805097699E-1,9.629479408E0,7.398083210E-1
1.169972180E-1,-7.733271718E-1,9.643844604E0,7.422025204E-1
1.189808610E-1,-7.733271718E-1,9.653421402E0,7.445967197E-1
1.209950210E-1,-7.781155705E-1,9.665391922E0,7.565677166E-1
1.230091810E-1,-7.829039693E-1,9.682151794E0,7.709329724E-1
1.249928240E-1,-7.852981687E-1,9.698910713E0,7.733271718E-1
1.270069840E-1,-7.805097699E-1,9.725247383E0,7.565677166E-1
1.289601090E-1,-7.709329724E-1,9.751583099E0,7.254431248E-1
1.309742690E-1,-7.565677166E-1,9.782708168E0,6.847416759E-1
1.329579120E-1,-7.422025204E-1,9.816226959E0,6.560112834E-1
1.349415540E-1,-7.374141216E-1,9.852140427E0,6.344634295E-1
1.369557140E-1,-7.493851185E-1,9.876082420E0,6.248866320E-1
1.389393570E-1,-7.374141216E-1,9.888052940E0,6.177040339E-1
1.409230000E-1,-7.206547260E-1,9.909601212E0,5.937620401E-1
1.429066420E-1,-7.182605267E-1,9.928754807E0,5.770025849E-1
1.448902850E-1,-7.230489254E-1,9.935936928E0,5.722141862E-1
1.469044450E-1,-7.254431248E-1,9.933543205E0,5.865794420E-1
1.488880870E-1,-7.254431248E-1,9.926360130E0,6.224924326E-1
1.508717300E-1,-7.302315235E-1,9.928754807E0,6.584054828E-1
1.528553730E-1,-7.374141216E-1,9.923966408E0,6.991068721E-1
1.548695330E-1,-7.493851185E-1,9.902418137E0,7.398083210E-1
1.568836930E-1,-7.541735172E-1,9.878476143E0,7.805097699E-1
1.588673350E-1,-7.374141216E-1,9.854534149E0,7.972691655E-1
1.608814960E-1,-6.967126727E-1,9.813833237E0,7.996633649E-1
1.628651380E-1,-6.512228847E-1,9.782708168E0,8.068459630E-1
1.648792980E-1,-6.177040339E-1,9.768342972E0,8.164227605E-1
1.668629410E-1,-5.961562395E-1,9.758766174E0,8.140285611E-1
1.688465840E-1,-5.913678408E-1,9.758766174E0,8.140285611E-1
1.708302260E-1,-5.841852427E-1,9.763554573E0,8.236053586E-1
1.728138690E-1,-5.889736414E-1,9.768342972E0,8.427590132E-1
1.748280290E-1,-6.033388376E-1,9.756371498E0,8.619126081E-1
1.768116710E-1,-6.129156351E-1,9.744400978E0,8.714894056E-1
1.787953140E-1,-6.129156351E-1,9.739612579E0,8.786720037E-1
1.808094740E-1,-6.033388376E-1,9.730035782E0,8.906430602E-1
1.827931170E-1,-5.865794420E-1,9.715670586E0,8.834604025E-1
1.848072770E-1,-5.722141862E-1,9.698910713E0,8.690952063E-1
1.867604020E-1,-5.793967843E-1,9.682151794E0,8.714894056E-1
1.887440440E-1,-6.081272364E-1,9.677363396E0,8.738836050E-1
1.907582050E-1,-6.392518282E-1,9.674968719E0,8.858546019E-1
1.927418470E-1,-6.536170840E-1,9.672574997E0,8.834604025E-1
1.947254900E-1,-6.536170840E-1,9.670180321E0,8.523358107E-1
1.967396500E-1,-6.416460276E-1,9.665391922E0,8.379706144E-1
1.987232930E-1,-6.320692301E-1,9.658209801E0,8.331822157E-1
2.007069350E-1,-6.224924326E-1,9.651026726E0,8.379706144E-1
2.027210950E-1,-6.105214357E-1,9.648633003E0,8.331822157E-1
2.047047380E-1,-6.129156351E-1,9.653421402E0,8.283938169E-1
2.066883800E-1,-6.272808313E-1,9.665391922E0,8.307880163E-1
2.086415050E-1,-6.655880809E-1,9.667786598E0,8.259995580E-1
2.106556660E-1,-7.110779285E-1,9.672574997E0,8.212111592E-1
2.126393080E-1,-7.517793179E-1,9.682151794E0,8.044517636E-1
2.146229510E-1,-7.900865674E-1,9.682151794E0,7.852981687E-1
2.166371110E-1,-7.900865674E-1,9.682151794E0,7.781155705E-1
2.186207530E-1,-7.517793179E-1,9.677363396E0,8.044517636E-1
2.206043960E-1,-6.943184733E-1,9.672574997E0,8.523358107E-1
2.226185560E-1,-6.440402865E-1,9.672574997E0,8.906430602E-1
2.246021990E-1,-6.775590777E-1,9.684545517E0,8.331822157E-1
2.265858410E-1,-7.972691655E-1,9.701305389E0,6.847416759E-1
2.285694840E-1,-8.834604025E-1,9.708487511E0,5.674257874E-1
2.305836440E-1,-8.547300100E-1,9.696516991E0,4.884171486E-1
2.325978040E-1,-7.398083210E-1,9.670180321E0,4.788403511E-1
2.345814470E-1,-6.392518282E-1,9.667786598E0,5.434837937E-1
2.365956070E-1,-6.368576288E-1,9.689333916E0,6.177040339E-1
2.385792500E-1,-7.158663273E-1,9.734824181E0,6.751648784E-1
2.405934100E-1,-7.900865674E-1,9.777919769E0,7.062895298E-1
2.425770520E-1,-8.212111592E-1,9.799467087E0,7.062895298E-1
2.445606950E-1,-8.164227605E-1,9.816226959E0,6.799532771E-1
2.465748550E-1,-7.948749661E-1,9.828198433E0,6.631938815E-1
2.485584980E-1,-7.852981687E-1,9.828198433E0,6.560112834E-1
2.505726580E-1,-7.805097699E-1,9.821015358E0,6.679822803E-1
2.525563000E-1,-7.805097699E-1,9.821015358E0,6.895300746E-1
2.545399430E-1,-7.757213712E-1,9.830592155E0,7.110779285E-1
2.565541030E-1,-7.757213712E-1,9.840168953E0,7.302315235E-1
2.585682630E-1,-7.996633649E-1,9.842563629E0,7.613561153E-1
2.605519060E-1,-7.924807668E-1,9.849745750E0,7.781155705E-1
2.625660660E-1,-7.589619160E-1,9.849745750E0,7.709329724E-1
2.645497090E-1,-7.254431248E-1,9.840168953E0,7.326257229E-1
2.665638690E-1,-6.895300746E-1,9.821015358E0,7.086837292E-1
2.685475110E-1,-6.464344859E-1,9.809044838E0,7.134721279E-1
2.705311540E-1,-5.985504389E-1,9.809044838E0,7.254431248E-1
2.725147960E-1,-5.626373887E-1,9.818621635E0,7.445967197E-1
2.745289570E-1,-5.578489900E-1,9.840168953E0,7.733271718E-1
2.765431170E-1,-5.841852427E-1,9.847352028E0,7.924807668E-1
2.785267590E-1,-6.081272364E-1,9.852140427E0,7.852981687E-1
2.805409190E-1,-6.296750307E-1,9.854534149E0,7.685387731E-1
2.825245620E-1,-6.344634295E-1,9.840168953E0,7.517793179E-1
2.845387220E-1,-6.200982332E-1,9.823410034E0,7.445967197E-1
2.865223650E-1,-5.937620401E-1,9.809044838E0,7.374141216E-1
2.885060070E-1,-5.650315881E-1,9.787496567E0,7.326257229E-1
2.904896500E-1,-5.650315881E-1,9.765948296E0,7.182605267E-1
2.924732930E-1,-5.817909837E-1,9.751583099E0,7.110779285E-1
2.944874530E-1,-5.985504389E-1,9.742006302E0,7.062895298E-1
2.965016130E-1,-6.105214357E-1,9.727641106E0,7.038952708E-1
2.984852550E-1,-6.200982332E-1,9.708487511E0,7.110779285E-1
3.004994160E-1,-6.224924326E-1,9.691728592E0,7.086837292E-1
3.025135760E-1,-6.200982332E-1,9.684545517E0,7.038952708E-1
3.044972180E-1,-6.129156351E-1,9.684545517E0,6.919242740E-1
3.065113780E-1,-6.033388376E-1,9.689333916E0,6.775590777E-1
3.084950210E-1,-5.889736414E-1,9.694122314E0,6.631938815E-1
3.104786640E-1,-5.817909837E-1,9.701305389E0,6.607996821E-1
3.124928240E-1,-5.841852427E-1,9.708487511E0,6.536170840E-1
3.144764660E-1,-5.841852427E-1,9.710882187E0,6.488286853E-1
3.164601090E-1,-5.817909837E-1,9.715670586E0,6.464344859E-1
3.184437510E-1,-5.770025849E-1,9.718064308E0,6.416460276E-1
3.204273940E-1,-5.650315881E-1,9.727641106E0,6.416460276E-1
3.224415540E-1,-5.626373887E-1,9.742006302E0,6.440402865E-1
3.244251970E-1,-5.722141862E-1,9.751583099E0,6.296750307E-1
3.264088390E-1,-5.770025849E-1,9.756371498E0,6.129156351E-1
3.283924820E-1,-5.722141862E-1,9.753977776E0,6.105214357E-1
3.303761250E-1,-5.698199868E-1,9.749189377E0,6.129156351E-1
3.323902850E-1,-5.674257874E-1,9.751583099E0,6.177040339E-1
3.343739270E-1,-5.698199868E-1,9.749189377E0,6.224924326E-1
3.363575700E-1,-5.817909837E-1,9.744400978E0,6.344634295E-1
3.383717300E-1,-5.961562395E-1,9.734824181E0,6.560112834E-1
3.403553730E-1,-6.033388376E-1,9.722852707E0,6.847416759E-1
3.423390150E-1,-6.057330370E-1,9.701305389E0,7.134721279E-1
3.443531750E-1,-6.177040339E-1,9.682151794E0,7.445967197E-1
3.463368180E-1,-6.272808313E-1,9.667786598E0,7.805097699E-1
3.483204600E-1,-6.320692301E-1,9.653421402E0,8.212111592E-1
3.503346210E-1,-6.272808313E-1,9.643844604E0,8.643068075E-1
3.523182630E-1,-6.200982332E-1,9.641449928E0,9.002198577E-1
3.543019060E-1,-6.057330370E-1,9.634267807E0,9.361328483E-1
3.563160660E-1,-5.913678408E-1,9.622296333E0,9.648633003E-1
3.582997090E-1,-5.793967843E-1,9.607931137E0,1.007958889E0
3.602833510E-1,-5.793967843E-1,9.598354340E0,1.041477680E0
3.622975110E-1,-5.865794420E-1,9.593565941E0,1.055842996E0
3.642811540E-1,-5.698199868E-1,9.574412346E0,1.077390790E0
3.662953140E-1,-5.458779931E-1,9.557653427E0,1.115697980E0
3.682484390E-1,-5.219359994E-1,9.545681953E0,1.163581967E0
3.702625990E-1,-5.123591423E-1,9.528923035E0,1.209071875E0
3.722462420E-1,-5.075707436E-1,9.524134636E0,1.244984865E0
3.742298840E-1,-4.979939461E-1,9.519346237E0,1.280897856E0
3.762440440E-1,-4.836287498E-1,9.514557838E0,1.316810966E0
3.782582050E-1,-4.740519226E-1,9.507374763E0,1.347935557E0
3.802418470E-1,-4.596867263E-1,9.502586365E0,1.367089152E0
3.822560070E-1,-4.405331016E-1,9.507374763E0,1.374271750E0
3.842701680E-1,-4.213795066E-1,9.512163162E0,1.374271750E0
3.862538100E-1,-4.141969085E-1,9.519346237E0,1.369483352E0
3.882374530E-1,-4.118026793E-1,9.521739960E0,1.376665950E0
3.902210950E-1,-4.094084799E-1,9.524134636E0,1.386242747E0
3.922047380E-1,-4.118026793E-1,9.543288231E0,1.393425345E0
3.942188980E-1,-4.165911078E-1,9.567230225E0,1.398213744E0
3.962025410E-1,-4.213795066E-1,9.579200745E0,1.398213744E0
3.981861830E-1,-4.309563041E-1,9.598354340E0,1.398213744E0
4.001698260E-1,-4.237737060E-1,9.629479408E0,1.434126854E0
4.021534680E-1,-2.896983922E-1,9.696516991E0,1.668758631E0
4.041676280E-1,-7.661445439E-2,9.809044838E0,2.075772762E0
4.061207530E-1,-1.843535304E-1,9.883264542E0,2.109291792E0
4.081349140E-1,-5.530605912E-1,9.866505623E0,1.692700624E0
4.101185560E-1,-8.403648138E-1,9.818621635E0,1.252167463E0
4.121021990E-1,-8.643068075E-1,9.770736694E0,1.005564690E0
4.141163590E-1,-7.015010715E-1,9.732429504E0,8.738836050E-1
4.161000010E-1,-5.147533417E-1,9.718064308E0,7.805097699E-1
4.180836440E-1,-4.118026793E-1,9.730035782E0,7.398083210E-1
4.200672870E-1,-4.094084799E-1,9.761159897E0,7.445967197E-1
4.220509290E-1,-4.955997467E-1,9.799467087E0,7.374141216E-1
4.240650890E-1,-6.057330370E-1,9.837775230E0,7.015010715E-1
4.260487320E-1,-6.727706790E-1,9.868899345E0,6.607996821E-1
4.280323750E-1,-6.679822803E-1,9.897629738E0,6.392518282E-1
4.300465350E-1,-6.200982332E-1,9.916783333E0,6.416460276E-1
4.320301770E-1,-5.746083856E-1,9.933543205E0,6.224924326E-1
4.340138200E-1,-5.554547906E-1,9.940725327E0,5.602431893E-1
4.360279800E-1,-5.698199868E-1,9.945513725E0,5.003881454E-1
4.380116230E-1,-5.841852427E-1,9.950302124E0,4.620809257E-1
4.399952650E-1,-5.793967843E-1,9.969455719E0,4.453215301E-1
4.420094250E-1,-5.602431893E-1,9.983820915E0,4.213795066E-1
4.440235850E-1,-5.339069963E-1,9.998186111E0,3.734954596E-1
4.460072280E-1,-5.171475410E-1,1.000536919E1,3.327940404E-1
4.479603530E-1,-4.860229492E-1,1.001494598E1,2.418143749E-1
4.499745130E-1,-4.716577232E-1,1.001494598E1,1.699883193E-1
4.519581560E-1,-4.525041282E-1,1.000776291E1,1.221042871E-1
4.539417980E-1,-4.189853072E-1,1.000058079E1,5.985504389E-2
4.559559590E-1,-3.711012602E-1,9.995792389E0,-3.112462163E-2
4.579396010E-1,-3.208230138E-1,9.986215591E0,-1.412578970E-1
4.599232440E-1,-2.753331959E-1,9.974244118E0,-2.633621991E-1
4.619374040E-1,-2.250549644E-1,9.962273598E0,-3.782838583E-1
4.639515640E-1,-1.699883193E-1,9.950302124E0,-4.788403511E-1
4.659352070E-1,-1.029506698E-1,9.945513725E0,-5.626373887E-1
4.679188490E-1,-5.746084079E-2,9.931148529E0,-6.272808313E-1
4.699024920E-1,-4.070143029E-2,9.904812813E0,-6.607996821E-1
4.718861340E-1,-3.112462163E-2,9.880870819E0,-6.536170840E-1
4.739002940E-1,-3.591302410E-2,9.856928825E0,-6.129156351E-1
4.758839370E-1,-5.506663769E-2,9.840168953E0,-5.315127969E-1
4.778675800E-1,-7.661445439E-2,9.813833237E0,-4.141969085E-1
4.798817400E-1,-8.858546615E-2,9.792284966E0,-2.896983922E-1
4.818959000E-1,-1.005564705E-1,9.780313492E0,-1.532289088E-1
4.838795430E-1,-1.221042871E-1,9.770736694E0,7.182605099E-3
4.858937030E-1,-1.460463107E-1,9.756371498E0,1.795651317E-1
4.878773450E-1,-1.723825186E-1,9.746794701E0,3.303998411E-1
4.898915050E-1,-1.987187415E-1,9.730035782E0,4.525041282E-1
4.919056660E-1,-2.226607651E-1,9.720458984E0,5.315127969E-1
4.938893080E-1,-2.561795712E-1,9.713275909E0,6.009446383E-1
4.959034680E-1,-3.016694188E-1,9.701305389E0,6.584054828E-1
4.978871110E-1,-4.572925270E-1,9.646238327E0,1.144428372E0
4.999012710E-1,-7.852981687E-1,9.502586365E0,2.159569979E0
5.019154310E-1,-8.499416113E-1,9.406818390E0,2.310404539E0
5.038990740E-1,-6.847416759E-1,9.394847870E0,1.685518026E0
5.059132340E-1,-4.740519226E-1,9.423578262E0,1.024718285E0
5.078968760E-1,-3.160346150E-1,9.478644371E0,5.985504389E-1
5.098805190E-1,-2.154781520E-1,9.550470352E0,3.567360640E-1
5.118946790E-1,-1.651999205E-1,9.617507935E0,2.035071403E-1
5.138783220E-1,-1.556231081E-1,9.679757118E0,9.337386489E-2
5.158619640E-1,-1.723825186E-1,9.727641106E0,2.873042040E-2
5.178761250E-1,-2.059013397E-1,9.775525093E0,9.576806799E-3
5.198597670E-1,-2.657563984E-1,9.821015358E0,1.675941236E-2
5.218434100E-1,-3.375824392E-1,9.852140427E0,3.591302410E-2
5.238575700E-1,-3.758896589E-1,9.876082420E0,6.703764945E-2
5.258412120E-1,-3.782838583E-1,9.890447617E0,8.619125932E-2
5.278553730E-1,-3.758896589E-1,9.895236015E0,9.816227108E-2
5.298390150E-1,-3.280056417E-1,9.878476143E0,1.316810995E-1
5.318226580E-1,-1.963245422E-1,9.832986832E0,2.202665508E-1
5.338368180E-1,-8.379705995E-2,9.773131371E0,2.609679997E-1
5.358204600E-1,-1.101332754E-1,9.706093788E0,1.963245422E-1
5.378041030E-1,-1.819593310E-1,9.682151794E0,9.576806426E-2
5.398182630E-1,-2.059013397E-1,9.706093788E0,7.182605099E-3
5.418324230E-1,-2.106897533E-1,9.737217903E0,-4.309562966E-2
5.438160660E-1,-2.226607651E-1,9.761159897E0,-8.140286058E-2
5.458302260E-1,-2.298433632E-1,9.763554573E0,-1.125274822E-1
5.478138690E-1,-2.394201756E-1,9.756371498E0,-1.388636976E-1
5.497975110E-1,-2.849099934E-1,9.753977776E0,-1.675941199E-1
5.518116710E-1,-3.878606856E-1,9.775525093E0,-2.059013397E-1
5.537953140E-1,-4.836287498E-1,9.799467087E0,-2.633621991E-1
5.557789570E-1,-5.363011956E-1,9.811438560E0,-3.232172430E-1
5.577931170E-1,-5.410895944E-1,9.813833237E0,-3.878606856E-1
5.598072770E-1,-5.075707436E-1,9.818621635E0,-4.501099288E-1
5.617909190E-1,-4.668693244E-1,9.811438560E0,-4.932055473E-1
5.638050800E-1,-4.333505034E-1,9.787496567E0,-5.099649429E-1
5.657887220E-1,-3.902548850E-1,9.765948296E0,-5.099649429E-1
5.678028820E-1,-3.471592367E-1,9.744400978E0,-5.075707436E-1
5.697865250E-1,-3.208230138E-1,9.720458984E0,-4.979939461E-1
5.717701680E-1,-3.088520169E-1,9.710882187E0,-4.955997467E-1
5.737538100E-1,-3.088520169E-1,9.708487511E0,-5.075707436E-1
5.757374530E-1,-2.992752194E-1,9.706093788E0,-5.243301988E-1
5.777516130E-1,-2.849099934E-1,9.708487511E0,-5.578489900E-1
5.797352550E-1,-2.968810201E-1,9.710882187E0,-5.793967843E-1
5.817188980E-1,-3.208230138E-1,9.710882187E0,-5.937620401E-1
5.837025410E-1,-3.423708379E-1,9.720458984E0,-5.961562395E-1
5.856861830E-1,-3.399766386E-1,9.739612579E0,-5.913678408E-1
5.876698260E-1,-3.327940404E-1,9.763554573E0,-5.841852427E-1
5.896534680E-1,-3.136404157E-1,9.785101891E0,-5.770025849E-1
5.916371110E-1,-2.992752194E-1,9.818621635E0,-5.674257874E-1
5.936512710E-1,-3.016694188E-1,9.849745750E0,-5.410895944E-1
5.956349140E-1,-3.016694188E-1,9.861717224E0,-5.243301988E-1
5.976185560E-1,-2.896983922E-1,9.880870819E0,-4.908113480E-1
5.996327160E-1,-2.801215947E-1,9.909601212E0,-4.596867263E-1
6.016163590E-1,-2.873041928E-1,9.945513725E0,-4.165911078E-1
6.036000010E-1,-2.777273953E-1,9.971850395E0,-3.495534360E-1
6.056141620E-1,-2.729389966E-1,9.995792389E0,-2.896983922E-1
6.075978040E-1,-2.801215947E-1,1.001015759E1,-2.346317619E-1
6.096119640E-1,-2.849099934E-1,1.001015759E1,-1.891419291E-1
6.116261250E-1,-2.896983922E-1,9.995792389E0,-1.436520964E-1
6.136097670E-1,-2.992752194E-1,9.995792389E0,-1.053448766E-1
6.156239270E-1,-3.064578176E-1,1.000536919E1,-6.703764945E-2
6.176075700E-1,-2.968810201E-1,1.000776291E1,-4.788403213E-2
6.196217300E-1,-2.825157940E-1,1.000536919E1,-5.746084079E-2
6.216053730E-1,-2.705447972E-1,1.000776291E1,-7.182604820E-2
6.235890150E-1,-2.753331959E-1,1.002452278E1,-7.422025502E-2
6.256031750E-1,-2.657563984E-1,1.004846478E1,-7.182604820E-2
6.275868180E-1,-2.513911724E-1,1.006043530E1,-6.943184882E-2
6.295704600E-1,-2.489969730E-1,1.006043530E1,-5.506663769E-2
6.315846210E-1,-2.561795712E-1,1.004846478E1,-4.070143029E-2
6.335682630E-1,-2.705447972E-1,1.003649330E1,-2.633621916E-2
6.355519060E-1,-2.825157940E-1,1.001733971E1,-1.675941236E-2
6.375660660E-1,-2.849099934E-1,1.000058079E1,-1.197100803E-2
6.395497090E-1,-2.801215947E-1,9.993397713E0,-1.915361360E-2
6.415333510E-1,-2.753331959E-1,9.983820915E0,-3.112462163E-2
6.435475110E-1,-2.657563984E-1,9.964667320E0,-3.351882473E-2
6.455311540E-1,-2.489969730E-1,9.938331604E0,-5.267243832E-2
6.475453140E-1,-2.489969730E-1,9.923966408E0,-6.943184882E-2
6.495594740E-1,-2.466027737E-1,9.914389610E0,-7.661445439E-2
6.515431170E-1,-2.394201756E-1,9.897629738E0,-9.097966552E-2
6.535267590E-1,-2.322375625E-1,9.890447617E0,-1.077390760E-1
6.555104020E-1,-2.298433632E-1,9.883264542E0,-1.221042871E-1
6.575245620E-1,-2.298433632E-1,9.871294022E0,-1.460463107E-1
6.595082050E-1,-2.178723514E-1,9.861717224E0,-1.867477298E-1
6.614918470E-1,-2.130839527E-1,9.844957352E0,-2.250549644E-1
6.634754900E-1,-2.011129409E-1,9.830592155E0,-2.681505978E-1
6.654591320E-1,-1.843535304E-1,9.818621635E0,-3.088520169E-1
6.674427750E-1,-1.819593310E-1,9.813833237E0,-3.447650373E-1
6.694569350E-1,-1.819593310E-1,9.813833237E0,-3.711012602E-1
6.714710950E-1,-1.939303428E-1,9.816226959E0,-3.902548850E-1
6.734547380E-1,-2.106897533E-1,9.825803757E0,-4.094084799E-1
6.754383800E-1,-2.250549644E-1,9.832986832E0,-4.285621047E-1
6.774220230E-1,-2.513911724E-1,9.828198433E0,-4.357447028E-1
6.794361830E-1,-2.849099934E-1,9.813833237E0,-4.453215301E-1
6.814198260E-1,-3.112462163E-1,9.801861763E0,-4.668693244E-1
6.834034680E-1,-3.351882398E-1,9.792284966E0,-4.955997467E-1
6.854176280E-1,-3.519476354E-1,9.785101891E0,-5.099649429E-1
6.874012710E-1,-3.734954596E-1,9.782708168E0,-5.147533417E-1
6.894154310E-1,-3.950432837E-1,9.785101891E0,-5.267243981E-1
6.913990740E-1,-4.094084799E-1,9.782708168E0,-5.434837937E-1
6.933827160E-1,-4.261679053E-1,9.773131371E0,-5.626373887E-1
6.953968760E-1,-4.596867263E-1,9.756371498E0,-5.650315881E-1
6.974110370E-1,-4.908113480E-1,9.751583099E0,-5.530605912E-1
6.993946790E-1,-5.147533417E-1,9.749189377E0,-5.410895944E-1
7.014088390E-1,-5.386953950E-1,9.737217903E0,-5.291185975E-1
7.033924820E-1,-5.578489900E-1,9.720458984E0,-5.171475410E-1
7.054066420E-1,-5.698199868E-1,9.710882187E0,-5.147533417E-1
7.073902850E-1,-5.817909837E-1,9.698910713E0,-4.979939461E-1
7.093739270E-1,-5.937620401E-1,9.679757118E0,-4.788403511E-1
7.113575700E-1,-6.057330370E-1,9.670180321E0,-4.716577232E-1
7.133717300E-1,-6.272808313E-1,9.667786598E0,-4.644751251E-1
7.153858900E-1,-6.368576288E-1,9.658209801E0,-4.501099288E-1
7.173695330E-1,-6.440402865E-1,9.646238327E0,-4.381389022E-1
7.193531750E-1,-6.536170840E-1,9.631873131E0,-4.261679053E-1
7.213368180E-1,-6.631938815E-1,9.619902611E0,-4.022258818E-1
7.233509780E-1,-6.703764796E-1,9.615114212E0,-3.758896589E-1
7.253346210E-1,-6.799532771E-1,9.612719536E0,-3.543418646E-1
7.273182630E-1,-6.823474765E-1,9.615114212E0,-3.351882398E-1
7.293324230E-1,-6.823474765E-1,9.612719536E0,-3.184288144E-1
7.313465840E-1,-6.799532771E-1,9.605537415E0,-3.160346150E-1
7.333302260E-1,-6.823474765E-1,9.598354340E0,-3.208230138E-1
7.353443860E-1,-6.895300746E-1,9.586383820E0,-3.232172430E-1
7.373585460E-1,-6.871358752E-1,9.576807022E0,-3.160346150E-1
7.393421890E-1,-6.919242740E-1,9.574412346E0,-3.064578176E-1
7.413563490E-1,-6.991068721E-1,9.564835548E0,-3.088520169E-1
7.433399920E-1,-6.967126727E-1,9.555258751E0,-3.208230138E-1
7.453541520E-1,-6.871358752E-1,9.552865028E0,-3.232172430E-1
7.473377940E-1,-6.943184733E-1,9.552865028E0,-3.184288144E-1
7.493519550E-1,-6.967126727E-1,9.560047150E0,-3.136404157E-1
7.513355970E-1,-6.967126727E-1,9.562441826E0,-3.160346150E-1
7.533497570E-1,-6.919242740E-1,9.560047150E0,-3.136404157E-1
7.553639180E-1,-6.847416759E-1,9.560047150E0,-3.184288144E-1
7.573475600E-1,-6.799532771E-1,9.567230225E0,-3.280056417E-1
7.593312030E-1,-6.823474765E-1,9.574412346E0,-3.303998411E-1
7.613148450E-1,-6.799532771E-1,9.581595421E0,-3.399766386E-1
7.633290050E-1,-6.703764796E-1,9.586383820E0,-3.495534360E-1
7.653126480E-1,-6.703764796E-1,9.588777542E0,-3.615244627E-1
7.673268080E-1,-6.799532771E-1,9.595960617E0,-3.734954596E-1
7.693104510E-1,-6.847416759E-1,9.603142738E0,-3.878606856E-1
7.712940930E-1,-6.871358752E-1,9.603142738E0,-3.998316824E-1
7.733082530E-1,-6.847416759E-1,9.603142738E0,-4.141969085E-1
7.753224140E-1,-6.799532771E-1,9.615114212E0,-4.285621047E-1
7.773060560E-1,-6.799532771E-1,9.641449928E0,-4.453215301E-1
7.793202160E-1,-6.847416759E-1,9.679757118E0,-4.620809257E-1
7.813343760E-1,-6.895300746E-1,9.710882187E0,-4.812345505E-1
7.833180190E-1,-6.967126727E-1,9.739612579E0,-5.003881454E-1
7.853321790E-1,-6.943184733E-1,9.753977776E0,-5.099649429E-1
7.873158220E-1,-6.919242740E-1,9.758766174E0,-5.267243981E-1
7.892994640E-1,-7.086837292E-1,9.758766174E0,-5.410895944E-1
7.913136250E-1,-7.134721279E-1,9.765948296E0,-5.530605912E-1
7.932972670E-1,-7.062895298E-1,9.777919769E0,-5.626373887E-1
7.952809100E-1,-7.158663273E-1,9.787496567E0,-5.626373887E-1
7.972950700E-1,-7.302315235E-1,9.799467087E0,-5.626373887E-1
7.992787120E-1,-7.302315235E-1,9.811438560E0,-5.650315881E-1
8.012623550E-1,-7.302315235E-1,9.821015358E0,-5.650315881E-1
8.032765150E-1,-7.254431248E-1,9.823410034E0,-5.841852427E-1
8.052601580E-1,-7.350199223E-1,9.825803757E0,-5.961562395E-1
8.072743180E-1,-7.517793179E-1,9.828198433E0,-5.937620401E-1
8.092884780E-1,-7.661445141E-1,9.830592155E0,-5.937620401E-1
8.112721210E-1,-7.685387731E-1,9.830592155E0,-6.033388376E-1
8.132862810E-1,-7.613561153E-1,9.823410034E0,-6.033388376E-1
8.152699230E-1,-7.445967197E-1,9.811438560E0,-6.153098345E-1
8.172840840E-1,-7.302315235E-1,9.799467087E0,-6.392518282E-1
8.192677260E-1,-7.182605267E-1,9.792284966E0,-6.584054828E-1
8.212513690E-1,-7.038952708E-1,9.780313492E0,-6.679822803E-1
8.232655290E-1,-6.799532771E-1,9.763554573E0,-6.847416759E-1
8.252491710E-1,-6.631938815E-1,9.744400978E0,-7.015010715E-1
8.272328140E-1,-6.607996821E-1,9.732429504E0,-7.038952708E-1
8.292469740E-1,-6.536170840E-1,9.725247383E0,-6.967126727E-1
8.312306170E-1,-6.560112834E-1,9.722852707E0,-6.847416759E-1
8.332142590E-1,-6.655880809E-1,9.710882187E0,-6.823474765E-1
8.352284190E-1,-6.679822803E-1,9.694122314E0,-6.895300746E-1
8.372120620E-1,-6.751648784E-1,9.682151794E0,-6.943184733E-1
8.391957050E-1,-6.775590777E-1,9.682151794E0,-6.991068721E-1
8.412098650E-1,-6.895300746E-1,9.686940193E0,-6.991068721E-1
8.431935070E-1,-7.086837292E-1,9.686940193E0,-6.991068721E-1
8.451771500E-1,-7.374141216E-1,9.684545517E0,-6.895300746E-1
8.471302750E-1,-7.637503147E-1,9.689333916E0,-6.823474765E-1
8.491444350E-1,-7.781155705E-1,9.703699112E0,-6.847416759E-1
8.511280780E-1,-8.020575643E-1,9.718064308E0,-6.919242740E-1
8.531117200E-1,-8.307880163E-1,9.730035782E0,-7.038952708E-1
8.551258800E-1,-8.499416113E-1,9.744400978E0,-7.086837292E-1
8.571095230E-1,-8.499416113E-1,9.751583099E0,-7.110779285E-1
8.590931660E-1,-8.499416113E-1,9.763554573E0,-7.230489254E-1
8.611073260E-1,-8.427590132E-1,9.770736694E0,-7.350199223E-1
8.631214860E-1,-8.427590132E-1,9.773131371E0,-7.374141216E-1
8.651051280E-1,-8.571242094E-1,9.806650162E0,-7.278373241E-1
8.670887710E-1,-8.571242094E-1,9.864110947E0,-7.374141216E-1
8.690724140E-1,-8.475474119E-1,9.911994934E0,-7.565677166E-1
8.710560560E-1,-8.331822157E-1,9.945513725E0,-7.637503147E-1
8.730702160E-1,-8.212111592E-1,9.969455719E0,-7.637503147E-1
8.750538590E-1,-8.164227605E-1,9.998186111E0,-7.733271718E-1
8.770375010E-1,-8.283938169E-1,1.002212811E1,-7.829039693E-1
8.790516620E-1,-8.379706144E-1,1.004128170E1,-7.829039693E-1
8.810353040E-1,-8.403648138E-1,1.004846478E1,-7.805097699E-1
8.830189470E-1,-8.475474119E-1,1.005564690E1,-7.876923680E-1
8.850331070E-1,-8.547300100E-1,1.006043530E1,-8.068459630E-1
8.870167500E-1,-8.499416113E-1,1.007001209E1,-8.236053586E-1
8.890003920E-1,-8.355764151E-1,1.007958889E1,-8.355764151E-1
8.909840350E-1,-8.331822157E-1,1.008198357E1,-8.475474119E-1
8.929981950E-1,-8.331822157E-1,1.007719517E1,-8.643068075E-1
8.949818370E-1,-8.475474119E-1,1.006282997E1,-8.858546019E-1
8.969654800E-1,-8.714894056E-1,1.003888798E1,-9.050082564E-1
8.989796400E-1,-8.978256583E-1,1.002452278E1,-9.169792533E-1
9.009632830E-1,-9.074024558E-1,1.001494598E1,-9.265560508E-1
9.029469250E-1,-9.097966552E-1,9.995792389E0,-9.385270476E-1
9.049610850E-1,-9.121908545E-1,9.971850395E0,-9.457096457E-1
9.069447280E-1,-9.097966552E-1,9.957485199E0,-9.552865028E-1
9.089283710E-1,-9.074024558E-1,9.933543205E0,-9.720458984E-1
9.109425310E-1,-9.026140571E-1,9.911994934E0,-9.744400978E-1
9.129261730E-1,-9.002198577E-1,9.890447617E0,-9.696516991E-1
9.149098160E-1,-8.954314590E-1,9.859322548E0,-9.576807022E-1
9.169239760E-1,-8.930372596E-1,9.828198433E0,-9.385270476E-1
9.189076190E-1,-8.930372596E-1,9.804255486E0,-9.074024558E-1
9.208912610E-1,-9.002198577E-1,9.780313492E0,-8.738836050E-1
9.229054210E-1,-9.026140571E-1,9.751583099E0,-8.475474119E-1
9.248890640E-1,-8.954314590E-1,9.722852707E0,-8.307880163E-1
9.269032240E-1,-8.882488012E-1,9.701305389E0,-8.283938169E-1
9.288868670E-1,-8.714894056E-1,9.679757118E0,-8.236053586E-1
9.308705090E-1,-8.547300100E-1,9.660603523E0,-8.212111592E-1
9.328846690E-1,-8.427590132E-1,9.653421402E0,-8.236053586E-1
9.348683120E-1,-8.236053586E-1,9.639056206E0,-8.259995580E-1
9.368519550E-1,-7.996633649E-1,9.619902611E0,-8.307880163E-1
9.388661150E-1,-7.757213712E-1,9.605537415E0,-8.307880163E-1
9.408802750E-1,-7.637503147E-1,9.595960617E0,-8.283938169E-1
9.428639180E-1,-7.493851185E-1,9.591172218E0,-8.307880163E-1
9.448780780E-1,-7.326257229E-1,9.586383820E0,-8.307880163E-1
9.468617200E-1,-7.182605267E-1,9.576807022E0,-8.307880163E-1
9.488453630E-1,-7.086837292E-1,9.567230225E0,-8.331822157E-1
9.508595230E-1,-7.038952708E-1,9.555258751E0,-8.355764151E-1
9.528431660E-1,-7.015010715E-1,9.545681953E0,-8.475474119E-1
9.548268080E-1,-6.919242740E-1,9.538499832E0,-8.690952063E-1
9.568409680E-1,-6.847416759E-1,9.543288231E0,-8.810662031E-1
9.588551280E-1,-6.823474765E-1,9.538499832E0,-8.906430602E-1
9.608387710E-1,-6.775590777E-1,9.533711433E0,-9.026140571E-1
9.628529310E-1,-6.679822803E-1,9.533711433E0,-9.097966552E-1
9.648365740E-1,-6.584054828E-1,9.533711433E0,-9.193734527E-1
9.668507340E-1,-6.416460276E-1,9.540893555E0,-9.385270476E-1
9.688343760E-1,-6.224924326E-1,9.548076630E0,-9.600749016E-1
9.708485370E-1,-6.081272364E-1,9.560047150E0,-9.696516991E-1
9.728321790E-1,-5.985504389E-1,9.576807022E0,-9.768342972E-1
9.748158220E-1,-5.937620401E-1,9.591172218E0,-9.888052940E-1
9.768299820E-1,-5.865794420E-1,9.600749016E0,-1.000776291E0
9.788136250E-1,-5.674257874E-1,9.603142738E0,-1.003170490E0
9.807972670E-1,-5.554547906E-1,9.612719536E0,-1.000776291E0
9.827809100E-1,-5.650315881E-1,9.636661530E0,-9.959878922E-1
9.847645520E-1,-5.674257874E-1,9.646238327E0,-9.911994934E-1
9.867787120E-1,-5.554547906E-1,9.662998199E0,-9.959878922E-1
9.887928730E-1,-5.458779931E-1,9.679757118E0,-9.983820915E-1
9.907765150E-1,-5.339069963E-1,9.689333916E0,-1.005564690E0
9.927601580E-1,-5.339069963E-1,9.701305389E0,-1.015141487E0
9.947743180E-1,-5.339069963E-1,9.720458984E0,-1.017535686E0
9.967579600E-1,-5.267243981E-1,9.751583099E0,-1.027112484E0
9.987416030E-1,-5.219359994E-1,9.780313492E0,-1.024718285E0
1.000755763E0,-5.171475410E-1,9.801861763E0,-1.015141487E0
1.002769923E0,-5.147533417E-1,9.825803757E0,-1.007958889E0
1.004753566E0,-5.027823448E-1,9.847352028E0,-1.000776291E0
1.006706691E0,-4.884171486E-1,9.866505623E0,-9.959878922E-1
1.008720851E0,-4.812345505E-1,9.880870819E0,-9.959878922E-1
1.010704494E0,-4.716577232E-1,9.897629738E0,-9.768342972E-1
1.012688136E0,-4.548983276E-1,9.919178009E0,-9.624691010E-1
1.014702296E0,-4.501099288E-1,9.931148529E0,-9.648633003E-1
1.016716457E0,-4.429273009E-1,9.945513725E0,-9.648633003E-1
1.018700099E0,-4.477157295E-1,9.959878922E0,-9.552865028E-1
1.020714259E0,-4.477157295E-1,9.967061996E0,-9.337386489E-1
1.022728419E0,-4.405331016E-1,9.969455719E0,-9.193734527E-1
1.024712062E0,-4.333505034E-1,9.971850395E0,-9.193734527E-1
1.026695705E0,-4.309563041E-1,9.974244118E0,-9.097966552E-1
1.028679347E0,-4.285621047E-1,9.971850395E0,-8.978256583E-1
1.030662990E0,-4.165911078E-1,9.981427193E0,-8.978256583E-1
1.032677150E0,-4.046200812E-1,9.983820915E0,-8.930372596E-1
1.034691310E0,-3.950432837E-1,9.979032516E0,-8.930372596E-1
1.036674953E0,-3.902548850E-1,9.974244118E0,-8.978256583E-1
1.038689113E0,-3.902548850E-1,9.986215591E0,-8.906430602E-1
1.040672755E0,-3.806780577E-1,9.988609314E0,-8.786720037E-1
1.042686916E0,-3.615244627E-1,9.976638794E0,-8.714894056E-1
1.044640041E0,-3.495534360E-1,9.971850395E0,-8.738836050E-1
1.046654201E0,-3.447650373E-1,9.959878922E0,-8.762778044E-1
1.048637843E0,-3.519476354E-1,9.943120003E0,-8.643068075E-1
1.050621486E0,-3.591302633E-1,9.928754807E0,-8.595184088E-1
1.052635646E0,-3.591302633E-1,9.911994934E0,-8.475474119E-1
1.054619289E0,-3.615244627E-1,9.900024414E0,-8.283938169E-1
1.056602931E0,-3.711012602E-1,9.883264542E0,-8.164227605E-1
1.058617091E0,-3.878606856E-1,9.868899345E0,-8.140285611E-1
1.060600734E0,-3.998316824E-1,9.861717224E0,-8.092401624E-1
1.062614894E0,-4.118026793E-1,9.856928825E0,-8.140285611E-1
1.064568019E0,-4.165911078E-1,9.854534149E0,-8.212111592E-1
1.066582179E0,-4.213795066E-1,9.844957352E0,-8.379706144E-1
1.068565822E0,-4.381389022E-1,9.830592155E0,-8.571242094E-1
1.070579982E0,-4.548983276E-1,9.821015358E0,-8.786720037E-1
1.072594142E0,-4.716577232E-1,9.818621635E0,-8.954314590E-1
1.074577785E0,-4.788403511E-1,9.811438560E0,-9.217676520E-1
1.076591945E0,-4.812345505E-1,9.797073364E0,-9.504981041E-1
1.078606105E0,-4.908113480E-1,9.787496567E0,-9.720458984E-1
1.080589748E0,-5.027823448E-1,9.777919769E0,-9.911994934E-1
1.082573390E0,-5.147533417E-1,9.758766174E0,-1.012747288E0
1.084557033E0,-5.315127969E-1,9.739612579E0,-1.041477680E0
1.086540675E0,-5.410895944E-1,9.722852707E0,-1.060631394E0
1.088524318E0,-5.363011956E-1,9.706093788E0,-1.079784989E0
1.090538478E0,-5.243301988E-1,9.689333916E0,-1.108515382E0
1.092552638E0,-5.147533417E-1,9.670180321E0,-1.127668977E0
1.094536281E0,-5.051765442E-1,9.651026726E0,-1.149216771E0
1.096550441E0,-5.099649429E-1,9.624691010E0,-1.168370485E0
1.098564601E0,-5.195417404E-1,9.598354340E0,-1.180341482E0
1.100548244E0,-5.291185975E-1,9.586383820E0,-1.194706678E0
1.102562404E0,-5.458779931E-1,9.576807022E0,-1.223437071E0
1.104546046E0,-5.530605912E-1,9.572018623E0,-1.259350061E0
1.106529689E0,-5.363011956E-1,9.555258751E0,-1.290474772E0
1.108543849E0,-5.243301988E-1,9.533711433E0,-1.302445769E0
1.110527492E0,-5.363011956E-1,9.521739960E0,-1.302445769E0
1.112511134E0,-5.458779931E-1,9.497797966E0,-1.304839969E0
1.114525294E0,-5.602431893E-1,9.481039047E0,-1.307234168E0
1.116539455E0,-5.746083856E-1,9.473855972E0,-1.307234168E0
1.118523097E0,-5.793967843E-1,9.471462250E0,-1.321599364E0
1.120537257E0,-5.770025849E-1,9.471462250E0,-1.340752959E0
1.122551418E0,-5.770025849E-1,9.466673851E0,-1.347935557E0
1.124535060E0,-5.770025849E-1,9.461885452E0,-1.333570361E0
1.126518703E0,-5.865794420E-1,9.457097054E0,-1.304839969E0
1.128502345E0,-5.985504389E-1,9.440337181E0,-1.276109457E0
1.130516505E0,-6.057330370E-1,9.430760384E0,-1.273715258E0
1.132500148E0,-6.224924326E-1,9.421183586E0,-1.278503656E0
1.134483791E0,-6.416460276E-1,9.409213066E0,-1.273715258E0
1.136497951E0,-6.536170840E-1,9.399636269E0,-1.261744261E0
1.138512111E0,-6.679822803E-1,9.394847870E0,-1.254561663E0
1.140495753E0,-6.823474765E-1,9.392453194E0,-1.264138460E0
1.142509914E0,-7.038952708E-1,9.397241592E0,-1.288080573E0
1.144493556E0,-7.230489254E-1,9.406818390E0,-1.300051570E0
1.146477199E0,-7.398083210E-1,9.416395187E0,-1.309628367E0
1.148491359E0,-7.661445141E-1,9.428366661E0,-1.300051570E0
1.150475001E0,-7.924807668E-1,9.445125580E0,-1.268926859E0
1.152458644E0,-8.188169599E-1,9.466673851E0,-1.237802267E0
1.154472804E0,-8.403648138E-1,9.483432770E0,-1.221042871E0
1.156486964E0,-8.643068075E-1,9.504981041E0,-1.213860273E0
1.158470607E0,-8.978256583E-1,9.524134636E0,-1.197100878E0
1.160454250E0,-9.313444495E-1,9.540893555E0,-1.182735682E0
1.162437892E0,-9.481038451E-1,9.555258751E0,-1.180341482E0
1.164452052E0,-9.624691010E-1,9.562441826E0,-1.187524080E0
1.166435695E0,-9.600749016E-1,9.576807022E0,-1.204283476E0
1.168449855E0,-9.528923035E-1,9.603142738E0,-1.209071875E0
1.170433498E0,-9.313444495E-1,9.612719536E0,-1.192312479E0
1.172417140E0,-8.978256583E-1,9.615114212E0,-1.177947283E0
1.174431300E0,-8.523358107E-1,9.605537415E0,-1.180341482E0
1.176445460E0,-8.116343617E-1,9.598354340E0,-1.192312479E0
1.178429103E0,-7.829039693E-1,9.593565941E0,-1.204283476E0
1.180443263E0,-7.541735172E-1,9.593565941E0,-1.240196466E0
1.182457423E0,-7.326257229E-1,9.612719536E0,-1.297657371E0
1.184441066E0,-7.469909191E-1,9.619902611E0,-1.309628367E0
1.186424709E0,-7.733271718E-1,9.605537415E0,-1.307234168E0
1.188408351E0,-8.116343617E-1,9.600749016E0,-1.323993564E0
1.190391994E0,-8.451532125E-1,9.615114212E0,-1.357512355E0
1.192406154E0,-9.002198577E-1,9.646238327E0,-1.405396342E0
1.194389796E0,-9.696516991E-1,9.674968719E0,-1.446097851E0
1.196373439E0,-1.031900883E0,9.694122314E0,-1.465251446E0
1.198387599E0,-1.074996591E0,9.708487511E0,-1.479616642E0
1.200401759E0,-1.091755986E0,9.739612579E0,-1.508347034E0
1.202385402E0,-1.106121182E0,9.782708168E0,-1.527500629E0
1.204399562E0,-1.127668977E0,9.816226959E0,-1.527500629E0
1.206383205E0,-1.154005170E0,9.842563629E0,-1.520318031E0
1.208397365E0,-1.168370485E0,9.852140427E0,-1.498770237E0
1.210381007E0,-1.158793569E0,9.856928825E0,-1.479616642E0
1.212395168E0,-1.154005170E0,9.852140427E0,-1.455674648E0
1.214378810E0,-1.156399369E0,9.830592155E0,-1.417367458E0
1.216362453E0,-1.165976286E0,9.806650162E0,-1.374271750E0
1.218376613E0,-1.187524080E0,9.777919769E0,-1.338358760E0
1.220360255E0,-1.209071875E0,9.742006302E0,-1.292868972E0
1.222343898E0,-1.211466074E0,9.701305389E0,-1.249773264E0
1.224358058E0,-1.216254473E0,9.660603523E0,-1.228225470E0
1.226341701E0,-1.216254473E0,9.627084732E0,-1.235408068E0
1.228325343E0,-1.221042871E0,9.612719536E0,-1.247379065E0
1.230308986E0,-1.237802267E0,9.588777542E0,-1.280897856E0
1.232323146E0,-1.261744261E0,9.581595421E0,-1.319205165E0
1.234337306E0,-1.295263171E0,9.586383820E0,-1.345541358E0
1.236320949E0,-1.321599364E0,9.586383820E0,-1.350329757E0
1.238304591E0,-1.362300754E0,9.576807022E0,-1.343147159E0
1.240288234E0,-1.400607944E0,9.564835548E0,-1.326387763E0
1.242302394E0,-1.422155857E0,9.545681953E0,-1.295263171E0
1.244255519E0,-1.434126854E0,9.524134636E0,-1.261744261E0
1.246269679E0,-1.438915253E0,9.512163162E0,-1.233013868E0
1.248253322E0,-1.448492050E0,9.509769440E0,-1.206677675E0
1.250236964E0,-1.470039845E0,9.509769440E0,-1.192312479E0
1.252251125E0,-1.498770237E0,9.514557838E0,-1.175553083E0
1.254265285E0,-1.551442742E0,9.509769440E0,-1.127668977E0
1.256248927E0,-1.601720929E0,9.488221169E0,-1.084573388E0
1.258263087E0,-1.647210717E0,9.457097054E0,-1.067813993E0
1.260246730E0,-1.685518026E0,9.430760384E0,-1.065419793E0
1.262230373E0,-1.726219416E0,9.414001465E0,-1.079784989E0
1.264244533E0,-1.764526606E0,9.406818390E0,-1.110909581E0
1.266228175E0,-1.795651317E0,9.402029991E0,-1.149216771E0
1.268211818E0,-1.814804912E0,9.387664795E0,-1.187524080E0
1.270225978E0,-1.812410712E0,9.375694275E0,-1.237802267E0
1.272209621E0,-1.800439715E0,9.378087997E0,-1.290474772E0
1.274193263E0,-1.807622313E0,9.397241592E0,-1.331176162E0
1.276207423E0,-1.819593310E0,9.425971985E0,-1.362300754E0
1.278191066E0,-1.829170108E0,9.461885452E0,-1.386242747E0
1.280174709E0,-1.845929503E0,9.497797966E0,-1.403002143E0
1.282188869E0,-1.857900500E0,9.514557838E0,-1.417367458E0
1.284172511E0,-1.860294700E0,9.526528358E0,-1.424550056E0
1.286186671E0,-1.857900500E0,9.548076630E0,-1.429338455E0
1.288170314E0,-1.850717902E0,9.567230225E0,-1.434126854E0
1.290184474E0,-1.841141105E0,9.579200745E0,-1.446097851E0
1.292168117E0,-1.838746905E0,9.591172218E0,-1.455674648E0
1.294151759E0,-1.836352706E0,9.605537415E0,-1.450886250E0
1.296165919E0,-1.819593310E0,9.615114212E0,-1.443703651E0
1.298149562E0,-1.795651317E0,9.617507935E0,-1.434126854E0
1.300133205E0,-1.762132406E0,9.607931137E0,-1.436521053E0
1.302147365E0,-1.716642618E0,9.595960617E0,-1.441309452E0
1.304131007E0,-1.680729628E0,9.588777542E0,-1.438915253E0
1.306114650E0,-1.675941229E0,9.579200745E0,-1.424550056E0
1.308128810E0,-1.702277422E0,9.574412346E0,-1.391031146E0
1.310112453E0,-1.731007814E0,9.574412346E0,-1.357512355E0
1.312096095E0,-1.754949808E0,9.555258751E0,-1.331176162E0
1.314110255E0,-1.776497602E0,9.528923035E0,-1.304839969E0
1.316093898E0,-1.790862918E0,9.509769440E0,-1.273715258E0
1.318077541E0,-1.802833915E0,9.502586365E0,-1.254561663E0
1.320091701E0,-1.798045516E0,9.485827446E0,-1.247379065E0
1.322105861E0,-1.783680320E0,9.457097054E0,-1.221042871E0
1.324089503E0,-1.764526606E0,9.430760384E0,-1.177947283E0
1.326073146E0,-1.742978811E0,9.406818390E0,-1.137245774E0
1.328056789E0,-1.716642618E0,9.382876396E0,-1.103726983E0
1.330070949E0,-1.697489023E0,9.361329079E0,-1.072602391E0
1.332054591E0,-1.695094824E0,9.332598686E0,-1.046266198E0
1.334038234E0,-1.709460020E0,9.311050415E0,-1.022324085E0
1.336052394E0,-1.726219416E0,9.301473618E0,-9.959878922E-1
1.338036037E0,-1.750161409E0,9.291896820E0,-9.792284966E-1
1.340019679E0,-1.790862918E0,9.282320023E0,-9.672574997E-1
1.342033839E0,-1.826775908E0,9.279925346E0,-9.528923035E-1
1.344017482E0,-1.841141105E0,9.279925346E0,-9.409212470E-1
1.346001125E0,-1.850717902E0,9.267954826E0,-9.457096457E-1
1.348015285E0,-1.855506301E0,9.258378029E0,-9.528923035E-1
1.349998927E0,-1.865083098E0,9.255983353E0,-9.504981041E-1
1.351982570E0,-1.877054095E0,9.258378029E0,-9.481038451E-1
1.353996730E0,-1.896207690E0,9.260771751E0,-9.265560508E-1
1.356010890E0,-1.903390408E0,9.253589630E0,-9.026140571E-1
1.357994533E0,-1.903390408E0,9.265560150E0,-8.834604025E-1
1.359978175E0,-1.903390408E0,9.282320023E0,-8.643068075E-1
1.361961818E0,-1.898601890E0,9.287108421E0,-8.523358107E-1
1.363975978E0,-1.896207690E0,9.296685219E0,-8.307880163E-1
1.365929103E0,-1.893813491E0,9.318233490E0,-8.236053586E-1
1.367943263E0,-1.881842494E0,9.354146004E0,-8.451532125E-1
1.369926906E0,-1.860294700E0,9.385271072E0,-8.690952063E-1
1.371910548E0,-1.848323703E0,9.399636269E0,-8.810662031E-1
1.373924709E0,-1.824381709E0,9.414001465E0,-9.050082564E-1
1.375938869E0,-1.802833915E0,9.416395187E0,-9.265560508E-1
1.377922511E0,-1.783680320E0,9.430760384E0,-9.433154464E-1
1.379906154E0,-1.764526606E0,9.452308655E0,-9.672574997E-1
1.381889796E0,-1.762132406E0,9.485827446E0,-1.000776291E0
1.383903957E0,-1.774103403E0,9.526528358E0,-1.024718285E0
1.385887599E0,-1.793257117E0,9.543288231E0,-1.031900883E0
1.387871242E0,-1.802833915E0,9.557653427E0,-1.031900883E0
1.389854884E0,-1.788468719E0,9.598354340E0,-1.036689281E0
1.391869044E0,-1.759738207E0,9.653421402E0,-1.074996591E0
1.393883205E0,-1.731007814E0,9.706093788E0,-1.125274777E0
1.395866847E0,-1.707065821E0,9.749189377E0,-1.170764685E0
1.397881007E0,-1.695094824E0,9.768342972E0,-1.209071875E0
1.399895168E0,-1.685518026E0,9.763554573E0,-1.225831270E0
1.401878810E0,-1.697489023E0,9.749189377E0,-1.230619669E0
1.403892970E0,-1.728613615E0,9.744400978E0,-1.235408068E0
1.405876613E0,-1.740584612E0,9.751583099E0,-1.247379065E0
1.407890773E0,-1.735796213E0,9.758766174E0,-1.249773264E0
1.409904933E0,-1.726219416E0,9.746794701E0,-1.242590666E0
1.411888576E0,-1.723825216E0,9.751583099E0,-1.244984865E0
1.413902736E0,-1.731007814E0,9.753977776E0,-1.247379065E0
1.415916896E0,-1.728613615E0,9.737217903E0,-1.221042871E0
1.417900539E0,-1.704671621E0,9.694122314E0,-1.180341482E0
1.419884181E0,-1.683123827E0,9.639056206E0,-1.127668977E0
1.421867824E0,-1.678335428E0,9.607931137E0,-1.077390790E0
1.423881984E0,-1.673547029E0,9.591172218E0,-1.048660398E0
1.425865626E0,-1.675941229E0,9.586383820E0,-1.039083481E0
1.427879787E0,-1.666364431E0,9.586383820E0,-1.034295082E0
1.429863429E0,-1.656787634E0,9.583989143E0,-1.041477680E0
1.431877589E0,-1.656787634E0,9.572018623E0,-1.031900883E0
1.433891750E0,-1.637633920E0,9.552865028E0,-1.015141487E0
1.435875392E0,-1.613691926E0,9.533711433E0,-9.983820915E-1
1.437889552E0,-1.592144132E0,9.528923035E0,-9.816226959E-1
1.439903712E0,-1.572990537E0,9.526528358E0,-9.552865028E-1
1.441887355E0,-1.549048543E0,9.516951561E0,-9.217676520E-1
1.443870998E0,-1.517923832E0,9.497797966E0,-8.906430602E-1
1.445854640E0,-1.493981838E0,9.471462250E0,-8.523358107E-1
1.447838283E0,-1.472434044E0,9.452308655E0,-8.307880163E-1
1.449821925E0,-1.448492050E0,9.459490776E0,-8.259995580E-1
1.451836085E0,-1.417367458E0,9.476250648E0,-8.212111592E-1
1.453819728E0,-1.391031146E0,9.504981041E0,-8.092401624E-1
1.455803371E0,-1.364694953E0,9.543288231E0,-8.403648138E-1
1.457817531E0,-1.340752959E0,9.583989143E0,-8.810662031E-1
1.459801173E0,-1.323993564E0,9.598354340E0,-8.954314590E-1
1.461815334E0,-1.309628367E0,9.600749016E0,-9.026140571E-1
1.463798976E0,-1.297657371E0,9.615114212E0,-9.265560508E-1
1.465782619E0,-1.288080573E0,9.624691010E0,-9.409212470E-1
1.467766261E0,-1.283292055E0,9.631873131E0,-9.385270476E-1
1.469780421E0,-1.288080573E0,9.651026726E0,-9.528923035E-1
1.471764064E0,-1.254561663E0,9.653421402E0,-9.768342972E-1
1.473747707E0,-1.194706678E0,9.641449928E0,-1.003170490E0
1.475761867E0,-1.142034173E0,9.636661530E0,-1.027112484E0
1.477745509E0,-1.091755986E0,9.619902611E0,-1.036689281E0
1.479759669E0,-1.065419793E0,9.605537415E0,-1.041477680E0
1.481743312E0,-1.067813993E0,9.588777542E0,-1.051054597E0
1.483726955E0,-1.098938584E0,9.579200745E0,-1.091755986E0
1.485710597E0,-1.139639974E0,9.579200745E0,-1.158793569E0
1.487694240E0,-1.163581967E0,9.574412346E0,-1.213860273E0
1.489708400E0,-1.182735682E0,9.569623947E0,-1.266532660E0
1.491722560E0,-1.194706678E0,9.581595421E0,-1.302445769E0
1.493706203E0,-1.161187768E0,9.595960617E0,-1.307234168E0
1.495720363E0,-1.115697980E0,9.583989143E0,-1.292868972E0
1.497734523E0,-1.072602391E0,9.567230225E0,-1.285686255E0
1.499718166E0,-1.058237195E0,9.569623947E0,-1.292868972E0
1.501732326E0,-1.053448796E0,9.567230225E0,-1.302445769E0
1.503715968E0,-1.053448796E0,9.581595421E0,-1.304839969E0
1.505699611E0,-1.074996591E0,9.603142738E0,-1.307234168E0
1.507713771E0,-1.115697980E0,9.622296333E0,-1.314416766E0
1.509697414E0,-1.134851575E0,9.629479408E0,-1.321599364E0
1.511681056E0,-1.132457376E0,9.619902611E0,-1.319205165E0
1.513695216E0,-1.118092179E0,9.595960617E0,-1.300051570E0
1.515678859E0,-1.134851575E0,9.598354340E0,-1.290474772E0
1.517662501E0,-1.173158884E0,9.619902611E0,-1.302445769E0
1.519676662E0,-1.206677675E0,9.627084732E0,-1.323993564E0
1.521660304E0,-1.223437071E0,9.634267807E0,-1.335964561E0
1.523643947E0,-1.228225470E0,9.639056206E0,-1.357512355E0
1.525627589E0,-1.225831270E0,9.655815125E0,-1.383848548E0
1.527611232E0,-1.209071875E0,9.674968719E0,-1.383848548E0
1.529625392E0,-1.187524080E0,9.694122314E0,-1.357512355E0
1.531609035E0,-1.168370485E0,9.720458984E0,-1.338358760E0
1.533592677E0,-1.149216771E0,9.751583099E0,-1.323993564E0
1.535606837E0,-1.149216771E0,9.768342972E0,-1.319205165E0
1.537590480E0,-1.163581967E0,9.799467087E0,-1.304839969E0
1.539574123E0,-1.173158884E0,9.821015358E0,-1.276109457E0
1.541557765E0,-1.192312479E0,9.847352028E0,-1.254561663E0
1.543541408E0,-1.209071875E0,9.876082420E0,-1.266532660E0
1.545555568E0,-1.197100878E0,9.895236015E0,-1.300051570E0
1.547569728E0,-1.170764685E0,9.897629738E0,-1.343147159E0
1.549553371E0,-1.134851575E0,9.895236015E0,-1.376665950E0
1.551537013E0,-1.113303781E0,9.900024414E0,-1.395819545E0
1.553551173E0,-1.108515382E0,9.907206535E0,-1.400607944E0
1.555565334E0,-1.101332784E0,9.916783333E0,-1.398213744E0
1.557548976E0,-1.063025594E0,9.916783333E0,-1.403002143E0
1.559563136E0,-1.007958889E0,9.909601212E0,-1.429338455E0
1.561546779E0,-9.528923035E-1,9.904812813E0,-1.455674648E0
1.563560939E0,-9.050082564E-1,9.904812813E0,-1.474828243E0
1.565514064E0,-8.355764151E-1,9.890447617E0,-1.493981838E0
1.567528224E0,-7.685387731E-1,9.873687744E0,-1.496376038E0
1.569511867E0,-7.062895298E-1,9.852140427E0,-1.465251446E0
1.571495509E0,-6.536170840E-1,9.830592155E0,-1.419761658E0
1.573509669E0,-6.153098345E-1,9.799467087E0,-1.381454349E0
1.575493312E0,-5.937620401E-1,9.780313492E0,-1.367089152E0
1.577476955E0,-5.793967843E-1,9.770736694E0,-1.350329757E0
1.579491115E0,-5.626373887E-1,9.758766174E0,-1.316810966E0
1.581505275E0,-5.602431893E-1,9.746794701E0,-1.297657371E0
1.583488918E0,-5.674257874E-1,9.739612579E0,-1.290474772E0
1.585472560E0,-5.937620401E-1,9.734824181E0,-1.304839969E0
1.587456203E0,-6.584054828E-1,9.725247383E0,-1.323993564E0
1.589439845E0,-7.541735172E-1,9.708487511E0,-1.345541358E0
1.591454005E0,-8.595184088E-1,9.689333916E0,-1.355118155E0
1.593437648E0,-9.600749016E-1,9.677363396E0,-1.367089152E0
1.595421291E0,-1.034295082E0,9.653421402E0,-1.388636947E0
1.597435451E0,-1.094150186E0,9.624691010E0,-1.438915253E0
1.599449611E0,-1.163581967E0,9.615114212E0,-1.498770237E0
1.601433253E0,-1.266532660E0,9.622296333E0,-1.556231141E0
1.603447414E0,-1.364694953E0,9.627084732E0,-1.616086125E0
1.605431056E0,-1.414973259E0,9.624691010E0,-1.683123827E0
1.607414699E0,-1.429338455E0,9.622296333E0,-1.740584612E0
1.609398341E0,-1.438915253E0,9.624691010E0,-1.774103403E0
1.611412501E0,-1.458068848E0,9.622296333E0,-1.774103403E0
1.613396144E0,-1.479616642E0,9.612719536E0,-1.757344007E0
1.615379787E0,-1.479616642E0,9.605537415E0,-1.740584612E0
1.617393947E0,-1.477222443E0,9.603142738E0,-1.726219416E0
1.619347072E0,-1.472434044E0,9.607931137E0,-1.695094824E0
1.621361232E0,-1.429338455E0,9.610325813E0,-1.649604917E0
1.623314357E0,-1.374271750E0,9.615114212E0,-1.587355733E0
1.625328517E0,-1.345541358E0,9.634267807E0,-1.522712231E0
1.627312160E0,-1.319205165E0,9.662998199E0,-1.477222443E0
1.629326320E0,-1.297657371E0,9.694122314E0,-1.446097851E0
1.631309962E0,-1.292868972E0,9.715670586E0,-1.417367458E0
1.633324123E0,-1.307234168E0,9.730035782E0,-1.398213744E0
1.635307765E0,-1.345541358E0,9.758766174E0,-1.381454349E0
1.637291408E0,-1.367089152E0,9.782708168E0,-1.379060149E0
1.639305568E0,-1.374271750E0,9.794678688E0,-1.400607944E0
1.641289210E0,-1.367089152E0,9.801861763E0,-1.438915253E0
1.643272853E0,-1.364694953E0,9.799467087E0,-1.474828243E0
1.645256496E0,-1.357512355E0,9.787496567E0,-1.513135433E0
1.647240138E0,-1.340752959E0,9.773131371E0,-1.565807939E0
1.649254298E0,-1.312022567E0,9.763554573E0,-1.628057122E0
1.651237941E0,-1.276109457E0,9.758766174E0,-1.692700624E0
1.653221584E0,-1.249773264E0,9.756371498E0,-1.747767210E0
1.655235744E0,-1.249773264E0,9.744400978E0,-1.776497602E0
1.657249904E0,-1.266532660E0,9.742006302E0,-1.790862918E0
1.659233546E0,-1.285686255E0,9.744400978E0,-1.800439715E0
1.661217189E0,-1.314416766E0,9.734824181E0,-1.798045516E0
1.663200832E0,-1.357512355E0,9.720458984E0,-1.798045516E0
1.665214992E0,-1.395819545E0,9.703699112E0,-1.793257117E0
1.667229152E0,-1.455674648E0,9.694122314E0,-1.783680320E0
1.669212794E0,-1.515529633E0,9.679757118E0,-1.764526606E0
1.671196437E0,-1.563413739E0,9.651026726E0,-1.726219416E0
1.673210597E0,-1.594538331E0,9.622296333E0,-1.685518026E0
1.675224757E0,-1.616086125E0,9.593565941E0,-1.668758631E0
1.677208400E0,-1.640028119E0,9.569623947E0,-1.654393315E0
1.679222560E0,-1.671152830E0,9.555258751E0,-1.620874524E0
1.681206203E0,-1.685518026E0,9.550470352E0,-1.594538331E0
1.683220363E0,-1.721431017E0,9.540893555E0,-1.539471745E0
1.685173488E0,-1.764526606E0,9.526528358E0,-1.486799240E0
1.687187648E0,-1.810016513E0,9.521739960E0,-1.441309452E0
1.689171291E0,-1.867477298E0,9.536105156E0,-1.395819545E0
1.691154933E0,-1.932120800E0,9.540893555E0,-1.326387763E0
1.693169093E0,-2.003946781E0,9.528923035E0,-1.254561663E0
1.695152736E0,-2.056619167E0,9.502586365E0,-1.216254473E0
1.697136378E0,-2.104503393E0,9.481039047E0,-1.230619669E0
1.699150539E0,-2.145204782E0,9.471462250E0,-1.273715258E0
1.701164699E0,-2.183511972E0,9.473855972E0,-1.309628367E0
1.703148341E0,-2.209848166E0,9.466673851E0,-1.331176162E0
1.705131984E0,-2.209848166E0,9.452308655E0,-1.362300754E0
1.707115626E0,-2.185906172E0,9.466673851E0,-1.455674648E0
1.709099269E0,-2.178723574E0,9.514557838E0,-1.572990537E0
1.711113429E0,-2.190694571E0,9.557653427E0,-1.611297727E0
1.713097072E0,-2.205059767E0,9.586383820E0,-1.584961534E0
1.715080714E0,-2.219424963E0,9.603142738E0,-1.577778935E0
1.717094875E0,-2.233790159E0,9.605537415E0,-1.582567334E0
1.719078517E0,-2.238578558E0,9.598354340E0,-1.594538331E0
1.721062160E0,-2.226607561E0,9.586383820E0,-1.596932530E0
1.723045802E0,-2.190694571E0,9.583989143E0,-1.608903527E0
1.725029445E0,-2.159569979E0,9.564835548E0,-1.604115129E0
1.727043605E0,-2.135627985E0,9.516951561E0,-1.558625340E0
1.729027248E0,-2.126051188E0,9.485827446E0,-1.520318031E0
1.731010890E0,-2.111685991E0,9.488221169E0,-1.522712231E0
1.733025050E0,-2.094926596E0,9.512163162E0,-1.549048543E0
1.735039210E0,-2.039859772E0,9.473855972E0,-1.549048543E0
1.737022853E0,-1.977610588E0,9.397241592E0,-1.470039845E0
1.739037013E0,-1.929726601E0,9.339780807E0,-1.395819545E0
1.741020656E0,-1.905784607E0,9.354146004E0,-1.374271750E0
1.743034816E0,-1.893813491E0,9.404424667E0,-1.357512355E0
1.745018459E0,-1.884236693E0,9.459490776E0,-1.333570361E0
1.747002101E0,-1.869871497E0,9.526528358E0,-1.316810966E0
1.748985744E0,-1.862688899E0,9.603142738E0,-1.300051570E0
1.750999904E0,-1.836352706E0,9.660603523E0,-1.268926859E0
1.752983546E0,-1.786074519E0,9.667786598E0,-1.206677675E0
1.754997707E0,-1.740584612E0,9.629479408E0,-1.108515382E0
1.756981349E0,-1.707065821E0,9.574412346E0,-1.017535686E0
1.758964992E0,-1.687912226E0,9.514557838E0,-9.768342972E-1
1.760979152E0,-1.707065821E0,9.464279175E0,-9.768342972E-1
1.762993312E0,-1.766920805E0,9.430760384E0,-9.840168953E-1
1.764976955E0,-1.857900500E0,9.421183586E0,-9.911994934E-1
1.766960597E0,-1.975216389E0,9.418789864E0,-1.007958889E0
1.768944240E0,-2.085349798E0,9.421183586E0,-1.051054597E0
1.770958400E0,-2.173935175E0,9.423578262E0,-1.101332784E0
1.772942043E0,-2.245761156E0,9.414001465E0,-1.142034173E0
1.774925685E0,-2.298433542E0,9.397241592E0,-1.177947283E0
1.776939845E0,-2.343923569E0,9.399636269E0,-1.199495077E0
1.778954005E0,-2.401384354E0,9.411606789E0,-1.228225470E0
1.780937648E0,-2.461239338E0,9.433155060E0,-1.249773264E0
1.782921291E0,-2.501940727E0,9.437943459E0,-1.261744261E0
1.784904933E0,-2.521094322E0,9.423578262E0,-1.266532660E0
1.786888576E0,-2.518700123E0,9.416395187E0,-1.276109457E0
1.788902736E0,-2.516305923E0,9.418789864E0,-1.288080573E0
1.790886378E0,-2.530671120E0,9.414001465E0,-1.285686255E0
1.792870021E0,-2.557007313E0,9.409213066E0,-1.276109457E0
1.794884181E0,-2.583343744E0,9.416395187E0,-1.271321058E0
1.796898341E0,-2.609679937E0,9.428366661E0,-1.273715258E0
1.798881984E0,-2.616862535E0,9.423578262E0,-1.271321058E0
1.800896144E0,-2.614468336E0,9.421183586E0,-1.268926859E0
1.802879787E0,-2.604891539E0,9.418789864E0,-1.266532660E0
1.804893947E0,-2.600103140E0,9.418789864E0,-1.254561663E0
1.806908107E0,-2.595314741E0,9.423578262E0,-1.242590666E0
1.808891750E0,-2.588132143E0,9.442731857E0,-1.223437071E0
1.810905910E0,-2.568978310E0,9.471462250E0,-1.199495077E0
1.812889552E0,-2.557007313E0,9.504981041E0,-1.168370485E0
1.814903712E0,-2.537853718E0,9.524134636E0,-1.144428372E0
1.816887355E0,-2.504334927E0,9.538499832E0,-1.132457376E0
1.818870998E0,-2.470816135E0,9.555258751E0,-1.134851575E0
1.820885158E0,-2.444479942E0,9.572018623E0,-1.149216771E0
1.822868800E0,-2.430114746E0,9.586383820E0,-1.149216771E0
1.824882960E0,-2.425326347E0,9.598354340E0,-1.154005170E0
1.826866603E0,-2.430114746E0,9.593565941E0,-1.173158884E0
1.828880763E0,-2.434903145E0,9.569623947E0,-1.197100878E0
1.830894923E0,-2.439691544E0,9.528923035E0,-1.230619669E0
1.832878566E0,-2.454056740E0,9.483432770E0,-1.266532660E0
1.834862209E0,-2.458845139E0,9.461885452E0,-1.288080573E0
1.836845851E0,-2.470816135E0,9.430760384E0,-1.340752959E0
1.838860011E0,-2.477998734E0,9.387664795E0,-1.395819545E0
1.840843654E0,-2.485181332E0,9.327810287E0,-1.453280449E0
1.842827296E0,-2.494758129E0,9.263166428E0,-1.503558636E0
1.844810939E0,-2.497152328E0,9.193734169E0,-1.541865945E0
1.846794582E0,-2.497152328E0,9.121908188E0,-1.577778935E0
1.848808742E0,-2.489969730E0,9.052476883E0,-1.616086125E0
1.850792384E0,-2.466027737E0,8.995016098E0,-1.637633920E0
1.852776027E0,-2.432508945E0,8.949525833E0,-1.640028119E0
1.854790187E0,-2.398990154E0,8.918401718E0,-1.630451322E0
1.856804347E0,-2.363077164E0,8.899248123E0,-1.616086125E0
1.858787990E0,-2.322375536E0,8.896853447E0,-1.587355733E0
1.860771632E0,-2.281674147E0,8.908824921E0,-1.539471745E0
1.862755275E0,-2.248155355E0,8.920795441E0,-1.493981838E0
1.864769435E0,-2.197877169E0,8.935160637E0,-1.462857246E0
1.866783595E0,-2.135627985E0,8.956708908E0,-1.410184860E0
1.868767238E0,-2.066195965E0,8.992621422E0,-1.352723956E0
1.870750880E0,-2.001552582E0,9.038111687E0,-1.309628367E0
1.872765041E0,-1.936909199E0,9.095572472E0,-1.292868972E0
1.874748683E0,-1.869871497E0,9.145850182E0,-1.288080573E0
1.876762843E0,-1.812410712E0,9.200917244E0,-1.285686255E0
1.878746486E0,-1.754949808E0,9.258378029E0,-1.290474772E0
1.880730128E0,-1.687912226E0,9.313444138E0,-1.288080573E0
1.882744289E0,-1.628057122E0,9.361329079E0,-1.288080573E0
1.884727931E0,-1.570596337E0,9.406818390E0,-1.283292055E0
1.886742091E0,-1.510741234E0,9.449913979E0,-1.288080573E0
1.888725734E0,-1.460463047E0,9.483432770E0,-1.295263171E0
1.890709376E0,-1.424550056E0,9.524134636E0,-1.304839969E0
1.892723537E0,-1.393425345E0,9.564835548E0,-1.319205165E0
1.894737697E0,-1.371877551E0,9.598354340E0,-1.333570361E0
1.896721339E0,-1.369483352E0,9.629479408E0,-1.350329757E0
1.898735500E0,-1.383848548E0,9.658209801E0,-1.371877551E0
1.900749660E0,-1.410184860E0,9.674968719E0,-1.400607944E0
1.902733302E0,-1.441309452E0,9.686940193E0,-1.436521053E0
1.904716945E0,-1.460463047E0,9.698910713E0,-1.479616642E0
1.906700587E0,-1.484405041E0,9.701305389E0,-1.522712231E0
1.908684230E0,-1.520318031E0,9.701305389E0,-1.563413739E0
1.910698390E0,-1.539471745E0,9.708487511E0,-1.599326730E0
1.912682033E0,-1.544260144E0,9.718064308E0,-1.620874524E0
1.914665675E0,-1.551442742E0,9.720458984E0,-1.625662923E0
1.916679835E0,-1.553836942E0,9.720458984E0,-1.623268723E0
1.918693996E0,-1.546654344E0,9.718064308E0,-1.613691926E0
1.920677638E0,-1.520318031E0,9.727641106E0,-1.594538331E0
1.922691798E0,-1.484405041E0,9.732429504E0,-1.565807939E0
1.924644923E0,-1.448492050E0,9.737217903E0,-1.529894829E0
1.926659084E0,-1.422155857E0,9.746794701E0,-1.491587639E0
1.928642726E0,-1.398213744E0,9.753977776E0,-1.458068848E0
1.930626369E0,-1.364694953E0,9.758766174E0,-1.431732655E0
1.932640529E0,-1.323993564E0,9.761159897E0,-1.400607944E0
1.934654689E0,-1.276109457E0,9.768342972E0,-1.376665950E0
1.936638332E0,-1.233013868E0,9.773131371E0,-1.362300754E0
1.938652492E0,-1.197100878E0,9.768342972E0,-1.345541358E0
1.940636134E0,-1.158793569E0,9.756371498E0,-1.333570361E0
1.942650294E0,-1.122880578E0,9.744400978E0,-1.328781962E0
1.944633937E0,-1.101332784E0,9.732429504E0,-1.331176162E0
1.946617580E0,-1.089361787E0,9.713275909E0,-1.333570361E0
1.948601222E0,-1.082179189E0,9.696516991E0,-1.345541358E0
1.950615382E0,-1.079784989E0,9.667786598E0,-1.364694953E0
1.952629543E0,-1.091755986E0,9.639056206E0,-1.379060149E0
1.954613185E0,-1.101332784E0,9.615114212E0,-1.383848548E0
1.956627345E0,-1.108515382E0,9.591172218E0,-1.391031146E0
1.958610988E0,-1.120486379E0,9.557653427E0,-1.393425345E0
1.960625148E0,-1.130063176E0,9.521739960E0,-1.400607944E0
1.962608791E0,-1.139639974E0,9.500192642E0,-1.414973259E0
1.964592433E0,-1.144428372E0,9.481039047E0,-1.417367458E0
1.966576076E0,-1.149216771E0,9.459490776E0,-1.410184860E0
1.968559718E0,-1.154005170E0,9.433155060E0,-1.403002143E0
1.970573878E0,-1.158793569E0,9.409213066E0,-1.405396342E0
1.972557521E0,-1.163581967E0,9.399636269E0,-1.403002143E0
1.974541164E0,-1.165976286E0,9.390059471E0,-1.400607944E0
1.976555324E0,-1.173158884E0,9.375694275E0,-1.400607944E0
1.978538966E0,-1.177947283E0,9.368511200E0,-1.400607944E0
1.980522609E0,-1.182735682E0,9.363722801E0,-1.403002143E0
1.982536769E0,-1.185129881E0,9.361329079E0,-1.412579060E0
1.984520412E0,-1.189918280E0,9.361329079E0,-1.417367458E0
1.986504054E0,-1.189918280E0,9.373299599E0,-1.426944256E0
1.988518214E0,-1.189918280E0,9.380482674E0,-1.443703651E0
1.990501857E0,-1.187524080E0,9.380482674E0,-1.455674648E0
1.992485500E0,-1.189918280E0,9.380482674E0,-1.472434044E0
1.994499660E0,-1.182735682E0,9.392453194E0,-1.489193439E0
1.996483302E0,-1.182735682E0,9.409213066E0,-1.496376038E0
1.998466945E0,-1.182735682E0,9.416395187E0,-1.498770237E0
2.000481105E0,-1.173158884E0,9.433155060E0,-1.510741234E0
2.002464748E0,-1.165976286E0,9.469067574E0,-1.520318031E0
2.004478908E0,-1.165976286E0,9.509769440E0,-1.513135433E0
2.006462550E0,-1.165976286E0,9.536105156E0,-1.505952835E0
2.008446193E0,-1.158793569E0,9.569623947E0,-1.503558636E0
2.010460353E0,-1.163581967E0,9.607931137E0,-1.505952835E0
2.012474513E0,-1.185129881E0,9.646238327E0,-1.517923832E0
2.014458156E0,-1.206677675E0,9.672574997E0,-1.527500629E0
2.016472316E0,-1.228225470E0,9.682151794E0,-1.529894829E0
2.018455959E0,-1.259350061E0,9.682151794E0,-1.537077546E0
2.020470119E0,-1.297657371E0,9.667786598E0,-1.558625340E0
2.022423244E0,-1.331176162E0,9.634267807E0,-1.587355733E0
2.024437404E0,-1.352723956E0,9.603142738E0,-1.623268723E0
2.026421046E0,-1.367089152E0,9.572018623E0,-1.661576033E0
2.028435207E0,-1.379060149E0,9.528923035E0,-1.699883223E0
2.030449367E0,-1.383848548E0,9.488221169E0,-1.726219416E0
2.032433009E0,-1.379060149E0,9.461885452E0,-1.745373011E0
2.034447169E0,-1.367089152E0,9.452308655E0,-1.750161409E0
2.036461330E0,-1.355118155E0,9.442731857E0,-1.740584612E0
2.038444972E0,-1.347935557E0,9.437943459E0,-1.721431017E0
2.040459132E0,-1.345541358E0,9.452308655E0,-1.685518026E0
2.042442775E0,-1.333570361E0,9.476250648E0,-1.654393315E0
2.044456935E0,-1.328781962E0,9.497797966E0,-1.608903527E0
2.046471095E0,-1.338358760E0,9.512163162E0,-1.556231141E0
2.048454738E0,-1.347935557E0,9.519346237E0,-1.505952835E0
2.050468898E0,-1.355118155E0,9.524134636E0,-1.455674648E0
2.052483058E0,-1.371877551E0,9.528923035E0,-1.407790542E0
2.054466701E0,-1.395819545E0,9.526528358E0,-1.381454349E0
2.056480861E0,-1.422155857E0,9.514557838E0,-1.362300754E0
2.058495021E0,-1.443703651E0,9.502586365E0,-1.347935557E0
2.060478664E0,-1.465251446E0,9.481039047E0,-1.352723956E0
2.062492824E0,-1.484405041E0,9.457097054E0,-1.364694953E0
2.064476466E0,-1.508347034E0,9.435548782E0,-1.381454349E0
2.066460109E0,-1.532289028E0,9.409213066E0,-1.417367458E0
2.068474269E0,-1.563413739E0,9.399636269E0,-1.453280449E0
2.070457912E0,-1.592144132E0,9.382876396E0,-1.486799240E0
2.072441554E0,-1.611297727E0,9.358934402E0,-1.505952835E0
2.074455714E0,-1.632845521E0,9.339780807E0,-1.527500629E0
2.076469875E0,-1.659181833E0,9.320627213E0,-1.553836942E0
2.078453517E0,-1.675941229E0,9.301473618E0,-1.580173135E0
2.080437160E0,-1.678335428E0,9.287108421E0,-1.589749932E0
2.082420802E0,-1.683123827E0,9.272743225E0,-1.601720929E0
2.084404445E0,-1.678335428E0,9.260771751E0,-1.616086125E0
2.086388087E0,-1.663970232E0,9.251194954E0,-1.632845521E0
2.088402248E0,-1.659181833E0,9.239224434E0,-1.649604917E0
2.090416408E0,-1.656787634E0,9.232041359E0,-1.659181833E0
2.092400050E0,-1.649604917E0,9.224859238E0,-1.663970232E0
2.094414210E0,-1.642422318E0,9.224859238E0,-1.668758631E0
2.096397853E0,-1.637633920E0,9.220070839E0,-1.666364431E0
2.098381496E0,-1.623268723E0,9.212887764E0,-1.671152830E0
2.100365138E0,-1.606509328E0,9.210494041E0,-1.671152830E0
2.102348781E0,-1.594538331E0,9.217676163E0,-1.673547029E0
2.104362941E0,-1.592144132E0,9.220070839E0,-1.680729628E0
2.106377101E0,-1.587355733E0,9.224859238E0,-1.692700624E0
2.108360744E0,-1.572990537E0,9.227252960E0,-1.704671621E0
2.110344386E0,-1.563413739E0,9.236829758E0,-1.731007814E0
2.112358546E0,-1.563413739E0,9.248801231E0,-1.757344007E0
2.114342189E0,-1.561019540E0,9.263166428E0,-1.783680320E0
2.116325832E0,-1.549048543E0,9.289502144E0,-1.798045516E0
2.118309474E0,-1.549048543E0,9.301473618E0,-1.802833915E0
2.120293117E0,-1.549048543E0,9.311050415E0,-1.800439715E0
2.122307277E0,-1.544260144E0,9.320627213E0,-1.798045516E0
2.124290919E0,-1.539471745E0,9.330204010E0,-1.783680320E0
2.126274562E0,-1.546654344E0,9.330204010E0,-1.769315004E0
2.128258205E0,-1.541865945E0,9.330204010E0,-1.750161409E0
2.130241847E0,-1.539471745E0,9.332598686E0,-1.728613615E0
2.132256007E0,-1.553836942E0,9.330204010E0,-1.707065821E0
2.134239650E0,-1.575384736E0,9.325415611E0,-1.704671621E0
2.136223293E0,-1.587355733E0,9.318233490E0,-1.716642618E0
2.138237453E0,-1.601720929E0,9.301473618E0,-1.742978811E0
2.140221095E0,-1.623268723E0,9.287108421E0,-1.778891921E0
2.142204738E0,-1.642422318E0,9.282320023E0,-1.812410712E0
2.144188380E0,-1.666364431E0,9.270348549E0,-1.850717902E0
2.146172023E0,-1.678335428E0,9.263166428E0,-1.872265697E0
2.148155666E0,-1.685518026E0,9.260771751E0,-1.898601890E0
2.150169826E0,-1.680729628E0,9.270348549E0,-1.912967205E0
2.152153468E0,-1.671152830E0,9.282320023E0,-1.924938202E0
2.154137111E0,-1.659181833E0,9.294290543E0,-1.932120800E0
2.156151271E0,-1.637633920E0,9.303867340E0,-1.932120800E0
2.158165431E0,-1.616086125E0,9.323021889E0,-1.932120800E0
2.160149074E0,-1.587355733E0,9.337387085E0,-1.932120800E0
2.162163234E0,-1.556231141E0,9.351752281E0,-1.936909199E0
2.164146876E0,-1.527500629E0,9.358934402E0,-1.944091797E0
2.166161037E0,-1.501164436E0,9.368511200E0,-1.965639591E0
2.168175197E0,-1.472434044E0,9.375694275E0,-1.980004787E0
2.170158839E0,-1.431732655E0,9.368511200E0,-1.999158382E0
2.172142482E0,-1.403002143E0,9.358934402E0,-2.013523579E0
2.174126125E0,-1.383848548E0,9.351752281E0,-2.025494576E0
2.176140285E0,-1.355118155E0,9.325415611E0,-2.054224968E0
2.178123927E0,-1.319205165E0,9.291896820E0,-2.104503393E0
2.180107570E0,-1.295263171E0,9.255983353E0,-2.159569979E0
2.182121730E0,-1.273715258E0,9.227252960E0,-2.202665567E0
2.184105373E0,-1.235408068E0,9.200917244E0,-2.255337954E0
2.186089015E0,-1.194706678E0,9.176975250E0,-2.319981337E0
2.188103175E0,-1.158793569E0,9.162610054E0,-2.372653961E0
2.190086818E0,-1.127668977E0,9.148244858E0,-2.403778553E0
2.192070460E0,-1.108515382E0,9.143456459E0,-2.420537949E0
2.194084621E0,-1.079784989E0,9.160215378E0,-2.437297344E0
2.196068263E0,-1.036689281E0,9.186552048E0,-2.446874142E0
2.198051906E0,-9.888052940E-1,9.203310966E0,-2.456450939E0
2.200066066E0,-9.409212470E-1,9.227252960E0,-2.463633537E0
2.202049709E0,-8.930372596E-1,9.246406555E0,-2.470816135E0
2.204063869E0,-8.499416113E-1,9.263166428E0,-2.470816135E0
2.206047511E0,-8.140285611E-1,9.287108421E0,-2.480392933E0
2.208031154E0,-7.972691655E-1,9.315838814E0,-2.489969730E0
2.210045314E0,-7.948749661E-1,9.349357605E0,-2.499546528E0
2.212059474E0,-7.852981687E-1,9.382876396E0,-2.518700123E0
2.214043117E0,-7.829039693E-1,9.411606789E0,-2.547430515E0
2.216057277E0,-7.948749661E-1,9.442731857E0,-2.580949545E0
2.218071437E0,-8.044517636E-1,9.466673851E0,-2.602497339E0
2.220055080E0,-8.212111592E-1,9.497797966E0,-2.621650934E0
2.222069240E0,-8.355764151E-1,9.528923035E0,-2.640804529E0
2.224052882E0,-8.427590132E-1,9.557653427E0,-2.657563925E0
2.226036525E0,-8.547300100E-1,9.579200745E0,-2.679111719E0
2.228020168E0,-8.690952063E-1,9.607931137E0,-2.698265314E0
2.230034328E0,-8.858546019E-1,9.651026726E0,-2.710236311E0
2.232048488E0,-9.026140571E-1,9.682151794E0,-2.710236311E0
2.234032130E0,-9.265560508E-1,9.708487511E0,-2.703053713E0
2.236046291E0,-9.337386489E-1,9.739612579E0,-2.681505919E0
2.238060451E0,-9.433154464E-1,9.770736694E0,-2.655169725E0
2.240044093E0,-9.696516991E-1,9.799467087E0,-2.638410330E0
2.242058253E0,-1.017535686E0,9.835380554E0,-2.621650934E0
2.244041896E0,-1.060631394E0,9.871294022E0,-2.588132143E0
2.246056056E0,-1.101332784E0,9.923966408E0,-2.552218914E0
2.248070216E0,-1.146822572E0,9.979032516E0,-2.525882721E0
2.250053859E0,-1.185129881E0,1.002452278E1,-2.506729126E0
2.252068019E0,-1.209071875E0,1.006282997E1,-2.499546528E0
2.254082179E0,-1.216254473E0,1.009156036E1,-2.494758129E0
2.256065822E0,-1.230619669E0,1.011310768E1,-2.482787132E0
2.258079982E0,-1.237802267E0,1.013465595E1,-2.470816135E0
2.260063625E0,-1.237802267E0,1.015141487E1,-2.458845139E0
2.262077785E0,-1.249773264E0,1.015620327E1,-2.442085743E0
2.264061427E0,-1.268926859E0,1.015380955E1,-2.422932148E0
2.266045070E0,-1.290474772E0,1.014183807E1,-2.401384354E0
2.268028712E0,-1.319205165E0,1.012029076E1,-2.367865562E0
2.270042873E0,-1.369483352E0,1.007958889E1,-2.329558372E0
2.272026515E0,-1.422155857E0,1.004128170E1,-2.300827742E0
2.274040675E0,-1.467645645E0,1.000776291E1,-2.269703150E0
2.276024318E0,-1.505952835E0,9.971850395E0,-2.226607561E0
2.278007960E0,-1.525106430E0,9.921571732E0,-2.195482969E0
2.280022121E0,-1.534683347E0,9.876082420E0,-2.178723574E0
2.282036281E0,-1.549048543E0,9.830592155E0,-2.169146776E0
2.284019923E0,-1.561019540E0,9.782708168E0,-2.152387381E0
2.286003566E0,-1.570596337E0,9.727641106E0,-2.145204782E0
2.287987209E0,-1.575384736E0,9.670180321E0,-2.142810583E0
2.290001369E0,-1.572990537E0,9.617507935E0,-2.138022184E0
2.291985011E0,-1.582567334E0,9.564835548E0,-2.128445387E0
2.293968654E0,-1.599326730E0,9.507374763E0,-2.123656988E0
2.295982814E0,-1.625662923E0,9.464279175E0,-2.128445387E0
2.297996974E0,-1.644816518E0,9.430760384E0,-2.142810583E0
2.299980617E0,-1.668758631E0,9.404424667E0,-2.147598982E0
2.301994777E0,-1.680729628E0,9.375694275E0,-2.142810583E0
2.303978419E0,-1.690306425E0,9.349357605E0,-2.138022184E0
2.305962062E0,-1.692700624E0,9.334992409E0,-2.140416384E0
2.307976222E0,-1.687912226E0,9.332598686E0,-2.152387381E0
2.309959865E0,-1.685518026E0,9.325415611E0,-2.161964178E0
2.311943507E0,-1.690306425E0,9.323021889E0,-2.176329374E0
2.313957668E0,-1.707065821E0,9.318233490E0,-2.193088770E0
2.315941310E0,-1.726219416E0,9.303867340E0,-2.231395960E0
2.317924953E0,-1.747767210E0,9.294290543E0,-2.284068346E0
2.319939113E0,-1.774103403E0,9.284713745E0,-2.339135170E0
2.321922755E0,-1.805228114E0,9.267954826E0,-2.394201756E0
2.323936916E0,-1.838746905E0,9.227252960E0,-2.437297344E0
2.325951076E0,-1.865083098E0,9.188945770E0,-2.482787132E0
2.327965236E0,-1.877054095E0,9.169792175E0,-2.537853718E0
2.329948878E0,-1.881842494E0,9.157821655E0,-2.564189911E0
2.331963039E0,-1.898601890E0,9.131484985E0,-2.616862535E0
2.333946681E0,-1.908178806E0,9.097966194E0,-2.662352324E0
2.335960841E0,-1.922544003E0,9.081207275E0,-2.700659513E0
2.337944484E0,-1.951274395E0,9.076418877E0,-2.729389906E0
2.339928126E0,-1.980004787E0,9.071630478E0,-2.736572504E0
2.341942287E0,-2.013523579E0,9.059659004E0,-2.746149302E0
2.343925929E0,-2.051830769E0,9.050082207E0,-2.755726099E0
2.345909572E0,-2.090138197E0,9.045293808E0,-2.750937700E0
2.347923732E0,-2.128445387E0,9.033323288E0,-2.715024710E0
2.349907375E0,-2.159569979E0,9.023746490E0,-2.662352324E0
2.351891017E0,-2.193088770E0,9.023746490E0,-2.616862535E0
2.353905177E0,-2.238578558E0,9.026140213E0,-2.616862535E0
2.355888820E0,-2.291250944E0,9.023746490E0,-2.636016130E0
2.357872462E0,-2.336740971E0,9.011775017E0,-2.628833532E0
2.359886623E0,-2.391807556E0,9.006986618E0,-2.600103140E0
2.361870265E0,-2.442085743E0,9.011775017E0,-2.561795712E0
2.363884425E0,-2.480392933E0,9.014169693E0,-2.540247917E0
2.365898585E0,-2.504334927E0,9.014169693E0,-2.545036316E0
2.367882228E0,-2.525882721E0,9.016563416E0,-2.545036316E0
2.369896388E0,-2.547430515E0,9.018958092E0,-2.521094322E0
2.371910548E0,-2.559401512E0,9.038111687E0,-2.485181332E0
2.373894191E0,-2.564189911E0,9.059659004E0,-2.456450939E0
2.375908351E0,-2.552218914E0,9.071630478E0,-2.422932148E0
2.377922511E0,-2.530671120E0,9.078812599E0,-2.401384354E0
2.379906154E0,-2.497152328E0,9.109937668E0,-2.391807556E0
2.381920314E0,-2.444479942E0,9.169792175E0,-2.365471363E0
2.383903957E0,-2.389413357E0,9.234436035E0,-2.319981337E0
2.385887599E0,-2.341529369E0,9.301473618E0,-2.284068346E0
2.387901759E0,-2.303221941E0,9.366117477E0,-2.260126352E0
2.389885402E0,-2.281674147E0,9.423578262E0,-2.224213362E0
2.391869044E0,-2.262520552E0,9.469067574E0,-2.166752577E0
2.393883205E0,-2.233790159E0,9.519346237E0,-2.097320795E0
2.395866847E0,-2.195482969E0,9.569623947E0,-2.015917778E0
2.397850490E0,-2.154781580E0,9.617507935E0,-1.946485996E0
2.399864650E0,-2.104503393E0,9.658209801E0,-1.893813491E0
2.401848293E0,-2.049436569E0,9.698910713E0,-1.867477298E0
2.403862453E0,-2.006340981E0,9.756371498E0,-1.884236693E0
2.405846095E0,-1.958456993E0,9.821015358E0,-1.898601890E0
2.407860255E0,-1.896207690E0,9.871294022E0,-1.867477298E0
2.409843898E0,-1.843535304E0,9.919178009E0,-1.807622313E0
2.411827541E0,-1.800439715E0,9.969455719E0,-1.778891921E0
2.413841701E0,-1.745373011E0,1.000776291E1,-1.778891921E0
2.415825343E0,-1.685518026E0,1.003170490E1,-1.776497602E0
2.417808986E0,-1.613691926E0,1.005564690E1,-1.745373011E0
2.419823146E0,-1.537077546E0,1.008677197E1,-1.690306425E0
2.421806789E0,-1.465251446E0,1.011071396E1,-1.644816518E0
2.423790431E0,-1.410184860E0,1.010831928E1,-1.618480325E0
2.425804591E0,-1.369483352E0,1.008437729E1,-1.587355733E0
2.427788234E0,-1.338358760E0,1.005325317E1,-1.541865945E0
2.429771876E0,-1.331176162E0,1.001733971E1,-1.501164436E0
2.431786037E0,-1.357512355E0,9.976638794E0,-1.486799240E0
2.433769679E0,-1.395819545E0,9.931148529E0,-1.489193439E0
2.435753322E0,-1.417367458E0,9.873687744E0,-1.501164436E0
2.437767482E0,-1.422155857E0,9.806650162E0,-1.532289028E0
2.439751125E0,-1.412579060E0,9.730035782E0,-1.587355733E0
2.441734767E0,-1.405396342E0,9.658209801E0,-1.656787634E0
2.443718410E0,-1.405396342E0,9.588777542E0,-1.716642618E0
2.445702052E0,-1.414973259E0,9.524134636E0,-1.774103403E0
2.447716212E0,-1.410184860E0,9.471462250E0,-1.810016513E0
2.449730373E0,-1.391031146E0,9.423578262E0,-1.819593310E0
2.451714015E0,-1.383848548E0,9.387664795E0,-1.843535304E0
2.453728175E0,-1.386242747E0,9.361329079E0,-1.881842494E0
2.455711818E0,-1.376665950E0,9.339780807E0,-1.900996208E0
2.457725978E0,-1.369483352E0,9.320627213E0,-1.934514999E0
2.459709621E0,-1.371877551E0,9.315838814E0,-1.968033791E0
2.461693263E0,-1.369483352E0,9.323021889E0,-1.951274395E0
2.463707423E0,-1.364694953E0,9.327810287E0,-1.920149803E0
2.465721584E0,-1.376665950E0,9.325415611E0,-1.874659896E0
2.467705226E0,-1.403002143E0,9.337387085E0,-1.862688899E0
2.469688869E0,-1.441309452E0,9.346963882E0,-1.896207690E0
2.471703029E0,-1.505952835E0,9.339780807E0,-1.968033791E0
2.473717189E0,-1.570596337E0,9.325415611E0,-2.056619167E0
2.475700832E0,-1.616086125E0,9.301473618E0,-2.123656988E0
2.477684474E0,-1.654393315E0,9.279925346E0,-2.190694571E0
2.479668117E0,-1.678335428E0,9.253589630E0,-2.226607561E0
2.481682277E0,-1.690306425E0,9.220070839E0,-2.272097349E0
2.483665919E0,-1.690306425E0,9.179368973E0,-2.329558372E0
2.485680080E0,-1.661576033E0,9.157821655E0,-2.346317768E0
2.487663722E0,-1.616086125E0,9.136273384E0,-2.375048161E0
2.489647365E0,-1.558625340E0,9.109937668E0,-2.408566952E0
2.491661525E0,-1.498770237E0,9.088389397E0,-2.422932148E0
2.493645168E0,-1.472434044E0,9.083600998E0,-2.437297344E0
2.495628810E0,-1.424550056E0,9.076418877E0,-2.449268341E0
2.497642970E0,-1.388636947E0,9.083600998E0,-2.451662540E0
2.499626613E0,-1.359906554E0,9.088389397E0,-2.418143749E0
2.501610255E0,-1.359906554E0,9.095572472E0,-2.351106167E0
2.503593898E0,-1.403002143E0,9.117119789E0,-2.300827742E0
2.505577541E0,-1.465251446E0,9.148244858E0,-2.291250944E0
2.507561183E0,-1.525106430E0,9.172186852E0,-2.260126352E0
2.509575343E0,-1.577778935E0,9.198522568E0,-2.202665567E0
2.511558986E0,-1.625662923E0,9.234436035E0,-2.166752577E0
2.513542628E0,-1.668758631E0,9.277531624E0,-2.154781580E0
2.515556789E0,-1.709460020E0,9.325415611E0,-2.138022184E0
2.517540431E0,-1.735796213E0,9.373299599E0,-2.121262789E0
2.519524074E0,-1.762132406E0,9.411606789E0,-2.118868589E0
2.521538234E0,-1.795651317E0,9.435548782E0,-2.140416384E0
2.523491359E0,-1.802833915E0,9.461885452E0,-2.195482969E0
2.525505519E0,-1.798045516E0,9.485827446E0,-2.264914751E0
2.527489162E0,-1.800439715E0,9.512163162E0,-2.367865562E0
2.529472804E0,-1.814804912E0,9.526528358E0,-2.499546528E0
2.531486964E0,-1.821987510E0,9.526528358E0,-2.609679937E0
2.533501125E0,-1.812410712E0,9.524134636E0,-2.715024710E0
2.535484767E0,-1.774103403E0,9.526528358E0,-2.801215887E0
2.537498927E0,-1.719036818E0,9.536105156E0,-2.827552319E0
2.539482570E0,-1.695094824E0,9.516951561E0,-2.839523315E0
2.541496730E0,-1.731007814E0,9.464279175E0,-2.901772499E0
2.543480373E0,-1.764526606E0,9.409213066E0,-2.947262287E0
2.545464015E0,-1.742978811E0,9.351752281E0,-2.937685490E0
2.547447658E0,-1.673547029E0,9.313444138E0,-2.920926094E0
2.549461818E0,-1.608903527E0,9.275136948E0,-2.930502892E0
2.551475978E0,-1.563413739E0,9.236829758E0,-2.937685490E0
2.553459621E0,-1.534683347E0,9.196128845E0,-2.961627483E0
2.555473781E0,-1.498770237E0,9.165003777E0,-2.980781078E0
2.557487941E0,-1.479616642E0,9.143456459E0,-2.942473888E0
2.559471584E0,-1.470039845E0,9.117119789E0,-2.911349297E0
2.561485744E0,-1.446097851E0,9.085995674E0,-2.839523315E0
2.563469386E0,-1.441309452E0,9.045293808E0,-2.782062292E0
2.565483546E0,-1.460463047E0,9.006986618E0,-2.734178305E0
2.567497707E0,-1.470039845E0,8.975862503E0,-2.655169725E0
2.569481349E0,-1.460463047E0,8.944737434E0,-2.566584110E0
2.571495509E0,-1.465251446E0,8.925583839E0,-2.513911724E0
2.573509669E0,-1.498770237E0,8.923190117E0,-2.523488522E0
2.575493312E0,-1.529894829E0,8.932766914E0,-2.557007313E0
2.577507472E0,-1.541865945E0,8.954314232E0,-2.602497339E0
2.579491115E0,-1.546654344E0,8.985439301E0,-2.638410330E0
2.581505275E0,-1.563413739E0,9.030928612E0,-2.700659513E0
2.583488918E0,-1.587355733E0,9.081207275E0,-2.774879694E0
2.585472560E0,-1.594538331E0,9.133879662E0,-2.829946518E0
2.587456203E0,-1.582567334E0,9.172186852E0,-2.827552319E0
2.589470363E0,-1.577778935E0,9.200917244E0,-2.774879694E0
2.591484523E0,-1.577778935E0,9.232041359E0,-2.722207308E0
2.593468166E0,-1.563413739E0,9.263166428E0,-2.667140722E0
2.595451808E0,-1.539471745E0,9.294290543E0,-2.616862535E0
2.597435451E0,-1.525106430E0,9.334992409E0,-2.607285738E0
2.599449611E0,-1.513135433E0,9.363722801E0,-2.578555346E0
2.601402736E0,-1.484405041E0,9.387664795E0,-2.511517525E0
2.603416896E0,-1.472434044E0,9.425971985E0,-2.454056740E0
2.605400539E0,-1.470039845E0,9.461885452E0,-2.418143749E0
2.607384181E0,-1.465251446E0,9.504981041E0,-2.408566952E0
2.609398341E0,-1.458068848E0,9.536105156E0,-2.420537949E0
2.611412501E0,-1.453280449E0,9.560047150E0,-2.437297344E0
2.613396144E0,-1.453280449E0,9.574412346E0,-2.477998734E0
2.615410304E0,-1.467645645E0,9.581595421E0,-2.516305923E0
2.617424464E0,-1.491587639E0,9.591172218E0,-2.561795712E0
2.619408107E0,-1.496376038E0,9.610325813E0,-2.597708941E0
2.621422267E0,-1.508347034E0,9.624691010E0,-2.657563925E0
2.623405910E0,-1.546654344E0,9.631873131E0,-2.736572504E0
2.625389552E0,-1.587355733E0,9.648633003E0,-2.801215887E0
2.627403712E0,-1.642422318E0,9.660603523E0,-2.851494312E0
2.629387355E0,-1.699883223E0,9.665391922E0,-2.911349297E0
2.631370998E0,-1.726219416E0,9.655815125E0,-2.952050686E0
2.633385158E0,-1.745373011E0,9.636661530E0,-2.999934673E0
2.635368800E0,-1.762132406E0,9.615114212E0,-3.047818661E0
2.637352443E0,-1.764526606E0,9.591172218E0,-3.124433279E0
2.639366603E0,-1.776497602E0,9.576807022E0,-3.215412855E0
2.641350246E0,-1.778891921E0,9.555258751E0,-3.263296843E0
2.643364406E0,-1.771709204E0,9.524134636E0,-3.277662039E0
2.645378566E0,-1.752555609E0,9.483432770E0,-3.260902643E0
2.647362209E0,-1.745373011E0,9.430760384E0,-3.174711466E0
2.649376369E0,-1.723825216E0,9.380482674E0,-3.064578056E0
2.651390529E0,-1.695094824E0,9.330204010E0,-2.987963676E0
2.653374171E0,-1.656787634E0,9.284713745E0,-2.932897091E0
2.655388332E0,-1.628057122E0,9.246406555E0,-2.887407303E0
2.657402492E0,-1.596932530E0,9.217676163E0,-2.865859509E0
2.659386134E0,-1.553836942E0,9.198522568E0,-2.875436306E0
2.661400294E0,-1.508347034E0,9.181763649E0,-2.892195702E0
2.663383937E0,-1.482010841E0,9.160215378E0,-2.873042107E0
2.665367580E0,-1.450886250E0,9.145850182E0,-2.820369720E0
2.667381740E0,-1.426944256E0,9.138668060E0,-2.762908697E0
2.669365382E0,-1.419761658E0,9.129091263E0,-2.741360903E0
2.671349025E0,-1.407790542E0,9.112331390E0,-2.710236311E0
2.673363185E0,-1.400607944E0,9.105149269E0,-2.705447912E0
2.675377345E0,-1.400607944E0,9.102754593E0,-2.705447912E0
2.677360988E0,-1.414973259E0,9.102754593E0,-2.693476915E0
2.679375148E0,-1.426944256E0,9.095572472E0,-2.662352324E0
2.681358791E0,-1.426944256E0,9.093177795E0,-2.638410330E0
2.683372951E0,-1.410184860E0,9.105149269E0,-2.643198729E0
2.685387111E0,-1.393425345E0,9.114726067E0,-2.686294317E0
2.687370753E0,-1.383848548E0,9.121908188E0,-2.724601507E0
2.689384914E0,-1.386242747E0,9.141061783E0,-2.770091295E0
2.691399074E0,-1.386242747E0,9.169792175E0,-2.782062292E0
2.693382716E0,-1.383848548E0,9.203310966E0,-2.782062292E0
2.695366359E0,-1.381454349E0,9.246406555E0,-2.779668093E0
2.697350001E0,-1.381454349E0,9.294290543E0,-2.770091295E0
2.699364162E0,-1.383848548E0,9.334992409E0,-2.782062292E0
2.701347804E0,-1.398213744E0,9.368511200E0,-2.782062292E0
2.703331447E0,-1.410184860E0,9.404424667E0,-2.734178305E0
2.705315089E0,-1.434126854E0,9.435548782E0,-2.691082716E0
2.707329250E0,-1.474828243E0,9.454702377E0,-2.681505919E0
2.709343410E0,-1.520318031E0,9.469067574E0,-2.700659513E0
2.711327052E0,-1.546654344E0,9.485827446E0,-2.698265314E0
2.713341212E0,-1.556231141E0,9.493009567E0,-2.691082716E0
2.715355373E0,-1.568202138E0,9.500192642E0,-2.724601507E0
2.717339015E0,-1.577778935E0,9.495404243E0,-2.743755102E0
2.719353175E0,-1.575384736E0,9.490615845E0,-2.719813108E0
2.721336818E0,-1.570596337E0,9.490615845E0,-2.662352324E0
2.723350978E0,-1.570596337E0,9.488221169E0,-2.640804529E0
2.725334621E0,-1.589749932E0,9.485827446E0,-2.638410330E0
2.727318263E0,-1.608903527E0,9.483432770E0,-2.650381327E0
2.729332423E0,-1.620874524E0,9.493009567E0,-2.664746523E0
2.731316066E0,-1.630451322E0,9.500192642E0,-2.667140722E0
2.733299709E0,-1.635239720E0,9.519346237E0,-2.657563925E0
2.735283351E0,-1.637633920E0,9.550470352E0,-2.628833532E0
2.737266994E0,-1.637633920E0,9.576807022E0,-2.578555346E0
2.739281154E0,-1.654393315E0,9.591172218E0,-2.521094322E0
2.741264796E0,-1.673547029E0,9.617507935E0,-2.497152328E0
2.743278957E0,-1.690306425E0,9.646238327E0,-2.499546528E0
2.745262599E0,-1.707065821E0,9.672574997E0,-2.509123325E0
2.747276759E0,-1.723825216E0,9.698910713E0,-2.530671120E0
2.749290919E0,-1.738190413E0,9.727641106E0,-2.552218914E0
2.751274562E0,-1.764526606E0,9.737217903E0,-2.590526342E0
2.753258205E0,-1.788468719E0,9.730035782E0,-2.624045134E0
2.755241847E0,-1.807622313E0,9.720458984E0,-2.650381327E0
2.757256007E0,-1.833958507E0,9.706093788E0,-2.698265314E0
2.759239650E0,-1.853112102E0,9.684545517E0,-2.750937700E0
2.761223293E0,-1.860294700E0,9.651026726E0,-2.791639090E0
2.763206935E0,-1.855506301E0,9.600749016E0,-2.810792685E0
2.765190578E0,-1.848323703E0,9.552865028E0,-2.798821688E0
2.767204738E0,-1.838746905E0,9.509769440E0,-2.762908697E0
2.769218898E0,-1.824381709E0,9.464279175E0,-2.743755102E0
2.771202541E0,-1.810016513E0,9.423578262E0,-2.736572504E0
2.773216701E0,-1.800439715E0,9.392453194E0,-2.707842112E0
2.775230861E0,-1.781286120E0,9.361329079E0,-2.667140722E0
2.777214503E0,-1.757344007E0,9.337387085E0,-2.638410330E0
2.779228664E0,-1.745373011E0,9.330204010E0,-2.626439333E0
2.781212306E0,-1.745373011E0,9.325415611E0,-2.607285738E0
2.783195949E0,-1.747767210E0,9.327810287E0,-2.590526342E0
2.785210109E0,-1.759738207E0,9.339780807E0,-2.592920542E0
2.787193751E0,-1.781286120E0,9.346963882E0,-2.614468336E0
2.789177394E0,-1.807622313E0,9.346963882E0,-2.652775526E0
2.791191554E0,-1.836352706E0,9.344569206E0,-2.688688517E0
2.793205714E0,-1.850717902E0,9.342175484E0,-2.726995707E0
2.795189357E0,-1.857900500E0,9.342175484E0,-2.758120298E0
2.797203517E0,-1.860294700E0,9.346963882E0,-2.786850691E0
2.799187160E0,-1.860294700E0,9.349357605E0,-2.803610086E0
2.801201320E0,-1.862688899E0,9.344569206E0,-2.808398485E0
2.803154445E0,-1.867477298E0,9.337387085E0,-2.810792685E0
2.805168605E0,-1.862688899E0,9.339780807E0,-2.827552319E0
2.807152248E0,-1.845929503E0,9.339780807E0,-2.861071110E0
2.809135890E0,-1.833958507E0,9.325415611E0,-2.882618904E0
2.811150050E0,-1.805228114E0,9.303867340E0,-2.880224705E0
2.813133693E0,-1.783680320E0,9.282320023E0,-2.882618904E0
2.815117335E0,-1.764526606E0,9.267954826E0,-2.875436306E0
2.817131496E0,-1.740584612E0,9.246406555E0,-2.863465309E0
2.819115138E0,-1.704671621E0,9.205705643E0,-2.851494312E0
2.821129298E0,-1.683123827E0,9.172186852E0,-2.832340717E0
2.823112941E0,-1.663970232E0,9.143456459E0,-2.806004286E0
2.825096584E0,-1.632845521E0,9.117119789E0,-2.798821688E0
2.827080226E0,-1.596932530E0,9.095572472E0,-2.801215887E0
2.829094386E0,-1.565807939E0,9.090784073E0,-2.803610086E0
2.831078029E0,-1.546654344E0,9.090784073E0,-2.810792685E0
2.833061671E0,-1.515529633E0,9.093177795E0,-2.822763920E0
2.835075832E0,-1.491587639E0,9.088389397E0,-2.808398485E0
2.837089992E0,-1.484405041E0,9.085995674E0,-2.796427488E0
2.839073634E0,-1.477222443E0,9.085995674E0,-2.796427488E0
2.841087794E0,-1.465251446E0,9.085995674E0,-2.803610086E0
2.843071437E0,-1.446097851E0,9.078812599E0,-2.817975283E0
2.845055080E0,-1.434126854E0,9.071630478E0,-2.834734917E0
2.847038722E0,-1.429338455E0,9.066842079E0,-2.851494312E0
2.849052882E0,-1.434126854E0,9.071630478E0,-2.875436306E0
2.851036525E0,-1.436521053E0,9.085995674E0,-2.899378300E0
2.853020168E0,-1.429338455E0,9.105149269E0,-2.923320293E0
2.855034328E0,-1.410184860E0,9.129091263E0,-2.956839085E0
2.857017970E0,-1.405396342E0,9.150638580E0,-2.985569477E0
2.859001613E0,-1.414973259E0,9.169792175E0,-3.004723072E0
2.861015773E0,-1.431732655E0,9.188945770E0,-3.021482468E0
2.862999416E0,-1.446097851E0,9.200917244E0,-3.031059265E0
2.864983058E0,-1.448492050E0,9.215282440E0,-3.043030262E0
2.866997218E0,-1.462857246E0,9.224859238E0,-3.047818661E0
2.868980861E0,-1.477222443E0,9.232041359E0,-3.043030262E0
2.870964503E0,-1.479616642E0,9.234436035E0,-3.038241863E0
2.872978664E0,-1.477222443E0,9.244012833E0,-3.023876667E0
2.874962306E0,-1.465251446E0,9.255983353E0,-2.983175278E0
2.876945949E0,-1.458068848E0,9.263166428E0,-2.925714493E0
2.878960109E0,-1.458068848E0,9.284713745E0,-2.856282711E0
2.880943751E0,-1.458068848E0,9.311050415E0,-2.789244890E0
2.882957912E0,-1.467645645E0,9.332598686E0,-2.726995707E0
2.884972072E0,-1.474828243E0,9.356540680E0,-2.674323320E0
2.886955714E0,-1.477222443E0,9.380482674E0,-2.638410330E0
2.888969875E0,-1.486799240E0,9.406818390E0,-2.600103140E0
2.890984035E0,-1.508347034E0,9.449913979E0,-2.561795712E0
2.892967677E0,-1.527500629E0,9.493009567E0,-2.535459518E0
2.894981837E0,-1.549048543E0,9.528923035E0,-2.513911724E0
2.896965480E0,-1.570596337E0,9.569623947E0,-2.504334927E0
2.898949123E0,-1.592144132E0,9.617507935E0,-2.513911724E0
2.900963283E0,-1.620874524E0,9.660603523E0,-2.535459518E0
2.902946925E0,-1.647210717E0,9.694122314E0,-2.554613113E0
2.904930568E0,-1.675941229E0,9.727641106E0,-2.559401512E0
2.906944728E0,-1.699883223E0,9.758766174E0,-2.576161146E0
2.908928371E0,-1.733402014E0,9.768342972E0,-2.597708941E0
2.910912013E0,-1.766920805E0,9.773131371E0,-2.602497339E0
2.912926173E0,-1.795651317E0,9.775525093E0,-2.573766708E0
2.914940334E0,-1.836352706E0,9.768342972E0,-2.542642117E0
2.916923976E0,-1.881842494E0,9.746794701E0,-2.516305923E0
2.918938136E0,-1.934514999E0,9.708487511E0,-2.489969730E0
2.920921779E0,-1.982398987E0,9.655815125E0,-2.485181332E0
2.922935939E0,-2.018311977E0,9.593565941E0,-2.499546528E0
2.924919582E0,-2.044648170E0,9.521739960E0,-2.516305923E0
2.926903224E0,-2.044648170E0,9.433155060E0,-2.542642117E0
2.928917384E0,-2.015917778E0,9.325415611E0,-2.566584110E0
2.930901027E0,-1.972822189E0,9.215282440E0,-2.576161146E0
2.932884669E0,-1.917755604E0,9.097966194E0,-2.554613113E0
2.934898830E0,-1.850717902E0,8.987833023E0,-2.497152328E0
2.936882472E0,-1.774103403E0,8.877699852E0,-2.430114746E0
2.938866115E0,-1.707065821E0,8.762778282E0,-2.339135170E0
2.940880275E0,-1.649604917E0,8.655038834E0,-2.214636564E0
2.942863918E0,-1.582567334E0,8.554482460E0,-2.085349798E0
2.944847560E0,-1.520318031E0,8.463502884E0,-1.965639591E0
2.946861720E0,-1.479616642E0,8.394071579E0,-1.867477298E0
2.948845363E0,-1.450886250E0,8.339004517E0,-1.793257117E0
2.950829005E0,-1.438915253E0,8.305485725E0,-1.742978811E0
2.952843166E0,-1.443703651E0,8.291120529E0,-1.721431017E0
2.954857326E0,-1.450886250E0,8.295908928E0,-1.731007814E0
2.956840968E0,-1.467645645E0,8.315062523E0,-1.757344007E0
2.958855128E0,-1.501164436E0,8.355764389E0,-1.802833915E0
2.960838771E0,-1.541865945E0,8.408436775E0,-1.877054095E0
2.962852931E0,-1.582567334E0,8.463502884E0,-1.960851192E0
2.964867091E0,-1.616086125E0,8.528146744E0,-2.066195965E0
2.966850734E0,-1.651999116E0,8.588001251E0,-2.193088770E0
2.968864894E0,-1.685518026E0,8.640673637E0,-2.334346771E0
2.970879054E0,-1.728613615E0,8.695740700E0,-2.470816135E0
2.972862697E0,-1.769315004E0,8.746018410E0,-2.585737944E0
2.974876857E0,-1.805228114E0,8.789113998E0,-2.691082716E0
2.976860500E0,-1.845929503E0,8.829815865E0,-2.789244890E0
2.978874660E0,-1.881842494E0,8.863334656E0,-2.880224705E0
2.980827785E0,-1.912967205E0,8.884882927E0,-2.942473888E0
2.982841945E0,-1.934514999E0,8.889671326E0,-2.971204281E0
2.984825587E0,-1.939303398E0,8.899248123E0,-2.985569477E0
2.986839748E0,-1.941697598E0,8.918401718E0,-2.968810081E0
2.988853908E0,-1.965639591E0,8.932766914E0,-2.923320293E0
2.990837550E0,-2.008735180E0,8.942343712E0,-2.856282711E0
2.992821193E0,-2.063801765E0,8.944737434E0,-2.782062292E0
2.994804835E0,-2.135627985E0,8.937555313E0,-2.703053713E0
2.996818996E0,-2.197877169E0,8.930372238E0,-2.628833532E0
2.998802638E0,-2.255337954E0,8.925583839E0,-2.554613113E0
3.000786281E0,-2.315192938E0,8.925583839E0,-2.466027737E0
3.002769923E0,-2.343923569E0,8.927978516E0,-2.420537949E0
3.004753566E0,-2.391807556E0,8.935160637E0,-2.341529369E0
3.006737209E0,-2.408566952E0,8.947132111E0,-2.293645144E0
3.008720851E0,-2.437297344E0,8.983044624E0,-2.260126352E0
3.010735011E0,-2.516305923E0,9.030928612E0,-2.224213362E0
3.012718654E0,-2.590526342E0,9.093177795E0,-2.193088770E0
3.014702296E0,-2.667140722E0,9.165003777E0,-2.185906172E0
3.016716457E0,-2.722207308E0,9.239224434E0,-2.209848166E0
3.018700099E0,-2.772485495E0,9.325415611E0,-2.264914751E0
3.020683742E0,-2.841917515E0,9.423578262E0,-2.315192938E0
3.022667384E0,-2.901772499E0,9.509769440E0,-2.346317768E0
3.024651027E0,-2.913743496E0,9.595960617E0,-2.387019157E0
3.026634669E0,-2.920926094E0,9.691728592E0,-2.458845139E0
3.028648830E0,-2.930502892E0,9.773131371E0,-2.554613113E0
3.030632472E0,-2.899378300E0,9.842563629E0,-2.652775526E0
3.032616115E0,-2.837129116E0,9.902418137E0,-2.791639090E0
3.034630275E0,-2.738966703E0,9.955090523E0,-2.973598480E0
3.036613918E0,-2.616862535E0,9.995792389E0,-3.157952070E0
3.038597560E0,-2.499546528E0,1.003888798E1,-3.308786631E0
3.040611720E0,-2.396595955E0,1.007958889E1,-3.397372246E0
3.042595363E0,-2.298433542E0,1.011071396E1,-3.406949043E0
3.044609523E0,-2.195482969E0,1.013465595E1,-3.347094059E0
3.046593166E0,-2.054224968E0,1.016099167E1,-3.282450438E0
3.048607326E0,-1.872265697E0,1.018493366E1,-3.256114244E0
3.050590968E0,-1.680729628E0,1.021605873E1,-3.275267839E0
3.052574611E0,-1.479616642E0,1.025675964E1,-3.296815634E0
3.054588771E0,-1.268926859E0,1.030464458E1,-3.318363667E0
3.056572414E0,-1.063025594E0,1.036689377E1,-3.337517262E0
3.058556056E0,-8.858546019E-1,1.044111347E1,-3.347094059E0
3.060570216E0,-7.302315235E-1,1.052730465E1,-3.327940464E0
3.062553859E0,-5.889736414E-1,1.063025570E1,-3.287238836E0
3.064537501E0,-4.788403511E-1,1.073320580E1,-3.232172251E0
3.066551662E0,-3.806780577E-1,1.084812832E1,-3.157952070E0
3.068535304E0,-2.920926213E-1,1.097741508E1,-3.064578056E0
3.070518947E0,-2.154781520E-1,1.111149025E1,-2.952050686E0
3.072533107E0,-1.460463107E-1,1.123838234E1,-2.825158119E0
3.074516750E0,-8.140286058E-2,1.136048698E1,-2.683900118E0
3.076500392E0,-3.830722719E-2,1.148498535E1,-2.521094322E0
3.078514552E0,-7.182605099E-3,1.159751320E1,-2.363077164E0
3.080498195E0,2.394201607E-2,1.171004009E1,-2.221819162E0
3.082512355E0,3.351882473E-2,1.181777954E1,-2.092532396E0
3.084526515E0,3.112462163E-2,1.191354752E1,-1.987187386E0
3.086510158E0,1.436521020E-2,1.199973869E1,-1.884236693E0
3.088493800E0,-7.182605099E-3,1.208353615E1,-1.778891921E0
3.090477443E0,-4.548983276E-2,1.215775585E1,-1.668758631E0
3.092491603E0,-1.029506698E-1,1.222479343E1,-1.572990537E0
3.094475246E0,-1.819593310E-1,1.229183197E1,-1.484405041E0
3.096458888E0,-2.896983922E-1,1.235647488E1,-1.379060149E0
3.098473048E0,-4.237737060E-1,1.241872406E1,-1.273715258E0
3.100426173E0,-5.650315881E-1,1.247857952E1,-1.177947283E0
3.102440334E0,-7.110779285E-1,1.253125191E1,-1.106121182E0
3.104423976E0,-8.690952063E-1,1.259350109E1,-1.051054597E0
3.106438136E0,-1.029506683E0,1.264856720E1,-1.007958889E0
3.108421779E0,-1.197100878E0,1.271321106E1,-9.935936928E-1
3.110405421E0,-1.371877551E0,1.278264332E1,-9.959878922E-1
3.112419582E0,-1.561019540E0,1.284249783E1,-1.017535686E0
3.114433742E0,-1.738190413E0,1.289517021E1,-1.058237195E0
3.116417384E0,-1.896207690E0,1.294784260E1,-1.094150186E0
3.118431544E0,-2.051830769E0,1.301248646E1,-1.130063176E0
3.120415187E0,-2.221819162E0,1.308910084E1,-1.170764685E0
3.122429347E0,-2.387019157E0,1.316332054E1,-1.199495077E0
3.124412990E0,-2.549824715E0,1.324711800E1,-1.228225470E0
3.126396632E0,-2.664746523E0,1.332133865E1,-1.252167463E0
3.128410793E0,-2.777273893E0,1.338837624E1,-1.273715258E0
3.130424953E0,-2.882618904E0,1.346020222E1,-1.302445769E0
3.132408595E0,-2.964021683E0,1.352963352E1,-1.333570361E0
3.134392238E0,-3.016694069E0,1.355836391E1,-1.383848548E0
3.136375880E0,-3.090914488E0,1.357272911E1,-1.467645645E0
3.138359523E0,-3.124433279E0,1.359188271E1,-1.489193439E0
3.140343166E0,-3.117250681E0,1.364934349E1,-1.470039845E0
3.142326808E0,-3.035847664E0,1.369483376E1,-1.426944256E0
3.144310451E0,-2.980781078E0,1.372595787E1,-1.381454349E0
3.146294093E0,-2.952050686E0,1.374511242E1,-1.309628367E0
3.148308253E0,-2.944868088E0,1.374990082E1,-1.244984865E0
3.150291896E0,-2.949656487E0,1.372356415E1,-1.189918280E0
3.152275539E0,-2.935291290E0,1.369483376E1,-1.110909581E0
3.154289699E0,-2.889801502E0,1.365652657E1,-1.024718285E0
3.156273341E0,-2.789244890E0,1.360864258E1,-9.504981041E-1
3.158256984E0,-2.691082716E0,1.356554699E1,-8.978256583E-1
3.160240626E0,-2.576161146E0,1.351766300E1,-8.571242094E-1
3.162224269E0,-2.439691544E0,1.345541382E1,-8.188169599E-1
3.164207912E0,-2.296039343E0,1.339316463E1,-7.829039693E-1
3.166191554E0,-2.109291792E0,1.335006905E1,-7.350199223E-1
3.168205714E0,-1.893813491E0,1.330218506E1,-6.943184733E-1
3.170189357E0,-1.625662923E0,1.324951267E1,-6.943184733E-1
3.172173000E0,-1.383848548E0,1.317050362E1,-7.445967197E-1
3.174187160E0,-1.199495077E0,1.307712936E1,-8.236053586E-1
3.176170802E0,-1.034295082E0,1.297417927E1,-8.954314590E-1
3.178154445E0,-8.738836050E-1,1.285686302E1,-9.720458984E-1
3.180168605E0,-7.015010715E-1,1.272278786E1,-1.060631394E0
3.182152248E0,-5.171475410E-1,1.259350109E1,-1.118092179E0
3.184135890E0,-3.112462163E-1,1.246421432E1,-1.156399369E0
3.186150050E0,-1.388636976E-1,1.231337929E1,-1.235408068E0
3.188133693E0,0.000000000E0,1.216493893E1,-1.323993564E0
3.190117335E0,1.149216816E-1,1.202368069E1,-1.395819545E0
3.192131496E0,2.489969730E-1,1.189678860E1,-1.448492050E0
3.194115138E0,3.351882398E-1,1.176031876E1,-1.491587639E0
3.196098781E0,4.070142806E-1,1.161906052E1,-1.522712231E0
3.198112941E0,4.572925270E-1,1.146583176E1,-1.539471745E0
3.200096584E0,5.099649429E-1,1.132217979E1,-1.558625340E0
3.202110744E0,5.961562395E-1,1.120486355E1,-1.582567334E0
3.204124904E0,6.655880809E-1,1.105881786E1,-1.565807939E0
3.206108546E0,6.871358752E-1,1.087685871E1,-1.520318031E0
3.208122707E0,6.967126727E-1,1.073560047E1,-1.472434044E0
3.210136867E0,7.110779285E-1,1.059434223E1,-1.431732655E0
3.212120509E0,7.493851185E-1,1.043153667E1,-1.398213744E0
3.214104152E0,8.307880163E-1,1.029027843E1,-1.381454349E0
3.216087794E0,8.882488012E-1,1.017535686E1,-1.386242747E0
3.218101955E0,9.433154464E-1,1.006761837E1,-1.395819545E0
3.220085597E0,9.528923035E-1,9.943120003E0,-1.383848548E0
3.222099757E0,9.457096457E-1,9.801861763E0,-1.367089152E0
3.224083400E0,9.409212470E-1,9.691728592E0,-1.345541358E0
3.226097560E0,9.313444495E-1,9.631873131E0,-1.323993564E0
3.228081203E0,9.313444495E-1,9.555258751E0,-1.300051570E0
3.230064845E0,9.097966552E-1,9.457097054E0,-1.240196466E0
3.232079005E0,8.475474119E-1,9.397241592E0,-1.161187768E0
3.234093166E0,7.589619160E-1,9.361329079E0,-1.098938584E0
3.236076808E0,7.086837292E-1,9.332598686E0,-1.005564690E0
3.238090968E0,7.422025204E-1,9.284713745E0,-8.810662031E-1
3.240074611E0,8.403648138E-1,9.241618156E0,-7.589619160E-1
3.242088771E0,8.834604025E-1,9.205705643E0,-6.248866320E-1
3.244102931E0,7.996633649E-1,9.181763649E0,-4.357447028E-1
3.246086574E0,6.129156351E-1,9.208099365E0,-2.657563984E-1
3.248070216E0,3.878606856E-1,9.277531624E0,-1.077390760E-1
3.250053859E0,2.609679997E-1,9.375694275E0,2.394201607E-2
3.252068019E0,2.178723514E-1,9.478644371E0,6.703764945E-2
3.254051662E0,2.154781520E-1,9.562441826E0,2.873042040E-2
3.256035304E0,2.944868207E-1,9.615114212E0,-5.267243832E-2
3.258049464E0,3.663128614E-1,9.667786598E0,-1.460463107E-1
3.260033107E0,4.836287498E-1,9.773131371E0,-2.561795712E-1
3.262016750E0,5.339069963E-1,9.876082420E0,-3.711012602E-1
3.264030910E0,4.764461517E-1,9.983820915E0,-4.788403511E-1
3.266014552E0,3.950432837E-1,1.008198357E1,-5.817909837E-1
3.267998195E0,3.663128614E-1,1.018732834E1,-7.086837292E-1
3.270012355E0,3.782838583E-1,1.026633644E1,-8.690952063E-1
3.272026515E0,3.232172430E-1,1.034534550E1,-1.015141487E0
3.274010158E0,1.843535304E-1,1.046745014E1,-1.125274777E0
3.276024318E0,7.900865376E-2,1.064701462E1,-1.201889277E0
3.278038478E0,7.900865376E-2,1.084573364E1,-1.268926859E0
3.280022121E0,1.436520964E-1,1.098220348E1,-1.350329757E0
3.282005763E0,2.130839527E-1,1.108754826E1,-1.424550056E0
3.283989406E0,2.274491638E-1,1.119768143E1,-1.508347034E0
3.286003566E0,2.035071403E-1,1.132696819E1,-1.630451322E0
3.288017726E0,1.795651317E-1,1.146343803E1,-1.778891921E0
3.290001369E0,1.436520964E-1,1.158314800E1,-1.884236693E0
3.292015529E0,8.619125932E-2,1.171961689E1,-2.015917778E0
3.293999171E0,5.985504389E-2,1.178665543E1,-2.092532396E0
3.295982814E0,3.830722719E-2,1.188721180E1,-2.233790159E0
3.297996974E0,1.915361360E-2,1.194706631E1,-2.312798738E0
3.299980617E0,-1.197100803E-2,1.193748951E1,-2.346317768E0
3.301964259E0,-3.830722719E-2,1.188721180E1,-2.363077164E0
3.303947902E0,-2.154781483E-2,1.179383755E1,-2.348711967E0
3.305931544E0,5.985504389E-2,1.165497398E1,-2.267308950E0
3.307945705E0,1.987187415E-1,1.148498535E1,-2.121262789E0
3.309929347E0,4.094084799E-1,1.128866100E1,-1.939303398E0
3.311912990E0,6.320692301E-1,1.110670185E1,-1.805228114E0
3.313927150E0,8.738836050E-1,1.096544361E1,-1.716642618E0
3.315941310E0,1.175553083E0,1.086249352E1,-1.659181833E0
3.317924953E0,1.510741234E0,1.078587818E1,-1.654393315E0
3.319939113E0,1.776497602E0,1.071644688E1,-1.678335428E0
3.321892238E0,1.941697598E0,1.058955383E1,-1.697489023E0
3.323906398E0,2.075772762E0,1.040998936E1,-1.699883223E0
3.325890041E0,2.200271368E0,1.020169353E1,-1.675941229E0
3.327873683E0,2.310404539E0,9.979032516E0,-1.659181833E0
3.329887843E0,2.420537949E0,9.744400978E0,-1.685518026E0
3.331902003E0,2.545036316E0,9.483432770E0,-1.678335428E0
3.333885646E0,2.722207308E0,9.193734169E0,-1.680729628E0
3.335869289E0,2.887407303E0,8.892065048E0,-1.709460020E0
3.337852931E0,2.992752075E0,8.590395927E0,-1.687912226E0
3.339867091E0,3.059789658E0,8.312667847E0,-1.599326730E0
3.341850734E0,3.078943491E0,8.075642586E0,-1.508347034E0
3.343834376E0,3.076549292E0,7.864952564E0,-1.470039845E0
3.345818019E0,3.069366693E0,7.687781811E0,-1.453280449E0
3.347801662E0,3.078943491E0,7.541735172E0,-1.438915253E0
3.349785304E0,3.086126089E0,7.407660007E0,-1.395819545E0
3.351799464E0,3.074155092E0,7.297526836E0,-1.347935557E0
3.353783107E0,3.016694069E0,7.208941460E0,-1.285686255E0
3.355766750E0,2.954444885E0,7.125144482E0,-1.204283476E0
3.357780910E0,2.899378300E0,7.065289021E0,-1.151610970E0
3.359734035E0,2.808398485E0,7.053318024E0,-1.127668977E0
3.361748195E0,2.729389906E0,7.082048416E0,-1.125274777E0
3.363731837E0,2.638410330E0,7.127538681E0,-1.127668977E0
3.365715480E0,2.499546528E0,7.168240070E0,-1.149216771E0
3.367729640E0,2.355894566E0,7.170634270E0,-1.187524080E0
3.369743800E0,2.205059767E0,7.189787865E0,-1.252167463E0
3.371727443E0,2.042253971E0,7.254431248E0,-1.335964561E0
3.373741603E0,1.867477298E0,7.311892033E0,-1.429338455E0
3.375725246E0,1.680729628E0,7.350199223E0,-1.520318031E0
3.377739406E0,1.493981838E0,7.393294811E0,-1.601720929E0
3.379723048E0,1.345541358E0,7.433996201E0,-1.680729628E0
3.381706691E0,1.199495077E0,7.481880188E0,-1.776497602E0
3.383720851E0,1.031900883E0,7.520187378E0,-1.877054095E0
3.385704494E0,8.164227605E-1,7.556100368E0,-1.946485996E0
3.387688136E0,6.272808313E-1,7.568071365E0,-1.991975784E0
3.389702296E0,4.932055473E-1,7.570465565E0,-2.003946781E0
3.391716457E0,3.974374831E-1,7.556100368E0,-1.999158382E0
3.393700099E0,3.591302633E-1,7.553706169E0,-2.001552582E0
3.395714259E0,2.944868207E-1,7.592013359E0,-2.011129379E0
3.397728419E0,1.939303428E-1,7.637503624E0,-2.020706177E0
3.399712062E0,1.747767180E-1,7.601590633E0,-2.001552582E0
3.401665187E0,2.298433632E-1,7.510610580E0,-2.006340981E0
3.403679347E0,2.825157940E-1,7.433996201E0,-2.049436569E0
3.405662990E0,2.944868207E-1,7.402871609E0,-2.073378563E0
3.407646632E0,2.992752194E-1,7.354987621E0,-2.056619167E0
3.409660793E0,3.136404157E-1,7.297526836E0,-2.032677174E0
3.411644435E0,3.687070608E-1,7.242460251E0,-2.025494576E0
3.413628078E0,4.381389022E-1,7.201758862E0,-2.035071373E0
3.415642238E0,5.099649429E-1,7.177816868E0,-2.027888775E0
3.417656398E0,5.339069963E-1,7.189787865E0,-2.049436569E0
3.419640041E0,5.841852427E-1,7.113173485E0,-2.087743998E0
3.421623683E0,7.254431248E-1,6.964732647E0,-2.161964178E0
3.423607326E0,8.834604025E-1,6.852205276E0,-2.262520552E0
3.425590968E0,9.792284966E-1,6.789956093E0,-2.334346771E0
3.427605128E0,1.015141487E0,6.780379295E0,-2.384624958E0
3.429588771E0,1.048660398E0,6.775590897E0,-2.410961151E0
3.431572414E0,1.151610970E0,6.780379295E0,-2.458845139E0
3.433586574E0,1.228225470E0,6.823474884E0,-2.509123325E0
3.435570216E0,1.314416766E0,6.799532890E0,-2.557007313E0
3.437553859E0,1.419761658E0,6.749254704E0,-2.600103140E0
3.439568019E0,1.537077546E0,6.739677906E0,-2.614468336E0
3.441551662E0,1.656787634E0,6.770802498E0,-2.612074137E0
3.443565822E0,1.766920805E0,6.818686485E0,-2.604891539E0
3.445579982E0,1.879448295E0,6.885724068E0,-2.595314741E0
3.447563625E0,1.984793186E0,6.955155849E0,-2.602497339E0
3.449577785E0,2.082955360E0,7.000645638E0,-2.607285738E0
3.451591945E0,2.193088770E0,7.048529625E0,-2.600103140E0
3.453575587E0,2.329558372E0,7.086836815E0,-2.578555346E0
3.455589748E0,2.439691544E0,7.137115479E0,-2.566584110E0
3.457573390E0,2.485181332E0,7.235277653E0,-2.549824715E0
3.459587550E0,2.501940727E0,7.311892033E0,-2.533065319E0
3.461571193E0,2.595314741E0,7.299921036E0,-2.547430515E0
3.463554835E0,2.810792685E0,7.216124058E0,-2.568978310E0
3.465568996E0,3.110068083E0,7.125144482E0,-2.607285738E0
3.467552638E0,3.335123062E0,7.139509678E0,-2.631227732E0
3.469536281E0,3.459621429E0,7.180211067E0,-2.631227732E0
3.471550441E0,3.541024208E0,7.247248650E0,-2.626439333E0
3.473534084E0,3.545812607E0,7.371747017E0,-2.609679937E0
3.475517726E0,3.507505417E0,7.460332394E0,-2.607285738E0
3.477531886E0,3.490746021E0,7.472303391E0,-2.628833532E0
3.479515529E0,3.574543238E0,7.450755596E0,-2.676717520E0
3.481529689E0,3.703830004E0,7.453149796E0,-2.719813108E0
3.483513332E0,3.773261786E0,7.498639584E0,-2.750937700E0
3.485496974E0,3.756502390E0,7.580042362E0,-2.736572504E0
3.487511134E0,3.629609823E0,7.762001991E0,-2.700659513E0
3.489494777E0,3.466804028E0,7.915230751E0,-2.691082716E0
3.491478419E0,3.495534420E0,7.852981567E0,-2.750937700E0
3.493492580E0,3.737348795E0,7.651868820E0,-2.820369720E0
3.495506740E0,4.003105164E0,7.486668587E0,-2.846705914E0
3.497490382E0,4.091690540E0,7.426813602E0,-2.880224705E0
3.499504543E0,4.022258759E0,7.441178799E0,-2.935291290E0
3.501488185E0,3.964797974E0,7.457938194E0,-2.971204281E0
3.503471828E0,3.943250179E0,7.445967197E0,-2.956839085E0
3.505485988E0,3.857059002E0,7.469909191E0,-2.959233284E0
3.507469630E0,3.598485231E0,7.618350029E0,-3.002328873E0
3.509453273E0,3.246537447E0,7.807491779E0,-3.045424461E0
3.511467433E0,3.110068083E0,7.790732384E0,-3.110068083E0
3.513451076E0,3.246537447E0,7.632715225E0,-3.181894064E0
3.515434718E0,3.438073635E0,7.510610580E0,-3.217807055E0
3.517448878E0,3.502717018E0,7.508216381E0,-3.236960649E0
3.519432521E0,3.473986626E0,7.491456985E0,-3.268085241E0
3.521446681E0,3.514688015E0,7.350199223E0,-3.313575268E0
3.523430324E0,3.636792421E0,7.158663273E0,-3.363853455E0
3.525413966E0,3.718195200E0,7.036558628E0,-3.404554844E0
3.527428126E0,3.711012602E0,6.988674641E0,-3.392583847E0
3.529411769E0,3.660734415E0,6.952761650E0,-3.378218651E0
3.531395412E0,3.598485231E0,6.912060261E0,-3.397372246E0
3.533409572E0,3.514688015E0,6.892906666E0,-3.409343243E0
3.535393214E0,3.457227230E0,6.871358871E0,-3.397372246E0
3.537407375E0,3.440467834E0,6.840234280E0,-3.354276657E0
3.539391017E0,3.414131641E0,6.823474884E0,-3.313575268E0
3.541405177E0,3.404554844E0,6.787561893E0,-3.275267839E0
3.543388820E0,3.423708439E0,6.725312710E0,-3.224989653E0
3.545402980E0,3.438073635E0,6.672640324E0,-3.162740469E0
3.547417140E0,3.418920040E0,6.653486729E0,-3.105279684E0
3.549400783E0,3.390189648E0,6.663063526E0,-3.059789658E0
3.551414943E0,3.371036053E0,6.696582317E0,-3.004723072E0
3.553429103E0,3.222595453E0,6.921637058E0,-2.937685490E0
3.555412746E0,3.019088268E0,7.196970463E0,-2.868253708E0
3.557426906E0,3.081337690E0,7.113173485E0,-2.868253708E0
3.559410548E0,3.375824451E0,6.816292286E0,-2.896984100E0
3.561424709E0,3.737348795E0,6.517016888E0,-2.882618904E0
3.563408351E0,4.015076160E0,6.339846134E0,-2.825158119E0
3.565391994E0,4.106055737E0,6.303933144E0,-2.755726099E0
3.567406154E0,4.043806553E0,6.337451935E0,-2.712630510E0
3.569420314E0,3.950432777E0,6.406883717E0,-2.698265314E0
3.571403957E0,3.866635799E0,6.481103897E0,-2.705447912E0
3.573418117E0,3.830722809E0,6.538564682E0,-2.743755102E0
3.575401759E0,3.828328609E0,6.598419666E0,-2.796427488E0
3.577415919E0,3.840299606E0,6.643909931E0,-2.837129116E0
3.579399562E0,3.869029999E0,6.679822922E0,-2.896984100E0
3.581383205E0,3.900154591E0,6.713341713E0,-2.980781078E0
3.583366847E0,3.914519787E0,6.758831501E0,-3.064578056E0
3.585381007E0,3.902548790E0,6.797138691E0,-3.138798475E0
3.587395168E0,3.876212597E0,6.801927090E0,-3.189076662E0
3.589378810E0,3.859453201E0,6.785167694E0,-3.224989653E0
3.591392970E0,3.852270603E0,6.768408298E0,-3.275267839E0
3.593407130E0,3.825934410E0,6.775590897E0,-3.313575268E0
3.595390773E0,3.813963413E0,6.780379295E0,-3.347094059E0
3.597374416E0,3.816357613E0,6.763619900E0,-3.397372246E0
3.599358058E0,3.799597979E0,6.734889507E0,-3.447650433E0
3.601372218E0,3.754108191E0,6.715735912E0,-3.488351822E0
3.603355861E0,3.727771997E0,6.698976517E0,-3.507505417E0
3.605370021E0,3.711012602E0,6.672640324E0,-3.517082214E0
3.607353664E0,3.687070608E0,6.651092529E0,-3.524264812E0
3.609337306E0,3.660734415E0,6.627150536E0,-3.524264812E0
3.611351466E0,3.653551817E0,6.612784863E0,-3.526659012E0
3.613335109E0,3.651157618E0,6.596025467E0,-3.526659012E0
3.615318751E0,3.677493811E0,6.588842869E0,-3.529053211E0
3.617332912E0,3.727771997E0,6.572083473E0,-3.529053211E0
3.619316554E0,3.768473387E0,6.562506676E0,-3.526659012E0
3.621300197E0,3.794809580E0,6.572083473E0,-3.521870613E0
3.623314357E0,3.809175014E0,6.586448669E0,-3.514688015E0
3.625298000E0,3.813963413E0,6.605602264E0,-3.495534420E0
3.627281642E0,3.821146011E0,6.627150536E0,-3.483563423E0
3.629295802E0,3.835511208E0,6.655880928E0,-3.483563423E0
3.631279445E0,3.840299606E0,6.694188118E0,-3.490746021E0
3.633263087E0,3.840299606E0,6.732495308E0,-3.509899616E0
3.635277248E0,3.852270603E0,6.758831501E0,-3.538630009E0
3.637291408E0,3.845088005E0,6.782773495E0,-3.560178041E0
3.639275050E0,3.818751812E0,6.801927090E0,-3.572149038E0
3.641228175E0,3.799597979E0,6.823474884E0,-3.581725836E0
3.643242335E0,3.792415380E0,6.849811077E0,-3.608062029E0
3.645225978E0,3.794809580E0,6.871358871E0,-3.627215624E0
3.647209621E0,3.797203779E0,6.888118267E0,-3.636792421E0
3.649223781E0,3.823540211E0,6.900089264E0,-3.646369219E0
3.651207423E0,3.857059002E0,6.900089264E0,-3.660734415E0
3.653191066E0,3.883395195E0,6.907271862E0,-3.658340216E0
3.655205226E0,3.904942989E0,6.919242859E0,-3.655946016E0
3.657188869E0,3.921702385E0,6.940790653E0,-3.663128614E0
3.659172511E0,3.940855980E0,6.962338448E0,-3.663128614E0
3.661156154E0,3.969586372E0,6.983886242E0,-3.667917013E0
3.663139796E0,3.991134167E0,7.012616634E0,-3.670311213E0
3.665123439E0,4.005499363E0,7.026981831E0,-3.663128614E0
3.667137599E0,4.024652958E0,7.053318024E0,-3.648763418E0
3.669121242E0,4.046200752E0,7.089231014E0,-3.627215624E0
3.671104884E0,4.067748547E0,7.115567684E0,-3.596091032E0
3.673119044E0,4.098873138E0,7.132327080E0,-3.586514235E0
3.675133205E0,4.137180328E0,7.137115479E0,-3.586514235E0
3.677116847E0,4.175487995E0,7.146692276E0,-3.591302633E0
3.679131007E0,4.209006786E0,7.158663273E0,-3.596091032E0
3.681114650E0,4.237737179E0,7.165845871E0,-3.603273630E0
3.683128810E0,4.266467571E0,7.170634270E0,-3.608062029E0
3.685112453E0,4.297592163E0,7.168240070E0,-3.617638826E0
3.687096095E0,4.323928356E0,7.177816868E0,-3.620033026E0
3.689110255E0,4.350264549E0,7.177816868E0,-3.620033026E0
3.691124416E0,4.393360138E0,7.168240070E0,-3.632004023E0
3.693108058E0,4.441244125E0,7.161057472E0,-3.646369219E0
3.695122218E0,4.477157116E0,7.153874874E0,-3.651157618E0
3.697105861E0,4.513070107E0,7.134721279E0,-3.636792421E0
3.699089503E0,4.548983097E0,7.122750282E0,-3.622427225E0
3.701073146E0,4.582501888E0,7.122750282E0,-3.608062029E0
3.703056789E0,4.611232281E0,7.105990410E0,-3.593696833E0
3.705040431E0,4.642356873E0,7.094019413E0,-3.572149038E0
3.707054591E0,4.668693542E0,7.086836815E0,-3.567360640E0
3.709038234E0,4.687847137E0,7.082048416E0,-3.569754839E0
3.711021876E0,4.697423935E0,7.079654217E0,-3.579331636E0
3.713036037E0,4.714183331E0,7.072471619E0,-3.588908434E0
3.715050197E0,4.735731125E0,7.060500622E0,-3.598485231E0
3.717033839E0,4.745307922E0,7.046135426E0,-3.596091032E0
3.719048000E0,4.738125324E0,7.029376030E0,-3.593696833E0
3.721001125E0,4.723760128E0,7.019799232E0,-3.584120035E0
3.723015285E0,4.707000732E0,7.010222435E0,-3.581725836E0
3.724998927E0,4.687847137E0,7.005434036E0,-3.586514235E0
3.726982570E0,4.673481941E0,7.007828236E0,-3.588908434E0
3.728996730E0,4.651933670E0,7.015010834E0,-3.593696833E0
3.731010890E0,4.623203278E0,7.043741226E0,-3.591302633E0
3.732994533E0,4.594472885E0,7.077260017E0,-3.588908434E0
3.734978175E0,4.563348293E0,7.113173485E0,-3.586514235E0
3.736961818E0,4.522646904E0,7.149086475E0,-3.569754839E0
3.738975978E0,4.484339714E0,7.184999466E0,-3.541024208E0
3.740959621E0,4.450820923E0,7.228095055E0,-3.505111217E0
3.742943263E0,4.417302132E0,7.266402245E0,-3.471592426E0
3.744926906E0,4.374206543E0,7.299921036E0,-3.442862034E0
3.746941066E0,4.338293552E0,7.343016624E0,-3.423708439E0
3.748955226E0,4.297592163E0,7.388506413E0,-3.414131641E0
3.750938869E0,4.261679173E0,7.431602001E0,-3.402160645E0
3.752953029E0,4.244919777E0,7.453149796E0,-3.392583847E0
3.754967189E0,4.218583584E0,7.496245384E0,-3.375824451E0
3.756950832E0,4.199429989E0,7.524975777E0,-3.363853455E0
3.758964992E0,4.189853191E0,7.548917770E0,-3.356670856E0
3.760948634E0,4.187458992E0,7.575253963E0,-3.359065056E0
3.762962794E0,4.177882195E0,7.608773232E0,-3.373430252E0
3.764976955E0,4.163516521E0,7.644686222E0,-3.394978046E0
3.766960597E0,4.141968727E0,7.680599213E0,-3.421314240E0
3.768974757E0,4.110844135E0,7.709329605E0,-3.454833031E0
3.770958400E0,4.084507942E0,7.733271599E0,-3.490746021E0
3.772972560E0,4.065354347E0,7.754819393E0,-3.526659012E0
3.774956203E0,4.053383350E0,7.783549786E0,-3.550601006E0
3.776939845E0,4.046200752E0,7.812280178E0,-3.572149038E0
3.778954005E0,4.043806553E0,7.831433773E0,-3.593696833E0
3.780937648E0,4.043806553E0,7.841010571E0,-3.603273630E0
3.782921291E0,4.048594952E0,7.845798969E0,-3.612850428E0
3.784935451E0,4.046200752E0,7.857769966E0,-3.643975019E0
3.786919093E0,4.036623955E0,7.867346764E0,-3.689464808E0
3.788902736E0,4.029441357E0,7.884106159E0,-3.727771997E0
3.790916896E0,4.017470360E0,7.912836552E0,-3.768473387E0
3.792900539E0,4.000710964E0,7.931990147E0,-3.811569214E0
3.794884181E0,3.981557369E0,7.939172745E0,-3.857059002E0
3.796898341E0,3.952826977E0,7.953537941E0,-3.895366192E0
3.798881984E0,3.926490784E0,7.960720539E0,-3.921702385E0
3.800896144E0,3.907337189E0,7.967903137E0,-3.948038578E0
3.802879787E0,3.885789394E0,7.982268333E0,-3.964797974E0
3.804863429E0,3.885789394E0,7.989450932E0,-3.979163170E0
3.806877589E0,3.900154591E0,7.991845131E0,-3.988739967E0
3.808891750E0,3.924096584E0,8.003816605E0,-3.993528366E0
3.810875392E0,3.943250179E0,8.013393402E0,-4.000710964E0
3.812889552E0,3.955221176E0,8.013393402E0,-3.969586372E0
3.814903712E0,3.957615376E0,8.018181801E0,-3.864241600E0
3.816887355E0,3.964797974E0,8.042123795E0,-3.701435804E0
3.818901515E0,3.969586372E0,8.073247910E0,-3.519476414E0
3.820885158E0,3.979163170E0,8.090007782E0,-3.371036053E0
3.822868800E0,3.993528366E0,8.092401505E0,-3.256114244E0
3.824882960E0,4.017470360E0,8.097189903E0,-3.169923067E0
3.826866603E0,4.039018154E0,8.101978302E0,-3.131615877E0
3.828850246E0,4.043806553E0,8.099584579E0,-3.126827478E0
3.830864406E0,4.043806553E0,8.087613106E0,-3.119644880E0
3.832848048E0,4.055777550E0,8.068459511E0,-3.098097086E0
3.834831691E0,4.060565948E0,8.027758598E0,-3.057395458E0
3.836845851E0,4.072536945E0,7.984662533E0,-3.019088268E0
3.838829494E0,4.079719543E0,7.965508938E0,-2.973598480E0
3.840843654E0,4.060565948E0,7.963114738E0,-2.913743496E0
3.842857814E0,4.022258759E0,7.987056732E0,-2.861071110E0
3.844841457E0,3.964797974E0,8.058882713E0,-2.810792685E0
3.846825099E0,3.878606796E0,8.195352554E0,-2.760514498E0
3.848808742E0,3.787626982E0,8.403648376E0,-2.707842112E0
3.850822902E0,3.689464808E0,8.686163902E0,-2.679111719E0
3.852806544E0,3.610456228E0,9.021351814E0,-2.686294317E0
3.854790187E0,3.541024208E0,9.402029991E0,-2.731784105E0
3.856773830E0,3.454833031E0,9.801861763E0,-2.815581083E0
3.858757472E0,3.344699860E0,1.021127033E1,-2.920926094E0
3.860741115E0,3.205836058E0,1.065659142E1,-3.047818661E0
3.862724757E0,3.040636063E0,1.109233665E1,-3.220201254E0
3.864708400E0,2.892195702E0,1.150892735E1,-3.442862034E0
3.866722560E0,2.760514498E0,1.194706631E1,-3.696647406E0
3.868706203E0,2.585737944E0,1.239717674E1,-3.988739967E0
3.870689845E0,2.379836559E0,1.282334423E1,-4.307168961E0
3.872704005E0,2.205059767E0,1.319444561E1,-4.642356873E0
3.874687648E0,2.070984364E0,1.350808620E1,-4.944026470E0
3.876671291E0,1.982398987E0,1.375229454E1,-5.171475887E0
3.878685451E0,1.944091797E0,1.389355278E1,-5.346252441E0
3.880669093E0,1.953668594E0,1.395340729E1,-5.487510204E0
3.882683253E0,1.953668594E0,1.396537876E1,-5.561730385E0
3.884666896E0,1.934514999E0,1.391510010E1,-5.561730385E0
3.886681056E0,1.956062794E0,1.380017853E1,-5.511452198E0
3.888695216E0,2.049436569E0,1.364934349E1,-5.432443619E0
3.890678859E0,2.274491549E0,1.346738434E1,-5.346252441E0
3.892693019E0,2.631227732E0,1.328063679E1,-5.272032261E0
3.894676662E0,3.040636063E0,1.310346603E1,-5.207388878E0
3.896660304E0,3.411737442E0,1.296939087E1,-5.169081688E0
3.898674464E0,3.699041605E0,1.288559341E1,-5.190629482E0
3.900658107E0,3.902548790E0,1.284249783E1,-5.291185856E0
3.902641750E0,4.034229755E0,1.284010410E1,-5.425261021E0
3.904655910E0,4.115632534E0,1.287362289E1,-5.568912983E0
3.906639552E0,4.185064793E0,1.293826580E1,-5.719748020E0
3.908623195E0,4.278438568E0,1.300530338E1,-5.877765179E0
3.910637355E0,4.434061527E0,1.306276417E1,-6.023811340E0
3.912620998E0,4.541800499E0,1.308670616E1,-6.090848923E0
3.914604640E0,4.805162907E0,1.310107136E1,-6.220136166E0
3.916588283E0,5.104437828E0,1.306037045E1,-6.356605530E0
3.918571925E0,5.391742229E0,1.297178459E1,-6.457161903E0
3.920586085E0,5.635950565E0,1.285686302E1,-6.485892296E0
3.922569728E0,5.805939198E0,1.273236465E1,-6.476315498E0
3.924553371E0,5.899312973E0,1.258631802E1,-6.428431511E0
3.926567531E0,5.928043365E0,1.242351246E1,-6.320692539E0
3.928581691E0,5.889736176E0,1.224634171E1,-6.143521786E0
3.930565334E0,5.796362400E0,1.205241108E1,-5.918466568E0
3.932579494E0,5.643133640E0,1.184411621E1,-5.676652431E0
3.934563136E0,5.418078423E0,1.161187840E1,-5.408501625E0
3.936546779E0,5.114014626E0,1.137485218E1,-5.125985622E0
3.938530421E0,4.766855717E0,1.113064384E1,-4.845864296E0
3.940514064E0,4.410119534E0,1.088164711E1,-4.596867085E0
3.942528224E0,4.060565948E0,1.063504410E1,-4.386177540E0
3.944511867E0,3.732560396E0,1.039801788E1,-4.223371983E0
3.946495509E0,3.421314240E0,1.016578007E1,-4.118026733E0
3.948509669E0,3.124433279E0,9.938331604E0,-4.055777550E0
3.950523830E0,2.844311714E0,9.734824181E0,-4.027047157E0
3.952507472E0,2.571372509E0,9.543288231E0,-4.003105164E0
3.954521632E0,2.303221941E0,9.354146004E0,-3.986345768E0
3.956535793E0,2.044648170E0,9.162610054E0,-3.979163170E0
3.958519435E0,1.788468719E0,8.990227699E0,-3.991134167E0
3.960472560E0,1.527500629E0,8.841787338E0,-4.003105164E0
3.962486720E0,1.268926859E0,8.705317497E0,-3.988739967E0
3.964470363E0,1.019929886E0,8.580819130E0,-3.957615376E0
3.966454005E0,7.972691655E-1,8.463502884E0,-3.895366192E0
3.968468166E0,6.153098345E-1,8.362946510E0,-3.837905407E0
3.970451808E0,4.764461517E-1,8.276755333E0,-3.792415380E0
3.972435451E0,3.758896589E-1,8.209717751E0,-3.751713991E0
3.974449611E0,3.088520169E-1,8.173804283E0,-3.715801001E0
3.976433253E0,2.753331959E-1,8.166622162E0,-3.701435804E0
3.978416896E0,2.657563984E-1,8.188169479E0,-3.691859007E0
3.980400539E0,2.513911724E-1,8.243236542E0,-3.682282209E0
3.982384181E0,2.394201756E-1,8.319850922E0,-3.672705412E0
3.984367824E0,2.537853718E-1,8.408436775E0,-3.658340216E0
3.986381984E0,2.681505978E-1,8.516175270E0,-3.600879431E0
3.988365626E0,2.825157940E-1,8.631096840E0,-3.512293816E0
3.990349269E0,3.112462163E-1,8.769960403E0,-3.428496838E0
3.992363429E0,3.327940404E-1,8.937555313E0,-3.323152065E0
3.994377589E0,3.495534360E-1,9.105149269E0,-3.184288263E0
3.996361232E0,4.070142806E-1,9.265560150E0,-3.016694069E0
3.998375392E0,4.644751251E-1,9.471462250E0,-2.813186884E0
4.000359035E0,5.099649429E-1,9.696516991E0,-2.612074137E0
4.002373195E0,5.674257874E-1,9.916783333E0,-2.437297344E0
4.004387355E0,6.368576288E-1,1.012747288E1,-2.279279947E0
4.006370998E0,7.350199223E-1,1.032140350E1,-2.118868589E0
4.008385158E0,8.212111592E-1,1.050575733E1,-1.963245392E0
4.010399318E0,8.738836050E-1,1.069968700E1,-1.862688899E0
4.012382960E0,9.193734527E-1,1.088404083E1,-1.812410712E0
4.014397121E0,9.672574997E-1,1.103248119E1,-1.798045516E0
4.016380763E0,9.935936928E-1,1.116655636E1,-1.831564307E0
4.018394923E0,9.768342972E-1,1.129105568E1,-1.941697598E0
4.020378566E0,9.145850539E-1,1.141076565E1,-2.118868589E0
4.022362209E0,8.379706144E-1,1.150174522E1,-2.341529369E0
4.024376369E0,7.493851185E-1,1.154244614E1,-2.597708941E0
4.026360011E0,6.488286853E-1,1.154005241E1,-2.851494312E0
4.028343654E0,5.530605912E-1,1.148498535E1,-3.105279684E0
4.030357814E0,4.525041282E-1,1.140597725E1,-3.359065056E0
4.032341457E0,3.327940404E-1,1.131978607E1,-3.608062029E0
4.034325099E0,2.059013397E-1,1.120965195E1,-3.859453201E0
4.036339259E0,1.149216816E-1,1.103966427E1,-4.084507942E0
4.038322902E0,6.224924326E-2,1.080503273E1,-4.264073372E0
4.040337062E0,2.633621916E-2,1.053927612E1,-4.410119534E0
4.042351222E0,-1.436521020E-2,1.026633644E1,-4.527435303E0
4.044334865E0,-2.154781483E-2,9.986215591E0,-4.625597477E0
4.046349025E0,9.576806799E-3,9.682151794E0,-4.699818134E0
4.048332668E0,5.985504389E-2,9.366117477E0,-4.750096321E0
4.050346828E0,1.316810995E-1,9.078812599E0,-4.786009312E0
4.052330470E0,2.250549644E-1,8.820239067E0,-4.793191910E0
4.054314113E0,3.471592367E-1,8.578424454E0,-4.776432514E0
4.056328273E0,4.596867263E-1,8.362946510E0,-4.728548527E0
4.058342433E0,5.602431893E-1,8.173804283E0,-4.647145271E0
4.060326076E0,6.560112834E-1,8.013393402E0,-4.565742493E0
4.062309718E0,7.182605267E-1,7.903259754E0,-4.525041103E0
4.064323878E0,7.661445141E-1,7.831433773E0,-4.469974518E0
4.066307521E0,8.331822157E-1,7.776367188E0,-4.343081951E0
4.068291164E0,9.002198577E-1,7.738059998E0,-4.213795185E0
4.070274806E0,9.289502501E-1,7.730877399E0,-4.170699596E0
4.072258449E0,9.792284966E-1,7.738059998E0,-4.127603531E0
4.074272609E0,9.959878922E-1,7.783549786E0,-4.091690540E0
4.076256251E0,9.935936928E-1,7.845798969E0,-4.039018154E0
4.078239894E0,1.003170490E0,7.893682957E0,-3.983951569E0
4.080254054E0,1.010353088E0,7.943961143E0,-3.955221176E0
4.082237697E0,1.005564690E0,8.010998726E0,-3.943250179E0
4.084251857E0,9.864110947E-1,8.085219383E0,-3.945644379E0
4.086235500E0,9.672574997E-1,8.169015884E0,-3.957615376E0
