"Time (s)","Acceleration x (m/s^2)","Acceleration y (m/s^2)","Acceleration z (m/s^2)"
3.756641300E-2,-2.463607788E0,4.097259521E0,7.550796509E0
4.269336600E-2,-2.346359253E0,3.990768433E0,7.538833618E0
4.785083700E-2,-2.261413574E0,3.909423828E0,7.488586426E0
5.291675500E-2,-2.220733643E0,3.875915527E0,7.456283569E0
5.844043600E-2,-2.205184937E0,3.862762451E0,7.591476440E0
6.320117800E-2,-2.197998047E0,3.881896973E0,7.799652100E0
6.869434200E-2,-2.205184937E0,3.909423828E0,8.040130615E0
7.333301400E-2,-2.247055054E0,3.944122314E0,8.219589233E0
7.861255500E-2,-2.273376465E0,3.959671021E0,8.350006104E0
8.355640300E-2,-2.287734985E0,3.959671021E0,8.515106201E0
8.874439100E-2,-2.270980835E0,3.927368164E0,8.664657593E0
9.374927400E-2,-2.206375122E0,3.862762451E0,8.767547607E0
9.884571000E-2,-2.160903931E0,3.780212402E0,8.808227539E0
1.039726630E-1,-2.115447998E0,3.710815430E0,8.803436279E0
1.090690980E-1,-2.063995361E0,3.651000977E0,8.802246094E0
1.141655340E-1,-2.047256470E0,3.579208374E0,8.797454834E0
1.192924870E-1,-2.056823730E0,3.508621216E0,8.799850464E0
1.243889230E-1,-2.047256470E0,3.444015503E0,8.846511841E0
1.294853580E-1,-1.993408203E0,3.344711304E0,8.902740479E0
1.346123110E-1,-1.961105347E0,3.235839844E0,8.996063232E0
1.397087470E-1,-1.916839600E0,3.101837158E0,9.051101685E0
1.448051820E-1,-1.889328003E0,2.983398438E0,9.097763062E0
1.499321350E-1,-1.876159668E0,2.869735718E0,9.150405884E0
1.550285710E-1,-1.885742188E0,2.747711182E0,9.272430420E0
1.601250070E-1,-1.931198120E0,2.638824463E0,9.399261475E0
1.652214420E-1,-1.993408203E0,2.526367188E0,9.588287354E0
1.703483950E-1,-2.017333984E0,2.417495728E0,9.664855957E0
1.754448310E-1,-1.994613647E0,2.313400269E0,9.678024292E0
1.805412660E-1,-1.932388306E0,2.239227295E0,9.782104492E0
1.856682190E-1,-1.810363770E0,2.191375732E0,9.859878540E0
1.907646550E-1,-1.693115234E0,2.142318726E0,9.941223145E0
1.958610910E-1,-1.583038330E0,2.102844238E0,1.002856445E1
2.009880440E-1,-1.513656616E0,2.070541382E0,1.009197998E1
2.060844790E-1,-1.463409424E0,2.077713013E0,1.018769836E1
2.111809150E-1,-1.444259644E0,2.111206055E0,1.025109863E1
2.163078680E-1,-1.401184082E0,2.184188843E0,1.029177856E1
2.214043030E-1,-1.338973999E0,2.264358521E0,1.026187134E1
2.265007390E-1,-1.262405396E0,2.328964233E0,1.016615295E1
2.316276920E-1,-1.214553833E0,2.350494385E0,1.003933716E1
2.367241280E-1,-1.184631348E0,2.348098755E0,9.916107178E0
2.418510810E-1,-1.198989868E0,2.343322754E0,9.798858643E0
2.469475160E-1,-1.177459717E0,2.370834351E0,9.595474243E0
2.520439520E-1,-1.148742676E0,2.435440063E0,9.295166016E0
2.571403870E-1,-1.294708252E0,2.504837036E0,9.171936035E0
2.622673410E-1,-1.441864014E0,2.494064331E0,9.271240234E0
2.673637760E-1,-1.560317993E0,2.443817139E0,9.338241577E0
2.724602120E-1,-1.658416748E0,2.409118652E0,9.398056030E0
2.775871650E-1,-1.712249756E0,2.379211426E0,9.550003052E0
2.826836000E-1,-1.693115234E0,2.356475830E0,9.460266113E0
2.877800360E-1,-1.653625488E0,2.417495728E0,9.293975830E0
2.929069890E-1,-1.638076782E0,2.514404297E0,9.332260132E0
2.980034250E-1,-1.621322632E0,2.610122681E0,9.485397339E0
3.030998600E-1,-1.634490967E0,2.724975586E0,9.688781738E0
3.081962960E-1,-1.606964111E0,2.879302979E0,9.823974609E0
3.133232490E-1,-1.551940918E0,3.033645630E0,9.968750000E0
3.184196840E-1,-1.452636719E0,3.167648315E0,1.006684875E1
3.235466370E-1,-1.329406738E0,3.321975708E0,1.016256714E1
3.286430730E-1,-1.239669800E0,3.472732544E0,1.020802307E1
3.337700260E-1,-1.166687012E0,3.603134155E0,1.020683289E1
3.388664620E-1,-1.080551147E0,3.682098389E0,1.020085144E1
3.439628970E-1,-1.019531250E0,3.735946655E0,1.015658569E1
3.490898500E-1,-1.012359619E0,3.765853882E0,1.011830139E1
3.541862860E-1,-1.078155518E0,3.848403931E0,1.002737427E1
3.592827210E-1,-1.140365601E0,3.808914185E0,9.920898438E0
3.644096750E-1,-1.118835449E0,3.648605347E0,9.845520020E0
3.695061100E-1,-1.084136963E0,3.435638428E0,9.753387451E0
3.746025460E-1,-1.003982544E0,3.192764282E0,9.694763184E0
3.797294990E-1,-9.214324951E-1,2.933151245E0,9.667251587E0
3.848259340E-1,-8.783569336E-1,2.715408325E0,9.648117065E0
3.899223700E-1,-8.663940430E-1,2.507232666E0,9.625381470E0
3.950493230E-1,-8.891296387E-1,2.317001343E0,9.607437134E0
4.001457580E-1,-9.226226807E-1,2.188980103E0,9.603836060E0
4.052727120E-1,-9.704742432E-1,2.053787231E0,9.638534546E0
4.104301820E-1,-9.884338379E-1,1.861160278E0,9.807235718E0
4.154655830E-1,-9.788513184E-1,1.833648682E0,9.995071411E0
4.210197820E-1,-9.489440918E-1,1.886291504E0,1.012667847E1
4.256889710E-1,-8.927154541E-1,2.011917114E0,1.018170166E1
4.310295480E-1,-8.245239258E-1,2.151885986E0,1.029417419E1
4.359123600E-1,-7.539367676E-1,2.218887329E0,1.045449829E1
4.410698310E-1,-7.312011719E-1,2.200942993E0,1.062078857E1
4.461357490E-1,-7.587127686E-1,2.129165649E0,1.078230286E1
4.512321840E-1,-8.436584473E-1,2.020278931E0,1.091870117E1
4.563286200E-1,-9.740753174E-1,1.935333252E0,1.095579529E1
4.614555730E-1,-1.121231079E0,1.869537354E0,1.088879395E1
4.665520080E-1,-1.233688354E0,1.837234497E0,1.075120544E1
4.716789620E-1,-1.285140991E0,1.795364380E0,1.059088135E1
4.767448800E-1,-1.291122437E0,1.746307373E0,1.042817688E1
4.818718330E-1,-1.248046875E0,1.714004517E0,1.030374146E1
4.869682680E-1,-1.216934204E0,1.690078735E0,1.016496277E1
4.924309150E-1,-1.171478271E0,1.699645996E0,1.002258301E1
4.971916570E-1,-1.120025635E0,1.741516113E0,9.889785767E0
5.023186100E-1,-1.025512695E0,1.789382935E0,9.783309937E0
5.074150460E-1,-9.298095703E-1,1.871932983E0,9.660079956E0
5.125114810E-1,-8.269042969E-1,1.949691772E0,9.545211792E0
5.176384340E-1,-7.144470215E-1,2.016693115E0,9.423187256E0
5.227348700E-1,-6.127471924E-1,2.088485718E0,9.323883057E0
5.278313050E-1,-5.014801025E-1,2.142318726E0,9.224578857E0
5.329582580E-1,-4.213256836E-1,2.160263062E0,9.137237549E0
5.380546940E-1,-3.686828613E-1,2.162658691E0,9.070236206E0
5.431511300E-1,-3.435668945E-1,2.166244507E0,8.997268677E0
5.482780830E-1,-3.627014160E-1,2.177017212E0,8.981704712E0
5.533745180E-1,-4.488525391E-1,2.216491699E0,8.999649048E0
5.584709540E-1,-5.936126709E-1,2.302642822E0,9.016403198E0
5.635979070E-1,-7.670898438E-1,2.392364502E0,8.985290527E0
5.686943420E-1,-9.489440918E-1,2.462951660E0,8.956588745E0
5.738212960E-1,-1.078155518E0,2.540725708E0,8.935043335E0
5.788872140E-1,-1.154724121E0,2.570632935E0,8.981704712E0
5.840141670E-1,-1.149948120E0,2.577819824E0,9.158782959E0
5.891106020E-1,-1.126007080E0,2.558670044E0,9.232955933E0
5.942375550E-1,-1.102081299E0,2.558670044E0,9.287994385E0
5.993339910E-1,-1.063796997E0,2.547897339E0,9.365753174E0
6.044304260E-1,-9.967956543E-1,2.540725708E0,9.383697510E0
6.095268620E-1,-9.082641602E-1,2.532348633E0,9.399261475E0
6.146538150E-1,-8.113555908E-1,2.526367188E0,9.388488770E0
6.197502510E-1,-7.312011719E-1,2.544311523E0,9.390884399E0
6.255791080E-1,-7.000885010E-1,2.575424194E0,9.363357544E0
6.299736390E-1,-6.689910889E-1,2.580200195E0,9.327468872E0
6.350700750E-1,-6.414642334E-1,2.532348633E0,9.352600098E0
6.401665100E-1,-6.330871582E-1,2.482101440E0,9.404037476E0
6.452934640E-1,-6.187286377E-1,2.417495728E0,9.469848633E0
6.503898990E-1,-6.713714600E-1,2.376815796E0,9.496170044E0
6.554863350E-1,-7.431640625E-1,2.382797241E0,9.447113037E0
6.606132880E-1,-8.556213379E-1,2.334945679E0,9.456680298E0
6.657097230E-1,-1.051834106E0,2.317001343E0,9.487792969E0
6.708061590E-1,-1.141571045E0,2.330154419E0,9.344223022E0
6.759331120E-1,-1.005172729E0,2.315795898E0,9.132461548E0
6.810295480E-1,-8.783569336E-1,2.295455933E0,9.052291870E0
6.861565010E-1,-8.663940430E-1,2.279907227E0,9.046310425E0
6.912529360E-1,-9.238281250E-1,2.234436035E0,9.069046021E0
6.963493720E-1,-9.022827148E-1,2.165054321E0,9.078613281E0
7.014763250E-1,-8.089599609E-1,2.062164307E0,9.088195801E0
7.065727600E-1,-6.785583496E-1,1.983200073E0,9.163558960E0
7.116691960E-1,-5.038757324E-1,1.913803101E0,9.290390015E0
7.167961490E-1,-2.921142578E-1,1.886291504E0,9.455490112E0
7.218925850E-1,-1.138458252E-1,1.870727539E0,9.632553101E0
7.269890200E-1,7.876586914E-2,1.911407471E0,9.841934204E0
7.321159730E-1,2.678070068E-1,1.971237183E0,1.009796143E1
7.372124090E-1,4.604339600E-1,2.050201416E0,1.033604431E1
7.423088440E-1,6.518554688E-1,2.147109985E0,1.053942871E1
7.474357980E-1,8.384857178E-1,2.236831665E0,1.070812988E1
7.525322330E-1,1.005996704E0,2.342117310E0,1.085768127E1
7.576591860E-1,1.161529541E0,2.401947021E0,1.091749573E1
7.627556220E-1,1.262023926E0,2.424667358E0,1.091271973E1
7.678520570E-1,1.363723755E0,2.395965576E0,1.085887146E1
7.729790100E-1,1.454650879E0,2.339721680E0,1.073445129E1
7.780754460E-1,1.541976929E0,2.238037109E0,1.053584290E1
7.834770570E-1,1.597015381E0,2.144714355E0,1.029177856E1
7.882988350E-1,1.605392456E0,2.011917114E0,1.000584412E1
7.935478580E-1,1.562316895E0,1.889877319E0,9.675628662E0
7.985222230E-1,1.400802612E0,1.804931641E0,9.392074585E0
8.036186590E-1,1.191436768E0,1.739135742E0,9.138442993E0
8.087150940E-1,9.952239990E-1,1.685287476E0,9.025970459E0
8.138420480E-1,8.516540527E-1,1.660171509E0,8.994873047E0
8.189384830E-1,7.260284424E-1,1.614700317E0,9.059478760E0
8.240349190E-1,6.530456543E-1,1.585983276E0,9.118103027E0
8.291618720E-1,6.398925781E-1,1.564453125E0,9.225784302E0
8.342583070E-1,6.602325439E-1,1.601547241E0,9.328674316E0
8.393547430E-1,6.913299561E-1,1.670928955E0,9.471038818E0
8.444816960E-1,7.296142578E-1,1.775024414E0,9.631362915E0
8.495781320E-1,7.726898193E-1,1.909027100E0,9.770141602E0
8.546745670E-1,8.420867920E-1,2.022674561E0,9.934051514E0
8.598015200E-1,9.090881348E-1,2.089675903E0,1.009317017E1
8.648979560E-1,9.784698486E-1,2.114807129E0,1.020922852E1
8.699943910E-1,1.000015259E0,2.096862793E0,1.030732727E1
8.751213440E-1,1.004791260E0,2.037033081E0,1.034323120E1
8.802177800E-1,1.022735596E0,1.953292847E0,1.031690979E1
8.853447330E-1,1.001205444E0,1.865951538E0,1.024870300E1
8.904411690E-1,9.354095459E-1,1.783401489E0,1.011111450E1
8.955376040E-1,8.516540527E-1,1.721176147E0,9.941223145E0
9.006340400E-1,7.320098877E-1,1.676910400E0,9.801254272E0
9.057609930E-1,5.764770508E-1,1.638626099E0,9.620590210E0
9.108574280E-1,3.826599121E-1,1.597946167E0,9.423187256E0
9.159843820E-1,1.780700684E-1,1.569244385E0,9.209030151E0
9.210808170E-1,3.402709961E-3,1.544113159E0,9.021194458E0
9.262077700E-1,-1.521301270E-1,1.528564453E0,8.846511841E0
9.313042060E-1,-2.753601074E-1,1.524978638E0,8.661071777E0
9.364006410E-1,-3.710784912E-1,1.550094604E0,8.506729126E0
9.414970770E-1,-4.320983887E-1,1.565643311E0,8.382308960E0
9.465935120E-1,-4.823455811E-1,1.580001831E0,8.298553467E0
9.517204660E-1,-5.038757324E-1,1.603927612E0,8.266250610E0
9.568169010E-1,-4.907226562E-1,1.602737427E0,8.338043213E0
9.619133370E-1,-4.440612793E-1,1.595565796E0,8.513916016E0
9.670402900E-1,-3.471527100E-1,1.587188721E0,8.725677490E0
9.721367250E-1,-2.275085449E-1,1.576416016E0,9.019989014E0
9.772636780E-1,-1.114501953E-1,1.553680420E0,9.327468872E0
9.823601140E-1,-2.172851562E-2,1.546508789E0,9.608627319E0
9.874565500E-1,6.082153320E-2,1.551300049E0,9.829971313E0
9.925529850E-1,1.206512451E-1,1.587188721E0,1.005847168E1
9.977104560E-1,1.673126221E-1,1.641021729E0,1.024632263E1
1.002776374E0,2.032012939E-1,1.688873291E0,1.042578125E1
1.007903327E0,1.756744385E-1,1.694854736E0,1.067582703E1
1.012969245E0,-3.784179688E-3,1.645812988E0,1.098928833E1
1.018096198E0,-8.393859863E-2,1.594360352E0,1.089955139E1
1.023192633E0,-9.829711914E-2,1.529754639E0,1.068180847E1
1.028441657E0,-2.598114014E-1,1.417297363E0,1.070812988E1
1.033416022E0,-2.980957031E-1,1.344314575E0,1.052148438E1
1.038512458E0,-2.406768799E-1,1.325164795E0,1.020564270E1
1.043608893E0,-1.844329834E-1,1.323974609E0,1.005609131E1
1.048735846E0,-8.992004395E-2,1.343124390E0,9.977127075E0
1.053832282E0,1.589355469E-1,1.252197266E0,1.018409729E1
1.058959235E0,6.566314697E-1,1.005722046E0,1.095339966E1
1.064055671E0,1.084960938E0,1.022476196E0,1.153724670E1
1.069182624E0,1.277572632E0,1.422073364E0,1.140324402E1
1.074248542E0,1.246475220E0,2.038238525E0,1.110893250E1
1.079375495E0,1.206985474E0,2.529953003E0,1.088519287E1
1.084491743E0,1.257232666E0,2.808715820E0,1.077513123E1
1.089618696E0,1.290740967E0,2.979812622E0,1.074641418E1
1.094715132E0,1.284759521E0,3.058776855E0,1.074162292E1
1.099842085E0,1.335006714E0,3.107818604E0,1.085289001E1
1.104938521E0,1.429519653E0,3.069534302E0,1.090434265E1
1.110034956E0,1.503692627E0,2.983398438E0,1.093305969E1
1.115131392E0,1.498916626E0,2.869735718E0,1.094143677E1
1.120258345E0,1.400802612E0,2.778808594E0,1.096894836E1
1.125446333E0,1.238098145E0,2.698654175E0,1.103713989E1
1.130481734E0,1.092132568E0,2.628067017E0,1.107302856E1
1.135578169E0,9.976196289E-1,2.540725708E0,1.109934998E1
1.140674605E0,9.928283691E-1,2.404327393E0,1.091151428E1
1.146076216E0,1.029922485E0,2.238037109E0,1.072009277E1
1.150897993E0,1.064620972E0,2.098052979E0,1.069616699E1
1.156177534E0,1.082565308E0,2.001144409E0,1.066744995E1
1.161121382E0,1.002395630E0,1.897048950E0,1.065788269E1
1.166278853E0,8.779754639E-1,1.853988647E0,1.064471436E1
1.171314253E0,6.961212158E-1,1.792968750E0,1.061241150E1
1.176410689E0,5.429840088E-1,1.706832886E0,1.054542542E1
1.181537642E0,4.544525146E-1,1.613510132E0,1.043415833E1
1.186664595E0,4.077911377E-1,1.495056152E0,1.025588989E1
1.191761030E0,3.994140625E-1,1.398147583E0,1.006207275E1
1.196857466E0,4.496612549E-1,1.304824829E0,9.816802979E0
1.201984419E0,5.226440430E-1,1.268936157E0,9.551193237E0
1.207080855E0,5.573425293E-1,1.255783081E0,9.272430420E0
1.212177290E0,5.764770508E-1,1.274917603E0,9.030761719E0
1.217334761E0,6.267242432E-1,1.309616089E0,8.915908813E0
1.222400679E0,5.717010498E-1,1.340728760E0,8.882400513E0
1.227527632E0,3.049011230E-1,1.306030273E0,8.781906128E0
1.232624068E0,-2.071685791E-1,1.394561768E0,8.784301758E0
1.237751021E0,1.242370605E-1,1.369430542E0,8.663467407E0
1.242847456E0,6.949310303E-1,1.417297363E0,8.751998901E0
1.247974409E0,1.324234009E0,1.516601562E0,8.998458862E0
1.253070845E0,1.625732422E0,1.685287476E0,9.516510010E0
1.258197798E0,1.641281128E0,1.776214600E0,9.966354370E0
1.263294234E0,1.425933838E0,1.721176147E0,1.038151550E1
1.268390669E0,1.125625610E0,1.547698975E0,1.061959839E1
1.273517622E0,8.492584229E-1,1.341918945E0,1.068061829E1
1.278614058E0,6.578369141E-1,1.151687622E0,1.060523987E1
1.283741011E0,4.759826660E-1,1.136138916E0,1.062318420E1
1.288837446E0,4.915313721E-1,1.436431885E0,1.065788269E1
1.293933882E0,8.408813477E-1,1.402938843E0,1.056336975E1
1.299060835E0,1.026336670E0,1.247406006E0,1.035519409E1
1.304157271E0,9.820556641E-1,1.194763184E0,1.014939880E1
1.309284224E0,8.672027588E-1,1.249801636E0,1.004052734E1
1.314380659E0,8.636169434E-1,1.446014404E0,1.002018738E1
1.319507613E0,9.832611084E-1,1.655380249E0,9.990280151E0
1.324604048E0,1.080169678E0,1.822875977E0,9.893371582E0
1.329731001E0,1.022735596E0,2.178207397E0,9.889785767E0
1.334827437E0,1.128021240E0,2.252395630E0,9.692382812E0
1.339954390E0,1.246475220E0,2.206924438E0,9.497360229E0
1.345050825E0,1.308685303E0,2.115997314E0,9.334655762E0
1.350177779E0,1.245269775E0,2.133941650E0,9.157577515E0
1.355274214E0,1.270401001E0,2.312210083E0,9.076217651E0
1.360401167E0,1.381668091E0,2.404327393E0,9.019989014E0
1.365497603E0,1.417556763E0,2.331359863E0,8.883605957E0
1.370624556E0,1.301498413E0,2.084884644E0,8.751998901E0
1.375720991E0,1.029922485E0,1.836044312E0,8.714904785E0
1.380847945E0,8.038024902E-1,1.691268921E0,8.623977661E0
1.385944380E0,6.554412842E-1,1.650588989E0,8.500747681E0
1.391071333E0,5.501556396E-1,1.647003174E0,8.357177734E0
1.396167769E0,4.448699951E-1,1.680511475E0,8.286590576E0
1.401294722E0,3.156585693E-1,1.722381592E0,8.287796021E0
1.406391157E0,1.900329590E-1,1.853988647E0,8.303344727E0
1.411487593E0,8.116149902E-2,2.177017212E0,8.220794678E0
1.416614546E0,5.484008789E-2,2.472534180E0,8.019790649E0
1.421710982E0,1.158599854E-1,2.675918579E0,7.685989380E0
1.426837935E0,1.828613281E-1,2.795562744E0,7.553192139E0
1.431934370E0,1.086883545E-1,2.835037231E0,7.697952271E0
1.437061323E0,-1.305999756E-1,2.800338745E0,7.940826416E0
1.442188277E0,-2.957000732E-1,2.654388428E0,8.248306274E0
1.447254195E0,-3.639068604E-1,2.507232666E0,8.455291748E0
1.452381148E0,-3.519287109E-1,2.303833008E0,8.603637695E0
1.457477583E0,-3.758697510E-1,2.058578491E0,8.893173218E0
1.462604536E0,-4.548339844E-1,1.808517456E0,9.289184570E0
1.467700972E0,-5.290069580E-1,1.595565796E0,9.664855957E0
1.472827925E0,-4.440612793E-1,1.249801636E0,1.022238159E1
1.477924361E0,-3.782501221E-1,8.011474609E-1,1.106704712E1
1.483020796E0,-4.189300537E-1,5.271606445E-1,1.166764832E1
1.488483443E0,-3.746643066E-1,3.596649170E-1,1.193325806E1
1.493244185E0,-1.904144287E-1,2.400207520E-1,1.202896118E1
1.498523726E0,-7.914733887E-2,2.089233398E-1,1.197512817E1
1.503467573E0,-4.446411133E-2,2.029418945E-1,1.177772522E1
1.508594527E0,-3.727722168E-2,2.077178955E-1,1.157792664E1
1.513690962E0,-8.633422852E-2,2.125091553E-1,1.139486694E1
1.518817915E0,-2.047729492E-1,2.507934570E-1,1.120344543E1
1.523914351E0,-3.004913330E-1,2.842864990E-1,1.105270386E1
1.529010786E0,-3.423614502E-1,3.225708008E-1,1.089955139E1
1.534137739E0,-3.208312988E-1,3.943634033E-1,1.067463684E1
1.539234175E0,-2.490386963E-1,4.948577881E-1,1.047004700E1
1.544361128E0,-1.904144287E-1,6.276702881E-1,1.025109863E1
1.549457564E0,-2.861328125E-1,9.375305176E-1,9.910125732E0
1.554553999E0,-4.069671631E-1,1.581207275E0,9.450698853E0
1.559680952E0,-2.574157715E-1,2.016693115E0,9.145614624E0
1.565418257E0,-2.310943604E-1,2.197357178E0,9.168350220E0
1.569904341E0,-3.112640381E-1,2.261962891E0,9.368148804E0
1.575000777E0,-3.435668945E-1,2.267944336E0,9.620590210E0
1.580127730E0,-2.993011475E-1,2.253585815E0,9.823974609E0
1.585224165E0,-2.023773193E-1,2.196151733E0,9.936447144E0
1.590351118E0,-2.490386963E-1,2.175811768E0,9.961563110E0
1.595447554E0,-4.057769775E-1,2.130355835E0,9.892181396E0
1.600574507E0,-4.584197998E-1,1.943710327E0,9.817993164E0
1.605670943E0,-4.368743896E-1,1.650588989E0,9.807235718E0
1.610767378E0,-4.213256836E-1,1.495056152E0,1.001899719E1
1.615894331E0,-3.722686768E-1,1.384994507E0,1.025828552E1
1.620990767E0,-3.782501221E-1,1.261764526E0,1.034921265E1
1.626117720E0,-4.057769775E-1,1.081100464E0,1.035040283E1
1.631244673E0,-4.775543213E-1,9.064331055E-1,1.017811584E1
1.636341109E0,-5.589141846E-1,7.377319336E-1,9.883804321E0
1.641437544E0,-6.486511230E-1,6.647491455E-1,9.421981812E0
1.646533980E0,-6.606140137E-1,7.317504883E-1,8.864456177E0
1.651660933E0,-6.342926025E-1,8.525848389E-1,8.383499146E0
1.656757368E0,-6.378784180E-1,9.506988525E-1,8.116699219E0
1.661884321E0,-6.402740479E-1,1.010513306E0,8.160964966E0
1.666980757E0,-7.383728027E-1,1.053588867E0,8.488784790E0
1.672107710E0,-9.357910156E-1,1.085891724E0,9.063064575E0
1.677204146E0,-1.135589600E0,1.042816162E0,9.717498779E0
1.682331099E0,-1.262405396E0,9.195861816E-1,1.023913574E1
1.687427534E0,-1.236083984E0,7.951660156E-1,1.060284424E1
1.692554488E0,-1.198989868E0,7.221832275E-1,1.075598145E1
1.697650923E0,-1.237274170E0,6.815032959E-1,1.076914978E1
1.702777876E0,-1.317443848E0,6.683349609E-1,1.066267395E1
1.707874312E0,-1.401184082E0,6.958618164E-1,1.046286011E1
1.712970747E0,-1.458618164E0,7.449188232E-1,1.014462280E1
1.718097700E0,-1.506469727E0,7.915649414E-1,9.846710205E0
1.723194136E0,-1.543563843E0,8.789062500E-1,9.512908936E0
1.728290571E0,-1.600982666E0,1.004531860E0,9.198257446E0
1.733417525E0,-1.628509521E0,1.168441772E0,9.004440308E0
1.738513960E0,-1.633285522E0,1.346710205E0,8.963760376E0
1.743640913E0,-1.650039673E0,1.524978638E0,9.067855835E0
1.748737349E0,-1.715850830E0,1.656570435E0,9.264068604E0
1.753864302E0,-1.947952271E0,1.764251709E0,9.502151489E0
1.758960738E0,-2.105880737E0,1.748703003E0,9.765350342E0
1.764087691E0,-2.086730957E0,1.626663208E0,1.009317017E1
1.769184126E0,-2.040069580E0,1.465148926E0,1.033604431E1
1.774311079E0,-2.135787964E0,1.255783081E0,1.045927429E1
1.779407515E0,-2.266189575E0,1.040420532E0,1.043534851E1
1.784503950E0,-2.363098145E0,8.226776123E-1,1.030134583E1
1.789630904E0,-2.428909302E0,5.498962402E-1,1.016137695E1
1.794727339E0,-2.475570679E0,2.496032715E-1,1.002378845E1
1.799823775E0,-2.513854980E0,-7.104492188E-2,9.954391479E0
1.804950728E0,-2.536590576E0,-3.904876709E-1,9.934051514E0
1.810047163E0,-2.572479248E0,-6.560821533E-1,9.901748657E0
1.815174116E0,-2.623916626E0,-8.941650391E-1,9.874237061E0
1.820301070E0,-2.680145264E0,-8.331604004E-1,1.051550293E1
1.825397505E0,-2.414550781E0,-2.744293213E-1,1.168919373E1
1.830860152E0,-1.880950928E0,1.455078125E-1,1.153604126E1
1.835620894E0,-1.609359741E0,1.670379639E-1,1.027024841E1
1.840930952E0,-1.750534058E0,7.373046875E-2,9.039138794E0
1.845813765E0,-1.962310791E0,-1.121520996E-2,8.680206299E0
1.851001753E0,-1.988632202E0,-1.691436768E-1,9.104934692E0
1.856037154E0,-1.843856812E0,-6.716461182E-1,9.605041504E0
1.861133589E0,-1.931198120E0,-1.710128784E0,9.473434448E0
1.866260542E0,-2.242263794E0,-2.834747314E0,9.152801514E0
1.871356978E0,-2.671783447E0,-2.670837402E0,9.511718750E0
1.876483931E0,-2.894317627E0,-1.711318970E0,9.180313110E0
1.881580366E0,-2.632293701E0,-8.475189209E-1,8.573730469E0
1.886676802E0,-2.251831055E0,-1.906890869E-1,8.387084961E0
1.891803755E0,-2.041275024E0,2.388305664E-1,8.566558838E0
1.896900191E0,-2.023315430E0,4.063262939E-1,8.924285889E0
1.902027144E0,-2.029312134E0,4.158935547E-1,9.370544434E0
1.907123579E0,-1.991012573E0,3.500976562E-1,9.865859985E0
1.912250532E0,-1.988632202E0,2.472076416E-1,1.030374146E1
1.917346968E0,-2.060409546E0,1.586761475E-1,1.062916565E1
1.922443404E0,-2.068786621E0,1.203918457E-1,1.084213257E1
1.927570357E0,-2.071182251E0,1.012420654E-1,1.089955139E1
1.932666792E0,-2.093917847E0,1.419219971E-1,1.081221008E1
1.937793745E0,-2.136978149E0,2.065277100E-1,1.063395691E1
1.942890181E0,-2.164505005E0,3.153991699E-1,1.049876404E1
1.947986616E0,-2.223129272E0,4.063262939E-1,1.035638428E1
1.953113570E0,-2.284133911E0,4.900817871E-1,1.012667847E1
1.958210005E0,-2.363098145E0,4.948577881E-1,9.810821533E0
1.963336958E0,-2.480346680E0,6.384277344E-1,9.279617310E0
1.968433394E0,-2.491119385E0,7.975463867E-1,8.679016113E0
1.973529829E0,-2.457626343E0,9.710388184E-1,7.898956299E0
1.978656782E0,-2.498291016E0,1.053588867E0,7.596267700E0
1.983814253E0,-2.696899414E0,9.841918945E-1,7.628570557E0
1.988880171E0,-2.952941895E0,6.898803711E-1,7.749404907E0
1.994007124E0,-3.150344849E0,1.885833740E-1,8.107131958E0
1.999103560E0,-3.335784912E0,-3.079376221E-1,8.366760254E0
2.004199995E0,-3.497299194E0,-7.362518311E-1,8.578521729E0
2.009296431E0,-3.604980469E0,-1.041336060E0,8.804641724E0
2.014423384E0,-3.656417847E0,-1.256683350E0,9.094177246E0
2.019519820E0,-3.655227661E0,-1.363159180E0,9.492584229E0
2.024646773E0,-3.706680298E0,-1.339233398E0,9.960372925E0
2.029743208E0,-3.823928833E0,-1.208831787E0,1.041261292E1
2.034839644E0,-3.948348999E0,-9.934692383E-1,1.073086548E1
2.039936079E0,-4.069183350E0,-7.254791260E-1,1.092347717E1
2.045063032E0,-4.176864624E0,-3.940734863E-1,1.095219421E1
2.050159468E0,-4.251037598E0,-2.198791504E-2,1.081101990E1
2.055255904E0,-4.233093262E0,3.094177246E-1,1.061480713E1
2.060382857E0,-4.166091919E0,5.917663574E-1,1.049876404E1
2.065479292E0,-4.076370239E0,8.466033936E-1,1.056935120E1
2.070575728E0,-3.997406006E0,1.070327759E0,1.072966003E1
2.075702681E0,-3.985443115E0,1.194763184E0,1.064233398E1
2.080799116E0,-4.000991821E0,1.234237671E0,1.038270569E1
2.085926070E0,-3.979461670E0,1.174423218E0,1.003096008E1
2.091022505E0,-3.827514648E0,9.901733398E-1,9.776123047E0
2.096118941E0,-3.656417847E0,6.910705566E-1,9.673233032E0
2.101215376E0,-3.515243530E0,2.962646484E-1,9.553588867E0
2.106342329E0,-3.425521851E0,-8.898925781E-2,9.378921509E0
2.111438765E0,-3.307067871E0,-3.773193359E-1,9.216201782E0
2.116565718E0,-3.162307739E0,-6.201934814E-1,8.974533081E0
2.121662154E0,-3.043869019E0,-8.403320312E-1,8.766357422E0
2.126789107E0,-2.946945190E0,-1.174133301E0,8.676620483E0
2.131855025E0,-2.857223511E0,-1.661071777E0,8.350006104E0
2.136981978E0,-2.737579346E0,-2.107330322E0,8.170547485E0
2.142078413E0,-2.418136597E0,-2.337051392E0,8.567749023E0
2.147205366E0,-2.093917847E0,-2.345413208E0,8.921890259E0
2.152301802E0,-1.760116577E0,-2.323883057E0,8.918304443E0
2.157398238E0,-1.439468384E0,-2.310729980E0,8.781906128E0
2.162494673E0,-1.160705566E0,-2.337051392E0,8.751998901E0
2.167621626E0,-8.843383789E-1,-2.341827393E0,8.793869019E0
2.172809614E0,-6.330871582E-1,-2.349014282E0,8.878814697E0
2.177845015E0,-3.878326416E-1,-2.368148804E0,8.984100342E0
2.182941450E0,-1.569213867E-1,-2.350204468E0,9.031951904E0
2.188068404E0,1.086883545E-1,-2.266448975E0,8.909927368E0
2.193470015E0,3.718872070E-1,-2.134857178E0,8.537841797E0
2.198261275E0,6.051940918E-1,-2.064270020E0,7.965957642E0
2.203571333E0,5.680999756E-1,-2.002044678E0,7.489776611E0
2.208484663E0,7.032928467E-1,-2.061874390E0,7.130859375E0
2.213611616E0,9.150695801E-1,-2.302352905E0,6.837738037E0
2.218677534E0,1.056243896E0,-2.668457031E0,6.572143555E0
2.223773970E0,1.191436768E0,-3.062072754E0,6.287384033E0
2.228900923E0,1.275177002E0,-3.418594360E0,5.914108276E0
2.233997359E0,1.186645508E0,-3.683013916E0,5.297958374E0
2.239093794E0,3.671112061E-1,-3.613616943E0,4.596862793E0
2.244190230E0,-1.069778442E0,-3.331268311E0,3.920883179E0
2.249317183E0,-7.958068848E-1,-3.885208130E0,3.965148926E0
2.254413618E0,1.007080078E-3,-4.781311035E0,4.334854126E0
2.259510054E0,9.342041016E-1,-5.785095215E0,4.888778687E0
2.264637007E0,1.254837036E0,-6.408432007E0,5.410415649E0
2.269733443E0,1.174682617E0,-6.776931763E0,6.051696777E0
2.274829878E0,7.511596680E-1,-6.955184937E0,6.646316528E0
2.279926314E0,7.278442383E-2,-6.999465942E0,7.206237793E0
2.285053267E0,-7.527313232E-1,-6.942031860E0,7.738632202E0
2.290149702E0,-1.687133789E0,-6.793670654E0,8.233947754E0
2.295246138E0,-2.646652222E0,-6.569946289E0,8.632354736E0
2.300373091E0,-3.615753174E0,-6.280410767E0,8.947006226E0
2.305469527E0,-4.533386230E0,-5.971740723E0,9.167160034E0
2.310565962E0,-5.412750244E0,-5.666656494E0,9.329864502E0
2.315692915E0,-6.228713989E0,-5.318496704E0,9.443527222E0
2.320789351E0,-6.971679688E0,-4.934448242E0,9.509323120E0
2.325885786E0,-7.596206665E0,-4.490585327E0,9.487792969E0
2.330982222E0,-8.073577881E0,-4.014419556E0,9.383697510E0
2.336109175E0,-8.439682007E0,-3.549011230E0,9.241333008E0
2.341205611E0,-8.653839111E0,-3.059677124E0,9.057083130E0
2.346302046E0,-8.683746338E0,-2.576324463E0,8.851303101E0
2.351428999E0,-8.556930542E0,-2.163558960E0,8.584503174E0
2.356525435E0,-8.201583862E0,-1.842926025E0,8.257873535E0
2.361621870E0,-7.665603638E0,-1.692184448E0,7.892974854E0
2.366718306E0,-7.049453735E0,-1.712524414E0,7.619003296E0
2.371845259E0,-6.435684204E0,-1.848907471E0,7.432357788E0
2.376941695E0,-5.906875610E0,-2.002044678E0,7.328262329E0
2.382038130E0,-5.512054443E0,-2.089385986E0,7.293579102E0
2.387165083E0,-5.214157104E0,-2.156387329E0,7.307922363E0
2.392261519E0,-4.990417480E0,-2.173141479E0,7.379714966E0
2.397357954E0,-4.810958862E0,-2.127670288E0,7.441925049E0
2.402454390E0,-4.710464478E0,-2.096572876E0,7.400054932E0
2.407581343E0,-4.832504272E0,-2.161178589E0,7.175125122E0
2.412677779E0,-5.150741577E0,-2.254486084E0,7.163162231E0
2.417774214E0,-5.525222778E0,-2.347808838E0,7.400054932E0
2.422870650E0,-5.930801392E0,-2.416000366E0,7.779312134E0
2.427997603E0,-6.377059937E0,-2.419601440E0,8.003036499E0
2.433094038E0,-6.801788330E0,-2.371734619E0,8.015014648E0
2.438190474E0,-7.132003784E0,-2.277221680E0,7.845123291E0
2.443286909E0,-7.384445190E0,-2.195861816E0,7.640533447E0
2.448413863E0,-7.548355103E0,-2.083404541E0,7.372528076E0
2.453510298E0,-7.567489624E0,-2.000854492E0,7.054290771E0
2.458606734E0,-7.335388184E0,-1.951797485E0,6.764755249E0
2.463733687E0,-6.881942749E0,-1.939834595E0,6.499160767E0
2.468830122E0,-6.268188477E0,-2.017608643E0,6.306533813E0
2.473926558E0,-5.619735718E0,-2.212615967E0,6.178512573E0
2.479022993E0,-5.039474487E0,-2.575134277E0,6.118698120E0
2.484149946E0,-4.531005859E0,-3.164962769E0,6.092376709E0
2.489246382E0,-4.099090576E0,-3.866058350E0,6.058868408E0
2.494342818E0,-3.704284668E0,-4.448715210E0,6.060073853E0
2.499469771E0,-3.363296509E0,-4.899765015E0,6.149795532E0
2.505390181E0,-3.122817993E0,-5.220397949E0,6.283798218E0
2.509662642E0,-3.089324951E0,-5.482406616E0,6.415405273E0
2.514789595E0,-3.277160645E0,-5.603240967E0,6.554183960E0
2.519886030E0,-3.573867798E0,-5.561370850E0,6.702545166E0
2.524982466E0,-3.951934814E0,-5.401046753E0,6.781509399E0
2.530078902E0,-4.402984619E0,-5.204849243E0,6.797058105E0
2.535205855E0,-4.910263062E0,-4.999053955E0,6.740829468E0
2.540302290E0,-5.439071655E0,-4.783706665E0,6.600845337E0
2.545398726E0,-5.945159912E0,-4.509719849E0,6.213211060E0
2.550525679E0,-6.454833984E0,-4.120895386E0,6.007431030E0
2.555957808E0,-6.935791016E0,-3.821792603E0,5.823181152E0
2.560718550E0,-7.309066772E0,-3.837341309E0,5.662857056E0
2.565998091E0,-7.413162231E0,-4.284805298E0,5.656875610E0
2.570941939E0,-7.260009766E0,-5.079223633E0,5.770538330E0
2.576129927E0,-6.941772461E0,-6.061477661E0,5.936843872E0
2.581165327E0,-6.619934082E0,-7.086791992E0,6.089981079E0
2.586261763E0,-6.396209717E0,-8.004440308E0,6.182098389E0
2.591358198E0,-6.385437012E0,-8.555984497E0,6.110321045E0
2.596485152E0,-6.520629883E0,-8.887390137E0,5.326675415E0
2.601581587E0,-6.770675659E0,-8.992675781E0,4.909118652E0
2.606678023E0,-7.187026978E0,-8.834747314E0,4.738037109E0
2.611804976E0,-7.593811035E0,-8.651702881E0,4.805038452E0
2.616901411E0,-8.049652100E0,-8.456695557E0,5.047912598E0
2.621997847E0,-8.635894775E0,-8.204238892E0,5.333847046E0
2.627124800E0,-9.335784912E0,-7.865661621E0,5.600646973E0
2.632221236E0,-1.014814758E1,-7.554595947E0,5.725082397E0
2.637317671E0,-1.094735718E1,-7.405044556E0,5.786087036E0
2.642444624E0,-1.146778870E1,-7.389495850E0,5.942825317E0
2.647541060E0,-1.165443420E1,-7.518707275E0,6.179718018E0
2.652637495E0,-1.159222412E1,-7.784301758E0,6.310119629E0
2.657764448E0,-1.142712402E1,-8.150405884E0,6.351989746E0
2.662891402E0,-1.123568726E1,-8.557189941E0,6.270645142E0
2.667957320E0,-1.102990723E1,-8.986694336E0,6.275421143E0
2.673053755E0,-1.079061890E1,-9.534652710E0,6.362762451E0
2.678180708E0,-1.060997009E1,-1.016038513E1,6.414215088E0
2.683277144E0,-1.049749756E1,-1.068321228E1,6.502746582E0
2.688373579E0,-1.050827026E1,-1.096676636E1,6.742019653E0
2.693500532E0,-1.071525574E1,-1.105171204E1,7.091384888E0
2.698596968E0,-1.111843872E1,-1.101580811E1,7.480209351E0
2.703693404E0,-1.165802002E1,-1.085429382E1,7.817596436E0
2.708820357E0,-1.228375244E1,-1.060783386E1,8.068847656E0
2.713916792E0,-1.294296265E1,-1.035897827E1,8.193267822E0
2.719013228E0,-1.358065796E1,-1.012808228E1,8.251892090E0
2.724109663E0,-1.409391785E1,-9.867263794E0,8.254287720E0
2.729236616E0,-1.447438049E1,-9.620803833E0,8.184906006E0
2.734333052E0,-1.481295776E1,-9.416213989E0,7.959976196E0
2.739429488E0,-1.495054626E1,-9.289398193E0,7.601043701E0
2.744556441E0,-1.487876892E1,-9.193679810E0,7.145217896E0
2.749652876E0,-1.458085632E1,-9.144622803E0,6.679809570E0
2.754749312E0,-1.417527771E1,-9.150604248E0,6.245513916E0
2.759876265E0,-1.375054932E1,-9.229568481E0,5.824371338E0
2.764972700E0,-1.325164795E1,-9.395874023E0,5.431961060E0
2.770099654E0,-1.262113953E1,-9.647125244E0,5.096954346E0
2.775196089E0,-1.188055420E1,-9.907928467E0,4.831359863E0
2.780292525E0,-1.111964417E1,-1.015559387E1,4.687789917E0
2.785388960E0,-1.039460754E1,-1.035897827E1,4.636337280E0
2.790515913E0,-9.737777710E0,-1.050375366E1,4.599258423E0
2.795612349E0,-9.165893555E0,-1.054562378E1,4.682998657E0
2.800708784E0,-8.711257935E0,-1.053605652E1,4.846908569E0
2.805835738E0,-8.589233398E0,-1.042718506E1,5.098159790E0
2.810932173E0,-8.773468018E0,-1.016157532E1,5.585098267E0
2.816028609E0,-8.936187744E0,-9.886398315E0,6.367553711E0
2.821125044E0,-9.132400513E0,-9.656692505E0,7.171539307E0
2.826251997E0,-9.377670288E0,-9.509536743E0,7.731460571E0
2.831348433E0,-9.615753174E0,-9.399459839E0,8.097564697E0
2.836444868E0,-1.008593750E1,-8.881408691E0,8.567749023E0
2.841571821E0,-1.122492981E1,-6.908538818E0,9.163558960E0
2.846668257E0,-1.169989014E1,-5.306533813E0,1.058370972E1
2.851764693E0,-1.122851562E1,-5.086395264E0,1.094621277E1
2.856861128E0,-9.844268799E0,-5.777923584E0,1.054182434E1
2.861988081E0,-7.962310791E0,-6.745819092E0,9.538040161E0
2.867084517E0,-6.038482666E0,-7.535446167E0,8.292572021E0
2.872180952E0,-4.402984619E0,-8.107330322E0,6.945419312E0
2.877307905E0,-2.974472046E0,-8.751007080E0,5.452301025E0
2.882404341E0,-1.738571167E0,-9.404251099E0,3.904144287E0
2.887500777E0,-6.785583496E-1,-9.910324097E0,2.267440796E0
2.892627730E0,3.049011230E-1,-1.032189941E1,5.685424805E-1
2.897724165E0,1.617355347E0,-9.861282349E0,-1.387588501E0
2.902820601E0,4.275787354E0,-9.625579834E0,-1.935546875E0
2.908191695E0,6.430526733E0,-9.135055542E0,-4.879760742E-2
2.913043989E0,7.452255249E0,-8.743820190E0,2.897949219E0
2.918537154E0,7.655639648E0,-9.383911133E0,5.702346802E0
2.923267378E0,7.843475342E0,-1.165708923E1,7.596267700E0
2.928577437E0,6.621948242E0,-1.345051575E1,9.088195801E0
2.933460249E0,1.141189575E0,-9.805038452E0,1.072966003E1
2.938648238E0,-3.454223633E0,-5.530273438E0,1.337731934E1
2.943683638E0,-5.065795898E0,-3.866058350E0,1.472688293E1
2.948780073E0,-3.587036133E0,-3.476028442E0,1.240464783E1
2.953907027E0,5.489654541E-1,-4.904541016E0,1.031690979E1
2.959003462E0,5.275985718E0,-8.059478760E0,8.432556152E0
2.964099898E0,6.979675293E0,-9.460479736E0,7.514907837E0
2.969226851E0,5.616958618E0,-9.254699707E0,6.923873901E0
2.974323286E0,3.060226440E0,-8.401657104E0,5.965560913E0
2.979450239E0,1.333801270E0,-7.920700073E0,5.214202881E0
2.984546675E0,8.420867920E-1,-8.120498657E0,4.698562622E0
2.989643111E0,7.104797363E-1,-8.652893066E0,3.965148926E0
2.994739546E0,-4.380798340E-1,-9.248718262E0,3.270034790E0
2.999866499E0,-2.907470703E0,-9.510726929E0,1.141632080E0
3.004962935E0,-5.537185669E0,-8.399261475E0,-9.269714355E-1
3.010059370E0,-6.171279907E0,-7.816604614E0,-1.136337280E0
3.015186323E0,-5.640075684E0,-7.960174561E0,-7.259674072E-1
3.020282759E0,-5.415145874E0,-7.714920044E0,-9.401245117E-1
3.025379195E0,-5.608963013E0,-7.226776123E0,-1.291870117E0
3.030506148E0,-5.612564087E0,-7.436141968E0,-1.421081543E0
3.035602583E0,-5.425918579E0,-8.411224365E0,-1.148300171E0
3.040729536E0,-5.727416992E0,-9.295379639E0,-7.893829346E-1
3.045825972E0,-6.817337036E0,-9.287002563E0,-4.760742188E-2
3.050922407E0,-7.914459229E0,-9.018997192E0,1.264862061E0
3.056018843E0,-8.521026611E0,-9.202056885E0,2.763961792E0
3.061145796E0,-8.803390503E0,-9.550201416E0,4.029754639E0
3.066242232E0,-8.890731812E0,-9.825378418E0,5.027572632E0
3.071338667E0,-8.772277832E0,-9.805038452E0,6.341232300E0
3.076435103E0,-8.486343384E0,-9.729675293E0,7.422790527E0
3.081562056E0,-8.125015259E0,-9.685409546E0,8.241134644E0
3.086658491E0,-7.816345215E0,-9.729675293E0,8.780715942E0
3.091785445E0,-7.602188110E0,-9.716506958E0,9.144424438E0
3.096881880E0,-7.368881226E0,-9.817001343E0,9.058273315E0
3.101978316E0,-7.322235107E0,-1.006227112E1,8.371536255E0
3.107074751E0,-7.945556641E0,-1.022259521E1,6.879608154E0
3.112201704E0,-9.570281982E0,-9.985702515E0,4.114700317E0
3.117298140E0,-1.134934998E1,-9.008239746E0,1.327072144E0
3.122394575E0,-1.255174255E1,-8.601455688E0,9.310607910E-1
3.127521529E0,-1.389889526E1,-8.752197266E0,-3.538818359E-1
3.132617964E0,-1.457487488E1,-9.191284180E0,-3.161865234E0
3.137714400E0,-1.390368652E1,-8.889785767E0,-4.720794678E0
3.142841353E0,-1.198942566E1,-8.084609985E0,-5.216110229E0
3.147937788E0,-9.131195068E0,-7.620391846E0,-5.287887573E0
3.153034224E0,-5.687927246E0,-7.628768921E0,-3.798355103E0
3.158130659E0,-2.537780762E0,-7.774734497E0,-3.981628418E-1
3.163257613E0,-1.102600098E-1,-7.746017456E0,4.018997192E0
3.168354048E0,1.384063721E0,-7.596466064E0,7.876220703E0
3.173450484E0,1.859039307E0,-7.488784790E0,1.000224304E1
3.178577437E0,1.262023926E0,-7.350006104E0,1.037432861E1
3.183673872E0,1.098785400E-1,-6.924087524E0,9.505737305E0
3.188770308E0,4.527282715E-2,-6.708724976E0,7.289978027E0
3.193866743E0,5.843078613E0,-6.886993408E0,2.191925049E-1
3.198993696E0,7.263229370E0,-7.338043213E0,-1.186584473E0
3.204090132E0,4.902709961E0,-7.553390503E0,1.027969360E0
3.209186568E0,1.491729736E0,-7.915908813E0,4.102737427E0
3.214283003E0,-1.260009766E0,-8.048706055E0,5.642517090E0
3.219409956E0,-3.144363403E0,-7.846511841E0,5.332656860E0
3.224506392E0,-4.791824341E0,-7.263870239E0,3.902938843E0
3.229602827E0,-6.250244141E0,-6.843933105E0,2.797454834E0
3.234699263E0,-7.263610840E0,-6.723083496E0,2.013809204E0
3.239826216E0,-7.751739502E0,-6.931259155E0,1.275619507E0
3.244922652E0,-7.902481079E0,-7.241134644E0,6.032409668E-1
3.250019087E0,-7.851043701E0,-7.576126099E0,7.681274414E-2
3.255146040E0,-7.642868042E0,-7.754394531E0,-2.163085938E-1
3.260242476E0,-7.429901123E0,-7.822586060E0,-2.809143066E-1
3.265338911E0,-7.260009766E0,-7.851303101E0,-1.050415039E-1
3.270526900E0,-7.207366943E0,-7.949417114E0,2.455139160E-1
3.275562300E0,-7.080551147E0,-8.052307129E0,7.551879883E-1
3.280658736E0,-6.840072632E0,-8.140838623E0,1.342620850E0
3.285755171E0,-6.466796875E0,-8.217407227E0,1.942016602E0
3.291156782E0,-6.056427002E0,-8.241333008E0,2.492370605E0
3.295978560E0,-5.697509766E0,-8.174331665E0,2.993667603E0
3.301197066E0,-5.336181641E0,-8.096572876E0,3.291580200E0
3.306171431E0,-5.013153076E0,-7.974533081E0,3.254486084E0
3.311634077E0,-4.833694458E0,-7.760375977E0,3.150405884E0
3.316394820E0,-4.870788574E0,-7.566558838E0,3.113311768E0
3.321491255E0,-4.947357178E0,-7.495971680E0,3.162368774E0
3.326618208E0,-4.858810425E0,-7.598861694E0,3.341827393E0
3.331714644E0,-4.391021729E0,-7.961380005E0,3.796463013E0
3.336811079E0,-6.020538330E0,-8.347808838E0,5.045516968E0
3.341938032E0,-1.356748962E1,-7.548614502E0,7.634552002E0
3.347034468E0,-1.426739502E1,-7.504348755E0,6.889190674E0
3.352161421E0,-1.275633240E1,-7.618011475E0,4.184097290E0
3.357257857E0,-1.073918152E1,-7.821395874E0,1.803237915E0
3.362354292E0,-8.316452026E0,-8.469848633E0,6.451110840E-1
3.367450728E0,-6.009765625E0,-9.470046997E0,1.019439697E-1
3.372577681E0,-3.801193237E0,-1.026206970E1,-1.265716553E-1
3.377674116E0,-2.357116699E0,-1.036975098E1,7.431030273E-3
3.382801070E0,-1.642868042E0,-1.000604248E1,3.065338135E-1
3.387897505E0,-1.277954102E0,-9.742828369E0,8.843994141E-1
3.392993941E0,-1.096099854E0,-9.619598389E0,1.248107910E0
3.398090376E0,-9.980010986E-1,-9.554992676E0,1.632156372E0
3.403217329E0,-1.178649902E0,-9.351608276E0,1.884597778E0
3.408313765E0,-1.245651245E0,-9.279815674E0,1.985092163E0
3.413440718E0,-1.312652588E0,-9.309722900E0,1.969543457E0
3.418537154E0,-1.529205322E0,-9.342025757E0,1.763763428E0
3.423633589E0,-1.889328003E0,-9.242736816E0,1.403640747E0
3.428760542E0,-2.199188232E0,-9.071640015E0,1.274429321E0
3.433856978E0,-2.488723755E0,-8.881408691E0,1.427566528E0
3.438953413E0,-2.902679443E0,-8.719894409E0,1.471832275E0
3.444080366E0,-3.357315063E0,-8.630172729E0,1.403640747E0
3.449176802E0,-3.712661743E0,-8.589492798E0,1.384490967E0
3.454273238E0,-3.961502075E0,-8.606246948E0,1.488586426E0
3.459400191E0,-4.151733398E0,-8.660079956E0,1.700347900E0
3.464496626E0,-4.326416016E0,-8.715118408E0,1.969543457E0
3.469593062E0,-4.401794434E0,-8.804840088E0,2.422988892E0
3.474720015E0,-4.540573120E0,-8.718704224E0,2.539031982E0
3.479816450E0,-4.653030396E0,-8.667251587E0,2.505538940E0
3.484912886E0,-4.753540039E0,-8.649307251E0,2.357177734E0
3.490039839E0,-4.891113281E0,-8.638549805E0,2.281799316E0
3.495136275E0,-5.017944336E0,-8.606246948E0,2.298553467E0
3.500232710E0,-5.192611694E0,-8.582305908E0,2.327270508E0
3.505359663E0,-5.313461304E0,-8.602645874E0,2.321289062E0
3.510456099E0,-5.342163086E0,-8.642135620E0,2.328460693E0
3.515552534E0,-5.252441406E0,-8.606246948E0,2.300949097E0
3.520679488E0,-5.119628906E0,-8.528472900E0,2.158569336E0
3.525775923E0,-4.959320068E0,-8.433959961E0,2.101150513E0
3.530872359E0,-4.953338623E0,-8.435150146E0,2.034149170E0
3.535968794E0,-4.964096069E0,-8.506942749E0,1.896560669E0
3.541095747E0,-5.072982788E0,-8.611022949E0,1.681213379E0
3.546192183E0,-5.135192871E0,-8.674438477E0,1.413208008E0
3.551288618E0,-4.995208740E0,-8.759384155E0,1.270843506E0
3.556415571E0,-4.753540039E0,-8.887390137E0,1.239730835E0
3.561512007E0,-4.444854736E0,-9.021392822E0,1.384490967E0
3.566608443E0,-4.194808960E0,-9.102752686E0,1.471832275E0
3.571735396E0,-4.149353027E0,-9.107528687E0,1.459869385E0
3.576831831E0,-4.140975952E0,-9.077621460E0,1.398849487E0
3.581928267E0,-4.137374878E0,-9.069244385E0,1.423980713E0
3.587055220E0,-4.235488892E0,-9.016616821E0,1.401245117E0
3.592151655E0,-4.362304688E0,-8.913711548E0,1.391677856E0
3.597248091E0,-4.462799072E0,-8.809631348E0,1.420394897E0
3.602344527E0,-4.589630127E0,-8.740234375E0,1.439529419E0
3.607471480E0,-4.734390259E0,-8.658874512E0,1.511322021E0
3.612567915E0,-4.797805786E0,-8.615814209E0,1.504135132E0
3.617664351E0,-4.767883301E0,-8.594268799E0,1.500549316E0
3.622791304E0,-4.563308716E0,-8.624191284E0,1.506530762E0
3.627887739E0,-4.387435913E0,-8.605041504E0,1.531661987E0
3.633075728E0,-4.246261597E0,-8.521301270E0,1.446716309E0
3.638111128E0,-4.143356323E0,-8.455490112E0,1.300750732E0
3.643604292E0,-4.109863281E0,-8.299957275E0,1.115310669E0
3.648303999E0,-3.987823486E0,-8.187500000E0,1.013610840E0
3.653675093E0,-3.868194580E0,-8.079818726E0,9.119110107E-1
3.658527388E0,-3.935180664E0,-8.010421753E0,8.951568604E-1
3.663745894E0,-4.132598877E0,-7.936248779E0,9.549865723E-1
3.668720259E0,-4.334793091E0,-7.938644409E0,1.066253662E0
3.673847212E0,-4.489120483E0,-8.064270020E0,1.130859375E0
3.678943648E0,-4.428115845E0,-8.170745850E0,1.312713623E0
3.684040083E0,-4.328811646E0,-8.191085815E0,1.555587769E0
3.689167036E0,-4.252243042E0,-8.140838623E0,1.983901978E0
3.694263472E0,-4.155334473E0,-8.133651733E0,2.332046509E0
3.699359907E0,-4.058425903E0,-8.224578857E0,2.457672119E0
3.704486861E0,-4.020126343E0,-8.289184570E0,2.207626343E0
3.709583296E0,-4.133789062E0,-8.189895630E0,1.895370483E0
3.714984907E0,-4.276168823E0,-8.153991699E0,1.778121948E0
3.719806685E0,-4.411361694E0,-8.222198486E0,1.680007935E0
3.724903120E0,-4.556121826E0,-8.322692871E0,1.520889282E0
3.729999556E0,-4.535781860E0,-8.402847290E0,1.364151001E0
3.735126509E0,-4.545364380E0,-8.244918823E0,1.327072144E0
3.740222945E0,-4.411361694E0,-8.043930054E0,1.295959473E0
3.745319380E0,-4.222320557E0,-7.838150024E0,1.212219238E0
3.750415816E0,-4.014144897E0,-7.650314331E0,1.158370972E0
3.755542769E0,-3.853836060E0,-7.449310303E0,1.163162231E0
3.760639204E0,-3.890914917E0,-7.345230103E0,1.208618164E0
3.765766157E0,-4.134994507E0,-7.188491821E0,1.266052246E0
3.770862593E0,-4.386230469E0,-7.054489136E0,1.227767944E0
3.775959029E0,-4.528610229E0,-6.906143188E0,1.414413452E0
3.781085982E0,-4.673370361E0,-6.747009277E0,1.744613647E0
3.786182417E0,-4.967697144E0,-6.711120605E0,1.919296265E0
3.791278853E0,-5.320632935E0,-6.701553345E0,2.090377808E0
3.796405806E0,-5.673568726E0,-6.928863525E0,2.267440796E0
3.801502241E0,-5.885345459E0,-7.327270508E0,2.406234741E0
3.806598677E0,-5.765701294E0,-7.730468750E0,2.391876221E0
3.811725630E0,-5.546752930E0,-8.037948608E0,2.091567993E0
3.816822066E0,-5.283538818E0,-8.362167358E0,1.870239258E0
3.821918501E0,-4.984436035E0,-8.862274170E0,1.715896606E0
3.827014937E0,-4.903091431E0,-9.156585693E0,1.556777954E0
3.832141890E0,-4.966491699E0,-9.275039673E0,1.278015137E0
3.837238325E0,-5.086135864E0,-9.379119873E0,6.714324951E-1
3.842365279E0,-5.072982788E0,-9.404251099E0,1.222839355E-1
3.848224654E0,-5.131607056E0,-9.281021118E0,-1.157989502E-1
3.852558150E0,-5.366088867E0,-9.190093994E0,2.574768066E-1
3.857685103E0,-5.551544189E0,-9.154190063E0,4.345397949E-1
3.862781538E0,-5.726211548E0,-8.825180054E0,3.519897461E-1
3.867908491E0,-5.817138672E0,-8.487792969E0,2.467041016E-1
3.873004927E0,-5.552734375E0,-8.274841309E0,-4.531860352E-3
3.878101363E0,-5.367294312E0,-7.935058594E0,7.562255859E-2
3.883197798E0,-5.338577271E0,-7.634750366E0,5.529937744E-1
3.888324751E0,-5.010757446E0,-7.614410400E0,8.628540039E-1
3.893421187E0,-3.700698853E0,-8.493774414E0,1.073425293E0
3.898548140E0,-9.429626465E-1,-9.797866821E0,6.833953857E-1
3.903644575E0,8.552398682E-1,-1.021182251E1,-1.038360596E-1
3.908741011E0,9.066925049E-1,-9.515518188E0,-5.321502686E-1
3.913837446E0,1.565399170E-1,-8.496170044E0,-4.292602539E-1
3.918964400E0,-2.657928467E-1,-8.538040161E0,-2.450103760E-1
3.924060835E0,-5.924072266E-1,-9.750015259E0,2.550811768E-1
3.929157271E0,-1.589019775E0,-1.007662964E1,1.117691040E0
3.934253706E0,-3.816741943E0,-8.015213013E0,1.715896606E0
3.939380659E0,-5.435485840E0,-2.831161499E0,-1.523986816E0
3.944477095E0,-5.788421631E0,-3.690185547E0,-8.851013184E-1
3.949573530E0,-4.546554565E0,-6.530471802E0,-9.305572510E-1
3.954700484E0,-2.907470703E0,-9.234359741E0,-7.128143311E-1
3.959796919E0,-1.766098022E0,-1.117971802E1,-3.730316162E-1
3.964893355E0,-1.376068115E0,-1.246826172E1,-4.041442871E-1
3.970020308E0,-1.848648071E0,-1.328660583E1,-5.644531250E-1
3.975116743E0,-2.790222168E0,-1.352827454E1,-1.935729980E-1
3.980213179E0,-3.345352173E0,-1.378790283E1,2.957611084E-1
3.985340132E0,-3.831100464E0,-1.346725464E1,4.501037598E-1
3.990436568E0,-4.193618774E0,-1.290135193E1,4.752197266E-1
3.995594038E0,-4.120635986E0,-1.279846191E1,5.960540771E-1
4.000659956E0,-3.878952026E0,-1.325549316E1,7.336425781E-1
4.006122603E0,-3.595413208E0,-1.370535278E1,6.630554199E-1
4.010852827E0,-3.317840576E0,-1.468879700E1,3.926696777E-1
4.016254439E0,-3.579849243E0,-1.509916687E1,1.450195312E-1
4.021076216E0,-3.788024902E0,-1.530015564E1,1.104537964E0
4.026294722E0,-3.730606079E0,-1.537792969E1,1.694366455E0
4.031299605E0,-3.606170654E0,-1.539468384E1,1.958770752E0
4.036396040E0,-3.527206421E0,-1.528102112E1,1.890579224E0
4.041492476E0,-3.559509277E0,-1.496397400E1,1.621383667E0
4.046619429E0,-3.685134888E0,-1.444233704E1,1.291183472E0
4.051715864E0,-3.669586182E0,-1.381062317E1,1.097351074E0
4.056812300E0,-3.242462158E0,-1.307962036E1,2.718353271E-1
4.061908736E0,-2.799789429E0,-1.218949890E1,-4.364471436E-1
4.067035689E0,-3.114456177E0,-1.117254639E1,-8.827056885E-1
4.072132124E0,-3.155120850E0,-1.032548523E1,-2.976531982E-1
4.077259077E0,-2.568893433E0,-1.005270386E1,8.604736328E-1
4.082355513E0,-2.299697876E0,-9.918701172E0,2.092773438E0
4.087451948E0,-2.042465210E0,-9.726074219E0,2.355987549E0
4.092578902E0,-1.745758057E0,-9.700958252E0,2.692169189E0
4.097675337E0,-1.663208008E0,-9.687789917E0,2.813018799E0
4.102771773E0,-1.721832275E0,-9.711730957E0,2.612014771E0
4.107898726E0,-2.513854980E0,-8.880218506E0,2.195663452E0
4.112995161E0,-4.816940308E0,-5.429763794E0,2.049697876E0
4.118091597E0,-5.027511597E0,-5.117507935E0,1.604629517E0
4.123218550E0,-4.849243164E0,-5.811416626E0,1.139236450E0
4.128314986E0,-4.722427368E0,-6.853500366E0,1.311508179E0
4.133411421E0,-4.239074707E0,-8.027175903E0,1.511322021E0
4.138538374E0,-3.889724731E0,-9.150604248E0,1.390472412E0
4.143634810E0,-3.747344971E0,-1.015798950E1,1.269638062E0
4.148761763E0,-3.603775024E0,-1.095120239E1,1.056686401E0
4.153858198E0,-3.035491943E0,-1.124192810E1,1.189483643E0
4.158985152E0,-2.431304932E0,-1.130653381E1,1.412017822E0
4.164081587E0,-2.626312256E0,-1.150155640E1,1.642913818E0
4.169178023E0,-3.120437622E0,-1.165827942E1,2.013809204E0
4.174274458E0,-3.569091797E0,-1.173844910E1,2.418197632E0
4.179401411E0,-4.014144897E0,-1.178869629E1,2.537841797E0
4.184497847E0,-4.245056152E0,-1.174801636E1,2.522277832E0
4.189624800E0,-4.313247681E0,-1.154463196E1,2.604843140E0
4.194721236E0,-4.267791748E0,-1.124790955E1,2.761566162E0
4.199817671E0,-4.026107788E0,-1.085070801E1,2.482803345E0
4.204914107E0,-3.852630615E0,-1.031591797E1,2.344024658E0
4.210041060E0,-3.073776245E0,-1.069398499E1,2.183700562E0
4.215137495E0,-3.173080444E0,-1.073585510E1,2.895568848E0
4.220264448E0,-3.906478882E0,-1.004672241E1,2.760375977E0
4.225360884E0,-3.810760498E0,-9.856491089E0,1.758972168E0
4.230487837E0,-3.731796265E0,-9.641143799E0,1.513702393E0
4.235584273E0,-3.734191895E0,-9.417404175E0,1.660873413E0
4.240680708E0,-3.843063354E0,-9.137451172E0,1.712310791E0
4.245777144E0,-3.933990479E0,-8.874237061E0,1.613006592E0
4.251056685E0,-4.035690308E0,-8.667251587E0,1.690780640E0
4.256000532E0,-4.234283447E0,-8.370544434E0,1.782897949E0
4.261127486E0,-4.394607544E0,-8.035552979E0,1.888183594E0
4.266223921E0,-4.420928955E0,-7.836944580E0,2.049697876E0
4.271320357E0,-4.353927612E0,-7.925476074E0,2.103546143E0
4.276447310E0,-4.322830200E0,-8.138442993E0,2.101150513E0
4.281543745E0,-4.376663208E0,-8.298767090E0,2.079605103E0
4.286640181E0,-4.484344482E0,-8.351409912E0,2.073623657E0
4.291767134E0,-4.751144409E0,-8.334655762E0,2.196853638E0
4.296863570E0,-4.779861450E0,-7.863265991E0,2.121490479E0
4.301990523E0,-5.824325562E0,-5.933456421E0,2.194473267E0
4.307086958E0,-7.218139648E0,-4.836349487E0,2.568939209E0
4.312183394E0,-8.747161865E0,-4.554000854E0,3.095367432E0
4.317279829E0,-9.241271973E0,-4.952392578E0,3.089385986E0
4.322406782E0,-8.808166504E0,-5.532653809E0,3.027175903E0
4.327503218E0,-8.071182251E0,-6.035156250E0,2.546218872E0
4.332630171E0,-7.523223877E0,-6.322296143E0,1.998260498E0
4.337726607E0,-7.202590942E0,-6.252899170E0,1.514907837E0
4.342853560E0,-6.387832642E0,-5.576919556E0,1.544815063E0
4.347919478E0,-4.343170166E0,-3.818206787E0,2.303344727E0
4.353046431E0,-3.286727905E0,-2.660079956E0,1.573532104E0
4.358203902E0,-2.949340820E0,-2.433959961E0,2.766265869E-1
4.363269820E0,-2.894317627E0,-2.951995850E0,-9.102172852E-1
4.368732466E0,-2.787826538E0,-4.111328125E0,-1.614913940E0
4.373493208E0,-2.367889404E0,-5.903549194E0,-1.618499756E0
4.378803267E0,-1.242065430E0,-9.082412720E0,-1.313629150E-1
4.383686079E0,-4.536285400E-1,-1.253405762E1,1.616607666E0
4.388843550E0,-2.502441406E-1,-1.565908813E1,3.153991699E0
4.393909468E0,-6.079711914E-1,-1.781382751E1,4.190078735E0
4.399005904E0,-1.673965454E0,-1.856875610E1,4.703338623E0
4.404102339E0,-3.091720581E0,-1.779707336E1,4.720092773E0
4.409229292E0,-4.335983276E0,-1.579907227E1,4.219985962E0
4.414325728E0,-4.977264404E0,-1.329138184E1,3.372924805E0
4.419452681E0,-5.295501709E0,-1.092608643E1,2.411010742E0
4.424549116E0,-5.581451416E0,-9.112319946E0,1.525665283E0
4.429676070E0,-5.698699951E0,-7.974533081E0,9.669494629E-1
4.434741988E0,-5.666397095E0,-7.407440186E0,7.862854004E-1
4.439868941E0,-5.677169800E0,-7.229171753E0,8.640594482E-1
4.444965376E0,-5.576660156E0,-7.239944458E0,1.132049561E0
4.450092329E0,-5.547943115E0,-7.492385864E0,1.269638062E0
4.455188765E0,-5.094512939E0,-7.972137451E0,1.603439331E0
4.460315718E0,-4.710464478E0,-8.538040161E0,1.680007935E0
4.465381636E0,-4.137374878E0,-9.309722900E0,1.975524902E0
4.470508589E0,-3.456619263E0,-1.029676819E1,2.495956421E0
4.475605025E0,-3.292709351E0,-1.096795654E1,2.670639038E0
4.480731978E0,-3.771286011E0,-1.121441650E1,2.787887573E0
4.485828413E0,-4.307266235E0,-1.108161926E1,2.711318970E0
4.490924849E0,-3.899291992E0,-1.096197510E1,2.549804688E0
4.496021284E0,-3.161102295E0,-1.103735352E1,2.476821899E0
4.501117720E0,-3.304672241E0,-1.107324219E1,2.485198975E0
4.506244673E0,-4.644653320E0,-1.082199097E1,2.227966309E0
4.511341109E0,-6.024124146E0,-1.030514526E1,1.975524902E0
4.516437544E0,-6.536178589E0,-1.007183838E1,1.888183594E0
4.521564497E0,-6.438079834E0,-1.009338379E1,1.942016602E0
4.526660933E0,-6.330398560E0,-9.953399658E0,1.913314819E0
4.531757368E0,-6.045654297E0,-9.813415527E0,1.927673340E0
4.536853804E0,-5.985839844E0,-9.490386963E0,2.096359253E0
4.541980757E0,-5.993011475E0,-9.211624146E0,2.311721802E0
4.547077193E0,-5.893707275E0,-9.123092651E0,2.632354736E0
4.552173628E0,-5.721435547E0,-9.106338501E0,2.905136108E0
4.557270064E0,-5.545562744E0,-9.034561157E0,3.070236206E0
4.562397017E0,-5.396011353E0,-8.882614136E0,3.066650391E0
4.567493452E0,-5.252441406E0,-8.754592896E0,2.929061890E0
4.572620405E0,-5.086135864E0,-8.620590210E0,2.705337524E0
4.577716841E0,-4.965301514E0,-8.488998413E0,2.438537598E0
4.582813277E0,-4.960510254E0,-8.349014282E0,2.294967651E0
4.587940230E0,-5.062210083E0,-8.150405884E0,2.156188965E0
4.593036665E0,-5.189025879E0,-8.043930054E0,2.146606445E0
4.598133101E0,-5.253631592E0,-8.003250122E0,2.128662109E0
4.603260054E0,-5.099288940E0,-8.017608643E0,1.936035156E0
4.608356489E0,-4.645858765E0,-8.039138794E0,1.591476440E0
4.613483443E0,-4.948547363E0,-8.295166016E0,1.662063599E0
4.618579878E0,-4.856430054E0,-8.241333008E0,1.919296265E0
4.623676314E0,-5.001190186E0,-8.447113037E0,1.997055054E0
4.628803267E0,-5.183044434E0,-8.499755859E0,2.022186279E0
4.633899702E0,-4.960510254E0,-8.477020264E0,2.326065063E0
4.638996138E0,-4.641067505E0,-8.504547119E0,2.704132080E0
4.644123091E0,-4.204376221E0,-8.667251587E0,2.962570190E0
4.649219527E0,-3.979461670E0,-8.722290039E0,3.126464844E0
4.654315962E0,-3.926818848E0,-8.563171387E0,2.887191772E0
4.659412398E0,-3.882553101E0,-8.266464233E0,2.510314941E0
4.664539351E0,-3.651641846E0,-8.003250122E0,1.875030518E0
4.669635786E0,-3.308273315E0,-7.834548950E0,1.264862061E0
4.674762739E0,-3.049850464E0,-7.489990234E0,8.879852295E-1
4.679859175E0,-2.950546265E0,-7.268646240E0,7.133026123E-1
4.684955611E0,-2.993606567E0,-7.174133301E0,4.369354248E-1
4.690082564E0,-3.116836548E0,-7.072433472E0,5.027465820E-1
4.695178999E0,-3.024719238E0,-7.273437500E0,6.666564941E-1
4.700275435E0,-2.650238037E0,-7.626373291E0,7.934722900E-1
4.705402388E0,-2.297302246E0,-7.915908813E0,6.630554199E-1
4.710498823E0,-2.224319458E0,-7.783111572E0,6.881866455E-1
4.715625777E0,-2.351135254E0,-7.570144653E0,7.312622070E-1
4.720722212E0,-2.375061035E0,-7.495971680E0,8.269653320E-1
4.725818648E0,-2.550933838E0,-7.585708618E0,8.616638184E-1
4.731342329E0,-2.885940552E0,-8.104949951E0,1.163162231E0
4.736042036E0,-2.711257935E0,-7.646713257E0,1.732650757E0
4.741382613E0,-3.360916138E0,-6.803253174E0,3.327468872E0
4.746234907E0,-5.017944336E0,-8.104949951E0,4.493972778E0
4.751453413E0,-6.172470093E0,-1.071910095E1,4.100357056E0
4.756458296E0,-6.142562866E0,-1.193106079E1,3.356185913E0
4.761585249E0,-5.693908691E0,-1.120005798E1,2.677810669E0
4.766681685E0,-5.948745728E0,-1.054203796E1,2.773529053E0
4.771808638E0,-6.892715454E0,-1.068200684E1,2.565353394E0
4.776905073E0,-7.985046387E0,-1.094761658E1,2.617996216E0
4.782001509E0,-8.682540894E0,-1.109477234E1,2.687393188E0
4.788196577E0,-8.926620483E0,-1.117134094E1,2.694564819E0
4.792224898E0,-8.793807983E0,-1.131132507E1,2.616806030E0
4.797321333E0,-8.462402344E0,-1.139028931E1,2.635940552E0
4.802448286E0,-7.858215332E0,-1.133406067E1,2.572540283E0
4.807544722E0,-7.170288086E0,-1.113665771E1,2.466049194E0
4.812671675E0,-6.556518555E0,-1.080523682E1,2.372726440E0
4.817768111E0,-5.803985596E0,-1.074063110E1,2.247116089E0
4.822864546E0,-5.059814453E0,-1.075021362E1,2.190872192E0
4.827960982E0,-4.522628784E0,-1.060664368E1,2.205230713E0
4.833087935E0,-4.332397461E0,-1.022259521E1,2.292572021E0
4.838184370E0,-3.944763184E0,-1.033146667E1,2.346405029E0
4.843311323E0,-3.459014893E0,-1.060424805E1,2.406234741E0
4.848407759E0,-3.358520508E0,-1.036376953E1,1.764953613E0
4.853534712E0,-3.226913452E0,-1.064732361E1,1.341430664E0
4.858631148E0,-2.950546265E0,-1.127783203E1,1.379714966E0
4.863727583E0,-2.999588013E0,-1.163195801E1,1.803237915E0
4.868854536E0,-3.205383301E0,-1.168460083E1,2.249496460E0
4.873950972E0,-3.289123535E0,-1.162478638E1,2.748397827E0
4.879077925E0,-3.340576172E0,-1.147044373E1,3.039138794E0
4.884174361E0,-3.479354858E0,-1.108041382E1,3.138427734E0
4.889270796E0,-3.474563599E0,-1.077532959E1,3.187484741E0
4.894397749E0,-3.261611938E0,-1.063536072E1,3.256881714E0
4.899494185E0,-3.005569458E0,-1.057313538E1,3.253295898E0
4.904621138E0,-2.638275146E0,-1.059107971E1,3.332260132E0
4.909717573E0,-2.333190918E0,-1.066047668E1,3.509323120E0
4.914814009E0,-1.920425415E0,-1.091650391E1,3.847900391E0
4.919940962E0,-1.431106567E0,-1.135319519E1,3.980712891E0
4.925067915E0,-5.924072266E-1,-1.225529480E1,4.053695679E0
4.930164351E0,2.283172607E-1,-1.336557007E1,4.241531372E0
4.935260786E0,5.680999756E-1,-1.411212158E1,3.859878540E0
4.940357222E0,-1.437530518E-1,-1.327343750E1,3.378921509E0
4.945484175E0,-2.378662109E0,-1.062577820E1,3.102539062E0
4.950580611E0,-5.021530151E0,-8.022384644E0,3.054687500E0
4.955707564E0,-7.228912354E0,-6.214614868E0,2.956573486E0
4.960803999E0,-8.781845093E0,-5.222793579E0,2.798660278E0
4.965900435E0,-9.901687622E0,-4.716705322E0,2.310516357E0
4.971027388E0,-1.057885742E1,-4.477416992E0,1.671630859E0
4.976154341E0,-1.061236572E1,-4.531265259E0,1.012405396E0
4.981250777E0,-1.002851868E1,-4.843521118E0,5.541839600E-1
4.986377730E0,-8.954132080E0,-4.993072510E0,6.211853027E-1
4.991443648E0,-7.673980713E0,-5.125885010E0,5.637512207E-1
4.996570601E0,-6.333999634E0,-5.933456421E0,4.572753906E-1
5.001667036E0,-4.898300171E0,-6.882217407E0,4.584808350E-1
5.006793989E0,-3.727005005E0,-7.351211548E0,7.013397217E-1
5.011890425E0,-3.204177856E0,-7.378723145E0,1.048309326E0
5.017017378E0,-3.141967773E0,-7.086791992E0,1.383300781E0
5.022113814E0,-2.991226196E0,-7.646713257E0,1.800842285E0
5.027240767E0,-3.078552246E0,-8.243728638E0,1.971939087E0
5.032337202E0,-3.155120850E0,-8.491378784E0,2.371536255E0
5.037433638E0,-3.338180542E0,-8.463867188E0,3.077423096E0
5.042530073E0,-3.746154785E0,-8.736648560E0,3.894561768E0
5.047657027E0,-4.376663208E0,-8.602645874E0,4.191284180E0
5.052753462E0,-4.486740112E0,-8.638549805E0,4.209228516E0
5.057880415E0,-4.825317383E0,-8.609832764E0,4.218795776E0
5.062976851E0,-4.925811768E0,-8.759384155E0,3.615798950E0
5.068103804E0,-4.757125854E0,-8.758178711E0,2.783096313E0
5.073200239E0,-4.612350464E0,-8.530868530E0,2.059265137E0
5.078296675E0,-4.602783203E0,-8.390884399E0,1.670440674E0
5.083759321E0,-4.594406128E0,-8.634948730E0,1.506530762E0
5.088520064E0,-4.554931641E0,-8.395675659E0,1.852294922E0
5.093799605E0,-4.095504761E0,-8.291580200E0,1.487380981E0
5.098743452E0,-3.226913452E0,-8.250900269E0,1.528060913E0
5.103900923E0,-2.896697998E0,-8.070251465E0,2.324874878E0
5.108966841E0,-2.785430908E0,-7.960174561E0,3.152786255E0
5.114063277E0,-2.905075073E0,-6.315109253E0,3.405227661E0
5.119190230E0,-5.863800049E0,2.445007324E0,3.209030151E0
5.124286665E0,-1.018524170E1,2.777618408E0,3.200653076E0
5.129413618E0,-1.293579102E1,-8.300781250E-2,2.816604614E0
5.134510054E0,-1.245602417E1,-3.683013916E0,2.562957764E0
5.139606489E0,-1.091265869E1,-6.172744751E0,2.430160522E0
5.144733443E0,-8.900299072E0,-6.751800537E0,1.696762085E0
5.149829878E0,-7.242065430E0,-6.155990601E0,6.642608643E-1
5.154956831E0,-6.319641113E0,-5.452499390E0,-2.222900391E-1
5.160053267E0,-5.815948486E0,-5.794677734E0,-6.805114746E-1
5.165149702E0,-5.302688599E0,-6.863067627E0,-8.180999756E-1
5.170276655E0,-4.402984619E0,-7.884811401E0,-8.755187988E-1
5.175373091E0,-3.469787598E0,-9.907928467E0,-4.472045898E-1
5.180469527E0,-2.619140625E0,-1.180545044E1,9.537811279E-1
5.185596480E0,-2.428909302E0,-1.260823059E1,2.757980347E0
5.191028609E0,-2.151336670E0,-1.370535278E1,4.728469849E0
5.195850386E0,-1.846252441E0,-1.400085449E1,5.859069824E0
5.200946821E0,-1.694305420E0,-1.387762451E1,6.025375366E0
5.206043257E0,-2.000595093E0,-1.334162903E1,5.637741089E0
5.211139693E0,-2.895507812E0,-1.245988464E1,4.827774048E0
5.216266646E0,-4.065597534E0,-1.180065918E1,3.942428589E0
5.221363081E0,-5.111267090E0,-1.131251526E1,2.990081787E0
5.226490034E0,-5.997802734E0,-1.097991943E1,2.205230713E0
5.231586470E0,-6.545761108E0,-1.068679810E1,1.626174927E0
5.236713423E0,-6.520629883E0,-1.048699951E1,1.339035034E0
5.241809859E0,-6.223922729E0,-1.030155945E1,1.346206665E0
5.246936812E0,-5.576660156E0,-1.018070984E1,1.473037720E0
5.252033247E0,-4.761901855E0,-1.030993652E1,1.227767944E0
5.257129683E0,-4.401794434E0,-1.062219238E1,9.298553467E-1
5.262256636E0,-4.285736084E0,-1.095359802E1,6.917724609E-1
5.267383589E0,-4.885131836E0,-1.098471069E1,8.772125244E-1
5.272449507E0,-5.563507080E0,-1.079208374E1,1.214599609E0
5.277576460E0,-6.384246826E0,-1.071791077E1,1.555587769E0
5.282672896E0,-7.371276855E0,-1.057792664E1,1.854690552E0
5.287799849E0,-8.366699219E0,-1.042718506E1,2.279418945E0
5.292896284E0,-9.082153320E0,-1.017832947E1,2.552200317E0
5.298023238E0,-9.333389282E0,-9.860076904E0,2.531860352E0
5.303119673E0,-9.211364746E0,-9.371948242E0,2.205230713E0
5.308216109E0,-9.070190430E0,-8.752197266E0,1.611816406E0
5.313312544E0,-9.247253418E0,-8.096572876E0,9.813079834E-1
5.318439497E0,-9.402786255E0,-7.304550171E0,3.675537109E-1
5.323535933E0,-9.243667603E0,-6.440734863E0,3.065338135E-1
5.328662886E0,-8.853637695E0,-5.874832153E0,9.753265381E-1
5.333759321E0,-8.543762207E0,-5.515914917E0,1.792465210E0
5.338886275E0,-8.314056396E0,-5.562576294E0,2.539031982E0
5.343982710E0,-8.281753540E0,-5.783905029E0,3.035537720E0
5.349109663E0,-8.172882080E0,-6.106933594E0,3.217391968E0
5.354206099E0,-7.651245117E0,-6.315109253E0,3.241333008E0
5.359333052E0,-6.654632568E0,-6.062667847E0,3.413604736E0
5.364429488E0,-6.070785522E0,-5.072036743E0,3.465057373E0
5.369556441E0,-6.048049927E0,-4.546813965E0,2.546218872E0
5.374652876E0,-6.020538330E0,-4.452301025E0,1.622589111E0
5.379749312E0,-5.684341431E0,-4.342224121E0,1.274429321E0
5.384845747E0,-5.558715820E0,-3.656692505E0,1.511322021E0
5.389972700E0,-6.085144043E0,-3.054885864E0,1.633346558E0
5.395069136E0,-6.840072632E0,-2.614608765E0,1.264862061E0
5.400196089E0,-7.561508179E0,-2.622985840E0,1.477813721E0
5.405292525E0,-8.098693848E0,-2.700759888E0,1.702743530E0
5.410419478E0,-8.241073608E0,-2.746215820E0,1.709915161E0
5.415515913E0,-8.099899292E0,-2.890975952E0,1.657272339E0
5.420642866E0,-7.938385010E0,-3.117111206E0,1.432357788E0
5.425708784E0,-7.834289551E0,-3.693771362E0,1.562759399E0
5.430835738E0,-7.756530762E0,-4.160369873E0,1.703933716E0
5.436267866E0,-7.703887939E0,-4.640136719E0,1.769744873E0
5.441059126E0,-7.676361084E0,-4.946411133E0,1.121292114E0
5.446338667E0,-8.006576538E0,-5.645126343E0,6.116180420E-1
5.451282515E0,-8.316452026E0,-6.196670532E0,6.618652344E-1
5.456378950E0,-8.555725098E0,-6.479019165E0,8.353424072E-1
5.461505904E0,-8.716049194E0,-6.663269043E0,1.129653931E0
5.466602339E0,-8.956527710E0,-6.660873413E0,1.482604980E0
5.471698775E0,-9.168289185E0,-6.563964844E0,1.797256470E0
5.476825728E0,-9.307067871E0,-6.407241821E0,2.030563354E0
5.481922163E0,-9.366897583E0,-6.300750732E0,2.020980835E0
5.487049116E0,-9.201797485E0,-6.400054932E0,1.982696533E0
5.492145552E0,-8.905075073E0,-6.295974731E0,1.663253784E0
5.497272505E0,-8.523422241E0,-6.177520752E0,1.614212036E0
5.502368941E0,-8.201583862E0,-6.057876587E0,1.681213379E0
5.507465376E0,-8.035293579E0,-5.783905029E0,1.732650757E0
5.512561812E0,-7.970687866E0,-5.483612061E0,1.441925049E0
5.517688765E0,-7.902481079E0,-5.599655151E0,1.529266357E0
5.522785200E0,-7.971878052E0,-5.596069336E0,1.654891968E0
5.527881636E0,-7.974273682E0,-5.385498047E0,1.664459229E0
5.533008589E0,-7.809173584E0,-5.228775024E0,1.573532104E0
5.538105025E0,-7.743362427E0,-5.115112305E0,1.583099365E0
5.543231978E0,-7.757720947E0,-4.847122192E0,1.395263672E0
5.548328413E0,-7.772079468E0,-4.786102295E0,1.322280884E0
5.553424849E0,-7.650039673E0,-4.782516479E0,1.481399536E0
5.558551802E0,-7.779251099E0,-4.647308350E0,1.244522095E0
5.563648238E0,-7.745758057E0,-4.679611206E0,1.394073486E0
5.568775191E0,-7.849853516E0,-4.610229492E0,1.343811035E0
5.573871626E0,-7.675170898E0,-4.833953857E0,1.311508179E0
5.578998579E0,-7.447845459E0,-4.806442261E0,1.297164917E0
5.584095015E0,-7.115249634E0,-4.799255371E0,1.315109253E0
5.589191450E0,-7.518432617E0,-4.532455444E0,1.027969360E0
5.594287886E0,-7.494506836E0,-4.979919434E0,6.295623779E-1
5.599414839E0,-7.994613647E0,-4.801651001E0,4.740295410E-1
5.604511275E0,-8.693313599E0,-4.808822632E0,-8.709716797E-2
5.609638228E0,-8.763900757E0,-5.829376221E0,-6.517944336E-1
5.614734663E0,-8.363113403E0,-5.413024902E0,-1.672515869E-1
5.619861616E0,-6.964508057E0,-5.517105103E0,1.027969360E0
5.624958052E0,-7.319839478E0,-5.011016846E0,5.864868164E-1
5.630054488E0,-8.254226685E0,-4.077819824E0,1.678817749E0
5.635181441E0,-8.945755005E0,-4.449905396E0,2.166946411E0
5.640277876E0,-9.620529175E0,-4.244125366E0,2.335647583E0
5.645404829E0,-9.776062012E0,-4.123291016E0,2.576126099E0
5.650501265E0,-9.967498779E0,-3.875625610E0,2.226776123E0
5.655597700E0,-1.039222717E1,-3.659072876E0,1.803237915E0
5.660724654E0,-1.079780579E1,-3.703338623E0,1.432357788E0
5.665821089E0,-1.145822144E1,-3.927078247E0,1.429962158E0
5.670948042E0,-1.151445007E1,-4.364959717E0,1.425170898E0
5.676044478E0,-1.119621277E1,-4.555191040E0,1.193069458E0
5.681171431E0,-1.075831604E1,-4.772933960E0,9.537811279E-1
5.686267866E0,-1.044725037E1,-5.091186523E0,7.958679199E-1
5.691364302E0,-1.020199585E1,-5.401046753E0,9.226837158E-1
5.696491255E0,-9.831100464E0,-5.396270752E0,9.143066406E-1
5.701587691E0,-9.394409180E0,-5.228775024E0,6.977539062E-1
5.706714644E0,-8.778259277E0,-4.896163940E0,3.232727051E-1
5.711811079E0,-8.559310913E0,-4.829162598E0,-1.600646973E-1
5.716907515E0,-8.890731812E0,-4.721496582E0,-5.070343018E-1
5.722034468E0,-9.427917480E0,-4.489395142E0,-3.897857666E-1
5.728168501E0,-1.005363464E1,-4.472640991E0,-2.916717529E-1
5.732257857E0,-1.077388000E1,-4.338638306E0,2.416992188E-2
5.737354292E0,-1.117466736E1,-4.059875488E0,2.885894775E-1
5.742481245E0,-1.126799011E1,-4.043121338E0,3.747253418E-1
5.747577681E0,-1.120697021E1,-4.062271118E0,3.292541504E-1
5.752704634E0,-1.109451294E1,-4.172332764E0,4.536895752E-1
5.757801070E0,-1.085882568E1,-4.308731079E0,6.379394531E-1
5.762928023E0,-1.047357178E1,-4.319503784E0,8.532867432E-1
5.768054976E0,-9.694717407E0,-4.250106812E0,9.837036133E-1
5.773151411E0,-8.671783447E0,-3.929473877E0,1.078216553E0
5.778675093E0,-7.667999268E0,-3.413818359E0,1.230163574E0
5.783344282E0,-6.863998413E0,-2.938842773E0,1.372528076E0
5.788745894E0,-6.564895630E0,-2.326278687E0,1.370132446E0
5.793567671E0,-6.816146851E0,-1.797470093E0,1.283996582E0
5.798816695E0,-7.354537964E0,-1.584503174E0,9.633636475E-1
5.803791060E0,-8.116638184E0,-1.388290405E0,6.259765625E-1
5.808887495E0,-8.657424927E0,-1.354797363E0,2.885894775E-1
5.814014448E0,-9.054626465E0,-1.436141968E0,3.494262695E-2
5.819110884E0,-9.240081787E0,-1.571334839E0,-2.127075195E-1
5.824237837E0,-9.262802124E0,-1.661071777E0,-1.397247314E-1
5.829334273E0,-9.186233521E0,-1.669448853E0,1.139068604E-1
5.834461226E0,-9.137191772E0,-1.580917358E0,2.778167725E-1
5.839588179E0,-9.442276001E0,-1.500747681E0,4.811096191E-2
5.844684614E0,-9.553543091E0,-1.845321655E0,2.826080322E-1
5.849811568E0,-9.955535889E0,-1.947021484E0,3.232727051E-1
5.854908003E0,-1.020437622E1,-2.019989014E0,3.340454102E-1
5.860004439E0,-1.046879578E1,-2.131256104E0,2.694396973E-1
5.865131392E0,-1.083250427E1,-2.213821411E0,1.988525391E-1
5.870227827E0,-1.108853149E1,-2.533248901E0,2.084197998E-1
5.875324263E0,-1.130387878E1,-2.835952759E0,5.613708496E-1
5.880451216E0,-1.172860718E1,-2.685195923E0,7.922668457E-1
5.885608687E0,-1.162332153E1,-2.462661743E0,9.011535645E-1
5.890674605E0,-1.118783569E1,-2.488983154E0,9.932708740E-1
5.895771040E0,-1.067218018E1,-2.742630005E0,1.140426636E0
5.900897993E0,-1.044964600E1,-3.054885864E0,1.154785156E0
5.905994429E0,-1.060398865E1,-3.330062866E0,1.178710938E0
5.911121382E0,-1.077865601E1,-3.539443970E0,1.182296753E0
5.916217818E0,-1.090786743E1,-3.665054321E0,1.190673828E0
5.921344771E0,-1.078584290E1,-3.696166992E0,1.240921021E0
5.926441206E0,-1.063508606E1,-3.705734253E0,1.214599609E0
5.931568159E0,-1.049032593E1,-3.697357178E0,1.145217896E0
5.936664595E0,-1.023548889E1,-3.632751465E0,1.102142334E0
5.941791548E0,-9.945953369E0,-3.497558594E0,1.041122437E0
5.946857466E0,-9.907669067E0,-3.344421387E0,9.837036133E-1
5.951984419E0,-1.009671021E1,-3.167358398E0,9.777221680E-1
5.957080855E0,-1.021395874E1,-2.999862671E0,6.654510498E-1
5.962207808E0,-1.005363464E1,-2.953201294E0,1.066253662E0
5.967304243E0,-9.977066040E0,-2.895767212E0,1.378509521E0
5.972431196E0,-1.007038879E1,-2.850311279E0,1.404830933E0
5.977527632E0,-1.019720459E1,-2.767745972E0,1.120086670E0
5.982654585E0,-1.020079041E1,-2.798858643E0,8.269653320E-1
5.987751021E0,-1.001295471E1,-2.928070068E0,1.062667847E0
5.992847456E0,-9.855026245E0,-3.032165527E0,1.855880737E0
5.997943892E0,-9.707870483E0,-3.142227173E0,2.372726440E0
6.003070845E0,-9.125213623E0,-3.625579834E0,1.928863525E0
6.008167280E0,-8.310470581E0,-4.179519653E0,1.201446533E0
6.013294234E0,-7.793609619E0,-4.443923950E0,6.427154541E-1
6.018390669E0,-7.725418091E0,-4.435546875E0,4.106140137E-1
6.023487105E0,-7.880950928E0,-4.277618408E0,4.082183838E-1
6.028583540E0,-8.192016602E0,-4.051498413E0,4.608612061E-1
6.033710493E0,-8.334396362E0,-3.838546753E0,5.003509521E-1
6.038806929E0,-8.756729126E0,-3.589691162E0,5.147094727E-1
6.043933882E0,-9.025924683E0,-3.442535400E0,4.848022461E-1
6.049030318E0,-9.100097656E0,-3.349212646E0,4.764251709E-1
6.054157271E0,-9.037887573E0,-3.218795776E0,4.548797607E-1
6.059223189E0,-8.975662231E0,-3.018997192E0,2.275695801E-1
6.064350142E0,-8.805770874E0,-2.931655884E0,4.488983154E-1
6.069446577E0,-8.865600586E0,-2.809631348E0,5.505981445E-1
6.074573530E0,-8.784240723E0,-2.691177368E0,5.218811035E-1
6.079669966E0,-8.651443481E0,-2.636154175E0,5.015411377E-1
6.084796919E0,-8.615554810E0,-2.591873169E0,3.436126709E-1
6.089893355E0,-8.318832397E0,-2.590682983E0,4.764251709E-1
6.094989790E0,-7.880950928E0,-2.521286011E0,3.244781494E-1
6.100086226E0,-7.141571045E0,-2.370544434E0,6.642608643E-1
6.105213179E0,-6.716842651E0,-2.052291870E0,6.762237549E-1
6.110309614E0,-6.647445679E0,-1.693374634E0,6.104125977E-1
6.115436568E0,-6.884338379E0,-1.303344727E0,2.383270264E-1
6.120533003E0,-7.285140991E0,-1.067657471E0,-5.358886719E-2
6.125659956E0,-7.860610962E0,-9.934692383E-1,4.690551758E-2
6.130878462E0,-8.512664795E0,-1.012619019E0,1.366424561E-1
6.135852827E0,-9.353729248E0,-7.781219482E-1,-2.043304443E-1
6.141193404E0,-8.699295044E0,-1.533050537E0,-2.856903076E-1
6.146076216E0,-8.834487915E0,-1.541427612E0,2.058410645E-2
6.151233687E0,-9.021133423E0,-2.069046021E0,4.690551758E-2
6.156299605E0,-9.194610596E0,-2.955581665E0,1.629638672E-1
6.161426558E0,-9.237686157E0,-3.632751465E0,2.467041016E-1
6.166522993E0,-9.139572144E0,-4.111328125E0,3.316497803E-1
6.171649946E0,-8.984039307E0,-4.458282471E0,3.244781494E-1
6.176746382E0,-8.804580688E0,-4.605438232E0,2.682495117E-1
6.181842818E0,-8.778259277E0,-4.514511108E0,2.503051758E-1
6.186969771E0,-8.750747681E0,-4.352996826E0,3.747253418E-1
6.192066206E0,-8.899093628E0,-4.039535522E0,4.453125000E-1
6.197193159E0,-9.197006226E0,-3.617202759E0,4.465026855E-1
6.202289595E0,-9.443466187E0,-3.277420044E0,4.488983154E-1
6.207416548E0,-9.658813477E0,-3.011825562E0,4.429168701E-1
6.212512984E0,-9.788024902E0,-2.844329834E0,4.955596924E-1
6.217639937E0,-9.817947388E0,-2.728271484E0,6.702423096E-1
6.222736372E0,-9.944763184E0,-2.627777100E0,7.743225098E-1
6.227863325E0,-1.016250610E1,-2.627777100E0,8.915710449E-1
6.232959761E0,-1.049870300E1,-2.638534546E0,1.031555176E0
6.238056196E0,-1.080497742E1,-2.640930176E0,1.179916382E0
6.243183150E0,-1.110289001E1,-2.695968628E0,1.307922363E0
6.248279585E0,-1.140318298E1,-2.871841431E0,1.511322021E0
6.253406538E0,-1.156709290E1,-3.180511475E0,1.694366455E0
6.258502974E0,-1.160418701E1,-3.466461182E0,1.640533447E0
6.263629927E0,-1.165562439E1,-3.863662720E0,1.488586426E0
6.268726363E0,-1.180517578E1,-4.059875488E0,1.397659302E0
6.273853316E0,-1.163050842E1,-4.080215454E0,1.348602295E0
6.278949751E0,-1.125123596E1,-4.057479858E0,1.205032349E0
6.284076704E0,-1.101077271E1,-4.034759521E0,1.054290771E0
6.289173140E0,-1.100598145E1,-3.979721069E0,1.019592285E0
6.294300093E0,-1.104666138E1,-3.854095459E0,1.008819580E0
6.299396529E0,-1.111485291E1,-3.694976807E0,1.006423950E0
6.304523482E0,-1.118304443E1,-3.522689819E0,1.019592285E0
6.309619917E0,-1.119740295E1,-3.381515503E0,1.030364990E0
6.314746870E0,-1.110289001E1,-3.251098633E0,9.980621338E-1
6.319843306E0,-1.095692444E1,-3.204437256E0,1.021987915E0
6.324939741E0,-1.082771301E1,-3.222381592E0,1.045913696E0
6.330036177E0,-1.062551880E1,-3.326477051E0,1.127273560E0
6.335163130E0,-1.045562744E1,-3.448516846E0,1.197860718E0
6.340259566E0,-1.020677185E1,-3.532257080E0,1.221786499E0
6.345386519E0,-9.910064697E0,-3.641128540E0,1.161956787E0
6.350482954E0,-9.536788940E0,-3.760772705E0,1.100952148E0
6.355609907E0,-9.146759033E0,-3.874435425E0,1.037536621E0
6.360706343E0,-8.883544922E0,-4.032363892E0,1.045913696E0
6.365833296E0,-8.616744995E0,-4.108932495E0,9.801025391E-1
6.370929732E0,-8.373870850E0,-4.104141235E0,8.867950439E-1
6.376056685E0,-8.202789307E0,-4.020401001E0,8.532867432E-1
6.381153120E0,-8.093917847E0,-3.776321411E0,9.059295654E-1
6.386249556E0,-8.022125244E0,-3.455688477E0,9.932708740E-1
6.391345991E0,-8.023330688E0,-3.046524048E0,9.681396484E-1
6.396472945E0,-7.988632202E0,-2.530868530E0,8.700408936E-1
6.401599898E0,-7.738586426E0,-1.640731812E0,9.824981689E-1
6.406696333E0,-8.128616333E0,-1.263870239E0,5.242767334E-1
6.411792769E0,-8.580856323E0,-1.141830444E0,3.938751221E-1
6.416919722E0,-8.769882202E0,-1.153793335E0,7.503967285E-1
6.422016157E0,-9.137191772E0,-1.347610474E0,1.012405396E0
6.427143111E0,-9.591827393E0,-1.848907471E0,1.013610840E0
6.432239546E0,-1.016011047E1,-2.064270020E0,7.587738037E-1
6.437366499E0,-1.003329468E1,-2.337051392E0,6.152038574E-1
6.442462935E0,-8.867996216E0,-2.587097168E0,5.422210693E-1
6.447589888E0,-8.517440796E0,-2.583511353E0,5.553894043E-1
6.452655806E0,-8.632293701E0,-2.649307251E0,5.625610352E-1
6.457782759E0,-8.731597900E0,-2.754592896E0,5.565795898E-1
6.462970747E0,-8.937377930E0,-2.800048828E0,6.211853027E-1
6.468006148E0,-9.222137451E0,-2.857482910E0,6.702423096E-1
6.473560347E0,-9.457824707E0,-2.946014404E0,7.647552490E-1
6.478199019E0,-9.551147461E0,-3.036941528E0,8.185882568E-1
6.483600630E0,-9.210159302E0,-3.135055542E0,8.688354492E-1
6.488422407E0,-9.272384644E0,-3.176925659E0,8.520965576E-1
6.493732466E0,-9.380050659E0,-3.223587036E0,9.238739014E-1
6.498645796E0,-9.474578857E0,-3.277420044E0,9.561767578E-1
6.503803267E0,-9.451843262E0,-3.282211304E0,1.004043579E0
6.508869185E0,-9.390823364E0,-3.270248413E0,1.039932251E0
6.513965620E0,-9.303482056E0,-3.316909790E0,1.047103882E0
6.519092573E0,-9.144363403E0,-3.351608276E0,1.054290771E0
6.524189009E0,-9.163497925E0,-3.316909790E0,1.053085327E0
6.529285445E0,-9.094116211E0,-3.285797119E0,1.100952148E0
6.534412398E0,-9.108474731E0,-3.306137085E0,1.123672485E0
6.539539351E0,-9.068984985E0,-3.379119873E0,1.194259644E0
6.544635786E0,-9.240081787E0,-3.424575806E0,1.211013794E0
6.549732222E0,-9.339385986E0,-3.356384277E0,1.267242432E0
6.554859175E0,-9.342971802E0,-3.333648682E0,1.274429321E0
6.559955611E0,-9.269989014E0,-3.251098633E0,1.305526733E0
6.565052046E0,-9.082153320E0,-3.120697021E0,1.376113892E0
6.570178999E0,-9.063003540E0,-2.997467041E0,1.420394897E0
6.575305952E0,-9.061813354E0,-2.995071411E0,1.397659302E0
6.580371870E0,-9.149154663E0,-2.910125732E0,1.402435303E0
6.585498823E0,-9.339385986E0,-2.947219849E0,1.371337891E0
6.590595259E0,-9.616943359E0,-2.935256958E0,1.291183472E0
6.595722212E0,-9.512863159E0,-2.992675781E0,1.342620850E0
6.600818648E0,-9.419540405E0,-3.160171509E0,1.248107910E0
6.605945601E0,-9.523620605E0,-3.239135742E0,1.075820923E0
6.611042036E0,-9.474578857E0,-3.435348511E0,1.051895142E0
6.616138472E0,-9.490127563E0,-3.449707031E0,1.141632080E0
6.621265425E0,-9.470977783E0,-3.482009888E0,9.956665039E-1
6.626392378E0,-9.444656372E0,-3.537048340E0,8.772125244E-1
6.631488814E0,-9.383651733E0,-3.513122559E0,9.250793457E-1
6.636615767E0,-9.325027466E0,-3.440139771E0,9.178924561E-1
6.641712202E0,-9.346557617E0,-3.357589722E0,8.508911133E-1
6.646808638E0,-9.368087769E0,-3.300155640E0,7.922668457E-1
6.651905073E0,-9.429107666E0,-3.246322632E0,7.085266113E-1
6.657032027E0,-9.423126221E0,-3.214019775E0,6.714324951E-1
6.662128462E0,-9.393218994E0,-3.186492920E0,6.463165283E-1
6.668109907E0,-9.320236206E0,-3.143432617E0,6.187896729E-1
6.672351851E0,-9.308273315E0,-3.115905762E0,5.733337402E-1
6.677448286E0,-9.303482056E0,-3.102752686E0,5.637512207E-1
6.682544722E0,-9.292724609E0,-3.076431274E0,5.470123291E-1
6.687671675E0,-9.265197754E0,-3.028564453E0,5.206909180E-1
6.692768111E0,-9.224517822E0,-3.013015747E0,5.015411377E-1
6.697864546E0,-9.228118896E0,-3.015411377E0,4.895782471E-1
6.702991499E0,-9.262802124E0,-3.022583008E0,4.895782471E-1
6.708087935E0,-9.311859131E0,-3.035751343E0,4.620666504E-1
6.713184370E0,-9.335784912E0,-3.056091309E0,4.369354248E-1
6.718311323E0,-9.353729248E0,-3.060867310E0,4.381408691E-1
6.723407759E0,-9.366897583E0,-3.088394165E0,4.453125000E-1
6.728504195E0,-9.381256104E0,-3.106338501E0,4.572753906E-1
6.733631148E0,-9.405181885E0,-3.149414062E0,4.740295410E-1
6.738727583E0,-9.436294556E0,-3.175735474E0,4.668426514E-1
6.743824019E0,-9.423126221E0,-3.186492920E0,4.788055420E-1
6.748950972E0,-9.429107666E0,-3.176925659E0,4.895782471E-1
6.754047407E0,-9.432693481E0,-3.173339844E0,4.536895752E-1
6.759174361E0,-9.413558960E0,-3.149414062E0,4.656524658E-1
6.764270796E0,-9.415954590E0,-3.126678467E0,4.680480957E-1
6.769367232E0,-9.408767700E0,-3.095565796E0,4.453125000E-1
6.774494185E0,-9.382446289E0,-3.076431274E0,4.488983154E-1
6.779590620E0,-9.376464844E0,-3.050109863E0,4.297637939E-1
6.784687056E0,-9.351348877E0,-3.023788452E0,4.082183838E-1
6.789814009E0,-9.212554932E0,-3.005844116E0,3.938751221E-1
6.794910445E0,-9.402786255E0,-2.980712891E0,3.472137451E-1
6.800006880E0,-9.481750488E0,-2.993881226E0,3.089294434E-1
6.805133833E0,-9.515243530E0,-2.979522705E0,3.113098145E-1
6.810260786E0,-9.473373413E0,-2.963958740E0,2.957611084E-1
6.815937056E0,-9.387237549E0,-2.932861328E0,2.969512939E-1
6.820453657E0,-9.331008911E0,-2.922088623E0,3.232727051E-1
6.825611128E0,-9.295104980E0,-2.919692993E0,3.172912598E-1
6.830677046E0,-9.283142090E0,-2.923278809E0,3.460083008E-1
6.836109175E0,-9.255630493E0,-2.925674438E0,3.388366699E-1
6.840900435E0,-9.246063232E0,-2.913711548E0,3.304595947E-1
6.846210493E0,-9.243667603E0,-2.916107178E0,3.675537109E-1
6.851123823E0,-9.248458862E0,-2.904144287E0,3.759155273E-1
6.856281294E0,-9.253234863E0,-2.892181396E0,3.759155273E-1
6.861347212E0,-9.258026123E0,-2.901748657E0,4.178009033E-1
6.866443648E0,-9.246063232E0,-2.938842773E0,4.178009033E-1
6.871540083E0,-9.305877686E0,-2.984298706E0,4.488983154E-1
6.876667036E0,-9.313064575E0,-3.030960083E0,4.560852051E-1
6.881763472E0,-9.007965088E0,-3.099151611E0,4.991455078E-1
6.886890425E0,-9.153930664E0,-3.161376953E0,5.027465820E-1
6.891986861E0,-9.314254761E0,-3.227172852E0,5.386352539E-1
6.897113814E0,-9.401596069E0,-3.336044312E0,5.494079590E-1
6.902210249E0,-9.417144775E0,-3.441329956E0,6.128082275E-1
6.907306685E0,-9.435089111E0,-3.562164307E0,6.259765625E-1
6.912403120E0,-9.435089111E0,-3.688995361E0,6.750183105E-1
6.917530073E0,-9.393218994E0,-3.815811157E0,7.264709473E-1
6.922626509E0,-9.386032104E0,-3.937835693E0,7.516021729E-1
6.927753462E0,-9.354934692E0,-4.013214111E0,7.587738037E-1
6.932849898E0,-9.314254761E0,-4.094573975E0,7.671508789E-1
6.937976851E0,-9.660018921E0,-3.962966919E0,3.352508545E-1
6.943073286E0,-9.220932007E0,-4.183105469E0,7.408294678E-1
6.948169722E0,-9.116851807E0,-4.262069702E0,9.585723877E-1
6.953266157E0,-9.097702026E0,-4.321884155E0,9.669494629E-1
6.958393111E0,-9.139572144E0,-4.345825195E0,9.430236816E-1
6.963489546E0,-9.134796143E0,-4.374526978E0,9.286651611E-1
6.968585982E0,-9.158721924E0,-4.414016724E0,8.939666748E-1
6.973712935E0,-9.175476074E0,-4.437942505E0,8.796081543E-1
6.978809370E0,-9.163497925E0,-4.471435547E0,8.568725586E-1
6.983905806E0,-9.098892212E0,-4.489395142E0,8.485107422E-1
6.989032759E0,-9.034286499E0,-4.454696655E0,8.461151123E-1
6.994129195E0,-9.120437622E0,-4.448715210E0,8.173980713E-1
6.999225630E0,-9.170684814E0,-4.447509766E0,7.815093994E-1
7.004322066E0,-9.179061890E0,-4.408035278E0,7.288665771E-1
7.009449019E0,-9.147949219E0,-4.381713867E0,6.846008301E-1
7.014545454E0,-9.100097656E0,-4.354187012E0,6.594696045E-1
7.019672407E0,-9.103683472E0,-4.317108154E0,6.391296387E-1
7.024768843E0,-9.101287842E0,-4.256088257E0,5.829010010E-1
7.029865279E0,-9.097702026E0,-4.177124023E0,5.661468506E-1
7.034961714E0,-9.066589355E0,-4.089782715E0,5.254669189E-1
7.040088667E0,-9.064208984E0,-4.008438110E0,5.075225830E-1
7.045185103E0,-9.045059204E0,-3.940231323E0,4.943695068E-1
7.050312056E0,-9.043869019E0,-3.852890015E0,5.039367676E-1
7.055377974E0,-9.035491943E0,-3.767959595E0,5.374298096E-1
7.060504927E0,-9.030700684E0,-3.674636841E0,5.338439941E-1
7.065601363E0,-9.036682129E0,-3.611221313E0,5.434265137E-1
7.070911421E0,-9.058227539E0,-3.570541382E0,5.218811035E-1
7.075824751E0,-9.090530396E0,-3.533462524E0,5.278625488E-1
7.080921187E0,-9.110870361E0,-3.495178223E0,5.194854736E-1
7.086017622E0,-9.145553589E0,-3.468856812E0,4.955596924E-1
7.091144575E0,-9.161117554E0,-3.443725586E0,4.991455078E-1
7.096241011E0,-9.173080444E0,-3.430557251E0,5.194854736E-1
7.101337446E0,-9.207778931E0,-3.393478394E0,5.099182129E-1
7.106433882E0,-9.231704712E0,-3.370742798E0,5.242767334E-1
7.111560835E0,-9.265197754E0,-3.349212646E0,5.541839600E-1
7.116657271E0,-9.299896240E0,-3.325286865E0,5.649566650E-1
7.121784224E0,-9.331008911E0,-3.328872681E0,5.709381104E-1
7.126880659E0,-9.363311768E0,-3.334854126E0,6.080322266E-1
7.131977095E0,-9.375274658E0,-3.344421387E0,6.534881592E-1
7.137073530E0,-9.393218994E0,-3.337249756E0,6.893768311E-1
7.142200484E0,-9.411163330E0,-3.343231201E0,7.073211670E-1
7.147296919E0,-9.413558960E0,-3.364761353E0,7.288665771E-1
7.152423872E0,-9.426712036E0,-3.401855469E0,7.300567627E-1
7.157520308E0,-9.436294556E0,-3.426971436E0,7.348480225E-1
7.162616743E0,-9.423126221E0,-3.455688477E0,7.420196533E-1
7.167713179E0,-9.414749146E0,-3.501159668E0,7.360382080E-1
7.172840132E0,-9.396804810E0,-3.520294189E0,7.587738037E-1
7.178028120E0,-9.376464844E0,-3.552597046E0,7.695465088E-1
7.183063521E0,-9.353729248E0,-3.574127197E0,7.791137695E-1
7.188526167E0,-9.323822021E0,-3.598068237E0,7.791137695E-1
7.193256392E0,-9.316650391E0,-3.616012573E0,7.707366943E-1
7.198596968E0,-9.313064575E0,-3.635147095E0,7.767181396E-1
7.203449263E0,-9.299896240E0,-3.648315430E0,7.874908447E-1
7.208637251E0,-9.285537720E0,-3.674636841E0,7.803039551E-1
7.213672652E0,-9.262802124E0,-3.691375732E0,7.611694336E-1
7.218769087E0,-9.268783569E0,-3.710525513E0,7.408294678E-1
7.223896040E0,-9.249649048E0,-3.741638184E0,7.192840576E-1
7.228992476E0,-9.261611938E0,-3.764358521E0,6.977539062E-1
7.234088911E0,-9.268783569E0,-3.787094116E0,6.738281250E-1
7.239185347E0,-9.265197754E0,-3.814605713E0,6.582794189E-1
7.244312300E0,-9.275970459E0,-3.815811157E0,6.163940430E-1
7.249408736E0,-9.274765015E0,-3.828964233E0,6.187896729E-1
7.254505171E0,-9.262802124E0,-3.820587158E0,6.092224121E-1
7.259632124E0,-9.256820679E0,-3.821792603E0,6.008453369E-1
7.264728560E0,-9.266403198E0,-3.803848267E0,5.936737061E-1
7.269855513E0,-9.249649048E0,-3.783508301E0,5.888824463E-1
7.274951948E0,-9.225723267E0,-3.752395630E0,5.888824463E-1
7.280078902E0,-9.214950562E0,-3.712921143E0,5.960540771E-1
7.285175337E0,-9.213760376E0,-3.693771362E0,5.793151855E-1
7.290271773E0,-9.193420410E0,-3.673431396E0,5.685424805E-1
7.295429243E0,-9.201797485E0,-3.660278320E0,5.781097412E-1
7.300495161E0,-9.208969116E0,-3.632751465E0,5.960540771E-1
7.305591597E0,-9.210159302E0,-3.625579834E0,5.661468506E-1
7.310718550E0,-9.207778931E0,-3.617202759E0,5.649566650E-1
7.315814986E0,-9.223327637E0,-3.610031128E0,5.984497070E-1
7.320941939E0,-9.211364746E0,-3.599258423E0,6.140136719E-1
7.326038374E0,-9.200592041E0,-3.602844238E0,6.307525635E-1
7.331134810E0,-9.208969116E0,-3.602844238E0,6.486968994E-1
7.336231245E0,-9.204177856E0,-3.605239868E0,6.630554199E-1
7.341358198E0,-9.204177856E0,-3.605239868E0,6.857910156E-1
7.346454634E0,-9.204177856E0,-3.630371094E0,7.025451660E-1
7.351581587E0,-9.199401855E0,-3.625579834E0,7.240753174E-1
7.356678023E0,-9.193420410E0,-3.600448608E0,7.516021729E-1
7.361804976E0,-9.171875000E0,-3.599258423E0,7.707366943E-1
7.366901411E0,-9.179061890E0,-3.601654053E0,7.647552490E-1
7.371997847E0,-9.193420410E0,-3.611221313E0,7.456054688E-1
7.377094282E0,-9.192214966E0,-3.618408203E0,7.480010986E-1
7.382221236E0,-9.194610596E0,-3.621994019E0,7.240753174E-1
7.387317671E0,-9.198196411E0,-3.630371094E0,7.085266113E-1
7.392444624E0,-9.176666260E0,-3.637542725E0,7.037353516E-1
7.397541060E0,-9.182647705E0,-3.616012573E0,6.534881592E-1
7.402637495E0,-9.175476074E0,-3.617202759E0,6.427154541E-1
7.407733931E0,-9.182647705E0,-3.605239868E0,6.367340088E-1
7.412860884E0,-9.192214966E0,-3.588485718E0,6.415252686E-1
7.417957320E0,-9.206573486E0,-3.563369751E0,6.726379395E-1
7.423084273E0,-9.228118896E0,-3.557388306E0,6.893768311E-1
7.428180708E0,-9.248458862E0,-3.553787231E0,6.977539062E-1
7.433277144E0,-9.269989014E0,-3.558578491E0,7.156982422E-1
7.438373579E0,-9.292724609E0,-3.553787231E0,7.635650635E-1
7.443500532E0,-9.299896240E0,-3.543029785E0,7.982482910E-1
7.448596968E0,-9.313064575E0,-3.543029785E0,8.520965576E-1
7.453723921E0,-9.319046021E0,-3.545425415E0,8.688354492E-1
7.458820357E0,-9.331008911E0,-3.526275635E0,8.808135986E-1
7.463916792E0,-9.319046021E0,-3.504745483E0,8.939666748E-1
7.469013228E0,-9.331008911E0,-3.479614258E0,9.202880859E-1
7.474140181E0,-9.348953247E0,-3.447311401E0,9.143066406E-1
7.479236616E0,-9.338180542E0,-3.418594360E0,9.394378662E-1
7.484363570E0,-9.320236206E0,-3.405441284E0,9.561767578E-1
7.489460005E0,-9.308273315E0,-3.397064209E0,1.020782471E0
7.494556441E0,-9.272384644E0,-3.376724243E0,1.031555176E0
7.499652876E0,-9.259216309E0,-3.356384277E0,1.075820923E0
7.504779829E0,-9.246063232E0,-3.357589722E0,1.099746704E0
7.509876265E0,-9.249649048E0,-3.357589722E0,1.126068115E0
7.515003218E0,-9.261611938E0,-3.348007202E0,1.126068115E0
7.520099654E0,-9.253234863E0,-3.356384277E0,1.118896484E0
7.525196089E0,-9.259216309E0,-3.356384277E0,1.111709595E0
7.530292525E0,-9.250839233E0,-3.351608276E0,1.099746704E0
7.535419478E0,-9.243667603E0,-3.355194092E0,1.094970703E0
7.540515913E0,-9.238876343E0,-3.365951538E0,1.086593628E0
7.545612349E0,-9.260421753E0,-3.374328613E0,1.059066772E0
7.551074995E0,-9.281951904E0,-3.395874023E0,1.061462402E0
7.555835738E0,-9.299896240E0,-3.393478394E0,1.062667847E0
7.561145796E0,-9.339385986E0,-3.383911133E0,1.044708252E0
7.566059126E0,-9.396804810E0,-3.397064209E0,1.039932251E0
7.571308150E0,-9.414749146E0,-3.412612915E0,9.932708740E-1
7.576282515E0,-9.437484741E0,-3.400650024E0,9.573822021E-1
7.581378950E0,-9.470977783E0,-3.417404175E0,9.214782715E-1
7.586475386E0,-9.493713379E0,-3.413818359E0,8.987579346E-1
7.591602339E0,-9.509262085E0,-3.409027100E0,8.712310791E-1
7.596698775E0,-9.522430420E0,-3.380310059E0,8.796081543E-1
7.601795210E0,-9.537979126E0,-3.364761353E0,8.855895996E-1
7.607868208E0,-9.540374756E0,-3.351608276E0,9.047393799E-1
7.612018599E0,-9.502090454E0,-3.344421387E0,9.095153809E-1
7.617115034E0,-9.461410522E0,-3.355194092E0,9.035339355E-1
7.622241988E0,-9.436294556E0,-3.356384277E0,9.107208252E-1
7.627338423E0,-9.394409180E0,-3.388687134E0,9.238739014E-1
7.632434859E0,-9.347747803E0,-3.407836914E0,8.915710449E-1
7.637561812E0,-9.315444946E0,-3.435348511E0,8.987579346E-1
7.642658247E0,-9.268783569E0,-3.474838257E0,8.772125244E-1
7.647754683E0,-9.247253418E0,-3.508331299E0,8.413238525E-1
7.652881636E0,-9.197006226E0,-3.547805786E0,8.221893311E-1
7.657978071E0,-9.124023438E0,-3.583709717E0,8.568725586E-1
7.663074507E0,-9.097702026E0,-3.633956909E0,7.886810303E-1
7.668201460E0,-9.059417725E0,-3.705734253E0,7.719268799E-1
7.673297896E0,-9.042663574E0,-3.776321411E0,7.683410645E-1
7.678394331E0,-9.005584717E0,-3.832565308E0,7.755279541E-1
7.683521284E0,-9.073776245E0,-3.894775391E0,7.970581055E-1
7.688617720E0,-9.100097656E0,-3.986892700E0,8.066253662E-1
7.693714155E0,-9.113250732E0,-4.085006714E0,7.850952148E-1
7.698841109E0,-9.100097656E0,-4.180709839E0,7.408294678E-1
7.703937544E0,-9.096511841E0,-4.266860962E0,7.037353516E-1
7.709033980E0,-9.103683472E0,-4.312316895E0,6.594696045E-1
7.714160933E0,-9.103683472E0,-4.352996826E0,5.553894043E-1
7.719257368E0,-9.071380615E0,-4.341033936E0,3.866882324E-1
7.724353804E0,-9.055831909E0,-4.319503784E0,4.991455078E-1
7.729480757E0,-9.046264648E0,-4.327865601E0,5.434265137E-1
7.734577193E0,-9.051040649E0,-4.309921265E0,4.979553223E-1
7.739673628E0,-9.053436279E0,-4.285995483E0,4.656524658E-1
7.744800581E0,-9.028305054E0,-4.228576660E0,4.788055420E-1
7.749897017E0,-8.997207642E0,-4.180709839E0,4.907836914E-1
7.754993452E0,-8.985244751E0,-4.135253906E0,5.350494385E-1
7.760089888E0,-8.967300415E0,-4.111328125E0,5.900726318E-1
7.765216841E0,-8.903884888E0,-4.083801270E0,6.534881592E-1
7.770313277E0,-8.853637695E0,-4.044326782E0,6.941680908E-1
7.775409712E0,-8.802185059E0,-4.004837036E0,7.360382080E-1
7.780506148E0,-8.773468018E0,-3.962966919E0,7.886810303E-1
7.785633101E0,-8.743560791E0,-3.943817139E0,8.042297363E-1
7.790729536E0,-8.701690674E0,-3.881607056E0,6.092224121E-1
7.795856489E0,-8.750747681E0,-3.822982788E0,7.228851318E-1
7.800952925E0,-8.779464722E0,-3.778717041E0,9.585723877E-1
7.806049361E0,-8.867996216E0,-3.706939697E0,1.053085327E0
7.811145796E0,-8.921829224E0,-3.684204102E0,1.067443848E0
7.816272749E0,-8.955337524E0,-3.659072876E0,1.051895142E0
7.821369185E0,-9.021133423E0,-3.610031128E0,1.041122437E0
7.826465620E0,-9.096511841E0,-3.544219971E0,1.036346436E0
7.831562056E0,-9.211364746E0,-3.473632812E0,1.068649292E0
7.836689009E0,-9.328613281E0,-3.379119873E0,1.100952148E0
7.841785445E0,-9.407577515E0,-3.289382935E0,1.130859375E0
7.846912398E0,-9.472183228E0,-3.192474365E0,1.183502197E0
7.852008833E0,-9.539184570E0,-3.101547241E0,1.233749390E0
7.857105269E0,-9.601394653E0,-3.028564453E0,1.276824951E0
7.862201704E0,-9.626510620E0,-2.941238403E0,1.335449219E0
7.867328657E0,-9.631301880E0,-2.853897095E0,1.383300781E0
7.872425093E0,-9.658813477E0,-2.782104492E0,1.409622192E0
7.877521529E0,-9.675567627E0,-2.710327148E0,1.459869385E0
7.882617964E0,-9.674377441E0,-2.661270142E0,1.480209351E0
7.887744917E0,-9.676773071E0,-2.627777100E0,1.482604980E0
7.892841353E0,-9.687530518E0,-2.583511353E0,1.485000610E0
7.897968306E0,-9.711456299E0,-2.534454346E0,1.488586426E0
7.903064741E0,-9.715057373E0,-2.496170044E0,1.500549316E0
7.908161177E0,-9.729415894E0,-2.490188599E0,1.513702393E0
7.913623823E0,-9.727020264E0,-2.477020264E0,1.525665283E0
7.918384566E0,-9.707870483E0,-2.473434448E0,1.534042358E0
7.923694624E0,-9.671981812E0,-2.472244263E0,1.526870728E0
7.928607954E0,-9.633697510E0,-2.491378784E0,1.513702393E0
7.933795943E0,-9.616943359E0,-2.508132935E0,1.504135132E0
7.938800825E0,-9.570281982E0,-2.547607422E0,1.490982056E0
7.943927779E0,-9.551147461E0,-2.583511353E0,1.456283569E0
7.949024214E0,-9.527221680E0,-2.628967285E0,1.417999268E0
7.954120650E0,-9.516448975E0,-2.664855957E0,1.368942261E0
7.959247603E0,-9.486541748E0,-2.687591553E0,1.340225220E0
7.964344038E0,-9.436294556E0,-2.709121704E0,1.300750732E0
7.969470991E0,-9.396804810E0,-2.751007080E0,1.261260986E0
7.974567427E0,-9.362106323E0,-2.780914307E0,1.228958130E0
7.979663863E0,-9.336990356E0,-2.815612793E0,1.215805054E0
7.984760298E0,-9.289123535E0,-2.838333130E0,1.206237793E0
7.989887251E0,-9.255630493E0,-2.881408691E0,1.187088013E0
7.994983687E0,-9.231704712E0,-2.926879883E0,1.155975342E0
8.000080122E0,-9.204177856E0,-2.978317261E0,1.139236450E0
8.005207075E0,-9.189834595E0,-3.024978638E0,1.139236450E0
8.010883345E0,-9.183837891E0,-3.088394165E0,1.134445190E0
8.015430464E0,-9.176666260E0,-3.135055542E0,1.142822266E0
8.020526900E0,-9.170684814E0,-3.193679810E0,1.133255005E0
8.025623335E0,-9.158721924E0,-3.241531372E0,1.133255005E0
8.030750288E0,-9.159912109E0,-3.271438599E0,1.142822266E0
8.035846724E0,-9.173080444E0,-3.313308716E0,1.133255005E0
8.040943159E0,-9.149154663E0,-3.365951538E0,1.151199341E0
8.046070113E0,-9.145553589E0,-3.392272949E0,1.151199341E0
8.051166548E0,-9.147949219E0,-3.416213989E0,1.158370972E0
8.056293501E0,-9.131195068E0,-3.435348511E0,1.163162231E0
8.061389937E0,-9.104888916E0,-3.454498291E0,1.169143677E0
8.066516890E0,-9.104888916E0,-3.450897217E0,1.184692383E0
8.071582808E0,-9.122833252E0,-3.456878662E0,1.200256348E0
8.076709761E0,-9.130004883E0,-3.466461182E0,1.190673828E0
8.081806196E0,-9.139572144E0,-3.470046997E0,1.202636719E0
8.086933150E0,-9.161117554E0,-3.472442627E0,1.212219238E0
8.092029585E0,-9.201797485E0,-3.485595703E0,1.207427979E0
8.097126021E0,-9.238876343E0,-3.505935669E0,1.196655273E0
8.102222456E0,-9.269989014E0,-3.533462524E0,1.161956787E0
8.107318892E0,-9.293914795E0,-3.550201416E0,1.148803711E0
8.112445845E0,-9.319046021E0,-3.577728271E0,1.135635376E0
8.117572798E0,-9.333389282E0,-3.610031128E0,1.110519409E0
8.122669234E0,-9.340576172E0,-3.616012573E0,1.091369629E0
8.127765669E0,-9.362106323E0,-3.614807129E0,1.057876587E0
8.132862105E0,-9.365692139E0,-3.633956909E0,1.068649292E0
8.137989058E0,-9.352539062E0,-3.630371094E0,1.079406738E0
8.143085493E0,-9.342971802E0,-3.610031128E0,1.122482300E0
8.148212446E0,-9.327407837E0,-3.577728271E0,1.130859375E0
8.153308882E0,-9.320236206E0,-3.535842896E0,1.164352417E0
8.158435835E0,-9.277160645E0,-3.504745483E0,1.183502197E0
8.163501753E0,-9.260421753E0,-3.460479736E0,1.185897827E0
8.168628706E0,-9.240081787E0,-3.431762695E0,1.213409424E0
8.173725142E0,-9.244857788E0,-3.418594360E0,1.209823608E0
8.178852095E0,-9.220932007E0,-3.415008545E0,1.222976685E0
8.183948530E0,-9.220932007E0,-3.423385620E0,1.234939575E0
8.189075484E0,-9.218536377E0,-3.430557251E0,1.249298096E0
8.194171919E0,-9.234100342E0,-3.435348511E0,1.249298096E0
8.199268355E0,-9.242462158E0,-3.450897217E0,1.237335205E0
8.204364790E0,-9.256820679E0,-3.450897217E0,1.222976685E0
8.209491743E0,-9.279556274E0,-3.478424072E0,1.216995239E0
8.214588179E0,-9.278366089E0,-3.486801147E0,1.201446533E0
8.219715132E0,-9.290328979E0,-3.471237183E0,1.163162231E0
8.224811568E0,-9.310668945E0,-3.464065552E0,1.159576416E0
8.229908003E0,-9.323822021E0,-3.418594360E0,1.141632080E0
8.235004439E0,-9.339385986E0,-3.399459839E0,1.155975342E0
8.240131392E0,-9.364501953E0,-3.381515503E0,1.154785156E0
8.245227827E0,-9.360916138E0,-3.380310059E0,1.152389526E0
8.250354780E0,-9.354934692E0,-3.359970093E0,1.127273560E0
8.255451216E0,-9.347747803E0,-3.322891235E0,1.087783813E0
8.260547652E0,-9.333389282E0,-3.289382935E0,1.014801025E0
8.265644087E0,-9.336990356E0,-3.230758667E0,1.079406738E0
8.270771040E0,-9.334594727E0,-3.186492920E0,1.197860718E0
8.276233687E0,-9.346557617E0,-3.168548584E0,1.202636719E0
8.280994429E0,-9.319046021E0,-3.176925659E0,1.112915039E0
8.286243452E0,-9.269989014E0,-3.185302734E0,1.061462402E0
8.291187300E0,-9.247253418E0,-3.197265625E0,1.051895142E0
8.296344771E0,-9.229309082E0,-3.206832886E0,1.023178101E0
8.301410689E0,-9.211364746E0,-3.212814331E0,1.026763916E0
8.306507124E0,-9.220932007E0,-3.202056885E0,1.016006470E0
8.311603560E0,-9.222137451E0,-3.208038330E0,1.011215210E0
8.316730513E0,-9.242462158E0,-3.200851440E0,1.036346436E0
8.321826948E0,-9.241271973E0,-3.202056885E0,1.014801025E0
8.326923384E0,-9.266403198E0,-3.192474365E0,1.019592285E0
8.332050337E0,-9.279556274E0,-3.196060181E0,1.025573730E0
8.337146773E0,-9.287933350E0,-3.208038330E0,1.019592285E0
8.342243208E0,-9.304687500E0,-3.194869995E0,1.030364990E0
8.347370161E0,-9.314254761E0,-3.196060181E0,1.044708252E0
8.352466597E0,-9.327407837E0,-3.209228516E0,1.068649292E0
8.357563032E0,-9.335784912E0,-3.198455811E0,1.081802368E0
8.362659468E0,-9.334594727E0,-3.212814331E0,1.072235107E0
8.367786421E0,-9.346557617E0,-3.231964111E0,1.079406738E0
8.372882857E0,-9.344161987E0,-3.247512817E0,1.092575073E0
8.378009810E0,-9.339385986E0,-3.267852783E0,1.099746704E0
8.383106245E0,-9.332199097E0,-3.292984009E0,1.086593628E0
8.388202681E0,-9.325027466E0,-3.315704346E0,1.100952148E0
8.393329634E0,-9.319046021E0,-3.342025757E0,1.110519409E0
8.398426070E0,-9.326217651E0,-3.353988647E0,1.106933594E0
8.403522505E0,-9.317840576E0,-3.380310059E0,1.114105225E0
8.408649458E0,-9.325027466E0,-3.387496948E0,1.120086670E0
8.413745894E0,-9.326217651E0,-3.410232544E0,1.133255005E0
8.418872847E0,-9.328613281E0,-3.429367065E0,1.127273560E0
8.423969282E0,-9.319046021E0,-3.419799805E0,1.123672485E0
8.429065718E0,-9.310668945E0,-3.428176880E0,1.117691040E0
8.434162154E0,-9.299896240E0,-3.424575806E0,1.115310669E0
8.439289107E0,-9.284347534E0,-3.436553955E0,1.118896484E0
8.444385542E0,-9.272384644E0,-3.425781250E0,1.127273560E0
8.449512495E0,-9.264007568E0,-3.411422729E0,1.122482300E0
8.454578413E0,-9.274765015E0,-3.406631470E0,1.104537964E0
8.459705366E0,-9.273574829E0,-3.385101318E0,1.103332520E0
8.464801802E0,-9.297500610E0,-3.373138428E0,1.115310669E0
8.469928755E0,-9.302291870E0,-3.375534058E0,1.124877930E0
8.475025191E0,-9.326217651E0,-3.389892578E0,1.116500854E0
8.480121626E0,-9.327407837E0,-3.394668579E0,1.100952148E0
8.485218062E0,-9.336990356E0,-3.407836914E0,1.104537964E0
8.490345015E0,-9.323822021E0,-3.400650024E0,1.085388184E0
8.495441450E0,-9.304687500E0,-3.397064209E0,1.088989258E0
8.500537886E0,-9.290328979E0,-3.380310059E0,1.110519409E0
8.505664839E0,-9.291519165E0,-3.357589722E0,1.102142334E0
8.510761275E0,-9.296310425E0,-3.333648682E0,1.115310669E0
8.515857710E0,-9.296310425E0,-3.313308716E0,1.145217896E0
8.520984663E0,-9.298706055E0,-3.295364380E0,1.140426636E0
8.526081099E0,-9.314254761E0,-3.282211304E0,1.135635376E0
8.531208052E0,-9.314254761E0,-3.272644043E0,1.135635376E0
8.536304488E0,-9.322631836E0,-3.278625488E0,1.118896484E0
8.541400923E0,-9.333389282E0,-3.273834229E0,1.128463745E0
8.546497359E0,-9.341766357E0,-3.287002563E0,1.118896484E0
8.551624312E0,-9.350143433E0,-3.295364380E0,1.136840820E0
8.556720747E0,-9.366897583E0,-3.292984009E0,1.148803711E0
8.561847700E0,-9.370483398E0,-3.306137085E0,1.164352417E0
8.566913618E0,-9.381256104E0,-3.307327271E0,1.166748047E0
8.572040571E0,-9.394409180E0,-3.304946899E0,1.173934937E0
8.577137007E0,-9.389633179E0,-3.306137085E0,1.197860718E0
8.582263960E0,-9.369293213E0,-3.301345825E0,1.219390869E0
8.587360396E0,-9.360916138E0,-3.321685791E0,1.225372314E0
8.592487349E0,-9.352539062E0,-3.344421387E0,1.218200684E0
8.597583784E0,-9.364501953E0,-3.361175537E0,1.197860718E0
8.602680220E0,-9.370483398E0,-3.374328613E0,1.169143677E0
8.607776655E0,-9.374069214E0,-3.415008545E0,1.164352417E0
8.612903609E0,-9.378860474E0,-3.435348511E0,1.146408081E0
8.618000044E0,-9.374069214E0,-3.448516846E0,1.141632080E0
8.623096480E0,-9.378860474E0,-3.464065552E0,1.132049561E0
8.628192915E0,-9.370483398E0,-3.491577148E0,1.093765259E0
8.633319868E0,-9.344161987E0,-3.484405518E0,1.071029663E0
8.638782515E0,-9.329803467E0,-3.478424072E0,1.065048218E0
8.643512739E0,-9.327407837E0,-3.455688477E0,1.044708252E0
8.648914351E0,-9.316650391E0,-3.456878662E0,1.038726807E0
8.653736128E0,-9.293914795E0,-3.468856812E0,1.031555176E0
8.658924116E0,-9.273574829E0,-3.460479736E0,1.004043579E0
8.663959517E0,-9.243667603E0,-3.430557251E0,1.008819580E0
8.669055952E0,-9.222137451E0,-3.399459839E0,1.004043579E0
8.674152388E0,-9.211364746E0,-3.351608276E0,9.837036133E-1
8.679279341E0,-9.204177856E0,-3.331268311E0,9.932708740E-1
8.684375777E0,-9.206573486E0,-3.309722900E0,9.932708740E-1
8.689472212E0,-9.214950562E0,-3.306137085E0,9.657592773E-1
8.694568648E0,-9.208969116E0,-3.275024414E0,9.514007568E-1
8.699695601E0,-9.236480713E0,-3.251098633E0,9.442138672E-1
8.704792036E0,-9.256820679E0,-3.243927002E0,9.346466064E-1
8.709918989E0,-9.258026123E0,-3.215209961E0,9.394378662E-1
8.715015425E0,-9.262802124E0,-3.211624146E0,9.681396484E-1
8.720111861E0,-9.261611938E0,-3.204437256E0,9.561767578E-1
8.725208296E0,-9.266403198E0,-3.202056885E0,9.657592773E-1
8.730335249E0,-9.262802124E0,-3.212814331E0,9.789123535E-1
8.735431685E0,-9.255630493E0,-3.221191406E0,9.932708740E-1
8.740528120E0,-9.259216309E0,-3.229568481E0,9.789123535E-1
8.745624556E0,-9.254440308E0,-3.241531372E0,1.012405396E0
8.750751509E0,-9.248458862E0,-3.239135742E0,1.024383545E0
8.755847945E0,-9.226913452E0,-3.265457153E0,1.048309326E0
8.760974898E0,-9.228118896E0,-3.285797119E0,1.032745361E0
8.766071333E0,-9.248458862E0,-3.291778564E0,1.049499512E0
8.771167769E0,-9.272384644E0,-3.316909790E0,1.056686401E0
8.776264204E0,-9.260421753E0,-3.331268311E0,1.066253662E0
8.781391157E0,-9.261611938E0,-3.343231201E0,1.085388184E0
8.786487593E0,-9.259216309E0,-3.381515503E0,1.106933594E0
8.791584029E0,-9.265197754E0,-3.387496948E0,1.121292114E0
8.796680464E0,-9.259216309E0,-3.420989990E0,1.142822266E0
8.801807417E0,-9.264007568E0,-3.450897217E0,1.142822266E0
8.806903853E0,-9.267593384E0,-3.461669922E0,1.163162231E0
8.812030806E0,-9.272384644E0,-3.489181519E0,1.161956787E0
8.817127241E0,-9.280761719E0,-3.503540039E0,1.185897827E0
8.822223677E0,-9.283142090E0,-3.517898560E0,1.190673828E0
8.827350630E0,-9.298706055E0,-3.525085449E0,1.219390869E0
8.832447066E0,-9.285537720E0,-3.527481079E0,1.238540649E0
8.837543501E0,-9.284347534E0,-3.513122559E0,1.248107910E0
8.842670454E0,-9.281951904E0,-3.483200073E0,1.256484985E0
8.847766890E0,-9.286743164E0,-3.489181519E0,1.276824951E0
8.852863325E0,-9.287933350E0,-3.471237183E0,1.270843506E0
8.857990279E0,-9.298706055E0,-3.478424072E0,1.283996582E0
8.863086714E0,-9.298706055E0,-3.471237183E0,1.307922363E0
8.868183150E0,-9.311859131E0,-3.461669922E0,1.298355103E0
8.873310103E0,-9.314254761E0,-3.443725586E0,1.303146362E0
8.878406538E0,-9.321426392E0,-3.409027100E0,1.289978027E0
8.883533491E0,-9.329803467E0,-3.394668579E0,1.288787842E0
8.888629927E0,-9.325027466E0,-3.374328613E0,1.293563843E0
8.893726363E0,-9.327407837E0,-3.350402832E0,1.291183472E0
8.898853316E0,-9.329803467E0,-3.326477051E0,1.281600952E0
8.903949751E0,-9.332199097E0,-3.312118530E0,1.276824951E0
8.909046187E0,-9.342971802E0,-3.287002563E0,1.269638062E0
8.914173140E0,-9.336990356E0,-3.265457153E0,1.266052246E0
8.919300093E0,-9.323822021E0,-3.242721558E0,1.248107910E0
8.924396529E0,-9.314254761E0,-3.237945557E0,1.233749390E0
8.929492964E0,-9.319046021E0,-3.217605591E0,1.214599609E0
8.934619917E0,-9.313064575E0,-3.199661255E0,1.207427979E0
8.939716353E0,-9.314254761E0,-3.192474365E0,1.231353760E0
8.944812788E0,-9.301086426E0,-3.186492920E0,1.225372314E0
8.950824751E0,-9.293914795E0,-3.185302734E0,1.209823608E0
8.955036177E0,-9.293914795E0,-3.174530029E0,1.199050903E0
8.960132613E0,-9.289123535E0,-3.179321289E0,1.183502197E0
8.965259566E0,-9.285537720E0,-3.178115845E0,1.177520752E0
8.970356001E0,-9.296310425E0,-3.193679810E0,1.175125122E0
8.975452437E0,-9.301086426E0,-3.214019775E0,1.183502197E0
8.980670943E0,-9.299896240E0,-3.234359741E0,1.163162231E0
8.985675825E0,-9.293914795E0,-3.241531372E0,1.173934937E0
8.990772261E0,-9.322631836E0,-3.241531372E0,1.185897827E0
8.995899214E0,-9.315444946E0,-3.248703003E0,1.195465088E0
9.001239790E0,-9.322631836E0,-3.258285522E0,1.183502197E0
9.006122603E0,-9.323822021E0,-3.259475708E0,1.179916382E0
9.011341109E0,-9.313064575E0,-3.248703003E0,1.193069458E0
9.016315474E0,-9.291519165E0,-3.235549927E0,1.249298096E0
9.021411909E0,-9.275970459E0,-3.242721558E0,1.255279541E0
9.026538863E0,-9.261611938E0,-3.237945557E0,1.300750732E0
9.031635298E0,-9.234100342E0,-3.239135742E0,1.289978027E0
9.036762251E0,-9.234100342E0,-3.243927002E0,1.301940918E0
9.041858687E0,-9.236480713E0,-3.260681152E0,1.311508179E0
9.046955122E0,-9.224517822E0,-3.296569824E0,1.321090698E0
9.052082075E0,-9.216156006E0,-3.298965454E0,1.330657959E0
9.057178511E0,-9.225723267E0,-3.319305420E0,1.321090698E0
9.062274946E0,-9.244857788E0,-3.364761353E0,1.322280884E0
9.067371382E0,-9.277160645E0,-3.409027100E0,1.313903809E0
9.072498335E0,-9.296310425E0,-3.444915771E0,1.311508179E0
9.077594771E0,-9.302291870E0,-3.464065552E0,1.298355103E0
9.082691206E0,-9.311859131E0,-3.489181519E0,1.291183472E0
9.087818159E0,-9.329803467E0,-3.499954224E0,1.280410767E0
9.092914595E0,-9.352539062E0,-3.519104004E0,1.286392212E0
9.098011030E0,-9.382446289E0,-3.545425415E0,1.286392212E0
9.103137984E0,-9.403991699E0,-3.551406860E0,1.256484985E0
9.108234419E0,-9.399200439E0,-3.549011230E0,1.255279541E0
9.113330855E0,-9.401596069E0,-3.554992676E0,1.245712280E0
9.118427290E0,-9.384841919E0,-3.546615601E0,1.242126465E0
9.123554243E0,-9.374069214E0,-3.535842896E0,1.237335205E0
9.128650679E0,-9.369293213E0,-3.531066895E0,1.218200684E0
9.133777632E0,-9.359710693E0,-3.521484375E0,1.208618164E0
9.138874068E0,-9.332199097E0,-3.526275635E0,1.218200684E0
9.143970503E0,-9.313064575E0,-3.496368408E0,1.212219238E0
9.149066939E0,-9.296310425E0,-3.477218628E0,1.193069458E0
9.154193892E0,-9.259216309E0,-3.458084106E0,1.203842163E0
9.159290327E0,-9.238876343E0,-3.449707031E0,1.194259644E0
9.164386763E0,-9.228118896E0,-3.442535400E0,1.187088013E0
9.169513716E0,-9.212554932E0,-3.413818359E0,1.183502197E0
9.174610152E0,-9.181457520E0,-3.389892578E0,1.181106567E0
9.179706587E0,-9.183837891E0,-3.382705688E0,1.175125122E0
9.184833540E0,-9.177856445E0,-3.370742798E0,1.149993896E0
9.189929976E0,-9.169494629E0,-3.344421387E0,1.142822266E0
9.195056929E0,-9.156326294E0,-3.328872681E0,1.141632080E0
9.200153364E0,-9.153930664E0,-3.315704346E0,1.121292114E0
9.205249800E0,-9.145553589E0,-3.289382935E0,1.139236450E0
9.210346236E0,-9.164703369E0,-3.221191406E0,1.140426636E0
9.215473189E0,-9.205383301E0,-3.196060181E0,1.158370972E0
9.220569624E0,-9.198196411E0,-3.214019775E0,1.155975342E0
9.225696577E0,-9.200592041E0,-3.208038330E0,1.157180786E0
9.230793013E0,-9.214950562E0,-3.203247070E0,1.169143677E0
9.235889448E0,-9.219741821E0,-3.208038330E0,1.195465088E0
9.240985884E0,-9.241271973E0,-3.203247070E0,1.200256348E0
9.246112837E0,-9.262802124E0,-3.215209961E0,1.218200684E0
9.251209273E0,-9.274765015E0,-3.199661255E0,1.224182129E0
9.256305708E0,-9.273574829E0,-3.211624146E0,1.238540649E0
9.261432661E0,-9.284347534E0,-3.208038330E0,1.226562500E0
9.266529097E0,-9.291519165E0,-3.211624146E0,1.238540649E0
9.271625532E0,-9.307067871E0,-3.230758667E0,1.261260986E0
9.276752486E0,-9.310668945E0,-3.247512817E0,1.261260986E0
9.281848921E0,-9.326217651E0,-3.263061523E0,1.278015137E0
9.286975874E0,-9.307067871E0,-3.267852783E0,1.279205322E0
9.292072310E0,-9.321426392E0,-3.284606934E0,1.300750732E0
9.297168745E0,-9.301086426E0,-3.303741455E0,1.306732178E0
9.302265181E0,-9.290328979E0,-3.331268311E0,1.348602295E0
9.307392134E0,-9.274765015E0,-3.339630127E0,1.368942261E0
9.312488570E0,-9.286743164E0,-3.357589722E0,1.416793823E0
9.317585005E0,-9.284347534E0,-3.373138428E0,1.409622192E0
9.322681441E0,-9.266403198E0,-3.363571167E0,1.400054932E0
9.327808394E0,-9.269989014E0,-3.356384277E0,1.383300781E0
9.332904829E0,-9.260421753E0,-3.342025757E0,1.386886597E0
9.338001265E0,-9.248458862E0,-3.301345825E0,1.376113892E0
9.343219771E0,-9.258026123E0,-3.248703003E0,1.356979370E0
9.348224654E0,-9.242462158E0,-3.194869995E0,1.325866699E0
9.353534712E0,-9.247253418E0,-3.152999878E0,1.306732178E0
9.358448042E0,-9.254440308E0,-3.113510132E0,1.324676514E0
9.363819136E0,-9.250839233E0,-3.056091309E0,1.327072144E0
9.368640913E0,-9.248458862E0,-3.017807007E0,1.306732178E0
9.373920454E0,-9.274765015E0,-2.993881226E0,1.322280884E0
9.378864302E0,-9.256820679E0,-2.973541260E0,1.313903809E0
9.383960738E0,-9.254440308E0,-2.974731445E0,1.333053589E0
9.389057173E0,-9.238876343E0,-2.957977295E0,1.305526733E0
9.394184126E0,-9.238876343E0,-2.961578369E0,1.337829590E0
9.399280562E0,-9.214950562E0,-2.957977295E0,1.347412109E0
9.404376997E0,-9.228118896E0,-2.961578369E0,1.347412109E0
9.409503950E0,-9.214950562E0,-2.962768555E0,1.341430664E0
9.414600386E0,-9.232894897E0,-2.980712891E0,1.345016479E0
9.419696821E0,-9.248458862E0,-2.986694336E0,1.371337891E0
9.424823775E0,-9.256820679E0,-3.007034302E0,1.408432007E0
9.429920210E0,-9.287933350E0,-3.007034302E0,1.439529419E0
9.435016646E0,-9.313064575E0,-3.018997192E0,1.461059570E0
9.440143599E0,-9.354934692E0,-3.020202637E0,1.473037720E0
9.445240034E0,-9.378860474E0,-3.036941528E0,1.510116577E0
9.450336470E0,-9.427917480E0,-3.051300049E0,1.548400879E0
9.455463423E0,-9.456619263E0,-3.060867310E0,1.550796509E0
9.460559859E0,-9.487731934E0,-3.077621460E0,1.548400879E0
9.465686812E0,-9.479354858E0,-3.102752686E0,1.559173584E0
9.470783247E0,-9.476959229E0,-3.123092651E0,1.569946289E0
9.475879683E0,-9.460220337E0,-3.152999878E0,1.585494995E0
9.481006636E0,-9.443466187E0,-3.178115845E0,1.574722290E0
9.486103071E0,-9.430297852E0,-3.202056885E0,1.559173584E0
9.491199507E0,-9.412353516E0,-3.220001221E0,1.583099365E0
9.496326460E0,-9.381256104E0,-3.245117188E0,1.572326660E0
9.501422896E0,-9.336990356E0,-3.261871338E0,1.550796509E0
9.506549849E0,-9.296310425E0,-3.284606934E0,1.559173584E0
9.511646284E0,-9.260421753E0,-3.315704346E0,1.560363770E0
9.516773238E0,-9.224517822E0,-3.315704346E0,1.538833618E0
9.521869673E0,-9.192214966E0,-3.328872681E0,1.525665283E0
9.526966109E0,-9.167098999E0,-3.331268311E0,1.516098022E0
9.532062544E0,-9.143173218E0,-3.326477051E0,1.518493652E0
9.537189497E0,-9.119232178E0,-3.332458496E0,1.531661987E0
9.542285933E0,-9.110870361E0,-3.313308716E0,1.540023804E0
9.547412886E0,-9.103683472E0,-3.318099976E0,1.571136475E0
9.552478804E0,-9.118041992E0,-3.316909790E0,1.580703735E0
9.557605757E0,-9.152740479E0,-3.318099976E0,1.583099365E0
9.562702193E0,-9.191024780E0,-3.344421387E0,1.578308105E0
9.567829146E0,-9.225723267E0,-3.343231201E0,1.568740845E0
9.572925581E0,-9.275970459E0,-3.361175537E0,1.562759399E0
9.578022017E0,-9.322631836E0,-3.375534058E0,1.566345215E0
9.583148970E0,-9.358520508E0,-3.397064209E0,1.548400879E0
9.588245405E0,-9.396804810E0,-3.405441284E0,1.524475098E0
9.593341841E0,-9.433898926E0,-3.399459839E0,1.502944946E0
9.598468794E0,-9.436294556E0,-3.403045654E0,1.482604980E0
9.603565230E0,-9.448257446E0,-3.399459839E0,1.445510864E0
9.608692183E0,-9.463806152E0,-3.391082764E0,1.421585083E0
9.613788618E0,-9.437484741E0,-3.395874023E0,1.396453857E0
9.618915571E0,-9.427917480E0,-3.379119873E0,1.385696411E0
9.624012007E0,-9.403991699E0,-3.369552612E0,1.376113892E0
9.629108443E0,-9.360916138E0,-3.346817017E0,1.378509521E0
9.634204878E0,-9.327407837E0,-3.318099976E0,1.368942261E0
9.639331831E0,-9.301086426E0,-3.297760010E0,1.346206665E0
9.644428267E0,-9.277160645E0,-3.289382935E0,1.352188110E0
9.649555220E0,-9.259216309E0,-3.297760010E0,1.361770630E0
9.654651655E0,-9.240081787E0,-3.298965454E0,1.355789185E0
9.659778609E0,-9.255630493E0,-3.302551270E0,1.370132446E0
9.664875044E0,-9.268783569E0,-3.312118530E0,1.396453857E0
9.669971480E0,-9.284347534E0,-3.330062866E0,1.422775269E0
9.675067915E0,-9.303482056E0,-3.325286865E0,1.447906494E0
9.680194868E0,-9.313064575E0,-3.326477051E0,1.451492310E0
9.685291304E0,-9.316650391E0,-3.327667236E0,1.455078125E0
9.690418257E0,-9.329803467E0,-3.334854126E0,1.458679199E0
9.695514693E0,-9.353729248E0,-3.326477051E0,1.457473755E0
9.700611128E0,-9.339385986E0,-3.324081421E0,1.440734863E0
9.705768599E0,-9.348953247E0,-3.310928345E0,1.426376343E0
9.710834517E0,-9.344161987E0,-3.298965454E0,1.395263672E0
9.716358198E0,-9.346557617E0,-3.290588379E0,1.382110596E0
9.721027388E0,-9.338180542E0,-3.277420044E0,1.361770630E0
9.726428999E0,-9.333389282E0,-3.270248413E0,1.339035034E0
9.731250777E0,-9.309463501E0,-3.265457153E0,1.289978027E0
9.736499800E0,-9.290328979E0,-3.254684448E0,1.275619507E0
9.741474165E0,-9.269989014E0,-3.241531372E0,1.257675171E0
9.746570601E0,-9.262802124E0,-3.243927002E0,1.219390869E0
9.751697554E0,-9.241271973E0,-3.240341187E0,1.214599609E0
9.756793989E0,-9.228118896E0,-3.246322632E0,1.206237793E0
9.761890425E0,-9.205383301E0,-3.240341187E0,1.197860718E0
9.767017378E0,-9.200592041E0,-3.269042969E0,1.184692383E0
9.772113814E0,-9.207778931E0,-3.276229858E0,1.195465088E0
9.777210249E0,-9.185043335E0,-3.287002563E0,1.209823608E0
9.782337202E0,-9.189834595E0,-3.298965454E0,1.202636719E0
9.787433638E0,-9.182647705E0,-3.296569824E0,1.222976685E0
9.792530073E0,-9.208969116E0,-3.310928345E0,1.231353760E0
9.797657027E0,-9.225723267E0,-3.290588379E0,1.262466431E0
9.802753462E0,-9.242462158E0,-3.302551270E0,1.276824951E0
9.807880415E0,-9.244857788E0,-3.315704346E0,1.303146362E0
9.812976851E0,-9.246063232E0,-3.336044312E0,1.322280884E0
9.818073286E0,-9.262802124E0,-3.336044312E0,1.335449219E0
9.823169722E0,-9.271179199E0,-3.345611572E0,1.321090698E0
9.828296675E0,-9.262802124E0,-3.369552612E0,1.301940918E0
9.833393111E0,-9.278366089E0,-3.373138428E0,1.280410767E0
9.838489546E0,-9.272384644E0,-3.392272949E0,1.254089355E0
9.843616499E0,-9.266403198E0,-3.411422729E0,1.246902466E0
9.848743452E0,-9.260421753E0,-3.425781250E0,1.264862061E0
9.853839888E0,-9.252044678E0,-3.419799805E0,1.267242432E0
9.858936323E0,-9.247253418E0,-3.409027100E0,1.228958130E0
9.864063277E0,-9.256820679E0,-3.387496948E0,1.211013794E0
9.869159712E0,-9.254440308E0,-3.361175537E0,1.212219238E0
9.874256148E0,-9.275970459E0,-3.340835571E0,1.230163574E0
9.879383101E0,-9.310668945E0,-3.300155640E0,1.233749390E0
9.884479536E0,-9.314254761E0,-3.253494263E0,1.225372314E0
9.889575972E0,-9.303482056E0,-3.223587036E0,1.230163574E0
9.894672407E0,-9.298706055E0,-3.184097290E0,1.248107910E0
9.899799361E0,-9.286743164E0,-3.138641357E0,1.268447876E0
9.904895796E0,-9.272384644E0,-3.112319946E0,1.313903809E0
9.909992232E0,-9.248458862E0,-3.068054199E0,1.316299438E0
9.915119185E0,-9.244857788E0,-3.017807007E0,1.301940918E0
9.920215620E0,-9.254440308E0,-2.973541260E0,1.340225220E0
9.925312056E0,-9.269989014E0,-2.930465698E0,1.340225220E0
9.930439009E0,-9.285537720E0,-2.893371582E0,1.340225220E0
9.935535445E0,-9.320236206E0,-2.858673096E0,1.370132446E0
9.940631880E0,-9.353729248E0,-2.833557129E0,1.370132446E0
9.945728316E0,-9.383651733E0,-2.794067383E0,1.353393555E0
9.950855269E0,-9.386032104E0,-2.783309937E0,1.346206665E0
9.955951704E0,-9.395614624E0,-2.773727417E0,1.323486328E0
9.961078657E0,-9.407577515E0,-2.751007080E0,1.318695068E0
9.966175093E0,-9.429107666E0,-2.725875854E0,1.310317993E0
9.971271529E0,-9.448257446E0,-2.735443115E0,1.340225220E0
9.976398482E0,-9.463806152E0,-2.739044189E0,1.335449219E0
9.981494917E0,-9.450637817E0,-2.742630005E0,1.324676514E0
9.986621870E0,-9.439880371E0,-2.747406006E0,1.316299438E0
9.991718306E0,-9.425521851E0,-2.754592896E0,1.282806396E0
9.996814741E0,-9.445861816E0,-2.772537231E0,1.239730835E0
1.000194170E1,-9.462615967E0,-2.802444458E0,1.213409424E0
1.000703813E1,-9.472183228E0,-2.847915649E0,1.224182129E0
1.001216508E1,-9.457824707E0,-2.877822876E0,1.240921021E0
1.001726152E1,-9.431503296E0,-2.924484253E0,1.260070801E0
1.002235795E1,-9.414749146E0,-2.955581665E0,1.266052246E0
1.002745439E1,-9.420730591E0,-3.005844116E0,1.286392212E0
1.003258134E1,-9.473373413E0,-3.075225830E0,1.322280884E0
1.003767778E1,-9.445861816E0,-3.181716919E0,1.348602295E0
1.004277421E1,-9.402786255E0,-3.255889893E0,1.360565186E0
1.004787065E1,-9.360916138E0,-3.339630127E0,1.367752075E0
1.005299760E1,-9.303482056E0,-3.422195435E0,1.366546631E0
1.005809404E1,-9.296310425E0,-3.514312744E0,1.386886597E0
1.006322099E1,-9.272384644E0,-3.613616943E0,1.392868042E0
1.006831743E1,-9.278366089E0,-3.683013916E0,1.421585083E0
1.007344438E1,-9.242462158E0,-3.766754150E0,1.425170898E0
1.007890703E1,-9.271179199E0,-3.815811157E0,1.440734863E0
1.008363725E1,-9.226913452E0,-3.878021240E0,1.453887939E0
1.008900834E1,-9.224517822E0,-3.931854248E0,1.441925049E0
1.009383012E1,-9.214950562E0,-3.935455322E0,1.141632080E0
1.009904863E1,-9.235290527E0,-3.972534180E0,1.355789185E0
1.010405351E1,-9.232894897E0,-3.997665405E0,1.563964844E0
1.010914995E1,-9.247253418E0,-3.998855591E0,1.632156372E0
1.011424638E1,-9.194610596E0,-4.021591187E0,1.559173584E0
1.011937334E1,-9.147949219E0,-4.018005371E0,1.451492310E0
1.012446977E1,-9.102493286E0,-3.994079590E0,1.420394897E0
1.012956621E1,-9.100097656E0,-3.973739624E0,1.370132446E0
1.013466264E1,-9.139572144E0,-3.939041138E0,1.304336548E0
1.013978960E1,-9.169494629E0,-3.910324097E0,1.289978027E0
1.014488603E1,-9.151535034E0,-3.893569946E0,1.300750732E0
1.015001298E1,-9.164703369E0,-3.858886719E0,1.282806396E0
1.015507890E1,-9.152740479E0,-3.854095459E0,1.295959473E0
1.016060258E1,-9.132400513E0,-3.846908569E0,1.275619507E0
1.016530229E1,-9.112060547E0,-3.855285645E0,1.288787842E0
1.017042924E1,-9.053436279E0,-3.832565308E0,1.305526733E0
1.017552568E1,-9.021133423E0,-3.806243896E0,1.312713623E0
1.018062211E1,-9.041473389E0,-3.778717041E0,1.329467773E0
1.018574907E1,-8.975662231E0,-3.754791260E0,1.346206665E0
1.019084550E1,-8.954132080E0,-3.705734253E0,1.340225220E0
1.019594194E1,-8.981658936E0,-3.677032471E0,1.342620850E0
1.020106889E1,-8.994812012E0,-3.671035767E0,1.339035034E0
1.020616533E1,-8.998397827E0,-3.644714355E0,1.323486328E0
1.021126176E1,-9.009170532E0,-3.657882690E0,1.329467773E0
1.021635820E1,-9.021133423E0,-3.691375732E0,1.318695068E0
1.022148515E1,-9.058227539E0,-3.708129883E0,1.307922363E0
1.022658159E1,-9.076171875E0,-3.738037109E0,1.310317993E0
1.023170854E1,-9.051040649E0,-3.796661377E0,1.349807739E0
1.023680498E1,-9.045059204E0,-3.825378418E0,1.382110596E0
1.024190141E1,-9.078567505E0,-3.876831055E0,1.352188110E0
1.024699785E1,-9.091720581E0,-3.901947021E0,1.173934937E0
1.025212480E1,-9.096511841E0,-3.946212769E0,1.252883911E0
1.025722124E1,-9.149154663E0,-4.006042480E0,1.529266357E0
1.026234819E1,-9.134796143E0,-4.086196899E0,1.592666626E0
1.026744462E1,-9.138381958E0,-4.157989502E0,1.565155029E0
1.027254106E1,-9.138381958E0,-4.234558105E0,1.550796509E0
1.027763750E1,-9.118041992E0,-4.287200928E0,1.518493652E0
1.028276445E1,-9.124023438E0,-4.317108154E0,1.461059570E0
1.028786088E1,-9.119232178E0,-4.299163818E0,1.278015137E0
1.029359819E1,-9.113250732E0,-4.303939819E0,1.518493652E0
1.029808427E1,-9.072586060E0,-4.281219482E0,1.598648071E0
1.030321123E1,-9.047454834E0,-4.247711182E0,1.613006592E0
1.030827714E1,-9.060607910E0,-4.184310913E0,1.565155029E0
1.031340410E1,-9.079757690E0,-4.107727051E0,1.498153687E0
1.031850053E1,-9.130004883E0,-4.034759521E0,1.447906494E0
1.032362749E1,-9.223327637E0,-3.989288330E0,1.451492310E0
1.032872392E1,-9.316650391E0,-3.962966919E0,1.450302124E0
1.033385087E1,-9.376464844E0,-3.955795288E0,1.438339233E0
1.033894731E1,-9.407577515E0,-3.960571289E0,1.437133789E0
1.034404374E1,-9.443466187E0,-3.934249878E0,1.455078125E0
1.034914018E1,-9.436294556E0,-3.875625610E0,1.432357788E0
1.035426713E1,-9.382446289E0,-3.778717041E0,1.431152344E0
1.035936357E1,-9.323822021E0,-3.672241211E0,1.408432007E0
1.036449052E1,-9.277160645E0,-3.557388306E0,1.376113892E0
1.036958696E1,-9.244857788E0,-3.432952881E0,1.355789185E0
1.037471391E1,-9.225723267E0,-3.315704346E0,1.331848145E0
1.037981035E1,-9.188629150E0,-3.220001221E0,1.329467773E0
1.038493730E1,-9.150344849E0,-3.115905762E0,1.337829590E0
1.039000322E1,-9.132400513E0,-3.032165527E0,1.362960815E0
1.039513017E1,-9.112060547E0,-2.978317261E0,1.388092041E0
1.040022661E1,-9.084548950E0,-2.935256958E0,1.398849487E0
1.040532304E1,-9.058227539E0,-2.907730103E0,1.409622192E0
1.041045000E1,-9.037887573E0,-2.895767212E0,1.431152344E0
1.041554643E1,-9.053436279E0,-2.919692993E0,1.465850830E0
1.042064287E1,-9.079757690E0,-2.961578369E0,1.517303467E0
1.042576982E1,-9.140777588E0,-3.030960083E0,1.591476440E0
1.043086626E1,-9.204177856E0,-3.095565796E0,1.657272339E0
1.043599321E1,-9.286743164E0,-3.179321289E0,1.714706421E0
1.044142534E1,-9.369293213E0,-3.257080078E0,1.730255127E0
1.044618608E1,-9.419540405E0,-3.332458496E0,1.768539429E0
1.045146562E1,-9.438674927E0,-3.345611572E0,1.773330688E0
1.045640947E1,-9.542770386E0,-3.342025757E0,1.802047729E0
1.046150590E1,-9.570281982E0,-3.420989990E0,1.791275024E0
1.046663286E1,-9.602584839E0,-3.482009888E0,1.792465210E0
1.047172929E1,-9.643264771E0,-3.540634155E0,1.802047729E0
1.047682573E1,-9.662414551E0,-3.618408203E0,1.796066284E0
1.048195268E1,-9.663604736E0,-3.665054321E0,1.773330688E0
1.048704912E1,-9.679153442E0,-3.698562622E0,1.754180908E0
1.049217607E1,-9.683944702E0,-3.746414185E0,1.735046387E0
1.049727251E1,-9.687530518E0,-3.764358521E0,1.602249146E0
1.050239946E1,-9.576263428E0,-3.638732910E0,1.114105225E0
1.050749589E1,-9.712661743E0,-3.589691162E0,1.544815063E0
1.051259233E1,-9.664794922E0,-3.650711060E0,1.834350586E0
1.051771928E1,-9.548751831E0,-3.726074219E0,1.882202148E0
1.052281572E1,-9.417144775E0,-3.767959595E0,1.849899292E0
1.052791215E1,-9.255630493E0,-3.819396973E0,1.836746216E0
1.053303911E1,-9.100097656E0,-3.857681274E0,1.837936401E0
1.053813554E1,-8.942169189E0,-3.868453979E0,1.852294922E0
1.054326250E1,-8.821334839E0,-3.919891357E0,1.871429443E0
1.054835893E1,-8.717239380E0,-3.940231323E0,1.821182251E0
