"Time (s)","Acceleration x (m/s^2)","Acceleration y (m/s^2)","Acceleration z (m/s^2)"
3.578808600E-2,8.348083496E-1,1.254989624E0,9.393356323E0
4.076245100E-2,8.348083496E-1,1.254989624E0,9.393356323E0
4.573681700E-2,8.348083496E-1,1.254989624E0,9.393356323E0
5.071118200E-2,8.348083496E-1,1.254989624E0,9.393356323E0
5.568554700E-2,8.348083496E-1,1.254989624E0,9.393356323E0
6.065991200E-2,8.828430176E-1,1.328750610E0,9.074264526E0
6.563427700E-2,7.897949219E-1,1.477294922E0,8.357284546E0
7.060864300E-2,8.416290283E-1,1.118423462E0,7.571090698E0
7.558300800E-2,1.263977051E0,6.181640625E-1,6.927947998E0
8.055737300E-2,9.361877441E-1,9.903869629E-1,7.768035889E0
8.553173800E-2,6.553497314E-1,1.368927002E0,8.500274658E0
9.050610400E-2,7.955322266E-1,1.337600708E0,8.396408081E0
9.548046900E-2,9.804077148E-1,1.342864990E0,8.658142090E0
1.004548340E-1,1.019805908E0,1.492309570E0,9.481872559E0
1.054291990E-1,1.044815063E0,1.625198364E0,1.033529663E1
1.104035650E-1,1.284255981E0,1.657699585E0,1.079727173E1
1.153779300E-1,1.609848022E0,1.661392212E0,1.092897034E1
1.203522950E-1,1.830215454E0,1.700042725E0,1.078598022E1
1.253266600E-1,2.046554565E0,1.624099731E0,1.045135498E1
1.303010260E-1,2.322799683E0,1.487838745E0,1.006575012E1
1.352753910E-1,2.364486694E0,1.447601318E0,9.788543701E0
1.402497560E-1,2.187103271E0,1.414932251E0,9.630798340E0
1.452241210E-1,2.029953003E0,1.310165405E0,9.525085449E0
1.501984860E-1,2.002502441E0,1.286102295E0,9.505813599E0
1.551728520E-1,2.002502441E0,1.286102295E0,9.505813599E0
1.601472170E-1,2.002502441E0,1.286102295E0,9.505813599E0
1.651215820E-1,2.002502441E0,1.286102295E0,9.505813599E0
1.700959470E-1,2.195877075E0,1.109817505E0,8.841827393E0
1.750703130E-1,2.249801636E0,9.188690186E-1,8.295059204E0
1.800446780E-1,2.195877075E0,7.961273193E-1,7.928894043E0
1.850190430E-1,2.041641235E0,6.445770264E-1,7.621963501E0
1.899934080E-1,1.862060547E0,4.841461182E-1,7.365249634E0
1.949677740E-1,1.688156128E0,3.827209473E-1,7.197387695E0
1.999421390E-1,1.616683960E0,3.654479980E-1,7.125015259E0
2.049165040E-1,1.560577393E0,4.121856689E-1,7.266281128E0
2.098908690E-1,1.628051758E0,5.723419189E-1,7.813827515E0
2.148652350E-1,1.772613525E0,7.736053467E-1,8.513916016E0
2.198396000E-1,2.059875488E0,8.978881836E-1,8.945251465E0
2.248139650E-1,2.500701904E0,9.056549072E-1,9.209197998E0
2.297883300E-1,2.973190308E0,9.122161865E-1,9.219406128E0
2.347626950E-1,3.496612549E0,9.682464600E-1,9.088302612E0
2.397370610E-1,4.065841675E0,9.718780518E-1,8.986434937E0
2.447114260E-1,4.491806030E0,9.346771240E-1,8.934448242E0
2.496857910E-1,4.886581421E0,9.076538086E-1,8.696746826E0
2.546601560E-1,5.204879761E0,8.348541260E-1,8.376968384E0
2.596345220E-1,5.170501709E0,7.801666260E-1,8.058670044E0
2.646088870E-1,4.938552856E0,8.117370605E-1,7.733047485E0
2.695832520E-1,4.644531250E0,9.302825928E-1,7.461090088E0
2.745576170E-1,4.441207886E0,1.020370483E0,7.132369995E0
2.795319830E-1,4.255157471E0,1.024826050E0,6.945007324E0
2.845063480E-1,4.084518433E0,8.733062744E-1,6.837738037E0
2.894807130E-1,3.910095215E0,6.443176270E-1,6.860824585E0
2.944550780E-1,3.678756714E0,4.109649658E-1,6.888992310E0
2.994294440E-1,3.402008057E0,1.867828369E-1,6.858276367E0
3.044038090E-1,3.116058350E0,1.490783691E-2,6.754577637E0
3.093781740E-1,2.888610840E0,-7.272338867E-2,6.515121460E0
3.143525390E-1,2.720794678E0,-9.956359863E-2,6.176788330E0
3.193269040E-1,2.596405029E0,-6.912231445E-2,5.772659302E0
3.243012700E-1,2.534484863E0,1.707458496E-2,5.354278564E0
3.292756350E-1,2.569107056E0,1.602783203E-1,5.015151978E0
3.342500000E-1,2.729461670E0,3.036346436E-1,4.799514771E0
3.392243650E-1,2.943466187E0,3.946990967E-1,4.817214966E0
3.441987310E-1,3.168685913E0,4.107055664E-1,5.102569580E0
3.491730960E-1,3.422241211E0,3.879699707E-1,5.504241943E0
3.541474610E-1,3.683059692E0,2.898101807E-1,5.836029053E0
3.591218260E-1,3.895050049E0,2.414093018E-1,6.114196777E0
3.640961920E-1,4.122558594E0,2.750854492E-1,6.335845947E0
3.690705570E-1,4.499938965E0,3.908996582E-1,6.402648926E0
3.740449220E-1,4.869369507E0,4.336547852E-1,6.314208984E0
3.790192870E-1,5.079788208E0,2.977294922E-1,6.366180420E0
3.839936520E-1,5.145050049E0,3.887939453E-2,6.520324707E0
3.889680180E-1,5.103683472E0,-2.237854004E-1,6.581207275E0
3.939423830E-1,5.113616943E0,-4.056701660E-1,6.504867554E0
3.989167480E-1,5.323516846E0,-4.290313721E-1,6.314254761E0
4.038911130E-1,5.510925293E0,-4.250183105E-1,6.122192383E0
4.088654790E-1,5.596923828E0,-4.877624512E-1,5.898208618E0
4.138398440E-1,5.500808716E0,-5.539855957E-1,5.775405884E0
4.188142090E-1,5.441757202E0,-6.134643555E-1,5.827423096E0
4.237885740E-1,5.973953247E0,-6.764373779E-1,5.560653687E0
4.287629400E-1,7.105895996E0,-6.755676270E-1,5.135665894E0
4.337373050E-1,7.321228027E0,-5.571289062E-1,5.191116333E0
4.387116700E-1,6.638061523E0,-2.553100586E-1,5.289505005E0
4.436860350E-1,6.263107300E0,-7.377624512E-2,5.271957397E0
4.486604010E-1,6.260452271E0,-1.060485840E-1,5.112335205E0
4.536347660E-1,5.915466309E0,-1.882019043E-1,5.144546509E0
4.586091310E-1,5.510940552E0,-2.339324951E-1,5.157257080E0
4.635834960E-1,5.184219360E0,-2.586364746E-1,4.991394043E0
4.685578610E-1,4.796371460E0,-3.537292480E-1,4.827972412E0
4.735322270E-1,4.684661865E0,-4.533691406E-1,4.873275757E0
4.785065920E-1,4.783813477E0,-5.525817871E-1,5.039703369E0
4.834809570E-1,5.018554688E0,-7.177276611E-1,5.156921387E0
4.884553220E-1,5.055496216E0,-8.812103271E-1,5.352981567E0
4.934296880E-1,4.960678101E0,-9.211578369E-1,5.698120117E0
4.984040530E-1,5.024047852E0,-8.807678223E-1,6.184326172E0
5.033784180E-1,5.261199951E0,-8.742065430E-1,6.801437378E0
5.083527830E-1,5.768295288E0,-9.203186035E-1,7.452255249E0
5.133271490E-1,6.314849854E0,-1.080657959E0,7.920120239E0
5.183015140E-1,6.739440918E0,-1.387374878E0,8.020294189E0
5.232758790E-1,6.886611938E0,-1.714370728E0,7.889633179E0
5.282502440E-1,6.721939087E0,-2.002960205E0,7.628997803E0
5.332246100E-1,6.127532959E0,-2.168609619E0,7.379913330E0
5.381989750E-1,5.327774048E0,-2.299652100E0,7.183593750E0
5.431733400E-1,4.771377563E0,-2.492630005E0,6.966232300E0
5.481477050E-1,4.467834473E0,-2.628845215E0,6.744964600E0
5.531220700E-1,4.311309814E0,-2.721221924E0,6.556838989E0
5.580964360E-1,4.234573364E0,-2.831558228E0,6.477523804E0
5.630708010E-1,4.197753906E0,-2.900268555E0,6.501296997E0
5.680451660E-1,4.290512085E0,-2.875442505E0,6.784042358E0
5.730195310E-1,4.701644897E0,-2.792678833E0,7.405380249E0
5.779938970E-1,5.164260864E0,-2.858810425E0,8.082778931E0
5.829682620E-1,5.694290161E0,-3.085449219E0,8.518783569E0
5.879426270E-1,5.968490601E0,-2.959091187E0,8.852493286E0
5.929169920E-1,6.160354614E0,-2.713562012E0,9.260711670E0
5.978913580E-1,6.769409180E0,-2.552505493E0,9.703445435E0
6.028657230E-1,7.377044678E0,-2.407806396E0,9.988204956E0
6.078400880E-1,7.808761597E0,-2.313186646E0,1.021411133E1
6.128144530E-1,8.145065308E0,-2.413253784E0,1.029400635E1
6.177888190E-1,8.173202515E0,-2.635635376E0,1.039994812E1
6.227631840E-1,7.997421265E0,-2.903884888E0,1.052075195E1
6.277375490E-1,7.796524048E0,-3.107727051E0,1.054714966E1
6.327119140E-1,7.630355835E0,-3.350219727E0,1.046760559E1
6.376862790E-1,7.425582886E0,-3.517517090E0,1.057043457E1
6.426606450E-1,7.454055786E0,-3.565841675E0,1.093913269E1
6.476350100E-1,7.834762573E0,-3.466110229E0,1.125216675E1
6.526093750E-1,8.430740356E0,-3.187271118E0,1.124279785E1
6.575837400E-1,8.963195801E0,-2.996643066E0,1.097030640E1
6.625581060E-1,9.546066284E0,-2.908782959E0,1.065122986E1
6.675324710E-1,9.889739990E0,-2.930419922E0,1.049307251E1
6.725068360E-1,9.683700562E0,-2.999664307E0,1.037750244E1
6.774812010E-1,9.454208374E0,-2.983032227E0,1.014872742E1
6.824555670E-1,9.390029907E0,-2.892120361E0,9.859375000E0
6.874299320E-1,9.362396240E0,-2.790496826E0,9.624755859E0
6.924042970E-1,9.221176147E0,-2.726989746E0,9.387298584E0
6.973786620E-1,9.101898193E0,-2.747192383E0,9.125808716E0
7.023530270E-1,9.210403442E0,-2.730285645E0,8.809783936E0
7.073273930E-1,9.580383301E0,-2.537170410E0,8.453414917E0
7.123017580E-1,1.008689880E1,-2.258560181E0,8.135650635E0
7.172761230E-1,1.063801575E1,-1.989944458E0,7.904678345E0
7.222504880E-1,1.123658752E1,-1.778228760E0,7.706451416E0
7.272248540E-1,1.168092346E1,-1.584945679E0,7.584838867E0
7.321992190E-1,1.178811646E1,-1.382156372E0,7.522735596E0
7.371735840E-1,1.158413696E1,-1.371032715E0,7.525955200E0
7.421479490E-1,1.118829346E1,-1.624114990E0,7.493301392E0
7.471223150E-1,1.066722107E1,-2.015213013E0,7.442382812E0
7.520966800E-1,1.012342834E1,-2.427886963E0,7.406600952E0
7.570710450E-1,9.696731567E0,-2.806747437E0,7.413833618E0
7.620454100E-1,9.272918701E0,-3.089782715E0,7.445312500E0
7.670197760E-1,8.843612671E0,-3.383880615E0,7.552886963E0
7.719941410E-1,8.519775391E0,-3.601364136E0,7.662322998E0
7.769685060E-1,8.334579468E0,-3.597259521E0,7.748138428E0
7.819428710E-1,8.056076050E0,-3.370300293E0,7.740646362E0
7.869172360E-1,7.992691040E0,-3.074356079E0,7.669509888E0
7.918916020E-1,8.115371704E0,-2.818618774E0,7.621246338E0
7.968659670E-1,8.383499146E0,-2.591964722E0,7.386627197E0
8.018403320E-1,8.834960938E0,-2.336959839E0,7.097610474E0
8.068146970E-1,9.374603271E0,-2.113693237E0,6.718154907E0
8.117890630E-1,9.947128296E0,-1.746978760E0,6.191452026E0
8.167634280E-1,1.052613831E1,-1.364898682E0,5.802383423E0
8.217377930E-1,1.084667969E1,-9.767608643E-1,5.610748291E0
8.267121580E-1,1.083070374E1,-7.395019531E-1,5.633697510E0
8.316865240E-1,1.055902100E1,-7.362365723E-1,5.823303223E0
8.366608890E-1,1.008694458E1,-1.032379150E0,6.058395386E0
8.416352540E-1,9.551666260E0,-1.483016968E0,6.325942993E0
8.466096190E-1,9.167388916E0,-1.982635498E0,6.583389282E0
8.515839850E-1,8.883682251E0,-2.432266235E0,6.834671021E0
8.565583500E-1,8.676208496E0,-2.869644165E0,7.574081421E0
8.615327150E-1,8.279769897E0,-3.326599121E0,8.660629272E0
8.665070800E-1,7.773742676E0,-3.675537109E0,9.442077637E0
8.714814450E-1,7.427841187E0,-4.015075684E0,9.957992554E0
8.764558110E-1,7.330505371E0,-4.250946045E0,1.040463257E1
8.814301760E-1,7.378921509E0,-4.278320312E0,1.073147583E1
8.864045410E-1,7.563095093E0,-4.121734619E0,1.088842773E1
8.913789060E-1,7.823318481E0,-3.857666016E0,1.089262390E1
8.963532720E-1,8.156753540E0,-3.598785400E0,1.076745605E1
9.013276370E-1,8.575088501E0,-3.356628418E0,1.053732300E1
9.063020020E-1,8.815658569E0,-3.091339111E0,1.024050903E1
9.112763670E-1,8.827728271E0,-2.879180908E0,9.834594727E0
9.162507330E-1,8.999908447E0,-2.706741333E0,9.515396118E0
9.212250980E-1,9.373855591E0,-2.504425049E0,9.206329346E0
9.261994630E-1,9.686218262E0,-2.219940186E0,8.851638794E0
9.311738280E-1,9.870819092E0,-2.052841187E0,8.428634644E0
9.361481940E-1,1.005737305E1,-2.084442139E0,7.995239258E0
9.411225590E-1,1.017994690E1,-2.263320923E0,7.615325928E0
9.460969240E-1,9.979232788E0,-2.409225464E0,7.179397583E0
9.510712890E-1,9.508453369E0,-2.557388306E0,6.707427979E0
9.560456540E-1,8.796401978E0,-2.661712646E0,6.106933594E0
9.610200200E-1,7.820465088E0,-2.734252930E0,5.273986816E0
9.659943850E-1,7.256774902E0,-3.159149170E0,4.419311523E0
9.709687500E-1,6.900711060E0,-3.711395264E0,3.872451782E0
9.759431150E-1,6.270370483E0,-4.002426147E0,3.515579224E0
9.809174810E-1,5.807098389E0,-4.037933350E0,3.454376221E0
9.858918460E-1,5.760757446E0,-3.959854126E0,3.580047607E0
9.908662110E-1,5.884780884E0,-3.836212158E0,3.777236938E0
9.958405760E-1,5.939163208E0,-3.782150269E0,3.989273071E0
1.000814942E0,5.880081177E0,-3.767715454E0,4.191146851E0
1.005789307E0,5.777297974E0,-3.878814697E0,4.375717163E0
1.010763672E0,3.786636353E0,-5.788879395E0,-3.255767822E-1
1.015738037E0,-4.761734009E0,-1.333766174E1,-2.045367432E1
1.020712402E0,1.108825684E0,-7.298431396E0,-7.606719971E0
1.025686768E0,4.132934570E0,-4.403549194E0,-4.258300781E0
1.030661133E0,5.376129150E0,-4.344955444E0,-1.913360596E0
1.035635498E0,5.260574341E0,-5.075698853E0,1.418167114E0
1.040609863E0,5.061386108E0,-6.538619995E0,4.986328125E0
1.045584229E0,5.020767212E0,-7.178100586E0,8.143951416E0
1.050558594E0,5.248352051E0,-7.480300903E0,9.022033691E0
1.055532959E0,4.898300171E0,-6.942993164E0,8.901733398E0
1.060507324E0,4.169601440E0,-6.185134888E0,9.010101318E0
1.065481690E0,3.680999756E0,-5.848541260E0,9.080261230E0
1.070456055E0,3.483367920E0,-6.077713013E0,8.526245117E0
1.075430420E0,3.492401123E0,-6.474517822E0,7.075576782E0
1.080404785E0,3.424713135E0,-6.633514404E0,5.668045044E0
1.085379151E0,3.210632324E0,-6.604904175E0,4.643066406E0
1.090353516E0,2.089645386E0,-7.543090820E0,6.164382935E0
1.095327881E0,-7.314453125E-1,-9.481353760E0,1.158764648E1
1.100302246E0,-3.233291626E0,-1.112156677E1,1.677928162E1
1.105276611E0,-1.998794556E0,-1.121846008E1,1.765614319E1
1.110250977E0,2.224746704E0,-9.099945068E0,1.221206665E1
1.115225342E0,3.289749146E0,-7.470794678E0,6.759277344E0
1.120199707E0,2.543563843E0,-7.321624756E0,5.362426758E0
1.125174072E0,1.966629028E0,-7.460388184E0,5.816101074E0
1.130148438E0,1.976272583E0,-7.327621460E0,6.209671021E0
1.135122803E0,2.210342407E0,-7.102081299E0,6.511245728E0
1.140097168E0,2.511764526E0,-7.011672974E0,6.566711426E0
1.145071533E0,2.785629272E0,-6.914794922E0,6.473312378E0
1.150045899E0,3.022888184E0,-6.749359131E0,6.220886230E0
1.155020264E0,3.228317261E0,-6.596466064E0,5.835739136E0
1.159994629E0,3.376937866E0,-6.499374390E0,5.362869263E0
1.164968994E0,3.709472656E0,-6.525894165E0,4.933837891E0
1.169943360E0,3.714874268E0,-6.769165039E0,4.786148071E0
1.174917725E0,3.572891235E0,-6.932418823E0,5.014511108E0
1.179892090E0,3.440841675E0,-7.060867310E0,5.387832642E0
1.184866455E0,3.330749512E0,-7.177612305E0,5.510635376E0
1.189840820E0,3.264694214E0,-7.173385620E0,5.692398071E0
1.194815186E0,3.311386108E0,-7.329193115E0,5.912963867E0
1.199789551E0,3.336975098E0,-7.453536987E0,6.116775513E0
1.204763916E0,3.466918945E0,-7.495239258E0,6.292495728E0
1.209738281E0,3.470596313E0,-7.316070557E0,6.367172241E0
1.214712647E0,3.522979736E0,-6.969253540E0,6.461471558E0
1.219687012E0,3.659408569E0,-6.696487427E0,6.350112915E0
1.224661377E0,3.701416016E0,-6.490127563E0,6.245254517E0
1.229635742E0,3.716751099E0,-6.446121216E0,6.162826538E0
1.234610108E0,3.741806030E0,-6.500976562E0,6.116226196E0
1.239584473E0,3.705535889E0,-6.549453735E0,6.115783691E0
1.244558838E0,3.635665894E0,-6.590316772E0,6.218536377E0
1.249533203E0,3.524642944E0,-6.634521484E0,6.304519653E0
1.254507569E0,3.416748047E0,-6.629592896E0,6.291900635E0
1.259481934E0,3.367355347E0,-6.590377808E0,6.251174927E0
1.264456299E0,3.328018188E0,-6.557632446E0,6.255325317E0
1.269430664E0,3.288619995E0,-6.583724976E0,6.299407959E0
1.274405029E0,3.260299683E0,-6.667297363E0,6.317260742E0
1.279379395E0,3.221755981E0,-6.784667969E0,6.345596313E0
1.284353760E0,3.179931641E0,-6.900436401E0,6.440887451E0
1.289328125E0,3.222518921E0,-7.025787354E0,6.565994263E0
1.294302490E0,3.265014648E0,-7.102066040E0,6.631057739E0
1.299276856E0,3.293807983E0,-7.163726807E0,6.585494995E0
1.304251221E0,3.187530518E0,-7.249694824E0,6.591156006E0
1.309225586E0,2.919509888E0,-7.369537354E0,6.667266846E0
1.314199951E0,2.912155151E0,-7.400421143E0,6.715179443E0
1.319174317E0,2.766448975E0,-7.314529419E0,6.626266479E0
1.324148682E0,2.630783081E0,-7.092636108E0,6.426818848E0
1.329123047E0,2.616363525E0,-6.843139648E0,6.260131836E0
1.334097412E0,2.646728516E0,-6.699752808E0,6.149368286E0
1.339071777E0,2.539047241E0,-6.753280640E0,6.233566284E0
1.344046143E0,2.568557739E0,-6.871597290E0,6.299728394E0
1.349020508E0,2.440185547E0,-6.987426758E0,6.363311768E0
1.353994873E0,2.250106812E0,-7.056457520E0,6.457992554E0
1.358969238E0,1.682723999E0,-7.198181152E0,6.622817993E0
1.363943604E0,2.583251953E0,-7.082153320E0,6.675552368E0
1.368917969E0,2.767929077E0,-6.796585083E0,6.608398438E0
1.373892334E0,2.525115967E0,-6.661819458E0,6.485977173E0
1.378866699E0,2.532577515E0,-6.521286011E0,6.405548096E0
1.383841065E0,2.502349854E0,-6.327880859E0,6.445007324E0
1.388815430E0,2.487411499E0,-6.186050415E0,6.690322876E0
1.393789795E0,2.476913452E0,-6.135635376E0,6.934265137E0
1.398764160E0,2.392166138E0,-6.073989868E0,7.147293091E0
1.403738526E0,2.345809937E0,-5.985610962E0,7.260330200E0
1.408712891E0,2.253799438E0,-5.895294189E0,7.323638916E0
1.413687256E0,2.217620850E0,-5.882156372E0,7.266952515E0
1.418661621E0,2.162597656E0,-5.952880859E0,7.156875610E0
1.423635986E0,2.154190063E0,-6.081344604E0,7.053024292E0
1.428610352E0,2.289321899E0,-6.148406982E0,6.837783813E0
1.433584717E0,2.898330688E0,-6.009719849E0,6.116058350E0
1.438559082E0,3.690216064E0,-5.661605835E0,4.835327148E0
1.443533447E0,3.612014771E0,-5.560104370E0,4.380218506E0
1.448507813E0,2.577758789E0,-6.199218750E0,5.847305298E0
1.453482178E0,1.889938354E0,-7.010635376E0,7.922851562E0
1.458456543E0,2.254013062E0,-7.308609009E0,8.642272949E0
1.463430908E0,3.066757202E0,-7.110260010E0,7.513977051E0
1.468405274E0,3.657653809E0,-6.785186768E0,5.837188721E0
1.473379639E0,3.780273438E0,-6.559204102E0,4.926666260E0
1.478354004E0,3.620101929E0,-6.436141968E0,4.818206787E0
1.483328369E0,3.407073975E0,-6.343032837E0,4.788772583E0
1.488302735E0,4.161529541E0,-5.736877441E0,3.151794434E0
1.493277100E0,4.350585938E0,-5.364837646E0,1.907623291E0
1.498251465E0,4.309661865E0,-5.371719360E0,1.649200439E0
1.503225830E0,4.431671143E0,-5.356567383E0,1.853713989E0
1.508200195E0,4.145538330E0,-5.562789917E0,2.600494385E0
1.513174561E0,4.022018433E0,-5.775894165E0,3.910675049E0
1.518148926E0,4.248413086E0,-5.835235596E0,5.564193726E0
1.523123291E0,3.692626953E0,-6.707046509E0,8.454788208E0
1.528097656E0,2.923492432E0,-7.484832764E0,1.074684143E1
1.533072022E0,2.997604370E0,-7.925018311E0,1.052043152E1
1.538046387E0,2.407684326E0,-8.636734009E0,9.282379150E0
1.543020752E0,1.668991089E0,-8.609863281E0,8.374282837E0
1.547995117E0,1.038696289E0,-8.139480591E0,7.850585938E0
1.552969483E0,7.389221191E-1,-7.395584106E0,7.162490845E0
1.557943848E0,6.595764160E-1,-6.567199707E0,6.291458130E0
1.562918213E0,6.225738525E-1,-5.982254028E0,5.665237427E0
1.567892578E0,2.527618408E-1,-5.655059814E0,5.548202515E0
1.572866944E0,-2.293243408E-1,-5.475234985E0,6.014892578E0
1.577841309E0,-3.498229980E-1,-5.357742310E0,6.702819824E0
1.582815674E0,-2.805786133E-1,-5.311645508E0,7.569625854E0
1.587790039E0,-1.939239502E-1,-5.322326660E0,8.504730225E0
1.592764404E0,-2.171936035E-1,-5.470092773E0,9.378646851E0
1.597738770E0,-2.203674316E-1,-5.646911621E0,1.018843079E1
1.602713135E0,-1.622314453E-1,-5.774002075E0,1.095962524E1
1.607687500E0,-1.395721436E-1,-5.801361084E0,1.162612915E1
1.612661865E0,-1.566619873E-1,-5.621597290E0,1.197015381E1
1.617636231E0,-6.797790527E-2,-5.299545288E0,1.180287170E1
1.622610596E0,2.635650635E-1,-4.952209473E0,1.104409790E1
1.627584961E0,7.857208252E-1,-4.673614502E0,9.983230591E0
1.632559326E0,1.447463989E0,-4.413436890E0,9.219680786E0
1.637533692E0,2.204421997E0,-4.166793823E0,8.658859253E0
1.642508057E0,3.025878906E0,-4.027938843E0,7.466079712E0
1.647482422E0,3.598419189E0,-3.896377563E0,6.213424683E0
1.652456787E0,3.858596802E0,-3.834732056E0,5.689437866E0
1.657431152E0,4.016036987E0,-4.056640625E0,5.232742310E0
1.662405518E0,4.065628052E0,-4.680923462E0,4.640625000E0
1.667379883E0,3.652984619E0,-5.552307129E0,3.595565796E0
1.672354248E0,3.277069092E0,-6.330261230E0,2.709411621E0
1.677328613E0,3.720916748E0,-6.483825684E0,2.445938110E0
1.682302979E0,4.279647827E0,-6.262908936E0,2.670120239E0
1.687277344E0,4.224990845E0,-6.457244873E0,2.270416260E0
1.692251709E0,3.431930542E0,-6.414550781E0,4.434356689E-1
1.697226074E0,3.893997192E0,-6.113830566E0,-2.033081055E-1
1.702200440E0,4.611618042E0,-6.057769775E0,9.860992432E-1
1.707174805E0,4.087951660E0,-6.519027710E0,2.524078369E0
1.712149170E0,3.576751709E0,-7.037857056E0,3.179718018E0
1.717123535E0,3.175216675E0,-7.623703003E0,3.232818604E0
1.722097901E0,3.067687988E0,-7.216918945E0,2.060867310E0
1.727072266E0,2.996185303E0,-7.088333130E0,6.327514648E-1
1.732046631E0,2.598724365E0,-7.346939087E0,2.651046753E0
1.737020996E0,3.226379395E0,-7.249114990E0,1.324234009E0
1.741995361E0,3.386154175E0,-7.286331177E0,2.075988770E0
1.746969727E0,2.605224609E0,-8.441589355E0,4.573867798E0
1.751944092E0,1.591522217E0,-9.797973633E0,5.901489258E0
1.756918457E0,1.515396118E0,-1.001562500E1,6.450866699E0
1.761892822E0,1.891510010E0,-9.636337280E0,6.738327026E0
1.766867188E0,2.310531616E0,-8.885742188E0,6.732696533E0
1.771841553E0,2.881072998E0,-8.231842041E0,6.752960205E0
1.776815918E0,2.739349365E0,-8.310287476E0,7.455627441E0
1.781790283E0,2.131759644E0,-9.270904541E0,9.003067017E0
1.786764649E0,1.773269653E0,-9.230453491E0,9.726104736E0
1.791739014E0,1.278732300E0,-8.872817993E0,9.629867554E0
1.796713379E0,1.101119995E0,-8.416992188E0,9.119857788E0
1.801687744E0,1.077743530E0,-8.113586426E0,8.323440552E0
1.806662110E0,1.471099854E0,-7.392440796E0,7.568572998E0
1.811636475E0,2.426513672E0,-7.020126343E0,7.325927734E0
1.816610840E0,2.984451294E0,-6.921798706E0,7.213958740E0
1.821585205E0,3.234893799E0,-7.167358398E0,7.464889526E0
1.826559570E0,3.999877930E0,-7.865798950E0,8.475082397E0
1.831533936E0,4.537277222E0,-8.844726562E0,9.677688599E0
1.836508301E0,4.644485474E0,-9.634582520E0,1.036531067E1
1.841482666E0,4.340621948E0,-1.004672241E1,1.019784546E1
1.846457031E0,3.757873535E0,-1.027990723E1,9.412521362E0
1.851431397E0,3.488601685E0,-1.024497986E1,8.572509766E0
1.856405762E0,3.570709229E0,-1.003025818E1,7.853134155E0
1.861380127E0,3.737014771E0,-9.668533325E0,7.183303833E0
1.866354492E0,3.758392334E0,-9.283676147E0,6.440612793E0
1.871328858E0,3.404113770E0,-9.165039062E0,5.693161011E0
1.876303223E0,2.920867920E0,-9.111251831E0,4.986328125E0
1.881277588E0,2.505538940E0,-8.967285156E0,4.361297607E0
1.886251953E0,2.154785156E0,-8.729766846E0,3.902526855E0
1.891226319E0,1.940551758E0,-8.441375732E0,3.696029663E0
1.896200684E0,2.000595093E0,-8.331573486E0,3.616912842E0
1.901175049E0,2.115158081E0,-8.258331299E0,3.797866821E0
1.906149414E0,2.204635620E0,-8.208419800E0,4.328842163E0
1.911123779E0,2.529418945E0,-8.502502441E0,5.199279785E0
1.916098145E0,3.124664307E0,-8.808151245E0,6.233078003E0
1.921072510E0,3.651107788E0,-9.297775269E0,7.346099854E0
1.926046875E0,4.055664062E0,-9.822830200E0,8.312011719E0
1.931021240E0,4.450942993E0,-1.044725037E1,9.508270264E0
1.935995606E0,4.392318726E0,-1.109820557E1,1.050332642E1
1.940969971E0,4.339096069E0,-1.144926453E1,1.112619019E1
1.945944336E0,4.307952881E0,-1.158030701E1,1.151380920E1
1.950918701E0,4.351989746E0,-1.171585083E1,1.176802063E1
1.955893067E0,4.313201904E0,-1.121720886E1,1.154519653E1
1.960867432E0,4.246353149E0,-1.012876892E1,1.097386169E1
1.965841797E0,4.412139893E0,-8.985214233E0,9.006179810E0
1.970816162E0,3.926651001E0,-8.408950806E0,7.688095093E0
1.975790527E0,2.593505859E0,-8.010208130E0,6.985794067E0
1.980764893E0,1.838684082E0,-7.523666382E0,6.827850342E0
1.985739258E0,1.497451782E0,-6.991500854E0,5.565307617E0
1.990713623E0,1.435867310E0,-6.514617920E0,4.981094360E0
1.995687988E0,1.395309448E0,-6.095993042E0,4.738601685E0
2.000662354E0,1.274826050E0,-5.548889160E0,4.453536987E0
2.005636719E0,9.898834229E-1,-4.956008911E0,4.214736938E0
2.010611084E0,8.594207764E-1,-4.503906250E0,4.008651733E0
2.015585449E0,9.150238037E-1,-4.236175537E0,4.102981567E0
2.020559815E0,1.092239380E0,-3.778030396E0,3.712844849E0
2.025534180E0,1.385848999E0,-3.314361572E0,3.627166748E0
2.030508545E0,1.758331299E0,-2.611572266E0,3.302261353E0
2.035482910E0,2.059585571E0,-1.927871704E0,3.230255127E0
2.040457276E0,2.521789551E0,-1.515182495E0,3.281204224E0
2.045431641E0,3.177688599E0,-1.267288208E0,3.402908325E0
2.050406006E0,3.491638184E0,-1.184890747E0,3.690475464E0
2.055380371E0,3.430541992E0,-1.215118408E0,3.984878540E0
2.060354736E0,3.044143677E0,-1.297027588E0,4.244964600E0
2.065329102E0,2.187408447E0,-1.649124146E0,4.733932495E0
2.070303467E0,2.020416260E0,-2.491149902E0,6.147933960E0
2.075277832E0,1.951431274E0,-2.796890259E0,6.789062500E0
2.080252197E0,1.750885010E0,-2.581451416E0,6.718978882E0
2.085226563E0,1.571640015E0,-2.415390015E0,6.374526978E0
2.090200928E0,1.351104736E0,-2.410797119E0,6.000610352E0
2.095175293E0,1.176605225E0,-2.385238647E0,5.612716675E0
2.100149658E0,1.469940186E0,-2.174163818E0,5.025787354E0
2.105124024E0,1.377059937E0,-2.150360107E0,4.492431641E0
2.110098389E0,1.517745972E0,-2.338943481E0,4.123657227E0
2.115072754E0,1.604995728E0,-2.711791992E0,4.051254272E0
2.120047119E0,1.931198120E0,-2.641967773E0,3.059997559E0
2.125021485E0,1.819839478E0,-3.183319092E0,2.054275513E0
2.129995850E0,2.241897583E0,-5.339660645E0,-1.603103638E0
2.134970215E0,3.098571777E0,-5.173919678E0,-2.911682129E0
2.139944580E0,3.138931274E0,-2.986267090E0,2.921447754E0
2.144918945E0,3.264541626E0,-3.438247681E0,1.640213013E0
2.149893311E0,1.294189453E0,-3.547042847E0,7.255722046E0
2.154867676E0,1.148834229E0,-5.240112305E0,5.884033203E0
2.159842041E0,2.523773193E0,-5.890441895E0,3.958251953E0
2.164816406E0,3.357971191E0,-5.662643433E0,2.481796265E0
2.169790772E0,3.174972534E0,-6.225189209E0,3.891601562E0
2.174765137E0,2.852127075E0,-8.913604736E0,5.699111938E0
2.179739502E0,1.907531738E0,-1.064494324E1,6.084915161E0
2.184713867E0,4.550628662E-1,-8.057617188E0,4.971755981E0
2.189688233E0,-2.716369629E-1,-5.197906494E0,5.265533447E0
2.194662598E0,1.552413940E0,-6.454406738E0,5.810470581E0
2.199636963E0,3.366546631E0,-9.046035767E0,6.442794800E0
2.204611328E0,3.216995239E0,-1.043710327E1,8.122940063E0
2.209585694E0,2.972824097E0,-1.090440369E1,9.306655884E0
2.214560059E0,2.916198730E0,-1.158065796E1,1.009555054E1
2.219534424E0,2.672729492E0,-1.270552063E1,1.104292297E1
2.224508789E0,2.520568848E0,-1.387522888E1,1.170645142E1
2.229483154E0,2.287033081E0,-1.371162415E1,1.100814819E1
2.234457520E0,2.449050903E0,-1.202728271E1,8.883377075E0
2.239431885E0,2.676483154E0,-1.004232788E1,6.501235962E0
2.244406250E0,2.841552734E0,-8.360305786E0,4.596771240E0
2.249380615E0,3.225769043E0,-7.218551636E0,3.683273315E0
2.254354981E0,3.482299805E0,-7.032318115E0,3.815612793E0
2.259329346E0,3.827896118E0,-6.653594971E0,4.551773071E0
2.264303711E0,5.132293701E0,-7.116577148E0,5.117752075E0
2.269278076E0,5.681076050E0,-8.105285645E0,5.307739258E0
2.274252442E0,5.145767212E0,-8.181594849E0,5.925277710E0
2.279226807E0,5.091583252E0,-8.349349976E0,6.069107056E0
2.284201172E0,4.453445435E0,-8.183395386E0,5.678207397E0
2.289175537E0,4.481521606E0,-7.873626709E0,5.311447144E0
2.294149902E0,4.008270264E0,-7.980209351E0,4.838943481E0
2.299124268E0,3.140991211E0,-7.408584595E0,4.923934937E0
2.304098633E0,2.977050781E0,-7.056793213E0,5.739913940E0
2.309072998E0,2.726623535E0,-6.964645386E0,6.183547974E0
2.314047363E0,3.179550171E0,-8.259918213E0,6.339370728E0
2.319021729E0,2.968215942E0,-9.335388184E0,6.322891235E0
2.323996094E0,2.709014893E0,-9.968261719E0,6.233932495E0
2.328970459E0,3.034530640E0,-9.907684326E0,6.023086548E0
2.333944824E0,2.720748901E0,-9.869689941E0,6.369735718E0
2.338919190E0,2.918991089E0,-9.281936646E0,6.147186279E0
2.343893555E0,3.326751709E0,-8.391067505E0,5.531768799E0
2.348867920E0,3.445281982E0,-7.783889771E0,5.457489014E0
2.353842285E0,3.365295410E0,-7.523803711E0,5.494186401E0
2.358816651E0,2.987808228E0,-7.660888672E0,5.843856812E0
2.363791016E0,2.893661499E0,-7.983993530E0,6.115158081E0
2.368765381E0,3.576858521E0,-8.463119507E0,5.944946289E0
2.373739746E0,3.995346069E0,-8.821014404E0,5.570159912E0
2.378714111E0,3.718948364E0,-8.837661743E0,5.382843018E0
2.383688477E0,3.647918701E0,-8.693801880E0,5.314437866E0
2.388662842E0,3.851119995E0,-8.357131958E0,5.599884033E0
2.393637207E0,4.055389404E0,-7.655487061E0,5.941375732E0
2.398611572E0,3.991180420E0,-6.975875854E0,5.947998047E0
2.403585938E0,3.740951538E0,-6.608657837E0,5.674224854E0
2.408560303E0,3.715164185E0,-6.459594727E0,5.190673828E0
2.413534668E0,3.741226196E0,-6.434600830E0,4.819458008E0
2.418509033E0,4.123855591E0,-6.302993774E0,4.981292725E0
2.423483399E0,4.655212402E0,-6.099670410E0,5.301544189E0
2.428457764E0,4.678176880E0,-5.945877075E0,5.515136719E0
2.433432129E0,4.639648438E0,-5.925964355E0,5.271591187E0
2.438406494E0,4.257446289E0,-5.807464600E0,4.592681885E0
2.443380860E0,3.838180542E0,-6.086288452E0,4.623062134E0
2.448355225E0,3.555923462E0,-6.439727783E0,5.198425293E0
2.453329590E0,3.623153687E0,-6.641052246E0,5.328140259E0
2.458303955E0,3.457092285E0,-6.759490967E0,5.829147339E0
2.463278320E0,3.294403076E0,-6.594879150E0,6.141296387E0
2.468252686E0,4.203948975E0,-6.505889893E0,6.313369751E0
2.473227051E0,4.372329712E0,-6.289016724E0,5.773406982E0
2.478201416E0,3.615173340E0,-5.655090332E0,4.513992310E0
2.483175781E0,3.820602417E0,-5.836212158E0,3.872039795E0
2.488150147E0,4.518524170E0,-6.346969604E0,4.137908936E0
2.493124512E0,4.682662964E0,-7.268737793E0,4.027328491E0
2.498098877E0,5.081008911E0,-8.122711182E0,4.206939697E0
2.503073242E0,4.652664185E0,-8.762634277E0,4.628601074E0
2.508047608E0,4.198684692E0,-8.251815796E0,4.922241211E0
2.513021973E0,4.213562012E0,-8.053680420E0,5.200775146E0
2.517996338E0,4.339385986E0,-7.842498779E0,5.093261719E0
2.522970703E0,4.142089844E0,-7.727920532E0,4.601165771E0
2.527945069E0,3.926208496E0,-7.393188477E0,4.131729126E0
2.532919434E0,3.932739258E0,-7.075775146E0,3.659545898E0
2.537893799E0,3.919189453E0,-6.674377441E0,3.365798950E0
2.542868164E0,3.941085815E0,-6.305526733E0,3.342025757E0
2.547842529E0,4.009750366E0,-6.214904785E0,3.611373901E0
2.552816895E0,4.043304443E0,-6.449035645E0,3.902114868E0
2.557791260E0,4.239898682E0,-6.724136353E0,3.989349365E0
2.562765625E0,4.349365234E0,-7.044586182E0,3.884094238E0
2.567739990E0,4.449401855E0,-7.199203491E0,3.486999512E0
2.572714356E0,4.251617432E0,-7.085876465E0,3.130599976E0
2.577688721E0,3.400054932E0,-7.453933716E0,4.390991211E0
2.582663086E0,2.753051758E0,-8.731262207E0,5.517944336E0
2.587637451E0,2.226119995E0,-9.618087769E0,5.113601685E0
2.592611817E0,2.225479126E0,-9.335311890E0,4.130630493E0
2.597586182E0,2.566650391E0,-8.769119263E0,3.343246460E0
2.602560547E0,1.859939575E0,-9.264984131E0,4.548629761E0
2.607534912E0,1.326339722E0,-8.882095337E0,4.177139282E0
2.612509277E0,2.362060547E0,-9.753860474E0,2.451110840E0
2.617483643E0,3.372802734E0,-1.067483521E1,1.631835938E0
2.622458008E0,2.491058350E0,-1.024343872E1,1.562515259E0
2.627432373E0,2.218704224E0,-9.446807861E0,2.210037231E0
2.632406738E0,2.918258667E0,-9.118133545E0,3.094696045E0
2.637381104E0,3.952163696E0,-9.033889771E0,3.287292480E0
2.642355469E0,3.693588257E0,-9.358093262E0,3.853073120E0
2.647329834E0,3.945922852E0,-1.009390259E1,4.238067627E0
2.652304199E0,3.934829712E0,-1.097715759E1,4.403961182E0
2.657278565E0,3.810272217E0,-1.131123352E1,3.803741455E0
2.662252930E0,3.577362061E0,-1.103741455E1,3.571014404E0
2.667227295E0,3.533142090E0,-1.092602539E1,4.099090576E0
2.672201660E0,3.792846680E0,-1.049702454E1,3.611770630E0
2.677176026E0,3.651763916E0,-1.035256958E1,3.473251343E0
2.682150391E0,3.560226440E0,-1.046273804E1,3.410446167E0
2.687124756E0,3.178176880E0,-1.007063293E1,3.280410767E0
2.692099121E0,3.069961548E0,-9.331268311E0,3.475738525E0
2.697073486E0,3.330291748E0,-9.085174561E0,3.946456909E0
2.702047852E0,3.537780762E0,-8.900878906E0,4.392593384E0
2.707022217E0,3.721786499E0,-8.582550049E0,4.906906128E0
2.711996582E0,3.732345581E0,-8.170501709E0,5.486877441E0
2.716970947E0,3.604385376E0,-8.003616333E0,5.683105469E0
2.721945313E0,3.424957275E0,-7.859222412E0,4.544921875E0
2.726919678E0,3.730926514E0,-7.677062988E0,3.006195068E0
2.731894043E0,3.359588623E0,-7.795684814E0,2.445892334E0
2.736868408E0,2.821807861E0,-8.012832642E0,2.188796997E0
2.741842774E0,2.363449097E0,-8.164566040E0,2.322128296E0
2.746817139E0,2.082046509E0,-8.206542969E0,2.674545288E0
2.751791504E0,2.230041504E0,-7.690780640E0,2.992431641E0
2.756765869E0,2.662322998E0,-6.570510864E0,3.239822388E0
2.761740235E0,2.487762451E0,-6.129577637E0,3.870391846E0
2.766714600E0,1.870407104E0,-6.153610229E0,4.526412964E0
2.771688965E0,1.370437622E0,-6.161621094E0,4.916183472E0
2.776663330E0,1.025680542E0,-6.164031982E0,5.268539429E0
2.781637695E0,7.438964844E-1,-6.053710938E0,5.562011719E0
2.786612061E0,4.773864746E-1,-5.974685669E0,5.608505249E0
2.791586426E0,-1.070098877E-1,-6.024078369E0,5.383438110E0
2.796560791E0,-5.919799805E-1,-6.139877319E0,4.995635986E0
2.801535156E0,-7.499542236E-1,-6.376098633E0,4.694519043E0
2.806509522E0,-8.417816162E-1,-6.595870972E0,4.413101196E0
2.811483887E0,-8.530731201E-1,-6.869232178E0,4.300155640E0
2.816458252E0,-1.019958496E0,-7.382965088E0,4.352584839E0
2.821432617E0,-1.270156860E0,-7.905151367E0,4.443099976E0
2.826406983E0,-1.384826660E0,-8.607482910E0,4.800964355E0
2.831381348E0,-1.809097290E0,-9.269302368E0,4.851867676E0
2.836355713E0,-1.992980957E0,-9.809051514E0,4.238525391E0
2.841330078E0,-1.646591187E0,-1.020880127E1,3.851989746E0
2.846304444E0,-1.059890747E0,-1.026405334E1,2.970413208E0
2.851278809E0,-5.984649658E-1,-9.899993896E0,2.086868286E0
2.856253174E0,-1.613769531E-1,-9.363174438E0,1.688217163E0
2.861227539E0,1.471710205E-1,-8.557479858E0,1.451812744E0
2.866201904E0,5.356445312E-1,-7.693359375E0,1.256546021E0
2.871176270E0,9.246978760E-1,-6.813186646E0,1.360763550E0
2.876150635E0,1.140411377E0,-5.970352173E0,9.903106689E-1
2.881125000E0,1.184448242E0,-5.307006836E0,7.421569824E-1
2.886099365E0,1.192947388E0,-4.866683960E0,5.071258545E-1
2.891073731E0,1.220306396E0,-4.559310913E0,8.415069580E-1
2.896048096E0,1.089324951E0,-4.171813965E0,9.113616943E-1
2.901022461E0,9.287109375E-1,-3.861831665E0,1.238677979E0
2.905996826E0,7.477416992E-1,-3.807006836E0,2.036712646E0
2.910971192E0,6.564788818E-1,-3.849716187E0,2.817596436E0
2.915945557E0,6.794433594E-1,-3.878158569E0,3.349227905E0
2.920919922E0,9.376983643E-1,-4.055191040E0,3.440200806E0
2.925894287E0,1.260894775E0,-4.410324097E0,3.609008789E0
2.930868652E0,1.643188477E0,-4.899536133E0,3.954132080E0
2.935843018E0,2.500381470E0,-5.410156250E0,4.113601685E0
2.940817383E0,3.645172119E0,-6.186691284E0,4.024765015E0
2.945791748E0,4.591735840E0,-7.032516479E0,3.635208130E0
2.950766113E0,4.376693726E0,-8.800262451E0,3.469024658E0
2.955740479E0,2.942367554E0,-1.226733398E1,4.047485352E0
2.960714844E0,2.876159668E0,-1.429238892E1,5.247848511E0
2.965689209E0,4.108398438E0,-1.371388245E1,5.546249390E0
2.970663574E0,3.663604736E0,-1.424693298E1,5.380996704E0
2.975637940E0,1.438720703E0,-1.658576965E1,5.187683105E0
2.980612305E0,4.010162354E-1,-1.844192505E1,4.355484009E0
2.985586670E0,1.460571289E0,-1.842700195E1,2.532501221E0
2.990561035E0,3.050567627E0,-1.623411560E1,-3.705291748E-1
2.995535401E0,2.893295288E0,-1.384544373E1,-1.793014526E0
3.000509766E0,2.467483521E0,-1.146208191E1,-1.977478027E0
3.005484131E0,1.890716553E0,-9.315795898E0,-1.808425903E0
3.010458496E0,-3.366088867E-2,-8.506973267E0,-7.086181641E-1
3.015432861E0,-3.043365479E0,-8.934005737E0,1.391586304E0
3.020407227E0,-5.148162842E0,-9.471313477E0,3.863128662E0
3.025381592E0,-7.320190430E0,-1.091030884E1,5.710861206E0
3.030355957E0,-7.453979492E0,-1.174784851E1,7.556579590E0
3.035330322E0,-6.454605103E0,-1.237286377E1,7.948303223E0
3.040304688E0,-5.157394409E0,-1.257998657E1,7.409622192E0
3.045279053E0,-2.803619385E0,-1.124781799E1,6.336791992E0
3.050253418E0,-1.905197144E0,-1.010163879E1,5.172317505E0
3.055227783E0,-2.265884399E0,-1.075309753E1,4.234756470E0
3.060202149E0,-2.753021240E0,-1.134486389E1,4.055831909E0
3.065176514E0,-3.341567993E0,-1.205447388E1,3.418350220E0
3.070150879E0,-5.047943115E0,-1.452069092E1,2.892150879E0
3.075125244E0,-5.941314697E0,-1.730484009E1,2.747940063E0
3.080099610E0,-4.363876343E0,-1.842820740E1,2.600097656E0
3.085073975E0,-1.565673828E0,-1.761845398E1,1.538269043E0
3.090048340E0,7.613067627E-1,-1.461888123E1,6.824340820E-1
3.095022705E0,5.930480957E-1,-1.149851990E1,9.509735107E-1
3.099997070E0,-4.197540283E-1,-9.636901855E0,1.375183105E0
3.104971436E0,-1.057617188E0,-8.894470215E0,1.534881592E0
3.109945801E0,-1.037643433E0,-8.804870605E0,1.684783936E0
3.114920166E0,-8.146209717E-1,-9.006393433E0,2.047302246E0
3.119894531E0,-7.865905762E-1,-9.141098022E0,2.557403564E0
3.124868897E0,-9.234313965E-1,-9.135498047E0,2.955215454E0
3.129843262E0,-9.641571045E-1,-9.128021240E0,3.146743774E0
3.134817627E0,-8.680572510E-1,-9.094818115E0,3.144500732E0
3.139791992E0,-7.048187256E-1,-9.078979492E0,3.011734009E0
3.144766358E0,-5.545501709E-1,-9.097274780E0,2.838897705E0
3.149740723E0,-4.911956787E-1,-9.122024536E0,2.660507202E0
3.154715088E0,-5.105438232E-1,-9.216156006E0,2.509384155E0
3.159689453E0,-6.037445068E-1,-9.331451416E0,2.386215210E0
3.164663819E0,-7.453765869E-1,-9.414398193E0,2.290145874E0
3.169638184E0,-8.645629883E-1,-9.488952637E0,2.237396240E0
3.174612549E0,-9.191741943E-1,-9.542587280E0,2.207885742E0
3.179586914E0,-9.096069336E-1,-9.570465088E0,2.218963623E0
3.184561279E0,-8.896331787E-1,-9.572540283E0,2.245208740E0
3.189535645E0,-8.690948486E-1,-9.568496704E0,2.309463501E0
3.194510010E0,-8.099212646E-1,-9.553939819E0,2.360427856E0
3.199484375E0,-7.505187988E-1,-9.534286499E0,2.425949097E0
3.204458740E0,-7.224731445E-1,-9.505401611E0,2.501998901E0
3.209433106E0,-6.761016846E-1,-9.467773438E0,2.583770752E0
3.214407471E0,-6.221313477E-1,-9.479782104E0,2.665191650E0
3.219381836E0,-5.678863525E-1,-9.473785400E0,2.730224609E0
3.224356201E0,-4.822692871E-1,-9.476257324E0,2.705215454E0
3.229330567E0,-4.049224854E-1,-9.504837036E0,2.661880493E0
3.234304932E0,-3.244934082E-1,-9.490234375E0,2.595626831E0
3.239279297E0,-2.958068848E-1,-9.491073608E0,2.486038208E0
3.244253662E0,-2.312316895E-1,-9.448928833E0,2.374862671E0
3.249228027E0,-1.021423340E-1,-9.416580200E0,2.283401489E0
3.254202393E0,6.040954590E-2,-9.347686768E0,2.143341064E0
3.259176758E0,5.523681641E-3,-9.349884033E0,2.160720825E0
3.264151123E0,-1.530151367E-1,-9.348205566E0,2.350097656E0
3.269125488E0,-3.509979248E-1,-9.352355957E0,2.541168213E0
3.274099854E0,-4.747314453E-1,-9.321014404E0,2.676452637E0
3.279074219E0,-4.698638916E-1,-9.232604980E0,2.643142700E0
3.284048584E0,-4.197540283E-1,-9.175521851E0,2.534500122E0
3.289022949E0,-4.105224609E-1,-9.211807251E0,2.422500610E0
3.293997315E0,-4.464416504E-1,-9.297363281E0,2.370971680E0
3.298971680E0,-4.819793701E-1,-9.393722534E0,2.365112305E0
3.303946045E0,-5.411376953E-1,-9.375671387E0,2.333465576E0
3.308920410E0,-5.874328613E-1,-9.309280396E0,2.355209351E0
3.313894776E0,-6.589660645E-1,-9.231170654E0,2.349304199E0
3.318869141E0,-7.545318604E-1,-9.234115601E0,2.329437256E0
3.323843506E0,-8.201599121E-1,-9.444366455E0,2.269104004E0
3.328817871E0,-8.575744629E-1,-9.617233276E0,2.146270752E0
3.333792236E0,-8.711090088E-1,-9.670639038E0,2.100448608E0
3.338766602E0,-8.363037109E-1,-9.706329346E0,2.149902344E0
3.343740967E0,-7.578277588E-1,-9.772857666E0,2.249435425E0
3.348715332E0,-6.562957764E-1,-9.853576660E0,2.308547974E0
3.353689697E0,-5.753631592E-1,-9.857498169E0,2.300949097E0
3.358664063E0,-5.472564697E-1,-9.792999268E0,2.350250244E0
3.363638428E0,-4.909667969E-1,-9.766738892E0,2.374343872E0
3.368612793E0,-4.257659912E-1,-9.760894775E0,2.367858887E0
3.373587158E0,-4.684906006E-1,-9.727279663E0,2.367233276E0
3.378561524E0,-5.807647705E-1,-9.673248291E0,2.357360840E0
3.383535889E0,-6.107788086E-1,-9.572219849E0,2.331375122E0
3.388510254E0,-7.010040283E-1,-9.453262329E0,2.372619629E0
3.393484619E0,-8.472595215E-1,-9.372360229E0,2.406234741E0
3.398458985E0,-9.611206055E-1,-9.361007690E0,2.399642944E0
3.403433350E0,-9.419250488E-1,-9.314651489E0,2.375061035E0
3.408407715E0,-9.497528076E-1,-9.353302002E0,2.329803467E0
3.413382080E0,-1.041061401E0,-9.456710815E0,2.122589111E0
3.418356445E0,-1.092147827E0,-9.528167725E0,1.937057495E0
3.423330811E0,-1.004882812E0,-9.393936157E0,2.227935791E0
3.428305176E0,-1.000396729E0,-9.397232056E0,2.404052734E0
3.433279541E0,-1.009887695E0,-9.444808960E0,2.554321289E0
3.438253906E0,-9.788818359E-1,-9.355346680E0,2.713867188E0
3.443228272E0,-9.780120850E-1,-9.210952759E0,2.810028076E0
3.448202637E0,-1.130706787E0,-9.204803467E0,2.712631226E0
3.453177002E0,-1.035614014E0,-9.222961426E0,2.418380737E0
3.458151367E0,-1.006408691E0,-9.294708252E0,2.326950073E0
3.463125733E0,-1.032318115E0,-9.307235718E0,2.399658203E0
3.468100098E0,-1.015518188E0,-9.415344238E0,2.504104614E0
3.473074463E0,-9.954071045E-1,-9.495162964E0,2.430007935E0
3.478048828E0,-9.909057617E-1,-9.473617554E0,2.536483765E0
3.483023194E0,-8.013305664E-1,-9.486907959E0,2.759490967E0
3.487997559E0,-7.956237793E-1,-9.543426514E0,2.686218262E0
3.492971924E0,-8.411254883E-1,-9.609024048E0,2.586196899E0
3.497946289E0,-9.357147217E-1,-9.530853271E0,2.358245850E0
3.502920654E0,-9.482879639E-1,-9.475555420E0,2.072433472E0
3.507895020E0,-9.151153564E-1,-9.485488892E0,1.970520020E0
3.512869385E0,-8.856658936E-1,-9.517715454E0,1.946777344E0
3.517843750E0,-9.061279297E-1,-9.744796753E0,1.934570312E0
3.522818115E0,-9.510192871E-1,-1.024067688E1,1.982482910E0
3.527792481E0,-1.034072876E0,-1.009382629E1,1.692504883E0
3.532766846E0,-9.650268555E-1,-9.322006226E0,1.665374756E0
3.537741211E0,-8.082275391E-1,-9.059509277E0,2.254882812E0
3.542715576E0,-8.034210205E-1,-9.136535645E0,2.361206055E0
3.547689942E0,-9.423980713E-1,-9.264450073E0,2.228576660E0
3.552664307E0,-1.060394287E0,-9.327255249E0,2.146408081E0
3.557638672E0,-1.101608276E0,-9.361495972E0,2.069213867E0
3.562613037E0,-1.071609497E0,-9.428817749E0,2.080795288E0
3.567587402E0,-1.085510254E0,-9.488403320E0,2.158889771E0
3.572561768E0,-1.080398560E0,-9.494567871E0,2.232498169E0
3.577536133E0,-1.097137451E0,-9.491180420E0,2.323593140E0
3.582510498E0,-1.032333374E0,-9.478332520E0,2.376434326E0
3.587484863E0,-9.852600098E-1,-9.485885620E0,2.398147583E0
3.592459229E0,-1.063735962E0,-9.510482788E0,2.356201172E0
3.597433594E0,-1.120452881E0,-9.498870850E0,2.342437744E0
3.602407959E0,-1.169143677E0,-9.477142334E0,2.251770020E0
3.607382324E0,-1.248336792E0,-9.431396484E0,2.197937012E0
3.612356690E0,-1.316635132E0,-9.415451050E0,2.193359375E0
3.617331055E0,-1.307403564E0,-9.368865967E0,2.106445312E0
3.622305420E0,-1.360763550E0,-9.366744995E0,2.165832520E0
3.627279785E0,-1.347442627E0,-9.352584839E0,2.174118042E0
3.632254151E0,-1.341873169E0,-9.380889893E0,2.157241821E0
3.637228516E0,-1.242004395E0,-9.374847412E0,2.154052734E0
3.642202881E0,-1.203247070E0,-9.392929077E0,2.213470459E0
3.647177246E0,-1.196166992E0,-9.441757202E0,2.246231079E0
3.652151611E0,-1.181991577E0,-9.452087402E0,2.230255127E0
3.657125977E0,-1.126052856E0,-9.481948853E0,2.237213135E0
3.662100342E0,-1.180282593E0,-9.516342163E0,2.233749390E0
3.667074707E0,-1.283081055E0,-9.559951782E0,2.196609497E0
3.672049072E0,-1.288299561E0,-9.605178833E0,2.171279907E0
3.677023438E0,-1.267913818E0,-9.642837524E0,2.166137695E0
3.681997803E0,-1.254074097E0,-9.638763428E0,2.185867310E0
3.686972168E0,-1.272445679E0,-9.660156250E0,2.224945068E0
3.691946533E0,-1.278198242E0,-9.668823242E0,2.264587402E0
3.696920899E0,-1.277420044E0,-9.654754639E0,2.274139404E0
3.701895264E0,-1.290634155E0,-9.626022339E0,2.253997803E0
3.706869629E0,-1.362655640E0,-9.576217651E0,2.190856934E0
3.711843994E0,-1.471588135E0,-9.542922974E0,2.126312256E0
3.716818360E0,-1.545837402E0,-9.534408569E0,2.072082520E0
3.721792725E0,-1.547134399E0,-9.520935059E0,2.038864136E0
3.726767090E0,-1.539993286E0,-9.505035400E0,2.046005249E0
3.731741455E0,-1.563140869E0,-9.488937378E0,2.091720581E0
3.736715820E0,-1.556488037E0,-9.467468262E0,2.150741577E0
3.741690186E0,-1.538879395E0,-9.457672119E0,2.215515137E0
3.746664551E0,-1.522003174E0,-9.477645874E0,2.268844604E0
3.751638916E0,-1.514160156E0,-9.495178223E0,2.301849365E0
3.756613281E0,-1.479965210E0,-9.485031128E0,2.308944702E0
3.761587647E0,-1.478546143E0,-9.480957031E0,2.277069092E0
3.766562012E0,-1.458770752E0,-9.501327515E0,2.220382690E0
3.771536377E0,-1.431838989E0,-9.552368164E0,2.201629639E0
3.776510742E0,-1.414947510E0,-9.588302612E0,2.143203735E0
3.781485108E0,-1.402130127E0,-9.621841431E0,2.091064453E0
3.786459473E0,-1.420562744E0,-9.645996094E0,2.050537109E0
3.791433838E0,-1.407165527E0,-9.644897461E0,2.009185791E0
3.796408203E0,-1.391876221E0,-9.672500610E0,1.997833252E0
3.801382569E0,-1.315261841E0,-9.704208374E0,1.999374390E0
3.806356934E0,-1.316040039E0,-9.669952393E0,2.004119873E0
3.811331299E0,-1.299911499E0,-9.677658081E0,1.999633789E0
3.816305664E0,-1.297348022E0,-9.643951416E0,1.999374390E0
3.821280029E0,-1.320297241E0,-9.583679199E0,1.971893311E0
3.826254395E0,-1.287033081E0,-9.555328369E0,1.997375488E0
3.831228760E0,-1.166854858E0,-9.503311157E0,1.895156860E0
3.836203125E0,-1.260360718E0,-9.452041626E0,2.043426514E0
3.841177490E0,-1.318435669E0,-9.419967651E0,2.169876099E0
3.846151856E0,-1.390640259E0,-9.380691528E0,2.224334717E0
3.851126221E0,-1.472427368E0,-9.387512207E0,2.254913330E0
3.856100586E0,-1.501159668E0,-9.369201660E0,2.236923218E0
3.861074951E0,-1.494461060E0,-9.364151001E0,2.235031128E0
3.866049317E0,-1.522323608E0,-9.410614014E0,2.163406372E0
3.871023682E0,-1.542037964E0,-9.451278687E0,2.132232666E0
3.875998047E0,-1.570068359E0,-9.502349854E0,2.121215820E0
3.880972412E0,-1.557693481E0,-9.561218262E0,2.149887085E0
3.885946777E0,-1.552688599E0,-9.598327637E0,2.172470093E0
3.890921143E0,-1.573364258E0,-9.619964600E0,2.196807861E0
3.895895508E0,-1.599349976E0,-9.633041382E0,2.208435059E0
3.900869873E0,-1.609619141E0,-9.638229370E0,2.180358887E0
3.905844238E0,-1.616928101E0,-9.624572754E0,2.123214722E0
3.910818604E0,-1.668594360E0,-9.615753174E0,2.050476074E0
3.915792969E0,-1.722564697E0,-9.627914429E0,1.973587036E0
3.920767334E0,-1.745727539E0,-9.612274170E0,1.885955811E0
3.925741699E0,-1.775451660E0,-9.609069824E0,1.795196533E0
3.930716065E0,-1.791427612E0,-9.606262207E0,1.715805054E0
3.935690430E0,-1.760101318E0,-9.623428345E0,1.658630371E0
3.940664795E0,-1.693618774E0,-9.651504517E0,1.610305786E0
3.945639160E0,-1.610153198E0,-9.671936035E0,1.586883545E0
3.950613526E0,-1.563751221E0,-9.700134277E0,1.588333130E0
3.955587891E0,-1.519882202E0,-9.728591919E0,1.583221436E0
3.960562256E0,-1.459655762E0,-9.737106323E0,1.619674683E0
3.965536621E0,-1.416885376E0,-9.741470337E0,1.697937012E0
3.970510986E0,-1.376159668E0,-9.740463257E0,1.837020874E0
3.975485352E0,-1.401504517E0,-9.697387695E0,2.013488770E0
3.980459717E0,-1.419906616E0,-9.660324097E0,2.179153442E0
3.985434082E0,-1.386947632E0,-9.621612549E0,2.369354248E0
3.990408447E0,-1.394485474E0,-9.560104370E0,2.560897827E0
3.995382813E0,-1.420486450E0,-9.503173828E0,2.727081299E0
4.000357178E0,-1.485427856E0,-9.401535034E0,2.894790649E0
4.005331543E0,-1.455245972E0,-9.303100586E0,3.009735107E0
4.010305908E0,-1.461715698E0,-9.185089111E0,3.042175293E0
4.015280274E0,-1.380172729E0,-9.061630249E0,3.025009155E0
4.020254639E0,-1.292144775E0,-8.961196899E0,3.004470825E0
4.025229004E0,-1.235687256E0,-8.848266602E0,2.950195312E0
4.030203369E0,-1.208374023E0,-8.841079712E0,2.928771973E0
4.035177735E0,-1.239456177E0,-8.882369995E0,3.011291504E0
4.040152100E0,-1.268310547E0,-8.942276001E0,3.115539551E0
4.045126465E0,-1.306686401E0,-9.034790039E0,3.124114990E0
4.050100830E0,-1.358581543E0,-9.123535156E0,3.194671631E0
4.055075195E0,-1.436965942E0,-9.219024658E0,3.460647583E0
4.060049561E0,-1.508087158E0,-9.265625000E0,3.786392212E0
4.065023926E0,-1.577972412E0,-9.305984497E0,3.933547974E0
4.069998291E0,-1.689437866E0,-9.337173462E0,3.912338257E0
4.074972656E0,-1.743835449E0,-9.367431641E0,3.742141724E0
4.079947022E0,-1.748367310E0,-9.366561890E0,3.500778198E0
4.084921387E0,-1.725433350E0,-9.325576782E0,3.279815674E0
4.089895752E0,-1.668457031E0,-9.291275024E0,3.069046021E0
4.094870117E0,-1.595169067E0,-9.288009644E0,2.930465698E0
4.099844483E0,-1.545806885E0,-9.289062500E0,2.865325928E0
4.104818848E0,-1.520507812E0,-9.321838379E0,2.795150757E0
4.109793213E0,-1.531021118E0,-9.385406494E0,2.707931519E0
4.114767578E0,-1.524078369E0,-9.477188110E0,2.667541504E0
4.119741944E0,-1.523300171E0,-9.581207275E0,2.670989990E0
4.124716309E0,-1.562286377E0,-9.683105469E0,2.728515625E0
4.129690674E0,-1.611465454E0,-9.752014160E0,2.634445190E0
4.134665039E0,-1.652252197E0,-9.768753052E0,2.394302368E0
4.139639404E0,-1.689041138E0,-9.765319824E0,2.258773804E0
4.144613770E0,-1.741821289E0,-9.769287109E0,2.177825928E0
4.149588135E0,-1.797271729E0,-9.778533936E0,2.113128662E0
4.154562500E0,-1.820739746E0,-9.774978638E0,1.956710815E0
4.159536865E0,-1.815734863E0,-9.765655518E0,1.827926636E0
4.164511231E0,-1.793731689E0,-9.751785278E0,1.714660645E0
4.169485596E0,-1.783859253E0,-9.745422363E0,1.691772461E0
4.174459961E0,-1.791610718E0,-9.733993530E0,1.671371460E0
4.179434326E0,-1.799194336E0,-9.677185059E0,1.702743530E0
4.184408692E0,-1.872909546E0,-9.645584106E0,1.831039429E0
4.189383057E0,-1.974868774E0,-9.583282471E0,1.822738647E0
4.194357422E0,-2.072891235E0,-9.531753540E0,2.111511230E0
4.199331787E0,-2.141372681E0,-9.512344360E0,2.413909912E0
4.204306152E0,-2.199295044E0,-9.500000000E0,2.500701904E0
4.209280518E0,-2.202667236E0,-9.489425659E0,2.515136719E0
4.214254883E0,-2.239486694E0,-9.497879028E0,2.507995605E0
4.219229248E0,-2.247344971E0,-9.513381958E0,2.554351807E0
4.224203613E0,-2.201232910E0,-9.522384644E0,2.555130005E0
4.229177979E0,-2.172409058E0,-9.547164917E0,2.564834595E0
4.234152344E0,-2.104446411E0,-9.545211792E0,2.545913696E0
4.239126709E0,-2.060333252E0,-9.519393921E0,2.543258667E0
4.244101074E0,-1.987701416E0,-9.503799438E0,2.551635742E0
4.249075440E0,-1.962722778E0,-9.487747192E0,2.561279297E0
4.254049805E0,-1.940872192E0,-9.430068970E0,2.613998413E0
4.259024170E0,-1.933288574E0,-9.407135010E0,2.609832764E0
4.263998535E0,-1.903976440E0,-9.410644531E0,2.501724243E0
4.268972901E0,-1.881546021E0,-9.378662109E0,2.513626099E0
4.273947266E0,-1.911590576E0,-9.355102539E0,2.545135498E0
4.278921631E0,-1.978622437E0,-9.357116699E0,2.545883179E0
4.283895996E0,-2.048736572E0,-9.372772217E0,2.533218384E0
4.288870361E0,-2.122283936E0,-9.380081177E0,2.330841064E0
4.293844727E0,-2.231369019E0,-9.383178711E0,2.284149170E0
4.298819092E0,-2.322280884E0,-9.401641846E0,2.508163452E0
4.303793457E0,-2.318389893E0,-9.436370850E0,2.498519897E0
4.308767822E0,-2.267349243E0,-9.471710205E0,2.348388672E0
4.313742188E0,-2.208786011E0,-9.491012573E0,2.217788696E0
4.318716553E0,-2.163406372E0,-9.512725830E0,2.146301270E0
4.323690918E0,-2.086471558E0,-9.540618896E0,2.064514160E0
4.328665283E0,-1.964675903E0,-9.557266235E0,2.004287720E0
4.333639649E0,-1.869812012E0,-9.576705933E0,1.933258057E0
4.338614014E0,-1.794418335E0,-9.576553345E0,1.978195190E0
4.343588379E0,-1.759048462E0,-9.582580566E0,2.086975098E0
4.348562744E0,-1.744308472E0,-9.540863037E0,2.198898315E0
4.353537110E0,-1.795486450E0,-9.476608276E0,2.295074463E0
4.358511475E0,-1.876113892E0,-9.414581299E0,2.308212280E0
4.363485840E0,-1.931350708E0,-9.346755981E0,2.351562500E0
4.368460205E0,-2.007354736E0,-9.291442871E0,2.438476562E0
4.373434570E0,-2.067565918E0,-9.221466064E0,2.458328247E0
4.378408936E0,-2.102951050E0,-9.136230469E0,2.597473145E0
4.383383301E0,-2.068038940E0,-9.048004150E0,2.693069458E0
4.388357666E0,-2.122283936E0,-8.965270996E0,2.627029419E0
4.393332031E0,-2.110824585E0,-8.907882690E0,2.497650146E0
4.398306397E0,-2.157333374E0,-8.917755127E0,2.509490967E0
4.403280762E0,-2.222503662E0,-8.925399780E0,2.582443237E0
4.408255127E0,-2.260955811E0,-8.915252686E0,2.748672485E0
4.413229492E0,-2.306884766E0,-8.904556274E0,2.798385620E0
4.418203858E0,-2.322280884E0,-8.908462524E0,2.911727905E0
4.423178223E0,-2.275436401E0,-8.935775757E0,2.991180420E0
4.428152588E0,-2.234695435E0,-8.942642212E0,2.989410400E0
4.433126953E0,-2.208084106E0,-8.938888550E0,2.890365601E0
4.438101319E0,-2.150451660E0,-8.923751831E0,2.814682007E0
4.443075684E0,-2.086608887E0,-8.890884399E0,2.846069336E0
4.448050049E0,-2.077590942E0,-8.889144897E0,2.775604248E0
4.453024414E0,-1.999877930E0,-8.931625366E0,2.533737183E0
4.457998779E0,-1.929779053E0,-8.966323853E0,2.355468750E0
4.462973145E0,-1.928192139E0,-8.999618530E0,2.211471558E0
4.467947510E0,-1.949569702E0,-9.012191772E0,2.234100342E0
4.472921875E0,-1.965362549E0,-9.038269043E0,2.285934448E0
4.477896240E0,-1.997299194E0,-9.065353394E0,2.327682495E0
4.482870606E0,-2.034729004E0,-9.099472046E0,2.335159302E0
4.487844971E0,-2.076873779E0,-9.121063232E0,2.319320679E0
4.492819336E0,-2.140914917E0,-9.112274170E0,2.332717896E0
4.497793701E0,-2.197494507E0,-9.112762451E0,2.321426392E0
4.502768067E0,-2.235824585E0,-9.110900879E0,2.236740112E0
4.507742432E0,-2.254333496E0,-9.101943970E0,2.186981201E0
4.512716797E0,-2.248443604E0,-9.065658569E0,2.216171265E0
4.517691162E0,-2.294830322E0,-9.066452026E0,2.321426392E0
4.522665527E0,-2.349975586E0,-9.101089478E0,2.442031860E0
4.527639893E0,-2.421234131E0,-9.094070435E0,2.581985474E0
4.532614258E0,-2.469161987E0,-9.068176270E0,2.673751831E0
4.537588623E0,-2.407867432E0,-9.074707031E0,2.698532104E0
4.542562988E0,-2.391067505E0,-9.097671509E0,2.727218628E0
4.547537354E0,-2.380187988E0,-9.118011475E0,2.712783813E0
4.552511719E0,-2.383102417E0,-9.105133057E0,2.740539551E0
4.557486084E0,-2.363494873E0,-9.099090576E0,2.794937134E0
4.562460449E0,-2.288803101E0,-9.085037231E0,2.844482422E0
4.567434815E0,-2.229110718E0,-9.021011353E0,2.912338257E0
4.572409180E0,-2.102951050E0,-8.957199097E0,2.899093628E0
4.577383545E0,-2.049911499E0,-8.924224854E0,2.884933472E0
4.582357910E0,-1.955032349E0,-8.864257812E0,2.820999146E0
4.587332276E0,-1.837524414E0,-8.825408936E0,2.761520386E0
4.592306641E0,-1.753021240E0,-8.787429810E0,2.766998291E0
4.597281006E0,-1.687988281E0,-8.730575562E0,2.729385376E0
4.602255371E0,-1.548126221E0,-8.727645874E0,2.741271973E0
4.607229736E0,-1.446502686E0,-8.793395996E0,2.726089478E0
4.612204102E0,-1.372955322E0,-8.905197144E0,2.726303101E0
4.617178467E0,-1.395690918E0,-9.036773682E0,2.780136108E0
4.622152832E0,-1.467147827E0,-9.177398682E0,2.800979614E0
4.627127197E0,-1.518783569E0,-9.352401733E0,2.816711426E0
4.632101563E0,-1.516647339E0,-9.473022461E0,2.828201294E0
4.637075928E0,-1.505371094E0,-9.567687988E0,2.808502197E0
4.642050293E0,-1.505371094E0,-9.647659302E0,2.731384277E0
4.647024658E0,-1.521026611E0,-9.737182617E0,2.671173096E0
4.651999024E0,-1.557159424E0,-9.895706177E0,2.593597412E0
4.656973389E0,-1.572586060E0,-1.010821533E1,2.466171265E0
4.661947754E0,-1.585998535E0,-1.029626465E1,2.318252563E0
4.666922119E0,-1.621658325E0,-1.043580627E1,2.122726440E0
4.671896485E0,-1.634262085E0,-1.050578308E1,1.908187866E0
4.676870850E0,-1.621780396E0,-1.054124451E1,1.785629272E0
4.681845215E0,-1.653244019E0,-1.052380371E1,1.835617065E0
4.686819580E0,-1.685897827E0,-1.053015137E1,1.529037476E0
4.691793945E0,-1.662094116E0,-1.042340088E1,1.430191040E0
4.696768311E0,-1.638580322E0,-1.025848389E1,1.565658569E0
4.701742676E0,-1.627975464E0,-1.011872864E1,1.640594482E0
4.706717041E0,-1.640457153E0,-9.977920532E0,1.809020996E0
4.711691406E0,-1.715805054E0,-9.809005737E0,2.031311035E0
4.716665772E0,-1.797149658E0,-9.638320923E0,2.256210327E0
4.721640137E0,-1.869476318E0,-9.415863037E0,2.458724976E0
4.726614502E0,-1.950485229E0,-9.191726685E0,2.641159058E0
4.731588867E0,-1.968856812E0,-8.995330811E0,2.789764404E0
4.736563233E0,-1.952850342E0,-8.887664795E0,2.839996338E0
4.741537598E0,-1.922286987E0,-8.830749512E0,2.785736084E0
4.746511963E0,-1.892608643E0,-8.817077637E0,2.701644897E0
4.751486328E0,-1.826583862E0,-8.818710327E0,2.540313721E0
4.756460694E0,-1.797805786E0,-8.835235596E0,2.446273804E0
4.761435059E0,-1.772933960E0,-8.868789673E0,2.443511963E0
4.766409424E0,-1.700561523E0,-8.825073242E0,2.264114380E0
4.771383789E0,-1.608093262E0,-8.802658081E0,2.040283203E0
4.776358154E0,-1.533889771E0,-8.817306519E0,1.801345825E0
4.781332520E0,-1.537658691E0,-8.888687134E0,1.506927490E0
4.786306885E0,-1.592010498E0,-9.014297485E0,1.260910034E0
4.791281250E0,-1.643844604E0,-9.231994629E0,9.469146729E-1
4.796255615E0,-1.685302734E0,-9.506958008E0,6.318817139E-1
4.801229981E0,-1.762512207E0,-9.800613403E0,3.433380127E-1
4.806204346E0,-1.761764526E0,-1.009387207E1,1.839294434E-1
4.811178711E0,-1.802947998E0,-1.041075134E1,2.131500244E-1
4.816153076E0,-1.873062134E0,-1.068470764E1,3.220367432E-1
4.821127442E0,-2.094085693E0,-1.092944336E1,4.685668945E-1
4.826101807E0,-2.329208374E0,-1.111528015E1,4.927978516E-1
4.831076172E0,-2.586212158E0,-1.118927002E1,3.884124756E-1
4.836050537E0,-2.929901123E0,-1.123004150E1,1.581268311E-1
4.841024902E0,-3.247039795E0,-1.124047852E1,-7.011413574E-2
4.845999268E0,-3.442764282E0,-1.117485046E1,-1.888427734E-1
4.850973633E0,-3.568206787E0,-1.108599854E1,-1.734161377E-1
4.855947998E0,-3.594680786E0,-1.097215271E1,6.243896484E-2
4.860922363E0,-3.421218872E0,-1.085292053E1,7.014923096E-1
4.865896729E0,-3.049514771E0,-1.067793274E1,7.198791504E-1
4.870871094E0,-2.640777588E0,-1.040396118E1,1.620483398E-1
4.875845459E0,-2.373596191E0,-1.015582275E1,-5.133056641E-2
4.880819824E0,-2.239074707E0,-1.007043457E1,-3.254699707E-2
4.885794190E0,-2.167953491E0,-1.010316467E1,6.744384766E-2
4.890768555E0,-2.189147949E0,-1.017729187E1,1.469116211E-1
4.895742920E0,-2.197814941E0,-1.020011902E1,2.161712646E-1
4.900717285E0,-2.181976318E0,-1.022990417E1,3.005065918E-1
4.905691651E0,-2.246261597E0,-1.024754333E1,3.666076660E-1
4.910666016E0,-2.310531616E0,-1.023432922E1,4.603729248E-1
4.915640381E0,-2.116714478E0,-1.018685913E1,4.085845947E-1
4.920614746E0,-1.837463379E0,-1.013494873E1,4.901428223E-1
4.925589111E0,-1.818374634E0,-1.018244934E1,9.130554199E-1
4.930563477E0,-1.543838501E0,-1.014221191E1,9.508972168E-1
4.935537842E0,-1.370178223E0,-1.016174316E1,7.174530029E-1
4.940512207E0,-1.285751343E0,-1.014285278E1,4.999694824E-1
4.945486572E0,-1.299285889E0,-1.011386108E1,4.075317383E-1
4.950460938E0,-1.630752563E0,-1.009356689E1,5.837249756E-1
4.955435303E0,-1.784286499E0,-9.992889404E0,1.096206665E0
4.960409668E0,-1.987777710E0,-9.894378662E0,1.739608765E0
4.965384033E0,-2.219650269E0,-9.875366211E0,2.089736938E0
4.970358399E0,-2.176315308E0,-9.874755859E0,2.256927490E0
4.975332764E0,-2.107971191E0,-9.975250244E0,2.259597778E0
4.980307129E0,-1.956985474E0,-1.012400818E1,2.200714111E0
4.985281494E0,-1.757812500E0,-1.027163696E1,2.093170166E0
4.990255860E0,-1.524749756E0,-1.038131714E1,1.767593384E0
4.995230225E0,-1.393814087E0,-1.048637390E1,1.431640625E0
5.000204590E0,-1.204696655E0,-1.054385376E1,1.084976196E0
5.005178955E0,-1.036849976E0,-1.063400269E1,7.618255615E-1
5.010153320E0,-8.853149414E-1,-1.072387695E1,5.154113770E-1
5.015127686E0,-7.798461914E-1,-1.075991821E1,2.625427246E-1
5.020102051E0,-7.240600586E-1,-1.077851868E1,3.941345215E-2
5.025076416E0,-7.312316895E-1,-1.075540161E1,-1.131134033E-1
5.030050781E0,-7.612304688E-1,-1.069244385E1,-1.977233887E-1
5.035025147E0,-7.887115479E-1,-1.059521484E1,-2.155456543E-1
5.039999512E0,-8.747100830E-1,-1.047041321E1,-1.383514404E-1
5.044973877E0,-9.618072510E-1,-1.036244202E1,7.589721680E-2
5.049948242E0,-1.025909424E0,-1.023629761E1,4.361267090E-1
5.054922608E0,-1.028549194E0,-1.012817383E1,9.011230469E-1
5.059896973E0,-9.909057617E-1,-1.007826233E1,1.399124146E0
5.064871338E0,-9.313964844E-1,-1.002565002E1,1.893432617E0
5.069845703E0,-8.249664307E-1,-9.954803467E0,2.349349976E0
5.074820069E0,-6.463470459E-1,-9.913116455E0,2.693466187E0
5.079794434E0,-5.313568115E-1,-9.948181152E0,2.974578857E0
5.084768799E0,-3.856658936E-1,-1.000016785E1,3.126235962E0
5.089743164E0,3.016510010E-1,-9.814041138E0,3.831619263E0
5.094717529E0,9.682159424E-1,-9.549148560E0,4.528091431E0
5.099691895E0,9.398651123E-1,-9.602035522E0,4.282897949E0
5.104666260E0,5.760803223E-1,-9.748260498E0,3.358581543E0
5.109640625E0,3.332061768E-1,-9.808288574E0,2.547805786E0
5.114614990E0,2.382812500E-1,-9.927993774E0,2.208068848E0
5.119589356E0,1.968994141E-1,-1.000845337E1,1.797378540E0
5.124563721E0,3.316192627E-1,-9.926116943E0,1.274551392E0
5.129538086E0,3.990631104E-1,-9.821136475E0,6.553192139E-1
5.134512451E0,3.024749756E-1,-9.762268066E0,1.465148926E-1
5.139486817E0,1.206970215E-2,-9.744705200E0,-1.789855957E-2
5.144461182E0,-1.483764648E-1,-9.727493286E0,-3.222656250E-2
5.149435547E0,-2.657623291E-1,-9.522857666E0,2.308197021E-1
5.154409912E0,-2.981262207E-1,-9.411254883E0,6.548767090E-1
5.159384277E0,-2.861785889E-1,-9.262207031E0,1.101348877E0
5.164358643E0,-2.918395996E-1,-9.118270874E0,1.552612305E0
5.169333008E0,-2.795410156E-1,-8.949722290E0,2.035522461E0
5.174307373E0,-2.984619141E-1,-8.859436035E0,2.447525024E0
5.179281738E0,-2.956695557E-1,-8.772598267E0,2.816604614E0
5.184256104E0,-2.849578857E-1,-8.687652588E0,3.117324829E0
5.189230469E0,-2.247467041E-1,-8.605880737E0,3.311340332E0
5.194204834E0,-1.898651123E-1,-8.568237305E0,3.415908813E0
5.199179199E0,-1.850738525E-1,-8.548507690E0,3.432144165E0
5.204153565E0,-1.092987061E-1,-8.526977539E0,3.392883301E0
5.209127930E0,-9.890747070E-2,-8.484237671E0,3.267547607E0
5.214102295E0,-1.724395752E-1,-8.453247070E0,3.112884521E0
5.219076660E0,-2.431945801E-1,-8.461639404E0,2.991348267E0
5.224051026E0,-2.272644043E-1,-8.456069946E0,2.845413208E0
5.229025391E0,-1.486206055E-1,-8.438491821E0,2.748382568E0
5.233999756E0,-1.030426025E-1,-8.453063965E0,2.683349609E0
5.238974121E0,-3.843688965E-2,-8.441146851E0,2.638549805E0
5.243948486E0,1.750793457E-1,-8.376922607E0,2.676300049E0
5.248922852E0,3.791656494E-1,-8.368408203E0,2.641815186E0
5.253897217E0,4.107818604E-1,-8.381835938E0,2.419250488E0
5.258871582E0,4.567718506E-1,-8.347137451E0,2.134948730E0
5.263845947E0,5.636138916E-1,-8.280410767E0,1.877502441E0
5.268820313E0,6.847381592E-1,-8.239944458E0,1.667770386E0
5.273794678E0,8.492889404E-1,-8.136489868E0,1.609512329E0
5.278769043E0,9.851837158E-1,-8.027084351E0,1.661331177E0
5.283743408E0,1.016113281E0,-7.917709351E0,1.804779053E0
5.288717774E0,1.030044556E0,-7.726501465E0,1.862640381E0
5.293692139E0,8.973693848E-1,-7.459869385E0,1.869918823E0
5.298666504E0,9.129943848E-1,-7.186309814E0,1.982070923E0
5.303640869E0,9.355773926E-1,-6.914031982E0,2.106521606E0
5.308615235E0,9.376983643E-1,-6.748519897E0,2.260177612E0
5.313589600E0,8.508300781E-1,-6.560928345E0,2.432846069E0
5.318563965E0,7.597351074E-1,-6.447357178E0,2.709960938E0
5.323538330E0,7.253112793E-1,-6.330047607E0,2.926422119E0
5.328512695E0,6.118469238E-1,-6.315277100E0,3.124237061E0
5.333487061E0,5.778656006E-1,-6.264404297E0,3.324127197E0
5.338461426E0,5.592041016E-1,-6.229904175E0,3.488235474E0
5.343435791E0,6.330718994E-1,-6.193313599E0,3.612564087E0
5.348410156E0,7.455749512E-1,-6.160339355E0,3.756195068E0
5.353384522E0,9.239654541E-1,-6.147888184E0,3.914855957E0
5.358358887E0,1.029663086E0,-6.193161011E0,4.090454102E0
5.363333252E0,1.094161987E0,-6.224212646E0,4.222686768E0
5.368307617E0,1.108551025E0,-6.282028198E0,4.363174438E0
5.373281983E0,1.146453857E0,-6.327774048E0,4.431365967E0
5.378256348E0,1.156082153E0,-6.347442627E0,4.394577026E0
5.383230713E0,1.191421509E0,-6.380157471E0,4.291503906E0
5.388205078E0,1.226394653E0,-6.440017700E0,4.063186646E0
5.393179444E0,1.221191406E0,-6.478057861E0,3.771423340E0
5.398153809E0,1.198455811E0,-6.489410400E0,3.458618164E0
5.403128174E0,1.203994751E0,-6.486648560E0,3.062164307E0
5.408102539E0,1.282577515E0,-6.417770386E0,2.638748169E0
5.413076904E0,1.390106201E0,-6.303985596E0,2.237213135E0
5.418051270E0,1.484069824E0,-6.209747314E0,1.879699707E0
5.423025635E0,1.535903931E0,-6.087234497E0,1.651138306E0
5.428000000E0,1.587387085E0,-5.929275513E0,1.498779297E0
5.432974365E0,1.734558105E0,-5.759292603E0,1.397232056E0
5.437948731E0,1.939361572E0,-5.587570190E0,1.395690918E0
5.442923096E0,2.095748901E0,-5.412918091E0,1.438385010E0
5.447897461E0,2.206436157E0,-5.216339111E0,1.489288330E0
5.452871826E0,2.361358643E0,-5.008590698E0,1.574829102E0
5.457846192E0,2.488998413E0,-4.855560303E0,1.663925171E0
5.462820557E0,2.524536133E0,-4.750503540E0,1.797515869E0
5.467794922E0,2.571289062E0,-4.667373657E0,1.975326538E0
5.472769287E0,2.353118896E0,-4.659210205E0,2.411651611E0
5.477743652E0,2.171371460E0,-4.718246460E0,2.960647583E0
5.482718018E0,2.223129272E0,-4.761657715E0,3.652755737E0
5.487692383E0,2.288513184E0,-4.806640625E0,4.415283203E0
5.492666748E0,1.862792969E0,-5.013366699E0,4.393341064E0
5.497641113E0,1.634857178E0,-5.289749146E0,4.345275879E0
5.502615479E0,1.646392822E0,-5.647445679E0,4.221069336E0
5.507589844E0,1.662170410E0,-6.079696655E0,3.989547729E0
5.512564209E0,1.643814087E0,-6.464355469E0,3.735076904E0
5.517538574E0,1.618713379E0,-6.818298340E0,3.572479248E0
5.522512940E0,1.468261719E0,-7.190322876E0,3.312789917E0
5.527487305E0,1.370147705E0,-7.530075073E0,2.828750610E0
5.532461670E0,1.262893677E0,-7.777954102E0,2.310348511E0
5.537436035E0,9.575958252E-1,-7.991958618E0,1.897186279E0
5.542410401E0,6.947784424E-1,-8.105972290E0,1.759185791E0
5.547384766E0,5.195922852E-1,-8.048492432E0,1.487777710E0
5.552359131E0,3.743133545E-1,-7.956924438E0,9.330139160E-1
5.557333496E0,1.576843262E-1,-7.791229248E0,2.874755859E-1
5.562307861E0,1.367645264E-1,-7.379852295E0,-3.872375488E-1
5.567282227E0,1.325531006E-1,-6.920761108E0,-8.003387451E-1
5.572256592E0,1.922454834E-1,-6.492721558E0,-7.672882080E-1
5.577230957E0,2.929687500E-1,-6.162506104E0,-4.622650146E-1
5.582205322E0,3.961944580E-1,-5.978744507E0,-2.033538818E-1
5.587179688E0,5.528564453E-1,-5.853775024E0,7.693481445E-2
5.592154053E0,7.208099365E-1,-5.777084351E0,8.755035400E-1
5.597128418E0,1.229858398E0,-5.882873535E0,2.171218872E0
5.602102783E0,1.877502441E0,-6.209579468E0,3.506484985E0
5.607077149E0,2.433044434E0,-6.770736694E0,4.628494263E0
5.612051514E0,2.983779907E0,-7.678237915E0,5.352523804E0
5.617025879E0,3.208557129E0,-9.093170166E0,5.380157471E0
5.622000244E0,3.310821533E0,-1.093992615E1,4.680694580E0
5.626974610E0,3.602416992E0,-1.289019775E1,4.031692505E0
5.631948975E0,2.797485352E0,-1.460835266E1,4.288665771E0
5.636923340E0,-3.940734863E-1,-1.644842529E1,5.242599487E0
5.641897705E0,-4.285064697E0,-1.846347046E1,5.851196289E0
5.646872070E0,-7.371994019E0,-2.012380981E1,5.645874023E0
5.651846436E0,-9.408615112E0,-2.125189209E1,5.755355835E0
5.656820801E0,-1.113204956E1,-2.214907837E1,7.087677002E0
5.661795166E0,-1.132014465E1,-2.237698364E1,7.758483887E0
5.666769531E0,-1.033395386E1,-2.153274536E1,7.580963135E0
5.671743897E0,-8.996810913E0,-1.927058411E1,8.848114014E0
5.676718262E0,-6.695465088E0,-1.596841431E1,1.134265137E1
5.681692627E0,-3.895446777E0,-1.294371033E1,1.119456482E1
5.686666992E0,-1.151260376E0,-1.127537537E1,8.551055908E0
5.691641358E0,4.875946045E-1,-1.123544312E1,6.024627686E0
5.696615723E0,1.462265015E0,-1.231098938E1,4.891464233E0
5.701590088E0,2.915191650E0,-1.365248108E1,4.662719727E0
5.706564453E0,4.619781494E0,-1.510606384E1,3.795761108E0
5.711538819E0,5.508255005E0,-1.677529907E1,2.343338013E0
5.716513184E0,5.063720703E0,-1.844499207E1,3.020629883E-1
5.721487549E0,3.611694336E0,-1.954377747E1,-1.830917358E0
5.726461914E0,1.487442017E0,-1.932156372E1,-3.947891235E0
5.731436279E0,-8.039245605E-1,-1.782672119E1,-4.759216309E0
5.736410645E0,-3.049438477E0,-1.654522705E1,-3.696182251E0
5.741385010E0,-4.672622681E0,-1.584355164E1,-2.065551758E0
5.746359375E0,-5.356430054E0,-1.549894714E1,-5.482940674E-1
5.751333740E0,-4.981796265E0,-1.519801331E1,1.574081421E0
5.756308106E0,-4.372711182E0,-1.468132019E1,4.184677124E0
5.761282471E0,-3.853057861E0,-1.391308594E1,6.533432007E0
5.766256836E0,-3.651840210E0,-1.315621948E1,8.332916260E0
5.771231201E0,-3.863311768E0,-1.254902649E1,9.748474121E0
5.776205567E0,-4.221893311E0,-1.208940125E1,1.070181274E1
5.781179932E0,-4.463409424E0,-1.175617981E1,1.083525085E1
5.786154297E0,-4.483139038E0,-1.149551392E1,1.029008484E1
5.791128662E0,-4.279388428E0,-1.134648132E1,9.394210815E0
5.796103027E0,-4.076232910E0,-1.132164001E1,8.497528076E0
5.801077393E0,-3.876312256E0,-1.130815125E1,7.721145630E0
5.806051758E0,-3.637237549E0,-1.119064331E1,7.075317383E0
5.811026123E0,-3.274734497E0,-1.091539001E1,6.457534790E0
5.816000488E0,-2.799942017E0,-1.055201721E1,5.672393799E0
5.820974854E0,-2.447052002E0,-1.018505859E1,4.834533691E0
5.825949219E0,-2.044586182E0,-9.834671021E0,4.204864502E0
5.830923584E0,-1.687225342E0,-9.558990479E0,3.712799072E0
5.835897949E0,-1.335678101E0,-9.304489136E0,3.345382690E0
5.840872315E0,-9.530029297E-1,-9.100341797E0,3.031387329E0
5.845846680E0,-5.703582764E-1,-8.997299194E0,2.794586182E0
5.850821045E0,-2.321166992E-1,-8.997619629E0,2.614135742E0
5.855795410E0,1.050567627E-1,-8.997314453E0,2.467269897E0
5.860769776E0,2.488708496E-1,-8.948547363E0,2.299850464E0
5.865744141E0,3.161010742E-1,-8.857177734E0,2.168350220E0
5.870718506E0,2.725067139E-1,-8.724853516E0,2.017669678E0
5.875692871E0,1.092834473E-1,-8.565704346E0,1.873855591E0
5.880667236E0,-6.956481934E-2,-8.401580811E0,1.974349976E0
5.885641602E0,-1.548614502E-1,-8.175460815E0,2.113174438E0
5.890615967E0,-2.004699707E-1,-7.975402832E0,2.156738281E0
5.895590332E0,-2.624511719E-1,-7.769927979E0,2.097625732E0
5.900564697E0,-1.779479980E-1,-7.708572388E0,2.084960938E0
5.905539063E0,-1.206207275E-1,-7.772094727E0,1.820358276E0
5.910513428E0,6.167602539E-2,-7.798385620E0,1.794662476E0
5.915487793E0,2.304992676E-1,-7.868759155E0,1.869400024E0
5.920462158E0,4.158325195E-1,-7.921463013E0,2.012435913E0
5.925436524E0,4.816589355E-1,-7.897384644E0,2.159591675E0
5.930410889E0,5.482330322E-1,-7.820785522E0,2.331314087E0
5.935385254E0,6.214599609E-1,-7.660797119E0,2.502487183E0
5.940359619E0,6.566009521E-1,-7.476348877E0,2.696807861E0
5.945333985E0,6.266632080E-1,-7.303665161E0,2.950500488E0
5.950308350E0,5.427856445E-1,-7.118103027E0,3.195419312E0
5.955282715E0,3.394622803E-1,-6.920074463E0,3.529968262E0
5.960257080E0,7.928466797E-2,-6.743057251E0,3.770538330E0
5.965231445E0,-1.766357422E-1,-6.623062134E0,3.929885864E0
5.970205811E0,-4.022369385E-1,-6.552169800E0,4.085189819E0
5.975180176E0,-6.482086182E-1,-6.542953491E0,4.179046631E0
5.980154541E0,-9.396057129E-1,-6.634628296E0,4.278808594E0
5.985128906E0,-1.154144287E0,-6.766906738E0,4.456130981E0
5.990103272E0,-1.274734497E0,-6.980819702E0,4.633407593E0
5.995077637E0,-1.303527832E0,-7.287841797E0,4.777404785E0
6.000052002E0,-1.192413330E0,-7.612548828E0,4.965469360E0
6.005026367E0,-8.603820801E-1,-7.894378662E0,5.157577515E0
6.010000733E0,-5.933990479E-1,-8.151458740E0,5.242767334E0
6.014975098E0,-3.875732422E-1,-8.339019775E0,5.565383911E0
6.019949463E0,-2.809295654E-1,-8.498046875E0,5.426498413E0
6.024923828E0,-2.038574219E-1,-8.612609863E0,4.903747559E0
6.029898194E0,-6.767272949E-2,-8.516464233E0,4.534713745E0
6.034872559E0,3.607177734E-2,-8.243804932E0,4.262969971E0
6.039846924E0,2.015075684E-1,-7.912506104E0,3.970870972E0
6.044821289E0,3.476257324E-1,-7.524246216E0,3.736892700E0
6.049795654E0,3.849029541E-1,-7.143783569E0,3.576858521E0
6.054770020E0,3.013763428E-1,-6.799179077E0,3.380569458E0
6.059744385E0,3.479461670E-1,-6.513320923E0,3.218750000E0
6.064718750E0,3.584136963E-1,-6.296813965E0,2.971038818E0
6.069693115E0,3.406982422E-1,-6.167800903E0,2.852951050E0
6.074667481E0,2.082519531E-1,-6.151168823E0,2.867324829E0
6.079641846E0,1.818237305E-1,-6.122451782E0,2.936645508E0
6.084616211E0,1.815490723E-1,-6.031311035E0,2.906127930E0
6.089590576E0,3.700714111E-1,-6.042984009E0,2.891891479E0
6.094564942E0,3.547515869E-1,-6.041046143E0,3.193954468E0
6.099539307E0,3.669433594E-1,-6.088577271E0,3.437301636E0
6.104513672E0,3.587188721E-1,-6.174423218E0,3.699295044E0
6.109488037E0,3.982391357E-1,-6.274932861E0,3.838226318E0
6.114462402E0,3.745880127E-1,-6.345657349E0,3.878280640E0
6.119436768E0,2.448577881E-1,-6.409759521E0,4.056716919E0
6.124411133E0,3.788299561E-1,-6.396774292E0,4.080520630E0
6.129385498E0,3.948822021E-1,-6.345260620E0,4.036468506E0
6.134359863E0,3.997955322E-1,-6.238952637E0,3.889389038E0
6.139334229E0,2.673492432E-1,-6.228546143E0,3.704238892E0
6.144308594E0,4.899597168E-2,-6.244766235E0,3.522109985E0
6.149282959E0,-2.542114258E-1,-6.263397217E0,3.490310669E0
6.154257324E0,-4.385833740E-1,-6.287918091E0,3.621887207E0
6.159231690E0,-5.198516846E-1,-6.349594116E0,3.714324951E0
6.164206055E0,-5.327453613E-1,-6.453231812E0,3.685943604E0
6.169180420E0,-6.470336914E-1,-6.635818481E0,3.632858276E0
6.174154785E0,-8.601531982E-1,-6.903350830E0,3.678253174E0
6.179129151E0,-1.162078857E0,-7.303878784E0,3.750595093E0
6.184103516E0,-1.353988647E0,-7.816223145E0,3.831756592E0
6.189077881E0,-1.623977661E0,-8.386764526E0,3.944869995E0
6.194052246E0,-1.938659668E0,-8.909103394E0,4.138137817E0
6.199026611E0,-2.222778320E0,-9.340270996E0,4.229095459E0
6.204000977E0,-2.456954956E0,-9.637863159E0,4.211914062E0
6.208975342E0,-2.454528809E0,-9.747222900E0,4.085281372E0
6.213949707E0,-2.451080322E0,-9.589996338E0,3.912979126E0
6.218924072E0,-2.568740845E0,-9.155136108E0,3.957000732E0
6.223898438E0,-2.264633179E0,-8.528503418E0,3.983810425E0
6.228872803E0,-1.860275269E0,-7.956939697E0,3.797546387E0
6.233847168E0,-1.726074219E0,-7.543411255E0,3.537490845E0
6.238821533E0,-1.606430054E0,-7.296646118E0,3.225585938E0
6.243795899E0,-1.310089111E0,-6.943832397E0,2.996002197E0
6.248770264E0,-8.191375732E-1,-6.403488159E0,3.438186646E0
6.253744629E0,-2.192077637E-1,-5.836853027E0,4.070007324E0
6.258718994E0,4.071807861E-1,-5.292480469E0,4.681518555E0
6.263693360E0,8.362884521E-1,-4.754074097E0,5.316482544E0
6.268667725E0,1.182327271E0,-4.214447021E0,6.199966431E0
6.273642090E0,1.697723389E0,-3.820602417E0,6.411102295E0
6.278616455E0,2.407012939E0,-3.656814575E0,5.948242188E0
6.283590820E0,3.103317261E0,-3.454971313E0,5.291915894E0
6.288565186E0,3.405776978E0,-3.447006226E0,4.337509155E0
6.293539551E0,3.269866943E0,-3.555389404E0,3.690902710E0
6.298513916E0,3.567337036E0,-3.336212158E0,3.656433105E0
6.303488281E0,3.636932373E0,-3.441223145E0,3.648880005E0
6.308462647E0,3.178634644E0,-3.946517944E0,3.495483398E0
6.313437012E0,2.294891357E0,-4.495758057E0,3.390426636E0
6.318411377E0,1.639144897E0,-4.883117676E0,3.240707397E0
6.323385742E0,1.128448486E0,-5.184280396E0,3.254989624E0
6.328360108E0,7.619781494E-1,-5.384689331E0,3.520523071E0
6.333334473E0,3.807983398E-1,-5.562179565E0,3.825683594E0
6.338308838E0,-1.712799072E-1,-5.760192871E0,4.121704102E0
6.343283203E0,-6.326599121E-1,-5.991333008E0,4.378768921E0
6.348257569E0,-6.345214844E-1,-6.288085938E0,4.384155273E0
6.353231934E0,-1.176300049E-1,-6.619522095E0,4.369552612E0
6.358206299E0,3.998413086E-1,-7.187850952E0,4.791503906E0
6.363180664E0,7.070312500E-1,-8.148452759E0,5.375366211E0
6.368155029E0,9.215545654E-1,-9.221603394E0,5.821060181E0
6.373129395E0,9.846801758E-1,-1.017712402E1,6.064056396E0
6.378103760E0,6.672363281E-1,-1.098077393E1,6.165634155E0
6.383078125E0,5.126953125E-3,-1.170620728E1,6.215377808E0
6.388052490E0,-8.041992188E-1,-1.238151550E1,6.310684204E0
6.393026856E0,-1.539199829E0,-1.299810791E1,6.511917114E0
6.398001221E0,-1.797302246E0,-1.365150452E1,6.767639160E0
6.402975586E0,-1.824172974E0,-1.415956116E1,6.877014160E0
6.407949951E0,-1.774185181E0,-1.456089783E1,7.032196045E0
6.412924317E0,-1.262191772E0,-1.488371277E1,7.280288696E0
6.417898682E0,-2.262115479E-1,-1.511003113E1,7.474685669E0
6.422873047E0,9.878692627E-1,-1.528688049E1,7.516433716E0
6.427847412E0,2.051712036E0,-1.558230591E1,7.383331299E0
6.432821777E0,2.804412842E0,-1.596138000E1,6.858963013E0
6.437796143E0,3.090133667E0,-1.646719360E1,6.036163330E0
6.442770508E0,2.649230957E0,-1.687088013E1,5.071075439E0
6.447744873E0,1.700881958E0,-1.714486694E1,4.239318848E0
6.452719238E0,7.304382324E-1,-1.754229736E1,3.662643433E0
6.457693604E0,1.253967285E-1,-1.833451843E1,3.544723511E0
6.462667969E0,-1.605834961E-1,-1.969245911E1,3.608673096E0
6.467642334E0,2.411041260E-1,-2.106915283E1,3.296325684E0
6.472616699E0,8.688964844E-1,-2.122262573E1,2.563293457E0
6.477591065E0,1.206375122E0,-2.009066772E1,1.613204956E0
6.482565430E0,8.526458740E-1,-1.863502502E1,6.951293945E-1
6.487539795E0,3.610534668E-1,-1.720742798E1,-5.076599121E-2
6.492514160E0,4.375457764E-1,-1.588359070E1,-3.412322998E-1
6.497488526E0,7.326202393E-1,-1.464471436E1,-1.033477783E-1
6.502462891E0,7.234039307E-1,-1.372998047E1,2.740173340E-1
6.507437256E0,9.427032471E-1,-1.295870972E1,5.628509521E-1
6.512411621E0,1.362106323E0,-1.231352234E1,9.364929199E-1
6.517385986E0,1.600265503E0,-1.194070435E1,1.552032471E0
6.522360352E0,1.657257080E0,-1.182479858E1,2.521316528E0
6.527334717E0,1.195602417E0,-1.142855835E1,3.809219360E0
6.532309082E0,1.133407593E0,-1.111117554E1,5.273529053E0
6.537283447E0,1.191925049E0,-1.116282654E1,6.442092896E0
6.542257813E0,1.492828369E0,-1.140304565E1,7.229812622E0
6.547232178E0,1.799362183E0,-1.164768982E1,7.561096191E0
6.552206543E0,1.887084961E0,-1.178530884E1,7.293533325E0
6.557180908E0,1.875915527E0,-1.170445251E1,6.296829224E0
6.562155274E0,1.883956909E0,-1.143281555E1,4.625259399E0
6.567129639E0,1.918075562E0,-1.100303650E1,2.706909180E0
6.572104004E0,1.747024536E0,-1.057307434E1,7.715759277E-1
6.577078369E0,1.287094116E0,-1.018988037E1,-1.168716431E0
6.582052735E0,7.755584717E-1,-9.773605347E0,-2.635742188E0
6.587027100E0,2.637176514E-1,-9.306350708E0,-3.097671509E0
6.592001465E0,-1.510925293E-1,-8.825668335E0,-2.460311890E0
6.596975830E0,-3.694763184E-1,-8.302337646E0,-1.083221436E0
6.601950195E0,-5.676574707E-1,-7.745895386E0,4.693450928E-1
6.606924561E0,-7.858276367E-1,-7.259689331E0,2.007781982E0
6.611898926E0,-9.331665039E-1,-6.817687988E0,3.334762573E0
6.616873291E0,-8.938598633E-1,-6.385025024E0,4.343185425E0
6.621847656E0,-6.291198730E-1,-5.953308105E0,5.087448120E0
6.626822022E0,-3.400268555E-1,-5.445724487E0,5.962127686E0
6.631796387E0,-3.087615967E-1,-5.057983398E0,6.667053223E0
6.636770752E0,-3.000030518E-1,-4.660675049E0,6.994445801E0
6.641745117E0,-1.796569824E-1,-4.235504150E0,7.005599976E0
6.646719483E0,-5.210876465E-2,-3.962249756E0,6.863571167E0
6.651693848E0,2.198486328E-1,-3.665710449E0,6.370651245E0
6.656668213E0,4.094238281E-1,-3.557754517E0,5.735504150E0
6.661642578E0,4.414520264E-1,-3.516754150E0,5.031814575E0
6.666616944E0,7.237091064E-1,-3.522644043E0,4.214889526E0
6.671591309E0,8.626556396E-1,-3.514175415E0,3.747924805E0
6.676565674E0,1.119079590E0,-3.524581909E0,3.374267578E0
6.681540039E0,1.572906494E0,-3.590301514E0,3.023849487E0
6.686514404E0,2.199371338E0,-3.677200317E0,2.750122070E0
6.691488770E0,2.814483643E0,-3.755172729E0,2.548492432E0
6.696463135E0,3.315704346E0,-3.828277588E0,2.475708008E0
6.701437500E0,3.790924072E0,-3.918594360E0,2.471832275E0
6.706411865E0,4.226547241E0,-4.091781616E0,2.412963867E0
6.711386231E0,4.580749512E0,-4.269195557E0,2.207092285E0
6.716360596E0,4.695999146E0,-4.392990112E0,1.877105713E0
6.721334961E0,4.626571655E0,-4.461822510E0,1.492980957E0
6.726309326E0,4.475204468E0,-4.474365234E0,1.160781860E0
6.731283692E0,4.246185303E0,-4.472763062E0,8.594207764E-1
6.736258057E0,3.970672607E0,-4.481521606E0,6.111297607E-1
6.741232422E0,3.694427490E0,-4.488876343E0,4.074707031E-1
6.746206787E0,3.419860840E0,-4.523056030E0,2.088928223E-1
6.751181152E0,3.084884644E0,-4.615081787E0,5.838012695E-2
6.756155518E0,2.610290527E0,-4.747833252E0,3.581237793E-2
6.761129883E0,2.014495850E0,-4.915939331E0,1.569061279E-1
6.766104248E0,1.337356567E0,-5.093521118E0,4.362487793E-1
6.771078613E0,6.655883789E-1,-5.245285034E0,7.327117920E-1
6.776052979E0,3.107604980E-1,-5.380325317E0,9.546813965E-1
6.781027344E0,2.295074463E-1,-5.456710815E0,1.191741943E0
6.786001709E0,6.618194580E-1,-5.457397461E0,1.374633789E0
6.790976074E0,1.019851685E0,-5.564926147E0,1.772079468E0
6.795950440E0,9.300079346E-1,-5.726882935E0,2.352783203E0
6.800924805E0,6.843719482E-1,-5.971496582E0,2.791564941E0
6.805899170E0,4.691467285E-1,-6.202545166E0,2.969314575E0
6.810873535E0,1.732177734E-1,-6.370330811E0,3.053619385E0
6.815847901E0,-8.387756348E-2,-6.413543701E0,2.961120605E0
6.820822266E0,-1.091003418E-2,-6.464080811E0,2.713058472E0
6.825796631E0,5.093383789E-2,-6.622741699E0,2.530548096E0
6.830770996E0,4.553222656E-2,-6.894287109E0,2.445129395E0
6.835745361E0,2.389526367E-2,-7.183349609E0,2.477661133E0
6.840719727E0,-6.059265137E-2,-7.506271362E0,2.689239502E0
6.845694092E0,-1.012878418E-1,-7.794540405E0,2.938751221E0
6.850668457E0,-1.728515625E-1,-8.109497070E0,3.415420532E0
6.855642822E0,-1.428222656E-1,-8.321411133E0,3.684143066E0
6.860617188E0,-1.106567383E-1,-8.481430054E0,3.630050659E0
6.865591553E0,3.049621582E-1,-8.698059082E0,3.539505005E0
6.870565918E0,8.241882324E-1,-9.279953003E0,3.249816895E0
6.875540283E0,1.089965820E0,-1.013121033E1,2.306243896E0
6.880514649E0,1.641052246E0,-1.114976501E1,9.916687012E-1
6.885489014E0,1.923919678E0,-1.227093506E1,1.251876831E0
6.890463379E0,2.103561401E0,-1.333280945E1,2.446029663E0
6.895437744E0,1.867385864E0,-1.434638977E1,3.302276611E0
6.900412110E0,8.422546387E-1,-1.561685181E1,4.032333374E0
6.905386475E0,-1.110336304E0,-1.713439941E1,5.439651489E0
6.910360840E0,-3.454025269E0,-1.837728882E1,6.268157959E0
6.915335205E0,-5.202774048E0,-1.895617676E1,7.029510498E0
6.920309570E0,-6.666687012E0,-1.901390076E1,7.977081299E0
6.925283936E0,-7.603912354E0,-1.853742981E1,8.708694458E0
6.930258301E0,-6.923583984E0,-1.700372314E1,9.515914917E0
6.935232666E0,-5.324188232E0,-1.492681885E1,1.030880737E1
6.940207031E0,-3.934143066E0,-1.301129150E1,1.062220764E1
6.945181397E0,-2.297561646E0,-1.144477844E1,1.078239441E1
6.950155762E0,2.029418945E-1,-1.028930664E1,1.110124207E1
6.955130127E0,3.183380127E0,-9.922943115E0,1.132092285E1
6.960104492E0,6.114730835E0,-1.080746460E1,1.151290894E1
6.965078858E0,8.223846436E0,-1.276219177E1,1.108428955E1
6.970053223E0,8.657394409E0,-1.533094788E1,8.989166260E0
6.975027588E0,7.281555176E0,-1.787905884E1,6.141067505E0
6.980001953E0,4.511306763E0,-1.968823242E1,3.565368652E0
6.984976319E0,1.529830933E0,-1.974221802E1,1.340469360E0
6.989950684E0,-8.341064453E-1,-1.696868896E1,-3.463745117E-1
6.994925049E0,-3.787567139E0,-1.435803223E1,-1.170196533E0
6.999899414E0,-6.124526978E0,-1.340583801E1,-9.336090088E-1
7.004873779E0,-7.107254028E0,-1.355221558E1,3.617401123E-1
7.009848145E0,-7.191406250E0,-1.401654053E1,2.474227905E0
7.014822510E0,-6.867782593E0,-1.438220215E1,4.861679077E0
7.019796875E0,-6.598999023E0,-1.482693481E1,6.009979248E0
7.024771240E0,-6.122909546E0,-1.537690735E1,5.963821411E0
7.029745606E0,-5.222946167E0,-1.544984436E1,5.750167847E0
7.034719971E0,-4.377075195E0,-1.488867188E1,5.244079590E0
7.039694336E0,-3.676925659E0,-1.382083130E1,4.525787354E0
7.044668701E0,-3.083831787E0,-1.265206909E1,3.805358887E0
7.049643067E0,-2.602416992E0,-1.174952698E1,2.999114990E0
7.054617432E0,-2.129013062E0,-1.100057983E1,2.330154419E0
7.059591797E0,-1.612243652E0,-1.033863831E1,2.024871826E0
7.064566162E0,-1.100830078E0,-9.703659058E0,2.016616821E0
7.069540527E0,-6.622924805E-1,-9.120178223E0,2.246856689E0
7.074514893E0,-3.032531738E-1,-8.550552368E0,2.497558594E0
7.079489258E0,-2.912902832E-2,-8.097961426E0,2.785034180E0
7.084463623E0,1.983947754E-1,-7.830795288E0,3.035491943E0
7.089437988E0,3.414764404E-1,-7.723159790E0,3.178100586E0
7.094412354E0,4.178161621E-1,-7.711868286E0,3.179122925E0
7.099386719E0,4.918975830E-1,-7.795303345E0,3.093612671E0
7.104361084E0,6.706695557E-1,-7.863754272E0,3.175735474E0
7.109335449E0,1.031997681E0,-7.797882080E0,3.442062378E0
7.114309815E0,1.263000488E0,-7.661651611E0,3.590545654E0
7.119284180E0,1.346267700E0,-7.463150024E0,3.624786377E0
7.124258545E0,1.347610474E0,-7.256378174E0,3.628372192E0
7.129232910E0,1.289993286E0,-7.073272705E0,3.731033325E0
7.134207276E0,1.127273560E0,-6.898269653E0,3.835189819E0
7.139181641E0,9.069671631E-1,-6.681289673E0,3.756469727E0
7.144156006E0,7.077941895E-1,-6.391265869E0,3.585281372E0
7.149130371E0,5.496978760E-1,-6.079742432E0,3.533035278E0
7.154104736E0,4.248962402E-1,-5.770843506E0,3.633132935E0
7.159079102E0,3.071594238E-1,-5.450073242E0,3.811279297E0
7.164053467E0,3.088226318E-1,-5.172271729E0,4.010253906E0
7.169027832E0,4.248199463E-1,-4.921875000E0,4.334976196E0
7.174002197E0,5.205993652E-1,-4.734405518E0,4.664306641E0
7.178976563E0,6.941223145E-1,-4.501876831E0,4.624282837E0
7.183950928E0,9.861755371E-1,-4.211944580E0,4.502807617E0
7.188925293E0,1.283782959E0,-3.972030640E0,4.534454346E0
7.193899658E0,1.491775513E0,-3.786026001E0,4.102767944E0
7.198874024E0,1.494735718E0,-3.638671875E0,3.685363770E0
7.203848389E0,1.308944702E0,-3.588256836E0,3.466720581E0
7.208822754E0,1.075576782E0,-3.562683105E0,3.380706787E0
7.213797119E0,8.731536865E-1,-3.549957275E0,3.278564453E0
7.218771485E0,7.207489014E-1,-3.526016235E0,3.093719482E0
7.223745850E0,5.913391113E-1,-3.542480469E0,2.754302979E0
7.228720215E0,4.754180908E-1,-3.671386719E0,2.328430176E0
7.233694580E0,3.173675537E-1,-3.853073120E0,1.928161621E0
7.238668945E0,5.328369141E-2,-4.158843994E0,1.653808594E0
7.243643311E0,-2.462615967E-1,-4.514999390E0,1.631958008E0
7.248617676E0,-4.283447266E-1,-4.854431152E0,1.866119385E0
7.253592041E0,-5.409545898E-1,-5.178100586E0,2.400085449E0
7.258566406E0,-5.665435791E-1,-5.554534912E0,3.093963623E0
7.263540772E0,-5.707397461E-1,-6.065567017E0,3.783782959E0
7.268515137E0,-4.927520752E-1,-6.668151855E0,4.291534424E0
7.273489502E0,-4.113311768E-1,-7.315765381E0,4.559432983E0
7.278463867E0,-3.983459473E-1,-7.934585571E0,4.558563232E0
7.283438233E0,-5.757751465E-1,-8.502853394E0,4.353286743E0
7.288412598E0,-9.003143311E-1,-8.962020874E0,4.072494507E0
7.293386963E0,-1.304443359E0,-9.240310669E0,3.741607666E0
7.298361328E0,-1.627410889E0,-9.283859253E0,3.395675659E0
7.303335694E0,-1.735076904E0,-9.156570435E0,2.663208008E0
7.308310059E0,-1.547363281E0,-8.941497803E0,1.614257812E0
7.313284424E0,-1.153625488E0,-8.568008423E0,1.227478027E0
7.318258789E0,-7.201080322E-1,-8.053543091E0,1.589538574E0
7.323233154E0,-1.452941895E-1,-7.454101562E0,2.053939819E0
7.328207520E0,6.783447266E-1,-6.828018188E0,2.437225342E0
7.333181885E0,1.740737915E0,-6.233459473E0,2.854721069E0
7.338156250E0,2.436233521E0,-5.832611084E0,3.151397705E0
7.343130615E0,4.770202637E0,-4.842712402E0,3.641021729E0
7.348104981E0,6.838333130E0,-3.759567261E0,4.088363647E0
7.353079346E0,6.907806396E0,-3.459640503E0,4.192031860E0
7.358053711E0,6.166091919E0,-3.242172241E0,3.654113770E0
7.363028076E0,5.512802124E0,-2.855209351E0,2.842315674E0
7.368002442E0,4.867034912E0,-2.512191772E0,2.151092529E0
7.372976807E0,4.128417969E0,-2.308242798E0,1.813171387E0
7.377951172E0,3.321350098E0,-2.350845337E0,1.816909790E0
7.382925537E0,2.512908936E0,-2.565231323E0,2.147232056E0
7.387899902E0,1.892257690E0,-2.863555908E0,2.828094482E0
7.392874268E0,1.443161011E0,-3.308288574E0,3.923461914E0
7.397848633E0,9.925994873E-1,-4.011398315E0,5.378814697E0
7.402822998E0,4.514465332E-1,-5.025558472E0,6.969024658E0
7.407797363E0,7.598876953E-3,-6.323287964E0,8.458786011E0
7.412771729E0,-3.206634521E-1,-7.907363892E0,9.701629639E0
7.417746094E0,-5.610046387E-1,-9.675994873E0,1.064424133E1
7.422720459E0,-6.076202393E-1,-1.156947327E1,1.122401428E1
7.427694824E0,-5.981292725E-1,-1.357954407E1,1.144033813E1
7.432669190E0,-5.744018555E-1,-1.554093933E1,1.147618103E1
7.437643555E0,-6.087493896E-1,-1.743017578E1,1.113700867E1
7.442617920E0,-2.419891357E-1,-1.885028076E1,9.777877808E0
7.447592285E0,4.107360840E-1,-1.952256775E1,7.417083740E0
7.452566651E0,1.066146851E0,-1.950276184E1,4.637115479E0
7.457541016E0,1.800598145E0,-1.889553833E1,1.918655396E0
7.462515381E0,2.708236694E0,-1.776016235E1,7.435302734E-1
7.467489746E0,3.034072876E0,-1.712928772E1,1.572387695E0
7.472464111E0,1.278381348E0,-1.728930664E1,3.583724976E0
7.477438477E0,-9.724426270E-1,-1.721717834E1,5.455490112E0
7.482412842E0,-9.300842285E-1,-1.667417908E1,7.109207153E0
7.487387207E0,6.678924561E-1,-1.622978210E1,8.558670044E0
7.492361572E0,2.356674194E0,-1.625776672E1,9.609954834E0
7.497335938E0,3.591354370E0,-1.681106567E1,9.554550171E0
7.502310303E0,4.133911133E0,-1.780343628E1,8.138900757E0
7.507284668E0,3.453125000E0,-1.848664856E1,5.579330444E0
7.512259033E0,2.360748291E0,-1.816091919E1,2.699554443E0
7.517233399E0,1.689010620E0,-1.730091858E1,5.102386475E-1
7.522207764E0,1.354324341E0,-1.625837708E1,-7.885284424E-1
7.527182129E0,1.256164551E0,-1.530448914E1,-1.223449707E0
7.532156494E0,1.182556152E0,-1.455599976E1,-8.989562988E-1
7.537130860E0,1.100067139E0,-1.408024597E1,-2.551879883E-1
7.542105225E0,9.889831543E-1,-1.384977722E1,3.939208984E-1
7.547079590E0,9.169158936E-1,-1.367616272E1,8.116760254E-1
7.552053955E0,1.068939209E0,-1.324813843E1,1.214294434E0
7.557028320E0,1.228012085E0,-1.260986328E1,1.913879395E0
7.562002686E0,2.354034424E0,-1.221522522E1,3.142944336E0
7.566977051E0,1.644027710E0,-1.167565918E1,5.605804443E0
7.571951416E0,1.785522461E0,-1.132023621E1,8.410934448E0
7.576925781E0,2.070541382E0,-1.129641724E1,1.054312134E1
7.581900147E0,2.202728271E0,-1.128440857E1,1.154391479E1
7.586874512E0,2.560653687E0,-1.132687378E1,1.123834229E1
7.591848877E0,3.081512451E0,-1.148851013E1,9.571075439E0
7.596823242E0,3.458114624E0,-1.153910828E1,7.155960083E0
7.601797608E0,3.513504028E0,-1.150923157E1,4.612777710E0
7.606771973E0,3.345077515E0,-1.139111328E1,2.157608032E0
7.611746338E0,3.103332520E0,-1.107095337E1,-1.727142334E-1
7.616720703E0,2.708953857E0,-1.064601135E1,-2.445251465E0
7.621695069E0,2.033691406E0,-1.011856079E1,-4.705490112E0
7.626669434E0,1.345779419E0,-9.587524414E0,-5.709823608E0
7.631643799E0,9.082641602E-1,-9.017730713E0,-5.697937012E0
7.636618164E0,6.543426514E-1,-8.472656250E0,-4.843673706E0
7.641592529E0,3.825683594E-1,-7.946502686E0,-3.461090088E0
7.646566895E0,2.213592529E-1,-7.400543213E0,-1.819381714E0
7.651541260E0,1.829986572E-1,-6.853530884E0,-1.670989990E-1
7.656515625E0,2.106018066E-1,-6.313552856E0,1.374267578E0
7.661489990E0,2.992858887E-1,-5.766693115E0,2.785217285E0
7.666464356E0,4.223937988E-1,-5.161148071E0,4.296798706E0
7.671438721E0,5.079650879E-1,-4.542999268E0,6.144638062E0
7.676413086E0,5.498809814E-1,-3.970138550E0,7.872253418E0
7.681387451E0,5.301971436E-1,-3.479385376E0,8.673263550E0
7.686361817E0,3.335266113E-1,-3.100204468E0,8.569442749E0
7.691336182E0,1.142883301E-2,-2.858795166E0,8.055435181E0
7.696310547E0,-2.688598633E-1,-2.679077148E0,7.324920654E0
7.701284912E0,-3.180847168E-1,-2.528305054E0,6.495208740E0
7.706259277E0,-2.852478027E-1,-2.445831299E0,5.685134888E0
7.711233643E0,-1.678161621E-1,-2.451370239E0,4.907577515E0
7.716208008E0,7.067871094E-2,-2.608123779E0,4.154022217E0
7.721182373E0,1.841278076E-1,-2.802764893E0,3.521865845E0
7.726156738E0,3.872985840E-1,-2.990966797E0,2.946960449E0
7.731131104E0,8.656768799E-1,-3.163269043E0,2.353210449E0
7.736105469E0,1.639877319E0,-3.336578369E0,1.750411987E0
7.741079834E0,2.362106323E0,-3.537261963E0,1.128463745E0
7.746054199E0,2.829528809E0,-3.781417847E0,6.070251465E-1
7.751028565E0,2.962615967E0,-4.095947266E0,1.798706055E-1
7.756002930E0,2.998535156E0,-4.385772705E0,-1.339874268E-1
7.760977295E0,3.017440796E0,-4.613098145E0,-3.188018799E-1
7.765951660E0,3.004272461E0,-4.831420898E0,-4.292602539E-1
7.770926026E0,2.926498413E0,-5.003921509E0,-4.477081299E-1
7.775900391E0,2.771682739E0,-5.156982422E0,-3.285827637E-1
7.780874756E0,2.676025391E0,-5.313781738E0,-1.419525146E-1
7.785849121E0,2.483215332E0,-5.522705078E0,1.673736572E-1
7.790823486E0,2.083557129E0,-5.813507080E0,8.156738281E-1
7.795797852E0,1.963577271E0,-5.996337891E0,1.541412354E0
7.800772217E0,2.077117920E0,-5.975830078E0,2.193283081E0
7.805746582E0,1.994461060E0,-5.942489624E0,2.777114868E0
7.810720947E0,1.810180664E0,-5.892150879E0,3.239105225E0
7.815695313E0,1.434524536E0,-5.963790894E0,3.582412720E0
7.820669678E0,9.059600830E-1,-6.139923096E0,3.756271362E0
7.825629687E0,4.581146240E-1,-6.335510254E0,3.879989624E0
7.830604052E0,5.694580078E-2,-6.617446899E0,4.023376465E0
7.835578418E0,-2.284698486E-1,-6.863128662E0,4.095718384E0
7.840552783E0,-3.138885498E-1,-7.068832397E0,4.069396973E0
7.845527148E0,-3.589019775E-1,-7.213836670E0,4.037719727E0
7.850501513E0,-4.121093750E-1,-7.365707397E0,3.953186035E0
7.855475879E0,-5.245056152E-1,-7.502166748E0,3.751037598E0
7.860450244E0,-6.675262451E-1,-7.626480103E0,3.435760498E0
7.865424609E0,-6.815185547E-1,-7.748092651E0,2.975814819E0
7.870398974E0,-5.580291748E-1,-7.882904053E0,2.375930786E0
7.875373339E0,-3.463287354E-1,-7.987289429E0,1.844680786E0
7.880347705E0,-1.977691650E-1,-8.054809570E0,1.508026123E0
7.885322070E0,-5.592346191E-2,-8.037048340E0,1.391601562E0
7.890296435E0,7.980346680E-2,-7.949539185E0,1.481033325E0
7.895270800E0,2.350158691E-1,-7.870895386E0,1.642623901E0
7.900245166E0,4.278411865E-1,-7.770263672E0,1.905792236E0
7.905219531E0,7.861785889E-1,-7.677688599E0,2.244018555E0
7.910193896E0,1.224029541E0,-7.611221313E0,2.537139893E0
7.915168261E0,1.675125122E0,-7.604614258E0,3.005554199E0
7.920142627E0,2.162399292E0,-7.641571045E0,3.692947388E0
7.925116992E0,2.671096802E0,-7.751998901E0,4.429519653E0
7.930091357E0,3.154174805E0,-7.923934937E0,5.096939087E0
7.935065722E0,3.751831055E0,-8.140396118E0,5.549041748E0
7.940040088E0,4.497055054E0,-8.492218018E0,5.873077393E0
7.945014453E0,5.224716187E0,-9.118423462E0,5.903305054E0
7.949988818E0,5.701156616E0,-1.009429932E1,5.701797485E0
7.954963183E0,5.552688599E0,-1.141653442E1,5.224166870E0
7.959937548E0,4.387084961E0,-1.273342896E1,4.442214966E0
7.964911914E0,2.497283936E0,-1.412260437E1,3.809783936E0
7.969886279E0,8.927917480E-2,-1.545454407E1,3.179748535E0
7.974860644E0,-2.119338989E0,-1.647212219E1,2.517562866E0
7.979835009E0,-3.953674316E0,-1.732496643E1,2.641952515E0
7.984809375E0,-4.811401367E0,-1.776220703E1,3.560424805E0
7.989783740E0,-4.581329346E0,-1.801919556E1,5.152755737E0
7.994758105E0,-3.354568481E0,-1.788519287E1,6.988449097E0
7.999732470E0,-2.000427246E0,-1.775268555E1,9.100494385E0
8.004706836E0,-6.132202148E-1,-1.780873108E1,1.056336975E1
8.009681201E0,1.214645386E0,-1.780505371E1,1.124353027E1
8.014655566E0,3.740722656E0,-1.765534973E1,1.170114136E1
8.019629931E0,6.923095703E0,-1.747871399E1,1.237193298E1
8.024604296E0,9.993255615E0,-1.731086731E1,1.253086853E1
8.029578662E0,1.177076721E1,-1.723468018E1,1.098353577E1
8.034553027E0,1.131925964E1,-1.703915405E1,6.161758423E0
8.039527392E0,8.120819092E0,-1.589044189E1,-9.035034180E-1
8.044501757E0,3.102294922E0,-1.337193298E1,-6.477874756E0
8.049476123E0,-2.876983643E0,-1.134284973E1,-8.873458862E0
8.054450488E0,-7.368331909E0,-1.012063599E1,-7.750167847E0
8.059424853E0,-9.312438965E0,-9.344512939E0,-3.404327393E0
8.064399218E0,-1.002162170E1,-9.308349609E0,1.335281372E0
8.069373584E0,-1.082385254E1,-1.010565186E1,5.554275513E0
8.074347949E0,-1.164411926E1,-1.189051819E1,9.168670654E0
8.079322314E0,-1.045584106E1,-1.431954956E1,1.117308044E1
8.084296679E0,-6.978195190E0,-1.666320801E1,1.093692017E1
8.089271045E0,-3.846389771E0,-1.848158264E1,9.036483765E0
8.094245410E0,-2.335235596E0,-1.936198425E1,7.233230591E0
8.099219775E0,-1.927307129E0,-1.904971313E1,6.285873413E0
8.104194140E0,-1.973388672E0,-1.765078735E1,5.524185181E0
8.109168505E0,-2.044586182E0,-1.569447327E1,4.852920532E0
8.114142871E0,-1.832962036E0,-1.374310303E1,4.471633911E0
8.119117236E0,-1.249435425E0,-1.206364441E1,4.049697876E0
8.124091601E0,-6.403961182E-1,-1.063522339E1,3.954940796E0
8.129065966E0,-2.345275879E-1,-9.575988770E0,3.164352417E0
8.134040332E0,1.667175293E-1,-8.978759766E0,2.180267334E0
8.139014697E0,-1.203155518E-1,-8.757308960E0,1.641784668E0
8.143989062E0,-7.507324219E-1,-8.713607788E0,1.542465210E0
8.148963427E0,-1.288101196E0,-8.789077759E0,1.546630859E0
8.153937793E0,-1.582000732E0,-8.831466675E0,1.382614136E0
8.158912158E0,-1.746505737E0,-8.760375977E0,1.527618408E0
8.163886523E0,-1.707656860E0,-8.603820801E0,1.854614258E0
8.168860888E0,-1.618423462E0,-8.443801880E0,2.128936768E0
8.173835254E0,-1.565612793E0,-8.396896362E0,2.273178101E0
8.178809619E0,-1.452484131E0,-8.345809937E0,2.546066284E0
8.183783984E0,-1.306289673E0,-8.283630371E0,2.669891357E0
8.188758349E0,-1.129409790E0,-8.083724976E0,2.815887451E0
8.193732714E0,-9.585113525E-1,-7.789886475E0,3.031402588E0
8.198707080E0,-7.875061035E-1,-7.369537354E0,3.197280884E0
8.203681445E0,-6.196899414E-1,-6.841659546E0,3.322738647E0
8.208655810E0,-5.258331299E-1,-6.427505493E0,3.465911865E0
8.213630175E0,-4.011383057E-1,-6.161468506E0,3.561538696E0
8.218604541E0,-1.842346191E-1,-6.020965576E0,3.518081665E0
8.223578906E0,1.675872803E-1,-5.955551147E0,3.437850952E0
8.228553271E0,6.431427002E-1,-5.967346191E0,3.411178589E0
8.233527636E0,1.181182861E0,-6.050674438E0,3.412872314E0
8.238502002E0,1.761856079E0,-6.120666504E0,3.414474487E0
8.243476367E0,2.275543213E0,-6.161514282E0,3.411087036E0
8.248450732E0,2.640182495E0,-6.177825928E0,3.418884277E0
8.253425097E0,2.885696411E0,-6.128677368E0,3.405593872E0
8.258399463E0,3.047042847E0,-5.972534180E0,3.381011963E0
8.263373828E0,3.140014648E0,-5.735458374E0,3.382675171E0
8.268348193E0,3.176025391E0,-5.430923462E0,3.417266846E0
8.273322558E0,3.132537842E0,-5.107879639E0,3.475280762E0
8.278296923E0,3.014709473E0,-4.803741455E0,3.566574097E0
8.283271289E0,2.821472168E0,-4.544677734E0,3.695693970E0
8.288245654E0,2.556457520E0,-4.328231812E0,3.831390381E0
8.293220019E0,2.335693359E0,-4.194381714E0,3.939941406E0
8.298194384E0,2.193527222E0,-4.180343628E0,4.024215698E0
8.303168750E0,2.074462891E0,-4.290161133E0,4.091979980E0
8.308143115E0,1.954864502E0,-4.487976074E0,4.174255371E0
8.313117480E0,1.849456787E0,-4.749130249E0,4.226455688E0
8.318091845E0,1.713012695E0,-4.997909546E0,4.303970337E0
8.323066211E0,1.523254395E0,-5.248947144E0,4.338653564E0
8.328040576E0,1.305603027E0,-5.446838379E0,4.363189697E0
8.333014941E0,1.071823120E0,-5.538192749E0,4.519912720E0
8.337989306E0,8.394622803E-1,-5.601455688E0,4.647994995E0
8.342963671E0,5.719451904E-1,-5.646682739E0,4.673995972E0
8.347938037E0,2.430572510E-1,-5.690841675E0,4.773956299E0
8.352912402E0,-3.967285156E-2,-5.716659546E0,5.004089355E0
8.357886767E0,-3.365631104E-1,-5.829162598E0,4.559448242E0
8.362861132E0,-9.186706543E-1,-5.996948242E0,4.441223145E0
8.367835498E0,-9.716033936E-1,-6.164443970E0,3.701644897E0
8.372809863E0,-9.242095947E-1,-6.349563599E0,2.568679810E0
8.377784228E0,-9.266510010E-1,-6.616943359E0,1.923980713E0
8.382758593E0,-9.822540283E-1,-6.881256104E0,1.815841675E0
8.387732959E0,-1.322235107E0,-7.143722534E0,1.940048218E0
8.392707324E0,-1.710418701E0,-7.347137451E0,2.084457397E0
8.397681689E0,-2.198974609E0,-7.493408203E0,2.309890747E0
8.402656054E0,-2.668243408E0,-7.547790527E0,2.684631348E0
8.407630420E0,-3.198455811E0,-7.514343262E0,3.415054321E0
8.412604785E0,-3.779312134E0,-7.430908203E0,4.217697144E0
8.417579150E0,-4.272171021E0,-7.259292603E0,4.581588745E0
8.422553515E0,-4.402816772E0,-6.984954834E0,4.846817017E0
8.427527880E0,-3.720703125E0,-6.718276978E0,4.885803223E0
8.432502246E0,-2.434982300E0,-6.490219116E0,4.972579956E0
8.437476611E0,-8.239440918E-1,-6.307617188E0,5.475738525E0
8.442450976E0,1.107727051E0,-6.127716064E0,5.996520996E0
8.447425341E0,3.047790527E0,-5.861907959E0,6.764999390E0
8.452399707E0,4.647048950E0,-5.504745483E0,7.937377930E0
8.457374072E0,6.247650146E0,-5.105270386E0,9.454360962E0
8.462348437E0,6.647674561E0,-5.044616699E0,1.006036377E1
8.467322802E0,5.830841064E0,-5.185317993E0,9.677825928E0
8.472297168E0,5.046707153E0,-5.109664917E0,8.631866455E0
8.477271533E0,4.770187378E0,-4.774139404E0,6.953475952E0
8.482245898E0,4.677825928E0,-4.293701172E0,4.835205078E0
8.487220263E0,4.426773071E0,-4.051498413E0,2.554077148E0
8.492194629E0,3.579772949E0,-4.297576904E0,5.183715820E-1
8.497168994E0,2.420013428E0,-4.727127075E0,-1.044357300E0
8.502143359E0,1.421722412E0,-4.964706421E0,-1.970138550E0
8.507117724E0,5.523376465E-1,-5.142700195E0,-2.147094727E0
8.512092089E0,-1.853942871E-2,-5.258102417E0,-1.765182495E0
8.517066455E0,-2.660980225E-1,-5.403274536E0,-1.027664185E0
8.522040820E0,-2.248077393E-1,-5.631195068E0,-9.346008301E-2
8.527015185E0,1.940002441E-1,-6.031738281E0,1.221588135E0
8.531989550E0,8.277435303E-1,-6.697525024E0,2.903442383E0
8.536963916E0,1.366638184E0,-7.681961060E0,4.776092529E0
8.541938281E0,1.924682617E0,-8.578857422E0,6.647811890E0
8.546912646E0,2.192031860E0,-9.701019287E0,7.524124146E0
8.551887011E0,1.872970581E0,-1.098271179E1,7.905960083E0
8.556861377E0,1.443222046E0,-1.228118896E1,8.359939575E0
8.561835742E0,1.058868408E0,-1.355854797E1,8.931320190E0
8.566810107E0,6.877899170E-1,-1.477946472E1,9.571395874E0
8.571784472E0,5.593109131E-1,-1.578224182E1,1.011396790E1
8.576758838E0,9.862670898E-1,-1.644993591E1,1.054522705E1
8.581733203E0,2.012161255E0,-1.679426575E1,1.055120850E1
8.586707568E0,2.772842407E0,-1.737144470E1,1.013482666E1
8.591681933E0,2.422988892E0,-1.817509460E1,9.597671509E0
8.596656298E0,1.279785156E0,-1.875167847E1,9.147674561E0
8.601630664E0,1.630249023E-1,-1.893339539E1,8.451049805E0
8.606605029E0,-5.099487305E-2,-1.895367432E1,7.482742310E0
8.611579394E0,6.518859863E-1,-1.901701355E1,6.234817505E0
8.616553759E0,1.555664062E0,-1.899354553E1,4.813278198E0
8.621528125E0,2.217224121E0,-1.882460022E1,3.227569580E0
8.626502490E0,2.370986938E0,-1.841671753E1,1.537200928E0
8.631476855E0,1.932876587E0,-1.784394836E1,1.771087646E-1
8.636451220E0,1.299606323E0,-1.709924316E1,-6.481018066E-1
8.641425586E0,1.019607544E0,-1.617958069E1,-1.282363892E0
8.646399951E0,1.012634277E0,-1.526312256E1,-1.701965332E0
8.651374316E0,1.002288818E0,-1.445520020E1,-1.658233643E0
8.656348681E0,9.941253662E-1,-1.383091736E1,-1.068389893E0
8.661323046E0,1.222579956E0,-1.330436707E1,9.642028809E-2
8.666297412E0,1.362030029E0,-1.292648315E1,1.655792236E0
8.671271777E0,1.195312500E0,-1.291360474E1,3.019409180E0
8.676246142E0,1.389938354E0,-1.290489197E1,3.739074707E0
8.681220507E0,1.406463623E0,-1.215390015E1,5.102035522E0
8.686194873E0,1.856857300E0,-1.145573425E1,7.131118774E0
8.691169238E0,2.238525391E0,-1.138716125E1,8.815261841E0
8.696143603E0,2.590972900E0,-1.174806213E1,1.008068848E1
8.701117968E0,3.069824219E0,-1.218951416E1,1.098071289E1
8.706092334E0,3.228073120E0,-1.259381104E1,1.120106506E1
8.711066699E0,3.107391357E0,-1.290019226E1,1.035180664E1
8.716041064E0,3.204986572E0,-1.297628784E1,8.457855225E0
8.721015429E0,3.460311890E0,-1.292044067E1,5.750350952E0
8.725989795E0,3.483428955E0,-1.272988892E1,2.809951782E0
8.730964160E0,3.349502563E0,-1.250061035E1,-1.181640625E-1
8.735938525E0,2.927429199E0,-1.224134827E1,-4.559173584E0
8.740912890E0,1.990936279E0,-1.185940552E1,-7.489059448E0
8.745887255E0,1.144958496E0,-1.124647522E1,-7.352645874E0
8.750861621E0,8.037261963E-1,-1.045195007E1,-5.496902466E0
8.755835986E0,6.872863770E-1,-9.650909424E0,-3.004058838E0
8.760810351E0,4.006195068E-1,-8.917053223E0,-9.470062256E-1
8.765784716E0,2.291717529E-1,-8.174621582E0,2.473144531E-1
8.770759082E0,2.840423584E-1,-7.413848877E0,1.294998169E0
8.775733447E0,3.956298828E-1,-6.671279907E0,2.497406006E0
8.780707812E0,6.072998047E-1,-5.891662598E0,3.795959473E0
8.785682177E0,7.701873779E-1,-5.187271118E0,4.948028564E0
8.790656543E0,9.432373047E-1,-4.561065674E0,5.822799683E0
8.795630908E0,1.128112793E0,-3.976226807E0,6.465469360E0
8.800605273E0,1.137420654E0,-3.492202759E0,6.895446777E0
8.805579638E0,9.945220947E-1,-3.097137451E0,7.133987427E0
8.810554004E0,6.956176758E-1,-2.850738525E0,7.134628296E0
8.815528369E0,5.211029053E-1,-2.634475708E0,6.940505981E0
8.820502734E0,4.057159424E-1,-2.428970337E0,6.571975708E0
8.825477099E0,1.571350098E-1,-2.299942017E0,6.017013550E0
8.830451464E0,-9.866333008E-2,-2.243515015E0,5.315048218E0
8.835425830E0,-9.451293945E-2,-2.189376831E0,4.593307495E0
8.840400195E0,2.950592041E-1,-2.172744751E0,3.913726807E0
8.845374560E0,8.504180908E-1,-2.274948120E0,3.333511353E0
8.850348925E0,1.336029053E0,-2.491500854E0,2.852157593E0
8.855323291E0,1.816314697E0,-2.786193848E0,2.491195679E0
8.860297656E0,2.373748779E0,-3.114181519E0,2.251647949E0
8.865272021E0,2.826034546E0,-3.447799683E0,2.043869019E0
8.870246386E0,3.164321899E0,-3.750961304E0,1.883712769E0
8.875220752E0,3.410430908E0,-4.089141846E0,1.741439819E0
8.880195117E0,4.082901001E0,-4.384490967E0,1.640762329E0
8.885169482E0,4.091979980E0,-4.769287109E0,1.754974365E0
8.890143847E0,3.522384644E0,-4.994750977E0,1.701980591E0
8.895118213E0,3.751251221E0,-5.164657593E0,1.680053711E0
8.900092578E0,3.751373291E0,-5.281631470E0,1.572708130E0
8.905066943E0,3.459976196E0,-5.359024048E0,1.561645508E0
8.910041308E0,3.422164917E0,-5.379684448E0,1.568572998E0
8.915015673E0,3.579742432E0,-5.524444580E0,1.580657959E0
8.919990039E0,3.214508057E0,-5.678161621E0,1.551086426E0
8.924964404E0,2.166625977E0,-5.767944336E0,1.844345093E0
8.929938769E0,1.674880981E0,-5.783843994E0,1.744781494E0
8.934913134E0,1.099594116E0,-6.014816284E0,1.904235840E0
8.939887500E0,1.085296631E0,-6.209533691E0,1.765823364E0
8.944861865E0,7.960662842E-1,-6.476165771E0,2.297317505E0
8.949836230E0,3.201293945E-1,-6.791503906E0,3.770584106E0
8.954810595E0,8.683776855E-2,-7.048797607E0,4.444290161E0
8.959784961E0,6.051635742E-2,-7.173828125E0,4.536163330E0
8.964759326E0,1.004028320E-2,-7.199218750E0,4.445144653E0
8.969733691E0,1.039123535E-1,-7.248153687E0,4.405990601E0
8.974708056E0,1.976165771E-1,-7.309143066E0,4.312591553E0
8.979682421E0,3.003845215E-1,-7.426940918E0,4.088302612E0
8.984656787E0,4.050445557E-1,-7.546600342E0,3.702423096E0
8.989631152E0,4.574584961E-1,-7.652328491E0,3.214050293E0
8.994605517E0,4.863739014E-1,-7.808517456E0,2.638473511E0
8.999579882E0,6.639709473E-1,-7.957565308E0,2.084747314E0
9.004554248E0,1.131790161E0,-8.065353394E0,1.513229370E0
9.009528613E0,1.457366943E0,-8.150375366E0,1.023818970E0
9.014502978E0,1.687316895E0,-8.178741455E0,9.973144531E-1
9.019477343E0,1.757415771E0,-8.195266724E0,1.340072632E0
9.024451709E0,1.595092773E0,-8.218002319E0,1.742828369E0
9.029426074E0,1.468170166E0,-8.239456177E0,2.151138306E0
9.034400439E0,1.393386841E0,-8.317153931E0,2.511184692E0
9.039374804E0,1.090744019E0,-8.575820923E0,2.850936890E0
9.044349170E0,1.033401489E0,-8.959991455E0,3.250198364E0
9.049323535E0,1.242568970E0,-9.447494507E0,3.823501587E0
9.054297900E0,1.553344727E0,-1.003074646E1,4.553619385E0
9.059272265E0,1.957580566E0,-1.073730469E1,5.303497314E0
9.064246630E0,2.539886475E0,-1.148242188E1,6.037506104E0
9.069220996E0,3.409759521E0,-1.221475220E1,7.525344849E0
9.074195361E0,2.836700439E0,-1.356036377E1,6.720062256E0
9.079169726E0,1.192626953E0,-1.510952759E1,3.522201538E0
9.084144091E0,-3.472290039E-1,-1.653271484E1,1.676788330E0
9.089118457E0,-1.735488892E0,-1.753247070E1,5.108032227E-1
9.094092822E0,-3.256195068E0,-1.835459900E1,-1.373596191E-1
9.099067187E0,-3.540527344E0,-1.848243713E1,1.389007568E0
9.104041552E0,-3.014923096E0,-1.794477844E1,4.622207642E0
9.109015918E0,-2.450729370E0,-1.681675720E1,7.974975586E0
9.113990283E0,-2.054367065E0,-1.535084534E1,1.031454468E1
9.118964648E0,-1.080566406E0,-1.394357300E1,1.137222290E1
9.123939013E0,3.525695801E-1,-1.310076904E1,1.168862915E1
9.128913379E0,2.360260010E0,-1.299530029E1,1.164843750E1
9.133887744E0,4.915267944E0,-1.326737976E1,1.176995850E1
9.138862109E0,7.330688477E0,-1.368046570E1,1.231048584E1
9.143836474E0,8.816787720E0,-1.428997803E1,1.166107178E1
9.148810839E0,8.944641113E0,-1.479949951E1,8.418350220E0
9.153785205E0,7.717559814E0,-1.451109314E1,3.184600830E0
9.158759570E0,4.838989258E0,-1.293104553E1,-1.203979492E0
9.163733935E0,6.842651367E-1,-1.086701965E1,-3.066696167E0
9.168708300E0,-3.661666870E0,-9.654861450E0,-2.919357300E0
9.173682666E0,-7.040756226E0,-9.633850098E0,-1.575027466E0
9.178657031E0,-9.106475830E0,-1.070649719E1,6.891174316E-1
9.183631396E0,-1.011961365E1,-1.243653870E1,3.087280273E0
9.188605761E0,-1.006391907E1,-1.412544250E1,5.381408691E0
9.193580127E0,-8.645095825E0,-1.542146301E1,7.418380737E0
9.198554492E0,-6.492187500E0,-1.645008850E1,8.839050293E0
9.203528857E0,-4.852386475E0,-1.720008850E1,9.224792480E0
9.208503222E0,-4.114852905E0,-1.749842834E1,8.330001831E0
9.213477588E0,-3.777389526E0,-1.712194824E1,7.268173218E0
9.218451953E0,-3.339111328E0,-1.611112976E1,6.586502075E0
9.223426318E0,-2.481765747E0,-1.477653503E1,5.649566650E0
9.228400683E0,-1.297149658E0,-1.339274597E1,4.475952148E0
9.233375048E0,-7.279968262E-2,-1.199118042E1,3.303665161E0
9.238349414E0,9.560241699E-1,-1.056477356E1,2.262481689E0
9.243323779E0,1.479370117E0,-9.199859619E0,1.897430420E0
9.248298144E0,1.374038696E0,-8.176712036E0,1.101898193E0
9.253272509E0,8.915557861E-1,-7.488525391E0,6.137390137E-1
9.258246875E0,2.216796875E-1,-7.071044922E0,6.388397217E-1
9.263221240E0,-2.733764648E-1,-6.899719238E0,9.537200928E-1
9.268195605E0,-5.954742432E-1,-6.815231323E0,1.471176147E0
9.273169970E0,-6.286621094E-1,-6.686157227E0,1.880477905E0
9.278144336E0,-4.148406982E-1,-6.501022339E0,2.226593018E0
9.283118701E0,-2.523956299E-1,-6.323043823E0,2.400512695E0
9.288093066E0,-2.465820312E-2,-6.164718628E0,2.509475708E0
9.293067431E0,1.802062988E-1,-6.026504517E0,2.666595459E0
9.298041796E0,4.890899658E-1,-5.860549927E0,2.942352295E0
9.303016162E0,6.902008057E-1,-5.742004395E0,3.340881348E0
9.307990527E0,8.529357910E-1,-5.619689941E0,3.772827148E0
9.312964892E0,9.269714355E-1,-5.460937500E0,4.265975952E0
9.317939257E0,6.862182617E-1,-5.254898071E0,4.562881470E0
9.322913623E0,1.760559082E-1,-5.031036377E0,4.727783203E0
9.327887988E0,-3.757476807E-1,-4.810409546E0,4.789566040E0
9.332862353E0,-7.447509766E-1,-4.550750732E0,4.777450562E0
9.337836718E0,-7.460632324E-1,-4.320373535E0,4.736846924E0
9.342811084E0,-5.681915283E-1,-4.171752930E0,4.779235840E0
9.347785449E0,-2.936248779E-1,-4.117309570E0,4.807632446E0
9.352759814E0,-5.523681641E-3,-4.143905640E0,4.748260498E0
9.357734179E0,4.814910889E-1,-4.145294189E0,4.552062988E0
9.362708545E0,8.489227295E-1,-4.208618164E0,4.436447144E0
9.367682910E0,1.164474487E0,-4.306213379E0,4.403656006E0
9.372657275E0,1.461349487E0,-4.415527344E0,4.384735107E0
9.377631640E0,1.842941284E0,-4.499084473E0,4.315933228E0
9.382606005E0,2.260086060E0,-4.580688477E0,4.126907349E0
9.387580371E0,2.672286987E0,-4.696319580E0,3.888000488E0
9.392554736E0,3.151855469E0,-4.831222534E0,3.668151855E0
9.397529101E0,3.602172852E0,-4.935592651E0,3.508758545E0
9.402503466E0,3.952163696E0,-5.024291992E0,3.332717896E0
9.407477832E0,4.080337524E0,-5.095153809E0,3.043472290E0
9.412452197E0,3.902847290E0,-5.141250610E0,2.678939819E0
9.417426562E0,3.439285278E0,-5.120712280E0,2.350326538E0
9.422400927E0,2.826492310E0,-5.068145752E0,2.067260742E0
9.427375293E0,2.258087158E0,-5.060852051E0,1.830062866E0
9.432349658E0,1.716400146E0,-5.144073486E0,1.797927856E0
9.437324023E0,1.048263550E0,-5.360794067E0,1.989593506E0
9.442298388E0,2.696380615E-1,-5.725112915E0,2.181228638E0
9.447272754E0,-3.724212646E-1,-6.149993896E0,2.454330444E0
9.452247119E0,-9.965667725E-1,-6.597671509E0,3.063842773E0
9.457221484E0,-1.518524170E0,-7.126815796E0,3.686431885E0
9.462195849E0,-1.957824707E0,-7.635559082E0,4.240356445E0
9.467170214E0,-2.519302368E0,-8.071243286E0,4.871597290E0
9.472144580E0,-3.117233276E0,-8.419845581E0,5.444030762E0
9.477118945E0,-3.531646729E0,-8.571975708E0,5.573120117E0
9.482093310E0,-3.633880615E0,-8.584228516E0,5.269653320E0
9.487067675E0,-3.522659302E0,-8.402160645E0,5.197113037E0
9.492042041E0,-2.935714722E0,-8.182067871E0,5.261627197E0
9.497016406E0,-1.991027832E0,-7.913925171E0,5.411163330E0
9.501990771E0,-7.766876221E-1,-7.628524780E0,5.565292358E0
9.506965136E0,5.225677490E-1,-7.379516602E0,5.568771362E0
9.511939502E0,1.910949707E0,-7.086410522E0,5.573883057E0
9.516913867E0,3.282836914E0,-6.680831909E0,5.635284424E0
9.521888232E0,4.444137573E0,-6.175216675E0,5.566757202E0
9.526862597E0,5.318222046E0,-5.548538208E0,5.326370239E0
9.531836963E0,5.805603027E0,-4.839889526E0,4.857376099E0
9.536811328E0,5.773605347E0,-4.268539429E0,4.061706543E0
9.541785693E0,5.329345703E0,-3.896118164E0,2.973495483E0
9.546760058E0,4.524841309E0,-3.890625000E0,1.872985840E0
9.551734423E0,3.784317017E0,-4.031219482E0,9.809265137E-1
9.556708789E0,3.285232544E0,-4.166793823E0,5.471038818E-1
9.561683154E0,3.030532837E0,-4.283294678E0,6.607666016E-1
9.566657519E0,2.804367065E0,-4.592590332E0,1.455307007E0
9.571631884E0,2.367935181E0,-5.354064941E0,2.873062134E0
9.576606250E0,1.680770874E0,-6.526397705E0,4.633010864E0
9.581580615E0,9.043273926E-1,-7.876663208E0,6.407073975E0
9.586554980E0,2.003784180E-1,-9.201950073E0,7.933685303E0
9.591529345E0,-3.869476318E-1,-1.052484131E1,9.191513062E0
9.596503711E0,-8.260803223E-1,-1.189366150E1,1.020457458E1
9.601478076E0,-9.142608643E-1,-1.322705078E1,1.084753418E1
9.606452441E0,-5.039062500E-1,-1.453729248E1,1.102134705E1
9.611426806E0,1.616210938E-1,-1.582022095E1,1.079077148E1
9.616401171E0,9.790649414E-1,-1.703132629E1,1.021737671E1
9.621375537E0,2.192855835E0,-1.795895386E1,9.325988770E0
9.626349902E0,3.398147583E0,-1.851620483E1,8.016693115E0
9.631324267E0,3.566940308E0,-1.902365112E1,6.314468384E0
9.636298632E0,2.415832520E0,-1.950408936E1,4.619338989E0
9.641272998E0,1.010375977E0,-1.969267273E1,3.398803711E0
9.646247363E0,-3.501892090E-1,-1.961314392E1,2.960540771E0
9.651221728E0,-1.139434814E0,-1.930322266E1,3.135391235E0
9.656196093E0,-1.129623413E0,-1.881272888E1,3.546264648E0
9.661170459E0,-4.319152832E-1,-1.843612671E1,3.650573730E0
9.666144824E0,7.355499268E-1,-1.782374573E1,3.298522949E0
9.671119189E0,2.178466797E0,-1.718241882E1,2.852111816E0
9.676093554E0,3.303787231E0,-1.651235962E1,2.572738647E0
9.681067920E0,3.451324463E0,-1.597235107E1,2.468444824E0
9.686042285E0,3.218978882E0,-1.528282166E1,1.938278198E0
9.691016650E0,2.920104980E0,-1.440530396E1,1.314712524E0
9.695991015E0,2.606002808E0,-1.358370972E1,9.940643311E-1
9.700965380E0,2.400985718E0,-1.294888306E1,1.111846924E0
9.705939746E0,2.546936035E0,-1.244903564E1,1.780761719E0
9.710914111E0,2.689224243E0,-1.217788696E1,2.721817017E0
9.715888476E0,2.745407104E0,-1.199256897E1,3.569198608E0
9.720862841E0,2.557556152E0,-1.188208008E1,4.318984985E0
9.725837207E0,2.160842896E0,-1.175251770E1,4.817840576E0
9.730811572E0,2.114227295E0,-1.160877991E1,5.306335449E0
9.735785937E0,2.210815430E0,-1.160627747E1,6.021575928E0
9.740760302E0,1.738540649E0,-1.142616272E1,6.948028564E0
9.745734668E0,1.910827637E0,-1.143824768E1,7.650253296E0
9.750709033E0,2.104141235E0,-1.160063171E1,7.856994629E0
9.755683398E0,2.305480957E0,-1.175177002E1,7.400543213E0
9.760657763E0,2.557861328E0,-1.181140137E1,6.179748535E0
9.765632129E0,2.784301758E0,-1.172189331E1,4.358856201E0
9.770606494E0,2.839385986E0,-1.155325317E1,2.313980103E0
9.775580859E0,2.671997070E0,-1.131532288E1,2.680206299E-1
9.780555224E0,2.288314819E0,-1.097608948E1,-1.651596069E0
9.785529589E0,1.809509277E0,-1.050787354E1,-2.944824219E0
9.790503955E0,1.329895020E0,-9.963623047E0,-3.358200073E0
9.795478320E0,9.539337158E-1,-9.376312256E0,-2.986083984E0
9.800452685E0,7.091064453E-1,-8.746261597E0,-2.063262939E0
9.805427050E0,5.414733887E-1,-8.110244751E0,-9.846038818E-1
9.810401416E0,4.200134277E-1,-7.464675903E0,-5.551147461E-2
9.815375781E0,3.560028076E-1,-6.810867310E0,6.557464600E-1
9.820350146E0,3.387298584E-1,-6.232254028E0,1.154296875E0
9.825324511E0,3.581085205E-1,-5.735534668E0,1.570236206E0
9.830298877E0,4.777679443E-1,-5.219238281E0,2.135162354E0
9.835273242E0,6.423797607E-1,-4.732894897E0,3.106338501E0
9.840247607E0,8.158264160E-1,-4.319412231E0,4.281372070E0
9.845221972E0,7.765502930E-1,-3.988510132E0,5.186233521E0
9.850196338E0,8.347930908E-1,-3.687255859E0,5.695617676E0
9.855170703E0,9.265136719E-1,-3.415435791E0,6.118713379E0
9.860145068E0,8.295745850E-1,-3.140899658E0,6.333938599E0
9.865119433E0,6.773529053E-1,-2.984909058E0,6.425521851E0
9.870093798E0,3.709106445E-1,-2.953628540E0,6.299621582E0
9.875068164E0,1.995239258E-1,-2.942916870E0,6.034423828E0
9.880042529E0,2.771606445E-1,-2.915435791E0,5.610122681E0
9.885016894E0,5.177764893E-1,-2.869567871E0,5.135330200E0
9.889991259E0,4.770965576E-1,-2.925155640E0,4.663513184E0
9.894965625E0,5.446472168E-1,-2.972274780E0,4.183959961E0
9.899939990E0,7.995300293E-1,-3.125579834E0,3.865737915E0
9.904914355E0,1.331604004E0,-3.461654663E0,3.582534790E0
9.909888720E0,1.746154785E0,-3.801818848E0,3.161193848E0
9.914863086E0,2.157455444E0,-4.158905029E0,2.658935547E0
9.919837451E0,2.681777954E0,-4.532531738E0,2.184921265E0
9.924811816E0,3.036544800E0,-4.866119385E0,1.819137573E0
9.929786181E0,3.264419556E0,-5.132476807E0,1.570999146E0
9.934760546E0,2.912628174E0,-5.439147949E0,1.302322388E0
9.939734912E0,2.939544678E0,-5.679321289E0,1.068283081E0
9.944709277E0,2.999267578E0,-5.944305420E0,9.306335449E-1
9.949683642E0,2.703842163E0,-6.150817871E0,8.797760010E-1
9.954658007E0,2.439620972E0,-6.266860962E0,8.849639893E-1
9.959632373E0,2.401046753E0,-6.365219116E0,1.007781982E0
9.964606738E0,2.439407349E0,-6.430252075E0,1.229080200E0
9.969581103E0,2.383728027E0,-6.393249512E0,1.520935059E0
9.974555468E0,2.165557861E0,-6.291091919E0,1.817764282E0
9.979529834E0,1.806838989E0,-6.163009644E0,2.093490601E0
9.984504199E0,1.539916992E0,-6.038833618E0,2.284103394E0
9.989478564E0,1.450424194E0,-5.858001709E0,2.340164185E0
9.994452929E0,1.400085449E0,-5.732696533E0,2.382537842E0
9.999427295E0,1.053939819E0,-5.789474487E0,2.715850830E0
1.000440166E1,1.114379883E0,-5.741790771E0,3.137893677E0
1.000937602E1,1.208450317E0,-5.700500488E0,3.631454468E0
1.001435039E1,1.284973145E0,-5.709625244E0,4.177139282E0
1.001932476E1,1.329223633E0,-5.774505615E0,4.494842529E0
1.002429912E1,1.320571899E0,-5.891479492E0,4.585403442E0
1.002927349E1,1.299179077E0,-6.029220581E0,4.353179932E0
1.003424785E1,1.331298828E0,-6.197219849E0,4.047531128E0
1.003922222E1,1.343872070E0,-6.392318726E0,4.090805054E0
1.004419658E1,1.314529419E0,-6.646209717E0,4.084136963E0
1.004917095E1,1.263748169E0,-6.877792358E0,3.738723755E0
1.005414531E1,1.358016968E0,-7.047348022E0,3.513076782E0
1.005911968E1,1.687255859E0,-7.181930542E0,4.008972168E0
1.006409404E1,2.154907227E0,-7.374572754E0,4.554794312E0
1.006906841E1,2.558181763E0,-7.596618652E0,4.745239258E0
1.007404277E1,2.873245239E0,-7.746795654E0,4.759231567E0
1.007901714E1,3.304321289E0,-7.815032959E0,4.760940552E0
1.008399150E1,3.314086914E0,-7.932739258E0,4.669799805E0
1.008896587E1,3.004196167E0,-8.113281250E0,4.808929443E0
1.009394023E1,2.600708008E0,-8.428527832E0,4.548614502E0
1.009891460E1,2.288146973E0,-8.872344971E0,4.113800049E0
1.010388896E1,2.035537720E0,-9.556472778E0,3.787567139E0
1.010886333E1,1.111480713E0,-1.060820007E1,3.024215698E0
1.011383770E1,-7.675170898E-2,-1.187043762E1,2.057937622E0
1.011881206E1,-8.726043701E-1,-1.307720947E1,1.067703247E0
1.012378642E1,-1.216293335E0,-1.411105347E1,1.098907471E0
1.012876079E1,-1.064865112E0,-1.490010071E1,1.700866699E0
1.013373516E1,-5.204315186E-1,-1.549569702E1,2.149017334E0
1.013870952E1,-1.060638428E-1,-1.603598022E1,2.728240967E0
1.014368389E1,-6.570129395E-1,-1.673806763E1,4.285049438E0
1.014865825E1,-1.987777710E0,-1.730398560E1,5.666473389E0
1.015363262E1,-3.033447266E0,-1.715744019E1,5.930999756E0
1.015860698E1,-3.412353516E0,-1.613850403E1,6.073608398E0
1.016358135E1,-3.023574829E0,-1.459828186E1,6.712051392E0
1.016855571E1,-1.753417969E0,-1.321806335E1,8.354461670E0
1.017353008E1,9.959411621E-1,-1.242532349E1,1.097186279E1
1.017850444E1,5.070129395E0,-1.231552124E1,1.461212158E1
1.018347881E1,8.869522095E0,-1.272785950E1,1.838919067E1
1.018845317E1,1.131185913E1,-1.353083801E1,1.967514038E1
1.019342754E1,1.300764465E1,-1.445008850E1,1.586453247E1
1.019840190E1,1.282328796E1,-1.507441711E1,7.682769775E0
1.020337627E1,1.039816284E1,-1.469396973E1,-5.222778320E-1
1.020835063E1,6.369537354E0,-1.331886292E1,-5.447875977E0
1.021332500E1,1.749542236E0,-1.050425720E1,-6.802993774E0
1.021829936E1,-3.264404297E0,-7.704193115E0,-5.470199585E0
1.022327373E1,-7.636672974E0,-6.826171875E0,-2.587463379E0
1.022824810E1,-9.825790405E0,-7.886245728E0,2.169296265E0
1.023322246E1,-1.052194214E1,-9.742141724E0,6.891723633E0
1.023819683E1,-1.063763428E1,-1.194296265E1,9.758773804E0
1.024317119E1,-9.751708984E0,-1.406886292E1,1.062664795E1
1.024814556E1,-7.665145874E0,-1.603356934E1,9.894821167E0
1.025311992E1,-5.783920288E0,-1.790296936E1,8.412277222E0
1.025809429E1,-4.718154907E0,-1.931454468E1,7.556015015E0
1.026306865E1,-3.868789673E0,-2.012539673E1,6.752746582E0
1.026804302E1,-2.725936890E0,-2.012039185E1,6.173400879E0
1.027301738E1,-1.299011230E0,-1.915809631E1,5.563446045E0
1.027799175E1,3.254699707E-2,-1.737043762E1,4.538162231E0
1.028296611E1,1.122009277E0,-1.524856567E1,3.323822021E0
1.028794048E1,1.650909424E0,-1.297348022E1,2.267517090E0
1.029291484E1,1.657653809E0,-1.085383606E1,1.524002075E0
1.029788921E1,1.301681519E0,-9.264373779E0,9.860382080E-1
1.030286357E1,5.725402832E-1,-8.305206299E0,7.489318848E-1
1.030783794E1,-3.217010498E-1,-7.922622681E0,8.271179199E-1
1.031281230E1,-1.044143677E0,-7.872131348E0,1.090164185E0
1.031778667E1,-1.374542236E0,-7.871261597E0,1.432006836E0
1.032276104E1,-1.207092285E0,-7.741485596E0,1.757369995E0
1.032773540E1,-8.448791504E-1,-7.515045166E0,1.802291870E0
1.033270976E1,-5.369873047E-1,-7.266921997E0,1.579284668E0
